40	Head	00b4120a												Throax	00b411e8												LUpArm	00b411d9												LFoArm	00b41148												RUpArm	00b411db												RFoArm	00b41204												Waist	00b411f7												Lthigh	00b411f4												Lshank	00b4111b												Rthigh	00b411c8												Rshank	00b411ee												
PacketCount	q0	q1	q2	q3	accX	accY	accZ	gyrX	gyrY	gyrZ	magX	magY	magZ	q0	q1	q2	q3	accX	accY	accZ	gyrX	gyrY	gyrZ	magX	magY	magZ	q0	q1	q2	q3	accX	accY	accZ	gyrX	gyrY	gyrZ	magX	magY	magZ	q0	q1	q2	q3	accX	accY	accZ	gyrX	gyrY	gyrZ	magX	magY	magZ	q0	q1	q2	q3	accX	accY	accZ	gyrX	gyrY	gyrZ	magX	magY	magZ	q0	q1	q2	q3	accX	accY	accZ	gyrX	gyrY	gyrZ	magX	magY	magZ	q0	q1	q2	q3	accX	accY	accZ	gyrX	gyrY	gyrZ	magX	magY	magZ	q0	q1	q2	q3	accX	accY	accZ	gyrX	gyrY	gyrZ	magX	magY	magZ	q0	q1	q2	q3	accX	accY	accZ	gyrX	gyrY	gyrZ	magX	magY	magZ	q0	q1	q2	q3	accX	accY	accZ	gyrX	gyrY	gyrZ	magX	magY	magZ	q0	q1	q2	q3	accX	accY	accZ	gyrX	gyrY	gyrZ	magX	magY	magZ	
0	0.731786	0.0442042	-0.0551167	-0.677862	0.0737852	1.82818	10.9192	0.0429395	-0.0707808	0.0155328	0.0332031	0.232666	-0.957275	0.51978	-0.458682	-0.405455	-0.595857	9.62018	0.0611474	2.52354	0.0839308	-0.0247471	-0.00183221	-0.760742	0.294678	-0.156494	0.789034	0.097777	0.0437295	-0.60494	-2.03617	0.978017	10.7165	0.0133009	-0.0133706	0.0554082	0.26709	0.196533	-0.902588	0.0692328	0.230515	0.521309	-0.818722	-4.62455	-8.02468	3.65471	-0.00196351	-0.00258289	0.0367835	0.0922852	0.924561	-0.447754	0.626199	-0.0937631	0.158652	-0.75757	-0.605693	-3.5525	9.11284	0.0439291	-0.0186491	0.0388691	-0.00952148	0.661377	-0.693604	0.866814	0.338185	0.348667	0.112676	-5.61605	7.50092	6.3216	-0.0194063	0.0295168	0.00218392	0.833008	-0.540527	-0.0791016	0.352704	-0.585772	-0.532789	-0.498605	9.27127	1.09993	-2.26353	0.0496982	0.0291641	-0.0215247	-0.904053	0.265869	0.30127	0.424013	-0.516129	-0.49284	-0.557613	9.65991	0.898846	-0.143352	0.0117067	0.0305567	-0.0138039	-1.02075	0.293457	0.0759277	0.432228	-0.489035	-0.519605	-0.551393	9.80861	1.31464	-0.36744	0.0563162	0.0151328	-0.0125389	-1.05347	0.221191	0.048584	0.492523	-0.549452	-0.486498	-0.467807	9.75367	-0.62277	-0.808616	-0.0249689	0.0219529	-0.00331368	-0.920654	0.471191	0.0864258	0.528193	-0.539116	-0.512726	-0.40924	9.80321	-1.46958	-0.992591	0.00294418	0.00435488	-0.00486009	-0.959961	0.580811	0.0585938	
1	0.732029	0.043918	-0.0556673	-0.677574	0.221462	2.01387	10.8512	0.0137991	-0.0506871	0.0322174	0.03125	0.228271	-0.950684	0.520119	-0.458472	-0.40614	-0.595256	9.79224	0.0735878	2.53129	0.066725	-0.015877	-0.0086534	-0.760742	0.299072	-0.149414	0.789681	0.0980193	0.0425082	-0.604144	-1.68653	1.31264	10.8818	0.022173	-0.0168351	0.0380604	0.266846	0.19873	-0.902832	0.0701194	0.230091	0.521042	-0.818936	-4.47673	-8.16415	3.5562	0.0399744	-0.0288185	0.0206572	0.0830078	0.935547	-0.438965	0.626639	-0.0936631	0.158123	-0.757329	-0.692315	-3.47721	9.25841	0.035632	-0.0204049	0.0210802	-0.0185547	0.670166	-0.686768	0.866892	0.337767	0.348697	0.113232	-5.66651	7.7475	6.51784	-0.0377758	0.0339667	0.00817866	0.828613	-0.540527	-0.0769043	0.353875	-0.584375	-0.532893	-0.499303	9.19511	1.12011	-2.47306	0.046412	0.0792825	-0.0346985	-0.897705	0.266113	0.299072	0.423947	-0.515999	-0.492992	-0.557649	9.85169	1.43358	-0.0375778	-0.0327571	0.0207416	-0.0289195	-1.02075	0.295654	0.0759277	0.432593	-0.488732	-0.519743	-0.551246	9.74766	1.80264	0.0280279	0.042541	0.0235391	-0.0166094	-1.05591	0.218994	0.0463867	0.492492	-0.549527	-0.486301	-0.467956	9.76036	-0.804894	-0.459493	-0.0144058	0.022148	0.00751588	-0.918457	0.475586	0.0839844	0.528123	-0.539138	-0.512744	-0.409281	9.71603	-1.24429	-1.1483	-0.00849585	0.00408315	-0.00805014	-0.95752	0.578613	0.0563965	
2	0.733407	0.0435057	-0.0563105	-0.676055	0.335823	1.74195	10.75	-0.000824811	0.00110117	0.0506035	0.0288086	0.228271	-0.950684	0.520839	-0.458153	-0.406164	-0.594856	9.56547	-0.00119357	2.51175	0.0351981	0.0328797	0.0102635	-0.758545	0.294678	-0.156494	0.790553	0.0969437	0.0434036	-0.603112	-2.12568	1.04565	10.6353	-0.059586	-0.0108404	0.0411578	0.264893	0.200928	-0.895996	0.0708091	0.229988	0.521618	-0.818539	-4.567	-7.93776	3.64232	-0.0656235	-0.0185354	0.0341191	0.0898438	0.93335	-0.441162	0.626639	-0.0936631	0.158123	-0.757329	-0.692315	-3.47721	9.25841	0.035632	-0.0204049	0.0210802	-0.0185547	0.670166	-0.686768	0.866733	0.336975	0.349486	0.114378	-5.46963	7.46904	6.36606	-0.0206177	0.0654813	-0.00796045	0.828613	-0.540527	-0.0705566	0.354508	-0.583975	-0.533264	-0.498926	9.38325	1.2224	-2.207	0.0866825	0.0257077	-0.0141856	-0.902344	0.274658	0.299072	0.423249	-0.516375	-0.492063	-0.558651	9.86065	1.31401	0.0712704	-0.118262	0.0453378	-0.0283204	-1.02075	0.293457	0.0759277	0.430595	-0.490787	-0.51726	-0.553315	9.74391	1.17278	-0.206878	-0.18766	-0.00632178	-0.00371074	-1.04663	0.221191	0.0488281	0.492166	-0.549944	-0.486032	-0.468089	9.62171	-0.871347	-0.794461	-0.0382788	-0.0119464	0.0138722	-0.923096	0.477783	0.088623	0.526376	-0.540966	-0.511259	-0.410973	9.58481	-2.00091	-1.17707	-0.109513	0.0158907	0.00516704	-0.959717	0.578613	0.0610352	
3	0.734228	0.0437389	-0.0557293	-0.675197	0.217122	1.50499	10.9155	0.00785756	0.0128085	0.0407265	0.0263672	0.234619	-0.950928	0.521919	-0.457551	-0.406347	-0.594247	9.61157	0.230711	2.4191	0.0222931	0.0389601	0.00563525	-0.760742	0.296875	-0.154053	0.791131	0.0984685	0.0437236	-0.602082	-1.92958	1.24899	10.6135	0.0457456	0.0944108	0.0526318	0.26709	0.194336	-0.911865	0.0717173	0.228911	0.522164	-0.818413	-4.48717	-7.90774	3.46892	0.00471824	-0.0529812	-0.00777829	0.0830078	0.93335	-0.432373	0.628622	-0.0941393	0.158567	-0.755532	-0.539856	-3.30791	9.01648	-0.0396446	-0.0119097	0.0428965	-0.0100098	0.670166	-0.688965	0.86643	0.336174	0.350787	0.11504	-5.51935	7.3799	6.38847	-0.0191385	0.0791912	-0.0198447	0.830566	-0.53833	-0.0705566	0.355559	-0.583427	-0.533365	-0.49871	9.32889	1.17296	-2.47623	0.0564264	0.0254364	-0.00723128	-0.902344	0.274658	0.301025	0.422158	-0.517003	-0.490603	-0.560178	9.62697	0.655228	-0.124416	-0.0922885	0.0227909	-0.0187083	-1.01636	0.295654	0.0734863	0.430139	-0.491233	-0.516857	-0.55365	9.71795	1.37932	0.000920079	-0.0596701	-0.00609948	-0.0173926	-1.05347	0.221191	0.048584	0.492184	-0.549836	-0.486216	-0.468007	9.95404	-0.668538	-0.875344	0.0181361	0.0182506	-0.00597819	-0.922852	0.473389	0.0842285	0.526825	-0.540615	-0.511254	-0.410865	9.84683	-1.31667	-0.86162	-0.0386468	0.0154974	0.00601115	-0.957764	0.585205	0.0585938	
4	0.734822	0.0439917	-0.0549874	-0.674594	0.134253	1.58655	10.9062	-0.0239419	0.0274084	0.0253765	0.0356445	0.226074	-0.948486	0.522613	-0.457617	-0.405596	-0.594099	9.71793	-0.0887147	2.48256	-0.011817	0.0360739	0.00956272	-0.758545	0.299072	-0.161133	0.791725	0.0975901	0.044727	-0.601371	-2.04347	1.02147	10.6437	-0.0509053	3.56967e-05	0.0199838	0.273438	0.196289	-0.900391	0.0718275	0.227659	0.522793	-0.818352	-4.5705	-7.95162	3.23766	0.00635215	-0.0318346	-0.0427567	0.083252	0.931152	-0.436768	0.629435	-0.0954725	0.158906	-0.754616	-0.458531	-3.4742	9.17957	-0.029078	-0.044483	-0.00814285	-0.0078125	0.670166	-0.684326	0.866182	0.335281	0.352151	0.115347	-5.55711	7.41883	6.4597	-0.02206	0.0710691	-0.0399842	0.835205	-0.544678	-0.0725098	0.356132	-0.582977	-0.532822	-0.499408	9.15542	1.05824	-2.22148	-0.0305102	0.0553283	-0.00890485	-0.897949	0.272461	0.294678	0.42313	-0.516654	-0.491674	-0.558825	9.78354	1.30734	-0.262373	0.0932267	0.000176882	-0.0101261	-1.01855	0.293457	0.0688477	0.429739	-0.491611	-0.516402	-0.554051	9.72589	1.53587	-0.0592101	0.01255	0.00181681	-0.0107252	-1.05371	0.223389	0.0532227	0.491859	-0.550448	-0.486124	-0.467724	9.68548	-1.05879	-0.429936	-0.0460096	-0.0116443	0.0113978	-0.920654	0.475586	0.0864258	0.526964	-0.540602	-0.511525	-0.410365	9.70682	-1.38387	-0.991048	0.0709355	-0.00723957	-0.00246353	-0.959961	0.583008	0.060791	
5	0.7349	0.0439448	-0.0540702	-0.674587	0.218582	1.55738	10.9507	-0.0281897	0.0241533	-0.00361566	0.0375977	0.232666	-0.948486	0.523057	-0.457516	-0.404909	-0.594255	9.72538	0.0223888	2.60138	-0.0136592	0.0402449	0.0056286	-0.758545	0.299072	-0.156494	0.7919	0.0969283	0.0460437	-0.601148	-2.23137	1.25257	10.5349	-0.0780606	0.00425982	-0.00818533	0.273438	0.200684	-0.900635	0.0710932	0.226221	0.522807	-0.818806	-4.3565	-8.22408	3.54305	0.00556796	-0.0239471	-0.0440332	0.0761719	0.935547	-0.441162	0.629501	-0.0957051	0.159051	-0.754501	-0.469053	-3.42829	9.2961	-0.0134688	0.0287768	-0.00266888	-0.0100098	0.672363	-0.691406	0.866017	0.335385	0.35229	0.115858	-5.67167	7.7125	6.45282	0.023644	0.0112044	0.010467	0.828613	-0.540527	-0.0705566	0.357454	-0.58188	-0.533594	-0.498918	9.45955	1.08742	-2.36039	0.109704	0.0676235	-0.0368537	-0.904541	0.272461	0.294678	0.423356	-0.51635	-0.491699	-0.558914	9.85133	1.19104	-0.223088	0.00127642	0.0294494	-0.0190223	-1.01855	0.293457	0.0830078	0.429504	-0.492081	-0.515981	-0.554208	9.81217	1.7099	-5.00462e-05	-0.0808001	-0.000740622	-0.00522458	-1.05591	0.221191	0.0532227	0.492697	-0.549732	-0.486598	-0.46719	9.67235	-0.697256	-0.811083	0.0879476	0.029552	0.0102673	-0.918457	0.475586	0.0839844	0.527035	-0.54059	-0.511821	-0.409921	9.74711	-1.53188	-0.970188	0.0249678	-0.00604048	-0.000892838	-0.955322	0.580811	0.0632324	
6	0.734997	0.0444443	-0.0533832	-0.674503	-0.015344	1.46502	10.9294	0.0157329	0.0242928	-0.000463946	0.0354004	0.230469	-0.952881	0.524092	-0.456438	-0.404161	-0.594682	9.57274	0.136589	2.49943	0.0114416	0.0850734	-0.0126284	-0.760986	0.30127	-0.163574	0.791863	0.0963578	0.0464134	-0.60126	-1.81407	0.90201	10.6406	0.0165519	0.0246501	0.00348939	0.27124	0.200684	-0.895996	0.0707253	0.225928	0.522102	-0.819368	-4.4298	-8.09117	3.50418	0.0378648	-0.00595787	-0.0124836	0.0786133	0.93335	-0.443359	0.628867	-0.0949753	0.159098	-0.755112	-0.630831	-3.6089	9.22607	0.0413012	0.0403144	-0.0442511	-0.012207	0.670166	-0.695801	0.866209	0.335387	0.351681	0.11627	-5.76938	7.5588	6.40527	0.00292205	-0.00267086	0.00767782	0.833008	-0.54248	-0.0703125	0.358381	-0.581045	-0.534225	-0.49855	9.28331	1.17173	-2.41167	0.0575518	0.00984668	-0.0162515	-0.904541	0.274658	0.290527	0.423423	-0.516001	-0.491679	-0.559204	9.73585	0.817971	-0.0725674	0.00352177	0.0312693	-0.0228148	-1.01855	0.293457	0.0712891	0.429465	-0.492337	-0.515778	-0.5542	9.74656	1.22125	-0.290882	0.010509	0.00173105	-0.0118408	-1.05347	0.216553	0.0510254	0.492254	-0.550063	-0.486587	-0.467279	9.84599	-0.801203	-0.94663	-0.0360281	0.00960478	0.0011017	-0.916016	0.471191	0.088623	0.526012	-0.541686	-0.511233	-0.410523	9.76526	-1.55943	-1.11863	-0.0682631	-0.00576875	0.00496454	-0.957764	0.585205	0.0654297	
7	0.735116	0.0447327	-0.0530505	-0.674381	0.07353	1.61147	10.8919	-0.011552	0.0205394	0.0063958	0.0332031	0.232666	-0.950684	0.524787	-0.455834	-0.403381	-0.595061	9.6338	-0.00179319	2.65157	-0.00815488	0.0607756	-0.00588639	-0.758789	0.30127	-0.166016	0.791735	0.0973779	0.0468798	-0.601228	-2.17876	1.14804	10.6135	0.000892389	0.0358309	-0.0131341	0.269043	0.196533	-0.895752	0.070277	0.225681	0.523245	-0.818745	-4.42284	-8.0709	3.57337	-0.0380771	0.0292224	-0.0367382	0.076416	0.930908	-0.436768	0.629027	-0.0937273	0.160236	-0.754893	-0.499283	-3.57208	8.91136	-0.00677	0.0741073	0.00572638	-0.00561523	0.670166	-0.695801	0.865853	0.336331	0.351373	0.117122	-5.60048	7.35422	6.47056	0.0235295	0.0260073	0.0308623	0.828613	-0.54248	-0.0683594	0.358804	-0.58054	-0.533863	-0.499224	9.22554	1.28805	-2.23663	-0.00436761	0.065967	-0.0154977	-0.904297	0.270264	0.290527	0.424478	-0.515478	-0.492742	-0.557948	9.8067	1.52301	-0.167145	0.0653538	0.00167221	-0.00457277	-1.02075	0.295654	0.0712891	0.430006	-0.491952	-0.51629	-0.553645	9.70861	1.59496	-0.0183505	0.000942216	0.00202671	-0.0124022	-1.05591	0.223389	0.0463867	0.492348	-0.550252	-0.486264	-0.467294	9.52677	-0.962697	-0.989277	-0.0323845	-0.00393666	0.00890935	-0.920898	0.477783	0.0793457	0.525414	-0.542371	-0.51094	-0.410748	9.59763	-1.63625	-1.1229	-0.0136916	-0.00445045	0.00117109	-0.955322	0.580811	0.0654297	
8	0.735086	0.0448119	-0.0527836	-0.674429	0.0726054	1.58094	10.9273	-0.00958903	0.0151821	-0.00620045	0.0397949	0.232666	-0.955078	0.525059	-0.455468	-0.402932	-0.595405	9.64235	0.0543189	2.56215	-0.0141711	0.0711618	-0.0149418	-0.756592	0.303467	-0.166016	0.791729	0.0972094	0.0476406	-0.601204	-1.94987	1.1144	10.7206	-0.0459233	0.0464442	-0.00699631	0.27124	0.202881	-0.891357	0.0689652	0.22529	0.524201	-0.818353	-4.40367	-8.03501	3.54251	-0.0635252	0.0236511	-0.0627784	0.076416	0.931152	-0.441162	0.629065	-0.0933105	0.16025	-0.754911	-0.624913	-3.55789	9.05624	0.0192572	0.0330476	-0.0080241	-0.0078125	0.670166	-0.698242	0.865479	0.336873	0.351627	0.117562	-5.62106	7.46942	6.26555	0.0460459	0.049417	0.0250718	0.831055	-0.544678	-0.0639648	0.35893	-0.580639	-0.533286	-0.499634	9.46407	1.15695	-2.40444	0.0126443	0.0378641	-0.00606918	-0.9021	0.270264	0.290527	0.424276	-0.515624	-0.49245	-0.558224	9.83178	1.37213	-0.079385	-0.0335696	0.0232473	-0.0169596	-1.0188	0.302246	0.0734863	0.430043	-0.491999	-0.516339	-0.553529	9.7442	1.38504	-0.185437	0.0111653	-0.00185458	-0.0141931	-1.05127	0.223389	0.0532227	0.492348	-0.550252	-0.486264	-0.467294	9.52677	-0.962697	-0.989277	-0.0323845	-0.00393666	0.00890935	-0.920898	0.477783	0.0793457	0.525787	-0.542028	-0.511218	-0.410379	9.75403	-1.45579	-1.14679	0.0575489	0.00539087	-0.00260084	-0.955322	0.580811	0.0585938	
9	0.735013	0.0447048	-0.0521705	-0.674563	0.155167	1.42561	10.888	-0.0165151	0.0145325	-0.00631545	0.0419922	0.230469	-0.946289	0.525993	-0.454692	-0.40188	-0.595885	9.62738	-0.0682354	2.68214	-0.000279566	0.0889746	-0.000323848	-0.754395	0.30127	-0.170654	0.79148	0.0972895	0.0491765	-0.601395	-2.07959	0.95316	10.5395	-0.018578	0.0449257	-0.0270726	0.275391	0.202881	-0.891357	0.0681217	0.224526	0.524664	-0.818337	-4.38706	-8.17395	3.2776	0.0389662	-0.0131858	-0.043868	0.0783691	0.9375	-0.434814	0.629555	-0.0925646	0.161106	-0.754412	-0.628352	-3.34876	8.95704	-0.0182943	0.0453626	0.0110866	-0.0012207	0.670166	-0.688965	0.864762	0.337877	0.352269	0.118039	-5.42101	7.63633	6.33558	0.0364519	0.045654	-0.00508127	0.828613	-0.540527	-0.0683594	0.359192	-0.580681	-0.532376	-0.500367	9.26042	1.05126	-2.26271	-0.0354548	0.019987	0.006336	-0.904541	0.274658	0.290527	0.423579	-0.516343	-0.491618	-0.558822	9.78645	0.996097	-0.0885362	-0.0371758	0.0115034	-0.00909886	-1.02075	0.293457	0.0759277	0.429712	-0.492495	-0.515995	-0.553666	9.74365	1.58103	-0.0740124	-0.0486322	-0.00526836	-0.011253	-1.06055	0.223389	0.0529785	0.492489	-0.550307	-0.486036	-0.467318	9.68306	-0.717334	-0.705637	-0.0854626	-0.00668125	0.00527231	-0.921143	0.484375	0.0861816	0.525482	-0.542541	-0.510619	-0.410837	9.7123	-1.52321	-1.02776	-0.0769587	0.011384	0.00406125	-0.955566	0.583008	0.0678711	
10	0.734867	0.0456128	-0.0516462	-0.674702	0.00190767	1.5905	10.9553	0.0166593	0.0380358	-0.0161771	0.0375977	0.232666	-0.950684	0.526498	-0.454528	-0.400783	-0.596303	9.47724	-0.0258779	2.7222	-0.0847049	0.0479488	0.00176601	-0.754639	0.307861	-0.168701	0.791424	0.0977077	0.0498459	-0.601346	-1.89928	0.968292	10.573	-0.00365644	0.0688344	-0.0048426	0.277588	0.202881	-0.898193	0.0679478	0.223945	0.525352	-0.818069	-4.24997	-7.9598	3.54991	-0.05463	-0.0161586	-0.0457366	0.076416	0.933105	-0.432373	0.629172	-0.0927452	0.162351	-0.754443	-0.509481	-3.44557	9.08145	-0.0556397	0.0430213	-0.0158395	-0.00341797	0.670166	-0.688965	0.864537	0.338335	0.352495	0.117698	-5.52325	7.43824	6.28119	0.0461681	0.00607302	-0.0221284	0.828857	-0.546875	-0.0595703	0.359168	-0.580853	-0.53207	-0.500509	9.44147	1.07742	-2.46663	-0.00943916	0.0184929	0.000351302	-0.904541	0.274658	0.28833	0.423236	-0.51679	-0.491185	-0.55905	9.76214	1.03297	-0.159333	-0.00400952	0.0102334	-0.00741049	-1.02051	0.29126	0.0783691	0.429282	-0.493044	-0.515564	-0.553911	9.8234	1.36407	-0.207189	0.0621995	0.00235366	-0.0171811	-1.05591	0.221191	0.0532227	0.491596	-0.5513	-0.485262	-0.467891	9.73114	-0.979991	-0.388218	-0.0280783	0.0131159	0.0141782	-0.918457	0.475586	0.0908203	0.525661	-0.542565	-0.510402	-0.410845	9.69683	-1.38857	-1.01948	0.00565143	0.0100193	0.00425611	-0.95752	0.580811	0.0678711	
11	0.7343	0.0456223	-0.0506603	-0.675393	0.0724863	1.49011	10.9653	-0.0400575	0.023652	-0.0451039	0.0422363	0.228271	-0.950684	0.526961	-0.453931	-0.399954	-0.596906	9.7937	0.0551184	2.66359	0.00627334	0.0681802	-0.0131522	-0.758789	0.30127	-0.173096	0.791187	0.0984266	0.0520408	-0.601355	-2.06007	1.12799	10.5116	-0.0338789	0.0326524	-0.00670708	0.275391	0.205078	-0.891602	0.0669017	0.223087	0.526333	-0.817759	-4.39625	-8.21842	3.2305	0.0215676	0.00448893	-0.0607359	0.0695801	0.935303	-0.430176	0.628805	-0.0924255	0.16286	-0.754678	-0.749364	-3.56453	9.13919	-0.0154388	0.0590254	-0.0406651	-0.00341797	0.672363	-0.688965	0.864305	0.339368	0.352182	0.117366	-5.75216	7.54115	6.27416	0.0349924	-0.00874654	-0.000748065	0.82666	-0.546875	-0.0617676	0.359736	-0.580489	-0.53075	-0.501923	9.44275	1.0611	-2.26585	-0.0202803	0.0626877	0.000346183	-0.904297	0.270264	0.28833	0.423005	-0.517253	-0.490885	-0.559059	9.89573	1.09586	-0.149548	-0.02978	0.0169166	-0.00806202	-1.01416	0.295654	0.078125	0.428833	-0.493676	-0.514973	-0.554246	9.79368	1.30866	-0.195867	-0.0439096	-0.00277326	-0.00985047	-1.05127	0.221191	0.0554199	0.491639	-0.551466	-0.485022	-0.467901	9.85466	-0.787882	-0.901927	0.0351097	0.0188557	0.0102272	-0.920654	0.473389	0.0864258	0.52531	-0.543055	-0.510013	-0.41113	9.75886	-1.63847	-1.08325	0.0315764	0.00603479	0.00169607	-0.955566	0.583008	0.0632324	
12	0.733618	0.0459261	-0.0499639	-0.676165	0.0221131	1.50428	10.9053	-0.00720951	0.0235734	-0.0378466	0.0419922	0.230469	-0.950684	0.527435	-0.453386	-0.398344	-0.597976	9.53144	-0.170761	2.6309	-0.0425422	0.0997738	-0.0119989	-0.758789	0.30542	-0.182617	0.790846	0.0979575	0.0535621	-0.601746	-2.22803	0.874407	10.5073	-0.0157291	0.0490487	-0.0446837	0.28833	0.211182	-0.891602	0.0661607	0.222796	0.527609	-0.817076	-4.33726	-8.10345	3.64503	-0.125177	0.0343164	-0.0253564	0.0717773	0.9375	-0.432617	0.627276	-0.0907673	0.164296	-0.755839	-0.753978	-3.58762	9.0476	0.0056155	0.0993007	-0.0443631	-0.000976562	0.665771	-0.691162	0.864098	0.341156	0.351087	0.116984	-5.52943	7.56237	6.469	0.100544	-0.0267301	0.00738308	0.82666	-0.544678	-0.0661621	0.35973	-0.580379	-0.529795	-0.503062	9.25172	1.08708	-2.26032	-0.0102406	0.041631	-0.015367	-0.904785	0.279053	0.283936	0.422785	-0.517437	-0.490759	-0.559167	9.7291	1.17122	-0.0585621	-0.0203095	0.0148626	-0.0173029	-1.02515	0.295654	0.0712891	0.428309	-0.494294	-0.514532	-0.55451	9.68555	1.69779	-0.000612056	-0.0553272	-0.00491948	-0.0164856	-1.05127	0.223389	0.0532227	0.491223	-0.55197	-0.484759	-0.468014	9.66856	-0.899639	-0.836226	-0.051092	-0.0222401	0.00340915	-0.920654	0.475586	0.088623	0.525084	-0.543345	-0.509883	-0.411196	9.64927	-1.45395	-0.971612	-0.0696834	-0.00110891	0.000922488	-0.950928	0.583008	0.0678711	
13	0.73307	0.046274	-0.0495231	-0.676768	0.0760163	1.61707	10.9337	-0.00722602	0.0159006	-0.0345232	0.0397949	0.232666	-0.948486	0.528068	-0.45237	-0.397073	-0.599032	9.66345	0.0930873	2.73896	-0.026852	0.0959365	-0.0120988	-0.752441	0.305664	-0.175537	0.789983	0.0998046	0.0537346	-0.60256	-2.21038	1.17569	10.698	0.0629624	0.0570172	-0.0453975	0.281738	0.211426	-0.894043	0.06455	0.223344	0.527626	-0.817044	-4.39334	-8.10226	3.44347	0.0690014	0.0615427	-0.0543351	0.0695801	0.9375	-0.434814	0.626281	-0.0889992	0.165616	-0.756586	-0.629819	-3.59023	9.11092	0.00492521	0.0995969	-0.0397342	-0.00585938	0.674561	-0.688965	0.863666	0.342672	0.350555	0.117343	-5.70051	7.5081	6.20452	0.0462642	0.00621278	0.0354442	0.82666	-0.544678	-0.0617676	0.360707	-0.579629	-0.528869	-0.5042	9.41645	1.19599	-2.26939	0.00553734	0.092477	-0.00876809	-0.908691	0.272461	0.275635	0.422307	-0.518071	-0.490283	-0.559358	9.78579	1.01985	-0.155178	-0.0079724	-0.000580518	-0.00279414	-1.01636	0.293457	0.0805664	0.426834	-0.495784	-0.512878	-0.555848	9.84472	1.46507	-0.0738256	-0.0814763	0.00173603	-0.016108	-1.05371	0.225586	0.0554199	0.491486	-0.551881	-0.484552	-0.468058	9.70153	-0.854083	-0.315412	0.0115675	0.0202745	0.00958776	-0.918457	0.475586	0.0864258	0.525286	-0.543257	-0.510067	-0.410826	9.72764	-1.31548	-1.12964	0.0434434	-0.000445953	0.00207555	-0.962158	0.580811	0.0654297	
14	0.732835	0.0462684	-0.0491653	-0.677049	0.0293018	1.54131	10.95	-0.0198942	0.0140461	-0.0312527	0.041748	0.237061	-0.946533	0.528462	-0.451938	-0.396095	-0.599657	9.61578	-0.0609281	2.7694	-0.0408986	0.110869	-0.00394148	-0.752441	0.307617	-0.182861	0.789408	0.10012	0.0543668	-0.603204	-2.40446	1.05828	10.6406	-0.000855232	0.0585853	-0.0732545	0.28833	0.204834	-0.891602	0.0628075	0.224129	0.529383	-0.815828	-4.26932	-8.39623	3.27167	-0.0482557	0.082235	-0.049608	0.0673828	0.9375	-0.425781	0.625941	-0.0877712	0.16695	-0.756718	-0.735723	-3.56215	9.05242	-0.0036864	0.0721757	-0.0215055	-0.000976562	0.665771	-0.688965	0.862792	0.344644	0.350725	0.117484	-5.52158	7.67013	6.25728	0.0861172	0.0351566	0.00883292	0.829102	-0.55127	-0.057373	0.361174	-0.579333	-0.527729	-0.505399	9.45004	1.05157	-2.22458	-0.035513	0.0659318	0.00152908	-0.900146	0.270264	0.277832	0.421251	-0.51898	-0.489295	-0.560176	9.88534	1.21697	-0.0344784	-0.0931181	0.0288789	-0.0245816	-1.01855	0.295654	0.078125	0.424547	-0.498053	-0.510457	-0.557796	9.78555	1.16329	-0.272228	-0.188378	-0.0184179	-0.00357835	-1.04932	0.228027	0.0620117	0.49006	-0.553176	-0.483708	-0.468897	9.7263	-0.513196	-0.912599	-0.0818417	-0.0022049	0.00700704	-0.920654	0.475586	0.0908203	0.524145	-0.544447	-0.509198	-0.411786	9.75872	-1.08542	-1.10406	-0.164841	-0.000950668	0.00475188	-0.959961	0.585205	0.0654297	
15	0.731791	0.0467223	-0.0478291	-0.678241	0.075819	1.4131	10.9133	-0.00810443	0.0373532	-0.0424936	0.041748	0.237061	-0.950684	0.529356	-0.450495	-0.392977	-0.602001	9.57562	-0.00358371	2.8552	-0.050672	0.122546	-0.00737943	-0.750244	0.307617	-0.1875	0.788026	0.101434	0.0563037	-0.604612	-2.24356	0.916849	10.6253	0.0121045	0.102522	-0.0476815	0.286133	0.202637	-0.886963	0.0611884	0.224218	0.530129	-0.815442	-4.24966	-8.06818	3.57593	-0.0821907	0.0378383	-0.054464	0.0649414	0.939697	-0.428223	0.625533	-0.0866892	0.16815	-0.756914	-0.754214	-3.38566	9.07564	-0.0253727	0.0762326	-0.0223501	0.013916	0.672363	-0.686768	0.862155	0.346162	0.350892	0.117202	-5.45094	7.60072	6.19565	0.0889951	0.011578	-0.0120984	0.826904	-0.55127	-0.057373	0.361861	-0.578902	-0.526948	-0.506216	9.25848	1.26663	-2.1861	0.0241496	0.0639011	-0.0041279	-0.911133	0.274658	0.281982	0.421296	-0.518848	-0.489345	-0.560222	9.71371	0.94557	-0.224626	0.0147124	0.0101439	-0.0114135	-1.02271	0.293457	0.0852051	0.425101	-0.497733	-0.511357	-0.556835	9.74545	1.71065	-0.112417	0.0314785	-0.00849608	-0.0147983	-1.05396	0.228027	0.0598145	0.489291	-0.55413	-0.483125	-0.469174	9.76991	-1.21666	-1.11406	-0.0370295	0.00914334	0.0115769	-0.922852	0.473389	0.0979004	0.522651	-0.546197	-0.507726	-0.413181	9.63694	-1.50878	-0.921498	-0.0490854	-0.000444204	0.00187989	-0.957764	0.585205	0.0700684	
16	0.731391	0.0469974	-0.0473529	-0.678687	0.0139405	1.46152	10.8696	-0.00971436	0.0349441	-0.0513482	0.0441895	0.234863	-0.955078	0.529712	-0.449909	-0.391719	-0.602946	9.54074	-0.101691	2.81532	-0.0607054	0.140132	-0.0144897	-0.752441	0.307617	-0.192139	0.787567	0.102355	0.0570532	-0.604984	-2.20407	0.867619	10.5484	0.0286205	0.096712	-0.0494054	0.28833	0.204834	-0.891602	0.0600929	0.223772	0.531846	-0.814527	-4.21104	-8.24417	3.16214	-0.00770992	0.0232147	-0.0674876	0.0695801	0.935303	-0.423584	0.624544	-0.0855864	0.170166	-0.757406	-0.690611	-3.71992	9.08174	-0.00485578	0.105708	-0.044787	0.0117188	0.672363	-0.682129	0.861705	0.347374	0.350922	0.116833	-5.53061	7.6235	6.19423	0.115002	0.00776729	-0.00529219	0.824463	-0.544678	-0.057373	0.361975	-0.579015	-0.525303	-0.507713	9.38229	0.972212	-2.18083	-0.0384731	0.0770595	-0.00109534	-0.906982	0.28125	0.277588	0.421259	-0.519151	-0.488903	-0.560354	9.7258	1.09371	-0.294838	-0.00364502	0.0181114	-0.0087486	-1.0166	0.297852	0.0759277	0.42457	-0.498361	-0.51078	-0.557207	9.74822	1.39223	-0.240152	-0.0778527	-0.00974939	-0.00783225	-1.05615	0.225586	0.0598145	0.489792	-0.553719	-0.483171	-0.46909	9.69228	-0.756857	-0.761728	0.046966	0.0411603	0.00732397	-0.918457	0.475586	0.095459	0.522828	-0.546055	-0.507885	-0.412951	9.66651	-1.68234	-1.13078	0.0305389	0.0016875	-0.00147947	-0.950928	0.583008	0.0700684	
17	0.730478	0.0483819	-0.0464106	-0.679638	-0.0941967	1.65827	10.9699	0.0139362	0.0546053	-0.054136	0.0461426	0.237061	-0.948486	0.530369	-0.44882	-0.389438	-0.604655	9.45605	-0.0686868	2.91742	-0.049906	0.129118	-0.0113684	-0.74585	0.303223	-0.189697	0.787309	0.103505	0.0592015	-0.604919	-2.37547	1.04164	10.4258	-0.0380152	0.106574	-0.0157008	0.290527	0.206787	-0.889404	0.0592332	0.223486	0.532164	-0.814461	-4.19873	-8.03663	3.36499	-0.00834686	0.0264048	-0.0727727	0.0671387	0.939697	-0.43042	0.624273	-0.0845353	0.17079	-0.757607	-0.792755	-3.60445	8.95934	0.0148433	0.107502	-0.0231942	0.0117188	0.674561	-0.686768	0.861127	0.349278	0.350406	0.116964	-5.56234	7.56868	6.02501	0.077936	-0.00594476	0.0286802	0.822754	-0.555664	-0.0529785	0.362439	-0.578533	-0.524583	-0.508675	9.46173	1.12327	-2.15241	-0.00246782	0.0610284	-0.0143174	-0.908936	0.276855	0.27124	0.421194	-0.519252	-0.48881	-0.56039	9.74199	1.18514	-0.177916	-0.00825836	0.0139175	-0.0128888	-1.01855	0.297852	0.078125	0.425402	-0.49767	-0.511806	-0.556249	9.75158	1.63644	-0.162195	0.108044	0.00325192	-0.0223478	-1.05371	0.223389	0.0598145	0.489995	-0.55376	-0.483213	-0.468784	9.83186	-0.875631	-1.06664	0.00459044	-0.00626401	0.0129456	-0.920654	0.475586	0.0932617	0.52287	-0.546052	-0.507966	-0.412801	9.73662	-1.30889	-1.13155	0.0132428	-0.00165897	-0.000381278	-0.959717	0.578613	0.074707	
18	0.729819	0.0488784	-0.0452182	-0.680389	-0.129312	1.5334	10.939	-0.0206999	0.0425377	-0.0425189	0.048584	0.232666	-0.946289	0.531023	-0.447449	-0.387804	-0.606145	9.5761	-0.0710828	2.8962	-0.0184066	0.110666	-0.0281933	-0.743652	0.30542	-0.192139	0.786596	0.104335	0.0602382	-0.605601	-2.29704	0.76148	10.5019	0.0410108	0.0452253	-0.0333228	0.296875	0.211182	-0.889404	0.0583187	0.223649	0.533741	-0.81345	-4.13817	-8.36182	3.13659	-0.0147398	0.0479309	-0.0347586	0.0649414	0.939697	-0.423828	0.623557	-0.0827961	0.171625	-0.7582	-0.816938	-3.51989	9.11783	0.0041821	0.0801134	-0.0443636	0.013916	0.674561	-0.688965	0.86043	0.351281	0.350074	0.117088	-5.65138	7.62575	6.02346	0.0610144	0.0121025	0.0264972	0.820557	-0.55127	-0.057373	0.362753	-0.578159	-0.524201	-0.50927	9.41612	1.10858	-2.12484	-0.00110076	0.077653	-0.0186675	-0.908691	0.272461	0.273438	0.421206	-0.519238	-0.488577	-0.560598	9.74268	0.940318	-0.144686	0.0115465	0.0285786	-0.0164312	-1.01636	0.295654	0.0830078	0.425748	-0.49752	-0.512028	-0.555913	9.80703	1.42949	-0.167883	0.030106	0.00850291	-0.0157717	-1.05151	0.225586	0.064209	0.489947	-0.553764	-0.483125	-0.468922	9.67506	-1.0197	-0.489885	-0.03037	0.000934964	-0.00938705	-0.916504	0.47998	0.0908203	0.52373	-0.545427	-0.508193	-0.412257	9.66728	-1.44114	-1.04676	0.0243339	0.0133984	-0.000190416	-0.955566	0.583008	0.0700684	
19	0.729651	0.0496381	-0.0445227	-0.680561	-0.194512	1.49283	10.9873	0.00935709	0.0344145	-0.00545436	0.0463867	0.232666	-0.948486	0.532033	-0.445807	-0.386466	-0.607323	9.45782	-0.080194	3.046	-0.00676559	0.124678	-0.0218593	-0.741699	0.309814	-0.197021	0.786212	0.105569	0.0610075	-0.605809	-2.23588	1.05796	10.3982	0.00176293	0.0506548	-0.0314104	0.290527	0.208984	-0.887207	0.057457	0.223951	0.534819	-0.812719	-4.07219	-8.28171	3.33298	-0.0808138	0.040214	-0.0143451	0.0581055	0.94165	-0.419434	0.623562	-0.0818517	0.173157	-0.75795	-1.07484	-3.65894	8.8925	0.000848707	0.067461	0.0120692	0.0183105	0.674561	-0.684326	0.859947	0.352582	0.3497	0.117841	-5.42233	7.72021	6.01139	0.0614608	0.016025	0.0285996	0.818359	-0.553467	-0.0529785	0.363219	-0.577689	-0.523925	-0.509755	9.47313	1.15185	-2.23066	0.00554699	0.0676347	-0.0149365	-0.910889	0.272461	0.27124	0.421762	-0.518945	-0.489057	-0.560033	9.84066	1.17754	-0.189105	0.0352136	0.0213098	-0.012084	-1.021	0.300049	0.0734863	0.426414	-0.497031	-0.512494	-0.555411	9.73877	1.54999	0.00707416	0.0204176	0.0101597	-0.0151026	-1.05151	0.228027	0.0551758	0.490815	-0.55321	-0.483251	-0.468537	9.73315	-0.685913	-0.680547	0.0657726	0.0536008	0.0243185	-0.918701	0.477783	0.088623	0.524186	-0.545095	-0.508366	-0.411904	9.73278	-1.44463	-1.12234	0.0531315	0.0121979	0.000883084	-0.955566	0.585205	0.0769043	
20	0.729517	0.0503247	-0.0443792	-0.680664	-0.287042	1.47867	10.9046	0.0221161	0.0165281	-0.00884043	0.0483398	0.234863	-0.950684	0.532999	-0.444438	-0.385726	-0.60795	9.35633	-0.116012	3.01839	-0.0393424	0.0714252	-0.0165791	-0.74585	0.303223	-0.206055	0.786302	0.106021	0.0613805	-0.605575	-2.54118	0.78286	10.5782	0.0206828	0.0456622	0.0350636	0.297119	0.202393	-0.882324	0.0573388	0.224196	0.535151	-0.812442	-4.19407	-8.22381	3.16785	-0.00264414	0.00810884	-0.00727723	0.0627441	0.937256	-0.421387	0.623691	-0.0804475	0.173069	-0.758014	-0.873525	-3.54353	8.9101	0.0266293	0.0472137	0.00504294	0.0163574	0.665771	-0.686768	0.859605	0.353323	0.349518	0.118656	-5.43428	7.61464	5.82563	0.0124371	0.0178544	0.0277502	0.818604	-0.555664	-0.0549316	0.364253	-0.576767	-0.523125	-0.510882	9.37774	1.12557	-2.10762	0.0202467	0.0654847	-0.0123057	-0.91333	0.274658	0.262695	0.422023	-0.518551	-0.48896	-0.560286	9.74514	1.05361	-0.0906835	0.00644613	0.0289366	-0.0124173	-1.01855	0.297852	0.0805664	0.427024	-0.496622	-0.51292	-0.554914	9.77767	1.43503	-0.236532	0.102367	0.0104995	-0.0164556	-1.05396	0.228027	0.0529785	0.490483	-0.553406	-0.483234	-0.468672	9.74571	-0.899148	-1.04662	-0.0196996	0.00541539	-0.00175071	-0.918457	0.475586	0.0932617	0.524507	-0.544923	-0.508411	-0.411666	9.66238	-1.61403	-0.992187	0.0234594	0.0112869	0.00310797	-0.953369	0.585205	0.0632324	
21	0.729671	0.0508328	-0.0439659	-0.680488	-0.235288	1.51829	11.0179	-0.0142868	0.0275423	0.0114632	0.0463867	0.230713	-0.952881	0.533749	-0.443372	-0.3856	-0.608149	9.60988	0.0150394	3.08528	0.0348724	0.0594075	-0.0159417	-0.743652	0.301025	-0.206055	0.786682	0.106311	0.0618023	-0.604988	-2.22271	1.00306	10.4172	-0.0191842	0.00363164	0.0218674	0.294922	0.20459	-0.882324	0.0576668	0.223427	0.535618	-0.812323	-4.17149	-8.22312	3.07758	0.000973853	-0.0357501	-0.00623051	0.0649414	0.9375	-0.421387	0.623969	-0.0802356	0.172846	-0.757859	-1.09078	-3.53562	8.97173	0.0127938	-0.00765352	-0.0141837	0.0185547	0.667969	-0.686768	0.859589	0.353418	0.349299	0.119136	-5.39613	7.68151	5.91908	-0.00875766	0.0117625	-0.00154184	0.821045	-0.562012	-0.0527344	0.365853	-0.575479	-0.522073	-0.512265	9.59807	1.08786	-2.15026	-0.00424195	0.120903	0.0035283	-0.90918	0.279053	0.260498	0.422411	-0.518286	-0.489034	-0.560173	9.90785	1.20821	-0.194703	-0.00969612	0.0395686	-0.0112201	-1.0166	0.300049	0.0827637	0.427096	-0.496754	-0.51263	-0.555009	9.84102	1.59585	-0.0793379	-0.0666192	0.0104428	-0.00766625	-1.05396	0.228027	0.057373	0.491201	-0.552858	-0.483473	-0.46832	9.81439	-0.920133	-0.669206	0.0333282	0.0122529	0.00138256	-0.920898	0.477783	0.0861816	0.525196	-0.54435	-0.50881	-0.411053	9.83856	-1.23671	-1.17638	0.00270845	0.00829868	0.000976824	-0.957764	0.585205	0.0632324	
22	0.729696	0.0513892	-0.0446489	-0.680374	-0.319545	1.56655	11.0285	0.0523578	-0.0237212	0.0131875	0.048584	0.23291	-0.955078	0.534569	-0.442248	-0.38522	-0.608489	9.40698	-0.0838091	3.11215	0.010433	0.0662015	-0.0143921	-0.743652	0.303223	-0.208496	0.787614	0.105953	0.0625619	-0.603758	-2.5244	0.915238	10.4044	-0.0278821	0.0246271	0.0611016	0.30127	0.206543	-0.886963	0.0584881	0.222021	0.536022	-0.812383	-4.0706	-8.2249	3.25573	-0.0565936	-0.0577669	-0.00108165	0.0605469	0.939453	-0.415039	0.624135	-0.0804524	0.17263	-0.757748	-1.04203	-3.49021	9.06131	-0.00525535	-0.00789984	-0.000591867	0.0163574	0.670166	-0.688965	0.859986	0.352972	0.348585	0.11968	-5.44532	7.59867	6.02988	-0.00389695	-0.0113563	0.00483382	0.822754	-0.555664	-0.0549316	0.367722	-0.573626	-0.521745	-0.513338	9.34178	1.0806	-2.00769	0.0480389	0.111946	-0.0167846	-0.915527	0.276855	0.258545	0.422636	-0.517856	-0.488907	-0.560512	9.81688	1.04261	-0.245833	0.0211163	0.0433321	-0.02482	-1.02075	0.297852	0.0759277	0.427173	-0.496915	-0.512331	-0.555082	9.72041	1.4932	-0.171517	-0.00320043	0.00920023	-0.0106147	-1.04932	0.228027	0.0576172	0.490769	-0.553336	-0.483119	-0.468573	9.70264	-0.792963	-0.949411	-0.0329534	0.00446906	0.00219516	-0.918701	0.482178	0.0839844	0.525102	-0.544574	-0.50846	-0.411309	9.64804	-1.5657	-1.07161	0.0148439	0.0117887	-0.0004305	-0.953369	0.585205	0.067627	
23	0.730248	0.0513171	-0.0458659	-0.679706	-0.142542	1.65304	10.9342	0.0170412	-0.026497	0.0375617	0.0483398	0.234863	-0.948486	0.535381	-0.441177	-0.385244	-0.608536	9.43514	-0.0981345	3.15561	0.0370086	0.0522027	-0.0172531	-0.741455	0.303223	-0.218018	0.78859	0.105665	0.0624216	-0.602548	-2.29352	0.956411	10.4986	-0.00523958	0.00510163	0.0552162	0.30127	0.202393	-0.891602	0.0592272	0.220913	0.535429	-0.813022	-4.1549	-8.18351	3.38993	0.0305159	-0.0437992	0.00966648	0.0559082	0.943848	-0.421631	0.624165	-0.0797334	0.172242	-0.757888	-0.873997	-3.68698	9.13229	0.0364136	0.0315438	-0.0092141	0.0185547	0.667969	-0.686768	0.860485	0.352602	0.347313	0.120876	-5.56	7.86184	6.13175	-0.0516457	-0.0129171	0.0430844	0.8125	-0.564209	-0.059082	0.369551	-0.572028	-0.521453	-0.514103	9.42393	0.954002	-1.95266	0.0607649	0.0902517	-0.022566	-0.915283	0.270264	0.25	0.422709	-0.51767	-0.48804	-0.561384	9.75731	1.16872	-0.10805	-0.0294925	0.0489998	-0.0138253	-1.02075	0.295654	0.0734863	0.426178	-0.497983	-0.51097	-0.556142	9.73403	1.49902	-0.236655	-0.129794	0.00589573	-0.0126321	-1.05396	0.228027	0.0598145	0.491448	-0.552668	-0.48328	-0.468484	9.81537	-0.970295	-0.448519	0.00387197	0.0137485	-0.000459634	-0.920898	0.47998	0.088623	0.52515	-0.544734	-0.507959	-0.411655	9.73475	-1.4751	-1.02544	-0.0465342	0.0219088	0.00503771	-0.960205	0.587402	0.0654297	
24	0.730616	0.0512099	-0.0464244	-0.679281	-0.169144	1.59251	10.9371	0.0245538	-0.0399924	0.0468886	0.0444336	0.228516	-0.950684	0.535896	-0.440564	-0.385187	-0.608563	9.51793	-0.108311	3.23566	0.0305966	0.0621204	-0.012036	-0.739258	0.301025	-0.217773	0.788902	0.106037	0.062244	-0.602093	-2.53521	1.00939	10.458	0.0283311	0.015083	0.0452117	0.30127	0.20874	-0.887207	0.0602006	0.220953	0.53557	-0.812847	-4.33874	-8.43303	3.14862	0.0181456	-0.00775417	0.029953	0.0603027	0.94165	-0.419434	0.624578	-0.079079	0.171814	-0.757713	-1.09235	-3.63059	9.00443	0.0579297	0.0190089	0.0251114	0.0185547	0.667969	-0.684326	0.860514	0.352621	0.346984	0.121555	-5.47322	7.69111	6.09911	-0.0129095	0.0102184	0.0383697	0.814453	-0.562012	-0.0546875	0.37083	-0.570843	-0.521819	-0.514129	9.54125	1.16142	-1.93746	0.0562461	0.0706679	-0.0194759	-0.917725	0.279053	0.247803	0.422589	-0.51764	-0.487264	-0.562176	9.86339	1.13218	-0.125736	-0.026274	0.0467155	-0.0208295	-1.01636	0.293457	0.0759277	0.425581	-0.498564	-0.510185	-0.5568	9.76885	1.50614	-0.157641	-0.0997053	0.00834957	-0.013823	-1.0542	0.234863	0.0595703	0.491357	-0.55267	-0.483353	-0.468502	9.73546	-0.912915	-0.948182	0.000713273	0.00600448	-0.00461953	-0.918457	0.473389	0.088623	0.525348	-0.544597	-0.507941	-0.411606	9.67588	-1.70868	-1.00385	0.0182072	0.0175981	-0.000262437	-0.950928	0.583008	0.0722656	
25	0.731191	0.0511483	-0.0472595	-0.678608	-0.003656	1.5103	10.8476	0.0144102	-0.00247903	0.0305529	0.0466309	0.228516	-0.954834	0.53668	-0.439585	-0.385176	-0.608588	9.35596	-0.00840585	3.17643	0.0178673	0.0338476	-0.012678	-0.739258	0.303223	-0.215576	0.789705	0.106105	0.0614962	-0.601104	-2.26629	1.05435	10.8009	0.00599847	0.00399357	0.0526018	0.296875	0.20459	-0.882324	0.0610046	0.220155	0.535802	-0.812851	-4.10795	-8.20917	3.45365	-0.0780066	-0.0295771	0.0145229	0.0581055	0.94165	-0.421631	0.625703	-0.07785	0.171403	-0.757005	-1.05311	-3.37634	8.89274	0.0185738	0.0174518	0.0262188	0.020752	0.665771	-0.693604	0.860629	0.352357	0.346523	0.122814	-5.45509	7.81018	6.0985	-0.0262904	0.00879341	0.0369344	0.8125	-0.564209	-0.0568848	0.372351	-0.569633	-0.52157	-0.514624	9.4409	1.17485	-1.89119	0.0420502	0.0955807	-0.00881468	-0.91333	0.276855	0.247803	0.422643	-0.517444	-0.486737	-0.562772	9.79818	1.14779	0.0121034	9.89551e-06	0.0299244	-0.0164947	-1.01855	0.295654	0.0734863	0.424847	-0.499492	-0.508775	-0.557818	9.75895	1.62603	0.0385253	-0.0972733	0.0105359	-0.0077221	-1.05884	0.234619	0.057373	0.492275	-0.551868	-0.483425	-0.46841	9.75333	-0.744962	-0.645416	0.0261429	0.0390649	0.00907872	-0.920898	0.47998	0.0861816	0.525592	-0.544479	-0.507687	-0.411765	9.72047	-1.40934	-1.02705	-0.0627664	0.0192025	0.00166163	-0.94873	0.585205	0.067627	
26	0.731709	0.0516218	-0.0475067	-0.677998	-0.0563465	1.56617	10.941	0.0119629	-0.00325807	0.0275917	0.0466309	0.226318	-0.952637	0.537166	-0.438754	-0.38446	-0.609211	9.54657	-0.0445346	3.11297	-0.0106794	0.0737726	-0.0263847	-0.737061	0.303223	-0.220215	0.790204	0.106176	0.0626266	-0.600318	-2.52413	0.946683	10.3468	-0.0306353	0.0200923	0.0269264	0.303223	0.210938	-0.894043	0.0615158	0.219986	0.536229	-0.812576	-4.14029	-8.28149	3.0947	-0.0487711	-0.0204104	0.0213025	0.0625	0.943848	-0.415039	0.625875	-0.0779299	0.171254	-0.756888	-0.952216	-3.41396	8.97954	0.00319387	-0.00779696	-0.00052856	0.0251465	0.666016	-0.697998	0.860473	0.352267	0.34683	0.123297	-5.3958	7.66111	6.03503	0.00183863	0.0402757	-0.0185218	0.814697	-0.566406	-0.0546875	0.373282	-0.568901	-0.520974	-0.515363	9.57042	1.12606	-1.92938	0.0242561	0.131685	-0.00331952	-0.915527	0.274658	0.239258	0.422646	-0.517413	-0.486209	-0.563254	9.80068	1.13014	-0.0322675	-0.03681	0.0562082	-0.0118306	-1.0144	0.300049	0.0805664	0.424065	-0.500313	-0.507641	-0.558709	9.75522	1.34482	-0.162311	-0.141232	0.0108565	-0.00678185	-1.05835	0.225586	0.0598145	0.492333	-0.551719	-0.482915	-0.469049	9.69491	-0.792034	-0.532025	-0.00234157	0.0422785	-0.00684336	-0.923096	0.47998	0.0861816	0.525873	-0.544386	-0.507219	-0.412106	9.76881	-1.32677	-1.19707	-0.0117314	0.0361826	0.00157992	-0.957764	0.585205	0.0700684	
27	0.731743	0.0519657	-0.0477978	-0.677914	-0.111658	1.48181	10.9021	0.0179638	-0.00121975	0.00301132	0.0463867	0.230713	-0.950684	0.537806	-0.437592	-0.383945	-0.609808	9.38205	-0.0443026	3.16818	0.0101226	0.0685876	-0.0219978	-0.741455	0.30542	-0.218018	0.790826	0.106681	0.0631312	-0.599356	-2.43639	0.945746	10.3201	0.0226741	0.0600465	0.040941	0.303467	0.200195	-0.884521	0.0618863	0.218925	0.536246	-0.812823	-4.06442	-8.19612	3.38297	-0.0140075	-0.0346851	-0.0155872	0.0646973	0.943848	-0.408447	0.62605	-0.0776581	0.171183	-0.756787	-0.827194	-3.46386	9.04353	0.00806781	0.00864839	0.00172937	0.0209961	0.663574	-0.693604	0.860874	0.351636	0.346148	0.124216	-5.27738	7.64339	6.18847	-0.0247182	-0.00508583	0.0183694	0.810303	-0.568604	-0.0588379	0.374572	-0.567882	-0.520101	-0.516431	9.34629	0.952976	-1.6277	0.017798	0.0604545	-0.00826051	-0.917725	0.276855	0.239258	0.42214	-0.517871	-0.48505	-0.56421	9.86786	1.20915	-0.0174508	-0.0733789	0.0323533	-0.0140904	-1.02295	0.293457	0.0688477	0.422616	-0.501631	-0.50588	-0.560221	9.81946	1.46773	-0.0604171	-0.145228	0.00578059	-0.0143584	-1.05615	0.227783	0.0664062	0.491016	-0.552955	-0.481719	-0.470203	9.65264	-0.653971	-1.0613	-0.0981184	0.014811	0.00950133	-0.914307	0.482178	0.0883789	0.524553	-0.54601	-0.505168	-0.414152	9.70846	-1.52835	-1.0436	-0.143049	0.0462888	0.010027	-0.950928	0.583008	0.0700684	
28	0.731737	0.0520246	-0.0482886	-0.677881	-0.0900104	1.50503	10.9102	0.00749253	-0.0218685	-0.00121814	0.0466309	0.226318	-0.950684	0.538031	-0.436728	-0.383617	-0.610434	9.40117	-0.0248929	3.10005	-0.013643	0.0524972	-0.0322486	-0.734863	0.301025	-0.224854	0.791253	0.106885	0.0630173	-0.598767	-2.38808	1.02446	10.6411	-0.00943872	0.00902678	0.0315727	0.305664	0.197998	-0.886963	0.062098	0.218357	0.536457	-0.812821	-4.25377	-8.22869	3.08954	0.000760463	-0.0197723	-0.0105423	0.0581055	0.94165	-0.415039	0.626111	-0.0771122	0.170453	-0.756957	-0.841541	-3.52572	9.04463	0.0519636	0.00262617	-0.017953	0.0187988	0.663574	-0.695801	0.861096	0.351456	0.345498	0.124991	-5.38122	7.67219	6.15537	-0.0123996	0.00139401	0.0176314	0.819092	-0.570801	-0.0566406	0.374568	-0.568101	-0.51972	-0.516576	9.45827	1.16738	-1.80004	-0.0317616	0.00237003	-0.00519902	-0.919922	0.276855	0.237061	0.421027	-0.518677	-0.48328	-0.565819	9.70639	0.942698	0.0782075	-0.0785183	0.0279199	-0.0083848	-1.01855	0.293457	0.0688477	0.421438	-0.502692	-0.504541	-0.561363	9.73531	1.42096	-0.131057	-0.0450207	0.00257376	-0.0208223	-1.05396	0.230225	0.057373	0.489979	-0.553796	-0.48128	-0.470745	9.83199	-1.39224	-0.736208	-0.0655159	-0.00316936	-0.00179241	-0.920654	0.475586	0.0908203	0.524498	-0.546324	-0.504031	-0.415192	9.67633	-1.69352	-0.789742	-0.0182677	0.0430261	-0.000221646	-0.957764	0.585205	0.0700684	
29	0.731768	0.0527166	-0.0489305	-0.677748	-0.124479	1.68167	10.9211	0.0424061	0.00341059	0.00315927	0.0537109	0.217773	-0.952637	0.537996	-0.436564	-0.383502	-0.610654	9.47445	-0.0419872	3.21529	-0.0203387	0.0256458	-0.0298703	-0.73291	0.30542	-0.229736	0.791675	0.107167	0.063552	-0.598103	-2.57788	1.00762	10.4231	0.00410221	0.0145511	0.0214937	0.307861	0.202148	-0.884766	0.0624361	0.217487	0.536873	-0.812754	-4.16636	-8.34627	3.21909	-0.0259857	-0.0222823	-0.00601481	0.0537109	0.94165	-0.417236	0.626065	-0.0770097	0.170496	-0.756996	-0.978102	-3.43579	9.00311	-0.0293324	0.00645025	-0.0268517	0.0185547	0.665771	-0.688965	0.861446	0.351263	0.344735	0.125234	-5.32294	7.75109	6.21774	-0.00960499	-0.0117	-0.0148442	0.810059	-0.562012	-0.0612793	0.374694	-0.568196	-0.519025	-0.517078	9.62326	1.01389	-1.69449	-0.00345955	0.0692276	-0.00662409	-0.915527	0.276855	0.235107	0.420813	-0.518881	-0.482626	-0.566349	9.85268	1.0053	-0.0726241	-0.010843	0.0310718	-0.0182983	-1.0188	0.300049	0.078125	0.42106	-0.502808	-0.504043	-0.56199	9.78558	1.29945	-0.206873	-0.0313403	0.0131346	-0.0167418	-1.05176	0.232422	0.0595703	0.491296	-0.552689	-0.481541	-0.470406	9.74071	-0.752711	-0.0189294	0.0777274	0.066056	0.00925368	-0.920654	0.475586	0.0864258	0.524915	-0.545884	-0.504054	-0.415216	9.71484	-1.48117	-1.01147	0.0144351	0.0185291	-0.00592551	-0.953369	0.585205	0.0722656	
30	0.731441	0.0528612	-0.0491795	-0.678071	-0.33819	1.56167	10.9458	0.0171859	-0.0155983	-0.0270401	0.0488281	0.226318	-0.948486	0.537285	-0.437207	-0.383602	-0.610757	9.35399	-0.268849	3.36601	-0.0823706	-0.0278265	-0.030677	-0.739258	0.303223	-0.218018	0.791881	0.10722	0.0640675	-0.597766	-2.4654	1.05614	10.5353	-0.0156036	0.0360691	0.00841328	0.305664	0.202148	-0.886963	0.0625965	0.216795	0.536912	-0.8129	-4.16719	-8.13118	3.3665	-0.0449188	-0.0195005	-0.00693245	0.0581055	0.943848	-0.412842	0.625449	-0.0765933	0.170045	-0.757649	-0.876501	-3.49648	9.08812	0.0262922	0.011345	-0.04072	0.0144043	0.661377	-0.695801	0.86201	0.351024	0.343622	0.125075	-5.34096	7.74561	6.21525	-0.0225426	-0.0411638	-0.0118742	0.814697	-0.570801	-0.0651855	0.3746	-0.568199	-0.517987	-0.518184	9.60175	0.909623	-1.93787	-0.0146295	0.0572647	-0.0105158	-0.919922	0.276855	0.239258	0.421889	-0.517734	-0.48306	-0.566228	9.61093	0.63057	-0.0799834	0.10516	0.0665257	-0.0207973	-1.01636	0.295898	0.0617676	0.423841	-0.500376	-0.507188	-0.559234	9.67184	1.04689	-0.580704	0.288086	0.0101123	-0.0239552	-1.0564	0.230225	0.057373	0.491374	-0.55275	-0.481497	-0.470298	9.95552	-0.828535	-0.876674	0.049744	0.0209125	0.00184043	-0.91626	0.477783	0.0864258	0.525022	-0.545786	-0.504253	-0.414968	9.83423	-1.59641	-0.880343	0.0732756	0.00141521	-0.00295439	-0.948975	0.5896	0.0654297	
31	0.731116	0.0519734	-0.0497069	-0.678452	-0.0319183	1.37483	10.8865	-0.0213569	-0.0433798	-0.00553003	0.0444336	0.228271	-0.948486	0.536958	-0.436994	-0.383965	-0.610969	9.37614	0.196475	3.14722	-0.023552	0.0107895	-0.0406145	-0.741211	0.298828	-0.224854	0.791675	0.107013	0.0644503	-0.598035	-2.47393	1.11025	10.4789	-0.0305655	0.0092555	-0.0159629	0.309814	0.206543	-0.87793	0.0624033	0.216513	0.537184	-0.812811	-4.17703	-8.37255	3.1189	-0.0181707	-0.00121801	-0.0280939	0.0559082	0.94165	-0.415039	0.624406	-0.0762214	0.169951	-0.758567	-0.928958	-3.43888	9.11865	-0.00186839	0.0162454	-0.0682089	0.0231934	0.661621	-0.695801	0.862625	0.350803	0.342292	0.125108	-5.31695	7.78494	6.155	-0.024911	-0.0397784	0.00230195	0.810547	-0.572998	-0.0673828	0.373985	-0.568225	-0.517653	-0.518933	9.5795	1.11851	-1.8788	-0.035659	-0.0104572	-0.0257778	-0.915527	0.276855	0.23291	0.42474	-0.515643	-0.486356	-0.563175	9.97292	1.63041	-0.127712	0.198896	-0.00813578	-0.0123912	-1.0188	0.297852	0.0712891	0.427833	-0.496694	-0.511568	-0.555474	9.78803	1.77098	0.234713	0.184452	0.0176044	-0.0222028	-1.04712	0.232666	0.0551758	0.492966	-0.55137	-0.482283	-0.469445	9.82207	-1.11395	-0.967386	0.126532	0.0409618	0.00375556	-0.918701	0.477783	0.0839844	0.526328	-0.544451	-0.5053	-0.413792	9.76862	-1.54345	-1.04766	0.160056	0.0110901	-0.011094	-0.946533	0.585205	0.067627	
32	0.730993	0.0522197	-0.0500438	-0.678541	-0.0382993	1.42719	10.884	0.0332384	-0.0118035	-0.0120429	0.0402832	0.221924	-0.952637	0.536177	-0.437434	-0.384138	-0.611231	9.42867	-0.0543209	3.25893	-0.00891248	-0.00034428	-0.0425824	-0.743408	0.296631	-0.217773	0.791782	0.106023	0.0653739	-0.597969	-2.44695	1.00069	10.491	-0.106066	0.0166398	-0.00534288	0.30542	0.206543	-0.87793	0.0610392	0.215084	0.536023	-0.814059	-4.05039	-8.26241	3.2081	0.0488856	-0.0186781	-0.0450426	0.0537109	0.94165	-0.417236	0.623529	-0.0756801	0.169949	-0.759343	-1.14777	-3.64361	9.01065	0.0374086	0.024731	-0.0518887	0.0166016	0.659424	-0.697998	0.863445	0.35038	0.340439	0.125688	-5.37919	7.7743	6.09626	-0.0533309	-0.0559641	0.0263877	0.810547	-0.572998	-0.0673828	0.374292	-0.567676	-0.517024	-0.519938	9.5357	1.14929	-1.63919	0.0224468	0.0491565	-0.018802	-0.921631	0.270508	0.230957	0.423997	-0.515785	-0.484825	-0.564921	9.73616	1.03935	0.134762	-0.136568	0.067606	-0.028037	-1.02075	0.295654	0.064209	0.427834	-0.496697	-0.511693	-0.555356	9.73019	1.43001	-0.0658061	-0.0128307	-0.00342274	-0.021177	-1.05615	0.225586	0.0598145	0.494708	-0.549682	-0.483837	-0.467991	9.83092	-0.940263	-0.684704	0.105861	-1.18075e-05	-0.00614171	-0.923096	0.477783	0.0817871	0.527308	-0.543444	-0.506095	-0.412895	9.6138	-1.50095	-1.12469	0.151268	0.00724385	-0.00970598	-0.948975	0.587402	0.0632324	
33	0.730493	0.0526995	-0.0511627	-0.678958	-0.0466118	1.89696	10.9058	0.0322173	-0.0263704	-0.0210116	0.0471191	0.219727	-0.952637	0.536029	-0.437371	-0.384459	-0.611205	9.36464	0.0693705	3.25122	0.0060595	-0.00282531	-0.0373318	-0.739258	0.301025	-0.220215	0.792031	0.105563	0.065198	-0.597739	-2.28239	0.814418	10.36	0.0276177	-0.0188038	0.0146373	0.307617	0.204346	-0.882568	0.0609419	0.214608	0.53439	-0.815265	-3.98839	-8.15303	3.45645	0.0441976	-0.0214038	0.00249599	0.0515137	0.94165	-0.419434	0.62317	-0.0740431	0.168074	-0.760216	-0.892371	-3.18356	9.07857	0.0647609	0.0148996	-0.0398168	0.0209961	0.661621	-0.702637	0.864295	0.350085	0.338467	0.125995	-5.27309	7.75103	6.21216	-0.0374258	-0.0589163	0.0090801	0.806152	-0.572998	-0.0737305	0.374076	-0.567854	-0.516892	-0.520031	9.58667	1.30104	-1.78125	-0.00351877	0.0174547	-0.0110866	-0.919678	0.272461	0.230957	0.424839	-0.515189	-0.485776	-0.564016	9.89254	0.916798	-0.078497	0.135739	-0.000711258	-0.0167167	-1.02075	0.297852	0.0688477	0.429833	-0.49492	-0.513811	-0.55344	9.92741	1.45449	-0.065465	0.312917	0.0195335	-0.0304244	-1.04932	0.228027	0.0551758	0.495385	-0.548996	-0.484364	-0.467535	9.82015	-0.616202	-0.720589	0.097238	0.0228032	-0.00335608	-0.920654	0.475586	0.0771484	0.528587	-0.542205	-0.506928	-0.411866	9.7207	-1.55302	-0.874272	0.0288695	0.0129308	-0.000736396	-0.953125	0.583008	0.0563965	
34	0.7305	0.0525811	-0.0513434	-0.678947	-0.172162	1.66827	10.9666	-0.00242692	-0.0189162	-0.000775178	0.0466309	0.226318	-0.957031	0.5353	-0.437651	-0.384551	-0.611586	9.56681	0.000319107	3.24924	-0.0379642	0.000395535	-0.0434794	-0.739258	0.301025	-0.220215	0.79245	0.105725	0.0647662	-0.597202	-2.57731	0.96408	10.5354	0.00167401	-0.00796404	0.0393115	0.305664	0.204346	-0.882568	0.0610287	0.2143	0.534332	-0.815377	-4.14815	-8.26385	3.36155	0.00697722	-0.0201428	-0.00608773	0.0537109	0.939453	-0.419434	0.622923	-0.0745498	0.168345	-0.760308	-1.23324	-3.39351	9.12626	-0.0431417	-0.00589456	-0.0401044	0.0209961	0.661621	-0.700439	0.86472	0.349648	0.337667	0.12644	-5.31869	7.73091	6.26523	-0.0538387	-0.0356306	0.0192975	0.806152	-0.570801	-0.0737305	0.373921	-0.568061	-0.516398	-0.520406	9.58179	1.01855	-1.75273	-0.0351431	0.0272926	-0.00215364	-0.921875	0.274658	0.23291	0.425231	-0.514806	-0.486555	-0.563399	9.84303	1.36698	5.92744e-05	0.0934268	-0.00233041	-0.0247758	-1.01855	0.295654	0.0666504	0.430657	-0.4942	-0.514658	-0.552655	9.68348	1.84171	0.235357	0.132944	0.0112296	-0.0195336	-1.05176	0.232666	0.0507812	0.49483	-0.549815	-0.483198	-0.468366	9.69127	-0.636722	-0.626488	-0.0652217	0.0210902	0.0161999	-0.918701	0.47998	0.0817871	0.528933	-0.541817	-0.507112	-0.411706	9.81351	-1.14248	-1.07263	-0.0180627	0.0168189	-0.0037027	-0.955566	0.587402	0.0632324	
35	0.730457	0.0526724	-0.0520367	-0.678933	-0.0600441	1.80114	10.8791	0.0188001	-0.00867328	0.00839003	0.0446777	0.221924	-0.954834	0.534973	-0.437736	-0.384568	-0.6118	9.39797	-0.0195494	3.26638	-0.00485888	0.0164524	-0.0227351	-0.743652	0.301025	-0.215576	0.792873	0.105126	0.0644839	-0.596777	-2.46828	1.0483	10.6036	-0.0282601	-0.0063475	0.00821145	0.30127	0.202393	-0.886963	0.061014	0.214085	0.533413	-0.816037	-4.18757	-8.31182	3.3987	0.0411748	0.000274296	0.00597643	0.0537109	0.939453	-0.421631	0.623118	-0.0739993	0.167649	-0.760357	-1.00597	-3.39046	9.09075	0.0647653	0.00788458	-0.00580979	0.0124512	0.657227	-0.705078	0.865098	0.349467	0.336632	0.127113	-5.1954	7.94004	6.31003	-0.00889093	-0.00951218	0.00903387	0.80835	-0.570801	-0.0803223	0.373136	-0.568831	-0.516588	-0.519939	9.48263	1.03319	-1.70063	0.0319002	-0.0407619	-0.0159709	-0.919678	0.272461	0.239502	0.425029	-0.514914	-0.485493	-0.564368	9.89744	1.20581	-0.0503552	-0.0437971	0.047919	-0.0149204	-1.02075	0.297852	0.0664062	0.427668	-0.497091	-0.511211	-0.555575	9.79858	1.47961	-0.218002	-0.318876	-0.00359468	-0.0105788	-1.05396	0.230225	0.0595703	0.493657	-0.550862	-0.482286	-0.469312	9.68328	-0.941564	-1.0124	-0.0593584	0.00719869	-0.000150141	-0.918701	0.47998	0.0839844	0.528237	-0.542524	-0.506349	-0.412607	9.68669	-1.41274	-0.969074	-0.00694105	0.0243777	-0.00641257	-0.953125	0.580811	0.0632324	
36	0.730699	0.0524928	-0.0521309	-0.678679	-0.221771	1.70068	10.9329	-0.00743211	-0.0164204	0.0148972	0.0449219	0.219727	-0.954834	0.53476	-0.437714	-0.384793	-0.61186	9.41877	0.0960767	3.24925	-0.0107187	0.0156387	-0.025299	-0.743652	0.301025	-0.217773	0.793003	0.105206	0.0645179	-0.596587	-2.51316	0.936677	10.5334	0.00259178	0.0134591	0.0167772	0.307617	0.204346	-0.880127	0.0615477	0.214097	0.53371	-0.815799	-4.1567	-8.4005	3.31158	-0.0134207	0.00305427	0.0201382	0.0515137	0.939453	-0.423828	0.623198	-0.0738842	0.167092	-0.760424	-0.967318	-3.42048	9.03418	0.0060261	-0.00557721	-4.31548e-06	0.0168457	0.657227	-0.700439	0.865467	0.348565	0.336405	0.127678	-5.28649	7.6748	6.24547	-0.0286961	0.0187909	-0.0134776	0.804199	-0.577393	-0.0844727	0.372771	-0.569191	-0.516779	-0.519617	9.41378	1.11695	-1.68469	-0.00343533	-0.0330813	-0.0162135	-0.921875	0.272461	0.235107	0.422821	-0.516122	-0.483249	-0.566844	9.90394	1.05538	0.0208127	-0.193564	0.0396681	-0.0354607	-1.02515	0.295654	0.064209	0.424526	-0.499909	-0.507994	-0.5584	9.84834	1.33185	-0.189842	-0.243425	-0.0139563	-0.0137658	-1.04688	0.228027	0.0620117	0.493027	-0.551193	-0.482223	-0.469651	9.78495	-1.00331	-0.526921	-0.0863626	-0.0223973	0.00100689	-0.923096	0.47998	0.0908203	0.52542	-0.545272	-0.503583	-0.415952	9.75438	-1.79149	-0.97317	-0.2528	0.0423704	-0.00140909	-0.959961	0.585205	0.060791	
37	0.731156	0.0524199	-0.0526265	-0.678155	-0.196592	1.88753	10.907	0.00826985	-0.0163538	0.030505	0.0424805	0.224121	-0.952881	0.534759	-0.4381	-0.384858	-0.611544	9.4416	-0.0240931	3.26612	-0.0168594	-0.00524762	-0.0105997	-0.745605	0.298828	-0.210693	0.79308	0.106005	0.0641666	-0.59638	-2.50884	1.05646	10.4437	-0.0159241	0.0210802	0.00656282	0.309814	0.202148	-0.87793	0.0617631	0.21437	0.533509	-0.815842	-4.10695	-8.18423	3.21967	-0.00871107	0.00910802	0.0141305	0.0512695	0.943848	-0.423828	0.623673	-0.0743785	0.16742	-0.759914	-1.13535	-3.3436	8.92364	-0.0306884	-0.0098118	-0.000486478	0.0124512	0.655029	-0.702637	0.865375	0.348194	0.337064	0.127574	-5.09332	7.76338	6.24645	-0.00406731	0.0494108	-0.045789	0.810547	-0.575195	-0.0759277	0.371687	-0.570617	-0.517975	-0.517635	9.42342	1.06456	-1.80827	0.0203366	-0.10632	-0.0043527	-0.921875	0.276855	0.239258	0.421531	-0.517066	-0.481697	-0.568263	9.73763	0.975682	-0.126958	-0.0820448	0.0166079	-0.011816	-1.02271	0.29126	0.0690918	0.42271	-0.501244	-0.506244	-0.560168	9.77101	1.44564	-0.272285	-0.0918383	0.00694327	-0.0328943	-1.05396	0.228027	0.0598145	0.492699	-0.551511	-0.481636	-0.470223	9.69651	-1.02208	-0.361841	-0.00887982	0.0332921	-0.00637172	-0.923096	0.475586	0.0817871	0.525675	-0.544896	-0.503383	-0.416365	9.6217	-1.53771	-0.955506	0.0525596	0.0272609	-0.0166464	-0.953369	0.585205	0.067627	
38	0.73134	0.0511445	-0.0523784	-0.678072	-0.0815743	1.43898	10.9214	-0.0460047	-0.0226501	-0.0013721	0.0356445	0.223877	-0.948486	0.534421	-0.439008	-0.385011	-0.611091	9.4542	-0.0255655	3.2556	-0.0187476	-0.0272005	0.0044779	-0.743408	0.296631	-0.208252	0.79299	0.105257	0.0640672	-0.596643	-2.64971	1.08088	10.5336	-0.0269591	-0.0336497	-0.0191169	0.305664	0.204346	-0.873291	0.0613938	0.214166	0.533013	-0.816248	-4.11451	-8.2679	3.13194	0.0519325	-0.00258408	-0.0219145	0.0515137	0.94165	-0.426025	0.623855	-0.0748257	0.167241	-0.759761	-0.952114	-3.35034	8.98411	-0.0140225	-0.0318714	-0.00223806	0.0102539	0.65918	-0.700439	0.865507	0.34751	0.337563	0.12722	-5.11617	7.75363	6.24551	-0.00584514	0.0184339	-0.0435758	0.80835	-0.570801	-0.0803223	0.369123	-0.573209	-0.519356	-0.515218	9.52178	0.854481	-1.92124	0.024249	-0.20201	-0.0120769	-0.915527	0.276855	0.25415	0.42054	-0.517713	-0.480443	-0.569469	9.94821	1.10556	0.0592245	-0.0778353	0.0353066	-0.0255594	-1.02295	0.293457	0.064209	0.421346	-0.50212	-0.504997	-0.561534	9.83524	1.3802	-0.159265	-0.0897592	0.00561445	-0.0341863	-1.04907	0.22583	0.0598145	0.49336	-0.550753	-0.481615	-0.470441	9.71876	-0.733496	-0.683954	0.0377681	0.0394252	-0.00153302	-0.916504	0.477783	0.0793457	0.525104	-0.545273	-0.502738	-0.417371	9.68415	-1.5887	-0.907897	-0.0778397	0.0229914	-0.0125429	-0.955566	0.587402	0.067627	
39	0.731345	0.050437	-0.0528519	-0.678083	-0.15722	1.78489	10.9303	-0.0119375	-0.0409304	0.00577699	0.0402832	0.219727	-0.954834	0.534409	-0.439621	-0.385517	-0.610342	9.38602	-0.0229746	3.08701	0.0112659	-0.0467378	-0.0109749	-0.74585	0.303223	-0.210938	0.792977	0.104419	0.0641622	-0.596798	-2.4183	1.00466	10.3207	-0.0549581	-0.0296149	-0.0173342	0.305664	0.204346	-0.886963	0.0612745	0.213982	0.531839	-0.817071	-3.9649	-8.17759	3.21188	0.0715924	-0.00742728	0.0138782	0.0515137	0.939453	-0.421631	0.623022	-0.0767029	0.167056	-0.760298	-0.781688	-3.39836	8.99984	-0.00726273	-0.0360249	-0.0667871	0.0102539	0.656982	-0.697998	0.866024	0.346647	0.337556	0.126074	-5.30062	7.73388	6.23317	-0.0241759	-0.016586	-0.0769297	0.814697	-0.568604	-0.0825195	0.367558	-0.57496	-0.521076	-0.512643	9.49916	1.04287	-2.00665	0.0344924	-0.142758	-0.0165888	-0.911377	0.279053	0.262695	0.420468	-0.517323	-0.480055	-0.570203	9.80695	0.799235	0.0280102	0.0368205	0.0479851	-0.0196738	-1.02075	0.293457	0.0688477	0.421506	-0.501443	-0.505867	-0.561237	9.68007	1.27906	-0.193051	0.121089	0.0140015	-0.0459572	-1.05151	0.228027	0.064209	0.493275	-0.550457	-0.481768	-0.470718	9.69704	-1.07153	-0.622481	0.0248879	0.0267674	-0.00888261	-0.91626	0.473389	0.0842285	0.525222	-0.545121	-0.502659	-0.417515	9.82335	-1.65484	-0.970964	0.00667688	0.0262303	-0.00922236	-0.959961	0.585205	0.060791	
40	0.731496	0.048462	-0.0534364	-0.678019	-0.164833	1.62946	10.9731	-0.0480307	-0.0910434	0.0124366	0.0380859	0.22168	-0.948486	0.534434	-0.440084	-0.386606	-0.609297	9.4067	-0.101667	3.03106	0.0587594	-0.0915433	0.00349074	-0.741211	0.298828	-0.208496	0.792501	0.102022	0.0621221	-0.598059	-2.48251	0.99147	10.5334	-0.0102043	-0.0887429	-0.0298136	0.30127	0.20459	-0.886963	0.0614555	0.214159	0.530386	-0.817955	-4.01829	-8.16096	3.26825	0.0559125	-0.00896916	0.0129471	0.0541992	0.932861	-0.430176	0.622164	-0.0781117	0.16671	-0.760933	-0.981554	-3.38155	8.85036	-0.0250166	-0.0440749	-0.0698521	0.00805664	0.654785	-0.700439	0.866648	0.345902	0.337376	0.124299	-5.1982	7.51072	6.13772	-0.00733102	-0.0177396	-0.0923404	0.8125	-0.568604	-0.0803223	0.365924	-0.576212	-0.522701	-0.510748	9.50647	1.16922	-2.06285	0.0198691	-0.103626	-0.0366608	-0.91748	0.274658	0.262695	0.421853	-0.516206	-0.480471	-0.569841	9.76512	0.961855	0.0679751	0.0964102	0.0480958	0.0127998	-1.02271	0.291504	0.064209	0.423896	-0.49881	-0.508647	-0.559267	9.83301	1.5815	-0.668361	0.24576	0.0315589	-0.0346349	-1.05615	0.225586	0.0576172	0.494795	-0.548725	-0.482901	-0.469984	9.70502	-0.961633	-0.533909	0.126593	0.0493909	-0.00287744	-0.920654	0.473389	0.0842285	0.526802	-0.543719	-0.503249	-0.416642	9.65897	-1.64362	-0.838767	0.0862844	0.0229311	0.00621032	-0.957764	0.583008	0.0585938	
41	0.731464	0.0471409	-0.0536443	-0.67813	0.0216938	1.61132	10.8746	-0.0665522	-0.0893094	-0.00277785	0.0332031	0.230469	-0.952881	0.532756	-0.442748	-0.387808	-0.608071	9.41319	-0.0173958	3.15287	-0.0420692	-0.13143	-0.00375407	-0.748047	0.303223	-0.201416	0.792456	0.100749	0.0616965	-0.598378	-2.61227	0.962496	10.6356	-0.0571229	-0.0845485	-0.0273094	0.30127	0.210938	-0.882568	0.0605756	0.213383	0.528266	-0.819594	-4.11957	-8.14329	3.39539	0.0883753	-0.026807	-0.0326517	0.0541992	0.933105	-0.432373	0.621585	-0.0795526	0.16656	-0.76129	-0.873413	-3.39806	9.02538	-0.0632962	-0.0776985	-0.0874868	0.00561523	0.661377	-0.695801	0.867139	0.345181	0.337108	0.123603	-5.28267	7.61659	6.17104	-0.0393834	-0.0294382	-0.0827859	0.814453	-0.562012	-0.0849609	0.36517	-0.576318	-0.523055	-0.510804	9.55002	1.10521	-2.01093	0.0204118	0.0207496	-0.0285189	-0.910889	0.272461	0.262939	0.424591	-0.51416	-0.483356	-0.567211	9.83607	1.53084	0.0455815	0.206202	-0.00685101	-0.0252049	-1.02075	0.295654	0.064209	0.425963	-0.496782	-0.510753	-0.557579	9.86148	1.43384	-0.20605	0.319336	0.041381	-0.03666	-1.05615	0.225586	0.0598145	0.495987	-0.547605	-0.483933	-0.468973	9.5057	-1.06947	-0.55629	0.178817	0.0149831	-0.000737626	-0.923096	0.477783	0.0725098	0.528744	-0.541761	-0.504761	-0.414898	9.53393	-1.94119	-1.00828	0.29034	0.010455	-0.010273	-0.957764	0.585205	0.0539551	
42	0.730946	0.0453566	-0.0538502	-0.678793	0.0290907	1.43456	11.077	-0.0174851	-0.0625402	-0.0322999	0.0288086	0.228271	-0.950684	0.531506	-0.444824	-0.389352	-0.606661	9.603	0.0241274	3.25184	-0.0401886	-0.131455	-0.0115141	-0.74585	0.30542	-0.19458	0.792411	0.0974778	0.0616288	-0.598986	-2.24764	1.04967	10.4584	-0.111032	-0.0748992	-0.0258204	0.294678	0.213379	-0.882568	0.0605428	0.213075	0.527619	-0.820093	-4.09353	-8.42141	3.4517	0.0639795	-0.0247754	-0.00590605	0.0476074	0.930664	-0.43457	0.620543	-0.08198	0.165472	-0.762118	-0.972586	-3.44026	9.2232	-0.0113684	-0.0896756	-0.0834661	0.00146484	0.661377	-0.691162	0.867962	0.343882	0.336914	0.121971	-5.44963	7.8788	6.31564	-0.0106194	-0.0172439	-0.0957843	0.814453	-0.564209	-0.0825195	0.364797	-0.576274	-0.52307	-0.511106	9.44759	1.06196	-2.11409	-0.0134964	0.0103693	-0.0422355	-0.906494	0.270264	0.264893	0.424918	-0.513726	-0.483777	-0.567001	9.99288	1.48445	0.122877	0.0605068	0.0265752	-0.0285969	-1.0293	0.293457	0.064209	0.428843	-0.493938	-0.513693	-0.555192	9.82776	1.99224	0.142889	0.11115	0.0247349	-0.0269501	-1.05615	0.22583	0.0507812	0.499796	-0.543526	-0.48696	-0.466533	9.80246	-0.761404	-0.48001	0.334282	0.064664	-0.0137336	-0.923096	0.477783	0.0703125	0.531484	-0.53868	-0.507582	-0.411958	9.66126	-1.24278	-0.819653	0.113881	-0.0235124	-0.0208564	-0.960205	0.587402	0.0471191	
43	0.731222	0.04457	-0.0553925	-0.678424	0.140912	1.85347	10.7938	0.0144954	-0.0568761	0.0359711	0.03125	0.226074	-0.957275	0.530913	-0.44592	-0.390859	-0.605406	9.47719	-0.00117659	3.00968	0.0427922	-0.0816671	-0.0168868	-0.747803	0.298828	-0.201416	0.792246	0.0952676	0.0604231	-0.599682	-2.0812	0.616618	10.6588	0.00237946	-0.0767181	-0.0177254	0.286133	0.213379	-0.887207	0.060799	0.213041	0.525938	-0.821162	-4.07676	-8.29399	3.77431	0.0720022	-0.00851736	0.0243225	0.0500488	0.926514	-0.438965	0.619657	-0.0831782	0.16489	-0.762835	-0.936277	-3.7056	9.42026	0.00064873	-0.00740611	-0.0632248	-0.000732422	0.661377	-0.698242	0.868906	0.342595	0.336043	0.121269	-5.64279	7.86199	6.51625	-0.0544872	-0.0292657	-0.029171	0.822754	-0.557861	-0.0849609	0.365428	-0.57553	-0.525295	-0.509207	9.39411	1.28849	-1.9145	0.12444	-0.0262579	-0.0316192	-0.911133	0.274658	0.26709	0.425185	-0.512891	-0.483931	-0.567426	9.69356	1.00602	0.231136	0.0598019	0.0307124	-0.0382465	-1.0249	0.291504	0.0549316	0.42927	-0.49328	-0.514227	-0.554953	9.73932	1.69572	-0.0969696	0.0645807	0.010394	-0.0314792	-1.04907	0.22583	0.0507812	0.500592	-0.542525	-0.487626	-0.46615	9.64559	-0.586081	-0.419859	-0.0535319	-0.000447025	-0.0112264	-0.923096	0.477783	0.0634766	0.532206	-0.5373	-0.5094	-0.410582	9.67882	-1.39575	-1.00829	0.104047	-0.0276482	-0.0281035	-0.95752	0.580811	0.0449219	
44	0.731756	0.0438495	-0.0564818	-0.677805	0.168048	1.67894	10.8766	0.0192908	-0.06072	0.0332245	0.0244141	0.232422	-0.950928	0.530569	-0.44673	-0.392472	-0.604066	9.60567	0.226901	3.00705	0.0263019	-0.0636954	-0.0157905	-0.750244	0.303223	-0.194336	0.792289	0.096443	0.0583954	-0.599639	-2.30679	1.09563	10.6982	0.066193	-0.0445098	0.0103441	0.283936	0.213379	-0.887207	0.0617301	0.213965	0.525687	-0.821012	-4.1347	-8.40076	3.54797	-0.00383189	0.0152593	0.0597813	0.052002	0.930908	-0.436768	0.619952	-0.0826579	0.164131	-0.762816	-0.762695	-3.63925	9.01995	0.0454868	0.00178064	0.0149704	-0.00537109	0.665771	-0.693604	0.869159	0.342228	0.335615	0.121676	-5.55362	7.6516	6.31891	-0.010928	0.0147912	0.000104742	0.814209	-0.555664	-0.0893555	0.364838	-0.576052	-0.526611	-0.50768	9.4788	1.25986	-1.84183	0.074829	-0.0737496	-0.0245011	-0.915283	0.272461	0.27124	0.425677	-0.512355	-0.484893	-0.566719	9.75265	1.07701	0.120279	0.0558857	0.00152317	-0.018395	-1.01855	0.293701	0.0620117	0.430014	-0.492288	-0.515171	-0.554381	9.85861	1.35	-0.0687795	0.187072	0.0207393	-0.0375801	-1.04907	0.223633	0.0507812	0.500071	-0.542742	-0.487141	-0.466962	9.75362	-0.733725	-0.756332	0.00748619	0.0399052	-0.00643639	-0.923096	0.475586	0.065918	0.531119	-0.537881	-0.509721	-0.41083	9.77997	-1.43781	-1.0432	-0.0244811	-0.0305846	-0.0209164	-0.953369	0.585205	0.0517578	
45	0.732434	0.0434772	-0.0571577	-0.67704	0.239931	1.68688	10.8401	0.00166716	-0.0214322	0.0412832	0.0244141	0.232422	-0.950928	0.529778	-0.447986	-0.393257	-0.603318	9.48716	-0.0946953	2.98713	-0.0188299	-0.0687308	-0.0162444	-0.752441	0.30542	-0.185059	0.792828	0.0958159	0.0584439	-0.599021	-2.26544	0.637202	10.5573	0.00632603	0.0111014	0.0342873	0.286133	0.213379	-0.889404	0.0628793	0.214619	0.525472	-0.820892	-4.16878	-8.10652	3.57756	-0.0318229	0.00533014	0.0504233	0.0539551	0.935303	-0.438965	0.62128	-0.0825272	0.163492	-0.761886	-0.912862	-3.30725	8.97365	-0.00567364	-0.0241228	0.0454578	-0.00292969	0.661377	-0.698242	0.869081	0.341657	0.336283	0.121995	-5.25052	7.56031	6.34075	-0.019655	0.0584071	-0.0328741	0.816162	-0.555664	-0.0893555	0.363584	-0.577181	-0.526925	-0.50697	9.26843	1.10991	-2.02648	-0.0322787	-0.0692706	-0.00816067	-0.906738	0.272461	0.273438	0.425915	-0.512189	-0.485624	-0.566064	9.81886	1.28497	0.141988	0.0792798	-0.0177924	-0.0197729	-1.0249	0.289307	0.0549316	0.429559	-0.492549	-0.514519	-0.555107	9.80641	1.088	-0.424289	-0.103197	0.0160628	-0.0182972	-1.05591	0.218994	0.048584	0.49899	-0.543703	-0.48687	-0.467283	9.74409	-0.821197	-0.610792	-0.0460797	-0.0233973	-0.00193312	-0.922852	0.473389	0.0681152	0.530656	-0.538099	-0.50959	-0.411306	9.81908	-1.43208	-1.06024	-0.00271917	0.0196728	-0.00924533	-0.959961	0.585205	0.0517578	
46	0.732763	0.0434366	-0.0572219	-0.676681	0.295511	1.49521	10.8759	0.00213945	-0.00782762	0.0388426	0.0288086	0.228271	-0.950684	0.529536	-0.448415	-0.393815	-0.602848	9.62569	0.0287642	2.99656	0.0086538	-0.0550063	-0.0162567	-0.748047	0.305664	-0.18042	0.792952	0.0969369	0.0576124	-0.598759	-2.32719	0.917358	10.7046	0.110394	0.00842585	0.032566	0.290527	0.20459	-0.886963	0.0628793	0.214619	0.525472	-0.820892	-4.16878	-8.10652	3.57756	-0.0318229	0.00533014	0.0504233	0.0539551	0.935303	-0.438965	0.62128	-0.0825272	0.163492	-0.761886	-0.912862	-3.30725	8.97365	-0.00567364	-0.0241228	0.0454578	-0.00292969	0.661377	-0.698242	0.868977	0.341338	0.336854	0.122053	-5.23368	7.59756	6.36008	-0.00797701	0.0625873	-0.0358577	0.820312	-0.55127	-0.0874023	0.362812	-0.577959	-0.527547	-0.505989	9.55258	1.20264	-1.9394	0.0235196	-0.11643	-0.0146898	-0.906738	0.272461	0.275635	0.42583	-0.511847	-0.486016	-0.566101	9.78572	1.16521	0.148494	0.0141345	0.00838826	-0.0251599	-1.01855	0.291504	0.0595703	0.431606	-0.490536	-0.516722	-0.553254	9.8588	1.14632	-0.346575	0.329059	0.0301874	-0.0343917	-1.05591	0.223389	0.0441895	0.498627	-0.543994	-0.486888	-0.467314	9.91209	-0.977933	-0.661231	-0.025289	-0.0126844	-0.00116111	-0.920654	0.471191	0.065918	0.530273	-0.538514	-0.509272	-0.411649	9.73306	-1.47185	-0.80311	-0.0556083	0.00566434	-0.000844179	-0.955322	0.580811	0.0495605	
47	0.733131	0.0439845	-0.0569814	-0.676267	0.164126	1.71143	10.8051	0.00401008	0.029012	0.0100645	0.0268555	0.228271	-0.955078	0.528311	-0.449804	-0.393756	-0.602926	9.49443	-0.0262205	2.73424	-0.0430731	-0.0251249	-0.0352558	-0.750244	0.30542	-0.185059	0.793397	0.096467	0.0582473	-0.598182	-2.25181	1.08202	10.4108	-0.0897279	0.0011297	0.016045	0.28833	0.208984	-0.887207	0.0639743	0.21408	0.525535	-0.820908	-4.17412	-8.09641	3.36099	-0.00420692	-0.015505	0.0108097	0.052002	0.928711	-0.43457	0.621732	-0.0843057	0.163467	-0.761328	-0.743202	-3.426	9.23025	0.0366458	-0.0157899	-0.0458274	-0.00317383	0.665771	-0.695801	0.869433	0.340095	0.337042	0.121753	-5.29872	7.59857	6.49907	-0.0196297	-0.00174506	-0.0424804	0.820557	-0.557861	-0.0871582	0.360461	-0.57969	-0.528584	-0.504605	9.35813	1.03874	-2.05501	0.0142199	-0.0886314	-0.026746	-0.913086	0.272461	0.279785	0.426857	-0.512049	-0.487581	-0.563794	9.90727	1.47994	0.221885	0.0435591	-0.00422495	0.0159074	-1.02075	0.293701	0.0595703	0.432084	-0.489945	-0.517148	-0.553005	9.75662	1.61308	0.00299529	-0.0862805	-0.00394441	-0.0143456	-1.05347	0.221191	0.0463867	0.498317	-0.544498	-0.486756	-0.467195	9.61667	-0.940966	-0.553823	-0.0458332	-0.0182611	0.0170334	-0.92749	0.475342	0.0727539	0.530221	-0.538646	-0.509294	-0.411516	9.62636	-1.5414	-0.926285	0.043937	-0.00509362	0.000590362	-0.960205	0.587402	0.0517578	
48	0.733162	0.0443041	-0.0559871	-0.676295	0.117102	1.50235	11.0475	-0.00683291	0.0249531	-0.00610352	0.0290527	0.226074	-0.950684	0.527988	-0.450062	-0.394166	-0.602749	9.538	0.0491868	2.75835	-0.0047102	-0.0327614	-0.0331649	-0.750244	0.30542	-0.1875	0.793355	0.0961852	0.0582894	-0.59828	-2.41154	1.00477	10.4549	0.023046	0.0117147	-0.00704167	0.286133	0.213379	-0.887207	0.064192	0.214088	0.525143	-0.82114	-4.06337	-8.03517	3.57998	-0.017107	-0.00293587	0.0230051	0.0588379	0.926514	-0.436768	0.621368	-0.0847477	0.163281	-0.761616	-0.724454	-3.39678	9.04626	-0.0318679	-0.0198261	-0.025788	-0.00732422	0.661377	-0.688965	0.869542	0.340032	0.336904	0.121536	-5.39847	7.58476	6.31437	0.00469257	-0.00289205	-0.03115	0.818359	-0.553467	-0.0786133	0.360214	-0.579868	-0.530398	-0.502669	9.47418	1.13227	-2.25917	0.0763515	-0.0746102	-0.0231713	-0.911133	0.274658	0.281982	0.426117	-0.512255	-0.487441	-0.564288	9.84878	1.20619	0.109259	-0.0450116	0.0108138	-0.0377076	-1.02051	0.291504	0.0620117	0.432183	-0.489933	-0.517433	-0.552672	9.79882	1.44695	-0.125598	0.0361384	-0.0128016	-0.0154351	-1.05811	0.221191	0.048584	0.498032	-0.544666	-0.486858	-0.467196	9.85966	-0.978589	-0.849858	-0.0120577	-0.00955077	-0.00555236	-0.923096	0.477783	0.0656738	0.530178	-0.538758	-0.509675	-0.410954	9.7696	-1.42876	-1.02267	0.00886764	-0.0154898	0.00268131	-0.95752	0.580811	0.0495605	
49	0.733398	0.0446676	-0.0561423	-0.676003	-0.00346415	1.79372	10.9213	0.0113594	-0.00740533	0.015889	0.0268555	0.226074	-0.952881	0.52739	-0.450591	-0.395025	-0.602315	9.60557	0.0883071	2.77329	-0.000274186	-0.0146342	-0.0327076	-0.752197	0.303467	-0.182617	0.793308	0.0953359	0.0571459	-0.598588	-1.9947	0.682631	10.6926	0.0230088	-0.0490165	-0.0120994	0.28833	0.211182	-0.887207	0.0643142	0.214167	0.524577	-0.821472	-4.22103	-8.2653	3.56096	0.0506678	-0.00295833	0.0200507	0.0585938	0.930908	-0.441162	0.621195	-0.0851991	0.162957	-0.761776	-0.810985	-3.68376	9.16842	-0.00258778	-0.032665	-0.0404863	-0.00976562	0.665771	-0.702637	0.870092	0.33896	0.336602	0.121432	-5.49957	7.63999	6.4887	-0.0603012	0.00257002	-0.0263491	0.820557	-0.553467	-0.0871582	0.360657	-0.579642	-0.53081	-0.502177	9.41367	1.39735	-2.1634	0.078445	0.00364053	-0.0125009	-0.906738	0.272461	0.28418	0.425816	-0.512477	-0.487099	-0.564609	9.75247	0.685787	0.0659044	-0.0429793	0.0199993	-0.0180781	-1.01855	0.291504	0.057373	0.43077	-0.491562	-0.516246	-0.553438	9.70499	1.21447	-0.261179	-0.209751	-0.0239592	-0.00180221	-1.04907	0.22583	0.048584	0.498911	-0.544038	-0.488184	-0.465604	9.9716	-0.83359	-0.911072	0.0767604	-0.0391264	0.0173306	-0.925537	0.47998	0.0656738	0.53027	-0.5386	-0.510427	-0.410107	9.82303	-1.6888	-0.854166	0.0766928	-0.0130552	-0.00520709	-0.95752	0.580811	0.0541992	
50	0.733909	0.0446528	-0.0560387	-0.675458	0.171458	1.74224	10.8527	-0.00340478	0.00377661	0.0355111	0.0268555	0.226074	-0.952881	0.527201	-0.450653	-0.396132	-0.601706	9.62003	0.139695	2.84682	0.0330781	-0.0386215	-0.0262585	-0.754395	0.299072	-0.177734	0.793505	0.0958283	0.0570907	-0.598253	-2.36962	1.06502	10.6302	-0.0145914	0.00393879	0.0198721	0.28833	0.208984	-0.884766	0.0649441	0.214101	0.524429	-0.821534	-3.98079	-8.13231	3.67789	-0.0604975	-0.0126039	0.0281876	0.0563965	0.930908	-0.436768	0.621734	-0.0850777	0.162199	-0.761512	-0.795882	-3.33383	9.14577	-0.00270441	-0.0261448	0.0173229	-0.00512695	0.661377	-0.698242	0.870158	0.338654	0.336695	0.12155	-5.424	7.64368	6.50481	-0.0181486	0.0256688	-0.0199113	0.82251	-0.55127	-0.0893555	0.359819	-0.580612	-0.530978	-0.50148	9.38182	1.18236	-2.12903	0.00402748	-0.0365708	-0.00447751	-0.904297	0.270264	0.290527	0.427917	-0.511407	-0.489667	-0.561762	9.76194	1.16826	-0.277797	0.246916	-0.0441175	0.00253328	-1.02075	0.295654	0.064209	0.434143	-0.48871	-0.520017	-0.549786	9.74697	1.90568	0.0069405	0.347259	0.0138788	-0.0173086	-1.04932	0.228027	0.0441895	0.49848	-0.544898	-0.487377	-0.465906	9.54941	-0.794757	-0.3878	-0.140737	-0.0217791	0.0261696	-0.925537	0.47998	0.0749512	0.529786	-0.539297	-0.510272	-0.41001	9.6792	-1.27056	-1.05874	-0.116981	-0.0193345	0.00972482	-0.953125	0.578613	0.0541992	
51	0.734744	0.0453345	-0.0557048	-0.674531	0.251374	1.83875	10.9528	0.0186522	0.0358662	0.04944	0.0334473	0.226074	-0.950684	0.526009	-0.452185	-0.39587	-0.601773	9.45484	0.00563458	2.73726	-0.0632536	-0.0489367	-0.0193845	-0.756592	0.299072	-0.175293	0.794408	0.0951301	0.0578318	-0.597094	-2.28462	0.845615	10.581	-0.0296641	0.0487132	0.063733	0.286133	0.209229	-0.891602	0.0652864	0.213309	0.524213	-0.82185	-4.21889	-8.19829	3.55435	0.0295512	-0.0310853	-0.00909551	0.0544434	0.928711	-0.441162	0.622181	-0.085577	0.162776	-0.760968	-0.974269	-3.53845	9.06419	-0.0257909	0.020245	0.0199798	-0.00537109	0.663574	-0.693604	0.870052	0.338202	0.337298	0.121901	-5.28464	7.7578	6.44852	-0.00864152	0.0321444	0.00345451	0.816406	-0.557861	-0.0893555	0.359102	-0.581504	-0.531527	-0.500378	9.32803	0.935636	-2.2852	0.0519006	-0.0719782	-0.013294	-0.902344	0.272461	0.28833	0.427608	-0.51183	-0.490191	-0.561154	9.92599	1.65771	0.122839	-0.113982	0.0154791	-0.0184406	-1.02075	0.293701	0.0620117	0.433425	-0.489885	-0.51864	-0.550606	9.79268	1.53177	0.0631812	-0.179562	-0.000555307	0.00746384	-1.05811	0.221191	0.0463867	0.497935	-0.545656	-0.487061	-0.465931	9.73232	-0.992837	-0.564992	0.0503213	0.00358722	0.00591242	-0.918457	0.475586	0.0771484	0.529601	-0.539621	-0.510357	-0.409717	9.77193	-1.42496	-1.06357	0.0617052	-0.00782227	0.00167438	-0.955566	0.585205	0.0539551	
52	0.735425	0.0456238	-0.0548237	-0.673841	0.0179399	1.5038	10.9756	-0.0298728	0.0680568	0.0719608	0.0356445	0.223877	-0.952881	0.526022	-0.452297	-0.397156	-0.600829	9.68882	0.125104	2.72466	0.0235813	-0.0306023	-0.0242815	-0.756592	0.299072	-0.175293	0.794888	0.0953307	0.0574515	-0.59646	-2.126	1.0652	10.5681	-0.0169884	-0.0138037	0.0364417	0.281738	0.213623	-0.889404	0.0665506	0.213173	0.524904	-0.821343	-4.21067	-8.23528	3.33163	-0.0154201	-0.0181573	0.0454413	0.0566406	0.926514	-0.438965	0.62304	-0.0855427	0.161455	-0.76055	-0.752445	-3.3872	9.23357	0.0295583	-0.0483348	0.012456	-0.00512695	0.65918	-0.700439	0.870064	0.337257	0.338042	0.122368	-5.54306	7.70795	6.29459	-0.0457653	0.0510186	-0.0273116	0.818604	-0.560059	-0.0827637	0.359636	-0.581251	-0.532278	-0.499489	9.27956	1.19306	-2.40749	0.0490615	0.0263939	-0.0157086	-0.902588	0.276855	0.290283	0.425564	-0.513595	-0.488024	-0.562982	9.69544	0.820225	-0.0101748	-0.12638	-0.0139326	-0.0168955	-1.02051	0.291504	0.064209	0.430521	-0.492916	-0.515238	-0.553367	9.65486	1.5886	-0.0458069	-0.286305	-0.0155643	-0.000423609	-1.05127	0.221191	0.0510254	0.497655	-0.545977	-0.487264	-0.465641	9.77471	-0.755317	-0.717436	-0.00660937	-0.00608149	0.0100567	-0.920654	0.471191	0.0749512	0.52927	-0.539949	-0.510385	-0.409678	9.64699	-1.64506	-0.993173	-0.0293156	-0.010652	-0.00363719	-0.94873	0.583008	0.0563965	
53	0.736537	0.045961	-0.0557543	-0.672526	0.171476	1.67581	10.923	-0.0177751	-0.0303725	0.0669409	0.0356445	0.223877	-0.948486	0.526064	-0.452625	-0.398168	-0.599874	9.53357	-0.124869	2.77496	0.0380803	-0.0346523	-0.00426957	-0.751953	0.296875	-0.172852	0.795516	0.0950551	0.0572528	-0.595685	-2.16175	0.800549	10.4109	0.0318552	-0.00598596	0.0197632	0.286133	0.211182	-0.884766	0.0676243	0.213279	0.524348	-0.821583	-4.04821	-8.02233	3.80499	-0.0220308	-0.00598514	0.0502256	0.0585938	0.930908	-0.441162	0.624284	-0.085296	0.161293	-0.759591	-0.553949	-3.39935	8.93103	0.0348027	0.0108847	0.0476198	-0.00292969	0.65918	-0.695801	0.870234	0.336307	0.338237	0.123235	-5.30463	7.5599	6.58444	-0.0311186	0.0361102	-0.0119429	0.822754	-0.557861	-0.0871582	0.359036	-0.582026	-0.533297	-0.497928	9.46577	1.12062	-2.30523	0.050291	-0.0115441	-0.0115745	-0.902588	0.279053	0.294678	0.423934	-0.51528	-0.487003	-0.563556	9.83445	1.27024	-0.0330715	-0.068093	-0.0298993	0.00123979	-1.0249	0.289062	0.0690918	0.427485	-0.495782	-0.512053	-0.55611	9.72354	1.57998	-0.0625014	-0.219031	-0.0115639	-0.0138359	-1.05835	0.225586	0.0576172	0.497016	-0.546779	-0.486806	-0.465863	9.7842	-0.688041	-0.778394	-0.0806559	-0.0116467	0.00992069	-0.925293	0.477783	0.0725098	0.528203	-0.541035	-0.510113	-0.409962	9.80739	-1.26125	-1.03571	-0.14634	-0.0219262	0.00391381	-0.955322	0.580811	0.0632324	
54	0.737712	0.0463957	-0.0559536	-0.671191	0.0810066	1.67464	10.98	0.0138577	-0.00188979	0.0707952	0.0356445	0.223877	-0.952881	0.525888	-0.453159	-0.398721	-0.599259	9.4872	0.144342	2.66017	-0.00910387	-0.0281129	-0.0064864	-0.756348	0.296875	-0.175293	0.796083	0.0956061	0.0567672	-0.594885	-2.34811	1.05691	10.704	-0.00255965	0.0266747	0.0522951	0.283936	0.211426	-0.891602	0.0683391	0.213437	0.523926	-0.821752	-4.31259	-8.1646	3.40677	0.0617317	-0.0210625	0.0125206	0.060791	0.933105	-0.438965	0.624997	-0.0858112	0.16095	-0.759019	-0.684983	-3.34923	9.00301	-0.00435031	-0.0269937	0.0242188	-0.00537109	0.663574	-0.695801	0.870356	0.335088	0.338941	0.123758	-5.34241	7.35845	6.3113	-0.0260619	0.047564	-0.0216411	0.818359	-0.557861	-0.0913086	0.359367	-0.582036	-0.534057	-0.496863	9.22806	1.11699	-2.17982	0.0733354	-0.0475977	-0.0140686	-0.89624	0.279053	0.290283	0.422816	-0.516346	-0.485692	-0.564549	9.80629	0.862729	0.0865178	-0.0378602	0.0164704	-0.0172462	-1.02075	0.297852	0.0734863	0.425557	-0.497715	-0.509949	-0.557792	9.72269	1.1942	-0.269287	-0.298948	-0.0205335	-0.000334032	-1.05859	0.227783	0.0620117	0.49564	-0.548202	-0.486159	-0.466331	9.68819	-1.18709	-0.566928	-0.0626353	-0.0182288	0.0108591	-0.920654	0.471191	0.0773926	0.527651	-0.541779	-0.509713	-0.410186	9.62269	-1.60406	-1.0826	0.04883	-0.00539653	0.0019416	-0.94873	0.580811	0.0585938	
55	0.738376	0.046968	-0.0562406	-0.670396	0.125131	1.6874	10.8481	0.0385563	0.015382	0.0160399	0.0336914	0.22168	-0.948486	0.525319	-0.45435	-0.398877	-0.598751	9.71024	-0.0698735	2.60075	-0.0245479	-0.0367169	-0.00978327	-0.758789	0.30127	-0.166016	0.796584	0.0949191	0.0565596	-0.594344	-2.1504	0.832263	10.5236	-0.00412994	-0.0366273	0.0239019	0.281982	0.207031	-0.884766	0.0691192	0.213189	0.524025	-0.821688	-4.18595	-8.1747	3.35516	-0.0253913	-0.0118174	0.0257655	0.0673828	0.933105	-0.43457	0.625755	-0.0867315	0.160326	-0.758422	-0.717111	-3.35979	9.12169	-0.0127067	-0.0628488	-0.00764139	-0.00292969	0.661377	-0.702637	0.87047	0.334022	0.339687	0.12379	-5.36057	7.5294	6.46156	-0.0325828	0.047757	-0.0471333	0.818604	-0.557861	-0.0849609	0.359654	-0.582184	-0.534472	-0.496036	9.51279	0.999841	-2.70902	0.0317851	0.0317074	-0.00124099	-0.904541	0.276855	0.294678	0.422478	-0.516581	-0.485641	-0.564631	9.78012	1.21027	-0.0933635	-0.0284193	0.0164847	-0.0196702	-1.02295	0.293457	0.0688477	0.423602	-0.499648	-0.509016	-0.558405	9.75791	1.48433	-0.085796	-0.230148	-0.0363922	-0.00122212	-1.05151	0.230225	0.064209	0.495327	-0.548587	-0.486053	-0.466322	9.73376	-0.715505	-0.679977	-0.0121147	-0.0059705	0.0122439	-0.920654	0.473389	0.0749512	0.525832	-0.543742	-0.508397	-0.411557	9.67888	-1.77399	-1.0415	-0.149141	-0.00561227	0.01032	-0.955566	0.583008	0.0678711	
56	0.738583	0.0469021	-0.0558833	-0.670203	0.171534	1.78257	10.9065	-0.0229337	0.0147162	0.0210083	0.0334473	0.223877	-0.950684	0.525156	-0.454713	-0.399499	-0.598203	9.53588	-0.125228	2.63736	0.0209178	-0.0547117	-0.0132427	-0.754395	0.299072	-0.168213	0.796809	0.0948537	0.0562848	-0.594079	-2.49876	0.971096	10.6616	0.00736383	-0.0134657	0.0277414	0.290283	0.211182	-0.887207	0.0691224	0.212849	0.522994	-0.822432	-4.05789	-8.17158	3.74101	0.0199049	-0.010529	0.00675757	0.0566406	0.928711	-0.443359	0.625939	-0.0875357	0.16028	-0.758187	-0.536489	-3.45081	9.05914	-0.00940525	-0.000707705	-0.00674	-0.00317383	0.663574	-0.695801	0.87051	0.333713	0.339859	0.12387	-5.53223	7.56076	6.39275	-0.0152289	0.030151	-0.0255437	0.818115	-0.55127	-0.0852051	0.359984	-0.582014	-0.535127	-0.495288	9.25837	1.18656	-2.28236	0.0575209	-0.04331	-0.0127958	-0.898193	0.276855	0.29248	0.421444	-0.51776	-0.484322	-0.565456	9.76093	1.16716	-0.0863303	-0.115504	0.00422293	-0.00303486	-1.02075	0.293457	0.0759277	0.42109	-0.502038	-0.506831	-0.560146	9.78182	1.53498	-0.203801	-0.167048	-0.0244384	-0.0127394	-1.05396	0.227783	0.0686035	0.494731	-0.549225	-0.485867	-0.466396	9.94394	-0.882163	-0.789585	-0.0359132	-0.00788702	-0.00258709	-0.920654	0.475586	0.0817871	0.525903	-0.543704	-0.508727	-0.411106	9.61594	-1.58126	-1.06698	0.0370841	-0.0226551	0.00138426	-0.953369	0.587402	0.0632324	
57	0.739286	0.0474827	-0.0553229	-0.669434	0.109086	1.48397	10.8763	0.0196065	0.0367166	0.0366407	0.0378418	0.226074	-0.952881	0.525174	-0.455082	-0.399944	-0.59761	9.73025	0.0654305	2.71395	-0.00536206	0.00355858	-0.00783651	-0.750244	0.305664	-0.161621	0.796892	0.0930953	0.0559478	-0.594278	-1.96589	0.765141	10.5555	-0.0527815	-0.0684973	-0.012856	0.281738	0.209229	-0.89624	0.0691224	0.212849	0.522994	-0.822432	-4.05789	-8.17158	3.74101	0.0199049	-0.010529	0.00675757	0.0566406	0.928711	-0.443359	0.625855	-0.0879182	0.159932	-0.758286	-0.546107	-3.38459	9.06917	0.00156845	-0.0313368	-0.0320928	-0.00756836	0.663574	-0.695801	0.870664	0.333411	0.340017	0.123169	-5.45824	7.66565	6.56828	0.00693936	0.0120187	-0.0649571	0.820312	-0.55127	-0.0874023	0.359945	-0.582169	-0.535057	-0.49521	9.18317	1.04016	-2.21635	-0.0053814	0.00079195	-0.0150817	-0.902588	0.276855	0.294678	0.420774	-0.518403	-0.48365	-0.565942	9.85308	0.924021	-0.262059	-0.0932849	0.00497286	-0.0101653	-1.0188	0.297852	0.0712891	0.419999	-0.503166	-0.505653	-0.561017	9.83202	1.28457	-0.291971	-0.163571	-0.0141612	-0.00525058	-1.04932	0.228027	0.064209	0.494508	-0.54957	-0.485584	-0.466522	9.67076	-0.901543	-0.809379	-0.0361795	0.00692421	0.0155497	-0.920898	0.477783	0.0817871	0.524692	-0.545112	-0.508071	-0.4116	9.63998	-1.84913	-1.04024	-0.0637566	-0.0141043	0.00838078	-0.955566	0.587402	0.067627	
58	0.73956	0.0481736	-0.0547884	-0.669125	0.0795944	1.451	10.9874	-0.00188391	0.0254706	0.00747157	0.0400391	0.223877	-0.948486	0.524639	-0.455926	-0.399821	-0.597519	9.52946	-0.0496185	2.642	-0.0329094	-0.0239267	-0.00759263	-0.752197	0.299072	-0.161377	0.797	0.0940508	0.0553852	-0.594035	-2.32536	1.05049	10.6342	0.0629915	0.0232755	0.008471	0.29248	0.208984	-0.884766	0.069435	0.213097	0.521904	-0.823034	-4.2387	-8.04948	3.73273	0.0407333	-0.000336637	-0.00711745	0.0544434	0.928711	-0.445557	0.625681	-0.0886175	0.160273	-0.758276	-0.655995	-3.51345	9.11706	-0.031771	0.018925	-0.0110137	-0.00732422	0.661377	-0.695801	0.870968	0.332907	0.339898	0.122706	-5.53304	7.5578	6.45002	0.00494664	-0.000457008	-0.0316262	0.824707	-0.549072	-0.0852051	0.359324	-0.582717	-0.535378	-0.494668	9.27858	0.968554	-2.36984	0.00607383	-0.0718885	-0.0162935	-0.904541	0.274658	0.301025	0.4205	-0.518833	-0.483898	-0.565539	9.82591	1.16452	0.0569209	-0.00137539	-0.0165483	-0.0133803	-1.02271	0.293457	0.0712891	0.419754	-0.503478	-0.505628	-0.560942	9.7408	1.61231	-0.0227176	-0.0330003	-0.00887358	-0.0160664	-1.05859	0.227783	0.0708008	0.494255	-0.54993	-0.485359	-0.4666	9.7494	-0.758772	-1.03536	-0.00787373	0.00437518	-0.00263516	-0.918701	0.482178	0.081543	0.523931	-0.545919	-0.50784	-0.411785	9.78952	-1.37895	-1.11751	-0.11235	-0.010936	0.00598016	-0.955566	0.587402	0.067627	
59	0.739201	0.0491103	-0.0543241	-0.669491	-0.0593453	1.8318	10.9132	0.000274773	0.03674	-0.0311902	0.046875	0.224121	-0.954834	0.524241	-0.456361	-0.400296	-0.597218	9.63367	-0.0526452	2.52995	-0.00317179	-0.0112611	-0.0327195	-0.754395	0.299072	-0.168213	0.796917	0.0929592	0.0556372	-0.594295	-2.15842	0.753138	10.6176	-0.0602665	-0.00765199	-0.0131254	0.281738	0.21582	-0.894043	0.0693386	0.213081	0.522049	-0.822954	-4.19425	-8.21799	3.51377	0.0266326	0.0104721	-0.00649073	0.0585938	0.930908	-0.443359	0.625468	-0.0887993	0.159554	-0.758583	-0.76889	-3.56458	9.19992	0.0325837	-0.0183499	-0.0363638	-0.0117188	0.65918	-0.695801	0.871137	0.332461	0.339922	0.12265	-5.56021	7.55012	6.42501	-0.0143559	0.0213258	-0.0198777	0.820312	-0.549072	-0.0852051	0.359443	-0.582601	-0.535601	-0.494477	9.22068	1.16229	-2.47682	0.0342152	0.014211	-0.0180998	-0.898193	0.274658	0.294678	0.420476	-0.518999	-0.483847	-0.565449	9.743	1.06837	0.0103121	0.013454	0.00387335	-0.00990786	-1.01636	0.295654	0.0712891	0.418995	-0.504266	-0.505196	-0.561192	9.69974	1.45889	-0.0969275	-0.00642245	-0.017232	-0.0207869	-1.05396	0.232422	0.0664062	0.494277	-0.549986	-0.485525	-0.466338	9.6807	-0.944896	-0.523773	0.017743	-0.00768433	0.00847173	-0.914307	0.47998	0.0817871	0.523965	-0.545901	-0.508214	-0.411304	9.68152	-1.46419	-1.10926	0.0534267	-0.00952474	-0.00486167	-0.951172	0.587402	0.0722656	
60	0.739196	0.0488149	-0.0541195	-0.669535	-0.0275189	1.55451	10.9986	7.23553e-05	-0.0172574	0.00968526	0.0380859	0.224121	-0.954834	0.524259	-0.456537	-0.401548	-0.596227	9.5961	-0.0170188	2.5427	0.0553859	-0.0423274	-0.0159873	-0.75415	0.294678	-0.161133	0.796617	0.0925813	0.0555649	-0.594763	-1.97069	0.890599	10.4463	-0.00533482	-0.0259062	-0.0300123	0.279541	0.211426	-0.889404	0.0692748	0.213322	0.521919	-0.822979	-3.94632	-8.11852	3.59981	-0.0188886	0.0108115	0.022658	0.0610352	0.928711	-0.445557	0.625536	-0.0888331	0.15943	-0.758548	-0.451679	-3.45393	8.86675	-0.00674223	-0.00693335	-0.012426	-0.013916	0.663574	-0.700439	0.87131	0.332053	0.339936	0.122482	-5.44398	7.58277	6.41928	-0.0175188	0.011852	-0.0453083	0.826904	-0.55127	-0.0852051	0.359233	-0.582965	-0.535976	-0.493795	9.41548	0.997728	-2.45498	0.027727	-0.000520094	-0.0107251	-0.900635	0.283203	0.298828	0.419955	-0.519504	-0.483498	-0.565671	9.91467	1.17466	-0.187576	-0.0632858	0.0167915	-0.0153137	-1.0249	0.293457	0.0759277	0.417683	-0.50551	-0.504213	-0.561934	9.85804	1.36875	-0.261901	-0.103193	-0.0165668	-0.0152536	-1.05151	0.225586	0.0754395	0.494214	-0.550138	-0.485441	-0.466313	9.67009	-0.701122	-0.540727	-0.00710815	0.0166228	0.00410599	-0.920898	0.47998	0.0861816	0.523259	-0.546692	-0.507704	-0.411781	9.72077	-1.51822	-1.10277	-0.0670072	0.000907861	0.00287259	-0.957764	0.583008	0.0722656	
61	0.739479	0.0483632	-0.0551831	-0.669168	-0.105109	1.72338	11.0268	0.0171583	-0.0739734	0.0184446	0.0378418	0.226074	-0.952881	0.523173	-0.457958	-0.401867	-0.595875	9.52816	-0.00167376	2.49424	-0.0663784	-0.0517317	-0.0232818	-0.754395	0.299072	-0.163574	0.79682	0.0924376	0.0547309	-0.59459	-2.42541	0.73489	10.6243	0.0272755	-0.00761789	0.0190226	0.277588	0.209229	-0.889404	0.0696027	0.213447	0.520813	-0.82362	-4.05949	-7.99337	3.61074	0.0569858	-0.00805193	0.0106815	0.0634766	0.924316	-0.443359	0.625667	-0.0898433	0.159037	-0.758404	-0.631808	-3.45067	9.0462	-0.0199723	-0.0199658	-0.00384559	-0.00756836	0.663574	-0.700439	0.871755	0.330981	0.339977	0.122109	-5.46025	7.32505	6.39062	-0.0124891	0.00620968	-0.039081	0.82666	-0.546875	-0.0895996	0.358797	-0.583416	-0.535932	-0.493627	9.20493	1.03908	-2.37349	-0.0200236	-0.0297839	-0.0136538	-0.89624	0.279053	0.303223	0.419867	-0.51979	-0.483739	-0.565267	9.70211	0.912896	-0.126204	0.0709377	-0.0206069	-0.010971	-1.0144	0.297852	0.0827637	0.418505	-0.504815	-0.504946	-0.561288	9.73282	1.38684	-0.367647	0.160318	0.0156092	-0.0240969	-1.04688	0.225586	0.0664062	0.493041	-0.551311	-0.484674	-0.466966	9.69071	-0.99098	-0.814475	-0.0582528	0.00742763	0.0103571	-0.91626	0.473389	0.0842285	0.523033	-0.546942	-0.507718	-0.41172	9.63987	-1.54169	-1.05298	0.00953118	-0.00752602	-0.00103347	-0.957764	0.583008	0.0791016	
62	0.739743	0.046558	-0.0559098	-0.668944	0.139166	1.31118	10.8637	-0.0341057	-0.0642613	0.0190798	0.0356445	0.223877	-0.950684	0.522986	-0.458363	-0.403227	-0.594809	9.71585	-0.151857	2.64749	0.0281005	-0.0374741	-0.0273656	-0.758789	0.30127	-0.151855	0.797115	0.0912856	0.0538012	-0.594458	-1.9976	0.869967	10.5398	-0.0153042	-0.0541025	0.0113614	0.283936	0.213379	-0.88501	0.070208	0.212892	0.520406	-0.823969	-4.1234	-8.14249	3.5013	0.0362916	-0.0398116	0.0135344	0.0544434	0.928711	-0.441162	0.62524	-0.0905647	0.158151	-0.758855	-0.658744	-3.496	9.09314	0.0312408	-0.0488817	-0.0650332	-0.0161133	0.663574	-0.698242	0.872319	0.330203	0.339466	0.121608	-5.4862	7.58426	6.37856	-0.0588876	-0.0212916	-0.0418648	0.824463	-0.546875	-0.0895996	0.358709	-0.583327	-0.535948	-0.493778	9.41994	0.923155	-2.50098	0.0247101	0.0491283	-0.0272413	-0.904785	0.28125	0.298828	0.420277	-0.519649	-0.484541	-0.564405	9.8232	1.16177	-0.0370621	0.0420705	0.0030594	-0.013977	-1.02051	0.289062	0.0808105	0.419419	-0.503986	-0.505898	-0.560494	9.75486	1.57054	0.0518926	0.019206	0.00362913	-0.0201332	-1.05127	0.223389	0.0688477	0.492821	-0.551453	-0.484951	-0.466745	9.71415	-1.02705	-0.61065	0.021458	-0.00957916	-0.00115816	-0.91626	0.475586	0.0864258	0.522898	-0.547088	-0.507679	-0.411745	9.76124	-1.39753	-1.1834	-0.0107241	-0.000772713	-0.00170822	-0.953125	0.583008	0.0700684	
63	0.739928	0.0460505	-0.0573188	-0.668656	0.228995	1.5991	10.9449	0.0278759	-0.0647993	0.0213716	0.03125	0.226074	-0.957275	0.522544	-0.459042	-0.403806	-0.59428	9.5461	-0.0431675	2.5147	0.00747535	-0.0432811	-0.011723	-0.756592	0.30127	-0.156738	0.797766	0.0892945	0.0539538	-0.593872	-2.11248	0.734716	10.4573	-0.0564853	-0.0532247	0.0215896	0.277344	0.213623	-0.891846	0.0711002	0.212078	0.519682	-0.824559	-4.04719	-8.09911	3.80417	-0.00257421	-0.0450661	0.0273831	0.0546875	0.922119	-0.445557	0.62518	-0.0912601	0.157288	-0.759001	-0.525676	-3.64663	9.10243	0.0159236	-0.0246833	-0.0141337	-0.0180664	0.656982	-0.693604	0.873014	0.329274	0.338603	0.121547	-5.60697	7.48544	6.50822	-0.010357	-0.0197886	-0.0240822	0.824463	-0.546875	-0.0917969	0.358871	-0.583121	-0.537066	-0.492687	9.44089	1.20269	-2.44542	0.0738145	-0.011987	-0.0203666	-0.900391	0.279053	0.296631	0.420007	-0.519814	-0.484349	-0.564618	9.73792	1.05845	-0.139017	-0.0259565	0.0121345	-0.0171972	-1.02075	0.295654	0.078125	0.419156	-0.504156	-0.505737	-0.560682	9.7963	1.36818	-0.296475	-0.00227254	0.00499013	-0.0230292	-1.05151	0.230225	0.0686035	0.4933	-0.550904	-0.48559	-0.466221	9.92279	-0.81476	-0.771619	0.0685781	0.0219733	-0.00507121	-0.916504	0.47998	0.0861816	0.52346	-0.546391	-0.508433	-0.411026	9.81778	-1.41565	-1.07183	0.0610786	-0.00731087	-0.0054305	-0.953125	0.583008	0.0722656	
64	0.740498	0.0459933	-0.058086	-0.667962	0.0806258	1.54622	10.953	0.0183532	-0.0260418	0.0418932	0.0358887	0.221924	-0.954834	0.522312	-0.459172	-0.404912	-0.593631	9.65779	0.0246188	2.46486	0.0172284	-0.0181015	-0.0372955	-0.760742	0.299072	-0.149414	0.798079	0.0890661	0.0529568	-0.593576	-1.85956	0.63984	10.6263	0.0307415	-0.0678419	0.0381172	0.273193	0.211426	-0.889404	0.0719197	0.211908	0.518215	-0.825455	-4.25861	-8.03756	3.79417	0.0676799	-0.0249494	0.0285772	0.0563965	0.930908	-0.454346	0.624967	-0.0918129	0.155958	-0.759384	-0.53878	-3.53526	9.1583	0.0274746	-0.0435298	-0.0311378	-0.0161133	0.663574	-0.700439	0.873849	0.327728	0.337853	0.121811	-5.69988	7.45489	6.50005	-0.0694911	-0.00730138	-0.0167355	0.82666	-0.544678	-0.0961914	0.358596	-0.583124	-0.537147	-0.492797	9.22679	1.0831	-2.42159	0.0161434	-0.00891923	-0.0281094	-0.900391	0.276855	0.294678	0.420586	-0.519464	-0.485493	-0.563526	9.79912	1.17396	-0.0258418	0.0661357	-0.00799135	-0.0204552	-1.02075	0.295654	0.0734863	0.420111	-0.503209	-0.506852	-0.559811	9.71978	1.56734	-0.0692746	0.0712917	0.00921468	-0.0250215	-1.05371	0.225586	0.0664062	0.49349	-0.550849	-0.485736	-0.465933	9.6498	-0.817862	-0.770953	-0.0144047	-0.00376486	0.00741648	-0.920898	0.47998	0.0908203	0.523672	-0.546148	-0.508777	-0.410653	9.65349	-1.59243	-1.16193	0.0485948	-0.00756659	-0.00634462	-0.955566	0.585205	0.0722656	
65	0.740691	0.0457196	-0.0588304	-0.667702	0.202728	1.55888	10.9447	0.0241199	-0.0617496	0.0289251	0.03125	0.226074	-0.959229	0.522051	-0.459359	-0.405245	-0.593489	9.63058	0.00629233	2.5013	-0.00162355	-0.0223843	-0.0299847	-0.756348	0.299072	-0.156494	0.798486	0.0891845	0.0520317	-0.593093	-2.14527	1.04947	10.6436	-0.0206037	-0.0289974	0.0171021	0.279541	0.213623	-0.894043	0.072325	0.21186	0.518147	-0.825475	-4.10078	-8.11987	3.95625	-0.000815534	-0.0149356	0.0274148	0.0612793	0.922119	-0.445557	0.625391	-0.0919	0.155573	-0.759103	-0.572737	-3.57499	9.14632	0.0174352	-0.0243767	0.0214804	-0.0183105	0.663574	-0.698242	0.874042	0.327296	0.337666	0.1221	-5.63449	7.52375	6.64547	-0.0380462	0.00851883	-0.0049826	0.824463	-0.546875	-0.0917969	0.358359	-0.583263	-0.537335	-0.492599	9.30419	0.961167	-2.42295	0.0145374	-0.0199623	-0.0220321	-0.900146	0.272461	0.296875	0.420599	-0.519462	-0.485617	-0.563411	9.82366	1.20315	-0.0289669	0.0143836	0.00804795	-0.0170344	-1.02075	0.297852	0.0805664	0.420147	-0.503175	-0.506911	-0.559761	9.79723	1.41854	-0.160496	0.0123729	0.00422609	-0.0202746	-1.05396	0.230225	0.0664062	0.493215	-0.550991	-0.485829	-0.465958	9.7584	-0.772912	-1.11483	-0.0111442	-0.00655429	-0.00718923	-0.916504	0.47998	0.0861816	0.524161	-0.545661	-0.508959	-0.410451	9.80382	-1.45054	-1.22155	0.0206424	0.0270593	-0.0021474	-0.955811	0.5896	0.0744629	
66	0.740905	0.0452559	-0.0597705	-0.667412	0.255874	1.59115	10.8656	0.00258995	-0.0329422	0.0227657	0.0334473	0.226074	-0.955078	0.521893	-0.459454	-0.405696	-0.593246	9.70431	-0.0703587	2.54365	0.0126056	-0.0236859	-0.0288748	-0.756592	0.30127	-0.156738	0.798948	0.0886337	0.051249	-0.59262	-1.91213	0.589428	10.7252	0.0480532	0.00215772	0.031855	0.277344	0.218018	-0.891846	0.073382	0.212382	0.517592	-0.825596	-4.28663	-8.06098	3.79655	0.027665	-0.00611181	0.0503396	0.0610352	0.926514	-0.452148	0.625981	-0.0920967	0.154627	-0.758786	-0.541002	-3.38516	9.20683	0.0104763	-0.0268413	-0.000468098	-0.0161133	0.661377	-0.698242	0.874296	0.326399	0.337765	0.122411	-5.5877	7.50873	6.53344	-0.0342714	0.0252508	-0.0215138	0.824463	-0.549072	-0.0981445	0.358299	-0.583224	-0.538066	-0.491891	9.18977	1.21043	-2.33141	0.0323543	-0.0382699	-0.0203185	-0.893799	0.276855	0.303223	0.420705	-0.519499	-0.485838	-0.563106	9.76075	1.20347	-0.0222924	0.00106822	0.00583819	-0.0153091	-1.01636	0.295654	0.0805664	0.42025	-0.502996	-0.507122	-0.559654	9.737	1.55776	-0.149613	-0.0117289	0.0075353	-0.0231262	-1.05396	0.230225	0.064209	0.493416	-0.550832	-0.486391	-0.465348	9.86545	-1.06524	-0.7387	0.040532	0.00895283	-0.00061515	-0.918701	0.477783	0.0839844	0.524707	-0.545072	-0.509544	-0.409809	9.79091	-1.34696	-0.96937	0.0610781	0.00310611	-0.00970475	-0.955566	0.583008	0.0700684	
67	0.74122	0.0457977	-0.0607874	-0.666934	0.285907	1.67456	10.8907	0.051797	-0.0151579	0.0205394	0.03125	0.226074	-0.955078	0.521685	-0.458757	-0.40729	-0.592875	9.7559	0.112462	2.57047	0.00887059	-0.0109338	-0.0352069	-0.764893	0.294678	-0.154053	0.799303	0.0898328	0.0504303	-0.592032	-2.08742	1.059	10.5591	0.0194487	-0.0167946	0.0323632	0.277588	0.211426	-0.891602	0.0743664	0.212646	0.517905	-0.825243	-4.1795	-8.05236	3.67734	-0.0282644	-0.000614461	0.0381304	0.0634766	0.924316	-0.447754	0.626705	-0.0924359	0.154541	-0.758165	-0.476589	-3.52584	9.0524	0.00859654	-0.0155227	0.0255462	-0.0161133	0.65918	-0.698242	0.874461	0.325733	0.337763	0.123011	-5.49817	7.40818	6.56253	-0.0188721	0.0246834	-0.00588091	0.82666	-0.544678	-0.0981445	0.357252	-0.584012	-0.537903	-0.491896	9.34327	1.08684	-2.60446	-0.0238581	0.000672017	-0.0180742	-0.898193	0.279053	0.30957	0.420432	-0.519974	-0.48605	-0.562689	9.85254	1.05506	-0.152251	0.0311368	-0.0156136	-0.00800621	-1.01636	0.295654	0.0805664	0.420869	-0.502355	-0.507754	-0.55919	9.74136	1.64034	0.0157062	0.0718307	0.0115636	-0.0264115	-1.05151	0.225586	0.064209	0.493615	-0.55076	-0.486132	-0.465493	9.68566	-0.777867	-0.493577	-0.0292737	0.0182774	0.0178693	-0.91626	0.477783	0.0864258	0.524402	-0.545363	-0.509571	-0.40978	9.67974	-1.6008	-1.12524	0.0295868	-0.00809012	-0.00661134	-0.946533	0.585205	0.0769043	
68	0.74146	0.0460619	-0.0615848	-0.666576	0.252569	1.6742	10.8505	0.0270976	-0.0194486	0.0124891	0.0380859	0.221924	-0.957031	0.521532	-0.458417	-0.407769	-0.592945	9.50645	-0.0313187	2.36396	0.0144609	-8.60246e-05	-0.0392667	-0.758545	0.294678	-0.154053	0.799918	0.0896044	0.05036	-0.591241	-2.00116	0.777276	10.6154	0.0259195	0.0295337	0.0356346	0.279541	0.211426	-0.891602	0.0753492	0.2125	0.517476	-0.825461	-4.19547	-8.00625	3.83928	0.00601411	-0.0226417	0.0342448	0.0632324	0.926514	-0.447754	0.627256	-0.0920074	0.153207	-0.758032	-0.583953	-3.35116	9.1871	0.0508379	0.00220876	0.00358676	-0.0183105	0.65918	-0.700439	0.874758	0.325144	0.337348	0.123598	-5.51217	7.50704	6.6547	-0.0184265	0.00326358	0.00402815	0.82666	-0.544678	-0.0961914	0.356504	-0.584644	-0.538089	-0.491484	9.28297	0.919251	-2.60207	0.0202384	-0.0352393	-0.0174763	-0.898193	0.276855	0.30542	0.420089	-0.520087	-0.485887	-0.562981	9.79881	1.098	0.0877115	-0.0308291	0.0300382	-0.02795	-1.01416	0.295654	0.078125	0.420181	-0.502969	-0.507413	-0.559466	9.77426	1.26606	-0.229458	-0.0204896	-0.0154228	-0.0216737	-1.05396	0.230225	0.0708008	0.493161	-0.551139	-0.486222	-0.465431	9.71227	-1.05799	-0.58712	0.0199418	0.00503172	-0.00581108	-0.91626	0.477783	0.088623	0.523876	-0.545734	-0.509642	-0.40987	9.70177	-1.60528	-1.20639	-0.0111643	-0.00590147	-0.0090243	-0.953125	0.583008	0.0700684	
69	0.741775	0.0463417	-0.0621445	-0.666153	0.25197	1.83609	10.9469	0.0164482	-0.00943015	0.0293648	0.0314941	0.22168	-0.955078	0.521725	-0.457954	-0.409002	-0.592283	9.79656	0.0363278	2.48873	0.0469091	-0.0073161	-0.0302181	-0.760498	0.29248	-0.15625	0.80042	0.0899859	0.0493856	-0.590585	-1.95457	0.990025	10.6293	0.031393	-0.0347349	0.03183	0.279785	0.207031	-0.89624	0.0764525	0.212943	0.517683	-0.825115	-4.34007	-8.00111	3.56384	-0.0100104	0.00352389	0.0462226	0.0656738	0.926758	-0.454346	0.627684	-0.0918582	0.152906	-0.757756	-0.388707	-3.40534	9.05272	0.00713598	-0.0146287	-0.00321157	-0.013916	0.661377	-0.702637	0.87497	0.324543	0.337166	0.12417	-5.48939	7.35098	6.5381	-0.0288787	0.0212529	-0.0126426	0.828857	-0.549072	-0.0981445	0.357023	-0.584265	-0.538309	-0.491317	9.32486	1.07585	-2.41545	0.0169528	0.0233808	-0.0187943	-0.900391	0.279053	0.305176	0.420015	-0.520196	-0.486241	-0.56263	9.84853	1.01319	-0.264118	0.0226654	-0.00536753	-0.0132914	-1.01831	0.289062	0.0830078	0.419935	-0.50303	-0.507575	-0.559448	9.78696	1.48365	-0.192469	-0.0195689	-0.0014065	-0.0270653	-1.05615	0.227783	0.0708008	0.492846	-0.551279	-0.486183	-0.465641	9.80908	-0.73087	-1.04647	-0.0097223	0.0103154	-0.000873065	-0.91626	0.477783	0.0908203	0.523627	-0.545785	-0.509878	-0.409826	9.73856	-1.53744	-0.988548	-0.000564446	-0.00858661	-0.00927582	-0.953369	0.585205	0.0722656	
70	0.742406	0.0460524	-0.0627457	-0.665413	0.214626	1.58021	10.9179	0.00635681	-0.0309043	0.0410336	0.0292969	0.219482	-0.952881	0.522154	-0.457462	-0.409541	-0.591912	9.54676	0.0150542	2.40456	0.0416853	0.00849719	-0.00576601	-0.762695	0.294678	-0.156494	0.800832	0.0900582	0.0490237	-0.590045	-2.20396	1.01531	10.8438	0.00637157	0.00734067	0.021908	0.279785	0.204834	-0.895996	0.076662	0.21244	0.517097	-0.825593	-4.39102	-8.24265	3.86294	0.0340938	-0.0210844	-0.012076	0.0612793	0.924316	-0.449951	0.628223	-0.0922223	0.152664	-0.757314	-0.569754	-3.45768	9.11477	0.00878175	0.00171373	0.0174443	-0.0161133	0.65918	-0.700439	0.875118	0.324201	0.336889	0.124774	-5.45194	7.6085	6.67657	-0.0100214	0.0128293	0.00364599	0.828857	-0.549072	-0.0959473	0.356126	-0.584797	-0.538627	-0.490988	9.26761	0.933001	-2.64543	0.0164111	-0.0413254	-0.0234473	-0.898193	0.276855	0.303223	0.419525	-0.520378	-0.486298	-0.562779	9.76752	1.18546	-0.024249	-0.00431485	0.00169122	-0.0319738	-1.02295	0.297852	0.0805664	0.419758	-0.502997	-0.507839	-0.559372	9.74348	1.51047	-0.128195	0.0167675	-0.00265381	-0.0296873	-1.05151	0.225586	0.0710449	0.492882	-0.551197	-0.4864	-0.465472	9.70074	-1.13408	-0.593666	-0.0209364	-0.0156532	-0.00776428	-0.920898	0.477783	0.088623	0.523924	-0.545282	-0.510703	-0.40909	9.76837	-1.22536	-1.24417	0.0514252	-0.00648418	-0.0126944	-0.958008	0.5896	0.0722656	
71	0.742586	0.0460174	-0.0632227	-0.66517	0.312696	1.76019	10.9368	0.0243494	-0.0330768	0.0253835	0.0317383	0.215332	-0.957031	0.522463	-0.4573	-0.410361	-0.591196	9.64072	-0.0246723	2.40882	0.0737514	-0.0288759	-0.00864019	-0.765137	0.296875	-0.158691	0.801032	0.0895695	0.0494648	-0.589812	-1.78046	1.06885	10.6199	-0.0529997	0.011388	0.0169723	0.270996	0.213867	-0.894043	0.0775644	0.212164	0.517588	-0.825271	-4.2093	-7.92827	3.69147	-0.0439421	-0.0211118	0.0361724	0.0610352	0.926514	-0.449951	0.628507	-0.0919624	0.152186	-0.757206	-0.472014	-3.38109	9.04862	0.0416656	-0.00502161	0.00792414	-0.013916	0.65918	-0.702637	0.875162	0.323859	0.337105	0.124769	-5.43556	7.62103	6.78328	-0.0160621	0.03167	-0.0322139	0.82666	-0.549072	-0.09375	0.35664	-0.584127	-0.538821	-0.491198	9.25849	1.0277	-2.49922	0.043964	0.0315125	-0.0301242	-0.891602	0.274658	0.307617	0.419368	-0.519994	-0.486432	-0.563134	9.82143	0.89376	-0.171015	0.00143107	0.0191138	-0.0279709	-1.01831	0.29126	0.0830078	0.419646	-0.502934	-0.507994	-0.559372	9.83066	1.43766	-0.227394	0.0105083	-0.00119637	-0.0337587	-1.05347	0.21875	0.064209	0.492327	-0.551417	-0.486492	-0.465704	9.79061	-0.968058	-1.08001	-0.035714	-0.0114222	-0.0224367	-0.920898	0.47998	0.088623	0.523665	-0.545434	-0.510558	-0.409399	9.76538	-1.6378	-1.2138	-0.0323629	0.0105476	-0.0132947	-0.959961	0.585205	0.0791016	
72	0.742675	0.0459876	-0.0634481	-0.665052	0.261503	2.00471	10.8834	0.00101014	-0.0149293	-0.00196522	0.0292969	0.22168	-0.952881	0.522289	-0.457806	-0.410931	-0.590562	9.60123	0.0486666	2.37851	0.0584144	-0.0285406	-0.00771007	-0.764893	0.294678	-0.151611	0.801154	0.0891729	0.0499481	-0.589665	-1.65915	0.7694	10.4367	-0.0474903	0.01894	0.00909711	0.279541	0.211426	-0.891602	0.077933	0.211502	0.517812	-0.825266	-4.32936	-7.88384	3.6408	-0.0260924	-0.0298346	-0.0190012	0.0610352	0.926514	-0.449951	0.628574	-0.0934206	0.153519	-0.756703	-0.636945	-3.60519	9.11794	-0.0744734	0.0139194	-0.0278066	-0.0183105	0.661377	-0.693604	0.875224	0.323151	0.3377	0.124559	-5.45737	7.39584	6.51971	-0.0127344	0.0106466	-0.013546	0.824707	-0.55127	-0.09375	0.355838	-0.584653	-0.538994	-0.490964	9.32734	1.19418	-2.44727	-0.00954831	-0.0433298	-0.0169724	-0.898193	0.276855	0.30542	0.420327	-0.519217	-0.488044	-0.56174	9.71019	0.954631	-0.152549	0.145375	-0.0141565	-0.0133187	-1.02051	0.29126	0.0830078	0.421512	-0.50064	-0.510452	-0.557787	9.88658	0.995157	-0.72342	0.359328	0.0358946	-0.0426797	-1.05371	0.223389	0.0598145	0.492389	-0.550964	-0.487084	-0.465554	9.83265	-0.758089	-0.947912	0.00302451	0.0301672	-0.00718444	-0.916504	0.47998	0.0839844	0.523751	-0.545166	-0.510819	-0.409321	9.65625	-1.65894	-1.03422	0.0304031	0.00479714	-0.0203518	-0.951172	0.585205	0.0700684	
73	0.742979	0.0447441	-0.0627014	-0.664868	0.362194	1.42648	10.8681	-0.045619	-0.00841033	0.00897153	0.0270996	0.22168	-0.952881	0.522337	-0.457839	-0.411186	-0.590317	9.78919	0.108819	2.54524	0.0147722	-0.00577618	-0.0133749	-0.760498	0.28833	-0.153809	0.801511	0.0901348	0.0497617	-0.58905	-1.81555	1.20352	10.6537	-0.0442652	0.00429102	0.00496901	0.277588	0.209229	-0.893799	0.0778864	0.210974	0.517659	-0.825502	-4.1454	-8.23854	3.65348	0.0184225	-0.0319926	-0.0222317	0.0678711	0.924561	-0.449951	0.628528	-0.0933695	0.15304	-0.756844	-0.344956	-3.41758	9.00748	0.0321914	-0.0118314	-0.0267338	-0.0161133	0.661377	-0.700439	0.875277	0.323116	0.337607	0.124529	-5.3801	7.47295	6.78942	0.00334155	0.00526657	-0.0187216	0.828857	-0.549072	-0.0917969	0.355838	-0.584653	-0.538994	-0.490964	9.32734	1.19418	-2.44727	-0.00954831	-0.0433298	-0.0169724	-0.898193	0.276855	0.30542	0.42121	-0.518448	-0.48991	-0.560162	9.81195	1.23565	-0.360738	0.213177	-0.0421803	-0.0308973	-1.01855	0.295654	0.0805664	0.424168	-0.497976	-0.513395	-0.555452	9.66133	1.80388	0.103441	0.426626	0.0392179	-0.0491476	-1.04907	0.223389	0.0598145	0.492455	-0.550986	-0.486945	-0.465604	9.61541	-0.870857	-0.708073	-0.00313597	0.0209613	0.00988696	-0.920898	0.47998	0.0839844	0.523368	-0.544935	-0.511158	-0.409693	9.73901	-1.44497	-1.32895	0.0374011	0.00206328	-0.0230665	-0.955566	0.583008	0.0722656	
74	0.74287	0.0449582	-0.0622024	-0.665022	0.140239	1.62631	10.8818	-0.00235844	0.0185182	-0.0116973	0.0290527	0.223877	-0.952881	0.522313	-0.458128	-0.410622	-0.590506	9.56597	0.0152948	2.35846	-0.0304734	-0.00142097	-0.00597385	-0.760742	0.294678	-0.161133	0.801822	0.0877921	0.0510208	-0.588872	-2.18476	0.843889	10.7143	-0.0875257	-0.00794679	0.00264912	0.279541	0.213623	-0.891846	0.0775845	0.210239	0.517312	-0.825935	-4.48052	-8.0251	3.69726	-0.00949819	-0.0175639	-0.0308087	0.0588379	0.926514	-0.449951	0.628019	-0.0938068	0.152633	-0.757295	-0.495771	-3.29757	9.22581	0.00157554	-0.0149126	-0.0381088	-0.0161133	0.663574	-0.700439	0.875377	0.323211	0.33758	0.123649	-5.5683	7.50506	6.51729	0.0316908	-0.0117803	-0.0434716	0.828857	-0.546875	-0.0981445	0.354687	-0.58498	-0.538664	-0.491769	9.36157	1.01149	-2.50459	-0.0123664	0.018353	-0.0177627	-0.895752	0.272461	0.30957	0.421699	-0.517951	-0.490668	-0.55959	9.72895	1.17979	-0.0110991	0.0244022	0.0185151	-0.0136903	-1.01636	0.295654	0.0734863	0.425916	-0.495982	-0.515478	-0.553967	9.71436	1.61704	-0.0313422	0.116079	0.0162762	-0.0397776	-1.05127	0.223389	0.0664062	0.491594	-0.551414	-0.486917	-0.466036	9.65992	-0.889393	-0.825715	-0.043065	-0.00993438	-0.0106569	-0.920898	0.47998	0.0908203	0.523167	-0.544893	-0.511006	-0.410196	9.58887	-1.59767	-1.05202	-0.0547149	0.0162448	-0.0165804	-0.955566	0.583008	0.0700684	
75	0.742388	0.044723	-0.0617599	-0.665616	0.179905	1.66702	10.9883	-0.0192186	-0.00343903	-0.0324686	0.03125	0.223877	-0.952881	0.521919	-0.458634	-0.410505	-0.590543	9.68188	0.0484464	2.39574	-0.0140209	0.0111399	-0.0138327	-0.762695	0.294678	-0.151611	0.801397	0.0886709	0.0511964	-0.589304	-2.09698	0.983456	10.3897	0.0296828	0.0314627	-0.033388	0.277344	0.213623	-0.889404	0.076799	0.209806	0.516881	-0.826388	-4.10554	-7.9981	3.81373	0.0332011	0.0235072	-0.0213686	0.0612793	0.924316	-0.452148	0.627463	-0.0944003	0.153529	-0.757501	-0.402996	-3.55854	8.9621	-0.0261423	0.0173785	-0.0241326	-0.0183105	0.661377	-0.700439	0.875639	0.3228	0.337352	0.123495	-5.50008	7.43658	6.73667	-0.0233604	0.0133418	-0.0304381	0.830566	-0.540527	-0.0983887	0.354214	-0.585351	-0.538741	-0.491584	9.42521	1.20937	-2.77679	0.00551189	0.0147758	-0.0135523	-0.893799	0.276855	0.30542	0.421458	-0.518028	-0.490675	-0.559696	9.69859	0.866513	-0.291097	-0.000746525	0.0192906	-0.0236447	-1.01831	0.29126	0.0805664	0.425924	-0.495567	-0.515817	-0.554017	9.7405	1.29984	-0.465001	0.0514617	0.010808	-0.0335901	-1.05347	0.221191	0.0576172	0.491858	-0.550897	-0.487402	-0.465863	9.822	-0.954556	-0.572051	0.0554179	0.00779224	-0.0135285	-0.91626	0.475586	0.0817871	0.52363	-0.544138	-0.511527	-0.409958	9.81191	-1.42216	-1.1438	0.0454458	0.0131532	-0.0156136	-0.955566	0.583008	0.0654297	
76	0.742129	0.0445138	-0.0622463	-0.665874	0.226537	1.77381	10.931	0.0107523	-0.0300942	-0.0123601	0.0268555	0.223877	-0.948486	0.521468	-0.459148	-0.410317	-0.590673	9.58816	0.149399	2.39384	-0.0500226	-0.0141284	-0.0219246	-0.762939	0.296875	-0.154053	0.80088	0.0878668	0.0511131	-0.590135	-2.0249	0.878962	10.6518	-0.0253014	-0.000436151	-0.0486421	0.275391	0.213623	-0.894043	0.0758894	0.210323	0.51635	-0.826673	-4.22348	-8.09721	3.64076	0.0476384	0.0358472	-0.0188757	0.0588379	0.926514	-0.452148	0.627172	-0.0943809	0.152821	-0.757887	-0.459709	-3.26922	9.21468	-0.00741774	0.00149447	-0.0342459	-0.0117188	0.661377	-0.695801	0.875606	0.322816	0.337734	0.122636	-5.54955	7.44107	6.57275	0.0175913	0.0102297	-0.0426539	0.824463	-0.546875	-0.0939941	0.353414	-0.585795	-0.538389	-0.492017	9.12697	1.1538	-2.45357	-0.0272975	-0.0464812	-0.0206804	-0.900146	0.272461	0.30957	0.422572	-0.516976	-0.493076	-0.557714	9.81971	1.39008	-0.197241	0.154578	-0.0215481	-0.0370309	-1.02271	0.29126	0.0830078	0.429675	-0.491601	-0.520218	-0.550528	9.73996	1.89781	0.105899	0.30378	0.0277603	-0.0465817	-1.05371	0.22583	0.0529785	0.491933	-0.550644	-0.487547	-0.465929	9.63445	-0.586421	-0.846552	0.0318038	0.0330032	-0.00750904	-0.918457	0.475586	0.088623	0.525022	-0.542393	-0.512887	-0.408788	9.73091	-1.2711	-1.13585	0.150202	0.0122381	-0.0249375	-0.959961	0.583008	0.0700684	
77	0.741462	0.0438574	-0.0621976	-0.666665	0.189858	1.54437	10.8679	-0.0232042	-0.0180709	-0.0571296	0.0290527	0.223877	-0.950684	0.520722	-0.459793	-0.409924	-0.591101	9.73672	-0.0275852	2.40992	-0.0431313	0.00807928	-0.0290521	-0.762695	0.294922	-0.149414	0.800301	0.0879372	0.0504058	-0.590969	-2.05571	0.815546	10.6684	0.040765	-0.0290772	-0.0328141	0.273193	0.211426	-0.887207	0.0752693	0.211042	0.515656	-0.826979	-4.25486	-7.96373	3.62834	0.0334158	0.0362621	-0.00277005	0.0610352	0.926514	-0.449951	0.626313	-0.0953865	0.153517	-0.758331	-0.537394	-3.48457	9.19682	-0.0359304	-0.00889581	-0.0746393	-0.0205078	0.663574	-0.691406	0.87596	0.322555	0.337383	0.121761	-5.527	7.41171	6.5515	-0.00709951	-0.0201662	-0.0442872	0.826416	-0.540527	-0.0983887	0.353068	-0.585901	-0.538101	-0.492454	9.21492	1.11914	-2.57894	0.00926723	0.031995	-0.0239402	-0.893555	0.270264	0.311768	0.422199	-0.51717	-0.492596	-0.55824	9.83006	1.25601	0.00127059	-0.0876716	0.0364758	-0.0134208	-1.01611	0.29126	0.0759277	0.428157	-0.492698	-0.518723	-0.552138	9.78119	1.34373	-0.185186	-0.196683	0.00261129	-0.0254113	-1.05591	0.221191	0.0554199	0.491175	-0.550947	-0.487836	-0.466069	9.88141	-0.967194	-0.908947	-0.0482259	-0.0181388	-0.00784335	-0.920654	0.475586	0.088623	0.524819	-0.54233	-0.512847	-0.409183	9.77657	-1.58686	-1.09477	-0.0207839	0.0143251	-0.0145856	-0.953125	0.580811	0.0678711	
78	0.740687	0.0437538	-0.0630034	-0.667457	0.262889	1.61885	10.9614	0.0180813	-0.0324492	-0.0428833	0.0268555	0.223877	-0.950684	0.519882	-0.46032	-0.409802	-0.591515	9.73479	0.208933	2.42275	-0.0550404	0.00450021	-0.0392212	-0.763184	0.303467	-0.151855	0.799847	0.0875087	0.0504848	-0.59164	-1.96999	0.921164	10.4352	-0.04372	-0.0174992	-0.0383968	0.273193	0.213623	-0.898682	0.0745817	0.211306	0.51517	-0.827277	-4.04525	-8.07666	3.80545	0.0157915	0.0293784	-0.00338152	0.0566406	0.926514	-0.449951	0.62572	-0.0949007	0.152746	-0.759037	-0.444684	-3.39535	9.11428	0.0453297	0.00500442	-0.0411158	-0.0227051	0.661377	-0.695801	0.876282	0.322752	0.336548	0.12123	-5.51543	7.55401	6.66267	0.0113307	-0.0246902	-0.0264812	0.830811	-0.544678	-0.100342	0.352554	-0.586263	-0.53804	-0.492457	9.27009	1.2072	-2.59273	-0.0134047	0.0134162	-0.0128569	-0.897949	0.272461	0.313965	0.421437	-0.517671	-0.492253	-0.558654	9.7925	1.05179	-0.287256	-0.0130887	-0.0096249	-0.0271666	-1.01636	0.293457	0.0783691	0.428169	-0.49232	-0.519062	-0.552148	9.75086	1.7979	-0.0788134	0.00957371	0.00809877	-0.0324233	-1.05347	0.221191	0.0576172	0.491146	-0.550857	-0.487614	-0.466438	9.61706	-0.792894	-0.50771	0.0100557	0.0136231	-0.00324137	-0.922852	0.473389	0.0932617	0.524986	-0.541964	-0.513066	-0.409181	9.68945	-1.38365	-1.02429	-0.0153389	0.00724359	-0.0158571	-0.957764	0.583008	0.067627	
79	0.740143	0.04334	-0.063796	-0.668012	0.28216	1.72615	10.8991	-0.00137171	-0.0489104	-0.0321673	0.0227051	0.219482	-0.955078	0.519147	-0.460615	-0.409602	-0.59207	9.59798	-0.0401406	2.37084	-0.0246963	-0.00370323	-0.0379207	-0.762939	0.296875	-0.149414	0.799458	0.0873207	0.049403	-0.592284	-1.92188	0.743179	10.6679	0.052588	-0.013374	-0.0208793	0.273193	0.213623	-0.891846	0.0742873	0.212169	0.514207	-0.827682	-4.2243	-7.91384	3.85605	0.0213019	0.0283847	0.0164741	0.0568848	0.924316	-0.456543	0.624993	-0.0947758	0.152262	-0.759748	-0.48339	-3.42758	9.19664	0.0135946	0.020952	-0.05148	-0.0205078	0.661377	-0.698242	0.876862	0.322425	0.335472	0.12089	-5.57932	7.41522	6.61358	0.00635142	-0.0378659	-0.0182249	0.828613	-0.544678	-0.0961914	0.351749	-0.586862	-0.537469	-0.492943	9.28637	1.02125	-2.5511	-0.0223485	-0.0202338	-0.0146117	-0.899902	0.268066	0.312012	0.420759	-0.518103	-0.491811	-0.559154	9.75654	1.16969	-0.0887709	-0.0282154	0.0122381	-0.0206604	-1.01611	0.289062	0.0783691	0.427526	-0.49266	-0.518577	-0.552798	9.71534	1.52203	-0.181676	0.00120577	0.00482879	-0.0303211	-1.05347	0.21875	0.0576172	0.490547	-0.551145	-0.487628	-0.466713	9.7366	-0.838658	-0.615479	-0.0122655	0.0205777	-0.00774129	-0.920654	0.475586	0.0932617	0.5255	-0.541214	-0.513464	-0.409013	9.67715	-1.35322	-1.09915	0.0504715	0.0231446	-0.01676	-0.95752	0.580811	0.0632324	
80	0.739663	0.0433492	-0.0642801	-0.668496	0.3386	1.74283	10.8905	0.0175606	-0.012222	-0.0252933	0.0292969	0.219482	-0.950684	0.518805	-0.460526	-0.410138	-0.592068	9.75875	0.0726291	2.4186	0.00361536	0.00571658	-0.0355373	-0.764893	0.294678	-0.151611	0.799201	0.0880498	0.0481774	-0.592624	-1.96354	0.948314	10.6963	0.0270108	-0.0203355	-0.011481	0.27124	0.205078	-0.898438	0.0744103	0.212937	0.514083	-0.827551	-4.22972	-8.06297	3.79554	0.0317078	0.0305067	0.0225548	0.059082	0.922363	-0.456543	0.624416	-0.0945287	0.152191	-0.760268	-0.552994	-3.50614	9.07948	0.00880114	0.0149528	-0.0367819	-0.0270996	0.665771	-0.695801	0.877191	0.322348	0.334729	0.120763	-5.57359	7.50807	6.54518	-0.0308851	-0.00808874	-0.018561	0.833008	-0.542725	-0.100342	0.351914	-0.58658	-0.537498	-0.493128	9.38319	1.14804	-2.53343	0.0207843	0.0418873	-0.0230425	-0.900146	0.272461	0.313965	0.420077	-0.518329	-0.491344	-0.559867	9.83577	1.0616	-0.20271	-0.0599989	0.0277302	-0.0307983	-1.01831	0.289062	0.0830078	0.426296	-0.49334	-0.517733	-0.553932	9.77417	1.55423	-0.156157	-0.0753009	-0.00100461	-0.0257521	-1.06274	0.216553	0.0576172	0.490191	-0.551229	-0.487487	-0.467135	9.86771	-0.754704	-0.970305	0.0173314	0.0186314	-0.00222024	-0.92041	0.468994	0.0820312	0.525287	-0.541332	-0.513332	-0.409296	9.79644	-1.31866	-1.03208	-0.0278074	0.0116685	-0.012566	-0.959961	0.580811	0.0700684	
81	0.739569	0.0435162	-0.0644036	-0.668578	0.186552	1.78828	10.8713	0.0167172	-0.00458468	-0.0116785	0.0270996	0.22168	-0.952881	0.518777	-0.460409	-0.410389	-0.592009	9.60404	0.107433	2.32885	0.0103648	0.00561503	-0.0300434	-0.760498	0.290527	-0.14209	0.799274	0.0876208	0.0480233	-0.592602	-1.91376	0.90207	10.7923	-0.0196195	-0.0246118	0.00212121	0.279541	0.213623	-0.894043	0.0743811	0.21311	0.513521	-0.827857	-4.33102	-8.05882	3.79896	0.0526903	0.0102715	0.0145713	0.0634766	0.924561	-0.452148	0.624461	-0.094396	0.151775	-0.76033	-0.490855	-3.50917	9.12088	0.0325347	-0.00511941	-0.0160047	-0.0205078	0.661377	-0.695801	0.877561	0.321657	0.334319	0.121059	-5.60676	7.46116	6.56183	-0.063407	-0.010209	-0.00740353	0.833008	-0.544678	-0.102539	0.351656	-0.586746	-0.537543	-0.493067	9.13178	1.13162	-2.49939	0.0070562	-0.0187798	-0.0125989	-0.898193	0.276855	0.313721	0.419826	-0.518341	-0.491382	-0.560011	9.75277	0.94689	-0.130751	-0.0100553	0.0111319	-0.0333893	-1.01587	0.284668	0.0808105	0.426326	-0.493142	-0.518042	-0.553796	9.73587	1.41671	-0.225408	0.0325256	-0.000577493	-0.0338428	-1.05811	0.216553	0.0598145	0.490218	-0.551151	-0.487502	-0.467184	9.57785	-0.815011	-0.581657	0.0034396	0.0168656	-0.00145691	-0.920654	0.471191	0.0864258	0.524554	-0.541701	-0.513256	-0.409844	9.55996	-1.66571	-1.16031	0.000716852	-0.000988273	-0.0210048	-0.95752	0.578613	0.0678711	
82	0.739704	0.0434252	-0.0649608	-0.66838	0.221062	1.67725	10.9143	0.0221196	-0.0273384	0.0128527	0.0205078	0.219482	-0.955078	0.518397	-0.460814	-0.411022	-0.591588	9.73324	-0.0494689	2.52269	-0.0265639	-0.0146708	-0.016915	-0.762939	0.297119	-0.144775	0.799311	0.0879768	0.048058	-0.592497	-1.84531	0.775579	10.568	0.0275546	0.0164284	0.00902968	0.275391	0.211426	-0.891602	0.0750918	0.213387	0.51367	-0.827629	-4.13278	-8.08015	3.91122	-0.0222426	0.00395417	0.040495	0.065918	0.917969	-0.456299	0.624889	-0.094137	0.151628	-0.76004	-0.447317	-3.40837	8.98961	-0.000229122	0.00611045	0.0124534	-0.0202637	0.65918	-0.698242	0.877764	0.321062	0.334314	0.121181	-5.53576	7.43334	6.71826	9.15175e-05	0.028532	-0.0309008	0.828613	-0.540527	-0.104736	0.351706	-0.58666	-0.537435	-0.493252	9.42373	1.03347	-2.5501	0.00701354	0.02829	-0.0183783	-0.900146	0.272461	0.313965	0.419199	-0.518552	-0.491032	-0.560592	9.72795	0.931221	-0.310716	-0.0491059	0.0250274	-0.0229095	-1.02295	0.295654	0.0805664	0.425234	-0.493819	-0.517262	-0.554761	9.77784	1.11874	-0.573079	-0.0847861	0.00615523	-0.0304093	-1.05811	0.216553	0.0554199	0.490015	-0.550888	-0.487557	-0.46765	9.92049	-0.665313	-1.10297	0.0164813	0.0228244	-0.0162368	-0.925049	0.468994	0.0888672	0.52444	-0.541417	-0.513781	-0.409706	9.88045	-1.47477	-1.16745	-0.0205571	-0.00404566	-0.0155025	-0.955322	0.580811	0.0678711	
83	0.740184	0.0428173	-0.0653361	-0.667852	0.424628	1.76864	10.8744	-0.0379367	-0.0203683	0.0434685	0.0251465	0.217285	-0.948486	0.518518	-0.460679	-0.411621	-0.59117	9.71376	0.0378438	2.38985	0.0517852	0.00324962	-0.016221	-0.767334	0.296875	-0.151611	0.799659	0.0891659	0.0475371	-0.591892	-2.07379	0.975727	10.7774	0.0518153	0.0259363	0.029469	0.273193	0.205078	-0.898438	0.0753752	0.213223	0.513306	-0.827872	-4.31984	-7.95505	3.73274	0.014769	-0.0114686	0.00896999	0.0634766	0.924561	-0.456543	0.625179	-0.0947329	0.1519	-0.759673	-0.678061	-3.48282	9.17698	-0.0313196	-0.00559576	-0.00599167	-0.0270996	0.661377	-0.691406	0.877857	0.320451	0.33462	0.121277	-5.46221	7.36485	6.5414	-0.0154494	0.0272096	-0.0199425	0.830566	-0.53833	-0.106934	0.351258	-0.586526	-0.537437	-0.493728	9.14803	1.13887	-2.41833	-0.00688952	-0.0230801	-0.0292348	-0.895752	0.270264	0.309814	0.419718	-0.518027	-0.492488	-0.55941	9.8183	1.34831	-0.15716	0.0872654	-0.0207459	-0.0351324	-1.02246	0.289062	0.0854492	0.426437	-0.49224	-0.518955	-0.553657	9.70758	1.72646	-0.00300336	0.0611887	0.0100351	-0.0365351	-1.05811	0.216553	0.0554199	0.489387	-0.551285	-0.487582	-0.467813	9.71134	-0.988211	-0.743259	-0.0624712	-0.0188608	-0.0141996	-0.920654	0.473389	0.0864258	0.523957	-0.541539	-0.51385	-0.410078	9.73155	-1.34993	-1.15166	-0.000212946	-0.000705603	-0.0214407	-0.959961	0.583008	0.0700684	
84	0.7404	0.0429835	-0.0649051	-0.667643	0.314297	1.58088	10.835	0.0105154	0.0233099	0.000757718	0.0270996	0.22168	-0.952881	0.518953	-0.460236	-0.411935	-0.590915	9.67413	0.0645141	2.34114	0.017092	0.0332464	-0.0122749	-0.762939	0.296875	-0.149414	0.800154	0.0877836	0.0488899	-0.591318	-1.98385	0.82029	10.6086	-0.101593	0.00263549	0.0272898	0.270996	0.21167	-0.889404	0.075816	0.211993	0.513677	-0.827917	-4.1782	-8.13534	3.74812	0.0320516	-0.0418849	-0.0115126	0.0612793	0.922363	-0.460938	0.625339	-0.0948616	0.151521	-0.759601	-0.379223	-3.36554	9.15665	0.0122627	-0.00776157	-0.00959335	-0.0227051	0.661377	-0.698242	0.877931	0.320078	0.334695	0.121521	-5.51697	7.37532	6.6886	-0.0198155	0.0226203	-0.0147567	0.828369	-0.53833	-0.10498	0.350939	-0.586462	-0.537541	-0.493917	9.29126	1.23538	-2.56339	0.0263253	0.00173937	-0.0326672	-0.898193	0.276855	0.311768	0.419672	-0.517827	-0.492418	-0.559691	9.62847	0.74529	-0.23297	0.0199002	0.0333166	-0.019181	-1.02246	0.284668	0.0808105	0.426588	-0.491666	-0.519498	-0.553542	9.76215	0.986025	-0.635374	0.121527	0.0155751	-0.0383344	-1.06055	0.220947	0.0576172	0.489622	-0.550712	-0.48807	-0.467734	9.90388	-0.75617	-0.853214	0.0899787	0.0224523	-0.00531134	-0.920654	0.473389	0.0864258	0.524114	-0.541177	-0.514063	-0.410086	9.8018	-1.50609	-1.04518	0.0239827	0.018656	-0.00997031	-0.959717	0.576416	0.0700684	
85	0.74067	0.0433511	-0.0645616	-0.667354	0.27711	1.73707	10.9234	-0.0128071	0.0153815	0.00974296	0.0270996	0.22168	-0.952881	0.519038	-0.460106	-0.411955	-0.590928	9.65644	0.164341	2.38963	-0.029419	0.0244607	-0.0239643	-0.762695	0.292725	-0.14917	0.800675	0.0878671	0.0498595	-0.59052	-1.98495	0.99385	10.5377	0.0126185	0.0505617	0.0152455	0.277588	0.207031	-0.891602	0.0756509	0.210658	0.514025	-0.828057	-4.22384	-8.00117	3.82331	-0.0487608	-0.0309512	-0.0387023	0.0612793	0.922119	-0.449951	0.6253	-0.0949973	0.151516	-0.759618	-0.396443	-3.39425	9.15796	-0.0226822	0.00722329	-0.0153183	-0.0268555	0.656982	-0.695801	0.877923	0.320296	0.334442	0.121693	-5.49115	7.51829	6.8285	0.0117118	0.00655718	-0.0027582	0.826416	-0.542725	-0.104736	0.349396	-0.587156	-0.537216	-0.494539	9.12074	1.24237	-2.58996	-0.0557236	-0.0585084	-0.0241534	-0.899902	0.268066	0.318359	0.421492	-0.516809	-0.495369	-0.556653	9.89233	1.38123	-0.364356	0.184557	-0.0542619	-0.0123249	-1.02051	0.29126	0.0830078	0.429958	-0.488031	-0.523296	-0.550567	9.74743	1.74955	-0.0142373	0.226613	0.031881	-0.041683	-1.05347	0.218994	0.0532227	0.489692	-0.550606	-0.48805	-0.467805	9.59115	-0.707954	-0.75552	0.00273203	0.0110577	-0.000429771	-0.922852	0.473389	0.0864258	0.523893	-0.541301	-0.513944	-0.410355	9.70403	-1.48474	-1.254	0.00402411	0.0123299	-0.00778566	-0.955322	0.578613	0.0632324	
