40	Head	00b4120a												Throax	00b411e8												LUpArm	00b411d9												LFoArm	00b41148												RUpArm	00b411db												RFoArm	00b41204												Waist	00b411f7												Lthigh	00b411f4												Lshank	00b4111b												Rthigh	00b411c8												Rshank	00b411ee												
PacketCount	q0	q1	q2	q3	accX	accY	accZ	gyrX	gyrY	gyrZ	magX	magY	magZ	q0	q1	q2	q3	accX	accY	accZ	gyrX	gyrY	gyrZ	magX	magY	magZ	q0	q1	q2	q3	accX	accY	accZ	gyrX	gyrY	gyrZ	magX	magY	magZ	q0	q1	q2	q3	accX	accY	accZ	gyrX	gyrY	gyrZ	magX	magY	magZ	q0	q1	q2	q3	accX	accY	accZ	gyrX	gyrY	gyrZ	magX	magY	magZ	q0	q1	q2	q3	accX	accY	accZ	gyrX	gyrY	gyrZ	magX	magY	magZ	q0	q1	q2	q3	accX	accY	accZ	gyrX	gyrY	gyrZ	magX	magY	magZ	q0	q1	q2	q3	accX	accY	accZ	gyrX	gyrY	gyrZ	magX	magY	magZ	q0	q1	q2	q3	accX	accY	accZ	gyrX	gyrY	gyrZ	magX	magY	magZ	q0	q1	q2	q3	accX	accY	accZ	gyrX	gyrY	gyrZ	magX	magY	magZ	q0	q1	q2	q3	accX	accY	accZ	gyrX	gyrY	gyrZ	magX	magY	magZ	
0	0.200185	-0.176043	-0.705401	-0.656768	4.69088	7.69484	-0.502232	-0.030535	-0.069096	0.0509895	-0.787598	-0.547852	0.0712891	0.41815	-0.124597	-0.549534	-0.712488	6.37424	6.66475	3.785	0.0608295	0.069958	-0.0336262	-0.677979	-0.4375	-0.420166	0.827929	0.455174	0.206214	-0.25461	-5.23724	6.7839	5.27401	-0.0693017	0.0902515	-0.0733032	0.793945	-0.457275	-0.400635	0.390003	0.703907	0.172075	-0.568157	-8.99927	3.60744	-0.288774	-0.0245037	-0.0155062	-0.025067	1.00269	0.0131836	-0.215576	0.756636	0.551601	0.0806343	-0.341668	-4.75751	7.25657	3.83421	0.0270559	0.0576391	-0.0766179	0.779785	-0.494873	-0.399414	0.99722	-0.0670887	-0.00554932	-0.031954	-1.89004	-1.70714	13.1937	-0.0227459	-0.0271898	0.021735	0.583984	0.103271	-0.818604	0.310467	-0.467756	-0.516088	-0.646891	8.98539	3.71094	0.416322	0.144825	0.0394164	-0.0658612	-0.991211	-0.0090332	0.0822754	0.398258	-0.602361	-0.417817	-0.551344	9.55056	-0.282455	-0.896801	0.27156	-0.0163185	-0.0434005	-0.954834	0.429688	0.218018	0.415975	-0.565395	-0.453391	-0.549299	9.62728	0.144557	-0.637941	0.341422	0.0800897	-0.0393199	-1.00391	0.368896	0.164795	0.502497	-0.593195	-0.449509	-0.439952	9.43408	-1.85369	-1.06055	0.0875449	0.00496625	-0.00646466	-0.851807	0.590576	0.138428	0.554065	-0.571357	-0.467954	-0.384165	9.50488	-3.17135	-1.03846	0.202249	0.00172509	-0.023648	-0.884033	0.705078	0.0681152	
1	0.200392	-0.176689	-0.706001	-0.655887	5.56068	7.73902	-0.761172	0.0739877	-0.0475755	0.0508405	-0.7854	-0.550049	0.0734863	0.418198	-0.12437	-0.548828	-0.713043	6.50531	6.80996	3.70131	-0.0647119	0.056668	-0.0382483	-0.673584	-0.439697	-0.429443	0.829359	0.453224	0.206842	-0.252921	-6.36305	6.10702	5.44559	-0.204941	0.0382102	0.0714937	0.791748	-0.463623	-0.405029	0.390003	0.703907	0.172075	-0.568157	-8.99927	3.60744	-0.288774	-0.0245037	-0.0155062	-0.025067	1.00269	0.0131836	-0.215576	0.755091	0.553605	0.0806665	-0.341837	-4.7767	7.186	3.658	0.186482	0.0666996	-0.054609	0.779785	-0.499268	-0.399414	0.99734	-0.06528	-0.00511196	-0.0320195	-2.08393	-1.99156	13.1003	0.147098	0.0506575	-0.0253672	0.588623	0.098877	-0.822754	0.31036	-0.466941	-0.516274	-0.647383	9.01437	3.98569	0.361039	0.0201859	0.0625505	-0.0743258	-0.982422	-0.0090332	0.0800781	0.399679	-0.601341	-0.419123	-0.550438	9.88164	0.327472	-0.321063	0.193445	0.0240058	-0.0213289	-0.95459	0.42749	0.211182	0.418872	-0.563012	-0.455848	-0.547509	9.95586	0.368598	-0.273695	0.390038	0.0527627	-0.0309187	-1.00854	0.364258	0.162842	0.503276	-0.592518	-0.450071	-0.439399	9.59274	-1.83203	-1.32568	0.106427	0.0146725	0.00105512	-0.854004	0.590576	0.138428	0.555619	-0.569725	-0.468942	-0.383138	9.46268	-2.19351	-0.96688	0.215781	0.0241493	-0.0169968	-0.881592	0.702881	0.0681152	
2	0.200463	-0.175871	-0.705709	-0.656398	5.24507	7.89731	-0.509586	-0.0570047	-0.0317818	-0.0612889	-0.783203	-0.550049	0.0756836	0.418172	-0.123433	-0.548581	-0.713411	6.33137	6.45317	3.48617	0.0591703	-0.0166275	-0.0648814	-0.675781	-0.441895	-0.427002	0.82776	0.455563	0.20768	-0.253269	-5.35402	6.68253	5.40123	0.119981	0.0731313	-0.0323664	0.796143	-0.46167	-0.395996	0.388878	0.704784	0.173322	-0.567462	-8.93287	3.32663	-0.326335	0.00901691	0.0460912	-0.0288767	1.00879	0.0241699	-0.211426	0.754554	0.554474	0.081884	-0.341323	-5.28879	7.51224	3.39477	-0.0263552	0.0660939	-0.0613751	0.78418	-0.49707	-0.390381	0.997574	-0.0620411	-0.00508591	-0.031161	-2.21193	-1.30295	12.916	0.131529	-0.0179509	0.0336299	0.58667	0.0925293	-0.824707	0.309977	-0.466596	-0.51664	-0.647522	9.17407	4.01047	0.0423251	0.117693	0.00919906	-0.0375453	-0.984375	-0.0131836	0.0822754	0.399691	-0.601264	-0.419782	-0.550011	9.87521	0.469904	-0.204971	-0.0437981	0.008564	-0.0252046	-0.952393	0.425293	0.218262	0.41906	-0.562681	-0.456084	-0.547509	9.75504	0.525614	0.0510176	-0.122857	-0.0110164	-0.0186105	-1.00879	0.371338	0.158203	0.502662	-0.593062	-0.450117	-0.439322	9.72695	-1.86308	-1.00804	-0.110928	-0.038834	-0.00653526	-0.852051	0.594971	0.138428	0.553722	-0.571698	-0.467351	-0.384884	9.51476	-3.16349	-0.743475	-0.0976476	0.0137742	-0.00418582	-0.88623	0.702881	0.0705566	
3	0.200418	-0.17387	-0.705709	-0.656945	4.77974	7.9171	-0.570728	0.0287985	0.00689859	-0.041857	-0.7854	-0.550049	0.0734863	0.417859	-0.122785	-0.547995	-0.714156	6.3618	6.63254	3.74769	-0.0811941	0.0617013	-0.0444138	-0.677979	-0.441895	-0.429443	0.827813	0.456345	0.207826	-0.251562	-5.21559	6.70449	5.426	0.112041	0.058903	0.014518	0.789795	-0.46582	-0.400391	0.388674	0.705505	0.17496	-0.566202	-9.09656	3.31113	-0.446102	-0.026419	0.0806008	-0.0252036	1.01343	0.0197754	-0.209229	0.754133	0.555754	0.0812046	-0.340333	-5.08272	7.52386	3.57836	0.0181837	-0.0312778	0.0892485	0.777832	-0.503662	-0.401855	0.997588	-0.0625302	-0.00444004	-0.0298209	-2.17212	-1.25691	12.6871	-0.0720611	0.0350145	0.0303116	0.588623	0.0944824	-0.822754	0.308866	-0.46636	-0.515214	-0.649357	9.22414	3.97969	0.526133	-0.114461	0.0597737	-0.0495998	-0.98877	-0.0131836	0.078125	0.398112	-0.602744	-0.417526	-0.551251	9.75509	-0.0362515	-0.800486	-0.120648	0.00775845	0.00970859	-0.952637	0.429688	0.21582	0.416508	-0.564824	-0.454107	-0.548892	9.92574	0.481531	-0.611533	-0.134117	-0.0203055	-0.0150047	-1.00635	0.368896	0.1604	0.502858	-0.593006	-0.449733	-0.439564	9.51797	-1.74099	-0.841356	-0.0110541	0.0389992	0.015875	-0.854248	0.592773	0.145264	0.553861	-0.57149	-0.467731	-0.384531	9.46154	-2.5598	-0.835971	-0.0387236	-0.0124322	-0.00227477	-0.890869	0.707275	0.065918	
4	0.199367	-0.173705	-0.706127	-0.65686	5.49621	8.10935	-0.701593	-0.0175485	0.0209548	-0.0692757	-0.778564	-0.554199	0.0649414	0.416962	-0.12116	-0.548043	-0.714921	6.5127	6.8656	3.67179	0.0133735	0.0495892	-0.0928713	-0.666992	-0.444092	-0.429443	0.827842	0.456417	0.20895	-0.250402	-5.6547	6.41841	5.1982	-0.010773	0.0583449	0.0119263	0.796387	-0.468262	-0.391357	0.388512	0.706494	0.175893	-0.564789	-8.8997	2.75876	-0.946043	0.078663	0.0942672	-0.0152742	1.01562	0.0219727	-0.202637	0.752739	0.557946	0.0807481	-0.339942	-4.52814	7.34368	3.63722	0.148539	0.0633226	-0.0192825	0.791016	-0.503662	-0.390381	0.997561	-0.0630063	-0.00524034	-0.0295805	-1.91855	-1.41348	12.9829	-0.0459355	-0.0185572	-0.0333556	0.584229	0.098877	-0.822754	0.307924	-0.465534	-0.51373	-0.651569	9.11937	3.57605	0.36832	-0.085371	0.0589962	-0.0597369	-0.98877	-0.0153809	0.0759277	0.397374	-0.603291	-0.417263	-0.551386	9.62331	-0.402051	-0.998031	0.00502218	-0.00810719	-0.0219724	-0.952393	0.42749	0.21582	0.41644	-0.564942	-0.454156	-0.548781	9.81824	0.121016	-0.685608	0.104087	0.00210895	-0.0224185	-1.00854	0.364258	0.165039	0.502466	-0.593501	-0.44928	-0.439809	9.41729	-2.09344	-1.16818	-0.0597461	0.0103016	0.0180331	-0.849609	0.588379	0.138672	0.553132	-0.572254	-0.467393	-0.384857	9.48453	-2.56692	-1.00094	-0.0197897	-0.000706324	0.000467023	-0.879395	0.702881	0.0727539	
5	0.197672	-0.172032	-0.706116	-0.657823	5.35971	8.08144	-0.572265	-0.0277776	-0.04956	-0.107178	-0.778076	-0.560791	0.0649414	0.416196	-0.11994	-0.548494	-0.715227	6.45505	6.59632	3.73566	0.0284409	-0.014324	-0.0784955	-0.671143	-0.448242	-0.422119	0.826487	0.459885	0.207364	-0.249852	-5.62096	6.63252	5.49547	0.159423	0.00222152	0.0552562	0.790039	-0.472412	-0.388916	0.387745	0.708214	0.175698	-0.56322	-8.61575	3.41856	-0.220347	-0.00237363	0.0941895	0.0339934	1.01562	0.0219727	-0.202637	0.753292	0.55879	0.0801248	-0.337467	-5.14334	8.02509	3.26316	-0.0277682	0.0328926	0.0603392	0.780273	-0.508057	-0.385742	0.99773	-0.0600683	-0.00567463	-0.0299182	-1.99797	-1.07437	12.9883	0.138139	-0.0350853	-0.0201198	0.588867	0.090332	-0.824707	0.307645	-0.464854	-0.513091	-0.652689	9.12669	3.73873	0.353797	0.0158471	0.0376647	-0.0312944	-0.986572	-0.0175781	0.078125	0.398031	-0.602994	-0.418405	-0.550369	9.93176	0.0205146	-0.527277	0.0316139	-0.00444811	-0.0135093	-0.95459	0.425293	0.2229	0.417275	-0.564142	-0.455078	-0.548205	9.95455	0.571633	-0.133384	-0.0266867	0.00407249	-0.0223946	-1.00854	0.368896	0.164795	0.502678	-0.593229	-0.449654	-0.439551	9.42063	-1.83273	-1.03514	0.0342929	-0.00527273	-0.0128526	-0.851807	0.590576	0.138428	0.553181	-0.572234	-0.467519	-0.384661	9.42004	-2.5192	-0.782425	0.00605092	-0.00105241	0.000423155	-0.884033	0.707275	0.0703125	
6	0.196121	-0.169838	-0.707234	-0.657656	4.5988	8.42884	-0.62254	0.0555354	-0.0799478	-0.102194	-0.776123	-0.558594	0.0715332	0.416656	-0.118465	-0.549811	-0.714193	6.08594	6.65401	3.74931	0.0835774	0.00863567	-0.019313	-0.668945	-0.450439	-0.429199	0.827299	0.459689	0.206333	-0.248372	-5.2033	6.24887	5.69585	-0.0298952	-0.0332568	0.134489	0.794189	-0.472412	-0.393555	0.38912	0.708747	0.175776	-0.561575	-9.6802	3.88661	-0.493019	-0.0950062	0.00897751	0.0748906	1.01123	0.0197754	-0.204834	0.753003	0.560224	0.0792775	-0.335932	-5.01094	7.90725	3.33173	0.000510249	0.0494516	0.0678674	0.780273	-0.510254	-0.388184	0.997734	-0.0604151	-0.00831028	-0.0284203	-1.84174	-1.28145	13.3494	0.00996854	-0.0693084	0.0388362	0.58252	0.0881348	-0.82666	0.308331	-0.463611	-0.51329	-0.653093	9.01015	3.82275	0.427204	0.0539146	0.0729326	-0.0396161	-0.993164	-0.0153809	0.0654297	0.39726	-0.603449	-0.417935	-0.550785	9.77083	0.0646464	-0.664244	-0.0538945	0.0145116	-0.0198492	-0.946045	0.42749	0.21582	0.416074	-0.564984	-0.454477	-0.54875	9.8919	0.539018	-0.460943	-0.0741383	-0.0189474	-0.0237746	-1.00854	0.368896	0.162598	0.502182	-0.593485	-0.449281	-0.440155	9.51114	-2.2842	-1.19821	-0.0196073	0.0272283	0.00270932	-0.852051	0.592773	0.133789	0.552643	-0.572655	-0.467523	-0.384805	9.45607	-2.9024	-0.893605	0.0171234	-0.00652327	-0.0137911	-0.881836	0.707275	0.0727539	
7	0.196249	-0.167775	-0.708364	-0.656931	5.0843	8.8724	-0.702453	0.052322	0.181641	-0.0449186	-0.771729	-0.55835	0.0671387	0.416689	-0.117574	-0.548978	-0.714962	6.2557	6.97661	3.78407	-0.1344	0.123025	-0.0475158	-0.666748	-0.448242	-0.429199	0.829231	0.457861	0.206057	-0.245522	-5.93989	7.30238	5.84848	-0.108282	0.00817178	0.0964395	0.787842	-0.476562	-0.397949	0.392035	0.708638	0.175549	-0.559752	-9.49081	3.86833	-1.11425	-0.0332573	0.0461853	0.0933474	1.01392	0.0109863	-0.197998	0.753838	0.560017	0.0779963	-0.334702	-4.27333	7.50047	3.68551	0.11138	0.0483719	0.0499825	0.778076	-0.510254	-0.392578	0.997564	-0.0628287	-0.00948195	-0.0287969	-1.52725	-1.91246	13.6152	-0.135981	-0.031648	-0.0550803	0.584229	0.0966797	-0.824951	0.307779	-0.462652	-0.512603	-0.654571	9.19523	3.81639	0.463631	-0.0940383	0.128679	-0.0621178	-0.986084	-0.0241699	0.0698242	0.396322	-0.603859	-0.417527	-0.551321	9.6924	-0.297819	-0.665475	-0.033835	-0.00103486	-0.0292388	-0.947998	0.425293	0.220459	0.415742	-0.565178	-0.454947	-0.548412	9.86442	0.136667	-0.555392	0.0926944	-0.0215579	-0.0345963	-1.0061	0.364258	0.165039	0.502269	-0.59336	-0.449406	-0.440095	9.40965	-1.71252	-0.91168	-0.0483883	-0.0125619	-0.00219362	-0.854004	0.590576	0.143066	0.552996	-0.572211	-0.467877	-0.384527	9.51031	-2.56961	-1.01705	0.0607594	0.00500356	-0.0139627	-0.883789	0.702881	0.0681152	
8	0.195451	-0.168223	-0.707571	-0.657909	4.86593	8.89989	-0.487395	-0.114766	-0.0468334	-0.0236061	-0.769287	-0.562744	0.0671387	0.416111	-0.117085	-0.548426	-0.715802	6.28192	6.8853	3.60972	-0.0650753	0.0427981	-0.0964709	-0.662109	-0.454834	-0.436035	0.829472	0.457134	0.208458	-0.244027	-6.29626	6.65922	4.68504	0.0650568	0.110077	-0.0336206	0.787842	-0.474609	-0.388916	0.390663	0.709543	0.177184	-0.559051	-9.32586	2.99381	-0.790891	0.0745041	0.105581	-0.0855132	1.01831	0.0131836	-0.195801	0.752795	0.561614	0.077935	-0.33439	-5.30456	8.16828	3.62987	0.140441	0.0686196	-0.00963308	0.782471	-0.505859	-0.383545	0.997573	-0.0625835	-0.00941639	-0.029033	-1.78554	-2.10525	13.8619	0.0223461	0.0180459	-0.0394522	0.582275	0.0944824	-0.829102	0.306418	-0.462074	-0.510751	-0.657061	9.58975	3.86435	0.313944	-0.101293	0.0903146	-0.0655836	-0.983887	-0.026123	0.0634766	0.396093	-0.604082	-0.417001	-0.551638	9.79565	-0.555722	-0.861544	-0.0125752	0.0325067	-0.00669643	-0.952637	0.429688	0.21582	0.416508	-0.564775	-0.455106	-0.548113	10.2196	-0.671179	-1.74446	0.102773	0.0324499	0.00140449	-1.00635	0.368896	0.167236	0.501727	-0.59382	-0.449587	-0.439909	9.57042	-2.40113	-1.01851	-0.0279736	-0.0399145	-0.00113297	-0.851807	0.588379	0.140869	0.552937	-0.572204	-0.467661	-0.384886	9.43063	-2.97872	-0.766527	0.0244574	0.0187339	-0.00784512	-0.884033	0.707275	0.0727539	
9	0.195609	-0.166621	-0.705115	-0.660899	4.74296	8.33432	-0.304214	-0.102607	0.107716	-0.0531669	-0.771484	-0.562744	0.0629883	0.414853	-0.115713	-0.547284	-0.717627	6.22712	6.90107	3.68772	-0.0961417	0.0423648	-0.0980068	-0.666504	-0.452637	-0.438477	0.826636	0.461459	0.208	-0.245895	-5.55637	6.77679	5.70455	0.31693	0.0472765	-0.0862482	0.789795	-0.470215	-0.388916	0.389955	0.711521	0.178679	-0.556548	-9.44259	3.80647	-0.832798	-0.0582645	0.141222	0.0367434	1.01562	0.0195312	-0.187012	0.751879	0.562836	0.0781996	-0.334334	-4.75223	7.84506	3.50968	0.0525203	0.032276	-0.0186943	0.780518	-0.514893	-0.383545	0.997819	-0.0586809	-0.00753206	-0.029286	-1.94559	-1.08501	13.3656	0.151734	0.0792647	-0.0361226	0.584473	0.090332	-0.826904	0.305785	-0.461073	-0.506956	-0.660986	8.96704	3.32337	0.175555	-0.138469	0.0255981	-0.0407415	-0.988037	-0.0283203	0.0593262	0.397552	-0.603209	-0.41924	-0.549845	9.61471	-0.399409	-1.05756	0.260597	-0.0540234	-0.0320258	-0.952393	0.42749	0.220459	0.421921	-0.560472	-0.459862	-0.544409	9.81527	0.221353	-0.644121	0.737945	0.0656865	-0.0309258	-1.00635	0.371338	0.151367	0.503446	-0.592527	-0.450215	-0.439045	9.56851	-1.83859	-0.455958	0.0736995	0.0623063	0.0204962	-0.847412	0.592773	0.13623	0.553224	-0.571718	-0.468563	-0.384097	9.329	-2.5547	-0.5746	-0.00116764	-0.033178	-0.012776	-0.883789	0.702881	0.0749512	
10	0.194715	-0.16731	-0.703194	-0.663032	4.92112	8.02176	-0.546205	-0.129584	0.0181499	-0.0182779	-0.775879	-0.562744	0.0541992	0.414434	-0.114731	-0.546638	-0.718518	6.49663	6.57623	3.72065	0.0221361	0.0872366	-0.0317471	-0.666504	-0.452637	-0.436035	0.825051	0.462898	0.209597	-0.247156	-5.65485	7.37452	6.20017	-0.0526507	0.0521299	-0.106192	0.792236	-0.474609	-0.375	0.391402	0.711812	0.179005	-0.555054	-9.4381	3.75727	-1.05774	-0.103524	0.0908336	0.0990083	1.01611	0.0107422	-0.184814	0.750131	0.565073	0.0788876	-0.334324	-5.0349	7.98281	2.93156	-0.00597072	0.0530501	-0.0064817	0.780762	-0.51709	-0.381348	0.998007	-0.0551742	-0.0050023	-0.0302243	-1.97271	-0.730104	13.1272	0.163437	0.161612	-0.0601662	0.587158	0.081543	-0.828613	0.30626	-0.46017	-0.507149	-0.661247	9.15212	3.35669	0.592624	0.0537082	0.0829691	-0.0406167	-0.979492	-0.0305176	0.0615234	0.399312	-0.601554	-0.421241	-0.548852	9.80995	-0.132763	-0.495429	0.0685308	0.0735485	-0.0411631	-0.957275	0.436279	0.215576	0.426446	-0.557142	-0.463983	-0.540792	9.80728	0.673876	-0.162415	0.0811787	-0.0155221	-0.00147859	-1.00391	0.366943	0.149414	0.503401	-0.592314	-0.4502	-0.439399	9.42265	-2.07323	-1.05273	0.0096863	0.020999	-0.0192028	-0.854004	0.590576	0.140869	0.553624	-0.570807	-0.47034	-0.382701	9.57605	-2.26808	-1.11999	0.0618376	-0.0386071	-0.0200036	-0.884033	0.705078	0.0727539	
11	0.193369	-0.168984	-0.704525	-0.661587	5.28511	8.07388	-0.645618	0.120926	-0.160663	0.0314771	-0.77124	-0.564941	0.0651855	0.415481	-0.113708	-0.547338	-0.717542	6.17033	6.88676	3.71167	0.119007	0.0863679	0.02231	-0.666504	-0.457031	-0.436035	0.827593	0.456504	0.214006	-0.24677	-5.47808	7.19955	5.83128	-0.400453	0.0814423	-0.101732	0.802734	-0.461914	-0.382324	0.399547	0.710439	0.179014	-0.550992	-8.96322	4.02362	-0.508234	-0.343351	0.0394241	0.262955	1.01636	0.00415039	-0.18457	0.753441	0.561752	0.0792335	-0.33239	-4.86791	8.03535	3.14096	-0.209031	0.000253406	0.0591564	0.77832	-0.514893	-0.383545	0.997721	-0.0601993	-0.00227541	-0.0303781	-1.78612	-0.91273	13.2539	-0.355996	0.0856059	-0.00864424	0.59082	0.0966797	-0.824951	0.305739	-0.460374	-0.508119	-0.660602	8.93725	3.88004	0.777963	-0.0126131	-0.0937748	-0.0321515	-0.988037	-0.0283203	0.0656738	0.400587	-0.6003	-0.422791	-0.548104	9.74527	-0.0487703	-0.89213	0.0948834	0.0123427	-0.0387838	-0.954834	0.431885	0.211182	0.427728	-0.555795	-0.466114	-0.539331	9.87653	0.600481	-0.428204	0.136295	-0.00470355	-0.0509635	-1.00879	0.375977	0.142578	0.50444	-0.591166	-0.451117	-0.438812	9.23322	-1.77791	-1.24411	0.125328	0.019224	-0.00896241	-0.849854	0.597168	0.140625	0.552789	-0.571104	-0.470586	-0.383161	9.37323	-2.84943	-1.24739	0.0555538	0.00503006	-0.0305179	-0.888428	0.702881	0.0681152	
12	0.194615	-0.167609	-0.706549	-0.659409	5.03535	8.50657	-0.533063	0.116448	0.0517996	-0.0110396	-0.775391	-0.569336	0.0629883	0.419041	-0.112592	-0.548219	-0.714971	6.15179	6.73747	3.64366	0.059132	0.0695677	0.0709946	-0.666748	-0.448242	-0.431641	0.83179	0.447632	0.219971	-0.243646	-5.95163	6.48838	5.4019	-0.386442	0.141092	-0.0426459	0.804688	-0.453125	-0.387207	0.410496	0.706821	0.179746	-0.547347	-9.00515	3.76015	-0.693343	-0.443025	-0.0523517	0.249882	1.01685	-0.00463867	-0.188965	0.755438	0.560101	0.0793698	-0.330607	-4.74593	8.15749	3.4367	-0.123552	0.0711078	0.0617983	0.780762	-0.51709	-0.381348	0.997385	-0.0656768	0.000764151	-0.0301407	-1.92372	-1.76399	13.6161	-0.120105	0.154055	-0.00384441	0.599121	0.103271	-0.818604	0.304672	-0.461578	-0.510312	-0.658561	8.97046	3.93378	0.395584	0.0912053	-0.0777288	-0.033546	-0.983887	-0.026123	0.0698242	0.399425	-0.600521	-0.422246	-0.549129	9.73476	0.0847515	-0.754506	-0.123647	0.0171967	-0.0367261	-0.956787	0.425293	0.218262	0.424464	-0.557834	-0.463616	-0.541952	9.99679	0.0230448	-0.94316	-0.328541	0.00848209	-0.0301838	-1.00854	0.364502	0.149414	0.504469	-0.590674	-0.452868	-0.437636	9.55448	-2.08277	-1.15757	0.071279	-0.0512022	-0.0304314	-0.854004	0.588379	0.13623	0.553695	-0.569919	-0.471181	-0.382886	9.48577	-2.62724	-0.841998	0.0277914	0.0227916	-0.0137241	-0.88623	0.707275	0.0703125	
13	0.19663	-0.167045	-0.708269	-0.657106	5.03345	8.64141	-0.547261	0.136157	0.0747635	0.0421009	-0.775879	-0.560791	0.0715332	0.42092	-0.111892	-0.549757	-0.712793	6.33081	7.02572	3.63513	0.0982659	0.0467644	0.0320698	-0.666504	-0.452637	-0.433838	0.833622	0.4425	0.224348	-0.242767	-6.16355	6.22417	5.67865	-0.199993	0.0894249	-0.0696958	0.804443	-0.440186	-0.387451	0.417255	0.704715	0.180606	-0.544662	-9.76271	4.47931	-0.842571	-0.261979	-0.0363249	0.129667	1.01709	-0.0090332	-0.186523	0.75668	0.558493	0.0804478	-0.330228	-4.58433	7.56068	3.71657	-0.0202734	0.02296	-0.0485133	0.77832	-0.512451	-0.388184	0.997114	-0.0698401	0.00469225	-0.0293972	-1.98767	-2.06962	13.3768	-0.121849	0.183804	0.0163754	0.599121	0.105469	-0.812256	0.30379	-0.462151	-0.512547	-0.656828	9.13916	3.91262	0.497936	0.0652179	-0.0859627	-0.0571309	-0.988037	-0.0283203	0.0656738	0.400113	-0.599842	-0.423897	-0.548097	9.67079	-0.150227	-0.712868	0.183873	-0.0168347	-0.0409057	-0.950195	0.42749	0.218262	0.426661	-0.555284	-0.46572	-0.541041	9.66196	0.658114	-0.217788	0.240137	0.0426618	-0.0558191	-1.0061	0.362305	0.142578	0.505157	-0.589616	-0.454385	-0.436696	9.61384	-1.87398	-0.952073	0.0675407	-0.00504168	-0.0175955	-0.851807	0.586182	0.138672	0.554059	-0.569437	-0.471413	-0.382792	9.56499	-2.80915	-0.732049	0.0523674	0.0204211	-0.0178566	-0.888672	0.709473	0.0634766	
14	0.19732	-0.167169	-0.707847	-0.657321	4.9321	8.01457	-0.498526	-0.0106918	0.0233619	0.0171752	-0.775879	-0.562744	0.0671387	0.422671	-0.111282	-0.549466	-0.712076	6.54761	6.48	3.55497	0.0320506	0.106697	0.0309722	-0.668701	-0.452637	-0.438477	0.836773	0.433859	0.23122	-0.241072	-5.54949	7.1978	5.53295	-0.519648	0.118616	-0.173082	0.810547	-0.427246	-0.390137	0.425275	0.701305	0.181448	-0.542577	-8.66677	3.54332	-0.501554	-0.193821	-0.0200293	0.172093	1.0083	-0.0153809	-0.199707	0.756386	0.558717	0.0816295	-0.33023	-5.04929	7.78172	3.49964	-0.0171871	0.0328108	-0.0583909	0.780518	-0.512451	-0.390381	0.997032	-0.070243	0.00957688	-0.0300331	-2.28531	-1.40469	13.3424	-0.0617332	0.202791	-0.0382528	0.609619	0.109863	-0.801758	0.303227	-0.462687	-0.514715	-0.655013	9.21145	3.83451	0.421475	0.162693	-0.0745546	-0.0262511	-0.990234	-0.0305176	0.0742188	0.400512	-0.599001	-0.425206	-0.547712	9.77159	0.0191727	-0.258501	0.0507272	0.0141988	-0.0484308	-0.956787	0.429688	0.213379	0.426897	-0.554681	-0.466417	-0.540873	9.81084	0.270835	-0.338544	0.026902	-0.000517938	-0.0381639	-1.00854	0.364502	0.144775	0.506307	-0.58813	-0.455872	-0.435818	9.56354	-1.85787	-0.959273	0.102258	0.0167597	-0.0295141	-0.858643	0.592529	0.129395	0.55495	-0.567835	-0.47302	-0.381898	9.58854	-2.62744	-1.10423	0.0761068	-0.00104045	-0.023596	-0.888428	0.702881	0.0612793	
15	0.196851	-0.168764	-0.709019	-0.65579	4.88852	8.01019	-0.591935	0.051878	-0.124162	0.027844	-0.77832	-0.560791	0.0778809	0.424369	-0.111693	-0.550205	-0.710429	6.43417	7.09477	3.77441	0.0392032	0.0070409	0.0785411	-0.660156	-0.450439	-0.438477	0.84121	0.422057	0.238503	-0.23948	-5.98161	6.42521	5.88246	-0.49355	0.1661	-0.167321	0.814697	-0.414307	-0.390381	0.433056	0.698701	0.181495	-0.539758	-9.01489	4.28727	-0.745744	-0.380834	-0.0533889	0.200565	1.00854	-0.0178223	-0.193115	0.756844	0.558044	0.0834116	-0.329873	-4.93688	7.67593	3.45825	-0.123671	0.0415236	-0.00797759	0.780273	-0.510498	-0.381348	0.996848	-0.0714471	0.0157683	-0.0306728	-2.29075	-1.09524	13.0003	-0.0431297	0.287946	-0.0298684	0.616211	0.112061	-0.79541	0.302775	-0.463043	-0.515678	-0.654214	8.94629	4.09029	0.331098	0.0426626	-0.07786	-0.0169085	-0.983887	-0.0283203	0.0742188	0.400507	-0.598826	-0.425657	-0.547555	9.90018	0.111949	-0.443215	0.0347276	0.00215843	-0.0385987	-0.95459	0.425293	0.211182	0.425805	-0.555099	-0.46633	-0.54138	9.84238	0.106943	-0.475259	-0.0709715	-0.00960232	-0.0388303	-1.01538	0.364502	0.140381	0.505239	-0.588724	-0.456308	-0.435799	9.52187	-1.94094	-0.996661	-0.0551628	-0.0346119	-0.00400544	-0.854004	0.590576	0.129395	0.553804	-0.56859	-0.472672	-0.382867	9.36894	-2.97665	-0.812516	-0.0940643	0.0048245	-0.0157154	-0.890625	0.700684	0.065918	
16	0.196786	-0.17055	-0.711319	-0.652851	5.19293	8.4485	-0.846634	0.13156	-0.0494873	0.0578271	-0.778564	-0.554199	0.0778809	0.426157	-0.111904	-0.550099	-0.709407	6.21601	6.87732	3.69198	0.04128	0.00905715	0.0339141	-0.668945	-0.448486	-0.433838	0.845667	0.410563	0.244515	-0.237693	-6.00913	4.71067	5.23392	-0.414749	0.0759533	-0.0900311	0.814453	-0.39917	-0.395508	0.438585	0.696227	0.181987	-0.538323	-8.69233	3.78722	-0.291873	-0.15231	-0.0485005	0.0831978	1.00903	-0.0263672	-0.197266	0.755914	0.558508	0.0837083	-0.331143	-4.69106	7.78332	3.40613	0.109321	0.0214299	-0.106484	0.782471	-0.508057	-0.383545	0.996499	-0.0749174	0.0202281	-0.0311116	-2.24877	-2.09696	12.9287	-0.0685261	0.173228	-0.0194862	0.622559	0.112061	-0.788818	0.302005	-0.463261	-0.513733	-0.655942	8.87838	3.96552	0.619422	-0.119029	0.084334	-0.016615	-0.988037	-0.0283203	0.0698242	0.39901	-0.599414	-0.425241	-0.548328	9.54465	-0.280504	-1.12707	0.00260122	-0.0277239	-0.0337136	-0.954834	0.429688	0.21582	0.425187	-0.554989	-0.46615	-0.542132	9.67202	0.243467	-0.666098	0.0383905	0.0200565	-0.0469414	-1.01318	0.364502	0.144775	0.505005	-0.588803	-0.456717	-0.435536	9.46627	-2.17238	-1.07541	0.0151803	-0.0203995	-0.00795252	-0.851807	0.588379	0.131836	0.553507	-0.568405	-0.473266	-0.382839	9.4502	-2.51503	-0.885749	-0.0270769	-0.0128614	-0.0248841	-0.890381	0.696289	0.0727539	
17	0.196579	-0.171695	-0.711649	-0.652253	5.29225	8.46347	-0.884064	0.0305174	-0.0886573	0.0568083	-0.776367	-0.554199	0.0864258	0.426836	-0.111818	-0.54997	-0.709113	6.49949	6.73706	3.89278	0.00725661	0.0504479	0.0267525	-0.671387	-0.441895	-0.441162	0.84677	0.40767	0.246292	-0.236909	-5.9721	5.63033	5.46881	-0.255679	0.0663159	-0.0586422	0.814209	-0.394775	-0.393311	0.442491	0.693378	0.184113	-0.538081	-8.35885	3.33624	-0.0132896	-0.0913525	-0.0369951	-0.0474309	1.01099	-0.0241699	-0.20166	0.755878	0.557988	0.0847825	-0.331829	-4.67058	7.76619	3.45267	-0.103001	0.0320345	-0.0654638	0.782471	-0.508057	-0.385742	0.996481	-0.0745881	0.0217856	-0.0314129	-2.66776	-1.68569	12.7688	0.0254686	0.13963	-0.0351772	0.628906	0.118652	-0.789062	0.301821	-0.46353	-0.513734	-0.655836	9.08067	3.7885	0.680106	-0.00193735	0.105928	-0.0127327	-0.992432	-0.0263672	0.0742188	0.399311	-0.598906	-0.426644	-0.547574	9.8332	-0.00291361	-0.570327	0.0489027	0.00219041	-0.0401433	-0.95459	0.425293	0.21582	0.426244	-0.553651	-0.46749	-0.541515	9.86961	0.35729	-0.350553	0.0947093	0.0129733	-0.0392738	-1.01318	0.364502	0.146973	0.50612	-0.587452	-0.458541	-0.434145	9.49399	-1.73918	-1.25288	0.135641	-0.0258286	-0.0169123	-0.854004	0.590576	0.13623	0.553792	-0.567922	-0.473813	-0.382465	9.5451	-2.81868	-0.998247	0.0694786	-0.00902703	-0.0217792	-0.888184	0.698486	0.065918	
18	0.198422	-0.170815	-0.711652	-0.651923	4.9486	8.07008	-0.554664	0.026992	0.0894264	0.0176817	-0.780518	-0.556396	0.0778809	0.427787	-0.112267	-0.549787	-0.708611	6.35405	6.76215	3.78521	-0.03599	-0.00566623	0.0171688	-0.666748	-0.446289	-0.438721	0.846583	0.408332	0.24598	-0.236762	-5.91389	5.06738	5.62791	0.162363	-0.0742555	0.0675693	0.812256	-0.396973	-0.395508	0.441775	0.693189	0.184874	-0.538651	-8.19442	3.99339	0.0855433	0.0120281	0.00239515	-0.0946871	1.01074	-0.0175781	-0.204102	0.755109	0.558893	0.0854276	-0.331891	-5.16101	7.87714	3.28407	0.0692781	0.0742077	-0.0609619	0.786621	-0.505859	-0.381348	0.996459	-0.0747707	0.0228161	-0.0309709	-2.59933	-2.08931	12.5912	0.0478816	0.022994	0.0293817	0.626709	0.116455	-0.786865	0.301821	-0.46353	-0.513734	-0.655836	9.08067	3.7885	0.680106	-0.00193735	0.105928	-0.0127327	-0.992432	-0.0263672	0.0742188	0.399456	-0.59862	-0.427386	-0.547202	9.73132	-0.0117357	-0.67695	0.0657118	-0.00740343	-0.0429756	-0.95874	0.423096	0.21582	0.426697	-0.552977	-0.468097	-0.541323	9.95398	0.426814	-0.425383	0.0827039	0.0226068	-0.0459404	-1.01514	0.359863	0.138184	0.50644	-0.587043	-0.459579	-0.433228	9.52286	-1.93622	-1.06284	0.104506	-0.0473076	-0.0132966	-0.854004	0.586182	0.131836	0.554474	-0.567053	-0.474322	-0.382136	9.53501	-2.35647	-0.99787	-0.015585	0.0206828	-0.00708245	-0.892578	0.693848	0.0637207	
19	0.201101	-0.169878	-0.711436	-0.651581	5.0747	7.9325	-0.363111	-7.9027e-05	0.158085	0.0456559	-0.785156	-0.552246	0.0712891	0.428681	-0.111354	-0.550545	-0.707625	6.15024	6.5999	3.38706	0.128255	0.0270071	-0.0106873	-0.666748	-0.446289	-0.438721	0.846932	0.409404	0.245521	-0.234122	-6.69928	5.96707	5.9776	-0.0633666	0.0262157	0.0908047	0.814453	-0.401367	-0.399902	0.443807	0.691406	0.187934	-0.538215	-8.90039	3.78041	0.077021	-0.0796826	-0.0172651	-0.085933	1.0083	-0.0131836	-0.201904	0.754504	0.559082	0.0864469	-0.332683	-4.64377	7.08487	3.82095	0.00610157	0.00432756	-0.0656266	0.793213	-0.503662	-0.378906	0.996713	-0.0727145	0.0215253	-0.0285019	-2.55236	-1.5676	12.6243	0.0572461	-0.0356648	0.0673851	0.618408	0.112061	-0.788818	0.300958	-0.464018	-0.51572	-0.654327	8.98498	4.1539	0.414877	-0.0420091	-0.0120854	-0.0417203	-0.98999	-0.0327148	0.0786133	0.399592	-0.598832	-0.427985	-0.546402	9.74263	-0.116899	-0.872943	-0.0160667	0.000839696	-0.00629193	-0.95874	0.423096	0.213623	0.426503	-0.552886	-0.46743	-0.542145	9.84765	-0.161759	-0.772048	0.0259733	0.0379149	-0.0171155	-1.00586	0.360107	0.140381	0.506704	-0.586504	-0.460623	-0.432539	9.65684	-1.60037	-0.974431	0.0324289	0.00632506	-0.00108904	-0.854248	0.590576	0.127197	0.554957	-0.56618	-0.475273	-0.381547	9.44104	-2.44289	-0.600375	0.0768338	-0.0105867	-0.0156918	-0.890625	0.700684	0.0612793	
20	0.199603	-0.169985	-0.712276	-0.651096	4.52576	7.98623	-0.628777	0.0401329	-0.178211	-0.0247774	-0.776367	-0.552002	0.0842285	0.428773	-0.111313	-0.550037	-0.70797	6.37775	6.26507	3.65475	-0.0540219	0.0715355	-0.0382279	-0.668945	-0.446289	-0.436279	0.847202	0.411561	0.243801	-0.231142	-5.49752	5.78148	5.69452	0.280586	0.0493596	0.113887	0.818848	-0.405762	-0.397461	0.444141	0.691191	0.190494	-0.537314	-9.10848	3.88112	-0.598868	-0.155894	0.0915424	-0.00601516	1.0083	-0.0153809	-0.19751	0.754227	0.559912	0.0870925	-0.331745	-5.39246	7.3893	3.55686	-0.0181718	0.0164652	-0.0208763	0.791016	-0.505859	-0.381348	0.996773	-0.0722994	0.0211865	-0.0276934	-2.42542	-1.51596	12.3206	0.035949	-0.0174437	0.0438347	0.626953	0.109863	-0.786621	0.300437	-0.463901	-0.51645	-0.654074	9.3242	3.98818	0.761175	0.00770336	0.0562773	-0.0447432	-0.990234	-0.0305176	0.0827637	0.400896	-0.597687	-0.430178	-0.544977	9.71277	0.108063	-0.728557	0.132641	-0.00546184	-0.039886	-0.956543	0.420898	0.213623	0.429681	-0.550289	-0.469924	-0.540118	9.95737	0.67093	-0.364537	0.146518	0.037523	-0.0122345	-1.01538	0.362305	0.133789	0.506844	-0.586321	-0.460849	-0.432382	9.51327	-1.9996	-1.57099	0.0216059	0.00219248	-0.00814212	-0.851807	0.588379	0.129395	0.554959	-0.565792	-0.476297	-0.380841	9.54978	-2.765	-1.09027	0.102753	-0.022905	-0.0218172	-0.890625	0.700684	0.065918	
21	0.198289	-0.170563	-0.713085	-0.65046	4.85761	8.17056	-0.699355	0.0238564	-0.0243106	-0.041038	-0.77832	-0.560791	0.0778809	0.428071	-0.110498	-0.550374	-0.708261	6.53549	6.72067	3.78867	-0.0582634	0.00328907	-0.0603174	-0.660156	-0.450684	-0.440918	0.846366	0.41518	0.242049	-0.229571	-5.44746	5.5783	5.66431	0.097261	-0.0131153	0.110873	0.812744	-0.420898	-0.387939	0.443955	0.692249	0.191664	-0.535687	-8.36689	3.51753	-0.533053	0.131811	0.116461	-0.00111765	1.0127	-0.0109863	-0.195312	0.754032	0.561349	0.0872	-0.329727	-5.05281	7.44596	3.38106	0.0542711	0.118852	0.0827267	0.784912	-0.512695	-0.365234	0.996933	-0.0715436	0.018196	-0.0259748	-2.66093	-1.64381	12.4747	0.0845495	-0.0708085	0.00553479	0.618408	0.107666	-0.792969	0.300465	-0.46332	-0.516015	-0.654815	8.91032	4.17601	0.332993	0.0288513	0.0474753	-0.0404873	-0.987793	-0.0371094	0.0744629	0.402131	-0.597154	-0.43274	-0.542618	9.65494	0.258385	-0.607962	0.155253	-0.0602637	-0.0113986	-0.956787	0.42749	0.213623	0.433108	-0.54743	-0.472296	-0.538214	9.70175	0.667078	-0.126327	0.268745	0.046391	-0.0267135	-1.01318	0.364746	0.12915	0.507293	-0.585848	-0.461954	-0.431318	9.54167	-1.75288	-1.098	0.0415984	-0.0384501	-0.00332799	-0.856445	0.590576	0.131592	0.55519	-0.565469	-0.476897	-0.380233	9.46397	-2.51311	-0.740445	-0.0121028	-0.0143198	-0.00421486	-0.885742	0.696289	0.0637207	
22	0.196995	-0.17116	-0.713131	-0.650646	5.45858	8.18683	-0.932585	-0.0352196	-0.106969	-0.0393484	-0.780762	-0.554199	0.0800781	0.427351	-0.109174	-0.550745	-0.708613	6.24636	6.89779	3.53315	0.0610875	-0.00856654	-0.0784809	-0.662354	-0.448242	-0.433838	0.845698	0.418849	0.239532	-0.228002	-6.22928	5.99227	5.7139	0.133347	-0.0202643	0.12213	0.812744	-0.425049	-0.387939	0.441148	0.694636	0.191163	-0.535095	-8.46307	3.98884	-0.178708	0.153005	0.0749629	-0.0325266	1.01489	-0.00878906	-0.190918	0.755024	0.561241	0.0866971	-0.327767	-4.68848	7.80217	3.21028	-0.0742	0.00548928	0.105	0.784912	-0.512695	-0.37207	0.997049	-0.0709031	0.0150108	-0.0253227	-2.08902	-1.22239	12.8024	-0.0272637	-0.138745	0.000966302	0.620605	0.107666	-0.799561	0.299228	-0.463732	-0.515911	-0.655173	9.1089	4.05366	0.033554	0.00516523	-0.0126512	-0.0233306	-0.989746	-0.0393066	0.0808105	0.401125	-0.598097	-0.432321	-0.542657	9.67596	0.162894	-0.439332	-0.0832974	-0.0011992	-0.0197393	-0.950195	0.42749	0.218262	0.431571	-0.54886	-0.47086	-0.53925	9.6593	0.360755	-0.344583	-0.165201	-0.0218702	-0.0123879	-1.01294	0.360107	0.135986	0.507849	-0.585357	-0.46243	-0.430819	9.6412	-1.86689	-0.995283	0.0373945	0.0244937	0.00291193	-0.856201	0.583984	0.125	0.556704	-0.564025	-0.478336	-0.378354	9.64979	-2.25789	-1.04425	0.1588	-0.0193536	-0.00463199	-0.89502	0.698242	0.0568848	
23	0.193522	-0.169457	-0.712705	-0.652599	5.48211	7.87874	-0.968398	-0.00201081	-0.0641195	-0.103458	-0.771729	-0.560791	0.0866699	0.426268	-0.108254	-0.550361	-0.709704	6.13124	6.5662	3.50715	-0.0484152	0.0237325	-0.086955	-0.655518	-0.457031	-0.438477	0.844714	0.423527	0.235962	-0.226729	-6.18086	7.09223	5.91694	0.21182	-0.0512927	0.105823	0.810791	-0.433838	-0.387695	0.441301	0.696235	0.191315	-0.532831	-9.2877	3.92712	-0.597731	-0.0194474	0.0922237	0.0911909	1.01489	-0.0112305	-0.186523	0.755256	0.561875	0.0848647	-0.326624	-4.74696	7.79812	3.46627	-0.0103824	-0.0611516	0.0715396	0.782715	-0.51709	-0.374268	0.997129	-0.0706067	0.0122153	-0.024485	-2.16651	-1.34236	13.1581	0.0842758	-0.0677637	-0.0307663	0.610107	0.101074	-0.807861	0.29915	-0.462487	-0.514078	-0.657525	8.85692	4.24513	0.952131	-0.18228	0.098793	-0.0318251	-0.988037	-0.0305176	0.0783691	0.398896	-0.599837	-0.429958	-0.544255	9.94097	-0.852721	-1.19954	-0.189699	0.0537393	0.0116514	-0.952393	0.42749	0.225098	0.430079	-0.550886	-0.469323	-0.539714	10.2489	-1.22605	-1.44708	-0.0801979	-0.0199701	0.0419768	-1.0083	0.362305	0.131592	0.506288	-0.587019	-0.461246	-0.431663	9.45385	-1.79817	-1.08891	-0.132146	-0.0146502	0.0300203	-0.856445	0.590576	0.13623	0.55507	-0.565946	-0.477036	-0.379526	9.5225	-2.97735	-1.05571	-0.0885984	0.0107913	0.0129891	-0.890381	0.698486	0.059082	
24	0.193585	-0.167817	-0.712972	-0.652712	4.78289	8.18191	-0.622773	0.0338653	0.0831442	-0.0981449	-0.773682	-0.565186	0.0822754	0.4251	-0.108188	-0.550762	-0.710104	6.227	6.90401	3.62538	-0.0101427	-0.0439801	-0.105535	-0.662109	-0.457031	-0.443115	0.84562	0.422579	0.235769	-0.225316	-5.75643	6.3168	5.52037	-0.0939607	-0.00354153	0.0835361	0.806396	-0.431641	-0.387695	0.441466	0.696826	0.190721	-0.532134	-8.64432	4.21181	-0.919107	0.0296854	0.0457253	0.0761662	1.01294	-0.015625	-0.182129	0.755219	0.56245	0.0835463	-0.326058	-4.62219	7.91891	3.37319	0.0640236	-0.0307256	0.0822639	0.784912	-0.514893	-0.374268	0.997106	-0.0709124	0.0105772	-0.0252765	-2.06538	-1.00188	13.0925	-0.017919	-0.113689	-0.0928948	0.612305	0.0969238	-0.80127	0.297569	-0.463763	-0.512767	-0.658366	8.89955	3.84517	-0.0374321	-0.177939	-0.0583326	-0.0184222	-0.992188	-0.0349121	0.0742188	0.400617	-0.598964	-0.431348	-0.542851	9.44726	-1.04099	-1.29318	0.223988	0.0022974	0.00695725	-0.952637	0.429688	0.21582	0.435338	-0.546838	-0.47412	-0.535406	9.714	-0.0606242	-0.767726	0.745212	0.0226071	-0.0079101	-1.01318	0.364502	0.135986	0.505625	-0.587928	-0.46074	-0.431743	9.52472	-2.4298	-0.856479	-0.0853415	-0.0198632	0.0335756	-0.851807	0.588379	0.13623	0.554976	-0.566197	-0.476815	-0.379566	9.39874	-2.44062	-0.823797	-0.0208206	0.00673248	0.0109062	-0.885742	0.696289	0.0637207	
25	0.189964	-0.166533	-0.713822	-0.653176	5.24361	8.07381	-1.01654	0.00850286	-0.0207167	-0.143275	-0.764404	-0.571533	0.0866699	0.424205	-0.106766	-0.550827	-0.710803	6.18755	6.65426	3.59416	0.0456895	0.0569151	-0.0782083	-0.659668	-0.463623	-0.442871	0.846165	0.42395	0.231907	-0.224703	-6.47976	6.91031	5.90529	0.128965	-0.122307	0.0764033	0.800049	-0.433594	-0.394531	0.442925	0.6974	0.187929	-0.531162	-8.72664	4.39245	-0.376048	0.0658909	-0.014563	0.0923394	1.01782	-0.0285645	-0.190674	0.754618	0.564059	0.0804357	-0.325451	-4.91348	8.09068	3.12508	-0.110589	-0.0108514	0.107652	0.780762	-0.521484	-0.367432	0.997323	-0.0675997	0.00710216	-0.0269545	-2.08244	-1.26082	13.1547	0.199828	-0.0925499	-0.110156	0.60376	0.098877	-0.807861	0.298731	-0.461654	-0.514595	-0.657896	8.91658	4.12323	0.225001	0.143678	-0.0378382	-0.0429963	-0.987549	-0.0437012	0.0766602	0.403784	-0.597119	-0.434241	-0.540225	9.86591	-0.0204564	-0.721744	-0.00620569	0.024404	-0.0189904	-0.95459	0.42749	0.21582	0.438421	-0.544702	-0.476811	-0.532671	9.50376	1.62572	0.19987	0.434761	0.000776474	0.0087963	-1.00879	0.371582	0.122559	0.506711	-0.586873	-0.461875	-0.430693	9.55219	-1.8553	-0.991414	0.122225	0.015362	-0.0142708	-0.854004	0.588379	0.131836	0.555695	-0.565837	-0.477121	-0.378665	9.59395	-2.53507	-0.97941	0.110282	-0.0043977	0.00838265	-0.888428	0.702881	0.0637207	
26	0.187875	-0.165302	-0.715878	-0.651841	5.12669	8.48848	-0.944163	0.0923052	-0.0988313	-0.0865917	-0.766602	-0.575928	0.0910645	0.423767	-0.106197	-0.551935	-0.710289	6.48547	6.87335	3.74879	0.0584993	0.0472207	-0.0369392	-0.655273	-0.463623	-0.438232	0.847205	0.424988	0.227459	-0.223363	-5.0642	6.16056	6.21105	0.175799	-0.129049	0.119019	0.802246	-0.440186	-0.394287	0.444723	0.697092	0.18712	-0.530349	-9.05621	4.34429	-0.50081	-0.0870151	-0.0171793	0.146535	1.01123	-0.0310059	-0.184082	0.755038	0.563773	0.0793185	-0.325248	-5.1384	7.69465	3.20387	-0.0117926	-0.0615287	0.0583803	0.7854	-0.525879	-0.374268	0.997354	-0.0668462	0.00382807	-0.0283275	-2.17048	-1.53229	13.2174	0.0373173	-0.114289	-0.0626482	0.601562	0.098877	-0.816406	0.298986	-0.461354	-0.516336	-0.656625	9.1613	4.0413	0.357094	0.175173	-0.0510084	-0.0483299	-0.991943	-0.0371094	0.076416	0.403855	-0.597023	-0.434382	-0.540164	9.53699	0.175535	-0.524015	0.0192899	0.0157887	-0.0207422	-0.952637	0.429688	0.211182	0.438945	-0.54497	-0.47745	-0.531391	9.60335	1.29043	0.0296492	-0.0641977	-0.037203	-0.0246886	-1.01343	0.371582	0.126953	0.507877	-0.585742	-0.463008	-0.429641	9.65704	-1.91635	-1.25592	0.104407	0.0296323	-0.0107232	-0.854004	0.590576	0.129395	0.556542	-0.56502	-0.478215	-0.377259	9.5233	-2.83678	-0.899866	0.122353	-0.0204955	-0.00227411	-0.885986	0.700684	0.059082	
27	0.188402	-0.162449	-0.716867	-0.65132	4.5251	9.02484	-0.58274	0.0237728	0.0480081	-0.0678781	-0.766357	-0.580322	0.0932617	0.422971	-0.106577	-0.552868	-0.709982	6.12548	6.91762	3.78277	-0.0308948	-0.0579609	-0.0337736	-0.659668	-0.463623	-0.43335	0.849527	0.423084	0.225085	-0.220545	-5.68574	6.42814	5.29329	-0.238027	-0.0721133	0.14371	0.793945	-0.452881	-0.403076	0.445987	0.696753	0.185737	-0.530219	-9.15457	4.19682	-0.253328	-0.0235776	-0.0704267	0.131007	1.01611	-0.0351562	-0.188232	0.756323	0.563016	0.0773669	-0.324042	-4.77124	7.98533	3.34021	-0.0567917	0.00354016	0.0798105	0.776611	-0.525879	-0.374268	0.997289	-0.0672984	0.000819225	-0.0297388	-1.83415	-1.46339	13.4612	-0.10158	-0.121246	-0.0647474	0.590576	0.103271	-0.816406	0.298484	-0.461372	-0.517345	-0.656047	8.84272	4.31894	0.383243	-0.00731957	-0.0781575	-0.0279192	-0.991943	-0.0393066	0.0766602	0.399792	-0.600136	-0.430569	-0.542783	9.7858	0.46284	-0.543985	-0.458159	0.0137668	-0.0144918	-0.95459	0.429688	0.2229	0.427344	-0.553909	-0.468345	-0.539643	9.85874	0.143007	-0.62705	-0.841976	-0.0699792	-0.0493577	-1.01294	0.362305	0.140381	0.508069	-0.585846	-0.462421	-0.429903	9.32096	-1.7843	-1.35671	-0.0540426	0.00393328	0.0250079	-0.849609	0.588379	0.129395	0.556274	-0.565253	-0.478808	-0.376552	9.30126	-2.70992	-0.896597	-0.0530548	-0.0359141	0.00227809	-0.883789	0.702881	0.0612793	
28	0.188295	-0.161419	-0.715936	-0.652629	4.6094	8.53486	-0.664727	-0.0562722	0.110283	-0.0506038	-0.762207	-0.57373	0.0825195	0.421816	-0.106428	-0.552852	-0.710703	6.07581	7.26734	3.39132	-0.020503	0.00225268	-0.071511	-0.659668	-0.461426	-0.435791	0.848684	0.425786	0.222575	-0.221138	-6.163	6.73686	5.62883	0.238848	-0.0477463	-0.00590243	0.793945	-0.455078	-0.39624	0.442808	0.698956	0.183986	-0.530594	-8.95593	4.06665	-0.677765	0.192247	0.0325148	-0.0580354	1.01367	-0.0354004	-0.183838	0.756594	0.562617	0.0751538	-0.324622	-4.21949	7.86437	3.58082	0.0386406	-0.0753082	0.0347037	0.772461	-0.530273	-0.374268	0.997309	-0.0668888	-6.26559e-05	-0.0300245	-1.75497	-1.47835	13.219	0.116493	0.030521	-0.0579575	0.590576	0.103271	-0.820801	0.295957	-0.463051	-0.514099	-0.658556	9.20734	4.21915	0.209512	-0.25928	0.0261176	-0.0222186	-0.98999	-0.0371094	0.0744629	0.392662	-0.60617	-0.424413	-0.546121	9.88691	-0.197256	-1.05149	-0.139516	-0.0442166	0.0340949	-0.952393	0.425293	0.234619	0.419196	-0.559812	-0.462722	-0.544769	9.9212	-0.356078	-0.954342	-0.370716	-0.0484504	-0.0425577	-1.0105	0.359863	0.158203	0.505	-0.589071	-0.458955	-0.432818	9.62167	-2.00405	-1.28153	-0.352051	0.014306	0.0435646	-0.854248	0.592773	0.13623	0.554152	-0.567374	-0.477732	-0.377856	9.75385	-2.33907	-1.07824	-0.238775	-0.00542006	0.00458073	-0.885742	0.696289	0.0705566	
29	0.185805	-0.162554	-0.714203	-0.654955	5.1156	8.22631	-0.661828	-0.135032	-0.0796038	-0.0329374	-0.761719	-0.582275	0.0869141	0.419264	-0.108023	-0.549756	-0.714365	6.30464	6.7661	3.58597	-0.211794	0.0173963	-0.124055	-0.664062	-0.461426	-0.44043	0.846479	0.430434	0.220539	-0.222624	-5.46928	6.49017	5.7005	0.302305	-0.0475042	-0.0334216	0.796143	-0.457275	-0.39624	0.441206	0.699773	0.183625	-0.530978	-9.01751	3.87202	-0.787943	0.142456	0.0280984	-0.0485391	1.01343	-0.0288086	-0.186279	0.755215	0.563746	0.0735466	-0.326239	-4.97136	7.90539	3.46413	0.163437	-0.0653555	-0.0910068	0.770264	-0.530273	-0.376709	0.997216	-0.0672747	-0.0015256	-0.0321407	-1.94746	-2.01689	14.048	0.0590044	-0.0435673	-0.127644	0.588379	0.103271	-0.820801	0.293924	-0.464054	-0.510694	-0.661403	9.16867	3.78526	0.361784	-0.161546	0.0287398	-0.0368566	-0.985352	-0.0415039	0.0830078	0.391561	-0.607313	-0.423	-0.546738	9.81984	-0.674441	-1.29634	-0.167655	0.00358624	0.0240023	-0.952148	0.423096	0.22998	0.417045	-0.56178	-0.460533	-0.546247	10.0675	-0.857535	-1.19901	0.0174737	0.00158332	0.00795953	-1.01074	0.362061	0.1604	0.501715	-0.592837	-0.455928	-0.434692	9.70316	-2.36936	-1.08417	-0.18744	-0.011051	0.0435928	-0.858398	0.586182	0.145508	0.551607	-0.570279	-0.475259	-0.380316	9.64885	-2.75739	-0.834268	-0.0939283	0.0319216	0.0100438	-0.88623	0.705078	0.0749512	
30	0.183016	-0.164514	-0.712861	-0.65671	4.9562	8.51476	-0.740874	-0.148807	-0.182149	-0.0293544	-0.759766	-0.577881	0.0825195	0.416718	-0.108613	-0.549157	-0.716223	6.52094	6.65326	3.88828	-0.0797843	-0.0323897	-0.0988275	-0.657715	-0.459229	-0.440674	0.84617	0.431844	0.217504	-0.224053	-5.70298	6.18884	6.06206	0.079782	-0.138602	0.0129203	0.7854	-0.459229	-0.405273	0.43686	0.701167	0.181573	-0.533431	-9.04363	4.17319	-0.368789	0.18889	-0.0586445	-0.0582138	1.01123	-0.0288086	-0.190674	0.751345	0.567375	0.0714484	-0.329335	-5.10647	8.33015	3.15992	0.166011	-0.0549993	-0.0961741	0.778809	-0.528076	-0.378906	0.997628	-0.058699	-0.00125371	-0.0359205	-2.19609	-0.37466	13.0188	0.304506	0.0392216	-0.167416	0.592773	0.098877	-0.824951	0.293727	-0.46356	-0.510248	-0.662181	8.93155	3.55034	0.0454012	-0.0364417	0.0690305	-0.0480298	-0.987793	-0.0371094	0.0722656	0.392787	-0.606883	-0.42452	-0.545155	9.68358	0.312229	-1.07583	0.064848	0.00149982	-0.0171144	-0.952393	0.42749	0.234619	0.420525	-0.559403	-0.463512	-0.543492	9.81512	1.00816	-0.263931	0.0417511	0.00769791	0.000919994	-1.01074	0.362061	0.156006	0.50198	-0.593076	-0.455	-0.435031	9.67476	-2.14187	-1.0409	-0.0194644	0.0331747	0.0255987	-0.854004	0.590576	0.145264	0.550482	-0.57154	-0.474317	-0.381229	9.559	-2.34719	-0.674319	-0.166773	0.00854555	0.0119753	-0.883789	0.698486	0.0773926	
31	0.182044	-0.165289	-0.712378	-0.657311	4.51553	8.1604	-0.673183	0.00771646	-0.0612396	0.00275264	-0.76416	-0.580322	0.0847168	0.415064	-0.110161	-0.54927	-0.716861	6.05605	6.68988	3.72935	-0.0322162	-0.118644	-0.0302785	-0.659424	-0.470215	-0.440186	0.846042	0.432768	0.214727	-0.225425	-5.73938	6.97896	6.08607	-0.00700414	-0.102999	0.00389038	0.787598	-0.459229	-0.407471	0.437649	0.700653	0.179407	-0.534193	-8.8403	4.24409	-0.522187	0.0895235	-0.0816678	0.0814636	1.01367	-0.0310059	-0.184082	0.750606	0.567371	0.0694728	-0.331441	-4.86127	7.82466	3.00479	0.0560029	-0.0900949	-0.012179	0.768311	-0.532471	-0.381348	0.997585	-0.0570084	-0.00179162	-0.0396352	-2.06462	-1.26446	13.0008	0.0895804	0.0122216	-0.171356	0.590576	0.101074	-0.822754	0.294737	-0.462222	-0.510634	-0.66237	8.64689	4.24893	0.840293	0.124698	0.0811486	-0.0195416	-0.987549	-0.0415039	0.0766602	0.393632	-0.606502	-0.425793	-0.543975	9.61156	-0.607167	-1.15411	0.14162	-0.0328915	-0.017849	-0.950439	0.429688	0.234375	0.42379	-0.557242	-0.465336	-0.541614	9.84264	-0.0844741	-0.763312	0.401446	0.0486657	-0.0107689	-1.01318	0.364258	0.156006	0.502841	-0.592394	-0.455254	-0.4347	9.23084	-2.12547	-1.31496	0.0319404	0.0143793	0.006442	-0.852051	0.592773	0.140869	0.551118	-0.570672	-0.475387	-0.380276	9.26472	-2.47318	-1.11404	-0.0436351	-0.00777311	-0.00335591	-0.88623	0.702881	0.0727539	
32	0.181564	-0.165947	-0.712862	-0.656753	5.21698	8.20661	-0.926256	0.0413569	-0.0801009	0.0112435	-0.76416	-0.578125	0.0891113	0.414742	-0.1109	-0.549804	-0.716524	6.39355	6.77229	3.787	0.0107116	-0.0633055	0.00130155	-0.661621	-0.46582	-0.435791	0.846042	0.432768	0.214727	-0.225425	-5.73938	6.97896	6.08607	-0.00700414	-0.102999	0.00389038	0.787598	-0.459229	-0.407471	0.437636	0.700694	0.177624	-0.534745	-8.97441	4.63564	-0.926801	0.0898416	-0.088391	0.082668	1.01147	-0.032959	-0.195068	0.750596	0.567103	0.0683084	-0.332165	-4.84748	8.06804	3.1965	0.0162647	-0.101334	-0.00636388	0.772461	-0.530273	-0.388184	0.99755	-0.0566333	-0.00201807	-0.0410139	-2.04002	-1.07291	12.8723	0.0331091	0.00203664	-0.130864	0.592773	0.103271	-0.822998	0.294115	-0.463219	-0.512342	-0.660629	9.09004	4.07831	0.383109	0.132575	-0.0321722	-0.0161617	-0.989502	-0.0458984	0.0788574	0.395288	-0.60559	-0.427437	-0.5425	9.69586	0.0487422	-0.921708	0.234916	-0.010715	-0.00838521	-0.956787	0.42749	0.227539	0.425959	-0.555594	-0.466874	-0.54028	9.64421	0.933012	-0.178058	0.275448	0.0462753	-0.0105837	-1.00635	0.369141	0.140381	0.503143	-0.59205	-0.455563	-0.434496	9.38566	-1.81522	-1.36301	0.0488905	0.0124312	-0.0060438	-0.856201	0.588379	0.145508	0.551558	-0.570203	-0.475601	-0.380074	9.4445	-3.03829	-1.1103	0.0579652	0.0187372	-0.00963257	-0.890381	0.698486	0.0705566	
33	0.180801	-0.164785	-0.713861	-0.656171	4.51452	8.05626	-0.669099	0.0563082	-0.104026	-0.0731145	-0.759521	-0.584473	0.0913086	0.414682	-0.112029	-0.551078	-0.715402	6.26793	6.97077	3.72129	0.0383502	-0.0823015	0.0186216	-0.661865	-0.463623	-0.428711	0.846873	0.431681	0.211417	-0.227511	-5.71808	6.32995	5.84047	-0.0381242	-0.130985	-0.00253247	0.783203	-0.463623	-0.414062	0.438066	0.699841	0.173382	-0.536898	-9.128	4.4131	-0.357142	0.0877686	-0.0954881	0.043159	1.01147	-0.032959	-0.195068	0.752133	0.564601	0.0655508	-0.333504	-4.64736	7.88974	3.67345	-0.0150993	-0.0892842	-0.0344002	0.768066	-0.528076	-0.388184	0.997279	-0.0598195	-0.003545	-0.0429272	-1.93114	-1.77583	13.4682	-0.100119	-0.0511639	-0.0911498	0.585938	0.107666	-0.822998	0.294461	-0.463446	-0.513915	-0.659091	8.97766	4.12905	0.208798	0.0695242	-0.0413101	-0.018769	-0.989746	-0.0415039	0.0808105	0.395243	-0.605658	-0.427395	-0.542489	9.78784	-0.140404	-0.83941	-0.0787696	0.0154518	-0.0110466	-0.950439	0.429443	0.236816	0.425609	-0.555836	-0.465679	-0.541338	10.0127	0.384104	-0.414992	-0.0602302	0.0231921	-0.0186247	-1.01562	0.371338	0.142578	0.503233	-0.592127	-0.45548	-0.434373	9.59088	-2.09399	-1.23047	0.0132668	0.0159486	0.00697832	-0.851807	0.588379	0.145508	0.550978	-0.570816	-0.474907	-0.380861	9.45764	-2.65198	-0.892965	-0.114823	0.00894082	-0.000963885	-0.88623	0.705078	0.0703125	
34	0.181573	-0.163822	-0.71646	-0.65336	4.49159	8.8124	-0.700468	0.149711	0.0603045	-0.00208518	-0.761963	-0.580322	0.0932617	0.413964	-0.113754	-0.551791	-0.714997	6.23177	6.92882	3.51725	-0.00858092	-0.0536518	-0.00615455	-0.664062	-0.463623	-0.428711	0.846811	0.432662	0.208995	-0.228113	-5.52119	7.34953	5.88936	0.12749	-0.049315	-0.0191588	0.7854	-0.46582	-0.416504	0.4395	0.698756	0.172849	-0.537311	-8.98859	4.63171	-0.346039	-0.0856423	-0.10508	0.0647176	1.01172	-0.0373535	-0.201416	0.752133	0.564601	0.0655508	-0.333504	-4.64736	7.88974	3.67345	-0.0150993	-0.0892842	-0.0344002	0.768066	-0.528076	-0.388184	0.997159	-0.0606819	-0.00394945	-0.0444521	-1.79472	-1.44709	13.2069	-0.0577575	0.0147346	-0.085555	0.585693	0.116211	-0.823242	0.29436	-0.463626	-0.514426	-0.658611	9.0423	4.17418	0.652509	0.0532804	-0.0323178	-0.0214047	-0.985352	-0.0437012	0.0788574	0.395351	-0.605825	-0.427295	-0.542303	9.63046	-0.0858291	-0.86241	0.00657134	0.00731493	0.00524732	-0.943604	0.425293	0.227539	0.42487	-0.556515	-0.464588	-0.542158	9.80826	0.314288	-0.621916	-0.128514	0.0218942	-0.00624078	-1.0127	0.357666	0.151611	0.503258	-0.592215	-0.45486	-0.434874	9.55932	-1.74992	-0.98092	-0.0668067	0.0205108	0.0171765	-0.851807	0.590576	0.138428	0.55186	-0.570089	-0.475009	-0.380547	9.60491	-2.17639	-1.06887	0.0163051	0.0259478	0.00326798	-0.883789	0.698486	0.0705566	
35	0.178865	-0.16509	-0.716641	-0.653588	5.11731	8.36151	-1.05525	-0.0410188	-0.0952774	-0.0297854	-0.759521	-0.58252	0.0998535	0.412242	-0.115322	-0.551759	-0.715765	6.36914	6.9189	3.58273	-0.0738096	-0.0476401	-0.0538065	-0.670654	-0.457031	-0.431152	0.849126	0.42813	0.209023	-0.228032	-5.43326	5.69167	5.82614	-0.138637	-0.0417724	-0.00810487	0.781006	-0.461182	-0.418701	0.438913	0.698809	0.171735	-0.538079	-8.99357	4.23461	-0.443001	0.0402985	0.00189741	0.00932636	1.00928	-0.032959	-0.203857	0.752835	0.562711	0.0636263	-0.335481	-4.27376	7.75014	3.72563	-0.068401	-0.0892404	-0.0495686	0.765625	-0.525635	-0.397217	0.99697	-0.0626097	-0.00383135	-0.0460039	-1.77052	-2.18121	13.0885	-0.0144354	0.0255825	-0.0735737	0.590088	0.114014	-0.823242	0.294447	-0.462937	-0.513476	-0.659797	8.99841	4.07109	0.433591	-0.0382946	0.0797368	-0.0219395	-0.989746	-0.0393066	0.0830078	0.395292	-0.606068	-0.427231	-0.542125	9.76381	-0.17485	-0.789436	0.00958622	0.00106683	-0.0129394	-0.946045	0.429688	0.234375	0.426697	-0.555236	-0.465761	-0.541026	9.77113	0.57668	-0.266044	0.135259	0.0179368	-0.010644	-1.0061	0.364502	0.144775	0.502673	-0.592891	-0.454145	-0.435377	9.43352	-1.98475	-1.19582	-0.0257036	0.0129568	0.0174054	-0.847412	0.588379	0.143066	0.551427	-0.570657	-0.474079	-0.38148	9.42053	-2.78398	-1.03985	0.0116443	0.0378283	0.000196249	-0.888184	0.698486	0.0705566	
36	0.177148	-0.166987	-0.716401	-0.653838	4.71065	8.37836	-0.867796	-0.0554917	-0.201104	0.00174716	-0.759766	-0.580322	0.0976562	0.411172	-0.116508	-0.550994	-0.716777	6.39544	6.94964	3.51689	-0.065574	-0.0198628	-0.0458401	-0.664307	-0.454834	-0.428955	0.847944	0.430131	0.20749	-0.230058	-5.3076	6.74896	5.95524	0.0825417	-0.103018	-0.0395671	0.7854	-0.459229	-0.421143	0.438381	0.698838	0.171423	-0.538573	-8.66226	4.12108	-0.25653	0.0720503	5.97489e-05	-0.0249065	1.01611	-0.0373535	-0.203613	0.752101	0.56353	0.0620018	-0.336058	-4.80587	8.31778	3.70445	0.0716089	-0.037115	-0.0109461	0.763672	-0.530273	-0.39502	0.996904	-0.062582	-0.00301539	-0.0475095	-2.05393	-1.73389	13.0898	-0.0028604	0.0402389	-0.0811214	0.592041	0.120605	-0.821289	0.29484	-0.462338	-0.513007	-0.660407	9.05753	4.22029	0.392705	-0.0309965	0.0456773	-0.0238852	-0.98291	-0.0456543	0.0766602	0.395153	-0.606389	-0.427032	-0.542024	9.61112	0.116893	-0.698108	-0.0330938	-0.000623975	-0.00174128	-0.950439	0.429688	0.234375	0.425689	-0.556219	-0.464782	-0.541652	9.86761	0.225676	-0.478298	-0.0958819	-0.00690042	-0.0159868	-1.01318	0.366699	0.151611	0.501392	-0.594218	-0.452753	-0.436492	9.6081	-1.80284	-1.15751	-0.129026	0.0286102	0.0107942	-0.854248	0.592773	0.1521	0.550429	-0.571841	-0.472881	-0.382635	9.48908	-2.70804	-0.828373	-0.116582	0.0192029	0.00285047	-0.881592	0.700684	0.0749512	
37	0.176391	-0.168373	-0.716306	-0.653791	4.37453	8.76558	-0.844517	-0.0301143	-0.0721752	0.0258218	-0.757568	-0.580322	0.102051	0.409486	-0.117586	-0.550177	-0.718192	6.26276	6.8738	3.57674	-0.0838719	-0.041058	-0.0536461	-0.668701	-0.457031	-0.426514	0.846364	0.432379	0.206908	-0.232177	-5.6796	7.07988	5.86609	0.111591	-0.0216386	-0.0792901	0.785156	-0.457031	-0.418945	0.436174	0.700279	0.16974	-0.539027	-8.79051	4.66612	-0.144705	0.0815513	0.00350101	0.00546406	1.00952	-0.0395508	-0.205811	0.752364	0.562819	0.061658	-0.336722	-4.54721	7.83698	3.4415	0.0297886	-0.0138775	-0.0190895	0.763672	-0.530029	-0.397217	0.996847	-0.0623176	-0.00326681	-0.0490029	-1.70591	-1.28282	13.5224	-0.00773307	0.00424561	-0.0738219	0.589844	0.120605	-0.821289	0.295794	-0.461567	-0.512676	-0.660776	8.96007	3.93666	0.455142	0.0822269	0.0506071	0.00158995	-0.987549	-0.0415039	0.0744629	0.39332	-0.608256	-0.425079	-0.542799	9.65451	-0.19784	-0.961916	-0.112458	-0.00699515	0.00983215	-0.948242	0.431641	0.236816	0.422684	-0.558524	-0.461975	-0.544031	9.75062	0.293294	-0.501458	-0.229822	-0.000888235	-0.020617	-1.00854	0.368896	0.153809	0.49992	-0.595906	-0.451085	-0.437605	9.40708	-2.34334	-0.631335	-0.105701	0.00241056	0.0247805	-0.849609	0.590576	0.1521	0.549176	-0.57321	-0.471577	-0.383994	9.3656	-2.61268	-0.946815	-0.110091	0.0171971	0.0053812	-0.883789	0.700684	0.0795898	
38	0.175086	-0.170735	-0.715431	-0.654487	4.96936	8.18471	-1.14927	-0.0305979	-0.0300225	0.0448081	-0.75708	-0.58667	0.102051	0.409022	-0.118231	-0.548844	-0.719369	6.25531	6.92651	3.59585	-0.119083	0.0283208	-0.0171373	-0.672607	-0.463623	-0.42627	0.846722	0.431378	0.207376	-0.232314	-5.54018	6.22826	5.85535	0.0722484	0.0513504	-0.0375389	0.783203	-0.463379	-0.416504	0.435176	0.700078	0.169774	-0.540083	-8.97325	4.2061	-0.482228	0.0526873	-0.00374157	-0.0401246	1.01147	-0.0351562	-0.203857	0.75166	0.563152	0.0609364	-0.337867	-4.38097	8.28608	3.39976	-0.0205951	-0.0203146	-0.0329898	0.765625	-0.525635	-0.39502	0.996778	-0.0624595	-0.00190572	-0.0502851	-1.7225	-1.97505	13.1564	0.0241532	0.0753151	-0.0590723	0.587646	0.120605	-0.821289	0.296834	-0.460394	-0.511927	-0.661708	9.07256	4.08716	0.65553	-0.0201818	0.124271	-0.00311653	-0.991943	-0.0415039	0.0766602	0.392297	-0.609359	-0.424478	-0.542774	9.84878	-0.125891	-0.965429	-0.0455316	-0.00915241	-0.0103153	-0.945557	0.420898	0.241699	0.420563	-0.560128	-0.46025	-0.545485	9.99144	0.483821	-0.39907	-0.08503	-0.00200779	-0.0228522	-1.00854	0.366699	0.158203	0.49884	-0.596916	-0.449407	-0.439185	9.44666	-1.51541	-1.10432	-0.082446	0.0533608	0.0170231	-0.851807	0.588379	0.149902	0.548637	-0.573588	-0.471532	-0.384254	9.47145	-2.41789	-1.05505	-0.029317	-0.00327088	-0.0131064	-0.883789	0.698486	0.0820312	
39	0.174193	-0.172223	-0.714823	-0.654999	4.9515	8.35715	-1.11308	-0.0685875	-0.043465	-0.0136011	-0.755127	-0.584473	0.102051	0.408464	-0.119516	-0.548445	-0.719778	6.57848	6.78087	3.74982	-0.040353	-0.0272767	-0.0112961	-0.668701	-0.454834	-0.426758	0.845869	0.432211	0.206793	-0.234385	-5.48463	6.05937	6.24901	0.02316	-0.0639813	-0.0351257	0.785156	-0.457031	-0.416748	0.433293	0.700235	0.170069	-0.541298	-8.92564	3.97719	-0.268021	-0.000928185	-0.0169436	-0.0565762	1.01147	-0.0351562	-0.20166	0.750507	0.563617	0.0609049	-0.339656	-4.48627	7.74751	3.57506	0.126944	0.00667703	-0.108201	0.763672	-0.530273	-0.39502	0.996788	-0.0621881	-0.00156524	-0.0504428	-1.94895	-1.89306	13.471	0.0419321	0.0376562	-0.0318532	0.589844	0.122803	-0.823486	0.299256	-0.458712	-0.512009	-0.661722	9.18302	3.8453	0.330132	0.0921776	0.132484	0.00240282	-0.991943	-0.0393066	0.0637207	0.39185	-0.609455	-0.42461	-0.542886	9.47988	-0.179721	-1.06809	0.0122463	-0.00157748	-0.0235992	-0.947998	0.427246	0.241455	0.419017	-0.561096	-0.45915	-0.546604	9.79319	0.17825	-0.613844	-0.0877523	-0.00280505	-0.0296617	-1.00854	0.364258	0.162842	0.496469	-0.59933	-0.447837	-0.440186	9.60603	-2.54175	-1.15458	-0.119893	-0.0145645	0.00999347	-0.852051	0.592773	0.1521	0.545736	-0.576498	-0.469354	-0.386691	9.49615	-2.77748	-0.997591	-0.208076	0.00747883	0.00468942	-0.883789	0.698486	0.0910645	
40	0.174134	-0.173167	-0.714844	-0.654743	5.04285	8.25408	-1.06278	0.0331373	-0.0476248	0.0544791	-0.755371	-0.580322	0.102051	0.408698	-0.12117	-0.547941	-0.719753	6.45967	6.8185	3.7279	-0.0120906	-0.0627501	0.0280383	-0.668945	-0.450439	-0.422119	0.84623	0.430707	0.207511	-0.235214	-5.45224	6.81121	5.83434	-0.205522	0.00260438	-0.0506284	0.787354	-0.450684	-0.412354	0.433293	0.699721	0.169337	-0.542193	-8.46669	4.60026	-0.189286	0.0290766	-0.0562495	-0.00840993	1.01392	-0.0373535	-0.208008	0.751283	0.562176	0.061495	-0.340221	-5.05796	7.92886	3.32087	-0.134884	-0.0406156	-0.0458437	0.763672	-0.530029	-0.399414	0.996916	-0.0594356	-0.000558387	-0.0512431	-2.0724	-0.941285	13.2691	0.0814937	0.0334485	-0.039955	0.594238	0.118408	-0.819092	0.301942	-0.456548	-0.510447	-0.663204	9.28106	3.9607	0.790434	0.00440727	0.118284	0.0214761	-0.987793	-0.0371094	0.0529785	0.392033	-0.60954	-0.424575	-0.542685	9.74886	-0.344842	-1.06302	0.0620713	0.016204	-0.0204829	-0.946045	0.429443	0.243896	0.419746	-0.560541	-0.459603	-0.546235	9.80928	0.42673	-0.531891	0.133743	0.021851	-0.0225695	-1.01514	0.357422	0.151611	0.497316	-0.598639	-0.448455	-0.439541	9.52638	-1.81894	-0.930805	0.0986659	-0.00321496	0.00210247	-0.849609	0.592773	0.154541	0.546015	-0.57617	-0.469834	-0.3862	9.55951	-2.50461	-1.03122	0.0153237	-0.00758652	-0.00677026	-0.88623	0.705078	0.088623	
41	0.175209	-0.173042	-0.715194	-0.654107	5.13776	8.23554	-1.11218	0.0713641	0.05051	0.0505815	-0.762207	-0.57373	0.101807	0.408996	-0.121541	-0.547867	-0.719577	6.5769	6.45458	3.57966	-0.0132611	0.00641858	0.020572	-0.673096	-0.452637	-0.424316	0.847113	0.429511	0.207031	-0.234645	-5.25179	5.38516	6.12666	-0.09071	-0.0548272	0.0348071	0.785156	-0.452637	-0.418945	0.43424	0.698424	0.16958	-0.543031	-8.88002	4.14999	-0.416092	-0.0938888	-0.102944	-0.0177762	1.01147	-0.0351562	-0.212646	0.749715	0.563578	0.0615534	-0.341348	-4.75257	7.63861	3.29366	0.155678	0.00664274	-0.120282	0.767822	-0.52124	-0.401855	0.996908	-0.0594953	-0.000428811	-0.0513184	-2.05802	-1.4162	13.2638	-0.0023833	0.0228847	-0.0251982	0.591797	0.125	-0.821533	0.304862	-0.453979	-0.509908	-0.664045	9.30395	3.57366	0.397866	0.120272	0.310006	0.0335046	-0.994141	-0.0393066	0.0446777	0.392033	-0.60954	-0.424575	-0.542685	9.74886	-0.344842	-1.06302	0.0620713	0.016204	-0.0204829	-0.946045	0.429443	0.243896	0.420441	-0.559936	-0.46028	-0.54575	9.78791	0.523869	-0.43184	0.10445	0.0126914	-0.0253786	-1.00391	0.369141	0.153809	0.497331	-0.598443	-0.448987	-0.439248	9.56183	-2.28713	-1.22091	0.0404477	-0.0161615	-0.0179586	-0.844971	0.588379	0.152344	0.546537	-0.575538	-0.470454	-0.38565	9.57208	-2.78154	-1.07452	0.0951493	-0.00683386	-0.0166999	-0.881592	0.700684	0.088623	
42	0.175998	-0.172495	-0.715463	-0.653745	4.66261	8.09741	-0.917807	0.026034	-0.0712963	0.0176067	-0.759766	-0.580322	0.104248	0.41029	-0.122923	-0.549053	-0.7177	6.32159	6.74042	3.78188	0.0671186	-0.0430774	0.0716994	-0.675293	-0.452637	-0.424316	0.848211	0.427828	0.20696	-0.233815	-5.26024	7.23999	5.91061	-0.225735	-0.0175131	0.00984091	0.782959	-0.448242	-0.423828	0.436397	0.696063	0.168632	-0.544625	-8.62128	4.33159	-0.095338	-0.0521928	-0.103436	0.0373633	1.00928	-0.032959	-0.219238	0.75151	0.560931	0.0619436	-0.34169	-4.62864	7.71312	3.58409	-0.248138	-0.0298936	-0.00874933	0.767822	-0.523438	-0.401855	0.996843	-0.0602812	0.000336712	-0.051673	-2.07911	-1.72895	12.8322	-0.0391958	0.0295841	-0.0212449	0.598145	0.127197	-0.817139	0.310486	-0.449718	-0.511953	-0.662764	8.92681	4.12138	0.828396	0.306685	0.142592	0.0126683	-0.98584	-0.0349121	0.0339355	0.393863	-0.607413	-0.427099	-0.541763	9.65946	-0.105623	-1.09409	0.135289	0.0119475	-0.0318467	-0.948486	0.436035	0.236572	0.422336	-0.55833	-0.461839	-0.544614	9.77972	0.407096	-0.406225	0.14744	0.0308408	-0.0260556	-1.00879	0.371338	0.151367	0.499352	-0.596517	-0.451174	-0.437329	9.35308	-1.98265	-1.04114	0.197348	-0.0128416	-0.00698698	-0.845215	0.590576	0.1521	0.547405	-0.574598	-0.471403	-0.384662	9.30462	-2.76533	-0.947408	0.0686629	-0.0135995	-0.00641243	-0.883789	0.702881	0.0749512	
43	0.179401	-0.171376	-0.716901	-0.651535	4.55344	8.44105	-0.789174	0.112051	0.149067	0.0420292	-0.76416	-0.580322	0.104004	0.411909	-0.123392	-0.548882	-0.716822	6.29054	6.91801	3.57891	0.0137244	0.0364405	0.0582754	-0.670898	-0.452637	-0.426758	0.849389	0.4255	0.207348	-0.233443	-5.58766	6.31076	5.82778	0.0751033	-0.0076826	-0.0386545	0.787109	-0.448486	-0.426025	0.438199	0.694596	0.168405	-0.545122	-8.98427	4.15781	-0.166037	-0.0678865	-0.0522487	0.0344802	1.00488	-0.0351562	-0.221436	0.75064	0.562027	0.061389	-0.341901	-4.49753	8.18817	3.79259	0.0836469	-0.00866036	0.0212605	0.769775	-0.52124	-0.401855	0.996743	-0.0618894	0.000777981	-0.0517054	-2.00885	-1.99867	13.017	-0.0587875	0.0308415	-0.0236081	0.593994	0.122803	-0.823486	0.313554	-0.447029	-0.512825	-0.662465	9.09917	4.13243	0.547575	0.171298	0.134072	-0.00213837	-0.988037	-0.0327148	0.0273438	0.395423	-0.606024	-0.428563	-0.541026	9.7067	-0.296908	-0.990567	0.146001	0.0159692	-0.0262786	-0.948242	0.429688	0.232178	0.42499	-0.556399	-0.46326	-0.543318	10.0672	-0.295356	-1.0155	0.270182	0.0525676	-0.00844052	-1.0061	0.366943	0.138184	0.501404	-0.594455	-0.453291	-0.435596	9.67651	-1.74685	-1.19503	0.155325	-0.00142266	-0.0143689	-0.849609	0.592773	0.145264	0.549555	-0.572476	-0.473169	-0.382585	9.66468	-2.31211	-1.07456	0.129443	-0.00944956	-0.00729119	-0.883545	0.696289	0.0795898	
44	0.179843	-0.169948	-0.71735	-0.651293	4.799	8.26177	-0.859233	0.0391114	0.0885015	-0.0466481	-0.762207	-0.575928	0.0998535	0.412784	-0.123576	-0.548211	-0.7168	6.33961	6.71426	3.54012	-0.0540099	0.08466	0.00450547	-0.67334	-0.443848	-0.424561	0.849454	0.42528	0.207474	-0.233492	-5.26995	5.65299	5.89065	0.0125309	-0.00165363	-0.00666015	0.785156	-0.448242	-0.428223	0.438084	0.694475	0.168578	-0.545315	-8.74821	4.08686	-0.177051	0.0349275	0.020687	-0.0173277	1.00928	-0.0351562	-0.223633	0.751086	0.561498	0.0626638	-0.341559	-4.58008	7.72344	3.44662	0.0189305	0.0545694	-0.041523	0.772217	-0.523438	-0.399414	0.996796	-0.0613969	0.00138883	-0.0512402	-1.84408	-1.69729	13.1173	0.035729	0.0495803	0.00584593	0.596191	0.120605	-0.817139	0.316197	-0.444053	-0.513133	-0.662972	8.99801	4.08951	0.759959	0.0895338	0.1435	-0.0108317	-0.998779	-0.0305176	0.0251465	0.398057	-0.604161	-0.431314	-0.538988	9.72508	0.466111	-0.571531	0.159908	0.0262847	-0.0206862	-0.952637	0.431885	0.229736	0.428537	-0.553662	-0.465977	-0.541	9.71037	0.881578	-0.00771411	0.0976524	0.0134227	-0.00850531	-1.01074	0.362305	0.138184	0.501734	-0.593958	-0.454254	-0.434891	9.58846	-1.9305	-1.20131	0.0306663	0.0135856	-0.011031	-0.854004	0.590576	0.140869	0.550073	-0.571986	-0.473791	-0.381804	9.45271	-2.65994	-0.873551	0.0941604	-0.0093855	-0.00245085	-0.890625	0.700684	0.0795898	
45	0.179091	-0.169361	-0.717422	-0.651574	4.87886	8.06229	-0.98777	-0.00733553	-0.0275957	-0.0209049	-0.762207	-0.575928	0.104004	0.413068	-0.124522	-0.548296	-0.716408	6.48403	6.62067	3.60034	0.00844933	-0.0199234	0.00713771	-0.679932	-0.444092	-0.424561	0.849528	0.425334	0.2077	-0.232926	-5.21635	6.6827	6.09477	-0.125047	0.0045582	0.0185581	0.789307	-0.448486	-0.423828	0.439059	0.693525	0.169973	-0.545307	-8.55172	4.21878	-0.151322	-0.104017	0.00247131	-0.0241169	1.00928	-0.032959	-0.223633	0.751138	0.561652	0.0630579	-0.341119	-4.81941	7.82028	3.36052	0.00663502	0.0300633	-0.0257894	0.767822	-0.52124	-0.401855	0.996839	-0.061611	0.00201531	-0.050129	-1.98883	-1.2935	13.0169	-0.0235963	0.0319955	0.0436391	0.598389	0.122803	-0.819336	0.31997	-0.440509	-0.512605	-0.663933	8.8639	4.20754	0.866673	0.0953606	0.225301	0.00561669	-0.994385	-0.0349121	0.0146484	0.397912	-0.603819	-0.431038	-0.539699	9.62129	-0.199198	-0.848827	-0.019196	0.0331102	-0.0309275	-0.946289	0.434082	0.227295	0.428832	-0.553615	-0.466691	-0.540198	9.7302	0.235111	-0.306459	0.0869644	-0.0264235	-0.0205473	-1.01538	0.362305	0.138184	0.502454	-0.593302	-0.454546	-0.434649	9.48302	-1.84597	-1.26753	0.0292605	0.0204589	0.00770401	-0.852051	0.594971	0.140625	0.550264	-0.57178	-0.474405	-0.381073	9.47719	-2.6762	-1.06574	0.00462709	-0.00925362	0.00508965	-0.892822	0.702881	0.0795898	
46	0.181082	-0.168472	-0.71838	-0.650197	4.51997	8.57904	-0.86769	0.0487818	0.0545471	0.0254055	-0.759766	-0.578125	0.0998535	0.41369	-0.125118	-0.547868	-0.716273	6.24519	6.78378	3.60775	-0.0182933	-0.0119214	0.0214228	-0.679932	-0.44165	-0.415283	0.850797	0.423034	0.208661	-0.231617	-5.65653	6.98	5.95958	-0.063378	0.0303848	0.00815249	0.784912	-0.444092	-0.426025	0.440641	0.692333	0.170619	-0.545343	-8.82869	4.37158	-0.193899	-0.0991699	-0.0199478	0.0245927	1.00464	-0.0307617	-0.217041	0.751529	0.561139	0.063393	-0.341039	-4.31561	7.62087	3.58391	0.0130438	0.0489032	-0.00557802	0.77002	-0.523438	-0.399414	0.996773	-0.0631482	0.00265749	-0.049489	-1.96162	-1.50679	13.0559	-0.0612529	0.0271885	0.0171306	0.593994	0.125	-0.814941	0.322549	-0.438616	-0.51135	-0.664905	9.09996	3.94076	0.808383	0.0722041	0.163473	0.0403843	-0.994385	-0.0327148	0.00830078	0.398009	-0.603731	-0.430363	-0.540265	9.69698	0.13505	-0.713028	-0.0803732	0.0492693	-0.00958078	-0.95459	0.42749	0.232178	0.42562	-0.556104	-0.464864	-0.541755	9.67262	0.673094	-0.0844151	-0.295738	-0.0494073	-0.0385112	-1.0061	0.366699	0.153809	0.501421	-0.594226	-0.453439	-0.435736	9.20888	-1.58862	-1.36361	-0.137454	0.00664598	0.000156182	-0.849854	0.594971	0.149902	0.548881	-0.573292	-0.473354	-0.382102	9.45319	-2.6114	-1.14281	-0.19071	0.00920721	0.00736671	-0.881592	0.705078	0.0795898	
47	0.180986	-0.168526	-0.718693	-0.649864	4.80113	8.38369	-0.997792	0.0333051	-0.0212194	-0.0039443	-0.760254	-0.571533	0.104004	0.414838	-0.125218	-0.546758	-0.71644	6.44096	6.94172	3.66257	-0.0718959	0.0907608	0.0264841	-0.673584	-0.439697	-0.422363	0.851528	0.421515	0.209324	-0.231104	-5.22547	6.24412	5.77462	-0.138211	0.0288084	-0.00635958	0.787109	-0.444092	-0.426025	0.44129	0.691676	0.171066	-0.545513	-9.21839	4.06509	-0.383961	-0.0421356	-0.012063	-0.00682926	1.00928	-0.032959	-0.221436	0.753141	0.559361	0.0631131	-0.340456	-4.63453	8.12745	3.60111	-0.0916205	-0.0285349	0.00250756	0.767578	-0.516846	-0.406494	0.996656	-0.0653591	0.00328419	-0.0489376	-2.00657	-1.80132	13.1778	-0.107495	0.000760993	0.00706972	0.595947	0.131348	-0.815186	0.324594	-0.437074	-0.50925	-0.666535	9.16212	4.14282	1.06155	-0.0561026	0.136281	0.0108174	-0.990479	-0.0283203	0.00170898	0.393942	-0.606825	-0.426471	-0.542858	9.702	-0.257631	-1.26067	-0.321923	-0.00823399	0.0169427	-0.95459	0.427246	0.239258	0.417574	-0.562193	-0.457999	-0.547547	10.0978	-0.198925	-1.07584	-0.472197	-0.0132823	-0.0269721	-1.00854	0.364502	0.1604	0.499402	-0.596278	-0.452099	-0.436642	9.60149	-2.09696	-1.19326	-0.119948	-0.00272754	0.0222045	-0.858643	0.594727	0.154297	0.548725	-0.573555	-0.472913	-0.382477	9.58668	-2.92717	-1.1481	-0.0431947	0.0290796	0.00442648	-0.888184	0.700684	0.0795898	
48	0.181867	-0.168935	-0.718306	-0.64994	4.88256	8.69627	-0.793901	-0.062635	-0.0139941	0.0544479	-0.764404	-0.57373	0.0976562	0.415059	-0.12551	-0.545925	-0.716896	6.31141	6.57542	3.69918	-0.0826759	0.0390841	-0.000635927	-0.671631	-0.435303	-0.427246	0.850631	0.422576	0.209957	-0.231895	-5.85957	6.99827	5.71255	0.0399047	0.0422443	-0.0748241	0.784912	-0.446045	-0.426025	0.439488	0.6923	0.171288	-0.546106	-9.02926	4.04988	-0.402375	0.0855937	0.0364033	-0.0694321	1.00903	-0.0263672	-0.219238	0.752174	0.560371	0.0635695	-0.340849	-4.73351	7.98484	3.66311	0.0854811	0.00744132	-0.0397479	0.767822	-0.52124	-0.399414	0.996674	-0.0646481	0.00444603	-0.0494059	-1.92269	-1.75163	13.4188	0.0770548	0.097943	-0.0374554	0.598389	0.122803	-0.817139	0.325829	-0.436058	-0.506429	-0.668743	9.09114	3.59208	0.627392	-0.0486647	0.113386	0.00279689	-0.990723	-0.0239258	-0.0109863	0.392696	-0.607682	-0.425223	-0.543781	9.79485	-0.766089	-1.16045	0.0170831	0.0356168	-0.0159974	-0.95459	0.429443	0.236816	0.416525	-0.563027	-0.457162	-0.548188	9.94718	-0.254242	-1.01854	0.0563569	-0.000873368	-0.00823318	-1.00366	0.359863	0.160645	0.498825	-0.597071	-0.451602	-0.436733	9.73873	-2.37093	-0.853953	0.034009	-0.00181674	0.0103128	-0.856445	0.592773	0.149902	0.546754	-0.575636	-0.471131	-0.384368	9.39971	-2.966	-0.83852	-0.169642	0.0133923	0.00596331	-0.888184	0.698486	0.0842285	
49	0.183375	-0.16864	-0.716866	-0.651182	4.85356	8.422	-0.872611	-0.0607803	0.067835	0.029989	-0.764404	-0.57373	0.0976562	0.414944	-0.126049	-0.544646	-0.71784	6.44765	6.76864	3.67706	-0.0920763	0.0274564	-0.0185705	-0.68042	-0.433105	-0.42749	0.84898	0.425212	0.209656	-0.233394	-5.8617	6.12576	5.98567	0.308864	0.0148017	-0.0588894	0.789307	-0.444092	-0.414795	0.437831	0.692315	0.171468	-0.547359	-8.87305	4.01406	0.000793152	0.0568801	-0.0304301	-0.0539321	1.00684	-0.0285645	-0.22583	0.752244	0.560057	0.0636395	-0.341198	-4.83721	8.15855	3.3705	-0.0248798	-0.0126308	-0.0372491	0.767578	-0.519043	-0.406494	0.996749	-0.0630981	0.00537428	-0.0498018	-2.135	-1.28685	12.9889	0.123144	0.0951688	-0.0455875	0.598389	0.122803	-0.817139	0.328274	-0.433597	-0.505293	-0.670007	8.98129	3.79109	1.01938	0.0903603	0.18428	0.00610475	-0.99292	-0.0195312	-0.0153809	0.39564	-0.605409	-0.428066	-0.541948	9.57661	0.168901	-0.997684	0.186983	0.0332191	-0.0340699	-0.947998	0.42749	0.232178	0.418629	-0.561447	-0.459119	-0.546568	9.85591	0.487994	-0.519688	0.298433	0.0136127	-0.0196044	-1.01318	0.364258	0.1604	0.499609	-0.596425	-0.452102	-0.436201	9.67035	-2.17639	-1.12946	0.102228	0.0170681	0.004114	-0.849854	0.594971	0.147461	0.547556	-0.574825	-0.471939	-0.383447	9.57761	-2.23581	-0.807602	0.0778501	-0.013383	-0.00618125	-0.883789	0.700684	0.0817871	
50	0.183726	-0.170187	-0.715974	-0.651661	5.30621	7.99889	-0.914962	-0.00235903	0.0627037	0.0557838	-0.766846	-0.571777	0.0996094	0.41494	-0.126469	-0.544611	-0.717795	6.47347	6.59236	3.65989	0.0284812	-0.00305532	-0.00147157	-0.676025	-0.430908	-0.42749	0.848663	0.425087	0.209631	-0.234792	-5.23671	6.08896	6.23691	-0.0781411	-0.0294343	-0.0531002	0.787109	-0.446289	-0.421387	0.436929	0.692613	0.170699	-0.547943	-8.70262	4.02124	-0.148954	0.104912	-0.0286166	-0.0120323	1.00903	-0.026123	-0.228027	0.750595	0.561282	0.0645261	-0.342645	-4.47552	7.6677	3.39744	0.0956494	0.038164	-0.0969124	0.767578	-0.516846	-0.397217	0.9968	-0.0611237	0.00594009	-0.0511622	-1.83946	-1.79777	13.3148	0.154695	0.0771246	-0.081464	0.600342	0.127197	-0.810791	0.329285	-0.432539	-0.505561	-0.669992	8.98731	3.66329	0.965823	0.0923239	0.100624	-0.0136871	-0.986328	-0.0239258	-0.0195312	0.396513	-0.604712	-0.428686	-0.541599	9.62581	0.167989	-1.00056	0.107432	0.0400764	-0.0208533	-0.952393	0.429443	0.234375	0.421359	-0.559523	-0.461086	-0.544785	9.92057	0.264981	-0.697396	0.19708	0.0348217	-0.0122527	-1.00854	0.366699	0.146973	0.501374	-0.594772	-0.453248	-0.435243	9.44947	-1.72274	-1.18685	0.0961659	0.0210354	-0.00357638	-0.847656	0.594971	0.147461	0.548623	-0.573694	-0.47334	-0.381888	9.47615	-2.4914	-1.05586	0.165833	-0.0239287	-0.0120622	-0.885986	0.698486	0.0795898	
51	0.183616	-0.170804	-0.715675	-0.651859	5.10876	8.03011	-0.852806	-0.0187658	-0.10569	0.0051832	-0.76001	-0.571533	0.095459	0.415091	-0.127354	-0.544617	-0.717547	6.34639	6.60001	3.55782	0.00100578	-0.0160522	-0.00368423	-0.676025	-0.435303	-0.432129	0.848811	0.424557	0.20978	-0.235082	-5.29201	6.32336	5.91396	-0.0285117	-0.00550717	-0.037839	0.787354	-0.448486	-0.421387	0.438511	0.69079	0.171136	-0.548843	-8.64664	4.12313	0.0203918	-0.115089	-0.0634213	-0.0238192	1.00659	-0.0239258	-0.230469	0.750181	0.561112	0.0652746	-0.343686	-5.33309	7.92826	3.23561	-0.0325927	-0.000370583	-0.105847	0.771973	-0.516846	-0.392578	0.996829	-0.0604337	0.00655253	-0.0513483	-2.39394	-1.33132	12.9322	-0.0679449	-0.00697002	0.00467473	0.602783	0.122803	-0.814941	0.331406	-0.430594	-0.505907	-0.669938	8.88591	4.17174	1.38488	0.00755916	-0.005919	0.0139373	-0.990723	-0.0239258	-0.0131836	0.397395	-0.604014	-0.429899	-0.540768	9.67779	-0.131206	-0.746804	0.0914051	0.00382121	-0.0257267	-0.948242	0.431885	0.232178	0.422076	-0.558648	-0.461326	-0.544925	9.72226	0.481104	-0.378894	0.0358719	0.0339713	-0.0182657	-1.00854	0.366699	0.153809	0.502936	-0.593285	-0.454123	-0.434558	9.3842	-2.0246	-1.31654	0.130093	0.0540843	-0.00398809	-0.849854	0.592773	0.13623	0.549264	-0.572903	-0.474449	-0.380775	9.43857	-2.77111	-1.31393	0.152279	-0.00662666	-0.0115431	-0.888184	0.698486	0.0820312	
52	0.185529	-0.169437	-0.716265	-0.651026	4.16662	8.22755	-0.63388	0.0642688	0.00440488	-0.007332	-0.764648	-0.567383	0.095459	0.415617	-0.128422	-0.545822	-0.716135	6.35851	6.78977	3.86974	0.0258793	-0.0417398	0.0481031	-0.68042	-0.435303	-0.425049	0.850661	0.42146	0.210406	-0.233405	-5.66249	6.63343	5.75817	0.0801346	0.027051	0.0127097	0.784912	-0.443848	-0.430664	0.438937	0.689948	0.171162	-0.549554	-8.97286	4.04589	-0.078191	-0.0159158	-0.0215905	0.0073044	1.0022	-0.0263672	-0.230225	0.749968	0.561172	0.0649134	-0.344123	-4.76232	7.91076	3.63812	-0.00587163	0.00850863	0.038959	0.769775	-0.516846	-0.401855	0.996906	-0.0596818	0.00721143	-0.0506443	-2.24627	-1.12008	12.853	0.0457837	0.0428796	0.000926726	0.602783	0.118408	-0.810547	0.333557	-0.428945	-0.50608	-0.669798	8.94671	3.83058	0.75742	0.149342	0.109475	0.0217116	-0.997314	-0.0217285	-0.0280762	0.397075	-0.604153	-0.429389	-0.541254	9.69715	0.0898649	-0.737958	-0.0480928	0.0444357	-0.0169653	-0.952637	0.429688	0.232178	0.421377	-0.558965	-0.460978	-0.545434	9.62547	0.688967	-0.106692	-0.0764125	-0.00978735	-0.0322325	-1.01294	0.359863	0.151611	0.502225	-0.59388	-0.45373	-0.434976	9.40706	-1.9235	-1.185	-0.108447	-0.00402121	0.00206495	-0.854248	0.594971	0.143066	0.548418	-0.57375	-0.473695	-0.381657	9.47442	-2.9233	-1.1751	-0.090068	0.0207603	-0.00234261	-0.890625	0.702881	0.0842285	
53	0.185691	-0.169761	-0.717648	-0.64937	5.32283	8.67823	-0.941388	0.0766908	0.0815125	0.0304032	-0.766846	-0.567383	0.0974121	0.416059	-0.129211	-0.545508	-0.715975	6.33603	6.64972	3.51922	-0.0308334	0.0127291	0.0127565	-0.682861	-0.428711	-0.422852	0.850601	0.421119	0.210481	-0.234169	-5.77425	6.22784	6.02653	0.0477617	0.00548063	-0.0744353	0.787109	-0.4375	-0.42627	0.4397	0.689411	0.171402	-0.549544	-9.25628	4.11508	-0.399408	-0.0344856	-0.00994405	0.00722285	1.00244	-0.0285645	-0.230225	0.750767	0.559949	0.0654141	-0.344278	-4.37214	7.37945	3.55426	-0.0649418	-0.0250674	-0.000493329	0.771729	-0.514648	-0.401855	0.996799	-0.0616054	0.00769689	-0.0503752	-1.92023	-1.9231	13.1548	-0.00878866	0.0553814	-0.0311328	0.602783	0.122803	-0.810547	0.33404	-0.428591	-0.504718	-0.670811	9.10899	4.06276	1.40594	-0.063716	0.0804727	0.00746791	-0.990723	-0.0239258	-0.026123	0.396451	-0.604623	-0.427833	-0.542417	9.73593	-0.088828	-0.933821	-0.0746002	0.036629	0.00125951	-0.948242	0.431885	0.229736	0.418243	-0.561513	-0.458073	-0.547673	9.92401	0.292532	-0.705295	-0.175006	-0.00316278	-0.0176662	-1.0105	0.359863	0.156006	0.502474	-0.593684	-0.453582	-0.435112	9.52549	-1.72192	-1.05802	0.00981401	0.0360956	0.00915286	-0.854492	0.597168	0.142822	0.548734	-0.573548	-0.473443	-0.381818	9.46701	-2.23889	-0.858847	-0.0942162	0.0175232	0.00413087	-0.888428	0.702881	0.0842285	
54	0.185922	-0.1706	-0.71614	-0.650747	4.94276	8.31124	-0.928917	-0.111867	-0.0390922	0.0322823	-0.769043	-0.567383	0.0974121	0.415353	-0.130138	-0.544819	-0.716742	6.56158	6.70624	3.70625	-0.0742392	0.0147226	-0.0446997	-0.678223	-0.433105	-0.42041	0.850271	0.420321	0.211911	-0.235505	-5.63224	5.77554	5.53835	-0.0304643	0.02918	-0.085265	0.793457	-0.435547	-0.428711	0.438245	0.689781	0.171194	-0.550305	-8.7711	3.98667	-0.0305242	0.0290435	0.0118759	-0.0573772	1.00903	-0.0283203	-0.228027	0.750476	0.559864	0.0654909	-0.345035	-4.90315	7.87948	3.62368	0.0108884	-0.00998065	-0.106903	0.769775	-0.516846	-0.399414	0.996658	-0.063375	0.00903223	-0.0507456	-2.04875	-1.70406	13.2591	-0.112935	0.0604572	-0.0232026	0.604736	0.127197	-0.810791	0.334399	-0.427729	-0.501534	-0.673565	9.04136	3.98073	1.30235	-0.15646	0.132957	-0.0131324	-0.984375	-0.0195312	-0.0283203	0.396275	-0.604812	-0.427518	-0.542583	9.68815	-0.229958	-0.924058	0.0126518	0.0174421	-0.00398839	-0.948242	0.431885	0.232178	0.418198	-0.561698	-0.457705	-0.547824	9.95707	0.190159	-0.490688	0.0926811	0.0104624	-0.0112578	-1.01099	0.368896	0.156006	0.501834	-0.594412	-0.452562	-0.435918	9.51164	-1.93364	-1.02174	-0.0513344	0.0351359	0.0116841	-0.854004	0.590576	0.145264	0.548495	-0.573891	-0.473025	-0.382165	9.56268	-2.89187	-1.03317	-0.0483117	0.0212671	0.00541394	-0.885986	0.700684	0.0842285	
55	0.186381	-0.171077	-0.714436	-0.652362	4.5134	8.43503	-0.60328	-0.113007	-0.00108543	-0.00466022	-0.764404	-0.571533	0.0910645	0.414514	-0.131367	-0.5427	-0.718608	6.54139	6.55543	3.79465	-0.13804	0.000127384	-0.0352685	-0.678467	-0.428711	-0.425293	0.848581	0.423096	0.211535	-0.236964	-5.38471	6.46718	5.86056	0.149377	0.000521162	-0.0432717	0.793457	-0.437744	-0.421631	0.436223	0.690065	0.171399	-0.551491	-8.59811	3.94931	-0.131459	0.133013	-0.00156089	-0.0685669	1.00439	-0.0239258	-0.232666	0.749192	0.561122	0.0652357	-0.345828	-4.87652	8.06809	3.55761	0.112771	0.0424692	-0.0488701	0.771729	-0.514648	-0.406494	0.996762	-0.0603745	0.0105438	-0.052046	-2.19009	-1.40632	12.9729	0.170529	0.0699212	-0.0630926	0.609375	0.120605	-0.80835	0.334436	-0.427157	-0.498317	-0.676291	8.98937	3.80924	1.18934	-0.113473	0.119061	-0.00928912	-0.98877	-0.0195312	-0.0388184	0.396232	-0.605008	-0.427251	-0.542606	9.71069	0.0867789	-0.685686	-0.0555831	0.0210978	-0.0128867	-0.95459	0.429688	0.232178	0.417474	-0.562398	-0.456857	-0.548367	9.83342	0.329303	-0.379758	-0.0724663	-0.000750554	-0.0140457	-1.00854	0.364258	0.165039	0.500937	-0.595235	-0.451819	-0.436597	9.38767	-2.09646	-1.28025	-0.123495	0.0125465	0.00942947	-0.852051	0.592773	0.149902	0.548135	-0.574615	-0.471824	-0.383077	9.47534	-3.06327	-1.00714	-0.0356527	0.0182526	0.00496556	-0.883789	0.702881	0.0817871	
56	0.185191	-0.171888	-0.713621	-0.653379	4.97169	7.88525	-0.863306	-0.128945	-0.0881533	-0.0223241	-0.764404	-0.571533	0.0976562	0.413719	-0.131851	-0.541338	-0.720004	6.34016	6.68215	3.65246	-0.108753	-0.00427463	-0.0479277	-0.678467	-0.424316	-0.427734	0.848314	0.423545	0.211215	-0.237405	-5.50672	6.4116	5.95872	0.0628498	-0.01687	-0.0230602	0.787109	-0.435303	-0.424072	0.435055	0.690093	0.171877	-0.552229	-8.88664	3.83093	-0.0465666	0.00412225	-0.00562099	-0.0392917	1.00854	-0.0195312	-0.228271	0.747936	0.561808	0.06529	-0.347421	-4.49961	7.54479	3.29248	0.0563252	-0.0161433	-0.0419496	0.771729	-0.514648	-0.399414	0.996777	-0.0592773	0.0108525	-0.0529612	-1.9719	-1.67961	13.0079	0.065705	0.0496046	-0.0612683	0.606934	0.122803	-0.812744	0.33366	-0.427266	-0.495006	-0.679032	9.03362	4.08953	1.42461	-0.172772	0.0732866	-0.00526268	-0.995117	-0.0195312	-0.0410156	0.394747	-0.606271	-0.425387	-0.543743	9.7787	-0.206758	-0.973981	-0.11284	0.0249043	0.000357718	-0.952637	0.431641	0.232178	0.415849	-0.563818	-0.455451	-0.549312	9.89263	0.316292	-0.482069	-0.114645	-0.00776947	-0.0166224	-1.01074	0.366699	0.158203	0.500424	-0.596167	-0.449967	-0.437824	9.46073	-1.78436	-1.11156	-0.113402	0.0302427	0.0146795	-0.849609	0.592773	0.147705	0.548522	-0.574337	-0.471743	-0.383039	9.48897	-2.38134	-1.07116	0.032101	0.0313282	0.00245676	-0.87915	0.698486	0.0888672	
57	0.185425	-0.172896	-0.713542	-0.653132	4.87537	8.59445	-0.804246	-0.0289787	-0.059326	0.0446064	-0.766602	-0.57373	0.095459	0.413438	-0.132319	-0.540562	-0.720662	6.64368	6.4199	3.84212	-0.0997675	0.00635357	-0.0292524	-0.680908	-0.422119	-0.430176	0.848381	0.423289	0.210982	-0.237827	-5.4057	6.07947	5.79279	0.0115672	-0.0172912	-0.00868036	0.793457	-0.437744	-0.424072	0.434426	0.690257	0.171652	-0.552589	-8.91437	4.14945	-0.371979	0.0587332	-0.00757254	-0.024204	1.00635	-0.0195312	-0.237061	0.747603	0.562007	0.0648614	-0.347896	-5.20868	7.97491	3.52626	0.0386779	-0.0318687	-0.0311816	0.767334	-0.514648	-0.401855	0.996821	-0.0581482	0.0111508	-0.0533204	-2.33793	-1.16393	13.016	0.0922212	0.0433025	-0.0449919	0.607178	0.120605	-0.804199	0.333557	-0.427406	-0.493886	-0.679809	9.03785	3.6372	1.27657	-0.0845026	0.0555391	0.00149424	-0.99292	-0.0217285	-0.0410156	0.394249	-0.606753	-0.424685	-0.544115	9.62925	-0.249778	-1.05471	-0.0785808	0.0187154	0.00112144	-0.950439	0.429688	0.229736	0.415042	-0.564518	-0.454655	-0.549862	9.84502	0.248418	-0.672642	-0.109362	-0.00354768	-0.0125156	-1.0083	0.362061	0.162842	0.499508	-0.597095	-0.449103	-0.438493	9.47614	-1.89529	-1.15407	-0.132478	0.012603	0.0183427	-0.852051	0.597168	0.147461	0.547408	-0.575588	-0.470515	-0.384263	9.50287	-2.90107	-1.06545	-0.0481085	0.0266927	0.00361844	-0.888428	0.705078	0.0817871	
58	0.185878	-0.17335	-0.712122	-0.654432	4.50953	8.36214	-0.628047	-0.0704628	0.00311042	0.0223362	-0.77124	-0.567383	0.0952148	0.413252	-0.132529	-0.540133	-0.721051	6.32828	6.64412	3.79101	-0.0315784	-0.0255389	-0.0201093	-0.680908	-0.422119	-0.427734	0.848019	0.423403	0.21105	-0.238854	-5.75492	6.59802	5.97256	0.0228593	-0.0075598	-0.0416878	0.79126	-0.431152	-0.426514	0.434068	0.689977	0.171195	-0.553362	-8.73293	3.8347	-0.0417139	0.0603414	-0.021473	-0.0105466	0.999756	-0.0175781	-0.234863	0.746769	0.562419	0.064566	-0.349073	-4.79754	7.78962	3.29427	0.0133796	-0.00307843	-0.0169431	0.769531	-0.510254	-0.397217	0.996751	-0.0582698	0.0113574	-0.0544267	-2.05347	-1.36671	13.1847	0.0112469	0.0425439	-0.0700779	0.606934	0.122803	-0.806396	0.333356	-0.427512	-0.491374	-0.681659	8.98876	3.78102	1.36322	-0.0956561	0.0765332	0.0085075	-0.99292	-0.0195312	-0.0473633	0.393714	-0.607322	-0.423745	-0.544601	9.76687	-0.410678	-1.17558	-0.0561541	0.0364213	-0.00645054	-0.95459	0.429443	0.236816	0.415443	-0.564494	-0.454423	-0.549776	9.91185	-0.154341	-0.984374	0.0962336	0.0239915	-0.00138686	-1.0083	0.362061	0.158203	0.499263	-0.597506	-0.448518	-0.438811	9.54599	-2.26234	-1.30134	0.00967165	0.0204419	0.00758004	-0.847412	0.590576	0.149902	0.547164	-0.576015	-0.469833	-0.384805	9.47247	-2.76072	-0.866512	-0.0560874	0.0181526	0.00454398	-0.881592	0.705078	0.088623	
59	0.185311	-0.175026	-0.712058	-0.654217	5.17762	7.91549	-0.904683	0.0410296	0.0171357	0.0202553	-0.771484	-0.565186	0.0910645	0.413333	-0.13291	-0.540048	-0.720999	6.39435	6.69721	3.65696	-0.00369431	0.0278138	-0.00209775	-0.678467	-0.428711	-0.42749	0.847734	0.423746	0.210186	-0.240017	-5.7275	6.45742	6.16158	0.124341	-0.0371198	-0.0385273	0.789062	-0.43335	-0.424072	0.434136	0.689738	0.170663	-0.553771	-9.13091	4.05781	-0.155933	-0.0240313	-0.0419347	0.0194036	1.00879	-0.0217285	-0.237061	0.745938	0.562596	0.0639422	-0.350676	-4.45633	7.75348	3.59517	0.0751909	-0.0288357	-0.0770346	0.773682	-0.508057	-0.401855	0.996722	-0.0578158	0.0116804	-0.0553643	-2.15651	-1.75595	13.1383	0.0741757	0.0295392	-0.0682489	0.611328	0.122803	-0.812744	0.333546	-0.427395	-0.489946	-0.682667	9.11159	3.71944	1.40451	-0.0059294	0.0436861	0.00148148	-0.990723	-0.0239258	-0.0515137	0.396615	-0.605235	-0.426379	-0.54276	9.69154	0.102206	-0.983336	0.253223	0.0255163	-0.0187485	-0.954834	0.433838	0.229736	0.421243	-0.560225	-0.459004	-0.54591	9.94017	0.574558	-0.549123	0.307243	0.0428675	-0.00449246	-1.00586	0.359863	0.153809	0.500415	-0.59667	-0.449009	-0.438133	9.51066	-2.01162	-1.06001	0.0159281	-0.00466976	0.00679939	-0.847412	0.592773	0.143066	0.548159	-0.575191	-0.470116	-0.384275	9.57543	-2.37757	-1.04586	0.0161385	0.0208058	0.00281499	-0.884033	0.705078	0.0864258	
60	0.184295	-0.176263	-0.713233	-0.65289	5.35725	8.0566	-1.08878	0.0704602	-0.129955	0.0151525	-0.769043	-0.56958	0.0996094	0.413843	-0.133535	-0.54063	-0.720154	6.606	6.48511	3.88401	0.0131914	0.018801	0.0242137	-0.685059	-0.424316	-0.418213	0.848621	0.421919	0.209987	-0.240277	-5.16121	6.13712	6.02514	-0.052866	-0.0462656	-0.0234487	0.786865	-0.428955	-0.424316	0.434455	0.689531	0.169523	-0.554128	-8.95677	4.49221	-0.123469	-0.0147579	-0.00649249	0.0480634	1.00659	-0.0239258	-0.234863	0.74579	0.562941	0.0639275	-0.350439	-4.76393	8.08393	3.42766	0.0240418	0.0282988	-0.000561276	0.773682	-0.510254	-0.401855	0.996644	-0.0584512	0.0117805	-0.0560857	-2.23035	-1.81845	13.2482	-0.0630282	0.010593	-0.0270843	0.606689	0.129395	-0.804443	0.334335	-0.426796	-0.489629	-0.682882	9.03728	3.95807	1.75838	0.00507587	0.0339625	-0.000980883	-0.986328	-0.0236816	-0.0473633	0.398936	-0.60375	-0.428285	-0.54121	9.74829	-0.0442671	-0.646233	0.142759	0.0137215	-0.0163654	-0.948242	0.429688	0.232178	0.425314	-0.557162	-0.461568	-0.543721	9.70943	0.591291	-0.187375	0.227762	0.0529586	-0.0135401	-1.00854	0.366943	0.142578	0.501359	-0.595803	-0.449281	-0.437954	9.33092	-1.73951	-1.07819	0.0744733	0.0433706	0.00130051	-0.849609	0.592773	0.145264	0.548659	-0.574768	-0.47019	-0.384105	9.30332	-2.61771	-0.949847	0.0599612	0.0136031	-0.00430864	-0.88623	0.705078	0.0864258	
61	0.185987	-0.175255	-0.714184	-0.651641	4.45181	8.52435	-0.688132	0.0338041	-0.0172767	0.00128053	-0.775879	-0.565186	0.0974121	0.414643	-0.134518	-0.541549	-0.718819	6.55106	6.58971	3.87145	0.0205497	-0.0647301	0.0484375	-0.682861	-0.424316	-0.427734	0.84867	0.421312	0.21067	-0.240571	-5.86701	6.21839	5.70256	-0.117675	0.00451156	-0.00570407	0.79126	-0.431152	-0.426514	0.434974	0.688712	0.169567	-0.554726	-8.57848	4.07485	0.141549	-0.00363366	-0.032813	-0.0378811	1.00635	-0.017334	-0.239258	0.746471	0.561707	0.06435	-0.350892	-4.97185	8.16653	3.42203	-0.0926681	0.0139225	0.0157751	0.773926	-0.512451	-0.401855	0.996619	-0.0591255	0.0127575	-0.0556063	-2.06899	-1.20707	13.2866	-0.0751381	0.0456257	0.0253472	0.609131	0.127197	-0.800049	0.335715	-0.426483	-0.489851	-0.682242	9.13056	3.80697	1.43668	0.122422	0.0404978	0.018998	-0.98877	-0.017334	-0.0495605	0.399446	-0.603206	-0.428491	-0.541276	9.77494	-0.0479939	-0.737696	-0.00632132	0.0416808	-0.0165036	-0.952637	0.434082	0.222656	0.426339	-0.556538	-0.462064	-0.543136	9.83925	0.425287	-0.220757	0.0344377	0.0081855	-0.0127347	-1.00854	0.369141	0.146973	0.501912	-0.595417	-0.449827	-0.437286	9.50685	-2.22133	-0.933103	0.039893	-0.00203858	0.00340749	-0.847412	0.590576	0.147705	0.549216	-0.574414	-0.4702	-0.383826	9.39738	-2.61835	-0.9666	0.0144931	0.0117607	0.00219192	-0.879395	0.702881	0.0817871	
62	0.187113	-0.174742	-0.715108	-0.650442	4.74627	8.32131	-0.858359	0.0953415	0.0964597	0.0370081	-0.769287	-0.565186	0.0952148	0.415096	-0.134944	-0.541466	-0.71854	6.43864	6.56178	3.66016	-0.00998741	0.00782854	0.03503	-0.685059	-0.426514	-0.422852	0.848734	0.421278	0.210283	-0.240743	-5.17505	5.84367	6.09196	0.0152526	-0.0269704	-0.00418124	0.786865	-0.426758	-0.428955	0.435911	0.687992	0.170315	-0.554654	-8.94236	3.99664	-0.0756364	-0.107294	-0.00982921	-0.00524262	1.00439	-0.0239258	-0.237061	0.746269	0.561151	0.0649728	-0.352094	-4.49832	7.58715	3.75534	0.0489164	0.00234418	-0.0612394	0.773682	-0.505859	-0.408691	0.996612	-0.0596524	0.0133629	-0.0550281	-2.11946	-1.39096	13.0699	0.03011	0.0417745	-0.016058	0.611328	0.125	-0.800049	0.33621	-0.427302	-0.489638	-0.681638	9.17362	3.85421	1.64905	0.00080572	-0.0123045	0.0213619	-0.989014	-0.0151367	-0.0495605	0.399643	-0.603062	-0.428451	-0.541324	9.62957	-0.0850178	-0.773492	0.0144754	0.0330133	-0.0118807	-0.957031	0.431885	0.225098	0.425254	-0.557576	-0.460847	-0.543956	9.9819	0.473186	-0.38472	-0.11926	0.00355705	-0.00561559	-1.00635	0.371338	0.142578	0.503135	-0.594447	-0.450212	-0.436803	9.59647	-1.47952	-0.963968	0.0793658	0.0466833	0.018314	-0.847656	0.597168	0.140625	0.549856	-0.573979	-0.470411	-0.383301	9.56436	-2.50396	-1.044	0.0542251	0.0100177	0.00470824	-0.881592	0.702881	0.0817871	
63	0.187332	-0.175999	-0.715707	-0.64938	5.35421	8.56995	-1.16227	0.00935974	0.00689173	0.0334484	-0.773682	-0.565186	0.104004	0.416237	-0.13521	-0.541653	-0.717689	6.50701	6.46101	3.58222	-0.0227781	0.073821	0.0408727	-0.687256	-0.424316	-0.420654	0.849902	0.418618	0.211223	-0.240438	-5.75052	6.43498	5.93913	-0.0780137	0.00338443	-0.0130894	0.791016	-0.426758	-0.43335	0.437184	0.686298	0.170361	-0.555736	-9.04017	3.9317	-0.234324	-0.0239017	-0.0240482	0.0103449	1.00439	-0.0239258	-0.239258	0.746547	0.560586	0.065696	-0.352271	-4.67824	7.95676	3.44333	-0.0653075	-0.00260484	-0.0358238	0.778076	-0.508057	-0.410889	0.99661	-0.0592156	0.0141531	-0.0553306	-2.13723	-1.77914	12.9177	0.00664032	0.0373059	-0.0269239	0.608887	0.129395	-0.800049	0.337644	-0.42703	-0.48978	-0.680997	8.85486	3.59748	1.41812	-0.00224175	0.0265207	0.0308402	-0.993164	-0.0151367	-0.0495605	0.399175	-0.603043	-0.427734	-0.542256	9.51371	-0.0829022	-0.74884	-0.00139567	0.0280457	-0.027831	-0.950439	0.431885	0.229736	0.423258	-0.559167	-0.458932	-0.545496	9.77418	0.293714	-0.479217	-0.161069	-0.0014494	-0.0158853	-1.01074	0.364502	0.151611	0.501756	-0.59567	-0.449558	-0.437397	9.46776	-2.3605	-1.3317	-0.0876947	-0.0197143	-0.00221114	-0.849854	0.597168	0.142822	0.549327	-0.574678	-0.469738	-0.383837	9.48668	-2.96846	-1.04226	0.00412976	0.0194479	0.00514261	-0.881592	0.700684	0.0795898	
64	0.188048	-0.175778	-0.715279	-0.649704	4.76352	8.20107	-0.844392	-0.0275289	0.0597712	0.0229512	-0.769287	-0.565186	0.101807	0.416832	-0.135507	-0.542094	-0.716954	6.28296	6.64582	3.64423	0.0449907	-0.00173115	0.0466847	-0.683105	-0.422119	-0.427734	0.849303	0.419459	0.211383	-0.240948	-5.63	6.37826	5.98122	0.101299	0.0170028	-0.0527772	0.789062	-0.426758	-0.426514	0.437255	0.685643	0.170498	-0.556446	-8.87034	4.28521	0.158919	-0.0124327	-0.0186073	-0.0371786	1.00195	-0.017334	-0.24585	0.747602	0.559274	0.0664008	-0.351987	-5.10789	7.85558	3.46965	-0.0519966	-0.00971065	-0.0111659	0.775635	-0.501465	-0.406494	0.996603	-0.0592932	0.0145936	-0.0552523	-2.09499	-1.25478	13.046	-0.0047331	0.0474874	-0.00998805	0.611328	0.122803	-0.800049	0.338591	-0.427562	-0.489656	-0.680282	9.15945	4.01922	1.57429	0.0128829	0.00690151	0.0318169	-0.987061	-0.0107422	-0.0539551	0.399109	-0.603402	-0.427421	-0.542153	9.7734	-0.242354	-1.0589	0.00442238	0.0133862	-0.00353627	-0.955078	0.436035	0.227295	0.42321	-0.559239	-0.458693	-0.545661	9.76813	0.242635	-0.390116	0.0527443	0.0117121	-0.0225602	-1.00635	0.369141	0.14917	0.502343	-0.595229	-0.449922	-0.436948	9.51971	-2.2154	-0.836397	0.0768812	0.0120914	0.00783541	-0.852051	0.594971	0.138428	0.549581	-0.57456	-0.469687	-0.383713	9.35986	-2.6122	-0.921903	0.0231991	0.0161434	0.00708785	-0.881592	0.705078	0.0795898	
65	0.189922	-0.175836	-0.715406	-0.649003	5.00935	8.32329	-0.836451	0.049426	0.105538	0.0539712	-0.776123	-0.558838	0.0996094	0.417738	-0.136307	-0.540755	-0.717286	6.64786	6.4271	3.66673	-0.0808196	0.0774272	0.0321213	-0.689697	-0.419922	-0.423096	0.848846	0.42001	0.211866	-0.241174	-5.62645	6.2697	6.10813	0.0699211	0.0378695	-0.0383547	0.789062	-0.426758	-0.424316	0.437883	0.684542	0.17081	-0.557211	-8.76448	4.22998	0.206378	-0.0350593	-0.0543945	-0.0144801	1.00415	-0.017334	-0.24585	0.748266	0.558085	0.0671148	-0.352327	-4.70774	7.82405	3.7045	-0.0527386	0.04569	-0.0297039	0.775635	-0.499268	-0.408691	0.996496	-0.061194	0.0163712	-0.0546175	-2.14528	-1.51524	13.2216	0.0042588	0.0735633	-0.0149893	0.613037	0.133545	-0.804443	0.339128	-0.428326	-0.489352	-0.679753	9.05772	3.70445	1.55206	0.012094	-0.0204615	0.0282916	-0.987061	-0.0107422	-0.0517578	0.399228	-0.603506	-0.427209	-0.542117	9.74757	-0.000712807	-0.679118	-0.0035157	0.0149128	-0.00910153	-0.950439	0.429688	0.225098	0.422334	-0.560169	-0.457605	-0.546298	9.8257	0.400877	-0.346362	-0.091826	-0.00138664	-0.00912697	-1.00879	0.371338	0.156006	0.502997	-0.595157	-0.449692	-0.436532	9.40467	-1.9453	-1.06521	-0.0266868	0.00475459	0.0197827	-0.849854	0.597168	0.147461	0.550125	-0.574236	-0.469856	-0.383212	9.53209	-2.69974	-0.928807	0.0332735	0.00320729	0.00722326	-0.884033	0.705078	0.0817871	
66	0.189721	-0.176598	-0.715455	-0.648802	5.0736	7.8404	-0.983788	0.0238937	-0.0770526	0.0111275	-0.776367	-0.556641	0.101562	0.41878	-0.136768	-0.540645	-0.716673	6.57411	6.67392	3.73153	-0.0184543	0.0195929	0.019416	-0.6875	-0.415527	-0.418457	0.85048	0.416018	0.213462	-0.24093	-5.39114	5.8316	5.87263	-0.254719	0.0180577	-0.0232521	0.793213	-0.42041	-0.426758	0.43793	0.684107	0.171244	-0.557575	-8.61976	3.96581	0.199097	-0.0286343	-0.0202678	-0.039229	1.00415	-0.017334	-0.24585	0.748339	0.55772	0.0678276	-0.352615	-4.98656	7.82769	3.42436	-0.0460506	0.0275801	-0.0620636	0.777832	-0.503662	-0.410889	0.996485	-0.0613326	0.0168505	-0.0545119	-2.22437	-1.69026	13.0602	-0.00993061	0.0502116	-0.00744663	0.617432	0.131592	-0.800293	0.339725	-0.428671	-0.489461	-0.679159	9.05372	3.89931	1.65189	0.0544508	-0.00808925	0.042707	-0.991455	-0.0065918	-0.052002	0.399107	-0.603513	-0.427258	-0.54216	9.75941	-0.265957	-0.753137	-0.000963244	0.0125761	-0.0244065	-0.950684	0.434082	0.222656	0.421817	-0.560697	-0.45725	-0.546454	9.79444	0.418543	-0.243763	-0.0556558	-0.0172039	-0.0126805	-1.01123	0.373535	0.1604	0.502555	-0.595387	-0.449612	-0.436808	9.34107	-1.83919	-1.21533	-0.0397399	0.00417321	-0.0119208	-0.854248	0.594971	0.147461	0.549582	-0.575106	-0.469126	-0.38358	9.3968	-2.58857	-0.95084	-0.0652013	0.00478551	0.012051	-0.881592	0.702881	0.0817871	
67	0.19218	-0.176243	-0.716318	-0.64722	4.69766	8.57089	-0.806005	0.046858	0.0470354	0.0631184	-0.776123	-0.558838	0.101562	0.419747	-0.137918	-0.540098	-0.7163	6.56814	6.24195	3.80607	-0.00593412	-0.0469883	0.0464025	-0.6875	-0.415527	-0.425537	0.849033	0.418703	0.213278	-0.241542	-5.72872	6.13517	5.91568	0.13186	0.0198737	-0.0167068	0.795166	-0.42041	-0.431396	0.43848	0.683156	0.172127	-0.558038	-8.81943	4.10426	-0.0259001	-0.0566509	-0.0180319	-0.0247019	0.999756	-0.0195312	-0.243652	0.748208	0.557449	0.0684776	-0.353194	-5.03215	7.79661	3.58132	-0.0128118	0.0188794	-0.0289099	0.779785	-0.49707	-0.415527	0.996573	-0.0599941	0.018355	-0.0539077	-2.44944	-0.862487	12.9313	0.0356381	0.0763596	0.0137768	0.617432	0.131592	-0.798096	0.339725	-0.430868	-0.487769	-0.678986	9.09874	3.51106	1.1528	-0.00752297	-0.023681	0.0625374	-0.993896	0	-0.0478516	0.399183	-0.603336	-0.427133	-0.542399	9.76274	-0.102963	-0.834728	-0.000437634	0.0422174	-0.0202522	-0.954834	0.433838	0.232178	0.419536	-0.562781	-0.455604	-0.547442	9.81687	0.351307	-0.446572	-0.139157	-0.0349235	-0.0102014	-1.00415	0.371338	0.1604	0.501927	-0.596014	-0.449646	-0.436641	9.58948	-2.40989	-0.966907	-0.0153129	-0.0145963	0.0179459	-0.849854	0.594971	0.138428	0.55062	-0.574445	-0.469353	-0.382803	9.40687	-2.51083	-0.818425	0.0177021	0.00556777	0.0152721	-0.881836	0.709473	0.0793457	
68	0.193599	-0.176996	-0.715926	-0.647025	5.06027	8.17636	-0.887854	-0.0172645	0.0775725	0.0557315	-0.780762	-0.554443	0.101562	0.4208	-0.138154	-0.540257	-0.715516	6.24299	6.78726	3.66773	-0.00623465	0.0206931	0.0286414	-0.689941	-0.40918	-0.418701	0.850334	0.415344	0.214917	-0.241311	-5.85829	6.0585	5.87797	-0.166308	0.0421813	-0.0558439	0.795166	-0.413818	-0.433838	0.439352	0.682134	0.17192	-0.558664	-8.8074	3.71107	0.179366	-0.0061809	-0.056713	0.0217857	1.00171	-0.0151367	-0.248047	0.749005	0.555915	0.0688865	-0.353842	-4.59287	7.43255	3.55956	-0.033528	-0.0159638	-0.00613138	0.773438	-0.499268	-0.410889	0.996484	-0.0610942	0.0190892	-0.0540687	-2.22222	-1.58658	12.9188	0.00655992	0.0377862	-0.0507035	0.617676	0.129395	-0.793701	0.338815	-0.434067	-0.488569	-0.676824	9.16378	3.84793	1.52344	-0.0358896	-0.151942	0.0490099	-0.989502	0	-0.032959	0.397559	-0.604571	-0.424208	-0.544507	9.8194	-0.550996	-1.02702	-0.131686	0.0310298	-0.00110158	-0.950684	0.434082	0.225098	0.416963	-0.565141	-0.453116	-0.549039	9.97735	0.140828	-0.589246	-0.139768	-0.00855386	-0.00585528	-1.00879	0.371094	0.164795	0.502753	-0.595496	-0.449326	-0.436727	9.29764	-1.52821	-0.981061	-0.00420962	0.0338213	0.0128395	-0.847656	0.597168	0.142822	0.550531	-0.574918	-0.469139	-0.382484	9.37257	-1.94801	-0.924476	-0.0378295	-0.0128057	0.0199535	-0.884033	0.705078	0.0817871	
69	0.194	-0.176492	-0.715516	-0.647496	5.14235	7.87941	-0.84	0.00777678	0.0576548	-0.0246333	-0.778809	-0.552246	0.0949707	0.42133	-0.138649	-0.53998	-0.715317	6.58826	6.37976	3.69659	-0.00643882	0.0393727	0.0139487	-0.690186	-0.406982	-0.423584	0.850857	0.414629	0.214623	-0.240961	-5.62764	5.4222	5.86264	0.113208	-0.0407155	0.0214443	0.788818	-0.417969	-0.429199	0.439945	0.681418	0.172405	-0.558923	-8.63468	3.8522	0.0917297	-0.0362059	-0.0163669	-0.00892052	0.994873	-0.00854492	-0.254883	0.748362	0.556388	0.0689278	-0.35445	-5.06779	7.94058	3.53522	0.00330108	0.0036535	-0.0598152	0.773193	-0.49707	-0.408691	0.996417	-0.0620724	0.0194244	-0.0540609	-2.34844	-1.95705	12.9585	-0.0204578	0.0246334	-0.00356686	0.619629	0.131592	-0.793701	0.338324	-0.43599	-0.488436	-0.675928	9.17758	3.6768	1.42364	-0.0269008	-0.139381	0.0615409	-0.993896	0.00219727	-0.0351562	0.399266	-0.60334	-0.425217	-0.543836	9.54519	0.182389	-0.834584	0.137826	0.0420481	-0.00469732	-0.946533	0.438477	0.224854	0.417338	-0.565119	-0.453507	-0.548454	9.8171	0.442863	-0.505419	0.0546469	-0.00549602	-0.00818753	-1.00879	0.371094	0.162598	0.501994	-0.595986	-0.449673	-0.436575	9.76275	-2.50765	-1.30334	0.0152682	-0.0195739	-0.00905248	-0.849854	0.594971	0.138428	0.552469	-0.57343	-0.469897	-0.380989	9.70781	-2.59823	-1.12643	0.256436	0.0309883	0.0107877	-0.88208	0.71167	0.0839844	
70	0.194372	-0.177212	-0.716631	-0.645953	5.14035	8.09769	-0.922069	0.0858381	-0.0831953	0.0379331	-0.772217	-0.550049	0.105957	0.421607	-0.139652	-0.541172	-0.714057	6.88624	6.37371	3.77545	0.0435748	-0.0260667	0.0176093	-0.694336	-0.411377	-0.42334	0.85005	0.416931	0.213321	-0.240993	-5.67722	6.76328	6.16401	-0.0133122	-0.0379842	0.0200891	0.791016	-0.420166	-0.426758	0.439881	0.681094	0.171749	-0.559569	-8.94721	4.11801	0.255514	0.0121891	-0.0234732	0.0206595	1.00146	-0.0107422	-0.25708	0.748382	0.556272	0.0694509	-0.354488	-5.06306	7.38501	3.72826	0.0475716	0.0490188	-0.0449701	0.775391	-0.49707	-0.41333	0.996548	-0.0597132	0.0195299	-0.0542712	-2.50079	-1.20405	13.0758	0.0695062	0.0263013	-0.0268643	0.613281	0.127197	-0.795898	0.336832	-0.440284	-0.490287	-0.672542	9.08716	3.70567	1.42471	0.109172	-0.161048	0.015923	-0.98999	0.00854492	-0.0161133	0.399059	-0.60384	-0.424526	-0.543974	9.74513	-0.220637	-0.920708	-0.0813448	0.00374553	0.00130656	-0.954834	0.434082	0.222656	0.417375	-0.565457	-0.452824	-0.548642	9.91149	0.0949972	-0.594601	-0.00581271	0.0200524	-0.00128859	-1.01099	0.371094	0.162598	0.503239	-0.595213	-0.450236	-0.435614	9.43608	-1.45362	-1.13619	0.0572277	0.00584107	0.0116456	-0.849854	0.594971	0.147461	0.552365	-0.573871	-0.46915	-0.381396	9.42975	-2.33776	-0.966004	-0.0574378	0.0408921	0.0253298	-0.881836	0.709473	0.0771484	
71	0.194971	-0.176629	-0.71666	-0.6459	5.26093	8.48506	-0.890613	0.0218863	0.0595189	-0.00473069	-0.783203	-0.552246	0.10376	0.421872	-0.139865	-0.541296	-0.713765	6.39676	6.7203	3.57902	0.00715294	0.00455277	0.013043	-0.689941	-0.40918	-0.423584	0.850794	0.415197	0.213911	-0.24084	-5.55889	6.50425	6.05472	-0.148007	0.00592749	-0.0304515	0.791016	-0.422363	-0.433594	0.440739	0.680625	0.171743	-0.559467	-8.83924	4.14498	-0.047623	-0.00275552	-0.00840299	-0.00607322	0.999512	-0.0129395	-0.259277	0.749328	0.555162	0.0690684	-0.354305	-4.97617	7.73587	3.53904	-0.0913281	-0.0227805	0.0369097	0.777588	-0.494873	-0.415527	0.996515	-0.059896	0.0198504	-0.0545545	-2.1223	-1.41637	12.827	-0.0125048	0.0396602	-0.0394691	0.617676	0.127197	-0.793701	0.334452	-0.444339	-0.489924	-0.671326	9.28448	3.72493	0.972238	-0.041171	-0.152979	0.0283915	-0.991699	0	-0.013916	0.399854	-0.603609	-0.424618	-0.543574	9.63736	-0.208161	-0.696276	0.0888381	0.0245937	0.000325472	-0.948486	0.436035	0.229736	0.417345	-0.565862	-0.452186	-0.548773	9.75705	0.36455	-0.44364	-0.049129	0.00616952	-0.00330479	-1.00391	0.366699	0.165039	0.502302	-0.596369	-0.449618	-0.435754	9.57997	-2.39678	-0.983888	-0.0607707	-0.00303705	0.0128422	-0.852295	0.599365	0.145264	0.552573	-0.574255	-0.4682	-0.381685	9.40504	-2.46216	-0.810003	0.000157726	0.0313567	0.0212993	-0.879639	0.707275	0.0771484	
72	0.194748	-0.176853	-0.716654	-0.645912	5.08344	8.03955	-1.01085	0.0309232	-0.0343187	0.0139051	-0.776611	-0.552246	0.10376	0.421287	-0.140975	-0.542158	-0.713238	6.64967	6.28529	3.60055	0.021151	-0.0383529	-0.0145156	-0.694336	-0.411133	-0.414062	0.85107	0.414097	0.21436	-0.241355	-5.5632	5.32235	5.7308	0.0988913	-0.0270509	-0.0385206	0.793213	-0.418213	-0.431396	0.439652	0.681249	0.171578	-0.559614	-9.11196	3.87272	0.170578	0.0265904	0.0151662	0.00799997	0.997559	-0.0217285	-0.265625	0.749112	0.555309	0.0689729	-0.354551	-5.04843	7.64526	3.57384	0.0202052	-0.00276465	-0.0291802	0.779785	-0.49707	-0.406494	0.996354	-0.0623254	0.0203696	-0.0545841	-2.32153	-1.70448	13.1883	-0.0966771	0.0221108	-0.0114117	0.619629	0.133789	-0.793945	0.333551	-0.447266	-0.489762	-0.669948	9.16546	3.55573	1.17505	0.0236328	-0.127054	0.0496541	-0.992188	0.0129395	-0.0078125	0.399347	-0.604323	-0.42388	-0.543729	9.78045	-0.17546	-0.763247	-0.0993103	0.0260154	0.000901375	-0.952881	0.436279	0.222656	0.417244	-0.566159	-0.451907	-0.548773	9.91561	0.229624	-0.395	-0.0202169	-0.00167672	-0.000897576	-1.00415	0.373535	0.162598	0.502406	-0.596394	-0.449378	-0.435846	9.57306	-1.99684	-1.20662	-0.0052297	0.0285071	0.0149136	-0.847656	0.599365	0.142822	0.552801	-0.574588	-0.46751	-0.381699	9.5216	-2.51986	-0.858515	0.0293578	0.0207158	0.0211512	-0.87793	0.720459	0.074707	
73	0.195183	-0.177457	-0.716992	-0.64524	4.9084	8.41271	-0.804072	0.00264098	-0.0558036	0.0260152	-0.776611	-0.550049	0.101562	0.420222	-0.143397	-0.543248	-0.712554	6.74485	6.56052	3.67164	-0.0133427	-0.113072	0.0116827	-0.69458	-0.406982	-0.414062	0.849282	0.417623	0.213296	-0.242521	-6.08914	7.07027	6.17537	0.00586649	-0.00289647	-0.0113449	0.793213	-0.422363	-0.428955	0.439858	0.680643	0.17119	-0.560306	-8.96456	4.01529	-0.189342	0.015444	-0.0396576	0.00292153	0.997314	-0.0151367	-0.259277	0.750183	0.553817	0.0693696	-0.354541	-4.98394	7.78365	3.71469	-0.139329	0.0151536	-0.00988228	0.777588	-0.494873	-0.420166	0.996303	-0.0626039	0.0211197	-0.0549032	-2.27323	-1.16968	13.1534	-0.035889	0.0373991	-0.0378636	0.619629	0.131592	-0.795898	0.332367	-0.450541	-0.490294	-0.66795	9.2821	3.53078	1.17846	0.0321652	-0.152907	0.0168579	-0.992188	0.0129395	0.00292969	0.398877	-0.604747	-0.422977	-0.544306	9.66417	-0.28659	-0.919793	-0.091124	0.0388191	0.00338505	-0.950928	0.44043	0.227295	0.416408	-0.567177	-0.451005	-0.549098	9.79104	0.462347	-0.341318	-0.104177	-0.0137289	-0.00222044	-1.00415	0.373535	0.169189	0.501332	-0.597363	-0.448599	-0.436558	9.53966	-2.1711	-1.16198	-0.0872961	-0.00591582	-0.00110166	-0.847656	0.594971	0.143066	0.552726	-0.57518	-0.466839	-0.381738	9.48644	-3.426	-0.981125	0.0891667	0.0129835	0.0120173	-0.877686	0.713867	0.0793457	
74	0.195007	-0.178649	-0.717101	-0.644843	5.35764	8.14211	-1.09246	0.00725756	-0.0827916	0.0612442	-0.78125	-0.545898	0.103516	0.419962	-0.14486	-0.54372	-0.712051	6.83328	6.38783	3.68785	-0.0533407	-0.0324806	0.00606186	-0.69873	-0.406982	-0.414062	0.850789	0.414222	0.213812	-0.242615	-5.79006	6.26098	5.98103	-0.0483099	0.0162083	-0.0418139	0.797363	-0.418213	-0.429199	0.440253	0.680227	0.1706	-0.560682	-9.19271	3.89077	0.15302	-0.00125112	-0.060185	0.0320105	0.995117	-0.017334	-0.259033	0.749039	0.554581	0.0689017	-0.355855	-5.00446	8.01234	3.76617	0.0538347	0.000793164	-0.0700919	0.772949	-0.492676	-0.420166	0.996295	-0.0615012	0.0212897	-0.0562281	-2.36312	-1.5664	13.3471	0.0850145	0.0301104	-0.0772166	0.619629	0.129395	-0.793701	0.331297	-0.452076	-0.489677	-0.667897	9.35961	3.43154	1.01069	-0.0956904	-0.0981261	0.0107066	-0.988037	0.0129395	0.00512695	0.398783	-0.605094	-0.422061	-0.5447	9.81872	-0.169781	-0.953392	-0.0467634	0.0353081	-0.00758631	-0.952881	0.44043	0.227295	0.414367	-0.569133	-0.448808	-0.550417	9.93603	-0.0140631	-0.687201	-0.103083	-0.00443441	-0.00193928	-1.00635	0.371094	0.166992	0.501878	-0.597286	-0.448303	-0.436338	9.41703	-1.9864	-0.990268	0.0328607	0.0382853	0.0205017	-0.843262	0.597168	0.149902	0.552287	-0.576071	-0.46577	-0.382334	9.48974	-3.16905	-1.24771	-0.122316	0.0277374	0.0150656	-0.879639	0.707275	0.0771484	
75	0.196153	-0.179566	-0.71678	-0.644598	5.35306	7.8154	-1.08838	0.0470464	0.0558506	0.0559506	-0.781494	-0.541504	0.10791	0.420699	-0.145831	-0.544938	-0.710484	6.77763	6.64029	3.65251	0.0643621	-0.0326638	0.0434213	-0.700928	-0.406738	-0.404785	0.851095	0.413549	0.213435	-0.243023	-6.28296	6.15976	6.0553	-0.0332914	-0.0506958	-0.0266554	0.792969	-0.413818	-0.433838	0.440217	0.67979	0.169596	-0.561545	-9.16323	4.52135	0.0694766	0.0444295	-0.0384799	-0.00593598	0.997559	-0.0195312	-0.254639	0.750353	0.552279	0.0703607	-0.356381	-4.83815	7.49155	3.42276	-0.153092	-0.0284239	-0.0364103	0.779541	-0.488281	-0.417725	0.996282	-0.0606032	0.0222963	-0.0570329	-2.25877	-1.57423	13.0968	0.00254152	0.0663928	-0.0292094	0.621826	0.131592	-0.791748	0.330886	-0.454535	-0.491662	-0.664967	9.18156	3.70833	1.08947	0.156612	-0.161218	0.0160868	-0.98584	0.0151367	0.015625	0.399132	-0.604656	-0.422071	-0.544923	9.74575	-0.2986	-0.909502	0.0362302	0.0349512	-0.0088692	-0.952881	0.438232	0.229736	0.414074	-0.569525	-0.448402	-0.550563	9.87168	0.211156	-0.539858	-0.0675573	0.00414007	-0.0138576	-1.00391	0.368896	0.167236	0.50062	-0.598238	-0.447562	-0.437241	9.43913	-2.02089	-1.57779	-0.0811264	-0.004277	-0.00123407	-0.847656	0.599365	0.154297	0.551885	-0.576779	-0.464823	-0.383	9.39088	-2.81482	-0.794334	-0.145068	0.0237018	0.0149015	-0.875244	0.713867	0.0817871	
76	0.197523	-0.180396	-0.717058	-0.643638	5.46472	8.07571	-0.959665	0.00954943	-0.00661031	0.0491329	-0.781494	-0.541504	0.105713	0.421227	-0.147858	-0.545371	-0.70942	6.8774	6.34775	3.63322	0.0071345	-0.0576881	0.0537789	-0.705566	-0.398193	-0.405029	0.850747	0.41269	0.214449	-0.2448	-5.89455	6.30665	6.11285	-0.137128	0.0103456	-0.067681	0.795166	-0.416016	-0.436035	0.440496	0.678621	0.169954	-0.562629	-8.95772	4.04494	0.319784	-0.0108543	-0.0409643	-0.0440244	1.0022	-0.0214844	-0.267822	0.749657	0.552394	0.0707017	-0.357598	-4.91803	7.89714	3.91697	-0.0238515	-0.000191903	-0.0806317	0.774902	-0.486084	-0.420166	0.996177	-0.0620052	0.0239262	-0.0566986	-2.25024	-1.72104	13.2372	-0.0696734	0.0854433	0.0058766	0.623779	0.135986	-0.787598	0.329399	-0.457826	-0.492202	-0.663045	9.19024	3.30067	0.774929	0.0512394	-0.161188	0.0192414	-0.992188	0.0129395	0.0219727	0.399494	-0.604461	-0.421601	-0.545238	9.90614	0.020307	-0.5969	-0.0304372	0.0376807	-0.0082565	-0.952881	0.436279	0.225098	0.413741	-0.569827	-0.447938	-0.550879	9.77018	0.228293	-0.511701	-0.0511081	0.0100519	-0.0129828	-1.00635	0.371094	0.171631	0.500789	-0.597902	-0.447712	-0.437353	9.27494	-2.34386	-1.00528	0.00411705	0.0170472	-0.00190184	-0.849854	0.597168	0.147461	0.553347	-0.575576	-0.465126	-0.382331	9.24747	-2.13103	-0.772974	0.0257068	0.0222352	0.00979047	-0.877686	0.713867	0.0749512	
77	0.198879	-0.180658	-0.717568	-0.642578	4.8678	8.21514	-0.818841	0.0421339	-0.0584016	0.0573277	-0.781494	-0.541504	0.110107	0.422053	-0.149595	-0.545583	-0.708401	6.84666	6.3313	3.60844	-0.0208255	-0.0456238	0.0554401	-0.703125	-0.404541	-0.400146	0.850646	0.411846	0.215777	-0.245407	-5.82706	5.90822	6.08376	-0.0306731	0.0312241	-0.0537308	0.792969	-0.407227	-0.433838	0.441704	0.676694	0.171032	-0.563676	-8.98436	3.85352	0.312637	-0.129806	-0.0715196	-0.0360104	0.994873	-0.0107422	-0.268066	0.75115	0.549848	0.0715878	-0.358211	-5.11431	7.44308	3.63289	-0.0678552	-0.0227289	-0.055288	0.772705	-0.483643	-0.424561	0.996012	-0.064435	0.0259636	-0.0559906	-2.63991	-1.5394	13.1222	-0.146303	0.0641146	0.00689708	0.621582	0.137939	-0.7854	0.329277	-0.460124	-0.492574	-0.661236	9.32721	3.6411	1.01121	0.0190424	-0.0236929	0.0428454	-0.994629	0.0192871	0.026123	0.398602	-0.604377	-0.420234	-0.547035	9.58816	-0.342352	-0.82029	-0.0525921	0.0625826	-0.033223	-0.950684	0.436279	0.222656	0.409883	-0.572734	-0.444599	-0.553447	9.84677	0.277069	-0.80231	-0.193241	-0.00663256	-0.0139211	-0.999268	0.368896	0.169434	0.502432	-0.595923	-0.449341	-0.436499	9.71442	-1.86144	-0.660456	0.132825	0.0432067	-0.0328807	-0.850098	0.599365	0.149658	0.556301	-0.572739	-0.466757	-0.380313	9.56524	-2.3868	-0.992878	0.306046	0.0287872	-0.0149681	-0.877686	0.716064	0.0703125	
78	0.200771	-0.181906	-0.718001	-0.641152	5.04248	8.26163	-0.890522	0.0409834	0.0549224	0.0910574	-0.78833	-0.534912	0.103516	0.422691	-0.151458	-0.545665	-0.707561	6.75502	6.24087	3.57766	-0.00331046	-0.0167843	0.0569801	-0.712402	-0.393799	-0.405273	0.85117	0.409704	0.217105	-0.246003	-5.67599	6.09047	5.6725	-0.0670269	0.0333196	-0.0815524	0.799316	-0.407471	-0.436279	0.441547	0.675686	0.170605	-0.565135	-8.88031	3.99261	0.160645	0.0256802	-0.0592869	-0.0266101	0.99292	-0.0151367	-0.272461	0.750748	0.54937	0.0727701	-0.359547	-4.77915	7.58433	3.87765	-0.0565199	0.00593655	-0.0635805	0.779053	-0.479248	-0.422363	0.996019	-0.0631822	0.0279713	-0.0563183	-2.29873	-1.38096	12.9703	0.0932299	0.107364	-0.0315682	0.623535	0.142334	-0.779053	0.328525	-0.462421	-0.493538	-0.659287	9.22427	3.3359	0.937967	0.0368907	-0.100738	0.0164963	-0.996826	0.0214844	0.0283203	0.399079	-0.604188	-0.42031	-0.546839	9.74798	-0.117307	-0.859271	0.0364413	0.0200521	-0.0067461	-0.955322	0.442627	0.222656	0.409333	-0.573104	-0.443801	-0.554112	9.77428	0.117974	-0.4915	0.043624	0.0198857	-0.0186052	-1.01074	0.364258	0.180664	0.501693	-0.596543	-0.448901	-0.436953	9.49881	-1.90874	-1.05409	-0.0377208	0.0172848	0.0101619	-0.854248	0.594971	0.1521	0.555336	-0.573866	-0.465527	-0.38153	9.47824	-3.29453	-0.946291	-0.0189621	0.0310335	0.00642234	-0.873047	0.716309	0.0725098	
79	0.200474	-0.184242	-0.717466	-0.641177	5.6875	7.77439	-1.16521	-0.0150257	-0.0539245	0.0665301	-0.78418	-0.530762	0.109863	0.422826	-0.152447	-0.545566	-0.707344	6.85788	6.48938	3.40464	-0.0432956	0.0171111	-0.000259225	-0.705566	-0.400146	-0.400146	0.85107	0.408929	0.21749	-0.247297	-5.88312	5.60169	5.79243	-0.0132085	-0.011344	-0.060891	0.794922	-0.398682	-0.436523	0.4408	0.674664	0.171427	-0.566689	-8.89695	3.57574	0.33346	-0.00454929	-0.0427055	-0.0731833	0.988037	-0.00415039	-0.2771	0.749657	0.549354	0.0737035	-0.361652	-4.95512	7.28621	3.94035	0.0534442	-0.0164131	-0.117858	0.772461	-0.477051	-0.427002	0.995944	-0.062861	0.0297093	-0.0571167	-2.67388	-2.06818	12.7844	0.0797068	0.0935133	-0.0560935	0.634521	0.137939	-0.787598	0.328527	-0.46314	-0.493745	-0.658626	9.25108	3.7301	0.829002	-0.0194266	0.0285478	0.00684505	-0.994629	0.0192871	0.034668	0.399671	-0.603456	-0.420659	-0.546946	9.6392	0.0713542	-0.637586	0.05165	0.0242107	-0.027403	-0.952881	0.436279	0.218018	0.409111	-0.573232	-0.44338	-0.55448	9.90115	0.116727	-0.657929	-0.0189525	0.0163028	-0.0185456	-1.0061	0.366455	0.178223	0.50116	-0.596973	-0.448473	-0.437417	9.69396	-2.21052	-1.44411	0.00578095	0.0243993	0.00404507	-0.852295	0.599365	0.147461	0.555705	-0.573468	-0.465274	-0.381898	9.67192	-2.89901	-0.934819	0.0310103	0.0428505	-0.00465855	-0.88208	0.713867	0.0656738	
80	0.201712	-0.184714	-0.717134	-0.641025	5.17815	8.07776	-0.875274	0.00224178	0.0460663	0.0950708	-0.786621	-0.528564	0.107666	0.422774	-0.153308	-0.545213	-0.707462	6.72937	6.24388	3.49849	-0.0633658	-0.0247795	0.0153047	-0.712158	-0.395996	-0.400391	0.849572	0.411205	0.217496	-0.248662	-6.09251	6.27155	5.80966	0.235584	0.0338835	-0.0884338	0.794922	-0.400879	-0.434082	0.438209	0.675238	0.170745	-0.568219	-8.83412	4.04169	0.305271	0.118314	-0.0242219	-0.0800022	0.996826	-0.00634766	-0.272461	0.74843	0.550023	0.0740651	-0.3631	-5.5049	7.5292	3.76523	0.052488	0.00233313	-0.0865301	0.78125	-0.479248	-0.422363	0.995985	-0.0610699	0.0305964	-0.057868	-2.39146	-1.48711	12.6769	0.143975	0.0951286	-0.0691548	0.632568	0.135986	-0.778809	0.328249	-0.464095	-0.493393	-0.658355	9.22678	3.27758	0.648681	0.0484514	-0.0337177	0.010032	-0.988525	0.0280762	0.0366211	0.399421	-0.603682	-0.420348	-0.547119	9.67446	-0.173888	-0.690859	-0.0174144	0.0198254	-0.0152098	-0.953125	0.442627	0.222656	0.40952	-0.572877	-0.443691	-0.554295	9.93437	0.294958	-0.483256	0.0573951	0.0173404	-0.0225056	-1.00146	0.366699	0.171631	0.501513	-0.596794	-0.448685	-0.43704	9.45797	-1.81579	-0.720728	0.0475892	0.00404529	0.0134314	-0.852295	0.599365	0.149658	0.555365	-0.57397	-0.464558	-0.38251	9.33776	-2.25702	-0.796143	-0.0795679	0.0383857	0.0100571	-0.875244	0.709473	0.0703125	
81	0.20142	-0.186918	-0.715822	-0.641943	5.40512	7.8842	-0.945953	-0.101935	-0.0246021	0.0315421	-0.795166	-0.532959	0.109863	0.422183	-0.154337	-0.545252	-0.707561	6.62933	6.34128	3.47355	-0.0249882	-0.026121	-0.0257329	-0.708008	-0.393799	-0.398193	0.848774	0.411537	0.217474	-0.250849	-6.0126	5.63151	6.09073	0.031417	-0.00675774	-0.0763894	0.799072	-0.398682	-0.431885	0.435904	0.675721	0.170383	-0.569525	-8.65562	3.7354	0.364071	0.10275	0.00071548	-0.0381394	0.98584	-0.00415039	-0.2771	0.747764	0.549784	0.0741936	-0.364803	-5.12581	7.52876	3.72776	-0.0389572	-0.031455	-0.0380254	0.781006	-0.474854	-0.422363	0.995874	-0.0607619	0.031908	-0.0593642	-2.5992	-1.96639	12.8309	0.0252495	0.0813606	-0.0736406	0.628174	0.137939	-0.781006	0.327708	-0.465085	-0.492627	-0.6585	9.26887	3.61823	0.785245	-0.0154756	-0.0155339	0.0136762	-0.990723	0.027832	0.045166	0.39867	-0.604252	-0.419297	-0.547843	9.6127	-0.375566	-0.736297	-0.0576358	0.0248361	-0.0109066	-0.955078	0.436035	0.225098	0.408926	-0.573415	-0.44306	-0.554682	9.80147	0.162844	-0.646165	-0.0366228	0.00264368	-0.0163699	-1.00659	0.373291	0.176025	0.501154	-0.596955	-0.448705	-0.43721	9.39868	-1.80053	-0.852729	-0.0260538	0.000511261	-0.0119773	-0.849609	0.592773	0.149902	0.556622	-0.572842	-0.464998	-0.381838	9.39694	-2.35178	-0.520264	0.15259	0.00967835	0.00109294	-0.875	0.707275	0.0634766	
82	0.200293	-0.188671	-0.714586	-0.643158	5.26568	7.73966	-0.953053	-0.0694938	-0.103049	0.0120677	-0.795166	-0.532959	0.112061	0.421187	-0.155502	-0.544981	-0.708108	6.98625	6.11359	3.59436	-0.0480895	0.00570783	-0.0376884	-0.714355	-0.395996	-0.400391	0.847787	0.412467	0.217432	-0.252689	-5.61858	5.82759	5.93601	0.0439269	-0.0294541	-0.0469825	0.799072	-0.394287	-0.436523	0.435144	0.675864	0.170216	-0.569986	-8.70364	3.9359	0.487578	0.063275	-0.00836898	-0.0386002	0.990479	-0.00854492	-0.279053	0.74716	0.55	0.0740715	-0.365739	-5.19826	7.21258	3.81684	0.0463169	-0.030448	-0.080742	0.778564	-0.468262	-0.422363	0.995862	-0.0590574	0.0331438	-0.0605999	-2.92249	-1.29774	12.6653	0.00576904	0.0388135	-0.059618	0.638916	0.133789	-0.781006	0.327204	-0.465655	-0.492504	-0.658439	9.26964	3.26374	0.959364	-0.0229976	-0.0367359	-0.0140196	-0.986084	0.0214844	0.0410156	0.398514	-0.604351	-0.419385	-0.547779	9.8248	-0.0648779	-0.726258	0.000178926	0.00118576	-0.0216344	-0.950928	0.440674	0.218018	0.409187	-0.573253	-0.443385	-0.554398	9.88873	0.285555	-0.408618	0.047793	-0.00158787	-0.0199702	-1.00415	0.371094	0.176025	0.501241	-0.596888	-0.44805	-0.437875	9.33165	-1.5786	-1.08832	-0.020326	0.0553599	-0.0138338	-0.849854	0.594971	0.149902	0.55596	-0.573635	-0.464277	-0.38249	9.46406	-3.11942	-1.24654	0.0932217	0.0232965	-0.00779532	-0.879883	0.713867	0.0681152	
83	0.199365	-0.189263	-0.713848	-0.644092	5.07664	7.93804	-0.875099	-0.0628465	-0.0497336	-0.0175541	-0.795166	-0.530762	0.107666	0.421066	-0.155607	-0.54528	-0.707926	6.86218	6.28529	3.62853	0.0213012	-0.00125879	-0.00724364	-0.7146	-0.389404	-0.403076	0.847411	0.412994	0.217289	-0.253211	-5.8523	5.72995	6.14608	0.0675231	-0.00243552	-0.0338906	0.799072	-0.394287	-0.432129	0.433861	0.676558	0.169068	-0.570482	-8.67369	3.89659	0.537851	0.0797987	-0.0048501	0.00806471	0.990479	-0.00854492	-0.268066	0.747003	0.550219	0.0734851	-0.365848	-5.23789	7.68146	3.56254	-0.0627082	-0.0209907	0.0399816	0.783203	-0.474854	-0.424561	0.995798	-0.0586999	0.0336005	-0.0617402	-2.58703	-1.46432	12.5595	0.00874078	0.0314779	-0.0490171	0.641113	0.138184	-0.776855	0.326538	-0.467524	-0.492161	-0.657702	9.18175	3.34156	0.782989	-0.040292	-0.0812618	0.0308731	-0.990723	0.0300293	0.0429688	0.397971	-0.60475	-0.418096	-0.548719	9.67674	-0.233061	-0.63541	-0.0472993	0.0341643	-0.00275739	-0.950684	0.434082	0.225098	0.408513	-0.573758	-0.443188	-0.55453	9.71287	0.126973	-0.440038	-0.0143356	-0.014908	-0.0245376	-1.00415	0.371094	0.178223	0.499126	-0.598423	-0.447777	-0.438474	9.44753	-2.28773	-1.06669	-0.0315451	-0.0183639	-0.0218798	-0.849854	0.594971	0.154297	0.555324	-0.574707	-0.462781	-0.383615	9.56141	-3.55064	-1.15486	-0.0240763	0.042112	0.012978	-0.875244	0.709473	0.0703125	
84	0.199063	-0.188851	-0.714038	-0.644095	5.37476	7.84768	-0.881484	0.0557062	0.0686893	-0.0211247	-0.792969	-0.530762	0.107666	0.420983	-0.156433	-0.545233	-0.707829	6.85449	6.35146	3.63675	-0.0515223	-0.00356647	0.00729091	-0.716797	-0.391602	-0.398193	0.84754	0.413229	0.216279	-0.253259	-5.97858	6.05831	6.14736	0.0448319	0.00794316	0.0255271	0.797119	-0.396484	-0.429688	0.434373	0.676404	0.168819	-0.570349	-9.12802	3.81934	0.297515	-0.0120722	-0.00507941	0.03727	0.990479	-0.00854492	-0.274658	0.747286	0.549875	0.0728635	-0.365913	-4.91594	7.34347	3.49025	0.0194494	-0.00099526	0.0144813	0.781006	-0.474854	-0.427002	0.995749	-0.0599981	0.0328956	-0.061661	-2.52765	-1.54033	12.9459	-0.0561188	-0.00903879	-0.0163517	0.630127	0.138184	-0.776855	0.325689	-0.46953	-0.491809	-0.656957	9.3411	3.32408	0.447886	-0.0464093	-0.0382825	0.0164046	-0.994873	0.0256348	0.0473633	0.39672	-0.6056	-0.41666	-0.549779	9.89661	0.0877503	-0.78927	-0.146144	0.0259011	-0.00984602	-0.950439	0.434082	0.227295	0.405852	-0.575746	-0.441073	-0.556107	9.9415	0.287619	-0.547823	-0.210496	-0.0134769	-0.0193327	-0.999268	0.366455	0.185059	0.499092	-0.597694	-0.449244	-0.438004	9.53467	-2.30188	-1.19245	0.061078	-0.0377474	-0.0345182	-0.852051	0.592773	0.149902	0.55703	-0.57317	-0.463356	-0.382746	9.23021	-3.00244	-0.534034	-0.053118	0.0122745	0.0046026	-0.873047	0.713867	0.0656738	
85	0.198415	-0.190207	-0.714473	-0.643414	5.705	7.89208	-1.00448	-0.0125311	-0.0554885	0.00793525	-0.790771	-0.532959	0.107666	0.421205	-0.156187	-0.546855	-0.706499	6.91547	6.15802	3.52942	0.108873	0.0111894	-0.0172278	-0.716797	-0.391602	-0.400635	0.84888	0.411169	0.215617	-0.252689	-5.8912	5.90456	6.14948	-0.131445	-0.0556985	0.029446	0.792725	-0.398682	-0.438721	0.435771	0.675871	0.16814	-0.570115	-9.07794	3.62174	0.443065	-0.0300236	-0.0313868	0.0557755	0.994629	-0.00634766	-0.276855	0.747836	0.549198	0.0720019	-0.365976	-5.21306	7.39164	3.97773	0.0159094	-0.00753393	-0.038911	0.772217	-0.474854	-0.431641	0.995721	-0.0606257	0.0321041	-0.0619151	-2.7894	-1.90953	13.2953	0.0454296	-0.0233242	-0.0488816	0.636719	0.138184	-0.779053	0.324798	-0.470799	-0.49283	-0.655723	9.6284	3.23915	0.602354	0.043642	-0.0147968	-0.0361898	-0.990723	0.027832	0.0473633	0.395716	-0.605708	-0.415039	-0.551606	9.55472	-0.61333	-0.913368	-0.0297425	0.0682163	-0.027305	-0.954834	0.434082	0.227295	0.404602	-0.576709	-0.440043	-0.556836	9.8313	0.370007	-0.854665	-0.0591044	0.00305637	-0.020645	-1.00391	0.368896	0.182861	0.49978	-0.596864	-0.449326	-0.438269	9.71856	-1.92464	-1.11606	-0.0630799	0.0305249	0.00566173	-0.847656	0.597168	0.1521	0.557733	-0.572157	-0.464093	-0.382344	9.50742	-2.38172	-0.484	-0.100829	0.00408251	-0.0230598	-0.877441	0.71167	0.0656738	
86	0.198253	-0.189365	-0.715377	-0.642707	5.2832	8.12502	-1.0161	0.0686217	-0.024018	-0.014485	-0.795166	-0.530762	0.112061	0.421124	-0.156715	-0.54787	-0.705644	6.94124	6.12197	3.45995	-0.021008	-0.0322908	0.00455585	-0.716797	-0.393799	-0.393311	0.849807	0.409951	0.21509	-0.251999	-6.1746	6.133	5.65929	-0.0193744	-0.0530214	0.0180145	0.79248	-0.39209	-0.438965	0.436676	0.675398	0.167702	-0.570113	-9.27166	4.2461	0.0258696	-0.0330877	-0.00829407	0.00610612	0.988037	-0.00854492	-0.28125	0.747971	0.549008	0.0720269	-0.36598	-4.96685	7.53706	3.67352	-0.00999626	0.00192018	-0.00624673	0.779053	-0.477051	-0.429199	0.99572	-0.060692	0.0316555	-0.0620989	-2.48961	-1.69528	13.1284	-0.0504062	0.000167524	-0.00983277	0.634521	0.138184	-0.779053	0.323181	-0.471868	-0.493	-0.655626	9.50236	3.08767	0.493693	-0.045408	-0.0423716	-0.0549595	-0.988525	0.0258789	0.0537109	0.397281	-0.604573	-0.416908	-0.550316	9.72077	-0.074712	-0.728599	0.141135	-0.00448703	-0.0240304	-0.952881	0.438477	0.218018	0.406314	-0.575077	-0.441086	-0.556452	9.83523	0.301097	-0.734813	0.183343	0.0582978	-0.0302348	-1.00854	0.366455	0.180664	0.501019	-0.59601	-0.448747	-0.43861	9.3127	-2.11412	-0.587927	0.0836144	0.0853629	0.0239329	-0.849854	0.594971	0.143066	0.558476	-0.570735	-0.46541	-0.381784	9.43709	-2.52085	-1.07227	0.214331	0.00481344	-0.0405998	-0.875244	0.713867	0.0656738	
