40	Head	00b4120a												Throax	00b411e8												LUpArm	00b411d9												LFoArm	00b41148												RUpArm	00b411db												RFoArm	00b41204												Waist	00b411f7												Lthigh	00b411f4												Lshank	00b4111b												Rthigh	00b411c8												Rshank	00b411ee												
PacketCount	q0	q1	q2	q3	accX	accY	accZ	gyrX	gyrY	gyrZ	magX	magY	magZ	q0	q1	q2	q3	accX	accY	accZ	gyrX	gyrY	gyrZ	magX	magY	magZ	q0	q1	q2	q3	accX	accY	accZ	gyrX	gyrY	gyrZ	magX	magY	magZ	q0	q1	q2	q3	accX	accY	accZ	gyrX	gyrY	gyrZ	magX	magY	magZ	q0	q1	q2	q3	accX	accY	accZ	gyrX	gyrY	gyrZ	magX	magY	magZ	q0	q1	q2	q3	accX	accY	accZ	gyrX	gyrY	gyrZ	magX	magY	magZ	q0	q1	q2	q3	accX	accY	accZ	gyrX	gyrY	gyrZ	magX	magY	magZ	q0	q1	q2	q3	accX	accY	accZ	gyrX	gyrY	gyrZ	magX	magY	magZ	q0	q1	q2	q3	accX	accY	accZ	gyrX	gyrY	gyrZ	magX	magY	magZ	q0	q1	q2	q3	accX	accY	accZ	gyrX	gyrY	gyrZ	magX	magY	magZ	q0	q1	q2	q3	accX	accY	accZ	gyrX	gyrY	gyrZ	magX	magY	magZ	
0	0.276722	-0.24926	-0.696771	-0.61303	6.74734	6.616	-0.812125	0.0639208	-0.0200909	-0.050325	-0.887939	-0.346924	0.0554199	0.455509	-0.17607	-0.534683	-0.689656	7.28815	5.69965	3.52483	-0.0287786	0.0284149	-0.0166184	-0.735352	-0.308838	-0.405762	0.796791	0.418397	0.26658	-0.344968	-6.43039	4.93168	6.06735	0.0546874	0.0400619	0.0372515	0.841553	-0.245605	-0.424561	0.405457	0.664264	0.148252	-0.610229	-8.79468	3.44513	0.840935	-0.00438438	0.00870233	0.0426885	0.968994	0.0227051	-0.3479	0.741319	0.525064	0.104676	-0.404719	-5.50884	6.92077	4.10092	0.0618927	-0.0121614	0.00255005	0.820557	-0.373535	-0.452148	0.989905	-0.0517763	0.0738381	-0.109337	-3.41549	-2.3038	12.3162	-0.00591196	-0.00860087	-0.0117382	0.721191	0.188232	-0.686279	0.272099	-0.532602	-0.514237	-0.614701	9.03908	3.53573	-0.532361	-0.0363995	0.0163718	0.0293851	-0.965088	0.0405273	0.236572	0.392387	-0.58799	-0.441323	-0.552751	9.6646	1.04665	-0.299021	-0.00471304	-0.0105662	-0.0165933	-0.966797	0.405762	0.20459	0.430577	-0.532529	-0.476769	-0.551097	9.60208	1.22478	0.0549219	-0.403917	-0.0321434	-0.0302	-1.02612	0.344482	0.0849609	0.490959	-0.582108	-0.472055	-0.444154	9.3961	-1.41849	-1.4591	-0.132824	-0.0327315	0.00650098	-0.875	0.557373	0.134766	0.544729	-0.559495	-0.474346	-0.406486	9.71916	-2.24072	-0.93665	-0.0598338	0.0130365	0.00970099	-0.92041	0.660645	0.0461426	
1	0.275087	-0.24897	-0.698155	-0.612307	7.07833	6.86161	-0.855508	0.0176252	-0.057961	-0.0702751	-0.887451	-0.355469	0.0578613	0.454815	-0.175715	-0.534421	-0.690407	7.42333	5.799	3.78835	-0.0541666	0.0154762	-0.0736328	-0.729004	-0.304443	-0.403564	0.798937	0.416077	0.266602	-0.342788	-6.90708	4.53395	6.12688	-0.108192	-0.00749199	0.0742379	0.8396	-0.252197	-0.424561	0.407299	0.663457	0.149759	-0.609511	-9.13326	3.0585	0.793409	-0.0937742	0.0277246	0.010379	0.971191	0.0227051	-0.352295	0.740366	0.526493	0.102969	-0.405044	-5.53684	6.6993	4.26166	0.124456	-0.0199087	0.007376	0.825195	-0.382324	-0.445312	0.989925	-0.0534096	0.0728627	-0.109029	-3.692	-2.99827	12.3258	-0.0215129	-0.0421865	-0.0291475	0.710693	0.181641	-0.686035	0.270672	-0.533868	-0.512608	-0.615593	9.17111	3.58236	-0.889616	-0.13593	-0.0099224	-0.00105032	-0.960693	0.0383301	0.238525	0.389275	-0.590604	-0.438224	-0.554628	9.71065	0.0100592	-0.849336	-0.171309	-0.00347225	0.0128955	-0.970947	0.401367	0.209229	0.429154	-0.534136	-0.475217	-0.551991	9.70552	-0.0349721	-0.52881	-0.0230369	-0.0059376	0.0136188	-1.02612	0.344238	0.0893555	0.489294	-0.584558	-0.470427	-0.444502	9.81356	-1.66342	-1.18483	-0.125128	-0.0214265	0.0600278	-0.877197	0.557373	0.148438	0.544241	-0.560268	-0.473431	-0.407142	9.7562	-2.36848	-0.727724	-0.107188	0.0321577	0.02174	-0.918457	0.669434	0.0480957	
2	0.274122	-0.248206	-0.698358	-0.61282	6.98417	6.91431	-0.846289	-0.0203236	-0.0145054	-0.106479	-0.887695	-0.351074	0.0490723	0.454297	-0.175523	-0.533524	-0.69149	7.38048	5.67761	3.68837	-0.104484	0.0493296	-0.0826773	-0.733154	-0.304443	-0.408203	0.798937	0.416077	0.266602	-0.342788	-6.90708	4.53395	6.12688	-0.108192	-0.00749199	0.0742379	0.8396	-0.252197	-0.424561	0.405849	0.664853	0.149768	-0.608955	-9.03466	3.52245	0.543302	0.072016	0.0682931	-0.0444678	0.971191	0.0227051	-0.341309	0.73924	0.52835	0.101777	-0.404984	-5.69895	6.75938	4.17551	0.0759044	-0.0104561	-0.00318948	0.81665	-0.386719	-0.449951	0.990026	-0.0523654	0.0720599	-0.109149	-3.58138	-2.39562	12.4188	0.0951956	-0.0443505	-0.0325885	0.708252	0.186035	-0.692627	0.269025	-0.534496	-0.510198	-0.617769	9.45157	3.11875	-1.11113	-0.100011	0.103281	-0.0279633	-0.958496	0.036377	0.236572	0.390531	-0.590751	-0.439353	-0.552691	9.73624	0.296772	-0.799622	0.236054	-0.0325874	0.0113656	-0.9646	0.405762	0.21167	0.431207	-0.532865	-0.476835	-0.550222	10.1919	0.379258	-0.287154	0.275264	0.00847707	0.0144701	-1.02393	0.34668	0.0893555	0.489275	-0.58503	-0.469732	-0.444637	9.74425	-1.21173	-1.10545	-0.0463235	0.0278993	0.046285	-0.872803	0.557373	0.148438	0.54301	-0.562235	-0.471551	-0.408253	9.81971	-2.17617	-0.642776	-0.0335027	0.0143949	0.0275927	-0.909424	0.665039	0.0551758	
3	0.272105	-0.247489	-0.698107	-0.614292	6.81763	6.93654	-0.879918	-0.0720115	-0.0131113	-0.0826565	-0.88501	-0.362061	0.0600586	0.452277	-0.175323	-0.53272	-0.693481	7.47553	5.54785	3.73051	-0.084174	0.0115235	-0.103633	-0.730957	-0.306641	-0.408203	0.798354	0.419589	0.263487	-0.342274	-6.60337	4.75494	6.23941	0.214538	-0.0531161	0.0663544	0.8396	-0.252197	-0.428955	0.404826	0.665725	0.149913	-0.608648	-9.16031	3.03777	0.474477	0.0750002	0.0795853	-0.0354132	0.966553	0.0246582	-0.339111	0.73837	0.529899	0.100832	-0.404783	-5.698	6.72338	3.97258	0.153859	0.0160991	0.0215279	0.809814	-0.382324	-0.44751	0.990198	-0.0510146	0.0703087	-0.109367	-3.67536	-2.47832	12.4438	0.102918	-0.0483292	-0.0419291	0.710693	0.181641	-0.69458	0.269198	-0.533584	-0.509645	-0.618937	8.98996	3.20065	-1.04523	-0.0331775	0.125233	-0.045883	-0.962646	0.0319824	0.23877	0.391297	-0.590422	-0.439899	-0.552066	9.56508	0.933692	-0.647717	0.0966842	0.0115258	-0.000475965	-0.971191	0.407959	0.213867	0.432319	-0.532715	-0.477332	-0.549062	9.73402	0.876629	-0.111475	0.0200158	-0.0114982	0.00651615	-1.02856	0.348877	0.0847168	0.489279	-0.585262	-0.469895	-0.444154	9.62305	-2.03606	-1.25945	0.0639025	0.00273328	0.000594002	-0.877441	0.55957	0.145996	0.544024	-0.561623	-0.472523	-0.406619	9.65431	-2.58899	-0.746041	0.143026	-0.0229902	0.00887848	-0.92041	0.662842	0.0505371	
4	0.270373	-0.247119	-0.697559	-0.615826	6.67018	6.6387	-0.879628	-0.0514873	-0.0236605	-0.0595	-0.88501	-0.357666	0.0556641	0.4513	-0.174786	-0.533235	-0.693857	7.24708	5.7894	3.54999	0.0237097	-0.0348389	-0.0645358	-0.733154	-0.308838	-0.4104	0.797707	0.42219	0.260616	-0.342781	-6.75812	5.22657	6.41611	0.0347973	-0.0541615	0.0519706	0.835449	-0.262939	-0.428711	0.402721	0.668083	0.147775	-0.607983	-9.15155	3.86023	0.746985	0.0839892	0.0387801	0.0362521	0.968994	0.0202637	-0.339111	0.738106	0.530862	0.100442	-0.4041	-5.62951	7.24802	3.81631	0.0720243	0.0458793	0.0419995	0.814453	-0.384521	-0.449951	0.990342	-0.0496093	0.0684559	-0.109889	-3.34405	-1.52242	12.4557	-0.0131007	-0.0684241	-0.0437119	0.706299	0.183838	-0.698975	0.270596	-0.531394	-0.510123	-0.619817	8.9255	3.55816	-0.724769	0.100216	0.0749348	-0.0412651	-0.962646	0.0341797	0.232422	0.389482	-0.592169	-0.43849	-0.552599	9.7337	0.211306	-0.814311	-0.142002	-0.018035	-0.00401115	-0.966553	0.405762	0.216309	0.42941	-0.535451	-0.474373	-0.551244	9.74572	0.854072	0.0277517	-0.319137	-0.0151451	-0.01039	-1.02148	0.344238	0.0915527	0.490671	-0.584724	-0.469917	-0.443303	9.34566	-1.12754	-1.17967	-0.0182945	0.0214056	0.0517108	-0.875244	0.561768	0.148193	0.543862	-0.562284	-0.472185	-0.406314	9.49397	-1.9483	-0.814703	-0.208142	-0.00751114	0.0297051	-0.913818	0.665039	0.0527344	
5	0.268984	-0.246775	-0.6982	-0.615846	6.55557	6.9206	-0.827635	0.00593328	-0.0570691	-0.0631364	-0.882568	-0.364258	0.0644531	0.450415	-0.174761	-0.533015	-0.694607	7.24062	5.89367	3.70522	-0.0425499	0.0111456	-0.058738	-0.728516	-0.311035	-0.407959	0.79873	0.422253	0.258477	-0.341938	-6.30538	5.08627	5.95001	0.0581148	-0.047361	0.0784424	0.837646	-0.269287	-0.430908	0.402519	0.668737	0.146538	-0.607697	-8.99478	3.61116	0.590208	0.0694128	-0.00625712	0.0429626	0.969482	0.013916	-0.341064	0.739309	0.5305	0.0981649	-0.402933	-5.67804	7.62926	4.12018	0.0437168	-0.0466299	0.0513472	0.814453	-0.386719	-0.445312	0.990372	-0.0504521	0.0668543	-0.110224	-3.33384	-2.35547	12.7531	0.0431121	-0.0541243	-0.0503059	0.706055	0.188232	-0.697021	0.271248	-0.530832	-0.510285	-0.61988	9.24812	3.55584	-0.621838	0.00488536	0.0703133	-0.00198124	-0.962646	0.0341797	0.228027	0.388886	-0.593252	-0.437405	-0.552717	9.65853	-0.533353	-1.01235	0.0939211	-0.0263155	0.0132518	-0.9646	0.405762	0.21167	0.429361	-0.535913	-0.474017	-0.551139	9.85886	0.473956	-0.266164	0.268393	0.00961103	-0.0213885	-1.02393	0.34668	0.0915527	0.488946	-0.587009	-0.467842	-0.444384	9.59829	-1.94249	-1.32161	-0.112984	0.00926331	0.036745	-0.866211	0.561768	0.145996	0.542688	-0.564074	-0.47064	-0.407195	9.67362	-2.25369	-0.981498	0.0214139	0.0156179	0.0182069	-0.918457	0.669434	0.0527344	
6	0.267321	-0.245452	-0.698649	-0.616589	6.80091	6.99777	-0.870756	-0.0104959	0.0242448	-0.0861374	-0.882568	-0.366455	0.0556641	0.449425	-0.174652	-0.532703	-0.695516	7.42822	5.72768	3.85389	-0.0396271	0.0131387	-0.0538978	-0.735107	-0.313232	-0.4104	0.800114	0.422081	0.256186	-0.340639	-6.78211	5.22878	5.99615	0.0134482	-0.0610426	0.0649177	0.835449	-0.262939	-0.428711	0.403648	0.668654	0.146206	-0.607119	-9.44141	3.45911	0.339889	-0.0208962	0.00742911	0.0441608	0.967041	0.0136719	-0.334473	0.738452	0.531718	0.0967343	-0.403245	-5.46123	6.80311	4.02439	0.198362	0.027768	-0.0102516	0.814453	-0.388916	-0.449951	0.990412	-0.0502712	0.0644112	-0.111389	-3.23098	-2.82142	12.8918	0.0691127	-0.0613225	-0.0811436	0.703857	0.188232	-0.698975	0.271062	-0.530779	-0.509796	-0.620409	9.2775	3.03811	-1.22198	0.0310309	0.0391719	-0.027536	-0.960693	0.036377	0.228027	0.38922	-0.593791	-0.437262	-0.552016	9.71697	0.805598	-0.644429	-0.0909827	0.0162159	0.0148415	-0.9646	0.407959	0.218506	0.427197	-0.538188	-0.471671	-0.552614	9.83207	0.804503	-0.125159	-0.235061	-0.0168553	0.00239406	-1.02173	0.351074	0.0959473	0.488771	-0.587567	-0.46754	-0.444156	9.70252	-1.56318	-1.10601	-0.00775001	0.00887163	0.0161781	-0.866455	0.566162	0.148193	0.543018	-0.564347	-0.470183	-0.406905	9.67831	-2.32245	-0.727528	0.034484	0.0126512	0.022485	-0.918213	0.662842	0.0620117	
7	0.265952	-0.24469	-0.699017	-0.617067	6.90574	7.01872	-0.810863	-0.00178514	-0.00874043	-0.0640846	-0.87793	-0.370605	0.0600586	0.448442	-0.174291	-0.53285	-0.696127	7.32204	5.72686	3.67967	-0.0134646	-0.0027161	-0.0565997	-0.730713	-0.315186	-0.407959	0.80027	0.423114	0.253913	-0.340691	-6.69697	5.06759	6.37897	0.12111	-0.0409694	0.0274106	0.837646	-0.271484	-0.433105	0.403131	0.66995	0.144965	-0.606331	-9.41782	4.00354	0.355712	0.0734354	0.0451963	0.0353948	0.973877	0.0136719	-0.334473	0.738262	0.532312	0.0957872	-0.403036	-5.54389	7.12405	4.03389	-0.0565059	-0.0188983	0.00564805	0.8125	-0.388916	-0.44751	0.990497	-0.046972	0.0635306	-0.112572	-3.35008	-1.72111	12.6218	0.0799915	-0.0184658	-0.0576939	0.706299	0.181641	-0.700928	0.272599	-0.528786	-0.510887	-0.62054	9.13863	3.60549	-0.602175	0.0627862	0.0562602	-0.0427071	-0.964844	0.0341797	0.228027	0.388256	-0.59454	-0.435904	-0.552962	9.73564	-0.655747	-1.17886	0.0421603	0.0157389	-0.0164377	-0.966553	0.405762	0.216309	0.428391	-0.537906	-0.472045	-0.551645	10.0071	0.0936392	-0.558259	0.302073	0.0242663	0.00249005	-1.02637	0.348877	0.0915527	0.489464	-0.587527	-0.467461	-0.443528	9.62567	-1.62511	-1.26391	0.0445206	0.0271622	0.0248256	-0.873047	0.566162	0.150391	0.543135	-0.56475	-0.469654	-0.406801	9.60726	-2.2571	-0.755203	-0.0305338	0.0105891	0.0207552	-0.911621	0.667236	0.0549316	
8	0.264976	-0.244216	-0.699109	-0.617571	6.51519	7.06174	-0.827717	-0.0252368	-0.035933	-0.0495994	-0.877686	-0.375	0.0644531	0.447366	-0.174882	-0.532804	-0.696707	7.3118	5.79683	3.66314	-0.0240297	-0.0303947	-0.0479503	-0.728516	-0.31543	-0.412598	0.799274	0.425528	0.251989	-0.341452	-6.60751	5.33761	6.07285	0.117211	-0.0133884	-0.00103129	0.835449	-0.271484	-0.433105	0.401909	0.670428	0.144417	-0.606745	-9.03574	3.42334	0.641812	0.0762889	-0.0050969	-0.040557	0.978271	0.0117188	-0.341064	0.73689	0.53436	0.0939919	-0.40326	-5.59343	7.3248	3.97919	0.120323	-0.027256	0.00553197	0.80835	-0.395508	-0.44751	0.990512	-0.0463434	0.0629642	-0.113023	-3.12379	-2.31609	12.8094	0.07311	0.0202859	-0.0368719	0.701904	0.183838	-0.703125	0.273546	-0.527257	-0.511197	-0.621168	9.22053	3.27207	-0.916924	0.0511499	0.109901	-0.0315497	-0.973389	0.0319824	0.213135	0.391165	-0.593162	-0.438063	-0.550681	9.62431	0.251898	-1.0161	0.137559	0.0231966	0.0133769	-0.967041	0.412354	0.216064	0.431048	-0.536522	-0.472948	-0.550147	9.95851	0.109424	-0.546158	0.119196	0.0487851	0.0255573	-1.02173	0.351318	0.0915527	0.490148	-0.587251	-0.467558	-0.443036	9.48145	-1.66694	-1.32579	0.0385753	0.0245531	0.00653747	-0.868652	0.566162	0.155029	0.544195	-0.564185	-0.470023	-0.405741	9.51275	-2.23531	-0.788926	0.0879418	0.00221838	0.0169246	-0.911621	0.667236	0.0505371	
9	0.26332	-0.243992	-0.699522	-0.617899	6.49478	6.92621	-0.867962	-0.00380967	-0.0572821	-0.0529687	-0.877686	-0.377197	0.0666504	0.446788	-0.175683	-0.532485	-0.69712	7.2847	5.61605	3.76025	-0.0909449	-0.01188	-0.00919679	-0.730713	-0.315186	-0.407959	0.799202	0.426589	0.249829	-0.341883	-6.33172	5.52289	6.35019	0.133369	-0.031721	-0.00111975	0.831299	-0.275635	-0.432861	0.401169	0.670967	0.143921	-0.606757	-9.09134	3.57732	0.347616	0.0413488	0.0198145	0.0197992	0.97168	0.0114746	-0.33667	0.736817	0.534299	0.0933937	-0.403613	-5.49135	6.99993	3.87631	0.0800659	0.00663277	-0.0299075	0.808594	-0.4021	-0.445312	0.990533	-0.046045	0.0618503	-0.113572	-3.15496	-2.40961	12.8685	0.0224174	-0.0570549	-0.0449571	0.70166	0.186035	-0.709717	0.275873	-0.525007	-0.511126	-0.622102	8.81284	3.42272	-0.753611	0.0756786	0.0917237	-0.00439635	-0.969238	0.0319824	0.213135	0.392709	-0.592142	-0.439836	-0.549265	9.61009	0.589222	-0.527547	0.0768333	-0.0105478	-0.0320288	-0.966553	0.403564	0.21167	0.433905	-0.534489	-0.474507	-0.548535	9.57208	0.860875	0.146236	0.081193	0.0293466	-0.00744179	-1.02173	0.348877	0.0871582	0.491097	-0.586768	-0.467802	-0.442367	9.57088	-1.58615	-1.39877	0.0294206	0.00592073	0.0200914	-0.87085	0.566162	0.150391	0.545605	-0.563079	-0.470616	-0.404696	9.5373	-2.31598	-0.981567	0.0865688	0.0112195	0.00942305	-0.914307	0.673828	0.0458984	
10	0.262644	-0.244343	-0.700125	-0.617366	6.66472	7.12954	-0.921732	0.0395247	-0.081193	-0.0160705	-0.875488	-0.372803	0.0644531	0.446478	-0.176103	-0.532511	-0.697193	7.23362	5.64414	3.56434	-0.0297282	-0.0238905	-0.0217027	-0.732666	-0.317383	-0.400879	0.799637	0.425984	0.249448	-0.341896	-6.42846	5.41527	6.13703	-0.0230054	-0.0361735	-0.00124871	0.833496	-0.282227	-0.432861	0.402283	0.670428	0.144088	-0.606576	-9.41226	3.74354	0.409278	-0.0955086	-0.016756	0.0290622	0.971924	0.00952148	-0.341064	0.735912	0.535128	0.0920965	-0.404463	-5.37957	7.28725	4.01122	0.00840204	-0.0623761	-0.00394366	0.803955	-0.397705	-0.445312	0.990578	-0.0442653	0.061743	-0.113948	-3.1113	-2.2195	13.1044	0.147824	0.0190186	-0.044817	0.699707	0.181641	-0.71167	0.276659	-0.524376	-0.512365	-0.621266	9.28112	3.56469	-0.644937	0.100642	0.0459736	-0.0293899	-0.967285	0.0405273	0.219482	0.391979	-0.593135	-0.438299	-0.549943	9.83778	0.198176	-0.644746	-0.0708034	0.034178	0.0294588	-0.971191	0.412109	0.218506	0.43162	-0.536532	-0.472328	-0.550221	9.89438	0.579135	0.00940804	-0.223071	-0.0173263	-0.0168416	-1.02417	0.353516	0.0891113	0.490147	-0.588215	-0.466242	-0.443144	9.55629	-1.3345	-1.10194	-0.145475	0.0201923	0.0382178	-0.866455	0.563965	0.150635	0.544746	-0.564267	-0.469399	-0.405609	9.60391	-2.05465	-0.738523	-0.161763	0.0297987	0.0275253	-0.911621	0.667236	0.0549316	
11	0.262656	-0.245215	-0.700178	-0.616954	6.51941	6.97678	-0.982047	-0.0177038	-0.0231652	0.0187478	-0.875732	-0.370605	0.0666504	0.446029	-0.176941	-0.532843	-0.697014	7.25318	5.94224	3.63969	-0.0477153	-0.018277	-0.00745655	-0.735107	-0.312988	-0.405518	0.800513	0.424254	0.24914	-0.342224	-6.42471	5.80634	6.22009	-0.0583227	-0.0147545	-0.0639472	0.833496	-0.275879	-0.432861	0.403251	0.669818	0.14321	-0.606814	-8.99393	3.67706	0.305072	-0.00233641	-0.0476873	0.0339364	0.965088	0.00927734	-0.33667	0.736278	0.534487	0.0918417	-0.404701	-5.4056	7.11383	3.9602	-0.0469433	-0.0424516	-0.0106174	0.817139	-0.397705	-0.44751	0.990385	-0.045368	0.0622241	-0.114927	-3.20233	-2.06577	12.6112	-0.0985187	0.00671333	-0.081206	0.699707	0.186035	-0.705322	0.277899	-0.524068	-0.51203	-0.621249	9.1631	3.38516	-0.706863	-0.0126988	0.018442	0.0330043	-0.97168	0.0385742	0.210938	0.390752	-0.594324	-0.43616	-0.551232	9.72248	0.0865093	-0.785429	-0.115075	0.0248413	0.0164487	-0.962646	0.412354	0.216064	0.429053	-0.538855	-0.469734	-0.552176	10.0438	0.397425	-0.492711	-0.37325	-0.0203977	-0.000643393	-1.02417	0.353516	0.0869141	0.488825	-0.589635	-0.464917	-0.444108	9.54932	-1.84986	-1.32886	-0.197961	0.00964803	0.0325602	-0.868652	0.566162	0.155029	0.543387	-0.566165	-0.467264	-0.407249	9.61121	-2.52286	-0.789719	-0.0715637	0.0354766	0.0115654	-0.911865	0.673828	0.0571289	
12	0.261909	-0.245847	-0.700615	-0.616523	6.71226	7.00147	-1.00337	0.0253578	-0.0333888	0.00583967	-0.879883	-0.377197	0.0688477	0.445411	-0.178345	-0.532151	-0.69758	7.39048	5.81324	3.74511	-0.0633781	-0.0239478	-0.012192	-0.728271	-0.317383	-0.400879	0.801116	0.422609	0.248933	-0.342998	-6.64249	4.68079	6.04391	0.069781	-0.0447862	-0.0371415	0.833496	-0.273682	-0.444336	0.403403	0.669417	0.142604	-0.607298	-9.23438	3.5065	0.548753	0.0162482	-0.0626973	0.0210415	0.969482	0.0117188	-0.343262	0.735935	0.534122	0.0907896	-0.406043	-5.42583	7.37999	4.01325	-0.0134095	-0.0765234	-0.0360205	0.80835	-0.397705	-0.454346	0.990193	-0.0447716	0.0628362	-0.116465	-3.16216	-2.26482	12.7359	0.0618872	0.0537085	-0.0863262	0.697266	0.192383	-0.705566	0.278531	-0.523908	-0.511863	-0.621239	9.07219	3.04047	-0.752914	0.036523	0.0477408	0.0159091	-0.967041	0.0341797	0.215332	0.390359	-0.594292	-0.435818	-0.551814	9.68668	0.223786	-0.795389	-0.0490427	0.0425472	-0.0366549	-0.960205	0.403564	0.216309	0.428911	-0.53923	-0.469906	-0.551774	9.744	0.484778	-0.262807	0.0296204	-0.0205572	-0.0112357	-1.02417	0.351074	0.102539	0.488326	-0.590574	-0.463827	-0.444549	9.48416	-2.00883	-1.39985	-0.00457878	0.026331	0.0301022	-0.87085	0.566162	0.157227	0.543476	-0.566481	-0.466577	-0.40748	9.46504	-2.6158	-0.828374	-0.0347096	0.0218484	0.0102244	-0.909668	0.673828	0.0527344	
13	0.261694	-0.246962	-0.701053	-0.615671	6.7433	7.34483	-1.02839	0.0103429	-0.0680209	0.0350442	-0.875732	-0.37085	0.0751953	0.445281	-0.179797	-0.531181	-0.698029	7.35516	5.67783	3.74321	-0.0699092	-0.00919366	0.00553787	-0.735107	-0.312988	-0.405518	0.800927	0.422648	0.247669	-0.344303	-6.24764	5.04482	6.33049	-0.0352207	-0.0412262	-0.0220815	0.829102	-0.275635	-0.446533	0.403733	0.668225	0.141877	-0.608561	-8.91155	3.85959	0.68201	0.0423471	-0.0863737	-0.0159303	0.965088	0.00952148	-0.345459	0.735437	0.533922	0.0905699	-0.407255	-5.73318	7.3034	3.92086	0.0204461	-0.0237578	-0.0545442	0.810547	-0.395508	-0.449951	0.98994	-0.0453332	0.0631307	-0.118232	-3.21389	-2.3195	12.8471	-0.0070018	0.0178249	-0.0879345	0.692871	0.192383	-0.701416	0.279435	-0.523912	-0.512315	-0.620456	9.3443	3.36249	-0.441526	0.0705805	0.0743037	0.0110094	-0.967285	0.0405273	0.215088	0.390117	-0.594515	-0.43533	-0.55213	9.74387	0.0905007	-0.840939	0.0200522	0.00605396	-0.000566118	-0.968994	0.412109	0.218506	0.42796	-0.539967	-0.469212	-0.552383	9.75125	0.86072	-0.0426139	-0.11799	-0.00578836	-0.0287539	-1.02441	0.35791	0.102539	0.487432	-0.592015	-0.462067	-0.445447	9.37846	-1.48694	-1.1161	-0.190814	-0.00636969	0.0433358	-0.861816	0.564209	0.159668	0.542428	-0.567965	-0.464623	-0.409039	9.5309	-1.89358	-0.805635	-0.244817	0.040637	0.0222066	-0.909912	0.678223	0.0617676	
14	0.26283	-0.247672	-0.70029	-0.61577	6.73904	6.84093	-0.920601	-0.0219939	0.0492203	0.0507862	-0.87793	-0.368652	0.0688477	0.445951	-0.181226	-0.530026	-0.69811	7.23256	5.65644	3.75332	-0.0659918	0.000193625	0.0595871	-0.737305	-0.308594	-0.398682	0.802331	0.420906	0.246774	-0.34381	-6.57515	5.89529	6.31277	-0.0856432	-0.0465202	-0.00943043	0.826904	-0.27124	-0.44458	0.40482	0.666101	0.14194	-0.61015	-9.21901	3.85647	0.776631	-0.0892376	-0.0814518	0.00347704	0.965088	0.00952148	-0.347656	0.73537	0.532997	0.0907964	-0.408536	-5.34779	6.98335	3.93362	-0.0114692	-0.00240648	-0.0581055	0.803955	-0.395508	-0.454346	0.989837	-0.0440623	0.0638238	-0.119194	-3.12511	-2.0738	12.5401	0.0439356	0.0576305	-0.047973	0.699463	0.192383	-0.707764	0.279673	-0.524689	-0.512371	-0.619646	9.04732	3.24695	-0.869198	0.02166	-0.0261339	0.0216449	-0.962891	0.036377	0.215332	0.388303	-0.595267	-0.433381	-0.554129	9.88544	0.856984	-0.202923	-0.203278	0.0673577	-0.0429586	-0.9646	0.407959	0.218506	0.421659	-0.544699	-0.465114	-0.556036	9.77131	1.10678	0.373959	-0.480123	-0.0875371	-0.0489348	-1.02173	0.346436	0.10498	0.485304	-0.59409	-0.460201	-0.446936	9.43465	-1.93322	-1.0451	-0.0989082	0.022007	0.0146594	-0.862061	0.566162	0.164062	0.542204	-0.568459	-0.463184	-0.41028	9.42357	-2.26977	-0.835399	0.0492849	0.0502408	-0.00252312	-0.909668	0.673828	0.0549316	
15	0.2642	-0.248349	-0.700344	-0.614849	6.72364	6.93129	-0.855141	0.0560449	0.000590502	0.0700805	-0.884766	-0.364258	0.0686035	0.445993	-0.183252	-0.528662	-0.698588	7.58228	5.74954	3.66198	-0.115245	0.00297172	0.019147	-0.739746	-0.304443	-0.401123	0.803345	0.41831	0.247594	-0.344021	-6.82441	4.54424	6.21849	0.0461637	-0.0147121	-0.0565543	0.829102	-0.269043	-0.44458	0.405279	0.66454	0.142262	-0.611472	-9.5537	3.58183	0.419886	0.0211215	-0.0658672	-0.0349597	0.965088	0.00952148	-0.354248	0.735525	0.531589	0.0908615	-0.410073	-5.58896	6.77085	4.27353	-0.0331309	-0.0570649	-0.075737	0.806152	-0.395508	-0.461182	0.989692	-0.0454208	0.0651699	-0.119165	-3.41945	-2.54742	12.8369	-0.0346462	0.0716271	-0.0239027	0.70166	0.190186	-0.703369	0.27986	-0.526443	-0.513848	-0.616843	9.26466	3.77804	-0.73876	0.0173425	-0.141724	0.0304042	-0.969727	0.0449219	0.212891	0.382522	-0.598586	-0.427622	-0.559027	9.79753	-0.0326053	-0.931489	-0.413334	0.0291195	-0.00344198	-0.968506	0.401123	0.230469	0.412495	-0.55147	-0.458583	-0.561632	10.1306	0.000921349	-0.567276	-0.594265	-0.0721246	-0.0379853	-1.02637	0.346191	0.122803	0.483869	-0.595857	-0.45797	-0.44843	9.82456	-1.27088	-0.970334	-0.145358	0.0625758	0.0349281	-0.866455	0.566162	0.161865	0.540396	-0.570417	-0.46094	-0.412469	9.58972	-2.3884	-0.470317	-0.167359	0.0323241	0.00687768	-0.911865	0.669434	0.0664062	
16	0.264801	-0.25016	-0.699804	-0.614472	6.82545	6.89236	-0.88078	-0.0293473	-0.0473221	0.0671764	-0.882812	-0.362061	0.0686035	0.444998	-0.185091	-0.525532	-0.701095	7.49534	5.64336	3.86962	-0.205718	0.00803522	-0.0570368	-0.733398	-0.302246	-0.406006	0.801615	0.418523	0.249539	-0.346383	-6.90541	5.21225	5.68581	-0.0623152	0.049302	-0.151647	0.831055	-0.260498	-0.442383	0.404224	0.663997	0.14248	-0.612708	-9.13696	3.27859	0.500033	0.0327633	-0.0203673	-0.0852638	0.967285	0.0117188	-0.354248	0.733677	0.532422	0.090138	-0.412457	-5.68989	6.93937	4.28301	0.124554	-0.04899	-0.121992	0.810303	-0.388916	-0.458984	0.989255	-0.0465209	0.0678161	-0.120874	-3.35612	-2.34818	12.7973	-0.0507824	0.109158	-0.0797705	0.701416	0.19458	-0.695068	0.278404	-0.528821	-0.513192	-0.616014	9.51804	3.29105	-0.725	-0.0831329	-0.0772895	0.0229616	-0.967529	0.0427246	0.227783	0.378158	-0.602184	-0.42178	-0.562559	9.81009	-0.588853	-1.19914	-0.338767	0.054402	0.0325848	-0.966553	0.405518	0.228027	0.404647	-0.557862	-0.451524	-0.566725	10.1207	-1.28128	-1.35088	-0.339017	-0.0557188	0.0211857	-1.02148	0.346191	0.140625	0.480577	-0.59947	-0.453989	-0.451194	9.6742	-1.94051	-1.36245	-0.235083	0.0372459	0.0388253	-0.861816	0.566406	0.177734	0.538729	-0.572103	-0.459635	-0.413768	9.74045	-2.47762	-0.826953	-0.0452313	0.00334056	-0.00157084	-0.911865	0.669434	0.0732422	
17	0.264884	-0.252287	-0.698091	-0.615514	6.69743	7.22504	-0.947943	-0.145935	-0.0337871	0.0518873	-0.878662	-0.357666	0.0708008	0.443548	-0.186649	-0.522172	-0.704105	7.28522	5.37523	3.88861	-0.1811	0.00581987	-0.0496583	-0.738037	-0.29126	-0.404053	0.797487	0.423282	0.24825	-0.351025	-6.57384	5.13972	6.01929	0.4104	0.00763223	-0.14005	0.831055	-0.260498	-0.444824	0.399297	0.665139	0.141219	-0.614987	-9.00929	3.32187	1.04417	0.187447	-0.0195303	-0.108132	0.962646	0.0161133	-0.354492	0.730035	0.535025	0.089614	-0.415653	-5.73089	7.25583	4.0121	0.109896	-0.021495	-0.131677	0.808105	-0.388916	-0.463623	0.988941	-0.0426762	0.0704229	-0.123352	-3.53936	-2.11456	12.4869	0.209055	0.142463	-0.108115	0.708008	0.19458	-0.695068	0.2788	-0.528413	-0.511048	-0.617965	9.18223	2.87981	-0.876471	0.0184767	0.0499548	0.00317393	-0.967529	0.0471191	0.223633	0.379644	-0.601086	-0.423208	-0.561659	9.60078	0.167909	-1.16327	0.087348	0.0273545	-0.0251943	-0.9646	0.407715	0.227783	0.408928	-0.554964	-0.455553	-0.563262	9.99485	0.392741	-0.925018	0.165387	0.0171871	0.00992544	-1.02173	0.346191	0.131592	0.47992	-0.600425	-0.452562	-0.452055	9.46735	-1.98072	-1.4086	-0.0220779	0.0209504	0.0192133	-0.866699	0.570557	0.175537	0.537544	-0.573405	-0.458407	-0.414869	9.64348	-2.48049	-0.902767	-0.140456	0.0221681	0.00737526	-0.909668	0.671631	0.0664062	
18	0.264347	-0.253336	-0.696737	-0.616846	6.93415	6.80796	-0.954288	-0.173445	-0.0296523	0.0285289	-0.878418	-0.359863	0.0751953	0.442952	-0.187214	-0.521099	-0.705125	7.3498	5.4114	3.81976	-0.140265	0.00975331	-0.0493161	-0.733887	-0.286865	-0.404297	0.796768	0.42346	0.248125	-0.352528	-6.77765	5.49794	6.47306	0.08826	-0.0257699	-0.121262	0.831055	-0.260498	-0.440186	0.396117	0.665294	0.140139	-0.617119	-8.8902	3.58613	0.786049	0.146743	-0.0674092	-0.0701022	0.962402	0.0183105	-0.358887	0.728518	0.535336	0.0904708	-0.417722	-5.70515	6.82494	3.67375	0.0493904	0.0137521	-0.100088	0.816406	-0.380127	-0.456787	0.988668	-0.0397308	0.0721099	-0.125525	-3.54327	-2.04927	12.1721	0.0973946	0.0859348	-0.097456	0.703613	0.196777	-0.697266	0.282129	-0.525378	-0.510376	-0.619595	8.66625	3.06278	-0.402774	0.0779672	0.134851	-0.00141985	-0.969727	0.0449219	0.20874	0.382821	-0.599536	-0.425848	-0.559158	9.47852	0.12774	-0.981091	0.25583	0.00183203	0.00633339	-0.958008	0.407715	0.227783	0.415265	-0.550178	-0.46055	-0.559243	9.6057	0.986586	-0.0499212	0.408959	0.0606656	-0.0158625	-1.02393	0.348633	0.122803	0.480857	-0.599724	-0.453424	-0.451126	9.60968	-1.72798	-1.24524	0.0908066	0.00867544	-0.00365975	-0.864258	0.568359	0.177734	0.538257	-0.572787	-0.458757	-0.414411	9.49923	-2.46425	-0.746638	0.090534	0.0170647	0.000639861	-0.911865	0.671631	0.0686035	
19	0.264809	-0.254978	-0.694802	-0.618153	6.77302	6.48061	-0.822851	-0.0967327	0.00486151	0.0619012	-0.883057	-0.357666	0.0686035	0.442966	-0.18802	-0.519995	-0.705716	7.33173	5.31947	3.89655	-0.033682	0.0175495	0.00658534	-0.738037	-0.295654	-0.40625	0.796682	0.421997	0.248654	-0.3541	-6.13565	5.15062	6.43997	-0.00332224	-0.0299297	-0.0621291	0.828613	-0.249756	-0.445068	0.396166	0.664499	0.139552	-0.618077	-8.80343	3.65926	1.23746	-0.0265323	-0.0395286	0.0123434	0.962402	0.0183105	-0.358887	0.728201	0.535436	0.0908269	-0.41807	-6.07769	6.80365	3.55988	0.00757558	0.0170934	-0.0588195	0.810059	-0.384521	-0.452148	0.988607	-0.0389656	0.07285	-0.125823	-3.81679	-2.01927	12.2598	0.0586203	0.0791342	-0.0396663	0.712402	0.192383	-0.688477	0.284517	-0.523266	-0.512468	-0.618563	9.23823	3.19924	-0.763525	0.230141	0.170273	-0.0213663	-0.969971	0.0493164	0.204346	0.384701	-0.598739	-0.427535	-0.557432	9.932	0.175656	-0.655612	0.111639	0.000864978	-0.0157265	-0.964844	0.416504	0.225342	0.416317	-0.549534	-0.460724	-0.558951	9.9526	0.790833	-0.313957	0.0923484	0.0550766	0.0059715	-1.02197	0.353271	0.118164	0.481948	-0.598772	-0.45406	-0.450586	9.51659	-1.52303	-1.16916	0.135229	0.0359348	-0.00323636	-0.866699	0.570557	0.168701	0.539369	-0.571976	-0.459276	-0.413509	9.63776	-2.23095	-0.923518	0.0654217	0.0086277	0.00978726	-0.909668	0.676025	0.0686035	
20	0.265754	-0.255077	-0.695354	-0.617084	6.66354	6.26272	-0.79837	0.0951364	0.0058196	0.0166846	-0.880859	-0.355469	0.0708008	0.444178	-0.188611	-0.521481	-0.703697	7.31963	5.53171	3.91252	0.0969806	-0.0240268	0.074382	-0.736084	-0.289062	-0.404053	0.79823	0.418981	0.249549	-0.353566	-6.26236	4.57743	6.45429	-0.13413	-0.00271666	0.00535815	0.833008	-0.249756	-0.451904	0.397474	0.663555	0.139814	-0.618192	-8.74427	3.60043	1.0679	-0.108507	-0.0547023	0.03791	0.960205	0.0205078	-0.361084	0.730719	0.532249	0.0915752	-0.417582	-5.5998	6.70689	3.7648	-0.220361	-0.0296882	0.045124	0.812012	-0.37793	-0.458984	0.988578	-0.0422949	0.0740069	-0.124288	-3.56092	-2.05876	12.2179	-0.217291	0.0150073	0.0386494	0.703369	0.201172	-0.690918	0.28601	-0.522619	-0.514288	-0.616908	9.00939	3.22607	-0.402953	0.2494	-0.007052	-0.00742442	-0.965332	0.0449219	0.212891	0.385529	-0.597859	-0.428371	-0.557163	9.64633	0.218275	-0.738868	0.117256	0.0457466	-0.0420305	-0.962402	0.409912	0.225586	0.419064	-0.547344	-0.462593	-0.557501	9.72005	0.847022	0.0862612	0.184943	0.033817	-0.0253428	-1.02393	0.348633	0.118164	0.48207	-0.598239	-0.455417	-0.449793	9.72184	-1.91497	-1.5204	0.0644234	-0.0119763	-0.034967	-0.868652	0.566162	0.166504	0.540294	-0.571311	-0.459615	-0.412843	9.62958	-2.66923	-0.5875	0.105542	0.0145904	0.001918	-0.907471	0.676025	0.0664062	
21	0.267119	-0.2547	-0.698542	-0.613037	7.04234	6.78497	-0.922031	0.225118	-0.0180678	0.0346524	-0.880859	-0.353271	0.0686035	0.446845	-0.188473	-0.523517	-0.700527	7.37267	5.64236	3.72797	0.148458	0.0242641	0.0919543	-0.740479	-0.286865	-0.404297	0.801238	0.415069	0.250052	-0.351011	-6.80559	5.20851	6.36722	-0.260882	-0.00680006	0.0673462	0.830811	-0.256104	-0.45166	0.40225	0.660851	0.140644	-0.617811	-9.11584	3.40001	1.04538	-0.186542	-0.0667451	0.0997887	0.955811	0.0183105	-0.367676	0.732539	0.530707	0.0918298	-0.416297	-5.59502	6.92514	4.22973	-0.164912	-0.0130916	0.0470688	0.807617	-0.37793	-0.463623	0.988656	-0.0464652	0.0741956	-0.122049	-3.5639	-2.41184	12.3484	-0.149976	-0.0145721	0.0491097	0.709961	0.196777	-0.686523	0.288718	-0.520593	-0.517089	-0.615015	9.24037	3.34421	-0.519626	0.214103	0.0859391	-0.0344248	-0.967773	0.0493164	0.206543	0.387264	-0.596681	-0.429609	-0.556269	9.71194	0.172587	-0.864314	0.108687	0.02348	-0.00489013	-0.958008	0.405762	0.218506	0.419864	-0.54633	-0.462385	-0.558066	9.90606	0.470653	-0.400192	0.0226923	0.0565679	-0.0154026	-1.01709	0.346436	0.118408	0.484079	-0.596493	-0.456965	-0.448382	9.35446	-1.49606	-1.04095	0.0921106	0.00611549	0.00553677	-0.859863	0.570801	0.161865	0.541206	-0.570698	-0.459933	-0.412142	9.50669	-2.06891	-0.809216	-0.0418443	0.00742053	0.0128143	-0.905273	0.678467	0.0593262	
22	0.268998	-0.253955	-0.700875	-0.609853	6.56483	6.93169	-1.01461	0.156358	-0.018449	0.0334299	-0.878906	-0.351318	0.0749512	0.44907	-0.188302	-0.525516	-0.697647	7.35422	5.40808	3.69678	0.109069	0.00387987	0.0680079	-0.742432	-0.29126	-0.404053	0.804596	0.410143	0.251488	-0.348082	-6.40809	4.59141	5.79154	-0.16844	0.0103668	0.0494562	0.824219	-0.245117	-0.449707	0.406513	0.658808	0.141608	-0.616982	-8.98393	3.54674	0.915445	-0.156773	-0.0176209	0.067634	0.958008	0.0183105	-0.37207	0.73324	0.530789	0.0924734	-0.414815	-5.44543	6.74765	4.10624	-0.0301185	0.0524969	0.0347791	0.80542	-0.37793	-0.458984	0.988728	-0.0495816	0.0744866	-0.120047	-3.34701	-2.38572	12.4696	-0.113807	0.0167581	0.0554546	0.709717	0.205566	-0.690918	0.291683	-0.51825	-0.520006	-0.613133	9.27528	3.21865	-0.774062	0.239419	0.114919	-0.0305649	-0.96582	0.0559082	0.199951	0.38892	-0.595431	-0.431586	-0.55492	9.82001	0.378015	-0.420918	0.13454	0.0169511	-0.0329766	-0.969238	0.414307	0.220703	0.419704	-0.546268	-0.461399	-0.559062	9.92365	1.00907	0.135766	-0.102418	0.0376433	-0.0173379	-1.02173	0.348633	0.109375	0.484593	-0.595676	-0.458386	-0.447463	9.35582	-1.7562	-1.20436	0.0767337	-0.0150832	-0.018251	-0.866699	0.570557	0.168701	0.543143	-0.56902	-0.460937	-0.41079	9.46566	-2.11774	-0.822661	0.136891	0.018422	0.0058202	-0.912109	0.678223	0.0593262	
23	0.270106	-0.253975	-0.701897	-0.608178	6.89914	6.97881	-0.977121	0.0482118	0.0224328	0.0312556	-0.889893	-0.351318	0.0771484	0.450433	-0.18819	-0.526943	-0.695719	7.51311	5.63848	3.63484	0.097434	0.00691445	0.043629	-0.738037	-0.29126	-0.399414	0.806088	0.408878	0.251414	-0.346167	-6.56131	4.97409	6.19724	-0.0441934	0.00549579	0.0474104	0.830811	-0.249756	-0.451904	0.408902	0.657703	0.143268	-0.616198	-9.09011	3.35469	0.809976	-0.125062	0.00941995	0.022376	0.955811	0.0183105	-0.369873	0.735057	0.529013	0.0931906	-0.413705	-5.388	6.71543	4.3106	-0.0675796	0.0325361	0.0154412	0.807617	-0.382324	-0.463623	0.988876	-0.0512844	0.0747835	-0.117903	-3.42652	-2.58945	12.4482	-0.0444849	0.00185622	0.0523392	0.709961	0.201172	-0.686523	0.293544	-0.517403	-0.521927	-0.611326	9.27814	3.48462	-0.927596	0.112406	-0.0801456	-0.00136952	-0.96582	0.0537109	0.206299	0.388154	-0.59551	-0.431712	-0.555273	9.98599	0.562897	-0.191622	-0.143814	0.0250572	-0.0296914	-0.966797	0.407959	0.220947	0.415408	-0.549356	-0.45776	-0.562227	10.0071	0.0861954	-0.230047	-0.501572	-0.0307965	-0.0107583	-1.01685	0.344238	0.116211	0.485186	-0.595073	-0.459559	-0.446418	9.70597	-1.40996	-1.05643	0.058647	-0.00174097	0.000921338	-0.868652	0.568359	0.164062	0.543256	-0.569238	-0.460526	-0.410799	9.66656	-2.69609	-0.654083	0.0578109	0.0222751	0.00712793	-0.909912	0.678223	0.0549316	
24	0.269949	-0.254685	-0.702153	-0.607655	6.85676	6.94319	-1.09655	0.0160155	-0.0568058	0.0249281	-0.883301	-0.351318	0.0771484	0.45054	-0.188205	-0.527388	-0.695309	7.4748	5.74111	3.712	-0.0221343	0.014857	-0.0296404	-0.744629	-0.289062	-0.399414	0.807398	0.406709	0.252234	-0.345071	-6.94031	4.96289	6.15228	-0.153772	0.0203918	0.00522493	0.834961	-0.243164	-0.44751	0.409873	0.657462	0.143518	-0.615752	-9.25568	3.436	0.853863	-0.0510709	0.00207817	0.0124604	0.955811	0.0205078	-0.369873	0.734806	0.529605	0.0930786	-0.413418	-5.44018	6.97178	4.28649	-0.012272	0.00295657	-0.00947828	0.809814	-0.380127	-0.461182	0.988934	-0.0511142	0.0747402	-0.11752	-3.32788	-2.20283	12.3026	-0.00347683	0.0111781	-0.0211747	0.71167	0.209717	-0.691162	0.295266	-0.51626	-0.521345	-0.611959	8.98578	3.4803	-0.445937	-0.034601	0.011882	0.0148701	-0.970215	0.0559082	0.201904	0.387116	-0.59679	-0.42975	-0.556145	9.76076	-0.0510621	-0.752632	0.0102401	0.00596342	0.0167772	-0.962402	0.409912	0.223145	0.413854	-0.550805	-0.45671	-0.56281	9.79477	0.774049	-0.139467	-0.0703564	-0.0239315	-0.0113671	-1.02637	0.346191	0.122803	0.483509	-0.597035	-0.457892	-0.44733	9.57334	-1.64868	-1.47481	-0.151185	-0.000640445	0.0373864	-0.862061	0.566162	0.164062	0.541904	-0.570772	-0.459432	-0.411681	9.55214	-2.67085	-0.643256	-0.170981	-0.0114985	0.0075697	-0.909912	0.68042	0.0617676	
25	0.268852	-0.255761	-0.70062	-0.609456	6.90175	6.74589	-1.05414	-0.138161	-0.0217761	-0.0174771	-0.890137	-0.346924	0.0771484	0.449719	-0.188457	-0.525749	-0.697011	7.38703	5.29674	3.76685	-0.10963	0.038423	-0.0733912	-0.738281	-0.284668	-0.404297	0.806909	0.407531	0.25206	-0.345372	-6.31034	4.77271	5.86926	0.171126	0.014989	-0.0331056	0.828613	-0.247559	-0.44751	0.408597	0.65788	0.143636	-0.616126	-8.99872	3.34001	0.744538	0.0871238	0.0289946	-0.0465507	0.962402	0.0205078	-0.363281	0.733375	0.531002	0.092403	-0.414319	-5.67291	6.70071	4.1518	0.16201	0.0166495	-0.0589779	0.80542	-0.380127	-0.46582	0.988863	-0.0511848	0.0743848	-0.118306	-3.55105	-2.99306	12.9097	0.0538986	0.0144006	-0.0636976	0.711914	0.203369	-0.688721	0.296105	-0.515369	-0.519052	-0.614249	9.27172	3.17502	-0.570597	-0.0795082	0.193041	0.0106567	-0.970215	0.0537109	0.193604	0.386617	-0.597309	-0.429448	-0.556168	9.59348	0.215731	-0.82362	-0.0727939	1.67815e-05	-0.0205013	-0.964844	0.416504	0.223145	0.41387	-0.551131	-0.456795	-0.562409	9.70064	0.346889	-0.360731	0.0919418	-0.00702849	-0.0131044	-1.01709	0.351074	0.120605	0.483234	-0.597605	-0.457198	-0.447575	9.452	-1.91298	-1.02329	-0.066598	0.0197132	0.0366717	-0.866455	0.566162	0.168701	0.541855	-0.571082	-0.459378	-0.411376	9.58079	-2.07249	-0.774381	-0.0337869	-0.00651586	0.0069821	-0.905518	0.682861	0.0615234	
26	0.26843	-0.256153	-0.699569	-0.610683	7.00025	6.68072	-0.923259	-0.136372	0.00103436	-0.00684859	-0.887695	-0.351318	0.0771484	0.449091	-0.188228	-0.525285	-0.697828	7.38127	5.36041	3.70815	-0.0697612	0.0284738	-0.0863618	-0.742432	-0.29126	-0.401611	0.805877	0.409439	0.251394	-0.346009	-6.77707	4.99387	6.27231	0.207859	0.0209023	-0.0234572	0.833008	-0.251953	-0.442627	0.406156	0.659229	0.143763	-0.616268	-9.06633	3.5977	0.996669	0.0636141	0.0667398	-0.0556073	0.958008	0.0183105	-0.365479	0.732743	0.531511	0.0924125	-0.414781	-5.74416	7.23667	4.11274	0.0571879	0.0104223	-0.0588329	0.811768	-0.375732	-0.461182	0.988897	-0.0484032	0.0745465	-0.11909	-3.48565	-2.60276	12.5332	0.22727	0.0530397	-0.0667593	0.709961	0.198975	-0.688721	0.296751	-0.514382	-0.517588	-0.615998	9.42275	3.23096	-0.772198	0.00633763	0.120932	-0.021153	-0.970215	0.0581055	0.191406	0.386563	-0.597804	-0.429102	-0.555941	9.66369	-0.463483	-1.03088	0.0917964	0.00363212	0.0167915	-0.962402	0.409912	0.225586	0.41392	-0.551335	-0.456557	-0.562366	9.98436	0.392824	-0.38974	-0.00783975	0.00469372	0.00126516	-1.01953	0.351074	0.118164	0.482685	-0.598171	-0.456893	-0.447722	9.54667	-1.64387	-1.43583	-0.0307752	-0.00482232	0.00609088	-0.868896	0.570557	0.170898	0.542129	-0.570978	-0.459442	-0.411088	9.72479	-2.56929	-0.81896	0.0331899	0.00422568	0.0101972	-0.905518	0.680664	0.0617676	
27	0.267322	-0.257073	-0.698201	-0.612346	6.71262	6.74892	-0.963504	-0.0916801	-0.0540815	-0.0140939	-0.885742	-0.349121	0.0793457	0.448032	-0.188418	-0.524183	-0.699284	7.39958	5.45727	3.83211	-0.0974144	0.0311598	-0.0612655	-0.742676	-0.286865	-0.399414	0.805165	0.410232	0.250798	-0.347158	-6.33142	4.94906	6.53336	0.0708451	-0.00321864	-0.043371	0.833008	-0.249756	-0.44043	0.404561	0.660044	0.143645	-0.616473	-9.05358	3.36269	1.02196	0.0885616	0.0168182	-0.0250454	0.955566	0.0227051	-0.363281	0.730839	0.533573	0.0919932	-0.415586	-5.65674	7.18556	3.84264	-0.0219727	0.0111361	0.00587037	0.809814	-0.37793	-0.454346	0.98892	-0.0455795	0.0747558	-0.119878	-3.74746	-2.11062	12.4082	0.0879765	0.0437377	-0.0459397	0.709961	0.198975	-0.690918	0.297174	-0.513368	-0.516015	-0.617957	8.99001	3.0931	-0.805695	-0.0520775	0.0746398	-0.0166442	-0.974365	0.0537109	0.182861	0.387821	-0.59744	-0.430379	-0.554468	9.83146	0.826152	-0.632233	-0.0610421	0.018263	-0.00946586	-0.968994	0.409912	0.225586	0.416881	-0.549706	-0.458501	-0.560187	9.89432	1.00235	0.0380652	-0.0381822	-0.00621683	0.00783092	-1.01978	0.355713	0.111572	0.482001	-0.599222	-0.456019	-0.447945	9.46489	-1.72406	-1.13045	-0.00274887	0.0354756	0.0143065	-0.871094	0.570557	0.168701	0.5421	-0.571277	-0.458981	-0.411226	9.53568	-2.54117	-0.536194	-0.0602712	0.0139834	0.00515569	-0.905762	0.685059	0.0593262	
28	0.266689	-0.257155	-0.697059	-0.613886	6.67696	6.43583	-0.87923	-0.0582504	0.0153245	-0.0259985	-0.887695	-0.353516	0.0771484	0.447323	-0.188829	-0.52364	-0.700033	7.34511	5.53804	3.77148	-0.0208131	-0.0194983	-0.0287912	-0.74292	-0.280273	-0.4021	0.803842	0.412521	0.250517	-0.347714	-6.56923	4.9175	6.28392	0.115087	0.0315685	-0.0160286	0.828613	-0.249756	-0.445068	0.40361	0.660816	0.143044	-0.616409	-8.83693	3.51698	0.954489	0.106911	0.0376566	-0.00276232	0.957764	0.0227051	-0.361084	0.731356	0.533054	0.0921973	-0.415296	-5.73849	6.89695	3.72046	-0.0638667	0.00926231	0.00787508	0.809814	-0.380127	-0.456787	0.988837	-0.046068	0.0753014	-0.120035	-3.49804	-2.11406	12.4134	-0.0673742	0.0144174	-0.0147914	0.712158	0.198975	-0.684326	0.29755	-0.513172	-0.516416	-0.617602	9.20529	3.16628	-0.711868	0.0690764	0.0118428	-0.0134909	-0.972412	0.0581055	0.180664	0.387142	-0.597855	-0.429432	-0.555228	9.77238	0.0318585	-0.789188	-0.10845	0.0408466	-0.0097893	-0.962891	0.416504	0.220703	0.416737	-0.550022	-0.458304	-0.560145	9.81018	0.410823	-0.22812	-0.0193868	-0.00967268	-0.00521068	-1.01733	0.355469	0.118164	0.482481	-0.599006	-0.455968	-0.447769	9.40094	-1.76678	-1.23566	0.0382413	0.0303017	0.0208346	-0.864502	0.574951	0.173096	0.542179	-0.571497	-0.458962	-0.410836	9.52819	-2.23538	-0.762328	0.0151482	-0.0128462	0.00953271	-0.905518	0.682861	0.0615234	
29	0.265752	-0.257189	-0.697801	-0.613436	6.84511	6.75676	-0.945358	0.0279933	-0.0310567	-0.0252399	-0.885498	-0.349121	0.0705566	0.447411	-0.188934	-0.524507	-0.699299	7.49467	5.60113	3.73441	0.0461055	0.0117024	0.00517313	-0.740234	-0.289062	-0.396973	0.804864	0.411369	0.249611	-0.347368	-6.61213	4.86099	6.61738	-0.015747	-0.0287524	0.0160708	0.828857	-0.256104	-0.449463	0.404835	0.660746	0.143307	-0.615619	-9.15174	3.34681	0.776892	-0.0029497	-0.00146852	0.0525996	0.962402	0.0183105	-0.365479	0.731998	0.53278	0.0913353	-0.414708	-5.535	7.39578	4.02604	-0.091218	-0.0309473	0.0457906	0.807861	-0.384521	-0.458984	0.988877	-0.0469882	0.0751978	-0.11941	-3.41146	-1.95852	12.27	-0.0475201	-0.0102125	-0.00575805	0.709717	0.203369	-0.682373	0.297997	-0.513055	-0.516754	-0.617201	9.21958	3.07224	-0.528605	0.0413355	0.00497976	-0.0153138	-0.974365	0.0493164	0.189453	0.387262	-0.597879	-0.428996	-0.555456	9.65408	-0.0203166	-0.979958	0.0228569	0.0251695	0.00181067	-0.964844	0.414307	0.223145	0.415875	-0.551035	-0.457309	-0.560603	9.9574	0.470139	-0.483055	-0.150806	5.586e-05	0.000407394	-1.02173	0.35083	0.118164	0.482256	-0.599269	-0.455634	-0.448	9.45196	-1.6753	-1.47606	-0.0457049	0.00541408	0.0095535	-0.862061	0.568359	0.170898	0.542726	-0.571232	-0.458955	-0.410491	9.68341	-2.18825	-0.88222	-0.00148399	0.0215552	0.00862553	-0.90332	0.680664	0.0617676	
30	0.265643	-0.257507	-0.699243	-0.611705	7.00543	7.01279	-1.0834	0.0933398	-0.0519446	0.0261819	-0.887939	-0.346924	0.0812988	0.447824	-0.189148	-0.525153	-0.698492	7.34838	5.30196	3.79219	0.0136768	-0.0135273	-0.00014066	-0.746826	-0.289062	-0.404053	0.80657	0.409561	0.249294	-0.345771	-6.48603	5.01118	6.12531	-0.115247	-0.0305812	0.0674217	0.830811	-0.249756	-0.449707	0.407283	0.659853	0.142843	-0.615069	-9.11555	3.48245	0.612471	-0.133125	-0.0226586	0.0842395	0.962646	0.0161133	-0.367676	0.732733	0.532155	0.0910867	-0.414266	-5.61264	6.84184	3.9626	-0.0329968	-0.00763342	0.0209125	0.810059	-0.386719	-0.463623	0.988848	-0.0487309	0.0745771	-0.119345	-3.48474	-2.41024	12.7095	-0.0034111	-0.0125358	-0.0273876	0.709717	0.203369	-0.693115	0.29753	-0.51383	-0.516829	-0.616719	9.08704	3.14335	-0.66524	-0.0289196	-0.0372064	-0.00465438	-0.972656	0.0600586	0.187012	0.387686	-0.597685	-0.429445	-0.555022	9.65796	0.404837	-0.657643	0.00473797	0.0122986	-0.0215966	-0.962402	0.407715	0.225586	0.416395	-0.55062	-0.457627	-0.560366	9.75719	0.82824	-0.0802125	0.0496032	0.0123202	-0.0198409	-1.02417	0.35083	0.118164	0.482629	-0.599266	-0.45553	-0.447707	9.50054	-1.96018	-1.23171	0.037972	0.0225109	0.0162002	-0.860107	0.572998	0.168457	0.542616	-0.571522	-0.458259	-0.411011	9.50813	-2.5737	-0.671826	0.0807691	0.027705	0.000823792	-0.907959	0.685059	0.0593262	
31	0.26674	-0.256722	-0.699178	-0.611632	6.60383	6.73678	-0.919704	-0.00142652	0.0648989	-0.0193358	-0.885498	-0.351318	0.0771484	0.447816	-0.189386	-0.526559	-0.697373	7.40249	5.69074	3.69439	0.0510123	-0.0356153	-0.00333189	-0.742432	-0.29126	-0.399414	0.808067	0.407456	0.248874	-0.345065	-6.56246	4.98107	6.124	-0.0629515	-0.0418388	0.0102489	0.826416	-0.251709	-0.451904	0.408396	0.659264	0.141652	-0.615239	-9.00561	3.56719	1.04885	0.0322076	-0.0347294	0.0453942	0.956055	0.013916	-0.363281	0.733883	0.530758	0.0907049	-0.414107	-5.48242	6.86817	4.09234	-0.0480522	-0.0097936	0.0106169	0.805664	-0.384521	-0.468018	0.988801	-0.0493734	0.0742268	-0.119691	-3.33674	-2.30737	12.5321	-0.0369207	-0.00203932	-0.04068	0.707764	0.201172	-0.686523	0.297137	-0.514553	-0.517538	-0.61571	9.26932	3.37263	-0.572708	0.0392524	-0.0456653	-0.00854541	-0.970215	0.0537109	0.195801	0.386937	-0.598323	-0.428121	-0.555879	9.82184	0.0559895	-0.678748	-0.0790566	0.0346361	0.00313035	-0.962891	0.416504	0.223145	0.413652	-0.55296	-0.454524	-0.562615	10.0314	-0.16609	-0.616501	-0.238077	0.00753657	0.00286416	-1.02197	0.353271	0.125	0.484111	-0.598177	-0.456029	-0.447056	9.54778	-1.31117	-1.24514	0.0825451	0.0358885	0.00777009	-0.862305	0.572754	0.170898	0.54311	-0.571308	-0.458118	-0.410812	9.69951	-2.36889	-0.856507	0.0318364	0.0217035	0.00674472	-0.90332	0.680664	0.0593262	
32	0.266361	-0.25654	-0.699432	-0.611583	6.80439	6.74194	-0.971112	0.0127964	0.000249021	-0.00741144	-0.887695	-0.353516	0.0837402	0.447592	-0.189506	-0.526921	-0.697211	7.54025	5.60118	3.73393	0.0111058	-0.018239	-0.0263239	-0.740479	-0.284668	-0.397217	0.808562	0.40728	0.247813	-0.344876	-6.62145	5.17546	6.32595	0.0417482	-0.0369315	0.00303128	0.826416	-0.245117	-0.454346	0.410105	0.658596	0.141502	-0.614851	-9.17061	3.67276	0.568435	-0.0357088	-0.0244665	0.0448185	0.956055	0.0117188	-0.369873	0.734303	0.529932	0.0896564	-0.414647	-5.3455	6.81967	4.31971	-2.6308e-05	-0.0580989	-0.00119914	0.80127	-0.382324	-0.463623	0.988668	-0.0498361	0.074249	-0.120582	-3.41486	-2.58301	12.3736	-0.0128958	0.0166367	-0.0774484	0.70752	0.205566	-0.695312	0.295927	-0.515877	-0.517075	-0.615575	9.23568	3.23067	-0.40906	-0.0588227	-0.0630444	-0.00338741	-0.972412	0.0578613	0.195557	0.388038	-0.598021	-0.428659	-0.555022	9.53572	0.0788537	-0.807095	0.145443	0.00646162	-0.00255564	-0.958496	0.416504	0.220703	0.416608	-0.55091	-0.456689	-0.560688	9.60984	0.940183	-0.089507	0.200877	0.0258076	-0.00784808	-1.02173	0.35083	0.120361	0.482816	-0.599444	-0.454914	-0.447893	9.64411	-1.88851	-1.56673	-0.0996204	0.00945699	0.014805	-0.864502	0.574951	0.173096	0.54284	-0.57189	-0.457308	-0.411261	9.51868	-2.62289	-0.5625	-0.0583192	0.0216916	0.012792	-0.901367	0.689453	0.0615234	
33	0.265113	-0.257111	-0.699375	-0.611951	6.80895	6.93378	-1.0672	-0.0427949	-0.0696844	-0.0246071	-0.885498	-0.351318	0.0727539	0.446683	-0.18909	-0.527098	-0.697773	7.50042	5.47349	3.71292	-0.00641156	0.00826477	-0.0508707	-0.748779	-0.293457	-0.396973	0.808964	0.406908	0.247282	-0.344754	-6.42449	4.60773	6.1675	0.0151336	-0.0166525	0.0307708	0.822266	-0.251709	-0.454102	0.408906	0.659163	0.139831	-0.615424	-8.75819	3.58758	1.30619	0.0681895	0.00790434	0.00767991	0.956299	0.00732422	-0.369629	0.733464	0.531026	0.0890508	-0.414864	-5.67806	7.18226	4.02642	0.0412264	0.00499329	-0.0214611	0.803711	-0.388916	-0.463623	0.988587	-0.049319	0.0739069	-0.12166	-3.41883	-2.74689	12.5519	0.0543343	0.00584262	-0.0415197	0.70752	0.203369	-0.690918	0.294582	-0.516917	-0.51625	-0.61604	9.22708	3.19904	-0.436534	-0.0473907	0.0211527	-0.0166681	-0.970215	0.0537109	0.195801	0.388099	-0.598163	-0.428751	-0.554754	9.88658	0.3108	-0.587808	-0.0591204	0.0154708	-0.0144221	-0.962646	0.412109	0.225586	0.416354	-0.55142	-0.455905	-0.561014	9.8174	0.420931	-0.0791009	-0.0796943	0.00638379	-0.00639578	-1.02197	0.353271	0.118164	0.482937	-0.599617	-0.454358	-0.448095	9.34449	-1.77926	-1.38153	-0.0609931	0.00157538	0.0126785	-0.859863	0.570801	0.173096	0.542651	-0.572377	-0.456585	-0.411637	9.47755	-2.2556	-0.716621	-0.103398	0.0136925	0.0101779	-0.90332	0.685059	0.0683594	
34	0.264997	-0.257377	-0.699199	-0.61209	7.01131	6.86542	-1.08718	-0.0232047	-0.0179601	0.00676818	-0.885498	-0.351318	0.0793457	0.446709	-0.188875	-0.527564	-0.697462	7.28868	5.60913	3.58425	0.0381205	-0.00512483	-0.0245322	-0.744629	-0.29126	-0.389893	0.808945	0.407643	0.246138	-0.344748	-6.60261	4.93832	6.4117	0.0991307	-0.0427125	0.0375301	0.824463	-0.253906	-0.45874	0.40888	0.659384	0.13949	-0.615282	-9.07403	3.89593	1.01225	0.0545853	-0.00127679	0.00508163	0.958496	0.00732422	-0.371826	0.733694	0.53083	0.0888684	-0.414747	-5.52212	6.75475	4.13895	0.05619	0.0277614	-0.00708693	0.805664	-0.384521	-0.463623	0.988665	-0.0479742	0.0733469	-0.1219	-3.5184	-2.22753	12.4049	0.0256846	-0.0154736	-0.0281095	0.707275	0.209717	-0.693359	0.292208	-0.519742	-0.515671	-0.615277	9.36181	3.34527	-0.897356	-0.060065	-0.102451	0.00339349	-0.968018	0.0537109	0.199951	0.387245	-0.599007	-0.427125	-0.555694	9.67605	-0.151962	-0.794576	-0.0617227	0.016303	0.0162609	-0.958496	0.418701	0.225342	0.415499	-0.552363	-0.454946	-0.561498	9.97623	0.286837	-0.455996	-0.0650698	-0.00103545	-0.00394316	-1.01709	0.351074	0.118164	0.482502	-0.600317	-0.453534	-0.448463	9.64107	-1.84839	-0.923879	-0.025338	0.00303007	0.0269077	-0.862305	0.572754	0.170898	0.542748	-0.572367	-0.456432	-0.411692	9.62309	-2.80134	-0.823849	0.00248361	0.019965	0.00299273	-0.907715	0.682861	0.0593262	
35	0.265006	-0.257782	-0.698853	-0.612311	6.70054	6.8617	-1.00278	-0.0121928	-0.0305739	0.0127753	-0.881104	-0.353516	0.0793457	0.446319	-0.188995	-0.527741	-0.697545	7.7136	5.56224	3.79821	-0.0122403	-0.0150088	-0.0416533	-0.746582	-0.295654	-0.39209	0.810226	0.405989	0.246337	-0.343547	-6.36598	5.02616	6.35201	-0.130289	-0.0072667	0.02828	0.820068	-0.253662	-0.456299	0.409531	0.659561	0.14001	-0.614542	-9.39509	3.73316	0.782928	-0.0603613	0.0401992	0.0223001	0.956543	0.00292969	-0.365234	0.733327	0.531418	0.0886462	-0.414692	-5.61976	7.04652	4.1598	0.0544096	0.0176011	-0.00954719	0.803467	-0.386719	-0.46582	0.988674	-0.0484353	0.0731066	-0.12179	-3.36968	-2.46856	12.6496	-0.0305663	-0.0124404	-0.0154156	0.703125	0.20752	-0.691162	0.290079	-0.521785	-0.5146	-0.615452	9.18841	3.05315	-0.706935	-0.100088	-0.0790334	-0.00749728	-0.974365	0.0537109	0.206299	0.387134	-0.599536	-0.42659	-0.555612	9.70709	0.321497	-0.707019	-0.0511144	0.032883	-0.00626454	-0.960449	0.412109	0.223145	0.415336	-0.552627	-0.45467	-0.561582	9.79144	0.627364	-0.236881	-0.0258128	0.0007362	-0.00759488	-1.02197	0.353271	0.125	0.482155	-0.600774	-0.453198	-0.448562	9.61025	-1.79115	-1.30101	-0.0472261	0.000566262	0.0182784	-0.861816	0.566406	0.175537	0.542352	-0.572999	-0.455546	-0.412316	9.58887	-2.24319	-0.543911	-0.0472048	0.01921	0.00977393	-0.903076	0.678467	0.0617676	
36	0.26456	-0.258426	-0.698054	-0.613143	6.71637	6.77773	-1.00659	-0.0695056	-0.00726739	-0.00908053	-0.883301	-0.353516	0.0793457	0.445761	-0.189406	-0.527241	-0.698168	7.43201	5.54802	3.5903	-0.0145495	-0.00771832	-0.0377964	-0.744385	-0.295654	-0.394531	0.810565	0.405362	0.247078	-0.342957	-6.74082	5.23246	6.18338	-0.0344967	0.043654	-0.0221674	0.826416	-0.249512	-0.456543	0.409087	0.659919	0.140068	-0.61444	-9.10115	3.77218	0.739473	0.0331396	0.0350118	-0.0165627	0.958496	0.00732422	-0.365234	0.733359	0.531645	0.0885225	-0.414369	-5.51852	6.86477	4.06445	0.0220023	0.0392301	-0.00239993	0.801514	-0.391113	-0.461182	0.988612	-0.0485173	0.0735659	-0.121985	-3.3853	-2.33825	12.6914	-0.0140588	0.0368415	-0.0296696	0.709473	0.207764	-0.691162	0.289452	-0.522435	-0.514454	-0.615318	9.24103	3.15165	-0.806083	-0.028258	-0.0487695	-0.010759	-0.96582	0.0559082	0.214844	0.386799	-0.599733	-0.426226	-0.555912	9.61868	-0.0800553	-0.782061	-0.0440541	0.0220743	-0.0159522	-0.967041	0.414307	0.230225	0.415319	-0.552977	-0.454529	-0.561365	9.87307	0.38359	-0.362189	0.0316506	-0.00416227	-0.00739149	-1.02441	0.357666	0.118164	0.482542	-0.600766	-0.452753	-0.448607	9.58098	-1.83218	-1.05412	0.0282551	0.0183422	0.0180618	-0.85791	0.575195	0.173096	0.543812	-0.571877	-0.456127	-0.411308	9.69903	-1.88416	-0.828147	0.110735	0.0145571	0.00712923	-0.905762	0.685059	0.0593262	
37	0.263859	-0.259658	-0.69765	-0.613385	6.96033	6.67186	-1.07159	-0.0186686	-0.0342876	0.0236765	-0.881104	-0.351318	0.081543	0.445476	-0.189364	-0.527024	-0.698526	7.33527	5.60261	3.67955	-0.0413886	0.018868	-0.022668	-0.744385	-0.295654	-0.39917	0.809599	0.407247	0.246172	-0.343654	-6.55055	5.02337	6.34564	0.174954	0.00786784	-0.015798	0.824463	-0.256104	-0.456299	0.408009	0.660616	0.140347	-0.614344	-9.07691	3.5632	0.870027	0.00480315	0.0310593	-0.0180729	0.956299	0.00732422	-0.365234	0.732817	0.531988	0.0884401	-0.414905	-5.55509	7.21361	4.07537	0.0232424	-0.00297599	-0.029338	0.799316	-0.391113	-0.46582	0.988682	-0.0470258	0.0736347	-0.121959	-3.25933	-2.68341	12.8223	0.138381	0.021006	-0.022325	0.709473	0.209717	-0.693359	0.28879	-0.523041	-0.51379	-0.615669	8.86882	3.11951	-0.789895	0.0128853	-0.0324473	-0.00309985	-0.970215	0.0537109	0.204102	0.386966	-0.59974	-0.426395	-0.555659	9.81076	-0.158649	-0.84528	0.0293087	0.00516087	-0.00855819	-0.960449	0.410156	0.223145	0.415408	-0.553157	-0.454427	-0.561203	9.86886	0.304428	-0.304541	-0.0537724	0.000904311	-0.00510891	-1.01514	0.35791	0.124756	0.481929	-0.601303	-0.452355	-0.448948	9.46721	-1.90017	-1.14294	-0.0433181	0.0132142	0.00875711	-0.862305	0.574951	0.173096	0.542868	-0.573055	-0.455067	-0.412088	9.46711	-3.0995	-0.782665	0.0327345	0.0112502	0.0027151	-0.90332	0.682861	0.0593262	
38	0.26364	-0.259752	-0.697426	-0.613693	6.62662	6.69722	-1.08481	-0.00955228	-0.0247777	-0.0163096	-0.883545	-0.349121	0.081543	0.445494	-0.189208	-0.527305	-0.698344	7.48463	5.70811	3.67929	0.0075674	0.0284045	-0.0241635	-0.740234	-0.289062	-0.394775	0.810389	0.405963	0.24655	-0.343041	-6.41452	4.6565	6.34152	-0.0606482	0.0220164	-0.00119046	0.822266	-0.256104	-0.45166	0.407322	0.660503	0.140229	-0.614947	-9.06513	3.76993	0.877089	0.0307275	-0.0215276	-0.0293601	0.960693	0.00952148	-0.36084	0.730728	0.534238	0.0882543	-0.415737	-5.61113	7.42637	3.9131	0.0590121	0.0054717	-0.0522767	0.805908	-0.391113	-0.468018	0.988743	-0.0439938	0.0739456	-0.122411	-3.37919	-2.03748	12.3588	0.0658063	0.0325489	-0.0245844	0.696777	0.205566	-0.693115	0.288137	-0.524188	-0.514108	-0.614734	9.21566	3.28959	-0.527989	0.0355913	-0.0150691	-0.00235088	-0.969971	0.0515137	0.210693	0.387848	-0.599189	-0.426802	-0.555326	9.71119	0.0334049	-0.813103	0.0357647	0.00280282	-0.0110309	-0.960449	0.412109	0.225586	0.41609	-0.552822	-0.454901	-0.560644	9.81926	0.606662	-0.215665	0.0568264	0.00666613	-0.0140947	-1.01514	0.355469	0.122559	0.48277	-0.600894	-0.452521	-0.448424	9.55594	-1.61891	-1.46043	0.0469267	0.0229484	0.00444708	-0.857666	0.572998	0.173096	0.542764	-0.573361	-0.454989	-0.411886	9.6226	-2.41517	-0.704637	-0.0995066	-0.00659534	0.00836661	-0.903076	0.678467	0.0639648	
39	0.263386	-0.259935	-0.697855	-0.613237	6.96886	6.93108	-1.12425	0.0222206	-0.00982193	-0.00108796	-0.885498	-0.353516	0.0837402	0.445859	-0.189256	-0.527006	-0.698324	7.35822	5.46806	3.69221	0.0058179	0.0238604	-0.00695104	-0.742432	-0.293457	-0.396973	0.810235	0.406647	0.245933	-0.343037	-6.37609	5.41544	6.36894	0.0112818	0.0162813	-0.0093005	0.822266	-0.256104	-0.449463	0.407968	0.659866	0.140303	-0.615186	-8.99543	3.76971	0.855954	-0.00326684	-0.0196621	0.010926	0.956055	0.013916	-0.365479	0.730536	0.534048	0.0884911	-0.416268	-5.50024	6.82126	4.03463	0.0669312	0.026761	-0.0304069	0.810059	-0.384521	-0.46582	0.988728	-0.0425539	0.0740176	-0.122996	-3.51938	-2.19734	12.5018	0.0799596	0.0251069	-0.0463999	0.705566	0.201172	-0.684326	0.287507	-0.524986	-0.513893	-0.614527	9.2835	3.105	-0.858734	-0.0320238	-0.0577	1.06068e-05	-0.959717	0.0600586	0.212646	0.388063	-0.598978	-0.426933	-0.555303	9.73214	-0.0446405	-0.78841	0.00468594	0.0300027	-0.0167289	-0.960693	0.418701	0.225342	0.416066	-0.552993	-0.454752	-0.560614	9.87033	0.374823	-0.248844	0.0167291	0.00192106	-0.0172229	-1.01733	0.353271	0.120361	0.482256	-0.601297	-0.452582	-0.448376	9.50745	-1.80832	-1.21203	-0.0235053	-0.0231775	-0.00104718	-0.858154	0.57959	0.173096	0.543728	-0.572565	-0.455798	-0.410825	9.53836	-1.9994	-0.635462	0.0578137	-0.00330832	0.00329042	-0.905762	0.685059	0.0639648	
40	0.264644	-0.25887	-0.697672	-0.613355	6.91266	6.72095	-1.03454	0.0306271	0.0925369	0.00523558	-0.883301	-0.351318	0.0771484	0.446867	-0.188776	-0.527286	-0.697598	7.37454	5.61797	3.68763	0.038159	0.037969	0.027748	-0.738037	-0.29126	-0.399414	0.810151	0.407505	0.245095	-0.342817	-6.54549	4.91769	6.44182	0.13513	-0.0060199	0.0173963	0.82666	-0.256104	-0.454102	0.407878	0.659665	0.139742	-0.615589	-9.0087	3.54652	1.24707	0.0141158	-0.00945282	0.0191971	0.960693	0.0117188	-0.367676	0.731353	0.533053	0.0893703	-0.415922	-5.47599	7.07481	3.92333	-0.138599	0.0131588	-0.01164	0.807861	-0.382324	-0.461182	0.988797	-0.0423024	0.0737332	-0.122693	-3.34395	-2.44855	12.4135	0.0315757	-0.00228484	0.00824667	0.707764	0.198975	-0.692871	0.288455	-0.525005	-0.515126	-0.613032	9.15099	3.16724	-0.804402	0.0606533	-0.0459603	0.00610216	-0.963867	0.0600586	0.216797	0.389046	-0.598416	-0.42768	-0.554645	9.6956	0.231757	-0.710131	0.0574488	0.00915475	-0.011128	-0.962891	0.418701	0.218262	0.415701	-0.553388	-0.454289	-0.56087	9.88455	0.660434	-0.274877	-0.0819076	0.00237786	-0.00891498	-1.01514	0.35791	0.124756	0.482707	-0.600951	-0.453069	-0.447863	9.53478	-1.91439	-1.22358	0.0576691	0.015626	0.0106712	-0.85791	0.577393	0.173096	0.543823	-0.572609	-0.455874	-0.410553	9.59772	-2.58349	-0.791007	0.110774	0.00383562	0.00309241	-0.90332	0.685059	0.0615234	
41	0.266549	-0.258314	-0.697733	-0.612693	6.80019	6.89197	-0.890533	0.0439577	0.0465408	0.0377106	-0.887451	-0.355713	0.0749512	0.447914	-0.188748	-0.527522	-0.696755	7.55223	5.51643	3.70304	0.0260836	0.0475231	0.0144136	-0.744629	-0.29126	-0.396973	0.81174	0.405468	0.245759	-0.340993	-6.62052	4.93994	6.37646	-0.169095	0.0135863	0.04428	0.82666	-0.258301	-0.453857	0.410057	0.658641	0.141114	-0.614925	-9.15707	3.68762	0.682745	-0.0975228	0.00038715	0.00906509	0.953857	0.0117188	-0.369873	0.732353	0.532299	0.0899074	-0.41501	-5.8314	7.15735	4.048	-0.0408283	0.0115464	0.0261739	0.803223	-0.37793	-0.461182	0.988845	-0.0423233	0.0738402	-0.122239	-3.47046	-1.92272	12.5786	-0.00123709	0.0179669	0.0154679	0.701416	0.198975	-0.692871	0.288104	-0.526382	-0.516988	-0.610444	9.34883	3.16015	-0.837642	0.0718013	-0.131786	-0.0105786	-0.96167	0.0559082	0.221191	0.389436	-0.59802	-0.427762	-0.554735	9.5763	0.0310205	-0.859511	0.0165759	0.0390467	-0.0231431	-0.960693	0.416504	0.218506	0.416643	-0.552746	-0.455084	-0.56016	9.78297	0.648083	-0.19655	0.111042	0.00948324	-0.017203	-1.02197	0.357666	0.124756	0.483068	-0.600671	-0.453612	-0.447298	9.5876	-1.51923	-1.43729	0.0212066	-0.00180892	-0.00178326	-0.869141	0.574951	0.16626	0.543924	-0.572731	-0.455848	-0.410278	9.66407	-2.6486	-0.72534	0.023867	0.00279533	0.00674112	-0.901123	0.685059	0.0593262	
42	0.267355	-0.257978	-0.697582	-0.612656	6.74922	6.61356	-0.862077	0.0194746	0.0597412	0.02265	-0.887695	-0.351318	0.0793457	0.448731	-0.188297	-0.527739	-0.696187	7.33748	5.6295	3.60694	0.0562006	0.0565399	0.024222	-0.742676	-0.284668	-0.394775	0.811706	0.405635	0.245802	-0.340844	-6.38628	4.74994	6.25813	0.0277297	0.0213628	-0.00387624	0.828613	-0.256104	-0.456299	0.410802	0.658197	0.141514	-0.614811	-8.74641	3.67448	1.2458	-0.0620519	0.0107322	0.00599658	0.953857	0.013916	-0.365479	0.733664	0.530742	0.0904275	-0.414576	-5.36031	6.99669	4.17776	-0.169692	-0.00521097	0.0219584	0.810303	-0.391113	-0.463623	0.988895	-0.0443584	0.0740678	-0.120965	-3.46962	-2.48776	12.4195	-0.0833674	0.00306295	0.0348818	0.701172	0.201172	-0.690918	0.288219	-0.526731	-0.518143	-0.609108	9.17676	3.30354	-0.739521	0.0748132	-0.0495401	-0.0145256	-0.966064	0.0578613	0.225342	0.390546	-0.597278	-0.428555	-0.554142	9.75905	-0.050358	-0.733021	0.0936834	0.0215445	-0.0144428	-0.962646	0.414307	0.218506	0.416386	-0.553081	-0.454565	-0.560441	9.92848	0.541039	-0.307284	-0.0493485	0.0118802	-0.00528799	-1.01978	0.355469	0.125	0.483289	-0.600568	-0.453662	-0.447147	9.52685	-1.80681	-1.20872	0.0237929	0.0138897	0.0100005	-0.860107	0.577393	0.170654	0.544341	-0.572467	-0.456099	-0.409814	9.56757	-2.172	-0.734295	0.0591345	-0.00162719	0.00854193	-0.903564	0.687256	0.0615234	
43	0.267632	-0.257338	-0.698156	-0.612151	6.73663	6.62603	-0.890967	0.0571105	-0.00384109	-0.0125802	-0.883545	-0.349121	0.0793457	0.450066	-0.187385	-0.528145	-0.695263	7.47183	5.56946	3.65259	0.0290793	0.068616	0.00612207	-0.742432	-0.289062	-0.401855	0.81287	0.404879	0.24583	-0.338944	-6.49227	4.69657	6.37311	-0.0743522	0.00553565	0.0780182	0.828857	-0.258301	-0.447021	0.412045	0.657509	0.142816	-0.614414	-9.15254	3.70329	0.631151	-0.0507514	0.0150034	0.00454224	0.956299	0.00952148	-0.367432	0.733305	0.531506	0.0907002	-0.414172	-5.62059	7.01606	4.12168	0.027007	0.0196294	-0.0187411	0.807861	-0.384521	-0.46582	0.98911	-0.044313	0.0736372	-0.119477	-3.38664	-2.08369	12.1635	0.0184019	0.017463	0.0213757	0.707764	0.198975	-0.697266	0.287465	-0.527939	-0.518634	-0.607999	9.07082	3.22878	-0.95418	0.0139612	-0.0485381	-0.00517408	-0.963867	0.0578613	0.227539	0.391655	-0.596582	-0.429229	-0.553588	9.82417	0.384955	-0.582765	0.033051	0.0262678	-0.00665941	-0.956299	0.418701	0.220703	0.417037	-0.552852	-0.454718	-0.560059	9.92479	0.594407	-0.138439	-0.0402166	0.00219859	-0.00167096	-1.01978	0.355469	0.118164	0.483926	-0.600142	-0.454205	-0.446479	9.43388	-1.78204	-1.04362	0.0237762	-0.00140748	0.0189665	-0.860352	0.57959	0.168457	0.545084	-0.571868	-0.45648	-0.409239	9.57364	-2.6001	-0.776039	0.105315	0.0129982	0.000987136	-0.90332	0.685059	0.0546875	
44	0.268132	-0.257106	-0.698507	-0.611629	6.71921	6.75078	-0.900582	0.0621671	0.0177539	0.0127745	-0.887695	-0.353516	0.0771484	0.451167	-0.186701	-0.527858	-0.694951	7.29728	5.53625	3.63192	0.01309	0.0426998	-0.00774132	-0.738037	-0.29126	-0.394531	0.81322	0.404761	0.245921	-0.338178	-6.39557	5.45178	6.1079	-0.0450209	0.0202977	-0.00784582	0.824463	-0.256104	-0.45166	0.412296	0.657414	0.143168	-0.614265	-8.91818	3.64075	0.832413	-0.0331477	0.0171647	-0.00138711	0.958252	0.013916	-0.369873	0.733192	0.531778	0.0908659	-0.413986	-5.48418	6.78187	4.12844	0.00565936	0.0172619	-0.00615365	0.805908	-0.391113	-0.458984	0.989121	-0.0454104	0.0735133	-0.11905	-3.54526	-2.14775	12.4563	-0.0840035	-0.0104136	0.00613085	0.707764	0.198975	-0.695068	0.286836	-0.529085	-0.519338	-0.606698	9.1089	3.33782	-0.8913	0.0501887	-0.141348	0.00121162	-0.961914	0.0622559	0.227539	0.39158	-0.596604	-0.428912	-0.553862	9.71964	0.109769	-0.590103	-0.0225138	0.0366887	-0.0125301	-0.95874	0.420898	0.213623	0.417315	-0.552757	-0.454973	-0.559739	9.76679	0.392288	-0.171768	0.0440957	-0.00271034	-0.0108407	-1.02222	0.360107	0.120361	0.48411	-0.600062	-0.454124	-0.446469	9.62143	-1.59212	-1.49564	0.0119132	0.0239015	0.00945289	-0.862305	0.574951	0.173096	0.544682	-0.572606	-0.455824	-0.409473	9.56191	-2.68106	-0.630909	-0.0468684	0.00481262	0.0106033	-0.901123	0.687256	0.0615234	
45	0.267587	-0.257293	-0.698782	-0.611475	6.8563	6.82239	-1.03435	-0.0108597	0.00136662	-0.0201518	-0.887939	-0.349121	0.0812988	0.451623	-0.18533	-0.527813	-0.695056	7.40175	5.76266	3.66476	0.0148457	0.0571196	-0.0383202	-0.738037	-0.29126	-0.404053	0.813035	0.405388	0.246052	-0.337776	-6.6524	4.9118	6.01711	0.118489	0.035568	-0.00266349	0.824463	-0.258301	-0.453857	0.411212	0.658355	0.142321	-0.614181	-8.97098	3.59353	1	0.0758474	0.0240284	0.00750778	0.960693	0.0117188	-0.367676	0.732913	0.532283	0.0905176	-0.413907	-5.34976	6.92944	4.17323	0.00504514	0.0149925	-0.0116324	0.805664	-0.384521	-0.463623	0.989167	-0.0444754	0.0734635	-0.11905	-3.27309	-2.00112	12.3403	0.0559552	0.022948	-0.0317987	0.707764	0.198975	-0.692871	0.284623	-0.53169	-0.518809	-0.605915	9.09335	3.19268	-1.04262	-0.0574951	-0.0941526	-0.000554005	-0.964111	0.0644531	0.240234	0.391581	-0.596801	-0.42846	-0.553999	9.80052	0.201138	-0.564825	0.00451211	0.0219605	0.00803722	-0.962891	0.418701	0.220703	0.416736	-0.553608	-0.454591	-0.559639	9.85445	0.44884	-0.108135	-0.0666518	-0.0258184	-0.00516304	-1.01978	0.357666	0.120361	0.483209	-0.601006	-0.453332	-0.446979	9.50117	-1.73456	-1.38276	-0.101451	-0.0159598	0.011965	-0.855713	0.57959	0.166016	0.544715	-0.572938	-0.455582	-0.409234	9.65311	-2.34245	-0.728964	-0.0852334	0.000901165	0.0145642	-0.905762	0.687256	0.0615234	
46	0.267462	-0.257347	-0.698134	-0.612247	7.14873	6.85397	-0.98784	-0.0366415	0.0323134	0.0011761	-0.885498	-0.351318	0.0793457	0.451513	-0.183675	-0.528234	-0.695247	7.31869	5.52355	3.58689	0.0595157	0.0423617	-0.0741854	-0.742188	-0.300049	-0.403809	0.813669	0.405043	0.245478	-0.33708	-6.40933	4.6345	6.36726	0.0230935	-0.00258561	0.0332621	0.822266	-0.260254	-0.456055	0.410525	0.658686	0.142408	-0.614265	-8.92029	3.38862	1.00216	0.0728203	0.012118	-0.0157223	0.962646	0.013916	-0.367676	0.73206	0.533371	0.0900902	-0.414109	-5.4187	6.89794	4.1175	0.0667696	0.0133069	-0.0359233	0.805664	-0.386719	-0.458984	0.98921	-0.0439371	0.0725924	-0.119432	-3.3324	-2.85596	12.5612	0.112283	-0.010512	-0.0392003	0.703369	0.198975	-0.699463	0.282985	-0.534555	-0.520191	-0.60297	9.05614	2.98839	-1.11515	0.0640195	-0.196531	0.0144998	-0.959717	0.0644531	0.248779	0.390386	-0.598057	-0.426554	-0.554957	9.723	0.0568197	-0.782151	-0.141475	0.0154193	0.0119475	-0.962891	0.418701	0.218262	0.415661	-0.554659	-0.453719	-0.560106	9.88077	0.706364	0.0447815	-0.133058	-0.0307567	-0.00622205	-1.01733	0.35791	0.122559	0.481943	-0.602496	-0.451928	-0.447763	9.44839	-1.7433	-1.2196	-0.115811	0.00106806	0.0351613	-0.860107	0.575195	0.175293	0.544174	-0.57389	-0.454513	-0.409808	9.5216	-2.06928	-0.695436	-0.120351	0.0214379	0.0240108	-0.896729	0.689453	0.0593262	
47	0.267678	-0.256556	-0.696305	-0.614562	6.88917	6.95265	-0.95047	-0.120284	0.0531651	-0.044439	-0.889893	-0.353516	0.0749512	0.450201	-0.18202	-0.531717	-0.693877	7.54846	5.65071	3.68758	0.122794	-0.0288652	-0.0948706	-0.741943	-0.302246	-0.403564	0.813281	0.407007	0.244912	-0.336061	-6.77689	5.31124	6.27621	0.0354652	0.0207038	0.0619795	0.828857	-0.264893	-0.447021	0.410212	0.65912	0.142277	-0.61404	-8.85959	3.79084	1.12524	0.0372993	0.0376075	0.00511865	0.960693	0.00952148	-0.369629	0.731894	0.534174	0.0900807	-0.413371	-5.715	7.20928	3.9924	-0.0140392	0.0342409	0.0172754	0.808105	-0.388916	-0.468018	0.989299	-0.0426055	0.0718544	-0.119625	-3.61795	-2.25124	12.2874	-0.0329233	-0.0381491	-0.00638693	0.705566	0.196777	-0.697266	0.280552	-0.539603	-0.527183	-0.593462	8.63127	2.9366	-1.23878	0.295054	-0.5763	-0.018492	-0.951172	0.0644531	0.27002	0.389369	-0.599227	-0.424976	-0.555621	9.66209	-0.122248	-0.871328	-0.0469906	0.0139519	0.00464382	-0.960938	0.420898	0.216064	0.413372	-0.556815	-0.451745	-0.561255	9.77164	0.443211	-0.401058	-0.0322361	-0.0152951	-0.00280764	-1.01318	0.364746	0.12915	0.48068	-0.603946	-0.45071	-0.448394	9.66696	-1.95377	-1.44675	-0.0494299	0.0122652	0.018856	-0.855713	0.577393	0.182129	0.543466	-0.57498	-0.453335	-0.410525	9.66585	-2.6991	-0.670299	0.0862813	0.0218351	0.0113414	-0.903564	0.689453	0.0568848	
48	0.267865	-0.255158	-0.694265	-0.617365	6.31439	6.62091	-0.784495	-0.0947411	0.0720797	-0.032523	-0.885254	-0.355713	0.0708008	0.449034	-0.182212	-0.534195	-0.692678	7.67525	5.40118	3.76635	0.0368581	-0.0892014	-0.0333402	-0.741943	-0.306396	-0.394043	0.812734	0.409638	0.243628	-0.33512	-6.55433	5.32639	6.24417	0.17041	0.00664762	0.0475875	0.826904	-0.269043	-0.453613	0.409628	0.66011	0.14321	-0.613148	-9.20065	3.56884	0.909525	0.00474699	0.0692336	-0.0181031	0.967285	0.0117188	-0.358643	0.733237	0.533696	0.0905235	-0.411508	-5.84377	7.04813	3.94448	-0.0326103	0.0521971	0.0662162	0.805908	-0.393311	-0.461182	0.989464	-0.0432338	0.070717	-0.118701	-3.55657	-2.14764	12.9383	-0.0483718	-0.0468832	0.0205076	0.701416	0.19458	-0.699219	0.274784	-0.546759	-0.530985	-0.586177	9.82841	3.2081	-1.72148	0.0140805	-0.398931	-0.00499336	-0.946777	0.0644531	0.289062	0.38935	-0.599412	-0.424326	-0.555931	9.65722	-0.0500053	-0.887098	-0.0117048	0.0397969	-0.0130464	-0.958984	0.425293	0.21582	0.413422	-0.557124	-0.451456	-0.561144	9.75895	0.350459	-0.373622	0.0211428	0.00541028	-0.0047881	-1.01758	0.360107	0.126953	0.481018	-0.603688	-0.450882	-0.448206	9.57671	-1.97916	-1.31914	0.0323869	0.0137793	-0.00747711	-0.864502	0.574951	0.177734	0.544058	-0.574767	-0.453467	-0.409892	9.61742	-2.85421	-0.783208	0.0688451	0.000129449	0.00901502	-0.901367	0.689453	0.0593262	
49	0.26779	-0.257465	-0.693918	-0.616829	6.91251	6.93774	-0.825132	-0.0389838	-0.0616395	0.0751654	-0.887939	-0.346924	0.0705566	0.44852	-0.18208	-0.536296	-0.691421	7.34763	5.88365	3.56926	0.102068	-0.0800214	-0.0167775	-0.735352	-0.308594	-0.391602	0.812934	0.409685	0.243879	-0.334395	-6.56297	5.00568	6.24723	-0.0577491	0.0434411	0.014891	0.824707	-0.266846	-0.446777	0.408937	0.661741	0.143595	-0.611759	-9.21441	3.85836	0.494754	0.00767635	0.0192292	-0.0109571	0.960693	0.0117188	-0.363281	0.733962	0.533406	0.0910963	-0.410463	-5.53014	7.19693	3.95204	-0.0738391	0.0168155	0.00727744	0.805908	-0.393311	-0.458984	0.98953	-0.0440702	0.0706922	-0.117855	-3.06265	-1.96358	12.8853	-0.0559242	0.0154968	0.00159097	0.703613	0.196777	-0.695068	0.275108	-0.547698	-0.532822	-0.583475	9.13572	3.00682	-1.44781	0.174418	-0.0720358	-0.013029	-0.949219	0.072998	0.29541	0.390897	-0.598155	-0.425072	-0.55563	9.6705	-0.246791	-0.830284	0.111254	0.0578108	-0.0210149	-0.95874	0.423096	0.213623	0.414131	-0.556846	-0.451564	-0.56081	9.77807	0.217677	-0.422777	0.0439224	0.0215936	-0.00982342	-1.01514	0.360107	0.131592	0.48217	-0.602403	-0.451814	-0.447757	9.33733	-1.66949	-1.57217	0.0745814	0.00603009	-0.0208606	-0.862305	0.577148	0.173096	0.545681	-0.573473	-0.454339	-0.40858	9.60459	-2.67623	-0.930715	0.0489278	0.00965593	0.0044202	-0.896973	0.693848	0.059082	
50	0.267895	-0.258376	-0.69333	-0.617063	6.68597	6.5885	-0.832736	0.00283213	-0.0159174	0.0306689	-0.889893	-0.349121	0.0683594	0.448639	-0.182768	-0.537078	-0.690555	7.04997	5.42248	3.48701	0.0202254	-0.0187854	0.0149244	-0.743652	-0.315186	-0.38916	0.81335	0.408403	0.24493	-0.334182	-6.74489	5.24041	6.31943	-0.0661522	0.0307768	-0.0470782	0.818359	-0.270996	-0.448975	0.409428	0.661197	0.143941	-0.611939	-9.19378	3.58573	0.656643	-0.0277635	-0.012749	-0.00259058	0.963135	0.00732422	-0.36084	0.732715	0.534462	0.0913495	-0.411259	-5.52048	7.15794	3.89511	0.0549395	0.0158652	-0.0529164	0.808105	-0.388916	-0.463623	0.989602	-0.0424142	0.0710603	-0.117639	-2.90153	-2.05617	12.8704	0.135052	0.0562576	-0.0107495	0.697266	0.19458	-0.697021	0.276566	-0.547065	-0.53146	-0.584621	8.83501	3.03156	-1.82836	0.00361895	0.173639	0.031774	-0.953613	0.0751953	0.293213	0.392385	-0.597003	-0.426136	-0.555005	9.78321	0.345254	-0.589547	0.0305617	0.034944	-0.0114766	-0.960938	0.425293	0.21582	0.415032	-0.556262	-0.451743	-0.560579	9.94247	0.583142	-0.181375	-0.0163339	0.0315624	-0.00755242	-1.01758	0.362305	0.124756	0.481881	-0.602447	-0.452093	-0.447728	9.48744	-1.98021	-1.31998	-0.0319056	-0.0127702	0.0123842	-0.857666	0.568604	0.17334	0.546608	-0.572767	-0.454114	-0.40858	9.42918	-2.25118	-0.547495	-0.124131	0.0451604	0.0127709	-0.903564	0.689453	0.0615234	
51	0.268113	-0.259082	-0.6939	-0.616031	6.71456	6.53221	-0.889844	0.07552	-0.0601364	0.0571542	-0.885742	-0.344727	0.0727539	0.448504	-0.183418	-0.537946	-0.689794	7.5132	5.92914	3.51732	0.0469669	-0.0706891	0.0159254	-0.743896	-0.306396	-0.384766	0.81382	0.407777	0.244945	-0.333793	-6.62861	4.73191	6.09617	-0.0448435	-0.00407493	0.0108885	0.828857	-0.264893	-0.449219	0.409603	0.659848	0.144392	-0.613169	-9.24719	3.65277	0.541683	-0.0217275	-0.0679621	-0.0388229	0.958008	0.0183105	-0.358887	0.732464	0.534087	0.0913335	-0.412197	-5.62995	7.01575	3.9825	-0.00641041	-0.0436052	-0.0796348	0.803711	-0.388916	-0.456787	0.989564	-0.0421422	0.0718011	-0.117608	-3.26523	-1.76776	12.8024	0.019018	0.0734356	-0.0138201	0.705566	0.196777	-0.697266	0.277261	-0.547948	-0.530686	-0.584168	9.36336	3.0987	-2.12477	-0.0423241	0.00622295	0.0425486	-0.948975	0.0644531	0.287109	0.391772	-0.597364	-0.424838	-0.556043	9.8576	-0.210827	-0.702449	-0.0491599	0.0422025	-0.0099339	-0.960938	0.425293	0.220459	0.415145	-0.556166	-0.451533	-0.56076	9.76792	0.247514	-0.257945	-0.00211167	0.0291443	-0.0149339	-1.01318	0.364746	0.126953	0.481881	-0.602447	-0.452093	-0.447728	9.48744	-1.98021	-1.31998	-0.0319056	-0.0127702	0.0123842	-0.857666	0.568604	0.17334	0.545967	-0.57356	-0.453194	-0.409346	9.4525	-3.05676	-0.661198	-0.117643	0.033035	0.012818	-0.894775	0.696045	0.0615234	
52	0.26796	-0.260374	-0.694884	-0.614442	6.94761	7.0415	-0.926075	0.00952704	-0.0595242	0.0140922	-0.883545	-0.349121	0.0793457	0.448464	-0.184904	-0.537398	-0.689851	7.47027	5.63772	3.47384	-0.0496288	-0.00074248	0.00512918	-0.750488	-0.308594	-0.384521	0.813597	0.407474	0.24498	-0.334679	-6.75262	5.40155	6.3674	-0.0268223	-0.00372184	-0.0534793	0.824707	-0.264648	-0.449219	0.409847	0.658818	0.144234	-0.614151	-9.35481	3.3667	0.828257	-0.0228075	-0.106826	-0.0223567	0.960205	0.0183105	-0.363281	0.731815	0.533645	0.0907028	-0.414057	-5.82814	7.05111	4.33014	-0.035952	-0.0642985	-0.0711456	0.801514	-0.388916	-0.461182	0.98936	-0.0423737	0.0733772	-0.118265	-3.63572	-2.1601	12.6199	0.0173276	0.0766101	-0.0664001	0.707764	0.198975	-0.695068	0.278804	-0.547154	-0.530206	-0.584613	9.11446	3.0566	-1.5872	0.0590523	0.143872	0.0344275	-0.946777	0.0644531	0.29126	0.392043	-0.59711	-0.424798	-0.556155	9.65331	0.00962201	-0.654721	0.0205965	0.0444453	-0.0148977	-0.963135	0.423096	0.21582	0.414717	-0.556447	-0.4509	-0.561307	9.75465	0.493456	-0.16775	-0.0708114	0.0113439	-0.0211156	-1.01758	0.360107	0.124756	0.482296	-0.602376	-0.451519	-0.447955	9.5943	-1.81332	-1.36469	0.000107782	0.0116382	0.00130333	-0.85791	0.577393	0.179932	0.546597	-0.573097	-0.452952	-0.409421	9.60477	-2.40219	-0.640149	-0.0218284	0.0288237	0.00493089	-0.903564	0.69165	0.0568848	
53	0.266886	-0.261513	-0.694877	-0.614434	6.71813	6.93225	-0.978196	-0.0121939	-0.0932461	0.0183581	-0.881348	-0.346924	0.0727539	0.447301	-0.186938	-0.535988	-0.691153	7.41846	5.45474	3.66184	-0.173083	-0.0555454	-0.0241443	-0.748535	-0.302246	-0.389404	0.813966	0.406196	0.245671	-0.334828	-6.63224	5.10001	5.93671	-0.0918448	0.00631075	-0.0607109	0.82666	-0.258301	-0.449463	0.408474	0.658675	0.143019	-0.615502	-8.85135	3.30105	0.750989	0.112068	-0.0245141	-0.0306054	0.956055	0.0117188	-0.367676	0.7306	0.533951	0.0901438	-0.415925	-5.68097	6.84036	4.05378	0.0982353	-0.0197846	-0.0806301	0.803467	-0.382324	-0.463623	0.989062	-0.0417866	0.0745172	-0.120239	-3.48421	-2.54849	12.5132	0.0666948	0.050996	-0.0959802	0.709717	0.201172	-0.695068	0.279311	-0.547334	-0.527915	-0.586273	9.36007	3.01497	-1.65276	-0.0397659	0.141502	0.0478453	-0.945312	0.0795898	0.284424	0.391749	-0.597219	-0.42384	-0.556976	9.84019	-0.0194586	-0.611747	-0.0596544	0.0524517	-0.0155166	-0.960938	0.425293	0.213623	0.414235	-0.556855	-0.450297	-0.561742	9.94984	0.254585	-0.238942	0.020691	0.012373	-0.0202866	-1.01538	0.364746	0.122559	0.482879	-0.601849	-0.451515	-0.44804	9.41204	-1.66651	-1.28727	0.0188518	0.0293172	-0.00552596	-0.855713	0.577393	0.173096	0.546569	-0.57339	-0.452125	-0.409962	9.40549	-2.42365	-0.655325	-0.0670916	0.0301308	0.00749685	-0.894531	0.687256	0.0571289	
54	0.266817	-0.263508	-0.693884	-0.614734	6.89621	6.86826	-0.894692	-0.0774781	-0.0180566	0.0598093	-0.88623	-0.338379	0.0812988	0.446	-0.188475	-0.534562	-0.692679	7.34022	5.80404	3.48441	-0.10098	-0.0229549	-0.0394965	-0.746338	-0.304199	-0.375244	0.812235	0.40806	0.2438	-0.338116	-6.46269	4.85247	6.30556	0.161721	-0.0289965	-0.0233631	0.82666	-0.264648	-0.451416	0.406254	0.658821	0.141922	-0.617066	-8.91619	3.40937	1.2858	0.0710123	-0.0290726	-0.0430587	0.956055	0.013916	-0.367676	0.728708	0.535003	0.0895848	-0.418008	-5.5162	6.85042	4.03249	0.0580991	-0.0133786	-0.0796758	0.803467	-0.386719	-0.46582	0.988862	-0.0383486	0.0753177	-0.122506	-3.57092	-2.18044	12.2012	0.176724	0.061982	-0.106711	0.703369	0.198975	-0.695068	0.279069	-0.548001	-0.525366	-0.588053	9.15229	3.16165	-1.6152	-0.137573	-0.0340556	0.0144646	-0.951416	0.072998	0.282471	0.391171	-0.597414	-0.422412	-0.558256	9.78303	0.0927573	-0.626872	-0.0816477	0.0591615	-0.00425236	-0.962891	0.420898	0.220703	0.413496	-0.557676	-0.449636	-0.562002	9.88961	0.567336	-0.172011	-0.126244	-0.016295	-0.00865334	-1.01978	0.359863	0.129395	0.483115	-0.601686	-0.451047	-0.448475	9.434	-1.65899	-1.27456	-0.00127141	0.0404418	0.0113638	-0.85791	0.577393	0.17749	0.547699	-0.572606	-0.452014	-0.409672	9.52588	-2.31014	-0.781147	-0.00273557	0.0399621	0.015133	-0.89917	0.693848	0.0522461	
55	0.266479	-0.265381	-0.692868	-0.61522	6.91724	6.44814	-0.835036	-0.0375063	-0.0312171	0.0374479	-0.890137	-0.344971	0.0791016	0.444975	-0.189518	-0.533425	-0.693929	7.2865	5.67272	3.57978	-0.0774175	-0.0151627	-0.0386324	-0.746338	-0.304199	-0.382324	0.812306	0.407621	0.243248	-0.338874	-6.4748	5.08183	6.41481	-0.035153	-0.0156762	-0.0265695	0.824463	-0.262451	-0.456055	0.404606	0.659331	0.140623	-0.617901	-8.98441	3.73821	0.905904	0.0838341	-0.0274215	-0.0135464	0.956055	0.0161133	-0.376465	0.727787	0.535524	0.0889939	-0.41907	-5.67819	7.02445	3.92063	0.00758531	-0.0309152	-0.033791	0.805664	-0.386719	-0.463623	0.988753	-0.0356067	0.075524	-0.12408	-3.5023	-1.81779	12.3217	0.0975782	0.0357505	-0.0707891	0.703369	0.198975	-0.695068	0.279929	-0.547904	-0.523084	-0.589766	8.87313	3.12148	-1.04126	-0.067085	0.0589852	0.0411916	-0.947266	0.0751953	0.282471	0.390078	-0.598219	-0.420198	-0.559828	9.8257	-0.0226311	-0.644664	-0.125456	0.0508038	0.0016393	-0.958496	0.418701	0.218262	0.412018	-0.559029	-0.448276	-0.562829	10.0531	0.431194	-0.297838	-0.11009	-0.00290669	-0.0110258	-1.02222	0.359863	0.133789	0.481665	-0.602995	-0.44935	-0.449979	9.44275	-1.60937	-1.33554	-0.174967	0.022781	0.0158122	-0.85791	0.575195	0.179932	0.546101	-0.574636	-0.449591	-0.411624	9.47883	-2.45219	-0.458174	-0.191143	0.0346996	0.0229198	-0.896973	0.693848	0.0615234	
56	0.265033	-0.266929	-0.69264	-0.615432	6.83334	6.68056	-0.976699	-0.0610488	-0.114423	-0.00244356	-0.888184	-0.340576	0.0812988	0.444289	-0.190905	-0.531849	-0.695197	7.47753	5.3231	3.63906	-0.10169	0.0196907	-0.0113704	-0.746094	-0.306396	-0.377686	0.811761	0.40942	0.241176	-0.33949	-6.26077	5.21514	6.23892	0.159344	-0.0536192	0.00475672	0.824463	-0.260254	-0.456055	0.404083	0.65947	0.14014	-0.618204	-8.90603	3.27753	1.19166	-0.00512538	0.0107734	0.018838	0.958496	0.00952148	-0.374023	0.7274	0.535775	0.0882462	-0.41958	-5.75875	7.07379	3.86804	0.0286053	-0.0233613	-0.0118123	0.803467	-0.386719	-0.470459	0.988678	-0.0364549	0.0748448	-0.124837	-3.49755	-2.41693	12.7679	0.0388743	-0.0203624	-0.050555	0.703613	0.196777	-0.697266	0.279005	-0.549775	-0.521167	-0.59016	9.17746	2.76665	-1.2374	-0.0450166	0.052984	0.0364297	-0.945312	0.0773926	0.284668	0.389558	-0.598903	-0.418478	-0.560745	9.62768	0.233433	-0.669417	-0.0479329	0.0329698	0.0113655	-0.962891	0.418701	0.218262	0.410415	-0.560394	-0.446438	-0.564102	9.75835	0.570168	-0.291288	-0.111125	0.00575675	-0.011203	-1.02002	0.364502	0.131348	0.480814	-0.603573	-0.448004	-0.451453	9.59123	-2.00749	-1.22287	-0.0343346	0.0560347	0.000605889	-0.85791	0.575195	0.177734	0.547215	-0.573904	-0.449544	-0.411217	9.63462	-2.47009	-0.770664	0.165779	0.0403631	0.00414469	-0.901611	0.696045	0.0546875	
57	0.264943	-0.267685	-0.692895	-0.614855	7.02564	6.77059	-0.944521	0.0331217	-0.0186498	0.0271713	-0.885986	-0.340576	0.0834961	0.444511	-0.190958	-0.5319	-0.695002	7.50955	5.67699	3.80794	-0.0205121	-0.0181861	0.00336083	-0.748535	-0.299805	-0.384766	0.81302	0.408035	0.241016	-0.338255	-6.5607	4.98743	6.25234	-0.0845644	-0.00510062	0.0359498	0.824707	-0.266846	-0.453613	0.405487	0.659194	0.139702	-0.617678	-9.20903	3.79013	0.78441	-0.00857037	-0.00883582	0.0512023	0.956055	0.0117188	-0.37207	0.728479	0.534262	0.0879911	-0.419691	-5.5481	6.69992	3.93476	-0.0018643	-0.0196989	-0.00131434	0.807617	-0.382324	-0.468018	0.988611	-0.0359518	0.0745727	-0.125678	-3.4233	-1.89086	12.4945	-0.0370108	-0.00667582	-0.0582232	0.703613	0.196777	-0.697266	0.278324	-0.551004	-0.520391	-0.59002	9.30581	2.88686	-1.60678	-0.0109888	-0.00409682	0.0104878	-0.947266	0.0751953	0.284668	0.38846	-0.599298	-0.416611	-0.562474	9.67901	-0.289125	-0.78789	-0.0534794	0.0593826	-0.0282898	-0.965088	0.420898	0.218262	0.409439	-0.561254	-0.445039	-0.565061	9.75517	-0.0467117	-0.605084	0.00857439	0.0187222	-0.0153314	-1.01514	0.359863	0.135986	0.480319	-0.603891	-0.447604	-0.45195	9.62406	-1.83721	-1.23486	-0.00264715	0.0109019	-0.0091076	-0.857666	0.570801	0.177734	0.546775	-0.574707	-0.44786	-0.412516	9.69605	-3.20288	-0.85938	-0.00711552	0.0589862	0.00665198	-0.89917	0.693848	0.0568848	
58	0.265402	-0.267605	-0.693081	-0.614482	7.09071	6.43719	-1.01295	0.0412693	0.0319302	-0.00231782	-0.892578	-0.342773	0.0878906	0.445237	-0.190555	-0.531798	-0.694726	7.4323	5.48494	3.57962	0.0116567	0.0330941	0.00764475	-0.750977	-0.297852	-0.382568	0.81396	0.406765	0.240802	-0.337677	-6.79951	5.50897	6.29165	-0.0832702	-0.004215	0.00114575	0.824707	-0.266846	-0.449219	0.407347	0.6586	0.139448	-0.617145	-9.3712	3.50017	0.804772	-0.056748	-0.0142125	0.0619752	0.963135	0.00512695	-0.374023	0.729008	0.533606	0.088184	-0.419567	-5.54785	6.96028	4.00457	-0.103959	-0.00705124	-0.00619351	0.799072	-0.384521	-0.468262	0.988643	-0.0347595	0.074085	-0.126045	-3.34263	-2.34371	12.561	0.104517	0.0223018	-0.0237916	0.701416	0.19458	-0.695068	0.278927	-0.551027	-0.52101	-0.589167	9.20342	2.92224	-1.44741	0.0632395	-0.0125095	-0.00445594	-0.947266	0.0751953	0.284668	0.389587	-0.598326	-0.417115	-0.562355	9.76754	-0.0998354	-0.463899	0.065919	0.0407382	-0.0145022	-0.962891	0.418701	0.218262	0.410456	-0.560397	-0.445726	-0.564632	9.76474	0.546651	-0.0686815	-0.0145414	0.021807	-0.0181054	-1.01758	0.359863	0.135986	0.480396	-0.603379	-0.447921	-0.452239	9.44512	-1.57871	-1.09849	-0.0141012	0.00777369	-0.0328596	-0.862305	0.572754	0.173096	0.547355	-0.574373	-0.447338	-0.41278	9.52263	-2.85175	-0.476773	-0.103695	0.0305071	0.00714778	-0.89917	0.693848	0.0568848	
59	0.266102	-0.266998	-0.693499	-0.613971	6.61598	6.73016	-0.907671	0.0771611	0.0457134	-8.97091e-05	-0.88623	-0.338379	0.0878906	0.445425	-0.191088	-0.532214	-0.694139	7.49825	5.64862	3.6127	0.0236229	-0.0320726	0.0282336	-0.746338	-0.302002	-0.380127	0.8148	0.405357	0.240862	-0.337301	-6.8349	5.05309	6.07326	-0.108153	-0.0325311	0.0031727	0.824707	-0.264648	-0.456055	0.406331	0.659284	0.137929	-0.617426	-9.06891	3.79653	0.926398	0.0959542	-0.000460196	0.0104184	0.954346	0.00512695	-0.369629	0.730533	0.532167	0.0884829	-0.418676	-5.81154	7.04728	4.16309	-0.0771128	-0.00282399	0.0284743	0.799072	-0.384521	-0.468262	0.988633	-0.0353823	0.074298	-0.125831	-3.49195	-1.60931	12.5104	-0.0482181	0.0220579	-0.00634091	0.699219	0.198975	-0.692871	0.280527	-0.550498	-0.522468	-0.587609	9.26495	2.90309	-1.38255	0.146323	0.00167727	-0.00770555	-0.945312	0.0817871	0.284424	0.390241	-0.597471	-0.416863	-0.562997	9.77152	0.234887	-0.393328	-0.0158083	0.0699451	-0.0201609	-0.962891	0.418945	0.208984	0.410082	-0.5607	-0.445385	-0.564872	9.81199	0.396939	0.038372	-0.0440454	0.0013317	-0.0182612	-1.01782	0.364502	0.131348	0.479909	-0.603522	-0.448167	-0.452322	9.58032	-2.03418	-0.896468	-0.0204614	-0.016368	-0.0254009	-0.861816	0.566406	0.182373	0.5489	-0.57287	-0.448295	-0.411778	9.46901	-2.81347	-0.511957	0.208385	0.0238048	-0.00665666	-0.892578	0.696045	0.0500488	
60	0.266082	-0.26782	-0.694652	-0.612316	7.03735	6.74447	-0.970985	0.0651726	-0.0463769	0.023343	-0.88623	-0.340576	0.092041	0.446596	-0.190816	-0.53264	-0.693135	7.38894	5.79033	3.50663	0.0615607	0.0498521	0.0156976	-0.746338	-0.299805	-0.382568	0.813776	0.407163	0.23926	-0.338734	-6.51335	4.96499	6.64032	0.175393	-0.0012646	-0.0118766	0.820312	-0.264648	-0.456055	0.406861	0.658774	0.13783	-0.617643	-9.12141	3.6978	1.08804	-0.034427	-0.0408568	0.0197463	0.958496	0.00732422	-0.376221	0.731697	0.530703	0.088738	-0.418448	-5.43859	7.01535	4.25779	-0.148096	-0.0248764	0.0164175	0.80127	-0.384521	-0.470459	0.98864	-0.0368985	0.0745055	-0.125211	-3.23469	-2.38523	12.6604	0.02529	0.0243175	-0.011336	0.705322	0.20752	-0.69751	0.280828	-0.550711	-0.523017	-0.586776	9.27091	2.88496	-1.34768	0.0840631	-0.0346297	0.0014332	-0.945557	0.0839844	0.288574	0.389822	-0.59745	-0.416136	-0.563847	9.85877	-0.0147994	-0.475564	-0.075804	0.0669714	-0.0274507	-0.960938	0.421143	0.206543	0.408597	-0.56187	-0.444089	-0.565805	9.98384	0.538543	-0.203755	-0.122129	-0.00732243	-0.0141478	-1.01758	0.362305	0.138184	0.480448	-0.602831	-0.448303	-0.452536	9.59276	-1.61664	-1.16977	0.0309201	0.0531181	-0.00422981	-0.860107	0.575195	0.173096	0.549046	-0.572692	-0.448305	-0.41182	9.56262	-2.5367	-0.38571	0.0171178	0.0193308	-0.00822039	-0.892578	0.696045	0.0478516	
61	0.266174	-0.268039	-0.695293	-0.611452	6.88881	6.74634	-1.03607	0.0360378	-0.0376616	0.0093941	-0.890625	-0.340576	0.092041	0.447612	-0.191303	-0.531862	-0.692942	7.55597	5.34468	3.61728	-0.0434132	0.0722972	0.0290806	-0.748779	-0.293457	-0.380371	0.815203	0.404838	0.239795	-0.337712	-6.40773	5.21084	6.17607	-0.160597	-0.0206976	-0.00375194	0.82251	-0.264648	-0.460693	0.406608	0.658173	0.136754	-0.61869	-9.11854	3.73393	1.055	0.0142248	-0.0432092	-0.0054967	0.95874	0.00512695	-0.376221	0.73083	0.531528	0.088719	-0.418921	-5.74273	7.20493	4.13554	0.0715404	0.0101067	-0.0475416	0.80127	-0.384521	-0.472656	0.988591	-0.0374801	0.0743556	-0.125514	-3.44533	-2.60666	12.8273	-0.0196951	-0.011787	-0.0306255	0.701172	0.201172	-0.695068	0.281911	-0.551028	-0.522496	-0.586424	9.22694	2.73785	-1.31015	-0.00782257	-0.00871425	0.0290703	-0.947754	0.0859375	0.280029	0.389539	-0.596926	-0.416031	-0.564673	9.66574	-0.0495105	-0.450958	0.0471773	0.0424766	-0.0468813	-0.967285	0.420898	0.211426	0.407653	-0.562155	-0.443983	-0.566286	9.63733	0.201946	-0.150002	0.0117489	-0.0122893	-0.0439622	-1.01758	0.362305	0.133789	0.47924	-0.603206	-0.448802	-0.452823	9.62124	-1.72023	-1.36662	-0.0339113	-0.0344376	-0.0503316	-0.862305	0.572754	0.182129	0.549596	-0.571838	-0.44881	-0.411722	9.77572	-2.98434	-0.922014	0.204088	0.0194486	-0.0298199	-0.897217	0.696045	0.0478516	
62	0.267288	-0.268723	-0.69592	-0.609951	7.21167	6.74766	-1.01443	0.0608463	0.00152787	0.0657197	-0.890869	-0.336426	0.0964355	0.449086	-0.191574	-0.531096	-0.692501	7.4541	5.48156	3.65151	0.00971997	0.0422525	0.0433057	-0.749023	-0.286865	-0.385254	0.81526	0.405204	0.239406	-0.33741	-6.46384	5.06623	6.34409	0.112615	0.0248001	0.0034014	0.82251	-0.269043	-0.458252	0.406887	0.656988	0.136677	-0.619782	-9.27046	3.92376	1.04046	-0.0341792	-0.0572004	-0.0194045	0.954346	0.00512695	-0.376221	0.730275	0.531816	0.0898548	-0.419281	-5.90545	6.75642	4.09486	0.0335088	0.043409	-0.0502404	0.807861	-0.384277	-0.470459	0.988565	-0.0353445	0.0752646	-0.125798	-3.65943	-2.05825	12.8066	0.0825658	0.0801776	-0.0197288	0.705566	0.201172	-0.699463	0.283378	-0.550537	-0.523329	-0.585434	9.16871	2.92612	-1.3515	0.0965442	-0.0358893	-0.00728975	-0.945557	0.0859375	0.286377	0.389326	-0.59666	-0.41547	-0.565514	9.65661	0.316846	-0.588837	-0.0402306	0.0396654	-0.0293844	-0.964844	0.414551	0.208984	0.405712	-0.563324	-0.442858	-0.567399	9.77341	0.463063	-0.502276	-0.119482	-0.00657316	-0.0389092	-1.01318	0.364502	0.138184	0.478801	-0.603301	-0.449522	-0.452446	9.69176	-2.06185	-1.13225	0.0414876	0.00146069	-0.00810953	-0.862061	0.570557	0.182373	0.548435	-0.572708	-0.447869	-0.413084	9.43978	-3.24166	-0.350249	-0.135667	0.0170709	-0.0167213	-0.892334	0.69165	0.0478516	
63	0.26923	-0.269186	-0.695794	-0.609036	6.94768	6.31871	-0.891917	0.0331167	0.047259	0.0483853	-0.895264	-0.332031	0.092041	0.450212	-0.191343	-0.53088	-0.692	7.51124	5.56378	3.72514	-0.00351968	0.0421828	0.0118213	-0.746826	-0.289062	-0.387695	0.81492	0.404593	0.241328	-0.337596	-6.79331	5.30248	6.18998	-0.0291028	0.0578882	-0.054741	0.824463	-0.256104	-0.454102	0.407777	0.655245	0.138621	-0.62061	-9.20848	3.4623	1.12188	-0.118587	-0.0348266	-0.0677833	0.951904	0.00732422	-0.380615	0.729987	0.531694	0.0905742	-0.419782	-5.71931	6.73067	4.15765	-0.0110286	0.00346188	-0.0536721	0.807617	-0.380127	-0.468262	0.988512	-0.0352629	0.0772443	-0.125035	-3.5391	-2.1005	12.5675	-0.00804689	0.0952928	0.00627583	0.708008	0.19458	-0.690674	0.285026	-0.548626	-0.523529	-0.586248	9.24478	2.84218	-1.45307	0.1193	0.165322	-0.0292268	-0.950195	0.0925293	0.280029	0.388182	-0.596589	-0.414756	-0.566898	9.74201	-0.193759	-0.728703	-0.062802	0.0352133	-0.0395315	-0.966797	0.410156	0.209229	0.405376	-0.563126	-0.442754	-0.567915	9.8282	0.297439	-0.535622	0.0135129	0.0272689	-0.0367071	-1.01514	0.359863	0.142578	0.480381	-0.601955	-0.450564	-0.451527	9.79242	-1.88187	-1.24014	0.124171	0.0284999	-0.00684354	-0.864258	0.570557	0.175537	0.548478	-0.572099	-0.448985	-0.412659	9.67871	-2.46543	-0.370908	-0.00446511	-0.0273367	-0.0317207	-0.896973	0.69165	0.0524902	
64	0.270092	-0.269181	-0.695966	-0.608459	7.04325	6.49818	-0.884099	0.0164115	0.0103244	0.0348776	-0.891113	-0.329834	0.0898438	0.451073	-0.19164	-0.530209	-0.691871	7.40341	4.96153	3.61557	0.0199311	0.03286	0.0150128	-0.749023	-0.286865	-0.387695	0.813676	0.406315	0.24144	-0.338448	-6.20451	5.06158	6.02914	0.219566	0.0275433	-0.072864	0.831055	-0.258301	-0.449463	0.404987	0.655052	0.138928	-0.622568	-8.90267	3.35529	0.728223	0.159904	-0.0295943	-0.112779	0.951416	0.0161133	-0.378662	0.728819	0.532941	0.0915392	-0.420022	-5.76579	6.8762	4.06913	0.0164912	0.0772154	-0.0625981	0.805176	-0.375732	-0.468262	0.988475	-0.0344797	0.0793951	-0.1242	-3.60961	-2.35432	12.2261	0.0707885	0.106915	0.0288553	0.712158	0.19458	-0.686279	0.28587	-0.546744	-0.523483	-0.587635	9.28793	2.56532	-1.37031	0.0757501	0.154944	-0.058205	-0.954346	0.0859375	0.275879	0.389929	-0.59478	-0.417278	-0.565748	9.80978	6.83929e-05	-0.552897	0.150458	0.0225562	-0.0528426	-0.962891	0.414551	0.202148	0.407697	-0.560927	-0.444744	-0.566875	9.93365	0.449512	-0.438368	0.185396	0.0411761	-0.0321632	-1.01733	0.357666	0.131592	0.48305	-0.599466	-0.452453	-0.4501	9.18934	-1.76367	-1.23125	0.144652	0.000433414	-0.00700285	-0.855469	0.570801	0.170898	0.549988	-0.569905	-0.451471	-0.410969	9.35607	-2.01627	-0.596167	0.0770229	-0.0276136	-0.0347653	-0.89917	0.69165	0.0432129	
65	0.270664	-0.269311	-0.696431	-0.607615	6.65719	6.54041	-0.960577	0.0544683	-0.0445011	0.0167043	-0.886475	-0.333984	0.092041	0.451892	-0.191174	-0.531229	-0.690682	7.4539	5.66198	3.65487	0.0257588	0.0219048	0.0108055	-0.749023	-0.29126	-0.389893	0.813369	0.40641	0.241877	-0.338758	-6.51951	4.76833	6.34024	-0.0773864	0.00644697	0.00812184	0.820068	-0.260254	-0.462891	0.40111	0.65412	0.138336	-0.62618	-8.73756	3.50458	1.30585	0.0281703	-0.122757	-0.145029	0.951172	0.0249023	-0.383301	0.729008	0.533021	0.0925752	-0.419363	-5.73762	6.70626	3.89383	0.0414718	0.0560615	0.00347241	0.807617	-0.380127	-0.463623	0.988329	-0.0356618	0.0824009	-0.123065	-3.73707	-2.04877	12.3712	-0.107488	0.11703	0.0202253	0.712158	0.198975	-0.677979	0.287486	-0.544767	-0.525515	-0.586869	9.14838	3.01022	-1.35204	0.129224	0.0461653	-0.0471664	-0.949951	0.0861816	0.269531	0.392539	-0.592076	-0.420936	-0.564067	9.51742	0.117141	-0.382353	0.225827	0.00939905	-0.0635266	-0.971436	0.412354	0.199707	0.412714	-0.556482	-0.449798	-0.563628	9.76337	0.687414	-0.125464	0.396413	0.038157	-0.0487065	-1.01758	0.360107	0.124756	0.484686	-0.597914	-0.454055	-0.44879	9.74566	-1.94005	-1.24251	0.132468	0.0131662	0.002188	-0.866699	0.574951	0.164062	0.550158	-0.569215	-0.452277	-0.410811	9.65975	-2.47197	-0.596501	0.111464	0.00244985	-0.0325122	-0.903809	0.693848	0.0410156	
66	0.270154	-0.270054	-0.696881	-0.606997	7.1166	6.56802	-1.15261	-0.000864561	-0.0118707	-0.00783946	-0.891113	-0.329834	0.092041	0.452847	-0.190284	-0.531327	-0.690227	7.36721	5.60106	3.60075	0.0463061	0.0436375	-0.0113103	-0.751221	-0.286865	-0.387695	0.814217	0.405008	0.242887	-0.337675	-6.721	5.42263	6.16812	-0.0771391	0.0556457	-0.00390963	0.828857	-0.256104	-0.454102	0.40113	0.651716	0.138648	-0.6286	-9.13468	3.09518	1.42234	-0.0062365	-0.108648	-0.0287482	0.94873	0.0270996	-0.394287	0.730629	0.531147	0.0935287	-0.418709	-5.43761	6.54977	4.12127	-0.13073	-0.00194918	0.00264337	0.805176	-0.375732	-0.461182	0.988208	-0.0372665	0.0846484	-0.122028	-3.67466	-1.9377	11.9248	-0.0982228	0.0700425	0.00996693	0.716553	0.198975	-0.680176	0.287197	-0.543461	-0.525592	-0.58815	9.22223	3.07196	-1.15952	-0.0113655	-0.0026384	-0.0755463	-0.949707	0.0795898	0.269531	0.393338	-0.591368	-0.422666	-0.562959	10.0119	0.688886	-0.183794	-0.0259557	0.0131934	-0.0257747	-0.965088	0.416748	0.202148	0.413629	-0.555326	-0.450771	-0.563321	9.94178	0.609242	0.127971	0.0423892	0.0168584	-0.0301343	-1.01978	0.357666	0.122559	0.486262	-0.596878	-0.45471	-0.447801	9.38161	-1.17313	-0.995792	0.0635358	-0.000582444	0.018044	-0.862305	0.572754	0.161621	0.549377	-0.569456	-0.452072	-0.411747	9.43458	-2.4617	-0.479097	-0.00876479	0.0161714	-0.0315263	-0.89917	0.69165	0.0500488	
67	0.269962	-0.269937	-0.696897	-0.607115	6.80648	6.54152	-1.07021	-0.00674028	-0.00644989	-0.0215599	-0.890869	-0.334229	0.0964355	0.452922	-0.190245	-0.531161	-0.690316	7.40754	5.56863	3.6436	-0.0185426	0.0261215	-0.0176544	-0.749023	-0.289062	-0.387695	0.815088	0.403377	0.243952	-0.336759	-6.7045	4.84092	5.8354	-0.163142	0.0444969	0.00483007	0.820068	-0.251709	-0.451904	0.398808	0.652632	0.136945	-0.6295	-9.11472	2.80604	1.17212	0.136863	0.0350047	-0.00809463	0.956055	0.0163574	-0.391846	0.730724	0.53151	0.0936219	-0.418061	-5.67594	6.70095	3.99079	0.00680001	0.0513617	0.0254048	0.809814	-0.37793	-0.463623	0.988159	-0.0388283	0.0849868	-0.121704	-3.79029	-2.43694	11.9343	-0.124244	0.0228606	-0.00364038	0.711914	0.203369	-0.680176	0.287421	-0.542595	-0.525016	-0.589354	9.17686	3.21339	-1.40963	-0.0415841	0.0650802	-0.0287215	-0.954102	0.0817871	0.263184	0.393208	-0.590596	-0.423038	-0.56358	10.0123	-0.308712	-0.578338	0.0811478	0.0551185	-0.0398244	-0.967041	0.414551	0.19751	0.413122	-0.555582	-0.450369	-0.563762	9.74241	0.536139	0.195538	-0.05934	0.00876391	-0.0300947	-1.02197	0.353271	0.122559	0.485925	-0.597361	-0.454272	-0.447967	9.74519	-2.0244	-1.16904	-0.0537768	0.0071371	0.0219019	-0.869141	0.574951	0.163818	0.547743	-0.570798	-0.451268	-0.412946	9.47733	-2.42491	-0.238091	-0.198656	-0.00645164	-0.0257291	-0.898926	0.685059	0.0478516	
68	0.27022	-0.269105	-0.697328	-0.606875	6.88496	6.61649	-1.00963	0.033177	0.046856	-0.0295115	-0.891113	-0.329834	0.092041	0.452577	-0.190039	-0.531267	-0.690517	7.40933	5.67642	3.56527	-0.000598271	-0.0128347	-0.0465879	-0.746582	-0.295654	-0.387451	0.814049	0.406038	0.24256	-0.337079	-6.8941	5.61962	6.07221	0.22558	0.00123577	-0.012316	0.828857	-0.260498	-0.45166	0.398539	0.653764	0.136853	-0.628515	-9.21238	3.27349	1.08752	0.0465185	0.113537	0.036227	0.946533	0.0249023	-0.383301	0.732013	0.530567	0.0936949	-0.416985	-5.42577	6.37231	4.2695	-0.026335	0.0167448	0.0329798	0.803223	-0.37793	-0.470459	0.988288	-0.0388584	0.0844419	-0.121019	-3.80635	-2.44651	12.2083	0.00183872	-0.0168356	0.0175067	0.718506	0.198975	-0.680176	0.286958	-0.542429	-0.524069	-0.590573	9.39776	3.15699	-1.3543	-0.0974727	0.0741327	-0.0318654	-0.956299	0.0859375	0.262939	0.394591	-0.589561	-0.424235	-0.562797	9.7403	-0.537498	-0.81652	0.182939	0.0356194	-0.0210757	-0.964844	0.410156	0.192871	0.418113	-0.551746	-0.455446	-0.559756	9.915	0.475386	-0.226318	0.55705	0.0146245	-0.0363226	-1.01733	0.35791	0.11377	0.488227	-0.595857	-0.45447	-0.447265	9.48832	-1.44625	-1.10002	0.11931	0.0340445	0.0238371	-0.860107	0.575195	0.159424	0.547609	-0.570507	-0.451921	-0.412812	9.7703	-2.10499	-0.669265	0.0674291	-0.0069589	-0.0232251	-0.901367	0.689453	0.0478516	
69	0.268853	-0.268669	-0.697393	-0.6076	7.00863	6.70885	-1.08719	-0.0357042	-0.0471875	-0.0581318	-0.888428	-0.336182	0.0964355	0.452102	-0.1897	-0.530932	-0.69118	7.4296	5.43353	3.66852	-0.0375793	0.0495569	-0.0458971	-0.749023	-0.289062	-0.385254	0.813876	0.406137	0.242338	-0.337537	-6.44075	5.29269	6.13711	0.045105	-0.0173933	-0.0380012	0.828857	-0.260498	-0.449219	0.396059	0.656972	0.135624	-0.627001	-9.16122	3.55189	1.0292	0.155213	0.110161	0.00967124	0.949463	0.013916	-0.385254	0.731862	0.532154	0.0931216	-0.415353	-5.78761	7.44777	4.01539	-0.0384231	0.0390221	0.0458293	0.812256	-0.386719	-0.463623	0.988389	-0.0387461	0.0835399	-0.120858	-3.45424	-2.3826	12.5968	0.0285128	-0.0234883	-0.0142532	0.712158	0.198975	-0.684326	0.287724	-0.539318	-0.522233	-0.594662	9.14853	3.21159	-1.33347	-0.0662071	0.147462	-0.0859827	-0.958008	0.0751953	0.259033	0.398333	-0.586976	-0.42801	-0.559998	9.77541	0.883873	-0.583009	0.203395	0.0190014	-0.0178361	-0.971191	0.410156	0.19043	0.422268	-0.548421	-0.45913	-0.556887	9.98195	0.911096	-0.291075	0.231352	0.0396992	-0.0153178	-1.01514	0.360107	0.111328	0.488049	-0.595518	-0.455193	-0.447176	9.36046	-1.92724	-1.2879	0.0373598	0.00480862	-0.0250406	-0.862305	0.574951	0.161621	0.548755	-0.568997	-0.453489	-0.411653	9.36668	-2.53887	-0.583908	0.129681	-0.0119642	-0.0298039	-0.908203	0.69165	0.0478516	
70	0.268843	-0.267901	-0.696887	-0.608523	7.08199	6.70598	-1.09927	-0.0296389	0.0321846	-0.0274096	-0.893066	-0.332031	0.092041	0.451722	-0.18877	-0.530656	-0.691894	7.38893	5.52601	3.67277	-0.0165554	0.0375223	-0.0585424	-0.746826	-0.29126	-0.392334	0.813308	0.407599	0.24212	-0.3373	-6.48593	4.92372	6.26833	-0.0583129	0.0136294	0.0494592	0.828857	-0.262695	-0.453857	0.395278	0.658291	0.135995	-0.626031	-8.8232	3.54967	1.19169	-0.023168	0.0534277	-0.0170262	0.946777	0.0227051	-0.380859	0.731895	0.533148	0.0931157	-0.41402	-5.77603	6.90547	3.84362	0.139372	0.0779866	0.03408	0.812256	-0.388916	-0.461182	0.988515	-0.0379061	0.0827878	-0.120615	-3.55608	-2.22485	12.8941	0.0494371	0.0023212	-0.00275026	0.712158	0.198975	-0.686523	0.288337	-0.538136	-0.522873	-0.594874	9.15364	3.08044	-1.04305	0.0904601	0.0881569	-0.0687156	-0.962402	0.0773926	0.254639	0.398418	-0.586517	-0.428473	-0.560063	9.81716	-0.0518585	-0.350961	0.0495898	0.00633358	-0.0412401	-0.965332	0.421143	0.187988	0.424897	-0.54607	-0.461077	-0.555587	9.91443	0.708574	-0.0156979	0.135193	0.0416522	-0.0252001	-1.01782	0.364746	0.102539	0.490793	-0.593369	-0.456479	-0.445714	9.29298	-1.51829	-1.18478	0.180493	0.0507886	0.0113626	-0.866943	0.577148	0.150146	0.549648	-0.567915	-0.45451	-0.410829	9.44376	-2.212	-0.731029	0.0545895	0.00218289	-0.0140626	-0.898926	0.687256	0.043457	
71	0.269711	-0.265407	-0.696482	-0.609695	6.39023	6.55563	-0.904933	0.0175794	0.0903431	-0.0580189	-0.888672	-0.333984	0.0898438	0.45135	-0.188427	-0.531004	-0.691963	7.47995	5.74414	3.53353	0.0100267	-0.00342222	-0.0340149	-0.744385	-0.297852	-0.394287	0.813758	0.408844	0.241334	-0.335264	-6.4221	5.78574	6.05992	0.0649279	0.0116022	0.0566993	0.829102	-0.27124	-0.453613	0.395263	0.65909	0.137144	-0.624947	-9.17121	3.48639	0.672366	0.0122031	0.0799824	-0.00219533	0.953613	0.0161133	-0.380859	0.733144	0.532179	0.0931405	-0.413051	-5.37615	6.74955	3.97038	-0.0754273	0.0209806	0.0186765	0.805664	-0.384521	-0.463623	0.988771	-0.0370517	0.0819551	-0.119343	-3.40281	-2.02795	12.1557	0.0286429	-0.0390027	0.0469802	0.712158	0.196777	-0.690674	0.288229	-0.53763	-0.523731	-0.594629	9.26975	3.00773	-1.47898	0.0324522	0.00758557	-0.0379494	-0.953857	0.0751953	0.246338	0.399282	-0.585993	-0.430012	-0.558817	9.98685	0.397854	-0.20776	0.0657789	-0.00259664	-0.0228843	-0.967041	0.414551	0.192627	0.42415	-0.54645	-0.460236	-0.556482	9.80085	0.433876	0.123203	-0.0572299	0.00449641	-0.0304307	-1.02222	0.362549	0.102539	0.489032	-0.594201	-0.456094	-0.446934	9.3115	-1.64159	-1.01625	-0.151473	-0.00381117	-0.0329481	-0.864746	0.579346	0.15918	0.549304	-0.56801	-0.454514	-0.411153	9.45368	-2.52192	-0.598283	-0.0544627	0.0154584	-0.00722662	-0.90332	0.685059	0.0478516	
72	0.268098	-0.265581	-0.69719	-0.609522	6.89629	6.84048	-1.00214	-0.0102622	-0.0749434	-0.0409622	-0.888428	-0.340576	0.0898438	0.451592	-0.187643	-0.530856	-0.692132	7.47037	5.48601	3.56765	0.00296939	0.0568728	-0.0288966	-0.748779	-0.293457	-0.389893	0.814436	0.408872	0.24017	-0.334419	-6.22538	4.84662	6.21692	0.0765013	-0.00885174	0.0343005	0.824707	-0.273438	-0.451172	0.394794	0.660215	0.136829	-0.624125	-9.19171	3.23986	0.66202	0.0444235	0.0510681	0.0407172	0.948975	0.0205078	-0.383057	0.733482	0.532848	0.0923469	-0.411764	-5.55193	7.13444	4.18141	-0.0465752	0.0201245	0.0577666	0.807861	-0.386719	-0.463623	0.988965	-0.0377187	0.0805825	-0.118453	-3.36704	-2.24429	12.7217	-0.0188356	-0.0298796	-0.00158623	0.714355	0.19458	-0.690674	0.29012	-0.535441	-0.524385	-0.595109	9.03634	3.03131	-0.790796	0.0468379	0.0975083	-0.0378313	-0.958496	0.0817871	0.248291	0.398178	-0.586421	-0.429145	-0.559821	9.71816	0.375172	-0.380884	-0.113398	0.0160552	-0.0287768	-0.967285	0.416748	0.18335	0.422451	-0.547256	-0.459597	-0.557509	9.8297	0.688222	-0.0589472	-0.0813877	-0.013297	-0.0364244	-1.01758	0.360352	0.100342	0.489212	-0.593882	-0.456479	-0.446769	9.79121	-1.7101	-1.41919	0.106853	0.0537896	-0.000923731	-0.862305	0.574951	0.154785	0.550012	-0.5671	-0.45496	-0.410969	9.65918	-2.22868	-0.547935	0.0652394	0.026706	-0.0198692	-0.901367	0.689453	0.0410156	
73	0.266737	-0.266001	-0.697551	-0.609522	6.77739	6.79847	-1.11012	-0.0110131	-0.0674115	-0.0198212	-0.890381	-0.344971	0.092041	0.451403	-0.187061	-0.530629	-0.692587	7.53375	5.63479	3.60775	-0.0416644	0.0324544	-0.0463926	-0.742432	-0.293457	-0.394531	0.815443	0.407906	0.240139	-0.333165	-6.79859	5.16165	5.9267	-0.161505	-0.0150407	0.0562296	0.829102	-0.269043	-0.451416	0.3942	0.660495	0.135922	-0.624402	-9.03994	3.39211	0.870722	0.0224433	-0.00924759	-0.0220281	0.953613	0.0161133	-0.380859	0.733333	0.53345	0.0916811	-0.411398	-5.52889	6.93138	3.94047	0.105159	0.0053292	-0.00252814	0.803467	-0.386719	-0.461182	0.989012	-0.0381978	0.0795278	-0.11862	-3.40865	-2.1048	12.6955	-0.00359721	-0.0419172	-0.0282613	0.709961	0.196777	-0.690674	0.290556	-0.534724	-0.524879	-0.595105	9.29577	3.12328	-1.50429	0.0182928	0.109674	-0.0223843	-0.958008	0.0751953	0.241943	0.396073	-0.587872	-0.427631	-0.560949	9.73196	0.0222288	-0.475511	-0.0797112	-0.00948471	-0.0186142	-0.971436	0.414551	0.192871	0.418211	-0.550248	-0.456341	-0.560428	9.72154	0.496608	-0.172863	-0.296171	-0.022934	-0.0373261	-1.01978	0.355469	0.115967	0.487144	-0.595662	-0.455396	-0.447763	9.6463	-1.74218	-1.28043	-0.19277	-0.0332032	-0.00150107	-0.866699	0.570557	0.16626	0.547594	-0.569413	-0.452972	-0.41319	9.59069	-2.81236	-0.448276	-0.119788	0.0188844	-0.00749052	-0.905762	0.687256	0.0478516	
74	0.26613	-0.266225	-0.697544	-0.609698	7.16585	6.7637	-1.06855	-0.0271688	-0.0444338	-0.0232744	-0.885986	-0.344971	0.0942383	0.451369	-0.187067	-0.530064	-0.69304	7.40962	5.52522	3.62444	-0.059427	0.0387279	-0.0289668	-0.746826	-0.29126	-0.392334	0.815998	0.407713	0.239354	-0.332606	-6.41113	4.82641	6.01793	-0.00272211	-0.0434085	0.0607438	0.820557	-0.273193	-0.451172	0.393734	0.660611	0.135729	-0.624616	-9.25323	3.11485	0.771262	0.0427503	-0.000903345	-0.0172523	0.951416	0.0161133	-0.374268	0.733633	0.53319	0.0912596	-0.411293	-5.75217	7.36731	4.04023	-0.0173251	-0.0231399	0.018075	0.803711	-0.391113	-0.463623	0.989048	-0.0384044	0.0790583	-0.118572	-3.39615	-2.31245	12.7703	-0.00704409	-0.0274863	-0.0176533	0.712402	0.192383	-0.697021	0.291825	-0.533265	-0.52441	-0.596206	9.19197	3.36648	-1.34549	-0.033393	0.0495684	-0.0245822	-0.956055	0.0751953	0.244141	0.395065	-0.58842	-0.426682	-0.561807	9.86917	0.186195	-0.561714	-0.13216	0.0280545	-0.0252497	-0.967285	0.416748	0.195068	0.416193	-0.551843	-0.454625	-0.561755	9.96289	0.100057	-0.302469	-0.261507	-0.0234304	-0.0208154	-1.02441	0.357666	0.120361	0.486363	-0.596141	-0.454839	-0.44854	9.82155	-1.92586	-1.35946	-0.100155	0.0253538	-0.0120405	-0.859863	0.570801	0.161865	0.54791	-0.569006	-0.453308	-0.412963	9.66029	-2.38058	-0.400863	0.0551964	0.0065272	-0.0137021	-0.901367	0.689453	0.0456543	
75	0.264972	-0.266272	-0.697431	-0.610311	7.05304	6.72916	-1.04728	0.00123796	-0.0569378	-0.0106916	-0.885986	-0.344971	0.092041	0.449822	-0.187708	-0.528962	-0.694712	7.38146	5.61493	3.64831	-0.106173	0.0399001	-0.0571683	-0.742432	-0.289062	-0.392334	0.815491	0.409055	0.238332	-0.332935	-6.56828	5.4826	5.94196	0.0270316	-0.0193893	-0.0176054	0.822754	-0.275635	-0.451172	0.389708	0.662723	0.133295	-0.625427	-9.31717	3.41003	0.850743	0.201983	0.000688529	-0.0474856	0.956055	0.0161133	-0.383057	0.732391	0.534632	0.0902879	-0.411851	-5.74105	7.44755	3.86633	0.0669104	0.00150337	-0.0184864	0.808105	-0.391113	-0.458984	0.988998	-0.0374851	0.0792034	-0.119187	-3.45783	-2.1155	12.5348	0.0261971	0.031871	-0.0409971	0.708008	0.192383	-0.692871	0.293097	-0.531947	-0.523868	-0.597234	9.17685	2.74713	-1.01085	0.0422039	0.131269	-0.010272	-0.960205	0.0751953	0.237793	0.395327	-0.588111	-0.426815	-0.561846	9.62865	0.178731	-0.635455	0.0996106	0.0165967	-0.0183333	-0.971191	0.410156	0.19043	0.417687	-0.550666	-0.455997	-0.560688	9.80144	0.596007	-0.207808	-0.130132	0.0244198	-0.0102036	-1.01953	0.353271	0.120361	0.486916	-0.595553	-0.454886	-0.448674	9.50788	-1.41272	-1.34969	-0.0490795	0.00951996	-0.000349525	-0.868896	0.572754	0.161621	0.547825	-0.568976	-0.453617	-0.412779	9.51888	-2.44023	-0.61214	0.0416919	-0.00549183	-0.0129757	-0.907715	0.682861	0.0480957	
76	0.264956	-0.265779	-0.697281	-0.610704	6.91793	6.84144	-0.935767	-0.0183709	0.0311589	-0.0360948	-0.888184	-0.342773	0.0942383	0.449439	-0.18789	-0.529034	-0.694856	7.39553	5.73869	3.53782	-0.0224709	-0.0132127	-0.039313	-0.741943	-0.302002	-0.387207	0.814953	0.410437	0.237125	-0.333415	-6.84204	5.34083	6.20576	0.127235	-0.00824646	0.000397791	0.818359	-0.273193	-0.448975	0.389529	0.662596	0.133601	-0.625607	-9.20126	3.63456	1.00195	-0.00464123	0.00078183	-0.0306023	0.95166	0.013916	-0.376465	0.732402	0.53427	0.0899566	-0.412373	-5.56517	7.00521	3.89895	-0.00910762	-0.046896	-0.0329638	0.805908	-0.393311	-0.456787	0.988993	-0.0372478	0.0791564	-0.11933	-3.37528	-1.89975	12.7021	0.0244543	0.0114636	-0.0291008	0.709961	0.196777	-0.688477	0.293835	-0.530684	-0.523619	-0.598213	9.2642	3.15201	-1.34157	0.0228659	0.150026	-0.0462135	-0.962646	0.0773926	0.233398	0.395696	-0.587937	-0.426778	-0.561797	9.81396	-0.142736	-0.725659	0.0271011	0.0356313	-0.00192264	-0.973633	0.412354	0.19043	0.419229	-0.549477	-0.457323	-0.559623	10.0826	-0.516393	-0.69993	0.21271	0.0248511	-0.0165406	-1.01978	0.355469	0.120361	0.486295	-0.596036	-0.454712	-0.448881	9.5926	-2.09985	-1.07083	-0.0589621	-0.0114201	-0.00238437	-0.857666	0.568604	0.159668	0.547289	-0.569373	-0.453212	-0.413385	9.56742	-2.28446	-0.516276	-0.0900008	0.0154023	-0.00456572	-0.905762	0.685059	0.050293	
77	0.263552	-0.265846	-0.697553	-0.610971	6.79956	6.58782	-1.09026	0.00908969	-0.0639293	-0.0237341	-0.885742	-0.349365	0.0922852	0.449246	-0.187936	-0.529203	-0.69484	7.45354	5.37559	3.62876	4.76407e-05	0.0384751	-0.0148582	-0.742432	-0.293457	-0.394531	0.814891	0.411022	0.235431	-0.334046	-6.26727	5.3336	6.42187	0.0802333	-0.0704884	0.00479825	0.822754	-0.279785	-0.455566	0.388007	0.662763	0.132049	-0.626705	-9.33963	3.4378	0.680487	0.114745	-0.0508843	0.0104852	0.955811	0.0183105	-0.380859	0.732304	0.534337	0.0893453	-0.412592	-5.75185	7.34917	3.90812	-0.0696254	-0.0306949	0.00404328	0.801514	-0.391113	-0.458984	0.988924	-0.0379255	0.0798121	-0.119248	-3.5669	-2.24479	12.5402	-0.0518063	0.0350934	-0.0173639	0.712402	0.192383	-0.686279	0.296552	-0.52786	-0.52392	-0.599106	8.9255	2.8426	-0.908854	0.0922291	0.0667458	-0.0199256	-0.960449	0.0773926	0.224854	0.398028	-0.586075	-0.429371	-0.560117	9.69127	0.468518	-0.380485	0.19632	0.0179999	-0.0344798	-0.97168	0.416748	0.187988	0.423273	-0.545966	-0.460987	-0.557004	9.72312	1.14986	0.0511882	0.112192	0.0340303	-0.0249603	-1.02417	0.353271	0.106934	0.488219	-0.594041	-0.455992	-0.44814	9.53253	-1.88334	-1.13562	0.122571	0.0341328	-0.016929	-0.862305	0.572754	0.154785	0.548842	-0.567494	-0.454971	-0.411977	9.64877	-2.46734	-0.672033	0.261274	-0.0023763	-0.0270115	-0.903564	0.689453	0.0410156	
78	0.263373	-0.266146	-0.69859	-0.609732	6.60115	6.83776	-1.09508	0.048309	-0.0683433	-0.000767125	-0.885742	-0.347168	0.0942383	0.449624	-0.188207	-0.530637	-0.693427	7.58752	5.61909	3.73662	0.0666996	-0.0236351	0.0212576	-0.744629	-0.29126	-0.392334	0.816514	0.408051	0.235901	-0.333392	-6.52495	5.4928	6.45506	-0.127288	-0.0261378	0.000987837	0.816162	-0.270996	-0.455811	0.389038	0.661987	0.129936	-0.627327	-9.02851	3.70907	0.951898	0.0311821	-0.0559201	0.064844	0.947754	0.00292969	-0.380615	0.732412	0.534221	0.0890404	-0.412617	-5.626	6.84555	3.99743	0.0825803	0.017542	-0.00731677	0.801514	-0.391113	-0.458984	0.988874	-0.038595	0.0799744	-0.119339	-3.52791	-2.05282	12.4704	-0.0255974	0.00675934	-0.0244631	0.709961	0.196777	-0.690674	0.299502	-0.525097	-0.525463	-0.598716	9.15627	3.17843	-0.884677	0.158053	0.112267	-0.0241543	-0.964844	0.0795898	0.218506	0.398331	-0.585299	-0.429864	-0.560335	9.81796	0.0502028	-0.442669	0.030272	0.0321943	-0.0403151	-0.967041	0.412354	0.188232	0.423641	-0.545338	-0.461298	-0.55708	9.83052	0.243702	-0.184505	0.0935694	0.0211865	-0.0396742	-1.01733	0.35791	0.104736	0.488339	-0.593649	-0.456638	-0.447871	9.49647	-1.69474	-1.42281	0.0225962	-0.00606634	-0.0184882	-0.866455	0.568359	0.155029	0.547777	-0.568321	-0.454531	-0.41274	9.56176	-2.77347	-0.665706	-0.077442	0.0056588	-0.011946	-0.907959	0.685059	0.0410156	
79	0.26342	-0.26641	-0.699829	-0.608174	7.00492	6.81298	-1.08387	0.071825	-0.00751739	0.0090359	-0.887939	-0.347168	0.10083	0.450858	-0.188318	-0.531021	-0.692301	7.15981	5.7191	3.5627	0.0306978	-0.000917768	0.0356109	-0.742432	-0.293457	-0.39209	0.817388	0.406752	0.236229	-0.332605	-6.34476	5.06573	6.23443	-0.0599064	0.000796818	0.0137058	0.820557	-0.273193	-0.458008	0.389367	0.661226	0.127241	-0.628477	-9.14072	3.69075	1.14895	-0.00531427	-0.0885844	0.0716397	0.952148	0.00512695	-0.38501	0.73448	0.53188	0.0891754	-0.411935	-5.48936	7.02735	3.99172	-0.203893	-0.0314577	0.0381513	0.805908	-0.391113	-0.461182	0.98883	-0.0424923	0.0807655	-0.117844	-3.38633	-2.35392	12.5505	-0.230235	0.0233739	0.042875	0.705566	0.201172	-0.688721	0.301158	-0.523811	-0.526424	-0.598167	9.07043	3.23566	-1.20229	0.0679418	0.057382	-0.00994781	-0.962402	0.0751953	0.220703	0.398419	-0.584791	-0.430351	-0.560428	9.70798	0.482033	-0.237248	-0.00195531	0.0164755	-0.036621	-0.969238	0.4104	0.185791	0.421978	-0.546099	-0.460341	-0.558387	9.73688	1.03748	0.218788	-0.228834	-0.00623501	-0.046115	-1.02197	0.35791	0.106934	0.488368	-0.593118	-0.457126	-0.448044	9.35834	-1.71913	-0.970571	-0.00652071	0.0053942	-0.0211868	-0.868408	0.561768	0.152832	0.548305	-0.567598	-0.454958	-0.412563	9.41787	-2.18883	-0.564607	-0.046841	0.0110295	-0.00994097	-0.907959	0.687256	0.043457	
80	0.263605	-0.266191	-0.700504	-0.607412	6.8236	6.74486	-1.07167	0.0424829	-0.00545975	0.00830802	-0.883545	-0.349365	0.103027	0.451513	-0.188789	-0.531176	-0.691626	7.51461	5.5028	3.55768	0.00119254	0.0343504	0.00906074	-0.746826	-0.29126	-0.392334	0.818419	0.405051	0.236639	-0.331853	-6.55718	5.03366	5.99798	-0.0482953	-0.0268689	-0.0215071	0.818115	-0.268799	-0.458252	0.388534	0.661572	0.125193	-0.62904	-9.40803	3.67302	0.861607	0.137581	-0.0187978	0.0116169	0.949951	0.00292969	-0.389404	0.735512	0.530607	0.0895856	-0.411646	-5.52539	6.73129	4.26617	-0.0539408	-0.0019087	-0.00871077	0.799316	-0.388916	-0.461182	0.988836	-0.0463204	0.0816178	-0.115741	-3.58351	-2.60775	12.532	-0.0975808	0.0352217	0.0473911	0.711914	0.201172	-0.686523	0.302371	-0.522601	-0.527222	-0.59791	9.38466	3.06905	-0.859378	0.102323	0.0680022	-0.0317658	-0.9646	0.0751953	0.216553	0.395171	-0.586687	-0.427272	-0.563096	9.9547	0.214838	-0.37729	-0.304203	0.0549263	-0.0189724	-0.975586	0.412354	0.188232	0.415312	-0.551083	-0.454652	-0.56313	10.0819	0.0416715	-0.443408	-0.451917	-0.035534	-0.0158381	-1.02417	0.351074	0.11377	0.488604	-0.592619	-0.457804	-0.447754	9.61668	-1.65453	-1.16926	0.0311815	0.0111408	-0.00775507	-0.864258	0.568359	0.155029	0.549249	-0.566487	-0.455516	-0.412217	9.67551	-2.19392	-0.589854	0.0818141	0.0286852	-0.0119046	-0.90332	0.682861	0.043457	
81	0.263342	-0.266869	-0.700412	-0.607334	6.58205	6.8409	-1.0572	-0.0379408	-0.0580941	-0.00070275	-0.88623	-0.338379	0.0986328	0.450612	-0.189657	-0.531187	-0.691968	7.59747	5.7145	3.7617	-0.0822439	-0.0362525	-0.0529821	-0.742188	-0.295654	-0.387451	0.818618	0.404542	0.237649	-0.33126	-6.33797	4.77499	5.74648	0.00214651	0.0423951	-0.0170392	0.820312	-0.270996	-0.460449	0.389208	0.660966	0.126031	-0.629093	-8.83823	3.07459	0.743894	-0.0388208	0.0146384	-0.0314052	0.947754	0.00292969	-0.387207	0.735903	0.530178	0.0895257	-0.411513	-5.44486	6.77115	4.27614	-0.0429579	-0.00812027	0.00566891	0.80127	-0.386719	-0.463623	0.988667	-0.0491813	0.0834436	-0.114699	-3.51868	-2.56555	12.3035	-0.173455	0.056649	0.0286615	0.720459	0.203369	-0.682373	0.30341	-0.521397	-0.526346	-0.599205	9.37169	3.27198	-0.768213	-0.06219	0.0846833	-0.0094795	-0.9646	0.0773926	0.212158	0.395054	-0.586624	-0.426343	-0.563946	9.83188	-0.662333	-0.764725	0.101153	0.0407622	-0.00825349	-0.975586	0.410156	0.199951	0.418034	-0.549016	-0.457239	-0.561036	10.1114	-0.264111	-0.723318	0.506913	0.0181593	-0.0210631	-1.02173	0.351074	0.11377	0.488168	-0.593059	-0.457308	-0.448154	9.69445	-1.44553	-1.06447	-0.0601271	0.0175029	0.00778345	-0.866455	0.568359	0.161865	0.54863	-0.566994	-0.454669	-0.413278	9.62864	-2.59669	-0.429527	-0.00468844	0.0257168	-0.0104377	-0.910156	0.687256	0.043457	
82	0.26204	-0.267594	-0.699407	-0.608735	6.97871	6.68194	-1.11505	-0.0985128	0.00860189	-0.0234617	-0.883545	-0.349365	0.0964355	0.449671	-0.189945	-0.529212	-0.694011	7.13654	5.38453	3.50335	-0.108536	0.0203807	-0.0570258	-0.744629	-0.29126	-0.392334	0.817971	0.405835	0.236891	-0.33182	-6.59254	4.98203	5.77757	0.153198	-0.0153941	-0.0165619	0.818359	-0.270996	-0.460449	0.386098	0.662772	0.125466	-0.629221	-8.91892	3.17554	0.877491	0.098181	0.0694074	-0.0424296	0.952148	0.000732422	-0.38501	0.734795	0.531021	0.0888767	-0.412545	-5.23929	6.44471	4.17816	0.121988	0.034336	-0.0408078	0.792725	-0.391113	-0.472656	0.98861	-0.0488737	0.0845087	-0.114538	-3.50336	-2.80875	12.4222	0.0828104	0.0818219	-0.03428	0.711914	0.205566	-0.688965	0.304881	-0.519303	-0.52427	-0.60209	9.02989	2.73812	-0.874523	0.0101952	0.205907	-0.0216451	-0.968994	0.0751953	0.205811	0.398166	-0.584871	-0.429594	-0.561104	9.71863	1.28303	-0.241541	0.110434	-0.00432645	-0.00199713	-0.971191	0.4104	0.183594	0.420223	-0.547276	-0.45871	-0.559899	9.75606	0.834285	-0.0849676	-0.100298	0.0322623	-0.00108048	-1.01733	0.353271	0.109375	0.487174	-0.594031	-0.455989	-0.449291	9.46389	-1.81395	-1.03238	-0.053152	0.0189571	0.00878127	-0.866699	0.572754	0.159424	0.548499	-0.567054	-0.454559	-0.413492	9.5655	-2.26363	-0.496643	-0.0162451	0.0144597	-0.0106858	-0.912354	0.682617	0.0366211	
83	0.261682	-0.267667	-0.69866	-0.609714	6.59184	6.65813	-1.05982	-0.0993518	0.00902288	-0.0202862	-0.884033	-0.340576	0.0964355	0.448827	-0.190258	-0.529173	-0.694502	7.46898	5.34917	3.65315	-0.0551132	-0.0308053	-0.0700165	-0.746826	-0.29126	-0.392334	0.816663	0.408066	0.236119	-0.332854	-6.21536	5.10716	5.93011	0.0935086	-0.0110305	-0.0244468	0.824707	-0.27124	-0.455811	0.382182	0.665954	0.124439	-0.628457	-9.06797	3.51059	0.841902	0.197856	0.0862616	-0.0365091	0.950195	-0.00146484	-0.376221	0.73353	0.532672	0.088427	-0.412766	-5.76238	7.22976	3.98378	0.164374	0.0368957	-0.0381152	0.799072	-0.384521	-0.461182	0.988525	-0.0479672	0.0853864	-0.11501	-3.59809	-2.08099	12.5946	0.0704456	0.093342	-0.0468084	0.713867	0.207764	-0.678223	0.306994	-0.516588	-0.523471	-0.604044	9.28086	2.99152	-0.611381	0.0744896	0.185889	-0.0244573	-0.966797	0.0732422	0.195312	0.396604	-0.586144	-0.428282	-0.561885	9.75554	-0.251906	-0.405001	-0.0334287	-0.0108198	-0.0195273	-0.971436	0.414551	0.18335	0.420774	-0.546824	-0.458815	-0.559841	9.92716	0.23413	-0.275859	0.0519975	0.0403347	-0.0143733	-1.01929	0.348877	0.107178	0.487583	-0.593736	-0.45636	-0.448861	9.43581	-1.9732	-1.11337	0.0632966	0.00254427	0.00476307	-0.862305	0.572754	0.154785	0.54836	-0.567205	-0.454367	-0.413678	9.49573	-2.41304	-0.54901	0.0112299	0.00727844	-0.0024044	-0.90332	0.680664	0.0366211	
84	0.261115	-0.268114	-0.698014	-0.6105	6.89467	6.48208	-1.07148	-0.0278508	0.00862123	-0.01441	-0.883545	-0.347168	0.103027	0.448017	-0.189569	-0.529211	-0.695184	7.42206	5.5788	3.59577	-0.0111955	0.0132263	-0.0593371	-0.740234	-0.29126	-0.394531	0.816164	0.409266	0.234773	-0.333557	-6.26647	4.72781	6.39172	0.16054	-0.0645601	-0.00438048	0.818359	-0.275391	-0.455811	0.382674	0.666006	0.124444	-0.6281	-9.28935	3.83879	0.921804	-0.026482	0.0222421	0.0370155	0.950195	-0.00366211	-0.378418	0.732777	0.533468	0.0877603	-0.413216	-5.63999	6.90899	3.83735	0.0518438	-0.0125699	-0.0129417	0.801514	-0.388916	-0.463623	0.9883	-0.0484942	0.0864104	-0.11595	-3.72702	-2.40534	11.9749	0.050844	0.0456712	-0.0652767	0.720459	0.203369	-0.677979	0.307309	-0.516051	-0.523496	-0.604321	9.08962	3.15535	-0.793392	0.0306006	0.060962	-0.031033	-0.968994	0.0773926	0.195068	0.396938	-0.585932	-0.428907	-0.561393	9.85187	0.174229	-0.369798	0.0708171	-0.00581199	-0.0224339	-0.973633	0.412354	0.19043	0.421103	-0.546465	-0.459031	-0.559766	9.84605	0.74273	0.0153484	-0.0848452	0.00242022	-0.0172307	-1.02417	0.353271	0.111572	0.488345	-0.592858	-0.45693	-0.448613	9.61213	-1.51349	-1.07112	0.0417405	0.0339816	-0.00601477	-0.87085	0.566162	0.152832	0.549111	-0.566467	-0.455135	-0.412849	9.60811	-2.43291	-0.584568	0.0897279	-0.00160384	-0.00638357	-0.912354	0.682617	0.0388184	
85	0.259933	-0.267394	-0.698359	-0.610926	6.79503	6.54177	-1.1678	0.00977163	-0.0364406	-0.0641327	-0.887695	-0.35376	0.103027	0.447692	-0.189329	-0.529528	-0.695217	7.46229	5.51172	3.65482	0.00837196	0.025651	-0.0336157	-0.742188	-0.297852	-0.39209	0.818182	0.406778	0.234839	-0.331604	-6.19305	5.07559	6.25001	-0.229644	-0.0390533	0.0474759	0.820557	-0.275391	-0.460205	0.384906	0.665307	0.124801	-0.627406	-9.14131	3.89304	0.984229	-0.105894	0.00513581	0.0611619	0.951904	0.00512695	-0.376221	0.733341	0.53318	0.0866368	-0.412825	-5.63188	7.14328	3.95124	-0.0746394	-0.0260132	0.0431589	0.801758	-0.393311	-0.470459	0.988207	-0.0485747	0.0859043	-0.117083	-3.74411	-2.19525	12.1906	-0.0770855	-0.0269821	-0.0506939	0.718506	0.201172	-0.677979	0.308654	-0.514665	-0.523368	-0.604929	9.17947	2.99552	-0.599922	0.0526154	0.0801595	-0.00790167	-0.97583	0.0817871	0.190674	0.396674	-0.586026	-0.428498	-0.561794	9.69776	0.172032	-0.402035	-0.046398	0.0207567	-0.0257363	-0.967041	0.412354	0.188232	0.420463	-0.546918	-0.458752	-0.560034	9.76808	0.584353	-0.146791	0.0141582	-0.00782901	-0.0287963	-1.01978	0.355713	0.109375	0.487638	-0.593576	-0.456072	-0.449305	9.44284	-1.75319	-1.18009	-0.0984016	0.0266601	0.00299815	-0.864258	0.566162	0.157227	0.548204	-0.567395	-0.454425	-0.413561	9.57979	-2.54481	-0.716531	-0.0941563	0.0120559	-0.00159395	-0.907959	0.685059	0.043457	
86	0.260363	-0.265752	-0.699373	-0.610298	6.80381	6.87766	-1.119	0.0698258	0.0532083	-0.0352161	-0.883301	-0.351562	0.0986328	0.447718	-0.189406	-0.530335	-0.694564	7.38776	5.55493	3.68437	0.0284235	-0.01879	-0.0114991	-0.744385	-0.297852	-0.387207	0.819732	0.404848	0.235807	-0.329443	-6.53553	5.33234	5.98045	-0.0983557	0.0323342	0.0483963	0.820557	-0.277588	-0.460205	0.388726	0.663826	0.126794	-0.626219	-8.97975	3.66076	1.0471	-0.169585	0.0163731	0.0399955	0.956787	0.000976562	-0.387207	0.734347	0.532548	0.0859142	-0.412002	-5.46631	6.88915	4.11654	0.0224861	-0.00204814	0.0364763	0.795166	-0.395508	-0.46582	0.988291	-0.0481506	0.0839093	-0.117987	-3.53224	-2.17316	12.4679	0.0746146	-0.084183	-0.0693769	0.71167	0.211914	-0.68042	0.309868	-0.513563	-0.523375	-0.605239	9.26957	2.98655	-0.751263	0.0561665	0.0877706	-0.0180333	-0.968994	0.0754395	0.186523	0.395416	-0.586946	-0.427222	-0.562692	9.81503	0.139619	-0.485151	-0.141203	0.0234325	-0.00296949	-0.975586	0.4104	0.183594	0.416433	-0.550135	-0.45492	-0.563012	9.90717	0.0800072	-0.587908	-0.426027	-0.00721888	-0.00281425	-1.02637	0.35083	0.111572	0.486951	-0.594122	-0.45575	-0.449655	9.60258	-1.73952	-1.08509	0.00938497	0.0070817	0.00334889	-0.87085	0.566162	0.159668	0.548443	-0.56712	-0.454459	-0.413583	9.57817	-2.52465	-0.635373	0.0267508	0.0239413	-0.00867765	-0.905273	0.678467	0.0388184	
