40	Head	00b4120a												Throax	00b411e8												LUpArm	00b411d9												LFoArm	00b41148												RUpArm	00b411db												RFoArm	00b41204												Waist	00b411f7												Lthigh	00b411f4												Lshank	00b4111b												Rthigh	00b411c8												Rshank	00b411ee												
PacketCount	q0	q1	q2	q3	accX	accY	accZ	gyrX	gyrY	gyrZ	magX	magY	magZ	q0	q1	q2	q3	accX	accY	accZ	gyrX	gyrY	gyrZ	magX	magY	magZ	q0	q1	q2	q3	accX	accY	accZ	gyrX	gyrY	gyrZ	magX	magY	magZ	q0	q1	q2	q3	accX	accY	accZ	gyrX	gyrY	gyrZ	magX	magY	magZ	q0	q1	q2	q3	accX	accY	accZ	gyrX	gyrY	gyrZ	magX	magY	magZ	q0	q1	q2	q3	accX	accY	accZ	gyrX	gyrY	gyrZ	magX	magY	magZ	q0	q1	q2	q3	accX	accY	accZ	gyrX	gyrY	gyrZ	magX	magY	magZ	q0	q1	q2	q3	accX	accY	accZ	gyrX	gyrY	gyrZ	magX	magY	magZ	q0	q1	q2	q3	accX	accY	accZ	gyrX	gyrY	gyrZ	magX	magY	magZ	q0	q1	q2	q3	accX	accY	accZ	gyrX	gyrY	gyrZ	magX	magY	magZ	q0	q1	q2	q3	accX	accY	accZ	gyrX	gyrY	gyrZ	magX	magY	magZ	
0	0.270059	-0.255836	-0.704523	-0.60437	6.68267	6.91079	-1.12662	0.0288959	0.0385655	-0.0165823	-0.880859	-0.355713	0.0966797	0.456564	-0.195154	-0.53603	-0.682742	7.70481	5.36601	3.5058	-0.0267205	-0.0124722	-0.0095864	-0.753662	-0.284668	-0.368896	0.845767	0.376836	0.235205	-0.295554	-6.5987	5.29003	6.42155	0.073888	0.0306475	0.00200559	0.813965	-0.277344	-0.473877	0.41209	0.657988	0.131416	-0.616412	-9.09455	3.74917	0.861232	-0.0123061	-0.0141459	0.0322611	0.943604	-0.00585938	-0.382568	0.735447	0.533313	0.0842585	-0.409384	-5.53746	7.07248	4.19448	0.0881005	0.0171542	-0.0175019	0.797363	-0.397705	-0.468018	0.988539	-0.0265699	0.0850849	-0.121843	-3.59953	-2.09298	12.9444	-0.0638418	-0.018815	-0.0350171	0.712402	0.19043	-0.69043	0.31619	-0.518202	-0.521578	-0.599539	9.30092	2.60876	-0.528455	0.0385764	0.0208986	-0.00524779	-0.972168	0.0969238	0.19458	0.402142	-0.581938	-0.433777	-0.558094	9.75063	0.0213517	-0.481407	-0.0313765	0.0235603	-0.0200945	-0.967285	0.416992	0.178711	0.416534	-0.552845	-0.453956	-0.561058	9.86767	0.262178	-0.392883	0.0903791	0.010509	-0.0116018	-1.01514	0.355469	0.118164	0.485559	-0.596391	-0.459793	-0.444005	9.61925	-1.39157	-1.41874	-0.0306047	0.00469884	0.00562639	-0.859863	0.568604	0.164062	0.547656	-0.571024	-0.452444	-0.411459	9.58278	-2.56653	-0.700344	0.0209886	-0.00160598	0.00354034	-0.896973	0.69165	0.0524902	
1	0.270411	-0.255733	-0.704504	-0.604279	6.78444	6.78792	-1.15568	0.0127848	0.019021	0.00471259	-0.880859	-0.355713	0.0966797	0.456839	-0.195007	-0.536262	-0.682417	7.57892	5.61232	3.40267	0.00111738	-0.00466062	-0.01126	-0.760254	-0.280273	-0.373779	0.846167	0.376045	0.235057	-0.295533	-6.35236	5.10948	6.57647	-0.0337867	-0.0103918	0.00885267	0.80957	-0.272949	-0.478516	0.412411	0.657496	0.131154	-0.616778	-9.12186	3.83814	1.0065	-0.0170076	-0.00896561	0.00416141	0.948242	-0.0102539	-0.380371	0.735463	0.532863	0.0842942	-0.409933	-5.48254	6.85512	4.14552	0.0506368	-0.00249045	-0.0469678	0.797119	-0.391113	-0.470459	0.988424	-0.0257167	0.0856618	-0.122547	-3.57135	-2.19782	12.6232	0.00630267	0.0109688	-0.0237634	0.712158	0.19458	-0.690674	0.315512	-0.519131	-0.522147	-0.598596	9.41154	2.92381	-1.01808	0.0338927	-0.0162631	-0.0133146	-0.972168	0.0969238	0.196777	0.403453	-0.58108	-0.434978	-0.557105	9.8182	0.101714	-0.44073	0.150303	0.019725	-0.0112048	-0.969482	0.416748	0.18335	0.416911	-0.55264	-0.454212	-0.560772	9.89939	0.200833	-0.27607	0.0217807	0.00513551	-0.0170832	-1.02222	0.360107	0.118164	0.485331	-0.596636	-0.459819	-0.443899	9.4964	-2.20229	-1.2799	0.0450565	0.00807634	0.00274951	-0.862061	0.568359	0.168701	0.546899	-0.571867	-0.451937	-0.411852	9.42522	-2.7071	-0.586519	-0.0979603	-0.00205158	0.00228725	-0.901367	0.689453	0.0478516	
2	0.270761	-0.256163	-0.704341	-0.60413	6.69301	6.79049	-1.21121	-0.0113447	-0.0103048	0.0205198	-0.878662	-0.355713	0.0944824	0.45684	-0.195254	-0.536311	-0.682308	7.6842	5.43107	3.50573	0.00267565	0.0175981	-0.0136492	-0.751221	-0.286865	-0.373535	0.846253	0.375752	0.235229	-0.295524	-6.47051	5.15946	6.47329	-0.0171448	0.00638773	-0.0153945	0.807617	-0.279541	-0.478516	0.412411	0.657496	0.131154	-0.616778	-9.12186	3.83814	1.0065	-0.0170076	-0.00896561	0.00416141	0.948242	-0.0102539	-0.380371	0.734841	0.533543	0.0842229	-0.410179	-5.47391	6.97475	4.26987	0.0690208	0.0197911	-0.0406723	0.797607	-0.399902	-0.46582	0.988397	-0.0247277	0.0858916	-0.122809	-3.54625	-2.0938	12.5939	0.0837947	0.0413159	-0.0314631	0.708252	0.186035	-0.69043	0.315217	-0.519498	-0.522273	-0.598323	9.35741	2.77286	-0.469834	0.0105319	-0.0331111	-0.0137167	-0.969971	0.0969238	0.19458	0.403787	-0.580885	-0.435236	-0.556864	9.80727	0.419558	-0.341784	0.0470641	0.0177904	-0.0128695	-0.975586	0.4104	0.171875	0.417226	-0.552452	-0.454424	-0.560552	9.88431	0.671043	-0.137523	0.0434238	0.00862233	-0.0148307	-1.02222	0.360107	0.115967	0.485968	-0.596095	-0.460152	-0.443583	9.46735	-1.55107	-1.44678	0.0781201	0.0264264	0.00115343	-0.866699	0.570557	0.164062	0.547913	-0.570923	-0.452715	-0.410959	9.59096	-2.10041	-0.664996	0.0409125	0.00478271	-0.00101774	-0.901367	0.69165	0.0478516	
3	0.270523	-0.25651	-0.703844	-0.604667	6.84578	6.75952	-1.20475	-0.0451572	-0.00954581	0.000935292	-0.881104	-0.353516	0.0900879	0.457111	-0.195127	-0.535449	-0.68284	7.45656	5.36311	3.51655	-0.0515979	0.0446513	-0.0168335	-0.755859	-0.282471	-0.378418	0.846138	0.375739	0.235543	-0.29562	-6.24155	5.1535	6.48475	0.00328396	0.011701	-0.0134719	0.80957	-0.272949	-0.480957	0.41199	0.657339	0.131159	-0.617226	-8.9007	3.86968	1.13527	0.0163808	0.00320722	-0.0183182	0.948242	-0.00805664	-0.382568	0.734734	0.533496	0.0845378	-0.410366	-5.48844	6.97055	4.09712	0.010501	0.0232198	-0.0383772	0.797607	-0.4021	-0.46582	0.988309	-0.0248972	0.0863517	-0.123161	-3.56726	-2.3938	12.641	0.00214475	0.0192861	-0.0301862	0.712402	0.192383	-0.692871	0.314433	-0.520312	-0.521863	-0.598387	9.33582	2.8766	-0.832508	-0.0417939	0.0392333	-0.00588386	-0.965332	0.0927734	0.192627	0.402827	-0.581515	-0.434279	-0.557649	9.72269	0.0366538	-0.371902	-0.0511482	0.022595	-0.0153231	-0.973389	0.4104	0.176514	0.417132	-0.552623	-0.454308	-0.560547	9.80459	0.396642	-0.217573	0.018325	-0.00044452	-0.0175701	-1.02197	0.355469	0.118164	0.48555	-0.596561	-0.459748	-0.443833	9.54248	-1.57015	-1.29382	-0.0295135	0.00365471	0.00702601	-0.864258	0.566162	0.164062	0.547659	-0.571244	-0.452338	-0.411267	9.53879	-2.58223	-0.58712	0.0379343	0.0134483	-0.00149162	-0.896973	0.69165	0.0410156	
4	0.271405	-0.255924	-0.702857	-0.605668	6.77743	6.73078	-1.09796	-0.0338024	0.0873577	-0.00082934	-0.885498	-0.355713	0.0966797	0.456709	-0.195229	-0.535057	-0.683386	7.6704	5.53963	3.41672	-0.0424654	0.0139078	-0.0328412	-0.753418	-0.286865	-0.375977	0.845884	0.37556	0.23714	-0.295295	-6.60442	4.84656	6.31241	0.0188	0.0360159	0.00987457	0.811768	-0.272949	-0.476318	0.411146	0.657398	0.132265	-0.617489	-8.94709	3.67953	1.16593	-0.0128635	0.0356412	-0.0659036	0.952637	-0.00805664	-0.382568	0.734167	0.534095	0.0847825	-0.410552	-5.56715	6.91682	4.10342	0.0513957	0.0369557	-0.0504976	0.799316	-0.386719	-0.463623	0.988314	-0.0232396	0.0872264	-0.122833	-3.59772	-1.83331	12.4756	0.034742	0.0706869	0.010699	0.712646	0.183838	-0.688232	0.3121	-0.522586	-0.521705	-0.597763	9.51097	2.86618	-1.03834	-0.0572243	-0.152024	-0.0138092	-0.963623	0.0991211	0.203125	0.402826	-0.581806	-0.434085	-0.557498	9.89688	0.259871	-0.497568	0.00645329	0.00723255	-0.00218524	-0.967285	0.414795	0.181152	0.416719	-0.553085	-0.454038	-0.560618	9.89101	0.371219	-0.120506	-0.0261475	-0.00581887	-0.0152479	-1.01758	0.360107	0.120361	0.485251	-0.596895	-0.459544	-0.443923	9.62939	-1.82734	-1.21084	-0.0087049	-0.00182666	0.00259252	-0.868652	0.568359	0.170898	0.54751	-0.57152	-0.45201	-0.411442	9.63685	-2.7758	-0.600388	0.00474418	0.00940668	-3.50786e-05	-0.898926	0.685059	0.0524902	
5	0.271481	-0.255467	-0.702071	-0.606738	6.61769	6.57152	-1.04233	-0.0253453	0.0115326	-0.0240562	-0.880859	-0.35791	0.0881348	0.4564	-0.195202	-0.534927	-0.683702	7.63533	5.42287	3.43781	-0.00265915	0.00439553	-0.0416733	-0.746826	-0.286865	-0.375977	0.845884	0.37556	0.23714	-0.295295	-6.60442	4.84656	6.31241	0.0188	0.0360159	0.00987457	0.811768	-0.272949	-0.476318	0.409824	0.658234	0.133114	-0.617295	-8.95536	3.59469	0.886325	0.0638682	0.0526546	-0.0415168	0.952393	-0.00366211	-0.382812	0.733703	0.534607	0.085586	-0.410549	-5.48704	7.04044	4.07809	-0.0207072	0.0290725	-0.0212015	0.803955	-0.397705	-0.468018	0.988366	-0.0234523	0.0877815	-0.121975	-3.56479	-1.84961	12.3174	-0.0271978	0.012472	0.0195423	0.712891	0.181641	-0.690186	0.312166	-0.522553	-0.520819	-0.598529	9.21598	2.83464	-0.633259	-0.040612	0.036296	-0.0126574	-0.967773	0.0969238	0.196777	0.402237	-0.58216	-0.433255	-0.558198	9.68784	-0.12915	-0.662693	-0.0518298	0.0188328	-0.0209083	-0.969238	0.414795	0.181152	0.416452	-0.553551	-0.453658	-0.560663	9.84924	0.337114	-0.467402	-0.0277821	0.00028075	-0.010517	-1.01978	0.357666	0.122559	0.485583	-0.596817	-0.45937	-0.443845	9.44466	-1.71645	-1.33732	-0.00174553	0.0196385	0.0166551	-0.864502	0.572754	0.164062	0.547375	-0.571742	-0.451896	-0.411438	9.51561	-2.51614	-0.582156	-0.0531446	-0.00241172	0.00240534	-0.89917	0.69165	0.0500488	
6	0.271332	-0.255811	-0.702189	-0.606523	6.61975	6.81461	-1.12233	-4.57816e-06	-0.0347478	0.0111008	-0.881104	-0.351318	0.0878906	0.456651	-0.194977	-0.534705	-0.683772	7.46404	5.34098	3.48064	-0.0131965	0.0435059	-0.0109736	-0.749268	-0.280273	-0.373779	0.844574	0.37803	0.237423	-0.295664	-5.99067	5.05936	6.42591	0.0145721	0.0029389	-0.000325891	0.813965	-0.273193	-0.47168	0.409353	0.658645	0.133301	-0.617129	-8.82858	3.54748	0.961534	-0.00927232	0.0200853	0.00891223	0.952393	-0.00366211	-0.374023	0.73318	0.535695	0.0850887	-0.410168	-5.60453	7.21242	3.96439	0.0425464	0.0170609	0.0117879	0.799561	-0.395508	-0.46582	0.988384	-0.0235008	0.0879121	-0.12172	-3.68336	-1.80313	12.6244	-0.00226455	0.0100975	-0.0160917	0.712646	0.186035	-0.692627	0.311569	-0.523313	-0.52091	-0.598097	9.21769	2.75056	-0.79215	0.0136578	-0.0178612	-0.00773305	-0.959229	0.0969238	0.200928	0.402922	-0.58169	-0.434002	-0.557613	9.72649	-0.0318961	-0.418364	0.0800408	0.0159034	-0.0150249	-0.967285	0.416992	0.178711	0.417916	-0.552437	-0.454946	-0.559628	9.78135	0.657764	-0.0855555	0.0798348	0.0130785	-0.0193411	-1.01514	0.35791	0.120361	0.486061	-0.596478	-0.459675	-0.44346	9.40698	-1.73319	-1.109	0.0384301	0.0134534	-6.06028e-05	-0.866699	0.572754	0.161621	0.54792	-0.571295	-0.452394	-0.410787	9.4943	-2.18881	-0.614592	0.0512811	-0.000902339	-0.000362975	-0.896973	0.69165	0.0500488	
7	0.271222	-0.255709	-0.702494	-0.606262	6.92332	6.51785	-1.12541	0.0331174	0.0165784	-0.0152011	-0.883301	-0.351318	0.0922852	0.456864	-0.194454	-0.535841	-0.682889	7.61479	5.64402	3.49859	0.0638185	0.00321619	-0.00385727	-0.757812	-0.286865	-0.373535	0.845479	0.377066	0.237207	-0.294481	-6.56509	4.95294	6.48845	-0.0461244	-0.0292868	0.0516479	0.80957	-0.270752	-0.47876	0.410295	0.658408	0.133094	-0.6168	-9.03326	3.59932	1.0282	-0.027043	-0.00437269	0.0376991	0.956787	-0.00146484	-0.382812	0.733519	0.535397	0.085185	-0.409932	-5.69188	7.25673	3.99048	-0.0382549	0.0116576	0.00517845	0.797607	-0.399902	-0.463623	0.988441	-0.0235223	0.087444	-0.121592	-3.47064	-1.81336	12.3777	-0.0161111	-0.00332588	-0.00865975	0.7146	0.188232	-0.686279	0.310747	-0.524334	-0.521554	-0.597069	9.40154	2.76783	-1.02469	0.0403333	-0.0321529	-0.020504	-0.963135	0.0905762	0.203369	0.403336	-0.581487	-0.434461	-0.557169	9.86069	0.18532	-0.415837	0.0274161	0.017774	-0.0118258	-0.960938	0.419189	0.17627	0.417959	-0.552424	-0.454889	-0.559655	9.90622	0.397188	-0.202753	0.0313307	0.00832686	-0.0180593	-1.01758	0.360107	0.118164	0.486346	-0.596017	-0.46024	-0.443182	9.66158	-1.70619	-1.33476	0.0516751	0.0161792	-0.00370778	-0.864258	0.568359	0.168701	0.548382	-0.570993	-0.452796	-0.410146	9.70077	-2.51091	-0.658656	0.105884	-0.00395607	-0.000143538	-0.901611	0.693848	0.0500488	
8	0.271463	-0.255358	-0.703033	-0.605676	6.68393	6.67287	-1.17896	0.071773	0.00343355	-0.00950686	-0.881104	-0.353516	0.0859375	0.457353	-0.1944	-0.536108	-0.682368	7.55999	5.47102	3.51723	0.0379805	0.0197739	0.0199365	-0.753418	-0.289062	-0.373535	0.845877	0.376938	0.236627	-0.293967	-6.10813	5.26117	6.48194	-0.00848686	-0.0301228	0.0534176	0.813965	-0.275146	-0.476318	0.411435	0.658042	0.13318	-0.616414	-9.05553	3.81035	0.929194	-0.0770279	-0.00192695	0.0619088	0.954834	-0.0078125	-0.384766	0.734402	0.534718	0.0854001	-0.40919	-5.55631	7.01879	3.92122	-0.0455705	0.0118474	0.0222636	0.801758	-0.397705	-0.46582	0.98849	-0.0240882	0.0871401	-0.121304	-3.66721	-1.72923	12.4354	-0.0378839	-0.0175796	0.000962063	0.712646	0.186035	-0.692627	0.311091	-0.524358	-0.522343	-0.596179	9.31015	2.88498	-0.695224	0.103401	-0.032975	-0.00940382	-0.961426	0.0991211	0.205322	0.403245	-0.581457	-0.434317	-0.557377	9.81098	0.0999032	-0.532022	-0.0128607	0.028972	-0.0222268	-0.973877	0.418945	0.17627	0.418189	-0.552266	-0.455117	-0.559454	9.8545	0.561522	-0.170781	0.0388821	0.00466926	-0.0188793	-1.02441	0.360107	0.120361	0.486424	-0.595924	-0.460321	-0.443137	9.45868	-1.58537	-1.32441	0.0154315	0.0128053	-0.000578505	-0.864258	0.570557	0.164062	0.548215	-0.571192	-0.45269	-0.41021	9.53979	-2.23453	-0.649524	-0.0183273	0.00168011	-0.000384567	-0.901611	0.696045	0.0500488	
9	0.272207	-0.254149	-0.703603	-0.605189	6.86324	6.80849	-1.09999	0.0269812	0.0670763	-0.0293526	-0.883057	-0.355713	0.0859375	0.457875	-0.194046	-0.537289	-0.681188	7.56149	5.53247	3.33773	0.0742686	-0.00597409	0.000977444	-0.758057	-0.282471	-0.375977	0.846551	0.375927	0.23682	-0.293167	-6.25267	5.45491	6.51242	-0.09906	0.00364697	0.0378604	0.813965	-0.270996	-0.480957	0.413567	0.65727	0.132686	-0.615917	-8.93394	3.79539	0.890458	0.0104322	-0.00794723	0.026347	0.957031	-0.0078125	-0.382568	0.735861	0.533368	0.0854644	-0.408317	-5.41008	6.85501	4.09388	-0.057249	0.0216402	0.0338778	0.791016	-0.4021	-0.46582	0.98855	-0.0264518	0.0863147	-0.120912	-3.47243	-2.21986	12.7234	-0.0832674	-0.0068291	-0.00755887	0.708252	0.188232	-0.694824	0.310227	-0.525561	-0.523168	-0.594845	9.27946	2.87933	-1.01375	0.0477793	0.00531572	-0.0130335	-0.965576	0.0969238	0.209473	0.404073	-0.580688	-0.434725	-0.557262	9.77274	0.172235	-0.363955	0.0486517	0.0234487	-0.016695	-0.969482	0.418945	0.180908	0.417497	-0.552889	-0.454444	-0.559903	9.84334	0.526082	-0.218953	-0.0575514	0.00445611	-0.0167011	-1.01978	0.35791	0.11377	0.48629	-0.595812	-0.460641	-0.443102	9.52564	-1.69374	-1.27053	0.0183923	-0.00566393	-0.000859585	-0.864502	0.572754	0.168457	0.549095	-0.570366	-0.45315	-0.409674	9.57318	-2.38253	-0.699853	0.0980049	0.022091	-0.00368349	-0.901367	0.69165	0.0456543	
10	0.272586	-0.25315	-0.703901	-0.60509	6.88266	6.78888	-1.06817	0.035798	0.00841379	-0.0155984	-0.878418	-0.359863	0.0837402	0.458146	-0.194275	-0.537077	-0.681108	7.66682	5.38987	3.61811	-0.0203469	0.0194144	0.011352	-0.751465	-0.282471	-0.380859	0.847091	0.37544	0.236694	-0.29233	-6.20132	5.09902	6.27628	0.0366604	0.0203617	0.00638577	0.807617	-0.275146	-0.478516	0.414147	0.656994	0.133023	-0.615749	-8.99816	3.69584	1.14891	-0.0550931	0.00541439	0.0147347	0.948242	-0.0102539	-0.386963	0.736434	0.532662	0.0853413	-0.408232	-5.50861	7.09738	4.16631	-0.0320779	-0.0113576	0.00489546	0.799561	-0.395508	-0.46582	0.988583	-0.0257624	0.0860916	-0.120943	-3.55316	-2.10921	12.8539	0.0617713	0.00255572	-0.0150209	0.708252	0.188232	-0.692627	0.310006	-0.525841	-0.523559	-0.594368	9.24822	2.97626	-0.832951	0.036666	-0.0416061	-0.0198618	-0.958984	0.0947266	0.213867	0.403886	-0.580856	-0.434613	-0.55731	9.74935	0.317015	-0.39509	-0.0156352	0.00875478	-0.0157059	-0.969238	0.4104	0.174072	0.417125	-0.553141	-0.454117	-0.560195	9.82539	0.363545	-0.207308	-0.0454151	0.00418947	-0.0224835	-1.02222	0.360107	0.120361	0.486345	-0.59573	-0.460565	-0.443232	9.59684	-1.68658	-1.34384	0.00176242	0.025965	-0.000722979	-0.864746	0.577148	0.168457	0.548752	-0.570812	-0.452598	-0.410123	9.49726	-2.86235	-0.557757	0.0472103	0.00998662	-0.000421656	-0.901367	0.69165	0.0432129	
11	0.272947	-0.252237	-0.70357	-0.605694	6.43453	6.79898	-1.03992	-0.024628	0.0259216	-0.0354833	-0.880859	-0.35791	0.0900879	0.457368	-0.193942	-0.537519	-0.681377	7.68505	5.53249	3.44215	-0.0126433	0.00284227	-0.0431804	-0.757812	-0.286865	-0.371094	0.847221	0.375412	0.236788	-0.291915	-6.76383	5.02719	6.32123	-0.00716818	0.0194149	0.0212058	0.811768	-0.277344	-0.480713	0.413448	0.657413	0.133111	-0.615752	-9.00721	3.62503	0.777277	0.0351599	0.0206577	-0.0211516	0.955078	-0.0102539	-0.380371	0.735418	0.533868	0.0845928	-0.408643	-5.54351	7.22492	4.12718	0.0789315	-0.0175428	-0.0167623	0.795166	-0.397705	-0.468018	0.988553	-0.0248928	0.086162	-0.12132	-3.62079	-2.12359	12.4219	0.0525477	0.0141156	-0.0337612	0.712891	0.181641	-0.69458	0.30945	-0.52598	-0.523158	-0.594888	9.61471	2.87717	-0.861816	-0.00906833	0.0504834	-0.0185675	-0.963135	0.0905762	0.213867	0.402989	-0.581531	-0.43342	-0.558183	9.76475	-0.259448	-0.396253	-0.0506411	0.0251266	-0.0122309	-0.971436	0.414795	0.174072	0.41651	-0.553699	-0.453478	-0.560619	9.86919	0.382863	-0.165159	-0.0328747	-0.000269145	-0.0180367	-1.02222	0.360107	0.120361	0.486223	-0.595975	-0.460219	-0.443396	9.52819	-1.57059	-1.29465	-0.0512149	0.0077006	0.00855789	-0.864258	0.570557	0.164062	0.54825	-0.571346	-0.452083	-0.410617	9.53322	-2.43542	-0.528999	-0.130693	0.00616193	0.00015571	-0.901367	0.689453	0.0500488	
12	0.27194	-0.25294	-0.703507	-0.605927	6.91416	6.91053	-1.13145	-0.0316742	-0.0258331	-0.00106944	-0.882812	-0.360107	0.0859375	0.456574	-0.194052	-0.537432	-0.681946	7.54225	5.47714	3.28662	-0.0169472	-0.0128069	-0.0491517	-0.755615	-0.289062	-0.375732	0.846914	0.376119	0.236104	-0.29245	-6.45269	4.92221	6.5028	0.0336052	0.0122819	0.00193634	0.813965	-0.275146	-0.476318	0.412946	0.657851	0.132759	-0.615697	-9.03527	3.74893	1.09339	0.00019876	0.0140348	0.00825649	0.950684	-0.0146484	-0.384766	0.73453	0.534805	0.0843729	-0.409061	-5.38258	6.95283	4.05998	0.058988	0.00936592	-0.0220254	0.797363	-0.397705	-0.46582	0.9885	-0.0231004	0.0858454	-0.12233	-3.42595	-1.68389	12.4834	0.0624679	0.0170412	-0.0606625	0.708252	0.186035	-0.696777	0.308719	-0.526658	-0.522016	-0.59567	9.4101	2.76788	-1.12873	-0.0676195	-0.0698528	-0.00917226	-0.965576	0.0947266	0.21167	0.40319	-0.581512	-0.433483	-0.55801	9.88053	0.13287	-0.500908	-0.0249586	0.0296104	-0.00418413	-0.973877	0.419189	0.174072	0.416095	-0.554221	-0.452802	-0.560958	9.91741	0.0987607	-0.572025	-0.0342574	0.00521712	-0.00546576	-1.02197	0.357666	0.124756	0.485961	-0.596291	-0.459577	-0.443923	9.39207	-1.89792	-1.0986	-0.00767495	0.0269936	0.0134696	-0.866455	0.568359	0.164062	0.54832	-0.571261	-0.45213	-0.41059	9.57051	-2.85287	-0.6463	0.0130653	0.00867267	-0.00551016	-0.899414	0.696045	0.0500488	
13	0.271697	-0.253431	-0.702806	-0.606644	6.8285	6.84344	-1.16294	-0.0474623	-0.025473	0.0128376	-0.880615	-0.364258	0.0881348	0.455881	-0.194356	-0.537003	-0.682661	7.55693	5.41592	3.54383	-0.0487365	0.0226464	-0.0370034	-0.755615	-0.288818	-0.368652	0.846792	0.376658	0.235297	-0.292759	-5.90972	5.16979	6.5864	0.0152702	-0.0159922	0.00275061	0.811768	-0.272949	-0.476318	0.412223	0.6582	0.132025	-0.615966	-8.89601	3.77799	1.05525	0.0335183	-0.0110935	0.0115598	0.952881	-0.0124512	-0.382568	0.734427	0.534883	0.0835246	-0.409317	-5.48086	7.26665	4.06952	0.00061898	-0.0234215	-0.0041307	0.799805	-0.399902	-0.458984	0.988427	-0.0229936	0.0855084	-0.123175	-3.53038	-2.08868	12.5445	0.0584887	-0.0074833	-0.0499857	0.706055	0.186035	-0.69458	0.309283	-0.52632	-0.520613	-0.596903	9.042	2.70231	-0.879533	-0.0511856	0.00137161	-0.00138908	-0.961426	0.0991211	0.207275	0.403943	-0.581051	-0.434166	-0.557413	9.67294	0.201615	-0.501716	0.102709	-0.00639524	-0.0191763	-0.971436	0.414795	0.178711	0.418819	-0.552102	-0.455279	-0.559013	9.76879	0.820439	-0.21463	0.11734	0.0205174	-0.0171884	-1.02002	0.362305	0.118164	0.485985	-0.596371	-0.459489	-0.443882	9.63576	-1.63842	-1.33798	0.00623577	0.0243385	0.0093353	-0.862305	0.574951	0.164062	0.548272	-0.571256	-0.452016	-0.410786	9.61026	-2.61521	-0.58522	0.0111248	0.00510937	-0.00410577	-0.905762	0.687256	0.0478516	
14	0.273389	-0.252227	-0.701855	-0.607486	6.6532	6.60247	-1.1564	0.00781692	0.0820736	0.00832314	-0.880859	-0.35791	0.081543	0.455769	-0.194439	-0.536668	-0.682975	7.65026	5.51024	3.51103	-0.0105654	0.0186493	-0.0167755	-0.755371	-0.291016	-0.371094	0.847388	0.375771	0.235293	-0.292175	-6.4583	5.3882	6.38183	-0.0540139	-0.0277617	0.000857148	0.807617	-0.279541	-0.48291	0.412864	0.658137	0.131662	-0.615683	-9.0182	3.90594	0.970331	0.00819105	0.0057593	0.0246612	0.948242	-0.0102539	-0.378174	0.733996	0.535569	0.0833618	-0.409226	-5.45927	7.06317	3.84817	0.0684887	0.030247	-0.00586141	0.79541	-0.399902	-0.470459	0.988384	-0.021995	0.0850989	-0.123981	-3.36555	-1.98217	12.5228	0.0322555	0.0185648	-0.0345183	0.708252	0.188232	-0.694824	0.30934	-0.526401	-0.519753	-0.597551	9.30311	2.6895	-0.853472	-0.0230818	0.0232398	-0.00223462	-0.963379	0.0947266	0.205322	0.403928	-0.581142	-0.434144	-0.557346	9.93319	0.229117	-0.521436	0.00263356	0.00967019	-0.0106793	-0.97168	0.416992	0.178711	0.420092	-0.551178	-0.456102	-0.558298	9.69819	0.409605	-0.217837	0.111475	0.019048	-0.0196078	-1.01978	0.360107	0.115967	0.486004	-0.596409	-0.459495	-0.443803	9.58295	-1.93112	-1.46354	0.00515514	-0.00979368	-0.00395593	-0.862305	0.572754	0.159424	0.548142	-0.571318	-0.451994	-0.410898	9.6571	-2.61931	-0.613617	-0.00935339	0.00671627	-0.00544114	-0.901367	0.689453	0.0500488	
15	0.273503	-0.252245	-0.701972	-0.607293	6.6186	6.80105	-1.13591	0.0189091	-0.00444658	0.00572353	-0.878418	-0.359863	0.0837402	0.455744	-0.194836	-0.536241	-0.683214	7.59857	5.57164	3.39755	-0.0477077	0.0119216	-0.0112212	-0.755371	-0.29126	-0.375732	0.847706	0.375302	0.235217	-0.291916	-6.00709	4.96087	6.5397	-0.0363432	-0.0101626	0.012089	0.807617	-0.279541	-0.478516	0.413283	0.658069	0.131858	-0.615432	-9.09093	3.94373	0.987863	-0.0393799	0.0174285	0.0206461	0.955078	-0.0146484	-0.382568	0.735125	0.534121	0.0832677	-0.409111	-5.41354	6.90198	4.19362	-0.0423018	-0.0228226	-0.000823296	0.797363	-0.397705	-0.468018	0.988378	-0.0232347	0.0850829	-0.123811	-3.53857	-2.10972	12.8209	-0.0491463	-0.00217287	-0.0163846	0.708252	0.186035	-0.69043	0.310237	-0.525589	-0.519177	-0.598302	9.31674	2.98607	-0.868585	-0.0186545	0.101752	-0.012146	-0.967773	0.0947266	0.20752	0.404673	-0.580111	-0.435138	-0.557105	9.85794	0.0248219	-0.346164	0.0292628	0.0194493	-0.0205409	-0.967285	0.419189	0.174072	0.420456	-0.550781	-0.45634	-0.558221	9.85948	0.313504	-0.13759	-0.021789	0.0153949	-0.0209157	-1.02002	0.364746	0.115723	0.48661	-0.595766	-0.459988	-0.443493	9.3261	-1.66822	-0.996673	0.0325149	0.0144963	-0.00490152	-0.864502	0.570557	0.159424	0.548434	-0.57101	-0.452138	-0.410778	9.51294	-2.48372	-0.608418	0.0395406	0.0155261	-0.00658504	-0.908203	0.693848	0.0478516	
16	0.273206	-0.252744	-0.702174	-0.606985	6.77021	6.84146	-1.09977	-0.00397979	-0.0275192	0.00907682	-0.878662	-0.355713	0.081543	0.455639	-0.194967	-0.536114	-0.683347	7.63761	5.30969	3.5009	-0.0277936	0.00840238	-0.0222192	-0.751221	-0.286865	-0.371094	0.846986	0.376784	0.235216	-0.2921	-6.24045	5.35407	6.55028	0.0673597	0.0228704	-0.00432074	0.803223	-0.275146	-0.478516	0.413133	0.658128	0.13147	-0.615552	-8.93475	3.79088	1.04174	0.0388054	-0.0133316	-0.00608508	0.955078	-0.0124512	-0.382568	0.734384	0.53512	0.0832059	-0.40915	-5.5372	7.29416	4.04954	0.0433781	0.0253699	-0.0265697	0.795166	-0.397705	-0.46582	0.988349	-0.0230283	0.0850401	-0.124115	-3.46206	-2.1754	12.9392	0.0236087	0.0128951	-0.0405085	0.703857	0.188232	-0.692627	0.310288	-0.525845	-0.51961	-0.597674	9.27873	2.69783	-0.896652	0.0860625	-0.0410184	-0.0124981	-0.958984	0.0947266	0.213867	0.404891	-0.579888	-0.435302	-0.55705	9.79693	0.359947	-0.312891	0.0301068	0.0206626	-0.0200669	-0.971924	0.42334	0.178711	0.420623	-0.550545	-0.456765	-0.557981	9.82851	0.679473	-0.068665	0.0123825	-0.00169207	-0.0239068	-1.01978	0.355713	0.111572	0.486592	-0.595586	-0.460022	-0.443718	9.66772	-1.52596	-1.29419	-0.00280288	0.0375384	-0.00755837	-0.864258	0.570557	0.164062	0.548402	-0.570981	-0.452188	-0.410807	9.52573	-2.63891	-0.42685	0.0265712	0.00310451	-0.00603989	-0.89917	0.693848	0.0385742	
17	0.273018	-0.252807	-0.702259	-0.606945	6.94994	6.68177	-1.10297	0.0120958	0.0113513	-0.01847	-0.88501	-0.360107	0.0859375	0.456211	-0.194377	-0.53622	-0.68305	7.46432	5.70112	3.44519	0.00871899	0.025463	-0.0075154	-0.751221	-0.289062	-0.378174	0.847741	0.375314	0.235556	-0.291528	-6.53223	4.9279	6.6104	-0.049863	0.0162467	0.0216418	0.807617	-0.275146	-0.476318	0.414186	0.657576	0.132303	-0.615256	-8.93634	3.86493	1.02344	-0.0602827	0.0282818	0.0178789	0.948486	-0.0124512	-0.384766	0.734369	0.534979	0.0839763	-0.409203	-5.50091	6.87483	4.03571	0.0132561	0.0395114	-0.0326442	0.799561	-0.397705	-0.46582	0.988362	-0.0214222	0.0852445	-0.124157	-3.51287	-1.97615	12.621	0.0781486	0.0292476	-0.00410543	0.712646	0.186035	-0.694824	0.310558	-0.525647	-0.519671	-0.597654	9.30928	2.82789	-0.931174	0.0176702	0.0152393	-0.00685264	-0.965576	0.0969238	0.209473	0.403798	-0.580321	-0.434263	-0.558203	9.67157	-0.0818752	-0.504471	-0.0701858	0.032256	-0.0335889	-0.971436	0.414795	0.171631	0.418871	-0.551805	-0.455622	-0.558987	9.76687	0.594162	-0.217626	-0.144115	-0.0153178	-0.0293694	-1.01978	0.35791	0.115967	0.485869	-0.595975	-0.460125	-0.443881	9.50244	-1.95527	-1.45925	-0.00764987	-0.00526864	-0.0150478	-0.864258	0.570557	0.161865	0.548171	-0.571175	-0.452165	-0.41087	9.55841	-2.43648	-0.692688	-0.046859	0.00325089	-0.0026017	-0.898926	0.685059	0.0478516	
18	0.274166	-0.251759	-0.702601	-0.606467	6.70404	6.8313	-1.07643	0.055922	0.0389065	0.0079469	-0.881104	-0.353516	0.0793457	0.456991	-0.194268	-0.535917	-0.682798	7.53324	5.42606	3.49669	0.00901737	0.0578837	0.00961484	-0.757812	-0.286865	-0.378174	0.847778	0.375494	0.235707	-0.291065	-6.19674	5.3445	6.54156	0.00792566	0.0305489	0.0240788	0.80957	-0.275146	-0.483154	0.414563	0.65743	0.132813	-0.615048	-9.06574	4.08413	0.778543	-0.0501399	0.0227376	-0.00178021	0.952637	-0.0102539	-0.382568	0.734297	0.535219	0.0839963	-0.409015	-5.4363	6.99643	4.03059	0.0139442	0.0251456	-0.00433161	0.801758	-0.397705	-0.46582	0.988418	-0.0214977	0.0857387	-0.123357	-3.50903	-1.78917	12.3508	-0.0537745	0.0342188	0.019584	0.710449	0.188232	-0.692627	0.310561	-0.52572	-0.52011	-0.597207	9.38574	2.60947	-0.824864	0.0527002	-0.0216506	-0.0205895	-0.959229	0.0969238	0.205322	0.403413	-0.580554	-0.433886	-0.558532	9.80405	0.13714	-0.499608	-0.0498093	0.0198551	-0.0187271	-0.973633	0.414795	0.178711	0.41759	-0.552698	-0.454657	-0.559848	9.94585	0.238521	-0.340312	-0.155303	-0.0107175	-0.0307174	-1.01758	0.360107	0.118164	0.486074	-0.595618	-0.460198	-0.444059	9.54445	-1.67698	-1.34362	0.0219932	0.0374365	-0.0142162	-0.871094	0.572754	0.16626	0.548819	-0.570499	-0.452527	-0.410546	9.5788	-2.28636	-0.681804	0.0731139	0.0188799	-0.00752422	-0.89917	0.69165	0.0500488	
19	0.274931	-0.25098	-0.702637	-0.606402	6.67237	6.86521	-0.95659	0.00131918	0.0224995	-0.0105477	-0.878662	-0.355469	0.0771484	0.457418	-0.194327	-0.535929	-0.682485	7.63259	5.42427	3.52426	0.0075803	0.0161017	-0.00251135	-0.753662	-0.282471	-0.380859	0.847775	0.37523	0.237122	-0.290263	-6.28999	5.25754	6.38025	-0.0502826	0.0429552	-0.0141894	0.809814	-0.279541	-0.473877	0.414374	0.657378	0.133472	-0.615089	-8.84137	3.55358	1.09838	0.00485202	0.0304371	-0.0179614	0.950439	-0.0102539	-0.375977	0.734747	0.53492	0.0845837	-0.408477	-5.48724	6.9724	4.09539	-0.00593179	0.0429997	-0.0147683	0.799805	-0.404297	-0.463623	0.988453	-0.0223214	0.0858128	-0.122874	-3.62369	-1.97964	12.5297	-0.0636998	0.00992167	0.0156889	0.710449	0.188232	-0.694824	0.310723	-0.525682	-0.520002	-0.597249	9.26037	2.81173	-0.93749	-0.00942581	-0.00653114	-0.00947095	-0.965576	0.0969238	0.205322	0.403057	-0.580571	-0.433396	-0.559152	9.75321	-0.0545391	-0.488408	0.0165139	0.0290426	-0.028543	-0.971436	0.414795	0.174072	0.416106	-0.553636	-0.453497	-0.560966	9.86588	0.282819	-0.355511	-0.0611898	0.00516727	-0.0310339	-1.01758	0.360107	0.120361	0.485746	-0.59573	-0.460506	-0.44395	9.55463	-1.8956	-1.06993	-0.000495582	-0.00769337	-0.0040139	-0.864258	0.568359	0.16626	0.548748	-0.57052	-0.45219	-0.410982	9.56515	-2.79888	-0.585731	0.0550241	0.0238131	-0.00861675	-0.89917	0.69165	0.0456543	
20	0.275218	-0.250852	-0.702881	-0.606042	6.80883	6.74284	-1.02699	0.0339385	0.00605664	0.00601359	-0.876465	-0.357666	0.081543	0.4579	-0.193768	-0.5361	-0.682186	7.59122	5.55903	3.40611	-0.00214547	0.0277191	-0.0181359	-0.751221	-0.286865	-0.371094	0.847942	0.374875	0.237415	-0.289995	-6.25285	4.83732	6.34493	-0.0316673	0.0193612	-0.00107682	0.80542	-0.275146	-0.469482	0.414821	0.657049	0.134488	-0.614918	-8.94307	3.55956	0.975884	-0.0484192	0.0118918	-0.0159374	0.954834	-0.00585938	-0.382568	0.734489	0.535329	0.0847303	-0.408375	-5.49013	7.04393	4.14004	0.0318973	0.0223244	-0.0252693	0.799561	-0.395508	-0.46582	0.988543	-0.0221208	0.0864202	-0.121757	-3.57194	-1.89012	12.519	0.0131482	0.0207201	0.00703956	0.70874	0.175049	-0.694336	0.310654	-0.525639	-0.520309	-0.597056	9.41788	2.89627	-1.06157	-0.00963655	0.0289799	-0.0196896	-0.965576	0.0947266	0.20752	0.402731	-0.580593	-0.433234	-0.559488	9.84758	0.0644623	-0.422714	-0.0321488	0.0273577	-0.026031	-0.971436	0.414795	0.174072	0.415713	-0.553705	-0.453068	-0.561536	9.82575	0.39448	-0.129111	-0.049742	0.0176937	-0.0270695	-1.01978	0.357666	0.120361	0.485814	-0.595333	-0.460725	-0.44418	9.58611	-1.62793	-1.38131	0.0120488	0.0159933	-0.0136407	-0.864258	0.566162	0.161865	0.548303	-0.570842	-0.451853	-0.411499	9.57549	-2.67945	-0.539903	-0.0450872	0.00979368	-0.00910318	-0.901367	0.69165	0.0500488	
21	0.275261	-0.250814	-0.702847	-0.606078	6.85288	6.77938	-1.19657	-0.00530421	0.0048461	-0.00363388	-0.876465	-0.355469	0.081543	0.458262	-0.19351	-0.53589	-0.682181	7.56738	5.42951	3.3921	0.00320563	0.0325977	-0.0202247	-0.753418	-0.286865	-0.378174	0.847855	0.375574	0.237652	-0.289148	-6.40012	5.21222	6.40351	0.0149521	0.0134017	0.00819584	0.809814	-0.277344	-0.476318	0.414893	0.657004	0.135008	-0.614802	-9.18587	3.73288	1.04918	-0.0666118	0.0140512	-0.00168518	0.95459	-0.00366211	-0.382812	0.733691	0.536225	0.0850808	-0.408559	-5.48719	6.96808	4.06018	0.0376073	0.0276937	-0.0296339	0.797607	-0.4021	-0.461182	0.988598	-0.0216562	0.086413	-0.121396	-3.63913	-1.71285	12.4427	0.0190139	0.0206586	-0.00654369	0.712891	0.181641	-0.696777	0.311113	-0.524876	-0.520672	-0.597172	9.31731	2.85809	-0.891957	0.059179	0.0160674	-0.0374514	-0.96582	0.0991211	0.209473	0.403276	-0.579956	-0.433637	-0.559445	9.64365	0.00020216	-0.43111	0.0806606	0.0180104	-0.0221633	-0.969238	0.412598	0.176514	0.416334	-0.553004	-0.453594	-0.561342	9.80542	0.597668	-0.237882	0.067458	0.0213042	-0.030706	-1.01978	0.35791	0.11377	0.486166	-0.594969	-0.460927	-0.444073	9.51352	-1.7622	-1.39996	0.0237133	0.0187785	0.000275736	-0.868652	0.568359	0.157227	0.548676	-0.57027	-0.452333	-0.411268	9.52576	-2.40954	-0.527266	-0.00147369	0.00470218	-0.0126064	-0.905762	0.689453	0.0456543	
22	0.275364	-0.250925	-0.702302	-0.606616	6.73174	6.76196	-1.06447	-0.0283015	0.00987612	0.00379456	-0.876465	-0.357666	0.0793457	0.458412	-0.193537	-0.535549	-0.682341	7.57337	5.48251	3.44207	-0.0227666	0.0277026	-0.0167637	-0.749023	-0.286865	-0.375977	0.847939	0.375305	0.238049	-0.288927	-5.90545	5.10103	6.1702	0.00397055	0.00772695	-0.00815243	0.80542	-0.277344	-0.473877	0.414449	0.657148	0.135062	-0.614936	-8.7921	3.69062	0.770562	0.0400099	0.00813051	-0.0187918	0.954834	-0.00585938	-0.382568	0.733908	0.53611	0.0851501	-0.408307	-5.55789	7.17715	3.97709	-0.00704437	0.010335	-0.0126868	0.79541	-0.399902	-0.463623	0.988574	-0.0222038	0.0866224	-0.121349	-3.47104	-2.05459	12.6683	-0.0124044	0.0134809	-0.0124755	0.708496	0.181641	-0.690186	0.311647	-0.524104	-0.520436	-0.597778	9.42445	2.76868	-0.757377	0.026994	0.0467327	-0.0185205	-0.961182	0.0947266	0.203125	0.40349	-0.579573	-0.43365	-0.559678	9.75559	-0.280147	-0.557652	-0.0240707	0.0582558	-0.021637	-0.968994	0.408203	0.174072	0.417509	-0.552055	-0.454279	-0.56085	9.88754	0.00238222	-0.440603	0.212504	0.0265637	-0.0235469	-1.01978	0.35791	0.115967	0.487182	-0.593966	-0.461873	-0.443319	9.68999	-1.7759	-1.12743	0.0669519	-0.000110527	-0.00671056	-0.866699	0.572754	0.159424	0.549128	-0.569624	-0.452866	-0.410973	9.66315	-2.46068	-0.552138	0.0338117	0.00837381	-0.0142101	-0.901367	0.69165	0.0410156	
23	0.275538	-0.250753	-0.702081	-0.606865	6.88116	6.72943	-1.05105	-0.00399833	0.0292135	0.000500488	-0.876221	-0.359863	0.0837402	0.458122	-0.193749	-0.535	-0.682906	7.4336	5.61477	3.45648	-0.0429798	0.02424	-0.0202342	-0.751465	-0.284668	-0.375977	0.847622	0.375997	0.237638	-0.289296	-6.64706	5.14574	6.53518	0.0452467	0.0118471	-0.00823266	0.811768	-0.277344	-0.473877	0.414168	0.657259	0.134858	-0.615052	-9.10622	3.58149	1.02065	0.0287967	-0.000993711	0.00192856	0.954834	-0.00561523	-0.386963	0.733198	0.53677	0.0852066	-0.408703	-5.29119	6.94109	3.98078	0.0642797	0.0418434	-0.0413397	0.799805	-0.4021	-0.461182	0.988559	-0.0200611	0.0865567	-0.121891	-3.39218	-1.71196	12.4649	0.0719198	0.023446	-0.0405698	0.717285	0.179443	-0.690186	0.3128	-0.522662	-0.520178	-0.598662	9.26934	2.87067	-0.824051	0.0490521	0.0987748	-0.0260252	-0.969971	0.0969238	0.200928	0.404758	-0.578507	-0.435024	-0.558797	9.81222	0.0295157	-0.470538	0.0785757	0.0350723	-0.0166767	-0.969482	0.419189	0.164551	0.420182	-0.549884	-0.456384	-0.559275	9.98324	0.105941	-0.441696	0.174598	0.0335153	-0.0105066	-1.01758	0.360352	0.104736	0.48819	-0.593108	-0.462452	-0.442754	9.58737	-1.72335	-1.24958	0.086865	0.0127224	-0.00355624	-0.868652	0.568359	0.159424	0.549556	-0.568997	-0.453461	-0.410614	9.60305	-2.5149	-0.584076	0.0853813	0.00336303	-0.0153047	-0.901367	0.689453	0.0478516	
24	0.275726	-0.250578	-0.70196	-0.606991	6.69292	6.75901	-1.01857	-0.00501716	0.0211297	-0.00339667	-0.881104	-0.353516	0.0771484	0.457869	-0.193984	-0.53499	-0.683017	7.60388	5.58957	3.46423	-0.026327	-0.00799427	-0.0269958	-0.757812	-0.284668	-0.380615	0.847575	0.376212	0.23743	-0.289325	-6.2931	5.20095	6.22069	0.0301357	-0.00602607	0.000639342	0.80542	-0.279541	-0.478516	0.413696	0.657387	0.134861	-0.615232	-8.8976	3.76643	0.988484	-0.0173484	0.0132389	-0.0127667	0.950439	-0.0102539	-0.384766	0.733	0.53694	0.0852039	-0.408836	-5.67283	7.16821	3.90429	0.0181521	0.00864184	-0.0270577	0.802002	-0.399902	-0.458984	0.988527	-0.0201672	0.0865941	-0.1221	-3.58778	-1.59499	12.5555	-0.00221134	0.0151282	-0.0355817	0.708252	0.188232	-0.688232	0.313817	-0.521361	-0.520246	-0.599204	9.63786	2.77918	-1.00495	0.0600536	0.088605	-0.0337467	-0.969727	0.0947266	0.192627	0.405957	-0.57756	-0.436205	-0.557987	9.79275	-0.0601645	-0.377339	0.170191	0.0243818	-0.024861	-0.967285	0.416992	0.174072	0.420182	-0.549884	-0.456384	-0.559275	9.98324	0.105941	-0.441696	0.174598	0.0335153	-0.0105066	-1.01758	0.360352	0.104736	0.488682	-0.592654	-0.462789	-0.442468	9.42851	-1.67584	-1.06725	0.0664563	0.0191595	-0.00192673	-0.871094	0.568359	0.152588	0.549744	-0.568744	-0.453706	-0.410442	9.5515	-2.3144	-0.621909	0.038289	0.00327974	-0.010675	-0.901367	0.69165	0.0432129	
25	0.275876	-0.250506	-0.701771	-0.60717	6.7409	6.80145	-1.02958	-0.0109532	0.0140002	-0.00128319	-0.880859	-0.35791	0.0793457	0.457726	-0.193451	-0.534665	-0.683518	7.43289	5.42128	3.41721	-0.0219254	0.0386223	-0.037142	-0.751221	-0.286865	-0.380615	0.847558	0.376096	0.237252	-0.28967	-6.35904	5.16098	6.58646	-0.0193534	0.00348841	-0.0170398	0.811768	-0.277344	-0.473877	0.413836	0.657346	0.134236	-0.615319	-8.92155	3.72504	1.00501	0.0381029	-0.0188385	0.0226975	0.95459	-0.00366211	-0.382812	0.733252	0.536442	0.0847501	-0.409132	-5.20102	6.96873	4.07966	-0.0250486	-0.00335455	-0.00664867	0.802246	-0.406494	-0.461182	0.988454	-0.0197554	0.0866637	-0.122714	-3.40225	-2.00491	12.4557	0.0465383	0.020053	-0.0527951	0.712646	0.183838	-0.696777	0.316595	-0.51848	-0.519732	-0.600686	9.01074	2.97827	-0.782198	0.0380244	0.0351786	-0.00962578	-0.969727	0.0947266	0.196777	0.40686	-0.576321	-0.437148	-0.557872	9.84739	0.150589	-0.284146	-0.0340923	0.032037	-0.0269895	-0.969238	0.412598	0.162354	0.423929	-0.546525	-0.460071	-0.556713	9.84294	0.696332	0.0528938	0.037745	0.00291945	-0.0195939	-1.02197	0.355713	0.106934	0.489581	-0.591582	-0.463505	-0.442159	9.65033	-1.63892	-1.3016	0.0818692	0.0224807	-0.00555545	-0.868652	0.566162	0.150391	0.550389	-0.567865	-0.454504	-0.409912	9.6104	-2.52002	-0.575109	0.0854761	0.00864195	-0.018323	-0.901123	0.687256	0.0410156	
26	0.275783	-0.250507	-0.701763	-0.607222	6.67478	6.77975	-1.06865	0.00564735	-0.0182805	-0.000725293	-0.885254	-0.35791	0.081543	0.457671	-0.193569	-0.534889	-0.683346	7.61972	5.48798	3.51521	-0.0109237	0.0192493	-0.0194845	-0.749023	-0.289062	-0.375732	0.848008	0.375603	0.236896	-0.289285	-6.2176	5.12862	6.47789	-0.01863	-0.0147852	0.0155542	0.811768	-0.275146	-0.480957	0.413836	0.657346	0.134236	-0.615319	-8.92155	3.72504	1.00501	0.0381029	-0.0188385	0.0226975	0.95459	-0.00366211	-0.382812	0.732923	0.536694	0.0844675	-0.40945	-5.60133	7.02007	4.07112	-0.00774693	-0.0209594	-0.0206705	0.797607	-0.4021	-0.463623	0.988457	-0.0190047	0.0861579	-0.123163	-3.6241	-1.92831	12.719	0.0443942	-0.00525868	-0.0241032	0.708496	0.183838	-0.69458	0.317511	-0.517763	-0.519712	-0.600839	9.53969	2.96708	-0.670541	0.0641617	0.0914868	-0.00509623	-0.974365	0.0991211	0.188232	0.406677	-0.576387	-0.436786	-0.55822	9.85951	0.0648772	-0.500406	-0.0350936	0.0346329	-0.0170297	-0.97168	0.416992	0.166992	0.423549	-0.546703	-0.459929	-0.556945	9.96302	0.239208	-0.225776	0.00948077	0.00618137	-0.0266821	-1.02222	0.362549	0.106934	0.489462	-0.591516	-0.463277	-0.442617	9.39589	-1.71417	-1.46181	-0.0530964	0.0102483	-0.0125448	-0.871094	0.568359	0.155029	0.549794	-0.568298	-0.454334	-0.410298	9.53664	-2.82126	-0.712932	-0.0263663	-0.000206821	-0.0101601	-0.89917	0.69165	0.0410156	
27	0.275794	-0.250622	-0.70163	-0.607324	6.80526	6.69512	-1.0585	-0.0128836	0.00423016	-0.0150165	-0.880859	-0.35791	0.081543	0.457857	-0.192948	-0.53459	-0.683631	7.5172	5.56761	3.54534	-0.0186425	0.0399213	-0.0330782	-0.748779	-0.293457	-0.38501	0.848524	0.374858	0.237298	-0.288405	-6.26741	5.07222	6.20317	-0.0198633	0.0347892	0.0181122	0.807617	-0.281738	-0.478271	0.415489	0.656674	0.134577	-0.614846	-8.97769	3.92229	0.958928	-0.0187417	0.00438435	0.00922611	0.952637	-0.0102539	-0.382568	0.73289	0.53682	0.0842502	-0.409389	-5.34595	6.9212	4.10563	0.0140876	0.00205664	-0.00136582	0.799805	-0.4021	-0.458984	0.988428	-0.0189626	0.0860171	-0.123494	-3.56544	-2.05028	12.3972	-0.0348441	-0.00405731	-0.0247994	0.704102	0.181641	-0.69458	0.317374	-0.518056	-0.519714	-0.600657	9.48339	2.73299	-0.848914	0.00426216	0.00186035	-0.0167472	-0.972168	0.0969238	0.188232	0.406354	-0.576569	-0.436445	-0.558534	9.73356	0.334106	-0.398246	-0.0226127	0.0120523	-0.0257391	-0.971436	0.412598	0.169434	0.422459	-0.5474	-0.458976	-0.557873	9.843	0.638871	-0.226086	-0.107344	0.00733878	-0.0273404	-1.02222	0.360107	0.106934	0.489206	-0.591632	-0.463033	-0.443001	9.49182	-1.60037	-1.16202	-0.0210038	0.0204165	0.00486936	-0.866699	0.570557	0.157227	0.54974	-0.568296	-0.454111	-0.41062	9.59277	-2.3133	-0.658297	-0.0435279	0.0227405	-0.00463909	-0.901611	0.693848	0.0385742	
28	0.275963	-0.249482	-0.701525	-0.607838	6.87755	6.75216	-1.02252	0.00392026	0.0526732	-0.0308234	-0.88501	-0.360107	0.0751953	0.457802	-0.192749	-0.533893	-0.684269	7.51191	5.42516	3.44379	-0.0405688	0.0354569	-0.0257581	-0.751221	-0.286865	-0.383057	0.84837	0.375966	0.236731	-0.287881	-6.51636	5.03343	6.53334	0.0834087	0.0134671	0.0307667	0.809814	-0.281738	-0.473877	0.414889	0.657227	0.135113	-0.614545	-9.14293	3.6423	1.08593	0.021097	0.051228	-0.0188463	0.952637	-0.00805664	-0.378174	0.732584	0.537425	0.0844425	-0.409102	-5.44044	6.90905	4.04757	0.0013849	0.0303894	0.00288331	0.797607	-0.4021	-0.463623	0.988553	-0.0177977	0.0854335	-0.123073	-3.58036	-1.80018	12.6423	0.0488698	0.00419976	0.0072302	0.706299	0.181641	-0.692383	0.31757	-0.517456	-0.519567	-0.601198	9.31439	2.89917	-0.837365	-0.00174278	0.0151386	-0.0287277	-0.976562	0.0991211	0.181885	0.404909	-0.577405	-0.435293	-0.559618	9.79365	0.019614	-0.390278	-0.099056	0.0213961	-0.02386	-0.967041	0.4104	0.171875	0.420776	-0.548402	-0.457665	-0.559236	9.8694	0.600627	0.0961876	-0.144006	0.00193898	-0.0353077	-1.02441	0.355469	0.109131	0.488742	-0.591841	-0.462785	-0.443493	9.53537	-1.8705	-1.12027	-0.0143095	0.0204454	-0.00202044	-0.875488	0.568359	0.152588	0.549547	-0.568498	-0.453451	-0.411328	9.44391	-2.66101	-0.509768	0.0128356	0.0367484	-0.00255398	-0.901123	0.685059	0.0341797	
29	0.276259	-0.248876	-0.701268	-0.608248	6.56314	6.78206	-0.928846	-0.0138634	0.000493065	-0.0171707	-0.880371	-0.364258	0.0751953	0.457682	-0.192221	-0.533854	-0.684527	7.64728	5.49705	3.5195	0.000675814	0.0231827	-0.0460021	-0.74707	-0.282471	-0.380859	0.847675	0.377671	0.236337	-0.288023	-6.08904	5.29708	6.37475	0.0353723	0.0122038	-9.47921e-05	0.809814	-0.283936	-0.469238	0.413755	0.658297	0.13536	-0.614108	-8.86278	3.76365	0.910758	0.0725774	0.0454471	-0.0320253	0.950439	-0.0102539	-0.378174	0.732489	0.538047	0.0842696	-0.408489	-5.60314	7.23033	4.02561	0.0186931	0.0101535	0.00735765	0.799805	-0.404297	-0.463623	0.988669	-0.0178202	0.0851413	-0.122336	-3.49508	-1.70506	12.643	0.0278657	-0.000535061	0.0137646	0.710693	0.177246	-0.694336	0.318412	-0.516475	-0.519877	-0.601328	9.53194	2.84484	-0.5441	0.0385293	0.0603114	-0.0237884	-0.969971	0.0947266	0.184082	0.404237	-0.577838	-0.433946	-0.560702	9.75486	-0.412214	-0.509447	-0.0489104	0.0402595	-0.0132076	-0.978027	0.412598	0.169434	0.420291	-0.548781	-0.45728	-0.559544	9.90451	0.230914	-0.244634	0.209353	0.00908119	-0.0357272	-1.01733	0.35791	0.106934	0.489835	-0.590865	-0.463039	-0.443323	9.69896	-1.66075	-1.19631	0.053632	0.0342659	-0.000129951	-0.87085	0.566162	0.157227	0.549243	-0.5688	-0.452703	-0.412139	9.50156	-2.40466	-0.272342	-0.132243	0.0346482	-0.00345459	-0.901367	0.689453	0.0432129	
30	0.27558	-0.248628	-0.701478	-0.608415	6.5848	6.88257	-1.06694	-0.00390697	-0.0213918	-0.0260161	-0.883057	-0.357666	0.0751953	0.457945	-0.19178	-0.533187	-0.684995	7.50968	5.45675	3.51921	-0.0258532	0.0529452	-0.0137765	-0.753418	-0.29126	-0.382812	0.84791	0.378037	0.235834	-0.28726	-6.24854	5.37195	6.45886	0.029691	0.0122332	0.0260104	0.816162	-0.277344	-0.478516	0.414039	0.658423	0.135803	-0.613685	-9.09626	3.65815	0.82382	-0.0522432	0.0176148	0.0258429	0.956787	-0.00366211	-0.376221	0.731896	0.538963	0.0838116	-0.40844	-5.47701	7.14867	3.91564	0.0846059	0.0206128	-0.00892012	0.802246	-0.406494	-0.46582	0.988723	-0.0178686	0.0846564	-0.122234	-3.46045	-1.78897	12.6151	0.0157942	-0.00415695	-0.0252838	0.704346	0.175049	-0.696533	0.319995	-0.514558	-0.519826	-0.602174	9.44532	2.72475	-0.599117	0.0694466	0.147976	-0.0283248	-0.972168	0.0969238	0.179688	0.405436	-0.57656	-0.435005	-0.560331	9.83322	0.36749	-0.311245	0.0554226	0.0446007	-0.0270203	-0.97168	0.414795	0.162354	0.420771	-0.548408	-0.457941	-0.559009	9.90528	0.492891	-0.21817	-0.014083	0.00311905	-0.0191031	-1.01733	0.35791	0.109131	0.49042	-0.590271	-0.462665	-0.443858	9.58845	-1.93494	-1.10547	0.0410824	0.0485598	-0.0036184	-0.871094	0.568359	0.150391	0.549701	-0.568193	-0.453325	-0.411683	9.65108	-2.22786	-0.647266	0.0926382	-0.00903059	-0.016804	-0.901123	0.687256	0.0478516	
31	0.275152	-0.249139	-0.701922	-0.607887	6.96546	6.82959	-1.10891	0.0271083	-0.0189953	0.0100558	-0.882812	-0.359863	0.0751953	0.458445	-0.191398	-0.532781	-0.685084	7.58199	5.47262	3.5538	-0.00918025	0.0425319	-0.00661244	-0.74707	-0.284668	-0.385498	0.848316	0.377729	0.235312	-0.286897	-6.28275	5.30977	6.38642	-0.0100455	-0.0178306	0.0193504	0.812012	-0.286133	-0.476074	0.414425	0.658327	0.135325	-0.613633	-9.0816	3.8026	0.773278	0.00848454	-0.00981009	0.0202597	0.957031	-0.00585938	-0.375977	0.732392	0.538432	0.0837318	-0.408266	-5.50812	7.10879	3.92948	-0.0497471	-0.00443818	0.00121371	0.800049	-0.408691	-0.458984	0.988748	-0.0167713	0.0842417	-0.122473	-3.46198	-1.69158	12.7336	0.0519139	0.00908721	-0.0220108	0.70874	0.173096	-0.696533	0.322976	-0.511797	-0.519481	-0.603233	9.35396	2.6888	-0.721986	0.0946004	0.157158	-0.00743341	-0.971924	0.0927734	0.169189	0.405617	-0.575938	-0.434837	-0.56097	9.72208	-0.0979908	-0.376676	0.0411134	0.0497755	-0.0315537	-0.97998	0.412598	0.164795	0.421296	-0.547904	-0.458579	-0.558585	9.8411	0.264634	-0.278392	0.072056	0.00750636	-0.0286044	-1.01733	0.355713	0.109375	0.491167	-0.58929	-0.463459	-0.443506	9.48979	-1.64588	-1.03623	0.0732065	0.0162637	-0.0179792	-0.873047	0.566162	0.148193	0.549845	-0.567909	-0.453909	-0.411237	9.61961	-2.67689	-0.723724	0.0719891	-0.00321772	-0.01057	-0.89917	0.69165	0.0432129	
32	0.275481	-0.24877	-0.701973	-0.60783	6.79759	6.80543	-1.08708	0.00407296	0.0135098	-0.014043	-0.882812	-0.359863	0.0751953	0.459121	-0.19091	-0.532717	-0.684817	7.64441	5.66374	3.63513	0.0253528	0.0517573	-0.0121495	-0.746826	-0.289062	-0.385254	0.848943	0.376498	0.235661	-0.28637	-6.26935	5.32397	6.44258	-0.0559791	0.00133806	0.00488302	0.812012	-0.283936	-0.476074	0.415563	0.657652	0.135205	-0.613613	-9.19415	3.86501	1.16404	-0.046845	-0.0224553	0.0222655	0.948242	-0.00805664	-0.378174	0.732939	0.537839	0.0838801	-0.408036	-5.57052	7.18379	3.97972	-0.0470577	0.00222826	-0.00706456	0.802246	-0.406494	-0.461182	0.988753	-0.016842	0.083995	-0.122595	-3.55085	-1.78092	12.7258	0.00993286	-0.000250448	-0.0190929	0.706299	0.179443	-0.696533	0.326857	-0.508043	-0.519679	-0.604144	9.36806	2.8654	-0.308593	0.114688	0.195999	-0.0183243	-0.974365	0.0969238	0.164795	0.406898	-0.574708	-0.435589	-0.56072	9.71796	-0.0645524	-0.529781	0.0795488	0.0505332	-0.0248566	-0.975342	0.404053	0.160156	0.422193	-0.547075	-0.459465	-0.557991	9.89739	0.662081	-0.229198	0.0433408	0.0177518	-0.0261384	-1.02197	0.35791	0.106934	0.491396	-0.588837	-0.46387	-0.443424	9.59122	-1.84541	-1.29483	0.0173814	0.0295332	-0.00716483	-0.871094	0.568359	0.148193	0.550204	-0.567382	-0.454445	-0.410893	9.54869	-2.33229	-0.415584	0.0737091	-0.00218702	-0.0211589	-0.903564	0.689453	0.0410156	
33	0.27575	-0.248101	-0.70207	-0.607869	6.92292	6.74638	-1.02252	0.0231239	0.0425815	-0.0301463	-0.878662	-0.357666	0.0751953	0.459807	-0.19048	-0.532285	-0.684811	7.50704	5.66298	3.59647	-0.00560454	0.082021	0.00696652	-0.749023	-0.29126	-0.387451	0.849234	0.376278	0.235536	-0.285899	-6.53889	5.11242	6.46356	-0.0211717	-0.00187822	0.031609	0.807617	-0.283936	-0.473877	0.416179	0.657265	0.135426	-0.613561	-9.19825	3.95265	0.760601	-0.0235443	0.00434003	0.0140655	0.954834	-0.00805664	-0.380371	0.733452	0.537276	0.084306	-0.407769	-5.47483	7.12253	3.94552	-0.0360499	0.0110191	-0.00188985	0.802002	-0.404297	-0.461182	0.988748	-0.0170785	0.0840904	-0.12253	-3.43862	-1.87203	12.7013	-0.0150898	0.0188917	-0.0133652	0.702148	0.177246	-0.696533	0.32943	-0.505344	-0.519846	-0.604867	9.43776	2.78766	-0.71234	0.0904592	0.152922	-0.0214144	-0.972168	0.0991211	0.15625	0.407724	-0.573874	-0.436423	-0.560326	9.90466	-0.0837495	-0.474989	0.0182317	0.0344294	-0.019045	-0.973633	0.4104	0.157715	0.422508	-0.546751	-0.459536	-0.558011	9.83608	0.170942	-0.435315	0.0327742	0.0301378	-0.0215903	-1.01978	0.355713	0.104736	0.492174	-0.588105	-0.46421	-0.443178	9.62089	-1.74116	-1.22627	0.0893539	0.0415385	-0.00380941	-0.871094	0.572754	0.141113	0.550341	-0.566976	-0.455168	-0.410469	9.68471	-2.46518	-0.59847	0.0774556	-0.0105338	-0.0191605	-0.906006	0.69165	0.036377	
34	0.276663	-0.246924	-0.702361	-0.607598	6.68394	6.99175	-0.985022	0.0325149	0.0280235	-0.00414176	-0.884766	-0.364258	0.072998	0.460599	-0.19051	-0.531859	-0.684602	7.50946	5.27052	3.62666	0.00617742	0.0265646	0.00217287	-0.749268	-0.284668	-0.387695	0.849085	0.376781	0.235468	-0.285737	-6.00533	5.51015	6.42341	0.0457567	0.0174583	0.0123002	0.812012	-0.283936	-0.478271	0.416515	0.657004	0.135901	-0.613508	-9.13723	3.92361	0.850822	-0.0481003	0.00781791	-0.0082985	0.952637	-0.00585938	-0.373779	0.733636	0.537054	0.084603	-0.407669	-5.60258	7.08773	4.04508	-0.0325906	0.0207971	-0.0163573	0.795654	-0.404297	-0.463623	0.98883	-0.0176938	0.084143	-0.121747	-3.6278	-1.88114	12.8781	-0.019272	0.00591818	0.0159211	0.706299	0.179443	-0.69458	0.331129	-0.503659	-0.520064	-0.605157	9.35076	2.63932	-0.484444	0.126272	0.169459	-0.0209278	-0.974365	0.0993652	0.147705	0.40874	-0.572923	-0.43742	-0.559781	9.73428	-0.127416	-0.35225	0.145569	0.036835	-0.0322257	-0.973633	0.414795	0.153076	0.425751	-0.543925	-0.462271	-0.556046	9.71133	0.778118	-0.0209287	0.161102	0.0393671	-0.0263111	-1.01733	0.358154	0.0981445	0.492696	-0.587355	-0.464925	-0.442843	9.37238	-1.61715	-1.16116	0.0189899	0.00561045	-0.0237927	-0.868652	0.566162	0.13916	0.550688	-0.566397	-0.455747	-0.410161	9.47193	-2.5689	-0.58948	0.0244169	0.00857882	-0.0144657	-0.903564	0.687256	0.0341797	
35	0.277472	-0.246027	-0.702315	-0.607646	6.51665	6.75283	-0.906734	0.0191258	0.0348541	-0.0179904	-0.878174	-0.366455	0.0817871	0.462023	-0.189905	-0.532269	-0.683491	7.53191	5.65601	3.55452	0.0477059	0.0358901	0.032094	-0.742676	-0.286865	-0.390137	0.849309	0.375739	0.236345	-0.285721	-6.38521	5.31896	6.4218	-0.0449151	0.0177437	-0.0229453	0.807617	-0.277344	-0.476318	0.415866	0.657171	0.136089	-0.613728	-9.00353	3.93627	1.03793	-0.00712543	0.0109758	-0.0166084	0.957031	-0.00585938	-0.380371	0.734292	0.536428	0.0855224	-0.40712	-5.46905	7.40703	3.88442	-0.0939044	0.0247834	-0.00805774	0.797607	-0.4021	-0.458984	0.988872	-0.018607	0.0850687	-0.120619	-3.29115	-1.50763	12.5915	-0.0885992	0.0476423	0.0351794	0.70874	0.175049	-0.696533	0.334191	-0.50087	-0.521417	-0.604624	9.43039	2.88038	-0.557829	0.159431	0.128252	-0.0224008	-0.976562	0.097168	0.145752	0.410239	-0.57149	-0.438971	-0.558934	9.91814	0.297406	-0.251176	0.0299505	0.034941	-0.0276721	-0.984375	0.408203	0.155518	0.426717	-0.542874	-0.462892	-0.555815	9.94631	0.795542	-0.000227594	0.0288056	0.0300604	-0.0268188	-1.01978	0.355713	0.102539	0.493972	-0.585845	-0.466367	-0.441904	9.51088	-1.71149	-1.03493	0.125308	0.0267283	-0.0147897	-0.873291	0.568359	0.143555	0.551541	-0.565417	-0.45636	-0.409684	9.55005	-2.30243	-0.630343	0.0313963	0.0176325	-0.00963923	-0.9104	0.689453	0.036377	
36	0.277591	-0.246383	-0.702893	-0.606778	6.74929	6.84369	-0.947328	0.0325999	-0.0227144	0.0300251	-0.874023	-0.357666	0.0686035	0.462703	-0.190039	-0.531892	-0.683288	7.54031	5.4137	3.59477	-0.00743776	0.0229152	0.0186029	-0.744873	-0.284668	-0.390137	0.849312	0.37498	0.237547	-0.285711	-6.14197	5.19716	6.48806	-0.0972989	0.0259341	-0.0280185	0.80957	-0.275146	-0.47168	0.417372	0.65592	0.13735	-0.613762	-8.92684	3.51082	0.783327	-0.0478876	-0.0251714	-0.000469907	0.952637	-0.00585938	-0.375977	0.734139	0.536431	0.0859074	-0.40731	-5.3801	6.93459	4.13189	0.0585715	0.0259233	-0.025008	0.802002	-0.404297	-0.458984	0.988865	-0.0191178	0.0860823	-0.11988	-3.43021	-1.92416	12.6907	0.0373062	0.070213	-0.00513071	0.70874	0.175049	-0.696533	0.33747	-0.497785	-0.521782	-0.605035	9.29209	2.84924	-0.296975	0.109207	0.156692	-0.0101983	-0.979004	0.105713	0.132568	0.410803	-0.570656	-0.439622	-0.55886	9.75841	0.202607	-0.236335	0.07364	0.0299628	-0.0262313	-0.977783	0.410645	0.153076	0.427333	-0.542041	-0.46329	-0.555824	9.86573	0.528159	-0.0523344	0.0829882	0.0269487	-0.0314187	-1.02441	0.355713	0.0981445	0.494422	-0.58502	-0.467349	-0.441456	9.59443	-1.51786	-1.09234	0.0484922	0.0107751	-0.0188636	-0.866455	0.566162	0.141357	0.552395	-0.56443	-0.45703	-0.409148	9.53644	-2.41519	-0.540406	0.0812233	0.0122701	-0.00888172	-0.90332	0.685059	0.0297852	
37	0.277257	-0.246785	-0.702871	-0.606793	6.75486	6.84448	-1.09941	-0.022859	-0.0252925	-0.00965969	-0.880371	-0.366455	0.0773926	0.462992	-0.190021	-0.531882	-0.683105	7.69247	5.60484	3.54337	0.00857173	0.00785555	-0.0200894	-0.747314	-0.280273	-0.390381	0.849904	0.373164	0.238861	-0.28523	-6.41528	5.12533	6.09601	-0.0814152	0.00148854	-0.0166101	0.80957	-0.275146	-0.476318	0.417729	0.655186	0.137829	-0.614196	-8.81988	3.49041	1.07702	-0.0601145	0.000503742	-0.0219552	0.947998	-0.00585938	-0.380371	0.734481	0.535648	0.086665	-0.407564	-5.57496	6.96169	4.07513	-0.0556795	-0.00197788	-0.0442091	0.804199	-0.399902	-0.461182	0.988818	-0.0201482	0.0869549	-0.119466	-3.69879	-1.84436	12.4489	-0.0703323	0.0203497	0.00383111	0.715088	0.179443	-0.692383	0.34008	-0.495578	-0.522326	-0.604916	9.49579	2.96848	-0.278454	0.10069	0.099826	-0.00772214	-0.976562	0.0993652	0.12207	0.410983	-0.570328	-0.439931	-0.55882	9.82212	0.325427	-0.10498	0.022753	0.0217624	-0.0325122	-0.975586	0.408447	0.148438	0.426758	-0.542332	-0.462595	-0.556561	9.8163	0.415378	-0.0939633	-0.0345031	0.0112148	-0.0278642	-1.01978	0.355713	0.09375	0.494184	-0.585061	-0.4673	-0.441719	9.70619	-1.58842	-1.41906	-0.0279632	0.0124918	-0.00149013	-0.87085	0.566162	0.13916	0.552261	-0.564445	-0.456929	-0.409421	9.62426	-2.43753	-0.539639	-0.000344519	0.0131624	-0.0104885	-0.901123	0.687256	0.0319824	
38	0.277447	-0.246612	-0.702415	-0.607304	6.70368	6.79633	-1.01333	-0.020221	0.0263374	-0.00145986	-0.882568	-0.364258	0.0751953	0.463274	-0.189944	-0.5314	-0.68331	7.48463	5.45669	3.58241	-0.0150408	0.0244093	-0.0108839	-0.74707	-0.282471	-0.392578	0.849695	0.373428	0.239108	-0.285301	-6.63271	5.02287	6.29109	0.0534323	0.0190767	0.00172613	0.813965	-0.275146	-0.476318	0.417601	0.655105	0.137889	-0.614356	-8.97688	3.52997	0.929891	0.0178373	-0.00601232	-0.00516038	0.950439	-0.00805664	-0.380371	0.733937	0.536298	0.0867807	-0.407665	-5.49654	7.0239	4.01104	0.0331455	0.0291484	-0.021741	0.799561	-0.395508	-0.458984	0.988803	-0.0188414	0.0871779	-0.119639	-3.52029	-1.65319	12.5095	0.0564634	0.0316363	-0.0219621	0.708252	0.183838	-0.696777	0.343102	-0.492845	-0.521139	-0.606464	8.9982	2.90001	-0.43597	0.0277077	0.143331	-0.00208789	-0.976562	0.0993652	0.115723	0.409534	-0.571227	-0.4384	-0.560167	9.79752	0.278896	-0.138891	-0.136685	0.0276908	-0.0145467	-0.971191	0.408447	0.153076	0.424607	-0.543903	-0.461035	-0.557966	9.81072	0.920042	0.0831556	-0.242452	-0.0198928	-0.0231375	-1.01978	0.355713	0.106934	0.493562	-0.585492	-0.466813	-0.442359	9.44748	-1.65078	-1.12259	-0.0411981	0.00331311	-0.00281238	-0.871094	0.568359	0.141357	0.55184	-0.564758	-0.456466	-0.410073	9.53499	-2.44752	-0.545073	-0.0343949	0.0153964	-0.00727471	-0.906006	0.693848	0.0341797	
39	0.277026	-0.246316	-0.701734	-0.608404	6.75791	6.73777	-0.935299	-0.0510203	0.0199945	-0.0325882	-0.876221	-0.362061	0.0773926	0.463063	-0.189945	-0.530727	-0.683975	7.50864	5.61923	3.56077	-0.0532599	0.0205904	-0.0416114	-0.749268	-0.282471	-0.390137	0.849536	0.373783	0.238826	-0.285548	-6.09639	5.20176	6.42534	0.0213223	0.00888424	-0.00636931	0.814209	-0.281738	-0.473877	0.417252	0.655086	0.138147	-0.614555	-8.94679	3.63416	0.942076	-0.00145988	0.0178466	-0.0160763	0.952148	0.000732422	-0.378418	0.734084	0.53601	0.0869282	-0.407747	-5.58787	7.03713	3.96379	-0.0288395	0.00252825	-0.0220054	0.799561	-0.397705	-0.456787	0.988759	-0.0186917	0.0874189	-0.119852	-3.5568	-1.43156	12.4207	-0.00161153	0.0222584	-0.0331244	0.70874	0.175049	-0.690186	0.344673	-0.491585	-0.520487	-0.607156	9.43363	2.96126	-0.297981	0.0122267	0.123627	-0.00183432	-0.980957	0.101562	0.111572	0.407819	-0.572488	-0.436147	-0.561887	9.87453	-0.209291	-0.588475	-0.171672	0.0423759	0.000168793	-0.977539	0.403809	0.162598	0.421226	-0.546837	-0.457885	-0.56025	10.1309	-0.65718	-0.770402	-0.0297245	-0.00960033	-0.00701816	-1.02197	0.353271	0.104736	0.492929	-0.586052	-0.466017	-0.443162	9.74658	-1.71679	-1.11081	-0.0544755	0.0211785	0.0106507	-0.873047	0.563965	0.13916	0.551997	-0.564578	-0.456516	-0.410053	9.63009	-2.42314	-0.485375	0.020959	0.0150187	-0.00737577	-0.903564	0.687256	0.0319824	
40	0.276643	-0.246227	-0.701372	-0.609031	6.52831	6.81792	-0.90249	-0.0582644	8.00219e-05	-0.032984	-0.878418	-0.362061	0.0708008	0.462595	-0.189997	-0.530136	-0.684735	7.53716	5.53782	3.67509	-0.0821611	0.0241595	-0.0619146	-0.740479	-0.286865	-0.392334	0.849536	0.373783	0.238826	-0.285548	-6.09639	5.20176	6.42534	0.0213223	0.00888424	-0.00636931	0.814209	-0.281738	-0.473877	0.416121	0.655458	0.137615	-0.615045	-8.95038	3.28627	1.02403	0.0758246	-0.00161952	-0.0170432	0.95459	-0.00146484	-0.382812	0.733288	0.536513	0.0858968	-0.408736	-5.60818	7.23845	4.05072	0.0553481	-0.013137	-0.0295241	0.804199	-0.399902	-0.458984	0.988673	-0.0186936	0.086893	-0.120941	-3.61998	-2.17107	12.641	0.076308	-0.00969449	-0.0646531	0.706543	0.175049	-0.696533	0.345189	-0.490966	-0.518227	-0.609293	9.44128	2.54193	-0.107222	-0.0482274	0.115958	0.00505129	-0.980957	0.101562	0.10498	0.407963	-0.572459	-0.43623	-0.561747	9.75514	-0.310446	-0.540178	0.0220177	0.0142408	-0.00990054	-0.97583	0.4104	0.155518	0.423039	-0.545333	-0.459659	-0.558895	9.77899	0.769637	-0.0782191	0.0306167	0.0133016	-0.0179178	-1.01953	0.351074	0.102539	0.492878	-0.586314	-0.465285	-0.443641	9.60156	-1.64326	-1.3123	-0.0131485	0.0285668	0.00593391	-0.866455	0.566162	0.141357	0.55124	-0.565291	-0.456018	-0.410644	9.47234	-2.56287	-0.517075	-0.0505721	0.0010081	-0.00628668	-0.910156	0.682617	0.0366211	
41	0.275066	-0.246228	-0.700934	-0.610247	6.86845	6.72698	-0.93358	-0.0492132	-0.0202367	-0.055243	-0.882324	-0.37085	0.072998	0.462324	-0.18964	-0.529136	-0.68579	7.48491	5.33044	3.64992	-0.0302473	0.0422164	-0.031618	-0.742676	-0.284668	-0.390137	0.848805	0.375501	0.237901	-0.286237	-6.4	5.1309	6.33824	0.0604457	-0.00911177	-0.00333108	0.814209	-0.281738	-0.476074	0.415859	0.655843	0.13709	-0.614928	-9.07521	3.5851	1.09713	0.0531756	0.0161956	0.024111	0.954834	-0.00561523	-0.384766	0.733126	0.536648	0.0859852	-0.40883	-5.48258	6.96159	3.89382	0.0115092	0.0137958	-0.027783	0.797607	-0.4021	-0.46582	0.988654	-0.0174053	0.0866346	-0.121467	-3.50712	-1.68725	12.6266	0.111994	0.00741706	-0.0500259	0.706543	0.175049	-0.696533	0.346713	-0.489224	-0.517595	-0.610364	9.34869	2.73521	-0.25356	0.041637	0.102132	-0.0198461	-0.97876	0.097168	0.103027	0.408588	-0.571689	-0.437259	-0.561277	9.71525	0.41123	-0.29576	0.0603539	0.00885942	-0.023613	-0.977783	0.408447	0.155518	0.423232	-0.545204	-0.459663	-0.558872	9.82375	0.423168	-0.113887	0.0193937	0.0172427	-0.0150719	-1.02441	0.360107	0.104736	0.492769	-0.586434	-0.464998	-0.443905	9.49442	-1.6832	-1.06253	-0.0273989	0.0269755	0.00555076	-0.875	0.55957	0.145996	0.55124	-0.565293	-0.455908	-0.410764	9.58454	-2.22203	-0.664867	-0.0263519	0.0167627	-0.000285306	-0.90332	0.685059	0.0319824	
42	0.273875	-0.246358	-0.701166	-0.610464	6.71483	7.00101	-0.990361	-0.0179026	-0.0600671	-0.0196396	-0.875732	-0.368652	0.0751953	0.462264	-0.189853	-0.528971	-0.685899	7.55221	5.38848	3.73713	-0.00661191	0.0209371	-0.018834	-0.742676	-0.284668	-0.392578	0.848805	0.375501	0.237901	-0.286237	-6.4	5.1309	6.33824	0.0604457	-0.00911177	-0.00333108	0.814209	-0.281738	-0.476074	0.416257	0.655828	0.136673	-0.614768	-8.87589	3.92582	1.06602	0.015142	-0.0113137	0.016142	0.950439	-0.0102539	-0.380371	0.733334	0.536526	0.0856615	-0.408684	-5.67693	7.13437	3.84648	-0.00413484	-0.00476004	0.0072968	0.79541	-0.399902	-0.458984	0.988646	-0.017961	0.0863486	-0.121655	-3.67666	-1.56069	12.6207	-0.0221174	-0.00537771	-0.0195002	0.70874	0.177246	-0.694336	0.347213	-0.488688	-0.51753	-0.610566	9.46885	2.79661	0.035916	0.0373915	0.0668852	-0.0164871	-0.983398	0.105713	0.102783	0.407855	-0.572195	-0.436229	-0.562096	9.73744	-0.258078	-0.432371	-0.0373566	0.029397	-0.0203396	-0.977783	0.410645	0.150879	0.422953	-0.545414	-0.459209	-0.559251	9.8453	0.43228	-0.0974113	-0.0448858	0.0107043	-0.0194533	-1.02441	0.355713	0.104736	0.492983	-0.586091	-0.46516	-0.44395	9.67135	-1.70177	-1.31851	0.0268237	0.0275112	-0.0052028	-0.873291	0.568359	0.141357	0.55142	-0.565124	-0.455697	-0.410988	9.51979	-2.64466	-0.430548	0.0350857	0.0246164	-0.0048675	-0.905762	0.689453	0.0319824	
43	0.273264	-0.246418	-0.701284	-0.610578	6.58555	6.80111	-0.992209	0.00204363	-0.00713252	-0.0247362	-0.87793	-0.368652	0.0751953	0.462528	-0.190071	-0.528994	-0.685643	7.54595	5.54643	3.69928	-0.00380983	0.00412285	0.00508745	-0.745117	-0.280273	-0.390381	0.849521	0.374556	0.237068	-0.286042	-6.26411	5.29486	6.52763	-0.0155892	-0.020636	0.0076061	0.809814	-0.277344	-0.473877	0.418026	0.655101	0.136748	-0.614326	-9.1254	3.68812	0.955505	-0.0894781	-0.0103857	0.0545515	0.947998	-0.00366211	-0.382812	0.734266	0.53543	0.0851054	-0.408565	-5.3756	7.03853	3.97991	-0.024027	-0.0255919	0.0169764	0.797607	-0.4021	-0.463623	0.98863	-0.0200705	0.0861286	-0.121616	-3.39892	-1.82877	12.6151	-0.111912	-0.00598162	-0.024229	0.706299	0.181641	-0.692383	0.348344	-0.487357	-0.517312	-0.611169	9.48356	2.73425	-0.0915381	0.0297984	0.0758761	-0.0123757	-0.976562	0.0993652	0.107178	0.408399	-0.571797	-0.436443	-0.561939	9.83829	0.159531	-0.326538	-0.00663945	0.0396561	-0.0201081	-0.975342	0.404053	0.150879	0.423776	-0.54471	-0.459531	-0.559049	9.85219	0.706911	-0.0753944	0.0575592	0.0287279	-0.0162065	-1.02417	0.351074	0.0981445	0.493635	-0.585643	-0.465054	-0.443926	9.47251	-1.79167	-1.06859	0.0330423	0.0268394	0.00354949	-0.877686	0.566162	0.136719	0.551496	-0.565056	-0.455518	-0.411178	9.59845	-2.47931	-0.668191	-0.0146732	0.0181751	-0.00550402	-0.903564	0.687256	0.0388184	
44	0.272486	-0.246655	-0.702247	-0.609723	6.95801	6.89415	-0.989649	0.0525807	-0.0415905	-0.00179456	-0.873535	-0.37085	0.0795898	0.463232	-0.190288	-0.528718	-0.685321	7.50416	5.4586	3.63619	-0.00837531	0.0234829	0.0178923	-0.749512	-0.278076	-0.392822	0.850662	0.372693	0.236476	-0.285577	-6.17357	5.02769	6.47524	-0.0294166	-0.0335049	0.00483576	0.803223	-0.281494	-0.478271	0.419546	0.654384	0.136081	-0.614203	-9.1902	3.75034	0.798268	0.000200087	-0.0319309	0.0574297	0.950439	-0.0078125	-0.38916	0.734882	0.534548	0.0849938	-0.408636	-5.4083	7.12147	4.1463	-0.06934	-0.0100747	-0.016646	0.793213	-0.4021	-0.458984	0.988605	-0.0199417	0.0858686	-0.122023	-3.40274	-1.88668	12.8495	0.0262186	0.00836256	-0.0356456	0.706299	0.183838	-0.69458	0.349742	-0.485995	-0.516997	-0.611722	9.48099	2.76168	-0.136926	0.0453798	0.101657	-0.0125219	-0.981201	0.10376	0.0986328	0.408733	-0.571281	-0.436729	-0.561999	9.86143	0.102974	-0.216983	0.0432502	0.0307514	-0.0198908	-0.97583	0.412842	0.150879	0.424916	-0.543654	-0.460485	-0.558427	9.90008	0.498901	0.0409046	0.11039	0.016492	-0.0262999	-1.02197	0.353516	0.09375	0.49393	-0.585156	-0.46532	-0.443963	9.62686	-1.69189	-0.931506	0.0126044	0.0290591	-0.00523686	-0.871094	0.568359	0.138916	0.552205	-0.564257	-0.455696	-0.411127	9.62252	-2.34611	-0.494398	0.054043	0.0291002	-0.00832294	-0.907959	0.685059	0.0297852	
45	0.273119	-0.24654	-0.702574	-0.609109	6.54488	6.94986	-0.990118	0.0215508	-0.00287559	0.00857404	-0.878174	-0.368652	0.0795898	0.463588	-0.19072	-0.528935	-0.684792	7.55525	5.46245	3.6045	-0.000717964	0.00196698	0.00453598	-0.747314	-0.280273	-0.390381	0.850706	0.372445	0.236433	-0.285804	-6.40288	5.47069	6.32885	-0.00517292	-0.0124352	-0.0241794	0.812012	-0.279541	-0.478516	0.420191	0.653702	0.135595	-0.614595	-9.05167	3.83842	1.02826	0.0111374	-0.0318608	-0.00571255	0.950439	-0.0102539	-0.384766	0.734745	0.534621	0.0851679	-0.408751	-5.38062	6.88965	4.01686	0.00401217	0.01565	-0.0327551	0.802002	-0.399902	-0.463623	0.988461	-0.020267	0.0865563	-0.122643	-3.43906	-1.71582	12.7008	-0.0117292	0.0335826	-0.0341788	0.708252	0.186035	-0.696777	0.352021	-0.483838	-0.51627	-0.612737	9.43173	2.79787	0.105257	0.0355123	0.13804	-0.0017121	-0.97876	0.097168	0.090332	0.409434	-0.570513	-0.437076	-0.561999	9.83255	0.290031	-0.107356	0.0379878	0.0309447	-0.024169	-0.973389	0.40625	0.14624	0.424337	-0.544076	-0.45982	-0.559003	9.85278	0.280017	-0.227441	-0.0468374	0.00686343	-0.022703	-1.01978	0.35791	0.0981445	0.494649	-0.584337	-0.466035	-0.44349	9.66482	-1.617	-1.31712	0.0585389	0.00809797	-0.0090299	-0.873047	0.561768	0.134521	0.552437	-0.563916	-0.455798	-0.41117	9.53606	-2.53464	-0.341574	0.0279941	0.0110505	-0.00836135	-0.905518	0.682861	0.0297852	
46	0.273643	-0.246799	-0.702696	-0.608629	6.48331	6.89252	-0.955556	0.0186355	-0.00163846	0.0289548	-0.878174	-0.366455	0.0751953	0.463778	-0.191249	-0.528713	-0.684687	7.52173	5.46869	3.66635	-0.0147793	0.00880626	-0.00178552	-0.749512	-0.275879	-0.392822	0.850938	0.371499	0.236503	-0.286284	-6.29445	5.01855	6.4745	-0.027696	-0.0163414	-0.0270917	0.80542	-0.275146	-0.480957	0.420029	0.653136	0.135384	-0.615354	-8.95579	3.88931	0.952913	-0.0156186	-0.0345891	-0.0068803	0.945801	-0.00585938	-0.389404	0.734871	0.533477	0.0851119	-0.410027	-5.2698	6.87198	4.19274	-0.0114715	-0.0188183	-0.0517736	0.795166	-0.393311	-0.46582	0.988298	-0.0215089	0.0876753	-0.122955	-3.37254	-1.95752	12.69	-0.0312987	0.0584975	-0.0403319	0.712891	0.181641	-0.69458	0.354018	-0.481932	-0.514731	-0.614381	9.46125	2.82781	0.240341	0.0246277	0.167038	-0.000489225	-0.976807	0.10376	0.0837402	0.409573	-0.570271	-0.436856	-0.562314	9.77069	0.112398	-0.237279	0.0306984	0.0354678	-0.0174033	-0.973389	0.404053	0.15332	0.425126	-0.543362	-0.460563	-0.558487	9.85533	0.737798	-0.0977495	0.0526191	0.0134817	-0.0246321	-1.02197	0.353516	0.0981445	0.495127	-0.583813	-0.466042	-0.443641	9.43866	-1.5366	-1.13752	0.0008083	0.0240602	-0.00401742	-0.873047	0.561768	0.13916	0.552641	-0.563575	-0.456146	-0.410978	9.57049	-2.30526	-0.567035	0.00210584	0.007755	-0.00993859	-0.901123	0.685059	0.0319824	
47	0.273254	-0.247506	-0.70283	-0.608361	6.45466	7.0123	-1.05473	-0.00105876	-0.0681452	0.0213714	-0.878174	-0.368652	0.0773926	0.463932	-0.191255	-0.528304	-0.684897	7.62035	5.46946	3.73869	-0.0373271	0.0381008	-0.0121983	-0.747314	-0.278076	-0.39502	0.850938	0.371499	0.236503	-0.286284	-6.29445	5.01855	6.4745	-0.027696	-0.0163414	-0.0270917	0.80542	-0.275146	-0.480957	0.419556	0.6524	0.135319	-0.61647	-8.99921	3.55289	1.16483	0.0286158	-0.0361134	-0.0297514	0.950439	-0.0078125	-0.393555	0.733782	0.534105	0.0848027	-0.411222	-5.44713	7.1481	4.05284	0.0270905	-0.0158565	-0.0539564	0.797363	-0.397705	-0.475098	0.988093	-0.0211705	0.0888069	-0.123842	-3.5696	-2.04888	12.5076	0.0241895	0.0575528	-0.0553898	0.70874	0.177246	-0.692383	0.355101	-0.48092	-0.512093	-0.616749	9.46024	2.8257	0.110287	-0.0970789	0.149518	0.00925365	-0.981201	0.10376	0.072998	0.40952	-0.570203	-0.436954	-0.562346	9.92496	0.11183	-0.146589	-0.0329507	0.0283759	-0.0179791	-0.977783	0.410645	0.148438	0.42507	-0.543324	-0.460696	-0.558456	9.90526	0.305743	-0.0947225	0.0126538	-0.00145202	-0.0240912	-1.02197	0.355713	0.09375	0.49435	-0.584511	-0.465632	-0.444017	9.57978	-1.80209	-0.979142	-0.0330552	0.00567751	0.0126667	-0.866455	0.563965	0.129883	0.552379	-0.563754	-0.455956	-0.411294	9.52577	-2.58328	-0.554526	-0.0338721	0.0138222	-0.0117964	-0.907959	0.687256	0.0297852	
48	0.272861	-0.249296	-0.702267	-0.608456	6.67933	6.75053	-1.03067	-0.0190609	-0.02437	0.0288967	-0.878174	-0.366455	0.0751953	0.464885	-0.19069	-0.527391	-0.685112	7.71448	5.35963	3.71001	0.0209572	0.0435544	-0.021413	-0.745117	-0.278076	-0.390381	0.850645	0.370814	0.237319	-0.287368	-6.23975	5.20356	6.43488	-0.00951764	0.00564585	-0.0411725	0.80542	-0.275146	-0.480957	0.41976	0.651944	0.135586	-0.616755	-8.88603	3.65486	1.0698	-0.0114505	-0.00524664	-0.0209122	0.947998	-0.00585938	-0.386963	0.73318	0.534239	0.0850669	-0.412067	-5.72872	6.85995	4.05595	0.0433786	-0.00298676	-0.0565865	0.801514	-0.391113	-0.46582	0.987967	-0.0202899	0.0896707	-0.124374	-3.74501	-1.72654	12.5023	0.0237207	0.0517017	-0.0280107	0.712646	0.188232	-0.686279	0.356229	-0.480116	-0.5101	-0.618375	9.60385	2.80942	0.215776	-0.00334837	0.0927211	0.0063202	-0.979248	0.108154	0.0708008	0.409665	-0.570091	-0.437014	-0.562307	9.80956	0.278705	-0.174765	0.0301863	0.00981986	-0.0174896	-0.979736	0.401855	0.150879	0.424621	-0.543703	-0.460777	-0.558362	9.81836	0.621403	-0.130804	-0.0584374	-0.0179009	-0.0227035	-1.01953	0.353516	0.0959473	0.494419	-0.584338	-0.465805	-0.443986	9.66381	-1.53744	-1.1206	0.00417031	0.00546068	-0.0129688	-0.873047	0.561768	0.136963	0.551972	-0.564099	-0.455546	-0.411821	9.53457	-2.31655	-0.409232	-0.047325	0.0103266	-0.00662422	-0.905762	0.685059	0.0297852	
49	0.272999	-0.249672	-0.702193	-0.608325	6.7016	6.80477	-1.0211	-0.000946084	-0.015248	0.0296745	-0.880615	-0.362061	0.081543	0.465583	-0.190265	-0.526417	-0.685505	7.48221	5.39823	3.76972	-0.0522171	0.108611	0.00127008	-0.74292	-0.278076	-0.397461	0.850277	0.370933	0.237351	-0.288273	-6.26597	4.88735	6.68474	0.0285451	-0.0332519	-0.0109703	0.80957	-0.272949	-0.480957	0.419648	0.651751	0.135383	-0.61708	-8.90849	3.69545	1.07335	-0.0104858	-0.00698549	0.0126354	0.947998	-0.00585938	-0.391602	0.732948	0.534224	0.0849223	-0.412529	-5.54593	7.00367	3.94559	-0.0271763	0.000466707	-0.0248645	0.788818	-0.397705	-0.470459	0.987914	-0.020061	0.0900188	-0.124577	-3.6	-1.83168	12.2779	0.0211944	0.0441098	-0.0314059	0.714844	0.186035	-0.69043	0.357793	-0.478718	-0.508014	-0.62027	9.27278	2.83008	0.517915	-0.0119633	0.128055	0.011465	-0.979248	0.105957	0.0603027	0.409143	-0.570404	-0.436437	-0.562818	9.71346	0.109828	-0.343582	-0.0256662	0.0134852	-0.0160816	-0.975586	0.40625	0.14624	0.424307	-0.543971	-0.460662	-0.558435	9.9118	0.532027	-0.259231	-0.0256752	-0.0112398	-0.0214589	-1.02661	0.353271	0.102539	0.494374	-0.584359	-0.465654	-0.444168	9.61273	-1.45926	-0.989793	-0.0125103	0.0236744	0.00143946	-0.87085	0.566162	0.136719	0.552263	-0.563741	-0.456021	-0.411395	9.59997	-2.23548	-0.498124	0.0299823	-0.00360792	-0.00588062	-0.907959	0.685059	0.0319824	
50	0.272878	-0.250639	-0.701934	-0.608282	6.76217	6.72908	-1.04456	-0.019051	-0.0316037	0.0216872	-0.875977	-0.364258	0.081543	0.465775	-0.189975	-0.526212	-0.685612	7.67783	5.34526	3.80824	0.0345489	0.0124186	-0.0276902	-0.740967	-0.273682	-0.395264	0.850294	0.370376	0.238004	-0.288402	-6.3658	5.1751	6.27427	-0.0869336	-0.00758844	-0.0216687	0.80542	-0.275146	-0.478516	0.419648	0.651751	0.135383	-0.61708	-8.90849	3.69545	1.07335	-0.0104858	-0.00698549	0.0126354	0.947998	-0.00585938	-0.391602	0.732658	0.534406	0.0847371	-0.412846	-5.68122	6.86709	4.07007	0.0293732	-0.00771295	-0.033081	0.790771	-0.393311	-0.470459	0.987874	-0.0199193	0.0900884	-0.124869	-3.7351	-1.82265	12.612	0.0199236	0.0177152	-0.0276523	0.712646	0.183838	-0.686035	0.357401	-0.479021	-0.507564	-0.62063	9.54793	2.64205	0.25638	-0.04668	0.00540968	-0.0163571	-0.977051	0.105957	0.0625	0.409172	-0.57042	-0.436747	-0.56254	9.7532	0.17589	-0.206547	0.0282051	-0.00641449	-0.0196444	-0.977783	0.40625	0.148438	0.424077	-0.543808	-0.460815	-0.558642	9.83413	0.580809	-0.172573	0.000449801	0.00421326	-0.0247751	-1.01953	0.353516	0.0981445	0.493611	-0.585009	-0.46529	-0.444543	9.63289	-1.78551	-1.25123	-0.0193636	0.0107652	-0.00371969	-0.873047	0.561768	0.136963	0.551738	-0.564251	-0.45574	-0.411712	9.56737	-2.4743	-0.517858	-0.00456041	0.00303219	-0.00487684	-0.910156	0.682617	0.0366211	
51	0.272907	-0.250312	-0.701798	-0.60856	6.71471	6.69663	-1.03672	-0.00362969	0.0141529	-0.0201106	-0.878418	-0.362061	0.0773926	0.466063	-0.189794	-0.526181	-0.68549	7.36156	5.47763	3.71165	0.0003014	0.0132666	-0.0045264	-0.74292	-0.280273	-0.39502	0.85061	0.370137	0.237778	-0.287964	-6.22884	5.1331	6.4287	0.0366803	0.00331452	0.0217365	0.813965	-0.272949	-0.480957	0.420163	0.651269	0.13532	-0.617252	-8.88545	3.58595	1.15405	-0.0232523	-0.00722864	0.0279679	0.952393	-0.00341797	-0.395996	0.7328	0.534311	0.0847312	-0.412719	-5.56061	7.12446	3.89528	-0.0305266	0.021444	-0.00584798	0.797119	-0.391113	-0.470459	0.987844	-0.0197506	0.0901163	-0.125115	-3.54646	-1.96032	12.4433	0.00118895	0.0082438	-0.01609	0.708496	0.181641	-0.690186	0.357606	-0.478828	-0.506612	-0.621439	9.31524	2.79111	0.211878	0.0126923	-0.018277	-0.00406076	-0.981201	0.105957	0.0603027	0.408798	-0.570789	-0.436417	-0.562694	9.79156	0.0072215	-0.305614	-0.0370982	0.0192116	-0.0162851	-0.977783	0.40625	0.155518	0.423727	-0.544087	-0.460619	-0.558797	9.87071	0.322746	-0.183095	0.0729005	0.00293878	-0.0243446	-1.02417	0.353271	0.102539	0.493459	-0.585202	-0.465252	-0.444498	9.5651	-1.51013	-1.07302	-0.0144226	-0.00234587	0.00522759	-0.868408	0.561768	0.13916	0.551626	-0.564378	-0.455576	-0.411869	9.55472	-2.27248	-0.444552	-0.0633883	0.00920984	-0.000658673	-0.905762	0.685059	0.0297852	
52	0.2731	-0.249481	-0.702222	-0.608326	6.81682	6.71656	-1.01868	0.0427371	0.0338453	-0.0211022	-0.876221	-0.359863	0.081543	0.466108	-0.189782	-0.526725	-0.685045	7.49504	5.38735	3.60756	0.0190095	0.0204336	-0.0113197	-0.74292	-0.275879	-0.397461	0.851035	0.369492	0.23775	-0.287558	-6.19747	5.3372	6.40848	-0.0557634	-0.00987466	0.0196208	0.80957	-0.270752	-0.480957	0.4211	0.651029	0.135444	-0.61684	-8.92767	3.69953	1.12521	-0.0325954	0.00469696	0.026242	0.943604	-0.00366211	-0.387207	0.7328	0.534311	0.0847312	-0.412719	-5.56061	7.12446	3.89528	-0.0305266	0.021444	-0.00584798	0.797119	-0.391113	-0.470459	0.987928	-0.0189705	0.0894981	-0.125017	-3.59615	-1.83322	12.4668	0.0482706	-0.00571332	-0.0187034	0.704102	0.186035	-0.688232	0.357539	-0.479108	-0.506436	-0.621405	9.36204	2.75502	0.334811	-0.00161118	-0.00972908	-0.00913771	-0.981201	0.105957	0.0625	0.408776	-0.571072	-0.436638	-0.562251	9.8204	0.205112	-0.222413	0.0225082	-0.00258718	-0.00615792	-0.97998	0.410645	0.150879	0.423139	-0.544626	-0.459943	-0.559274	9.91125	0.459555	-0.212578	-0.0638653	0.00802624	-0.0118783	-1.01953	0.353516	0.09375	0.493072	-0.585698	-0.464958	-0.444581	9.54122	-1.78513	-0.988644	0.00469848	0.00671774	0.0100725	-0.87085	0.561768	0.141357	0.551661	-0.564442	-0.455458	-0.411866	9.58175	-2.32872	-0.573598	0.0395647	0.00935465	-0.000979416	-0.910156	0.682617	0.0319824	
53	0.273102	-0.248943	-0.702911	-0.607749	6.62171	6.91475	-1.08276	0.0345365	-0.0341184	-0.0175995	-0.875977	-0.366455	0.0817871	0.466194	-0.189863	-0.52713	-0.684652	7.62989	5.32574	3.67214	0.0164468	-0.000208188	-0.0166163	-0.74292	-0.275879	-0.392822	0.851557	0.369256	0.237119	-0.286839	-6.2737	5.31141	6.48889	-0.0103227	-0.0110671	0.0169935	0.807373	-0.270752	-0.480957	0.422279	0.650723	0.135272	-0.616394	-8.96395	3.85035	1.27615	-0.0847001	-0.00289815	0.0463203	0.945801	-0.00366211	-0.389404	0.733229	0.534016	0.0847554	-0.412334	-5.4854	6.9456	4.05804	-0.013553	0.00454721	0.0067367	0.801758	-0.395508	-0.472656	0.987974	-0.0204189	0.08903	-0.124755	-3.73135	-1.83888	12.6735	-0.0441773	-0.0170112	-0.0100481	0.710449	0.186035	-0.69043	0.357177	-0.479774	-0.506921	-0.620703	9.60572	2.63569	0.217719	0.0483132	-0.0318059	-0.0155806	-0.983398	0.10376	0.0625	0.408533	-0.571321	-0.436731	-0.562102	9.80219	0.0941564	-0.2226	-0.0217508	0.00954534	-0.0180974	-0.975342	0.404053	0.148682	0.423601	-0.544291	-0.460427	-0.558853	9.87058	0.525812	-0.055716	0.0606978	-0.00144286	-0.0193039	-1.02661	0.355713	0.102539	0.492881	-0.585852	-0.464963	-0.444585	9.75285	-1.57098	-1.21815	-0.00740721	0.0122063	0.0040806	-0.872803	0.555176	0.139404	0.551539	-0.564663	-0.455473	-0.411709	9.62621	-2.5702	-0.426852	0.0427621	-0.00427527	0.00186513	-0.907715	0.682617	0.0319824	
54	0.273495	-0.24813	-0.703258	-0.607503	6.66116	6.74659	-0.999073	0.0316714	0.0333774	-0.0268272	-0.874023	-0.362061	0.081543	0.466516	-0.189747	-0.527518	-0.684166	7.48791	5.5127	3.74395	0.0109018	-0.00406223	-0.00434954	-0.745117	-0.275879	-0.397461	0.852165	0.368635	0.237105	-0.28584	-6.29406	4.99375	6.56765	-0.0358883	0.00301895	0.0325178	0.80957	-0.275146	-0.483154	0.422801	0.650722	0.134594	-0.616186	-9.0063	3.86222	1.13949	0.014618	-0.00272481	0.0395582	0.950439	-0.0100098	-0.395752	0.733725	0.533847	0.0846667	-0.411686	-5.5008	7.01975	4.09132	-0.0113927	0.00726087	0.0144693	0.797363	-0.397705	-0.470459	0.988009	-0.0201684	0.0885697	-0.124849	-3.3658	-1.79987	12.599	-0.0128135	-0.00458667	-0.0155801	0.710449	0.183838	-0.696777	0.357097	-0.480022	-0.507558	-0.620037	9.39006	2.72525	0.296801	0.0470332	-0.0564051	-0.016007	-0.979492	0.112305	0.0686035	0.408924	-0.571164	-0.437184	-0.561625	9.87017	0.277848	-0.186472	0.0326805	0.00830155	-0.0108605	-0.968994	0.404053	0.150879	0.423194	-0.544814	-0.460168	-0.558866	9.90484	0.391233	-0.135941	-0.0213423	-0.0111385	-0.0152153	-1.02197	0.355713	0.0981445	0.493017	-0.585858	-0.465127	-0.444255	9.57034	-1.62743	-1.03295	0.0265648	-0.00553838	0.0132729	-0.875244	0.563965	0.141357	0.551468	-0.564834	-0.455663	-0.411359	9.55163	-2.51523	-0.565945	-0.012541	-0.00975763	0.00217853	-0.905762	0.685059	0.0251465	
55	0.273426	-0.247699	-0.703824	-0.607054	7.02102	6.9549	-1.08342	0.0222971	0.00126541	-0.00920201	-0.880371	-0.368652	0.0837402	0.466801	-0.189564	-0.527484	-0.684048	7.41034	5.40115	3.49038	-0.0069667	0.0419831	-0.0120769	-0.740723	-0.278076	-0.397461	0.85237	0.368557	0.23689	-0.285507	-6.2422	5.42419	6.40573	-0.00565378	-0.00727417	0.0263611	0.80957	-0.272949	-0.485352	0.42429	0.650339	0.135281	-0.615415	-9.02717	3.71524	1.04266	-0.0424841	0.0245161	0.0250099	0.948242	-0.0102539	-0.38916	0.733971	0.533603	0.0845535	-0.411589	-5.60712	7.0106	4.07847	-0.0233507	-0.00411962	0.00303307	0.794922	-0.391113	-0.470459	0.988096	-0.020101	0.0881216	-0.124484	-3.55179	-2.04785	12.626	0.0594987	-0.0013165	-0.0113335	0.712891	0.181641	-0.69458	0.356481	-0.480589	-0.507212	-0.620235	9.43877	2.86553	0.411817	-0.0548874	0.00644256	-0.00883468	-0.981689	0.114502	0.0664062	0.408667	-0.571537	-0.437265	-0.561369	9.88585	0.274757	-0.311365	0.00809077	-0.0120582	-0.0100798	-0.980225	0.412598	0.150879	0.423065	-0.545016	-0.460225	-0.558718	9.896	0.526039	-0.149452	-0.00426243	-0.00512148	-0.0179037	-1.02173	0.348877	0.100342	0.492899	-0.58604	-0.465128	-0.444143	9.60478	-1.70501	-1.17471	-0.0131015	0.0154613	0.0137074	-0.873047	0.563965	0.145996	0.551858	-0.564472	-0.455959	-0.411006	9.51455	-2.62824	-0.515035	0.0575326	0.00355512	-0.00212434	-0.901123	0.685059	0.0297852	
56	0.274367	-0.246464	-0.703526	-0.607478	6.92032	6.81236	-1.03706	0.00767589	0.124614	-0.0296915	-0.875977	-0.368652	0.0795898	0.466856	-0.189731	-0.527531	-0.683929	7.40342	5.40496	3.58265	-0.00612575	0.0029889	-0.0051734	-0.740723	-0.278076	-0.392822	0.852825	0.367761	0.237365	-0.28478	-6.25931	5.03702	6.44436	-0.0428942	0.0153322	0.0128742	0.80957	-0.272949	-0.478516	0.423648	0.650858	0.134817	-0.615411	-8.95913	3.73631	0.93347	0.0758132	0.0223339	-0.000600919	0.946289	-0.012207	-0.393555	0.734694	0.53318	0.0848185	-0.410792	-5.71446	7.11301	4.06315	-0.0546851	-0.0140291	0.014073	0.797363	-0.395508	-0.468018	0.988129	-0.0200973	0.0881003	-0.124241	-3.32927	-1.68655	12.655	0.00283726	0.0115172	0.00233376	0.710449	0.186035	-0.686035	0.356033	-0.48138	-0.505061	-0.621632	9.57302	2.51643	0.233005	-0.0211067	0.074032	0.00378528	-0.979248	0.105957	0.0710449	0.408451	-0.571773	-0.436995	-0.561497	9.86137	0.147528	-0.180538	-0.030503	0.0126434	-0.010081	-0.977783	0.408447	0.148438	0.422336	-0.545739	-0.459901	-0.558831	9.85336	0.355775	-0.213727	-0.0269392	-0.0191006	-0.0198428	-1.01978	0.35791	0.0959473	0.492805	-0.586332	-0.464997	-0.444	9.5181	-1.61539	-1.07782	-0.0118536	-0.00357561	0.0215229	-0.875244	0.563965	0.141357	0.551095	-0.565303	-0.455667	-0.411211	9.57418	-2.43365	-0.515644	-0.0838198	-0.010123	0.00271209	-0.90332	0.682861	0.0344238	
57	0.275045	-0.245752	-0.703628	-0.607342	6.54041	6.97605	-0.973853	0.0255319	-0.0147909	0.0167869	-0.880371	-0.366455	0.0795898	0.467019	-0.18981	-0.528052	-0.683393	7.60728	5.40501	3.71102	0.0157237	0.00802195	-0.00574068	-0.745361	-0.271729	-0.397705	0.852862	0.368066	0.236781	-0.284761	-6.30573	5.2501	6.63782	0.0201146	-0.0153876	0.00939665	0.80542	-0.272949	-0.483154	0.42419	0.650892	0.134473	-0.615077	-9.00417	3.79134	0.882026	0.0413634	-0.0288692	0.0421029	0.950439	-0.0100098	-0.395752	0.735079	0.53271	0.084627	-0.410752	-5.32184	6.85231	4.24393	-0.0394391	-0.0198996	0.00605836	0.797363	-0.393311	-0.470459	0.988174	-0.021358	0.088287	-0.12354	-3.59989	-1.84439	12.6146	-0.042621	0.0125576	-0.0118203	0.7146	0.188232	-0.692627	0.355795	-0.48171	-0.504914	-0.621633	9.39635	2.72806	0.421719	0.0109246	-0.033373	-0.0168395	-0.979248	0.110352	0.0686035	0.408687	-0.571532	-0.437751	-0.560982	9.76548	0.300327	-0.476959	0.0337581	-0.00850779	-0.00811097	-0.975586	0.408203	0.160156	0.422393	-0.545681	-0.460192	-0.558605	9.875	0.422823	-0.271065	0.0296097	-0.0102758	-0.0249075	-1.01709	0.351074	0.107178	0.491953	-0.586897	-0.46541	-0.443765	9.66417	-1.70202	-1.35258	-0.0152878	-0.0422328	-0.0113072	-0.875244	0.563965	0.141357	0.551334	-0.565124	-0.45585	-0.410934	9.65706	-2.36096	-0.49397	0.0167712	0.00367347	-0.00114092	-0.901123	0.682861	0.0344238	
58	0.274599	-0.246399	-0.703705	-0.607192	6.79569	6.80054	-1.07774	-0.0115345	-0.0429485	-0.0122604	-0.875977	-0.366455	0.0795898	0.467301	-0.189678	-0.528568	-0.682838	7.54855	5.47449	3.73973	0.0184654	0.00245949	-0.0158652	-0.747314	-0.275879	-0.392822	0.852975	0.3676	0.237017	-0.284826	-6.11634	5.10048	6.6156	-0.0328002	0.00486221	-0.0228137	0.807373	-0.275146	-0.487793	0.42465	0.650412	0.134086	-0.615352	-8.87593	3.83079	1.33935	-0.0155191	-0.0506026	0.029554	0.943848	-0.0102539	-0.393555	0.735079	0.53271	0.084627	-0.410752	-5.32184	6.85231	4.24393	-0.0394391	-0.0198996	0.00605836	0.797363	-0.393311	-0.470459	0.988117	-0.0210245	0.0879317	-0.124299	-3.58565	-1.86056	12.624	0.0302023	-0.007715	-0.0420913	0.706299	0.181641	-0.683838	0.355084	-0.482303	-0.505017	-0.621496	9.56571	2.80821	0.223523	-0.0194515	-0.0559822	-0.0280821	-0.977051	0.108154	0.0688477	0.408542	-0.571714	-0.437677	-0.560959	9.80927	0.295528	-0.345277	-0.00971542	0.00501537	-0.0126206	-0.977783	0.40625	0.150879	0.422065	-0.545959	-0.459785	-0.558917	9.81519	0.384754	-0.221174	-0.0262988	0.00911689	-0.0186413	-1.01929	0.346436	0.107178	0.492318	-0.586763	-0.465787	-0.443143	9.54106	-1.85915	-1.01331	0.0398422	0.010779	0.0147278	-0.868652	0.563965	0.148193	0.551236	-0.565261	-0.456095	-0.410606	9.53849	-2.64245	-0.554232	0.0531659	-0.0116742	-0.00465021	-0.90332	0.685059	0.0341797	
59	0.274369	-0.245877	-0.703707	-0.607506	6.73492	6.69708	-1.0456	-0.00349442	0.0176247	-0.024258	-0.873779	-0.364258	0.0751953	0.467289	-0.189657	-0.529093	-0.682445	7.47499	5.3238	3.63873	0.0234858	-0.00256732	-0.0112114	-0.74292	-0.278076	-0.397461	0.852975	0.3676	0.237017	-0.284826	-6.11634	5.10048	6.6156	-0.0328002	0.00486221	-0.0228137	0.807373	-0.275146	-0.487793	0.425258	0.650223	0.133953	-0.615161	-8.97696	3.6579	0.999181	0.0253846	0.00975342	0.0205215	0.945801	-0.00585938	-0.391602	0.734861	0.532879	0.0846722	-0.410913	-5.5283	7.07618	4.06361	0.00578456	0.00361836	-0.0103348	0.795166	-0.393311	-0.470459	0.98811	-0.0208377	0.0878245	-0.124462	-3.59782	-1.89578	12.5027	-0.0439682	0.00964656	-0.0169453	0.710205	0.19043	-0.697021	0.354351	-0.483031	-0.50527	-0.621143	9.42946	2.74202	0.195699	0.0291344	-0.0355848	-0.0169076	-0.979248	0.108154	0.072998	0.408669	-0.571722	-0.438334	-0.560346	9.82009	0.00446705	-0.233143	0.0696005	-0.0147052	-0.0183738	-0.973389	0.408447	0.153076	0.422464	-0.545707	-0.460081	-0.558617	9.81543	0.569387	-0.0667152	-0.000194609	0.00270753	-0.0161599	-1.01733	0.35791	0.102539	0.492523	-0.586538	-0.466189	-0.442788	9.51711	-1.29541	-1.33261	0.00539576	0.00606318	-0.00178933	-0.873047	0.566162	0.143555	0.551245	-0.565265	-0.456417	-0.41023	9.6092	-2.32078	-0.610519	-0.0312098	-0.00503695	-0.0014426	-0.901123	0.685059	0.0366211	
60	0.274364	-0.245009	-0.703928	-0.607602	6.73491	6.84956	-0.997866	0.00896781	0.0342878	-0.0374829	-0.873535	-0.370605	0.0773926	0.466983	-0.189535	-0.529877	-0.68208	7.53955	5.52313	3.61455	0.0163153	-0.0149253	-0.0335814	-0.749512	-0.275879	-0.390381	0.853469	0.367251	0.236309	-0.284386	-6.25575	5.03078	6.41741	-0.0061858	-0.0121635	0.012677	0.80957	-0.270752	-0.487793	0.425193	0.650341	0.133137	-0.615258	-8.80355	3.71283	1.24386	0.0210939	-0.00205125	0.0185578	0.952881	-0.0144043	-0.397949	0.735575	0.532076	0.0848753	-0.410634	-5.47182	6.93037	4.16092	-0.0438907	0.000414717	0.00607607	0.793213	-0.399902	-0.472656	0.988129	-0.0201199	0.0874036	-0.124725	-3.51039	-1.67747	12.5107	0.0476936	-0.0042436	-0.0286769	0.708496	0.183838	-0.69043	0.353032	-0.4843	-0.506071	-0.620253	9.45574	2.85394	0.348411	-0.0156429	-0.0886829	-0.0308678	-0.977295	0.112305	0.0793457	0.408688	-0.572039	-0.438298	-0.560036	9.76651	0.380621	-0.225588	-0.0297951	0.00300666	-0.000571329	-0.975586	0.408447	0.153076	0.42228	-0.545994	-0.459758	-0.558742	9.8818	0.527703	-0.278153	0.0064104	0.00322444	-0.0137658	-1.01978	0.355713	0.109375	0.491828	-0.587343	-0.465703	-0.443005	9.59126	-1.88018	-1.10245	-0.0391565	0.00579664	0.0141645	-0.873047	0.566162	0.145996	0.55137	-0.565195	-0.456442	-0.41013	9.58216	-2.33346	-0.547623	0.0147446	0.00860967	-0.000665219	-0.901123	0.685059	0.043457	
61	0.273788	-0.244038	-0.704055	-0.608106	6.54539	6.89746	-0.957894	-0.00414291	-0.00685665	-0.0525862	-0.873535	-0.372803	0.0773926	0.46653	-0.189661	-0.530523	-0.681854	7.4594	5.44123	3.49706	0.0250265	-0.0398211	-0.0400741	-0.747314	-0.278076	-0.39502	0.85453	0.365724	0.235985	-0.283436	-6.27324	4.85949	6.41159	-0.00504914	-0.0357833	0.0278106	0.80542	-0.272949	-0.483154	0.425236	0.650073	0.133313	-0.615474	-8.87013	3.51865	1.21544	-0.0217201	-0.00150887	-0.022229	0.948486	-0.012207	-0.391357	0.735563	0.532169	0.0844027	-0.410634	-5.44395	7.03043	4.16571	-0.0234435	-0.00931605	-0.0111196	0.791016	-0.397705	-0.470459	0.988163	-0.0195963	0.0870018	-0.124824	-3.58187	-1.961	12.4951	0.0536073	0.00168843	-0.0192996	0.708252	0.186035	-0.692627	0.351239	-0.486103	-0.505937	-0.61997	9.49826	2.67913	0.0505891	-0.0287785	-0.0513361	-0.0139072	-0.977051	0.108154	0.081543	0.408183	-0.57277	-0.438091	-0.55982	9.82272	0.0586436	-0.400464	-0.00638271	-0.00844815	-0.00976256	-0.97998	0.4104	0.155518	0.422009	-0.546371	-0.459306	-0.55895	9.88517	0.392053	-0.155061	-0.0445819	0.00294142	-0.0124369	-1.01733	0.355713	0.106934	0.492015	-0.587411	-0.465877	-0.442524	9.59402	-1.51147	-1.17702	0.0337292	-0.00201525	0.0105807	-0.87085	0.566162	0.148193	0.551384	-0.565321	-0.456402	-0.409982	9.62057	-2.50299	-0.483015	0.0329076	-0.000665877	0.000540753	-0.90332	0.685059	0.0366211	
62	0.272431	-0.243275	-0.704095	-0.608974	6.48795	6.83332	-1.08966	-0.0245031	-0.0198857	-0.071063	-0.875244	-0.379395	0.0773926	0.464314	-0.190758	-0.532017	-0.681896	7.65807	5.55944	3.47999	0.0117657	-0.0717702	-0.061199	-0.749268	-0.282471	-0.390137	0.853728	0.368442	0.234682	-0.283415	-6.4077	5.13701	6.44488	0.105389	0.00189607	0.0553442	0.801025	-0.2771	-0.48999	0.424867	0.650868	0.132933	-0.61497	-8.89492	3.6837	1.19319	0.00509405	0.037423	0.0186775	0.946045	-0.0078125	-0.395752	0.735261	0.532649	0.0836451	-0.410706	-5.48149	6.90129	4.2462	0.0443979	-0.00490064	0.000109959	0.793457	-0.404297	-0.463623	0.988211	-0.0184544	0.0860678	-0.125266	-3.67348	-1.61469	12.5643	0.0172215	-0.0244868	-0.0411073	0.706299	0.183838	-0.692383	0.349889	-0.48727	-0.50524	-0.620385	9.45326	2.8286	0.250524	-0.0300163	-0.0371745	-0.010852	-0.977051	0.108154	0.0837402	0.408491	-0.572983	-0.438332	-0.559187	9.67895	0.025533	-0.413262	0.0356482	-0.00579285	-0.004995	-0.973633	0.414795	0.162354	0.422958	-0.54582	-0.459936	-0.558253	9.77245	0.647081	-0.156283	0.0740839	0.0116153	-0.013013	-1.01733	0.353516	0.104736	0.491413	-0.588235	-0.465018	-0.443001	9.61774	-1.82446	-1.29683	-0.0582758	0.0190092	0.0169923	-0.875244	0.561768	0.152832	0.550544	-0.56635	-0.455765	-0.410399	9.54477	-2.6032	-0.554806	-0.0467119	-0.00582946	0.00743325	-0.905762	0.685059	0.0388184	
63	0.270173	-0.243482	-0.704199	-0.609776	6.83751	6.85463	-1.12393	-0.0542096	-0.056226	-0.0745726	-0.871094	-0.375	0.0817871	0.463551	-0.19034	-0.532481	-0.682169	7.5296	5.36942	3.53481	-0.023949	0.0115936	-0.0514483	-0.749268	-0.284668	-0.390137	0.853791	0.369444	0.233223	-0.283125	-5.97874	5.15531	6.67252	0.0495551	-0.0325575	0.0396618	0.803223	-0.281494	-0.48291	0.425149	0.651614	0.132086	-0.614167	-8.84746	3.83165	1.21108	-0.00727127	0.0299245	0.0607208	0.948486	-0.012207	-0.393555	0.73503	0.533297	0.0826832	-0.410474	-5.35784	7.21036	4.03337	-0.00711734	-0.00264857	0.012351	0.791016	-0.4021	-0.479492	0.988249	-0.0170212	0.0845597	-0.126187	-3.441	-1.72058	12.4998	0.090617	-0.0422831	-0.0464805	0.703857	0.186035	-0.696777	0.348515	-0.488014	-0.504357	-0.621292	9.26231	2.68997	0.138376	-0.0595959	0.019118	-0.0207167	-0.983154	0.101562	0.0881348	0.408218	-0.573514	-0.438489	-0.558719	9.96074	0.276094	-0.222201	-0.0520495	0.00195056	-0.0130216	-0.97583	0.412598	0.167236	0.422964	-0.546062	-0.459843	-0.558088	9.88329	0.490991	0.000605832	-0.0140931	-0.00738433	-0.00873522	-1.01953	0.351074	0.10498	0.490854	-0.588965	-0.464429	-0.44327	9.44294	-1.56899	-1.19533	-0.0607389	-0.0210364	0.016002	-0.866211	0.561768	0.145996	0.550686	-0.566292	-0.455835	-0.410211	9.70734	-2.29149	-0.706126	0.0213358	0.00214273	0.00378818	-0.907959	0.685059	0.0366211	
64	0.269555	-0.242804	-0.704223	-0.610292	6.72789	6.90424	-1.12926	-0.0250023	0.00455765	-0.0825527	-0.873291	-0.375	0.0773926	0.463193	-0.190423	-0.532716	-0.682206	7.45231	5.38333	3.4242	-0.00579954	-0.0147299	-0.0400948	-0.745117	-0.278076	-0.383301	0.854181	0.369401	0.232559	-0.282547	-6.38349	5.29865	6.54929	-0.00382402	-0.0339051	0.0616091	0.803223	-0.279297	-0.485352	0.427124	0.651181	0.132228	-0.613225	-9.04482	3.90485	1.0443	-0.07611	-0.00112243	0.0535917	0.94873	-0.0166016	-0.393555	0.734771	0.533684	0.082368	-0.410498	-5.53462	6.91698	3.89076	0.042302	0.00421274	-0.00761386	0.790771	-0.395508	-0.472656	0.988287	-0.0167967	0.0836347	-0.126535	-3.47989	-1.61312	12.7637	0.0343809	-0.0566547	-0.0435388	0.706543	0.177246	-0.69873	0.347355	-0.489621	-0.504319	-0.620707	9.3781	2.66928	0.172914	0.0140346	-0.000957771	-0.00154087	-0.979004	0.105957	0.0900879	0.407997	-0.573913	-0.438202	-0.558696	9.77422	-0.0136984	-0.421304	0.0351384	-0.0051255	-0.00228604	-0.97583	0.414795	0.160156	0.422727	-0.546369	-0.459807	-0.557997	9.80086	0.385324	-0.150862	-0.0133117	-0.0196185	-0.0140076	-1.01758	0.360352	0.104736	0.490274	-0.589561	-0.464121	-0.443442	9.40852	-1.80272	-1.17556	-0.0658866	-0.0110191	0.0116511	-0.866211	0.561768	0.152832	0.549861	-0.567277	-0.454829	-0.411072	9.50261	-2.47325	-0.630261	-0.0711837	0.0137331	0.00642333	-0.898926	0.687256	0.0456543	
65	0.268728	-0.242184	-0.704511	-0.610571	6.56918	6.8243	-1.03194	0.00629323	-0.0232711	-0.0400224	-0.873047	-0.381592	0.0817871	0.462874	-0.190502	-0.534054	-0.681354	7.58709	5.61409	3.56956	0.0401966	-0.0174757	-0.0148568	-0.746826	-0.286865	-0.380615	0.854429	0.370054	0.231106	-0.282136	-6.13089	5.27444	6.72526	0.0342161	-0.0370915	0.0420101	0.80127	-0.285889	-0.491943	0.428772	0.650722	0.131992	-0.612612	-9.07077	4.21027	1.06073	-0.0615163	-0.00759321	0.0547959	0.946289	-0.0166016	-0.395752	0.73614	0.532435	0.0809501	-0.409949	-5.35408	6.93222	4.14228	-0.03944	-0.0202014	0.034118	0.79541	-0.4021	-0.470459	0.988392	-0.0170106	0.0822034	-0.126624	-3.4716	-1.58685	12.4341	-0.0244568	-0.0521492	-0.0154076	0.701904	0.183838	-0.701172	0.345466	-0.492004	-0.504673	-0.619589	9.61346	2.60797	-0.0547467	-0.0447318	-0.0924284	-0.00529631	-0.983398	0.10791	0.0964355	0.407536	-0.574479	-0.437916	-0.558674	9.81074	0.256277	-0.318697	-0.0555076	0.00792086	-0.0200215	-0.975586	0.4104	0.162598	0.421974	-0.54712	-0.459356	-0.558203	9.87259	0.649117	-0.165947	-0.0567086	-0.0103277	-0.0160722	-1.01978	0.35791	0.102539	0.489502	-0.590268	-0.463732	-0.443762	9.62773	-1.6657	-1.26004	-0.0542268	0.00134524	0.00829389	-0.873291	0.568359	0.150391	0.549761	-0.567527	-0.454752	-0.410945	9.58221	-2.35717	-0.451419	-0.0599506	0.00390458	0.00444625	-0.903564	0.689453	0.0432129	
66	0.26814	-0.24177	-0.705365	-0.610007	6.52324	7.06147	-1.08961	0.0321578	-0.0301106	-0.0255366	-0.873047	-0.379395	0.0817871	0.462892	-0.190593	-0.534693	-0.680815	7.72503	5.39396	3.54429	0.0354908	-0.00515249	-0.0124337	-0.749268	-0.284668	-0.380615	0.854765	0.369655	0.230738	-0.281942	-6.19313	5.41356	6.6989	-0.0273577	-0.0308335	0.0200821	0.796875	-0.283447	-0.494385	0.429574	0.65025	0.131969	-0.612556	-9.04105	3.83883	1.17449	-0.055083	-0.0236655	0.0389052	0.950928	-0.0209961	-0.391113	0.73599	0.532798	0.0800014	-0.409934	-5.49216	7.23764	4.24164	0.0575875	-0.0351853	0.0246246	0.789062	-0.404297	-0.470459	0.988466	-0.019144	0.0809896	-0.126528	-3.27666	-2.01012	13.0004	-0.0431796	-0.0219354	-0.0209528	0.699707	0.186035	-0.703369	0.345165	-0.492567	-0.50504	-0.61901	9.54338	2.56798	-0.0527699	0.0285325	-0.0623921	-0.00712608	-0.977051	0.110107	0.0983887	0.407536	-0.574479	-0.437916	-0.558674	9.81074	0.256277	-0.318697	-0.0555076	0.00792086	-0.0200215	-0.975586	0.4104	0.162598	0.421208	-0.547818	-0.458811	-0.558545	9.89644	0.353741	-0.29441	-0.0270033	-0.00747721	-0.0176702	-1.01978	0.35791	0.11377	0.488944	-0.590898	-0.463393	-0.443891	9.53894	-1.74872	-1.2751	-0.015908	0.0148261	0.00463565	-0.87085	0.563965	0.152832	0.549584	-0.567785	-0.454734	-0.410846	9.63858	-2.36168	-0.726879	0.0538587	-0.000884021	-0.0028585	-0.903564	0.69165	0.0410156	
67	0.26725	-0.241924	-0.705526	-0.61015	6.66178	6.97143	-1.21455	-0.0189299	-0.030359	-0.0200747	-0.871094	-0.377197	0.0817871	0.463132	-0.190164	-0.534231	-0.681134	7.46513	5.43139	3.52337	-0.0249969	0.0475314	-0.0298834	-0.742676	-0.286865	-0.385254	0.855502	0.368297	0.230574	-0.28162	-5.92566	5.05352	6.34913	0.000876704	-0.00949323	-0.0105894	0.803223	-0.2771	-0.492188	0.430282	0.649857	0.131778	-0.612517	-8.7789	4.15858	1.20917	-0.0388886	-0.00922514	0.00859225	0.946533	-0.0187988	-0.393555	0.736213	0.532175	0.0803397	-0.410275	-5.11598	6.60192	4.31631	0.00669069	0.0389428	-0.0467338	0.788818	-0.4021	-0.472656	0.988454	-0.0184246	0.0801489	-0.127261	-3.18644	-2.17237	13.2865	0.0613718	-0.00146379	-0.0510929	0.701904	0.181641	-0.705322	0.344695	-0.493247	-0.505699	-0.618192	9.3407	2.72403	0.312201	-0.00403584	-0.0647246	-0.0124585	-0.9729	0.110107	0.102783	0.407873	-0.573991	-0.438405	-0.558548	9.598	-0.0242131	-0.335824	0.105849	0.00649645	-0.0218835	-0.97583	0.4104	0.157715	0.421352	-0.547705	-0.459115	-0.558297	9.71753	0.408579	-0.242331	0.0219269	0.00144794	-0.0213232	-1.02441	0.35791	0.109131	0.487287	-0.592241	-0.463014	-0.44432	9.48968	-1.64678	-1.1759	-0.101492	-0.048755	-0.0022665	-0.866455	0.568359	0.159424	0.548232	-0.569294	-0.453267	-0.412184	9.61121	-2.69375	-0.604201	-0.111397	0.0269484	0.00662231	-0.896729	0.685059	0.0388184	
68	0.266656	-0.24091	-0.705096	-0.611307	6.82376	6.81804	-1.07368	-0.0344541	0.0443476	-0.0697602	-0.870605	-0.383789	0.079834	0.462855	-0.18969	-0.533934	-0.681687	7.65079	5.58124	3.50156	-0.0325865	0.0239795	-0.0414695	-0.744873	-0.286865	-0.383057	0.854636	0.370371	0.230314	-0.28174	-6.35016	5.07848	6.64091	0.146152	0.0166243	0.0156009	0.796875	-0.283447	-0.489746	0.429302	0.650417	0.132494	-0.612457	-8.90507	3.82474	1.44371	0.0440086	0.0620414	-0.0479997	0.94873	-0.0209961	-0.391113	0.734989	0.533488	0.0800231	-0.410826	-5.32563	7.5448	4.25022	-0.0369659	0.0265883	-0.0568324	0.791016	-0.4021	-0.477295	0.988389	-0.0155356	0.0807165	-0.127789	-3.47285	-2.05526	12.4409	0.111476	0.0412812	-0.0104545	0.69751	0.186035	-0.701172	0.343806	-0.493905	-0.505357	-0.618442	9.52596	2.75787	-0.202253	-0.0657013	-0.03814	-0.0276204	-0.974854	0.105957	0.102783	0.407445	-0.574795	-0.438495	-0.557961	10.0515	0.428971	-0.249388	-0.0826387	-0.0184854	0.00444293	-0.973389	0.40625	0.160156	0.420728	-0.548189	-0.458504	-0.558795	9.96786	0.619778	-0.00817152	-0.0581571	0.00460934	-0.0159608	-1.02197	0.353271	0.107178	0.486595	-0.592858	-0.463466	-0.443783	9.73083	-1.90479	-1.08683	0.0444854	-0.0246973	0.00401371	-0.873047	0.566162	0.161865	0.548394	-0.569263	-0.453342	-0.411929	9.48885	-2.59173	-0.276153	0.0210641	-0.0174709	-0.00227061	-0.903564	0.689453	0.0432129	
69	0.266829	-0.239282	-0.705157	-0.611801	6.54942	7.10335	-1.05038	0.0128127	0.0464879	-0.0350728	-0.866211	-0.383545	0.0754395	0.462466	-0.189675	-0.533911	-0.681973	7.65387	5.41371	3.47239	-0.000211389	0.00665135	-0.0396667	-0.742676	-0.282471	-0.380859	0.853974	0.372257	0.230089	-0.281447	-6.17479	5.20313	6.80296	0.0153638	0.0453754	0.0307817	0.792725	-0.290039	-0.484863	0.429686	0.650564	0.134345	-0.611628	-9.0195	4.05253	1.18074	-0.0949296	0.0455324	-0.0279295	0.952881	-0.0144043	-0.391357	0.734034	0.534696	0.0800316	-0.410961	-5.50861	7.05496	4.16515	0.125185	0.00838983	-0.00998805	0.793457	-0.404297	-0.472656	0.988413	-0.0133793	0.0808111	-0.127789	-3.63096	-1.47455	12.5763	0.037659	0.0309409	-0.0115385	0.699951	0.179443	-0.703125	0.341896	-0.495148	-0.505205	-0.61863	9.59446	2.62052	-0.162753	-0.0116796	-0.0530383	-0.0249945	-0.977051	0.10791	0.109131	0.406432	-0.575455	-0.437502	-0.558799	9.68372	-0.0805277	-0.336721	-0.0110776	0.0140595	-0.0208194	-0.973633	0.412598	0.169434	0.420002	-0.548976	-0.458162	-0.558848	9.84777	0.522078	-0.312865	-0.0202887	-0.0198211	-0.0147942	-1.02197	0.353271	0.11377	0.486925	-0.592754	-0.463375	-0.443655	9.59732	-1.51704	-1.17858	-0.0254444	0.00521315	0.00991451	-0.87085	0.563965	0.159668	0.548526	-0.569077	-0.454027	-0.411254	9.63674	-2.40479	-0.616285	0.0282476	-0.0237268	-0.00820944	-0.903564	0.687256	0.0478516	
70	0.266855	-0.238808	-0.70507	-0.612075	6.30144	7.1021	-0.997361	-0.0105401	-0.0151556	-0.0154349	-0.870361	-0.392334	0.0776367	0.462524	-0.189382	-0.533804	-0.6821	7.51114	5.39282	3.56415	-0.00880966	0.0344465	-0.0239567	-0.742676	-0.286865	-0.385254	0.854056	0.372199	0.230553	-0.280894	-5.94539	5.30317	6.47384	-0.0227372	0.0260511	-0.00495378	0.794678	-0.283447	-0.485107	0.429169	0.650838	0.135014	-0.611552	-8.78091	3.89678	1.17591	-0.0266364	0.0252133	-0.0247718	0.953125	-0.0166016	-0.391357	0.734437	0.534256	0.0807945	-0.410663	-5.34457	6.98991	4.06664	-0.0357455	0.0242549	-0.00931588	0.793457	-0.406494	-0.475098	0.988461	-0.0139977	0.0807963	-0.127362	-3.40691	-1.69105	12.4808	-0.0371376	0.00782433	0.00525343	0.699951	0.177246	-0.703125	0.340876	-0.495917	-0.505388	-0.618428	9.34285	2.6159	0.00576985	-0.00785695	-0.054246	-0.0290228	-0.977051	0.10791	0.111328	0.4067	-0.575312	-0.438174	-0.558225	9.75464	0.023209	-0.521864	0.0351065	0.00951473	-0.0240423	-0.973389	0.408203	0.164795	0.420018	-0.549058	-0.458594	-0.5584	9.79562	0.23992	-0.324727	0.0560584	-0.010199	-0.024307	-1.01953	0.353271	0.111572	0.486555	-0.593138	-0.463494	-0.443423	9.49041	-1.9184	-1.27661	0.0239087	-0.0151724	0.000333307	-0.866211	0.561768	0.155029	0.548251	-0.569284	-0.454457	-0.41086	9.55336	-2.64118	-0.678189	0.0301489	-0.0181275	-0.00680641	-0.901367	0.689453	0.0432129	
71	0.26624	-0.238688	-0.704945	-0.612534	6.64929	6.79792	-1.00436	-0.010946	0.00672425	-0.030139	-0.86792	-0.394531	0.0776367	0.462816	-0.188534	-0.534128	-0.681882	7.48174	5.52278	3.49947	0.029272	0.0272519	-0.0231685	-0.744873	-0.286865	-0.385254	0.85424	0.372023	0.230808	-0.280358	-6.1324	4.9534	6.48306	-0.0287148	0.0296361	0.0266595	0.80127	-0.290039	-0.487305	0.430073	0.650987	0.136236	-0.610486	-8.73973	3.57429	1.29199	-0.0704118	0.0721948	0.0326025	0.950684	-0.0144043	-0.393555	0.733982	0.535386	0.0801921	-0.410124	-5.33346	7.2198	4.02822	0.0354723	0.0467196	0.0102613	0.789307	-0.408691	-0.470459	0.988482	-0.012923	0.0805466	-0.127468	-3.43685	-1.91671	12.6919	0.0463911	0.0025544	-0.00939462	0.706299	0.181641	-0.705322	0.340021	-0.49661	-0.50573	-0.618062	9.45281	2.75852	-0.107318	-0.00608313	-0.0106834	-0.0197977	-0.981445	0.10791	0.113525	0.406177	-0.575659	-0.437977	-0.558401	9.76431	-0.0732738	-0.540427	-0.040765	0.0105842	-0.0232866	-0.971436	0.412598	0.160156	0.419927	-0.549151	-0.458723	-0.558273	9.8365	0.573865	-0.256118	-0.0583698	-0.000620388	-0.0198723	-1.01978	0.355469	0.115967	0.48714	-0.592614	-0.464217	-0.442724	9.56341	-1.57059	-1.21639	0.0365299	-0.0023238	-0.00363224	-0.87085	0.563965	0.159668	0.548195	-0.569328	-0.454768	-0.410529	9.53521	-2.49161	-0.544863	-0.045132	-0.00657513	-0.00233158	-0.901367	0.689453	0.0456543	
72	0.265935	-0.238297	-0.705292	-0.612418	6.51255	6.94346	-1.02325	0.0264976	-0.0108919	-0.0432745	-0.872559	-0.390381	0.0754395	0.462836	-0.188385	-0.534504	-0.681615	7.58312	5.51853	3.63031	0.0292406	0.00444591	-0.0201911	-0.749023	-0.289062	-0.387695	0.854035	0.373224	0.230593	-0.279563	-6.08117	5.2558	6.50644	0.0415049	0.0215054	0.0371755	0.80127	-0.290039	-0.491943	0.432535	0.650491	0.137768	-0.60893	-8.77308	3.60072	1.21249	-0.0961276	0.0457971	0.0436675	0.957275	-0.012207	-0.386963	0.734386	0.535283	0.0803497	-0.409503	-5.56778	7.30362	3.97259	-0.0340424	0.0379814	0.0280575	0.791504	-0.410889	-0.472656	0.988528	-0.0119468	0.0805823	-0.127189	-3.45346	-1.57167	12.687	0.0805199	0.0251883	0.0115093	0.697998	0.175049	-0.705078	0.339548	-0.497067	-0.506657	-0.617195	9.55556	2.69726	-0.186569	0.0553329	-0.0260152	-0.0311326	-0.976562	0.0993652	0.11792	0.406766	-0.575274	-0.438854	-0.557681	9.83899	0.294735	-0.465224	0.0279396	0.018864	-0.0134387	-0.973877	0.416992	0.166992	0.419919	-0.549094	-0.458842	-0.558236	9.90949	0.183854	-0.312265	0.0146794	0.00254021	-0.0263231	-1.02197	0.355469	0.111572	0.487296	-0.592433	-0.464493	-0.442506	9.57687	-1.67269	-1.27462	0.0350055	0.00273083	-0.00337609	-0.868652	0.568359	0.155029	0.548399	-0.569099	-0.455128	-0.410175	9.59656	-2.6142	-0.604107	0.0473092	-0.0104229	-0.00676636	-0.901123	0.682861	0.0480957	
73	0.265736	-0.237964	-0.705703	-0.61216	6.61105	7.00303	-1.04308	0.0384514	-0.0122387	-0.0336372	-0.868164	-0.392334	0.0754395	0.463312	-0.187262	-0.535658	-0.680695	7.45938	5.60352	3.50434	0.034238	0.00405134	-0.0266508	-0.742432	-0.29126	-0.387451	0.85511	0.372985	0.229381	-0.277585	-6.06157	5.18231	6.53629	-0.027057	-0.0222472	0.0941623	0.797119	-0.292236	-0.489502	0.43593	0.649371	0.139314	-0.60735	-9.27703	4.04912	0.95472	-0.191486	0.00916543	0.0744346	0.950684	-0.0124512	-0.386963	0.73544	0.534702	0.0803904	-0.408363	-5.48956	7.19395	4.0903	0.0151628	0.0101289	0.0249246	0.789307	-0.408691	-0.468018	0.988733	-0.0100512	0.0793208	-0.126551	-3.46328	-1.45571	12.5687	0.0101161	-0.0278927	-0.00112165	0.702393	0.168701	-0.704834	0.341311	-0.494811	-0.508897	-0.616192	9.58907	2.87447	-0.250743	0.227079	0.0910648	-0.0583154	-0.981201	0.105713	0.111328	0.407368	-0.574475	-0.439369	-0.55766	9.85733	-0.363313	-0.738575	0.103897	0.0423006	-0.0393927	-0.973633	0.412842	0.153076	0.421745	-0.547511	-0.460343	-0.557178	9.94296	0.04232	-0.546843	0.182586	0.0322234	-0.0284481	-1.02197	0.35791	0.104736	0.488273	-0.591433	-0.466	-0.441181	9.3048	-1.92114	-1.2318	0.0901113	-0.0166804	-0.0132831	-0.87085	0.563965	0.159668	0.548477	-0.568863	-0.455624	-0.409847	9.53727	-2.38018	-0.595385	-0.0242947	-0.00531125	-0.0108093	-0.905762	0.687256	0.0456543	
74	0.265377	-0.236096	-0.707115	-0.61141	6.55595	7.26979	-1.09237	0.0206461	0.0162173	-0.0622908	-0.86792	-0.394531	0.0776367	0.463192	-0.187329	-0.535244	-0.681084	7.61557	5.41755	3.60637	-0.0520187	0.0255867	-0.0307886	-0.744629	-0.29126	-0.385254	0.856048	0.372914	0.228826	-0.275238	-6.50339	5.57437	6.32977	-0.0490271	0.00220012	0.0866038	0.794922	-0.296631	-0.484863	0.436803	0.648846	0.139708	-0.607193	-9.18909	3.82029	0.711412	-0.0824708	-0.00746685	0.0230282	0.950684	-0.0124512	-0.386963	0.735691	0.534495	0.0802882	-0.408201	-5.20786	7.19502	4.11486	-0.0219536	0.000270749	0.00647325	0.791504	-0.413086	-0.468018	0.988817	-0.0107808	0.0785638	-0.126304	-3.25813	-1.8125	12.5335	-0.0468845	-0.0545907	-0.00258761	0.700195	0.170898	-0.711426	0.342299	-0.493721	-0.509968	-0.615633	9.16352	2.73359	0.304946	0.158802	0.0534429	-0.0394903	-0.979248	0.10791	0.109131	0.409037	-0.57287	-0.441268	-0.556589	9.57524	0.122349	-0.522579	0.253863	0.0347607	-0.0510367	-0.973633	0.4104	0.160156	0.423929	-0.545525	-0.462572	-0.555621	9.67169	0.603664	-0.132453	0.324058	0.0306641	-0.0408782	-1.02197	0.353271	0.102539	0.488967	-0.590701	-0.466852	-0.440491	9.76541	-1.81274	-1.5423	0.120202	-0.00252749	-0.0138365	-0.868652	0.563965	0.159668	0.549249	-0.567899	-0.45654	-0.409129	9.63371	-2.31188	-0.576945	0.0927467	0.00290882	-0.015489	-0.901123	0.685059	0.0410156	
75	0.265658	-0.235389	-0.707223	-0.611435	6.43452	7.31446	-1.0645	0.0102333	0.00980758	0.0136274	-0.867676	-0.401123	0.079834	0.462777	-0.187587	-0.535576	-0.681034	7.72374	5.42515	3.52471	0.0349149	-0.0286704	-0.0325222	-0.746582	-0.293457	-0.387451	0.855352	0.374941	0.227357	-0.275864	-6.25216	5.72055	6.54307	0.162324	-0.0315295	-0.0274891	0.792969	-0.302979	-0.486816	0.435499	0.649683	0.139059	-0.607385	-9.39415	4.2065	0.965891	0.0388065	0.0213003	-0.00669585	0.955322	-0.0166016	-0.386963	0.735521	0.534995	0.0800236	-0.407904	-5.52825	7.06684	4.19862	0.0450565	0.0102519	-0.00951045	0.793701	-0.410889	-0.46582	0.989037	-0.00964696	0.0765454	-0.125914	-3.45673	-1.50219	12.9176	0.0433786	-0.0605306	0.00322904	0.698242	0.168701	-0.713379	0.34191	-0.492921	-0.511307	-0.615379	9.57189	2.85956	-0.128797	0.084379	0.0206404	-0.0769715	-0.980957	0.101562	0.107178	0.409544	-0.572627	-0.441378	-0.55638	10.1267	0.610059	-0.0880033	-0.0417608	0.0231803	-0.00445224	-0.978027	0.412598	0.157715	0.423888	-0.545412	-0.462477	-0.555842	9.89304	0.6748	-0.0943806	-0.0054446	0.0215549	-0.0289183	-1.02197	0.35791	0.104736	0.489845	-0.589715	-0.467602	-0.440042	9.17681	-1.4685	-1.25625	0.00943351	-0.000376127	-0.0097514	-0.870605	0.561768	0.152832	0.54905	-0.567956	-0.456639	-0.409207	9.34179	-2.5382	-0.657518	-0.0197139	-0.00163651	-0.00899495	-0.901123	0.687256	0.043457	
76	0.266091	-0.23568	-0.706421	-0.612061	6.56356	6.94494	-0.962591	-0.0490269	0.0351489	0.0067922	-0.865967	-0.392334	0.0776367	0.462614	-0.18747	-0.536201	-0.680685	7.41842	5.67936	3.46062	0.00971312	0.00890471	-0.0162923	-0.742188	-0.295654	-0.38501	0.855105	0.374704	0.227253	-0.277036	-5.80284	5.1006	6.70704	-0.0287061	-0.0108582	-0.0255526	0.797119	-0.298828	-0.491699	0.433938	0.650292	0.138399	-0.607999	-8.80792	4.08521	1.34448	0.119637	-0.000344603	-0.0275002	0.950684	-0.012207	-0.38916	0.736053	0.534697	0.0802836	-0.407284	-5.4505	7.28184	3.93673	-0.0395199	0.027514	0.00651156	0.789307	-0.408691	-0.46582	0.989053	-0.0098693	0.0762081	-0.125971	-3.20642	-1.70177	13.0141	0.0511849	0.0339087	-0.0220548	0.698242	0.168701	-0.713379	0.341043	-0.493861	-0.513131	-0.613585	9.17645	2.93209	-0.383065	0.0198739	-0.169879	-0.0230275	-0.97876	0.101562	0.111572	0.40947	-0.572012	-0.440161	-0.558027	9.62479	0.0483647	-0.178043	0.0258154	0.0801278	-0.0376177	-0.978027	0.414795	0.157715	0.423776	-0.545479	-0.462779	-0.555609	9.8197	0.595741	-0.32999	0.0781173	-0.0219759	-0.0172882	-1.01953	0.353271	0.109375	0.491006	-0.588522	-0.468302	-0.439599	9.838	-1.65572	-1.31641	0.162043	0.0854222	-0.00441277	-0.868652	0.563965	0.150391	0.550409	-0.566442	-0.457717	-0.408276	9.70289	-2.11294	-0.696285	0.0848917	0.0180892	-0.0217177	-0.907959	0.687256	0.043457	
77	0.266575	-0.235612	-0.706181	-0.612155	6.25377	7.05702	-1.00901	0.00565119	0.00998026	0.0223051	-0.865967	-0.390137	0.0754395	0.461868	-0.188377	-0.536083	-0.681034	7.58644	5.39335	3.42908	-0.0544705	-0.0291621	-0.0307788	-0.746826	-0.29126	-0.382812	0.854899	0.374362	0.228281	-0.27729	-6.31026	5.35258	6.41333	-0.0523397	0.0314643	-0.0384786	0.797119	-0.300781	-0.496094	0.435175	0.649608	0.14035	-0.6074	-8.814	4.02273	1.05355	-0.153166	0.0405757	-0.0201514	0.950439	-0.0102539	-0.384766	0.735759	0.534393	0.0802373	-0.408221	-5.18923	6.90768	4.08259	0.0777379	-0.0157852	-0.0714609	0.793701	-0.410889	-0.474854	0.988997	-0.0106467	0.0766783	-0.126066	-3.06058	-1.8607	12.8645	0.0143173	0.0470896	-0.027301	0.697998	0.172852	-0.711426	0.339478	-0.495136	-0.512614	-0.613859	9.12985	2.95026	0.223215	-0.0262709	-0.0476162	-0.00929799	-0.974365	0.0993652	0.124268	0.410359	-0.571266	-0.440706	-0.557708	9.69249	0.0283417	-0.615184	0.0311226	0.0319693	-0.0103943	-0.978271	0.416992	0.155273	0.4257	-0.543979	-0.464777	-0.55394	9.69233	0.439941	-0.187234	0.168566	0.0113125	-0.0251624	-1.01978	0.35791	0.104736	0.49033	-0.589353	-0.467573	-0.440017	9.56063	-1.57443	-1.18009	-0.103582	0.00185534	0.00887697	-0.868408	0.561768	0.152832	0.54942	-0.567403	-0.456693	-0.409418	9.50975	-2.58555	-0.522676	-0.0347161	0.0243248	-0.00409735	-0.905762	0.685059	0.0410156	
78	0.266176	-0.236316	-0.706006	-0.612258	6.35584	6.88537	-1.04063	-0.00971377	-0.0414818	-0.0078189	-0.868164	-0.392334	0.0776367	0.461781	-0.188851	-0.536029	-0.681005	7.55501	5.6177	3.42797	-0.0187039	-0.037657	-0.00587743	-0.746826	-0.289062	-0.382812	0.854763	0.374668	0.228363	-0.277226	-5.96095	5.51702	6.49615	0.0685395	0.0120009	0.00273869	0.799316	-0.296631	-0.489258	0.435475	0.648599	0.141369	-0.608026	-8.83458	3.69778	0.952447	-0.045588	-0.021831	-0.0350923	0.952637	-0.00805664	-0.382568	0.735454	0.534305	0.0803278	-0.408869	-5.42772	7.45685	3.97698	-0.0537564	0.00383426	-0.0306556	0.793457	-0.406494	-0.470459	0.988808	-0.00976462	0.0779466	-0.126836	-3.33303	-1.35554	12.4971	-0.0268529	0.0538247	-0.0341154	0.697998	0.172852	-0.709229	0.337653	-0.497196	-0.511581	-0.614061	9.56971	2.85667	-0.436109	-0.0855923	0.0413643	-0.00113036	-0.980957	0.0993652	0.120117	0.410229	-0.57161	-0.440292	-0.557779	9.98338	0.374422	-0.242098	-0.0738486	0.0134459	-0.0161945	-0.971436	0.412842	0.153076	0.425546	-0.544238	-0.464622	-0.553933	9.96194	0.6358	-0.0535182	-0.0362222	-0.000575909	-0.0167516	-1.01733	0.355713	0.106934	0.490113	-0.589566	-0.467273	-0.440291	9.48532	-1.99186	-1.08533	0.0223621	0.0147044	0.00629628	-0.866455	0.566162	0.152832	0.549213	-0.567657	-0.456253	-0.409833	9.53255	-2.45713	-0.632655	-0.0354054	0.0183321	0.00150038	-0.905762	0.687256	0.0410156	
79	0.266044	-0.2375	-0.706791	-0.610951	6.57616	7.10279	-1.13483	0.0487713	-0.0495273	0.0458596	-0.865967	-0.390137	0.079834	0.461751	-0.189319	-0.536165	-0.680787	7.56775	5.47784	3.49737	0.00251316	0.00621564	-0.00234459	-0.753174	-0.293457	-0.382812	0.854881	0.37422	0.228235	-0.277574	-6.25091	5.76576	6.5473	-0.0210828	-0.0276259	-0.0285177	0.799316	-0.294434	-0.489502	0.437623	0.647242	0.142332	-0.607705	-8.8651	3.63092	0.915779	-0.080821	-0.031479	0.0281869	0.950439	-0.0078125	-0.38916	0.73505	0.534206	0.0800112	-0.409785	-5.32777	6.98614	4.19541	0.0805771	-0.0193186	-0.0263123	0.79126	-0.406494	-0.477295	0.988681	-0.00959454	0.0782517	-0.127647	-3.44241	-1.58886	12.6447	0.0504309	0.0240118	-0.068242	0.697998	0.172852	-0.709229	0.33714	-0.49845	-0.512348	-0.612686	9.31205	2.67888	-0.10885	0.0485967	-0.11084	0.000584689	-0.976562	0.0993652	0.124268	0.409699	-0.571691	-0.43995	-0.558354	9.75194	0.0945778	-0.444738	0.0387157	0.0188275	-0.0272871	-0.97583	0.412598	0.155518	0.425932	-0.543937	-0.465018	-0.5536	9.85577	0.466596	-0.290373	0.0485956	0.00956915	-0.0197055	-1.02197	0.355713	0.0959473	0.490582	-0.589033	-0.467603	-0.440133	9.62796	-1.40661	-1.40154	0.0535323	0.032191	0.00133272	-0.868652	0.563965	0.150391	0.54945	-0.567418	-0.456393	-0.409691	9.52599	-2.67906	-0.615407	0.033889	0.0103915	-0.0050555	-0.905762	0.685059	0.0319824	
80	0.265841	-0.237872	-0.706953	-0.610707	6.57532	7.09432	-1.11561	0.0103615	-0.0410843	0.0106463	-0.86377	-0.392334	0.0820312	0.461998	-0.189138	-0.536541	-0.680374	7.37492	5.77095	3.51675	0.0399297	0.0137854	-0.00376536	-0.749023	-0.289062	-0.385254	0.855219	0.373325	0.228042	-0.277894	-5.76742	5.14162	6.52786	0.0173976	-0.0196135	-0.0083493	0.803467	-0.292236	-0.491699	0.438505	0.646344	0.141047	-0.608325	-9.11642	4.20081	1.24121	-0.0732973	-0.0615412	0.0381546	0.952637	-0.0078125	-0.391357	0.735171	0.533801	0.0798297	-0.410131	-5.38805	7.19496	3.97875	-0.0432316	-0.0236842	-0.018964	0.789062	-0.406494	-0.475098	0.988552	-0.0095607	0.0781909	-0.128686	-3.28628	-1.61233	12.6216	0.00555489	0.00578557	-0.0528458	0.700195	0.172852	-0.707275	0.336212	-0.499563	-0.51256	-0.612112	9.45616	2.77833	-0.286165	-0.00537576	-0.0289151	-0.00967904	-0.976318	0.0927734	0.126709	0.410024	-0.57157	-0.440449	-0.557846	9.89399	0.0980573	-0.363492	0.0260376	0.0002906	-0.0190899	-0.97583	0.412598	0.153076	0.425488	-0.544158	-0.464345	-0.554289	9.92513	0.440585	-0.237276	-0.0419672	0.019925	-0.0274914	-1.02197	0.35791	0.106934	0.489761	-0.58972	-0.467171	-0.440586	9.41417	-1.59544	-1.19347	-0.0477781	-0.0025104	0.000840977	-0.875488	0.568359	0.155029	0.549688	-0.567202	-0.45635	-0.409719	9.6728	-2.10809	-0.630758	-0.0646169	0.0170812	-0.000784394	-0.901123	0.687256	0.043457	
81	0.265827	-0.237964	-0.707041	-0.610575	6.70804	7.17112	-1.1887	0.00252845	0.0132714	0.0229516	-0.865967	-0.392334	0.0776367	0.462168	-0.189721	-0.535985	-0.680534	7.48155	5.36567	3.4771	-0.0424444	0.0385665	0.0045998	-0.749268	-0.284668	-0.383057	0.855985	0.371811	0.228012	-0.277592	-6.12977	5.48123	6.51899	-0.066871	-0.0283382	-0.00691465	0.796875	-0.287842	-0.491943	0.439202	0.645456	0.140699	-0.608845	-8.74437	3.9021	1.22713	0.0570755	-0.0287283	0.00208358	0.954834	-0.0078125	-0.386963	0.734408	0.534355	0.0796023	-0.410821	-5.39697	7.2316	4.25395	0.0436855	0.00916487	-0.0343328	0.789062	-0.404297	-0.468018	0.988531	-0.00913123	0.0779413	-0.129029	-3.38873	-1.92798	12.8142	0.0438708	-0.00166247	-0.0425997	0.695801	0.175049	-0.711426	0.336064	-0.500059	-0.513381	-0.611099	9.24451	2.90297	0.0348543	0.0249512	-0.0663285	-0.0184976	-0.972412	0.103516	0.132812	0.408657	-0.572602	-0.439773	-0.558324	9.69819	0.586974	-0.0280845	-0.144371	-0.0265442	-0.0111157	-0.975586	0.4104	0.160156	0.425332	-0.544029	-0.464384	-0.554502	9.68596	0.816935	0.0522554	-0.00222029	0.0138038	-0.0406265	-1.01978	0.360107	0.104736	0.489623	-0.589777	-0.46711	-0.440728	9.58259	-1.84071	-1.42831	-0.0133874	0.0135375	-0.00315651	-0.87085	0.566162	0.152832	0.54983	-0.567081	-0.456306	-0.409746	9.57475	-2.56634	-0.567241	0.115571	0.014071	-0.00492306	-0.901367	0.689453	0.0388184	
82	0.267239	-0.237743	-0.706589	-0.610568	6.65813	7.12185	-1.05538	0.0154132	0.053127	0.0200994	-0.868164	-0.392334	0.0734863	0.462309	-0.189973	-0.535999	-0.680357	7.61383	5.70298	3.50406	-0.0147331	0.00109698	-0.011797	-0.74707	-0.284668	-0.385498	0.855985	0.371811	0.228012	-0.277592	-6.12977	5.48123	6.51899	-0.066871	-0.0283382	-0.00691465	0.796875	-0.287842	-0.491943	0.439202	0.645456	0.140699	-0.608845	-8.74437	3.9021	1.22713	0.0570755	-0.0287283	0.00208358	0.954834	-0.0078125	-0.386963	0.734728	0.533799	0.0799738	-0.410898	-5.388	7.2185	4.17695	-0.0592664	0.00561741	-0.0276282	0.79126	-0.406494	-0.470459	0.988437	-0.00849874	0.0783972	-0.129517	-3.32404	-1.7567	12.8903	0.0267711	0.0286839	-0.0262903	0.693848	0.170898	-0.707031	0.334703	-0.501404	-0.513597	-0.610562	9.5326	3.05722	-0.451536	-0.0432735	-0.137586	-0.0222386	-0.974609	0.103516	0.134766	0.406469	-0.574393	-0.4373	-0.560022	10.2523	0.0507018	-0.223367	-0.324324	0.0181832	0.00636587	-0.977783	0.406006	0.162598	0.419355	-0.548941	-0.458159	-0.55937	10.1797	-0.760854	-0.849542	-0.493195	-0.00159723	0.0101327	-1.01953	0.353271	0.111572	0.490061	-0.589501	-0.466947	-0.440782	9.51753	-1.55825	-1.21129	-0.00152291	0.0178188	0.0130776	-0.87085	0.563965	0.152832	0.54935	-0.567613	-0.455671	-0.410357	9.59845	-2.75454	-0.626585	-0.0581577	0.0208525	-0.00170308	-0.903564	0.687256	0.0478516	
83	0.268228	-0.237881	-0.705477	-0.611366	6.30064	7.06609	-0.999088	-0.0560224	0.0120734	0.0316377	-0.865967	-0.390137	0.0754395	0.461992	-0.190745	-0.53484	-0.681267	7.54944	5.42902	3.57703	-0.0842655	0.0297052	-0.0304472	-0.749023	-0.289062	-0.385254	0.85527	0.372342	0.228633	-0.278571	-6.0886	5.34038	6.5416	0.0163533	0.0104614	-0.0235146	0.790527	-0.291992	-0.494141	0.439141	0.644489	0.141915	-0.60963	-8.88189	3.84061	1.11606	-0.0291212	0.0223771	-0.0434928	0.947998	-0.00341797	-0.393799	0.733822	0.534362	0.0801684	-0.411747	-5.39019	6.90887	4.23384	0.0347573	0.0034342	-0.0493632	0.788818	-0.4021	-0.468018	0.988367	-0.00845262	0.078837	-0.129787	-3.43571	-2.09745	12.898	0.0601755	0.0406184	-0.0386424	0.697998	0.175049	-0.705078	0.332659	-0.503878	-0.512748	-0.610356	9.35498	2.63381	-0.11622	-0.0984071	-0.102206	0.00189248	-0.974609	0.101318	0.141357	0.407166	-0.57413	-0.437903	-0.559314	9.64578	0.0116112	-0.386075	0.192013	-0.00923098	-0.00933275	-0.977783	0.4104	0.157715	0.422672	-0.546193	-0.461644	-0.556692	9.64905	1.4637	0.0988881	0.150891	0.00393706	-0.0198003	-1.02417	0.353271	0.106934	0.489151	-0.590546	-0.465741	-0.441669	9.55126	-1.53212	-1.33079	-0.0850649	0.0215812	0.00810906	-0.87085	0.566162	0.155029	0.549012	-0.568028	-0.455117	-0.410852	9.60949	-2.28839	-0.471744	-0.119112	0.0120592	0.00148297	-0.898926	0.687256	0.0410156	
84	0.268223	-0.23869	-0.704282	-0.61243	6.52249	7.00519	-1.0288	-0.0696637	0.0164612	0.0144278	-0.870605	-0.385986	0.0732422	0.461471	-0.190997	-0.533883	-0.6823	7.64354	5.52751	3.4865	-0.0663552	0.00335771	-0.033421	-0.74707	-0.284668	-0.383057	0.85413	0.373798	0.229148	-0.279693	-6.1986	4.98947	6.35982	0.0726593	0.0300622	-0.0464473	0.794922	-0.292236	-0.491699	0.438078	0.644925	0.142015	-0.609911	-8.82291	3.71694	1.08091	0.0713523	0.0277346	-0.0605133	0.945801	-0.00585938	-0.391602	0.733822	0.534362	0.0801684	-0.411747	-5.39019	6.90887	4.23384	0.0347573	0.0034342	-0.0493632	0.788818	-0.4021	-0.468018	0.988248	-0.00572932	0.0799613	-0.130149	-3.29952	-1.39721	12.5928	0.0882319	0.0664427	-0.0209977	0.702637	0.166504	-0.715576	0.330607	-0.505755	-0.513334	-0.609425	9.43459	2.67096	-0.492089	0.00525899	-0.109265	-0.0356543	-0.971924	0.0927734	0.150146	0.407006	-0.574362	-0.437878	-0.559211	9.89804	0.24156	-0.425128	-0.0837069	0.00673964	-0.0168411	-0.967041	0.4104	0.162354	0.421955	-0.547003	-0.460701	-0.557222	9.90675	0.0659363	-0.390377	0.0321781	0.00392194	-0.0152021	-1.02441	0.360107	0.106934	0.488216	-0.5915	-0.46494	-0.442271	9.34321	-1.92855	-0.932121	-0.0391209	0.0067607	0.0124905	-0.868652	0.563965	0.155029	0.548759	-0.568352	-0.454769	-0.411126	9.40024	-2.30911	-0.546097	-0.0120438	0.00276123	0.00098961	-0.898926	0.687256	0.0388184	
85	0.268194	-0.240098	-0.703535	-0.612751	6.64066	6.86273	-1.01275	-0.0284404	-0.0359187	0.0422181	-0.865967	-0.387939	0.0776367	0.461505	-0.19088	-0.533056	-0.682957	7.44154	5.42497	3.53621	-0.025522	0.035598	-0.0222488	-0.749023	-0.286865	-0.387695	0.853299	0.375358	0.228584	-0.280599	-5.98512	5.33096	6.59839	0.163725	-0.0108876	-0.0373116	0.80127	-0.294434	-0.489502	0.435436	0.645837	0.142975	-0.610613	-8.78593	3.68806	1.33332	-0.0316275	0.0121233	-0.0234239	0.947998	-0.00146484	-0.391602	0.732218	0.535399	0.081317	-0.413027	-5.38531	7.10043	4.07429	0.0328692	0.0215582	-0.0615213	0.793213	-0.4021	-0.475098	0.988121	-0.0038379	0.0806349	-0.130767	-3.36092	-1.58018	12.7912	0.115164	0.0637909	-0.0368062	0.700195	0.170898	-0.700684	0.329648	-0.507274	-0.515431	-0.606907	9.01783	2.8213	-0.230311	0.0848827	-0.160318	-0.0123605	-0.970215	0.101318	0.15625	0.406631	-0.574909	-0.437403	-0.559294	9.71344	0.0704406	-0.231206	0.0112033	-0.00411487	-0.00172308	-0.977783	0.408203	0.167236	0.421666	-0.547312	-0.460265	-0.557497	9.802	0.770451	-0.162938	-0.131568	0.00353374	-0.00964006	-1.01953	0.351074	0.111572	0.488631	-0.5911	-0.465113	-0.442165	9.62002	-1.56986	-1.19217	0.0393892	0.0306907	0.00747479	-0.866455	0.563965	0.152832	0.549095	-0.568054	-0.455051	-0.410777	9.69752	-2.34576	-0.663245	0.0556402	0.00857546	-0.00299233	-0.896729	0.689453	0.0388184	
