40	Head	00b4120a												Throax	00b411e8												LUpArm	00b411d9												LFoArm	00b41148												RUpArm	00b411db												RFoArm	00b41204												Waist	00b411f7												Lthigh	00b411f4												Lshank	00b4111b												Rthigh	00b411c8												Rshank	00b411ee												
PacketCount	q0	q1	q2	q3	accX	accY	accZ	gyrX	gyrY	gyrZ	magX	magY	magZ	q0	q1	q2	q3	accX	accY	accZ	gyrX	gyrY	gyrZ	magX	magY	magZ	q0	q1	q2	q3	accX	accY	accZ	gyrX	gyrY	gyrZ	magX	magY	magZ	q0	q1	q2	q3	accX	accY	accZ	gyrX	gyrY	gyrZ	magX	magY	magZ	q0	q1	q2	q3	accX	accY	accZ	gyrX	gyrY	gyrZ	magX	magY	magZ	q0	q1	q2	q3	accX	accY	accZ	gyrX	gyrY	gyrZ	magX	magY	magZ	q0	q1	q2	q3	accX	accY	accZ	gyrX	gyrY	gyrZ	magX	magY	magZ	q0	q1	q2	q3	accX	accY	accZ	gyrX	gyrY	gyrZ	magX	magY	magZ	q0	q1	q2	q3	accX	accY	accZ	gyrX	gyrY	gyrZ	magX	magY	magZ	q0	q1	q2	q3	accX	accY	accZ	gyrX	gyrY	gyrZ	magX	magY	magZ	q0	q1	q2	q3	accX	accY	accZ	gyrX	gyrY	gyrZ	magX	magY	magZ	
0	-0.205415	0.00974849	0.411254	0.88802	2.01744	7.48379	7.02416	0.0438757	-0.0442066	0.0508319	-0.510254	-0.551758	-0.709229	0.218502	-0.0599934	-0.798851	-0.557221	4.35795	8.19418	-2.75399	0.0486866	-0.00291292	0.00458088	-0.62207	-0.852783	0.155029	0.696305	0.117625	-0.707469	0.0284965	9.60219	0.628797	-0.0610226	0.149455	-0.00942078	0.0439622	-1.10229	-0.323486	-0.262451	0.553634	0.382834	-0.60224	0.429224	9.84084	-0.872696	-0.0695634	-0.106802	0.0229282	0.0312983	-1.11377	-0.222656	-0.0795898	0.118349	0.57229	0.00073944	-0.811466	-8.96401	1.425	3.43685	0.0228858	0.0114095	0.0121653	0.784912	-0.0422363	-0.669434	0.658617	0.262359	0.527203	-0.468454	-9.47535	-1.40852	3.66793	-0.0250731	0.0620767	0.000622734	0.852295	0.518799	-0.0461426	0.116694	-0.229918	-0.881263	-0.396101	4.16583	5.5598	-6.21137	0.108757	0.0352941	-0.0451727	-0.696289	-0.504883	0.611816	0.96647	-0.119803	-0.0897859	-0.208617	2.72251	-2.0067	10.6058	0.0219795	0.00384682	0.0416517	0.0839844	0.304932	-1.02393	0.730704	0.0830455	-0.669572	0.104153	10.0178	-0.309431	0.825831	-0.14039	0.0183181	-0.0560681	-1.06885	-0.0849609	-0.381836	0.288359	-0.248915	-0.809425	-0.446901	6.62006	5.59774	-4.07045	0.137427	-0.0439385	0.00913578	-0.945557	-0.349365	0.361084	0.35524	-0.192103	-0.746187	-0.52925	7.27424	6.8573	-1.69526	0.126841	0.00872724	-0.00295733	-1.05347	-0.367432	0.0600586	
1	-0.204955	0.0109856	0.413264	0.887179	2.21199	7.67651	6.87161	0.0710131	-0.0765404	-0.00452087	-0.516602	-0.556152	-0.709229	0.218861	-0.0595578	-0.799711	-0.555891	4.33913	8.4609	-2.76821	0.050727	0.0259035	-0.0165891	-0.62207	-0.850586	0.157227	0.696201	0.117898	-0.707496	0.0292255	9.92023	1.26974	-0.0305228	-0.0944113	0.0169515	-0.00336305	-1.10449	-0.325684	-0.266846	0.553509	0.382486	-0.602341	0.429554	9.71231	-0.870409	-0.237388	0.0606426	0.000905485	0.00452994	-1.10278	-0.218262	-0.0773926	0.120139	0.572096	0.00137918	-0.811339	-9.03902	1.21708	3.34339	-0.0487589	0.00683129	0.00740243	0.786865	-0.0378418	-0.67627	0.659101	0.261445	0.527137	-0.468357	-9.69679	-1.36591	3.72808	0.0085301	-0.0295133	-0.0265849	0.860596	0.522949	-0.0505371	0.119156	-0.227823	-0.882259	-0.394356	3.79544	6.20277	-6.07199	-0.0228273	-0.0100104	-0.0254076	-0.698486	-0.50708	0.605469	0.966369	-0.121273	-0.0900657	-0.208114	2.43904	-1.92987	10.6399	-0.0462013	-0.00540144	-0.0150194	0.079834	0.304932	-1.02148	0.730588	0.0838695	-0.669459	0.105037	9.87039	0.245298	1.0977	0.0749061	0.0076777	-0.00323802	-1.06641	-0.0871582	-0.38623	0.288719	-0.248374	-0.810022	-0.445888	6.73336	6.01421	-4.19698	0.0523399	0.0325192	0.00975306	-0.940918	-0.349365	0.356445	0.355311	-0.19213	-0.746726	-0.528432	7.27107	6.45223	-1.88796	0.090821	-0.00132656	0.00135613	-1.05566	-0.365234	0.0600586	
2	-0.204067	0.0107002	0.414971	0.88659	2.23399	7.86512	6.80811	0.070229	0.00424705	-0.0458337	-0.514404	-0.55835	-0.704834	0.219352	-0.0592063	-0.8	-0.555319	4.2169	8.53581	-2.77551	0.00816059	0.0239204	-0.00672262	-0.615723	-0.848389	0.157227	0.696097	0.118752	-0.707418	0.0300936	10.0036	1.37321	-0.146967	0.149818	0.024698	-0.0376906	-1.10669	-0.325684	-0.26001	0.552638	0.383533	-0.601723	0.430607	9.77707	-0.493344	-0.606952	0.0229027	0.000151917	0.01479	-1.10718	-0.220459	-0.0773926	0.120525	0.572354	-0.000671196	-0.8111	-9.11378	1.27098	3.25023	0.0744707	0.0060014	0.0674817	0.780518	-0.0422363	-0.671631	0.660031	0.260479	0.526737	-0.468035	-9.57894	-1.67589	3.64434	-0.0410217	-0.0625463	0.000648219	0.86084	0.520996	-0.0571289	0.120412	-0.227161	-0.881694	-0.395619	3.64789	5.7673	-5.84011	0.00746391	0.0858488	-0.0189227	-0.705078	-0.50293	0.605469	0.966266	-0.121184	-0.0898022	-0.208756	2.73586	-2.2084	10.3951	0.00919436	0.0411702	-0.0424804	0.0754395	0.304932	-1.02393	0.730856	0.0815175	-0.669604	0.104086	9.83388	0.0772793	0.999539	-0.135629	0.0243461	0.00663484	-1.06641	-0.0871582	-0.381836	0.287766	-0.249466	-0.809016	-0.447717	6.41868	5.0688	-4.13636	-0.0562865	0.0252034	0.00203354	-0.943115	-0.351562	0.358643	0.355094	-0.192448	-0.74657	-0.528683	7.21316	6.1447	-1.99855	0.018556	0.00592907	-0.0066251	-1.04883	-0.369629	0.0646973	
3	-0.204129	0.00938	0.415487	0.886349	2.01503	7.90535	6.95638	0.0263767	0.0456725	0.00349051	-0.511963	-0.55835	-0.711182	0.219068	-0.0595304	-0.800685	-0.554409	4.12091	8.14708	-2.60443	-0.00673567	-0.0215537	-0.0222187	-0.619873	-0.850586	0.157227	0.696216	0.117676	-0.707536	0.0287865	9.45718	1.10161	-0.122276	-0.207309	-0.0175995	0.0151757	-1.1001	-0.327881	-0.266846	0.552964	0.383147	-0.601997	0.430151	9.75724	-1.33377	0.228681	-0.00188684	0.0145939	0.00532724	-1.11133	-0.224854	-0.0773926	0.120729	0.573025	-0.00164813	-0.810595	-9.05325	1.43159	3.22563	-0.00105181	0.0443538	0.00464475	0.787109	-0.0422363	-0.671631	0.662276	0.259451	0.524551	-0.46789	-9.36549	-1.42727	3.93183	-0.075642	-0.0520074	0.0254206	0.86084	0.520752	-0.0612793	0.119909	-0.227762	-0.881429	-0.396018	3.70186	5.92721	-6.47677	-0.0111901	-0.00661676	-0.00118798	-0.702637	-0.50708	0.605469	0.966253	-0.120225	-0.089598	-0.209458	2.75923	-2.11402	10.5418	0.0710907	0.0440449	-0.0586538	0.079834	0.302734	-1.02148	0.730892	0.0804786	-0.669687	0.104111	9.97123	-0.420382	0.861419	0.0537561	0.0145111	0.0243396	-1.06641	-0.0827637	-0.375	0.287459	-0.249815	-0.809307	-0.447193	6.67136	5.38322	-4.04723	-0.0279415	-0.0147043	0.00846957	-0.936523	-0.346924	0.36084	0.354946	-0.192561	-0.746419	-0.528953	7.10852	6.19803	-1.90774	-0.0213947	0.00246702	-0.00625247	-1.04639	-0.374023	0.0603027	
4	-0.205189	0.00891413	0.415425	0.886138	1.85561	7.78877	7.03331	0.0109301	0.0643263	0.0610693	-0.507568	-0.560303	-0.711182	0.218544	-0.0597297	-0.80123	-0.553806	4.43415	8.41613	-2.72856	0.0265608	0.0116634	-0.0204271	-0.619873	-0.850586	0.159668	0.696347	0.116224	-0.707678	0.0279922	9.68249	0.728679	-0.096798	-0.127436	-0.0015917	0.0360984	-1.10034	-0.323486	-0.264648	0.553089	0.382622	-0.601883	0.430615	9.75505	-1.28978	0.356247	-0.0401703	0.0381264	0.0229256	-1.11133	-0.222656	-0.072998	0.12174	0.573056	-0.00223488	-0.81042	-9.28946	1.51333	3.50373	0.0373737	0.0112132	0.0171727	0.791504	-0.0444336	-0.671631	0.662904	0.258901	0.524352	-0.46753	-9.95411	-0.796912	4.2272	-0.0734913	-0.009017	-0.0178567	0.856445	0.522949	-0.0593262	0.118845	-0.228763	-0.881505	-0.395592	3.82483	5.94579	-6.07662	-0.00635659	-0.0603741	0.0101696	-0.707031	-0.509277	0.605469	0.965955	-0.12196	-0.0901499	-0.209593	2.87255	-2.50949	10.4813	-0.0252973	-0.0209583	-0.00247117	0.0817871	0.306885	-1.01929	0.730859	0.0796613	-0.669813	0.104166	9.8461	-0.847775	0.747289	0.000121767	-0.00275391	-0.0185088	-1.06885	-0.0827637	-0.384033	0.287511	-0.250141	-0.809241	-0.447097	6.72966	5.72743	-4.26177	-0.00121836	-0.0113066	0.0224198	-0.940918	-0.349365	0.358643	0.355088	-0.192261	-0.746799	-0.528431	7.22253	6.51049	-1.93828	0.0616719	0.00917804	-0.00682756	-1.05103	-0.369629	0.0693359	
5	-0.205462	0.00904982	0.415635	0.885975	1.96962	7.64735	7.07049	0.0177663	-0.00939357	0.0246953	-0.516602	-0.55835	-0.709229	0.218468	-0.0596102	-0.801405	-0.553596	4.28007	8.44509	-2.88402	0.0166453	0.0107778	-0.027903	-0.619873	-0.850586	0.162109	0.696089	0.117699	-0.707581	0.0305841	9.69537	1.01962	-0.30253	0.0689465	-0.00078734	0.0829699	-1.10449	-0.323486	-0.257812	0.553278	0.382225	-0.601629	0.431079	10.1546	-1.39176	0.243268	0.00438095	0.0548492	0.0261841	-1.11133	-0.224854	-0.0817871	0.122167	0.573213	-0.00153213	-0.810247	-9.38417	1.53208	3.18142	-0.0623178	0.0311754	-0.0172278	0.789307	-0.0422363	-0.674072	0.663258	0.25851	0.524277	-0.467329	-9.72719	-1.91805	3.90929	-0.00588687	-0.00256654	-0.00879704	0.86084	0.520996	-0.0549316	0.118622	-0.228763	-0.881915	-0.394742	3.95057	5.60775	-6.52325	0.0842938	-0.025899	-0.023023	-0.700684	-0.50293	0.609619	0.965922	-0.121866	-0.0903667	-0.209708	2.85968	-1.87261	10.6522	0.013727	0.00370282	-0.0312431	0.0795898	0.304932	-1.02856	0.730693	0.0801959	-0.669727	0.105462	10.3755	-0.498932	0.692974	0.105785	0.00481703	0.0278813	-1.06421	-0.0825195	-0.38623	0.287285	-0.250483	-0.809126	-0.44726	6.67784	5.08026	-3.78494	-0.0242502	-0.00979515	0.0140191	-0.938721	-0.351562	0.361084	0.354738	-0.19338	-0.745686	-0.529827	7.17145	5.95553	-1.77324	-0.0333017	-0.00218938	0.00849544	-1.04663	-0.369629	0.0646973	
6	-0.20517	0.00806324	0.416817	0.885497	1.70794	7.88322	7.03508	0.04524	-0.0218055	-0.0293349	-0.507568	-0.560547	-0.704834	0.218081	-0.0600082	-0.80193	-0.552944	4.32649	8.15018	-2.83752	0.027498	-0.00447405	-0.00641678	-0.62207	-0.852539	0.164551	0.696608	0.115724	-0.707428	0.0298571	9.67276	0.792131	0.0196741	-0.0810972	0.0484861	0.00119147	-1.10034	-0.317139	-0.260254	0.553127	0.383515	-0.59999	0.43241	9.7873	-1.08987	0.0537645	0.0608185	0.0164448	-0.0208937	-1.11157	-0.218262	-0.0842285	0.122859	0.573098	-0.00164408	-0.810223	-9.15864	1.87711	3.42931	-0.166352	0.00113723	-0.000157336	0.787109	-0.0422363	-0.67627	0.663955	0.258046	0.524116	-0.466775	-9.54282	-0.883457	4.01867	-0.159086	-0.0116547	-0.00195803	0.854736	0.512207	-0.0588379	0.117861	-0.229344	-0.882656	-0.392975	3.80336	5.57484	-6.13329	0.0917678	0.0296908	-0.0211395	-0.703125	-0.498535	0.615967	0.965845	-0.122366	-0.0909808	-0.209508	2.73536	-2.03115	10.2138	0.0571557	-0.00353008	-0.00831641	0.0708008	0.309082	-1.01929	0.731316	0.0782956	-0.669436	0.104412	9.91155	-0.683743	0.4735	0.0131256	0.0397224	-0.0253636	-1.06885	-0.0827637	-0.38623	0.286771	-0.251145	-0.809628	-0.446309	6.6716	5.20799	-4.20023	-0.05934	-0.0464898	0.00517939	-0.945312	-0.351562	0.358643	0.355181	-0.192769	-0.74672	-0.528296	7.35535	6.88518	-1.93596	0.00124586	0.0113258	0.00538236	-1.04883	-0.367432	0.0668945	
7	-0.20417	0.00931504	0.417892	0.885208	2.02144	8.02926	6.80478	0.0237221	-0.0756067	-0.00301896	-0.511719	-0.566895	-0.708984	0.218357	-0.060017	-0.802022	-0.552701	4.29249	8.47931	-2.81481	-0.0209298	0.0316548	-0.0136885	-0.626465	-0.850342	0.166748	0.696757	0.116893	-0.707018	0.031492	9.63919	1.29708	0.032195	0.0718076	0.0492237	0.00431342	-1.10474	-0.319092	-0.264893	0.552985	0.383858	-0.599427	0.433067	9.71064	-0.841855	-0.116796	0.0692164	0.0320895	0.000751224	-1.11133	-0.222656	-0.0839844	0.123674	0.572777	-0.00131742	-0.810327	-8.95794	0.967778	3.02307	-0.0596401	-0.0153194	0.0223311	0.780762	-0.0488281	-0.669434	0.664235	0.258197	0.522953	-0.467597	-9.49527	-1.18181	3.80963	0.178472	-0.0137432	-0.0221909	0.863037	0.518799	-0.059082	0.116774	-0.229804	-0.883038	-0.392171	3.5538	6.00705	-5.72917	0.0581566	-0.101288	-0.0164827	-0.700684	-0.505127	0.618164	0.965892	-0.12179	-0.0907844	-0.20971	2.47546	-2.06999	10.5728	0.0443966	0.0456508	-0.0352281	0.0795898	0.306885	-1.02148	0.731316	0.0782956	-0.669436	0.104412	9.91155	-0.683743	0.4735	0.0131256	0.0397224	-0.0253636	-1.06885	-0.0827637	-0.38623	0.286847	-0.25102	-0.810295	-0.445118	6.46258	5.48317	-4.18657	0.109213	-0.018485	0.00950381	-0.941162	-0.344971	0.36084	0.35582	-0.192672	-0.747073	-0.5274	7.04967	6.57013	-1.80732	0.142312	0.0188522	0.0144723	-1.05347	-0.367432	0.0600586	
8	-0.203727	0.0111385	0.417293	0.885572	2.32651	7.77521	6.75014	-0.0621154	-0.0607336	0.00522599	-0.51416	-0.560547	-0.700439	0.217841	-0.060474	-0.801367	-0.553805	4.2263	8.16224	-2.8118	-0.0381535	-0.0158644	-0.0270771	-0.624268	-0.850342	0.166748	0.697154	0.117373	-0.706546	0.0315005	9.96477	1.04538	-0.254967	-0.000972344	0.0230828	-0.0191333	-1.10034	-0.319336	-0.271729	0.552349	0.385113	-0.598102	0.434595	9.77598	-1.23259	0.227562	0.0441495	0.0270065	0.00324874	-1.11133	-0.224854	-0.0751953	0.121753	0.572854	-0.0048544	-0.81055	-8.92758	2.01893	3.45702	0.0902276	-0.0132455	-0.0169727	0.785156	-0.0510254	-0.669434	0.665926	0.255651	0.522347	-0.467267	-9.53191	-1.27011	4.19016	-0.0850805	-0.0741035	-0.0302474	0.858398	0.522949	-0.0656738	0.115386	-0.230772	-0.882629	-0.392934	3.78937	5.69608	-6.50047	-0.0391122	0.0540343	-0.0083984	-0.698486	-0.50293	0.620361	0.966034	-0.120375	-0.09061	-0.209947	2.81331	-2.24501	10.3813	0.0976734	0.038011	-0.0396477	0.0795898	0.306885	-1.02148	0.731941	0.0760771	-0.669216	0.103077	9.94292	-0.788077	0.807807	-0.118565	0.0111879	0.00797365	-1.06445	-0.0756836	-0.386475	0.286222	-0.251377	-0.810573	-0.444812	6.69002	5.42377	-4.20121	0.000421928	-0.00435132	-0.00412302	-0.938721	-0.349365	0.363281	0.356071	-0.192765	-0.747343	-0.526814	7.34894	6.0233	-1.96619	0.0149964	0.00427366	0.00720391	-1.05566	-0.365234	0.0668945	
9	-0.203641	0.0113536	0.416904	0.885772	2.13792	7.53305	6.75307	-0.000537567	0.00189763	0.00162815	-0.516113	-0.567139	-0.704834	0.217799	-0.0604199	-0.801262	-0.553979	4.35986	8.31581	-2.85984	-0.0203593	0.0307551	-0.0165719	-0.619873	-0.852539	0.169189	0.696834	0.11657	-0.70703	0.0306859	9.61485	0.839322	-0.148008	-0.0246668	-0.0344169	-0.0270571	-1.10034	-0.323486	-0.264648	0.552745	0.384486	-0.598541	0.434042	9.90515	-0.959393	-0.05902	-0.0839715	0.0108201	0.00617588	-1.11597	-0.222656	-0.0795898	0.124129	0.57168	-0.00251021	-0.811029	-8.93934	0.754446	3.11905	-0.0644377	-0.0311508	0.0121895	0.784912	-0.0466309	-0.671631	0.665648	0.255092	0.521898	-0.46847	-9.48032	-0.943537	4.34848	0.0489626	0.0191502	-0.0717384	0.860596	0.520752	-0.0634766	0.112882	-0.232027	-0.883266	-0.391488	3.70431	5.87449	-6.14356	0.0217743	-0.199074	-0.00500947	-0.694092	-0.50708	0.620361	0.966025	-0.120611	-0.0905873	-0.209865	2.74738	-2.24414	10.6989	-0.0136838	0.0148807	-0.0100913	0.0795898	0.306885	-1.02148	0.732192	0.0752947	-0.669077	0.102768	9.72442	-0.561323	0.850861	-0.0123401	0.0110307	-0.0109032	-1.06689	-0.0759277	-0.384033	0.285461	-0.25259	-0.810359	-0.445004	6.73837	5.01816	-4.07954	-0.0903085	-0.0324611	0.0163807	-0.941162	-0.342773	0.369873	0.356142	-0.193395	-0.746418	-0.527847	7.17355	6.45259	-1.78427	-0.142957	0.00958984	0.0125328	-1.05322	-0.369629	0.0600586	
10	-0.203605	0.0109921	0.418005	0.885266	2.30968	7.59722	6.75725	0.0630865	0.0223274	-0.00644189	-0.518311	-0.567139	-0.708984	0.21774	-0.0601747	-0.80188	-0.553134	4.23785	8.42017	-2.72213	0.0297467	0.0148121	-0.0243739	-0.619873	-0.850342	0.164307	0.696746	0.115552	-0.707253	0.031384	9.5347	0.583008	-0.176624	0.044494	-0.0277472	0.0772021	-1.10669	-0.323486	-0.269287	0.553069	0.384095	-0.598292	0.434318	9.73477	-1.07811	0.306555	-0.00235129	0.0182474	0.0042126	-1.11353	-0.227051	-0.0839844	0.122647	0.570949	-0.00402952	-0.811763	-9.03031	1.84761	3.50563	3.39452e-05	-0.0366696	-0.0358324	0.778564	-0.0488281	-0.678711	0.665297	0.253387	0.523376	-0.468244	-9.57106	-2.09056	4.09076	0.0412346	0.0680335	-0.0763555	0.851807	0.527344	-0.0615234	0.112116	-0.232524	-0.883569	-0.390729	3.41768	5.64787	-6.0754	0.0773403	-0.0340303	-0.00851841	-0.694336	-0.498535	0.626709	0.965763	-0.121869	-0.0910654	-0.210135	2.77175	-2.60522	10.2607	-0.0852659	-0.0234011	-0.00120996	0.0751953	0.309082	-1.01929	0.732228	0.0757617	-0.668867	0.103536	9.88231	-1.05984	0.982923	0.115654	0.00724808	-0.02378	-1.06689	-0.0759277	-0.388672	0.286	-0.252151	-0.810964	-0.443803	6.50351	5.17105	-4.1973	0.0647054	-0.0197478	0.0211562	-0.938965	-0.347168	0.367676	0.356716	-0.192304	-0.748143	-0.525409	7.36404	6.91773	-1.89804	0.19539	0.00658822	-0.00759101	-1.04688	-0.363037	0.0646973	
11	-0.203964	0.0100194	0.418855	0.884793	2.00219	7.63143	6.82028	0.0917315	0.0619609	-0.00210175	-0.51416	-0.562744	-0.702637	0.217521	-0.0604838	-0.801904	-0.553151	4.26397	8.2532	-2.99709	-0.0134457	-0.0144787	-0.00979289	-0.619873	-0.852539	0.171387	0.696725	0.11544	-0.707261	0.0321035	9.87952	1.22975	0.0512349	0.0349963	0.00846768	0.043734	-1.10474	-0.314941	-0.262695	0.55309	0.383495	-0.598375	0.434708	9.60265	-0.917781	-0.0541863	0.0179106	0.0168669	0.0308259	-1.11133	-0.222656	-0.0861816	0.122576	0.570412	-0.00384219	-0.812152	-8.78935	1.56353	3.33185	0.0379666	-0.0148287	-0.0360209	0.782959	-0.0488281	-0.680908	0.664285	0.254149	0.523383	-0.469259	-9.49145	-1.05477	4.06262	0.130972	0.0768556	-0.0784858	0.854004	0.527344	-0.0615234	0.110352	-0.233175	-0.884589	-0.388528	3.5772	5.93337	-6.22545	0.0535215	-0.033887	-0.010943	-0.683594	-0.502686	0.626709	0.965842	-0.122569	-0.0911528	-0.209328	2.57654	-2.04703	10.3743	-0.0539755	-0.0153757	0.0162396	0.0773926	0.306885	-1.01929	0.732467	0.0747222	-0.668968	0.101933	9.73188	-0.416724	0.754414	-0.157135	0.00154523	-0.0430159	-1.0647	-0.0734863	-0.390869	0.285943	-0.252004	-0.811292	-0.443323	6.60826	5.48234	-4.31828	0.0479216	-0.00445084	-0.00570307	-0.93457	-0.342529	0.367676	0.356164	-0.193589	-0.746584	-0.527526	7.35124	6.6115	-2.04119	-0.234063	-0.00311409	0.0128371	-1.04883	-0.367432	0.0715332	
12	-0.20389	0.00992515	0.421118	0.883736	1.88987	8.18897	6.77963	0.0860571	-0.0556653	0.00482132	-0.513916	-0.567139	-0.700439	0.216311	-0.0612984	-0.803115	-0.551778	4.19982	8.46134	-2.88812	-0.0506591	-0.0222913	-0.0539208	-0.620117	-0.845947	0.173584	0.69674	0.115787	-0.707173	0.0324541	9.26503	0.452717	-0.402927	0.0494333	-0.0185406	0.0169866	-1.09839	-0.314941	-0.262695	0.552567	0.384168	-0.598316	0.434859	9.82242	-0.860205	-0.325904	0.0695074	-0.0214337	-0.00878487	-1.11353	-0.224854	-0.0773926	0.122543	0.569876	-0.00414114	-0.812532	-8.83934	1.25582	3.40432	-1.58874e-05	-0.000575499	0.00961083	0.781006	-0.0532227	-0.678711	0.663954	0.253027	0.524331	-0.469275	-9.54865	-1.13052	3.90872	0.0886808	0.0255148	-0.0614395	0.847412	0.527344	-0.0637207	0.106961	-0.234794	-0.885173	-0.387169	3.63839	5.7981	-6.57364	-0.036623	-0.13056	-0.0237669	-0.685791	-0.498535	0.63501	0.965749	-0.122248	-0.0912379	-0.209905	2.62854	-2.20618	10.5776	0.0248672	0.0346883	-0.0641765	0.0773926	0.306885	-1.01929	0.732352	0.0764846	-0.668577	0.103997	10.0089	0.101123	1.06753	0.13216	0.0176633	0.00575789	-1.06689	-0.0712891	-0.388672	0.286495	-0.251406	-0.811694	-0.44257	6.69463	5.47832	-4.27215	0.0161157	0.0438013	-0.00224598	-0.943359	-0.347168	0.367676	0.357243	-0.191749	-0.748425	-0.524852	7.15179	6.81182	-1.59593	0.13811	0.0238895	-0.0149357	-1.05103	-0.367432	0.0646973	
13	-0.203581	0.0108822	0.421646	0.883545	2.1691	7.76769	6.65891	0.00410604	-0.0346435	-0.00717295	-0.520508	-0.567139	-0.700439	0.215805	-0.0614603	-0.803161	-0.55189	4.08818	8.41857	-3.04879	-0.0192629	-0.0287639	-0.0331131	-0.624268	-0.850342	0.176025	0.69661	0.115692	-0.707358	0.031526	9.71748	1.04929	-0.140606	-0.0289142	-0.0112022	-0.0240276	-1.1001	-0.325684	-0.26001	0.553283	0.382734	-0.599624	0.433409	9.84983	-1.3312	0.492885	-0.141409	0.00625892	0.00472958	-1.11572	-0.224854	-0.0839844	0.122182	0.569986	-0.0046694	-0.812506	-8.97701	1.66473	3.32245	0.0525734	0.00985688	-0.0142091	0.782959	-0.0510254	-0.67627	0.664695	0.251333	0.525044	-0.468339	-9.48707	-1.63705	3.9489	-0.145669	-0.0117469	-0.0258837	0.851807	0.529541	-0.057373	0.105014	-0.236385	-0.884488	-0.388297	3.66542	5.8558	-6.34466	-0.0499237	-0.0846474	0.0280117	-0.685791	-0.500732	0.633057	0.965761	-0.120952	-0.0913394	-0.210555	2.84783	-2.28388	10.2751	0.0312466	0.0104056	-0.0389342	0.0754395	0.306885	-1.01929	0.732307	0.0752973	-0.668839	0.103493	9.88232	-0.177282	1.12514	-0.0941233	-0.00600541	0.0154623	-1.06445	-0.0759277	-0.384033	0.28594	-0.25216	-0.810945	-0.443872	6.37491	5.65665	-4.1512	-0.136266	-0.00805681	0.0158101	-0.943115	-0.349365	0.365479	0.356661	-0.19308	-0.746839	-0.527014	7.12002	6.24244	-2.07178	-0.0887841	0.00512756	0.000998195	-1.05103	-0.367432	0.0646973	
14	-0.202954	0.00955511	0.422463	0.883314	2.3174	8.04586	6.73769	0.0513102	0.0687973	-0.0344166	-0.511475	-0.571533	-0.698242	0.215048	-0.0617924	-0.803243	-0.552029	4.22799	8.61102	-2.90547	-0.0633576	-0.00898795	-0.0200511	-0.622314	-0.848145	0.176025	0.696418	0.116621	-0.707375	0.0319627	9.88656	0.910093	-0.25176	0.0775787	-0.00591351	-0.0298238	-1.10254	-0.323486	-0.26709	0.553959	0.381903	-0.600061	0.432673	9.78616	-1.09145	0.398831	-0.113149	0.0258074	-0.00154546	-1.10962	-0.21167	-0.0842285	0.123823	0.569973	-0.0037644	-0.812271	-9.08258	1.09203	3.31875	-0.0569194	0.0428825	0.0281133	0.778564	-0.0510254	-0.680908	0.665223	0.251356	0.524247	-0.46847	-9.72209	-1.48585	4.10468	0.101183	-0.00627273	-0.00174677	0.854004	0.527344	-0.0656738	0.104442	-0.237032	-0.884167	-0.388789	3.39618	5.59508	-6.2292	-0.0459653	-0.0395461	0.0137025	-0.679443	-0.498535	0.633057	0.965622	-0.121621	-0.0916649	-0.210668	2.71018	-2.32849	10.4516	-0.0440541	-0.0182204	-0.0275406	0.0751953	0.309082	-1.02393	0.731865	0.0768364	-0.668789	0.105787	9.82842	-0.867477	0.86606	0.249388	-0.00658877	0.0110648	-1.06665	-0.0803223	-0.388428	0.286569	-0.251663	-0.810289	-0.444945	6.36525	5.55596	-4.02936	0.108104	0.0739432	-0.00101938	-0.940918	-0.349365	0.363281	0.356833	-0.192442	-0.747332	-0.526432	7.22384	6.68429	-1.87068	0.0311863	0.0123048	-0.0154627	-1.04883	-0.367432	0.0646973	
15	-0.203879	0.00814253	0.423044	0.882837	1.94278	8.13571	6.93337	0.035732	0.0329993	0.0220342	-0.513916	-0.569336	-0.698242	0.21462	-0.0624705	-0.803165	-0.552233	4.42924	7.89457	-2.84355	0.0115166	-0.00992668	-0.00930872	-0.62207	-0.854736	0.17627	0.697054	0.112461	-0.70753	0.0294996	9.94237	0.41676	0.0783989	0.027472	0.0157313	0.0190791	-1.10693	-0.316895	-0.26709	0.554146	0.382215	-0.599765	0.432569	9.81202	-0.669135	-0.156154	0.00246791	-0.00138966	-0.0189793	-1.11133	-0.222656	-0.0839844	0.122636	0.570819	-0.00513118	-0.811849	-8.90686	1.57502	3.41365	0.0414305	0.0346492	-0.031919	0.783203	-0.0532227	-0.678711	0.666593	0.251438	0.523357	-0.467473	-9.39295	-1.57966	4.01137	0.0658853	0.0035763	0.0500875	0.858398	0.522949	-0.0593262	0.102894	-0.237661	-0.883843	-0.389553	3.87285	5.5744	-6.47434	-0.0266214	0.0228096	-0.0184147	-0.679443	-0.498535	0.639404	0.965916	-0.121121	-0.0914856	-0.209681	2.6366	-2.30757	10.5852	-0.000630486	0.0181221	0.0312358	0.072998	0.309082	-1.02148	0.731708	0.0772585	-0.669037	0.104994	9.89778	-0.258444	1.09088	-0.0589416	0.00381437	-0.0806151	-1.06689	-0.0759277	-0.386475	0.285651	-0.252291	-0.810163	-0.44541	6.67255	5.27573	-4.16447	-0.0446602	-0.0108224	-0.0188391	-0.936523	-0.349121	0.365479	0.35639	-0.192882	-0.746333	-0.527986	7.17605	5.7002	-1.99532	0.0260922	0.0202194	-0.0165311	-1.04688	-0.363037	0.0600586	
16	-0.204448	0.00847002	0.423458	0.882504	1.80668	8.01693	6.85975	0.0353855	-0.015086	0.0541769	-0.518066	-0.571533	-0.693848	0.215007	-0.062863	-0.803254	-0.551908	4.22104	8.34989	-2.90034	-0.0167628	0.0133892	0.00561093	-0.619629	-0.856934	0.17627	0.696905	0.116297	-0.706913	0.0327442	9.5487	1.0374	-0.220328	0.143955	0.0359819	-0.0345894	-1.10254	-0.312744	-0.264893	0.553771	0.382921	-0.599468	0.432836	9.60353	-0.92847	-0.124911	0.0609088	-0.0146283	-0.0171504	-1.10669	-0.227051	-0.0817871	0.123415	0.570962	-0.0049363	-0.811632	-8.90601	1.54331	3.52214	-0.0458244	0.0282619	0.0290012	0.782959	-0.0510254	-0.671631	0.667531	0.250337	0.523641	-0.466405	-9.4408	-1.38891	3.99402	-0.0704022	-0.00410909	-0.0106388	0.854004	0.527344	-0.0637207	0.102248	-0.237577	-0.88541	-0.386202	3.22495	6.19802	-6.08801	0.0678294	-0.128419	-0.0296772	-0.679443	-0.498535	0.645752	0.965971	-0.121329	-0.0913183	-0.20938	2.82723	-2.06963	10.5807	-0.0115665	0.0251493	0.00954226	0.079834	0.300537	-1.02856	0.731909	0.0777591	-0.668884	0.104192	9.75775	-0.238458	0.846091	-0.0102446	0.0155382	-0.0966076	-1.06445	-0.078125	-0.38623	0.286037	-0.251358	-0.81115	-0.443889	6.89716	5.31749	-4.36961	0.0460246	0.0136188	-0.0188903	-0.941162	-0.347168	0.374512	0.356765	-0.191714	-0.747681	-0.526249	7.34466	6.6352	-1.75487	-0.0317796	-0.00675739	-0.00828471	-1.04883	-0.369629	0.0693359	
17	-0.204525	0.0118891	0.424199	0.88209	2.24979	7.57407	6.60644	-0.0026386	-0.074686	-0.00424098	-0.518311	-0.567139	-0.691895	0.21415	-0.0631267	-0.803139	-0.552379	4.38426	8.58518	-2.8887	-0.0242456	-0.0264717	-0.0437021	-0.619873	-0.850342	0.173828	0.69675	0.114202	-0.707467	0.0314186	9.87845	1.40977	0.0682409	-0.120489	-0.035454	0.0118477	-1.10034	-0.317139	-0.26709	0.552596	0.384816	-0.598602	0.433854	9.91205	-0.585899	-0.427345	-0.0223376	-0.023573	-0.0264071	-1.11133	-0.222656	-0.0773926	0.124201	0.570739	-0.00575082	-0.811663	-9.01099	1.68619	3.3646	0.00502893	-0.00580771	0.0246068	0.781006	-0.0554199	-0.683105	0.668931	0.248283	0.523118	-0.466085	-9.70371	-1.12377	4.03286	-0.101238	-0.0831283	-0.0302341	0.854248	0.522949	-0.0612793	0.0988052	-0.238908	-0.884703	-0.387893	3.90765	5.83088	-6.63048	-0.0322832	-0.0395749	-0.0212099	-0.673096	-0.496338	0.643555	0.966197	-0.120452	-0.0908094	-0.209067	2.62924	-2.37266	10.5962	0.0492278	0.0218239	-0.00374178	0.0776367	0.300537	-1.02148	0.731706	0.0812967	-0.668353	0.106309	10.0092	0.166653	1.21411	0.0713999	-0.00178817	-0.0357056	-1.06885	-0.0803223	-0.388428	0.286156	-0.251396	-0.810955	-0.444147	6.42151	5.57265	-4.17191	-0.0688768	-0.00992037	0.0166903	-0.941162	-0.342773	0.369873	0.356828	-0.191871	-0.747388	-0.526566	7.03415	6.53554	-1.92871	-0.0081984	0.0168339	0.00080194	-1.05103	-0.369629	0.0625	
18	-0.203731	0.0122546	0.424956	0.881905	2.3927	7.99758	6.63218	0.0260261	-0.018461	-0.00286976	-0.522461	-0.57373	-0.689697	0.214377	-0.0631125	-0.802378	-0.553398	3.9992	8.26853	-2.69232	-0.0424796	0.013289	-0.0153905	-0.62207	-0.852539	0.173828	0.697004	0.116543	-0.70682	0.0317594	9.50689	0.31147	-0.484121	0.134457	0.0170153	-0.0342401	-1.11108	-0.321289	-0.26709	0.552277	0.385099	-0.598658	0.433932	9.66987	-1.35736	0.501357	0.0114477	-0.00513528	0.000867679	-1.11377	-0.222656	-0.0773926	0.124731	0.570365	-0.00536567	-0.811848	-9.21753	0.908909	2.97709	0.083764	-0.0287025	-0.0180218	0.783203	-0.0532227	-0.680908	0.668382	0.249618	0.520849	-0.468693	-9.46365	-1.20765	4.25872	0.236561	0.00867548	-0.0389545	0.856201	0.527344	-0.0678711	0.0988857	-0.238846	-0.884172	-0.389119	3.05116	5.74661	-6.0919	-0.0364722	-0.0769115	-0.0201864	-0.672607	-0.502686	0.643799	0.966189	-0.120096	-0.0908324	-0.209299	2.66055	-2.04553	10.3404	0.00912917	0.0199303	-0.0413987	0.0795898	0.307129	-1.02637	0.731642	0.0811065	-0.668489	0.106038	9.80479	-0.822962	0.730011	0.086424	0.00250958	-0.0177237	-1.06421	-0.0825195	-0.38623	0.287632	-0.25042	-0.810018	-0.445452	6.38453	5.63884	-4.30233	0.0406811	0.128178	0.000356637	-0.938965	-0.344971	0.365479	0.356655	-0.191505	-0.747937	-0.526035	7.22987	6.57525	-1.98626	0.104656	-0.000493787	-0.0193347	-1.04883	-0.369629	0.0646973	
19	-0.204352	0.0117614	0.424994	0.88175	2.37577	7.86842	6.70315	0.0158199	0.0512529	0.0275944	-0.522461	-0.571533	-0.694092	0.213976	-0.0630816	-0.802249	-0.553743	4.24653	8.42135	-2.74823	-0.0189557	-0.00442005	-0.02202	-0.622314	-0.848145	0.173584	0.697004	0.116543	-0.70682	0.0317594	9.50689	0.31147	-0.484121	0.134457	0.0170153	-0.0342401	-1.11108	-0.321289	-0.26709	0.552277	0.385602	-0.598362	0.433894	9.69694	-0.757339	-0.337633	-0.0102678	0.00519129	-0.0090242	-1.11133	-0.222656	-0.0839844	0.124057	0.569973	-0.00655218	-0.812217	-8.98799	2.19165	3.62431	-0.125755	-0.00936633	-0.0294935	0.776611	-0.0554199	-0.678711	0.669558	0.246533	0.522682	-0.466602	-9.59738	-1.86742	4.13837	-0.143597	0.017859	-0.0375219	0.854004	0.527344	-0.0656738	0.0966788	-0.240273	-0.88386	-0.389504	3.50922	5.81276	-6.40919	-0.0356967	-0.0236326	-0.00583988	-0.668213	-0.50708	0.643799	0.966259	-0.120354	-0.091058	-0.208727	2.77035	-2.35944	10.5986	0.0149123	-0.0114724	0.0254815	0.079834	0.302734	-1.01904	0.731239	0.0840112	-0.668302	0.107726	9.82016	-0.082517	1.04919	0.0682182	-0.0125553	-0.0639926	-1.0708	-0.0895996	-0.388428	0.287474	-0.250739	-0.808817	-0.447552	6.51729	4.95162	-4.35694	-0.11918	0.0333689	-0.0241913	-0.936768	-0.342773	0.36084	0.356145	-0.192421	-0.746729	-0.52776	7.41073	7.00051	-2.21386	-0.184856	-0.00121162	-0.0014476	-1.04639	-0.369629	0.0603027	
20	-0.205188	0.0106649	0.424906	0.881612	1.84622	7.92225	6.77006	-0.00194615	0.0234174	0.00673631	-0.511475	-0.57373	-0.693848	0.214281	-0.0630676	-0.801949	-0.554061	4.28021	8.27819	-2.7872	-0.04126	0.0372241	-0.0102788	-0.619873	-0.854736	0.166748	0.697228	0.114904	-0.706913	0.0307057	9.58595	0.222693	-0.362323	0.00676352	-0.0015037	-0.0110067	-1.10254	-0.321289	-0.271729	0.552018	0.385995	-0.598215	0.434077	9.74535	-1.03214	0.0474366	0.0749454	0.008189	0.00464108	-1.11597	-0.222656	-0.0817871	0.125514	0.569121	-0.00372311	-0.812609	-9.02232	0.967718	3.15606	0.0157534	-0.00835898	-0.0280779	0.778564	-0.0510254	-0.680908	0.668979	0.247051	0.522404	-0.467468	-9.49264	-1.44011	4.09302	0.11033	0.0369132	-0.05979	0.847656	0.525146	-0.0678711	0.0954646	-0.240191	-0.88361	-0.390421	3.29291	5.85659	-6.3476	-0.0780416	-0.0420971	-0.0423869	-0.666016	-0.504883	0.650146	0.966157	-0.12077	-0.091253	-0.208873	2.8798	-1.99871	10.4719	-0.0134933	-0.00165163	-0.0153385	0.0776367	0.304932	-1.02148	0.731633	0.0827331	-0.6683	0.10604	10.1687	0.0427747	0.852839	-0.165366	0.0256893	-0.0537264	-1.07104	-0.0849609	-0.384033	0.287409	-0.250603	-0.809109	-0.447143	6.52481	4.94638	-3.86018	0.0400299	-0.00361963	-0.00597266	-0.945557	-0.349365	0.363281	0.356554	-0.191629	-0.747007	-0.527379	7.09648	6.37457	-1.44663	0.12864	0.0294884	-0.0237355	-1.04663	-0.369629	0.0693359	
21	-0.205672	0.0102884	0.424892	0.88151	2.09745	7.76247	6.81328	0.012523	0.0225954	0.00358999	-0.518066	-0.571533	-0.698242	0.213581	-0.0636166	-0.802699	-0.553182	4.08755	8.32199	-3.15508	0.0566748	-0.0576277	-0.0207056	-0.626465	-0.850342	0.176025	0.697067	0.116757	-0.706696	0.0323431	9.58871	1.13432	-0.234793	0.0247657	0.0158817	-0.0314231	-1.10889	-0.323486	-0.260254	0.552859	0.385632	-0.598714	0.43264	9.86169	-1.23155	0.166734	-0.0876238	-0.0135811	-0.0447896	-1.11133	-0.222656	-0.0795898	0.124509	0.56905	-0.00510001	-0.812806	-9.17165	1.54818	3.438	0.136884	-0.0209981	-0.019831	0.778809	-0.0576172	-0.680908	0.669086	0.245579	0.523547	-0.466813	-9.58981	-1.53946	3.85852	-0.101851	0.0255098	-0.032573	0.854004	0.529541	-0.0615234	0.0933281	-0.242088	-0.883854	-0.389212	3.46811	6.30085	-6.33659	0.0124514	-0.0750282	0.0239014	-0.663818	-0.509277	0.654541	0.966171	-0.120286	-0.0914637	-0.208996	2.44417	-2.06963	10.6004	0.0441688	0.0112451	-0.0335623	0.0773926	0.309326	-1.02856	0.731661	0.0860372	-0.667459	0.108481	9.72922	-0.12649	0.889695	0.157425	0.0407851	-0.0287922	-1.06592	-0.0964355	-0.385986	0.289976	-0.249173	-0.809689	-0.445231	6.4887	6.60846	-4.30864	0.0535619	0.0908685	0.0172998	-0.938721	-0.351562	0.358643	0.356142	-0.192377	-0.746323	-0.528351	7.16944	6.73824	-1.59829	-0.112506	-0.0148526	0.00618153	-1.04663	-0.365234	0.0625	
22	-0.205147	0.0100386	0.425511	0.881337	2.0131	8.13002	6.83104	0.0177734	-0.0292721	-0.0229584	-0.518066	-0.57373	-0.69165	0.212852	-0.0636889	-0.802524	-0.553709	4.31219	8.61733	-2.67686	-0.0339354	0.0259816	-0.0247048	-0.619873	-0.850342	0.176025	0.697509	0.113228	-0.706972	0.0291702	9.68169	0.836494	0.144408	-0.114502	0.012622	0.0144674	-1.10254	-0.317139	-0.26709	0.552597	0.386382	-0.598327	0.432839	9.79207	-0.57851	-0.185492	0.060227	-0.00890469	-0.0294904	-1.11353	-0.224854	-0.0795898	0.124756	0.568516	-0.00497606	-0.813142	-8.89214	1.42096	3.41498	-0.0132351	-0.0156024	-0.0155574	0.776611	-0.0532227	-0.678711	0.668853	0.245886	0.522715	-0.467916	-9.68473	-1.29048	4.02889	0.0924646	-0.0138074	-0.036893	0.858398	0.525146	-0.0634766	0.0930056	-0.241885	-0.883161	-0.390983	3.49443	5.70449	-5.94679	-0.136949	0.0324814	-0.0395447	-0.668457	-0.502686	0.645996	0.966233	-0.119682	-0.0919443	-0.208846	2.67728	-2.08936	10.4919	0.030466	-0.0050245	-0.00713157	0.0732422	0.30249	-1.01904	0.731789	0.0873951	-0.666981	0.109468	9.90412	-0.204996	0.881741	0.0930656	0.01923	-0.0207913	-1.06372	-0.0939941	-0.381592	0.289425	-0.249958	-0.808131	-0.447972	6.50843	4.67737	-4.08277	0.0367366	0.0348094	-0.0018612	-0.943359	-0.349365	0.354248	0.356941	-0.191982	-0.746197	-0.528135	7.03572	5.96548	-1.69598	0.0434126	0.0384355	-0.000547515	-1.05103	-0.367432	0.0600586	
23	-0.205021	0.011016	0.425206	0.881501	2.34204	8.04518	6.72298	-0.0312059	-0.0236298	0.0219721	-0.518066	-0.571533	-0.691895	0.213528	-0.0630295	-0.801681	-0.554744	4.178	8.15308	-2.83398	-0.0401923	0.0504955	-0.0272586	-0.615479	-0.852539	0.173828	0.697546	0.117328	-0.70615	0.0318779	9.72575	1.30151	-0.170357	0.107097	0.0261475	-0.0386713	-1.10474	-0.319092	-0.26709	0.552034	0.387583	-0.597519	0.4336	9.82398	-0.945264	0.0118135	0.0314078	-0.0101295	-0.0171113	-1.11572	-0.224854	-0.0773926	0.124797	0.568385	-0.00498848	-0.813228	-8.88799	1.52301	3.53012	-0.0930779	-0.000317723	-0.0147135	0.780762	-0.0510254	-0.683105	0.669877	0.243923	0.522801	-0.467381	-9.35283	-1.80518	4.16764	-0.000513082	-0.0029976	-0.0389197	0.851807	0.529541	-0.0678711	0.093042	-0.242202	-0.882691	-0.39184	3.36721	6.01818	-6.18984	0.00905053	-0.0483334	0.00956842	-0.666016	-0.50708	0.641846	0.966208	-0.1191	-0.0907055	-0.209834	2.5944	-2.21106	10.5943	0.0105021	0.0665452	-0.0437843	0.0773926	0.306885	-1.02148	0.731943	0.0868827	-0.666837	0.109723	9.86828	-0.295643	1.15031	-0.0414	0.010754	0.00802174	-1.06616	-0.0895996	-0.381592	0.29064	-0.249642	-0.807882	-0.447809	6.90989	5.36679	-4.34897	-0.0468182	0.0285247	0.015157	-0.943359	-0.347168	0.354004	0.356876	-0.191974	-0.745858	-0.52866	7.37786	6.69164	-1.81261	-0.103183	0.00568972	-0.00740056	-1.05347	-0.363037	0.0554199	
24	-0.2065	0.0111633	0.424562	0.881465	2.22752	7.57274	6.75968	-0.00827036	0.0343385	0.0588905	-0.518311	-0.567139	-0.698242	0.213658	-0.0631486	-0.802093	-0.554084	4.40968	8.42119	-2.63263	0.0168683	0.0234963	-0.0108548	-0.619873	-0.854736	0.173828	0.697839	0.114777	-0.706396	0.0291903	9.58253	0.981295	0.106295	-0.137006	0.0218439	-0.0251596	-1.10034	-0.317139	-0.271729	0.552447	0.387524	-0.59788	0.432628	9.72439	-0.851967	0.0741117	-0.0783432	-0.0178651	-0.0428151	-1.10645	-0.233643	-0.0793457	0.124896	0.567646	-0.00391738	-0.813734	-9.04987	1.23639	3.36536	0.0596001	-0.0167967	-0.0342581	0.774414	-0.0510254	-0.680908	0.669478	0.242862	0.524037	-0.467122	-9.54889	-1.12257	4.09196	-0.127143	0.0540402	-0.0585346	0.849854	0.525146	-0.0615234	0.091746	-0.243071	-0.88225	-0.392598	3.63104	5.77355	-6.50276	-0.0340277	0.0195409	-0.0229324	-0.663818	-0.50708	0.645996	0.966208	-0.1191	-0.0907055	-0.209834	2.5944	-2.21106	10.5943	0.0105021	0.0665452	-0.0437843	0.0773926	0.306885	-1.02148	0.731673	0.0870808	-0.667227	0.108999	10.0814	-0.429802	0.879442	0.000463431	-0.0297539	-0.048787	-1.06592	-0.0964355	-0.377197	0.290038	-0.250213	-0.807511	-0.448549	6.87303	4.9103	-3.72458	-0.119457	-0.0273355	0.000948087	-0.938721	-0.349365	0.351807	0.356955	-0.191678	-0.745874	-0.528691	7.24317	5.9295	-1.67142	0.108219	0.0164412	-0.0167883	-1.04639	-0.369629	0.0578613	
25	-0.207536	0.0109764	0.424694	0.88116	2.11429	7.7539	6.74425	0.00732462	0.0107706	0.0249913	-0.520508	-0.569336	-0.691895	0.214131	-0.0632379	-0.801506	-0.55474	4.15057	8.17706	-2.84272	-0.0423214	0.0139555	-0.00279662	-0.62207	-0.850342	0.173828	0.697465	0.116992	-0.706276	0.0320884	9.82269	1.11739	-0.0281117	0.230312	-0.0136349	0.024776	-1.10449	-0.325684	-0.262451	0.551863	0.388403	-0.597263	0.433435	9.84916	-0.692982	0.0863462	0.00514451	-0.00601178	-0.0137759	-1.10449	-0.227051	-0.0817871	0.124783	0.566776	-0.00304887	-0.814362	-8.94466	1.55955	3.37701	-0.0404229	-0.0336985	-0.0683518	0.776611	-0.0554199	-0.680908	0.668349	0.242818	0.524965	-0.467719	-9.59811	-1.56014	4.07268	0.0802883	0.0605214	-0.0611517	0.849365	0.533936	-0.0617676	0.0922836	-0.242625	-0.88269	-0.39176	3.23112	6.14327	-5.97981	-0.00514829	0.000187984	-0.0123407	-0.668213	-0.50708	0.645996	0.966366	-0.119033	-0.0902559	-0.209335	2.56129	-2.29954	10.5408	-0.0105255	0.0316385	0.00511739	0.0751953	0.309082	-1.02637	0.731551	0.0870919	-0.667516	0.108031	9.91923	-0.274652	1.1057	-0.0255659	-0.0121616	-0.0370394	-1.06836	-0.0964355	-0.390625	0.291282	-0.248993	-0.80889	-0.445932	6.37234	6.0042	-4.15765	0.168087	0.015256	0.00879639	-0.945557	-0.347168	0.354004	0.356585	-0.191975	-0.745838	-0.528884	7.21305	6.74409	-2.06054	-0.116065	-0.0168379	0.00248051	-1.04663	-0.365234	0.0600586	
26	-0.207968	0.0107589	0.425356	0.880742	2.01803	7.86351	6.77938	0.0381599	0.00159788	0.0138187	-0.520264	-0.571533	-0.693848	0.214316	-0.063213	-0.801607	-0.554526	4.36111	8.4777	-2.81894	-0.00427278	0.0270189	-0.0121296	-0.617676	-0.852539	0.169189	0.698083	0.115846	-0.705941	0.0301132	9.63883	0.678353	-0.248232	-0.202107	0.0272815	-0.0298044	-1.10254	-0.319092	-0.273926	0.551953	0.387897	-0.597623	0.433278	9.81604	-0.795859	-0.30783	-0.0484035	0.00682761	0.0261702	-1.11572	-0.224854	-0.0795898	0.123212	0.566137	-0.00365638	-0.815043	-8.84977	1.4333	3.50757	0.0713578	-0.0258999	-0.0193285	0.776367	-0.0488281	-0.685547	0.667856	0.242556	0.525409	-0.46806	-9.34468	-1.32114	3.75236	0.0109487	0.0435333	-0.0576152	0.847168	0.535889	-0.0639648	0.0917637	-0.242715	-0.883405	-0.390211	3.49765	5.84108	-6.21919	0.0677091	-0.03317	-0.0139678	-0.668213	-0.50708	0.650146	0.966661	-0.1182	-0.0896907	-0.208687	2.42398	-1.94086	10.4677	-0.015974	0.036062	0.00444996	0.0778809	0.29834	-1.0144	0.731557	0.0866014	-0.667789	0.10669	9.63002	0.217447	0.926671	-0.059521	-0.0107406	-0.0440005	-1.06616	-0.0895996	-0.379395	0.289423	-0.249649	-0.80915	-0.446303	6.67041	4.88002	-4.24999	0.0331927	-0.0306581	-0.0265991	-0.941162	-0.344971	0.356201	0.357136	-0.190393	-0.747047	-0.527375	7.03811	6.28823	-1.77306	0.158266	0.0346701	-0.0315774	-1.05542	-0.371826	0.0625	
27	-0.208016	0.0120413	0.425971	0.880416	2.09808	8.00553	6.51214	0.00281152	-0.0631258	0.0349826	-0.524902	-0.567139	-0.696289	0.215015	-0.0629998	-0.800757	-0.555507	4.06845	8.29665	-2.80626	-0.0449709	0.0461683	-0.0205663	-0.619873	-0.850342	0.168945	0.697586	0.11885	-0.705858	0.0318268	9.58573	1.2837	-0.120782	0.268302	0.00439913	-0.0699721	-1.10034	-0.319336	-0.264893	0.551111	0.388876	-0.597767	0.433275	9.7178	-0.438534	-0.297875	-0.0693972	-0.0167866	0.0259895	-1.11548	-0.229248	-0.0773926	0.123618	0.565487	-0.00285006	-0.815435	-8.64931	1.67394	3.6102	-0.0761833	-0.0456701	-0.028511	0.776367	-0.0466309	-0.685547	0.667875	0.240851	0.525922	-0.468337	-9.53503	-1.77844	3.96407	-0.0050645	-0.00754243	-0.0643104	0.847168	0.538086	-0.0639648	0.09174	-0.243113	-0.881815	-0.39355	3.03133	5.97152	-6.49256	-0.166203	-0.00548956	0.00790276	-0.670166	-0.509277	0.645996	0.966791	-0.11697	-0.0892162	-0.208982	2.77416	-2.03247	10.5992	0.0903833	0.0793093	-0.0434254	0.0822754	0.296143	-1.02148	0.731556	0.0857116	-0.668013	0.10601	10.193	-0.0173449	1.1122	-0.0880809	-0.00470345	-0.0112574	-1.06616	-0.0939941	-0.381592	0.289604	-0.249737	-0.809446	-0.445599	6.59309	5.77352	-4.21702	-0.0721459	-0.00827271	0.0206474	-0.943604	-0.342773	0.354004	0.3568	-0.190788	-0.746148	-0.528732	7.36909	6.4968	-2.1511	-0.117506	0.00956175	-0.00326328	-1.05347	-0.365234	0.0693359	
28	-0.208271	0.0124459	0.425754	0.880455	2.45514	7.89832	6.57137	-0.0229498	-0.0207008	0.0287954	-0.520508	-0.567139	-0.689697	0.214641	-0.0630987	-0.800741	-0.555664	4.1264	8.70509	-2.91405	-0.0232538	-0.0162802	-0.0318464	-0.617676	-0.850342	0.168945	0.697792	0.119054	-0.705652	0.0311187	9.71716	1.38128	-0.42078	-0.0312747	0.0193984	-0.0577044	-1.10229	-0.327881	-0.266846	0.551618	0.387993	-0.59864	0.432214	9.95555	-1.64578	0.109631	-0.00307626	0.00174668	-0.00207189	-1.11133	-0.227051	-0.0795898	0.123795	0.564388	-0.0024683	-0.816171	-8.75661	1.40832	3.62632	0.149757	-0.0270896	0.0376441	0.773926	-0.0444336	-0.687744	0.667721	0.240596	0.525832	-0.468789	-9.61197	-1.42909	3.77575	0.0336863	0.00822222	-0.0574539	0.846924	0.54248	-0.0598145	0.090859	-0.243916	-0.881494	-0.393978	3.64121	6.04347	-6.58927	-0.135585	0.14387	-0.0240858	-0.666016	-0.509277	0.643799	0.967281	-0.114565	-0.0879079	-0.208599	3.08493	-1.80081	10.3757	0.150563	0.0782447	0.00865785	0.0847168	0.289551	-1.02588	0.731371	0.0833935	-0.668958	0.103138	10.2179	-0.282416	0.537923	-0.00202822	-0.014198	-0.0284079	-1.073	-0.0964355	-0.385986	0.289231	-0.24973	-0.810073	-0.444706	6.6757	5.31614	-3.80808	0.108113	0.0487005	-0.0055743	-0.936768	-0.344971	0.36084	0.356985	-0.190693	-0.745785	-0.529153	7.13372	6.30971	-1.94602	-0.0331685	0.0390061	-0.00897503	-1.04639	-0.371826	0.0578613	
29	-0.208277	0.0113793	0.42536	0.880659	2.06936	8.10771	6.61101	-0.00847854	0.0409623	-0.0169272	-0.518311	-0.569336	-0.691895	0.215261	-0.0624593	-0.799579	-0.557167	4.29769	7.94065	-2.7962	-0.0743832	0.0716452	-0.0200848	-0.617676	-0.850342	0.164307	0.698105	0.117333	-0.705734	0.0286692	9.81672	0.0332237	-0.0231125	0.086156	0.00267311	-0.0536134	-1.09595	-0.325928	-0.269287	0.551618	0.387993	-0.59864	0.432214	9.95555	-1.64578	0.109631	-0.00307626	0.00174668	-0.00207189	-1.11133	-0.227051	-0.0795898	0.123723	0.564508	-0.0019701	-0.8161	-8.99726	1.8394	3.51985	-0.025584	0.0221035	-0.041476	0.774414	-0.0532227	-0.689941	0.668025	0.238494	0.526765	-0.468382	-9.50295	-1.98241	4.14438	-0.0730517	-0.00468446	-0.0459318	0.842773	0.538086	-0.0661621	0.0922098	-0.243065	-0.881504	-0.394168	2.9955	5.45282	-6.12214	0.0339412	0.134614	-0.034845	-0.665771	-0.511475	0.645996	0.967179	-0.114808	-0.0878215	-0.208976	2.47741	-2.15338	10.739	-0.0204734	0.0239851	-0.0481118	0.0800781	0.296143	-1.02612	0.731448	0.0838778	-0.668758	0.103493	9.71426	-0.0258129	0.984721	0.0484509	0.0192789	-0.0268925	-1.06836	-0.0917969	-0.379395	0.289011	-0.249782	-0.810348	-0.444318	6.4969	5.90129	-4.04561	0.0315192	-0.0191555	0.000827243	-0.947754	-0.347168	0.365479	0.357782	-0.188943	-0.747402	-0.526956	7.15053	7.30665	-1.6746	0.0782171	0.0192876	-0.016623	-1.04858	-0.371826	0.0578613	
30	-0.209975	0.0113421	0.426217	0.879841	2.33415	7.71043	6.70871	0.0835616	0.0221074	0.0760132	-0.522705	-0.569336	-0.691895	0.216017	-0.0620934	-0.801397	-0.554295	4.2824	8.56432	-2.93692	0.160647	0.0144235	-0.00303089	-0.617432	-0.856934	0.169189	0.697671	0.122042	-0.705238	0.0316136	9.83826	1.46268	-0.0739556	0.0398433	0.00971416	-0.0288123	-1.0979	-0.332275	-0.264404	0.55102	0.388939	-0.598783	0.431928	9.666	-0.74771	-0.0838286	0.0192073	-0.035346	-0.0160316	-1.10669	-0.229248	-0.0773926	0.124687	0.563895	-0.00142063	-0.816379	-8.89975	1.35133	3.89686	0.00832985	-0.00876064	0.034533	0.773926	-0.0444336	-0.687744	0.66784	0.238104	0.527569	-0.46794	-9.58772	-1.21467	3.9243	-0.182576	0.0408213	-0.0391792	0.840332	0.544678	-0.0620117	0.0892389	-0.244666	-0.880868	-0.395281	3.84599	6.24921	-6.64318	-0.19541	-0.0607811	-0.0284426	-0.665771	-0.513672	0.64624	0.967133	-0.115314	-0.0879873	-0.208842	2.63297	-2.39345	10.6723	-0.031682	-0.00423672	-0.00649889	0.0800781	0.293945	-1.02612	0.731392	0.0856366	-0.668502	0.1041	10.4052	-0.716501	0.787062	0.182192	0.00565662	-0.0386533	-1.06616	-0.0917969	-0.383789	0.288881	-0.250055	-0.809732	-0.44537	6.6953	5.46142	-4.03562	-0.00575228	0.0210565	0.00191083	-0.945557	-0.344971	0.36084	0.357583	-0.189945	-0.746207	-0.528423	7.19685	5.79913	-1.85226	0.132097	0.0254787	0.00532181	-1.04858	-0.371826	0.0578613	
31	-0.209975	0.0113421	0.426217	0.879841	2.33415	7.71043	6.70871	0.0835616	0.0221074	0.0760132	-0.522705	-0.569336	-0.691895	0.216885	-0.0617567	-0.800789	-0.554872	4.14178	8.26039	-2.87554	-0.0449056	0.0743445	0.00667619	-0.62207	-0.854736	0.166748	0.698122	0.120055	-0.7052	0.0300843	9.57599	0.558663	-0.199352	0.0181233	-0.00546379	-0.00326869	-1.10229	-0.327881	-0.269287	0.549448	0.391598	-0.596841	0.43421	9.77324	-0.59338	-0.153691	0.108492	-0.00133658	-0.0118957	-1.10913	-0.224854	-0.0708008	0.126439	0.563553	0.000638821	-0.816346	-9.09413	1.21568	3.06931	-0.0736021	-0.00800655	-0.0125132	0.771729	-0.0422363	-0.692383	0.668185	0.237302	0.527785	-0.467611	-9.57521	-1.57214	3.92618	0.0884345	0.00605461	0.00120879	0.844971	0.538086	-0.0617676	0.092365	-0.241679	-0.882368	-0.393048	3.23585	5.73533	-6.07817	0.200341	0.156877	-0.075514	-0.659424	-0.509277	0.645996	0.967354	-0.115053	-0.0880978	-0.207911	2.54531	-2.12239	10.7234	0.0682243	-0.0253279	0.0105554	0.0822754	0.29834	-1.02612	0.730916	0.0906069	-0.667862	0.107294	9.90792	-0.341244	1.14043	0.21861	-0.000736163	-0.070207	-1.06812	-0.0986328	-0.377197	0.290051	-0.248634	-0.810361	-0.44426	6.50026	5.51919	-3.98829	0.132855	0.0821402	-0.0299079	-0.941162	-0.347168	0.363281	0.357555	-0.189837	-0.747073	-0.527256	7.17002	6.40653	-1.85299	0.0212199	-0.0208379	-0.000998031	-1.04858	-0.371826	0.0646973	
32	-0.211525	0.0100729	0.426028	0.879577	2.14411	7.99296	6.79049	-0.0189824	-0.0269465	-0.0215195	-0.515869	-0.57373	-0.696045	0.21784	-0.061432	-0.800887	-0.554393	4.39941	8.45353	-2.6765	0.0102044	0.0531482	-0.00657706	-0.619873	-0.850342	0.166748	0.697581	0.123495	-0.705001	0.0332188	9.67386	1.35291	0.0798149	0.068956	-0.00409579	0.0035121	-1.10889	-0.325684	-0.262451	0.549997	0.390508	-0.597448	0.433662	9.84261	-0.983669	0.0513134	-0.0684989	0.0122755	0.00783505	-1.10669	-0.231445	-0.0749512	0.127318	0.563573	0.000375849	-0.816196	-8.91699	1.54663	3.79191	-0.123856	0.0282839	0.0229693	0.773926	-0.0400391	-0.687744	0.669774	0.234583	0.527943	-0.46653	-9.47512	-1.9498	3.93418	-0.0628392	-0.0511928	-0.0447289	0.845215	0.533936	-0.0617676	0.0930725	-0.240523	-0.882506	-0.39328	3.69656	6.08375	-6.28688	0.0342052	0.0508903	-0.0526384	-0.665771	-0.511475	0.644043	0.967504	-0.116479	-0.0881645	-0.206387	2.39393	-2.06289	10.664	-0.0712311	0.0141	0.0396482	0.0778809	0.29834	-1.01904	0.730395	0.0943097	-0.667723	0.108517	9.99062	-0.18018	1.12157	0.144091	-0.0184711	-0.071647	-1.07056	-0.0986328	-0.381592	0.289528	-0.248748	-0.809716	-0.44571	6.63627	5.02232	-4.32476	-0.100058	0.0118875	-0.014192	-0.943115	-0.349365	0.358643	0.356839	-0.190466	-0.746645	-0.528119	7.17919	6.03426	-2.09091	-0.0578167	-0.0110126	-0.0135159	-1.04639	-0.369629	0.0578613	
33	-0.213	0.0106764	0.425898	0.879277	2.236	7.63676	6.68334	0.0112871	0.0142998	0.095262	-0.522705	-0.567139	-0.694092	0.2196	-0.0610076	-0.801015	-0.553561	4.12052	8.29626	-2.73198	0.0339684	0.059966	0.0136122	-0.619873	-0.854736	0.159912	0.698328	0.123146	-0.704355	0.032525	9.33873	-0.0876417	-0.501509	0.165189	0.0576603	-0.0439862	-1.10229	-0.334473	-0.259766	0.548515	0.393627	-0.595252	0.435733	10.0199	-0.743684	-0.133008	0.1696	-0.0117787	-0.0453895	-1.11279	-0.240234	-0.0705566	0.129263	0.562964	0.00175434	-0.816309	-9.04385	1.29663	3.40635	-0.00769473	-0.017992	0.0280942	0.769531	-0.0422363	-0.689941	0.670644	0.232786	0.528379	-0.465686	-9.4411	-1.11878	3.7539	-0.176481	-0.00916825	-0.00583886	0.846924	0.54248	-0.0576172	0.0962526	-0.239055	-0.882151	-0.394205	3.01839	5.89108	-6.41372	-0.0173202	0.110715	-0.0156184	-0.672363	-0.511475	0.639648	0.967516	-0.116935	-0.088317	-0.206008	2.79473	-2.00872	10.6696	0.00221864	0.0060546	-0.0204867	0.0844727	0.296143	-1.02612	0.730001	0.0990318	-0.667027	0.111205	9.94139	-0.00650146	0.859593	0.215786	0.00197012	-0.05892	-1.06763	-0.112305	-0.37915	0.291117	-0.247545	-0.80933	-0.446046	6.90451	5.44	-3.5781	-0.0569267	0.124977	-0.00387043	-0.945557	-0.349365	0.351807	0.355278	-0.192065	-0.745575	-0.5301	7.00624	5.99086	-1.47749	-0.187031	-0.0719108	-0.00446842	-1.05078	-0.376221	0.0556641	
34	-0.215031	0.0105452	0.4261	0.878686	2.17833	7.77067	6.82958	0.00944189	0.0350714	0.0551268	-0.522705	-0.567139	-0.702637	0.220265	-0.062051	-0.800514	-0.553904	4.4948	8.19234	-2.67826	-0.0622593	0.0118923	0.0319097	-0.626465	-0.850342	0.166748	0.697962	0.126734	-0.703898	0.0362723	9.69603	1.91374	0.24828	0.0373752	0.064515	-0.0447745	-1.1001	-0.334473	-0.269043	0.547888	0.394823	-0.594068	0.437055	9.75976	-0.991592	-0.140917	0.171825	0.0281656	-0.0126173	-1.10889	-0.229248	-0.0686035	0.131465	0.562373	0.00297008	-0.81636	-9.17944	1.02784	3.50568	-0.0574762	-0.0141754	0.00224081	0.773926	-0.0422363	-0.689941	0.671705	0.230998	0.528371	-0.465055	-9.71253	-1.97229	3.74986	0.0807908	-0.0278031	-0.0234052	0.844971	0.535889	-0.0617676	0.0959896	-0.239535	-0.883465	-0.391023	3.70145	6.1241	-5.98184	0.113109	-0.0112891	0.00373343	-0.666016	-0.504883	0.643799	0.967368	-0.117187	-0.0884443	-0.206505	2.49749	-2.03771	10.5931	-0.0185525	0.00802406	-0.0593088	0.0795898	0.309082	-1.01929	0.729886	0.101747	-0.666267	0.114026	9.82147	-0.144227	0.997914	0.318188	0.0416119	-0.00542066	-1.07227	-0.112549	-0.381348	0.292559	-0.246701	-0.808256	-0.447515	6.4322	5.66735	-3.97958	-0.0484843	0.0661877	0.00407414	-0.945312	-0.355957	0.347412	0.353476	-0.193991	-0.745098	-0.531272	7.79459	7.07979	-2.18835	-0.123076	-0.0515669	-0.00546658	-1.04883	-0.369629	0.0668945	
35	-0.215987	0.0107446	0.426319	0.878343	1.88399	7.96318	6.86475	0.00267238	-0.0319786	0.0441352	-0.522949	-0.562988	-0.694092	0.221379	-0.0623249	-0.799985	-0.554193	4.38745	8.40598	-2.45402	-0.027494	0.0645136	0.00135698	-0.624512	-0.848389	0.164307	0.698317	0.123416	-0.704288	0.0331741	9.71341	0.491099	-0.084443	-0.0967311	0.0133171	0.0233555	-1.1001	-0.330078	-0.264648	0.54836	0.394246	-0.594176	0.436837	9.82044	-0.805074	-0.0461651	-0.0287732	0.0185602	0.00254311	-1.11084	-0.233643	-0.0705566	0.132317	0.562316	0.000700225	-0.816267	-8.56357	1.66562	3.76755	-0.0265555	-0.00418053	0.0839405	0.773926	-0.0400391	-0.683105	0.67327	0.2282	0.527961	-0.46464	-9.30109	-1.64147	3.90786	-0.211699	-0.0812786	-0.0360057	0.840576	0.540283	-0.0598145	0.0979575	-0.237642	-0.884212	-0.39	3.80216	5.90423	-6.09809	0.196012	0.0828712	-0.0440745	-0.674561	-0.50708	0.641846	0.967897	-0.115537	-0.0874431	-0.205377	2.64252	-2.12328	10.4917	0.0433022	0.0385871	0.0260527	0.0844727	0.296143	-1.02368	0.729431	0.104274	-0.666283	0.114559	9.88286	-0.101841	0.898642	0.0605385	-0.0129591	-0.0399334	-1.06958	-0.119385	-0.376709	0.292388	-0.246116	-0.808648	-0.447241	6.50617	5.33028	-3.41563	0.0994316	0.0511177	-0.0188884	-0.942871	-0.355957	0.347412	0.353147	-0.193131	-0.745887	-0.530698	6.90448	6.25016	-1.62569	0.172162	-0.00268022	-0.0484077	-1.04614	-0.376221	0.0625	
36	-0.215987	0.0107446	0.426319	0.878343	1.88399	7.96318	6.86475	0.00267238	-0.0319786	0.0441352	-0.522949	-0.562988	-0.694092	0.223295	-0.0615596	-0.800152	-0.553269	4.28453	8.13236	-2.75741	0.0821415	0.0713254	0.0190595	-0.631104	-0.843994	0.159424	0.698057	0.125078	-0.704178	0.0347098	9.62204	0.887433	-0.03673	0.181459	0.00624098	-0.0120487	-1.10229	-0.336426	-0.269043	0.546683	0.39638	-0.593312	0.438181	9.80892	-0.704276	-0.0697876	0.0702969	-0.0272066	0.00748049	-1.10669	-0.231445	-0.0661621	0.133195	0.561791	0.00117239	-0.816485	-9.06739	0.609095	3.16077	0.112339	-0.0114888	0.00500072	0.769531	-0.0444336	-0.687744	0.672835	0.230348	0.525308	-0.467208	-9.56924	-1.0135	4.02859	0.24407	0.00282045	-0.0140671	0.835938	0.544678	-0.064209	0.100799	-0.235406	-0.884719	-0.389482	3.27833	5.41685	-6.10253	0.0806101	0.0411081	-0.054976	-0.675049	-0.500732	0.641602	0.967981	-0.115963	-0.0869621	-0.204946	2.45796	-2.30518	10.4867	-0.000209823	0.0445332	-0.000887262	0.0820312	0.29834	-1.02832	0.729926	0.102048	-0.666567	0.111727	9.85226	-0.108396	1.08885	-0.180377	0.00172121	-0.0444544	-1.06982	-0.116943	-0.376953	0.291847	-0.246242	-0.808313	-0.44813	6.66233	5.36521	-4.53672	0.000667702	-0.00990608	-0.00736735	-0.945312	-0.351562	0.340576	0.35223	-0.193884	-0.745313	-0.531838	7.27188	7.12565	-1.60676	-0.124432	-0.0459641	-0.0212636	-1.05322	-0.371826	0.0625	
37	-0.218207	0.013409	0.427135	0.877361	2.38054	7.51281	6.79476	0.0711972	0.00822556	0.0894632	-0.531738	-0.562988	-0.689941	0.223746	-0.0616987	-0.800749	-0.552206	4.29279	8.60669	-2.72136	0.0862429	0.0188766	0.0254556	-0.628906	-0.846191	0.164307	0.697539	0.128027	-0.704047	0.0369601	9.76165	1.82621	0.00399691	0.00199215	-0.00619596	0.0365385	-1.10205	-0.33667	-0.259766	0.546784	0.396316	-0.593662	0.437637	9.68105	-0.768851	-0.046032	-0.0473946	-0.0193863	-0.0125597	-1.11792	-0.229492	-0.0686035	0.132386	0.562101	-0.00183463	-0.816402	-8.94166	1.94739	3.63353	0.2367	-0.00175245	0.0684488	0.769775	-0.0466309	-0.692383	0.674325	0.227609	0.526441	-0.465124	-9.45168	-1.2138	3.80678	-0.282385	-0.0417524	0.0136783	0.846924	0.540283	-0.0661621	0.100722	-0.235428	-0.885834	-0.386946	3.79371	6.27431	-6.35932	0.226078	-0.0546259	-0.0164549	-0.672363	-0.509277	0.648193	0.967981	-0.115963	-0.0869621	-0.204946	2.45796	-2.30518	10.4867	-0.000209823	0.0445332	-0.000887262	0.0820312	0.29834	-1.02832	0.73009	0.100655	-0.666972	0.10948	9.72944	-0.204604	0.90535	-0.204566	-0.0154573	-0.0755419	-1.06519	-0.112549	-0.372314	0.291253	-0.24636	-0.809052	-0.447118	6.46398	5.34897	-4.34598	0.0816227	-0.068609	-0.00391586	-0.938721	-0.349365	0.351807	0.352561	-0.193341	-0.745276	-0.531868	6.99985	6.19296	-2.23422	0.189546	0.0682789	-0.0203674	-1.04858	-0.376221	0.0671387	
38	-0.219349	0.0138375	0.427987	0.876654	2.12072	7.92767	6.55056	-0.00409458	-0.0148355	0.0541422	-0.529541	-0.562988	-0.694092	0.224841	-0.0618575	-0.800051	-0.552755	4.09276	8.34067	-2.76326	-0.0444105	0.0668072	-0.000559837	-0.624512	-0.848389	0.161865	0.697952	0.126249	-0.704072	0.0347429	9.68	0.781195	-0.341281	-0.0404196	0.0168769	-0.038521	-1.0979	-0.338867	-0.264404	0.545726	0.397492	-0.592796	0.439063	9.5137	-1.03601	-0.342409	0.165284	0.00997222	0.0141599	-1.11108	-0.229248	-0.0686035	0.135437	0.561333	0.000563761	-0.816432	-8.90243	1.00907	3.36799	-0.113759	-0.00518636	0.00416962	0.767578	-0.0466309	-0.683105	0.675269	0.227434	0.524464	-0.466072	-9.6039	-1.14958	4.21945	0.148051	-0.0713433	-0.0155434	0.846924	0.54248	-0.0639648	0.104095	-0.233504	-0.885518	-0.38794	3.20754	6.00723	-6.18256	0.0627084	0.157099	-0.0230024	-0.677002	-0.502686	0.635254	0.968029	-0.116082	-0.0865718	-0.204816	2.56711	-1.87182	10.6873	-0.09508	0.00396615	-0.0658216	0.088623	0.29834	-1.02368	0.730271	0.0991286	-0.667143	0.108619	9.55491	0.0533185	1.09752	0.00824669	0.0203586	0.00211485	-1.07227	-0.114746	-0.374756	0.291555	-0.245659	-0.809727	-0.446083	6.67121	5.66498	-3.93482	0.0578336	0.00974545	-0.0110719	-0.943115	-0.351562	0.351807	0.353183	-0.191914	-0.746841	-0.529774	7.07633	6.6515	-1.65498	0.038996	-0.00612978	-0.00223844	-1.05078	-0.374023	0.0625	
39	-0.219708	0.012885	0.427887	0.876627	2.40262	7.79928	6.75482	0.0263019	0.0694098	-0.0287042	-0.525391	-0.558594	-0.698486	0.224435	-0.0617642	-0.800988	-0.551572	4.28481	8.55031	-2.8724	0.0109526	-0.0178914	-0.0233429	-0.626709	-0.846191	0.161865	0.697271	0.128312	-0.704243	0.0372911	10.1156	1.42124	-0.161056	0.0122514	-0.0695717	0.0852341	-1.0979	-0.332275	-0.26001	0.547314	0.395589	-0.593752	0.437511	10.3971	-1.42607	-0.102413	-0.176533	0.0191572	-0.0109218	-1.11328	-0.229248	-0.0708008	0.135853	0.561524	-0.00116112	-0.816231	-9.07224	1.57466	3.77029	-0.0737081	0.00943772	0.0705224	0.76123	-0.0510254	-0.680908	0.676808	0.225264	0.523796	-0.465644	-9.56474	-2.48199	4.31542	0.0719241	-0.0369401	-0.033109	0.844971	0.538086	-0.0681152	0.103184	-0.234413	-0.885156	-0.388462	3.88017	6.14641	-6.85703	-0.0471139	-0.00553769	-0.0115653	-0.675049	-0.498535	0.639404	0.967867	-0.116191	-0.0870684	-0.205309	3.01316	-2.00242	10.4426	0.0890016	0.0317772	-0.0337605	0.0864258	0.29834	-1.01904	0.72993	0.100863	-0.666742	0.111732	10.6563	0.312638	0.724197	0.101511	0.0173917	0.0443984	-1.07202	-0.116943	-0.376953	0.291423	-0.246868	-0.808352	-0.44799	6.39416	5.37797	-4.02214	-0.169536	-0.00299221	0.0250241	-0.94751	-0.355957	0.352051	0.352494	-0.194412	-0.744079	-0.533196	7.15927	6.36193	-2.0524	-0.160796	0.0101647	0.0244755	-1.05103	-0.371826	0.0603027	
40	-0.220957	0.0114572	0.428337	0.876113	2.10018	7.98546	6.86494	0.0378525	0.0644846	0.0225563	-0.527344	-0.562988	-0.694092	0.224596	-0.061905	-0.800849	-0.551694	4.55953	8.02154	-2.52535	0.0541938	0.0204926	-0.00203013	-0.628906	-0.841797	0.156982	0.698173	0.124664	-0.704216	0.0330567	9.72939	0.915068	0.0949036	-0.226029	0.0118538	-0.018832	-1.10449	-0.332275	-0.264404	0.546956	0.397	-0.592661	0.438159	10.1297	-0.502864	0.203051	0.0591667	0.010979	-0.023229	-1.11328	-0.231689	-0.0639648	0.133829	0.56231	-0.00393839	-0.816016	-9.00614	1.44317	3.31284	0.14035	0.018474	-0.00987181	0.767822	-0.0554199	-0.689941	0.677507	0.225586	0.523249	-0.465086	-9.43677	-0.991604	4.3246	-0.168083	0.0015323	0.0494886	0.847168	0.538086	-0.0661621	0.107688	-0.232127	-0.884277	-0.390608	3.2808	5.42941	-5.48485	-0.0772248	0.198223	-0.0113199	-0.681152	-0.50708	0.631104	0.967608	-0.116076	-0.0868181	-0.206697	2.74396	-2.17672	10.6121	-0.00140911	0.0251502	-0.0638915	0.0861816	0.302734	-1.02612	0.73094	0.0975787	-0.666419	0.109963	9.80342	-0.255544	0.805099	-0.14521	0.046615	0.019982	-1.06567	-0.105469	-0.374756	0.290937	-0.24682	-0.808786	-0.44755	6.50665	4.95718	-3.59804	0.0505181	-0.0229278	-0.00402995	-0.94751	-0.35376	0.352051	0.353232	-0.193128	-0.745997	-0.530488	7.35376	6.80651	-1.60975	0.0932395	-0.00127454	-0.00752852	-1.04858	-0.374023	0.0625	
41	-0.222621	0.011782	0.427827	0.875937	2.30658	8.1352	6.87124	-0.0629376	0.0285008	0.0780244	-0.531982	-0.560791	-0.694092	0.225051	-0.061401	-0.800645	-0.55186	4.33555	8.29954	-2.79325	-0.0471988	0.0353855	-0.0364337	-0.626953	-0.837402	0.16626	0.697794	0.126798	-0.704033	0.0366607	9.92064	1.93242	0.336387	-0.0483599	0.000152189	0.0301777	-1.10229	-0.33667	-0.264404	0.54741	0.396395	-0.592692	0.438098	9.75695	-0.593917	0.216334	-0.048198	0.0459331	0.0113122	-1.11304	-0.233643	-0.0727539	0.13706	0.561615	0.000450943	-0.815967	-8.84486	1.15392	3.57571	-0.296374	0.0116108	-0.0355504	0.767578	-0.0488281	-0.687744	0.6772	0.225343	0.523664	-0.465184	-9.4698	-1.69248	4.30992	0.186796	0.0519296	-0.0723168	0.844727	0.540283	-0.0725098	0.109027	-0.230855	-0.885341	-0.388575	4.17436	6.14349	-6.53139	0.126071	0.168294	-0.0641963	-0.683594	-0.502686	0.628906	0.967603	-0.116987	-0.0871802	-0.206055	2.37765	-1.98945	10.5618	-0.0161925	-0.0170773	0.00596659	0.0820312	0.300537	-1.01904	0.731282	0.0979002	-0.665896	0.110567	9.76713	0.54317	1.58798	-0.0223956	0.0296193	-0.0211436	-1.06567	-0.105469	-0.383789	0.291237	-0.24656	-0.810196	-0.44494	6.61369	6.49117	-3.87207	0.117462	-0.0250798	0.0147694	-0.945557	-0.347168	0.356445	0.353119	-0.194098	-0.744972	-0.531647	7.2999	6.55093	-1.82139	0.0137872	0.0149418	0.00654205	-1.05103	-0.369629	0.0603027	
42	-0.223667	0.0126319	0.426646	0.876235	2.20945	7.58191	6.87553	-0.0261736	-0.016801	0.0318737	-0.527832	-0.554199	-0.692139	0.225509	-0.0609827	-0.800385	-0.552097	4.58906	8.39886	-2.8767	-0.00955208	0.0436561	-0.00660577	-0.633301	-0.846191	0.159424	0.698137	0.123508	-0.704441	0.0333643	9.45424	0.393753	-0.27332	-8.35691e-05	-0.0332546	0.00367904	-1.10669	-0.332031	-0.266846	0.548665	0.394909	-0.593147	0.437253	9.61172	-0.204202	-0.369118	-0.0756497	0.01755	0.0154194	-1.11548	-0.231445	-0.0773926	0.136041	0.561489	0.000193161	-0.816225	-9.05589	1.0144	3.18347	0.062586	-0.016277	-0.0729752	0.765381	-0.0466309	-0.692383	0.67714	0.223751	0.525291	-0.464204	-9.5439	-1.36084	3.92386	-0.175201	0.0566653	-0.0359833	0.846924	0.54248	-0.0683594	0.112937	-0.228509	-0.88487	-0.389916	3.33607	5.43709	-5.84067	0.076308	0.0725691	-0.0337487	-0.692139	-0.504883	0.618164	0.967709	-0.116551	-0.0876067	-0.205619	2.33381	-1.97459	10.6425	0.0131439	0.0185934	-0.0224327	0.0866699	0.296143	-1.02368	0.732321	0.0920153	-0.666432	0.105395	9.72544	-0.349459	0.923932	-0.186205	0.00843472	-0.00581138	-1.07031	-0.105469	-0.385986	0.28976	-0.247527	-0.810374	-0.445044	6.41522	5.31371	-4.59772	0.16173	0.00561821	0.00794631	-0.943115	-0.349365	0.363281	0.355228	-0.191193	-0.748515	-0.526292	7.33927	6.58478	-2.11847	0.388018	0.0574446	0.00689117	-1.05078	-0.376221	0.0649414	
43	-0.223438	0.0145562	0.427129	0.876027	2.33436	7.73499	6.60029	0.00321559	-0.0904531	0.0241466	-0.534424	-0.552246	-0.692139	0.226085	-0.0611295	-0.799733	-0.55279	4.43495	8.17882	-2.57618	-0.0366606	0.0476537	-0.0155596	-0.624512	-0.846191	0.154785	0.697869	0.125225	-0.7044	0.033435	9.81101	1.17019	-0.0489099	-0.111203	0.0130422	-0.0366016	-1.0979	-0.334473	-0.264404	0.549799	0.393485	-0.594347	0.43548	9.82408	-1.45721	0.408754	0.0186175	0.00308626	-0.0194919	-1.10864	-0.233643	-0.0727539	0.136538	0.55974	0.000878056	-0.817342	-8.77617	1.7078	3.61694	-0.154693	-0.047769	-0.0515889	0.760986	-0.0488281	-0.692383	0.676535	0.221351	0.526822	-0.464502	-9.49095	-1.44945	4.26719	-0.047481	0.00798986	-0.116067	0.837891	0.551025	-0.064209	0.113411	-0.228584	-0.88402	-0.391659	3.81976	6.09576	-6.76393	-0.186058	0.164123	0.00476572	-0.689697	-0.509277	0.622559	0.967412	-0.117465	-0.0878765	-0.206382	2.74964	-2.16202	10.5421	-0.0689699	-0.0203112	-0.0547809	0.079834	0.302734	-1.02393	0.732348	0.0897651	-0.666823	0.104672	9.97286	-0.336856	0.671803	-0.0673274	0.015103	0.0307092	-1.06812	-0.0986328	-0.383789	0.28751	-0.249205	-0.810793	-0.444802	6.90374	4.83673	-4.25643	-0.125259	-0.0880452	-0.00483931	-0.936523	-0.351318	0.363281	0.3555	-0.192018	-0.746811	-0.528226	7.0921	4.93187	-1.91327	-0.0480045	0.0385493	0.00956399	-1.05103	-0.371826	0.0603027	
44	-0.223438	0.0145562	0.427129	0.876027	2.33436	7.73499	6.60029	0.00321559	-0.0904531	0.0241466	-0.534424	-0.552246	-0.692139	0.226104	-0.0609311	-0.799384	-0.553308	4.16067	8.45244	-2.75412	-0.0504438	0.0345231	-0.039115	-0.633301	-0.843994	0.150146	0.698287	0.124372	-0.704134	0.0335178	9.03655	0.532153	-0.349961	-0.047279	0.0451777	0.0455202	-1.10449	-0.332275	-0.266846	0.549621	0.394316	-0.592929	0.436883	9.94004	-0.5774	-0.232956	-0.0420636	0.0449269	-0.00552642	-1.10669	-0.229248	-0.072998	0.137014	0.558124	0.00219277	-0.818364	-8.67837	0.821693	3.48828	0.00754391	-0.0622593	-0.010848	0.760742	-0.0422363	-0.69458	0.675712	0.22007	0.527342	-0.465717	-9.22992	-1.76029	4.2996	0.0305145	0.0285397	-0.096928	0.837891	0.553223	-0.0666504	0.115205	-0.227643	-0.883456	-0.392952	3.50888	5.68301	-5.95414	-0.0420437	0.0250527	-0.022357	-0.689697	-0.509277	0.607666	0.967212	-0.118491	-0.0879138	-0.206717	2.91594	-2.57933	10.5388	-0.0534211	0.0189133	0.00147585	0.0776367	0.304688	-1.01685	0.731895	0.0916757	-0.666619	0.107448	10.0464	-0.186422	1.20013	0.132613	-0.000747931	-0.0154607	-1.06592	-0.0986328	-0.381592	0.288257	-0.2496	-0.810981	-0.443753	6.39547	6.22259	-3.99719	-0.0822321	-0.0263591	0.0414336	-0.941162	-0.344971	0.36084	0.35671	-0.190053	-0.749193	-0.524736	7.05197	6.76499	-1.71691	0.387281	0.0408923	-0.00783385	-1.04663	-0.367432	0.0668945	
45	-0.224053	0.0144794	0.426103	0.876371	2.421	7.57125	6.64116	-0.037732	0.0814362	0.0214594	-0.532471	-0.550049	-0.696533	0.226014	-0.0612828	-0.797898	-0.555447	4.25848	8.10345	-2.66574	-0.107645	0.0152723	-0.0165052	-0.626953	-0.841797	0.149902	0.698236	0.12206	-0.704628	0.0326711	9.88607	1.26838	0.143834	-0.184766	-0.0113775	0.0137667	-1.10034	-0.325684	-0.266846	0.550903	0.391659	-0.594783	0.435134	9.56148	-0.679507	0.0622237	-0.167897	0.00639975	0.0412713	-1.10669	-0.231445	-0.0727539	0.135221	0.558105	0.000905171	-0.818678	-8.75702	1.24333	3.57666	0.167192	-0.0228497	-0.0788732	0.758789	-0.0444336	-0.692383	0.674993	0.219897	0.527983	-0.466116	-9.22974	-1.9848	4.29159	0.0152887	0.0750772	-0.085048	0.835693	0.553223	-0.0664062	0.116903	-0.22613	-0.883467	-0.393299	3.80368	5.38298	-6.09287	0.134766	0.107563	-0.047399	-0.698242	-0.509277	0.618408	0.967378	-0.117917	-0.0873267	-0.206517	2.8548	-2.43	10.4358	0.0423188	0.0721512	0.0029128	0.0820312	0.302734	-1.02393	0.731974	0.0899666	-0.667027	0.105807	10.183	0.195062	1.02598	-0.189655	-0.0115005	-0.0232092	-1.06836	-0.0939941	-0.385986	0.286673	-0.250679	-0.809905	-0.446129	6.76803	4.59635	-4.38563	-0.246031	-0.0578242	-0.0182789	-0.940918	-0.351562	0.363281	0.355984	-0.191989	-0.746659	-0.528125	7.30361	5.29377	-2.28655	-0.162848	0.0109211	0.0124518	-1.04883	-0.369629	0.0578613	
46	-0.225598	0.0144789	0.42713	0.875474	2.19486	7.92214	6.70442	0.0683033	-0.0284664	0.0663489	-0.534424	-0.556641	-0.692139	0.226589	-0.0617782	-0.798592	-0.554159	4.42189	8.77188	-2.73342	0.045344	0.0287216	0.00512547	-0.626709	-0.843994	0.152344	0.697497	0.121324	-0.705482	0.0327691	9.25699	0.857068	-0.366038	0.0495028	-0.031668	0.0454765	-1.10449	-0.334229	-0.269043	0.551746	0.390763	-0.595269	0.434207	10.1106	-1.07389	0.0800614	-0.0160023	0.0182765	-0.011197	-1.11108	-0.229248	-0.0773926	0.13431	0.557129	-0.000392661	-0.819493	-8.764	1.77575	4.00839	0.0354618	-0.0386683	0.0211082	0.758545	-0.0422363	-0.703857	0.673112	0.220852	0.529263	-0.466932	-9.57785	-1.07585	3.98623	-0.0877523	0.0856521	-0.0708631	0.838135	0.546875	-0.064209	0.11676	-0.226658	-0.883888	-0.392091	3.71268	6.55978	-6.69623	-0.0659561	0.0273375	0.00415984	-0.700439	-0.50708	0.614014	0.967194	-0.119617	-0.087198	-0.206458	2.62034	-2.1037	10.5923	-0.137087	-0.0273677	-0.0104533	0.0842285	0.302734	-1.02393	0.732456	0.08611	-0.667586	0.102087	9.63217	-0.497071	0.598218	-0.156281	0.0054122	-0.0269865	-1.06836	-0.0964355	-0.379395	0.286625	-0.250005	-0.812357	-0.442064	6.59881	5.335	-4.19059	0.152502	-0.0614306	-0.00547196	-0.943359	-0.344971	0.365479	0.35779	-0.189052	-0.749478	-0.523955	7.09054	6.65691	-1.64779	0.108613	0.0376192	-0.0113277	-1.05347	-0.365234	0.0715332	
47	-0.22582	0.0149458	0.427773	0.875095	2.53952	7.54256	6.65054	0.030823	-0.0115236	-0.017296	-0.536621	-0.552246	-0.692139	0.226865	-0.061776	-0.798463	-0.554231	4.50774	8.30279	-2.97764	0.00167084	0.013312	-0.0103253	-0.631104	-0.841797	0.152344	0.697991	0.118831	-0.705507	0.0307969	10.072	0.883564	0.169201	-0.140304	0.0130883	0.0131415	-1.1001	-0.327881	-0.269287	0.551345	0.39155	-0.594812	0.434633	10.0442	-0.791278	-0.542875	0.0806503	-0.00674424	-0.0187794	-1.11548	-0.231445	-0.0773926	0.135804	0.556105	0.00275039	-0.819937	-9.12889	1.20766	3.43378	-0.116522	-0.0285137	-0.0326549	0.762939	-0.0378418	-0.706055	0.672292	0.220807	0.529366	-0.468016	-9.64665	-2.23779	3.79609	0.229223	0.0348016	-0.0546068	0.833496	0.55542	-0.0644531	0.118174	-0.226151	-0.883341	-0.393191	3.63801	5.85334	-6.51454	-0.0494836	0.149825	-0.00799262	-0.696289	-0.504883	0.611816	0.967013	-0.119468	-0.0873949	-0.207306	2.69527	-2.10101	10.5043	-0.00504607	0.033952	-0.0757918	0.0820312	0.302734	-1.01685	0.732626	0.0861196	-0.667288	0.102809	10.1225	0.553559	0.997478	-0.0417927	0.039397	0.0111738	-1.06592	-0.0964355	-0.385986	0.287759	-0.249838	-0.811794	-0.442456	6.33193	6.56754	-4.30517	-0.116278	0.0547598	0.0567396	-0.934326	-0.346924	0.365479	0.357617	-0.189246	-0.748883	-0.524853	7.25753	6.56757	-1.95834	-0.0423556	0.00961846	-0.00847427	-1.05103	-0.367432	0.0625	
48	-0.225019	0.0138499	0.429063	0.874688	1.91836	8.20779	6.59122	0.0489846	-0.0085068	-0.026033	-0.531982	-0.558594	-0.689941	0.226988	-0.0624536	-0.798768	-0.553666	4.08724	8.1559	-2.71857	0.00815396	-0.0189824	0.00272016	-0.635254	-0.846191	0.154785	0.697498	0.124096	-0.704947	0.0338553	9.84509	1.28594	-0.398653	0.178067	0.0247359	-0.0665529	-1.1001	-0.332275	-0.269043	0.551419	0.392666	-0.594074	0.434541	9.84613	-1.28135	0.240951	-0.0409195	0.00180208	-0.0473585	-1.11304	-0.23584	-0.0771484	0.13462	0.556791	-0.000831254	-0.819671	-8.55117	1.58953	3.89283	0.12365	0.0305212	0.0267312	0.756592	-0.0444336	-0.69458	0.673933	0.219037	0.529127	-0.466758	-9.29176	-2.56982	3.99766	-0.0988833	-0.053328	0.0154684	0.837891	0.55127	-0.0622559	0.11722	-0.227427	-0.882704	-0.394171	3.91183	5.82965	-6.60702	-0.126607	-0.0380994	0.0249242	-0.696045	-0.509277	0.609863	0.96687	-0.1182	-0.0872602	-0.20875	2.88653	-2.06601	10.3814	0.0614086	0.0322339	-0.0712021	0.0839844	0.304932	-1.02393	0.732809	0.085285	-0.66717	0.102965	10.0223	-0.555597	0.767953	0.0339841	0.0112329	0.00352998	-1.06616	-0.0939941	-0.385986	0.286177	-0.251104	-0.810002	-0.446034	6.55476	4.28667	-3.98032	0.0332683	0.0326159	-0.02893	-0.943359	-0.347168	0.363281	0.357324	-0.190229	-0.746785	-0.527678	7.04103	5.14006	-1.90342	0.0314851	0.0396797	-0.0140048	-1.04858	-0.371826	0.0625	
49	-0.224836	0.0152023	0.429557	0.87447	2.48772	7.91006	6.68378	0.00514081	-0.0569543	0.0123437	-0.534424	-0.554443	-0.689941	0.226045	-0.0631285	-0.798934	-0.553736	4.70234	8.1748	-2.76753	0.00402208	-0.0305089	-0.0115519	-0.631348	-0.8396	0.15918	0.698147	0.120497	-0.705067	0.030841	9.52983	1.0827	-0.0170215	-0.377831	0.0127739	0.0307954	-1.09375	-0.325928	-0.269287	0.551722	0.393753	-0.593459	0.434013	9.41786	-0.494879	0.0445953	0.0429658	0.00918934	-0.0426672	-1.11084	-0.233643	-0.081543	0.134877	0.557592	-0.00124514	-0.819083	-9.1453	1.68345	3.59509	0.0144973	0.0561594	0.0131637	0.756836	-0.0510254	-0.696777	0.674557	0.220602	0.527044	-0.467474	-9.60193	-0.925138	4.2667	-0.0185028	-0.0203614	0.0399226	0.837646	0.55542	-0.0666504	0.117486	-0.227659	-0.882634	-0.394115	3.74707	5.65957	-5.92684	-0.0144256	-0.054706	-0.00805989	-0.702881	-0.505127	0.614014	0.966595	-0.119065	-0.0873666	-0.209486	2.92654	-2.41425	10.2674	-0.0686581	-6.18519e-05	-0.0739453	0.0822754	0.296143	-1.0166	0.733101	0.0872441	-0.666273	0.105036	9.44358	-0.613534	0.996185	0.104029	0.0350952	-0.0399257	-1.06592	-0.0964355	-0.383789	0.287705	-0.250361	-0.810916	-0.443803	6.68822	6.53392	-4.04666	-0.0502077	0.0382178	0.00847183	-0.938965	-0.344971	0.367676	0.357501	-0.190601	-0.74606	-0.528449	7.14056	7.18771	-1.67701	-0.339774	-0.00607388	0.0257164	-1.05078	-0.374023	0.0556641	
50	-0.224714	0.0155358	0.429837	0.874359	2.36835	7.93035	6.66914	0.00716183	-0.00858368	0.0120783	-0.53418	-0.560791	-0.689941	0.226535	-0.0633543	-0.79934	-0.552922	4.37381	8.21079	-2.9722	0.0468556	-0.00259448	0.018301	-0.631348	-0.837402	0.154541	0.697893	0.120857	-0.705191	0.0323287	9.99182	0.887128	0.106258	-0.0138482	-0.0250256	0.0595244	-1.10229	-0.330078	-0.266846	0.552527	0.393261	-0.593424	0.433483	9.93855	-1.29493	0.348704	-0.0334219	0.0198745	-0.0138908	-1.11304	-0.23584	-0.0793457	0.13776	0.558125	0.00035826	-0.818241	-8.91233	1.12061	3.46836	-0.0843985	0.0535677	0.0209016	0.762939	-0.0422363	-0.69458	0.676176	0.218742	0.52792	-0.465014	-9.42954	-2.03412	4.14252	0.0890259	0.0270916	0.0225873	0.838135	0.546875	-0.0620117	0.117715	-0.227369	-0.883148	-0.393059	3.66604	5.89227	-6.11927	0.122385	-0.0256738	-0.0303861	-0.696045	-0.511475	0.605713	0.966621	-0.119644	-0.0879023	-0.20881	2.66727	-2.41167	10.4125	-0.0297036	0.0148376	0.0254121	0.079834	0.304688	-1.01465	0.73307	0.0880789	-0.666143	0.105373	10.3102	-0.8308	0.8063	0.0692866	0.00699985	-0.0456977	-1.06616	-0.0917969	-0.388428	0.28679	-0.250872	-0.809937	-0.445888	6.57116	4.05137	-3.90029	0.010125	-0.015264	0.0017224	-0.943115	-0.351562	0.358643	0.357932	-0.189475	-0.747871	-0.525997	7.52483	6.43186	-1.75603	0.345767	0.00634806	-0.0246891	-1.05347	-0.365234	0.0532227	
51	-0.224974	0.0162045	0.430375	0.874015	2.47664	7.76726	6.72511	0.0370171	-0.0526292	0.0450283	-0.538818	-0.556641	-0.694336	0.227541	-0.0631247	-0.800433	-0.550951	4.73884	8.45709	-2.7202	0.0802781	0.061906	0.00163778	-0.62915	-0.835205	0.15918	0.697785	0.12149	-0.705137	0.0334235	9.78394	0.957934	-0.209608	0.0730114	0.0343178	-0.0362338	-1.09595	-0.325928	-0.269287	0.55276	0.392969	-0.593897	0.432802	9.83585	-0.43202	-0.0382299	-0.0821346	-0.00607197	-0.00489434	-1.10889	-0.231445	-0.0795898	0.136895	0.55858	-0.00244584	-0.818072	-9.02091	1.80018	3.74653	0.114486	0.00627379	0.028038	0.765625	-0.0510254	-0.701416	0.677425	0.217389	0.527937	-0.46381	-9.54938	-1.4975	3.85778	-0.117444	-0.0350739	-0.012676	0.835938	0.546875	-0.0664062	0.117657	-0.22701	-0.883708	-0.392026	4.07277	5.69158	-6.2948	0.109664	-0.00662838	-0.0446376	-0.696289	-0.504883	0.616211	0.967035	-0.119619	-0.0880225	-0.20685	2.43176	-1.89923	10.685	-0.00692224	0.0137853	0.0740273	0.079834	0.300537	-1.01685	0.73307	0.0880789	-0.666143	0.105373	10.3102	-0.8308	0.8063	0.0692866	0.00699985	-0.0456977	-1.06616	-0.0917969	-0.388428	0.287721	-0.249711	-0.811607	-0.442894	6.72173	5.55204	-4.42884	0.302683	0.0146013	-0.00577547	-0.941162	-0.342773	0.369873	0.357359	-0.190696	-0.7469	-0.527324	7.1347	5.53658	-1.89929	-0.0430792	-0.00932138	0.0017328	-1.04199	-0.369629	0.0625	
52	-0.224997	0.0179444	0.432375	0.872987	2.54015	8.06194	6.57957	0.0719909	-0.0815474	0.0376009	-0.540771	-0.561035	-0.681396	0.228246	-0.0628039	-0.800394	-0.550754	4.5432	8.47162	-2.637	0.0130215	0.0724208	-0.00498165	-0.633545	-0.8396	0.154541	0.697894	0.120893	-0.705114	0.033815	10.0711	1.21184	0.332111	-0.0133985	0.015676	0.0515724	-1.1001	-0.327881	-0.271484	0.551236	0.395834	-0.591998	0.434732	9.54599	-0.234946	-0.368788	0.229368	-0.00567488	-0.0274113	-1.1062	-0.238037	-0.0837402	0.138644	0.557505	-0.000905518	-0.818514	-9.16562	1.40825	3.33378	-0.0413636	-0.037188	-0.0419669	0.756836	-0.0488281	-0.69458	0.677533	0.217072	0.526992	-0.464875	-9.45127	-1.81838	4.25274	0.0776536	-0.0628538	-0.0694064	0.835938	0.549072	-0.0664062	0.117963	-0.226013	-0.884803	-0.390033	3.87145	5.82429	-6.24343	0.0242701	-0.0500304	-0.0443932	-0.696533	-0.500732	0.615967	0.96719	-0.119353	-0.0883698	-0.206131	2.22346	-2.00632	10.5869	0.0725354	0.0101854	-0.0172614	0.079834	0.304688	-1.01465	0.732864	0.0970993	-0.664457	0.109443	9.89511	-0.0134166	1.0934	0.152859	0.00915817	-0.0545781	-1.06787	-0.105469	-0.388184	0.287927	-0.248989	-0.81176	-0.442887	6.61582	5.53967	-4.42573	0.103337	0.0776488	-0.0186321	-0.938721	-0.351562	0.361084	0.357861	-0.189359	-0.748837	-0.524711	7.35237	6.39781	-1.76648	0.286429	-0.001895	-0.0174149	-1.04907	-0.363037	0.0646973	
53	-0.225021	0.0188741	0.43253	0.872884	2.79453	8.16462	6.51934	-0.00310686	-0.0712463	0.0337709	-0.543213	-0.556641	-0.685547	0.2297	-0.062413	-0.799987	-0.550784	4.32818	8.4276	-2.76218	0.00635952	0.0509292	-0.00894444	-0.637939	-0.835205	0.154541	0.697816	0.1234	-0.704661	0.0357415	9.53837	0.960225	0.0835089	0.249884	0.0355551	-0.0411209	-1.09595	-0.327881	-0.269287	0.549898	0.399104	-0.589693	0.436566	9.93506	-1.06621	-0.103601	0.216986	0.0115488	-0.0544534	-1.1106	-0.240234	-0.0749512	0.138973	0.556741	-0.00162931	-0.818977	-9.16501	1.62717	3.59956	0.0274785	-0.0725628	0.0331168	0.756836	-0.0510254	-0.703613	0.677751	0.216669	0.526141	-0.465707	-9.65612	-1.20068	4.43788	0.0587963	-0.0618069	-0.0582064	0.844482	0.55127	-0.064209	0.118217	-0.226746	-0.884597	-0.389999	3.65315	6.13839	-6.17041	0.00442726	0.00232683	0.0286189	-0.696289	-0.504883	0.614014	0.967017	-0.119939	-0.0882884	-0.206634	2.81434	-2.11511	10.2704	-0.0181643	0.023839	-0.0447301	0.0820312	0.302734	-1.01685	0.732876	0.0970701	-0.664393	0.109778	9.88147	0.265528	1.33064	0.0194047	0.0124597	-0.000222657	-1.06567	-0.105469	-0.37915	0.287927	-0.248989	-0.81176	-0.442887	6.61582	5.53967	-4.42573	0.103337	0.0776488	-0.0186321	-0.938721	-0.351562	0.361084	0.356976	-0.190671	-0.747714	-0.526437	7.142	5.91376	-2.11862	-0.0659945	-0.00648011	-0.0127949	-1.05078	-0.374023	0.0603027	
54	-0.226389	0.0197007	0.432487	0.872533	2.58275	7.97403	6.52876	-0.00189437	-0.00742429	0.0641698	-0.547607	-0.556885	-0.679199	0.2308	-0.0620613	-0.798842	-0.552025	4.46606	8.32435	-2.57128	-0.109734	0.0947076	-0.00603562	-0.635742	-0.837402	0.149902	0.698598	0.125465	-0.703449	0.037124	9.54497	0.889677	-0.0229981	-0.0494024	0.0487725	-0.0191736	-1.10229	-0.334473	-0.27124	0.549472	0.400274	-0.588898	0.437105	9.78871	-0.178344	-0.642385	0.11647	-0.00311502	-0.0418555	-1.11035	-0.244629	-0.0793457	0.140614	0.555147	0.000369444	-0.81978	-9.35046	1.78385	3.47171	-0.161283	-0.0491894	-0.0713542	0.756592	-0.0444336	-0.699219	0.678062	0.2134	0.527144	-0.46563	-9.41621	-1.53957	4.37007	-0.102049	-0.0280803	-0.0797593	0.829102	0.553223	-0.0686035	0.118063	-0.226963	-0.884357	-0.390463	3.51581	5.59419	-5.78324	-0.0293197	0.00296381	-0.00607946	-0.692139	-0.502686	0.615967	0.967052	-0.119361	-0.0880058	-0.206928	2.73843	-2.2825	10.5509	0.0420692	0.0520313	-0.0415556	0.0839844	0.306885	-1.01929	0.733125	0.0969419	-0.664124	0.109863	9.87169	0.244833	1.16157	-0.0358712	0.0256397	-0.0347716	-1.06323	-0.107666	-0.383545	0.28831	-0.249054	-0.811274	-0.44349	6.33312	6.19757	-4.44883	0.0919283	0.0393012	0.00502854	-0.938721	-0.349365	0.372314	0.356974	-0.190007	-0.748122	-0.526099	7.20351	6.61335	-1.97461	0.0299743	0.00898099	-0.0201363	-1.04883	-0.367432	0.0646973	
55	-0.229928	0.0192469	0.431333	0.87219	2.45001	7.88829	6.65633	-0.0185408	0.0569254	0.0791155	-0.547852	-0.55249	-0.683594	0.231924	-0.0616301	-0.798165	-0.552581	4.33027	8.45274	-2.82765	0.000449611	0.0489945	-0.0189015	-0.635742	-0.8396	0.152344	0.698584	0.126687	-0.703228	0.037432	9.69393	1.51925	0.0869293	-0.0590203	0.00157471	0.0199388	-1.09814	-0.327881	-0.271484	0.550274	0.40006	-0.589108	0.436008	9.80101	-1.37772	0.186761	-0.0198944	0.0120036	-0.0243927	-1.1106	-0.240234	-0.0837402	0.139578	0.553386	0.000370727	-0.821147	-8.45462	1.27904	3.82238	0.0371264	-0.0975127	-0.0409511	0.750244	-0.0488281	-0.703857	0.677052	0.210958	0.528576	-0.466588	-9.22028	-1.57487	4.31486	-0.0830205	0.0743969	-0.103302	0.826904	0.55542	-0.0622559	0.116483	-0.229008	-0.884531	-0.389349	3.79243	6.20211	-6.63877	0.0518779	-0.0695273	0.048006	-0.696777	-0.496338	0.620117	0.966939	-0.119285	-0.0876351	-0.207654	2.73568	-2.13868	10.4627	-0.00101307	0.0266445	-0.0360492	0.0817871	0.307129	-1.02393	0.733027	0.0948398	-0.664816	0.108146	10.0437	-0.433245	0.530752	-0.0296601	-0.0121089	0.00616048	-1.07275	-0.101074	-0.381592	0.287266	-0.249941	-0.810312	-0.445423	6.86389	4.30986	-3.93809	-0.105713	0.0499003	-0.0337416	-0.938721	-0.351562	0.365479	0.356448	-0.190386	-0.747586	-0.527079	7.2243	5.22449	-1.83387	0.180178	0.00444681	-0.0315279	-1.04858	-0.374023	0.0625	
56	-0.230569	0.0194116	0.430999	0.872182	2.21327	7.90835	6.7657	-0.0257697	0.0129582	0.0490819	-0.547852	-0.550293	-0.683594	0.232608	-0.0620806	-0.797121	-0.553749	4.54119	8.09215	-2.63164	-0.0783769	0.0184426	0.00358156	-0.638184	-0.833252	0.147217	0.698492	0.128435	-0.702946	0.0384873	9.55638	0.650067	-0.35113	0.104217	0.0152094	-0.0351211	-1.0979	-0.334473	-0.264404	0.551219	0.399181	-0.589714	0.434797	9.75658	-0.886668	0.354793	-0.131055	0.0104293	-0.0112225	-1.11279	-0.242432	-0.0771484	0.139431	0.551499	0.00247166	-0.822436	-9.02224	1.70024	3.43778	-0.0730021	-0.0975486	-0.0903466	0.754395	-0.0422363	-0.703857	0.67432	0.210594	0.530449	-0.468579	-9.48357	-1.5028	4.29188	0.0265747	0.103078	-0.126184	0.82251	0.559814	-0.0625	0.116245	-0.229629	-0.884612	-0.388869	3.70269	5.5532	-6.01701	0.0596412	-0.0877544	0.000871651	-0.692383	-0.498535	0.620117	0.966957	-0.119202	-0.0876565	-0.207609	2.56903	-2.47797	10.8199	0.0105721	0.00653497	-0.00293696	0.0839844	0.304932	-1.02148	0.732635	0.0948444	-0.665268	0.108025	9.90727	-0.356445	1.12447	-0.0237044	-0.0320686	-0.0264153	-1.06567	-0.105469	-0.385986	0.28762	-0.250055	-0.811118	-0.44366	6.42966	6.14241	-4.17731	-0.0592821	-0.0650461	0.038607	-0.936523	-0.349121	0.365479	0.355634	-0.19183	-0.74584	-0.529573	7.21478	6.97821	-1.936	-0.443706	-0.0188606	0.0177527	-1.04663	-0.367432	0.0578613	
57	-0.230875	0.0217659	0.429217	0.872924	2.58822	7.56385	6.691	-0.064059	-0.0805786	-0.0102796	-0.54834	-0.539307	-0.687988	0.233092	-0.0614536	-0.797678	-0.552812	4.6772	8.30713	-2.51028	0.0452157	0.0414777	-0.0215191	-0.637695	-0.8396	0.145264	0.698825	0.127085	-0.702827	0.0390798	9.88297	0.91819	0.177647	0.00444448	0.0199768	0.0505601	-1.10425	-0.336426	-0.266602	0.550729	0.400834	-0.588029	0.436178	9.73173	-0.436461	-0.151714	0.147845	0.0315262	-0.0211978	-1.10791	-0.249023	-0.0791016	0.138088	0.549201	0.00368242	-0.824194	-8.87231	1.34311	4.04611	-0.0590621	-0.0702393	-0.092553	0.747559	-0.0400391	-0.708252	0.672579	0.208554	0.532566	-0.469591	-9.57905	-2.2403	4.0274	0.0270473	0.0722865	-0.168354	0.824219	0.568359	-0.0627441	0.115458	-0.230645	-0.884931	-0.387775	3.46152	5.73549	-6.30489	0.0255199	0.0431028	-0.00101055	-0.696533	-0.498535	0.622314	0.966775	-0.120732	-0.0882344	-0.207326	2.98734	-2.19208	10.2173	-0.0571794	-0.0177933	-0.014343	0.079834	0.304688	-1.01685	0.731818	0.098099	-0.665198	0.111044	9.83748	-0.339103	0.674397	0.304309	0.0111739	-0.0263117	-1.06543	-0.107666	-0.388184	0.288431	-0.249424	-0.810425	-0.444754	6.43627	5.44699	-4.14296	0.099307	0.0879572	0.00986994	-0.936523	-0.349121	0.365479	0.356896	-0.189547	-0.748965	-0.525118	7.28779	7.21985	-1.77892	0.410676	0.0238865	-0.00700009	-1.04663	-0.367432	0.0693359	
58	-0.230904	0.0229197	0.428495	0.873241	2.61735	7.69324	6.63418	-0.0519716	-0.0114516	0.0479918	-0.548096	-0.545898	-0.687988	0.233236	-0.0610528	-0.797574	-0.552946	4.30655	8.26334	-2.61753	0.0682327	-0.0351424	-0.031749	-0.635498	-0.841797	0.145264	0.698526	0.129104	-0.702617	0.0415104	9.92353	1.41358	-0.254428	0.0713831	-0.02454	0.0216955	-1.0957	-0.338867	-0.261963	0.550148	0.402332	-0.586882	0.437075	9.86835	-0.657939	-0.0762506	0.0594968	-0.00822078	-0.0343599	-1.10596	-0.244629	-0.0793457	0.137748	0.54691	0.00620073	-0.825758	-8.60651	1.25994	4.00347	-0.0574954	-0.102719	-0.0742151	0.74292	-0.0334473	-0.719727	0.670478	0.207626	0.534601	-0.470694	-9.23824	-2.10449	3.70587	-0.0623813	0.10931	-0.103237	0.819824	0.572754	-0.0585938	0.111933	-0.232038	-0.885479	-0.386726	4.22119	5.82944	-6.58017	-0.0359945	-0.127315	-0.0157508	-0.686279	-0.489746	0.628418	0.966875	-0.120158	-0.0882791	-0.207176	2.34105	-2.15793	10.511	-0.00734063	0.0255744	-0.016493	0.079834	0.304688	-1.01221	0.731676	0.099439	-0.664898	0.112575	9.85485	0.230161	1.14157	0.16621	0.0148969	-0.00330727	-1.06104	-0.105469	-0.37915	0.288557	-0.249039	-0.811254	-0.443374	6.59325	5.77652	-4.09976	0.14661	0.0856982	-0.0210529	-0.938965	-0.344971	0.365479	0.355796	-0.192026	-0.746467	-0.52851	7.20521	4.8721	-2.16362	0.0290655	0.000610581	0.00123728	-1.05322	-0.369629	0.0625	
59	-0.230528	0.0234105	0.428373	0.873387	2.7541	7.74572	6.60105	-0.0240253	-0.0493987	-0.0136386	-0.552734	-0.543701	-0.685791	0.233318	-0.0606662	-0.797682	-0.552798	4.98157	8.57751	-2.38301	0.0160158	0.0347686	-0.0385035	-0.635742	-0.837646	0.142822	0.698955	0.126564	-0.70274	0.0399877	9.66038	1.61282	0.295484	-0.233894	0.014133	0.055124	-1.09814	-0.327881	-0.266846	0.550683	0.402272	-0.587016	0.436278	9.84603	-0.495856	-0.31017	-0.0250215	0.0146453	0.00551231	-1.11011	-0.249023	-0.0791016	0.136799	0.546071	0.00649804	-0.826468	-9.01365	1.48096	3.8504	0.0382239	0.00474887	-0.0901548	0.740723	-0.03125	-0.717529	0.669128	0.206391	0.535975	-0.471595	-9.5072	-2.60538	4.11059	0.030863	0.0423459	-0.0860094	0.81958	0.577148	-0.0522461	0.112948	-0.232079	-0.885618	-0.386085	3.44814	5.49671	-5.35411	-0.0237961	-0.0532672	-0.0125631	-0.688232	-0.491943	0.628662	0.966941	-0.120433	-0.08801	-0.206821	2.71502	-2.25021	10.5606	0.0285481	0.0212222	0.00478016	0.0817871	0.307129	-1.03101	0.732384	0.0980771	-0.664557	0.111167	10.0492	0.218653	1.06344	-0.166646	0.0396524	-0.0325376	-1.06104	-0.103271	-0.383789	0.28684	-0.250624	-0.810253	-0.445422	6.75874	4.46179	-4.21813	-0.194752	-0.0955747	0.00392452	-0.934326	-0.351318	0.365479	0.356713	-0.189981	-0.748969	-0.525079	7.18242	7.19803	-1.86614	0.386245	0.0244482	-0.0285971	-1.05322	-0.369629	0.0668945	
60	-0.230905	0.0237217	0.427276	0.873816	2.63183	7.84498	6.59578	-0.0682746	0.0150498	0.0535595	-0.548584	-0.537354	-0.681641	0.234475	-0.0601686	-0.796894	-0.553499	4.24875	7.99889	-2.64653	-0.000356898	0.0268232	-0.0221437	-0.635742	-0.8396	0.145264	0.699285	0.128387	-0.702081	0.0400003	9.59977	0.412621	-0.478674	0.140435	0.0351251	-0.0712065	-1.09595	-0.332275	-0.269043	0.550271	0.403077	-0.586621	0.436586	9.62284	-0.768509	0.0288526	0.0376171	-0.0107145	-0.0323263	-1.11035	-0.246826	-0.0791016	0.136357	0.545026	0.00763697	-0.827222	-8.46685	0.961743	4.37156	-0.073894	-0.0220831	-0.0408205	0.740723	-0.0290527	-0.715088	0.668155	0.207063	0.536391	-0.472206	-9.34609	-2.57323	3.81206	0.0711381	0.0794865	-0.0587675	0.817627	0.574951	-0.0541992	0.109852	-0.234018	-0.885815	-0.385357	3.77517	6.28376	-7.00617	0.024777	-0.1258	0.0268057	-0.688232	-0.491943	0.63501	0.966832	-0.120526	-0.088073	-0.207249	2.61212	-2.22766	10.3031	-0.00918346	0.0195097	-0.0436047	0.079834	0.304688	-1.01929	0.732291	0.0968433	-0.66485	0.111111	9.60644	-0.38029	0.917982	0.0632933	-0.00513344	0.010856	-1.06567	-0.103271	-0.385986	0.288157	-0.249636	-0.811411	-0.443011	6.8028	6.00774	-4.17648	0.0588708	0.0157225	0.0217703	-0.938721	-0.351562	0.36792	0.355804	-0.191642	-0.747043	-0.52783	7.11218	5.45422	-1.86801	0.0103452	0.00102704	-0.00576905	-1.05127	-0.363037	0.0668945	
61	-0.231705	0.0240978	0.426647	0.873902	2.74179	7.4912	6.64488	-0.0528952	0.00886774	0.0664363	-0.557129	-0.543701	-0.687988	0.234512	-0.0596908	-0.796927	-0.553487	4.75188	8.32232	-2.5479	-0.0513975	0.0654143	-0.0224734	-0.629395	-0.835449	0.140381	0.699102	0.128188	-0.702284	0.0402791	9.70456	1.21993	0.0861969	0.00447111	-0.0147034	0.025884	-1.0979	-0.33667	-0.266602	0.550271	0.403077	-0.586621	0.436586	9.62284	-0.768509	0.0288526	0.0376171	-0.0107145	-0.0323263	-1.11035	-0.246826	-0.0791016	0.135952	0.545265	0.0077111	-0.82713	-9.03431	1.15258	3.91989	0.0159939	0.0270985	-0.0438846	0.740723	-0.0290527	-0.717529	0.667561	0.207271	0.536666	-0.472642	-9.62456	-2.114	4.07916	0.0446397	0.0640522	-0.0605122	0.817627	0.574951	-0.0563965	0.110236	-0.233976	-0.885644	-0.385666	3.74272	5.60037	-6.03975	-0.00526615	0.0444047	-0.00637078	-0.69043	-0.494141	0.632812	0.96697	-0.119615	-0.0880643	-0.207139	2.93895	-2.53528	10.509	0.0760722	0.0333427	-0.0135046	0.0864258	0.300537	-1.01904	0.732434	0.0963798	-0.664869	0.110453	10.0001	-0.0989016	1.0549	-0.0606996	0.0108227	-0.0357468	-1.06567	-0.101074	-0.381592	0.287325	-0.250305	-0.810697	-0.444479	6.67734	5.7467	-4.26208	-0.150059	-0.0206418	-0.00367453	-0.943359	-0.347168	0.370117	0.355679	-0.191476	-0.747606	-0.527176	7.3972	6.7179	-2.02523	-0.123673	-0.00828627	0.00310273	-1.04419	-0.374023	0.0693359	
62	-0.232866	0.0237794	0.426055	0.87389	2.64147	7.62732	6.6555	-0.0168954	0.0346373	0.0348912	-0.550537	-0.541504	-0.692383	0.234495	-0.0594034	-0.796298	-0.55443	4.23016	8.33087	-2.72766	-0.0185901	0.00291617	-0.0520328	-0.633301	-0.841797	0.140625	0.699341	0.128089	-0.702076	0.0400529	9.36326	0.591891	-0.156084	-0.0184075	0.0032036	0.0381697	-1.0979	-0.332275	-0.266846	0.550242	0.403111	-0.58688	0.436243	9.94498	-0.723664	0.0733263	-0.0116182	-0.00996916	-0.00373755	-1.10571	-0.251221	-0.0769043	0.136012	0.545215	0.00827721	-0.827147	-8.33248	1.24682	4.25366	-0.0433446	0.00838891	-0.0189541	0.740723	-0.03125	-0.715088	0.668031	0.206342	0.537963	-0.470907	-9.41249	-2.6846	3.76225	-0.0129624	0.0397386	0.00558964	0.81958	0.577148	-0.0500488	0.107399	-0.235106	-0.885495	-0.386121	3.54316	6.2243	-6.54957	-0.036419	-0.156856	-0.00678825	-0.686035	-0.496338	0.639404	0.967166	-0.118739	-0.0878786	-0.206806	2.94273	-2.2255	10.3501	0.0324932	0.0360587	0.00224424	0.0795898	0.306885	-1.01929	0.732401	0.0956424	-0.665108	0.109875	10.1534	-0.359986	0.97889	-0.07291	-0.00799205	-0.0134158	-1.06323	-0.105469	-0.388184	0.28733	-0.250382	-0.810767	-0.444305	6.64829	5.01252	-4.07605	0.0548909	0.0392871	0.00679532	-0.941162	-0.347168	0.365479	0.35561	-0.191117	-0.748423	-0.526194	7.27472	6.19256	-1.84459	0.188262	-0.00746799	-0.0145422	-1.05078	-0.374023	0.0693359	
63	-0.233861	0.0219951	0.424987	0.874192	2.43406	7.56592	6.77124	-0.00330688	0.0621872	-0.0234859	-0.54834	-0.539307	-0.69458	0.233835	-0.0589735	-0.796321	-0.554722	4.49413	8.14121	-2.60267	-0.0138159	0.00781093	-0.0459313	-0.635742	-0.837646	0.137939	0.699356	0.128507	-0.701965	0.0403994	9.74085	1.05504	-0.16167	-0.0848254	0.0314465	-0.0295494	-1.09375	-0.334473	-0.27124	0.550007	0.403068	-0.586897	0.436555	9.86814	-0.756297	-0.127535	-0.052319	-0.00580949	0.0160159	-1.10815	-0.244629	-0.0771484	0.134939	0.546738	0.00900786	-0.82631	-8.95897	1.07317	3.55713	0.0478969	0.0746505	-0.0512751	0.742676	-0.0224609	-0.710693	0.668012	0.208218	0.537503	-0.470634	-9.261	-1.88426	3.85966	0.0455314	0.0624599	0.0599335	0.822021	0.572754	-0.052002	0.106838	-0.234968	-0.886063	-0.385055	3.62931	5.58914	-5.73442	0.0988284	-0.00144737	-0.0386279	-0.681641	-0.494141	0.632812	0.966999	-0.120059	-0.0886468	-0.206497	2.58426	-2.16908	10.5412	0.0187502	-0.0146297	-0.00539557	0.0839844	0.304688	-1.01685	0.732374	0.0958459	-0.665078	0.110058	10.0178	0.108723	1.19953	0.052269	-0.00829871	-0.0259131	-1.06567	-0.103271	-0.383789	0.287993	-0.250035	-0.811213	-0.443257	6.61211	5.8192	-4.40625	0.107482	0.0350621	0.0177083	-0.938721	-0.349365	0.365479	0.354994	-0.192567	-0.747239	-0.52776	7.14153	6.02958	-2.10972	-0.0980781	-0.0105223	0.0174061	-1.05103	-0.369629	0.0668945	
64	-0.233622	0.0208652	0.424864	0.874343	2.28374	7.78934	6.78479	0.00278527	0.0266124	-0.0368013	-0.541992	-0.534912	-0.696777	0.233714	-0.0584755	-0.79626	-0.554913	4.2589	8.47845	-2.71133	-0.0276847	0.0330044	-0.040259	-0.633545	-0.837646	0.133301	0.69856	0.129547	-0.702504	0.0414639	9.4461	1.23166	-0.0424768	0.19095	-0.027479	-0.0136563	-1.0979	-0.332275	-0.266846	0.549863	0.403157	-0.587014	0.436497	9.94108	-1.00588	-0.102969	0.0013243	-0.0116943	0.00178636	-1.11011	-0.251221	-0.074707	0.136299	0.547771	0.0100743	-0.82539	-8.89891	1.63759	4.20087	-0.146322	0.104644	-0.013559	0.740723	-0.0290527	-0.710693	0.669409	0.206875	0.539428	-0.467025	-9.64224	-2.83719	3.71966	-0.0603005	0.0337371	0.0422084	0.824463	0.568604	-0.043457	0.103909	-0.236049	-0.88531	-0.386923	3.34371	5.82985	-6.60766	-0.0694036	-0.0948706	-0.0400531	-0.677002	-0.502686	0.637451	0.967039	-0.119721	-0.0889085	-0.206391	3.04701	-1.95036	10.2392	0.035595	0.00174079	-0.013691	0.079834	0.304688	-1.01929	0.732668	0.0940024	-0.665101	0.109551	9.52397	-0.461453	0.874786	0.0489363	0.0252303	0.0152664	-1.06104	-0.10083	-0.385986	0.287598	-0.250272	-0.810974	-0.443815	6.60823	5.12976	-4.31888	0.0711141	0.0382076	0.0154648	-0.943115	-0.349365	0.365479	0.355579	-0.191434	-0.748721	-0.525675	7.12885	7.15103	-1.75575	-0.0541335	0.00281521	0.00496201	-1.05103	-0.367432	0.0668945	
65	-0.233448	0.0199214	0.42441	0.874632	2.54939	7.73892	6.91183	-0.0116133	0.0433095	-0.029214	-0.543945	-0.541504	-0.694336	0.232093	-0.0584408	-0.796691	-0.554979	4.53383	8.58997	-2.39835	0.0159394	-0.0549025	-0.061577	-0.626709	-0.843994	0.145264	0.699159	0.127434	-0.702412	0.0394313	9.93665	0.920702	-0.172638	-0.240124	0.00375558	0.0326314	-1.09375	-0.332275	-0.266846	0.550467	0.402058	-0.58789	0.43557	10.1272	-1.09473	0.136337	-0.0601481	0.00242672	-0.0199086	-1.11255	-0.246826	-0.074707	0.134629	0.549683	0.00837056	-0.824411	-8.88072	1.03679	3.75504	0.259179	0.0754477	0.000520814	0.749268	-0.0290527	-0.708252	0.67	0.210163	0.537131	-0.467355	-9.4704	-1.61323	3.66932	-0.01354	-0.00722063	0.0894058	0.826416	0.568604	-0.043457	0.101635	-0.237531	-0.885167	-0.386948	3.66466	6.09025	-6.47878	-0.0994048	-0.0616371	0.0176727	-0.679443	-0.498535	0.643555	0.967004	-0.118951	-0.0892461	-0.206857	3.0995	-1.97889	10.3384	0.0468062	-0.0103344	-0.0147397	0.0776367	0.302734	-1.02393	0.732557	0.093735	-0.665194	0.109959	10.2697	-0.452465	0.660065	-0.0497994	0.0045356	0.00996185	-1.06567	-0.105469	-0.383789	0.286805	-0.251376	-0.810198	-0.44512	6.68005	4.67179	-4.12955	-0.269929	-0.0572138	0.00845302	-0.940918	-0.351562	0.370117	0.355436	-0.192135	-0.747929	-0.526641	7.40817	5.62186	-2.08887	0.116769	0.0196599	-0.0101251	-1.05127	-0.365234	0.0668945	
66	-0.232818	0.0185521	0.423386	0.875326	2.34155	7.98598	6.89352	-0.0357742	0.0452355	-0.0517793	-0.541504	-0.543457	-0.69873	0.231706	-0.0592419	-0.796159	-0.555818	4.26262	7.73727	-2.90262	-0.0360332	-0.0203636	0.0105158	-0.631348	-0.8396	0.140381	0.698646	0.127363	-0.702896	0.040126	9.69276	1.01503	0.120111	0.0184304	-0.0225271	0.023099	-1.09814	-0.327881	-0.266846	0.551315	0.400434	-0.589178	0.43425	9.79084	-0.470101	-0.278558	-0.154093	-0.00262147	0.0238607	-1.10596	-0.246826	-0.0791016	0.134084	0.551864	0.00760375	-0.823049	-8.84994	1.35592	3.78959	-0.0327791	0.110477	-0.0376387	0.747314	-0.0290527	-0.706055	0.670935	0.212243	0.535678	-0.466742	-9.40243	-2.08204	4.06659	0.0704435	-0.00380725	0.0810272	0.824463	0.564209	-0.0539551	0.101557	-0.237076	-0.885787	-0.385827	3.54942	5.62797	-6.01019	0.0901707	0.00109627	-0.0421939	-0.675049	-0.498535	0.645752	0.966816	-0.119848	-0.0889553	-0.207342	2.61723	-2.86169	10.414	-0.0363756	0.0292749	-0.0144044	0.0817871	0.307129	-1.02393	0.733258	0.09091	-0.66523	0.10741	9.8321	-0.114238	1.01682	-0.263919	0.0265008	-0.0537422	-1.06372	-0.0964355	-0.381592	0.287851	-0.250412	-0.811763	-0.442127	6.30728	6.30197	-4.17098	0.282708	0.00607071	0.0318949	-0.93457	-0.342529	0.369873	0.355811	-0.192124	-0.747336	-0.527234	7.29078	6.62924	-1.99915	-0.17893	0.0241017	0.00885193	-1.05103	-0.367432	0.0668945	
67	-0.232868	0.0188095	0.422424	0.875772	2.34742	7.80063	6.90699	-0.0882523	-0.00204239	0.0037129	-0.537354	-0.539062	-0.696533	0.229688	-0.0599517	-0.797309	-0.55493	4.43397	8.81235	-2.69348	0.0267392	-0.0389506	-0.039708	-0.626953	-0.8396	0.145264	0.698836	0.127036	-0.702824	0.0390834	9.46249	0.796821	-0.318507	-0.0824273	0.00835737	-0.0448925	-1.0979	-0.332275	-0.264404	0.552717	0.397746	-0.591909	0.431214	9.91574	-0.777308	-0.130956	-0.100791	-0.0315157	-0.00134819	-1.10596	-0.244629	-0.0727539	0.133873	0.55372	0.00641306	-0.821846	-8.5878	1.35567	3.9498	0.105342	0.0990137	0.0545316	0.758301	-0.0334473	-0.69458	0.67146	0.214932	0.534838	-0.465718	-9.50048	-2.05088	3.76511	0.08592	0.0354604	0.0737164	0.820312	0.564209	-0.0495605	0.0988914	-0.238638	-0.885811	-0.385501	3.60142	5.91848	-6.52644	0.13597	-0.181593	-0.00583223	-0.67041	-0.502686	0.643799	0.966916	-0.119151	-0.0887929	-0.207347	2.77199	-2.03048	10.3384	0.0255537	0.0244742	-0.0181057	0.0842285	0.302734	-1.02148	0.7337	0.0891466	-0.665299	0.105425	9.97706	-0.0587428	0.810131	-0.0487427	0.0232682	-0.0460542	-1.06372	-0.0961914	-0.390625	0.286951	-0.250902	-0.811285	-0.44331	6.72096	5.48477	-4.4448	-0.00299557	0.0433796	-0.0197188	-0.938965	-0.344971	0.374512	0.356158	-0.19175	-0.74745	-0.526974	7.23649	5.78046	-1.88839	0.0392402	0.0363281	-0.00641366	-1.04883	-0.367432	0.0668945	
68	-0.232066	0.0197555	0.420897	0.876699	2.40157	7.52179	6.80871	-0.0725244	-0.0588909	-0.0504896	-0.537598	-0.534668	-0.705322	0.228382	-0.0602967	-0.796783	-0.556187	4.55063	8.09105	-2.71717	-0.0413097	-0.0484678	-0.0543319	-0.631104	-0.843994	0.143066	0.698636	0.125103	-0.703408	0.038386	9.89915	1.12628	0.0261501	-0.00301383	0.0267979	-0.0305049	-1.10229	-0.330078	-0.266846	0.55263	0.397651	-0.591652	0.431765	9.61965	-0.776653	0.0763621	0.0267401	0.0224517	0.0187914	-1.11499	-0.240234	-0.081543	0.132969	0.556426	0.00519739	-0.820172	-8.95074	1.62413	3.85562	0.07363	0.122473	-0.000264204	0.758301	-0.0356445	-0.701416	0.673707	0.21602	0.533681	-0.463291	-9.56257	-2.34562	3.9136	0.0179253	-0.0190931	0.140548	0.829102	0.55542	-0.0493164	0.0997398	-0.238219	-0.885372	-0.386548	3.29795	6.004	-6.35697	-0.131535	0.106754	-0.004616	-0.672852	-0.496338	0.645752	0.96691	-0.118305	-0.0891473	-0.207707	2.65209	-1.92035	10.6747	0.0650212	0.00437361	-0.04345	0.0751953	0.306885	-1.02393	0.734133	0.0879762	-0.665095	0.104682	9.79441	-0.524932	0.719441	0.0230685	0.0235359	0.000405685	-1.05908	-0.0939941	-0.385986	0.286768	-0.251729	-0.810793	-0.44386	6.76327	4.93785	-4.17801	-0.122267	-0.0111242	0.00681149	-0.93457	-0.342529	0.36084	0.35704	-0.19081	-0.748047	-0.52587	7.17908	6.99287	-1.87141	-0.103728	0.0293598	0.00223468	-1.04883	-0.369629	0.0668945	
69	-0.22893	0.0203338	0.420114	0.877885	2.58218	7.51845	6.69491	-0.0553891	-0.0675532	-0.111538	-0.539551	-0.536865	-0.700928	0.227987	-0.0601516	-0.7968	-0.556339	4.48127	8.45494	-2.67901	-0.0147256	-0.00431405	-0.0494389	-0.628906	-0.846191	0.143066	0.698828	0.123693	-0.703518	0.0374411	9.61125	0.707793	-0.160375	-0.0685774	0.00151451	0.0119335	-1.09595	-0.332275	-0.266846	0.552564	0.397735	-0.59161	0.43183	9.78418	-0.748123	-0.143882	0.0100514	0.00307918	-0.000592749	-1.10596	-0.244629	-0.0793457	0.133438	0.557874	0.00524608	-0.819111	-8.73351	1.47292	3.98314	-0.00715011	0.14937	0.0251726	0.760498	-0.0334473	-0.696777	0.674462	0.218454	0.531693	-0.463337	-9.54208	-2.56197	4.18341	0.210274	-0.0280281	0.145118	0.835693	0.55127	-0.0600586	0.0976795	-0.239348	-0.88466	-0.388004	3.2895	5.80286	-6.39907	-0.159447	-0.138909	0.00282101	-0.67041	-0.504883	0.647949	0.966729	-0.118721	-0.089071	-0.208344	2.58609	-2.04194	10.5254	-0.0352667	0.0212817	-0.0652427	0.0776367	0.304688	-1.01685	0.733964	0.0894529	-0.664743	0.106821	9.86637	-0.198629	0.96024	0.206765	0.0199711	0.0253991	-1.06152	-0.0939941	-0.392822	0.287641	-0.251057	-0.811191	-0.442948	6.63829	5.75088	-4.32925	0.109232	0.0639497	0.00154839	-0.939209	-0.340576	0.37207	0.357492	-0.190536	-0.747831	-0.52597	7.08539	6.45293	-1.83815	0.133663	0.0292466	-0.0021858	-1.05322	-0.369629	0.0646973	
70	-0.227036	0.0195902	0.419966	0.878464	2.6218	7.71937	6.71139	-0.00995454	-0.00617372	-0.085081	-0.541748	-0.539062	-0.703125	0.22772	-0.060079	-0.796695	-0.556607	4.28898	8.22302	-2.69388	-0.0277815	0.00402058	-0.0406883	-0.624512	-0.846191	0.140625	0.698992	0.124892	-0.703109	0.03808	9.60868	1.09638	-0.0485576	0.0258507	0.0258053	-0.0160502	-1.10449	-0.327881	-0.269043	0.552969	0.397163	-0.591366	0.432172	9.8375	-0.793381	0.140538	-0.0297298	0.0368603	0.0195218	-1.1062	-0.240234	-0.081543	0.130195	0.56206	0.00265446	-0.816781	-8.98691	1.16268	3.51962	0.180143	0.179287	-0.0425759	0.771729	-0.0400391	-0.685547	0.676134	0.223259	0.529274	-0.461376	-9.33557	-1.28079	4.03519	0.0299619	0.0636124	0.199855	0.840332	0.544678	-0.0598145	0.0958637	-0.240682	-0.883946	-0.389257	3.34469	5.51546	-6.32742	-0.017597	-0.107834	-0.020451	-0.662109	-0.500488	0.645752	0.966607	-0.118986	-0.0896664	-0.208501	2.9955	-2.37525	10.2858	-0.020328	-0.0154365	0.0223561	0.0776367	0.304688	-1.01929	0.733577	0.0904349	-0.66468	0.109027	10.031	-0.765697	1.13348	0.0641128	-0.0083998	0.0127781	-1.06372	-0.0961914	-0.388184	0.287314	-0.25173	-0.809878	-0.445175	6.71144	4.99314	-4.11038	-0.13615	0.0458163	-0.0140165	-0.938965	-0.347168	0.367676	0.35696	-0.19158	-0.74667	-0.527599	7.24829	5.96288	-1.89375	-0.0691819	-0.00197239	0.00190636	-1.04883	-0.367432	0.0646973	
71	-0.225891	0.0180058	0.419757	0.878893	2.46477	7.92206	6.79405	-0.00119559	0.0365413	-0.0716014	-0.532959	-0.539062	-0.700928	0.225667	-0.0601456	-0.796206	-0.558133	4.52018	8.02475	-2.61779	-0.13763	-0.0144312	-0.0399665	-0.628906	-0.846191	0.145264	0.699483	0.121805	-0.703198	0.0374217	9.61329	0.522826	0.0865959	-0.137743	0.0350112	0.0657237	-1.1001	-0.327881	-0.269287	0.552866	0.397231	-0.591078	0.432635	9.69299	-0.717887	-0.123462	0.0376155	0.0255339	0.0115583	-1.1106	-0.242432	-0.0793457	0.131352	0.565902	0.00426971	-0.813931	-8.90807	1.46663	3.39911	-0.132114	0.207695	-0.0455158	0.776123	-0.0400391	-0.683105	0.677751	0.226116	0.529297	-0.457568	-9.4696	-1.72769	4.31542	0.0685613	0.0717538	0.180862	0.847168	0.536133	-0.057373	0.096162	-0.24013	-0.885098	-0.3869	3.92315	5.59235	-5.93471	0.226616	-0.00690929	-0.049083	-0.66626	-0.502686	0.645996	0.966776	-0.118774	-0.0896678	-0.207839	2.68525	-2.19692	10.611	0.0268518	0.0156752	0.035123	0.079834	0.304932	-1.02393	0.733395	0.0914579	-0.66471	0.109214	9.76769	-0.0673215	1.0656	0.0300289	-0.0037542	-0.0559458	-1.06128	-0.0961914	-0.385986	0.287246	-0.251674	-0.810689	-0.443771	6.53039	5.08655	-4.19408	0.0398218	-0.0584311	-0.00039426	-0.938965	-0.342773	0.369873	0.357069	-0.191357	-0.746928	-0.52724	7.19144	6.63332	-1.82656	-0.0385047	0.00687799	-0.000700331	-1.04639	-0.369629	0.0578613	
72	-0.225828	0.0184604	0.418886	0.879315	2.33539	7.49967	6.79022	-0.0307192	-0.0393938	0.0169031	-0.532959	-0.536865	-0.705078	0.225379	-0.0595622	-0.797171	-0.556933	4.40526	8.54831	-2.74461	0.0831631	0.0173394	-0.0410217	-0.628906	-0.843994	0.143066	0.69919	0.122349	-0.703341	0.0384061	9.58209	0.901349	-0.111532	0.11522	-0.0111264	0.0119481	-1.09814	-0.319336	-0.26709	0.55239	0.397643	-0.590865	0.433156	9.77036	-0.70256	-0.114385	0.0641406	-0.00509172	0.0132517	-1.10645	-0.23584	-0.0793457	0.128523	0.569761	0.00191598	-0.811696	-8.75785	1.68141	3.81158	0.207919	0.177252	-0.035525	0.780518	-0.0422363	-0.67627	0.679073	0.230214	0.528314	-0.454692	-9.53871	-1.27613	4.04211	0.0462981	0.0555623	0.159781	0.847656	0.525146	-0.0571289	0.0973787	-0.23915	-0.884725	-0.388054	3.05331	6.07343	-6.31508	-0.0977443	-0.0602228	-0.00956059	-0.668213	-0.50708	0.641846	0.966815	-0.119419	-0.089931	-0.20717	2.52338	-2.06184	10.5373	-0.0786755	-0.0220087	0.00320062	0.0732422	0.304932	-1.02393	0.733448	0.0933251	-0.664218	0.11027	9.83373	0.109674	1.09937	0.117982	0.0167749	-0.0287564	-1.06592	-0.0961914	-0.392822	0.288177	-0.250103	-0.812004	-0.441647	6.77359	6.25268	-4.18197	0.131016	0.0394035	-0.0010498	-0.941162	-0.342773	0.363037	0.357615	-0.190049	-0.74873	-0.524782	7.43592	6.67019	-1.87223	0.184974	0.00774925	-0.0107237	-1.04858	-0.371826	0.0625	
73	-0.225214	0.0185552	0.419432	0.879211	2.7372	7.68238	6.73305	0.0197467	-0.00539282	-0.0415244	-0.532715	-0.543457	-0.696533	0.224674	-0.058697	-0.797222	-0.557237	4.45783	8.55818	-2.61806	-0.0351642	0.0154568	-0.0802071	-0.620117	-0.846191	0.147705	0.699156	0.125042	-0.702777	0.0406012	9.82949	1.56825	-0.24813	0.0142846	0.00776874	-0.0206755	-1.09595	-0.325928	-0.262451	0.550315	0.399891	-0.58929	0.435865	9.96881	-0.585008	-0.246933	0.116976	2.45019e-05	0.00381172	-1.11499	-0.242432	-0.081543	0.128117	0.572559	0.00367357	-0.809783	-9.33947	1.14665	3.05891	-0.0162292	0.120396	-0.0170002	0.784912	-0.0466309	-0.674072	0.67962	0.234269	0.527423	-0.452835	-9.72658	-0.520243	3.76607	0.0259424	0.0861791	0.137257	0.854248	0.520752	-0.0571289	0.0950633	-0.239786	-0.885144	-0.387281	3.91883	5.93096	-6.49024	0.00958407	0.0168315	-0.0253219	-0.657715	-0.500488	0.647949	0.967017	-0.117492	-0.0894121	-0.207558	2.5006	-2.00534	10.5283	0.080427	0.075348	-0.0502195	0.0778809	0.296143	-1.0166	0.733435	0.092943	-0.664159	0.111034	10.0561	-0.00926777	1.1623	0.029518	0.0114453	0.0194169	-1.06128	-0.0986328	-0.390381	0.287566	-0.251147	-0.810207	-0.444742	6.42996	5.03565	-4.29185	-0.0995568	0.0399367	-0.00365284	-0.936523	-0.351318	0.361084	0.356969	-0.1915	-0.747074	-0.527049	7.19547	6.36349	-1.97152	-0.126672	-0.00544866	0.0081084	-1.04688	-0.363037	0.0600586	
74	-0.223343	0.0162462	0.419531	0.879686	2.34441	8.10707	6.7279	0.00359479	0.0468324	-0.118105	-0.530518	-0.543457	-0.702881	0.224281	-0.0578978	-0.795838	-0.559453	4.14568	8.0789	-2.57084	-0.126438	0.0570878	-0.0526059	-0.62207	-0.852783	0.145508	0.699458	0.123846	-0.702834	0.0380025	9.86169	0.690314	0.221969	-0.0217981	-0.00963962	-0.0483333	-1.1001	-0.330078	-0.273682	0.550231	0.400278	-0.58966	0.435115	9.95093	-0.648304	-0.404087	-0.0223898	-0.0363302	-0.0089765	-1.11279	-0.242432	-0.0749512	0.129442	0.575062	0.00590778	-0.807783	-8.93407	1.32009	3.3456	-0.219305	0.157606	-0.0973352	0.793457	-0.0378418	-0.6604	0.681817	0.234183	0.527633	-0.449319	-9.48663	-2.09534	4.26783	0.0804788	0.00353047	0.100629	0.863281	0.514404	-0.0524902	0.0992237	-0.237859	-0.883796	-0.390489	3.14301	5.82173	-6.15486	-0.0589138	0.255504	-0.0457891	-0.668457	-0.498291	0.637207	0.967046	-0.116915	-0.0891594	-0.207856	2.96549	-2.2903	10.4616	0.0735905	0.0338649	-0.0305757	0.079834	0.302734	-1.01904	0.734188	0.0894596	-0.6644	0.107409	10.0991	0.00330462	0.726606	-0.318902	0.0262873	-0.0603842	-1.06836	-0.0939941	-0.385986	0.287884	-0.250944	-0.810424	-0.444256	6.49621	5.59002	-4.28207	0.0411061	0.00983402	0.00767033	-0.936523	-0.346924	0.367676	0.357581	-0.190401	-0.747992	-0.52573	7.26637	6.74861	-1.97746	0.0116544	0.0288727	-0.00725327	-1.04663	-0.367432	0.0625	
75	-0.223463	0.0154106	0.419136	0.879859	2.36647	7.81529	6.80145	-0.0188606	0.0656046	-0.0240651	-0.530273	-0.549805	-0.707275	0.223755	-0.0577486	-0.796024	-0.559415	4.41521	8.0259	-2.61295	0.0030062	-0.0179665	-0.052441	-0.624268	-0.852783	0.145508	0.699623	0.125684	-0.702315	0.0385361	9.22054	0.763659	-0.260751	0.129434	0.0408688	-0.0817873	-1.09814	-0.330078	-0.273682	0.550359	0.399617	-0.590399	0.434557	9.5438	-0.928684	0.352997	-0.0431004	-0.00781759	0.0128963	-1.11279	-0.240234	-0.0771484	0.129156	0.577494	0.00489673	-0.806099	-8.5263	1.16416	3.1275	0.0741611	0.121941	0.0422054	0.793701	-0.0424805	-0.657959	0.683142	0.234949	0.528133	-0.446309	-9.28332	-0.712121	3.96105	-0.288699	0.0232233	0.0869903	0.854492	0.514404	-0.0439453	0.0972839	-0.238951	-0.88388	-0.390122	3.64589	5.88395	-6.0194	-0.0294318	-0.169898	0.0232822	-0.668457	-0.502686	0.643799	0.966947	-0.116579	-0.0892228	-0.208475	2.56805	-2.12798	10.4805	0.013099	0.0114796	-0.0346516	0.0778809	0.300537	-1.01685	0.734284	0.0898579	-0.664211	0.107598	9.65448	-0.603515	0.979199	0.14033	0.00465392	-0.0232815	-1.06348	-0.0986328	-0.388184	0.287513	-0.251173	-0.81054	-0.444155	6.76101	5.46139	-4.08734	0.0330487	0.0365287	-0.0158813	-0.936768	-0.344971	0.365479	0.357275	-0.191293	-0.746769	-0.52735	7.09448	6.33174	-1.87071	-0.175311	0.0109207	0.00851635	-1.05127	-0.365234	0.0646973	
76	-0.224531	0.0142185	0.418503	0.879909	2.30451	7.75747	6.89235	-0.0266725	0.0526777	0.0242369	-0.52832	-0.54126	-0.707275	0.222846	-0.0573872	-0.796207	-0.559555	4.26625	7.985	-2.45985	-0.0716647	-0.0170483	-0.0438143	-0.62207	-0.852783	0.145508	0.699687	0.123032	-0.70283	0.0364801	10.0232	0.932751	0.364723	-0.245213	0.00810015	0.0297649	-1.10229	-0.330078	-0.271484	0.550135	0.399101	-0.590983	0.434522	9.86744	-1.01358	0.418992	-0.0145866	-0.00200188	0.0479214	-1.1106	-0.242432	-0.0749512	0.130135	0.579457	0.0075325	-0.804511	-9.34156	1.16988	3.0022	-0.0759712	0.0762806	-0.00560295	0.802246	-0.0380859	-0.655762	0.682692	0.239545	0.527582	-0.445205	-9.5891	-0.845782	3.4769	0.272467	0.120766	0.129603	0.86792	0.503662	-0.0522461	0.0984911	-0.237562	-0.883422	-0.3917	3.06028	5.81567	-6.59935	0.0390949	0.0284462	-0.0481498	-0.67041	-0.504883	0.641602	0.967117	-0.116046	-0.0891426	-0.208018	2.81708	-2.11978	10.5901	0.0370014	0.0327804	-0.00104857	0.0778809	0.29834	-1.02368	0.73413	0.0907732	-0.664089	0.108627	10.0184	-0.888325	0.870578	0.0686994	-0.00337487	-0.00372734	-1.05908	-0.0939941	-0.392822	0.287948	-0.250998	-0.810004	-0.444949	6.58506	5.50427	-4.22656	-0.0622354	0.0183794	0.00842945	-0.938965	-0.344971	0.365479	0.357719	-0.190514	-0.747933	-0.525679	7.1987	6.55946	-1.83121	0.101347	0.00298124	-0.0065235	-1.05103	-0.371826	0.0578613	
77	-0.225225	0.013015	0.418973	0.879526	2.12297	7.37637	6.9634	0.0675666	0.0210374	-0.0273861	-0.525879	-0.549805	-0.705078	0.222912	-0.0565448	-0.797094	-0.558349	4.50449	8.81262	-2.66586	0.0630008	0.0207978	-0.0445148	-0.619873	-0.85498	0.147949	0.698956	0.124311	-0.70326	0.0378673	9.9688	0.810599	-0.237088	0.168774	-0.0409535	0.0463201	-1.09814	-0.323486	-0.269287	0.550304	0.398378	-0.591397	0.434408	9.93266	-0.707723	0.264829	-0.0581777	0.0168793	0.0368536	-1.10596	-0.242432	-0.0771484	0.129469	0.580861	0.00484021	-0.803626	-8.755	1.17191	3.21773	0.219744	0.109825	0.0769536	0.80249	-0.0446777	-0.653564	0.683996	0.238608	0.528329	-0.442813	-9.83687	-0.399129	3.50762	-0.189669	0.019622	0.104339	0.86792	0.503662	-0.0437012	0.0984911	-0.237562	-0.883422	-0.3917	3.06028	5.81567	-6.59935	0.0390949	0.0284462	-0.0481498	-0.67041	-0.504883	0.641602	0.967096	-0.117129	-0.0891853	-0.207492	2.52166	-2.40349	10.4595	-0.0756246	-0.00877899	0.0301743	0.0822754	0.296143	-1.02148	0.73413	0.0907732	-0.664089	0.108627	10.0184	-0.888325	0.870578	0.0686994	-0.00337487	-0.00372734	-1.05908	-0.0939941	-0.392822	0.287603	-0.25108	-0.810179	-0.444806	6.79217	4.66934	-4.22965	0.00845735	-0.0212769	-0.00538277	-0.93457	-0.344727	0.367676	0.357083	-0.191755	-0.746599	-0.527553	7.18446	6.23996	-1.78791	-0.112437	-0.00241353	0.00359313	-1.05078	-0.374023	0.0578613	
78	-0.223563	0.0123303	0.421033	0.878976	2.17475	7.85813	6.84114	0.0832819	-0.0361216	-0.0467636	-0.525635	-0.552002	-0.707031	0.223945	-0.0556095	-0.797274	-0.557773	4.44878	8.15405	-2.55021	0.0786521	0.0513962	-0.016739	-0.619629	-0.857178	0.148193	0.699405	0.123422	-0.702992	0.0374317	9.63936	0.365113	-0.110562	-0.120031	0.0141596	0.0016128	-1.09595	-0.325928	-0.266846	0.548367	0.401905	-0.589339	0.4364	9.76519	-0.469015	-0.317992	0.233081	-0.0179192	-0.0472682	-1.11279	-0.242432	-0.0683594	0.129837	0.583157	0.00554567	-0.801898	-9.25302	1.34245	2.9087	-0.0166674	0.0829932	0.0118389	0.806641	-0.0424805	-0.648926	0.684899	0.242316	0.525511	-0.442757	-9.52086	-0.919463	3.55835	0.397286	0.00898653	0.115972	0.868164	0.499268	-0.0456543	0.0998017	-0.235433	-0.884969	-0.389155	3.10949	5.7094	-6.56292	0.050765	-0.125896	-0.0144322	-0.666016	-0.509277	0.639648	0.967167	-0.118523	-0.0899328	-0.206041	2.76405	-2.02007	10.5454	-0.0283077	-0.0251019	0.0277734	0.079834	0.300537	-1.02368	0.73291	0.0981296	-0.663535	0.11373	10.2012	0.102566	1.07388	0.0962711	0.001741	-0.0260622	-1.06323	-0.105469	-0.385986	0.288207	-0.249945	-0.811198	-0.443196	6.69099	4.98107	-4.01218	0.0141405	-0.0336881	-0.00460253	-0.943359	-0.344971	0.367676	0.35719	-0.190682	-0.748204	-0.525592	7.39602	6.68783	-1.67631	0.0792022	-0.00919117	-0.020043	-1.05103	-0.367432	0.0625	
79	-0.222713	0.0128103	0.422956	0.878261	2.26857	8.21502	6.78434	0.0635343	-0.0578435	-0.0216948	-0.530273	-0.547852	-0.698486	0.224705	-0.0545049	-0.797577	-0.557143	4.18518	8.45039	-2.58827	-0.0189269	0.0608303	-0.0279498	-0.615479	-0.857178	0.141113	0.699152	0.127657	-0.702281	0.0411401	9.35713	1.59342	0.147127	0.298644	0.0547321	-0.04977	-1.09814	-0.327881	-0.269287	0.547721	0.402596	-0.588923	0.437136	9.71031	-0.491988	-0.578723	0.0988768	-0.0066401	0.0089634	-1.11279	-0.240234	-0.0683594	0.132499	0.58498	0.00463655	-0.800138	-9.02061	1.62319	3.21075	-0.091983	0.126624	0.0983098	0.806641	-0.0402832	-0.644287	0.688723	0.239045	0.525556	-0.438531	-9.53078	-1.64247	3.6223	-0.221138	-0.1014	0.0702114	0.872803	0.490479	-0.0454102	0.0996267	-0.23519	-0.885627	-0.387846	3.84151	5.96472	-6.05717	0.127324	-0.0245651	-0.0407542	-0.670654	-0.500488	0.641602	0.967536	-0.117086	-0.0899192	-0.205131	2.8102	-1.82402	10.5162	0.112127	0.0490732	0.0161733	0.079834	0.304932	-1.02148	0.732639	0.101527	-0.662887	0.116246	9.94527	0.175677	0.986061	0.157086	0.00801787	-0.0414815	-1.05859	-0.105469	-0.385986	0.289059	-0.249152	-0.811194	-0.443093	6.4718	6.04403	-3.81815	-0.0826556	0.0267151	-0.00269507	-0.938721	-0.349365	0.365479	0.356009	-0.1922	-0.747288	-0.527141	7.13179	6.49199	-1.84416	-0.038609	-0.0377617	-0.000891066	-1.04663	-0.365234	0.0625	
80	-0.223391	0.0137055	0.423286	0.877916	2.32869	7.72064	6.75028	0.00123116	-0.0179434	0.0611557	-0.530029	-0.552002	-0.698486	0.225672	-0.0541234	-0.797181	-0.557356	4.29814	8.59303	-2.74176	-0.00436085	0.0457369	-0.0249992	-0.619873	-0.850586	0.147949	0.69901	0.12733	-0.702556	0.039831	9.60295	1.04688	-0.187414	-0.0847311	-0.0184265	0.0078587	-1.0957	-0.332275	-0.262207	0.546505	0.404522	-0.588353	0.437647	9.74209	-0.780924	-0.0884519	0.0832573	-0.0387359	-0.0221743	-1.11255	-0.246826	-0.065918	0.134481	0.586084	0.0032617	-0.799006	-8.96066	1.19875	2.96819	0.120819	0.0460371	0.121861	0.806885	-0.046875	-0.64209	0.690404	0.240857	0.522186	-0.438921	-9.57874	-0.648935	3.72616	0.109351	-0.0900006	0.0792981	0.872559	0.492676	-0.0583496	0.0993973	-0.235034	-0.885017	-0.389388	3.56467	5.91893	-6.33726	0.0192254	-0.180643	0.00591668	-0.66626	-0.502686	0.641602	0.967435	-0.11795	-0.0899635	-0.205096	2.70768	-2.33259	10.5079	-0.0844976	-0.0376915	-0.00480036	0.0778809	0.300537	-1.01904	0.732402	0.102501	-0.662891	0.11686	9.92364	-0.295311	0.986258	-0.0417005	0.00584238	-0.0301641	-1.06299	-0.110107	-0.381348	0.289415	-0.248384	-0.810438	-0.444674	6.02381	5.09757	-4.27235	0.076216	0.0748295	-0.024597	-0.943359	-0.347168	0.358643	0.35568	-0.191956	-0.748379	-0.525903	7.24807	6.10803	-2.26331	0.160494	-0.00168441	-0.018129	-1.04883	-0.369629	0.0668945	
81	-0.224196	0.013707	0.424113	0.877312	2.54917	7.75179	6.71625	0.0492678	0.028808	0.0332182	-0.525635	-0.554199	-0.696289	0.226308	-0.0531821	-0.796811	-0.557717	4.28748	8.32757	-2.41448	-0.0230062	0.0665748	-0.0334643	-0.621826	-0.859375	0.138672	0.699056	0.128741	-0.70223	0.0402438	9.85578	0.824034	-0.330828	-0.0620501	-0.00317233	-0.0174819	-1.0979	-0.334473	-0.266602	0.54613	0.403949	-0.588817	0.43802	9.70143	-0.883335	-0.202036	-0.0147629	-0.0129997	0.0218722	-1.11475	-0.246826	-0.0681152	0.136222	0.587782	0.00305754	-0.797463	-9.59045	1.54426	2.75864	-0.139906	0.0891707	0.00302414	0.808838	-0.0446777	-0.644287	0.692411	0.241132	0.51947	-0.438832	-9.72814	-1.9461	4.35781	0.331412	-0.0566524	0.0593559	0.877197	0.486328	-0.0603027	0.102591	-0.232986	-0.884845	-0.390181	3.25137	5.57084	-6.14353	0.0429172	0.197321	-0.0559321	-0.670654	-0.502686	0.633057	0.96776	-0.116613	-0.0897695	-0.204412	2.56228	-2.05603	10.5258	0.0575806	0.0668165	-0.00693294	0.0776367	0.300537	-1.02148	0.732205	0.102959	-0.662901	0.117632	9.75743	0.179846	0.959016	0.0961296	0.00826724	-0.00674547	-1.06763	-0.114502	-0.387939	0.288666	-0.249099	-0.809778	-0.44596	6.57201	5.4012	-4.44981	-0.0606357	-0.00470803	-8.80264e-05	-0.938721	-0.351562	0.361084	0.355205	-0.192821	-0.747172	-0.527621	7.15396	6.6156	-1.85345	-0.152136	0.00567309	0.00590414	-1.04883	-0.369629	0.0625	
82	-0.226485	0.0124131	0.425042	0.876293	2.18787	7.53475	6.84644	0.062318	0.073056	0.0662946	-0.525635	-0.554199	-0.700684	0.226732	-0.05272	-0.79679	-0.557619	4.25556	8.60208	-2.70617	0.00250042	0.0445967	-0.0257919	-0.619873	-0.852783	0.145508	0.698918	0.129228	-0.702267	0.0404282	9.52764	1.33516	0.192474	0.201079	0.0264048	-0.0479143	-1.09351	-0.33667	-0.269043	0.545439	0.405392	-0.588123	0.438479	9.833	-0.338713	-0.316183	0.018411	0.00701956	0.0189761	-1.11475	-0.244873	-0.0637207	0.134732	0.589501	-0.00133072	-0.796451	-8.79721	1.94961	3.26208	0.213167	0.104459	0.0787689	0.813965	-0.0578613	-0.635254	0.694292	0.24183	0.518328	-0.436821	-9.36688	-0.323133	4.21484	-0.271719	-0.0203257	0.073539	0.881592	0.484131	-0.0625	0.103973	-0.232306	-0.884536	-0.390922	3.44574	6.05086	-6.75032	-0.103288	0.0729941	-0.0107394	-0.683594	-0.502686	0.628906	0.967761	-0.116678	-0.0893409	-0.204553	2.84297	-2.12214	10.3285	0.0204857	0.0266553	-0.00317451	0.0822754	0.293945	-1.01904	0.732267	0.102505	-0.662974	0.117231	9.65781	0.0809971	1.12939	-0.0474351	0.00522455	-0.0196548	-1.05835	-0.114502	-0.387939	0.288566	-0.248582	-0.810685	-0.444664	6.63805	5.87327	-3.91415	0.0272636	0.0340748	-0.0195077	-0.941162	-0.344971	0.358643	0.355575	-0.191934	-0.748253	-0.526162	7.28541	6.13545	-1.96323	0.174925	0.0153907	-0.0146372	-1.05103	-0.369629	0.0646973	
83	-0.226745	0.0122407	0.426087	0.875721	2.42991	7.85674	6.87711	0.00804774	-0.00841113	0.0148374	-0.531982	-0.556396	-0.700684	0.226689	-0.0527888	-0.796341	-0.558272	4.41951	8.32347	-2.44904	-0.0315395	0.00345092	-0.0221617	-0.615479	-0.85498	0.133789	0.698911	0.128704	-0.702389	0.0401079	9.43745	0.836255	-0.248629	-0.199084	-0.00398492	0.0305232	-1.0957	-0.332275	-0.264404	0.545313	0.404674	-0.588519	0.438769	9.69172	-1.0575	0.277985	0.030045	0.0090928	0.00822659	-1.12134	-0.249268	-0.0681152	0.137884	0.590065	0.00249485	-0.795491	-9.309	1.43323	2.7316	-0.1427	0.0636604	-0.0136462	0.815918	-0.0534668	-0.635254	0.694506	0.243345	0.517725	-0.436355	-9.55439	-0.241768	4.12065	0.137832	0.0373903	0.047379	0.877686	0.477539	-0.0600586	0.107234	-0.230461	-0.884853	-0.390415	3.3723	5.96671	-5.6226	0.0661366	0.140375	-0.0249802	-0.677002	-0.502686	0.626709	0.967685	-0.117402	-0.0893791	-0.204485	2.47287	-2.07057	10.6547	-0.0057666	0.0154683	-0.0256543	0.0820312	0.300537	-1.02393	0.731779	0.104741	-0.662808	0.119223	9.91175	-0.495552	0.666335	0.157294	0.00930099	0.00877877	-1.06567	-0.105469	-0.385986	0.289061	-0.248432	-0.810345	-0.445046	6.70617	5.94235	-3.92904	-0.0224435	0.0819534	-0.00372329	-0.936523	-0.349121	0.356445	0.354581	-0.193481	-0.746811	-0.528309	7.17325	6.18104	-1.87336	-0.213724	-0.0362601	0.00324415	-1.04883	-0.365234	0.0600586	
84	-0.226388	0.0115747	0.426693	0.875527	2.1689	7.70634	6.82722	0.0470336	-0.000358256	-0.0372405	-0.523438	-0.554199	-0.694092	0.226958	-0.0521734	-0.796666	-0.557755	4.21249	8.23802	-2.87293	0.0447787	0.0487739	-0.0270558	-0.617676	-0.852783	0.143311	0.69854	0.129242	-0.702596	0.0411922	9.89952	1.04119	-0.0211964	0.212063	0.0325713	-0.0319339	-1.09351	-0.33667	-0.269043	0.545201	0.404202	-0.588575	0.439268	9.75344	-0.465269	-0.351285	-0.0171927	0.0153917	0.0294295	-1.11475	-0.246826	-0.0681152	0.138147	0.591044	0.00246424	-0.794717	-9.3781	1.41997	2.98205	-0.0374648	0.0870043	-0.0273262	0.818115	-0.0556641	-0.637451	0.695434	0.242392	0.518425	-0.434573	-9.68334	-1.73703	4.02118	0.0966053	0.0367935	-0.000600779	0.877686	0.477539	-0.0622559	0.108759	-0.229808	-0.884076	-0.392135	3.92451	5.77395	-6.59725	0.00532271	0.201507	-0.0304896	-0.68335	-0.504883	0.626709	0.96762	-0.11789	-0.089742	-0.204351	2.65853	-2.23866	10.3271	0.0393493	0.00755397	-0.00460791	0.079834	0.302734	-1.02148	0.73153	0.104592	-0.662918	0.12027	9.92907	-0.0247223	1.02386	0.0258782	-0.00209071	0.025735	-1.06787	-0.10791	-0.383545	0.288717	-0.249112	-0.809064	-0.447214	6.67354	4.4677	-4.03372	-0.0027165	0.0314383	0.00171577	-0.943115	-0.351562	0.356445	0.353828	-0.193949	-0.746837	-0.528607	7.366	6.62195	-1.79025	-0.0446362	-0.0305151	-0.00770574	-1.05347	-0.367432	0.0693359	
85	-0.226266	0.0115275	0.427225	0.8753	2.4009	7.79444	6.79546	0.0452117	-0.0152418	-0.00806826	-0.525391	-0.558594	-0.694092	0.226217	-0.0524102	-0.796801	-0.557842	4.16842	8.15049	-2.35557	-0.0146674	-0.0473539	-0.0394841	-0.615479	-0.85498	0.13623	0.69832	0.128567	-0.70296	0.0408399	9.71642	1.37312	-0.0461815	-0.05776	-0.0311279	0.0201355	-1.09814	-0.327881	-0.264648	0.545182	0.403639	-0.589247	0.438908	9.6597	-0.519293	-0.295853	0.00676143	0.00632404	0.0382044	-1.12183	-0.240479	-0.0639648	0.136422	0.592089	5.3183e-05	-0.794241	-8.92518	2.04075	3.2075	0.159932	0.0272217	0.028298	0.818359	-0.0600586	-0.630615	0.694838	0.244834	0.517579	-0.435165	-9.49085	-0.535585	3.95034	0.215999	0.0712135	0.0455908	0.884033	0.477539	-0.0600586	0.11155	-0.227916	-0.88454	-0.391408	3.74716	5.87409	-5.95324	0.12278	0.0382105	-0.0345036	-0.6875	-0.511475	0.618408	0.967804	-0.116988	-0.0889795	-0.204334	2.57872	-2.05224	10.4227	0.0444384	0.0558401	-0.0345715	0.0776367	0.300537	-1.02148	0.731818	0.103131	-0.663024	0.11919	10.2102	-0.101271	0.792581	-0.143302	0.0196188	-0.00840631	-1.06323	-0.105469	-0.37915	0.289072	-0.248402	-0.810334	-0.445076	6.26409	5.82467	-3.94495	0.21006	-0.0124737	-0.00774877	-0.938965	-0.344971	0.363037	0.353767	-0.193855	-0.74694	-0.528535	7.21779	6.28418	-2.0266	0.0132862	0.0034425	-0.0123015	-1.04883	-0.369629	0.0646973	
86	-0.226383	0.0108956	0.428453	0.874677	2.0208	8.12307	6.64375	0.0615437	-0.0247661	-0.0190504	-0.527588	-0.560791	-0.694092	0.226381	-0.0519037	-0.796697	-0.557971	4.38012	8.34414	-2.49303	-0.038282	0.0937834	-0.0361298	-0.615234	-0.859375	0.138672	0.698174	0.127962	-0.703263	0.0399935	9.76641	0.789918	-0.143212	0.000161966	0.0174577	-0.0466944	-1.10449	-0.332275	-0.262207	0.545182	0.403639	-0.589247	0.438908	9.6597	-0.519293	-0.295853	0.00676143	0.00632404	0.0382044	-1.12183	-0.240479	-0.0639648	0.137912	0.592406	0.00234869	-0.793744	-9.04862	1.52553	3.10564	-0.212472	0.0752021	-0.023187	0.824707	-0.0534668	-0.632812	0.695901	0.24315	0.518998	-0.432714	-9.6825	-1.4821	4.23487	-0.0603812	0.0216045	-0.00752349	0.88623	0.475342	-0.0578613	0.115227	-0.226014	-0.883866	-0.392965	3.4601	5.99076	-5.73355	-0.10819	0.224797	-0.0434442	-0.689697	-0.50708	0.618408	0.967773	-0.117555	-0.0889067	-0.204184	2.3717	-1.90907	10.7256	-0.0401291	0.0123356	-0.00120834	0.0778809	0.298096	-1.01196	0.732069	0.0989004	-0.664	0.115752	9.564	0.215804	1.25303	-0.262145	-0.0177975	-0.0168467	-1.06592	-0.0986328	-0.379395	0.288302	-0.248634	-0.810861	-0.444487	6.65423	5.75942	-4.23385	0.0117163	0.0169157	-0.012524	-0.938721	-0.349365	0.358643	0.354199	-0.192958	-0.748022	-0.527042	7.27377	6.36283	-1.96571	0.0878639	0.0141102	-0.00463795	-1.04883	-0.367432	0.0693359	
