40	Head	00b4120a												Throax	00b411e8												LUpArm	00b411d9												LFoArm	00b41148												RUpArm	00b411db												RFoArm	00b41204												Waist	00b411f7												Lthigh	00b411f4												Lshank	00b4111b												Rthigh	00b411c8												Rshank	00b411ee												
PacketCount	q0	q1	q2	q3	accX	accY	accZ	gyrX	gyrY	gyrZ	magX	magY	magZ	q0	q1	q2	q3	accX	accY	accZ	gyrX	gyrY	gyrZ	magX	magY	magZ	q0	q1	q2	q3	accX	accY	accZ	gyrX	gyrY	gyrZ	magX	magY	magZ	q0	q1	q2	q3	accX	accY	accZ	gyrX	gyrY	gyrZ	magX	magY	magZ	q0	q1	q2	q3	accX	accY	accZ	gyrX	gyrY	gyrZ	magX	magY	magZ	q0	q1	q2	q3	accX	accY	accZ	gyrX	gyrY	gyrZ	magX	magY	magZ	q0	q1	q2	q3	accX	accY	accZ	gyrX	gyrY	gyrZ	magX	magY	magZ	q0	q1	q2	q3	accX	accY	accZ	gyrX	gyrY	gyrZ	magX	magY	magZ	q0	q1	q2	q3	accX	accY	accZ	gyrX	gyrY	gyrZ	magX	magY	magZ	q0	q1	q2	q3	accX	accY	accZ	gyrX	gyrY	gyrZ	magX	magY	magZ	q0	q1	q2	q3	accX	accY	accZ	gyrX	gyrY	gyrZ	magX	magY	magZ	
0	-0.925123	0.326135	0.0328582	0.191583	1.04806	-7.21271	8.15376	0.0127927	0.0573987	-0.0626872	0.266602	0.76416	-0.708984	0.502931	-0.837161	-0.117976	-0.179731	3.42984	-7.50438	-4.62859	-0.0149022	0.0580453	-0.0650466	0.109619	0.865967	0.518311	0.767922	-0.200974	0.599991	0.0995799	-8.67894	-1.33222	3.0617	0.300091	-0.0838736	-0.00654937	0.964355	-0.0419922	0.158447	0.733562	0.194439	0.631343	-0.159643	-9.10413	1.37949	1.52874	-0.00916259	-0.0559011	0.0253067	1.01831	0.189941	0.219482	0.199355	-0.696448	-0.244814	-0.644425	9.14468	0.459312	-0.710652	-0.426604	-0.0835579	0.11961	-0.948975	0.200439	0.473145	0.18889	-0.554932	-0.289926	-0.756515	9.00414	2.43566	2.58515	-0.3853	-0.0996083	0.0877711	-1.08936	0.18457	0.266846	0.313121	-0.862129	-0.345707	-0.197926	5.1566	-4.39548	-5.8596	-0.152417	-0.412028	-0.0783088	-0.203613	0.664307	0.775635	0.582762	-0.671094	-0.242929	-0.388595	8.26466	-5.60347	-0.00296138	-0.310987	-0.0188909	-0.00275867	-0.556396	0.908447	0.142822	0.764113	-0.488836	-0.350869	-0.232511	7.80861	-5.73511	3.09879	0.404963	-0.0969987	-0.0627315	-0.584473	0.840332	-0.391357	0.184678	-0.126633	-0.184418	-0.957	2.56163	4.12539	9.25183	0.225278	0.0458573	-0.0535438	-0.685547	-0.157959	-0.796875	0.198115	-0.73481	-0.225465	-0.608252	9.69952	0.798578	-1.6608	0.311507	0.0681403	-0.104671	-0.968994	0.256348	0.55127	
1	-0.924279	0.325883	0.0355717	0.195561	2.41008	-5.70529	8.4052	-0.0248304	-0.0527749	-0.193021	0.255127	0.770508	-0.709229	0.500147	-0.839102	-0.116768	-0.179237	4.42523	-8.14081	-3.75569	-0.162044	0.00652796	0.0493133	0.109863	0.861572	0.518555	0.767212	-0.206309	0.598743	0.101634	-9.36157	-3.25426	3.23446	-0.189827	0.0112076	-0.108906	0.96875	-0.0422363	0.160645	0.734097	0.195283	0.630295	-0.160294	-9.85724	1.12421	0.902882	0.189372	-0.0755816	0.0102143	1.01611	0.187744	0.217285	0.19773	-0.697478	-0.242622	-0.644641	10.0465	0.10377	-1.34323	-0.00783113	-0.000272411	-0.0339878	-0.951172	0.198242	0.470947	0.18556	-0.557602	-0.283971	-0.757633	10.0542	1.19571	2.61439	-0.0679212	0.010999	-0.00143871	-1.08081	0.186768	0.273438	0.318618	-0.860051	-0.345641	-0.198311	4.986	-3.41312	-7.56121	0.0944874	0.297595	0.0432646	-0.214844	0.672852	0.766846	0.580689	-0.673184	-0.242916	-0.388092	7.68799	-6.22605	0.0651417	-0.0118786	-0.0751293	-0.0352933	-0.553955	0.904053	0.1521	0.758021	-0.498024	-0.349742	-0.234643	7.793	-6.10643	3.10343	-0.572793	-0.0610764	0.0146241	-0.584961	0.851562	-0.366943	0.18293	-0.127947	-0.182609	-0.957507	4.02688	3.34211	9.3424	-0.204452	-0.0121459	-0.0479982	-0.687988	-0.153564	-0.790283	0.196173	-0.7349	-0.221575	-0.610198	9.40306	-0.273404	-1.92579	0.198651	0.0574485	0.0584518	-0.96875	0.249756	0.549072	
2	-0.922963	0.327844	0.0349252	0.198588	2.10982	-6.30257	8.18505	-0.0770127	0.0655935	-0.0955983	0.248535	0.770264	-0.709229	0.498214	-0.840352	-0.116067	-0.179219	4.08574	-7.5418	-4.38424	-0.12385	0.0324951	-0.0252023	0.107666	0.859375	0.528076	0.769081	-0.202066	0.598718	0.0960263	-9.41907	-2.08972	2.69253	0.249297	-0.00392918	-0.0824864	0.964355	-0.0356445	0.158203	0.734856	0.196146	0.628737	-0.161873	-9.77646	1.25853	0.916774	-0.00710996	-0.0671306	-0.0448652	1.01831	0.192139	0.217285	0.197786	-0.698234	-0.241981	-0.644046	9.78637	0.296591	-0.685761	0.00322344	-0.0119517	0.00885805	-0.953369	0.196045	0.473145	0.186626	-0.557711	-0.285882	-0.756571	9.49071	2.37169	2.73273	0.0136466	-0.0385886	0.00261509	-1.09375	0.188965	0.275391	0.313735	-0.86264	-0.345004	-0.195943	5.29725	-4.0156	-6.1199	-0.192295	-0.256711	-0.000579951	-0.203857	0.666504	0.77124	0.581049	-0.67267	-0.242479	-0.388717	7.79428	-5.53392	-0.106786	-0.0167756	0.0790646	-0.00741751	-0.552002	0.90625	0.142822	0.760644	-0.493158	-0.352669	-0.232036	7.74025	-5.61519	2.71751	0.382325	-0.078013	-0.0409829	-0.577881	0.847168	-0.380127	0.181522	-0.128168	-0.184674	-0.95735	2.76342	3.30879	9.54312	0.299216	-0.0247115	-0.0728911	-0.687744	-0.162354	-0.792236	0.195066	-0.735342	-0.22077	-0.610313	10.0206	-0.081881	-1.17822	-0.195704	-0.00468975	-0.0149365	-0.966553	0.249756	0.551514	
3	-0.921978	0.330007	0.0334658	0.19983	2.30363	-6.40586	8.53017	-0.101316	0.0368999	-0.0279099	0.252441	0.779053	-0.704834	0.496532	-0.841349	-0.114804	-0.180023	4.06131	-8.24712	-4.40823	-0.115035	0.0394606	0.0190166	0.112305	0.85498	0.535156	0.768727	-0.205478	0.598067	0.0956708	-9.96043	-2.19672	3.28765	-0.111209	0.0495297	-0.0847723	0.962158	-0.0290527	0.1604	0.736406	0.194017	0.627327	-0.162864	-10.171	1.30901	1.06432	-0.162055	-0.106215	-0.0383835	1.01807	0.194336	0.210693	0.196349	-0.699523	-0.238377	-0.644431	10.3612	0.347846	-1.46597	-0.234582	0.0349088	0.0854428	-0.951172	0.196045	0.475586	0.183937	-0.559665	-0.280837	-0.757676	10.1653	1.79725	2.68526	-0.224694	0.0156191	0.0162851	-1.08521	0.188965	0.273193	0.319211	-0.859953	-0.34689	-0.195584	5.2482	-3.88115	-8.07566	0.360023	0.157889	-0.055418	-0.215088	0.677246	0.764648	0.579139	-0.674018	-0.241682	-0.389728	7.93424	-5.98851	-0.328121	-0.102711	0.0141473	-0.0271526	-0.553955	0.904053	0.149902	0.756845	-0.498849	-0.352231	-0.232956	7.85932	-5.6155	2.21922	-0.349585	-0.0633427	0.00948918	-0.58252	0.849365	-0.366943	0.179472	-0.130535	-0.182886	-0.957759	4.3327	2.35822	9.38884	-0.320247	-0.0264101	-0.0126809	-0.692383	-0.157959	-0.794678	0.196589	-0.735186	-0.220975	-0.609939	10.1707	-0.404622	-2.07944	0.107102	0.0124579	0.008012	-0.966553	0.249756	0.553711	
4	-0.920261	0.333546	0.0313013	0.202205	1.60085	-7.01576	8.25429	-0.178441	0.0728072	-0.075536	0.254395	0.785645	-0.700684	0.494796	-0.842438	-0.113283	-0.18067	4.09178	-7.32014	-3.94551	-0.0896306	0.055991	-0.00656093	0.109863	0.859375	0.537354	0.769084	-0.207307	0.597476	0.0924978	-8.5593	-3.15611	2.6628	0.143098	0.0536391	-0.155749	0.957764	-0.0310059	0.1604	0.737072	0.195197	0.62514	-0.166802	-9.31502	0.597874	1.26295	0.324779	-0.0968889	-0.0729867	1.01782	0.19873	0.206055	0.193917	-0.699344	-0.236355	-0.646104	9.3765	-0.0998112	-0.0803604	-0.0805131	0.0412662	-0.0700912	-0.951172	0.198242	0.473145	0.184709	-0.55828	-0.280915	-0.758481	9.17806	1.52045	2.63031	0.122535	0.0768198	-0.000220193	-1.0896	0.186768	0.266846	0.31535	-0.861839	-0.345592	-0.195841	4.73891	-3.6125	-4.89784	-0.241898	-0.166052	-0.0193359	-0.212402	0.668701	0.769043	0.581343	-0.671764	-0.243773	-0.389036	7.38442	-5.11941	-0.373431	0.0203045	-0.00694025	-0.0340739	-0.551758	0.904053	0.147461	0.759504	-0.493971	-0.355018	-0.230453	7.63892	-6.4511	2.38743	0.414656	-0.0445903	-0.06337	-0.580078	0.842529	-0.37793	0.181161	-0.129504	-0.186537	-0.956877	2.25176	4.20364	9.05604	0.354983	-0.0141617	0.0396298	-0.692139	-0.160156	-0.790039	0.194116	-0.734826	-0.222508	-0.610606	8.93597	-0.192453	-0.972087	0.066121	0.0126066	-0.121644	-0.970947	0.249756	0.546875	
5	-0.919589	0.334284	0.0312319	0.204047	1.7146	-7.17261	8.27077	-0.0709661	0.0328447	-0.142871	0.243408	0.783203	-0.696533	0.49486	-0.842234	-0.113595	-0.181252	3.58963	-7.6544	-4.54291	0.00485342	0.0434443	-0.063313	0.109863	0.859375	0.537354	0.769762	-0.204987	0.597764	0.0901361	-9.17105	-2.18052	2.82881	0.269014	0.0185314	-0.0282887	0.95752	-0.0202637	0.157715	0.738049	0.192182	0.625204	-0.165743	-9.33222	0.0209642	1.58019	-0.257468	-0.00488398	-0.0192649	1.02026	0.196533	0.204102	0.194514	-0.699201	-0.236416	-0.646057	9.89938	-0.592626	-1.42276	0.121585	0.0374406	-0.0258852	-0.951172	0.196045	0.473145	0.182943	-0.559514	-0.278249	-0.758982	9.43974	1.90162	2.44602	-0.238831	-0.0425927	-0.0193082	-1.0874	0.186768	0.275391	0.323338	-0.85804	-0.348426	-0.194471	5.32765	-4.03349	-7.31209	0.373332	0.0619478	-0.0790914	-0.208984	0.683838	0.753906	0.577668	-0.675273	-0.243584	-0.388552	7.61209	-6.20214	-0.0567249	-0.0509282	-0.0935372	-0.0256207	-0.553955	0.904053	0.1521	0.756996	-0.497635	-0.354537	-0.231561	7.65385	-5.4404	2.58755	-0.444608	-0.0240278	-0.00518375	-0.587158	0.849121	-0.366943	0.182332	-0.130454	-0.184662	-0.956889	4.68089	2.39828	9.14467	-0.146152	0.0190696	0.0639111	-0.685547	-0.157959	-0.790039	0.194299	-0.73444	-0.223249	-0.610742	9.62138	0.198944	-1.71602	0.0550241	0.0253412	-0.0476648	-0.970947	0.249756	0.546875	
6	-0.917593	0.334601	0.0338508	0.211942	1.89571	-6.26978	7.94943	0.00627344	-0.0176955	-0.20382	0.232422	0.7854	-0.700928	0.493381	-0.843187	-0.113936	-0.180634	3.63508	-7.88504	-4.49833	-0.00293776	-0.0277675	-0.0297589	0.110107	0.855225	0.546875	0.768829	-0.209341	0.597087	0.0925466	-8.81913	-3.35515	2.90393	-0.212989	0.0482502	-0.0224518	0.961914	-0.0268555	0.157959	0.737636	0.194457	0.624839	-0.166302	-9.49983	1.19425	1.64299	0.0422522	0.0194498	0.0512364	1.02271	0.194336	0.204102	0.192507	-0.699661	-0.235082	-0.646647	9.7733	0.084226	-0.838844	-0.217593	0.00451554	0.0185382	-0.948975	0.196045	0.475586	0.181387	-0.55917	-0.280538	-0.758766	9.56125	1.55639	2.7009	0.162607	-0.00670897	-0.126555	-1.09351	0.18042	0.271484	0.316148	-0.861091	-0.348408	-0.192831	5.1392	-4.34959	-5.39185	-0.361351	-0.254657	-0.010558	-0.202148	0.67749	0.762451	0.577952	-0.674978	-0.245121	-0.387676	7.98909	-6.03258	-0.524852	-0.0184235	-0.00192839	-0.0376172	-0.55835	0.90625	0.154541	0.75806	-0.495717	-0.355271	-0.231066	7.84548	-6.36451	2.62558	0.383142	0.00892726	-0.0500141	-0.587158	0.844727	-0.371338	0.182094	-0.129083	-0.187959	-0.956478	2.99493	4.06071	9.14594	0.213797	-0.0109142	-0.0384935	-0.689697	-0.166748	-0.789795	0.195919	-0.732957	-0.226176	-0.61093	9.01833	-0.134602	-2.13517	0.225231	0.0278368	-0.0709281	-0.970947	0.251953	0.544678	
7	-0.91723	0.334434	0.0340757	0.213734	2.27802	-5.65821	8.14609	0.00727141	0.0267954	-0.144165	0.234619	0.785156	-0.694336	0.493203	-0.843525	-0.115105	-0.178794	3.89018	-7.88624	-4.70174	0.00156901	-0.163731	-0.0241542	0.110107	0.853027	0.54248	0.769622	-0.206705	0.597093	0.0918453	-9.40862	-2.31113	2.84513	0.0129387	0.00799538	0.061061	0.955566	-0.0288086	0.155762	0.737339	0.193982	0.625583	-0.16537	-9.94976	0.870713	1.37963	-0.0839471	0.0710863	0.0162877	1.01807	0.196533	0.208496	0.192915	-0.699004	-0.235629	-0.647037	10.0635	-0.364968	-1.28427	0.0541749	0.0625869	-0.0425496	-0.955078	0.189453	0.475586	0.181387	-0.55917	-0.280538	-0.758766	9.56125	1.55639	2.7009	0.162607	-0.00670897	-0.126555	-1.09351	0.18042	0.271484	0.324251	-0.85783	-0.349969	-0.19108	4.93982	-3.37207	-8.69717	0.247508	0.0581125	0.00185619	-0.211182	0.686035	0.753662	0.577997	-0.674839	-0.246072	-0.387247	8.12427	-5.568	0.0743271	0.0517428	-0.0461754	-0.0495551	-0.560547	0.90625	0.1521	0.759391	-0.493397	-0.356151	-0.230308	7.8846	-5.09789	2.77383	0.236504	0.00257869	-0.0492432	-0.584717	0.842529	-0.371094	0.181499	-0.129758	-0.187709	-0.956549	3.56121	4.12928	9.52799	-0.0349822	-0.0428487	-0.0301539	-0.685303	-0.164551	-0.790039	0.196129	-0.732327	-0.226611	-0.611455	10.2804	-0.600335	-1.66222	-0.0971386	0.051015	0.00831863	-0.975586	0.251953	0.542236	
8	-0.916222	0.337136	0.0314189	0.214219	2.24951	-6.40887	8.36146	-0.160091	0.075631	0.0486442	0.238525	0.796143	-0.687988	0.491833	-0.844549	-0.116254	-0.176981	4.17226	-7.32199	-4.2631	-0.0552376	-0.0712133	-0.0381183	0.118896	0.853027	0.547119	0.769463	-0.208059	0.596665	0.0928867	-8.70246	-2.72282	3.04732	-0.0303282	-0.00317512	0.0122653	0.964355	-0.0334473	0.1604	0.736076	0.195855	0.626411	-0.165657	-9.58994	0.697942	1.02974	0.0284227	0.0727224	0.019632	1.01587	0.196533	0.208496	0.196226	-0.696791	-0.240622	-0.64659	10.0336	0.912477	-0.603468	0.169573	0.0454015	-0.078586	-0.951172	0.200439	0.470947	0.178144	-0.558465	-0.282232	-0.759425	9.75514	1.33011	2.51062	-0.0182128	-0.00123837	-0.107616	-1.09326	0.176025	0.273682	0.317514	-0.860591	-0.349813	-0.190258	5.03392	-4.2039	-5.39082	-0.0969885	-0.130523	-0.0541487	-0.210693	0.677246	0.764648	0.576108	-0.676429	-0.24635	-0.38711	7.70611	-5.7467	-0.525207	-0.14576	-0.0361579	-0.0337875	-0.560303	0.904053	0.1521	0.755507	-0.49928	-0.354572	-0.232825	7.67564	-6.28329	2.70406	-0.320127	-0.006789	-0.0198371	-0.587158	0.844727	-0.362305	0.181463	-0.129247	-0.185317	-0.957091	3.53933	2.57722	9.17392	0.064656	0.0574125	-0.0180863	-0.683105	-0.162109	-0.787598	0.19763	-0.730081	-0.227917	-0.613171	10.0402	-0.0202786	-1.62159	0.092544	0.139804	-0.05306	-0.97998	0.251953	0.5354	
9	-0.91525	0.340373	0.0294134	0.21354	1.81301	-6.62967	8.22568	-0.144121	-0.00679072	0.0607772	0.242676	0.79834	-0.681396	0.490564	-0.845459	-0.117903	-0.175056	3.71992	-8.28496	-5.39285	-0.0348772	-0.0868118	-0.0292448	0.116699	0.853027	0.544678	0.769276	-0.206771	0.597458	0.0922168	-9.80375	-3.0274	2.90728	0.132899	0.0413602	-0.0331823	0.964355	-0.03125	0.158203	0.735295	0.19778	0.626315	-0.167195	-10.2563	0.857204	0.773863	0.19978	0.0391195	-0.00218457	1.01807	0.194336	0.208496	0.193846	-0.697414	-0.237226	-0.64789	9.82125	-0.106242	-1.45855	-0.143342	0.0353949	0.0164181	-0.95752	0.19165	0.475586	0.177766	-0.558091	-0.282671	-0.759625	9.7264	2.54484	2.30242	-0.105673	0.0262152	-0.0274304	-1.08887	0.171631	0.278076	0.319418	-0.859194	-0.351917	-0.189507	5.6065	-4.73148	-7.65739	0.236462	-0.0211886	-0.152112	-0.202393	0.683838	0.760254	0.573278	-0.678414	-0.245639	-0.388288	8.28042	-6.53263	-0.439603	-0.0761125	0.0200901	-0.0514531	-0.560303	0.899658	0.161621	0.755266	-0.49832	-0.356245	-0.233108	7.83642	-5.39857	2.46196	0.0042628	-0.0361899	-0.0664871	-0.593994	0.846924	-0.360107	0.180505	-0.130831	-0.18797	-0.95654	3.21167	3.47297	8.63045	0.0221618	-0.10727	-0.0536569	-0.696533	-0.164551	-0.790039	0.196405	-0.729036	-0.225833	-0.615574	9.09332	-0.183703	-1.76226	-0.0844161	0.0906115	0.0205134	-0.975342	0.249756	0.533203	
10	-0.914428	0.344217	0.0276013	0.211128	2.54949	-6.79623	8.49046	-0.161189	-0.00421772	0.110502	0.249023	0.802734	-0.681396	0.489353	-0.846564	-0.118048	-0.172998	4.60861	-7.17407	-3.74424	-0.0850428	-0.0803762	0.00796381	0.116455	0.855225	0.549316	0.769095	-0.209207	0.596687	0.0932223	-9.13165	-2.61318	2.79561	-0.268232	0.0317934	-0.0286912	0.959961	-0.0332031	0.156006	0.73577	0.19672	0.626256	-0.166574	-9.62218	0.251813	1.19012	-0.0366151	-0.0145085	-0.0271133	1.01807	0.194336	0.208496	0.195337	-0.695704	-0.239725	-0.648361	10.4344	0.528144	-0.620409	0.137548	0.0672703	-0.0887951	-0.955322	0.193848	0.461914	0.177129	-0.556714	-0.283099	-0.760625	9.94933	1.35598	2.5758	0.167461	0.0788549	-0.0716555	-1.08887	0.171631	0.269531	0.323664	-0.858546	-0.350153	-0.188502	4.01732	-2.39235	-6.17148	0.0435444	-0.0972394	0.140105	-0.207031	0.688232	0.758057	0.576494	-0.675243	-0.24903	-0.386893	7.27775	-4.88866	0.230472	0.183942	-0.0426449	-0.0511321	-0.564697	0.904053	0.152344	0.754028	-0.499158	-0.357079	-0.234049	7.28256	-6.41824	2.63611	0.0757434	-0.0371701	-0.0674788	-0.594238	0.849121	-0.360107	0.180337	-0.132817	-0.185034	-0.95687	4.8301	2.50857	9.76168	-0.234361	-0.00263032	0.0590488	-0.689941	-0.160156	-0.792236	0.195593	-0.72817	-0.225683	-0.616911	11.6459	-0.572493	-1.53652	0.0401431	0.0695695	-0.113911	-0.977539	0.245361	0.531006	
11	-0.91394	0.345843	0.0285803	0.210452	1.46029	-7.56686	7.84356	0.0306244	-0.131484	-0.04318	0.242676	0.79834	-0.675049	0.488322	-0.846909	-0.118658	-0.1738	3.34183	-7.19841	-4.60185	-0.0343427	0.0855967	-0.0751382	0.116699	0.848633	0.549561	0.770217	-0.207226	0.596278	0.0909731	-8.21809	-1.96056	3.07548	0.264149	-0.0466902	0.00563699	0.966309	-0.0290527	0.155762	0.735225	0.197825	0.625952	-0.168802	-9.03825	0.991426	1.25824	-0.0556176	0.0140057	-0.00996982	1.02002	0.200928	0.208252	0.193947	-0.696493	-0.237446	-0.648769	8.99104	0.636667	-0.953052	-0.173886	-0.0361096	0.0530315	-0.955566	0.200439	0.46875	0.177109	-0.557545	-0.280946	-0.760819	9.04549	2.31854	2.486	-0.242121	-0.0168804	0.0763281	-1.09106	0.173828	0.273682	0.311911	-0.863739	-0.349904	-0.185024	6.08451	-4.77618	-5.86392	-0.266834	-0.125892	-0.030212	-0.19751	0.673096	0.77124	0.569373	-0.681226	-0.244962	-0.389536	8.17441	-5.92845	-0.722999	-0.513759	-0.00646635	-0.0277631	-0.564697	0.903809	0.180176	0.751513	-0.502101	-0.357499	-0.235197	8.14634	-5.52553	2.055	-0.327843	-0.0387307	-0.0366767	-0.598633	0.84668	-0.349121	0.179167	-0.132706	-0.187735	-0.956579	2.52858	4.13397	9.11037	0.0216361	-0.0528051	-0.0724814	-0.696777	-0.157959	-0.787842	0.197976	-0.725789	-0.225894	-0.618876	8.06827	1.2224	-1.31552	-0.0727865	0.138958	0.0563178	-0.98877	0.24292	0.517334	
12	-0.91341	0.345971	0.0332396	0.211853	2.70256	-6.00648	7.96688	-0.0111231	-0.131373	-0.113284	0.233643	0.80249	-0.683838	0.485625	-0.848683	-0.118161	-0.173041	4.71588	-7.72907	-4.2806	-0.141127	0.0229974	0.0185507	0.121094	0.848633	0.554199	0.770615	-0.208514	0.595485	0.0898459	-9.43676	-3.02063	3.04703	-0.0138945	-0.0458868	-0.130768	0.961914	-0.0246582	0.15332	0.735564	0.200968	0.623954	-0.170992	-9.7705	0.650875	0.560756	0.355732	-0.106111	0.0401821	1.02466	0.19873	0.206055	0.194101	-0.696488	-0.237133	-0.648843	9.82425	0.320451	-0.733543	0.0767472	0.0348517	-0.0581815	-0.955566	0.200439	0.466309	0.176881	-0.55775	-0.277028	-0.762157	9.69483	1.23361	2.38264	0.0452723	0.0941706	0.0355049	-1.09082	0.169434	0.271729	0.317967	-0.861684	-0.34814	-0.187607	4.08593	-2.68303	-7.19174	-0.240909	-0.0534014	0.0914575	-0.193604	0.681641	0.760254	0.570799	-0.679591	-0.247337	-0.388805	7.75936	-6.22138	-0.526474	0.374597	0.0278046	-0.0556049	-0.560059	0.897461	0.164062	0.751514	-0.501467	-0.358247	-0.235408	7.8627	-6.07135	2.36423	0.0261515	-0.00965767	-0.0395687	-0.603271	0.844238	-0.351318	0.178143	-0.13377	-0.187508	-0.956667	3.28857	2.58681	9.2948	0.0764517	0.00328822	-0.00719388	-0.691895	-0.168945	-0.789795	0.194518	-0.725791	-0.222733	-0.621112	10.1666	-1.6361	-1.299	0.012424	0.0519355	-0.0523625	-0.990967	0.245117	0.517334	
13	-0.91291	0.347048	0.0346454	0.212019	2.51457	-6.31272	7.72533	-0.0637083	-0.124682	-0.0572506	0.233643	0.804688	-0.679443	0.484552	-0.84904	-0.119298	-0.173519	3.8712	-7.19135	-4.96536	-0.0235409	-0.0356756	-0.0998883	0.118896	0.853027	0.554199	0.772072	-0.207049	0.594516	0.0871041	-8.86647	-2.76964	3.01477	0.238501	-0.0795167	-0.118725	0.959717	-0.0224609	0.15332	0.738483	0.19952	0.62133	-0.169658	-9.87952	0.930646	1.25423	-0.271279	-0.130527	0.0186825	1.01587	0.196533	0.199707	0.194839	-0.697429	-0.236409	-0.647874	9.93428	0.0753068	-1.02384	0.0948372	0.000902764	0.0222994	-0.955566	0.198242	0.470947	0.179823	-0.557243	-0.278923	-0.761148	9.50761	2.57081	2.64856	0.0161308	-1.09966e-05	0.0495807	-1.09131	0.178223	0.275635	0.31337	-0.863537	-0.347337	-0.188308	5.66289	-3.88712	-7.10823	0.10116	0.258189	-0.054196	-0.195312	0.673096	0.775391	0.57089	-0.679362	-0.247121	-0.389208	7.86074	-4.40366	-0.130526	-0.249098	0.0385895	-0.0213612	-0.5625	0.904053	0.16626	0.752965	-0.498839	-0.359739	-0.234075	8.01213	-4.59954	2.24282	0.0366374	-0.0155177	-0.0155908	-0.596436	0.848877	-0.353516	0.179137	-0.134238	-0.189337	-0.956055	3.31601	3.48028	9.15322	0.0100873	-0.0153218	0.0687721	-0.696533	-0.166748	-0.7854	0.198083	-0.724212	-0.226832	-0.620344	9.27938	-0.0721657	-0.832023	0.452513	0.039765	-0.0811792	-0.991211	0.251709	0.519531	
14	-0.911857	0.349995	0.0337749	0.21185	2.59155	-6.54149	8.10329	-0.144966	0.0179498	0.0422481	0.237793	0.806885	-0.668701	0.48363	-0.849411	-0.119406	-0.174201	4.178	-7.97687	-4.99196	-0.0887124	0.0411573	-0.0614036	0.112549	0.844238	0.561523	0.772921	-0.211043	0.591962	0.0873742	-9.96233	-2.8413	2.98978	-0.203496	-0.0734717	-0.169649	0.964111	-0.0202637	0.150879	0.739746	0.198331	0.620135	-0.169921	-10.1453	0.88093	0.731952	-0.0653552	-0.15013	-0.037691	1.02246	0.196777	0.195068	0.194812	-0.697669	-0.235721	-0.647875	10.1318	0.4792	-0.690902	-0.126054	0.0249609	0.000267354	-0.953369	0.200439	0.466309	0.178479	-0.558283	-0.27546	-0.761962	9.83597	2.27385	2.73179	-0.292698	0.00581709	0.0682658	-1.08716	0.182617	0.269287	0.313555	-0.863262	-0.345937	-0.191803	4.80282	-3.87703	-6.671	-0.0335381	0.081872	0.0209804	-0.199707	0.673096	0.770996	0.568303	-0.68165	-0.247232	-0.388924	7.92237	-7.08102	-0.636039	0.0213789	-0.0389779	-0.0298254	-0.560059	0.897461	0.170898	0.751732	-0.500936	-0.358772	-0.235043	7.70578	-7.03127	2.56208	0.114757	0.0191305	-0.0329428	-0.601074	0.848877	-0.353516	0.18058	-0.133415	-0.189527	-0.955861	3.94905	3.62444	9.42112	0.0981658	0.0770728	0.0620608	-0.696533	-0.162354	-0.783203	0.195846	-0.724486	-0.226042	-0.621023	10.3902	-0.593412	-1.06621	-0.146621	-0.00901221	-0.0515758	-0.990723	0.240723	0.517334	
15	-0.911754	0.351762	0.0319411	0.209636	1.98691	-7.59323	8.10799	-0.0206826	0.00128236	0.0989223	0.244385	0.806885	-0.668701	0.484574	-0.848678	-0.120758	-0.174216	4.07705	-7.00225	-4.41816	0.0678684	-0.0754428	-0.0657818	0.116699	0.85083	0.558838	0.774064	-0.213352	0.589933	0.0853513	-8.76557	-3.23012	2.84096	0.0135238	6.06877e-05	-0.0309914	0.959717	-0.0158691	0.153076	0.74281	0.197779	0.616314	-0.171098	-9.46124	0.740475	1.99401	0.0123775	-0.200391	0.00299907	1.02246	0.196777	0.184082	0.192281	-0.698873	-0.232595	-0.648462	9.87363	0.096713	-0.576008	-0.333614	-0.0215588	0.0421414	-0.942139	0.193848	0.473145	0.178611	-0.558625	-0.274282	-0.762106	9.5555	2.11931	2.83262	0.0660086	0.00311491	-0.00514485	-1.09155	0.18457	0.269043	0.311908	-0.863646	-0.34625	-0.192196	5.1173	-4.01899	-6.98997	-0.125395	-0.0744825	-0.0539073	-0.201904	0.670898	0.773193	0.570604	-0.679592	-0.247927	-0.388714	8.05118	-6.30752	-0.594883	0.248448	0.0822116	-0.0146269	-0.56665	0.901855	0.161621	0.753131	-0.498524	-0.359703	-0.234268	7.86611	-5.78471	2.61531	0.246731	0.0035084	-0.0522832	-0.598633	0.842041	-0.355713	0.182196	-0.133087	-0.190413	-0.955424	3.38613	3.38403	8.90302	0.0983082	0.0455849	0.119062	-0.692139	-0.164551	-0.7854	0.19727	-0.722911	-0.230719	-0.620687	8.99448	0.360086	-1.64475	0.122318	-0.00461148	-0.133664	-0.990723	0.238525	0.517334	
16	-0.912238	0.351043	0.0333446	0.208514	2.21821	-6.99373	8.05601	0.0480233	-0.0826261	-0.00078166	0.237793	0.806885	-0.673096	0.484518	-0.848447	-0.120812	-0.175454	3.84189	-7.84716	-4.33862	0.0113687	0.053673	-0.0437984	0.108154	0.848633	0.556641	0.776432	-0.213319	0.587298	0.0820301	-8.52249	-2.65651	3.53858	0.0274081	-0.125368	-0.13864	0.963867	-0.00732422	0.143799	0.744782	0.197382	0.613773	-0.172111	-9.28058	0.627633	2.44151	0.0561235	-0.138575	-0.00739243	1.02515	0.187988	0.182129	0.195467	-0.697762	-0.235978	-0.647484	9.94257	0.117759	-0.690362	0.389371	0.0194748	-0.0730541	-0.953369	0.200439	0.46875	0.178519	-0.55849	-0.274051	-0.762309	9.64084	1.89692	2.53762	0.0049268	0.0264132	-0.0179077	-1.09155	0.186768	0.266846	0.313191	-0.863324	-0.345637	-0.19266	5.10744	-4.01522	-7.02813	0.0913559	0.0977711	0.0236336	-0.20166	0.666504	0.77124	0.571618	-0.678711	-0.248782	-0.388216	7.49187	-4.8851	-0.0767528	-0.0980205	-0.0436328	-0.0245259	-0.564453	0.899658	0.156982	0.751921	-0.500012	-0.359476	-0.23533	7.79799	-5.7104	2.48906	-0.111373	0.0172953	-0.0349553	-0.603271	0.84668	-0.353516	0.183721	-0.133547	-0.191036	-0.954944	4.01626	4.12402	8.97972	0.014853	-0.0316081	0.0255855	-0.69873	-0.166748	-0.787598	0.195853	-0.722825	-0.231065	-0.621107	10.0434	0.550689	-1.6972	-0.117182	0.00837728	-0.0229041	-0.986084	0.234131	0.517578	
17	-0.912443	0.349812	0.0362888	0.209192	2.30467	-6.54404	7.89352	0.0880673	-0.105902	-0.0761283	0.235596	0.804688	-0.673096	0.48534	-0.848053	-0.121596	-0.174546	4.05395	-7.3995	-5.01875	-0.00744784	-0.018352	-0.0147566	0.114746	0.848633	0.554199	0.776004	-0.21468	0.586959	0.0849099	-9.83723	-3.65189	2.56302	-0.0685825	0.00587532	0.083924	0.966064	-0.013916	0.144043	0.745296	0.198209	0.613674	-0.169266	-9.51215	1.11835	2.55429	0.125604	0.0639878	0.0760767	1.02295	0.185791	0.175537	0.194447	-0.697997	-0.234787	-0.64797	9.66127	0.363451	-1.25382	-0.234622	0.0153556	0.0458238	-0.948975	0.200439	0.46875	0.1789	-0.557687	-0.275219	-0.762388	9.67412	1.95299	2.94058	0.0293385	0.0479633	-0.05392	-1.08936	0.18042	0.264893	0.306979	-0.866616	-0.3419	-0.194538	5.15411	-4.03775	-6.90504	-0.212114	0.0877422	0.0211698	-0.201416	0.659912	0.781982	0.570147	-0.679958	-0.248324	-0.388491	7.97285	-5.40476	-0.40096	0.15477	0.0507547	-0.014339	-0.564697	0.903809	0.168701	0.751601	-0.500246	-0.35947	-0.235862	7.70748	-5.71033	2.66318	0.00748591	-0.0124459	-0.0231572	-0.603271	0.844238	-0.351318	0.183246	-0.133461	-0.191786	-0.954897	3.47122	3.27511	9.33712	0.0277373	0.000527714	-0.0206952	-0.696533	-0.162354	-0.780762	0.195335	-0.722533	-0.231185	-0.621566	10.256	0.0237143	-0.924852	-0.0767654	0.0243753	-0.0322552	-0.990723	0.236328	0.517578	
18	-0.912596	0.349543	0.0379272	0.208687	2.5307	-6.35337	8.11026	0.0119205	-0.0553405	0.00637832	0.227051	0.80249	-0.679443	0.485254	-0.848107	-0.121889	-0.174315	4.49865	-7.62662	-4.5021	-0.00151452	-0.0451451	-0.0175895	0.112549	0.846436	0.549561	0.777381	-0.213677	0.585342	0.0859912	-8.60949	-2.71219	3.71698	-0.125011	-0.0395157	0.119705	0.963867	-0.0117188	0.134766	0.745254	0.197053	0.615044	-0.165793	-9.89143	0.923822	2.07222	-0.260995	0.128081	0.128946	1.02759	0.183594	0.184326	0.19681	-0.696108	-0.237272	-0.648384	10.1194	0.409163	-0.237517	0.213639	0.077452	-0.0915123	-0.953369	0.196045	0.46875	0.180271	-0.555723	-0.276925	-0.762881	9.54409	1.95572	2.40052	0.119678	0.0748469	-0.0204788	-1.09375	0.182373	0.260498	0.30516	-0.867467	-0.341097	-0.195016	4.94131	-3.45601	-7.20513	-0.155458	-0.000377259	0.0214292	-0.19043	0.655762	0.786377	0.570309	-0.679698	-0.249043	-0.388246	7.99871	-5.60299	-0.475626	0.0518003	-0.0189313	-0.0450861	-0.568848	0.899414	0.170898	0.750759	-0.501423	-0.359386	-0.236172	8.11343	-6.00767	2.12147	0.0181652	0.00309325	-0.0271261	-0.601074	0.84668	-0.351318	0.183245	-0.133982	-0.189801	-0.95522	4.09284	2.96049	9.49998	-0.250224	0.0109495	0.0232248	-0.698975	-0.160156	-0.783203	0.196489	-0.721554	-0.231988	-0.622039	10.1716	0.421817	-1.45051	0.0776952	0.0428792	-0.0126952	-0.994873	0.231934	0.512939	
19	-0.913111	0.349115	0.0388781	0.20697	2.47321	-6.67872	7.9305	0.0688721	-0.0653904	0.0871739	0.231445	0.800293	-0.681641	0.487818	-0.846825	-0.122426	-0.173012	3.78219	-7.55643	-4.62181	0.209641	-0.0935918	0.00304251	0.114502	0.853027	0.549316	0.777852	-0.213391	0.584477	0.0883051	-9.03309	-3.5905	3.10834	-0.0438183	-0.0513818	0.072903	0.963867	-0.0180664	0.130371	0.744651	0.198809	0.615328	-0.165349	-9.2531	1.10179	2.6252	0.0130047	0.0353163	0.0428604	1.02759	0.181396	0.182129	0.19795	-0.695886	-0.238915	-0.647671	9.7814	-0.160659	-1.38307	0.172733	-0.0275135	-0.0317118	-0.957764	0.200439	0.461914	0.180754	-0.554828	-0.279254	-0.762568	9.79338	1.80114	2.84362	0.108616	0.0270665	-0.0775774	-1.09375	0.18457	0.258301	0.300027	-0.870122	-0.336421	-0.19923	4.97434	-3.75425	-7.0786	-0.265679	0.21098	0.100948	-0.198242	0.642578	0.793213	0.569282	-0.680369	-0.248904	-0.388669	7.95365	-5.21574	-0.312013	-0.0956752	-0.027425	-0.00925431	-0.568604	0.897217	0.17334	0.749964	-0.502129	-0.359258	-0.237391	7.52229	-5.75862	2.78643	-0.230547	-0.00150995	-0.0313969	-0.601074	0.844238	-0.349121	0.182781	-0.133299	-0.191782	-0.955009	3.11042	4.23734	9.42448	0.0334575	0.0148037	0.0105804	-0.69873	-0.164551	-0.783203	0.195064	-0.721342	-0.230397	-0.623325	9.22539	-0.824219	-0.920528	-0.0212364	0.0521544	-0.0122479	-0.995361	0.238525	0.512939	
20	-0.914348	0.34848	0.0380519	0.202686	2.46374	-6.43946	8.00826	0.0211025	-0.00847176	0.186176	0.238281	0.79834	-0.681641	0.487602	-0.847148	-0.121371	-0.172783	4.18278	-7.82647	-4.84083	-0.0914068	0.052645	0.012059	0.114746	0.848633	0.549561	0.777811	-0.209468	0.585591	0.0906495	-10.1577	-2.77513	2.94986	0.0979284	0.02531	0.11235	0.968262	-0.0224609	0.132812	0.74333	0.199774	0.617582	-0.161689	-10.0263	1.00668	0.770467	0.0673676	0.138368	0.101441	1.02563	0.177002	0.193359	0.200842	-0.694332	-0.240215	-0.647968	10.2203	0.923175	-1.02701	-0.0300631	0.0941385	0.0318543	-0.955811	0.207031	0.455078	0.180582	-0.553787	-0.28038	-0.762953	10.0328	2.14929	2.36848	-0.00642671	0.0402296	-0.0509725	-1.0957	0.178223	0.254395	0.296023	-0.87193	-0.333953	-0.201453	4.97753	-3.45868	-7.46131	-0.157371	-0.031258	0.00119962	-0.200195	0.634033	0.801758	0.568682	-0.68044	-0.248973	-0.389378	7.85523	-6.05886	-0.290308	0.10704	0.00402694	-0.0704887	-0.56665	0.901611	0.170898	0.747631	-0.505126	-0.359187	-0.238497	7.79324	-6.91317	2.13979	-0.0398445	-0.024651	-0.0504984	-0.598877	0.848877	-0.340088	0.183351	-0.134586	-0.189886	-0.955098	4.42908	2.66821	9.18892	-0.0699126	0.0202194	0.0137323	-0.696533	-0.162354	-0.780762	0.198101	-0.719643	-0.231755	-0.623826	10.9666	1.26454	-1.67386	-0.0414222	0.058874	-0.00345183	-0.993164	0.24292	0.505859	
21	-0.914856	0.349192	0.0358929	0.199539	1.98592	-7.45638	8.07193	-0.0158482	0.0182355	0.120194	0.242676	0.796143	-0.681396	0.488466	-0.846641	-0.121462	-0.172761	4.08647	-7.44093	-4.41413	0.0409277	-0.0136831	-0.0194991	0.112305	0.853027	0.544678	0.777761	-0.20794	0.586045	0.0916481	-8.84169	-2.42144	3.30348	-0.121056	0.0455053	0.125614	0.970459	-0.0268555	0.139648	0.740778	0.202809	0.619644	-0.161733	-9.78599	1.77386	1.67072	-0.083186	0.169725	0.0366082	1.02344	0.174805	0.199951	0.199532	-0.694731	-0.238464	-0.648592	9.83753	0.364217	-0.901603	-0.182598	0.0238249	0.012262	-0.953613	0.207031	0.459473	0.180504	-0.553753	-0.278761	-0.763589	9.31292	2.19075	2.39953	-0.0482003	0.024714	0.0294957	-1.0979	0.178223	0.256348	0.295152	-0.872323	-0.330967	-0.205911	4.71335	-3.70907	-6.62343	-0.0543991	0.212962	0.0227879	-0.200195	0.63623	0.799805	0.567685	-0.681169	-0.248514	-0.38985	7.70636	-5.41807	-0.445225	-0.0591911	-0.0400073	-0.0145513	-0.564453	0.897461	0.17334	0.749448	-0.501605	-0.361306	-0.237019	7.54251	-4.98743	2.69539	-0.0787713	-0.0415954	-0.0340112	-0.605713	0.848877	-0.342285	0.18176	-0.135935	-0.191964	-0.954796	3.12986	4.43257	8.9904	-0.0577624	-0.121223	-0.0436093	-0.696533	-0.162354	-0.778564	0.195417	-0.720211	-0.229475	-0.624859	9.13045	0.0185953	-1.47658	-0.292638	0.0242198	-0.0130051	-0.995117	0.236328	0.512939	
22	-0.915911	0.346935	0.0375523	0.198324	2.14274	-7.15896	7.88543	0.161331	-0.0879673	0.00784698	0.24292	0.793945	-0.687988	0.490415	-0.845556	-0.120903	-0.172946	3.89846	-7.18589	-4.47757	0.111509	0.0203367	0.0147612	0.112305	0.855225	0.540039	0.77684	-0.209254	0.586486	0.0936307	-9.15872	-3.29626	3.03069	-0.18703	0.0601255	0.0831505	0.966309	-0.03125	0.135254	0.740045	0.201438	0.621137	-0.161077	-9.0705	1.56065	1.51769	-0.0367431	0.0389764	-0.0446819	1.03027	0.174805	0.204346	0.197642	-0.694701	-0.237462	-0.649569	9.40809	-0.0115597	-1.03577	-0.107071	-0.00726801	-0.0102835	-0.953369	0.200439	0.455078	0.178151	-0.554904	-0.276716	-0.76405	9.39027	1.68835	2.66796	-0.073832	-0.0293782	-0.0762418	-1.09351	0.176025	0.258545	0.295665	-0.872523	-0.328917	-0.207607	4.75673	-2.72015	-6.43541	-0.0938137	0.0948467	0.0684825	-0.210693	0.631836	0.803955	0.566501	-0.682152	-0.247482	-0.390509	7.56609	-5.79682	-0.735405	-0.0365563	0.0412749	-0.0101446	-0.568604	0.892822	0.178223	0.746821	-0.50516	-0.361082	-0.238098	7.82864	-6.19967	2.09584	0.0100739	-0.0307826	-0.0260823	-0.605713	0.846436	-0.335693	0.18084	-0.135122	-0.191186	-0.955242	3.34847	2.96352	9.2111	0.187766	0.0821729	-0.0382668	-0.69873	-0.162354	-0.778564	0.195715	-0.719822	-0.22859	-0.625539	11.9338	-0.343795	-1.10189	0.00487805	0.0577256	0.0172455	-0.995117	0.236328	0.508301	
23	-0.916655	0.344948	0.0393078	0.198014	2.20922	-6.53415	7.80671	0.199969	-0.11044	-0.0210244	0.234375	0.787354	-0.685791	0.491007	-0.845277	-0.120653	-0.172807	3.94488	-7.2473	-4.73711	0.04216	0.0229962	0.00947422	0.114502	0.85083	0.537598	0.776628	-0.207274	0.587385	0.09416	-8.64536	-1.75949	3.42657	0.0154117	0.0438745	0.101192	0.966309	-0.0356445	0.142334	0.7397	0.199575	0.622531	-0.15959	-9.29618	1.00122	1.41797	-0.200227	0.104255	-0.0309312	1.02319	0.178955	0.204346	0.198023	-0.694719	-0.237183	-0.649536	9.92786	0.319084	-0.873772	0.00668637	0.0157905	0.0216066	-0.957764	0.198242	0.459473	0.177368	-0.554893	-0.277355	-0.764009	9.55529	2.08129	2.73982	0.0152174	-0.0154717	-0.0918698	-1.09326	0.173828	0.267334	0.293754	-0.873397	-0.328066	-0.207989	5.10396	-3.38727	-7.00035	-0.160357	-0.00852157	0.0243346	-0.200195	0.634033	0.801758	0.566674	-0.681998	-0.247943	-0.390236	8.16683	-5.62993	-1.06857	0.0407707	-0.0119582	-0.0266442	-0.566406	0.893066	0.168701	0.747946	-0.503173	-0.361955	-0.237451	8.16622	-6.00437	2.08236	0.206089	-0.00302774	-0.0511821	-0.60791	0.844238	-0.344482	0.18126	-0.135473	-0.191003	-0.955149	2.6489	3.60827	9.05785	-0.0111663	-0.00521892	0.0442273	-0.700928	-0.164551	-0.780762	0.194188	-0.71914	-0.22835	-0.626885	7.9953	-0.437937	-1.177	0.00280871	0.0333723	-0.0757848	-0.994873	0.231934	0.508301	
24	-0.917338	0.342968	0.0410267	0.197941	2.76563	-5.80918	7.96584	0.0425914	-0.0124159	0.00191754	0.240967	0.787598	-0.694336	0.490701	-0.845537	-0.119996	-0.172863	4.24484	-7.67034	-4.41873	-0.0236334	0.0180794	0.0110521	0.114258	0.857178	0.537598	0.775204	-0.208349	0.588817	0.0945725	-9.00696	-3.02863	3.20047	0.0499105	0.0669864	-0.0534152	0.964355	-0.0354004	0.144531	0.737892	0.200777	0.623875	-0.161197	-9.48264	1.46526	1.46472	0.0861874	0.0479929	-0.0517368	1.01221	0.176758	0.20874	0.197264	-0.694452	-0.236443	-0.650322	9.78312	0.41992	-0.647438	-0.114326	0.00780945	-0.0205539	-0.953369	0.200439	0.459473	0.176152	-0.555024	-0.275788	-0.764762	9.66073	1.71589	2.44787	-0.0378336	0.0304168	-0.00524346	-1.09766	0.173828	0.258789	0.294961	-0.872818	-0.32722	-0.210031	4.96152	-3.13384	-6.49998	0.023818	0.140768	-0.00902513	-0.212891	0.631836	0.797607	0.567592	-0.681285	-0.248489	-0.389798	7.63703	-5.14698	-0.66471	0.0601109	-0.0284017	-0.00626562	-0.564209	0.893066	0.168701	0.747198	-0.504217	-0.361343	-0.23852	7.76102	-5.74349	2.18678	-0.204652	0.0233749	-0.0221768	-0.605713	0.846436	-0.342285	0.184087	-0.13511	-0.190536	-0.954753	3.64347	3.48595	9.58963	0.0432855	0.0680036	0.10987	-0.69873	-0.162354	-0.783203	0.193585	-0.718484	-0.230487	-0.627042	10.4952	-0.353279	-1.29277	0.140429	0.00886017	-0.0945385	-0.999512	0.234131	0.503906	
25	-0.917608	0.34253	0.0397122	0.197717	2.41543	-6.65432	8.03538	0.0438673	0.0506432	0.0128626	0.243408	0.783203	-0.694336	0.49188	-0.844882	-0.120255	-0.172533	3.77352	-7.89621	-4.71245	0.0442144	-0.0378716	-0.00542718	0.114502	0.853027	0.540039	0.773494	-0.208798	0.590487	0.097137	-9.9768	-2.4909	2.77453	-0.184015	0.106998	0.0855924	0.964355	-0.0375977	0.144531	0.736659	0.197931	0.626591	-0.159814	-10.0045	0.957891	0.791122	-0.126347	0.120669	-0.076779	1.01636	0.18335	0.210938	0.197093	-0.694169	-0.237798	-0.650182	9.60604	-0.113742	-1.02925	0.0869692	0.0168824	-0.0868251	-0.953369	0.198242	0.461914	0.176618	-0.555263	-0.275638	-0.764534	9.50591	2.21674	2.59403	-0.048264	-0.00560083	-0.0109351	-1.09326	0.176025	0.262939	0.296591	-0.871592	-0.32858	-0.210704	5.45741	-3.39839	-7.41869	0.13874	0.0853802	-0.0682124	-0.212891	0.631836	0.802002	0.567756	-0.680888	-0.24844	-0.390285	7.97646	-5.99475	-0.310312	0.0438289	0.0535306	-0.0423695	-0.562256	0.897461	0.171143	0.748306	-0.502617	-0.361095	-0.238801	7.94308	-5.60041	2.33098	0.0908631	0.0545065	-0.0393589	-0.603027	0.8396	-0.34668	0.185351	-0.134908	-0.192531	-0.954137	3.69229	4.49616	8.99636	-0.0314294	0.0187355	0.0720913	-0.694336	-0.164551	-0.787598	0.19342	-0.718201	-0.231951	-0.626877	9.16184	0.0153322	-1.60632	-0.100617	-0.00789405	-0.0309845	-1.00366	0.225098	0.503906	
26	-0.918125	0.342049	0.0365058	0.196766	1.96435	-6.59775	8.23059	-0.0288354	0.11163	0.105522	0.25	0.7854	-0.692139	0.493177	-0.844256	-0.120474	-0.171738	4.27979	-7.03654	-4.38534	0.0361573	0.0180795	-0.0283626	0.116455	0.859375	0.532715	0.772388	-0.209397	0.591568	0.0980658	-8.69178	-2.36173	3.1052	0.00944606	0.0961415	0.103076	0.962158	-0.0419922	0.151611	0.73571	0.195828	0.628485	-0.159342	-9.45901	1.0309	1.40393	-0.19409	0.0900818	-0.0311702	1.021	0.181152	0.219727	0.197991	-0.693813	-0.240055	-0.649459	10.3783	0.72493	-0.487781	0.0819327	0.000931783	-0.0409544	-0.955566	0.198242	0.457275	0.176017	-0.55501	-0.278633	-0.763771	9.68017	2.11974	2.72758	0.120269	-0.0356022	-0.103051	-1.09521	0.167236	0.263184	0.294804	-0.872477	-0.327172	-0.21174	4.75501	-3.18089	-6.53052	-0.139481	0.0277245	-0.0130548	-0.212646	0.623047	0.806396	0.569017	-0.679907	-0.249424	-0.38953	7.79038	-5.215	-0.133214	-0.0161141	0.0404762	0.0018739	-0.56665	0.899414	0.170898	0.749196	-0.501422	-0.360927	-0.238772	7.77799	-5.13892	2.65415	-0.0315106	0.0291036	-0.0116152	-0.605469	0.842041	-0.34668	0.185463	-0.134909	-0.191535	-0.954315	3.70246	3.20397	8.91342	0.0583145	0.0210832	-0.0592226	-0.696289	-0.166748	-0.782959	0.193615	-0.718066	-0.231562	-0.627115	10.18	0.688896	-1.36249	-0.00330552	0.0181498	0.0111367	-0.992676	0.231934	0.503906	
27	-0.91855	0.341476	0.0368079	0.195716	2.19784	-6.52959	8.13277	0.0467976	-0.0709952	0.0172262	0.25	0.783203	-0.696289	0.4934	-0.844272	-0.120891	-0.170726	3.83723	-7.87216	-4.86341	0.0105424	-0.0834775	0.0182378	0.120605	0.859375	0.532715	0.771336	-0.210243	0.592482	0.099018	-9.21156	-2.6223	3.36644	-0.0299572	0.0422811	0.00363377	0.962402	-0.0441895	0.15625	0.733929	0.196469	0.629974	-0.160875	-9.68853	1.14851	1.38068	0.118609	0.0747362	-0.0385247	1.01855	0.187744	0.223877	0.196362	-0.694666	-0.237956	-0.649814	9.68575	0.274927	-1.1264	-0.109305	-0.03851	0.0257592	-0.953369	0.200439	0.464111	0.174323	-0.556327	-0.277213	-0.763717	9.65582	2.06236	2.49419	-0.0933021	-0.0227098	-0.00203846	-1.09106	0.171631	0.267334	0.29468	-0.872508	-0.327629	-0.211074	5.38415	-3.47078	-7.5977	0.034632	-0.0152353	0.00743873	-0.215088	0.633789	0.799805	0.566978	-0.681505	-0.248441	-0.390338	8.34846	-5.91983	-0.325461	-0.0608023	-0.00701987	-0.0381329	-0.564209	0.895264	0.17334	0.748121	-0.50302	-0.360325	-0.239692	8.11855	-6.25804	2.38359	0.0733659	0.0034161	-0.0361281	-0.605469	0.841797	-0.340088	0.184717	-0.135879	-0.191381	-0.954353	3.97283	3.46217	9.04924	-0.175515	-0.0277304	0.00307131	-0.696777	-0.160156	-0.781006	0.193555	-0.718014	-0.229463	-0.627964	9.57525	-0.23456	-1.5827	0.034958	0.0543828	0.0437073	-1.00171	0.229736	0.503906	
28	-0.918135	0.342615	0.0372561	0.19559	2.62624	-6.47199	8.11149	-0.0595816	-0.0183699	-0.00242231	0.245361	0.789795	-0.692139	0.491696	-0.845561	-0.119947	-0.169923	4.31772	-8.0297	-5.00244	-0.0548456	-0.0248566	0.0342146	0.125244	0.855225	0.542236	0.769956	-0.210718	0.59394	0.100006	-10.0458	-2.87242	2.43768	-0.0885871	0.0927782	0.0120638	0.9646	-0.0507812	0.15625	0.732926	0.195568	0.631631	-0.160047	-10.2364	0.842703	0.20356	0.0880925	0.0579942	-0.0550885	1.01855	0.187744	0.22168	0.198523	-0.693293	-0.240538	-0.649673	9.57389	0.0850616	-0.833849	0.219261	0.0830897	-0.0861341	-0.953369	0.196045	0.457275	0.174873	-0.555256	-0.278858	-0.763773	9.56974	1.67648	2.26029	0.174864	0.0594901	-0.059498	-1.09961	0.169434	0.260986	0.292823	-0.873413	-0.326731	-0.211308	5.16497	-3.81506	-6.44283	-0.0118311	-0.0454342	-0.00646249	-0.210449	0.625244	0.804199	0.567102	-0.681285	-0.248369	-0.390588	8.0576	-6.27282	-0.467191	0.0132742	0.0421123	-0.0249465	-0.568604	0.893066	0.175781	0.747206	-0.503813	-0.360568	-0.24051	7.80447	-6.14532	2.15781	-0.158968	-0.0164912	-0.045936	-0.60791	0.842041	-0.34668	0.183708	-0.135926	-0.192739	-0.954268	3.63488	3.4817	9.33858	0.0868285	0.0131587	-0.0660627	-0.700684	-0.168945	-0.780762	0.192086	-0.71818	-0.22709	-0.629087	10.2589	-0.73645	-1.01303	-0.165931	0.0526652	0.0129727	-1.00146	0.227295	0.501709	
29	-0.91805	0.343968	0.0355049	0.193933	2.32731	-7.29845	7.97515	-0.0283676	0.0265119	0.0903947	0.25	0.7854	-0.689941	0.493753	-0.844532	-0.119292	-0.169537	3.92481	-7.17108	-4.44944	0.0550646	0.0222282	0.0204487	0.118408	0.861572	0.532715	0.769933	-0.209887	0.594544	0.0983306	-8.91416	-2.18741	2.82738	0.039943	0.0631059	0.0801874	0.962402	-0.0463867	0.158447	0.73297	0.194322	0.63145	-0.162063	-9.68229	0.827748	1.68065	-0.190802	-0.000625942	-0.0577208	1.01855	0.187744	0.219482	0.197867	-0.693855	-0.24069	-0.649216	10.4749	0.751417	-1.13804	-0.121223	0.00586782	0.0164251	-0.955566	0.200439	0.455078	0.17494	-0.555657	-0.279837	-0.763108	9.7961	2.70161	2.78932	-0.141389	-0.0547927	-0.0171472	-1.09058	0.163086	0.267578	0.294837	-0.873025	-0.326278	-0.210813	5.08133	-2.99739	-7.10503	0.0541942	0.0321555	0.0241878	-0.208496	0.631836	0.802002	0.567282	-0.680806	-0.248307	-0.391199	7.70572	-5.37145	-0.189479	-0.0109166	-0.0141517	-0.0190225	-0.566162	0.888672	0.173584	0.747788	-0.502633	-0.360915	-0.240655	7.73928	-4.87225	2.47841	0.0331029	0.023907	-0.0311823	-0.605469	0.842041	-0.344482	0.183774	-0.136339	-0.189675	-0.95481	3.71224	2.82072	9.2601	-0.234984	0.0198151	0.0504058	-0.697021	-0.153564	-0.783447	0.193373	-0.717378	-0.227613	-0.629419	9.20216	-0.61244	-1.06608	0.111014	0.0814108	0.0111539	-0.999268	0.227539	0.501709	
30	-0.918254	0.343258	0.0343128	0.19444	2.27995	-6.8321	8.07099	0.0140072	0.0526794	-0.0173271	0.251953	0.787598	-0.689941	0.492446	-0.845343	-0.117901	-0.17027	3.59428	-8.05963	-4.55612	-0.0445479	0.0732603	-0.00208326	0.125488	0.85083	0.5354	0.76971	-0.210457	0.594588	0.0985881	-9.76229	-2.49209	2.43235	-0.0499661	0.0283267	-0.0020683	0.958008	-0.0441895	0.158447	0.73255	0.195626	0.631017	-0.16407	-9.59211	0.533766	0.938577	0.331628	-0.0236376	-0.0132274	1.01807	0.194336	0.226074	0.19481	-0.694685	-0.23765	-0.650372	9.62704	0.370792	-0.547449	-0.21295	-0.0323747	-0.00965732	-0.957764	0.198242	0.457275	0.172172	-0.556914	-0.276378	-0.76408	9.58566	1.60183	2.35955	-0.0380862	0.00516163	-0.0137112	-1.09521	0.169434	0.269531	0.294454	-0.873332	-0.32548	-0.21131	4.8806	-3.32377	-6.87229	-0.0428676	0.0483182	0.0270431	-0.206299	0.627441	0.804199	0.566844	-0.680705	-0.248325	-0.391999	8.3265	-6.06063	-0.599345	-0.0706848	0.0493822	-0.0368938	-0.572754	0.888672	0.173584	0.747449	-0.502721	-0.36115	-0.241169	8.20373	-6.60471	2.33057	0.150942	0.00295274	-0.0553595	-0.610352	0.846436	-0.340088	0.18462	-0.135665	-0.190744	-0.95453	2.90478	3.5675	8.72753	0.10655	0.0175511	0.00980561	-0.696533	-0.162354	-0.780762	0.193659	-0.715744	-0.228646	-0.630814	9.9522	-0.105267	-1.24066	0.036633	0.0793067	-0.0500947	-0.999512	0.229736	0.499268	
31	-0.918135	0.342993	0.0333853	0.195625	2.51921	-6.60879	8.29135	0.00349004	0.0978261	-0.0642822	0.254395	0.7854	-0.689941	0.493055	-0.845105	-0.118343	-0.16938	4.20742	-7.73096	-4.64005	0.0584159	-0.0555696	-0.00725611	0.12085	0.857422	0.539795	0.770704	-0.208638	0.594333	0.0961981	-9.64244	-2.04784	2.96575	0.0812364	-0.0175666	0.00646493	0.964355	-0.0419922	0.158447	0.732853	0.195277	0.631109	-0.16277	-9.85825	0.832577	1.47078	-0.0953702	0.010011	0.0617168	1.01587	0.194336	0.22168	0.193463	-0.69518	-0.236711	-0.650588	10.3094	0.0209346	-0.935864	-0.136366	-0.0177641	-0.0267017	-0.950928	0.189453	0.464111	0.172665	-0.556996	-0.276803	-0.763756	9.89864	2.08503	2.56524	0.0637139	-0.00195175	0.00117356	-1.09741	0.167236	0.271729	0.295275	-0.873007	-0.326321	-0.210205	5.48228	-3.49547	-7.02365	0.0632695	-0.0299863	-0.0232309	-0.210693	0.631836	0.803955	0.567377	-0.68023	-0.248147	-0.392166	7.97225	-5.89458	-0.707416	0.0462505	0.0580515	-0.00643756	-0.568604	0.897217	0.17334	0.748146	-0.501456	-0.361636	-0.240911	7.99396	-5.2381	2.22518	0.127806	0.00979184	-0.0458803	-0.607666	0.837402	-0.342285	0.185088	-0.135881	-0.19139	-0.954279	3.31095	4.14358	9.09385	0.05635	-0.00864671	0.0389093	-0.696533	-0.162354	-0.780762	0.192774	-0.71576	-0.228332	-0.631181	9.26896	-0.783925	-1.21708	0.105874	0.0240882	-0.0156328	-0.99707	0.227539	0.494873	
32	-0.917946	0.342421	0.0317228	0.197779	1.75699	-6.88212	8.07088	0.0247781	0.0647504	-0.0382855	0.247803	0.783203	-0.685547	0.49307	-0.844974	-0.11753	-0.170551	3.81984	-7.42774	-4.54323	-0.00720884	0.10295	-0.0281581	0.123291	0.85083	0.5354	0.77145	-0.210854	0.592426	0.097144	-8.83911	-3.28804	2.73293	0.0201623	-0.0651214	-0.0442356	0.960205	-0.0441895	0.158447	0.733925	0.196498	0.629377	-0.163176	-9.30219	1.00767	1.52954	0.10849	-0.109589	0.0332338	1.01392	0.189697	0.223877	0.194851	-0.695138	-0.239162	-0.649321	9.51225	0.0801288	-0.724057	0.181762	-0.0532216	-0.0228457	-0.955566	0.198242	0.452637	0.17189	-0.558256	-0.276435	-0.763144	9.42641	1.96179	2.66095	0.00374009	-0.0583236	-0.0250386	-1.08667	0.171631	0.275879	0.296506	-0.872964	-0.326305	-0.208668	4.68026	-2.9672	-6.42232	-0.00338055	-0.137758	0.00279496	-0.202148	0.634033	0.799805	0.568097	-0.679417	-0.249217	-0.391853	7.87163	-5.2447	-0.256517	-0.0411634	0.0253541	-0.0436633	-0.57251	0.888672	0.178223	0.746247	-0.504195	-0.360343	-0.243015	7.92045	-6.23929	2.42256	-0.104089	0.0346191	-0.0481154	-0.605469	0.8396	-0.340088	0.185548	-0.136281	-0.187908	-0.954825	3.49203	2.71268	9.22894	-0.163991	0.0610346	0.0070008	-0.696777	-0.157959	-0.787842	0.195848	-0.713778	-0.231131	-0.631461	9.81931	1.08114	-1.09728	-0.0204074	0.0507559	-0.0359155	-1.00391	0.227295	0.490234	
33	-0.918209	0.341216	0.032276	0.198551	2.32992	-6.09873	8.23061	0.0430451	-0.0142443	-0.0369393	0.248047	0.778809	-0.694092	0.492621	-0.845325	-0.11723	-0.170316	4.13703	-7.96249	-4.69327	-0.0628243	0.00835996	0.0116647	0.125244	0.853027	0.542236	0.772878	-0.208669	0.591501	0.0961391	-9.86074	-2.67497	2.87082	0.0198457	-0.00118325	-0.012344	0.962402	-0.0419922	0.156006	0.73467	0.19766	0.628387	-0.162236	-10.064	0.745721	0.687903	0.179595	-0.028816	0.0613769	1.01831	0.189941	0.215088	0.193223	-0.696102	-0.236538	-0.649736	9.96764	0.771808	-1.22496	-0.319215	-0.000652607	0.0563439	-0.955322	0.196045	0.461914	0.170948	-0.559137	-0.275529	-0.763038	9.59809	2.27878	2.6644	-0.0972382	-0.0541457	-0.0126144	-1.09082	0.165283	0.276123	0.297838	-0.87268	-0.327175	-0.206589	4.77613	-3.02752	-6.92928	0.146547	0.0569801	-0.00656301	-0.206787	0.640381	0.797363	0.566051	-0.681113	-0.247482	-0.392967	8.1261	-6.1105	-0.476032	-0.0444998	0.0560233	-0.00518052	-0.568359	0.890869	0.171143	0.746852	-0.502992	-0.360913	-0.242801	7.96072	-4.89254	2.32164	-0.0693208	-0.00421126	-0.02249	-0.612305	0.834961	-0.340088	0.18596	-0.136736	-0.191512	-0.953963	3.04249	3.93257	8.76203	0.143499	-0.0394266	0.00741709	-0.701172	-0.162354	-0.780762	0.192361	-0.714767	-0.227404	-0.632766	8.83933	-0.679024	-1.22435	-0.112042	0.0106356	0.0276406	-1.00146	0.227295	0.49707	
34	-0.917849	0.342565	0.0303474	0.198195	1.97425	-6.87488	8.12731	-0.0836102	0.0679227	0.0560636	0.254395	0.7854	-0.687744	0.492955	-0.844986	-0.117461	-0.170868	3.8304	-7.34224	-4.66515	0.0450742	0.0189453	-0.0542044	0.127441	0.853027	0.540039	0.774335	-0.208158	0.590057	0.094383	-8.78103	-2.16136	3.00795	-0.0517815	-0.0324278	-0.00746072	0.962158	-0.0375977	0.151367	0.735638	0.197947	0.62735	-0.161509	-9.65645	1.30172	1.84416	-0.210079	-0.0203836	0.0317852	1.02075	0.187744	0.215088	0.192523	-0.696453	-0.23581	-0.649832	10.0337	0.164675	-0.610892	0.0993214	0.00683004	-0.0437292	-0.951172	0.196045	0.459473	0.170144	-0.55972	-0.273618	-0.763478	9.56725	2.39882	2.58347	-0.0317136	0.00448032	0.0262845	-1.09277	0.165283	0.27832	0.298108	-0.872605	-0.327735	-0.205625	4.73158	-3.29265	-6.61237	0.0716434	-0.0624495	-0.0306924	-0.202637	0.640381	0.79541	0.568488	-0.678951	-0.248676	-0.392438	7.68549	-5.58636	-0.559479	0.0975155	0.0232531	-0.0170633	-0.570801	0.893066	0.171143	0.747266	-0.50213	-0.361201	-0.242883	7.89165	-6.0627	2.29411	0.260482	0.0247945	-0.0486382	-0.607666	0.8396	-0.340088	0.186165	-0.137024	-0.189473	-0.954289	3.9051	2.76013	9.13782	-0.00281546	0.0501241	-0.00239048	-0.701416	-0.153809	-0.778809	0.193428	-0.713867	-0.228074	-0.633215	10.2193	0.011188	-1.3632	-0.0443057	0.0453304	-0.00323578	-0.999268	0.225098	0.488037	
35	-0.917806	0.342807	0.0299106	0.19804	1.84634	-6.8688	8.12953	-0.0211723	0.0176487	0.0231915	0.254395	0.7854	-0.687744	0.493221	-0.8448	-0.117056	-0.171302	3.75261	-7.98521	-4.41294	0.0232721	0.0495053	-0.00762039	0.118652	0.855225	0.535156	0.774128	-0.211094	0.589075	0.0956849	-8.80901	-2.81972	3.28676	0.0072659	-0.0177696	-0.0741877	0.964355	-0.0375977	0.14917	0.736175	0.196538	0.627032	-0.162018	-9.37711	1.13476	1.5696	0.0106744	-0.0447656	-0.045862	1.02075	0.185547	0.210693	0.192572	-0.696546	-0.235118	-0.649968	9.54932	0.121335	-1.14225	-0.05013	0.00473917	-0.0056153	-0.955322	0.193848	0.464111	0.168979	-0.560374	-0.271444	-0.764032	9.43163	1.99401	2.58297	-0.0434266	0.0243246	-0.0175845	-1.08838	0.163086	0.282715	0.300204	-0.871815	-0.32972	-0.202732	5.02136	-4.08242	-6.94474	0.17356	-0.0619183	-0.0652728	-0.200684	0.644775	0.797363	0.567824	-0.679311	-0.247623	-0.39344	8.21811	-5.5704	-0.543498	-0.0816113	0.0629171	-0.015964	-0.570557	0.892822	0.178223	0.746498	-0.503033	-0.360667	-0.244169	8.12513	-5.76642	2.25524	-0.143202	0.0219225	-0.038299	-0.614746	0.841797	-0.342285	0.18623	-0.137669	-0.190162	-0.954046	3.30001	4.03177	8.98195	-0.0199836	-0.0493228	0.00385521	-0.703369	-0.1604	-0.776367	0.192226	-0.713933	-0.226005	-0.634248	9.18745	0.0830921	-1.02761	-0.15106	0.04544	0.0455154	-1.0127	0.227295	0.483398	
36	-0.918086	0.341999	0.0291784	0.198251	2.33357	-6.44708	8.20406	0.0344686	0.0641222	-0.00950843	0.263428	0.783447	-0.689941	0.494125	-0.844649	-0.117696	-0.168986	4.34747	-7.54279	-4.41758	-0.0173756	-0.0832136	0.026176	0.122803	0.859375	0.537354	0.773688	-0.210112	0.59005	0.0954002	-9.86493	-2.81666	2.91356	-0.0041759	0.0541855	0.00336247	0.958008	-0.0419922	0.156006	0.73571	0.196007	0.627824	-0.161704	-9.84102	0.74525	1.28185	0.0419394	0.0533317	-0.0230835	1.01855	0.185547	0.221924	0.192815	-0.695667	-0.235883	-0.65056	10.1673	0.254643	-0.831953	-0.00817238	0.0584658	-0.0512636	-0.955078	0.187256	0.461914	0.168976	-0.559167	-0.273632	-0.764136	9.79438	2.01819	2.44902	0.106984	0.0332183	-0.0953611	-1.09058	0.160889	0.27832	0.305514	-0.870248	-0.331467	-0.198642	5.26712	-2.47738	-7.37009	0.234685	0.0503122	0.0474489	-0.200928	0.653564	0.790771	0.570445	-0.676541	-0.248827	-0.393663	7.50775	-5.62392	-0.259767	0.29032	0.0680492	-0.0475713	-0.572754	0.888672	0.161865	0.747487	-0.501022	-0.36104	-0.244724	7.76321	-5.57059	2.81475	0.143315	0.0421766	-0.0713478	-0.616943	0.8396	-0.34668	0.186943	-0.1386	-0.188003	-0.9542	4.62183	2.48879	9.44577	-0.159826	-0.00158781	0.0846062	-0.70166	-0.149414	-0.78125	0.193917	-0.71234	-0.227162	-0.63511	10.706	-0.444329	-1.68175	0.146148	0.0919019	-0.0749448	-1.0061	0.227295	0.485596	
37	-0.918321	0.341448	0.0284264	0.198219	1.76098	-6.757	8.12202	0.0390618	0.056803	0.024507	0.26123	0.779053	-0.687744	0.493537	-0.84508	-0.117516	-0.168675	3.89221	-7.2744	-4.24926	-0.0629134	-0.0122666	0.00211579	0.129639	0.855225	0.532715	0.773501	-0.209914	0.590534	0.0943533	-8.65505	-2.70805	2.92607	0.0623838	0.0679924	-0.0400793	0.962158	-0.0397949	0.153809	0.734364	0.195644	0.629143	-0.163131	-9.52797	1.34547	1.60667	-0.162995	0.08211	-0.0667421	1.01392	0.189941	0.219482	0.194924	-0.694587	-0.238368	-0.650181	9.61158	0.657115	-0.695953	0.197018	0.035709	-0.0374836	-0.955322	0.193848	0.457275	0.167387	-0.559281	-0.274295	-0.764165	9.37659	2.336	2.48975	-0.11403	-0.0262865	-0.0556602	-1.08838	0.158691	0.282715	0.305624	-0.870393	-0.333086	-0.1951	4.90819	-4.58374	-6.69818	0.202521	-0.320895	-0.0556732	-0.19043	0.655762	0.788574	0.568238	-0.677951	-0.246741	-0.395737	7.93857	-5.68508	-0.481692	-0.292452	0.0814461	-0.0308528	-0.572754	0.888672	0.164307	0.74719	-0.501149	-0.360717	-0.245846	7.74796	-5.79143	2.35462	-0.0526389	0.0585245	-0.0746572	-0.610107	0.8396	-0.34668	0.187849	-0.138796	-0.19134	-0.953329	3.11954	4.37887	9.45202	0.267286	-0.0388613	-0.00737569	-0.699219	-0.153564	-0.778809	0.193654	-0.711413	-0.227853	-0.635982	9.10465	1.0443	-1.23056	0.0230911	0.08833	-0.0874472	-1.0127	0.225098	0.483398	
38	-0.918645	0.341487	0.0282598	0.196672	2.48282	-6.30355	8.12781	-0.040557	-0.0483426	0.0514662	0.259033	0.78125	-0.687744	0.493093	-0.845729	-0.115867	-0.167859	3.96322	-7.98285	-4.61851	-0.0926963	0.0536308	0.0690498	0.125244	0.853027	0.537598	0.77143	-0.210638	0.592948	0.0945474	-9.27339	-2.56694	3.14974	0.0883381	0.121919	-0.0289545	0.960205	-0.0419922	0.160645	0.732812	0.195883	0.630353	-0.165142	-10.008	1.31113	0.787532	0.172846	0.0472771	-0.0715329	1.01587	0.194336	0.22168	0.190641	-0.695669	-0.233335	-0.652117	10.3736	0.384407	-1.23743	-0.433638	0.0383996	0.0478654	-0.950439	0.180664	0.464111	0.165131	-0.559557	-0.271292	-0.765525	10.1858	2.12355	2.58112	-0.12122	0.0542348	-0.0297244	-1.08594	0.1521	0.282959	0.309929	-0.869308	-0.333788	-0.191918	5.16557	-3.67631	-7.14112	0.0289017	0.092451	0.0287559	-0.188477	0.660156	0.773682	0.566676	-0.678765	-0.247182	-0.396305	8.20002	-5.99884	-0.0947251	0.0183851	0.0110749	-0.051468	-0.576904	0.888672	0.173584	0.745176	-0.503197	-0.35931	-0.249805	7.91814	-5.51505	2.62306	-0.0554211	0.0543554	-0.0628105	-0.614502	0.837158	-0.342285	0.18512	-0.142338	-0.187624	-0.954079	3.99302	1.98363	9.31489	-0.226418	-0.0668742	-0.116781	-0.710205	-0.156006	-0.77417	0.189579	-0.710161	-0.223598	-0.640105	10.3407	1.03327	-1.00457	-0.0196608	0.0867278	-0.00257255	-1.01001	0.216309	0.481201	
39	-0.918292	0.342583	0.0271271	0.196572	2.51099	-6.40151	8.17559	-0.103759	0.0564801	0.0353031	0.258789	0.7854	-0.685547	0.492283	-0.846361	-0.115459	-0.167329	4.02604	-7.69044	-4.41498	-0.0869762	-0.0226604	0.0250718	0.131592	0.857422	0.546875	0.771246	-0.208891	0.594114	0.0925932	-9.19173	-2.23619	2.95476	0.207009	0.115005	-0.0107691	0.964355	-0.03125	0.167236	0.731879	0.1969	0.630605	-0.167096	-9.35587	1.10465	1.29227	0.166395	0.0490764	-0.0793495	1.02026	0.196533	0.219482	0.189805	-0.695165	-0.232756	-0.653104	10.0224	-0.444961	-0.925974	-0.0866778	0.0821856	-0.0496736	-0.952881	0.187256	0.464111	0.164732	-0.55917	-0.270258	-0.766259	9.63847	1.742	2.40229	-0.081333	0.07466	-0.0119991	-1.09448	0.154297	0.280762	0.310727	-0.86942	-0.333029	-0.19144	4.67981	-3.55131	-6.47947	0.0709317	0.0151812	0.062817	-0.188477	0.662109	0.779785	0.567882	-0.677276	-0.247652	-0.396832	7.88777	-5.73697	-0.0505178	0.142472	0.0941198	-0.05688	-0.581543	0.890869	0.161865	0.745084	-0.502831	-0.359738	-0.250198	7.72818	-5.90409	2.76214	0.0204468	0.000156363	-0.0718807	-0.621582	0.834961	-0.342285	0.184412	-0.142329	-0.190416	-0.953665	3.80376	2.9995	8.98689	0.212376	-0.0427228	-0.076484	-0.710205	-0.158203	-0.769531	0.187898	-0.709952	-0.222275	-0.641293	10.3167	-1.09497	-0.895775	-0.176544	0.07562	-0.0367584	-1.01245	0.218506	0.476807	
40	-0.917319	0.344763	0.0249084	0.197596	2.05728	-6.87973	8.24822	-0.0959843	0.0591736	-0.0175341	0.263184	0.787842	-0.68335	0.490386	-0.847581	-0.114441	-0.167426	3.91018	-7.74138	-4.64255	-0.0874186	0.0119715	-0.00615558	0.13623	0.853027	0.540039	0.769996	-0.20992	0.595618	0.0909886	-9.3197	-2.44115	2.93735	-0.0540735	0.0979355	-0.0610266	0.960205	-0.0375977	0.171875	0.731125	0.196359	0.631426	-0.167931	-9.83502	1.19396	0.664656	0.00846919	0.0704095	-0.0991689	1.01147	0.194336	0.215088	0.189375	-0.695277	-0.233184	-0.652957	9.6511	0.105298	-0.891504	-0.0413785	-0.0255062	-0.00122039	-0.957031	0.182861	0.464111	0.165358	-0.559187	-0.268821	-0.766617	9.43376	1.99112	2.5302	-0.0289428	0.02489	0.0419936	-1.09058	0.163086	0.280518	0.312104	-0.869139	-0.334147	-0.188505	5.25761	-3.88724	-6.82224	0.0597318	-0.0794017	-0.0331851	-0.18457	0.673096	0.769043	0.566092	-0.678196	-0.246102	-0.398778	8.02871	-5.5076	-0.656599	-0.205044	0.0723409	-0.0445226	-0.574707	0.888672	0.178223	0.745113	-0.501804	-0.361122	-0.250179	8.24223	-4.62098	2.04778	-0.0712205	-0.0115319	-0.0495825	-0.621582	0.839355	-0.337891	0.183361	-0.144313	-0.187808	-0.954086	4.02677	2.43092	9.47526	-0.285301	-0.0321215	0.00065054	-0.708252	-0.149414	-0.774414	0.189124	-0.70847	-0.220734	-0.643101	10.4123	-0.0067173	-0.637565	-0.0417725	0.123999	0.0667674	-1.01001	0.214111	0.469971	
41	-0.917042	0.345051	0.0253319	0.198324	2.03899	-6.57799	8.102	0.0141377	-0.0344797	-0.0383538	0.262939	0.789795	-0.68335	0.489481	-0.84829	-0.113318	-0.167248	4.09998	-7.53729	-4.13821	-0.073882	0.0395654	0.0288653	0.138428	0.85083	0.551758	0.769016	-0.212573	0.596025	0.0904553	-9.21808	-2.87875	2.71924	-0.0582544	0.072961	-0.0475193	0.959961	-0.0334473	0.171875	0.731756	0.192804	0.63132	-0.169692	-9.77157	0.737588	1.12596	-0.180939	-0.0521455	-0.0582857	1.01318	0.203125	0.219238	0.188994	-0.69565	-0.233422	-0.652585	9.74612	0.575675	-0.584695	-0.102261	-0.0205818	0.00566859	-0.957031	0.182861	0.461914	0.164574	-0.560279	-0.267109	-0.766587	9.64466	1.98052	2.71599	-0.0602932	-0.0271891	-0.011388	-1.09277	0.160889	0.284912	0.314333	-0.868401	-0.334428	-0.187705	4.78615	-3.77272	-6.33319	0.10963	0.0164628	-0.00652923	-0.191162	0.675293	0.764648	0.564932	-0.67866	-0.246685	-0.399273	7.88968	-5.66658	-0.307756	-0.0118606	-0.0123376	-0.0389005	-0.576904	0.886475	0.171387	0.744043	-0.502765	-0.360735	-0.251989	7.85229	-6.55707	2.24743	0.165248	0.0341991	-0.070024	-0.621338	0.83252	-0.340088	0.183694	-0.144812	-0.188843	-0.953742	3.13521	3.4146	8.98244	0.203976	-0.00610261	0.0315895	-0.710205	-0.156006	-0.767334	0.185202	-0.708621	-0.217529	-0.645165	9.2081	-1.2508	-0.658085	-0.0403193	0.0475348	-0.0617573	-1.0166	0.209717	0.472412	
42	-0.916507	0.345446	0.0245121	0.200201	2.37996	-6.46376	8.21992	-0.0394224	0.09871	-0.0737732	0.260498	0.794189	-0.683594	0.488991	-0.848602	-0.113075	-0.167262	3.7004	-7.84335	-4.66217	-0.00715699	-0.0191272	-0.025012	0.13623	0.85083	0.551758	0.768763	-0.2127	0.596625	0.0883225	-9.29514	-2.19345	2.8107	0.0438209	0.0552353	-0.0411321	0.957764	-0.0268555	0.17627	0.731394	0.192352	0.63118	-0.172267	-9.70524	0.806427	1.55685	0.0498707	0.0161281	-0.0824808	1.01489	0.214111	0.218994	0.185773	-0.697229	-0.230557	-0.652843	10.1488	-0.274791	-0.787348	-0.0853613	-0.0171613	-0.0275638	-0.958984	0.178467	0.46875	0.165226	-0.560674	-0.266189	-0.766478	9.96164	2.09365	3.25456	-0.00093238	0.0323792	0.0418711	-1.08618	0.158691	0.282715	0.315924	-0.867426	-0.337188	-0.184576	5.14756	-3.69809	-7.62335	0.233832	-0.117202	-0.0726952	-0.182861	0.679688	0.773193	0.567496	-0.676031	-0.248356	-0.399061	7.89708	-5.11054	-0.381451	0.23811	0.0145651	-0.0452323	-0.583496	0.888672	0.168945	0.744263	-0.502127	-0.360294	-0.253235	7.91686	-5.33983	2.34132	-0.174124	0.0587709	-0.0441292	-0.621582	0.839355	-0.340088	0.184917	-0.145177	-0.189894	-0.953242	3.22028	4.47746	9.84897	0.0977132	-0.0175763	0.0972257	-0.710205	-0.158203	-0.769531	0.186144	-0.707679	-0.220349	-0.64497	11.194	1.06264	-0.631239	-0.0444257	-0.00944467	-0.0807443	-1.0188	0.209473	0.469971	
43	-0.915841	0.345589	0.0219498	0.203278	1.64855	-6.9191	8.19744	-0.0132906	0.112928	-0.0776952	0.262939	0.789795	-0.67041	0.488786	-0.84873	-0.113208	-0.16712	3.97665	-7.57829	-4.21831	0.0288939	-0.00559329	-0.0280201	0.134033	0.85083	0.549561	0.767816	-0.214319	0.597192	0.0888157	-8.98304	-3.20865	2.58619	-0.0664016	0.0578883	0.000663173	0.957764	-0.0290527	0.178711	0.731053	0.191378	0.631655	-0.173054	-9.50992	0.231791	1.37241	0.0628134	0.00565768	-0.0496579	1.0127	0.214111	0.216797	0.186371	-0.696734	-0.231956	-0.652705	9.21689	0.0477244	-0.305896	0.00485153	-0.00578526	-0.0291573	-0.956787	0.17627	0.470947	0.16541	-0.560594	-0.265936	-0.766584	9.0839	1.64076	2.9604	0.0738181	0.0123621	-0.0282445	-1.08374	0.154297	0.287109	0.316771	-0.866683	-0.337707	-0.185662	4.55292	-3.91818	-5.34466	0.0606895	0.0364072	-0.0640371	-0.189209	0.67749	0.764648	0.567287	-0.676257	-0.248413	-0.398939	7.82156	-5.5904	-0.203192	-0.0538745	-0.00717857	-0.0173658	-0.583008	0.879883	0.164307	0.745372	-0.500623	-0.359897	-0.253519	8.00826	-5.52816	2.328	0.15369	0.0534605	-0.0358375	-0.621338	0.83252	-0.342285	0.186851	-0.143938	-0.190052	-0.953021	3.14101	4.89621	9.20714	0.137457	0.0105269	0.0314469	-0.708008	-0.153809	-0.765137	0.183828	-0.707808	-0.219869	-0.645657	8.91602	-0.547278	-0.779427	0.0879434	0.0210709	-0.0323115	-1.01855	0.205078	0.465576	
44	-0.91645	0.343226	0.0230707	0.204408	2.06654	-6.13917	8.08456	0.124084	-0.039098	-0.0479112	0.260742	0.789795	-0.685547	0.490251	-0.848092	-0.11385	-0.165626	3.95324	-7.15062	-4.28092	-0.0366186	-0.00382009	0.0136322	0.13623	0.853027	0.549316	0.768296	-0.213703	0.596782	0.0888996	-8.83944	-2.73021	2.84762	0.0383657	-0.03982	0.0306851	0.957764	-0.03125	0.17627	0.731089	0.190528	0.632363	-0.171246	-9.43972	-0.0584366	1.29798	-0.073532	0.0563273	0.059288	1.01514	0.211914	0.214844	0.188271	-0.696753	-0.233229	-0.651685	10.2969	0.250026	-0.866551	0.163941	0.0179172	0.0116814	-0.959229	0.182861	0.466309	0.166232	-0.560342	-0.268466	-0.765708	9.7376	2.14086	2.94522	0.0703929	-0.0099778	-0.0461262	-1.08398	0.156494	0.278564	0.320059	-0.865469	-0.339264	-0.182828	5.32681	-3.54063	-7.70872	0.0260231	0.0388029	-0.0186383	-0.185303	0.688232	0.764404	0.566642	-0.677129	-0.248546	-0.398293	8.2243	-5.51111	-0.169299	-0.0457899	-0.00622263	0.00302211	-0.583252	0.886475	0.171387	0.744492	-0.502132	-0.359156	-0.254169	7.96606	-5.50068	2.6854	-0.160563	-0.000321687	-0.00019001	-0.619141	0.83252	-0.337646	0.187858	-0.143804	-0.186611	-0.953523	3.89885	1.85148	8.80259	-0.117286	0.0637328	-0.00125684	-0.708496	-0.147217	-0.776611	0.184285	-0.707833	-0.220571	-0.64526	10.5559	1.71548	-0.584925	-0.149869	-0.03028	-0.00855355	-1.01416	0.20752	0.472412	
45	-0.916722	0.342582	0.0218119	0.20441	2.40377	-6.05866	8.21201	-0.0159546	0.0804168	0.0578685	0.256348	0.787598	-0.685547	0.490942	-0.847891	-0.114489	-0.164161	3.78658	-8.49295	-4.74994	0.115929	-0.0408289	-0.0199655	0.140625	0.853027	0.549316	0.768916	-0.211287	0.596598	0.090536	-9.57366	-2.78919	2.98621	0.0805022	-0.0654297	0.0425453	0.953613	-0.0354004	0.181152	0.730191	0.192433	0.633121	-0.170143	-10.0616	0.830453	1.50482	-0.040993	0.0467655	0.0450016	1.01294	0.209473	0.22583	0.190367	-0.69666	-0.233026	-0.651249	9.85026	0.129936	-1.06005	0.0573031	-0.0134488	0.0331583	-0.952881	0.187256	0.46875	0.166005	-0.560285	-0.269511	-0.765432	9.90291	1.84296	2.36574	0.108893	0.0115242	-0.0406977	-1.09253	0.156494	0.278564	0.323735	-0.863648	-0.34109	-0.181564	4.96142	-4.25066	-7.31209	0.531129	-0.0758094	-0.0412777	-0.185547	0.692627	0.755859	0.569278	-0.674726	-0.249627	-0.397937	8.02667	-5.52695	-0.113719	0.281552	0.0261589	-0.040562	-0.576904	0.886475	0.164307	0.74622	-0.499717	-0.359474	-0.25341	8.01328	-5.59857	2.44274	0.273174	0.0282056	-0.0221558	-0.618896	0.825928	-0.344238	0.186907	-0.142937	-0.190524	-0.953066	3.89851	4.37693	9.51902	0.0115341	-0.0391555	0.0187679	-0.708252	-0.151611	-0.771973	0.182334	-0.709141	-0.216887	-0.645626	9.46965	-1.32598	-1.1977	-0.0707668	0.00147652	0.0585184	-1.01636	0.205078	0.474609	
46	-0.91682	0.34294	0.0198237	0.203567	2.08986	-6.3876	8.27327	-0.051417	0.112027	0.119029	0.265137	0.787598	-0.677002	0.491936	-0.847592	-0.115613	-0.16193	4.1419	-7.16108	-4.28191	0.108003	-0.169753	0.00297303	0.142822	0.853027	0.549316	0.768356	-0.21223	0.596586	0.0931283	-9.20195	-2.45472	2.86133	-0.193088	0.00145516	0.124623	0.960205	-0.0375977	0.171875	0.729383	0.192668	0.634183	-0.169382	-9.67835	1.45994	1.05907	-0.0614645	0.0659853	0.012398	1.01074	0.21167	0.22583	0.192191	-0.696146	-0.233965	-0.650925	10.4642	0.532282	-0.971486	0.0824348	0.0180682	0.0117651	-0.955078	0.189453	0.459473	0.167528	-0.559562	-0.270488	-0.765284	9.82929	2.12031	2.46997	0.0171135	0.0407235	0.0234919	-1.09033	0.156494	0.278564	0.323225	-0.864016	-0.339561	-0.183578	4.70651	-3.88394	-6.09709	-0.367609	0.123457	0.0108201	-0.189453	0.683838	0.755859	0.568997	-0.675248	-0.248632	-0.398076	7.76709	-5.68379	-0.142086	-0.167847	0.0835038	0.02245	-0.579102	0.888672	0.159668	0.745694	-0.500704	-0.359435	-0.253066	7.80142	-5.21603	2.54315	-0.193568	-0.0290064	0.015884	-0.619141	0.834961	-0.34668	0.188179	-0.142564	-0.186328	-0.953701	4.10442	2.3182	9.29296	-0.153892	0.0654084	0.0664447	-0.708496	-0.147217	-0.779053	0.185815	-0.708189	-0.220669	-0.644396	11.2028	-0.654375	-1.24776	0.432064	-0.00856627	-0.0377416	-1.0166	0.209717	0.472412	
47	-0.917011	0.344276	0.0153096	0.200825	1.3864	-7.24708	8.30923	-0.0720417	0.0931097	0.168694	0.276123	0.790039	-0.674805	0.491219	-0.847998	-0.115732	-0.161895	3.68158	-7.69283	-4.49082	0.024908	0.023221	-0.0418149	0.14502	0.85083	0.549316	0.768954	-0.21085	0.596206	0.0937603	-8.81632	-1.79498	2.97699	0.0791303	-0.0475319	0.0099313	0.958008	-0.0441895	0.178955	0.729236	0.191051	0.635393	-0.167304	-9.47026	0.8069	0.712401	-0.217583	0.093193	0.0192924	1.01294	0.207275	0.234619	0.192191	-0.696146	-0.233965	-0.650925	10.4642	0.532282	-0.971486	0.0824348	0.0180682	0.0117651	-0.955078	0.189453	0.459473	0.167839	-0.559841	-0.269141	-0.765488	9.28153	2.10383	2.45361	-0.0663316	0.0295178	0.0669104	-1.08862	0.165283	0.27832	0.325566	-0.862646	-0.342139	-0.181077	5.45587	-4.74001	-7.35232	0.341623	-0.0379509	-0.110462	-0.192139	0.697021	0.751465	0.56761	-0.676392	-0.247449	-0.39885	8.01359	-5.88342	-0.613847	-0.176032	0.0474147	-0.00927567	-0.579102	0.884277	0.159668	0.744294	-0.502815	-0.358912	-0.253745	8.15692	-6.05839	1.95322	-0.206686	-0.0194538	-0.00608275	-0.614502	0.834961	-0.340088	0.188734	-0.143225	-0.188611	-0.953043	3.28046	3.76978	8.92394	0.181754	-0.0710567	0.0392364	-0.708008	-0.156006	-0.77417	0.184283	-0.70829	-0.220923	-0.644638	8.59012	0.390163	-0.817675	-0.186337	-0.00673843	-0.024765	-1.01831	0.198486	0.472412	
48	-0.917333	0.344464	0.0165604	0.198923	1.98482	-6.99393	8.21471	0.0261083	-0.0961069	0.0101319	0.276123	0.792236	-0.678955	0.491285	-0.848052	-0.115159	-0.16182	3.6268	-8.1143	-4.46748	-0.046405	0.0272011	0.0171147	0.138672	0.848633	0.54248	0.768009	-0.211752	0.596913	0.0949672	-9.81673	-2.51823	2.63821	0.0371619	0.0330279	0.0206678	0.956055	-0.0441895	0.181396	0.728023	0.193909	0.635425	-0.169166	-9.91213	0.901164	0.639247	0.0726398	0.0189477	0.0153687	1.01074	0.21167	0.228027	0.190923	-0.697326	-0.229534	-0.651612	10.0235	-0.280923	-0.942215	-0.0127701	0.0377365	-0.0206277	-0.955078	0.189453	0.459473	0.167803	-0.560574	-0.264927	-0.766428	9.93246	2.01497	2.74589	-0.120977	0.0587525	0.063561	-1.08618	0.160889	0.27417	0.328722	-0.861769	-0.340935	-0.181821	4.25979	-3.25861	-6.3709	-0.0040433	-0.0140161	0.0805541	-0.187988	0.699219	0.751221	0.572261	-0.672025	-0.250518	-0.397668	7.44398	-4.78554	0.27434	0.428817	0.106521	-0.0172547	-0.585693	0.888672	0.150146	0.746484	-0.499225	-0.360071	-0.252754	7.84666	-5.08963	2.86422	0.165789	0.0165058	-0.0440641	-0.621338	0.830322	-0.34668	0.188079	-0.144134	-0.186961	-0.953361	5.16405	2.16496	9.56772	-0.366541	0.0031195	-0.00448755	-0.70166	-0.149414	-0.769775	0.185767	-0.707451	-0.221975	-0.644771	11.4732	0.363713	-1.38687	0.162003	0.0189241	-0.0217968	-1.0188	0.207275	0.474609	
49	-0.916766	0.345045	0.0160771	0.200563	1.9686	-6.78768	8.14923	-0.0521749	0.0731806	-0.0706988	0.273682	0.794189	-0.672607	0.491066	-0.848302	-0.114788	-0.161435	3.80322	-7.80136	-4.42697	-0.0326132	-0.00385085	0.0213095	0.140625	0.853027	0.549316	0.768984	-0.2088	0.597089	0.0924692	-9.12845	-2.02472	2.57864	0.111118	0.00337797	0.0295592	0.958008	-0.0419922	0.172119	0.727884	0.194109	0.635368	-0.169749	-9.47284	0.930021	0.596474	-0.066338	0.0131789	-0.000205941	1.01514	0.21167	0.232422	0.191583	-0.697433	-0.229649	-0.651264	9.52618	0.369468	-0.484597	-0.0202988	-0.0122097	0.0371374	-0.952881	0.189453	0.466309	0.169644	-0.559283	-0.265236	-0.76686	9.48165	1.99004	2.5164	0.122441	0.0556265	0.0134157	-1.08887	0.171631	0.278076	0.32576	-0.863228	-0.341502	-0.179147	5.3457	-4.26207	-6.55926	0.0603336	-0.0619613	-0.0404317	-0.179199	0.694824	0.751465	0.567256	-0.676511	-0.247998	-0.398811	8.09912	-5.21225	-0.68964	-0.509972	-0.0318063	-0.0150023	-0.578857	0.884277	0.164307	0.745947	-0.49964	-0.360788	-0.2525	7.76335	-5.88342	2.05677	0.0936961	-0.0352541	-0.0234375	-0.618896	0.830322	-0.348877	0.187715	-0.14342	-0.187274	-0.953479	3.06487	4.84097	9.05519	-0.0730418	0.0182815	-0.00471875	-0.70874	-0.140625	-0.77002	0.1833	-0.707452	-0.220132	-0.646107	8.64882	0.656105	-0.608974	-0.122974	0.0436872	-0.000120998	-1.02075	0.202881	0.470215	
50	-0.9164	0.344435	0.0170439	0.203187	1.69962	-6.37605	8.11284	0.0447251	-0.0355549	-0.112736	0.267334	0.787842	-0.677002	0.489379	-0.849017	-0.115312	-0.162423	3.65365	-7.72785	-4.72725	-0.0734443	0.0398306	-0.0448404	0.140625	0.853027	0.547119	0.768947	-0.211755	0.59593	0.093527	-8.86596	-2.50907	2.87754	-0.170956	-0.0146582	-0.0521371	0.958008	-0.0419922	0.178955	0.728367	0.193918	0.634973	-0.169372	-9.58149	0.147203	0.4515	-0.0374442	-0.0395547	0.0260634	1.01514	0.209473	0.228027	0.192123	-0.697557	-0.22932	-0.651088	9.65796	0.312634	-1.23721	0.0150141	0.0062302	0.0372793	-0.948975	0.198242	0.461914	0.168779	-0.560592	-0.262077	-0.767181	9.56124	2.24895	2.80756	-0.203898	-0.00162372	0.0374098	-1.08667	0.169434	0.275879	0.325116	-0.863277	-0.341447	-0.180185	5.2277	-4.3117	-7.4627	-0.0567832	0.0644543	-0.0495298	-0.181152	0.69043	0.747314	0.564278	-0.679178	-0.247638	-0.398726	8.41436	-6.48286	-0.614892	-0.287676	-0.116681	-0.0350185	-0.583252	0.88208	0.180664	0.742704	-0.50466	-0.358985	-0.254637	8.14451	-6.00226	2.27575	-0.420852	0.0123396	0.00170146	-0.621582	0.837158	-0.335693	0.184986	-0.144816	-0.184785	-0.954287	3.73068	2.08331	9.11883	-0.11401	-0.0378289	-0.141113	-0.703857	-0.149414	-0.769775	0.181116	-0.708568	-0.215043	-0.647213	10.4617	1.27466	-0.508896	-0.203158	-0.00655223	0.0934786	-1.02075	0.200684	0.470215	
51	-0.915576	0.345629	0.0181579	0.204774	2.30087	-6.30574	8.25491	-0.069231	-0.0112693	-0.0697023	0.269287	0.794189	-0.677002	0.487858	-0.849899	-0.115149	-0.162504	4.19782	-7.53254	-4.32887	-0.0629856	0.0175015	-0.0260853	0.138428	0.85083	0.551758	0.771384	-0.208541	0.594545	0.089405	-9.719	-2.17426	2.78145	0.291762	-0.129576	-0.109552	0.955811	-0.0354004	0.171875	0.729407	0.196563	0.632746	-0.170179	-9.92609	1.3513	0.973012	-0.0797087	-0.0873483	0.0786902	1.01514	0.209473	0.223633	0.190703	-0.697791	-0.226964	-0.652079	10.0773	0.364919	-0.485262	-0.191109	0.0324343	-0.00236983	-0.952881	0.189453	0.461914	0.168933	-0.560007	-0.261178	-0.76788	9.71901	1.81978	2.48384	0.114431	0.0613822	-0.0140638	-1.08667	0.171631	0.269531	0.324688	-0.863506	-0.341581	-0.179603	4.57053	-3.12647	-6.63056	0.0340816	-0.115731	-0.0052686	-0.183594	0.694824	0.755615	0.568275	-0.67558	-0.249811	-0.397806	8.16886	-5.40874	-0.082461	0.356755	0.103666	-0.0338548	-0.585693	0.888672	0.161865	0.744624	-0.501884	-0.359961	-0.253132	8.08813	-4.94925	2.48909	0.185866	-0.0023682	-0.0158819	-0.625732	0.827881	-0.337646	0.184733	-0.144662	-0.188299	-0.953672	3.9035	3.99544	9.53876	0.0519783	-0.0426464	0.0885034	-0.712402	-0.156006	-0.767334	0.179657	-0.709547	-0.212405	-0.647419	9.17543	-1.09793	-0.688812	-0.23316	-0.0196555	0.0839363	-1.01611	0.196289	0.472412	
52	-0.914648	0.347812	0.0172561	0.205302	1.61451	-6.68258	8.08013	-0.103365	0.00948925	0.00727408	0.26709	0.794189	-0.66626	0.48651	-0.85035	-0.116877	-0.16295	3.48453	-7.85179	-5.16408	-0.038123	-0.0052778	-0.100953	0.136475	0.846436	0.554199	0.77167	-0.212613	0.592588	0.0903339	-9.43821	-3.081	2.69433	-0.181176	-0.0205329	-0.0648067	0.957764	-0.0290527	0.171875	0.731684	0.195971	0.630111	-0.170862	-9.61763	1.37786	1.40635	-0.00116237	-0.141776	-0.00858938	1.01538	0.20752	0.219238	0.191645	-0.697646	-0.228318	-0.651486	9.72898	0.276911	-0.991267	0.211992	0.0164491	-0.0578809	-0.953125	0.193848	0.466309	0.169104	-0.560642	-0.260086	-0.76775	9.35354	2.37035	2.76586	-0.154714	-0.0102975	0.0347932	-1.08667	0.169434	0.278076	0.322427	-0.86357	-0.342709	-0.181213	5.14237	-4.55793	-6.93581	-0.00878116	0.18809	-0.108711	-0.187744	0.69043	0.751465	0.566557	-0.677009	-0.249027	-0.398318	7.7386	-5.45444	-0.326751	-0.27559	-0.0314495	-0.0100586	-0.578857	0.88208	0.176025	0.745315	-0.500731	-0.36057	-0.252513	7.7795	-5.80458	2.46949	0.053446	0.000647834	-0.0233826	-0.621338	0.83252	-0.342285	0.185406	-0.143479	-0.187258	-0.953925	3.17182	1.95991	9.07674	0.222941	0.105691	-0.0066951	-0.706055	-0.151611	-0.776611	0.183031	-0.708601	-0.216213	-0.646248	10.1094	-0.168621	-0.673265	0.142217	-0.00278103	-0.0147158	-1.021	0.207275	0.469971	
53	-0.914478	0.348773	0.0176255	0.204393	1.65432	-7.10949	8.11633	-0.0644766	-0.0742977	0.0552786	0.266602	0.802734	-0.664062	0.488127	-0.84936	-0.118144	-0.162365	3.99796	-7.62127	-4.28007	0.0375504	-0.00809856	-0.0412576	0.136475	0.848633	0.544922	0.772449	-0.214378	0.591049	0.0895898	-9.17733	-2.72847	2.92977	-0.0745631	-0.0934722	-0.154484	0.962158	-0.0334473	0.171875	0.734698	0.191088	0.628497	-0.169398	-9.56688	0.420801	1.73693	-0.0989558	-0.143595	-0.0673486	1.01318	0.205322	0.210449	0.190856	-0.69746	-0.228112	-0.651989	10.0478	0.0869169	-0.946744	-0.125615	0.0203147	-0.00336939	-0.95752	0.19165	0.459473	0.168723	-0.559984	-0.261005	-0.768002	9.7273	1.916	2.69634	0.156438	0.0409541	-0.0933685	-1.08667	0.171631	0.267334	0.327586	-0.860681	-0.345097	-0.181174	4.89066	-4.20118	-6.71034	0.20535	0.0467341	-0.103164	-0.192139	0.697021	0.744873	0.56807	-0.67602	-0.249028	-0.397842	8.11336	-6.52601	-0.508498	0.338369	0.0663914	-0.0199667	-0.576904	0.888672	0.171143	0.743963	-0.503205	-0.359467	-0.253155	8.14378	-5.77	2.35384	-0.0700012	0.0159972	0.00405459	-0.621582	0.834961	-0.340088	0.188635	-0.143015	-0.188544	-0.953108	3.78631	3.91434	9.32115	0.0777376	0.0339446	0.119866	-0.710449	-0.149414	-0.769775	0.18269	-0.708732	-0.217011	-0.645933	8.59083	-1.4287	-0.637092	0.0296053	-0.0358673	-0.0601551	-1.0188	0.207275	0.472412	
54	-0.914842	0.348681	0.0194676	0.202747	2.08101	-6.96885	7.85061	0.0476962	-0.0792683	0.0231096	0.260498	0.796387	-0.672852	0.488452	-0.849189	-0.118743	-0.161839	3.76848	-7.63134	-4.95788	0.0347277	-0.0407698	-0.0359313	0.13623	0.85083	0.554199	0.772226	-0.217321	0.59018	0.0901471	-9.24644	-3.12838	2.95489	-0.00972053	0.0133567	-0.0275351	0.955566	-0.0288086	0.164795	0.735543	0.1891	0.628242	-0.168911	-9.42079	0.67704	2.06455	-0.15581	0.020666	-0.00928974	1.01538	0.205322	0.212646	0.190473	-0.696319	-0.229002	-0.653006	9.92558	0.0115832	-0.832109	0.0401794	0.0647964	-0.0525955	-0.961914	0.19165	0.459473	0.168758	-0.559134	-0.262459	-0.768118	9.60685	2.24613	2.855	0.108972	0.0506311	-0.0985246	-1.09106	0.171631	0.275879	0.327924	-0.860241	-0.345623	-0.181646	4.71628	-4.07344	-6.76268	-0.103975	-0.0340775	-0.0221963	-0.19458	0.699219	0.749268	0.572638	-0.671804	-0.251481	-0.396891	7.92111	-5.39432	-0.248829	0.270468	0.0392978	-0.0224436	-0.581299	0.884521	0.143311	0.748463	-0.496232	-0.361274	-0.251076	7.85146	-5.50194	2.66141	0.378211	0.0238248	-0.0508608	-0.625732	0.828125	-0.353271	0.191449	-0.141599	-0.189049	-0.952658	3.22959	3.66739	8.6758	0.287459	0.0995225	0.0636894	-0.704102	-0.14502	-0.774414	0.187082	-0.706626	-0.223941	-0.644616	11.0342	1.42312	-1.12466	0.227222	-0.0206223	-0.102528	-1.01636	0.205078	0.470215	
55	-0.914941	0.347943	0.0195538	0.203558	2.09296	-6.53991	8.02599	0.0226291	0.0253448	-0.050765	0.264893	0.796387	-0.672607	0.487647	-0.849689	-0.120031	-0.160695	3.87879	-7.73614	-4.61491	0.00941566	-0.169772	-0.0400177	0.134277	0.846436	0.552002	0.771992	-0.217741	0.59032	0.090216	-9.28467	-2.41566	2.85957	-0.184149	0.0543268	0.0115004	0.959961	-0.0290527	0.164795	0.734805	0.188738	0.629237	-0.16882	-9.92577	0.439976	1.50436	-0.0321107	0.0968662	-0.0370947	1.01538	0.20752	0.212646	0.191115	-0.695355	-0.230484	-0.653325	9.64457	0.148235	-0.869192	0.121792	0.0642203	-0.0860597	-0.95752	0.196045	0.457275	0.167572	-0.558131	-0.26349	-0.768754	9.47456	1.82462	2.64815	0.0024528	0.042143	-0.0931726	-1.09277	0.165283	0.273926	0.327744	-0.859999	-0.346871	-0.180737	5.07352	-4.51476	-5.99348	0.0551767	-0.0873805	-0.0888512	-0.196777	0.701172	0.749023	0.572246	-0.672351	-0.250661	-0.397049	7.77504	-4.95395	-0.393271	-0.0718173	0.036135	0.0194823	-0.579102	0.886475	0.152588	0.747092	-0.498414	-0.360493	-0.251956	7.85398	-4.7546	2.25792	-0.220133	0.00362984	-0.00411274	-0.616699	0.830322	-0.34668	0.192132	-0.141383	-0.189568	-0.95245	3.35112	5.29843	8.86826	0.0554887	0.0294769	0.0491947	-0.70166	-0.147217	-0.769775	0.184469	-0.706719	-0.224925	-0.644926	9.00066	0.710575	-0.905558	0.0678325	-0.00597961	-0.0631521	-1.01636	0.202881	0.474609	
56	-0.914767	0.348117	0.0181358	0.204174	2.0633	-6.57397	8.15987	-0.0255718	0.0619271	0.0200842	0.266846	0.800781	-0.672852	0.488801	-0.84896	-0.120339	-0.160808	3.89508	-7.42381	-4.20087	0.0363033	-0.0177789	-0.0206899	0.140869	0.844238	0.547363	0.771439	-0.217557	0.590832	0.0920304	-9.20824	-2.81972	2.69017	0.0941618	0.0153556	0.0998588	0.959961	-0.0268555	0.167236	0.733807	0.188267	0.630711	-0.168185	-9.59922	0.392901	1.46632	-0.0985645	0.0911667	0.015998	1.01782	0.203125	0.217041	0.189619	-0.694868	-0.230399	-0.654308	10.2602	-0.119443	-1.06115	-0.0807129	0.0437415	-0.0359807	-0.950928	0.189453	0.455078	0.166628	-0.557073	-0.265984	-0.768867	9.95698	1.65493	2.81546	0.0962911	0.0114475	-0.123565	-1.08838	0.158691	0.269775	0.327225	-0.860435	-0.347001	-0.179346	5.00131	-3.47643	-6.45191	-0.152626	-0.0598482	0.0218575	-0.194336	0.694824	0.749268	0.571139	-0.67341	-0.251745	-0.396161	7.8975	-5.70576	-0.0599029	0.0729324	-0.0982853	-0.0528354	-0.579102	0.884277	0.157227	0.746278	-0.500056	-0.359009	-0.25323	7.96268	-5.98042	2.44612	0.124142	0.0552525	-0.0232866	-0.619141	0.834961	-0.355713	0.191023	-0.142407	-0.186498	-0.953126	4.08956	2.58824	9.20802	-0.0273208	0.0320068	-0.0621122	-0.703857	-0.147217	-0.774414	0.18492	-0.706629	-0.22453	-0.645032	10.554	1.20417	-0.717811	-0.107226	0.0168363	0.0312372	-1.01416	0.202881	0.472412	
57	-0.914785	0.348224	0.0170127	0.204008	1.90755	-6.57938	8.36704	-0.0132086	0.0174806	0.0253082	0.262451	0.798584	-0.668457	0.487975	-0.849338	-0.120711	-0.161041	4.08095	-7.41504	-4.5333	-0.0416405	0.0611694	-0.0528979	0.136475	0.846436	0.549561	0.772388	-0.215148	0.590595	0.0912425	-9.07156	-2.28918	3.08546	0.0995056	-0.0413954	-0.020121	0.955811	-0.0332031	0.171875	0.732247	0.191373	0.631385	-0.168951	-9.39408	0.503934	0.628064	0.16034	0.0481284	0.0567019	1.01099	0.203125	0.217041	0.192722	-0.693007	-0.234093	-0.654064	9.60898	0.667661	-0.524759	0.253188	0.0249334	-0.0639293	-0.961426	0.180664	0.452637	0.165277	-0.556792	-0.267392	-0.768875	9.43727	1.7475	2.52649	0.00251706	-0.00946802	-0.0610071	-1.09473	0.154297	0.272217	0.327338	-0.860609	-0.346683	-0.178921	5.10598	-3.9489	-7.38417	0.0280914	-0.0109292	0.0234232	-0.192383	0.699219	0.74707	0.571965	-0.672571	-0.251892	-0.396301	8.4191	-5.29588	0.0134687	-0.0102493	0.0824468	-0.0108873	-0.576904	0.888672	0.159668	0.747829	-0.497834	-0.359748	-0.25198	8.22995	-4.84654	2.88262	-0.0385232	-0.0146687	-0.00740973	-0.621338	0.832764	-0.34668	0.189967	-0.14167	-0.188988	-0.952956	3.77467	4.3043	9.06554	-0.00136091	-0.00475022	-0.00125895	-0.706055	-0.151611	-0.778809	0.184219	-0.707319	-0.221039	-0.645682	9.15327	-0.0972534	-0.998294	-0.0633022	0.0340519	0.0931223	-1.021	0.207275	0.476807	
58	-0.914725	0.349131	0.0190378	0.202541	1.48798	-6.79369	7.87132	-0.0105725	-0.155223	0.0311216	0.269287	0.794189	-0.67041	0.48709	-0.849603	-0.122019	-0.161335	3.63663	-7.76576	-5.26644	-0.0593122	0.0274739	-0.0763837	0.136475	0.844238	0.549561	0.772927	-0.215875	0.589472	0.0922235	-9.29816	-2.76384	2.38073	-0.107987	-0.037568	0.00114719	0.959961	-0.03125	0.169434	0.733309	0.192267	0.630256	-0.167537	-9.86083	0.606502	0.499496	-0.0230112	-0.0674006	0.0491662	1.01538	0.20752	0.217041	0.191324	-0.69437	-0.231239	-0.654045	9.72948	0.258087	-1.02251	-0.162276	-0.0193089	0.0739379	-0.955566	0.196045	0.455078	0.166035	-0.557174	-0.266532	-0.768733	9.53918	2.02067	2.87419	-0.0159688	0.0277043	0.0611828	-1.08838	0.160889	0.269775	0.325662	-0.86092	-0.345626	-0.182493	5.25502	-4.80673	-6.27079	-0.222044	0.214721	-0.0663592	-0.194092	0.692627	0.753662	0.568209	-0.67588	-0.249635	-0.3975	7.85393	-6.28986	-0.408042	-0.229494	0.00502582	-0.0161	-0.579102	0.888672	0.161865	0.745643	-0.501235	-0.35861	-0.253336	7.95022	-5.89488	2.44086	-0.0715895	0.00914679	-0.0200184	-0.616699	0.830322	-0.344482	0.186155	-0.142879	-0.187046	-0.953911	3.4215	1.82914	9.12617	0.0543371	-0.0624645	-0.228416	-0.70166	-0.147217	-0.772217	0.185203	-0.708387	-0.217784	-0.645335	10.374	1.30572	-0.480824	-0.202966	-0.0307327	0.135618	-1.01855	0.205078	0.470215	
59	-0.914611	0.350923	0.02126	0.199718	2.48375	-6.79093	7.99367	-0.0666947	-0.108549	0.0894549	0.262695	0.796387	-0.670654	0.488091	-0.849014	-0.122491	-0.161052	4.35317	-6.85031	-4.06822	0.0533323	-0.0279087	-0.00296167	0.136475	0.848633	0.549561	0.774673	-0.217126	0.586923	0.090882	-8.88275	-2.35232	3.33195	-0.000467022	-0.093288	-0.0917246	0.959961	-0.0375977	0.158203	0.7358	0.190588	0.628158	-0.166409	-9.74691	0.987656	1.49087	-0.241767	-0.132616	0.032456	1.02026	0.19873	0.215088	0.193748	-0.693525	-0.232945	-0.653622	10.296	0.241916	-0.897908	0.231109	0.0348073	-0.0323172	-0.961914	0.19165	0.452637	0.16795	-0.555634	-0.265776	-0.769692	10.0262	1.89475	2.76208	0.0242075	0.10044	0.0448749	-1.09473	0.158691	0.263428	0.328468	-0.860712	-0.343539	-0.182385	4.4169	-2.65367	-7.50013	-0.0293856	-0.124464	0.113231	-0.192627	0.703369	0.742676	0.572587	-0.671971	-0.251585	-0.396615	7.482	-4.62693	-0.0558782	0.325503	0.0630517	-0.0100243	-0.583496	0.886475	0.147949	0.746837	-0.49954	-0.359067	-0.252516	7.65747	-5.51124	2.50276	0.0823172	-0.00378881	-0.00279711	-0.612061	0.830566	-0.351074	0.186522	-0.143154	-0.188297	-0.953552	4.24066	4.05099	9.47165	-0.170915	-0.0106159	0.117489	-0.708496	-0.147217	-0.776611	0.18641	-0.708165	-0.217411	-0.645357	9.14153	-1.42514	-1.52404	0.392415	0.0663009	0.00101866	-1.0166	0.209473	0.467773	
60	-0.914427	0.351724	0.0227885	0.198983	1.87089	-7.15965	7.6913	0.00667139	-0.0788271	-0.0288974	0.262695	0.796387	-0.672607	0.485367	-0.850114	-0.121604	-0.164128	3.29546	-7.97968	-4.99383	-0.0764454	0.11824	-0.0731953	0.127686	0.846436	0.556641	0.775339	-0.218372	0.585878	0.0889365	-8.88889	-2.89123	2.94467	0.123655	-0.0299676	-0.176374	0.961914	-0.0224609	0.160156	0.736458	0.192188	0.626187	-0.169066	-9.22495	1.12477	1.56537	0.176565	-0.0669503	-0.0287986	1.01562	0.19873	0.203857	0.195769	-0.692825	-0.232321	-0.653983	9.04087	0.390521	-0.353855	-0.00198689	0.056422	0.0173283	-0.961914	0.196045	0.450439	0.170013	-0.554595	-0.265229	-0.770177	9.00285	2.51524	2.65788	-0.05909	0.0620384	0.065506	-1.08862	0.165283	0.260986	0.322729	-0.86306	-0.341506	-0.18533	4.86604	-4.79387	-5.9093	-0.108485	0.175134	-0.0249531	-0.194092	0.692627	0.757812	0.568675	-0.675506	-0.248542	-0.398154	7.97199	-5.97532	-0.610614	-0.391215	-0.00442989	0.00563602	-0.583496	0.888672	0.159668	0.745458	-0.501779	-0.358269	-0.253285	8.05441	-5.93587	2.08748	-0.137996	0.0108067	-0.0137684	-0.619141	0.837158	-0.340088	0.186345	-0.14187	-0.188651	-0.953708	2.62988	3.31993	8.82624	0.349712	0.0366477	-0.0636359	-0.708252	-0.151611	-0.767578	0.18384	-0.708701	-0.215725	-0.646072	9.11945	0.0906483	-0.424835	-0.354404	-0.0222678	0.0165027	-1.0166	0.209473	0.467773	
61	-0.914111	0.351616	0.0247395	0.200387	2.52184	-6.64983	7.90644	0.0151126	-0.0538356	-0.0813797	0.256104	0.793945	-0.670654	0.486463	-0.849578	-0.121475	-0.163753	4.38635	-7.83099	-4.39619	-0.000454975	0.0133847	0.0134408	0.140869	0.846436	0.554199	0.775254	-0.219227	0.585708	0.0886963	-9.90109	-2.99387	2.87768	-0.136136	0.031141	-0.000326535	0.961914	-0.0224609	0.166992	0.737734	0.190621	0.625344	-0.168398	-10.0903	0.769351	1.65267	-0.0912459	-0.0577733	-0.0123777	1.01782	0.19873	0.208252	0.193758	-0.693511	-0.228855	-0.655077	10.2352	-0.398604	-1.06596	-0.142739	0.0521669	0.00979679	-0.953125	0.19165	0.455078	0.169728	-0.554178	-0.262376	-0.771517	9.79453	1.70143	2.70151	0.00704965	0.0845338	-0.0103082	-1.09961	0.171631	0.258789	0.326554	-0.861764	-0.341199	-0.185227	5.02102	-3.69999	-7.41593	0.203266	0.168508	0.0204163	-0.194336	0.697021	0.749268	0.570417	-0.674318	-0.250059	-0.396723	8.10457	-6.09423	-0.235827	0.447901	0.00870955	-0.023242	-0.581055	0.884277	0.159668	0.745911	-0.501325	-0.357869	-0.253415	7.92528	-5.05604	2.54703	0.0605767	0.0378605	-0.0196126	-0.618896	0.830322	-0.342285	0.18633	-0.142851	-0.184211	-0.954432	4.68197	2.58955	9.59957	-0.30599	0.0296166	0.059764	-0.704102	-0.14502	-0.78125	0.187228	-0.707795	-0.21884	-0.645044	10.9876	0.164413	-1.24764	0.308316	0.00270661	-0.02727	-1.0188	0.209473	0.465576	
62	-0.913823	0.351424	0.0225702	0.202286	2.05502	-6.57702	8.02603	-0.0220041	0.133354	-0.0204267	0.258057	0.800537	-0.668457	0.487969	-0.848622	-0.121699	-0.164062	3.67932	-7.21281	-4.6463	0.0721134	-0.0137382	-0.0402185	0.131836	0.85083	0.551758	0.775755	-0.218549	0.585435	0.0877914	-8.66921	-2.53638	3.05529	0.0953175	0.0209995	0.0690572	0.961914	-0.0246582	0.160156	0.737583	0.190305	0.625389	-0.169245	-9.48344	0.899632	2.00423	-0.0726359	0.05765	-0.00766089	1.02197	0.205322	0.199463	0.196049	-0.692387	-0.231592	-0.654623	10.0581	0.446615	-0.473068	0.190884	0.0148609	-0.0189635	-0.955566	0.196045	0.443604	0.170553	-0.552961	-0.265146	-0.771261	9.55211	2.30499	2.90207	0.0431168	0.00918123	-0.0598974	-1.09546	0.171631	0.252441	0.322304	-0.864195	-0.339214	-0.184992	5.03901	-3.78199	-6.20124	-0.292591	-0.0351687	0.0608221	-0.193848	0.686035	0.758057	0.572855	-0.672096	-0.251018	-0.396376	7.81334	-4.67784	-0.186682	-0.137396	0.0207916	-0.0174476	-0.585693	0.888672	0.159668	0.747966	-0.498269	-0.35859	-0.252364	8.02357	-5.97067	2.51962	0.267672	0.0217809	-0.0376244	-0.614258	0.830566	-0.34668	0.188065	-0.140786	-0.188276	-0.953605	3.04182	4.26083	9.04629	0.204566	0.0503115	0.0510754	-0.703613	-0.153809	-0.776611	0.185342	-0.708159	-0.21807	-0.645449	10.382	0.127388	-0.662776	-0.154787	-0.0112497	-0.0571504	-1.0188	0.209473	0.465576	
63	-0.913777	0.351419	0.021349	0.202635	1.50586	-6.59814	8.04078	-0.018079	0.0934492	0.00876883	0.258057	0.79834	-0.664062	0.488099	-0.848622	-0.121917	-0.163514	4.04991	-7.72504	-5.18677	0.0106724	-0.0317553	-0.0103298	0.131592	0.857422	0.549316	0.775319	-0.218831	0.585889	0.0879047	-9.74857	-2.75719	2.90327	-0.0275123	0.0624612	0.010081	0.955566	-0.0246582	0.160156	0.736362	0.191757	0.626178	-0.170004	-9.91014	0.393699	1.41406	0.212583	0.0404919	-0.018517	1.02002	0.203125	0.203857	0.196598	-0.692095	-0.231457	-0.654814	9.74717	0.654687	-0.822775	0.0240357	0.0449609	0.0132555	-0.957764	0.200439	0.448242	0.169749	-0.553065	-0.264352	-0.771637	9.66069	1.99918	2.86915	-0.0851439	0.0161762	-0.0337764	-1.09717	0.165039	0.256836	0.320164	-0.865221	-0.337767	-0.186554	5.23586	-4.27559	-7.56786	-0.107675	0.108515	0.0229554	-0.193604	0.679688	0.760254	0.569749	-0.674968	-0.249421	-0.396981	8.29988	-5.49774	-0.308016	-0.355571	-0.0319317	0.00183636	-0.577148	0.890869	0.157227	0.747966	-0.498269	-0.35859	-0.252364	8.02357	-5.97067	2.51962	0.267672	0.0217809	-0.0376244	-0.614258	0.830566	-0.34668	0.188409	-0.142411	-0.188524	-0.953247	3.47839	4.39526	9.11052	0.00475217	-0.11369	0.0563787	-0.706055	-0.151611	-0.774414	0.186804	-0.707657	-0.21901	-0.645261	9.03104	0.402833	-1.24933	0.167675	0.037121	0.053508	-1.0166	0.207275	0.469971	
64	-0.913436	0.352965	0.0200063	0.20162	2.03262	-6.75904	8.28431	-0.0950124	0.0186051	0.0618124	0.264648	0.800537	-0.664062	0.487769	-0.84893	-0.121768	-0.163009	4.16018	-7.50852	-4.53418	0.0497635	-0.102441	0.00342318	0.13208	0.848633	0.547119	0.775316	-0.217404	0.586527	0.0872189	-9.07118	-2.87311	2.95591	0.1077	0.0258564	0.0550791	0.959717	-0.0246582	0.155762	0.735565	0.193278	0.62637	-0.171022	-9.66134	1.04066	1.74603	0.147663	0.0613069	0.00298302	1.02026	0.19873	0.210449	0.196749	-0.6921	-0.230655	-0.655046	10.3798	0.34744	-1.24429	-0.0382808	0.0353379	0.0340333	-0.957764	0.200439	0.452637	0.169781	-0.551543	-0.263991	-0.772841	9.66057	1.77201	2.70386	0.0290627	0.101883	-0.0317901	-1.09937	0.163086	0.252686	0.319357	-0.865841	-0.335704	-0.188767	4.3761	-3.60043	-6.30256	-0.145028	0.184573	0.0745857	-0.193848	0.683838	0.758057	0.570193	-0.674498	-0.24923	-0.397261	7.4862	-6.33243	-0.31029	0.174771	0.0304225	-0.0215227	-0.579102	0.886475	0.159668	0.744761	-0.503368	-0.35598	-0.2554	7.67645	-6.95619	2.33551	-0.0741147	0.0474522	-0.0228039	-0.617188	0.841797	-0.344482	0.188008	-0.141697	-0.189413	-0.953256	3.63166	3.62567	8.80571	0.275047	0.0344761	-0.0518085	-0.705811	-0.158203	-0.776367	0.186429	-0.707877	-0.218345	-0.645352	11.6873	0.973417	-1.15649	-0.0555919	0.00399575	0.0170837	-1.01855	0.205078	0.467773	
65	-0.913413	0.353685	0.0200674	0.20045	1.70206	-7.2098	7.91161	0.0162662	-0.0566224	0.0419894	0.270996	0.802979	-0.668457	0.489348	-0.847964	-0.121271	-0.163674	3.7465	-7.34262	-4.73534	0.0656738	0.026878	-0.00914358	0.131836	0.85083	0.551758	0.775123	-0.217243	0.586768	0.0877119	-8.79268	-2.66113	2.78499	-0.0667405	0.00838914	0.00579086	0.955566	-0.0288086	0.1604	0.735288	0.19187	0.627304	-0.170371	-9.29973	0.444646	1.25882	0.00445972	0.0154299	-0.0458621	1.01538	0.205322	0.210449	0.196528	-0.691152	-0.22937	-0.656563	9.79279	-0.240773	-0.679536	0.0200652	0.0346243	0.0274884	-0.962158	0.198242	0.443604	0.16988	-0.551241	-0.262908	-0.773404	9.45594	2.11975	3.04279	-0.0680591	0.0267506	0.0107636	-1.09961	0.169434	0.246094	0.315047	-0.868356	-0.333289	-0.188736	5.54786	-3.78115	-7.29994	-0.209853	0.0124452	0.0630591	-0.188965	0.670898	0.764893	0.573029	-0.671784	-0.250079	-0.397246	7.8735	-4.79974	-0.146751	0.0870564	0.0498052	-0.0183915	-0.579102	0.884277	0.152588	0.748386	-0.497456	-0.358063	-0.25347	7.86693	-4.56077	2.73325	0.0686805	0.00620501	-0.0322926	-0.621338	0.832764	-0.351074	0.188667	-0.14282	-0.184423	-0.953937	4.00847	2.06938	9.28223	-0.28828	0.01767	0.0690038	-0.701904	-0.142822	-0.779053	0.188655	-0.706354	-0.220997	-0.645471	10.9389	0.782662	-0.673485	-0.00523903	0.00635566	-0.0453899	-1.01465	0.216309	0.465332	
66	-0.914237	0.352047	0.0222122	0.199349	2.38176	-6.56106	7.96104	0.100001	-0.0794755	0.00926814	0.266602	0.802979	-0.674805	0.490341	-0.847539	-0.120877	-0.163194	4.04426	-7.73814	-4.51284	0.0371939	0.0170533	0.0163106	0.131836	0.855225	0.542236	0.774749	-0.216868	0.587221	0.0888984	-9.58787	-2.5245	2.91474	0.0014571	0.0219129	0.0320115	0.959961	-0.0268555	0.1604	0.734937	0.190897	0.628384	-0.168998	-9.55383	0.75786	1.31509	-0.0691394	0.0469152	0.00563123	1.01978	0.205322	0.208252	0.198404	-0.69017	-0.229173	-0.6571	9.67121	0.559472	-0.763353	-0.0165506	0.0600143	0.0436752	-0.957764	0.200439	0.441162	0.168935	-0.55043	-0.261269	-0.774743	9.63782	1.54358	2.98542	0.0150973	0.102099	-0.0361924	-1.09717	0.162842	0.246094	0.312919	-0.869711	-0.329798	-0.19214	4.86104	-3.60063	-6.5434	-0.0328886	0.09225	0.0711473	-0.188721	0.668701	0.773438	0.570517	-0.67438	-0.248396	-0.397519	7.96256	-5.93432	-0.239748	-0.153247	-0.0063481	-0.00499976	-0.574707	0.884521	0.152588	0.745287	-0.502483	-0.355969	-0.255624	8.02606	-5.75665	2.0311	-0.107949	0.0297615	-0.00355211	-0.616943	0.837158	-0.344482	0.189417	-0.141356	-0.188965	-0.953117	3.67394	4.32676	9.00417	0.0864395	0.00983812	0.0485595	-0.703857	-0.149414	-0.774414	0.184827	-0.707356	-0.218666	-0.646276	8.76886	-0.445529	-1.07099	0.0562642	-0.00911653	-0.0486444	-1.021	0.209473	0.474609	
67	-0.914604	0.351207	0.0225247	0.199113	2.22763	-6.48527	7.88295	0.0212632	0.0131616	0.00177442	0.262451	0.798584	-0.674805	0.490675	-0.847401	-0.119683	-0.163782	3.92074	-7.56492	-4.58868	-0.0293514	0.0746217	0.00381748	0.13208	0.848633	0.547119	0.774769	-0.215491	0.58776	0.0885143	-9.08225	-3.06854	2.84751	0.14045	0.0424208	0.0635143	0.959961	-0.0268555	0.171631	0.733504	0.194727	0.628249	-0.171338	-9.53699	1.02053	1.58764	0.208764	0.049691	0.0255484	1.01978	0.20752	0.206055	0.199157	-0.689833	-0.227565	-0.657785	10.0283	-0.047016	-0.63697	0.00951333	0.0555869	0.0411271	-0.9646	0.207031	0.441162	0.170817	-0.548809	-0.262253	-0.775147	9.78742	2.25825	2.8458	0.0262585	0.0685329	0.0167182	-1.09766	0.171631	0.241699	0.311109	-0.870606	-0.328263	-0.193647	5.118	-3.60574	-7.03122	-0.194377	0.0915588	0.0474184	-0.197266	0.666504	0.773438	0.573269	-0.671866	-0.250263	-0.396645	8.15453	-5.75251	-0.267329	0.284849	0.00843732	-0.0236725	-0.579102	0.888672	0.150146	0.747609	-0.499006	-0.356867	-0.2544	7.99585	-5.74859	2.70693	0.216155	0.0158245	-0.0316208	-0.616699	0.830566	-0.353271	0.189417	-0.141356	-0.188965	-0.953117	3.67394	4.32676	9.00417	0.0864395	0.00983812	0.0485595	-0.703857	-0.149414	-0.774414	0.185228	-0.70704	-0.220015	-0.646048	10.4893	0.715165	-0.7026	0.0530993	-0.000975949	-0.031163	-1.01855	0.200684	0.465576	
68	-0.914281	0.351531	0.0207011	0.200219	2.09144	-6.55935	8.1373	-0.0457567	0.0886519	-0.0177752	0.264404	0.802734	-0.664062	0.490871	-0.847376	-0.119733	-0.163289	4.15385	-7.79253	-4.62185	0.0122009	-0.00629943	0.000848978	0.13623	0.85083	0.547119	0.774817	-0.214813	0.587753	0.0897788	-9.40635	-2.41977	2.99635	-0.205251	0.0275411	0.0291898	0.962158	-0.03125	0.165039	0.732935	0.193768	0.629938	-0.168639	-9.97414	0.488652	0.740032	-0.0219431	0.0652978	0.0152132	1.01782	0.19873	0.212646	0.200869	-0.689115	-0.22862	-0.657651	9.7156	0.290144	-0.385556	0.0517211	0.0205237	-0.0160288	-0.960449	0.209473	0.438965	0.171496	-0.548161	-0.260793	-0.775948	9.55953	1.86119	2.69565	0.0219375	0.0692092	0.0233607	-1.09766	0.171631	0.239502	0.306309	-0.87264	-0.32626	-0.19552	5.33668	-3.5424	-7.22988	-0.0313609	0.0480475	0.0130824	-0.186035	0.657959	0.790771	0.572741	-0.672359	-0.2494	-0.397116	7.79882	-5.18937	-0.190236	-0.135728	0.020909	-0.00826969	-0.576904	0.886719	0.150146	0.746238	-0.501214	-0.356005	-0.255292	7.92679	-5.438	2.47353	-0.199882	0.00925372	-0.0062584	-0.621338	0.830322	-0.34668	0.190272	-0.140788	-0.187408	-0.953338	3.73317	3.57075	9.17065	-0.0255975	0.0238191	0.0184723	-0.706299	-0.142822	-0.774414	0.184987	-0.707354	-0.219013	-0.646114	10.1229	-0.377707	-1.14218	0.0169778	0.0206542	0.0219657	-1.01196	0.20752	0.467773	
69	-0.914153	0.352259	0.0189393	0.199697	1.85021	-6.92395	8.15827	-0.0225538	0.0238134	0.0450736	0.270996	0.802979	-0.661865	0.490868	-0.847403	-0.119063	-0.163647	3.7268	-7.71244	-4.85182	-0.0211826	0.00856953	-0.00271088	0.134033	0.853027	0.542236	0.774732	-0.213208	0.588387	0.0901812	-9.47958	-2.42067	2.74862	0.17002	0.0268924	0.0814117	0.958008	-0.0354004	0.16748	0.731791	0.19504	0.630899	-0.168546	-9.92004	1.16313	1.11359	-0.139315	0.105071	0.0398274	1.01318	0.203125	0.212646	0.201336	-0.689254	-0.227011	-0.65792	10.1571	0.00346989	-0.900632	0.0296494	0.0571143	0.0357546	-0.966797	0.207275	0.434326	0.171663	-0.547887	-0.261223	-0.77596	9.78135	2.21525	2.68037	-0.044039	0.0123406	-0.0396896	-1.09741	0.169434	0.235352	0.302948	-0.874147	-0.324181	-0.197472	4.76136	-3.80167	-6.93648	-0.130624	-0.0128725	0.0223143	-0.192139	0.646973	0.792969	0.570423	-0.674353	-0.248363	-0.39772	8.15016	-6.40746	0.0110204	-0.100692	0.0405266	-0.0211172	-0.579102	0.888672	0.150146	0.746376	-0.501008	-0.355865	-0.255489	7.81188	-5.58051	2.74133	0.0512443	0.0297084	-0.0209476	-0.614502	0.834961	-0.344482	0.189172	-0.141496	-0.189042	-0.95313	3.94374	3.75872	8.94835	0.148324	-0.0169791	-0.0601735	-0.706055	-0.151611	-0.776611	0.185968	-0.706989	-0.217929	-0.646599	9.39947	0.0928542	-1.34409	-0.102456	0.058347	0.051839	-1.0166	0.209473	0.467773	
70	-0.914	0.352872	0.0184986	0.199358	1.72022	-6.82573	8.14426	-0.0522032	0.00618139	0.0367699	0.266846	0.798584	-0.664062	0.490414	-0.847689	-0.11842	-0.163993	3.88691	-7.74854	-4.6806	-0.0604804	0.05372	0.0083933	0.134033	0.855225	0.546875	0.774675	-0.212736	0.588765	0.0893148	-9.53095	-2.43743	2.68567	0.0705234	0.0507156	-0.0194503	0.957764	-0.03125	0.171875	0.730086	0.198457	0.630829	-0.172173	-9.8298	1.02251	1.08965	0.294837	0.00793627	-0.0490629	1.01782	0.203125	0.223633	0.202231	-0.689049	-0.227431	-0.657715	9.75047	0.474268	-0.563736	0.0783809	0.0159596	0.00904712	-0.964844	0.209473	0.429932	0.170818	-0.548154	-0.260116	-0.77633	9.56505	2.08536	2.63	-0.108537	0.00931793	-0.0195823	-1.09717	0.160889	0.241943	0.300954	-0.87495	-0.322614	-0.199525	4.95827	-4.50801	-7.26162	-0.0611914	0.0600341	-0.012323	-0.196289	0.642578	0.786865	0.571278	-0.67331	-0.248251	-0.39833	8.21674	-5.89574	-0.511668	0.0183304	0.0561542	-0.0239351	-0.576904	0.886475	0.155029	0.745831	-0.501725	-0.355785	-0.255784	7.8913	-5.71575	2.58776	-0.0679802	-0.00876113	-0.0236662	-0.619385	0.839355	-0.342285	0.189052	-0.141595	-0.190151	-0.952918	3.36308	3.24446	9.00297	0.0861239	-0.0155407	-0.0139906	-0.705811	-0.153809	-0.77417	0.185968	-0.706989	-0.217929	-0.646599	9.39947	0.0928542	-1.34409	-0.102456	0.058347	0.051839	-1.0166	0.209473	0.467773	
71	-0.913655	0.354083	0.0185205	0.198788	1.99222	-7.19338	8.02655	-0.0239631	-0.0283257	0.00434193	0.270996	0.802979	-0.66626	0.49127	-0.847337	-0.117829	-0.163679	3.83913	-7.94887	-4.46086	0.0501416	0.00451242	0.0210685	0.142822	0.853027	0.542236	0.774408	-0.211588	0.589675	0.08835	-9.35765	-2.53698	2.8236	0.0576032	0.0447747	0.0087234	0.955566	-0.0288086	0.167236	0.730394	0.196861	0.631237	-0.171204	-9.96547	1.21153	1.15805	-0.156208	0.00644845	-0.0253733	1.01562	0.200928	0.219238	0.199545	-0.689695	-0.223985	-0.659039	10.0255	0.0503067	-0.779219	-0.230601	0.0351127	-0.00756896	-0.967041	0.209473	0.432129	0.170268	-0.548201	-0.257782	-0.777195	9.75072	1.84108	2.94383	-0.0848927	0.0562876	0.0150244	-1.09766	0.171631	0.239502	0.302971	-0.874357	-0.322325	-0.199537	4.89076	-3.93901	-7.3567	0.16604	0.0791208	0.0220565	-0.192139	0.64917	0.792969	0.570749	-0.673563	-0.247801	-0.39894	8.04288	-6.10625	-0.000741581	-0.0620739	0.0507238	-0.0318772	-0.579102	0.886475	0.157227	0.746225	-0.501107	-0.354875	-0.257107	7.59123	-5.8213	2.58192	0.0157335	0.0662547	-0.0456896	-0.621582	0.837158	-0.348877	0.187709	-0.143701	-0.188238	-0.953248	4.83473	1.57006	9.29881	-0.0129091	-0.0132832	-0.0260911	-0.703613	-0.153809	-0.765137	0.186733	-0.705039	-0.217044	-0.648801	10.9517	-0.42793	-0.999349	-0.0338459	0.0788286	-0.0661625	-1.01855	0.205078	0.465576	
72	-0.913921	0.353661	0.0185749	0.198311	1.90697	-7.04318	7.81935	0.036712	-0.00415546	0.0317472	0.269043	0.798584	-0.670654	0.492396	-0.846915	-0.116411	-0.163492	3.54141	-7.65803	-4.62639	-0.0208348	0.0597613	0.0319893	0.134033	0.855225	0.542236	0.773748	-0.213763	0.589753	0.0883752	-8.91683	-2.82597	2.62552	0.00306355	0.0556232	-0.0209758	0.962158	-0.0378418	0.174316	0.730726	0.195543	0.630969	-0.17228	-9.57271	0.606574	1.02339	0.0758301	-0.0356614	-0.0691321	1.01538	0.203125	0.217041	0.200105	-0.689067	-0.224591	-0.65932	9.92646	-0.170889	-0.750684	0.108926	0.0332749	-0.0117721	-0.9646	0.205078	0.434326	0.169902	-0.547838	-0.257376	-0.777666	9.80665	1.89431	3.09191	-0.0207492	0.0200242	-0.0460307	-1.10205	0.173828	0.239502	0.302127	-0.875512	-0.319854	-0.199729	5.14173	-3.8619	-7.0943	-0.0931936	0.00270165	0.0707941	-0.189697	0.642578	0.795166	0.571938	-0.672156	-0.247717	-0.399662	7.69362	-4.93837	-0.220954	0.0859817	0.0428247	-0.0183144	-0.583496	0.888672	0.157227	0.744784	-0.502386	-0.355556	-0.257847	7.87406	-5.63826	2.07155	-0.0335499	-0.0480505	-0.0439457	-0.616943	0.834961	-0.344482	0.1876	-0.143823	-0.188761	-0.953147	3.10388	4.00559	9.0434	-0.00673461	-0.0254347	-0.000676877	-0.710449	-0.149414	-0.765137	0.186733	-0.705039	-0.217044	-0.648801	10.9517	-0.42793	-0.999349	-0.0338459	0.0788286	-0.0661625	-1.01855	0.205078	0.465576	
73	-0.913797	0.353558	0.017296	0.199182	2.42014	-6.3657	8.2985	-0.0556374	0.0859947	-0.0293647	0.264648	0.798584	-0.66626	0.491138	-0.847842	-0.114855	-0.163571	4.36724	-7.91999	-4.37471	-0.0976586	0.0932991	0.0340732	0.142822	0.848633	0.549561	0.774353	-0.21105	0.590307	0.0858727	-9.90837	-2.21718	3.03029	0.147371	0.0251645	-0.0459334	0.957764	-0.0290527	0.171875	0.729628	0.197887	0.630968	-0.17425	-10.0771	0.279815	0.312848	0.203338	0.04589	0.0218584	1.0127	0.213867	0.218994	0.200405	-0.68827	-0.223438	-0.660453	10.2732	0.526548	-0.57875	-0.0259375	0.0677502	0.0162592	-0.962402	0.202637	0.438965	0.16819	-0.547312	-0.255167	-0.779135	9.97316	1.85629	2.70366	-0.128743	0.0627493	-0.0137573	-1.09912	0.158691	0.235596	0.301329	-0.876208	-0.318357	-0.200273	5.13163	-3.30376	-6.78387	-0.0831613	-0.0132803	0.0498894	-0.187744	0.644775	0.793213	0.570542	-0.672961	-0.248144	-0.400038	8.10753	-5.52389	-0.129637	-0.0255267	-0.0471995	-0.0641349	-0.579346	0.890869	0.154785	0.743546	-0.503386	-0.356273	-0.25848	8.14834	-5.55126	2.3029	-0.0767419	-0.0292181	-0.0519935	-0.616943	0.839355	-0.333496	0.185856	-0.145018	-0.189033	-0.953254	3.73635	3.84547	9.23935	0.057885	-0.0104559	-0.0704852	-0.710205	-0.156006	-0.767334	0.182558	-0.703289	-0.213878	-0.652927	10.059	-0.43619	-1.07311	-0.192352	0.114661	-0.00501955	-1.02075	0.202881	0.451904	
74	-0.912349	0.35578	0.0147046	0.202048	1.74817	-6.99615	8.19086	-0.128159	0.118879	-0.102295	0.270752	0.807129	-0.651123	0.489448	-0.848714	-0.1136	-0.164983	3.64955	-7.75334	-4.64487	-0.0997474	0.0563395	-0.0325996	0.13208	0.846436	0.552002	0.775853	-0.207709	0.59	0.0825168	-9.1861	-1.87783	2.65252	0.164794	-0.0617358	0.0257534	0.957764	-0.03125	0.171875	0.729731	0.201184	0.629241	-0.176278	-9.76471	1.2743	1.05414	-0.108183	-0.0327118	0.0449319	1.01099	0.205322	0.214844	0.197357	-0.689308	-0.220151	-0.661392	10.0157	-0.185288	-0.426187	-0.158369	-0.0158053	0.00659826	-0.959961	0.200684	0.436768	0.167366	-0.548178	-0.252126	-0.779693	9.70462	2.1748	3.05072	-0.160293	-0.0120091	0.0338015	-1.104	0.167236	0.237549	0.297826	-0.877571	-0.317343	-0.201152	5.13168	-3.95986	-6.97329	-0.0911513	0.0240003	-0.0477802	-0.19165	0.640381	0.803955	0.567617	-0.674876	-0.247811	-0.401177	8.26826	-5.41959	-0.158917	-0.200879	0.0126428	-0.0583342	-0.578857	0.88208	0.157227	0.742362	-0.503976	-0.35752	-0.25901	8.05417	-5.12598	2.4676	-0.0946055	-0.0527818	-0.0584897	-0.621582	0.834717	-0.331055	0.182747	-0.147636	-0.18813	-0.953632	2.84448	3.41086	9.12993	0.0760436	-0.108652	-0.153644	-0.719238	-0.153809	-0.762939	0.182214	-0.703066	-0.212072	-0.653852	9.67982	0.592979	-0.166566	-0.334903	0.0185782	0.0363628	-1.02051	0.198486	0.45874	
75	-0.910892	0.357963	0.0135596	0.204829	1.75724	-7.16283	8.28558	-0.0956446	0.0266685	-0.0607261	0.270752	0.809326	-0.655518	0.489618	-0.848417	-0.1137	-0.165937	4.05458	-7.60257	-4.50919	0.00457888	0.0396019	-0.0315383	0.134033	0.853027	0.551758	0.776387	-0.212616	0.587556	0.0824392	-8.77361	-3.10005	3.01633	-0.108442	-0.0728432	-0.199976	0.961914	-0.0205078	0.171631	0.731584	0.200909	0.626892	-0.17728	-9.49951	0.581662	0.807124	0.136035	-0.179074	-0.00751795	1.01733	0.211914	0.205811	0.196018	-0.689641	-0.219943	-0.661512	9.75922	-0.186491	-0.510943	-0.0458119	-0.0118312	-0.0348512	-0.957764	0.200684	0.434326	0.165286	-0.549638	-0.249846	-0.779844	9.66287	1.68016	2.94681	-0.0368163	-0.0374591	-0.040623	-1.09961	0.167236	0.246094	0.298936	-0.877492	-0.316456	-0.201248	4.79902	-2.59189	-6.71388	-0.000450918	0.0342531	0.061236	-0.185303	0.638428	0.797607	0.567708	-0.674476	-0.248627	-0.401217	7.7757	-5.34581	-0.104362	0.0908784	-0.0116706	-0.028333	-0.587891	0.888672	0.157227	0.741128	-0.504889	-0.359062	-0.258632	7.82692	-5.77556	2.48362	0.0717799	-0.0840831	-0.0426346	-0.626221	0.834717	-0.32666	0.181942	-0.148979	-0.187799	-0.953642	4.04989	2.52356	9.34137	-0.202395	-0.0277017	0.0364389	-0.712646	-0.151611	-0.760742	0.180574	-0.703561	-0.20987	-0.654484	9.68086	-1.48821	-0.486667	-0.21956	0.0217311	0.0333966	-1.02051	0.196289	0.456543	
76	-0.910854	0.357509	0.0162879	0.205592	1.81967	-6.86632	7.81628	0.0754889	-0.124178	-0.086247	0.26001	0.804932	-0.655518	0.488806	-0.848469	-0.114057	-0.167807	3.68067	-7.59743	-4.7579	-0.0552637	0.0606101	-0.0774656	0.125732	0.844238	0.556641	0.778564	-0.211107	0.585701	0.0789087	-9.28428	-2.41968	2.63245	0.15336	-0.0793989	-0.115682	0.959717	-0.0158691	0.162354	0.734537	0.200009	0.623603	-0.17768	-9.35631	0.438603	1.11969	-0.061529	-0.154804	0.0188091	1.01562	0.200928	0.199463	0.194523	-0.690659	-0.217492	-0.661701	9.26366	0.640046	-0.50865	-0.202695	-0.00189268	0.0309564	-0.962402	0.202637	0.438965	0.164349	-0.551236	-0.248578	-0.779318	9.158	2.16582	3.1613	-0.133741	-0.0386371	0.0352604	-1.09937	0.162842	0.241943	0.298149	-0.877532	-0.317286	-0.200932	5.32731	-4.00539	-6.9427	0.124359	-0.01178	-0.0837281	-0.185303	0.640625	0.799561	0.567991	-0.674394	-0.247781	-0.401477	8.11403	-5.50547	-0.393451	-0.0727575	0.0739011	0.00615835	-0.585205	0.879883	0.162109	0.740594	-0.505113	-0.360964	-0.257073	8.01396	-5.56944	2.28182	0.00356768	-0.0783287	-0.00744956	-0.626221	0.834717	-0.331055	0.182063	-0.148746	-0.187755	-0.953665	3.33658	2.23156	9.32924	0.00243426	0.0334004	0.00887135	-0.7146	-0.156006	-0.762695	0.178631	-0.702826	-0.210873	-0.655484	9.80975	-0.131786	-0.329777	-0.0191295	0.0183417	-0.0629257	-1.0249	0.191895	0.458984	
77	-0.911142	0.356256	0.0193546	0.206222	2.69549	-6.30661	7.6948	0.0627609	-0.0516771	-0.0527975	0.257568	0.807129	-0.657715	0.489047	-0.848215	-0.113881	-0.168508	3.98927	-7.91651	-4.46662	-0.000938672	0.0301991	-0.0162324	0.134033	0.853027	0.547119	0.779788	-0.211925	0.584058	0.0767808	-8.8739	-2.7135	3.4236	0.0578283	-0.105004	-0.201436	0.959473	-0.00952148	0.159912	0.737142	0.202486	0.619131	-0.179716	-9.76805	1.05434	2.28612	0.0771532	-0.18945	0.077872	1.01538	0.20752	0.192871	0.194227	-0.69091	-0.217994	-0.661361	10.3389	-0.134842	-0.736987	0.107875	-0.00171974	-0.0575617	-0.962158	0.202637	0.441162	0.164856	-0.551291	-0.246566	-0.779812	9.9625	2.00265	3.05659	0.0484885	0.0594185	0.01587	-1.10181	0.169434	0.246094	0.30193	-0.875793	-0.319352	-0.199599	4.95784	-3.84182	-7.21447	0.188072	-0.0592887	-0.0487095	-0.181152	0.64502	0.788818	0.569686	-0.67301	-0.248741	-0.400802	8.14713	-5.93287	-0.330631	0.229837	-0.00498277	-0.0268934	-0.583252	0.88208	0.155029	0.740487	-0.504937	-0.361999	-0.256271	8.07013	-5.48652	2.0638	0.0571574	-0.0273957	-0.0179233	-0.626221	0.839355	-0.331299	0.184079	-0.148781	-0.187766	-0.95327	4.77334	3.01037	9.51126	-0.224275	-0.0250646	0.0620965	-0.717285	-0.14502	-0.767578	0.178631	-0.702826	-0.210873	-0.655484	9.80975	-0.131786	-0.329777	-0.0191295	0.0183417	-0.0629257	-1.0249	0.191895	0.458984	
78	-0.911178	0.35584	0.0185377	0.206854	2.60918	-6.36775	7.7944	0.0193726	0.0790214	-0.0219738	0.259766	0.807129	-0.662109	0.48847	-0.848474	-0.113087	-0.169411	3.9385	-7.41127	-4.43305	-0.0432986	0.0639777	-0.0224563	0.127686	0.846436	0.554443	0.781463	-0.211958	0.58188	0.0761978	-9.58828	-3.01261	2.68834	0.0395455	-0.11453	-0.0337232	0.95752	-0.0114746	0.155273	0.738953	0.20234	0.617244	-0.178933	-9.61579	0.854102	1.84243	0.0425071	-0.0751586	0.0250614	1.02441	0.201172	0.184082	0.193576	-0.690594	-0.218852	-0.661598	9.54891	-0.200096	-0.214571	-0.0296797	-0.0147429	-0.0442703	-0.959961	0.198486	0.436768	0.16548	-0.550414	-0.250296	-0.77911	9.41291	2.29018	2.82875	0.128136	-0.0249099	-0.101883	-1.09497	0.162842	0.244141	0.303134	-0.875458	-0.319408	-0.199153	4.79984	-3.60636	-6.07149	0.015044	-0.0286738	-0.0311934	-0.189697	0.644775	0.793213	0.571913	-0.671162	-0.250031	-0.399928	7.62175	-4.71522	-0.386109	-0.0319682	-0.0164006	-0.00803367	-0.587646	0.882324	0.150391	0.741256	-0.503548	-0.362932	-0.255459	7.96401	-5.60645	2.1954	0.0990822	-0.014961	-0.0260193	-0.628418	0.834717	-0.333496	0.186414	-0.146886	-0.190362	-0.952595	3.13499	4.69877	8.63554	0.154953	0.0517154	0.0603252	-0.714844	-0.151611	-0.762939	0.179034	-0.701967	-0.216338	-0.654513	10.2412	-0.0707893	-0.798361	0.114606	-0.0244123	-0.0968969	-1.0293	0.189697	0.454346	
79	-0.911365	0.35489	0.0149777	0.207949	1.82621	-6.80196	8.03756	0.00994207	0.149847	0.0156681	0.266357	0.807129	-0.662109	0.488565	-0.848246	-0.112876	-0.170415	3.68933	-7.72522	-4.48933	-0.00320615	0.0931347	-0.0441594	0.125488	0.846436	0.559082	0.783087	-0.210743	0.58022	0.0755509	-8.88245	-2.34927	3.5008	0.0387731	-0.0676277	0.0565803	0.957275	-0.00927734	0.153076	0.739199	0.202686	0.616929	-0.178611	-9.31432	1.21137	2.38848	0.00289456	-0.0158576	0.0454069	1.01807	0.198975	0.184082	0.193824	-0.69045	-0.219659	-0.661409	10.0787	0.19689	-0.506185	0.0621064	-0.00376431	-0.0457074	-0.962158	0.200439	0.441162	0.163898	-0.551336	-0.250233	-0.778813	9.61609	2.48389	2.83873	-0.0709145	-0.0887204	-0.0893439	-1.09277	0.160889	0.246338	0.303352	-0.87511	-0.321156	-0.197531	5.06632	-4.34928	-7.10585	0.11105	-0.135469	-0.105776	-0.190186	0.653564	0.788574	0.569672	-0.673297	-0.249492	-0.399874	8.2198	-5.20229	-0.265438	-0.229395	-0.0758506	-0.0130812	-0.585449	0.884277	0.157227	0.740664	-0.504449	-0.362785	-0.255607	8.10188	-5.20935	2.39831	-0.0785019	-0.0158907	-0.00745332	-0.623535	0.830078	-0.328857	0.186403	-0.147658	-0.189765	-0.952597	3.84081	4.11535	9.11129	-0.0554922	-0.0366892	0.021232	-0.712646	-0.151611	-0.760742	0.180028	-0.701138	-0.218216	-0.654505	9.24499	1.54222	-1.05035	0.154478	0.0322006	0.000297779	-1.02466	0.189697	0.44751	
80	-0.911	0.354468	0.012592	0.210411	1.71827	-6.59391	8.22271	-0.024113	0.110817	-0.0706883	0.270996	0.802734	-0.657715	0.488744	-0.848205	-0.113075	-0.169974	3.90564	-7.48653	-4.60681	0.0170151	0.00176689	-0.0115947	0.125732	0.844238	0.549805	0.782717	-0.212024	0.580069	0.0769475	-9.0487	-3.54587	2.84103	-0.0527723	0.028212	-0.00975999	0.96167	-0.00952148	0.153076	0.737954	0.204136	0.618349	-0.177192	-9.57055	1.66933	1.86687	-0.0357164	0.0650068	0.009272	1.01782	0.19873	0.195068	0.188589	-0.691327	-0.218977	-0.662231	9.94304	-0.108276	-0.444467	0.0255937	-0.0544969	-0.0831179	-0.966309	0.196045	0.438965	0.159827	-0.552807	-0.249636	-0.778808	9.56336	1.74647	2.68371	-0.11359	-0.07648	-0.106886	-1.09644	0.145752	0.255371	0.306831	-0.874136	-0.322634	-0.194033	4.87247	-3.71975	-6.63423	-0.00427862	-0.0977783	-0.0103197	-0.183838	0.655762	0.780029	0.569642	-0.67355	-0.250037	-0.39915	8.03661	-5.10377	-0.324102	0.0446268	0.0485948	0.00324109	-0.583496	0.886475	0.152588	0.739266	-0.505972	-0.363627	-0.255449	8.06388	-5.26728	2.48028	0.0323953	-0.0575403	-0.0186076	-0.630859	0.834473	-0.322266	0.185554	-0.146565	-0.19072	-0.95274	4.29845	3.06196	9.02782	0.0390712	0.0354813	-0.0458255	-0.712402	-0.156006	-0.765137	0.179242	-0.701214	-0.218169	-0.654655	9.567	-0.924895	-0.99949	0.116569	0.00342564	-0.0477895	-1.03149	0.191895	0.454346	
81	-0.910625	0.355079	0.0127518	0.210992	1.40891	-6.55354	8.00131	-0.0224486	-0.0461624	-0.0143736	0.26001	0.804932	-0.65332	0.487255	-0.84914	-0.11366	-0.16919	3.78463	-7.72371	-4.76161	-0.146133	0.029596	-0.0478323	0.13208	0.846436	0.552002	0.783123	-0.210327	0.580091	0.0773054	-8.99098	-2.19482	3.18722	-0.0296455	0.0280888	0.0375073	0.959473	-0.0117188	0.153076	0.738105	0.20226	0.619301	-0.175379	-9.4661	1.06406	0.972811	-0.219364	0.0563995	0.00161884	1.02246	0.196777	0.197266	0.18913	-0.691081	-0.220917	-0.661689	9.81242	0.42533	-0.815103	0.145279	-0.0298037	-0.0899821	-0.966064	0.187256	0.445801	0.15833	-0.554304	-0.252064	-0.777266	9.55718	2.24529	2.98183	-0.0672496	-0.109539	-0.0712117	-1.09448	0.1521	0.261475	0.308571	-0.873231	-0.324068	-0.192955	5.07116	-4.5391	-7.45947	0.210567	-0.0418266	-0.0866214	-0.181885	0.657959	0.777832	0.569022	-0.673981	-0.24913	-0.399873	8.20781	-5.57555	-0.238216	-0.0927453	0.0697762	-0.0114546	-0.587646	0.884277	0.159668	0.738595	-0.506727	-0.363961	-0.255415	8.11719	-5.25041	2.17726	-0.0566767	-0.0513133	-0.0214308	-0.630859	0.834717	-0.32666	0.185663	-0.14725	-0.188868	-0.952982	3.27357	3.47588	9.17419	-0.152635	-0.00726751	0.0399151	-0.712646	-0.151611	-0.760742	0.181629	-0.700265	-0.221314	-0.653957	8.53676	0.387604	-0.809504	0.329169	0.0139452	-0.062419	-1.0249	0.191895	0.456543	
82	-0.910633	0.35687	0.0142533	0.207819	2.15307	-6.85038	7.85185	-0.0587385	-0.123286	0.139246	0.268311	0.811523	-0.659912	0.489007	-0.84849	-0.114144	-0.167056	4.01685	-7.71829	-4.46406	0.0925543	0.0271658	0.0306782	0.134277	0.846436	0.549561	0.782232	-0.212959	0.580353	0.0771519	-8.9665	-3.06734	3.40754	0.0211247	0.00055453	-0.0557003	0.96167	-0.0117188	0.155273	0.738113	0.201317	0.618922	-0.177753	-9.54955	1.43395	1.95799	-0.0674718	-0.0519339	-0.0963409	1.02002	0.201172	0.190674	0.187181	-0.691943	-0.22138	-0.661187	10.1959	0.279164	-0.508299	-0.0753653	-0.0629065	-0.0429941	-0.96167	0.185059	0.443604	0.156698	-0.555623	-0.251856	-0.776722	9.92636	1.80913	2.95367	0.0255603	-0.0465543	-0.0379033	-1.09448	0.147949	0.259521	0.315045	-0.870622	-0.32625	-0.190591	5.02116	-3.84097	-6.76572	0.314341	-0.00048279	-0.0394857	-0.187012	0.675293	0.770996	0.568824	-0.674188	-0.249176	-0.399776	7.82683	-6.27136	-0.764166	0.0117244	0.0311329	0.00359749	-0.57666	0.882324	0.155029	0.738718	-0.505802	-0.365532	-0.25465	8.00879	-5.78838	2.08509	0.134341	-0.0419801	-0.0432563	-0.630615	0.832275	-0.324463	0.187227	-0.146469	-0.19109	-0.952354	3.44225	3.77293	9.21758	0.13261	0.085244	0.0460551	-0.710205	-0.153809	-0.765137	0.179617	-0.699258	-0.224466	-0.654516	9.57691	-0.207807	-0.5937	0.282488	0.0281045	-0.138949	-1.03149	0.189453	0.44751	
83	-0.910943	0.358071	0.0136502	0.204406	2.37829	-6.77968	7.85395	-0.0591286	0.00368962	0.128011	0.270508	0.811523	-0.65332	0.48773	-0.849412	-0.113366	-0.166638	3.9032	-7.78031	-4.52905	-0.119181	0.067268	0.00358705	0.13208	0.848633	0.558838	0.780632	-0.214483	0.581935	0.0772166	-9.83103	-2.87139	2.74991	-0.0354797	0.114939	-0.0517431	0.959717	-0.0158691	0.159912	0.737965	0.198944	0.619458	-0.179166	-9.78911	0.815522	1.14372	0.120037	0.00154559	-0.122389	1.01978	0.209961	0.186035	0.184648	-0.692767	-0.219059	-0.661809	9.94191	-0.415207	-0.843568	-0.112523	-0.00918567	-0.00989025	-0.961426	0.182861	0.450439	0.155086	-0.556879	-0.250521	-0.776578	9.82491	1.80541	2.89674	-0.111594	-0.0322816	-0.0219021	-1.09009	0.149902	0.263672	0.319062	-0.868723	-0.327951	-0.189653	4.81894	-3.71909	-6.95936	0.175313	0.0215331	-0.0667096	-0.185059	0.679688	0.764648	0.572812	-0.670543	-0.2518	-0.398567	7.84653	-4.49406	-0.1093	0.201352	0.0111669	-0.0543964	-0.58374	0.893311	0.138428	0.737704	-0.506929	-0.365897	-0.254823	8.03338	-5.79821	1.9	-0.0522347	-0.0214781	-0.0298554	-0.628418	0.832275	-0.322266	0.189925	-0.14755	-0.189847	-0.951901	4.41796	2.99815	8.64933	-0.0400359	0.0413226	0.105361	-0.712646	-0.151611	-0.765137	0.178135	-0.698228	-0.226862	-0.655194	10.2521	0.986232	-1.00523	-0.00349061	0.0258	-0.115183	-1.0332	0.178467	0.445557	
84	-0.910253	0.359306	0.010135	0.205515	2.0081	-7.23465	8.1593	-0.0715076	0.161118	-0.0485275	0.272949	0.809326	-0.646973	0.486749	-0.850091	-0.114001	-0.165606	3.85897	-7.80708	-4.52202	0.0125734	-0.0966346	-0.0228677	0.141113	0.842285	0.554443	0.779885	-0.213691	0.583519	0.0749666	-9.22069	-2.29292	2.98511	-0.0398698	0.112209	-0.00279428	0.963867	-0.0117188	0.159912	0.736877	0.197305	0.620789	-0.180842	-9.75345	0.678722	1.07592	-0.0779169	0.0422022	-0.107781	1.01709	0.218506	0.19043	0.185456	-0.692237	-0.222116	-0.661119	9.82115	0.173065	-0.520424	0.103805	-0.00382824	-0.0999846	-0.96582	0.180664	0.443604	0.154978	-0.557156	-0.250701	-0.776343	9.65249	1.8677	2.83315	0.0161141	-0.0195335	-0.0225921	-1.08789	0.145752	0.274658	0.321189	-0.867688	-0.330412	-0.186503	5.13398	-3.92518	-6.95272	0.258882	-0.145402	-0.0386329	-0.185547	0.694824	0.76001	0.570285	-0.67268	-0.252182	-0.398348	7.9907	-5.71236	-0.331468	-0.0460949	-0.080546	-0.0241279	-0.581299	0.884521	0.150391	0.739495	-0.503718	-0.367485	-0.253713	7.88081	-5.02916	2.4927	0.085542	-0.00770326	-0.0380213	-0.637451	0.830078	-0.328857	0.189428	-0.147332	-0.192657	-0.951469	3.97373	4.91235	9.3247	0.026499	-0.0344954	-2.83527e-05	-0.714844	-0.153809	-0.758301	0.177875	-0.697857	-0.227174	-0.655552	9.81362	0.187772	-1.13381	0.0246107	0.0346511	-0.0211914	-1.03125	0.185059	0.454346	
85	-0.909611	0.359467	0.00907429	0.208108	1.28922	-6.9493	7.9623	-0.00310609	0.0179837	-0.0820152	0.274658	0.818115	-0.651367	0.485335	-0.850957	-0.114388	-0.165038	3.68532	-7.38001	-4.95332	-0.102771	-0.00807762	-0.0410543	0.141113	0.840088	0.559326	0.778733	-0.216396	0.584088	0.074758	-8.68196	-2.57071	2.64087	-0.0118565	0.0644467	-0.0665821	0.953125	-0.00708008	0.162109	0.736715	0.195735	0.621023	-0.182402	-9.34932	0.637952	1.03163	-0.0366617	-0.0140178	-0.075115	1.01929	0.216553	0.192627	0.183263	-0.693613	-0.221443	-0.660514	9.82131	-0.0307068	-0.621246	-0.106513	-0.0459568	0.0142275	-0.957031	0.180664	0.452637	0.154114	-0.558663	-0.252662	-0.774795	9.48873	2.11946	2.96588	0.000420682	-0.100216	-0.0524811	-1.09644	0.145752	0.272461	0.320625	-0.867662	-0.330861	-0.186797	4.34935	-4.30529	-5.90355	-0.186618	-0.0840859	-0.0632779	-0.1875	0.686035	0.755859	0.567392	-0.675227	-0.251023	-0.398901	7.96056	-5.502	-0.22732	-0.276292	-0.0106021	-0.0271397	-0.583252	0.88208	0.159668	0.735733	-0.509148	-0.365786	-0.256254	8.10417	-6.0963	2.01251	-0.203521	-0.00307798	-0.0167409	-0.633057	0.834473	-0.31543	0.188024	-0.148449	-0.191871	-0.951733	3.54743	2.27391	8.96285	0.109417	-0.0266142	-0.110661	-0.718994	-0.158203	-0.760498	0.178815	-0.696891	-0.227074	-0.656358	9.78478	0.842484	-0.487149	-0.176601	0.0642693	0.0225299	-1.03809	0.182861	0.443115	
86	-0.909341	0.35971	0.00992416	0.208829	1.62894	-6.54068	7.96679	-0.00958502	-0.0510171	-0.0803154	0.268311	0.811523	-0.644775	0.482795	-0.852563	-0.115049	-0.163737	4.01602	-7.69248	-4.80528	-0.15161	-0.0767077	-0.0158415	0.143311	0.837891	0.566406	0.778487	-0.216797	0.584296	0.0745348	-9.24071	-2.56784	2.57809	-0.0173548	0.0443471	-0.0236908	0.953125	-0.00732422	0.171143	0.736953	0.194921	0.620463	-0.184203	-9.94632	0.349826	0.715947	0.0687252	-0.0618751	-0.0623169	1.02148	0.220947	0.188232	0.184121	-0.693999	-0.222243	-0.659601	10.0759	0.936374	-0.87526	-0.0129655	-0.0235279	-0.0117799	-0.963379	0.178467	0.452637	0.152668	-0.560014	-0.251211	-0.774577	9.80487	1.82643	2.59864	-0.0413617	-0.00418062	0.0104469	-1.09229	0.147949	0.272461	0.319558	-0.867847	-0.333499	-0.183039	5.40318	-3.85993	-7.81358	-0.0328357	-0.0742644	-0.0596909	-0.180664	0.681885	0.766602	0.567373	-0.675038	-0.252191	-0.398512	8.17717	-5.72273	-0.192334	0.154823	0.0024499	-0.0457425	-0.583252	0.88208	0.159668	0.737219	-0.506282	-0.367416	-0.255329	8.16996	-5.19344	2.33673	0.0896855	-0.0139324	-0.0529922	-0.628418	0.832275	-0.320068	0.188531	-0.149503	-0.194858	-0.95086	4.07969	3.7697	9.2292	-0.0329915	-0.0691602	0.0545972	-0.716797	-0.1604	-0.760498	0.17675	-0.697241	-0.224924	-0.657285	9.17003	-0.334943	-0.620595	-0.246018	0.0328659	0.000162101	-1.0332	0.178467	0.447754	
87	-0.909341	0.35971	0.00992416	0.208829	1.62894	-6.54068	7.96679	-0.00958502	-0.0510171	-0.0803154	0.268311	0.811523	-0.644775	0.481741	-0.853153	-0.115217	-0.163645	3.96243	-7.87773	-4.79838	-0.0976747	-0.0179714	-0.0355742	0.134521	0.840088	0.566406	0.778791	-0.219025	0.583467	0.071267	-9.10337	-2.97198	2.80173	0.0203662	-0.014663	-0.170024	0.955078	0.00146484	0.168701	0.739881	0.190858	0.618266	-0.184111	-9.83339	0.41308	1.42547	-0.27307	-0.166573	-0.0641905	1.01904	0.225342	0.187988	0.18307	-0.694508	-0.221996	-0.65944	9.85833	0.368914	-0.589948	-0.0756902	-0.0436358	-0.044722	-0.958984	0.17627	0.455078	0.154069	-0.559883	-0.251523	-0.774293	9.64031	2.07718	2.68432	0.097657	0.0321487	0.0571974	-1.08569	0.145752	0.270264	0.321044	-0.86655	-0.334944	-0.183943	4.58952	-4.00857	-6.38795	0.133658	0.0195066	-0.0940004	-0.180908	0.684082	0.755859	0.567528	-0.675194	-0.252109	-0.398077	7.76455	-5.58722	-0.245515	-0.00988024	0.0154527	0.0187664	-0.585449	0.886475	0.159668	0.736238	-0.507505	-0.36709	-0.256196	7.9108	-5.76454	2.42616	-0.137717	0.00527162	-0.0412469	-0.635498	0.834473	-0.322266	0.188337	-0.149941	-0.192366	-0.951337	4.24987	1.71306	9.29519	-0.205148	0.0196385	0.0175769	-0.721436	-0.151855	-0.758301	0.179738	-0.695806	-0.228537	-0.656749	10.6794	0.590352	-0.10765	0.308317	0.012159	-0.04095	-1.03125	0.185059	0.440918	
