40	Head	00b4120a												Throax	00b411e8												LUpArm	00b411d9												LFoArm	00b41148												RUpArm	00b411db												RFoArm	00b41204												Waist	00b411f7												Lthigh	00b411f4												Lshank	00b4111b												Rthigh	00b411c8												Rshank	00b411ee												
PacketCount	q0	q1	q2	q3	accX	accY	accZ	gyrX	gyrY	gyrZ	magX	magY	magZ	q0	q1	q2	q3	accX	accY	accZ	gyrX	gyrY	gyrZ	magX	magY	magZ	q0	q1	q2	q3	accX	accY	accZ	gyrX	gyrY	gyrZ	magX	magY	magZ	q0	q1	q2	q3	accX	accY	accZ	gyrX	gyrY	gyrZ	magX	magY	magZ	q0	q1	q2	q3	accX	accY	accZ	gyrX	gyrY	gyrZ	magX	magY	magZ	q0	q1	q2	q3	accX	accY	accZ	gyrX	gyrY	gyrZ	magX	magY	magZ	q0	q1	q2	q3	accX	accY	accZ	gyrX	gyrY	gyrZ	magX	magY	magZ	q0	q1	q2	q3	accX	accY	accZ	gyrX	gyrY	gyrZ	magX	magY	magZ	q0	q1	q2	q3	accX	accY	accZ	gyrX	gyrY	gyrZ	magX	magY	magZ	q0	q1	q2	q3	accX	accY	accZ	gyrX	gyrY	gyrZ	magX	magY	magZ	q0	q1	q2	q3	accX	accY	accZ	gyrX	gyrY	gyrZ	magX	magY	magZ	
0	-0.896709	0.389586	-0.0236674	0.208748	1.15966	-7.80026	7.47372	-0.100415	0.037622	0.0772875	0.325195	0.859375	-0.580322	0.491184	-0.855493	-0.0859267	-0.139595	3.29171	-7.56283	-4.40717	0.010566	0.050646	-0.00133623	0.218994	0.84668	0.551758	0.776674	-0.205912	0.587007	0.0989997	-9.39896	-1.4891	2.37837	-0.0235824	-0.0696318	0.0401005	0.960938	-0.083252	0.198242	0.712745	0.202152	0.650589	-0.166922	-9.84648	1.29408	0.719157	-0.439372	-0.025455	0.0425229	1.00635	0.204834	0.265625	0.08189	-0.741869	-0.0791642	-0.660801	10.0025	0.238928	-0.785031	0.0134657	-0.0476929	0.0370831	-0.918213	0.0898438	0.571533	-0.407923	-0.461527	0.513397	-0.597508	10.5107	-0.551998	2.68994	-4.57941	-0.301597	-0.440119	-1.05103	-0.463379	-0.0141602	0.299736	-0.889567	-0.305345	-0.159977	4.1215	-3.77821	-7.00081	-0.105728	-0.108494	0.043005	-0.106934	0.668945	0.79248	0.552994	-0.685821	-0.249281	-0.402126	7.93452	-5.20893	-0.328936	0.123411	-0.00240526	-0.00817695	-0.59375	0.877441	0.199463	0.725083	-0.520097	-0.358936	-0.273714	7.84155	-5.50859	2.1635	0.191269	0.0151606	-0.0149104	-0.642578	0.84082	-0.288818	0.203347	-0.149525	-0.196362	-0.947488	4.37244	2.76138	9.08951	0.0165003	-0.00496499	0.029657	-0.719727	-0.140869	-0.760986	0.180883	-0.678182	-0.235034	-0.672392	9.72253	1.58794	-0.660391	-0.180602	0.0533031	0.0249315	-1.05273	0.160645	0.395508	
1	-0.896511	0.390115	-0.023844	0.20859	1.03464	-7.91906	7.25424	-0.0472044	-0.00558746	0.0136278	0.322998	0.859375	-0.578125	0.490323	-0.855992	-0.0853387	-0.139922	2.6576	-8.23119	-5.21169	-0.0242296	-0.0390165	-0.00722386	0.218994	0.84668	0.551758	0.77603	-0.209404	0.586218	0.101365	-9.14253	-1.75491	2.43414	-0.345512	-0.0218894	-0.0235788	0.963135	-0.0834961	0.202881	0.713278	0.200312	0.650453	-0.167393	-9.53969	1.19565	0.685481	0.0513996	-0.027718	-0.0590274	1.0061	0.211426	0.269775	0.0731125	-0.745505	-0.0682593	-0.658952	9.46649	-0.70342	-2.28739	-0.535962	-0.162179	0.0960684	-0.919922	0.0766602	0.573975	-0.422917	-0.459016	0.521519	-0.581777	9.60094	-0.125007	4.88892	-0.453141	-0.10324	-0.352199	-1.0437	-0.484863	-0.0263672	0.298068	-0.890253	-0.305065	-0.159814	4.33229	-4.90146	-7.14933	0.0346279	-0.0152571	-0.0213791	-0.100342	0.669189	0.801025	0.551384	-0.687191	-0.248834	-0.402275	7.81048	-5.08732	-0.330655	-0.114365	-0.0825481	0.00242057	-0.587158	0.875244	0.206543	0.725098	-0.520121	-0.359104	-0.273408	7.91	-5.77361	2.22052	0.00634719	-0.0132864	-0.00593245	-0.644775	0.836426	-0.286621	0.202153	-0.148653	-0.1998	-0.947162	3.05305	3.78078	9.21141	0.149482	-2.64659e-05	-0.0835442	-0.710205	-0.153809	-0.762939	0.17659	-0.679696	-0.231223	-0.673325	10.4666	0.937233	0.19703	-0.47338	-0.0493758	-0.0129904	-1.05933	0.15625	0.400146	
2	-0.896151	0.390462	-0.0232915	0.209548	1.69353	-7.37111	7.58183	-0.000434219	-0.00647469	-0.0567251	0.321045	0.857178	-0.578125	0.49023	-0.856183	-0.084996	-0.13929	3.45582	-7.98176	-4.45417	-0.0182038	-0.0236514	0.0269205	0.221436	0.844482	0.551758	0.775496	-0.210442	0.58667	0.100689	-9.2792	-2.46829	2.77183	-0.0199661	0.0401883	-0.0385486	0.960938	-0.0769043	0.200439	0.713661	0.198946	0.650572	-0.166923	-9.89722	0.68642	0.816625	-0.111554	-0.0179284	-0.0397991	1.00415	0.206787	0.27417	0.0739116	-0.746053	-0.0696489	-0.658096	9.95347	-0.938546	-1.6398	0.123564	-0.0757799	-0.045126	-0.917725	0.0744629	0.576172	-0.423666	-0.45909	0.522508	-0.580284	10.0659	-0.0939621	5.74141	-0.130966	-0.0594719	-0.0637183	-1.0415	-0.487061	-0.0307617	0.300501	-0.889554	-0.305058	-0.159164	4.53112	-3.58651	-7.56271	0.222502	0.0315115	0.0123255	-0.100342	0.669189	0.794678	0.551358	-0.687547	-0.248179	-0.402108	8.21132	-5.58513	-0.680368	-0.0302419	0.0239448	0.0332425	-0.587158	0.877441	0.211182	0.724099	-0.521689	-0.358653	-0.273659	8.13504	-4.78107	2.14475	-0.143014	-0.0212755	0.00956521	-0.645264	0.847656	-0.284668	0.202655	-0.148622	-0.196697	-0.947709	4.37735	3.16489	9.25035	-0.237264	0.0790988	0.0680735	-0.719727	-0.140869	-0.763184	0.176577	-0.68031	-0.234041	-0.671732	10.1247	-1.2476	-0.149856	0.449194	-0.0459914	-0.0850486	-1.04834	0.158447	0.395752	
3	-0.896132	0.390172	-0.0234112	0.210154	1.51752	-7.42126	7.41264	0.02101	0.0294798	0.00318497	0.316406	0.861572	-0.578125	0.490212	-0.856239	-0.0844	-0.139368	2.94696	-8.19469	-4.98202	0.0231935	0.0371267	-0.0187036	0.217041	0.84668	0.549316	0.775296	-0.21079	0.58716	0.0986254	-9.18129	-2.51031	2.51738	0.0386392	0.0496419	-0.061265	0.963135	-0.074707	0.200439	0.713717	0.199271	0.649732	-0.16955	-9.66156	0.826864	1.36661	0.0871657	-0.0454322	-0.0668568	1.0061	0.211426	0.271973	0.0759692	-0.747082	-0.0758532	-0.656006	10.2596	0.0808626	-0.457647	0.214829	-0.0330603	-0.153314	-0.917969	0.0810547	0.580811	-0.427223	-0.457884	0.522929	-0.578247	9.70478	0.226935	5.54622	-0.272602	0.114665	-0.179681	-1.03931	-0.489258	-0.0305176	0.302161	-0.88882	-0.305502	-0.159266	4.11228	-4.70644	-6.89653	0.129944	-0.0415695	-0.0664133	-0.102539	0.669189	0.79248	0.553895	-0.685589	-0.249719	-0.40101	8.49679	-5.63166	-0.909618	0.199338	-0.0305978	-0.0199623	-0.591553	0.877441	0.197266	0.724396	-0.521267	-0.3591	-0.273091	8.34347	-6.33211	1.83644	0.271764	-0.00141896	-0.0350606	-0.642578	0.84082	-0.284424	0.205068	-0.147681	-0.196356	-0.947408	3.46834	2.13773	9.24197	0.131371	0.0402467	0.0736144	-0.710693	-0.14502	-0.767578	0.175111	-0.680056	-0.237089	-0.671304	9.90261	1.81026	0.060555	-0.223564	-0.0601993	-0.144827	-1.05713	0.154053	0.406982	
4	-0.896449	0.389569	-0.0249849	0.209742	1.69687	-7.13689	7.58143	-0.0047581	0.0555002	0.0567261	0.329834	0.859619	-0.578125	0.490279	-0.856376	-0.0837461	-0.138682	3.47185	-8.20256	-4.49997	-0.0536568	0.0326967	0.0302766	0.223389	0.851074	0.553955	0.774425	-0.212548	0.587312	0.100769	-10.0077	-2.55832	2.47387	-0.141215	0.0470623	0.0108266	0.95874	-0.0769043	0.200439	0.714129	0.196149	0.650825	-0.167248	-10.1397	-0.0734632	0.543345	-0.069064	0.0311022	-0.0114205	1.00391	0.211426	0.265381	0.0726027	-0.74694	-0.0717744	-0.657007	10.453	0.362524	-0.524885	-0.419866	0.0800062	0.0466279	-0.919922	0.0766602	0.576172	-0.441616	-0.449791	0.534417	-0.563082	9.94768	0.76341	5.86784	-1.25715	-0.0184954	-0.0432232	-1.03467	-0.500244	-0.0603027	0.308044	-0.886604	-0.307238	-0.156992	4.56057	-3.81653	-7.39907	0.333624	0.0708124	-0.0156353	-0.0991211	0.686523	0.785889	0.554852	-0.68471	-0.25034	-0.400802	7.74085	-4.85157	-0.256598	0.075119	0.00840077	-0.0213437	-0.589355	0.875244	0.190186	0.725271	-0.519898	-0.359729	-0.272552	8.01751	-4.79852	2.22375	-0.150511	0.00182118	-0.00218979	-0.637939	0.841064	-0.286621	0.208035	-0.146518	-0.197803	-0.94664	4.54837	5.10188	8.97691	-0.132577	0.0637415	0.144568	-0.713135	-0.140625	-0.763184	0.176093	-0.678942	-0.241512	-0.670598	9.87959	0.234592	-0.775192	0.520849	0.0427777	-0.0893353	-1.05249	0.149658	0.402588	
5	-0.896395	0.389819	-0.028205	0.209098	0.870858	-8.00313	7.48457	-0.0233456	0.0932852	0.0639557	0.329834	0.857178	-0.571533	0.491126	-0.855874	-0.0831892	-0.139119	2.84321	-7.14024	-4.73355	0.0423416	0.00608114	-0.0256536	0.223389	0.848877	0.546875	0.775282	-0.208578	0.587984	0.0985282	-8.73753	-1.96827	2.28573	0.219469	0.00765111	0.0648597	0.960938	-0.074707	0.202637	0.712666	0.199169	0.65087	-0.169728	-9.30416	0.741397	1.05165	0.0333301	0.0693631	0.00691964	1.0127	0.213623	0.27417	0.0725574	-0.743853	-0.0692533	-0.660774	9.80813	0.856576	-0.706958	0.047544	0.179531	-0.0154123	-0.919922	0.0788574	0.571533	-0.452217	-0.442664	0.5456	-0.549426	9.38942	0.717462	5.44559	-0.464948	-0.0287147	-0.149986	-1.03882	-0.504639	-0.0773926	0.308807	-0.886987	-0.305536	-0.156655	3.92395	-3.86035	-6.72181	-0.0304605	-0.00496841	0.0420106	-0.103516	0.688477	0.785645	0.552028	-0.686987	-0.249654	-0.401231	7.74431	-5.43353	-0.429019	-0.260448	-0.0352646	-0.0327741	-0.587158	0.875244	0.204102	0.724387	-0.521166	-0.359333	-0.272999	7.9125	-6.06192	2.23477	0.0371745	-0.00213101	-0.0238731	-0.642578	0.838623	-0.282227	0.209142	-0.145533	-0.196421	-0.946836	3.27798	3.49283	8.67992	0.178545	0.0354505	-0.00419714	-0.711182	-0.13623	-0.767822	0.174613	-0.678071	-0.240167	-0.672346	9.0903	2.31953	-0.576821	-0.388657	0.0591262	-0.00782076	-1.06128	0.147217	0.407227	
6	-0.896688	0.389248	-0.027783	0.208959	0.738414	-7.76443	7.43142	0.0572059	-0.0305467	0.00443061	0.322998	0.859375	-0.571777	0.490119	-0.856429	-0.0825521	-0.139635	2.89656	-7.82134	-4.95721	-0.10665	0.0572224	-0.00527013	0.219238	0.84668	0.556396	0.774496	-0.208905	0.588645	0.100054	-9.87448	-2.47444	2.64491	-0.0744902	0.0432477	0.0184626	0.958984	-0.083252	0.202881	0.711337	0.201214	0.651657	-0.169868	-10.1738	0.334801	0.33481	0.199139	0.0583163	0.045637	1.00366	0.215576	0.27417	0.0686432	-0.742802	-0.0639375	-0.662907	9.76994	-0.324436	-2.25779	-0.103168	0.0858514	-0.0770528	-0.924072	0.0744629	0.569336	-0.453344	-0.440848	0.54763	-0.547935	9.4941	1.01735	5.62365	-0.257161	0.00319644	0.0325248	-1.03247	-0.502441	-0.0817871	0.31506	-0.884101	-0.308346	-0.155005	4.17597	-5.28091	-7.44472	0.521196	0.0842469	-0.085673	-0.104004	0.70166	0.768311	0.549654	-0.688742	-0.247984	-0.402515	8.48386	-6.99322	-0.947024	0.0401277	0.0769862	-0.0342778	-0.584961	0.877441	0.204102	0.72355	-0.521923	-0.359911	-0.273014	8.38283	-5.57293	1.80694	-0.111223	-0.0324249	-0.027667	-0.640137	0.838623	-0.286621	0.205297	-0.146475	-0.197073	-0.947397	4.50046	4.05616	9.07456	-0.149743	-0.0494149	-0.158454	-0.715332	-0.142822	-0.767578	0.171868	-0.680032	-0.233272	-0.673499	10.4258	-0.118083	-0.766206	-0.186903	-0.0138993	0.146016	-1.05249	0.151855	0.400391	
7	-0.896581	0.389597	-0.0275693	0.208798	1.32662	-7.56882	7.49319	-0.0119122	0.00799471	0.0154815	0.329834	0.857422	-0.575928	0.490423	-0.856672	-0.0824428	-0.137115	3.57879	-6.83019	-4.82886	-0.086649	-0.0995216	0.0137071	0.227783	0.844482	0.551758	0.775149	-0.207103	0.588321	0.100656	-9.04431	-1.91371	2.16729	-0.0126499	-0.0223985	0.0788703	0.961182	-0.0854492	0.200684	0.711078	0.201479	0.652379	-0.16786	-9.77945	0.425016	0.349671	-0.100594	0.0762167	0.0426567	1.00635	0.209229	0.27417	0.0706479	-0.742285	-0.0684192	-0.662827	9.93504	0.441604	-0.762208	0.249809	0.0332588	-0.12921	-0.923828	0.0678711	0.569336	-0.447661	-0.44387	0.541615	-0.556087	9.70227	1.24037	4.81665	0.311339	0.0413839	0.0620119	-1.03882	-0.502441	-0.0688477	0.314997	-0.885155	-0.305731	-0.154292	4.46969	-3.33342	-6.15678	-0.109505	0.182958	0.0472129	-0.101807	0.699463	0.772705	0.555533	-0.6841	-0.251665	-0.400069	7.3429	-3.18074	-0.602335	0.193242	0.00514686	0.00436307	-0.587158	0.873047	0.194824	0.724403	-0.520453	-0.361178	-0.271881	8.12294	-4.83117	1.77121	0.0836249	-0.0173358	-0.0228857	-0.642334	0.836426	-0.284424	0.20511	-0.146748	-0.194733	-0.947879	3.28291	2.93127	9.04882	-0.0247035	0.0524139	0.0196796	-0.711182	-0.13623	-0.767822	0.17458	-0.678918	-0.23588	-0.673018	9.28464	0.494614	-0.0637079	0.235702	0.0525258	-0.0150263	-1.06177	0.15625	0.400146	
8	-0.896769	0.389504	-0.0271234	0.208221	1.05593	-7.65504	7.30953	0.0188826	-0.0534619	0.0320691	0.332031	0.857422	-0.575928	0.488065	-0.857896	-0.0818905	-0.138204	2.74568	-8.01716	-4.75163	-0.0498047	-0.08232	-0.012975	0.230225	0.840332	0.554199	0.77524	-0.207208	0.58817	0.100616	-9.31702	-2.43584	2.5443	-0.00492677	-0.00388567	-0.00910842	0.95874	-0.0810547	0.196045	0.710443	0.203478	0.652321	-0.168357	-9.57695	0.829714	0.617486	0.0378389	0.0263686	0.0551338	1.00635	0.208984	0.276367	0.0667313	-0.743806	-0.0626534	-0.662099	9.69514	-1.09778	-1.67096	-0.269073	-0.0419065	0.112565	-0.923828	0.0656738	0.569336	-0.438561	-0.453496	0.529637	-0.567	9.8565	1.21369	5.36896	0.681511	-0.000413943	0.0147133	-1.03467	-0.500244	-0.045166	0.318355	-0.883113	-0.30679	-0.156975	4.33208	-5.18221	-7.76715	0.31203	0.0613844	-0.120095	-0.106201	0.70166	0.761963	0.54466	-0.693152	-0.245893	-0.403017	8.66265	-6.75207	-1.13718	-0.696102	-0.0277036	0.0071837	-0.589111	0.872803	0.225342	0.721769	-0.524241	-0.359733	-0.27352	8.35316	-5.73411	2.00411	-0.222626	-0.00331249	-0.00979182	-0.64502	0.843018	-0.277832	0.205166	-0.147731	-0.197471	-0.947147	3.99215	3.06398	9.21723	0.0561343	-0.0410359	-0.00176307	-0.713135	-0.140625	-0.763184	0.175038	-0.678727	-0.235988	-0.673053	9.25882	1.34585	0.0244644	0.0358738	0.0259224	0.0097331	-1.05469	0.149658	0.400391	
9	-0.896663	0.390238	-0.024849	0.207588	1.98853	-7.14239	7.29858	-0.0504684	0.0232962	0.0155938	0.320801	0.861572	-0.580322	0.488065	-0.858161	-0.0808887	-0.13715	3.17821	-8.18834	-4.76467	0.0317226	-0.0406847	0.0338951	0.22998	0.844727	0.558838	0.776	-0.205879	0.587762	0.0998691	-10.0912	-2.56033	2.34332	0.0940403	-0.0188709	-0.0804023	0.963135	-0.0812988	0.205078	0.710711	0.204927	0.651363	-0.169179	-10.1831	1.03299	0.54587	0.159225	-0.0570591	-0.00231148	1.0061	0.213379	0.276367	0.0692537	-0.74356	-0.0642359	-0.661964	9.95205	-0.779657	-1.22293	0.10336	0.0430097	0.0110037	-0.924072	0.0700684	0.571533	-0.433231	-0.45674	0.527292	-0.570668	10.0925	0.93504	5.63008	0.280503	-0.0790997	0.0982769	-1.04102	-0.498047	-0.0368652	0.323472	-0.881525	-0.30747	-0.154086	4.50315	-3.55135	-6.55608	0.157675	-0.0321353	0.0354251	-0.102295	0.708252	0.761719	0.551254	-0.687735	-0.249754	-0.400953	7.48786	-5.23128	-0.36594	0.655179	0.00618195	-0.0344901	-0.591309	0.875244	0.204346	0.722444	-0.523397	-0.359316	-0.273903	7.80398	-5.37013	1.7679	0.151391	0.0412639	-0.0204181	-0.642822	0.843262	-0.282227	0.206389	-0.14754	-0.197883	-0.946825	3.65626	3.20525	9.2374	-0.00209524	0.0262467	0.0783493	-0.717773	-0.13623	-0.765625	0.175691	-0.678528	-0.237208	-0.672655	10.0579	0.233142	-0.325552	0.0576746	-0.00433603	-0.0166945	-1.05493	0.154053	0.400391	
10	-0.896623	0.390345	-0.0269118	0.207302	1.66357	-7.55155	7.38644	-0.0434722	0.133084	0.0861297	0.32959	0.859375	-0.57373	0.488961	-0.857694	-0.0812118	-0.136685	3.10875	-7.48225	-4.544	0.0820153	-0.025901	-0.0195431	0.234375	0.844482	0.551758	0.776642	-0.205395	0.587174	0.0993319	-8.74559	-1.72493	2.69197	0.0585502	-0.0542669	-0.0233193	0.963135	-0.0812988	0.200439	0.71134	0.203712	0.651235	-0.168495	-9.42975	1.09745	1.32381	-0.114911	-0.039461	-0.0123138	1.00171	0.208984	0.27417	0.0692537	-0.74356	-0.0642359	-0.661964	9.95205	-0.779657	-1.22293	0.10336	0.0430097	0.0110037	-0.924072	0.0700684	0.571533	-0.433819	-0.456976	0.526591	-0.57068	9.88411	1.1666	5.53932	0.0215483	0.0395488	-0.0742403	-1.03662	-0.502441	-0.0410156	0.324328	-0.881214	-0.306476	-0.156034	4.49621	-4.16278	-6.06566	0.0258609	0.197106	0.00420375	-0.113037	0.710205	0.759766	0.553095	-0.686213	-0.250834	-0.400351	7.35876	-3.74945	-0.449658	0.219413	0.0206834	-0.019928	-0.586914	0.873047	0.197266	0.723189	-0.5225	-0.359358	-0.273594	8.02104	-5.36197	2.01895	0.0982868	0.0309196	-0.0120871	-0.64502	0.84082	-0.284424	0.207328	-0.147086	-0.197421	-0.946787	4.01447	3.52175	9.02685	-0.0134931	0.0700023	0.0731927	-0.713135	-0.142822	-0.765381	0.174661	-0.67837	-0.240448	-0.671932	10.2729	-0.0213218	-0.0809902	0.103027	-0.0202718	-0.0974425	-1.05688	0.151855	0.402588	
11	-0.896956	0.389512	-0.0295594	0.207067	1.05892	-7.36254	7.59899	0.0172582	0.0464443	0.0289747	0.333984	0.859619	-0.569336	0.487767	-0.858349	-0.0811046	-0.136902	3.01933	-8.20093	-4.76541	-0.0867091	0.0323096	-0.013336	0.236572	0.844482	0.551758	0.775601	-0.208464	0.58688	0.10275	-9.62938	-2.78746	2.70154	-0.109464	0.00147872	-0.0137385	0.963135	-0.0812988	0.198242	0.711644	0.201752	0.651753	-0.16756	-9.63364	0.400058	0.403241	0.0717645	-0.00125704	-0.0219319	0.999268	0.213379	0.27417	0.0672607	-0.743525	-0.0624076	-0.662384	9.76751	-0.940952	-1.29947	0.0480514	0.0605953	-0.00909193	-0.921631	0.0678711	0.567139	-0.431726	-0.458064	0.526453	-0.571522	9.79777	0.165854	5.46207	0.305159	-0.0730408	0.0916832	-1.03247	-0.498047	-0.026123	0.327882	-0.879305	-0.30792	-0.156528	4.39545	-4.62762	-7.1245	0.115915	-0.025698	-0.0721388	-0.113281	0.7146	0.753174	0.550962	-0.688283	-0.250029	-0.40024	8.30091	-4.00257	-0.187403	-0.228125	-0.0636769	0.00636401	-0.584961	0.877441	0.206543	0.721986	-0.524524	-0.358664	-0.27381	8.47395	-5.2518	1.98086	-0.214682	-0.0208016	0.0036648	-0.642822	0.843018	-0.275635	0.207732	-0.146635	-0.197306	-0.946792	4.14603	2.69216	9.0402	0.0578122	0.0387904	-0.000168218	-0.713379	-0.13623	-0.765625	0.170705	-0.680212	-0.237515	-0.672129	10.3313	0.800898	-0.126619	-0.430578	-0.0681251	-0.0146552	-1.05688	0.147461	0.402588	
12	-0.896943	0.389609	-0.0299694	0.206882	1.47452	-7.35531	7.66572	-0.00383518	0.0126001	0.0161127	0.333984	0.861816	-0.57373	0.488587	-0.858178	-0.0812751	-0.134933	3.37027	-7.68112	-4.70703	0.00624506	-0.0523356	0.00810616	0.234619	0.842529	0.556641	0.776192	-0.205247	0.587414	0.101704	-9.6771	-1.60013	2.45284	0.0409415	0.0238071	0.112867	0.958984	-0.0854492	0.200684	0.711496	0.202163	0.652068	-0.166466	-9.95671	0.732579	0.790277	-0.0965276	0.0605776	0.0411771	1.01074	0.206787	0.283203	0.0692336	-0.742536	-0.0656	-0.662981	10.2282	0.649297	-1.21154	0.11822	0.0607027	-0.0433739	-0.935059	0.0744629	0.569336	-0.432663	-0.457503	0.52595	-0.571726	9.53338	1.60379	4.44749	-0.263304	0.0236582	-0.0594799	-1.04102	-0.498047	-0.034668	0.328681	-0.879313	-0.307701	-0.155236	4.4664	-4.35636	-7.12972	0.0641975	0.015131	0.0176014	-0.108887	0.7146	0.755371	0.549473	-0.689662	-0.249002	-0.400555	8.16578	-4.9858	-0.731683	0.32696	-0.030267	-0.0125614	-0.584961	0.877441	0.20874	0.722374	-0.523973	-0.359247	-0.273074	8.04127	-5.59872	1.87859	0.237544	-0.0172614	-0.0237363	-0.642578	0.838623	-0.280029	0.208897	-0.146724	-0.197571	-0.946467	4.17944	3.34643	9.29677	-0.173982	0.0259123	0.0720753	-0.713379	-0.13623	-0.767822	0.173958	-0.679363	-0.241793	-0.670626	10.213	0.848673	-0.386971	0.272715	-0.0173269	-0.0643715	-1.05908	0.147461	0.409424	
13	-0.896504	0.390732	-0.0304557	0.206593	1.15053	-7.69002	7.32524	-0.0585516	-0.0171011	0.00687813	0.34082	0.859619	-0.569336	0.487006	-0.859015	-0.0807663	-0.135625	2.58195	-8.25877	-4.95604	-0.0543228	0.0210806	-0.0295852	0.234375	0.844727	0.558838	0.775522	-0.206732	0.587619	0.102624	-8.99713	-2.56332	2.6585	0.0114485	0.0470983	0.00501662	0.961182	-0.0898438	0.200684	0.710075	0.203481	0.652957	-0.167439	-9.69211	1.2025	0.82073	0.042905	0.0607309	-0.00327681	1.00195	0.20459	0.2854	0.0604105	-0.74304	-0.0552998	-0.664216	9.48495	-1.60624	-1.85113	-0.632598	-0.027758	0.113261	-0.921631	0.0634766	0.573975	-0.431833	-0.458679	0.525913	-0.571445	9.84514	0.608636	5.14513	0.03172	-0.0485668	-0.0176695	-1.03027	-0.498047	-0.0302734	0.328433	-0.879336	-0.3076	-0.155827	4.33593	-4.29468	-6.48943	-0.0158663	0.04666	-0.0292657	-0.115723	0.718994	0.746582	0.550662	-0.688445	-0.249405	-0.400763	7.70766	-5.07729	-0.437719	-0.00399404	-0.0340399	-0.0303236	-0.584717	0.87085	0.204346	0.722629	-0.52354	-0.35984	-0.272451	7.93681	-5.73986	2.00729	0.00896998	-0.0202919	-0.00799681	-0.642578	0.84082	-0.275635	0.209917	-0.146418	-0.199498	-0.945884	3.5635	3.34516	8.97133	0.13283	-0.00892991	0.0136683	-0.710693	-0.142822	-0.765381	0.17163	-0.679782	-0.240742	-0.67118	9.15302	1.11732	-0.484404	-0.200426	-0.0110118	-0.0342041	-1.04565	0.149658	0.407227	
14	-0.895952	0.391235	-0.031034	0.207947	1.28872	-7.47584	7.4704	-0.00981008	0.037467	-0.0495865	0.331787	0.861572	-0.56958	0.486853	-0.859328	-0.081119	-0.133978	3.22798	-7.77069	-4.63518	-0.049139	-0.0551971	0.00503181	0.230225	0.842529	0.556641	0.774556	-0.207078	0.588309	0.105237	-9.80526	-1.74431	2.39562	-0.196313	0.0317274	0.0820211	0.965576	-0.0964355	0.19873	0.709393	0.20085	0.655059	-0.165284	-10.0433	0.7163	0.0722671	-0.0850201	0.0970118	-0.0416745	1.00391	0.208984	0.280762	0.062593	-0.742029	-0.0597902	-0.664756	9.90767	0.65158	-1.03638	0.0964652	0.0697112	-0.059238	-0.927979	0.0612793	0.560303	-0.433304	-0.457878	0.527435	-0.569568	9.98468	0.880321	5.41065	-0.173389	-0.0059548	-0.0666951	-1.03906	-0.49585	-0.0324707	0.329743	-0.878698	-0.308344	-0.155186	4.15818	-4.32297	-7.24409	0.156166	-0.0679697	-0.0133846	-0.104736	0.7146	0.753174	0.54721	-0.691441	-0.247708	-0.401386	7.85119	-6.20835	-0.658245	-0.187701	0.003457	-0.00792556	-0.589111	0.873047	0.218262	0.721718	-0.524665	-0.359597	-0.27302	8.0804	-5.47268	2.0262	-0.110779	0.00821282	-0.0227115	-0.642822	0.845459	-0.273438	0.210177	-0.146591	-0.199206	-0.945861	3.83849	3.8034	9.24102	-0.0558979	0.00152721	0.0592793	-0.715332	-0.140625	-0.767822	0.173821	-0.678731	-0.242944	-0.670887	9.37714	0.226572	-1.02507	0.309812	0.0624761	-0.0147134	-1.05444	0.147461	0.405029	
15	-0.89577	0.391701	-0.0327211	0.207597	1.18375	-7.56843	7.45519	-0.0453237	0.051235	0.0665531	0.343018	0.859619	-0.569336	0.487551	-0.859061	-0.0808118	-0.133336	2.75312	-7.8496	-4.78514	0.0743694	-0.0124531	-0.000358725	0.236572	0.84668	0.553955	0.774225	-0.206377	0.589243	0.103811	-9.05328	-2.30948	2.38318	0.196964	0.0542237	-0.00590865	0.961426	-0.0964355	0.209961	0.708425	0.202077	0.655202	-0.16736	-9.48946	0.695376	0.641735	0.0957353	0.00995316	-0.017715	1.00146	0.213379	0.287354	0.0567369	-0.742604	-0.0547722	-0.665071	9.9946	-0.153892	-1.15935	-0.251621	-0.00128184	-0.0527464	-0.925537	0.0546875	0.571533	-0.434249	-0.457412	0.526884	-0.569732	9.81932	0.772877	5.19351	-0.0169067	0.0874425	-0.0526601	-1.03442	-0.502197	-0.0344238	0.327917	-0.879727	-0.307553	-0.154796	4.30922	-4.66645	-6.28965	0.0455084	0.0829419	0.0255122	-0.11377	0.723389	0.748779	0.549014	-0.690057	-0.249322	-0.400304	7.91463	-5.2356	-0.628117	0.121273	-0.00385464	-0.0295812	-0.584961	0.877441	0.213623	0.720866	-0.525658	-0.359524	-0.273455	8.14473	-6.00459	1.86315	0.051018	-0.0073381	-0.0342345	-0.645264	0.849854	-0.27124	0.209872	-0.14705	-0.200483	-0.945588	3.87795	2.96319	9.00603	0.186987	0.000541624	-0.0649174	-0.717529	-0.140625	-0.763184	0.1699	-0.679186	-0.241816	-0.671838	10.3077	0.674829	-0.107565	-0.419242	-0.0265748	-0.0843855	-1.0498	0.140869	0.407227	
16	-0.895994	0.39124	-0.0331001	0.207439	1.35686	-7.08119	7.49882	0.0157355	-0.0072642	0.00204579	0.34082	0.859619	-0.569336	0.485958	-0.860182	-0.0807704	-0.131939	3.25936	-8.08757	-5.01338	-0.125835	-0.0347657	0.00608658	0.241211	0.840332	0.563721	0.774061	-0.207102	0.589056	0.104648	-9.66464	-1.92002	2.64844	-0.166469	0.0160117	-0.0334305	0.956787	-0.0898438	0.205322	0.708372	0.201584	0.655435	-0.167266	-9.97842	0.387779	-0.221248	0.0842084	-0.0168206	-0.0100178	1.0061	0.213379	0.285156	0.0596156	-0.742118	-0.0591646	-0.664986	9.76254	-0.119635	-1.01621	0.351374	0.0236447	-0.118616	-0.932373	0.059082	0.571533	-0.434148	-0.457121	0.526127	-0.570742	9.66151	1.19429	5.35376	0.0805043	0.036601	0.00679191	-1.04126	-0.49585	-0.034668	0.32661	-0.880171	-0.309445	-0.151227	5.12791	-4.51827	-7.30885	0.0421608	-0.171012	-0.0451067	-0.106689	0.712402	0.755371	0.547855	-0.691006	-0.249065	-0.400415	8.44456	-5.32584	-0.655067	-0.0275427	0.0328292	-0.0181738	-0.584961	0.877441	0.211182	0.720586	-0.525856	-0.360101	-0.273055	8.31439	-4.9128	2.05133	-0.154003	-0.0292572	-0.00627023	-0.64502	0.84082	-0.273193	0.21058	-0.147807	-0.199668	-0.945485	3.96712	3.35024	9.22387	-0.201614	-0.0315179	0.0650196	-0.717773	-0.138428	-0.765381	0.17069	-0.678496	-0.244256	-0.671451	9.93277	1.20964	-0.145191	0.267632	0.0158358	-0.0527128	-1.06299	0.13623	0.402832	
17	-0.895902	0.391807	-0.0335176	0.206697	1.44967	-7.43212	7.50854	-0.00872675	-0.019074	0.0226289	0.344971	0.859619	-0.560791	0.48554	-0.86064	-0.0816157	-0.129954	3.24582	-7.51003	-5.03279	0.00789386	-0.21273	-0.00107062	0.247559	0.842529	0.558838	0.774599	-0.207541	0.588189	0.104679	-9.40501	-2.02547	2.35289	-0.0288048	-0.0395422	0.0353141	0.959229	-0.0964355	0.19873	0.709449	0.201145	0.654758	-0.165877	-10.0032	0.734754	0.45323	-0.152141	-0.00468228	0.042197	0.999512	0.208984	0.285156	0.0541814	-0.742342	-0.0557097	-0.6655	9.64093	-0.15942	-1.17242	-0.458378	0.00982782	0.00364649	-0.92749	0.0480957	0.571533	-0.438855	-0.454722	0.527248	-0.568017	9.58367	0.335585	5.20146	-0.359618	0.111256	-0.124427	-1.03247	-0.498047	-0.0388184	0.328965	-0.879074	-0.308915	-0.153565	3.74557	-4.26298	-7.1721	0.111446	0.00978296	-0.0307344	-0.104736	0.718994	0.746582	0.547891	-0.69079	-0.250119	-0.40008	7.7144	-5.59496	-0.763704	0.0789571	-0.0513596	-0.0316803	-0.584961	0.877441	0.21582	0.721313	-0.524354	-0.361474	-0.272208	7.94633	-5.71513	1.94956	0.255101	-0.0289325	-0.0394852	-0.640381	0.843018	-0.275635	0.210996	-0.146383	-0.201354	-0.945256	3.50304	3.94933	9.11009	0.19323	0.0676016	0.012259	-0.710938	-0.138428	-0.77002	0.167769	-0.678624	-0.243308	-0.672402	9.52106	0.0285982	-0.186434	-0.141139	0.0140822	-0.0912943	-1.04932	0.13208	0.402832	
18	-0.895902	0.391807	-0.0335176	0.206697	1.44967	-7.43212	7.50854	-0.00872675	-0.019074	0.0226289	0.344971	0.859619	-0.560791	0.484787	-0.861009	-0.0804341	-0.131053	3.41515	-7.64315	-4.78481	-0.0897274	0.120019	0.0101614	0.243408	0.840332	0.563721	0.775032	-0.208299	0.587386	0.104471	-9.94049	-2.29667	2.5374	-0.0357258	-0.0519726	-0.0647533	0.958984	-0.092041	0.200684	0.709859	0.201483	0.654142	-0.166142	-9.95835	0.465414	0.124657	0.033701	-0.0507145	0.0191819	0.999512	0.208984	0.282959	0.0530178	-0.742454	-0.0553471	-0.665498	9.73879	-0.842748	-1.29378	-0.0881056	0.000523017	-0.0535555	-0.931641	0.0437012	0.567139	-0.443377	-0.451679	0.530725	-0.563679	9.6915	0.374212	4.69959	-0.612982	0.0552399	-0.118705	-1.03442	-0.504395	-0.0559082	0.326725	-0.880143	-0.309596	-0.150831	4.72448	-4.25907	-6.00977	-0.100574	-0.0127999	-0.00315704	-0.100586	0.718994	0.750977	0.548663	-0.690152	-0.250624	-0.399809	7.98593	-4.75505	-0.698701	0.0962554	0.0151383	-0.0207314	-0.580566	0.875244	0.213623	0.720978	-0.524811	-0.361524	-0.272147	8.18124	-4.53249	1.88637	-0.0313379	-0.0201478	-0.011582	-0.642822	0.843018	-0.273438	0.212255	-0.146128	-0.200699	-0.945153	3.83259	4.20708	9.01006	-0.026858	0.0618933	0.103226	-0.710938	-0.138428	-0.77002	0.170526	-0.67706	-0.246212	-0.672228	9.28213	0.407219	-0.326762	0.333757	0.0959632	-0.0421158	-1.05859	0.138428	0.398193	
19	-0.89571	0.392959	-0.0339548	0.205267	0.968381	-8.02847	7.28782	0.00249251	-0.0289818	0.0103272	0.343018	0.859619	-0.567139	0.483489	-0.861721	-0.0801281	-0.131357	2.69781	-7.96027	-5.10703	-0.0678152	0.0188078	-0.0230482	0.243408	0.838135	0.561523	0.775935	-0.207015	0.587009	0.102424	-9.12047	-1.97267	2.4333	0.0758309	-0.00640635	0.0185778	0.963379	-0.0898438	0.193848	0.710659	0.202558	0.652786	-0.166747	-9.65855	1.1238	0.85734	-0.0909506	-0.0252949	0.0226939	1.00195	0.206787	0.2854	0.0582965	-0.741039	-0.0626977	-0.665982	9.85786	0.716095	-0.650229	0.304941	0.0857528	-0.116368	-0.927734	0.0524902	0.567139	-0.448937	-0.448101	0.53531	-0.557767	9.56555	1.0847	5.18417	-0.246405	0.0199147	-0.0736733	-1.02979	-0.510986	-0.0600586	0.326666	-0.880047	-0.308603	-0.153527	4.25932	-4.89403	-7.42353	-0.0645048	0.225188	-0.0208164	-0.104492	0.712402	0.749023	0.543495	-0.694485	-0.24881	-0.400497	8.10634	-5.63411	-0.671263	-0.397902	-0.0684351	-0.0092929	-0.586914	0.872803	0.22998	0.720283	-0.525669	-0.361706	-0.272092	8.02358	-5.73092	2.02003	0.158075	-0.022871	-0.0265572	-0.642822	0.847656	-0.275635	0.212097	-0.146467	-0.201081	-0.945055	4.03654	3.06465	8.94705	0.0945817	0.0111639	-0.0461066	-0.713135	-0.142822	-0.765381	0.169387	-0.67662	-0.245527	-0.673208	10.0989	0.638799	-0.335716	-0.218062	0.0165532	-0.0323117	-1.05615	0.134033	0.395996	
20	-0.895756	0.392828	-0.0332454	0.205431	1.4937	-7.3629	7.28768	-0.00770698	-0.00718096	0.00539703	0.342773	0.861816	-0.565186	0.483105	-0.862171	-0.0795926	-0.130138	3.00359	-7.79547	-5.08273	0.0016117	-0.0302172	0.016729	0.245361	0.844727	0.563477	0.776188	-0.208442	0.586301	0.10166	-9.12066	-2.50566	2.79397	-0.00766947	-0.00948382	-0.0846873	0.958984	-0.0898438	0.196289	0.710962	0.203082	0.651847	-0.168479	-9.72406	0.882959	1.25445	0.0887463	-0.0534185	-0.0171371	1.00391	0.213379	0.27417	0.0515015	-0.741336	-0.0538558	-0.666985	9.94822	-1.36537	-1.4996	-0.391456	0.00270568	0.0951125	-0.934082	0.0480957	0.564697	-0.450094	-0.445875	0.537982	-0.556045	9.75743	0.873963	5.37294	-0.156978	-0.002054	0.0337271	-1.03467	-0.500244	-0.0688477	0.326454	-0.88068	-0.30868	-0.150156	4.25063	-4.16972	-6.35779	-0.332367	-0.248829	0.0619868	-0.102539	0.7146	0.755371	0.54523	-0.692856	-0.250122	-0.400143	7.97337	-5.05904	-0.664111	0.276377	-0.00237449	-0.0243499	-0.58667	0.866455	0.223145	0.719843	-0.52616	-0.361925	-0.272015	8.133	-5.13125	2.00169	-0.0343662	-0.0341727	-0.0192054	-0.647217	0.84082	-0.270996	0.212075	-0.146542	-0.19991	-0.945297	3.81745	3.5214	8.66265	-0.170727	0.00632757	0.0147238	-0.713379	-0.134033	-0.767822	0.172687	-0.675212	-0.24879	-0.672585	9.24848	1.67787	-0.583404	0.119414	0.0244389	-0.0299409	-1.06104	0.138428	0.398193	
21	-0.895541	0.393379	-0.0340939	0.205176	0.976731	-7.51445	7.3249	-0.0420768	0.00264989	0.0196719	0.345215	0.857422	-0.562988	0.481647	-0.863022	-0.0792786	-0.130094	2.91588	-7.94714	-5.07304	-0.0720701	0.00197567	-0.0137918	0.247803	0.83374	0.568604	0.775764	-0.208581	0.586803	0.101716	-9.86954	-2.30234	2.18263	-0.0301176	0.0384268	-0.0373354	0.961182	-0.0876465	0.198486	0.710849	0.202387	0.652303	-0.168028	-9.90237	0.572173	0.363777	0.0839536	0.0421236	-0.0360153	1.00391	0.208984	0.278564	0.0544766	-0.7401	-0.059402	-0.667649	9.71403	1.05098	-1.0557	0.10581	0.0415118	-0.0964132	-0.931641	0.0437012	0.569336	-0.450738	-0.444522	0.539171	-0.555455	9.85377	1.03023	4.98401	0.0113491	0.00398093	-0.0305159	-1.03418	-0.510986	-0.0686035	0.327312	-0.880446	-0.30879	-0.149437	4.39401	-4.59015	-7.20743	0.214026	0.0961646	-0.0257033	-0.102783	0.723389	0.748779	0.544777	-0.692978	-0.249782	-0.40076	7.63199	-5.25426	-0.741754	-0.0909042	0.0064072	-0.048358	-0.588867	0.868652	0.223145	0.718974	-0.52657	-0.363396	-0.271558	8.03579	-5.43821	1.75216	-0.142575	-0.0313657	-0.0200716	-0.649902	0.847412	-0.27124	0.211463	-0.146907	-0.202301	-0.944868	3.89461	3.58621	9.39089	0.180343	-0.0395481	-0.0518853	-0.717529	-0.142822	-0.763184	0.169438	-0.676041	-0.245744	-0.673698	10.3737	0.625016	-0.0137123	-0.128303	0.00801592	-0.00825955	-1.05835	0.131836	0.400635	
22	-0.895411	0.394004	-0.034051	0.204547	1.54608	-7.6069	7.36572	-0.0238089	0.0080076	0.0150673	0.344971	0.861816	-0.560791	0.481371	-0.863301	-0.0789831	-0.129443	3.04395	-7.59823	-4.69017	-0.0308842	-0.0238058	-0.0030488	0.245605	0.835938	0.573242	0.775967	-0.207515	0.587083	0.100724	-9.02218	-1.98159	2.75154	0.0756373	0.0196134	0.0864706	0.961182	-0.0876465	0.202881	0.710757	0.202715	0.652051	-0.168998	-9.56999	0.857916	1.30876	-0.105308	0.014195	0.0266105	1.0061	0.213379	0.278564	0.0520178	-0.740841	-0.0570708	-0.667227	9.85481	-0.169517	-1.07272	0.00661212	-0.00598533	-0.0534929	-0.933838	0.0437012	0.5625	-0.450249	-0.445925	0.536525	-0.557286	9.74555	1.11236	5.2173	0.266077	0.0797213	-0.0743713	-1.03003	-0.506592	-0.0622559	0.326233	-0.881039	-0.308603	-0.148682	4.20231	-4.24318	-6.98895	-0.0133464	-0.0582714	-0.000201026	-0.0939941	0.718994	0.753174	0.542487	-0.694857	-0.249015	-0.401089	8.26165	-5.70358	-1.02213	-0.136418	0.0561655	-0.014367	-0.586914	0.870605	0.227539	0.718878	-0.526551	-0.363752	-0.271373	8.31919	-5.08206	1.75314	-0.0370325	-0.00318717	-0.0161847	-0.647461	0.843018	-0.27124	0.210821	-0.147151	-0.201032	-0.945245	3.94922	2.85003	9.02839	-0.0542775	0.0302881	0.00320092	-0.70874	-0.140625	-0.77002	0.170318	-0.675847	-0.24725	-0.67312	9.74412	0.73345	-0.15092	0.052346	-0.00731061	-0.0164289	-1.05371	0.129639	0.398438	
23	-0.895237	0.394157	-0.034607	0.204923	1.15134	-7.5479	7.34147	-0.00822568	0.008287	0.0124819	0.347168	0.861816	-0.564941	0.480084	-0.86406	-0.0787904	-0.129274	2.91251	-7.83046	-5.06748	-0.0432744	0.0305574	-0.0254098	0.247803	0.838135	0.570801	0.775712	-0.208429	0.587043	0.101033	-9.30227	-2.52748	2.50733	0.013666	-0.00441953	-0.0707483	0.958984	-0.0854492	0.205078	0.709877	0.203641	0.652517	-0.169782	-9.73713	0.446871	0.477761	0.0501469	0.0389681	-0.00723102	1.00146	0.215576	0.278564	0.0516132	-0.741865	-0.0571408	-0.666113	9.79093	-1.17432	-1.18837	0.057274	-0.0536901	-0.0182	-0.933838	0.0415039	0.564697	-0.44759	-0.450906	0.529264	-0.562341	9.90136	1.05275	5.74449	0.20901	0.0291707	-0.0401674	-1.03418	-0.508789	-0.0578613	0.324555	-0.881896	-0.308242	-0.148023	4.34099	-4.2574	-6.55243	-0.108724	-0.000404777	0.0118998	-0.100342	0.716797	0.757324	0.543728	-0.693945	-0.250147	-0.400283	7.96525	-5.01458	-0.917835	0.0705513	0.0123102	-0.0181622	-0.58252	0.872803	0.225342	0.718416	-0.52721	-0.363643	-0.271464	8.14255	-5.86274	1.61451	0.0611081	-0.00308431	-0.0276868	-0.647217	0.840576	-0.268799	0.212172	-0.147068	-0.2017	-0.944813	3.8664	3.1201	8.95345	0.00466662	0.0358985	0.0625273	-0.713379	-0.134033	-0.763428	0.170644	-0.675252	-0.249443	-0.672825	9.83783	1.27051	-0.146193	0.117313	-0.00101467	-0.0687112	-1.06079	0.134033	0.398193	
24	-0.89537	0.394038	-0.0348023	0.204539	1.08577	-7.68973	7.30765	0.00837552	-0.00108471	0.0371157	0.351562	0.861816	-0.560791	0.480539	-0.863827	-0.0790666	-0.128971	2.61361	-7.81945	-5.14122	0.0403346	-0.0178855	-0.0262599	0.247803	0.83374	0.568604	0.775688	-0.207594	0.587397	0.100878	-8.70214	-2.34233	2.70673	0.0605703	0.0262038	0.0369225	0.963379	-0.0898438	0.212158	0.709703	0.202931	0.653354	-0.168134	-10.1342	0.446024	0.550642	-0.127739	0.0572261	0.0219336	1.00195	0.206787	0.281006	0.0506482	-0.74184	-0.0564662	-0.666273	9.90072	0.854333	-1.11021	-0.29323	0.0269812	0.03909	-0.934082	0.0480957	0.569336	-0.449001	-0.450515	0.529045	-0.561734	9.75051	0.166976	4.90615	0.0222203	0.0186651	-0.0587544	-1.03198	-0.510986	-0.0600586	0.329448	-0.879745	-0.308748	-0.148956	3.94782	-4.53138	-8.18196	0.45529	0.151792	-0.0641614	-0.0986328	0.725586	0.746582	0.542343	-0.695233	-0.249721	-0.400194	7.88299	-5.34042	-0.726833	-0.0316479	-0.0335635	0.00609501	-0.582275	0.866455	0.22998	0.718975	-0.526454	-0.363766	-0.271285	7.86008	-5.25834	2.04706	-0.0337946	0.0103906	-0.0129523	-0.647461	0.843018	-0.268799	0.213029	-0.146746	-0.202841	-0.944426	4.42399	3.5211	9.09593	-0.0457497	0.0280503	0.0570929	-0.717773	-0.138428	-0.765381	0.170208	-0.675404	-0.249716	-0.672682	9.63904	0.934979	-0.300982	-0.00484466	-0.021874	-0.0382858	-1.05396	0.131836	0.400635	
25	-0.89583	0.393736	-0.0355495	0.202972	1.05742	-7.72058	7.24915	-0.00215472	0.00151423	0.0747613	0.349609	0.859619	-0.562744	0.481214	-0.863553	-0.0790501	-0.1283	2.69047	-7.86385	-5.12565	0.0411472	0.0138191	-0.0304149	0.25	0.83374	0.563965	0.775907	-0.206108	0.587454	0.101913	-8.82755	-1.98935	2.66647	0.0685808	-2.93343e-05	0.0612727	0.956787	-0.0876465	0.196045	0.708994	0.204481	0.653455	-0.168855	-9.56716	0.870509	0.871084	0.0112122	0.0377002	0.0433958	1.00391	0.208984	0.287354	0.0497208	-0.741142	-0.0549608	-0.667245	9.90112	-0.227964	-0.873412	0.111034	0.0593531	-0.0896711	-0.933594	0.0393066	0.5625	-0.450703	-0.447305	0.532808	-0.559376	9.78516	0.646414	5.22118	-0.263135	0.0194296	0.044821	-1.03223	-0.506592	-0.0666504	0.324056	-0.882504	-0.307246	-0.147563	4.41967	-4.55149	-6.03121	-0.38089	-0.103327	0.0828392	-0.0895996	0.7146	0.755371	0.543552	-0.694087	-0.249844	-0.400464	8.02261	-6.06531	-0.880832	0.087942	0.0590461	-0.0405746	-0.588867	0.868652	0.218262	0.718717	-0.526757	-0.363849	-0.271269	8.27876	-6.13445	1.70296	0.0919568	-0.00154614	-0.0300818	-0.647461	0.843018	-0.268799	0.215204	-0.146688	-0.202823	-0.943945	3.90988	3.38154	8.97332	0.0175955	0.0239002	0.0874762	-0.713379	-0.134033	-0.765625	0.170067	-0.67469	-0.252989	-0.672211	9.42563	1.69928	-0.569617	0.127334	0.0027537	-0.0451465	-1.05591	0.125244	0.403076	
26	-0.896035	0.393424	-0.0359052	0.202605	1.12987	-7.58834	7.42794	0.0221219	0.0137523	0.0430152	0.354248	0.853271	-0.567139	0.481165	-0.863614	-0.0797386	-0.127645	2.64824	-7.7561	-4.89539	0.000456952	-0.063583	-0.044287	0.24585	0.83374	0.566162	0.77558	-0.206012	0.587731	0.102991	-9.74357	-1.81739	2.15952	-0.0473814	0.0222216	0.0798167	0.961182	-0.0964355	0.203125	0.70888	0.203993	0.65405	-0.167615	-9.94034	0.606651	0.178384	-0.099905	0.0588133	0.0346941	1.00391	0.208984	0.287354	0.0501767	-0.740596	-0.0549207	-0.66782	9.97016	0.523037	-1.30014	0.0249336	0.072674	0.00831227	-0.929443	0.0415039	0.560303	-0.449466	-0.448279	0.531112	-0.5612	9.65156	0.323443	4.95334	0.234252	0.0324986	0.00376228	-1.03418	-0.508789	-0.0578613	0.327519	-0.880814	-0.307806	-0.148839	4.28405	-4.86902	-7.81343	0.279925	0.190191	-0.091004	-0.0986328	0.723389	0.755127	0.544293	-0.693626	-0.250689	-0.39973	8.01854	-5.03253	-1.033	0.106313	-0.0322428	-0.0163264	-0.580322	0.868652	0.2229	0.720121	-0.524567	-0.364935	-0.270329	8.03605	-5.54137	1.87694	0.241697	-0.00847754	-0.0435359	-0.642822	0.843018	-0.270996	0.215444	-0.146876	-0.203242	-0.943771	4.04953	3.46151	8.88558	0.0362917	-0.00658338	0.0221348	-0.711182	-0.134033	-0.763428	0.167865	-0.675387	-0.251672	-0.672559	9.90436	1.49338	-0.413534	-0.202296	-0.0382066	-0.0423413	-1.05811	0.127441	0.403076	
27	-0.895903	0.394112	-0.036119	0.201814	1.0682	-7.84514	7.37052	-0.0425381	-0.0146504	0.0263358	0.349365	0.861816	-0.558594	0.481248	-0.863455	-0.0795526	-0.128518	2.77344	-7.85747	-4.38829	0.0539662	0.0892701	-0.0406025	0.245605	0.838135	0.568359	0.775752	-0.206666	0.587186	0.103488	-9.79693	-2.29527	2.65693	-0.0648944	-0.0369763	-0.00967423	0.963379	-0.092041	0.205322	0.709051	0.204427	0.653801	-0.167333	-9.57188	0.97377	0.761413	-0.090099	-0.013466	0.0456858	1.00195	0.206787	0.283203	0.0517454	-0.739732	-0.0569623	-0.668486	9.94182	-0.035836	-0.934636	0.201317	0.0344795	-0.12849	-0.933838	0.0415039	0.564697	-0.442963	-0.451499	0.525674	-0.568857	9.66901	1.24776	5.05364	0.415273	0.0207682	0.107553	-1.04321	-0.502441	-0.0517578	0.326587	-0.881471	-0.307281	-0.148079	4.45499	-4.44137	-6.34759	-0.350031	-0.0351466	0.0517608	-0.0964355	0.723389	0.748779	0.543789	-0.694114	-0.250331	-0.399791	7.73308	-5.00056	-0.431253	-0.0365953	-0.0219001	-0.0223339	-0.578369	0.873047	0.225342	0.717925	-0.527848	-0.363567	-0.271623	8.1241	-5.61316	1.64071	-0.228968	0.0107792	0.00380505	-0.64502	0.843018	-0.266602	0.215869	-0.146641	-0.203922	-0.943564	3.77562	3.94394	9.15258	0.0151071	-0.0162211	0.00812113	-0.713135	-0.138428	-0.772217	0.167234	-0.675442	-0.253109	-0.672121	9.51211	1.12321	-0.492005	0.161094	-0.00657859	-0.0521324	-1.0603	0.12085	0.400879	
28	-0.896139	0.393694	-0.0347687	0.201819	1.226	-7.29501	7.42558	0.0325801	-0.0729513	-0.0159617	0.351562	0.861816	-0.564941	0.481033	-0.863526	-0.0797918	-0.128697	3.20847	-7.53074	-4.83419	-0.124823	0.131187	-0.0206866	0.25	0.835938	0.563721	0.776065	-0.207242	0.586389	0.104506	-9.75542	-2.36925	2.42766	-0.039781	-0.00971083	-0.0286339	0.961182	-0.0942383	0.205322	0.709081	0.205005	0.653674	-0.166993	-9.78561	0.6865	0.124506	0.10973	0.00273226	0.0155185	1.00391	0.208984	0.289551	0.0515383	-0.739813	-0.055633	-0.668525	9.60631	-0.0818996	-1.48788	-0.0465952	0.0125073	0.0522016	-0.929443	0.0437012	0.560303	-0.441747	-0.452612	0.524231	-0.570249	9.42962	1.92762	5.23764	0.208207	0.00328647	-0.00916363	-1.04102	-0.500244	-0.045166	0.330891	-0.879878	-0.30667	-0.14926	4.13297	-4.30256	-6.52491	-0.0201199	0.0598279	0.00984302	-0.0986328	0.723389	0.742432	0.541268	-0.696165	-0.249912	-0.399909	8.06674	-6.13436	-0.769368	-0.0840392	-0.0084301	-0.027108	-0.584717	0.872803	0.232178	0.719109	-0.526124	-0.364197	-0.270991	8.14425	-5.29768	2.10183	0.0646696	0.00426806	-0.0240083	-0.649658	0.845215	-0.269043	0.215741	-0.146329	-0.204353	-0.943548	3.85185	3.16557	8.93005	0.102854	0.0352745	-0.0221229	-0.717773	-0.138428	-0.765381	0.166414	-0.675678	-0.252438	-0.67234	9.86686	0.838723	-0.186182	-0.0529957	0.00512883	0.0111246	-1.05811	0.123047	0.403076	
29	-0.89577	0.394594	-0.0334944	0.201916	1.38474	-7.40122	7.2009	-0.039933	-0.0323531	-0.0387697	0.344971	0.864014	-0.565186	0.481024	-0.863424	-0.0800235	-0.129269	2.86223	-7.60453	-4.92726	0.0261293	0.00447631	-0.0482903	0.247803	0.83374	0.563965	0.777623	-0.204022	0.585851	0.102255	-9.22934	-1.77971	2.5115	0.119462	-0.0363957	0.053191	0.963379	-0.0898438	0.198486	0.70957	0.206992	0.652448	-0.167263	-9.83197	0.811644	0.464645	-0.00535464	-0.0262837	0.0741602	1.00439	0.200195	0.283203	0.0488089	-0.740775	-0.0537685	-0.667816	9.41066	-0.117721	-1.20664	-0.228309	-0.0583421	-0.00405747	-0.931641	0.0415039	0.5625	-0.443962	-0.452889	0.525195	-0.567416	9.4493	0.901035	5.6426	0.0114973	-0.00121575	-0.0846692	-1.03662	-0.502441	-0.0473633	0.329852	-0.880586	-0.305625	-0.149527	4.38759	-4.49122	-7.34174	0.152912	0.100291	0.00857293	-0.0986328	0.723389	0.75293	0.541583	-0.696001	-0.250124	-0.399635	8.03613	-4.86489	-0.929711	-0.0783692	0.0390197	-0.0152648	-0.578125	0.868652	0.22998	0.717361	-0.528618	-0.363277	-0.272004	8.37547	-5.78839	1.57527	-0.0869636	2.19795e-05	-0.018954	-0.645264	0.849609	-0.257812	0.215906	-0.146368	-0.203664	-0.943654	4.29508	3.22145	9.05188	-0.147608	0.0330774	0.0114073	-0.713379	-0.13623	-0.767822	0.167821	-0.674917	-0.253359	-0.672408	10.1315	1.26132	-0.330683	0.065458	0.0310976	0.00290129	-1.05591	0.125244	0.400635	
30	-0.895411	0.395434	-0.0334541	0.201871	1.30034	-7.44369	7.17768	-0.0330614	-0.00114974	0.0164559	0.347412	0.859619	-0.564941	0.481033	-0.863347	-0.0797118	-0.129941	2.62342	-8.1644	-5.03892	0.0274477	0.0281403	-0.0195928	0.252197	0.835938	0.563721	0.778576	-0.204217	0.584748	0.100918	-9.13575	-2.26629	2.67044	0.0724248	-0.0621948	-0.0655621	0.961182	-0.092041	0.193848	0.709987	0.209607	0.650571	-0.169531	-9.68262	0.950943	1.05631	0.150123	-0.0611778	0.0223056	1.00659	0.200439	0.276611	0.0503191	-0.740649	-0.0569098	-0.667584	10.0069	-0.0204671	-1.22455	0.129281	-0.00230652	-0.06002	-0.929443	0.0415039	0.5625	-0.444477	-0.452969	0.525047	-0.567084	10.0312	0.37896	5.16277	-0.0130672	0.00933651	-0.0298615	-1.03223	-0.506592	-0.0429688	0.329376	-0.880826	-0.30539	-0.149646	3.93831	-4.99864	-6.52138	-0.0429967	-0.0392273	-0.00636336	-0.0942383	0.721191	0.748779	0.540017	-0.697317	-0.249452	-0.399881	8.29513	-5.85613	-0.78964	-0.0116858	0.0437922	-0.0114245	-0.58252	0.868408	0.22998	0.717812	-0.527906	-0.363974	-0.271265	8.05735	-5.03512	1.9686	-0.0484609	-0.0282738	-0.0139287	-0.642822	0.843018	-0.26001	0.216084	-0.146444	-0.20597	-0.9431	3.80406	3.4569	8.68545	0.153853	-0.0226148	0.00232512	-0.713135	-0.140625	-0.765381	0.16688	-0.674996	-0.253271	-0.672596	9.39517	0.859693	-0.157017	0.00275146	-0.0034176	-0.0253904	-1.06274	0.125244	0.403076	
31	-0.894735	0.396632	-0.0357831	0.20212	1.3464	-7.62343	7.52308	-0.079688	0.0912626	0.0341795	0.351562	0.859619	-0.556396	0.480996	-0.863391	-0.0795311	-0.129899	3.21533	-7.79862	-4.93731	-0.0115104	0.0432099	-0.0117408	0.245605	0.835938	0.566162	0.778864	-0.204976	0.583888	0.102131	-10.163	-2.25951	2.28855	-0.102572	-0.0220354	-0.0352361	0.958984	-0.0854492	0.189209	0.711003	0.208706	0.650326	-0.167311	-10.0029	0.412508	0.283988	0.0492341	-0.0155981	0.0358004	1.00439	0.200439	0.274414	0.0508143	-0.740596	-0.0573115	-0.667571	9.54538	-1.25101	-1.33471	0.314843	0.0395664	-0.0451227	-0.933838	0.0437012	0.567139	-0.442023	-0.454115	0.52183	-0.571042	9.65357	0.994191	5.46015	0.109793	0.0587398	0.0694152	-1.04102	-0.500244	-0.045166	0.327555	-0.882039	-0.306258	-0.144638	4.75101	-4.20698	-7.43403	-0.037923	-0.192329	0.0403935	-0.0876465	0.721191	0.748779	0.543337	-0.694497	-0.25153	-0.398989	7.59543	-4.65464	-1.09775	0.244716	-0.0562653	-0.0181621	-0.586914	0.875	0.22998	0.718868	-0.526188	-0.365041	-0.270368	8.02404	-5.65851	1.62904	0.244847	-0.00110724	-0.0354522	-0.654297	0.845215	-0.266846	0.216726	-0.146564	-0.203238	-0.943527	4.43348	3.08196	9.11189	-0.151422	0.0401608	0.0612574	-0.710938	-0.138428	-0.765381	0.166837	-0.674527	-0.254203	-0.672726	10.1879	1.0793	-0.593673	0.0556289	0.0145162	-0.0601728	-1.0647	0.12085	0.394043	
32	-0.894812	0.396834	-0.036785	0.201201	0.809028	-8.21109	7.43492	0.0214857	-0.0241502	0.0275191	0.356201	0.859619	-0.556396	0.481406	-0.862961	-0.0793881	-0.131319	2.898	-7.63174	-4.83983	0.01463	0.0600118	-0.0323801	0.239014	0.835938	0.566162	0.779879	-0.204189	0.582928	0.101439	-8.69189	-1.93022	2.80682	0.0300878	-0.0357552	0.0650516	0.961182	-0.0942383	0.200928	0.711667	0.208534	0.649797	-0.166752	-9.42739	0.982721	1.02579	-0.174796	-0.00505367	0.027928	1.00244	0.195801	0.276611	0.0514318	-0.739485	-0.0592063	-0.668589	9.73431	0.437444	-0.986902	-0.38578	0.0537572	0.0776211	-0.931641	0.0458984	0.557861	-0.441399	-0.454106	0.520088	-0.573117	9.61535	1.08212	5.47776	0.0474992	0.0848069	-0.0243977	-1.03198	-0.508789	-0.0471191	0.320313	-0.885153	-0.304035	-0.146514	3.63514	-4.62442	-6.84329	-0.297915	-0.0576948	0.0327023	-0.0891113	0.706055	0.766113	0.540277	-0.696811	-0.25012	-0.399994	7.97966	-5.87146	-0.60384	-0.239511	-0.00230072	-0.0496513	-0.589111	0.872803	0.234619	0.717367	-0.528217	-0.364103	-0.271662	8.17584	-5.96424	1.8466	-0.152026	0.0137607	-0.0205076	-0.64502	0.840576	-0.262207	0.218187	-0.146206	-0.20694	-0.942441	3.58146	3.96582	9.01775	0.263313	0.0109703	0.0587901	-0.712891	-0.14502	-0.765381	0.166017	-0.673846	-0.255413	-0.673153	9.13503	0.739841	-0.512457	0.0673835	0.0248371	-0.0625642	-1.05786	0.12085	0.400879	
33	-0.894931	0.39635	-0.0348897	0.201959	1.06376	-7.26867	7.21933	0.00814651	-0.0527288	-0.0525321	0.349121	0.866211	-0.558594	0.481301	-0.862982	-0.0784678	-0.132113	2.8656	-7.95702	-4.85793	-0.00918382	0.0694273	-0.00716362	0.236816	0.838135	0.566162	0.779642	-0.204614	0.582932	0.102376	-9.79921	-1.8834	2.62157	-0.0748172	0.00574141	0.0411636	0.961182	-0.092041	0.19165	0.711316	0.209561	0.649725	-0.167247	-9.64173	1.22276	0.751695	0.135049	0.0127853	0.00485862	1.00415	0.20459	0.281006	0.0495743	-0.738365	-0.0579431	-0.670076	10.037	0.31373	-1.11604	-0.0847365	0.0667511	-0.0418064	-0.937988	0.0415039	0.555664	-0.442889	-0.452301	0.521525	-0.572089	9.91507	1.11895	4.8052	0.0017346	0.0164303	-0.018651	-1.04077	-0.504395	-0.0515137	0.312672	-0.888637	-0.302649	-0.144792	4.11495	-4.28745	-6.58427	-0.203318	0.00182278	0.045707	-0.0759277	0.699463	0.774902	0.53937	-0.697273	-0.249818	-0.400601	8.09942	-6.00595	-0.981022	-0.0115187	0.0895589	-0.0366847	-0.591309	0.872803	0.234619	0.717419	-0.52758	-0.364738	-0.271911	8.2935	-5.55661	1.63458	-0.0554428	0.00365914	-0.0488984	-0.652344	0.852051	-0.264648	0.218504	-0.147468	-0.205226	-0.942545	4.28684	2.99898	8.93198	-0.103478	0.0254669	-0.0117783	-0.719971	-0.134277	-0.767822	0.166934	-0.672955	-0.257203	-0.673136	10.4045	1.50357	-0.463871	0.16117	0.0488002	-0.0703144	-1.06006	0.118652	0.39624	
34	-0.89471	0.39684	-0.0343081	0.202077	1.30328	-7.36683	7.36452	-0.0319469	-0.05018	-0.0300973	0.346924	0.866211	-0.560791	0.482006	-0.862682	-0.0791017	-0.131121	2.82359	-7.88994	-5.48481	0.0672608	-0.0746496	-0.0201588	0.243164	0.844727	0.565918	0.779615	-0.2046	0.583087	0.101725	-9.22623	-2.04307	2.69852	0.00113812	0.0238671	0.0187112	0.965576	-0.092041	0.193848	0.711132	0.208604	0.650232	-0.167254	-9.9403	0.683492	0.165068	-0.00774587	-0.00559692	-0.0446764	1.01123	0.196045	0.274414	0.0474826	-0.738449	-0.0540753	-0.670459	10.0732	-0.298967	-1.58526	-0.333543	0.0313874	0.0997755	-0.933594	0.0393066	0.553467	-0.442945	-0.452417	0.521158	-0.572287	9.9113	1.12145	4.89882	0.0278443	0.0212594	-0.0266573	-1.03882	-0.504395	-0.0473633	0.304199	-0.892328	-0.301355	-0.142822	4.94098	-4.00682	-7.50534	-0.304611	-0.100359	0.0583419	-0.0688477	0.686523	0.790039	0.541069	-0.695867	-0.251746	-0.399546	7.2498	-5.16433	-0.436003	0.241959	-0.0469525	-0.0518677	-0.586914	0.870605	0.232422	0.717601	-0.527237	-0.364859	-0.271934	7.78317	-5.52336	1.83613	0.0363587	0.0114995	-0.0311621	-0.6521	0.845215	-0.266602	0.218396	-0.146629	-0.206488	-0.942426	3.51831	3.56012	8.88995	0.112922	0.0512976	-0.0316654	-0.710693	-0.142822	-0.765381	0.166464	-0.672731	-0.256862	-0.673605	10.6919	1.82522	0.0702046	-0.0471806	0.0383926	-0.0228055	-1.0647	0.118652	0.398438	
35	-0.89408	0.398283	-0.0341592	0.202051	1.35465	-7.31167	7.24833	-0.0760123	-0.0142046	0.00265662	0.349365	0.861816	-0.554199	0.48119	-0.863155	-0.0786741	-0.13126	2.9194	-7.81912	-4.9439	0.0160619	-0.0478344	-0.0126175	0.239258	0.83374	0.566406	0.779557	-0.205123	0.583106	0.101007	-9.22598	-2.00085	2.58257	0.0549362	0.0158575	-0.0724713	0.967529	-0.0942383	0.19165	0.711862	0.20817	0.649235	-0.168558	-9.38085	0.635999	0.642921	-0.0420629	-0.070458	-0.0340403	1.00415	0.204834	0.267822	0.0502964	-0.738649	-0.0592812	-0.669592	10.1736	1.05464	-0.500247	-0.202535	-0.063539	-0.0536311	-0.935791	0.0393066	0.560303	-0.441504	-0.45385	0.519752	-0.573544	9.71847	1.6192	5.99722	0.0685799	0.00977302	-0.0185496	-1.04102	-0.502441	-0.045166	0.297846	-0.894924	-0.299389	-0.144098	3.6449	-3.8191	-7.43908	-0.217268	-0.256435	0.0545972	-0.0617676	0.673584	0.796875	0.538178	-0.698125	-0.250752	-0.400136	8.06691	-6.10539	-0.956528	-0.0843036	-0.0426099	-0.0352122	-0.58667	0.866211	0.234863	0.717126	-0.527749	-0.364692	-0.272417	8.50586	-5.63508	1.78617	-0.0489316	0.0096491	-0.0220231	-0.647461	0.845215	-0.266602	0.218539	-0.147185	-0.20586	-0.942443	4.1835	3.01557	9.18614	-0.067758	0.00284541	-1.56962e-05	-0.715332	-0.138428	-0.767822	0.167622	-0.671733	-0.257046	-0.674244	10.4039	1.27345	-0.186586	0.0852001	0.03858	0.0265075	-1.06006	0.118652	0.389404	
36	-0.893792	0.399208	-0.034579	0.201427	1.32415	-7.64798	7.25482	-0.0123933	-0.0159612	0.0208493	0.351562	0.864014	-0.550049	0.482116	-0.862728	-0.0788236	-0.13058	3.4255	-7.22315	-4.80522	-0.0262775	-0.041521	-0.00163335	0.243408	0.838135	0.568604	0.779811	-0.205729	0.582628	0.100577	-9.28799	-1.98809	2.75232	-0.0620419	-0.00637135	-0.0114208	0.958984	-0.0854492	0.191406	0.712339	0.208001	0.648768	-0.168548	-9.63164	0.8476	0.624802	-0.0123199	-0.0475069	0.00715759	1.00903	0.196045	0.272217	0.0474953	-0.739349	-0.0568342	-0.669236	9.61253	-0.244174	-1.26266	-0.297673	-0.0528306	-0.0151993	-0.935791	0.0393066	0.5625	-0.442757	-0.453282	0.519528	-0.57323	9.79345	0.957386	5.54884	-0.0686853	0.0806027	-0.0677758	-1.03882	-0.502441	-0.0495605	0.295717	-0.895774	-0.299314	-0.143356	4.69398	-3.47931	-7.30418	-0.138725	-0.102721	0.000346456	-0.0639648	0.673584	0.796875	0.539094	-0.697373	-0.250808	-0.40018	7.98867	-5.33756	-1.16766	0.0879207	0.0585431	-0.007055	-0.58667	0.866211	0.237061	0.717403	-0.527212	-0.364906	-0.272441	8.26091	-5.28458	1.54331	-0.0118619	0.00593228	-0.0280492	-0.651855	0.840576	-0.264404	0.21974	-0.146422	-0.207281	-0.941971	3.39281	4.08857	8.86656	0.126265	0.0260851	0.0647097	-0.713135	-0.140625	-0.765381	0.168971	-0.670624	-0.259246	-0.674169	8.87601	0.883935	-0.365628	0.162459	0.0394367	-0.0400362	-1.0647	0.12085	0.389404	
37	-0.893407	0.400497	-0.0337975	0.200707	1.19798	-7.47986	7.23032	-0.0707258	-0.069647	0.00524472	0.346924	0.865967	-0.547852	0.48007	-0.863732	-0.0784511	-0.131698	2.73006	-7.92614	-5.02639	-0.0937072	0.0321427	-0.0345306	0.243408	0.838135	0.573242	0.78019	-0.206941	0.58202	0.0986552	-9.07942	-2.28701	2.66384	0.0206023	-0.0115645	-0.100303	0.960938	-0.083252	0.196045	0.712969	0.20836	0.647677	-0.169633	-9.56604	1.09041	1.03338	0.0565666	-0.0475433	-0.0202049	1.00439	0.202637	0.272217	0.0503525	-0.739473	-0.0605434	-0.668565	10.0844	0.253542	-0.75234	0.119016	0.00463938	-0.0213171	-0.942383	0.0415039	0.560303	-0.442908	-0.454157	0.519021	-0.57288	10.0151	0.547819	5.66652	0.0101856	0.0321694	-0.046723	-1.03198	-0.508789	-0.0471191	0.29118	-0.897131	-0.298765	-0.145293	3.83586	-4.10719	-7.71412	-0.144532	-0.0692412	-0.00304421	-0.067627	0.662598	0.807617	0.539301	-0.697044	-0.251697	-0.399916	7.87997	-4.81415	-0.678921	0.0317972	-0.0110953	-0.0272482	-0.58667	0.868408	0.234619	0.717726	-0.526886	-0.364826	-0.272328	7.8541	-5.58555	1.97517	0.0732738	0.0107975	-0.0202234	-0.647461	0.843018	-0.266602	0.220607	-0.147532	-0.20664	-0.941736	4.56347	3.24277	8.894	-0.0153873	-0.00517317	0.034133	-0.713379	-0.13623	-0.763184	0.167343	-0.670949	-0.258351	-0.674595	10.8129	1.125	-0.0855672	-0.115807	-0.0144993	-0.0213624	-1.0647	0.123047	0.391602	
38	-0.892193	0.402924	-0.0330462	0.201377	1.32325	-7.88209	7.22232	-0.0867711	-0.0265719	-0.0647009	0.344727	0.868164	-0.550049	0.479217	-0.864152	-0.0785957	-0.131963	3.16868	-7.80567	-5.18538	-0.0207002	0.0228416	-0.0512467	0.241455	0.83374	0.568604	0.779742	-0.20892	0.581926	0.0985722	-9.74205	-2.22802	2.49458	-0.100354	0.028267	-0.0628053	0.956787	-0.083252	0.196045	0.713998	0.205912	0.647313	-0.169684	-9.9228	0.683387	0.493757	-0.0659727	-0.0486683	-0.0645686	1.00439	0.202637	0.274414	0.0494786	-0.739574	-0.0599309	-0.668573	9.8059	-0.34873	-1.03464	-0.00376421	0.0263789	-0.0296983	-0.937988	0.0415039	0.557861	-0.44226	-0.454676	0.519176	-0.572828	9.69255	1.44349	5.16954	0.00258326	-0.0701013	0.0122575	-1.03003	-0.504395	-0.0429688	0.286848	-0.898629	-0.298381	-0.145442	4.30588	-3.92913	-7.03549	-0.21685	-0.10319	-0.0296081	-0.0610352	0.65625	0.812012	0.539005	-0.69729	-0.251567	-0.399967	8.152	-5.50359	-0.977837	0.0912813	0.00131446	-0.00402233	-0.586426	0.862061	0.234863	0.718129	-0.526566	-0.364794	-0.271926	8.32765	-4.91294	1.85292	-0.0478913	0.0135119	0.00616847	-0.649658	0.843018	-0.266602	0.220642	-0.146856	-0.207906	-0.941555	3.43707	4.17539	8.74069	-0.0571515	0.00206062	-0.0140493	-0.70874	-0.138428	-0.765381	0.169024	-0.670689	-0.259873	-0.673849	8.7161	1.61367	-0.439184	0.0833158	-0.00761773	0.00234925	-1.05811	0.123047	0.391602	
39	-0.891721	0.403878	-0.0323718	0.201666	1.53673	-7.80215	7.25381	-0.0193456	-0.0129266	-0.0178675	0.344482	0.868164	-0.545654	0.479111	-0.864185	-0.0789811	-0.131903	3.00944	-7.75892	-4.92435	0.0136058	-0.0232206	-0.0234579	0.241211	0.840332	0.568359	0.779967	-0.209664	0.581637	0.096906	-9.0357	-2.55143	2.69283	0.0597406	0.0147007	-0.0163892	0.965088	-0.0769043	0.191162	0.715102	0.204931	0.645928	-0.171492	-9.72969	0.853983	1.17288	-0.0316272	-0.0733213	-0.032554	1.01074	0.209229	0.265381	0.0474472	-0.739757	-0.0576414	-0.66872	9.70743	-0.0592501	-1.08266	-0.0758228	-0.00567741	-0.0170762	-0.93335	0.0349121	0.557861	-0.443328	-0.454907	0.518423	-0.572501	9.32415	0.597481	4.81984	0.0615048	0.0482299	-0.0616479	-1.02783	-0.504395	-0.0473633	0.286937	-0.898504	-0.298019	-0.146774	3.87202	-3.89824	-7.58957	-0.00507095	0.0584887	-0.0121288	-0.0629883	0.65625	0.816406	0.537976	-0.698226	-0.251388	-0.399834	7.96259	-5.40457	-0.681086	-0.0666977	-0.0405988	-0.0212584	-0.584473	0.866211	0.232422	0.718232	-0.526585	-0.364517	-0.27199	8.08509	-5.7072	2.02484	0.148967	0.0119991	-0.0162003	-0.64502	0.84082	-0.268799	0.220437	-0.146828	-0.207326	-0.941735	4.03962	3.21836	9.51825	0.0435329	0.0128202	-0.00341286	-0.713135	-0.142822	-0.767578	0.167757	-0.671597	-0.257763	-0.674072	10.4408	0.649992	-0.208238	-0.0599713	-0.00935179	0.0154972	-1.06714	0.125244	0.393799	
40	-0.891654	0.403927	-0.0322528	0.201879	1.15723	-7.55114	7.24338	-0.00311213	-0.007004	-0.0194027	0.342285	0.870361	-0.547852	0.47881	-0.864297	-0.0790697	-0.132211	3.23288	-7.56413	-5.07719	-0.0318204	0.0249443	-0.0412677	0.243408	0.835938	0.570801	0.780087	-0.210032	0.581407	0.0965185	-9.91081	-1.85917	2.3518	-0.00414304	-0.0028938	-0.0453233	0.963135	-0.0769043	0.193604	0.715698	0.204641	0.645123	-0.172381	-9.67701	0.227576	0.673768	0.166485	-0.053747	-0.029068	1.00879	0.204834	0.263428	0.0495801	-0.739663	-0.0585683	-0.668588	10.1695	0.291694	-0.949503	0.0344011	0.030596	0.0190025	-0.931641	0.0415039	0.560303	-0.4429	-0.45562	0.519279	-0.571488	10.0661	1.0337	5.81544	-0.0433142	-0.0275457	-0.0381939	-1.03418	-0.508789	-0.0429688	0.285154	-0.899097	-0.29776	-0.147141	4.04381	-3.83784	-7.32832	-0.0740074	0.0531485	-0.0236715	-0.0610352	0.65625	0.814209	0.539538	-0.696866	-0.251142	-0.400255	7.80248	-5.19702	-0.859353	0.0555074	0.0891812	-0.0158859	-0.584473	0.866211	0.237061	0.717684	-0.527525	-0.364173	-0.272074	8.26793	-5.66236	1.58654	-0.0839954	0.0034877	0.00148139	-0.64502	0.843018	-0.264404	0.221317	-0.146226	-0.207934	-0.941488	3.68201	3.91297	8.87728	0.0426791	0.0323772	0.0357023	-0.718018	-0.13208	-0.765625	0.168155	-0.671518	-0.258735	-0.673679	9.82244	0.983782	0.0262682	0.0856368	-0.015545	-0.0328374	-1.0647	0.12085	0.394043	
41	-0.891141	0.40527	-0.0311208	0.20163	1.50718	-7.65668	7.15602	-0.0656447	-0.0528073	-0.0142765	0.342041	0.874756	-0.550049	0.477712	-0.864777	-0.0790702	-0.133041	2.88115	-7.95421	-4.93934	-0.0260645	0.00774925	-0.0392662	0.241211	0.838135	0.570801	0.78022	-0.211468	0.580896	0.0953828	-9.14989	-2.9019	2.51565	0.0647836	0.0201712	-0.00911469	0.962891	-0.0725098	0.188965	0.716732	0.203996	0.644301	-0.171924	-10.0148	0.447557	0.684657	-0.137822	-0.0436592	0.00558928	1.01318	0.204834	0.263428	0.0483585	-0.740037	-0.057999	-0.668313	9.66878	-0.179329	-1.587	0.0843309	0.0122883	-0.0785543	-0.931396	0.0393066	0.5625	-0.442895	-0.456324	0.51814	-0.571964	9.50351	1.02236	5.636	0.0966642	0.0314885	-0.0665025	-1.03857	-0.508789	-0.0407715	0.285081	-0.899018	-0.298415	-0.146436	3.88853	-4.02115	-7.37232	0.116325	0.0319747	-0.0356682	-0.060791	0.654053	0.818604	0.537638	-0.698699	-0.25048	-0.40003	8.14031	-5.58611	-0.904104	-0.139208	0.0190508	0.00284303	-0.586426	0.864014	0.239502	0.718447	-0.52676	-0.364139	-0.271589	8.21527	-5.32036	1.96209	0.000817078	0.0162016	-0.00659608	-0.647461	0.845215	-0.266602	0.221373	-0.146446	-0.207576	-0.94152	4.15	3.38536	9.03831	-0.0277585	0.00451209	0.0144715	-0.711182	-0.13623	-0.765625	0.168371	-0.671696	-0.258544	-0.673521	9.79998	1.55993	-0.460324	-0.101829	-0.00286841	0.0115269	-1.05981	0.114258	0.394043	
42	-0.890402	0.406559	-0.0311347	0.202299	1.19893	-7.79115	7.20146	-0.0527204	-0.00235168	-0.0299737	0.335449	0.872314	-0.545898	0.478292	-0.864358	-0.0795099	-0.133415	2.88085	-7.74622	-5.03746	0.019993	0.022068	-0.0363225	0.232422	0.840332	0.58252	0.781018	-0.212041	0.57968	0.0949715	-9.37233	-2.25156	2.66729	-0.115722	-0.0484715	-0.0473963	0.962891	-0.074707	0.186523	0.717097	0.204073	0.643673	-0.172658	-9.68645	0.598492	0.947587	0.0446132	-0.0604589	-0.0219788	1.01294	0.209229	0.256592	0.049137	-0.739588	-0.0599089	-0.668585	9.89122	0.399336	-1.29105	0.1482	0.0452512	-0.0899765	-0.940186	0.0393066	0.560303	-0.442559	-0.456827	0.516854	-0.572985	9.77304	1.07518	5.45605	0.065212	0.0264349	-0.0155279	-1.03638	-0.506592	-0.0385742	0.284398	-0.899264	-0.298488	-0.146106	3.98638	-3.62191	-7.31515	-0.0289651	-0.035183	-0.0180207	-0.0629883	0.65625	0.818604	0.538353	-0.698075	-0.250765	-0.399981	7.8805	-6.20576	-0.628792	0.0810053	0.0353565	-0.0196271	-0.59082	0.864014	0.239502	0.718168	-0.527315	-0.363856	-0.27163	7.95158	-5.64982	1.89438	-0.0444983	0.00266805	0.00110723	-0.647461	0.845215	-0.264404	0.221912	-0.145607	-0.207759	-0.941483	3.83727	3.10997	9.07318	0.0187899	0.0405021	0.0139162	-0.719971	-0.138672	-0.765625	0.166326	-0.672646	-0.257195	-0.673598	9.87476	0.657507	-0.181701	0.00816847	-0.0259061	-0.029353	-1.06201	0.109863	0.394043	
43	-0.890163	0.406967	-0.0302857	0.202658	1.29202	-7.66092	7.1727	0.00449968	-0.0309953	-0.0341494	0.342041	0.874756	-0.545898	0.478288	-0.864371	-0.0805585	-0.13272	3.08166	-7.78771	-5.17612	-0.013002	-0.0469407	-0.0419173	0.239258	0.831543	0.568604	0.781154	-0.213106	0.579013	0.0955415	-9.43995	-2.63236	2.40298	-0.00733816	-0.00851082	0.00161306	0.963135	-0.0769043	0.191162	0.717887	0.204017	0.643047	-0.171773	-9.73508	0.491218	0.748716	0.0354736	-0.0158101	0.0373508	1.00879	0.200439	0.263428	0.046798	-0.740198	-0.0587483	-0.668181	9.87928	-0.679845	-1.03396	-0.0116088	-0.00585184	-0.0405819	-0.933594	0.0371094	0.560303	-0.442714	-0.456344	0.517377	-0.572778	9.50769	0.813304	4.72233	-0.0690353	-0.0293919	-0.0233955	-1.03223	-0.506592	-0.0366211	0.285892	-0.898427	-0.299776	-0.145703	3.96478	-4.18739	-7.81705	0.172374	0.000276646	-0.0582645	-0.0632324	0.660645	0.812012	0.539988	-0.696837	-0.251475	-0.399489	8.15438	-5.38272	-1.09037	0.00582002	0.0400976	-0.0126372	-0.588867	0.870605	0.22998	0.719346	-0.52582	-0.364374	-0.270715	8.39131	-5.49859	1.86015	0.126251	0.0114033	-0.0185271	-0.64502	0.843018	-0.268799	0.22257	-0.145966	-0.206156	-0.941624	4.31066	2.98766	8.78199	-0.0631732	0.0455616	0.0246563	-0.713379	-0.134033	-0.760986	0.166243	-0.672619	-0.258303	-0.673222	9.8986	1.30174	-0.453793	0.0203369	-0.0142262	-0.0303942	-1.06006	0.116455	0.403076	
44	-0.889625	0.408279	-0.0290976	0.202556	1.37121	-7.53192	7.14493	-0.0460578	-0.0563214	-0.0214725	0.333252	0.872314	-0.543701	0.478181	-0.864517	-0.0807679	-0.132025	3.23141	-7.72421	-5.15623	0.0205482	-0.0264789	-0.00240384	0.241211	0.835938	0.573242	0.782294	-0.212281	0.578012	0.0941035	-9.18335	-2.31522	2.95373	0.0381534	-0.05358	-0.0341995	0.965088	-0.0703125	0.184326	0.719037	0.203658	0.642082	-0.170993	-9.53382	0.703325	0.977754	-0.0986869	-0.0406337	0.021993	1.00879	0.202637	0.259033	0.0492411	-0.740132	-0.0589256	-0.668063	10.0501	-0.221707	-0.827696	0.0590126	-0.0121013	0.0643928	-0.935791	0.0371094	0.557861	-0.44182	-0.457311	0.516644	-0.573359	9.90886	1.2213	5.11051	0.0598429	0.0111765	-0.0295231	-1.03638	-0.510986	-0.0427246	0.289082	-0.897436	-0.29982	-0.145424	3.8574	-4.08553	-7.31127	0.132601	0.0174631	-0.0246987	-0.0700684	0.664795	0.809814	0.539653	-0.697205	-0.250953	-0.399627	8.04773	-5.21222	-0.952218	-0.118828	0.0641824	0.00230076	-0.58667	0.866211	0.244141	0.719046	-0.526199	-0.364416	-0.270717	8.07874	-5.6693	1.94525	-0.0534253	-0.0105468	-0.0183564	-0.64502	0.845215	-0.27124	0.224323	-0.145265	-0.206519	-0.941237	3.92807	4.01861	8.9107	-0.0122888	0.0136481	0.0734872	-0.71582	-0.131836	-0.770264	0.166706	-0.672002	-0.260889	-0.672725	9.62505	1.10592	-0.419721	0.185303	0.00543677	-0.0631852	-1.06445	0.114258	0.398682	
45	-0.889373	0.40894	-0.0288987	0.202358	1.36396	-7.62894	6.94741	-0.0147058	-0.00623483	0.00612986	0.340088	0.870361	-0.543701	0.478041	-0.86461	-0.0807684	-0.131916	2.84927	-7.76353	-5.24068	0.000370436	0.0114906	-0.0151517	0.241211	0.835938	0.575684	0.781941	-0.214554	0.577257	0.0964804	-9.5888	-2.45589	2.47787	-0.125176	-0.00829772	0.0218391	0.962891	-0.0725098	0.188965	0.719194	0.203341	0.642091	-0.17068	-9.71248	0.809641	0.694901	-0.0374615	-0.00163345	0.00477806	1.01343	0.200439	0.259033	0.0485409	-0.740387	-0.0564904	-0.668041	9.22829	-0.347387	-1.43775	-0.11389	-0.0166345	0.0638849	-0.933838	0.0415039	0.560303	-0.441664	-0.458481	0.517052	-0.572176	9.66857	0.958734	5.60195	0.0819196	-0.0407808	-0.0465187	-1.02954	-0.515381	-0.0256348	0.292426	-0.896231	-0.300436	-0.1449	4.12554	-4.12167	-7.46689	0.302965	0.0517502	-0.0376247	-0.0678711	0.666992	0.799072	0.538794	-0.697857	-0.250826	-0.399728	8.08999	-5.80848	-0.838476	-0.0767412	-0.0106232	-0.0278203	-0.58667	0.866211	0.239502	0.718281	-0.52715	-0.364288	-0.271071	8.18739	-5.70092	1.82132	-0.0599727	-0.00355514	-0.0243202	-0.647461	0.843018	-0.275635	0.224251	-0.145679	-0.2067	-0.94115	4.39454	3.61326	8.92285	0.0214359	-0.00892329	-0.0326978	-0.711182	-0.131836	-0.767822	0.166184	-0.671732	-0.26062	-0.673228	10.01	1.3263	-0.443123	-0.107978	0.025136	0.00150262	-1.06006	0.118652	0.39624	
46	-0.889268	0.409412	-0.0291756	0.201823	1.46332	-7.46684	7.04278	-0.0350186	0.00035957	0.0206114	0.339844	0.874512	-0.548096	0.476921	-0.865422	-0.0804241	-0.130858	3.05328	-7.73242	-4.8382	-0.077097	-0.0148914	0.00802113	0.241211	0.835938	0.575684	0.783005	-0.212135	0.577109	0.0940647	-8.89272	-2.34555	2.93708	0.172404	-0.00915465	0.0244308	0.967041	-0.0681152	0.181885	0.71898	0.205768	0.64111	-0.172353	-9.6293	1.1324	1.29919	0.0938336	-0.0130288	0.0409203	1.01099	0.202637	0.259033	0.0511827	-0.739884	-0.0592992	-0.668158	9.97725	1.31967	-1.01389	0.153742	0.0407091	-0.103485	-0.931641	0.0437012	0.557861	-0.442549	-0.457722	0.517257	-0.571914	9.51622	0.28074	5.22848	-0.0260561	0.022674	0.0119301	-1.03833	-0.510986	-0.0385742	0.296378	-0.895177	-0.300177	-0.143916	4.1583	-4.08738	-7.21493	0.124367	0.0769275	0.00228399	-0.0639648	0.673584	0.794678	0.539519	-0.697236	-0.251484	-0.399421	7.91268	-4.97765	-0.845146	0.0877893	0.0586293	-0.0162325	-0.58667	0.866211	0.232422	0.718195	-0.526842	-0.364975	-0.270973	8.09374	-5.34675	1.86655	0.0173134	-0.0167549	-0.0265634	-0.647217	0.840576	-0.268799	0.223787	-0.145496	-0.20677	-0.941274	3.63165	3.82143	9.03144	-0.0298948	-0.0107718	-0.0151979	-0.713379	-0.134033	-0.770264	0.167365	-0.671188	-0.261017	-0.673324	9.21913	1.37409	-0.469213	0.064084	0.0338328	0.0153813	-1.05762	0.112061	0.391846	
47	-0.88853	0.410978	-0.0311213	0.201601	1.38531	-7.70633	7.17771	-0.0945561	0.063276	0.0437173	0.341797	0.881104	-0.541504	0.47625	-0.865858	-0.0804026	-0.13043	2.80962	-8.19691	-5.26617	-0.0209809	0.000718528	-0.0135262	0.241455	0.83374	0.575684	0.782514	-0.21354	0.577073	0.0951798	-9.8597	-2.4512	2.46006	-0.155594	0.0107782	-0.0507276	0.960693	-0.0725098	0.188965	0.718833	0.204981	0.641642	-0.171925	-10.045	0.701148	0.699209	0.0833088	0.0185907	-0.0525756	1.01538	0.207275	0.252197	0.053519	-0.739677	-0.0647585	-0.667698	9.99862	-0.636477	-1.28873	0.498624	0.0286952	-0.202686	-0.936279	0.0480957	0.553467	-0.439085	-0.459528	0.513647	-0.576373	10.0135	2.17356	5.8435	0.135586	0.0807976	0.025583	-1.03418	-0.510986	-0.0341797	0.302157	-0.892955	-0.301986	-0.141908	4.01654	-4.05516	-7.48064	0.34241	-0.0754359	-0.0450694	-0.0708008	0.684326	0.788086	0.5379	-0.698308	-0.250785	-0.400171	7.91688	-5.75098	-1.17746	-0.150296	-0.0108751	-0.0454323	-0.584229	0.864014	0.246338	0.718062	-0.526866	-0.365251	-0.270908	8.16624	-5.86663	1.66133	0.0882029	0.00430281	-0.031495	-0.651855	0.840576	-0.262207	0.222924	-0.146622	-0.206187	-0.941432	4.27233	2.63908	9.34228	0.0461117	0.00523063	-0.0167704	-0.718018	-0.129883	-0.770264	0.164883	-0.671986	-0.257736	-0.674404	10.989	0.277043	-0.0674619	-0.106728	0.0133686	0.00426124	-1.05566	0.118652	0.39624	
48	-0.888174	0.412232	-0.0327291	0.200352	1.16962	-8.3346	7.20678	-0.0358766	0.00854713	0.0509204	0.3396	0.876709	-0.528564	0.476305	-0.865911	-0.0807753	-0.129641	3.20706	-7.25401	-4.77598	-0.0421286	0.00390592	-0.031425	0.241455	0.831543	0.578125	0.782406	-0.21402	0.576957	0.0956841	-8.99581	-2.28697	2.6249	0.0257682	0.0115577	0.0501245	0.967285	-0.0725098	0.184326	0.718914	0.204503	0.641632	-0.172191	-9.78521	0.966693	1.06601	-0.0156925	-0.00988514	-0.0372856	1.01074	0.207031	0.260986	0.0483072	-0.740209	-0.0633445	-0.66764	9.7062	0.16056	-1.0186	-0.473542	-0.029424	-0.0218165	-0.935547	0.0349121	0.5625	-0.439472	-0.45842	0.51449	-0.576208	9.25272	0.28573	4.27362	0.0059888	-0.0192682	0.00593481	-1.03638	-0.508789	-0.0322266	0.306233	-0.891297	-0.301999	-0.143555	4.0222	-4.16681	-6.91533	0.176209	0.224184	-0.0564584	-0.0751953	0.686523	0.781494	0.538955	-0.697646	-0.2514	-0.399518	8.22524	-5.13411	-1.03886	0.0930985	0.0516253	0.00961638	-0.584473	0.864014	0.237061	0.717565	-0.527446	-0.365132	-0.271255	8.26906	-5.07138	1.78564	-0.132358	-0.000443516	-0.0171958	-0.6521	0.845215	-0.264404	0.224104	-0.146224	-0.205935	-0.941269	3.64426	3.38599	8.74642	-0.0705431	0.0287098	0.0753207	-0.711182	-0.134033	-0.772461	0.16684	-0.671142	-0.260418	-0.673732	9.88003	0.367195	-0.286001	0.277867	0.0210435	-0.0528871	-1.0647	0.12085	0.398438	
49	-0.88819	0.412308	-0.0320359	0.200234	0.900857	-8.01548	7.02089	0.0061448	-0.0591261	-0.013052	0.341797	0.878906	-0.537354	0.475136	-0.866492	-0.0804714	-0.130239	2.80451	-7.65602	-5.25736	-0.11515	0.0491253	-0.0310399	0.24585	0.833984	0.580322	0.782349	-0.213897	0.577198	0.0949795	-9.56669	-2.06425	2.29074	0.0424055	0.0363405	-0.0336151	0.965088	-0.0681152	0.184082	0.718978	0.204089	0.641771	-0.171894	-9.55239	0.553511	0.539415	-0.0216337	0.00447011	-0.0021093	1.01099	0.202637	0.254639	0.0478476	-0.740525	-0.0623747	-0.667415	9.54811	-1.49168	-1.19319	-0.0795492	-0.0208462	0.0203588	-0.93335	0.0327148	0.564697	-0.438533	-0.459326	0.51433	-0.576345	9.81155	1.31633	4.9942	0.0779712	-0.0615302	-0.00684911	-1.03857	-0.504395	-0.0322266	0.310423	-0.889254	-0.303421	-0.144223	3.83736	-4.3761	-7.54391	0.212912	0.00877725	-0.0474088	-0.0759277	0.69751	0.772705	0.538467	-0.697843	-0.251358	-0.39986	8.14837	-5.19262	-0.862168	-0.0398018	0.0209649	-0.0402667	-0.584473	0.868408	0.244141	0.717114	-0.528038	-0.364874	-0.271643	8.30704	-5.69511	1.71482	-0.0634706	0.0101784	-0.0221686	-0.651855	0.840576	-0.262207	0.224702	-0.146897	-0.206644	-0.940866	4.19827	2.96852	8.84226	0.0564825	-0.0460535	0.0576661	-0.713379	-0.13623	-0.767822	0.167279	-0.670313	-0.261464	-0.674044	9.5013	1.65782	-0.651203	-0.108699	0.0297598	-0.0102532	-1.06445	0.114258	0.39624	
50	-0.887702	0.413162	-0.0299909	0.200954	1.74832	-7.65004	6.93087	-0.0263429	-0.032804	-0.0787368	0.335205	0.881104	-0.535156	0.474693	-0.866897	-0.0807086	-0.129003	2.90157	-7.65405	-4.97204	0.0126942	-0.0954874	0.0017976	0.24585	0.82959	0.575928	0.782438	-0.214403	0.577078	0.0938199	-8.98189	-2.33858	2.65574	-0.0670974	0.0301042	-0.00736564	0.965088	-0.0661621	0.188721	0.719328	0.203993	0.641276	-0.17239	-9.95056	0.7539	0.909789	-0.1216	-0.0438222	-0.0109029	1.01294	0.207031	0.254395	0.0497583	-0.739789	-0.0639387	-0.667944	9.79346	0.700938	-0.717419	-0.0420679	0.0519037	0.0089445	-0.933838	0.0415039	0.557861	-0.439549	-0.458486	0.515374	-0.575306	9.43085	0.128048	4.99865	-0.0714104	0.030793	-0.0112679	-1.03662	-0.504395	-0.0322266	0.311965	-0.888839	-0.303634	-0.143002	4.18428	-4.01863	-7.32698	0.167259	-0.0400967	0.00643944	-0.0737305	0.699463	0.772705	0.537308	-0.698634	-0.250806	-0.400383	7.89524	-5.63257	-0.934169	-0.026356	0.063674	-0.00308852	-0.588867	0.868408	0.239502	0.718406	-0.525778	-0.3662	-0.270829	7.98671	-4.94306	1.87657	0.0162068	-0.0146931	-0.0325986	-0.642578	0.84082	-0.268799	0.225129	-0.146346	-0.206949	-0.940783	3.74692	3.84603	9.02842	0.0612507	0.0424237	0.0222066	-0.713379	-0.134033	-0.765625	0.167812	-0.669383	-0.262955	-0.674255	10.0217	0.970779	-0.220577	0.239498	0.0477773	-0.0438761	-1.06665	0.112061	0.391846	
51	-0.88737	0.413441	-0.0314963	0.201619	1.29453	-7.87046	7.00734	-0.0142875	0.0647676	0.0311939	0.3396	0.881104	-0.532959	0.475439	-0.866532	-0.0810542	-0.128491	2.87694	-8.02358	-5.04872	0.0727037	-0.0127994	-0.031325	0.24585	0.83374	0.578125	0.782159	-0.217079	0.576295	0.0948129	-9.36488	-2.33811	2.98727	-0.055592	-0.0437585	-0.0919634	0.960693	-0.0637207	0.184082	0.720596	0.200014	0.641365	-0.171423	-9.60718	0.750152	1.13848	-0.206761	-0.0400038	-0.0559901	1.00854	0.207031	0.254395	0.0517589	-0.739056	-0.0646507	-0.668534	10.3022	-0.17897	-0.837209	0.251628	0.0633263	-0.0624676	-0.940186	0.0393066	0.557861	-0.438024	-0.458248	0.514317	-0.577599	9.87554	1.58285	5.66731	0.0173088	0.0576919	0.025954	-1.04102	-0.500244	-0.0280762	0.317358	-0.886296	-0.30498	-0.144055	3.93763	-4.80617	-7.10316	0.346832	0.11565	-0.0832445	-0.0827637	0.708252	0.759766	0.537848	-0.698168	-0.25122	-0.400212	8.09644	-5.11743	-1.12482	0.00469618	-0.0157495	-0.0311467	-0.584473	0.866211	0.241699	0.717068	-0.527441	-0.36567	-0.271853	8.1845	-6.29833	1.47362	0.110897	0.0161426	-0.0414269	-0.647461	0.845215	-0.262207	0.224384	-0.146898	-0.206177	-0.941044	4.04006	3.24596	8.73219	-0.0397089	-0.0120206	-0.0198628	-0.711182	-0.134033	-0.763428	0.166102	-0.669587	-0.260811	-0.675307	10.3499	0.78588	-0.322044	-0.2797	0.0145668	0.0168318	-1.06421	0.112061	0.394043	
52	-0.887842	0.412558	-0.0324659	0.201192	1.1903	-7.71291	7.1788	0.0359205	0.0167972	0.0218937	0.344238	0.876709	-0.535156	0.475687	-0.86662	-0.0815499	-0.126656	3.16177	-7.40252	-5.07102	-0.0684237	-0.0302425	-0.00353494	0.241211	0.835938	0.575684	0.78102	-0.219657	0.576588	0.096466	-9.54847	-3.07075	2.2771	-0.100779	0.0644738	0.0156799	0.967041	-0.0683594	0.186523	0.72063	0.199875	0.641339	-0.171542	-9.69771	0.425063	0.914162	0.143526	0.00827315	-0.0109617	1.01514	0.209229	0.256592	0.0510856	-0.73852	-0.0640558	-0.669235	9.78596	0.965494	-1.06611	-0.0731989	0.0762433	-0.0211204	-0.931641	0.0415039	0.555664	-0.438569	-0.457516	0.514265	-0.577813	9.54433	0.589656	5.04141	-0.0366074	0.0753096	-0.0050155	-1.03662	-0.504395	-0.0344238	0.3182	-0.886078	-0.305576	-0.142262	4.55539	-4.06728	-6.56234	-0.0907511	-0.027029	-0.0148333	-0.076416	0.712646	0.763916	0.539036	-0.697189	-0.25236	-0.399602	8.17245	-4.76003	-0.915649	0.100075	0.0389666	-0.00965712	-0.591309	0.872803	0.237061	0.718043	-0.525959	-0.366064	-0.271622	8.3258	-4.66817	1.8888	-0.153235	0.0147953	-0.0153952	-0.6521	0.843018	-0.268799	0.224996	-0.146073	-0.206756	-0.940899	3.90102	3.52603	9.40997	0.0694955	0.0727531	0.0309855	-0.713379	-0.131836	-0.765625	0.167431	-0.668451	-0.263377	-0.675109	9.29261	1.51278	-0.0260268	0.212248	0.0320435	-0.0745419	-1.07129	0.116211	0.391846	
53	-0.888214	0.41222	-0.0315277	0.200391	1.47099	-7.57355	7.15003	0.00970698	-0.0591043	0.029718	0.339844	0.874512	-0.537109	0.474956	-0.867104	-0.0824341	-0.125509	3.08289	-7.78333	-5.11565	-0.00255751	-0.0316725	-0.0261147	0.25	0.833984	0.580322	0.782188	-0.217068	0.5763	0.094559	-9.05956	-2.53839	2.79464	0.134595	-0.0254441	-0.00675099	0.965088	-0.0703125	0.186523	0.720787	0.199498	0.641359	-0.171248	-9.8328	0.678928	1.12716	-0.125195	-0.0037111	0.0169796	1.01099	0.204834	0.25	0.0515887	-0.738392	-0.0644754	-0.669297	9.77596	0.681225	-0.91888	0.0729911	-0.0176261	-0.072892	-0.942383	0.0371094	0.553467	-0.438377	-0.457617	0.514485	-0.577683	9.49941	1.25539	4.83073	-0.0628212	-0.00724789	-0.0624533	-1.04736	-0.502441	-0.0344238	0.321426	-0.884255	-0.306623	-0.144089	3.81566	-4.3037	-7.38156	0.15355	0.0521612	-0.0640456	-0.0854492	0.716797	0.761719	0.535433	-0.70012	-0.250608	-0.400425	7.98713	-5.52296	-0.944731	-0.263759	-0.0534788	-0.00991111	-0.588623	0.864014	0.246582	0.717755	-0.526523	-0.365359	-0.272239	8.21381	-5.80979	1.69231	0.137181	0.0300496	-0.0271426	-0.6521	0.842773	-0.266602	0.227025	-0.145972	-0.206391	-0.940507	3.9533	3.07066	9.11123	0.0877883	0.0454919	0.0385867	-0.711426	-0.125244	-0.772705	0.16578	-0.668614	-0.262726	-0.675609	10.02	0.676814	-0.158255	-0.0583457	-0.00377123	-0.0362737	-1.06445	0.116455	0.387207	
54	-0.888502	0.412486	-0.0307185	0.198685	1.39176	-7.97997	6.93474	0.00837571	-0.0670706	0.0471557	0.343994	0.881104	-0.537354	0.475021	-0.867156	-0.0829946	-0.124526	2.83123	-7.89695	-5.34828	0.0157332	-0.0235846	-0.0250029	0.250244	0.831787	0.575684	0.781659	-0.220121	0.575513	0.096646	-9.32655	-2.67723	2.44344	-0.146889	-0.0368366	-0.053545	0.969482	-0.0725098	0.186523	0.721157	0.198906	0.641279	-0.170675	-9.77402	0.599806	0.919681	0.0378252	-0.00282271	-0.0176285	1.01294	0.209229	0.254395	0.0508841	-0.739598	-0.062596	-0.668197	9.91515	-1.02221	-1.25005	0.0904318	-0.0421999	0.00922183	-0.936035	0.0458984	0.555664	-0.438132	-0.458719	0.514353	-0.577111	9.95241	0.871426	5.39509	0.0610945	-0.000847867	-0.0370662	-1.03882	-0.502197	-0.0280762	0.322365	-0.883398	-0.308418	-0.143414	4.6607	-4.4598	-6.951	0.0201944	0.108331	-0.0834776	-0.0830078	0.712646	0.755371	0.538831	-0.697555	-0.252304	-0.399276	8.06959	-4.67822	-0.772156	0.269004	0.0149081	-0.00435373	-0.582275	0.866211	0.237061	0.718043	-0.526407	-0.364895	-0.272326	8.04298	-5.31197	1.95712	-0.0503028	0.017031	-4.51915e-06	-0.64502	0.843018	-0.266602	0.22783	-0.145699	-0.207288	-0.940158	3.85318	3.86423	8.87574	-0.0671631	0.00604923	0.0347519	-0.715576	-0.134033	-0.767822	0.166934	-0.668527	-0.26491	-0.674557	9.8333	1.62208	-0.0699956	-0.0123427	-0.0338733	-0.0249011	-1.06421	0.112061	0.394043	
55	-0.888937	0.411926	-0.0311327	0.197834	1.44091	-7.82961	7.01317	0.0165635	0.0267457	0.0394589	0.344238	0.876709	-0.537109	0.475158	-0.867221	-0.0839328	-0.122918	3.02802	-7.53285	-5.14299	0.0139072	-0.100556	-0.0240878	0.25	0.83374	0.571045	0.782038	-0.218663	0.575544	0.0967045	-9.46564	-2.30287	2.63252	0.0914301	0.00607857	0.0524816	0.960693	-0.0703125	0.186523	0.721524	0.198314	0.641405	-0.169331	-9.84451	0.761202	1.03485	-0.114176	0.01868	0.0476415	1.01099	0.202637	0.256836	0.0523921	-0.7396	-0.0654245	-0.667807	10.0729	0.525788	-0.722791	0.241168	-0.0204199	-0.101559	-0.933838	0.0437012	0.555664	-0.43849	-0.459496	0.514226	-0.576334	9.86493	0.754567	6.11846	-0.00542026	0.0093286	-0.0701967	-1.04077	-0.504395	-0.0280762	0.322621	-0.883035	-0.308651	-0.144567	3.92373	-4.32265	-7.01121	-0.0481014	-0.078756	-0.053992	-0.0874023	0.716797	0.759521	0.53879	-0.697511	-0.251495	-0.399918	7.95977	-5.40231	-0.815968	-0.0367256	0.0547406	-0.00953951	-0.582275	0.868408	0.241699	0.719135	-0.525186	-0.365167	-0.271438	8.21711	-5.41556	1.79236	0.090871	0.00699325	-0.00673142	-0.646973	0.83374	-0.268799	0.229526	-0.144955	-0.206463	-0.940042	4.0361	3.17218	9.14031	0.00168597	0.0616362	0.0636922	-0.713623	-0.129639	-0.765625	0.167772	-0.668297	-0.266935	-0.673778	9.54594	1.52112	-0.408204	0.131497	-0.0116639	-0.0409873	-1.06201	0.112061	0.394043	
56	-0.889454	0.411142	-0.0316724	0.197053	1.28704	-7.82584	7.08676	0.0269489	-0.0016668	0.0489129	0.348633	0.874756	-0.539307	0.475021	-0.867267	-0.0843467	-0.122836	2.83961	-7.99717	-4.90538	-0.0162496	0.000604141	-0.0344638	0.25415	0.838135	0.568359	0.781817	-0.219618	0.575264	0.0979884	-9.16905	-2.76363	2.85258	-0.0771925	0.0052399	0.0292244	0.958496	-0.065918	0.186523	0.720924	0.199232	0.641586	-0.170123	-9.74173	0.813435	1.29076	0.0603435	0.0309417	-0.00720001	1.01294	0.207031	0.256592	0.0505876	-0.739566	-0.0631589	-0.668202	10.1139	0.453932	-0.900587	-0.102432	0.0637318	-0.0143299	-0.933594	0.0393066	0.5625	-0.43895	-0.458755	0.514093	-0.576693	9.77624	0.384303	4.90224	0.0568674	-0.00144916	0.0282823	-1.04077	-0.504395	-0.0300293	0.324383	-0.881865	-0.310115	-0.144633	4.2519	-4.73047	-7.00633	0.152263	0.106986	-0.0728316	-0.0898438	0.718994	0.755127	0.538584	-0.697753	-0.251322	-0.399882	7.6987	-5.54357	-0.898796	-0.0685647	0.0203372	-0.0206215	-0.593018	0.864014	0.237061	0.718865	-0.525791	-0.364458	-0.271932	8.08956	-5.47263	1.74391	-0.0524509	0.0307292	-0.0109602	-0.646973	0.836182	-0.264404	0.230006	-0.144859	-0.207998	-0.939601	4.20426	4.33746	8.91032	0.102113	-0.0130623	0.0148017	-0.711426	-0.125244	-0.768066	0.166992	-0.668836	-0.266265	-0.673703	9.65166	1.14331	-0.748551	-0.0370409	0.00503832	0.0168089	-1.07104	0.111816	0.387207	
57	-0.889635	0.410928	-0.0318183	0.196663	1.22919	-7.96477	7.00006	0.017573	-0.00398268	0.0362163	0.348633	0.876953	-0.539307	0.475628	-0.866978	-0.0846989	-0.122284	2.96979	-7.77785	-5.07614	0.0545311	-0.0344056	-0.0202279	0.251953	0.840332	0.565918	0.781803	-0.219175	0.575354	0.098567	-9.6063	-2.44124	2.54606	0.00114605	-0.000944094	0.0591544	0.962891	-0.074707	0.184326	0.7207	0.198003	0.642739	-0.168146	-9.73547	0.3407	0.685053	0.00601649	0.0534646	-0.00304562	1.00879	0.202637	0.259033	0.0498786	-0.738948	-0.0619937	-0.669048	9.80057	0.059727	-1.6608	0.0283793	0.0934096	0.0135371	-0.935547	0.0349121	0.560303	-0.439942	-0.457332	0.515248	-0.576037	9.78886	0.8663	4.76597	-0.201204	0.047158	0.00362983	-1.03418	-0.508789	-0.0322266	0.324691	-0.881746	-0.310071	-0.14476	3.79372	-4.48064	-6.98865	-0.0440513	-0.0144613	-0.0010035	-0.0874023	0.714844	0.750977	0.53935	-0.697112	-0.251824	-0.399651	8.18028	-5.74806	-0.651179	0.0956087	0.0652495	-0.0205154	-0.59082	0.862061	0.230225	0.719272	-0.524982	-0.364791	-0.271972	8.15591	-5.30841	2.01931	0.0665843	0.00317304	-0.0372583	-0.647217	0.84082	-0.270996	0.229241	-0.145162	-0.207072	-0.939946	4.21246	2.50659	8.88938	0.088807	0.0306584	-0.0403425	-0.711426	-0.129639	-0.768066	0.167003	-0.668865	-0.266017	-0.673769	10.2217	1.64707	-0.595955	-0.0118576	0.0108755	0.00841937	-1.06421	0.109863	0.396484	
58	-0.88964	0.410745	-0.0321958	0.19696	1.1718	-7.9005	7.08968	-0.00502963	0.0122844	-0.010143	0.348633	0.874756	-0.539307	0.475596	-0.867013	-0.0847367	-0.122133	2.60668	-7.83965	-5.20165	-0.00427449	-0.000579985	-0.00846567	0.252197	0.83374	0.568604	0.781473	-0.219358	0.57557	0.0995049	-9.26195	-2.58151	2.74472	-0.0149612	0.00514808	0.0248646	0.95874	-0.0725098	0.179688	0.720076	0.198668	0.643033	-0.168907	-9.68481	0.940547	0.97636	0.0827985	0.0512682	-0.0215746	1.00415	0.204834	0.258789	0.0494347	-0.738638	-0.0614045	-0.669477	10.066	0.525398	-1.30507	-0.0583304	0.0506752	-0.00623933	-0.936035	0.0415039	0.560303	-0.438883	-0.457744	0.515106	-0.576644	9.68053	0.81643	4.37421	0.0832192	-0.0264394	0.0374179	-1.03882	-0.502197	-0.0322266	0.322039	-0.882859	-0.310627	-0.142692	4.01537	-4.31179	-7.21493	-0.141397	-0.229539	-0.00658269	-0.0854492	0.716797	0.761719	0.5399	-0.696555	-0.252642	-0.399363	7.60971	-4.88273	-0.569097	0.0904654	-0.00694815	-0.0423775	-0.584473	0.868408	0.22998	0.718708	-0.525607	-0.364802	-0.272242	7.87581	-5.54673	2.0668	-0.0612357	-0.0143755	-0.0287092	-0.64502	0.843018	-0.268799	0.229503	-0.145044	-0.208718	-0.939536	3.66412	3.96994	9.00098	0.137559	-0.00883409	0.00896183	-0.711182	-0.131836	-0.770264	0.165782	-0.668861	-0.265157	-0.674414	9.20156	1.0256	-0.435156	0.0196673	0.0209301	-0.0283481	-1.06396	0.105225	0.394287	
59	-0.889867	0.40987	-0.0315187	0.197862	1.32984	-7.74719	7.16986	0.056944	-0.00724559	-0.0411768	0.344482	0.870361	-0.539307	0.475125	-0.867336	-0.0846809	-0.121712	2.90107	-7.61463	-5.10249	-0.00590552	-0.00570301	-0.0112999	0.254395	0.835938	0.573242	0.781225	-0.219668	0.575633	0.100395	-9.22803	-2.36833	2.49931	-0.0876386	0.0185964	0.00235361	0.965088	-0.074707	0.182129	0.719913	0.198342	0.643656	-0.167607	-9.59286	0.445035	0.656972	0.0530952	0.0188207	0.014285	1.01318	0.202637	0.259033	0.0526519	-0.73854	-0.0648311	-0.669016	9.51505	0.0936896	-1.10878	0.369066	0.0156535	-0.0654969	-0.936035	0.0458984	0.555664	-0.438585	-0.458223	0.514362	-0.577154	9.70148	1.42595	5.8862	-0.065626	0.0748762	-0.0503381	-1.03662	-0.502197	-0.0344238	0.320268	-0.883635	-0.310842	-0.1414	4.10654	-4.28829	-6.92866	-0.0215383	-0.033522	-0.0215264	-0.0830078	0.712646	0.759521	0.537689	-0.698474	-0.251125	-0.399951	7.99161	-5.75118	-0.895072	-0.060634	0.000953026	-0.0133243	-0.588379	0.859863	0.234863	0.717214	-0.52748	-0.364344	-0.27317	8.19935	-5.37162	1.69864	-0.103169	0.00871337	-0.023627	-0.654297	0.840576	-0.264404	0.229089	-0.146093	-0.206105	-0.940051	4.3603	2.85093	9.17288	-0.0598218	0.00968729	-0.002733	-0.711426	-0.129639	-0.774902	0.165177	-0.668578	-0.26461	-0.675056	10.4386	0.917404	-0.259283	0.0321627	0.0437139	0.00967157	-1.06152	0.10083	0.39209	
60	-0.89074	0.408048	-0.0302249	0.197903	1.34487	-7.54845	7.04075	0.103847	-0.0434596	-0.0154231	0.342041	0.874512	-0.543701	0.475241	-0.867394	-0.0847104	-0.120818	3.03835	-7.68288	-4.91236	-0.0229319	-0.0343433	-0.00848783	0.252197	0.83374	0.571045	0.781861	-0.218272	0.575312	0.100333	-9.34326	-2.15425	2.68729	0.0892904	-0.0350685	0.025814	0.963135	-0.083252	0.182373	0.719991	0.198487	0.643767	-0.166674	-9.70371	0.564017	0.698027	-0.120785	0.0187304	0.0467091	1.01123	0.196045	0.259033	0.0470693	-0.739714	-0.0605688	-0.668535	9.72782	-0.854665	-0.978876	-0.460466	-0.0786363	0.0400648	-0.935791	0.0371094	0.560303	-0.437539	-0.458997	0.513176	-0.578387	9.87609	0.655154	5.72954	0.208252	0.00791866	0.00780562	-1.03638	-0.504395	-0.0258789	0.320756	-0.883508	-0.310913	-0.140935	4.2165	-4.38272	-6.68056	0.06677	-0.0118317	-0.00826682	-0.083252	0.716797	0.757324	0.537229	-0.698838	-0.251125	-0.399934	8.14154	-6.01331	-0.913827	0.00286711	0.067087	-0.0201068	-0.586426	0.864014	0.237061	0.71729	-0.527088	-0.364673	-0.273287	8.35051	-5.48091	1.87037	0.0737533	0.000811832	-0.0390819	-0.647461	0.843018	-0.266602	0.229674	-0.145264	-0.20797	-0.939626	3.66672	3.53712	9.10808	0.120389	0.0455563	0.0434559	-0.716064	-0.125244	-0.770264	0.165021	-0.668261	-0.264978	-0.675264	9.69596	1.26619	-0.121604	0.0151634	0.0266801	-0.0420312	-1.06616	0.103027	0.394287	
61	-0.891295	0.40739	-0.0303894	0.196731	1.36774	-7.53526	7.09533	-0.00773718	-0.010082	0.0876258	0.346436	0.874756	-0.547852	0.475197	-0.867436	-0.0845119	-0.120828	2.86581	-7.70377	-4.87403	-0.0567092	0.111937	-0.0225466	0.260742	0.838135	0.575439	0.782331	-0.217415	0.575105	0.0997141	-9.36955	-2.7604	2.76911	0.0916767	-0.0258323	-0.00125782	0.960693	-0.0725098	0.184326	0.719804	0.200927	0.642875	-0.167992	-9.60956	1.29358	1.37703	0.0732926	-0.0154988	0.0302241	1.00903	0.196045	0.259033	0.0489284	-0.739346	-0.0645503	-0.668436	10.5601	1.28048	-0.872337	0.056476	0.0166337	-0.0596943	-0.931396	0.0349121	0.555664	-0.43885	-0.458092	0.513019	-0.578251	9.86886	0.66055	4.30986	-0.133957	0.00665803	-0.0291002	-1.03638	-0.506592	-0.0300293	0.322123	-0.88291	-0.311367	-0.140558	4.40094	-4.27817	-7.50929	0.121572	0.0731052	-0.0350143	-0.083252	0.716797	0.755371	0.53835	-0.697954	-0.25184	-0.399519	8.01204	-4.5984	-0.988729	-0.0546968	0.0192642	-0.0132259	-0.58667	0.866211	0.244141	0.717039	-0.527423	-0.364497	-0.273537	8.32925	-5.47164	1.61697	-0.0405896	0.0122138	-0.0186514	-0.651855	0.838379	-0.266602	0.230627	-0.145435	-0.206838	-0.939616	4.17366	3.19619	9.12135	-0.102745	0.0288173	0.0375083	-0.709229	-0.127441	-0.772705	0.165812	-0.66674	-0.267534	-0.675566	10.287	1.30346	-0.174104	0.0358148	0.0396744	-0.0370929	-1.06616	0.103027	0.382812	
62	-0.891544	0.407434	-0.0305209	0.195488	1.65256	-7.68524	7.06331	-0.0104451	-0.00099326	0.0357005	0.348877	0.868164	-0.541504	0.475496	-0.867504	-0.0846558	-0.119051	3.07401	-8.02963	-5.47322	0.0692731	0.0259232	0.0148356	0.256592	0.831543	0.566406	0.781649	-0.221066	0.574079	0.102895	-9.4814	-3.02862	2.79902	-0.31488	0.0237776	-0.00133539	0.962891	-0.074707	0.184326	0.720567	0.19871	0.643282	-0.165788	-9.81092	0.181887	0.854943	0.0931843	-0.0297614	-0.017233	1.01123	0.196045	0.263428	0.0457588	-0.739832	-0.0596223	-0.668581	9.46379	-0.182664	-1.00352	-0.081619	-0.0179896	-0.0177684	-0.933105	0.0283203	0.5625	-0.438684	-0.457826	0.51351	-0.578152	9.51025	0.662209	5.11409	0.0395399	0.0224162	0.0123114	-1.03687	-0.498047	-0.0324707	0.323635	-0.882439	-0.310676	-0.141569	3.80626	-4.59656	-7.17739	0.0612856	0.0389099	0.0213406	-0.0854492	0.716797	0.753174	0.536616	-0.699142	-0.251117	-0.400229	7.79594	-5.4571	-0.698264	-0.180591	0.0142883	-0.0380072	-0.584473	0.866211	0.239502	0.717	-0.527488	-0.36453	-0.273467	8.03673	-5.27923	1.85328	-0.0155147	-0.00907173	-0.0131958	-0.649414	0.835938	-0.262207	0.231362	-0.144755	-0.206112	-0.9397	3.82788	3.7519	8.78276	0.00219227	0.0464954	0.0380917	-0.707275	-0.123047	-0.765869	0.166281	-0.665952	-0.268506	-0.675842	9.21777	1.09624	-0.493959	0.016054	0.0388543	-0.0302726	-1.06836	0.103027	0.389648	
63	-0.891819	0.406807	-0.0317284	0.195345	1.2667	-8.09846	7.05372	0.0470752	0.0489046	0.010242	0.351318	0.868164	-0.547852	0.475951	-0.867402	-0.0848351	-0.117845	2.84423	-7.66797	-5.47241	-0.0169533	-0.126604	-0.00637984	0.260986	0.835938	0.570801	0.78254	-0.217111	0.574682	0.101169	-9.18938	-2.13348	2.61806	0.241881	0.00900096	0.06303	0.962891	-0.0769043	0.182129	0.720109	0.198974	0.643943	-0.164894	-9.63893	0.552546	1.06942	-0.113959	0.0824541	0.0276614	1.01123	0.196045	0.263428	0.0471604	-0.739222	-0.0575033	-0.669343	9.97054	-0.0158555	-0.810204	-0.00707705	0.0705289	0.0826393	-0.933594	0.0371094	0.5625	-0.437771	-0.457958	0.512767	-0.579397	9.82269	1.05066	5.59182	0.129806	0.0437001	-2.46303e-05	-1.04321	-0.500244	-0.0280762	0.321532	-0.883434	-0.311169	-0.139048	4.41109	-4.31191	-6.79339	-0.19448	-0.118429	-0.0128086	-0.0808105	0.710449	0.759766	0.536581	-0.6989	-0.251315	-0.400576	7.75288	-5.09219	-0.916487	-0.0230878	-0.056162	-0.028065	-0.58667	0.866211	0.246338	0.718177	-0.525676	-0.365316	-0.27282	7.8903	-5.73872	1.87291	0.208203	0.00362277	-0.0352296	-0.649658	0.840576	-0.268799	0.231819	-0.14563	-0.205216	-0.939648	4.02432	3.31697	9.20775	-0.0635287	0.0179195	0.027396	-0.713867	-0.12085	-0.772705	0.16571	-0.66595	-0.26845	-0.676007	10.4807	1.52249	-0.121673	-0.055442	-0.008648	-0.0338785	-1.06152	0.0986328	0.389648	
64	-0.892104	0.405752	-0.0322535	0.196152	1.10614	-7.57349	7.14175	0.0122114	0.0277131	-0.0152335	0.349121	0.86377	-0.545654	0.475827	-0.867422	-0.0838707	-0.118885	2.67944	-7.7701	-4.87766	-0.0129953	0.00144322	-0.0152257	0.263184	0.82959	0.568848	0.781963	-0.216499	0.575602	0.101706	-9.11817	-2.67064	2.75568	0.0091043	0.0484098	0.0394454	0.960938	-0.0854492	0.182373	0.71825	0.202226	0.644435	-0.167106	-9.67643	1.03191	1.06781	0.140972	0.0663889	0.00924929	1.01123	0.196045	0.26123	0.0479594	-0.738756	-0.0576684	-0.669787	9.71429	0.0560817	-1.28558	0.0125914	0.0206621	0.014006	-0.935791	0.0371094	0.553467	-0.437554	-0.456386	0.514045	-0.57967	9.94608	1.29174	5.65162	-0.134224	0.0283928	0.0805758	-1.03662	-0.502197	-0.0344238	0.323601	-0.882719	-0.31099	-0.139192	4.35628	-4.51549	-7.58779	0.176977	0.0828935	-0.00376275	-0.0788574	0.718994	0.750977	0.537131	-0.698365	-0.250942	-0.401004	7.89724	-5.14899	-0.758133	0.0421948	0.0333166	-0.0345002	-0.586426	0.859619	0.239502	0.71635	-0.528332	-0.364269	-0.273891	8.26217	-6.18351	1.60679	-0.16242	0.00914185	-0.00811766	-0.642578	0.840576	-0.262207	0.232159	-0.145028	-0.206043	-0.939476	3.65726	3.68925	9.17604	0.0138793	0.0123993	0.0022858	-0.709229	-0.125244	-0.768066	0.166146	-0.665699	-0.268723	-0.676039	9.20854	1.74065	-0.262046	-0.0373617	0.0213817	0.00429498	-1.06372	0.0986328	0.389648	
65	-0.892051	0.405763	-0.0325131	0.196328	1.17459	-7.58861	7.11769	-0.00637782	0.0200329	-0.00440422	0.351318	0.865967	-0.545654	0.475824	-0.867419	-0.0834255	-0.119227	2.71247	-7.81039	-5.05138	-0.04727	0.0900351	-0.0103066	0.260986	0.835938	0.570801	0.78192	-0.215007	0.576224	0.101677	-9.4424	-2.23439	2.45352	0.101054	0.0363681	0.077694	0.963135	-0.0791016	0.188965	0.717013	0.202527	0.64582	-0.166707	-9.93919	0.712073	0.292834	0.0589987	0.0703942	-0.0217852	1.00659	0.200439	0.265625	0.0463869	-0.738445	-0.0551807	-0.670449	9.82556	0.280728	-1.57981	-0.159285	0.0486618	0.0186206	-0.93335	0.0305176	0.553467	-0.438508	-0.45555	0.514213	-0.579457	9.66732	1.717	5.03396	-0.0813682	0.0722069	-0.0221164	-1.04346	-0.493652	-0.034668	0.322903	-0.883183	-0.310268	-0.139481	4.05688	-4.42205	-7.37545	0.156217	-0.0249238	-0.0177274	-0.0788574	0.717041	0.755371	0.535546	-0.699776	-0.2502	-0.401128	8.11193	-5.73024	-1.00886	-0.0869795	0.0532203	0.00431066	-0.586182	0.857422	0.249023	0.717671	-0.52638	-0.365179	-0.272978	8.19431	-4.52998	2.04169	-0.0962957	-0.00538323	-0.00967224	-0.649658	0.840576	-0.264404	0.231811	-0.145104	-0.205237	-0.939727	4.01619	3.32677	9.02182	0.0331162	0.0374846	-0.00647471	-0.709717	-0.116455	-0.766113	0.16562	-0.666006	-0.267825	-0.676222	9.93977	1.33924	-0.382705	-0.0807486	0.000740705	0.0189812	-1.073	0.10083	0.387451	
66	-0.891852	0.406287	-0.0328095	0.196095	1.17106	-7.72813	7.18896	-0.0316754	-0.00718938	0.0153167	0.351318	0.868164	-0.547852	0.475828	-0.867453	-0.0835485	-0.118879	2.88904	-7.90769	-5.22634	-0.0026853	-0.019656	-0.0163278	0.262939	0.835938	0.573242	0.781484	-0.214818	0.576894	0.101632	-9.35291	-2.46405	2.63511	-0.0101036	0.0405396	0.00378447	0.961182	-0.0876465	0.184814	0.716763	0.202714	0.645706	-0.167993	-9.59112	0.937691	0.631825	-0.032377	-0.0167979	-0.0177499	1.00684	0.196045	0.267822	0.0512846	-0.738356	-0.0613972	-0.669649	10.1297	0.398938	-0.944734	0.42875	-0.0257528	-0.0954702	-0.931641	0.0437012	0.555664	-0.438718	-0.456056	0.514578	-0.578575	9.65244	1.01746	4.95177	-0.0223444	-0.0256755	-0.031951	-1.04126	-0.49585	-0.034668	0.323703	-0.883022	-0.309558	-0.140219	4.1526	-4.33922	-7.25428	0.14514	0.13856	0.00633656	-0.0791016	0.721191	0.748779	0.537319	-0.698389	-0.250339	-0.401088	8.09982	-5.29447	-1.19247	0.0995614	0.0447597	-0.018022	-0.588867	0.866211	0.237061	0.71567	-0.529326	-0.364086	-0.273992	8.13457	-5.6814	1.55875	-0.300163	-0.0124176	0.0117589	-0.647461	0.847412	-0.26001	0.231572	-0.145019	-0.205417	-0.939759	3.84016	3.58016	9.11142	0.0145864	0.0127583	-0.019225	-0.711426	-0.125244	-0.772705	0.166028	-0.666264	-0.267243	-0.676097	9.51862	1.12765	-0.229728	0.0052482	0.0131136	0.0270771	-1.06396	0.103027	0.382812	
67	-0.892045	0.405808	-0.0329509	0.196191	1.25392	-7.72845	7.15888	0.0458809	0.0150532	0.0010668	0.353516	0.866211	-0.545654	0.476055	-0.867318	-0.0836949	-0.118853	2.79244	-7.45533	-4.94219	-0.0265108	-0.0373354	-0.021264	0.258789	0.83374	0.573242	0.781532	-0.214674	0.576876	0.101669	-9.30567	-1.7354	2.5477	-0.044704	0.0108063	0.00260429	0.960938	-0.0854492	0.191406	0.717147	0.202065	0.645455	-0.1681	-9.6981	0.593499	0.391675	0.118245	-0.0216779	-0.02722	1.01147	0.193848	0.265625	0.0510847	-0.738475	-0.0607703	-0.669591	9.70059	0.831974	-0.872331	-0.0461534	0.000321744	0.0117327	-0.933838	0.0415039	0.560303	-0.438188	-0.456898	0.513523	-0.57925	9.80343	1.14025	5.13282	0.12405	0.00886909	-0.039977	-1.03687	-0.498047	-0.034668	0.322792	-0.88361	-0.308646	-0.140627	4.00688	-4.48869	-6.72352	-0.1355	-0.0784804	0.018637	-0.0808105	0.712646	0.755371	0.537801	-0.698062	-0.250203	-0.401096	7.85249	-5.23719	-0.959775	0.0223357	0.0329469	0.00756697	-0.588379	0.859619	0.241943	0.718326	-0.525508	-0.365558	-0.272427	8.05488	-5.32422	1.9614	0.202646	0.00984379	-0.0345707	-0.649658	0.843018	-0.273438	0.231942	-0.145702	-0.203363	-0.940009	4.3692	2.78928	8.88533	-0.0788841	0.0379094	0.0427232	-0.71167	-0.123047	-0.770508	0.166104	-0.666202	-0.267055	-0.676214	10.1722	1.23939	-0.304899	0.0163821	0.00775758	-0.010266	-1.06396	0.105225	0.380615	
68	-0.892123	0.405927	-0.0323257	0.195691	1.12291	-7.68886	7.14548	-0.0157891	-0.0547774	-0.0065506	0.349121	0.865967	-0.547852	0.475038	-0.867646	-0.0833582	-0.120748	2.68376	-7.70814	-5.1015	-0.02943	0.0824124	-0.0639065	0.254639	0.827393	0.578369	0.781675	-0.215806	0.576452	0.100573	-9.01917	-2.39102	2.66595	0.0560561	-0.0129103	-0.0764138	0.965332	-0.0834961	0.18457	0.718033	0.201297	0.64465	-0.168331	-9.85487	0.51966	0.632271	-0.045929	-0.0634389	-0.0225323	1.01099	0.204834	0.263428	0.051077	-0.739148	-0.0586382	-0.669039	9.98706	0.26599	-0.984659	-0.00320949	0.0189169	0.0392288	-0.933838	0.0415039	0.553467	-0.438786	-0.457954	0.514121	-0.57743	9.82008	0.446749	5.73312	-0.0283668	0.0142982	-0.0841816	-1.03027	-0.500244	-0.034668	0.32976	-0.880753	-0.308297	-0.143129	4.09706	-4.63036	-7.2315	0.392197	0.358921	-0.0544516	-0.0964355	0.723389	0.746582	0.537059	-0.698678	-0.249234	-0.401621	7.79262	-5.11577	-1.18892	-0.104557	0.0524133	0.00422064	-0.586426	0.864014	0.241699	0.715906	-0.529056	-0.363988	-0.274029	8.26943	-5.3281	1.34486	-0.235841	0.0187708	0.00180977	-0.649658	0.840576	-0.253174	0.232866	-0.145017	-0.206215	-0.939265	3.83112	3.9288	8.97545	0.0990076	0.00429928	0.0260721	-0.704834	-0.127441	-0.765625	0.166878	-0.665941	-0.267698	-0.676027	9.61134	1.67625	-0.276697	0.0189083	0.0150521	0.00292342	-1.0686	0.105225	0.38501	
69	-0.891922	0.406294	-0.0319151	0.195913	1.36725	-7.73164	7.15347	-0.0260552	-0.0314062	-0.0324707	0.351074	0.870361	-0.547852	0.475015	-0.867505	-0.0833296	-0.121868	2.87597	-7.8594	-4.98547	-0.0344544	0.0537619	-0.0352258	0.254395	0.833984	0.582764	0.781723	-0.216563	0.576204	0.0999934	-9.59593	-2.35836	2.43924	-0.0224609	-0.00452757	-0.0456735	0.95874	-0.0744629	0.184326	0.718437	0.201135	0.644075	-0.168997	-9.65181	0.694458	0.800933	0.02553	-0.0613025	-0.0305688	1.01758	0.202637	0.265625	0.0490725	-0.73957	-0.055783	-0.668966	10.1589	-0.187919	-1.03621	-0.229701	-0.0164635	0.0509662	-0.933838	0.0437012	0.555664	-0.438212	-0.457521	0.514184	-0.578152	9.86687	1.0976	5.48434	0.0730075	0.0468176	0.0158591	-1.03687	-0.49585	-0.0302734	0.330158	-0.880561	-0.308342	-0.143295	3.57148	-4.41531	-6.92738	0.0457173	0.0316147	-0.0230788	-0.0878906	0.727783	0.746582	0.536085	-0.699402	-0.249067	-0.401766	8.26344	-5.85827	-0.673019	0.0171152	0.0324144	-0.026892	-0.58667	0.868408	0.244141	0.717347	-0.527216	-0.363904	-0.273917	8.15413	-5.31116	2.09928	0.164159	0.0456312	-0.0301094	-0.649658	0.843018	-0.268799	0.232531	-0.145955	-0.203522	-0.93979	4.32834	2.47723	9.11778	-0.071841	0.032833	0.0144567	-0.714355	-0.114258	-0.772949	0.165146	-0.666249	-0.265838	-0.676883	10.1269	1.11865	-0.42765	-0.0902891	0.0178212	-0.0277643	-1.06836	0.103027	0.387451	
70	-0.891177	0.407424	-0.0315455	0.197014	1.55651	-7.51869	7.2899	-0.0551694	0.0232955	-0.0328597	0.34668	0.870361	-0.543701	0.474821	-0.867466	-0.083586	-0.122725	2.71417	-7.9218	-5.04479	-0.0248414	0.0543223	-0.0547974	0.250244	0.827393	0.578369	0.782147	-0.216868	0.575732	0.0987281	-9.56032	-2.54432	2.49476	-0.0167947	-0.000890478	-0.0310399	0.962891	-0.0769043	0.179932	0.719289	0.200788	0.643133	-0.169377	-9.86133	0.575831	0.987257	-0.00303423	-0.0517774	-0.00219534	1.01099	0.204834	0.256592	0.0494732	-0.738672	-0.0566549	-0.669856	9.88859	-0.204795	-1.51307	0.081422	0.0405498	-0.0231039	-0.929199	0.0393066	0.557861	-0.438126	-0.456821	0.514888	-0.578144	9.76857	0.96213	4.73388	-0.0954496	-0.0251147	0.0355601	-1.04126	-0.49585	-0.0324707	0.330283	-0.880571	-0.308511	-0.142576	4.714	-4.75131	-7.49702	0.229488	0.0890426	-0.0366374	-0.0859375	0.72998	0.742188	0.538539	-0.697351	-0.250483	-0.401167	8.063	-4.37753	-0.913168	0.137619	0.0142639	-0.00367237	-0.588623	0.861816	0.237061	0.717684	-0.526647	-0.363781	-0.274292	8.21311	-5.29461	1.8203	0.0645509	0.0310346	-0.0321306	-0.646973	0.836182	-0.264404	0.233057	-0.145324	-0.206148	-0.939185	4.17675	4.42306	9.02447	0.00444676	0.00534877	0.0108891	-0.713867	-0.125244	-0.768066	0.165071	-0.665985	-0.265788	-0.67718	9.78925	0.856921	-0.305122	0.0988464	0.0458419	0.0289696	-1.06616	0.103027	0.387451	
71	-0.89054	0.408783	-0.0316822	0.197058	1.11173	-8.01098	7.26295	-0.0394018	-0.0427693	0.00783415	0.346436	0.874756	-0.543701	0.475723	-0.866893	-0.0838086	-0.123125	2.86785	-7.84292	-5.12658	0.0334518	0.110136	-0.0334138	0.250244	0.831543	0.568604	0.782707	-0.218015	0.574683	0.0978673	-9.17996	-2.76386	2.65109	0.0194849	-0.0250033	-0.0729697	0.967285	-0.0725098	0.184326	0.720391	0.200655	0.641667	-0.170405	-9.59641	0.440675	0.994716	0.031011	-0.0888407	-0.0108414	1.01099	0.202637	0.254639	0.0506171	-0.738759	-0.0575756	-0.669595	10.1531	-0.0440081	-0.933605	-0.0512415	0.0039751	0.0290079	-0.937988	0.0415039	0.551025	-0.43625	-0.458089	0.514495	-0.578909	9.81511	1.20011	4.90152	0.084541	-0.0466187	-0.0199928	-1.03711	-0.491455	-0.0241699	0.331189	-0.880421	-0.308056	-0.142387	3.90722	-4.34694	-6.61297	-0.134251	-0.144144	0.00763665	-0.0944824	0.727783	0.748535	0.536027	-0.699366	-0.249013	-0.401939	7.87394	-5.45067	-0.503862	-0.122123	-0.018834	-0.0280982	-0.590576	0.859619	0.248779	0.717006	-0.527549	-0.36318	-0.275128	8.28089	-5.20906	1.83295	-0.111568	0.0353123	-0.029623	-0.647217	0.840576	-0.268799	0.232817	-0.146097	-0.204288	-0.939531	3.87149	2.20095	9.07085	0.0301826	0.00918494	0.0140568	-0.711914	-0.118652	-0.765869	0.164403	-0.665895	-0.2645	-0.677934	9.96243	0.636089	-0.228319	-0.0553523	0.0285002	-0.0171152	-1.06592	0.0964355	0.389893	
72	-0.891018	0.408378	-0.0297356	0.196033	1.63703	-7.9524	6.97574	0.0673236	-0.0598406	-0.0138271	0.346436	0.874756	-0.541504	0.477134	-0.866114	-0.0833883	-0.123436	2.99132	-7.65008	-4.98134	0.0699112	0.0619864	-0.0101372	0.252441	0.82959	0.573486	0.783895	-0.217051	0.573621	0.0967306	-9.19273	-2.58398	2.53628	0.0510861	-0.0510747	-0.006045	0.960693	-0.0703125	0.184326	0.721495	0.201738	0.640065	-0.17048	-9.54972	0.28718	1.29696	0.0334961	-0.0473389	0.0615018	1.01318	0.204834	0.256592	0.0500947	-0.738861	-0.0564706	-0.669616	9.66398	0.23041	-0.868391	0.020734	-0.00865595	-0.0284012	-0.931885	0.0480957	0.553467	-0.437887	-0.457317	0.515756	-0.577158	9.52403	0.20634	5.27331	-0.0945484	0.0354511	-0.0447902	-1.03442	-0.500244	-0.0258789	0.329316	-0.881623	-0.307573	-0.140325	4.44082	-4.52464	-6.79757	-0.0934417	-0.0551826	0.0457099	-0.0834961	0.725586	0.744385	0.537299	-0.698262	-0.249455	-0.401886	8.13723	-5.26561	-0.789858	0.0574292	0.0131391	-0.00633165	-0.588623	0.864014	0.241699	0.718271	-0.525704	-0.363348	-0.275137	8.22809	-5.5677	2.00241	0.135259	0.0227437	-0.0259758	-0.647217	0.838379	-0.266602	0.234137	-0.145486	-0.205448	-0.939045	3.71489	4.17851	9.03469	-0.0336543	0.0348639	0.058026	-0.704834	-0.123047	-0.763672	0.166185	-0.664698	-0.266932	-0.677722	9.37471	1.3609	-0.311441	0.126959	0.0407057	-0.0240988	-1.06836	0.10083	0.380615	
73	-0.891257	0.407743	-0.0293072	0.196337	1.42652	-7.39579	6.90866	-0.0027621	-0.00254604	-0.000406545	0.34668	0.872559	-0.541504	0.477287	-0.865896	-0.0830399	-0.1246	2.81099	-7.81723	-5.23964	-0.00805094	0.0510223	-0.0335364	0.247559	0.840332	0.568359	0.784458	-0.216472	0.573123	0.0964127	-9.33572	-2.48674	2.55934	0.0574606	-0.0496488	-0.00620986	0.967285	-0.0703125	0.179688	0.721593	0.203951	0.639459	-0.169704	-9.66599	0.703805	1.39185	0.0196949	0.0197369	0.0884214	1.00879	0.202637	0.252441	0.0511646	-0.738723	-0.0563013	-0.669702	10.0301	-0.280587	-0.921438	0.0504855	0.0196122	0.00763694	-0.936035	0.0458984	0.560303	-0.436181	-0.458425	0.513676	-0.579422	9.85478	1.07182	5.34136	0.141564	0.0195327	0.0208598	-1.03687	-0.49585	-0.0239258	0.32318	-0.884429	-0.305595	-0.141251	3.90739	-4.35565	-6.73916	-0.385314	-0.0316308	0.0430191	-0.0766602	0.714844	0.755371	0.537353	-0.698255	-0.248904	-0.402167	7.72451	-5.24731	-0.655631	0.0391898	0.0507991	-0.0117054	-0.584473	0.866211	0.239502	0.71709	-0.527362	-0.362705	-0.275894	8.0539	-5.75333	1.73103	-0.0948803	0.00426147	-0.0140356	-0.654297	0.840576	-0.262207	0.234439	-0.145047	-0.20476	-0.939187	3.81818	3.01189	9.07915	0.116474	0.0445608	-0.00655367	-0.709473	-0.123047	-0.770508	0.165797	-0.664675	-0.266619	-0.677962	10.1669	1.8194	-0.131326	-0.0389634	0.0161254	-0.0129022	-1.06616	0.103027	0.378418	
74	-0.891104	0.407889	-0.0301494	0.196597	1.47395	-7.63664	7.10047	-0.0276271	0.0615431	0.00724996	0.344482	0.872559	-0.541504	0.477825	-0.865554	-0.0831101	-0.12487	2.84794	-7.86185	-5.26918	0.0431237	0.0342108	-0.0319655	0.250244	0.831543	0.563965	0.78549	-0.215651	0.571851	0.0974027	-9.2725	-2.52062	2.72457	-0.0598413	-0.0641365	0.0533544	0.965088	-0.0725098	0.17749	0.721939	0.204407	0.639549	-0.167328	-9.92811	0.702084	1.14151	-0.0514416	0.0189108	0.0826294	1.01807	0.194092	0.241455	0.052523	-0.738291	-0.0569122	-0.670021	9.72721	0.107845	-1.03029	0.112971	0.0544322	0.0183972	-0.933838	0.0458984	0.560303	-0.435758	-0.458537	0.513313	-0.579973	9.57857	0.865289	4.70225	0.0567895	0.0197534	0.00677797	-1.04126	-0.49585	-0.026123	0.318149	-0.886696	-0.304822	-0.140121	4.3651	-4.44116	-7.46471	-0.18068	-0.0848346	0.0142121	-0.0761719	0.703857	0.76416	0.538604	-0.697389	-0.248996	-0.40194	8.37462	-5.2781	-1.03658	0.0346089	0.0574735	-0.0013622	-0.584473	0.866211	0.239502	0.718139	-0.525885	-0.363312	-0.275184	8.13634	-5.43723	1.90801	0.170196	0.00315127	-0.0223405	-0.647217	0.840576	-0.268799	0.234439	-0.145047	-0.20476	-0.939187	3.81818	3.01189	9.07915	0.116474	0.0445608	-0.00655367	-0.709473	-0.123047	-0.770508	0.164924	-0.664952	-0.265776	-0.678235	9.17643	1.17869	-0.0869903	-0.00893085	0.00324548	-0.00271034	-1.07056	0.10083	0.380615	
75	-0.891132	0.408105	-0.0311766	0.195863	1.31653	-7.79967	7.18614	-0.0157804	0.00110804	0.0557271	0.342285	0.868164	-0.541504	0.478359	-0.865142	-0.0825419	-0.126049	3.08275	-7.81031	-4.91949	0.0131641	0.0735022	-0.0206892	0.247803	0.83374	0.573242	0.786398	-0.215065	0.570586	0.098776	-9.14934	-2.51971	2.95919	0.0807494	-0.0673964	0.00949064	0.967041	-0.0681152	0.168213	0.721876	0.205582	0.639375	-0.166827	-9.56154	1.08598	1.09704	0.0460425	0.0234551	0.0921755	1.01367	0.194092	0.248047	0.0519138	-0.738416	-0.0533791	-0.670221	9.71864	-0.635631	-1.18211	-0.184462	-0.0105969	0.0738971	-0.934082	0.0480957	0.555664	-0.434481	-0.460048	0.513364	-0.579689	9.99658	1.32862	5.60777	0.0926793	-0.0342814	-0.0483539	-1.04126	-0.491455	-0.0219727	0.316098	-0.887659	-0.304001	-0.14045	4.15913	-4.06776	-7.07376	-0.170144	-0.00747797	0.0333966	-0.0739746	0.706055	0.766113	0.539603	-0.696559	-0.248917	-0.402087	7.94101	-5.44646	-1.02577	0.090339	0.0746945	-0.00290948	-0.59082	0.864014	0.234863	0.717913	-0.526336	-0.36309	-0.275203	8.27861	-5.76604	1.69548	-0.0357632	0.006661	-0.00862667	-0.649658	0.840576	-0.264404	0.235213	-0.14472	-0.20208	-0.939625	4.43092	2.68214	8.94176	-0.0924253	0.0695103	0.0404858	-0.705322	-0.114258	-0.775146	0.16547	-0.664956	-0.266417	-0.677846	10.5097	1.13963	-0.316829	0.0576927	0.000751982	-0.00959465	-1.06372	0.0986328	0.378418	
76	-0.891457	0.407227	-0.0313316	0.196186	1.16307	-7.88052	7.14277	0.0675246	0.0168766	-0.0279289	0.349121	0.868164	-0.545654	0.48006	-0.864145	-0.0825195	-0.126439	2.93715	-7.4401	-4.89087	0.0632865	0.0366834	-0.0250773	0.247803	0.83374	0.566162	0.787156	-0.213081	0.570096	0.0998615	-9.23717	-2.25058	2.86725	-0.0158833	-0.0381339	0.0900553	0.962891	-0.0766602	0.16626	0.721656	0.206674	0.639635	-0.165424	-9.53715	1.25778	1.2221	-0.0173846	0.0387941	0.0491534	1.01611	0.189697	0.252686	0.0543074	-0.738478	-0.055867	-0.669761	9.94765	1.00659	-0.989839	0.125422	0.00542992	-0.0231626	-0.938477	0.0480957	0.551025	-0.434962	-0.460206	0.512677	-0.579812	9.41641	1.21231	5.44556	0.0230633	0.0489468	-0.0656714	-1.03906	-0.493652	-0.0219727	0.312263	-0.889474	-0.302441	-0.140913	4.05919	-4.29837	-6.95706	-0.117751	-0.0100343	0.0144057	-0.0715332	0.69751	0.770752	0.539622	-0.696735	-0.248283	-0.402149	8.0629	-5.13978	-1.03285	-0.127898	0.0572677	0.000512075	-0.588623	0.864014	0.239502	0.718299	-0.526093	-0.362635	-0.27526	8.25618	-5.12984	1.81131	-0.0471107	0.0367545	-0.00431458	-0.649658	0.840576	-0.270996	0.235672	-0.144059	-0.20396	-0.939205	3.45716	3.42466	8.90759	0.1676	0.0292831	0.0125736	-0.711914	-0.118652	-0.772705	0.165677	-0.664884	-0.266836	-0.677701	9.09547	1.4022	-0.226122	0.0413054	0.001183	-0.0154245	-1.06616	0.10083	0.380615	
77	-0.892027	0.406235	-0.0300062	0.195858	1.32749	-7.51003	7.01771	0.0428059	-0.0631572	-0.00239908	0.349121	0.865967	-0.547852	0.480067	-0.864044	-0.0819112	-0.127496	2.69322	-8.01032	-5.22517	-0.00937886	0.0581418	-0.00994143	0.25	0.83374	0.556885	0.786846	-0.21261	0.570486	0.101075	-9.26056	-2.60574	2.77308	0.011833	0.0382669	0.0722897	0.969482	-0.0856934	0.170898	0.720415	0.20859	0.640445	-0.165297	-9.77559	1.17979	1.0232	0.139736	0.0799113	0.024228	1.01392	0.187256	0.259277	0.0543911	-0.738911	-0.0552053	-0.669332	9.98079	-0.152496	-1.13851	0.0966679	-0.0263584	-0.00785011	-0.936279	0.0524902	0.553223	-0.434886	-0.460962	0.511521	-0.580288	9.66231	0.340215	5.4935	0.169968	0.0848258	-0.0195144	-1.03906	-0.49585	-0.0153809	0.308871	-0.890716	-0.301849	-0.141813	3.77536	-4.43434	-7.45204	-0.132258	-0.018017	0.00248803	-0.0712891	0.695312	0.774902	0.538045	-0.698192	-0.247064	-0.402486	8.13389	-6.15353	-0.927897	-0.0298614	0.0364358	0.00690823	-0.584229	0.862061	0.234863	0.71849	-0.525995	-0.362253	-0.275454	8.12317	-5.43013	1.96254	0.064355	0.0195185	-0.0191718	-0.647217	0.838379	-0.268799	0.236239	-0.144487	-0.202272	-0.939362	4.35785	2.46858	8.97295	-0.00624103	0.00175704	-0.00404242	-0.70752	-0.114258	-0.775146	0.166066	-0.665081	-0.265491	-0.67794	10.3704	1.50274	-0.282877	-0.00640442	0.0154555	0.0152351	-1.06641	0.105225	0.380615	
78	-0.891721	0.406684	-0.030779	0.1962	1.14246	-7.56561	7.12539	-0.0443193	0.0354425	0.0120201	0.34668	0.870361	-0.547852	0.48017	-0.863976	-0.0817041	-0.127698	2.94266	-7.90561	-5.24276	-0.0216264	0.0312716	-0.0240013	0.245605	0.838135	0.566162	0.786662	-0.210896	0.571364	0.101135	-9.42686	-2.01616	2.73389	-0.00901566	0.0412029	0.0276548	0.960938	-0.0788574	0.173096	0.719022	0.208841	0.642008	-0.164979	-9.92138	1.10956	0.482746	-0.00411612	0.0803667	-0.0216562	1.01392	0.187256	0.261475	0.0563	-0.73806	-0.0559841	-0.670048	10.2483	-0.202608	-1.02614	-0.119341	0.0485352	0.0629283	-0.938721	0.0546875	0.555664	-0.432079	-0.461445	0.512498	-0.581139	10.1273	1.63584	5.37899	-0.00846283	-0.0790652	0.0576013	-1.03687	-0.491455	-0.0134277	0.305096	-0.892209	-0.300891	-0.14263	3.97079	-4.3104	-7.1027	-0.0917885	0.0237796	-0.00635806	-0.0686035	0.682129	0.788086	0.541566	-0.695125	-0.248351	-0.40228	8.09547	-4.83078	-0.93003	0.190678	0.0340659	-0.0265445	-0.586426	0.864258	0.227783	0.718856	-0.52534	-0.362384	-0.275577	8.1951	-5.66792	1.69359	0.117576	0.018222	-0.0386676	-0.649414	0.838379	-0.275635	0.236418	-0.144785	-0.204179	-0.938858	4.01099	3.83675	8.97665	-0.0835836	-0.0435891	0.025657	-0.70752	-0.114258	-0.770508	0.166892	-0.664971	-0.26449	-0.678237	9.13547	1.52555	-0.662722	0.0411284	0.0542342	0.0373202	-1.0686	0.107422	0.382812	
79	-0.891411	0.40767	-0.031679	0.195419	1.30099	-8.04201	7.23315	-0.0350075	0.0185226	0.0220773	0.351318	0.868164	-0.545654	0.480631	-0.863791	-0.0813934	-0.127412	2.58949	-8.04255	-4.46461	0.0483946	-0.00515608	-0.0031713	0.243408	0.838135	0.566162	0.785971	-0.211926	0.571872	0.101485	-9.1441	-2.07591	2.55724	-0.0279017	0.0267992	-0.0122613	0.965088	-0.0810547	0.173096	0.718749	0.207963	0.642516	-0.165301	-9.73777	0.839907	0.413539	-0.0459467	0.00394181	-0.0431614	1.01123	0.196045	0.254639	0.0557109	-0.737567	-0.0566128	-0.670586	9.4556	0.0653551	-1.65084	0.117291	0.0211397	-0.0817188	-0.936523	0.0568848	0.551025	-0.431553	-0.46084	0.51328	-0.581319	9.32909	0.351851	4.06319	0.0121158	-0.0296138	0.0749801	-1.04541	-0.49585	-0.0131836	0.303786	-0.892862	-0.299941	-0.143341	4.12265	-4.34551	-7.36169	-0.00738817	0.0693115	0.0133322	-0.0688477	0.684326	0.788086	0.53965	-0.696475	-0.247277	-0.40318	7.81775	-5.26686	-0.588909	-0.124686	-0.00951063	-0.011707	-0.584473	0.864014	0.237061	0.718396	-0.525721	-0.362187	-0.276306	7.8945	-5.51854	2.09021	-0.119072	0.00585248	-0.0285024	-0.649658	0.840576	-0.268799	0.235866	-0.146302	-0.203178	-0.938979	4.30684	2.40721	9.06037	-0.110131	-0.0897231	-0.00460533	-0.716309	-0.116699	-0.770508	0.161388	-0.66682	-0.260367	-0.679349	9.57652	0.790208	-0.222905	-0.199456	-0.0621228	-0.0202019	-1.06592	0.0986328	0.389648	
80	-0.891306	0.407673	-0.0319554	0.195842	1.52768	-7.73106	7.35187	-0.00727048	0.0295136	-0.0224409	0.355713	0.868164	-0.54126	0.481156	-0.863626	-0.0818053	-0.12628	3.355	-7.37409	-5.01106	0.0485023	-0.0779153	-0.000711797	0.245361	0.840332	0.561279	0.785791	-0.212269	0.571939	0.101785	-9.49139	-1.99583	2.74424	-0.0369324	0.0168259	0.00604345	0.965088	-0.0791016	0.175293	0.719359	0.206813	0.642117	-0.165641	-9.34179	0.793843	0.581684	-0.0547925	-0.0533973	-0.0143415	1.01392	0.189453	0.263672	0.0600279	-0.737488	-0.0603477	-0.669975	9.9239	-0.590671	-0.375202	0.296548	0.00744025	-0.0481729	-0.93457	0.0612793	0.553223	-0.428753	-0.46251	0.512256	-0.582966	9.56957	1.9932	5.46587	0.00918079	-0.0245769	-0.0326833	-1.04321	-0.493652	-0.00683594	0.301076	-0.894026	-0.29866	-0.144474	4.27814	-3.46435	-6.78373	-0.161749	0.0406548	-0.00428578	-0.0620117	0.677979	0.79248	0.541568	-0.694701	-0.247593	-0.403474	7.74059	-5.06727	-0.832589	0.176206	0.0461259	-0.0364106	-0.584473	0.864258	0.225342	0.717858	-0.526604	-0.361618	-0.276767	8.21641	-5.51019	1.57028	0.00764662	0.0242978	-0.0150361	-0.649658	0.840576	-0.270996	0.23487	-0.14582	-0.203677	-0.939195	3.97242	3.74761	9.16856	-0.0835103	0.030574	-0.0183226	-0.709717	-0.114258	-0.775146	0.163281	-0.666423	-0.262329	-0.678531	10.9283	0.974074	0.610372	0.2335	-0.000865498	-0.00442644	-1.06152	0.0986328	0.380615	
81	-0.891186	0.406869	-0.0303472	0.198303	1.31948	-7.27183	7.24379	0.0468996	-0.0470581	-0.109689	0.342285	0.872559	-0.543701	0.480714	-0.863692	-0.0821893	-0.127258	3.00326	-7.58647	-4.9739	-0.0316941	-0.0164849	-0.0427564	0.243652	0.83374	0.561523	0.786315	-0.21426	0.570545	0.101391	-9.38321	-2.10296	2.83415	-0.133409	-0.0321344	-0.0251057	0.967285	-0.0791016	0.177734	0.720653	0.205922	0.64116	-0.164833	-9.6154	0.746399	0.607877	-0.0707033	-0.0501401	0.0269523	1.00928	0.19165	0.254639	0.0568106	-0.738566	-0.0565993	-0.669395	9.64	0.368066	-0.794248	-0.196763	-0.0405319	0.0207948	-0.938721	0.0546875	0.553223	-0.430622	-0.462515	0.513267	-0.58069	9.84586	-0.525911	5.32959	0.0451323	0.0244295	-0.0719965	-1.03882	-0.498047	-0.0109863	0.299832	-0.894456	-0.297858	-0.146047	4.03954	-3.98321	-7.39026	0.0106688	0.087786	-0.00525756	-0.0705566	0.675781	0.794678	0.539377	-0.696733	-0.246649	-0.403484	8.33353	-5.6895	-0.5116	-0.180067	0.0447066	-0.00604259	-0.586426	0.859863	0.234863	0.718828	-0.525564	-0.361277	-0.276672	8.21076	-4.90803	2.27987	-0.0360384	0.0338479	-0.00646423	-0.647217	0.840576	-0.266602	0.234714	-0.145485	-0.203514	-0.939322	4.09166	2.58622	8.93688	0.121037	0.0651913	0.006124	-0.71167	-0.12085	-0.770508	0.159212	-0.668136	-0.256007	-0.680225	9.99741	0.0626809	-0.316668	-0.251682	-0.0278991	0.036947	-1.06372	0.0964355	0.387451	
82	-0.890972	0.407178	-0.0292741	0.198789	1.32839	-7.123	7.11355	-0.0105679	-0.0696311	-0.072286	0.348877	0.872559	-0.543701	0.479948	-0.864071	-0.08193	-0.127745	3.08052	-7.84918	-4.94627	-0.0790598	0.0459421	-0.0261875	0.243408	0.838135	0.566162	0.786732	-0.215071	0.569835	0.100426	-9.18487	-2.96521	2.8203	-0.0055387	-0.0345514	-0.112971	0.965088	-0.0791016	0.170898	0.721092	0.207195	0.639991	-0.165856	-9.70473	0.627745	0.831067	0.13365	-0.0843229	0.0326569	1.01172	0.1875	0.248291	0.0576586	-0.738714	-0.0572324	-0.669105	9.92548	-1.01046	-1.06202	0.0845553	-0.016844	-0.00450092	-0.936523	0.0546875	0.555664	-0.42981	-0.462924	0.51235	-0.581775	9.72359	0.777927	5.19433	0.129722	0.0283517	0.0126788	-1.04346	-0.491455	-0.0112305	0.299667	-0.894433	-0.297759	-0.146726	3.96818	-4.14985	-7.11915	-0.0118242	0.0564405	-0.0290399	-0.0681152	0.669189	0.794678	0.53932	-0.696784	-0.246136	-0.403787	8.05895	-5.52899	-0.783156	-0.023217	0.052207	-0.00109375	-0.58667	0.868408	0.239258	0.717744	-0.527292	-0.360502	-0.277208	7.99634	-5.7842	1.92707	-0.169903	0.00213718	0.00944846	-0.64502	0.843018	-0.268799	0.23544	-0.145108	-0.204059	-0.93908	3.59814	3.8469	9.12726	0.0617573	0.0400735	0.0495407	-0.709717	-0.116455	-0.768311	0.160041	-0.668085	-0.257345	-0.679576	9.62385	0.988749	0.0855713	0.134888	-0.02527	-0.0239993	-1.06592	0.0964355	0.387451	
83	-0.89026	0.408939	-0.0285708	0.198471	1.42198	-7.62004	7.1494	-0.0819467	-0.0420169	0.00718502	0.337891	0.870361	-0.545898	0.479917	-0.864002	-0.082267	-0.128108	2.98356	-7.83768	-5.16371	-0.00408403	0.023343	-0.0583399	0.241211	0.840332	0.568359	0.788169	-0.213426	0.568797	0.0985314	-9.74316	-1.94571	2.73537	-0.00261949	-0.0622933	-0.0499727	0.967285	-0.074707	0.170654	0.722523	0.206465	0.638801	-0.165126	-10.0244	0.824832	0.959615	-0.130974	-0.0517773	0.00798433	1.01416	0.185303	0.248291	0.0605964	-0.738156	-0.0605434	-0.66917	9.97182	0.856747	-0.963507	-0.075404	0.0265567	0.0270374	-0.936768	0.059082	0.551025	-0.42974	-0.462772	0.512564	-0.58176	9.94902	0.425241	5.12093	-0.0402306	0.0318634	-0.0173808	-1.03931	-0.489258	-0.00708008	0.299134	-0.89445	-0.298458	-0.146289	4.3175	-4.16889	-7.575	0.0231481	0.0147248	-0.0423164	-0.0703125	0.673584	0.794678	0.541041	-0.695518	-0.246603	-0.403381	7.59898	-5.39914	-0.708231	0.159619	0.0021675	-0.0277424	-0.584473	0.866455	0.225342	0.720131	-0.524375	-0.361012	-0.275883	7.99478	-5.18104	1.80125	0.190191	0.0420266	-0.00261286	-0.64502	0.84082	-0.273193	0.236356	-0.144287	-0.202419	-0.939331	4.09194	3.06025	8.87547	-0.00477956	0.0742451	0.0232639	-0.70752	-0.114258	-0.779785	0.159221	-0.668712	-0.257295	-0.67917	9.87029	1.32794	-0.175359	-0.15351	-0.0355209	-0.0136265	-1.06567	0.092041	0.383057	
84	-0.889747	0.410478	-0.028946	0.197535	1.41679	-8.47009	7.03952	-0.0516717	0.00297692	0.0281867	0.342285	0.872559	-0.545898	0.479785	-0.86379	-0.0824005	-0.129934	2.94394	-7.79886	-4.75163	0.00888343	0.0467274	-0.048589	0.245361	0.840332	0.568359	0.788241	-0.216114	0.567528	0.099409	-8.98933	-2.72262	2.88667	0.0064388	-0.0287328	0.00906724	0.962891	-0.0681152	0.166016	0.724066	0.206299	0.637102	-0.165138	-9.44686	1.05737	1.83397	-0.0691519	-0.060161	0.0503596	1.01636	0.183105	0.243896	0.0600497	-0.737904	-0.0574763	-0.669767	10.0245	-0.420675	-0.907536	0.0589648	0.0355244	0.0338363	-0.938965	0.0612793	0.551025	-0.428771	-0.463295	0.512788	-0.581861	9.64157	1.74841	5.12152	0.0140948	-0.0642901	-0.0215785	-1.03931	-0.489258	-0.0090332	0.30082	-0.893771	-0.298456	-0.146988	3.77248	-4.19347	-7.18566	0.0545754	0.0448684	-0.0301051	-0.0769043	0.675781	0.79248	0.541879	-0.695082	-0.246222	-0.403239	8.34209	-5.86527	-0.602886	-0.0507423	0.104883	0.00804292	-0.58667	0.868652	0.225342	0.720168	-0.524794	-0.3604	-0.275792	8.36228	-5.50067	2.13146	-0.0433091	0.00336435	0.000292876	-0.651855	0.840576	-0.270996	0.237613	-0.143684	-0.202285	-0.939136	4.07208	3.1616	9.05943	-0.0218924	0.0534306	0.0710546	-0.703125	-0.114258	-0.777344	0.163868	-0.667754	-0.26228	-0.677098	9.5564	1.31702	-0.494065	0.367045	-0.00342502	-0.0259528	-1.06396	0.103027	0.387451	
85	-0.889919	0.409548	-0.0286901	0.198727	1.28377	-7.72558	7.12624	0.0388611	0.0045523	-0.0466052	0.335449	0.874512	-0.543701	0.47964	-0.863824	-0.082057	-0.130464	2.82056	-8.13151	-5.00977	-0.0168218	0.0358469	-0.000749063	0.239014	0.840332	0.566162	0.788689	-0.215529	0.567159	0.0992357	-9.45246	-2.8934	2.9739	-0.0249922	-0.00356158	-0.0292788	0.964844	-0.0681152	0.166016	0.723493	0.2072	0.637502	-0.164975	-9.9506	0.786013	1.07844	0.186012	0.0330045	0.00326849	1.01392	0.1875	0.241699	0.0562211	-0.738194	-0.0522499	-0.670208	9.90715	-0.303887	-1.64597	-0.2969	-0.00150134	0.0363742	-0.936523	0.0546875	0.551025	-0.432734	-0.461242	0.515139	-0.578471	9.74984	0.595246	4.50399	-0.20235	0.0652612	-0.0644557	-1.04126	-0.493652	-0.0175781	0.302534	-0.893114	-0.299244	-0.145852	3.9783	-4.24878	-7.17015	0.189894	0.0425613	-0.0149357	-0.0708008	0.682129	0.790283	0.542876	-0.694153	-0.246354	-0.403419	7.95853	-5.27183	-0.822988	0.0416333	0.0479258	-0.00846463	-0.588623	0.864258	0.227783	0.720746	-0.524269	-0.359686	-0.276214	8.07218	-5.65683	1.80371	0.0155606	0.0327708	-0.0210662	-0.642578	0.838623	-0.275391	0.238535	-0.144225	-0.202662	-0.938738	4.39729	2.75763	9.15483	-0.0613127	0.0157994	0.0240075	-0.707764	-0.112061	-0.777588	0.16514	-0.66688	-0.265618	-0.676348	10.5372	1.72997	-0.142568	0.020279	-0.0187228	-0.0813647	-1.06177	0.103027	0.382812	
86	-0.89013	0.408608	-0.028626	0.199721	1.35377	-7.83943	7.1028	0.0592398	0.0139396	-0.0329921	0.337646	0.876709	-0.541504	0.481034	-0.863075	-0.0816803	-0.130525	3.04986	-7.61214	-4.86963	0.0347798	0.0366441	-0.00152207	0.234619	0.840332	0.566162	0.788704	-0.214074	0.567515	0.10023	-9.44574	-2.02934	2.72373	-0.0238348	-0.0020655	0.108955	0.964844	-0.0703125	0.161377	0.723741	0.205528	0.638373	-0.162594	-9.75495	1.27689	1.18282	-0.264338	0.0607188	0.0202142	1.0144	0.178711	0.250488	0.0569021	-0.73816	-0.0533122	-0.670104	9.87067	-0.302997	-1.19067	0.102974	-0.00420904	-0.0132293	-0.938721	0.059082	0.548828	-0.433028	-0.46162	0.514873	-0.578186	9.76492	1.18236	5.1149	-0.154017	0.00798157	-0.0380128	-1.04102	-0.49585	-0.0153809	0.305182	-0.892448	-0.298809	-0.145304	4.08441	-4.36348	-7.17448	0.152703	0.0575216	0.0104011	-0.0710449	0.686523	0.787842	0.542204	-0.694936	-0.246175	-0.403084	8.15997	-5.09453	-0.766324	-0.0391959	-0.0086838	0.00480696	-0.584473	0.868652	0.2229	0.719473	-0.526018	-0.359204	-0.276832	8.08926	-5.35833	2.06899	-0.145475	-0.0150338	-0.0138994	-0.649658	0.843018	-0.268799	0.238869	-0.144359	-0.202144	-0.938744	4.3552	3.06176	9.15161	-0.171554	-0.0250917	0.0258412	-0.705322	-0.112061	-0.775146	0.165007	-0.66625	-0.267052	-0.676437	9.42197	1.12661	-0.460101	0.0401563	0.011576	-0.0516268	-1.06372	0.0964355	0.389893	
