40	Head	00b4120a												Throax	00b411e8												LUpArm	00b411d9												LFoArm	00b41148												RUpArm	00b411db												RFoArm	00b41204												Waist	00b411f7												Lthigh	00b411f4												Lshank	00b4111b												Rthigh	00b411c8												Rshank	00b411ee												
PacketCount	q0	q1	q2	q3	accX	accY	accZ	gyrX	gyrY	gyrZ	magX	magY	magZ	q0	q1	q2	q3	accX	accY	accZ	gyrX	gyrY	gyrZ	magX	magY	magZ	q0	q1	q2	q3	accX	accY	accZ	gyrX	gyrY	gyrZ	magX	magY	magZ	q0	q1	q2	q3	accX	accY	accZ	gyrX	gyrY	gyrZ	magX	magY	magZ	q0	q1	q2	q3	accX	accY	accZ	gyrX	gyrY	gyrZ	magX	magY	magZ	q0	q1	q2	q3	accX	accY	accZ	gyrX	gyrY	gyrZ	magX	magY	magZ	q0	q1	q2	q3	accX	accY	accZ	gyrX	gyrY	gyrZ	magX	magY	magZ	q0	q1	q2	q3	accX	accY	accZ	gyrX	gyrY	gyrZ	magX	magY	magZ	q0	q1	q2	q3	accX	accY	accZ	gyrX	gyrY	gyrZ	magX	magY	magZ	q0	q1	q2	q3	accX	accY	accZ	gyrX	gyrY	gyrZ	magX	magY	magZ	q0	q1	q2	q3	accX	accY	accZ	gyrX	gyrY	gyrZ	magX	magY	magZ	
0	-0.889715	0.379068	-0.0139527	0.254008	1.80059	-7.58503	7.61145	-0.0201715	-0.0460827	-0.00563423	0.280762	0.869873	-0.587158	0.504617	-0.843479	-0.0423238	-0.179203	3.58631	-7.8174	-4.06871	0.00255713	-0.0609856	-0.0227694	0.203125	0.868408	0.532227	0.812144	-0.169471	0.557747	0.0249176	-9.04324	-2.71442	3.38332	-0.149313	-0.0132929	0.0468173	0.969727	0.0229492	0.154297	0.723908	0.266771	0.592956	-0.23064	-9.59824	1.54799	2.27457	-0.220927	-0.0396095	-0.0186805	1.03491	0.216797	0.159668	0.0165728	-0.803074	0.00729936	-0.595604	9.56833	0.0275072	-2.676	-0.147284	0.0372829	0.0460535	-0.821533	0.0209961	0.736084	-0.424995	-0.564954	0.367595	-0.604219	9.61443	1.83589	3.65736	-0.107332	0.00245466	-0.0130564	-0.952881	-0.635986	0.162354	0.3246	-0.898719	-0.26766	-0.123683	3.71578	-4.49436	-6.83502	0.125723	-0.0624402	-0.0755138	-0.0124512	0.728027	0.763672	0.511407	-0.729782	-0.219454	-0.397141	7.39482	-5.06722	-1.3873	-0.00414964	0.074893	0.0204408	-0.541016	0.870117	0.327881	0.716785	-0.545265	-0.353256	-0.253211	7.76522	-5.40695	1.39092	-0.149819	-0.00344928	-0.0181669	-0.609863	0.888916	-0.24707	0.28456	-0.10975	-0.165733	-0.937824	3.16826	2.32211	9.6614	0.0547651	-0.00127549	0.0108362	-0.62915	-0.0212402	-0.859375	0.170039	-0.675686	-0.299562	-0.651766	9.48863	1.39741	-0.971736	-0.0545459	-0.00392477	-0.0308636	-1.05054	0.105469	0.442139	
1	-0.890016	0.378062	-0.0119292	0.254556	2.15563	-6.92981	7.66711	0.0517255	-0.0398142	-0.0503693	0.276367	0.867676	-0.59375	0.503278	-0.844323	-0.0419629	-0.179076	3.33034	-8.33038	-4.1185	-0.0463147	0.0144498	-0.0121552	0.200928	0.868408	0.541504	0.810652	-0.17544	0.557871	0.02907	-8.92129	-3.63975	3.19864	-0.227296	0.0777432	-0.0170402	0.969727	0.0229492	0.154297	0.724742	0.26222	0.594686	-0.228775	-9.54236	0.743288	1.82039	0.0142457	0.0204216	-0.0732138	1.03735	0.2146	0.159668	0.0141109	-0.80274	0.0102691	-0.596074	9.80961	-0.270901	-2.92531	-0.141313	0.00780877	-9.43141e-05	-0.821289	0.0166016	0.733887	-0.425961	-0.56401	0.3682	-0.604052	9.67305	2.41095	3.28074	-0.0423169	0.0168332	-0.0103554	-0.950928	-0.627441	0.162109	0.327572	-0.897229	-0.268553	-0.124727	3.61336	-4.85061	-7.03583	0.137078	0.175454	-0.065136	-0.017334	0.736572	0.759033	0.510074	-0.730887	-0.219259	-0.396932	7.84	-6.07697	-1.68696	-0.112027	-0.0156392	-0.0469915	-0.54541	0.869873	0.337402	0.715012	-0.547913	-0.35174	-0.254614	7.82784	-6.48349	1.53176	-0.00775992	0.0325522	-0.0155425	-0.600342	0.886475	-0.23584	0.284549	-0.109826	-0.165637	-0.937835	3.4598	2.52869	9.40652	-0.00931144	0.0262935	0.00222975	-0.624512	-0.0253906	-0.852295	0.169665	-0.675737	-0.299829	-0.651687	9.72461	1.66003	-0.825868	-0.00173231	-0.0123886	-0.0364997	-1.05273	0.105469	0.444336	
2	-0.889819	0.378195	-0.0118714	0.25505	2.08599	-6.97892	7.62453	-0.0132261	0.0039059	-0.0410418	0.278564	0.869873	-0.591553	0.503792	-0.84412	-0.0423661	-0.178496	3.65059	-8.09198	-4.30764	0.0449379	-0.0392771	-0.0166205	0.202881	0.870605	0.534424	0.810735	-0.173831	0.558291	0.0283457	-9.14409	-2.99715	3.56482	0.141063	0.0351338	0.0303596	0.974121	0.0205078	0.156738	0.724585	0.259077	0.597105	-0.226542	-9.70551	0.769494	1.7895	-0.226841	0.0951498	-0.0291818	1.03711	0.216797	0.164062	0.0134059	-0.802434	0.0120659	-0.596468	9.47624	-0.652988	-2.88444	0.0192273	0.0267589	0.0211623	-0.821533	0.0187988	0.731689	-0.425328	-0.56429	0.367431	-0.604704	9.59707	2.24546	3.95741	0.0192521	0.0148512	-0.00844378	-0.953125	-0.631836	0.160156	0.323684	-0.898856	-0.26888	-0.122431	4.04316	-5.21357	-7.00406	-0.0234921	-0.166338	-0.0192113	-0.0107422	0.734619	0.767578	0.512088	-0.729338	-0.220681	-0.396399	8.14707	-5.2379	-1.06874	0.190203	0.0104913	-0.00453211	-0.545654	0.876465	0.334961	0.716522	-0.545954	-0.352303	-0.253799	7.86476	-5.95321	1.9204	0.218584	0.019526	-0.0212348	-0.595459	0.879883	-0.240234	0.284726	-0.109312	-0.165557	-0.937855	3.16306	2.49414	9.77276	-0.00814532	0.00836469	0.0165512	-0.622559	-0.0187988	-0.854736	0.17052	-0.675431	-0.301081	-0.651204	9.75907	1.57179	-0.769683	0.0652903	0.000240567	-0.0143801	-1.05493	0.103271	0.435303	
3	-0.889777	0.378152	-0.0115552	0.255273	2.02916	-6.93632	7.66351	0.00972431	-0.0266296	0.00826012	0.276123	0.87207	-0.59375	0.504837	-0.843535	-0.042215	-0.178344	3.38577	-8.50483	-4.50143	0.0601322	0.00448295	0.0105341	0.200928	0.866211	0.536865	0.809618	-0.174997	0.559433	0.0304991	-9.18757	-3.1685	3.31828	-0.173754	0.0686551	0.0219385	0.969971	0.0141602	0.156982	0.723524	0.259953	0.597614	-0.227584	-9.76691	0.583058	1.4883	0.113927	0.0794768	-0.0474732	1.03491	0.218994	0.16626	0.0131217	-0.802261	0.0127538	-0.596693	9.39884	-0.13106	-2.74823	-0.0519572	0.0311815	0.0154333	-0.821289	0.0187988	0.736084	-0.425679	-0.563892	0.366981	-0.605102	9.64822	2.5723	3.7056	-0.0215772	0.055865	-0.0196429	-0.957275	-0.631836	0.164551	0.328066	-0.89702	-0.269619	-0.122614	4.14775	-4.95306	-7.96529	0.38199	0.115385	-0.0714674	-0.0129395	0.734619	0.759033	0.512677	-0.728928	-0.220597	-0.396439	7.74626	-5.24453	-1.50329	0.0522783	0.0455609	-0.00166857	-0.547607	0.872314	0.327881	0.715971	-0.546668	-0.352105	-0.25409	7.9261	-5.73006	1.60425	-0.0357744	-0.000434966	-0.00907725	-0.598145	0.886719	-0.238037	0.285078	-0.109287	-0.16581	-0.937707	3.40076	2.58995	9.60791	0.0267258	0.0122857	0.0297404	-0.631348	-0.0212402	-0.854736	0.169866	-0.675736	-0.3012	-0.651003	9.87054	1.38335	-0.923086	-0.0145448	-0.0258478	-0.0251179	-1.05273	0.101074	0.439941	
4	-0.890541	0.377304	-0.0120288	0.253837	1.86116	-7.39464	7.48455	0.0630476	0.0142241	0.0665651	0.27832	0.874268	-0.595947	0.506468	-0.842768	-0.0416861	-0.177467	3.45885	-7.71826	-4.05137	0.0411099	-0.0349996	0.0232177	0.205078	0.872803	0.529541	0.80954	-0.171494	0.560623	0.0305987	-9.06648	-2.29967	3.01816	0.133566	0.0228299	0.119303	0.963623	0.0100098	0.161621	0.721971	0.261069	0.599351	-0.226671	-9.43217	0.587934	1.45588	-0.0515779	0.135487	0.0413083	1.03003	0.225586	0.17041	0.0113923	-0.801839	0.015962	-0.597219	9.38508	-0.584292	-2.87002	-0.0512858	0.0466821	0.02788	-0.827393	0.0078125	0.731689	-0.426556	-0.563012	0.366457	-0.605621	9.46855	2.4005	3.59366	0.0247397	0.0434461	-0.0198464	-0.957275	-0.634033	0.158203	0.327637	-0.897614	-0.267466	-0.124115	3.46782	-4.72156	-6.43761	-0.0884183	0.0457651	0.0622203	-0.017334	0.73877	0.754883	0.512859	-0.728499	-0.221194	-0.396659	7.73503	-5.42234	-1.34157	0.119546	-0.00543195	-0.0391044	-0.543457	0.872314	0.325684	0.717264	-0.544978	-0.352734	-0.253199	7.6936	-6.21178	1.57721	0.127722	0.00263671	-0.0226226	-0.600342	0.886719	-0.244873	0.285739	-0.109504	-0.165099	-0.937606	3.15858	2.79378	9.74292	-0.0369022	0.00511356	0.0224162	-0.62915	-0.0212402	-0.854736	0.1711	-0.67542	-0.303059	-0.650145	9.70523	2.2753	-0.896453	0.0560522	-0.0059409	-0.0186168	-1.05054	0.105469	0.442139	
5	-0.891535	0.375337	-0.0128912	0.25322	1.92408	-7.08982	7.68668	0.066531	0.0383605	0.0390934	0.283203	0.863525	-0.602051	0.506965	-0.842479	-0.0411761	-0.177539	3.28616	-8.07554	-4.07367	0.0144934	0.0139446	0.000279719	0.211426	0.872803	0.527344	0.809185	-0.167378	0.562363	0.0308685	-9.49349	-2.83493	3.07076	0.216532	0.0539824	0.142651	0.972168	0.0119629	0.15918	0.718505	0.266792	0.600368	-0.22832	-9.6117	0.876582	1.39205	0.231769	0.149628	0.0485329	1.03687	0.221191	0.172852	0.0121089	-0.801921	0.0151216	-0.597116	9.27054	-0.359637	-2.96109	0.0906341	0.0121028	-0.050898	-0.821045	0.012207	0.733887	-0.427846	-0.562078	0.366316	-0.605664	9.5382	2.33581	3.84637	-0.0860115	0.042306	-0.0247157	-0.957275	-0.634033	0.158203	0.327765	-0.897486	-0.267711	-0.124179	3.65751	-4.58435	-7.21289	0.0525646	-0.000156828	-0.0544766	-0.0107422	0.736816	0.759033	0.512905	-0.728864	-0.220807	-0.396143	7.62186	-5.27497	-1.47666	-0.0618677	0.0255501	0.0213217	-0.543213	0.870117	0.327881	0.716912	-0.545397	-0.353102	-0.25278	7.78941	-5.18249	1.5525	-0.110813	-0.0315518	-0.00182334	-0.5979	0.884277	-0.238037	0.286065	-0.10943	-0.166067	-0.937344	3.55821	2.42799	9.33179	0.086468	0.0242063	0.00378702	-0.62915	-0.0212402	-0.852539	0.169873	-0.676002	-0.302172	-0.650275	9.56838	1.54895	-1.13447	0.0410482	-0.00783573	-0.00685021	-1.05054	0.107666	0.442139	
6	-0.891809	0.37431	-0.0135039	0.253744	1.62887	-6.95793	7.6913	0.0143127	0.027744	-0.0135015	0.281006	0.863525	-0.600098	0.507575	-0.842293	-0.0413467	-0.176635	3.33168	-7.95	-4.35494	0.0204398	-0.0389177	-0.0032872	0.209473	0.872803	0.531982	0.808989	-0.168326	0.562095	0.0353966	-8.79394	-2.63411	3.03308	-0.335126	0.0182305	0.135958	0.968018	-0.000976562	0.164062	0.717685	0.266662	0.602739	-0.22478	-9.63024	0.543341	0.664775	0.117419	0.0991147	0.0447972	1.03076	0.212158	0.181641	0.0125965	-0.802514	0.0124162	-0.596371	9.44842	-0.700084	-3.06717	0.0944649	-0.0407641	-0.0907643	-0.825439	0.012207	0.731689	-0.427636	-0.562651	0.364373	-0.606452	9.67549	2.55836	3.34439	0.0231462	0.0162879	-0.0486659	-0.950684	-0.634033	0.156006	0.326739	-0.89805	-0.267057	-0.124212	3.71846	-4.79576	-7.38899	-0.144949	0.003407	-0.0205205	-0.0107422	0.736816	0.763428	0.512233	-0.729247	-0.221236	-0.396069	7.58902	-5.59276	-1.63037	-0.00284265	-0.0384147	-0.042158	-0.538818	0.870117	0.330322	0.716808	-0.54568	-0.352833	-0.252842	7.86071	-6.90605	1.52929	0.210963	0.0205	-0.0238371	-0.60498	0.88208	-0.242432	0.285656	-0.109041	-0.164893	-0.937721	3.2055	2.5881	9.93132	-0.0767039	0.00181637	0.0017033	-0.62915	-0.0212402	-0.852539	0.170753	-0.675782	-0.302677	-0.650038	9.82605	1.61913	-0.890379	0.019158	0.0114624	0.00648264	-1.05273	0.101074	0.442139	
7	-0.891847	0.374524	-0.0130008	0.253322	2.01153	-7.18856	7.58951	0.00595651	-0.0335447	0.0144675	0.278809	0.863281	-0.5979	0.50727	-0.842629	-0.0401648	-0.176181	3.44074	-8.40157	-3.98816	-0.0185159	0.0308159	0.0384878	0.21167	0.868408	0.534424	0.81023	-0.163679	0.561727	0.0346263	-9.28557	-1.95161	3.26425	0.303662	-0.0735286	0.0710262	0.970215	-0.00537109	0.164307	0.716944	0.26921	0.602917	-0.223625	-9.71632	0.964774	0.760731	0.0255346	0.0542401	0.091358	1.03076	0.212158	0.186035	0.0141243	-0.802341	0.010734	-0.596602	9.44333	0.0836909	-2.40603	0.0304266	0.0457986	-0.00563765	-0.825439	0.012207	0.729248	-0.429208	-0.561569	0.364312	-0.606381	9.62993	2.21269	4.02042	-0.0951513	0.0513622	-0.0243005	-0.955078	-0.634033	0.153809	0.327729	-0.897657	-0.267698	-0.123062	3.79908	-5.10438	-6.46092	0.260936	-0.0570456	0.00165218	-0.017334	0.736816	0.754883	0.510806	-0.730728	-0.220407	-0.395645	7.97886	-5.29532	-1.22576	-0.0907066	0.0695132	0.0322987	-0.54541	0.870117	0.327881	0.715379	-0.547563	-0.352329	-0.253517	7.88757	-4.70826	1.61452	-0.358958	-0.0153933	0.00185466	-0.60498	0.884277	-0.23584	0.286022	-0.108675	-0.166122	-0.937435	3.3244	2.43462	9.4147	0.0546852	0.00768366	0.010713	-0.626953	-0.0212402	-0.859375	0.170564	-0.675594	-0.302904	-0.650177	9.3913	1.51489	-1.15411	0.0302421	0.0178487	-0.0166894	-1.0481	0.101074	0.444336	
8	-0.891982	0.374302	-0.0147863	0.253076	1.77526	-7.3292	7.68533	-0.00965826	0.0787977	0.0463697	0.287598	0.86792	-0.602295	0.508448	-0.842086	-0.0402813	-0.175355	3.22458	-7.99696	-4.45083	0.0670614	-0.00758195	-0.0128392	0.205078	0.872803	0.527344	0.81067	-0.161769	0.561702	0.0336941	-9.22293	-2.7568	3.17198	0.0998374	0.0069787	-0.00612527	0.968018	0.00341797	0.159424	0.715495	0.274805	0.601134	-0.226243	-9.71186	1.51256	0.947364	0.278683	-0.0112262	0.0591773	1.03101	0.205566	0.179688	0.0121178	-0.802248	0.0133869	-0.596718	9.42488	-1.10158	-3.43524	-0.0391059	0.00652881	-0.00503742	-0.823486	0.0166016	0.731689	-0.429587	-0.560956	0.363763	-0.607009	9.63517	2.35649	3.42361	-0.0322568	0.0342069	-0.00660514	-0.952881	-0.63623	0.149658	0.326201	-0.898402	-0.26604	-0.125259	3.28027	-4.5147	-7.5103	-0.262367	0.0596971	0.00619114	-0.0126953	0.732422	0.76123	0.51099	-0.730402	-0.220727	-0.39583	7.73891	-5.96959	-1.51213	0.0681743	-0.0112622	-0.0423332	-0.54541	0.870117	0.327881	0.716821	-0.545238	-0.353709	-0.252533	7.7183	-6.68293	1.54604	0.527782	-0.0112566	-0.059668	-0.602783	0.886719	-0.242676	0.285882	-0.109764	-0.164746	-0.937594	3.31781	2.34702	9.66481	-0.0608525	-0.0248337	0.0122157	-0.631592	-0.0168457	-0.859375	0.169867	-0.675652	-0.302308	-0.650576	10.0313	1.55257	-0.806841	-0.0345925	0.0142194	-0.00650865	-1.0481	0.103271	0.446533	
9	-0.892132	0.373878	-0.0155479	0.253129	1.71299	-7.40186	7.81642	0.0198956	0.0597848	0.0225664	0.285645	0.861328	-0.602051	0.508594	-0.842079	-0.0404672	-0.174919	3.41621	-7.74846	-3.95643	0.00760472	-0.0242526	-0.0112153	0.21167	0.868408	0.527344	0.811785	-0.16005	0.560618	0.0331117	-9.46179	-1.75905	3.25898	0.151233	-0.112839	0.0226853	0.974609	-0.00756836	0.155273	0.71771	0.271365	0.601673	-0.221908	-9.54826	0.679536	0.55947	-0.176749	-0.0188969	0.0345079	1.03979	0.205811	0.181885	0.0137674	-0.802584	0.0117669	-0.596264	9.57502	0.0926552	-2.55293	0.0270569	-0.0226956	0.00108349	-0.823486	0.0144043	0.731689	-0.427909	-0.562087	0.361801	-0.608319	9.50024	2.15814	3.84907	0.0990973	-0.0218473	-0.00313233	-0.954834	-0.638184	0.151855	0.326888	-0.898162	-0.267569	-0.121884	4.13453	-4.79121	-6.52925	0.200028	-0.0628719	-0.0360322	-0.0129395	0.734619	0.763428	0.514843	-0.727507	-0.22228	-0.3953	7.65804	-4.64975	-1.68953	0.1761	0.0286238	-0.0180477	-0.54126	0.872314	0.318604	0.714916	-0.547824	-0.352818	-0.253582	7.99913	-5.87581	1.29745	-0.392323	0.0163034	0.0056583	-0.602539	0.884277	-0.240234	0.285835	-0.109665	-0.166001	-0.937398	3.27927	2.85249	9.41471	0.0155015	0.0183877	-0.0112515	-0.626709	-0.0234375	-0.852295	0.170205	-0.675394	-0.302732	-0.650558	9.73303	1.72078	-0.985643	0.0478178	0.0222394	-0.016157	-1.05029	0.101074	0.444336	
10	-0.891944	0.373793	-0.0142538	0.25399	1.83019	-7.12799	7.69957	0.00336592	-0.0654679	-0.0344734	0.283203	0.863525	-0.600098	0.507589	-0.842595	-0.0407123	-0.175298	3.11713	-8.17898	-4.04862	0.00661573	-0.00655094	-0.033795	0.209473	0.868408	0.529785	0.811455	-0.166139	0.559093	0.0367795	-9.05362	-2.41864	3.24495	-0.282765	-0.0550574	-0.0274305	0.972412	-0.00317383	0.155029	0.718256	0.27457	0.598599	-0.224496	-9.50572	1.32838	1.10267	0.175979	-0.11783	0.0466552	1.03345	0.199219	0.170898	0.0138495	-0.802456	0.0118542	-0.596433	9.74945	-0.0364801	-2.6652	-0.0266824	0.0031877	-0.016211	-0.821045	0.012207	0.733887	-0.427459	-0.562375	0.360296	-0.609262	9.67695	2.5982	3.70176	0.0517889	0.0518381	-0.0337068	-0.957275	-0.631836	0.151611	0.32697	-0.898312	-0.265307	-0.125457	3.20469	-4.60615	-7.16206	-0.168866	0.108159	0.0184927	-0.0192871	0.734619	0.763428	0.510156	-0.730921	-0.219731	-0.396502	7.63254	-5.92812	-1.48664	-0.285033	0.0428248	-0.00523789	-0.54541	0.87207	0.334961	0.716689	-0.545243	-0.353755	-0.252834	7.67739	-5.36251	1.74666	0.183105	0.00607114	-0.0382214	-0.60498	0.886719	-0.244873	0.285801	-0.109782	-0.165653	-0.937456	3.38401	2.48285	9.69698	0.0480992	0.00468334	0.0124634	-0.626953	-0.0212402	-0.854736	0.169883	-0.675464	-0.301865	-0.650972	9.51753	1.56322	-0.965633	-0.0270291	0.0129084	0.018283	-1.05273	0.103271	0.442139	
11	-0.891793	0.374117	-0.013813	0.254067	2.04119	-6.97291	7.71618	-0.0180517	-0.0399314	-0.0220279	0.283203	0.863525	-0.5979	0.507463	-0.842742	-0.0412009	-0.174842	3.63089	-7.7094	-4.44113	-0.0120019	-0.0410851	-0.0349728	0.209473	0.872803	0.527344	0.814113	-0.159055	0.557649	0.030802	-9.27189	-1.85578	3.41161	0.38327	-0.0758422	-0.0147224	0.974365	0.00537109	0.150146	0.719078	0.275038	0.597238	-0.224918	-9.75718	1.66477	1.2185	0.0545925	-0.112842	0.0432362	1.0354	0.205811	0.175293	0.012078	-0.80256	0.0140577	-0.596283	9.55746	-0.194282	-2.76563	-0.219251	-0.00289269	0.0424695	-0.825684	0.0166016	0.733887	-0.427666	-0.562361	0.360036	-0.609283	9.63042	2.37051	3.28592	-0.0239195	0.00753163	-0.0282633	-0.959473	-0.634033	0.158203	0.325771	-0.898867	-0.265558	-0.124061	3.60666	-4.73348	-7.28365	-0.0525042	-0.128916	0.00205459	-0.0102539	0.728027	0.767822	0.510467	-0.730916	-0.220288	-0.395801	7.64249	-6.01761	-1.47467	0.0523342	-0.0419382	-0.0103069	-0.543213	0.86792	0.332764	0.715102	-0.547432	-0.352956	-0.253712	7.77129	-5.69973	1.5002	-0.230381	0.000149393	-0.00439255	-0.60498	0.886475	-0.233643	0.286057	-0.109884	-0.166415	-0.937232	3.13739	3.05073	9.6648	0.0618418	-0.0105626	0.0216422	-0.633301	-0.0256348	-0.856934	0.169796	-0.675316	-0.301635	-0.651255	9.63902	1.7799	-0.914313	0.016495	0.020526	-0.00332352	-1.05273	0.103271	0.439697	
12	-0.890951	0.375727	-0.0134276	0.254666	1.85184	-7.1594	7.65293	-0.0750488	-0.039279	-0.0352335	0.280762	0.869873	-0.5979	0.505479	-0.843496	-0.0407344	-0.177051	3.29367	-8.54604	-4.21387	-0.0590013	0.0405645	-0.0550965	0.207275	0.868408	0.532227	0.814569	-0.164205	0.555488	0.0307632	-8.94869	-2.54376	3.52103	-0.296336	-0.0610709	-0.188713	0.969971	0.0119629	0.150146	0.720637	0.275558	0.594836	-0.225657	-9.63669	1.16453	0.944318	0.151523	-0.11927	0.026036	1.03564	0.203613	0.166504	0.0115221	-0.802343	0.0149889	-0.596563	9.40649	-0.574505	-2.90107	-0.040437	0.018552	0.00912243	-0.821289	0.0144043	0.731689	-0.426624	-0.562848	0.359936	-0.609622	9.68144	2.41768	3.91795	0.111505	-0.00723914	0.0153251	-0.955078	-0.63623	0.156006	0.32876	-0.897525	-0.266703	-0.123428	3.92347	-4.96966	-6.71462	0.145008	0.0358707	-0.0174364	-0.0192871	0.736816	0.754883	0.512721	-0.728964	-0.221589	-0.395762	7.68668	-5.07565	-1.5372	0.0380548	0.0257413	-0.0479996	-0.539062	0.872314	0.33252	0.716043	-0.546227	-0.352903	-0.253727	7.80734	-6.3671	1.53689	0.155693	0.0387146	-0.0374387	-0.602539	0.88208	-0.242432	0.28538	-0.109562	-0.166269	-0.937502	3.17141	2.82786	9.46253	0.0310398	0.0164912	-0.0360503	-0.631104	-0.0256348	-0.859131	0.170281	-0.675317	-0.300844	-0.651493	9.31324	1.47566	-0.996345	-0.0630601	0.0211758	0.0397462	-1.05273	0.105469	0.439697	
13	-0.89057	0.376638	-0.0129851	0.254678	1.96614	-7.39751	7.64504	-0.00844593	-0.0198059	-0.0197312	0.276367	0.867676	-0.600098	0.505515	-0.843179	-0.0408197	-0.178433	3.42559	-7.64332	-4.08623	-0.0486097	0.0644041	-0.0452156	0.196533	0.866211	0.534668	0.816269	-0.161352	0.55405	0.0264436	-9.27539	-2.54759	3.16561	0.382364	-0.0895938	-0.062442	0.974121	0.0163574	0.13623	0.723413	0.276487	0.590032	-0.228234	-9.51296	1.05552	1.36737	0.0742461	-0.118169	-0.0103734	1.03784	0.201416	0.157715	0.0129503	-0.802287	0.0149814	-0.59661	9.56961	-0.286311	-3.04366	0.153199	0.0314468	-0.000401903	-0.814697	0.0166016	0.729248	-0.426314	-0.563036	0.358724	-0.61038	9.42614	2.40436	3.31466	-0.0296816	0.0141522	-0.0121855	-0.96167	-0.634033	0.151611	0.327158	-0.898068	-0.265884	-0.125492	3.43264	-4.69251	-6.99235	0.169658	0.0627403	-0.0553539	-0.0107422	0.734619	0.763428	0.509067	-0.731949	-0.219997	-0.395857	7.77986	-5.32681	-1.42619	-0.172915	0.0438549	0.0166682	-0.541016	0.869873	0.344238	0.715245	-0.547442	-0.352212	-0.254319	7.90446	-5.12428	1.56794	-0.302583	0.00902997	0.00679799	-0.602539	0.884277	-0.23584	0.284987	-0.109672	-0.166595	-0.93755	3.60754	2.44654	9.73572	0.0737795	0.0196582	-0.015134	-0.626465	-0.027832	-0.854492	0.170561	-0.675504	-0.300116	-0.651563	10.3191	1.758	-0.927191	0.000656246	0.0121863	0.0174766	-1.05273	0.105469	0.439697	
14	-0.890253	0.376565	-0.0121725	0.25593	1.9224	-7.17155	7.56601	0.00864668	-0.00548339	-0.0602639	0.27002	0.865479	-0.59375	0.504384	-0.843431	-0.0405568	-0.180489	3.28843	-8.2509	-4.22427	-0.0515564	0.0770543	-0.0495206	0.19873	0.868408	0.532227	0.81695	-0.1627	0.552764	0.0239536	-8.8157	-2.75064	3.70989	-0.0839897	-0.00799253	-0.130634	0.976074	0.020752	0.138428	0.723604	0.277984	0.58829	-0.230297	-9.45902	1.37471	1.81493	0.212064	-0.123381	-0.00554196	1.04248	0.199463	0.151123	0.0125217	-0.802724	0.014256	-0.596049	9.12641	-1.32527	-3.06473	0.0973077	-0.0489405	-0.0638391	-0.816895	0.0166016	0.733887	-0.424703	-0.56414	0.357114	-0.611427	9.5221	2.56106	3.73806	0.155214	-0.000643439	-0.00716507	-0.959229	-0.635986	0.166748	0.326405	-0.898433	-0.265751	-0.125116	3.51092	-4.74216	-6.72954	-0.0403253	-0.0340343	0.00150264	-0.0126953	0.732422	0.763428	0.51015	-0.731093	-0.220287	-0.395883	7.70059	-6.06133	-1.71256	0.138733	-0.0219488	-0.0285378	-0.538818	0.870117	0.337402	0.715661	-0.546987	-0.352138	-0.254232	7.82011	-6.85077	1.52112	0.305263	0.0129523	-0.03276	-0.600586	0.891113	-0.238281	0.28492	-0.109466	-0.166303	-0.937647	2.99979	2.67814	9.57513	-0.028481	-0.00729153	0.00646066	-0.631348	-0.0212402	-0.854736	0.170314	-0.675578	-0.299102	-0.652016	9.22231	1.51871	-0.904828	0.00514126	0.0217222	0.0128095	-1.05054	0.103271	0.435303	
15	-0.889909	0.376406	-0.0122753	0.257353	1.81576	-6.84317	7.70389	-0.0102962	0.0214396	-0.0513613	0.276123	0.87207	-0.595947	0.504221	-0.843429	-0.0414424	-0.180751	3.60315	-7.88041	-4.35575	-0.0659973	-3.67415e-05	-0.0523949	0.19873	0.868408	0.536865	0.817546	-0.163856	0.551544	0.0238512	-9.17267	-2.34587	3.43428	-0.0894044	-0.0555451	-0.0310657	0.973877	0.020752	0.133789	0.725748	0.275151	0.587717	-0.228409	-9.58316	1.22658	1.7563	-0.205588	-0.0420193	-0.00126196	1.04468	0.197266	0.146729	0.0146857	-0.802846	0.011947	-0.595886	9.67131	0.146241	-2.66231	-0.0813983	0.0229579	0.00488274	-0.825684	0.0166016	0.731689	-0.42436	-0.564596	0.355975	-0.611908	9.7407	2.04484	3.70033	0.0204999	0.0105955	-0.0235519	-0.957031	-0.638184	0.158203	0.32414	-0.899013	-0.266566	-0.125111	3.79523	-4.74574	-7.60402	0.0398863	0.0522727	-0.0873247	-0.0148926	0.732422	0.765625	0.512831	-0.72895	-0.220873	-0.396044	7.83635	-4.99235	-1.39967	0.0540571	0.103452	0.00613183	-0.545654	0.874512	0.320801	0.716669	-0.545612	-0.352609	-0.253691	7.92947	-5.64607	1.66137	-0.221161	0.00863239	-0.00844253	-0.607422	0.886475	-0.240479	0.285258	-0.10968	-0.166406	-0.9375	3.48934	2.70931	9.51748	-0.0120096	0.0216198	0.0328829	-0.626709	-0.0256348	-0.854736	0.168946	-0.67605	-0.297642	-0.65255	9.89383	1.50372	-0.957307	-0.0935186	-0.00254312	-0.00868762	-1.05054	0.105469	0.442139	
16	-0.889512	0.377194	-0.012119	0.257577	1.73995	-7.02293	7.62577	-0.0365699	-0.0208556	0.00164254	0.27832	0.87207	-0.595703	0.504028	-0.843262	-0.0414358	-0.182064	3.36916	-8.18161	-4.11081	0.0389869	0.0119139	-0.0458945	0.200928	0.864014	0.541748	0.817505	-0.165148	0.551236	0.0234566	-8.85519	-3.03482	3.63391	0.0816249	-0.00538052	-0.0337904	0.971924	0.020752	0.13623	0.725913	0.275341	0.586946	-0.229636	-9.41508	1.53924	2.07321	-0.00494662	-0.0279647	-0.00998056	1.03784	0.203857	0.148926	0.0138378	-0.80336	0.0121521	-0.595208	9.41651	-0.517169	-3.00196	0.0532066	-0.0477223	-0.0346326	-0.821045	0.012207	0.736084	-0.424425	-0.564955	0.355641	-0.611726	9.51484	2.23357	3.34382	-0.0675282	-0.0336885	-0.010889	-0.957031	-0.638184	0.162598	0.323358	-0.899176	-0.267218	-0.124565	3.68026	-4.49905	-6.77501	-0.026487	-0.0651842	-0.053829	-0.0124512	0.728027	0.767822	0.511227	-0.730247	-0.219352	-0.396574	7.77448	-5.2913	-1.60986	-0.0679247	0.00561872	-0.0127898	-0.54126	0.872314	0.334961	0.716121	-0.546616	-0.351698	-0.254341	7.82079	-5.82681	1.20599	0.0269617	0.0380564	-0.016776	-0.602783	0.886719	-0.244873	0.285508	-0.109123	-0.166349	-0.937499	3.14713	3.01651	9.74821	-0.018195	0.0171904	-0.00668876	-0.626953	-0.0212402	-0.859375	0.168885	-0.675997	-0.297802	-0.652548	9.77653	1.44219	-0.748936	0.00905919	0.00617778	-0.0178633	-1.05054	0.103271	0.439697	
17	-0.889466	0.377592	-0.0119485	0.257162	1.70946	-7.1543	7.63955	-0.0259955	-0.0375824	0.0227881	0.271973	0.869873	-0.59375	0.50421	-0.843088	-0.0416444	-0.18232	3.47156	-7.78721	-4.39223	0.0166058	0.0233107	-0.042532	0.196777	0.864014	0.534668	0.817587	-0.164617	0.551285	0.0231721	-8.79181	-2.44144	3.52504	0.0510225	0.00725033	0.00433364	0.97168	0.0251465	0.133789	0.725393	0.276099	0.586982	-0.230275	-9.65259	1.1238	1.70127	0.0426101	0.0156204	-0.0052621	1.0376	0.206055	0.146484	0.0142621	-0.803421	0.0126809	-0.595106	9.53478	-0.432351	-2.87535	-0.0574829	0.0100741	0.0121947	-0.821289	0.0144043	0.731689	-0.423505	-0.565754	0.354655	-0.612197	9.67006	2.51083	3.97342	0.0781195	0.00477231	-0.0186368	-0.950928	-0.631836	0.164551	0.318001	-0.900894	-0.266623	-0.127192	3.69745	-4.64234	-7.16274	-0.158412	0.0272737	-0.0197281	-0.0185547	0.717041	0.780762	0.512585	-0.729052	-0.21962	-0.396871	7.62628	-5.98088	-1.8757	0.0944241	0.0843005	-0.00919344	-0.543213	0.870117	0.325684	0.717929	-0.544445	-0.351731	-0.253855	7.79408	-5.89739	1.85036	0.0726793	0.0318849	-0.0150152	-0.605225	0.888916	-0.244873	0.286467	-0.108943	-0.166418	-0.937216	3.33223	2.14054	9.45897	0.103458	0.0549331	0.0456731	-0.622314	-0.0231934	-0.859131	0.168885	-0.675997	-0.297802	-0.652548	9.77653	1.44219	-0.748936	0.00905919	0.00617778	-0.0178633	-1.05054	0.103271	0.439697	
18	-0.88945	0.378777	-0.0124114	0.255445	1.84505	-7.37456	7.65191	-0.0388363	0.0290285	0.0491176	0.276123	0.874023	-0.587158	0.504635	-0.842578	-0.0414749	-0.183535	3.36696	-8.17113	-4.38646	0.0713115	0.0208451	-0.0565178	0.198975	0.861816	0.534668	0.817499	-0.16215	0.552203	0.0217843	-8.86629	-2.25366	3.39782	0.104645	-0.0019963	0.0130514	0.973877	0.0270996	0.138184	0.724575	0.276621	0.587701	-0.230391	-9.52224	1.29929	1.72956	-0.115852	0.0568282	-0.00146046	1.03809	0.199463	0.151123	0.0137091	-0.803739	0.0141008	-0.594657	9.5027	-0.892273	-3.29835	-0.019803	-0.0386303	0.0286091	-0.814697	0.0144043	0.736084	-0.423246	-0.566002	0.354255	-0.612379	9.54761	2.70837	3.57282	0.0147859	-0.00710598	-0.0128521	-0.952637	-0.638184	0.166748	0.319388	-0.900257	-0.267081	-0.127266	3.55092	-4.7694	-7.35162	0.0328454	0.0856752	-0.032714	-0.0185547	0.719238	0.774414	0.515126	-0.727113	-0.220092	-0.396877	8.14877	-4.87503	-1.60716	0.246449	0.103344	0.00275768	-0.547852	0.874512	0.320801	0.718442	-0.543861	-0.351293	-0.254262	7.91758	-6.13844	1.5064	0.116502	0.0478987	-0.0294082	-0.607178	0.884277	-0.249268	0.286976	-0.108863	-0.166432	-0.937067	3.37208	2.70824	9.65116	-0.0800562	-0.0043841	0.0276916	-0.624512	-0.0231934	-0.856934	0.170752	-0.67552	-0.298333	-0.652315	9.86111	1.5123	-0.977197	0.0463722	0.0187022	0.0039335	-1.05054	0.105469	0.439697	
19	-0.889531	0.37881	-0.0128567	0.255094	1.60427	-7.5012	7.66049	-0.0079894	0.0156005	0.040476	0.276367	0.869873	-0.589355	0.504745	-0.842545	-0.0417089	-0.183332	3.36546	-7.88878	-4.25028	0.00738955	-0.0102038	-0.0261581	0.192139	0.868408	0.539307	0.816801	-0.163808	0.552669	0.0236776	-9.10968	-2.58915	3.48234	-0.198198	0.0443735	0.0576997	0.967529	0.0251465	0.140625	0.724045	0.276427	0.588294	-0.230773	-9.57421	1.12014	1.44421	0.0406409	0.0255448	-0.0236737	1.03979	0.206055	0.150879	0.0150138	-0.803706	0.0127775	-0.5947	9.46297	-0.604596	-3.17871	0.14657	0.00918006	-0.0376806	-0.819336	0.0209961	0.736084	-0.42262	-0.566335	0.353383	-0.613007	9.67083	2.1773	3.51333	0.0347939	0.00746891	-0.00126262	-0.952881	-0.634033	0.162354	0.315056	-0.901604	-0.267473	-0.1277	3.84384	-4.71969	-6.87133	0.0292229	2.13992e-05	-0.0812107	-0.0163574	0.717041	0.778809	0.513626	-0.727919	-0.219855	-0.397474	7.4045	-5.47421	-1.32314	-0.0672581	0.00417043	-0.0300143	-0.547852	0.874512	0.325684	0.719231	-0.542767	-0.351308	-0.254349	7.68028	-6.33727	1.74742	0.100666	0.0526394	-0.0383902	-0.609619	0.88208	-0.253662	0.287261	-0.108844	-0.166722	-0.93693	3.28813	2.22682	9.70454	0.0280863	0.0102536	0.0242858	-0.624512	-0.0231934	-0.852295	0.169584	-0.675672	-0.297486	-0.652848	10.0444	1.94455	-0.814892	-0.118588	0.0116346	-0.0234411	-1.05054	0.103271	0.442139	
20	-0.890096	0.37814	-0.012527	0.254131	1.96019	-7.30436	7.70959	0.0381036	-0.0256501	0.0415331	0.27832	0.87207	-0.595703	0.505239	-0.842354	-0.0418161	-0.182825	3.84939	-8.07984	-4.21526	0.0507386	-0.00678413	-0.0093279	0.194336	0.868408	0.534668	0.816496	-0.163164	0.5533	0.0238818	-9.2162	-2.63715	3.34882	0.126828	0.0183928	0.0260075	0.967529	0.0229492	0.140625	0.723801	0.276185	0.588886	-0.230319	-9.51902	1.39415	1.61822	-0.0408195	0.0564619	-0.00138154	1.03979	0.205811	0.155273	0.0183181	-0.803805	0.00920354	-0.594539	9.19768	-0.452936	-2.85245	0.194107	-0.0245567	-0.0356751	-0.815186	0.0253906	0.733887	-0.420834	-0.567186	0.352001	-0.614243	9.57386	2.15203	3.72917	0.109364	-0.0111318	0.0122527	-0.953125	-0.629639	0.168701	0.314371	-0.901848	-0.266846	-0.128974	3.54124	-5.10994	-6.28487	-0.0734336	0.0999678	-0.00533005	-0.0161133	0.712891	0.785156	0.512969	-0.728765	-0.219294	-0.397083	7.88092	-5.33396	-1.08236	-0.0452595	0.0698464	0.012947	-0.54541	0.872314	0.33252	0.717453	-0.545288	-0.349702	-0.256183	8.03687	-5.54326	1.58872	-0.265785	0.0409144	-0.0124817	-0.602783	0.888916	-0.242676	0.287424	-0.108511	-0.167101	-0.936851	3.53558	2.50949	9.53881	-0.0126972	0.0142489	0.00447211	-0.624512	-0.0253906	-0.856934	0.165691	-0.676557	-0.294002	-0.654507	9.50273	1.43899	-1.10128	-0.208119	0.00594006	-0.00718853	-1.05029	0.098877	0.4375	
21	-0.890549	0.377235	-0.0113379	0.253943	1.85366	-7.13612	7.5946	0.0513937	-0.0383802	-0.00618697	0.272217	0.865479	-0.5979	0.505717	-0.841927	-0.0416056	-0.183516	3.40957	-8.0442	-4.378	-0.00470567	0.0136317	-0.0159227	0.189941	0.868408	0.532227	0.816094	-0.16277	0.554	0.0240961	-8.93245	-2.49024	3.43227	0.00732388	0.0323309	0.0205919	0.97168	0.0251465	0.142822	0.722497	0.27833	0.589063	-0.231377	-9.65178	1.17427	1.23484	0.20195	0.0323769	0.00539925	1.03784	0.201416	0.157715	0.0180201	-0.804	0.00970279	-0.594277	9.55822	-0.416299	-2.79263	-0.106101	0.0376148	-0.0186997	-0.817139	0.0209961	0.736084	-0.419279	-0.568235	0.34982	-0.615581	9.57003	2.48683	3.68272	0.0606348	0.0156499	-0.0109739	-0.955078	-0.631836	0.166504	0.313334	-0.902564	-0.266075	-0.128075	3.54011	-4.26111	-6.59608	-0.0647877	-0.0659423	0.0652216	-0.0163574	0.719238	0.785156	0.513082	-0.728505	-0.220166	-0.396931	7.85434	-5.62152	-1.27735	0.108963	-0.0254712	-0.0391261	-0.543457	0.872314	0.327881	0.719254	-0.542789	-0.350185	-0.255784	7.78762	-5.92238	1.96219	0.285015	0.0263458	-0.0442389	-0.602539	0.879883	-0.251465	0.287573	-0.108917	-0.167633	-0.936663	3.07731	2.90524	9.77421	0.0237433	-0.0138098	0.012081	-0.631104	-0.0234375	-0.854736	0.165857	-0.676056	-0.294225	-0.654883	9.84539	1.4374	-0.647419	0.0108508	0.0270977	-0.012354	-1.05249	0.0966797	0.435303	
22	-0.890295	0.377679	-0.0108795	0.254197	2.0788	-6.90844	7.66537	-0.0298597	-0.0175555	-0.00712185	0.271973	0.869873	-0.602295	0.505613	-0.841924	-0.0415214	-0.183836	3.7929	-8.02467	-4.11014	-0.0232676	0.0410224	-0.0263333	0.189697	0.875	0.529541	0.816802	-0.161253	0.55341	0.0238676	-9.09621	-1.78122	3.57746	-0.0280673	-0.0587513	0.00724976	0.97168	0.0251465	0.135986	0.723226	0.27643	0.590054	-0.22884	-9.6581	1.24563	1.20876	-0.249878	0.0285095	0.021884	1.04004	0.203613	0.159912	0.0196656	-0.804131	0.00773611	-0.594076	9.82882	-0.277539	-2.70752	0.144278	0.016082	-0.00840966	-0.81958	0.0275879	0.733887	-0.419206	-0.568322	0.349014	-0.616008	9.83614	1.81308	3.60782	-0.0187087	0.0016698	-0.00929601	-0.957275	-0.629639	0.175049	0.311673	-0.903036	-0.267146	-0.126566	3.82849	-4.63323	-6.55255	-0.0274351	-0.112025	-0.0269612	-0.00952148	0.708496	0.7854	0.513736	-0.728155	-0.220334	-0.396635	7.61539	-5.09883	-1.4092	-0.0913982	0.0283901	-0.0107239	-0.543701	0.878662	0.327881	0.718445	-0.543892	-0.349576	-0.256542	7.98452	-5.97154	1.55552	-0.107804	0.0228278	-0.0174465	-0.602295	0.877441	-0.249023	0.287799	-0.108412	-0.167224	-0.936726	3.29173	2.62218	9.39895	0.0284673	0.00915475	0.00490609	-0.622314	-0.0231934	-0.854736	0.167101	-0.675441	-0.29518	-0.654771	9.59106	1.44365	-0.983734	0.138698	0.0273597	0.00674836	-1.05273	0.103271	0.442139	
23	-0.890022	0.378537	-0.011736	0.253837	1.80014	-7.54425	7.60128	-0.0332105	0.0186201	0.0251608	0.276367	0.867676	-0.591553	0.505687	-0.841546	-0.0409844	-0.185473	3.4028	-8.10283	-4.01493	0.00671783	0.100571	-0.0350286	0.194336	0.868408	0.529785	0.816077	-0.164426	0.553464	0.0256893	-9.28627	-3.23477	3.40834	0.0340083	0.00462492	-0.0306317	0.967529	0.0229492	0.143066	0.72346	0.276546	0.589578	-0.229184	-9.52598	2.29252	1.78469	-0.0316913	-0.0209598	0.0148457	1.04004	0.201416	0.157715	0.0184369	-0.803818	0.0111792	-0.594485	9.26537	-0.999456	-3.00778	-0.120528	0.00832152	0.054487	-0.81958	0.0253906	0.740723	-0.418571	-0.56854	0.349025	-0.616232	9.5862	1.98446	3.60646	0.0105019	-0.0286855	0.0273528	-0.96167	-0.629639	0.177246	0.311884	-0.903115	-0.265904	-0.128091	3.66521	-4.37945	-7.43551	-0.0474851	0.107029	0.0114509	-0.0202637	0.706299	0.783203	0.51103	-0.730066	-0.218634	-0.397556	7.8848	-5.81046	-1.23011	-0.12862	0.0633256	-0.00769257	-0.54541	0.872314	0.327881	0.717887	-0.544738	-0.348952	-0.257158	7.77109	-5.75139	1.8009	-0.064911	0.0118165	-0.0117597	-0.602783	0.886719	-0.244873	0.287944	-0.108769	-0.166674	-0.936737	3.38003	2.41348	9.54033	-0.0537467	0.0252958	0.0138563	-0.624512	-0.0253906	-0.861572	0.167422	-0.675331	-0.295186	-0.6548	9.22738	1.82079	-1.07566	0.0217792	0.022204	0.00858849	-1.05273	0.101074	0.439941	
24	-0.889875	0.378159	-0.0120114	0.254898	1.87503	-7.0909	7.83945	0.00503721	0.0288097	-0.0513026	0.278809	0.865479	-0.589355	0.505854	-0.841329	-0.0418959	-0.185801	3.74782	-7.87513	-4.26501	-0.0125699	0.00846446	-0.0597228	0.189697	0.872803	0.531982	0.815184	-0.169433	0.553072	0.0296632	-9.115	-2.18296	3.65998	-0.543862	0.0220077	0.0336198	0.969727	0.020752	0.143066	0.725274	0.268848	0.59261	-0.224748	-9.71704	1.49942	1.36224	-0.263317	0.0302943	-0.111516	1.04028	0.199219	0.162109	0.0185615	-0.803753	0.00992585	-0.59459	9.49811	-0.507405	-3.03424	0.156882	0.0304851	-0.0879219	-0.817383	0.0253906	0.731689	-0.419037	-0.568105	0.348911	-0.616381	9.55414	2.33442	3.50615	-0.014282	0.00228408	-0.0220974	-0.959717	-0.627441	0.175049	0.31021	-0.903651	-0.265985	-0.128209	3.86156	-4.39323	-7.38669	-0.0107548	-0.0623966	-0.0469016	-0.0136719	0.704102	0.789795	0.512604	-0.729159	-0.220566	-0.396125	7.61004	-4.34591	-1.56976	0.108257	-0.110844	-0.0280593	-0.545166	0.865723	0.330322	0.718592	-0.54382	-0.349122	-0.256905	7.92599	-5.91856	1.41623	0.0931825	0.0231545	-0.0273942	-0.604736	0.879639	-0.244629	0.287263	-0.108068	-0.166558	-0.937048	3.07234	2.75376	9.64592	-0.042001	0.0318095	-0.0426709	-0.631104	-0.0256348	-0.861572	0.168146	-0.675585	-0.29435	-0.654729	9.40551	2.02372	-0.784715	0.0283387	0.00532018	0.0408653	-1.05273	0.103271	0.4375	
25	-0.889758	0.378431	-0.0114068	0.254931	1.64888	-7.30149	7.74644	-0.00978721	-0.0521188	-0.0235747	0.27417	0.867676	-0.595703	0.506241	-0.840724	-0.04124	-0.18762	3.43055	-8.16011	-4.05774	0.0526189	0.0961462	-0.0192093	0.189941	0.870605	0.529785	0.813456	-0.176108	0.553384	0.0322688	-8.44868	-2.94224	3.45959	-0.112278	0.0163587	-0.0463974	0.969727	0.0185547	0.147705	0.727397	0.260705	0.594915	-0.221368	-9.34229	1.24118	1.92353	-0.436682	-0.0201362	-0.10844	1.0376	0.205811	0.159668	0.020995	-0.80355	0.00764941	-0.594817	9.24134	-0.0477445	-2.61787	-0.0224788	0.00127857	0.0107947	-0.81958	0.0275879	0.729248	-0.418593	-0.568506	0.347669	-0.617015	9.51621	2.2711	3.45348	-0.00445279	0.0171259	-0.0202696	-0.953125	-0.627441	0.166504	0.310722	-0.903474	-0.265019	-0.130201	3.57567	-4.54328	-6.82981	-0.00598343	0.113615	0.0206488	-0.0180664	0.706299	0.789551	0.506089	-0.734104	-0.216923	-0.397379	7.67528	-6.13619	-0.948737	-0.320657	0.0410595	0.00137221	-0.542969	0.865479	0.34668	0.716038	-0.547647	-0.34693	-0.258865	7.50685	-5.80567	2.07619	-0.312897	0.0224166	0.012749	-0.5979	0.884277	-0.233643	0.28641	-0.108051	-0.165267	-0.93754	3.39025	2.40794	9.76157	-0.0173631	0.0247253	-0.0120645	-0.622314	-0.0231934	-0.856934	0.166787	-0.676423	-0.291787	-0.655358	9.61859	1.07459	-0.978791	-0.0371976	0.00648779	0.0195909	-1.05493	0.101074	0.435303	
26	-0.890602	0.376818	-0.008284	0.254494	2.38616	-6.52595	7.52114	0.0576835	-0.003899	-0.0251636	0.269775	0.867676	-0.600098	0.506363	-0.840679	-0.0402713	-0.187707	3.58269	-8.08026	-4.32836	-0.04537	0.0339637	0.0159476	0.189941	0.870605	0.529785	0.811282	-0.179084	0.555464	0.0347766	-9.56674	-2.43776	3.46898	-0.137879	0.126269	-0.0110084	0.969727	0.0141602	0.147705	0.727207	0.255056	0.597906	-0.220512	-9.55809	0.693849	1.4397	-0.124348	0.0862464	-0.129189	1.03296	0.210205	0.164062	0.0187858	-0.803701	0.011735	-0.59462	9.63891	-1.23131	-3.47193	-0.0833593	0.00899356	0.0541781	-0.817383	0.0253906	0.733887	-0.418666	-0.568464	0.348414	-0.616583	9.90459	2.0558	3.4404	-0.0489078	-0.0456628	0.025169	-0.955322	-0.625244	0.170654	0.309521	-0.904055	-0.264641	-0.129793	3.69998	-4.55131	-7.22151	-0.014755	-0.0929778	-0.0187198	-0.0219727	0.701904	0.793945	0.511904	-0.729453	-0.219101	-0.3973	7.8562	-6.26606	-1.97541	0.50183	0.111426	-0.0482953	-0.545654	0.874512	0.327881	0.718239	-0.544501	-0.348754	-0.256946	8.07783	-6.33145	1.50649	0.411452	-0.0200505	-0.0428922	-0.607422	0.886719	-0.251465	0.286555	-0.108617	-0.166811	-0.937157	3.3409	2.7173	9.4482	0.0424521	-0.0345218	0.000655619	-0.628906	-0.0234375	-0.852295	0.167057	-0.676619	-0.291375	-0.65527	9.86366	1.88305	-0.83825	-0.0337894	0.00350006	0.0276864	-1.05273	0.101074	0.439941	
27	-0.890497	0.376904	-0.00917401	0.254705	2.20256	-6.85	7.5425	-0.0267037	0.0638701	0.0097412	0.269775	0.867676	-0.602295	0.506273	-0.840677	-0.0398297	-0.188051	3.71962	-8.35195	-3.86763	-0.0201661	0.0532603	-0.00492388	0.189941	0.870605	0.536865	0.810531	-0.178688	0.556758	0.0336256	-8.89125	-2.89249	3.31956	0.071953	0.138117	-0.0368114	0.969727	0.0163574	0.149902	0.725687	0.256249	0.598566	-0.222339	-9.60084	0.604625	1.35073	0.176751	0.100033	-0.0884699	1.03516	0.212402	0.16626	0.0217389	-0.803401	0.0089085	-0.594974	9.33838	-0.776755	-2.89755	0.32452	0.0373328	-0.0562577	-0.817627	0.0341797	0.736084	-0.417897	-0.56872	0.348228	-0.616974	9.58979	2.5431	3.89716	0.0317295	-0.0212191	0.0301001	-0.955322	-0.625244	0.168457	0.310619	-0.903873	-0.264257	-0.129221	3.74026	-4.29056	-7.30265	0.0809681	0.00158352	0.0106363	-0.0158691	0.706299	0.787598	0.514667	-0.727391	-0.22031	-0.396841	7.6628	-4.1617	-1.38424	0.295749	0.0537999	-0.0161723	-0.54541	0.870117	0.327881	0.719755	-0.54221	-0.349877	-0.256024	7.87202	-5.51761	1.77696	0.251613	-0.00985437	-0.046772	-0.602783	0.888916	-0.251465	0.286102	-0.10888	-0.166331	-0.93735	3.39679	2.60324	9.48446	-0.0465593	0.000675469	-0.0276945	-0.628906	-0.0256348	-0.850098	0.166467	-0.677064	-0.290359	-0.655411	9.59212	1.58564	-1.06408	-0.0907038	-0.00873476	0.0280937	-1.0481	0.103271	0.4375	
28	-0.890545	0.376238	-0.0109678	0.255448	1.62948	-7.18621	7.55581	0.027212	0.0640475	0.00315574	0.267578	0.867676	-0.5979	0.507187	-0.840244	-0.0396316	-0.187563	3.40854	-7.76604	-3.9481	-0.0267036	0.0342877	0.00751404	0.192139	0.868408	0.536865	0.809856	-0.174918	0.559064	0.0313723	-8.97363	-2.61246	2.89979	0.177075	0.0758662	0.0168635	0.967773	0.0163574	0.15918	0.723703	0.257363	0.599608	-0.224694	-9.41973	0.489432	1.32691	0.0364176	0.0576398	-0.0654427	1.03467	0.223389	0.168213	0.0192997	-0.803746	0.0121041	-0.594536	9.36954	-0.464466	-3.10635	-0.328429	-0.0230014	0.04411	-0.817383	0.0253906	0.736084	-0.41812	-0.568762	0.347412	-0.617244	9.52372	2.19064	3.01695	-0.0216207	0.00733171	-0.0291893	-0.957764	-0.623047	0.168457	0.311211	-0.903729	-0.263862	-0.129608	3.72043	-4.36231	-6.99055	0.0502682	0.06098	0.00549047	-0.015625	0.704102	0.789795	0.509743	-0.731165	-0.216553	-0.398327	7.42642	-5.34183	-1.3554	-0.406581	0.046361	0.0105476	-0.543213	0.870117	0.334961	0.718182	-0.544317	-0.349226	-0.256856	7.64371	-5.30033	1.76051	-0.219542	-0.00874686	-0.0116395	-0.600342	0.884521	-0.251465	0.285909	-0.109423	-0.165284	-0.937531	3.09091	2.57908	9.70648	0.00187741	-0.0272389	0.0181605	-0.631104	-0.0234375	-0.859131	0.166541	-0.677261	-0.290549	-0.655105	9.55117	1.35872	-0.753498	0.189086	-0.00223013	0.00309918	-1.05273	0.105469	0.442139	
29	-0.890564	0.375681	-0.0118871	0.256161	2.05157	-6.88495	7.69511	-0.0214578	0.0623775	-0.0163331	0.27417	0.869873	-0.5979	0.506481	-0.8408	-0.038158	-0.187287	3.63105	-8.39594	-4.13946	-0.0504909	0.0753081	0.0293075	0.185547	0.870605	0.527344	0.809446	-0.173547	0.560078	0.0314794	-9.54448	-2.3367	3.15588	0.0251763	-0.00570925	0.0257411	0.969971	0.0141602	0.156982	0.721774	0.260592	0.600069	-0.225947	-9.76763	0.339626	0.868595	0.157765	0.0381705	0.0505023	1.03247	0.221191	0.17041	0.0232472	-0.803785	0.00845111	-0.594406	9.28541	-0.787262	-2.76178	0.313278	-0.0297905	-0.0922455	-0.817627	0.0319824	0.731689	-0.416931	-0.569622	0.346962	-0.617509	9.68033	2.63032	3.58647	0.0492454	-0.0288746	0.00529679	-0.959717	-0.627441	0.172852	0.309694	-0.904699	-0.262867	-0.128492	4.32239	-4.23436	-7.61458	0.0202204	0.00758539	0.0232457	-0.00927734	0.704102	0.791748	0.511909	-0.729374	-0.217467	-0.398335	7.99899	-6.50736	-1.68019	0.315943	0.0470491	-0.040581	-0.549805	0.872314	0.327881	0.717597	-0.544942	-0.349316	-0.257044	8.07808	-5.93793	1.51919	0.229198	0.0110229	-0.0316515	-0.60498	0.88208	-0.253662	0.285613	-0.109316	-0.16674	-0.937376	3.15967	3.07109	9.52055	0.0320826	0.0241061	-0.0293198	-0.628906	-0.0234375	-0.854736	0.164861	-0.677796	-0.289435	-0.65547	9.90553	1.21885	-0.678241	-0.17553	-0.0148414	-0.00374081	-1.05469	0.098877	0.435303	
30	-0.889966	0.375907	-0.0141448	0.257787	1.89926	-7.04483	7.83958	-0.0387807	0.0984069	-0.0178892	0.276611	0.865479	-0.5979	0.507032	-0.840646	-0.0378525	-0.186548	3.60922	-8.0462	-4.05378	0.00759679	0.0193767	0.0041317	0.187744	0.870605	0.527344	0.809932	-0.171925	0.559893	0.0311774	-9.34647	-2.98721	3.04491	0.149372	-0.0243413	0.032006	0.969971	0.0119629	0.154785	0.721774	0.260592	0.600069	-0.225947	-9.76763	0.339626	0.868595	0.157765	0.0381705	0.0505023	1.03247	0.221191	0.17041	0.0248843	-0.804242	0.00566201	-0.593754	9.55573	-0.304411	-2.92997	0.0770544	-0.0218777	-0.0602628	-0.817871	0.0385742	0.733887	-0.416465	-0.570675	0.345311	-0.617777	9.78073	1.84668	3.72631	0.0740499	0.00641028	-0.0435128	-0.955322	-0.625244	0.177246	0.309903	-0.904526	-0.262534	-0.129883	3.58344	-4.54651	-6.72122	0.00350492	0.124176	-0.0294032	-0.0136719	0.704102	0.796143	0.514339	-0.727728	-0.219306	-0.397206	7.63233	-4.05969	-1.10574	-0.036346	-0.0121304	-0.00151856	-0.549805	0.872314	0.325684	0.718634	-0.543498	-0.349914	-0.25639	7.89289	-5.20301	1.91665	0.0257574	0.000658873	-0.0159347	-0.60498	0.886719	-0.244873	0.285012	-0.109392	-0.166248	-0.937637	3.55414	2.10187	9.39211	-0.0240784	0.0219181	-0.0166427	-0.626465	-0.0300293	-0.856689	0.165804	-0.677798	-0.290236	-0.654876	9.99066	1.69745	-0.90103	-0.00598869	-0.0115899	-0.00946141	-1.0481	0.098877	0.442139	
31	-0.889807	0.376075	-0.0156679	0.258003	1.49393	-7.28078	7.81508	-0.0201749	0.0338832	0.00923422	0.271973	0.869873	-0.59375	0.506804	-0.840729	-0.0374261	-0.18688	3.41837	-7.84947	-4.11784	-0.0192746	0.0332823	-0.0110962	0.192139	0.868408	0.534668	0.811506	-0.169916	0.558251	0.030708	-8.92524	-2.03508	3.1778	-0.077066	-0.0984202	0.0290162	0.965576	0.0144043	0.152344	0.722131	0.26395	0.598387	-0.225367	-9.54999	0.806911	1.09419	0.0309679	-0.0085173	0.0621052	1.03271	0.216797	0.168457	0.0222357	-0.804511	0.00966826	-0.593442	9.36551	-0.686403	-2.85796	-0.240342	-0.022909	0.0823115	-0.81958	0.0275879	0.740723	-0.417177	-0.570464	0.345953	-0.61713	9.52445	1.85333	3.32491	-0.150632	-0.0399844	-0.00578965	-0.95752	-0.625244	0.181396	0.310666	-0.904532	-0.262291	-0.128498	3.89098	-4.18044	-7.39526	-0.0166537	-0.0847282	0.0192953	-0.00927734	0.704102	0.789795	0.508614	-0.731738	-0.215135	-0.399484	7.5728	-6.68637	-1.58909	-0.331819	0.109747	-0.00693953	-0.543213	0.87207	0.3396	0.715857	-0.547441	-0.348847	-0.257221	7.88436	-6.49837	1.48041	-0.111934	-0.0299525	0.00454465	-0.602539	0.884277	-0.238037	0.285087	-0.109698	-0.166035	-0.937616	3.02553	2.80391	10.0169	-0.0263766	-0.00774785	0.015995	-0.626709	-0.0234375	-0.856934	0.16288	-0.67878	-0.287539	-0.655782	9.59215	1.27733	-0.857593	-0.0637115	0.00703849	-0.0016953	-1.05273	0.101074	0.444336	
32	-0.889539	0.376722	-0.0157684	0.257977	1.92794	-7.17355	7.84402	-0.0409124	-0.00664352	0.00811479	0.278564	0.869873	-0.591553	0.505724	-0.841341	-0.0363954	-0.187255	3.60783	-8.68497	-4.04132	-0.0467758	0.0562094	-0.00460844	0.196533	0.868408	0.534424	0.812481	-0.169328	0.557057	0.0298531	-9.3419	-2.97412	3.23824	0.209791	-0.0436004	-0.0516102	0.969971	0.0100098	0.145508	0.722357	0.268013	0.596053	-0.226031	-9.83702	1.1897	1.10011	0.204463	-0.0547678	0.118259	1.03735	0.212402	0.164062	0.0228717	-0.804479	0.0093124	-0.593468	9.58783	-0.464654	-2.95566	0.0897229	0.011159	-0.0406455	-0.81543	0.0319824	0.74292	-0.416247	-0.57114	0.345311	-0.617493	9.7866	2.84398	3.87447	0.0463457	-0.0122301	-0.00317365	-0.95752	-0.627441	0.179443	0.310042	-0.904732	-0.262029	-0.129131	3.45286	-4.98479	-6.99833	0.0986467	0.0187687	-0.0186005	-0.015625	0.704102	0.787598	0.513078	-0.728635	-0.218307	-0.397724	8.00069	-5.19967	-1.48528	0.268038	0.00559273	-0.0193525	-0.545654	0.874512	0.327881	0.7179	-0.544377	-0.350766	-0.255415	7.90686	-5.81606	1.6169	0.157942	-0.0268517	-0.0362565	-0.607178	0.884277	-0.251465	0.285	-0.110049	-0.166422	-0.937533	3.45489	2.4746	9.39454	0.0230278	-0.0241145	-0.000666457	-0.633545	-0.0234375	-0.859131	0.16292	-0.679347	-0.287227	-0.65532	9.61116	1.387	-0.645043	-0.0474094	-0.0252042	0.0323088	-1.05273	0.103271	0.442139	
33	-0.889194	0.377113	-0.0157258	0.258596	1.56695	-7.52562	7.67107	0.000335309	-0.00827461	-0.0529946	0.271973	0.869629	-0.589355	0.505726	-0.841182	-0.0360507	-0.188027	3.44887	-7.86763	-4.00322	-0.0415552	0.0551377	-0.0221977	0.196533	0.866211	0.532227	0.814598	-0.166248	0.554999	0.0276943	-9.02464	-2.00929	3.49333	0.0312789	-0.0940263	-0.0393793	0.974121	0.0185547	0.140869	0.723173	0.269928	0.59426	-0.225865	-9.58546	1.27088	1.16526	0.0126005	-0.0452716	0.0676921	1.03979	0.205811	0.162109	0.0236009	-0.804142	0.0086925	-0.593905	9.52536	-0.593002	-3.14505	0.0608331	0.0216599	-0.0611838	-0.819824	0.0341797	0.74292	-0.417066	-0.570805	0.34444	-0.617736	9.6682	2.01395	3.27613	-0.00626659	0.0433667	-0.0410941	-0.955078	-0.629639	0.181641	0.309065	-0.905116	-0.262215	-0.128401	4.03131	-4.22515	-7.45789	-0.128771	0.02687	-0.0297149	-0.0136719	0.704102	0.789795	0.51192	-0.729334	-0.217372	-0.398446	7.4988	-4.69713	-1.39602	-0.106597	-0.0027137	-0.0241702	-0.54126	0.874268	0.337158	0.716111	-0.546846	-0.350135	-0.256027	7.82905	-5.82904	1.55621	-0.163642	-0.00640841	-0.00275388	-0.602783	0.886719	-0.244873	0.2838	-0.110507	-0.166046	-0.93791	3.76428	2.4285	9.70032	-0.113064	-0.0274658	-0.0138547	-0.633301	-0.027832	-0.854492	0.170586	-0.677031	-0.293693	-0.652896	10.4317	1.52004	-0.861872	0.48996	0.0737528	0.00527267	-1.05054	0.107666	0.435303	
34	-0.889129	0.376265	-0.0146705	0.260115	2.02422	-6.99113	7.63995	0.0459133	0.0055067	-0.0627736	0.27417	0.869629	-0.587158	0.505621	-0.841292	-0.0357074	-0.187885	3.39739	-8.04835	-4.07608	0.00161751	0.00131258	-0.0090321	0.196777	0.864014	0.537109	0.815433	-0.165678	0.553991	0.0267157	-9.24614	-2.76431	3.19492	0.17704	-0.0552352	-0.0127486	0.967529	0.0251465	0.142822	0.723655	0.272846	0.591664	-0.227622	-9.56751	1.66477	1.65647	0.082484	-0.0659135	0.0545535	1.04443	0.206055	0.155273	0.0205829	-0.804446	0.0112016	-0.593563	9.39595	-0.737807	-3.03691	-0.169297	-0.0158653	0.0254837	-0.817383	0.0297852	0.738525	-0.417179	-0.570795	0.342956	-0.618495	9.55775	1.97103	3.4003	-0.0639711	0.00934564	-0.00607564	-0.952881	-0.631836	0.179443	0.30919	-0.905158	-0.261198	-0.12987	3.27014	-4.59259	-6.51194	0.0308325	-0.0109719	0.0247266	-0.0134277	0.701904	0.793945	0.50744	-0.732776	-0.21576	-0.398737	7.74064	-6.61163	-1.50734	-0.26959	-0.00996228	-0.0253591	-0.538818	0.867676	0.344238	0.716587	-0.546128	-0.350765	-0.255365	7.8331	-5.72564	1.65833	0.0769937	-0.0135151	-0.0201817	-0.609863	0.891113	-0.242676	0.284232	-0.11001	-0.166429	-0.937769	3.05552	2.7376	9.32618	0.0548372	0.0458204	0.019859	-0.626709	-0.0256348	-0.854736	0.171128	-0.676589	-0.294029	-0.653062	9.85617	1.71032	-1.05982	0.0524559	0.0468111	-0.00693274	-1.05054	0.107666	0.442139	
35	-0.889043	0.375921	-0.0149199	0.260889	1.76363	-6.92016	7.64553	0.0187372	0.0437955	-0.0485584	0.27417	0.869873	-0.591553	0.505406	-0.841449	-0.0357576	-0.187746	3.58473	-7.93346	-4.05936	-0.0253474	-0.00219483	-0.0204586	0.192139	0.866211	0.539307	0.815433	-0.165678	0.553991	0.0267157	-9.24614	-2.76431	3.19492	0.17704	-0.0552352	-0.0127486	0.967529	0.0251465	0.142822	0.723925	0.275333	0.589966	-0.228176	-9.66202	1.06764	1.18462	0.19687	-0.0377707	0.0671687	1.0332	0.208008	0.153076	0.0215703	-0.804256	0.0102614	-0.593802	9.47562	-0.78949	-2.72517	0.107965	0.0294214	-0.0286458	-0.817383	0.0297852	0.740723	-0.416944	-0.570718	0.342783	-0.61882	9.68084	2.14677	3.86982	-0.00852668	0.00644353	0.012592	-0.953125	-0.627441	0.179443	0.310501	-0.904667	-0.261582	-0.129388	3.8174	-4.59982	-7.82287	0.168022	0.112702	-0.0341092	-0.00927734	0.704102	0.789795	0.511965	-0.729509	-0.218503	-0.397447	7.69703	-4.52129	-1.51927	0.307485	-0.0164716	-0.0121447	-0.541016	0.86792	0.321045	0.715298	-0.547803	-0.350198	-0.256167	7.8445	-6.17561	1.35647	-0.180314	0.00233163	-0.0186213	-0.600586	0.891113	-0.238281	0.284064	-0.110233	-0.166273	-0.937822	3.08486	2.92525	9.71076	-0.0174269	-0.00198029	-0.00678235	-0.630859	-0.0300293	-0.854492	0.170691	-0.676471	-0.293916	-0.653349	9.5858	1.34624	-0.875921	0.0747204	0.0151764	-0.00228427	-1.04834	0.107666	0.439697	
36	-0.888983	0.37529	-0.0150521	0.261994	1.68432	-6.85227	7.6972	0.0221474	0.0136944	-0.0273193	0.269775	0.867676	-0.595947	0.505955	-0.841177	-0.0358808	-0.187466	3.36035	-8.02703	-4.01482	0.0384921	-0.0109223	-0.0152014	0.192139	0.868408	0.536865	0.81696	-0.164062	0.552321	0.0245141	-9.11437	-3.0233	3.18233	0.0763082	-0.0256734	-0.0386886	0.969727	0.0185547	0.138428	0.725044	0.275449	0.588935	-0.227143	-9.58828	1.54006	1.71261	-0.179792	-0.0205356	0.0488714	1.04224	0.20166	0.15332	0.016604	-0.804366	0.0157509	-0.593693	9.57103	-1.23466	-3.30005	-0.150851	-0.00658046	0.006109	-0.817139	0.0231934	0.736084	-0.417814	-0.570196	0.341744	-0.619289	9.46753	2.53059	3.15194	-0.0935359	0.039254	-0.0371349	-0.950928	-0.629639	0.172852	0.311381	-0.904269	-0.262756	-0.127666	3.67441	-4.49403	-6.60481	0.0629678	-0.102409	-0.0323155	-0.00732422	0.708496	0.787354	0.510143	-0.730538	-0.217482	-0.398459	7.68897	-5.80072	-1.6694	-0.108881	0.0229035	-0.0465212	-0.543213	0.86792	0.332764	0.715339	-0.547545	-0.3506	-0.256057	7.88763	-6.077	1.65018	-0.200265	-0.00345719	-0.00973337	-0.607666	0.891113	-0.240479	0.284382	-0.110468	-0.165653	-0.937807	3.49903	2.23001	9.596	0.0477331	0.0300385	0.0489673	-0.626465	-0.0300293	-0.849854	0.170332	-0.676525	-0.293597	-0.65353	9.62047	1.73014	-0.933661	-0.0373495	0.0101557	-0.00718474	-1.05273	0.105469	0.4375	
37	-0.888555	0.375968	-0.0151612	0.262466	1.89924	-6.94782	7.75685	-0.0436496	0.00474354	-0.0167381	0.271729	0.871826	-0.589355	0.505154	-0.841841	-0.0357218	-0.186676	3.52104	-8.35371	-4.13977	-0.0862999	0.0399039	-0.000791124	0.194336	0.866211	0.541748	0.817964	-0.165082	0.550463	0.02594	-9.17102	-2.38523	3.76078	-0.174142	-0.0628923	0.000913888	0.969727	0.0163574	0.138672	0.725734	0.274919	0.588696	-0.226198	-9.70736	1.18652	1.24757	-0.0860918	-0.0299364	0.0490901	1.04053	0.192871	0.148926	0.016604	-0.804366	0.0157509	-0.593693	9.57103	-1.23466	-3.30005	-0.150851	-0.00658046	0.006109	-0.817139	0.0231934	0.736084	-0.417444	-0.570226	0.340566	-0.620159	9.63187	2.20219	3.37275	0.107413	0.0181507	-0.00739004	-0.955078	-0.631836	0.177246	0.312578	-0.903833	-0.26317	-0.126978	4.005	-4.71301	-7.72862	0.13256	-0.0211561	-0.0273076	-0.00732422	0.708496	0.789551	0.509851	-0.730919	-0.217722	-0.398003	7.83426	-5.55493	-1.70139	-0.0130119	-0.0375208	-0.0142172	-0.545654	0.876465	0.337158	0.716288	-0.546168	-0.351231	-0.255479	7.88872	-6.88477	1.5093	0.155173	-0.00143504	-0.032147	-0.602783	0.886719	-0.24707	0.285124	-0.110692	-0.165935	-0.937506	3.02083	2.69157	9.68117	0.00784914	0.00472569	0.0287579	-0.624512	-0.0231934	-0.854736	0.167054	-0.676376	-0.293384	-0.654625	9.60403	1.77032	-0.670455	-0.060116	-0.00726707	-0.0529038	-1.05029	0.098877	0.430664	
38	-0.888399	0.376798	-0.0162358	0.261738	1.81064	-7.09674	7.83296	-0.043081	0.0164377	0.04012	0.271973	0.867676	-0.589355	0.506702	-0.841235	-0.0370382	-0.184946	3.74502	-7.84803	-4.272	0.0953258	-0.0496684	-0.0321181	0.192139	0.868408	0.532227	0.818363	-0.165349	0.549796	0.0258077	-8.96129	-2.6711	3.60028	0.0743158	-0.06425	0.0213701	0.978271	0.020752	0.129395	0.726308	0.2751	0.587969	-0.226029	-9.48456	2.04937	2.23212	-0.137332	-0.00163271	0.0117788	1.04468	0.199463	0.151123	0.0188871	-0.804473	0.0116545	-0.593574	9.79055	0.236301	-2.375	-0.104393	-0.0116211	-0.0341615	-0.819336	0.0209961	0.738525	-0.417544	-0.570234	0.338943	-0.620974	9.73614	2.08379	3.94559	0.010928	0.0495055	-0.0467962	-0.953125	-0.629639	0.172852	0.314913	-0.902866	-0.263566	-0.127263	3.60233	-4.5691	-7.21142	0.208293	0.0785532	-0.0503988	-0.00952148	0.710693	0.783203	0.511341	-0.73001	-0.218425	-0.397373	7.3705	-5.34152	-1.68333	0.162293	-0.0100348	-0.0266664	-0.541016	0.870117	0.337402	0.714732	-0.548369	-0.350116	-0.256647	7.78496	-5.88262	1.30992	-0.272791	0.0254368	-0.000740883	-0.600586	0.888916	-0.240479	0.285393	-0.110403	-0.165667	-0.937505	3.25071	2.51816	9.60381	-0.00127884	0.0316746	0.0185912	-0.631104	-0.0234375	-0.854736	0.167991	-0.67588	-0.294882	-0.654224	9.60631	1.75601	-0.87555	0.0470341	0.00957759	-0.0222049	-1.05054	0.103271	0.4375	
39	-0.888945	0.376674	-0.0153506	0.260111	1.74885	-7.15686	7.72736	0.0271206	-0.0789506	0.0362655	0.27417	0.869873	-0.59375	0.505846	-0.841773	-0.0370859	-0.18483	3.42776	-8.3377	-4.33949	-0.0661209	-0.00445397	-0.0191014	0.19873	0.866211	0.539307	0.817627	-0.168859	0.549688	0.028562	-8.88867	-2.7707	3.74008	-0.221554	0.0214727	-0.0122716	0.97168	0.0229492	0.129395	0.726702	0.273002	0.589	-0.224615	-9.39188	1.33325	1.53517	0.031995	0.0156324	-0.0188361	1.04272	0.195068	0.151123	0.0149273	-0.804052	0.0169285	-0.59413	9.15631	-1.43617	-3.32565	-0.196988	0.0244325	0.0563515	-0.814697	0.0144043	0.738525	-0.417825	-0.570035	0.338007	-0.621478	9.61743	2.54273	3.14129	-0.0711751	0.0114089	-0.00956467	-0.957275	-0.629639	0.172852	0.318799	-0.901114	-0.265673	-0.125614	3.95783	-4.75354	-7.5846	0.213887	0.0903927	-0.0809159	-0.00561523	0.719482	0.772217	0.509958	-0.730803	-0.21828	-0.397773	8.03731	-5.72438	-1.14369	-0.161409	0.10777	-0.027409	-0.547363	0.865723	0.334961	0.717545	-0.54466	-0.351057	-0.25541	7.89541	-5.4768	1.9582	0.192718	0.0205303	-0.0312811	-0.60498	0.88208	-0.244629	0.286539	-0.110379	-0.165997	-0.9371	3.07688	2.69021	9.68628	0.0760402	0.0122049	0.0519388	-0.631104	-0.027832	-0.852295	0.167104	-0.675924	-0.295459	-0.654146	9.59679	1.36099	-0.863056	0.0632184	-0.0104126	-0.0427538	-1.05249	0.0966797	0.433105	
40	-0.888877	0.377082	-0.0145766	0.259796	2.18995	-7.14381	7.69665	-0.0112373	-0.0112171	-0.0102275	0.276367	0.867676	-0.589355	0.505567	-0.842195	-0.0382618	-0.183428	3.43572	-8.19241	-4.02589	-0.00984229	-0.0686558	-0.0225327	0.203125	0.868408	0.536865	0.817413	-0.168242	0.55016	0.029245	-9.37422	-2.28059	3.39904	-0.0043787	0.00258307	0.0580025	0.971924	0.0141602	0.13623	0.72687	0.270457	0.590841	-0.222304	-9.73169	1.53346	1.52539	-0.222858	0.0674565	-0.0238296	1.04272	0.195068	0.151123	0.0191439	-0.804098	0.0113654	-0.594079	9.72558	0.00137907	-2.85296	0.359312	0.0181849	-0.13288	-0.81958	0.0253906	0.738525	-0.417244	-0.570274	0.336079	-0.622693	9.58169	2.47325	3.99938	0.13026	0.0447549	-0.0173258	-0.95752	-0.623047	0.177002	0.320701	-0.900315	-0.266546	-0.124645	3.57248	-4.49995	-6.94282	0.155939	-0.0543497	-0.0377583	-0.00805664	0.723633	0.77002	0.511582	-0.729719	-0.21967	-0.396911	7.86671	-5.16794	-1.4498	0.242429	-0.00604814	-0.0272357	-0.549805	0.869873	0.3396	0.716137	-0.546633	-0.350463	-0.255962	8.0523	-5.8661	1.24431	-0.0775202	-0.000966936	-0.0139626	-0.600342	0.884277	-0.244873	0.286644	-0.110562	-0.166725	-0.936917	3.64051	2.78177	9.63235	0.0110101	0.0104719	-0.0169767	-0.628906	-0.0256348	-0.856934	0.167152	-0.676257	-0.295859	-0.653608	9.92093	1.93048	-0.940928	-0.0635636	-0.0206202	0.0156585	-1.05225	0.0944824	0.437744	
41	-0.888832	0.377295	-0.0148391	0.259628	1.40825	-7.20456	7.64181	-0.0105156	-0.0272216	0.0130964	0.278564	0.869873	-0.59375	0.50555	-0.842312	-0.0397032	-0.182628	3.36283	-8.04014	-4.4467	0.0101998	-0.0252315	-0.0520865	0.19873	0.864014	0.537109	0.81594	-0.171859	0.551117	0.0312483	-8.86654	-3.04354	3.43949	-0.101588	0.0816755	-0.0159417	0.967529	0.0185547	0.13623	0.726152	0.269503	0.591961	-0.222829	-9.47479	1.06674	1.24412	0.0705997	0.0242475	-0.0506464	1.03564	0.203613	0.162109	0.0189327	-0.804346	0.00889296	-0.593793	9.38189	-0.762577	-3.16464	0.0122021	-0.0332557	-0.0865599	-0.817383	0.0253906	0.738525	-0.417675	-0.5699	0.333932	-0.6239	9.47241	2.28583	3.08126	-0.0590284	0.0660951	-0.0459717	-0.953125	-0.629639	0.175049	0.321983	-0.899783	-0.267268	-0.123634	3.81935	-4.78618	-7.17029	0.0325401	0.00252293	-0.0295773	-0.0124512	0.72583	0.767822	0.510033	-0.730783	-0.219127	-0.397248	7.68088	-5.58482	-1.15168	-0.229859	0.00623546	-0.0129499	-0.545166	0.86792	0.337402	0.71749	-0.544847	-0.351074	-0.255143	7.64919	-5.90778	2.04584	0.119582	-0.00513731	-0.0148183	-0.604736	0.879639	-0.244629	0.287045	-0.110062	-0.166445	-0.936903	3.27937	2.22749	9.74352	0.0070178	0.0461675	0.0276518	-0.628906	-0.0256348	-0.854736	0.167751	-0.675985	-0.297008	-0.653215	9.92871	1.07385	-0.69183	0.205571	0.00949908	-0.0402382	-1.05029	0.098877	0.4375	
42	-0.888885	0.377491	-0.0134214	0.259237	1.8097	-7.37859	7.58255	0.0169231	-0.121186	-0.0144043	0.271729	0.871826	-0.59375	0.505315	-0.842577	-0.0397797	-0.182041	3.30225	-7.8771	-4.15168	-0.0289254	-0.0355275	-0.00360097	0.203125	0.866211	0.534668	0.816077	-0.170222	0.551466	0.0304581	-8.95512	-2.71681	3.22683	0.146499	0.0284756	0.0250822	0.974121	0.0185547	0.138428	0.725405	0.270636	0.591856	-0.224167	-9.49932	0.894917	1.03066	0.0449465	0.0144777	0.00445096	1.04004	0.201416	0.157715	0.0203292	-0.804068	0.00662188	-0.594153	9.02865	-0.528076	-2.57845	0.0944323	0.0283269	-0.0274383	-0.813232	0.0297852	0.74292	-0.417916	-0.569422	0.333873	-0.624206	9.44722	2.35907	3.64943	-0.0306109	-0.0153388	0.0119652	-0.952881	-0.634033	0.166748	0.323833	-0.899003	-0.267266	-0.12448	3.61834	-4.93616	-6.98313	0.0757391	0.0586946	-0.0183364	-0.0126953	0.732422	0.769775	0.510291	-0.730511	-0.219732	-0.397082	7.85486	-5.09725	-1.54444	0.0458512	-0.0147649	-0.0353468	-0.549805	0.87207	0.337402	0.715413	-0.547597	-0.350322	-0.256119	8.0006	-6.70876	1.27883	-0.0891038	0.00164987	-0.0229734	-0.602783	0.888916	-0.238037	0.287359	-0.110517	-0.167114	-0.936634	3.16155	2.75171	9.66086	0.0104062	-0.0407677	0.0155108	-0.624512	-0.0231934	-0.854736	0.167751	-0.675985	-0.297008	-0.653215	9.92871	1.07385	-0.69183	0.205571	0.00949908	-0.0402382	-1.05029	0.098877	0.4375	
43	-0.888648	0.377694	-0.0112257	0.259859	2.14063	-6.97837	7.41508	0.0125822	-0.072736	-0.0576895	0.263184	0.867432	-0.589355	0.504692	-0.843234	-0.0399638	-0.180679	3.47495	-8.12624	-4.12681	-0.0168	-0.0245028	-0.0106075	0.207275	0.868408	0.534424	0.81653	-0.168075	0.551561	0.0284634	-9.03411	-2.42211	3.21987	0.0744686	0.00787261	-0.048162	0.971924	0.0185547	0.143066	0.725237	0.271883	0.591157	-0.225042	-9.54898	0.915169	1.06554	0.130284	-0.0239145	0.0217026	1.03809	0.197021	0.15332	0.0192208	-0.804459	0.00771499	-0.593647	9.33383	-0.220555	-2.60802	-0.12545	-0.0402076	0.00332473	-0.812988	0.0253906	0.736084	-0.418437	-0.569081	0.333876	-0.624166	9.53858	2.25894	3.97035	-0.0710994	0.016417	-0.0212618	-0.961426	-0.635986	0.168945	0.324602	-0.898719	-0.267692	-0.123605	3.44895	-4.67355	-7.09309	0.102137	-0.0456452	-0.0237776	-0.010498	0.730225	0.77002	0.508758	-0.731648	-0.218728	-0.397511	7.64141	-6.02563	-1.48301	-0.170883	0.0188696	-0.0033059	-0.547363	0.865723	0.337402	0.716839	-0.545562	-0.351199	-0.255268	7.81699	-6.19644	1.73493	0.226752	-0.000701147	-0.0361221	-0.600342	0.88208	-0.244629	0.287739	-0.110905	-0.166944	-0.936502	3.51756	2.20421	9.60821	-0.0151065	-0.00858046	0.0407331	-0.631104	-0.0234375	-0.854736	0.169232	-0.675187	-0.299072	-0.652716	10.0359	1.00441	-0.944394	0.115692	0.019695	-0.0318629	-1.0481	0.103271	0.439697	
44	-0.888318	0.37805	-0.0121671	0.260427	2.18239	-6.99655	7.49476	-0.0252653	0.0737001	0.00249093	0.265381	0.869629	-0.587158	0.504204	-0.84376	-0.0405502	-0.179452	3.39808	-8.08594	-4.34195	-0.0362365	-0.0704284	-0.0216872	0.205322	0.868408	0.539307	0.816945	-0.168713	0.550739	0.0286803	-9.4199	-2.47682	3.29432	-0.0617356	-0.0398679	-0.0179328	0.976074	0.020752	0.13623	0.725923	0.272485	0.590203	-0.224606	-9.94319	1.2522	1.02757	-0.0564732	-0.0243905	0.0472327	1.03345	0.201416	0.151123	0.0139145	-0.80483	0.0115446	-0.59323	9.40495	-0.816077	-3.36752	-0.121806	0.00543646	-0.0363199	-0.821289	0.0187988	0.738525	-0.419051	-0.568824	0.33272	-0.624606	9.58509	2.64834	3.57841	-0.0253604	0.0248277	-0.0299207	-0.953125	-0.629639	0.164307	0.324168	-0.898707	-0.268588	-0.122889	3.53824	-4.64536	-7.58627	0.0691525	0.0478502	-0.056141	-0.010498	0.732422	0.767822	0.50894	-0.731355	-0.218971	-0.397683	7.59886	-5.78624	-1.66877	0.0317662	0.0285096	-0.0362553	-0.549561	0.86792	0.334961	0.715415	-0.547354	-0.350907	-0.25583	7.81549	-6.55925	1.48739	-0.0988857	-0.0107214	-0.0179299	-0.5979	0.88208	-0.238037	0.288051	-0.110692	-0.167246	-0.936377	3.1668	3.03543	9.48725	-0.0839755	0.0168361	0.0144657	-0.626709	-0.0256348	-0.859131	0.171096	-0.674118	-0.301716	-0.652118	9.49745	1.99472	-0.767181	-0.005981	0.0106789	-0.0346595	-1.05713	0.103271	0.435303	
45	-0.887541	0.379471	-0.0153581	0.26084	1.81239	-6.9851	7.75864	-0.0948232	0.103138	0.0250543	0.27832	0.874268	-0.589355	0.503918	-0.844131	-0.041002	-0.178405	3.45065	-8.08415	-3.96483	0.0102025	-0.0535498	-0.0117993	0.207275	0.868408	0.539307	0.817821	-0.168999	0.5494	0.0277034	-8.92017	-2.46981	3.70755	0.0378485	-0.0661379	-0.0199874	0.97168	0.0251465	0.131592	0.727115	0.272325	0.5888	-0.224628	-9.62432	1.60597	1.68569	-0.00432591	-0.0677707	0.0223964	1.04053	0.195068	0.151123	0.0166041	-0.804745	0.0078124	-0.593337	9.49032	-0.309787	-2.80692	0.191767	0.0179955	-0.0721641	-0.816895	0.0144043	0.738525	-0.418948	-0.5689	0.330663	-0.625698	9.62079	2.12619	3.50316	0.0650558	0.0490876	-0.0349543	-0.957031	-0.635986	0.168945	0.323412	-0.898981	-0.269343	-0.12121	3.60523	-4.7234	-6.65935	-0.00134758	-0.150148	-0.0297873	-0.00610352	0.730225	0.765625	0.508536	-0.731568	-0.219315	-0.397619	7.74845	-5.73893	-1.78426	-0.135197	0.0272227	-0.0280335	-0.540771	0.865723	0.342041	0.716238	-0.546111	-0.351776	-0.254988	7.87896	-5.05055	1.60154	-0.101131	-0.0169545	-0.00715825	-0.605225	0.888916	-0.242676	0.288356	-0.110776	-0.168075	-0.936125	3.34427	2.83455	9.5763	0.0758989	0.0119145	0.00835639	-0.628662	-0.0300293	-0.856689	0.171096	-0.674118	-0.301716	-0.652118	9.49745	1.99472	-0.767181	-0.005981	0.0106789	-0.0346595	-1.05713	0.103271	0.435303	
46	-0.88689	0.380903	-0.0157396	0.260943	1.68805	-7.37347	7.80166	-0.0412516	-0.0321327	-0.0107087	0.271729	0.874023	-0.583008	0.503471	-0.844652	-0.0417141	-0.177033	3.5589	-7.99839	-4.23858	-0.0652951	0.0259788	-0.015566	0.207275	0.868408	0.539307	0.817482	-0.172631	0.548723	0.0287312	-8.89994	-3.2736	3.62781	-0.121797	0.0252798	-0.0759643	0.973877	0.020752	0.131592	0.728285	0.271458	0.587715	-0.224728	-9.3603	1.55501	1.83425	0.14126	-0.0684699	-0.0105001	1.04028	0.197266	0.146729	0.0163476	-0.804949	0.00629693	-0.593085	9.53344	-0.381574	-2.88516	-0.0218399	-0.00499625	-0.0808488	-0.817139	0.0209961	0.738525	-0.418942	-0.568993	0.329059	-0.626461	9.76469	2.14526	3.97719	0.00728351	0.0380529	-0.0316645	-0.959229	-0.635986	0.168945	0.323581	-0.898816	-0.270105	-0.120283	3.97899	-4.77184	-7.12348	0.0603912	-0.0719499	-0.0503672	-0.00830078	0.730225	0.767822	0.509774	-0.730752	-0.220875	-0.396668	7.59259	-5.17173	-1.55388	0.00344435	0.0244887	-0.0260148	-0.54541	0.87207	0.337402	0.716342	-0.546054	-0.351531	-0.255155	7.98102	-6.34284	1.47685	0.207715	0.0315895	-0.03361	-0.607178	0.884277	-0.240234	0.288251	-0.111389	-0.167457	-0.936195	3.34101	2.33971	9.66253	-0.0161695	0.000543117	0.00164605	-0.631104	-0.0256348	-0.854736	0.171438	-0.673814	-0.302713	-0.65188	9.72321	1.57755	-0.856042	0.0278507	0.00137371	-0.0148529	-1.05029	0.101074	0.435303	
47	-0.886592	0.381843	-0.014336	0.26066	2.02459	-7.37	7.60327	-0.0203623	-0.0654409	-0.0163973	0.271484	0.878418	-0.585205	0.503048	-0.845334	-0.0430703	-0.174639	3.62951	-7.90991	-4.59687	-0.0230103	-0.107514	-0.0263623	0.205078	0.870605	0.541504	0.81773	-0.171427	0.54878	0.0277585	-9.29292	-2.13388	3.65953	-0.023509	0.0154629	0.00917892	0.973877	0.0270996	0.133789	0.728784	0.269207	0.588565	-0.22359	-9.57309	1.33198	1.79935	-0.112526	0.0303391	-0.0334732	1.04712	0.192871	0.146729	0.0141441	-0.804933	0.00794176	-0.593144	9.48724	-0.167003	-2.83802	-0.110534	0.0075715	-0.00684071	-0.819092	0.0166016	0.745361	-0.419297	-0.569075	0.327356	-0.627042	9.62225	2.41248	3.47628	0.0258805	0.0377753	-0.0410085	-0.955322	-0.627441	0.168701	0.323062	-0.898825	-0.270414	-0.120915	3.62615	-4.69159	-7.07262	-0.0104085	0.0116709	-0.0202538	-0.00830078	0.730225	0.767822	0.507821	-0.732382	-0.220758	-0.396232	7.89793	-5.46193	-1.31473	-0.0224067	-0.0310805	0.00295793	-0.543213	0.869873	0.342041	0.715526	-0.547169	-0.351085	-0.255669	7.84179	-5.56267	1.80427	-0.196973	-0.00132243	0.00190798	-0.600342	0.884277	-0.23584	0.288614	-0.11114	-0.168026	-0.936011	3.34965	2.74839	9.4758	0.0235697	0.0189061	0.0130445	-0.631348	-0.019043	-0.854736	0.172487	-0.673408	-0.304084	-0.651385	9.73089	1.33219	-0.946935	0.0452549	0.0107941	0.000887391	-1.05054	0.107666	0.435303	
48	-0.886283	0.38261	-0.0135012	0.260632	1.94472	-7.28731	7.47203	-0.0327119	-0.0413214	-0.009611	0.269287	0.876221	-0.578613	0.502255	-0.845811	-0.0430807	-0.174607	3.23214	-8.40773	-4.40123	0.00700832	-0.0484377	-0.0157001	0.205322	0.866211	0.536865	0.816152	-0.173952	0.550323	0.0279627	-9.01541	-3.7782	3.47464	0.0133597	0.086245	-0.00814314	0.969482	0.0251465	0.133789	0.7276	0.269746	0.588819	-0.226113	-9.65428	1.69793	2.10646	0.0524476	-0.00185124	-0.0873842	1.04224	0.20166	0.146729	0.0128311	-0.804667	0.00899469	-0.593519	9.49593	-0.0407441	-2.90205	-0.0705162	0.0322853	-0.0402137	-0.818848	0.0100098	0.740723	-0.420535	-0.568148	0.327446	-0.627007	9.57724	2.29799	3.25777	-0.0583693	0.0325471	-0.0210271	-0.959229	-0.63623	0.156006	0.323524	-0.898551	-0.271492	-0.11929	3.74305	-4.94906	-7.25659	0.0727075	-0.077444	-0.0356305	-0.00830078	0.730225	0.763428	0.507124	-0.732688	-0.220714	-0.396584	7.65124	-5.46201	-1.37142	-0.0438662	-0.0502706	-0.0373847	-0.543213	0.869873	0.342041	0.716234	-0.546186	-0.351683	-0.254967	7.69488	-6.1987	1.66985	0.274676	-0.0137185	-0.0285381	-0.602539	0.884277	-0.244873	0.288787	-0.111234	-0.16781	-0.935985	3.47379	2.66789	9.72532	-0.0266226	0.0228787	0.0199903	-0.624512	-0.0253906	-0.852295	0.173282	-0.6731	-0.305126	-0.651005	10.1074	1.3207	-0.906116	0.0673079	0.0155957	-0.015568	-1.0481	0.103271	0.439697	
49	-0.886139	0.382766	-0.0132229	0.260907	2.10709	-7.09685	7.42579	0.00361402	0.00636303	-0.013124	0.264893	0.876221	-0.583008	0.502179	-0.84617	-0.0438156	-0.172897	3.42971	-7.97096	-4.41511	-0.00534009	-0.0906957	-0.012554	0.211914	0.866211	0.536865	0.815418	-0.174643	0.551167	0.028436	-9.00213	-2.19717	3.51043	-0.210292	0.0667092	-0.0172992	0.969727	0.020752	0.138428	0.727854	0.265777	0.590566	-0.225437	-9.464	0.784924	1.42218	-0.0743344	0.0189531	-0.0958081	1.03784	0.203613	0.155518	0.0129174	-0.804855	0.00828569	-0.593273	9.39283	-0.630086	-2.94628	0.217137	-0.00169727	-0.0628552	-0.814941	0.0187988	0.740723	-0.420709	-0.567997	0.32659	-0.627473	9.64336	2.40964	3.76138	0.00392013	0.0239678	-0.0155967	-0.952881	-0.634033	0.160156	0.321701	-0.899391	-0.270693	-0.119704	3.65403	-4.91416	-7.04783	-0.0387691	0.0287245	0.00854932	-0.00390625	0.730225	0.767822	0.507022	-0.732616	-0.220091	-0.397194	7.86537	-5.35321	-1.61041	-0.0498906	0.0775168	-0.000773395	-0.547607	0.869873	0.344238	0.714102	-0.54906	-0.351068	-0.25562	7.8656	-6.17171	1.60153	-0.277746	-0.0272416	0.00510321	-0.604736	0.879639	-0.240234	0.288711	-0.111608	-0.167967	-0.935936	3.28096	2.57021	9.43818	-0.0267193	-0.00803573	-0.00920102	-0.631104	-0.0234375	-0.852295	0.173237	-0.673067	-0.305261	-0.650989	9.5227	1.68453	-0.928306	-0.0753763	-0.000919534	-0.0132005	-1.05054	0.105469	0.439697	
50	-0.886167	0.382875	-0.0135915	0.260633	1.95791	-7.29338	7.45096	-0.0144027	0.0114807	0.0314566	0.264648	0.882568	-0.581055	0.502202	-0.846205	-0.0438554	-0.172647	3.46914	-7.99996	-4.47579	-0.00441297	-0.00683291	-0.0115021	0.21167	0.868408	0.539307	0.814286	-0.176671	0.552164	0.0290035	-9.04742	-3.40589	3.39092	-0.168406	0.116696	-0.0366739	0.97168	0.0229492	0.143066	0.726568	0.266908	0.590757	-0.227737	-9.56114	1.01221	1.84597	0.0735007	0.0380607	-0.0395859	1.0376	0.208008	0.153076	0.0100378	-0.80465	0.0112239	-0.593558	9.38762	-0.457155	-3.02096	-0.27786	0.0150015	0.0511547	-0.818848	0.0100098	0.731689	-0.420802	-0.567961	0.325619	-0.627948	9.60274	2.45519	3.8609	0.0198268	0.0443196	-0.0359304	-0.952881	-0.634033	0.164551	0.323785	-0.898761	-0.270619	-0.118981	3.45222	-4.53456	-7.14401	0.053885	-0.0595276	0.0252105	-0.00415039	0.732422	0.767822	0.507269	-0.732342	-0.218973	-0.398	7.90026	-5.97471	-1.3458	0.0361937	0.0633913	-0.00594672	-0.545166	0.863525	0.342041	0.713517	-0.549663	-0.351866	-0.254863	7.71909	-5.86079	1.62452	0.0438373	-0.0603494	-0.0170326	-0.598145	0.888916	-0.23584	0.288321	-0.111852	-0.167201	-0.936165	3.69905	2.46939	9.42079	-0.0679815	0.00942395	-0.0215267	-0.637939	-0.0234375	-0.856934	0.173511	-0.673035	-0.305145	-0.651002	9.86182	1.12524	-1.0948	0.0123553	0.0179879	0.0148607	-1.05298	0.107666	0.432861	
51	-0.886482	0.382605	-0.0136519	0.259957	1.94516	-7.56494	7.47545	0.0277944	-0.0152577	0.0574355	0.271484	0.876221	-0.583008	0.502802	-0.846057	-0.0438813	-0.171615	3.51368	-7.85822	-4.44409	0.0155183	-0.0526449	0.0140112	0.211914	0.861816	0.541748	0.814591	-0.173086	0.552986	0.0262532	-9.04729	-2.60405	3.19733	0.166398	0.017834	-0.00582276	0.973877	0.0292969	0.14502	0.726144	0.267018	0.59098	-0.228382	-9.6908	0.537126	1.36403	0.0421966	0.0262972	-0.0435855	1.03979	0.208008	0.153076	0.00954691	-0.804613	0.0118654	-0.593605	9.63936	-0.664943	-2.98224	-0.0630564	0.0123171	0.00292444	-0.820801	0.00561523	0.736084	-0.421992	-0.566923	0.325441	-0.628179	9.69578	2.07529	3.3933	-0.11183	0.0238924	-0.0181986	-0.955078	-0.631836	0.157959	0.321907	-0.899575	-0.270762	-0.117596	4.04371	-4.58381	-7.17802	-0.107689	-0.142762	0.00742291	0	0.736816	0.771973	0.508492	-0.731149	-0.218819	-0.398718	7.39953	-5.43795	-1.65825	0.107159	0.123785	-0.0180506	-0.549805	0.87207	0.334961	0.713049	-0.550261	-0.352135	-0.25451	7.87123	-5.86882	1.26918	-0.0343966	-0.0510446	-0.00364228	-0.605225	0.888672	-0.229248	0.287941	-0.111388	-0.166231	-0.936509	3.22587	2.61942	9.56714	-0.0174777	0.0432357	-0.0220601	-0.628906	-0.0234375	-0.856934	0.173997	-0.672777	-0.305375	-0.651032	10.0644	2.06524	-0.804686	-0.000212294	0.0177401	0.00182159	-1.05273	0.105469	0.435303	
52	-0.887236	0.382162	-0.013216	0.258051	2.12776	-7.64131	7.38713	0.00888761	-0.0268185	0.0406485	0.273438	0.882812	-0.585205	0.502703	-0.845962	-0.0421208	-0.172813	3.33561	-8.07887	-4.10615	0.00781347	0.108449	0.0124616	0.209961	0.859619	0.537109	0.814883	-0.170987	0.553299	0.0242837	-9.14653	-2.65938	3.24887	0.187058	-0.0121335	-0.0086796	0.97168	0.0251465	0.140625	0.72593	0.269433	0.589566	-0.229876	-9.62137	1.36215	1.94328	-0.0449929	-0.0196908	0.0623647	1.0376	0.208008	0.150879	0.00911618	-0.804683	0.0127648	-0.593498	9.16797	-0.151723	-2.73958	-0.0792286	-0.00560845	0.0200973	-0.822998	0.00341797	0.740723	-0.421861	-0.567108	0.324983	-0.628337	9.58838	2.70459	3.8344	-0.0369728	-0.00649368	-0.0180265	-0.957031	-0.638184	0.153809	0.326574	-0.898149	-0.268532	-0.120704	3.19652	-4.91131	-6.82211	0.156624	0.243767	0.0534223	-0.00634766	0.734619	0.76123	0.508176	-0.731689	-0.21933	-0.397847	7.81145	-5.12529	-1.12314	-0.0905023	-0.0450393	0.0014686	-0.542969	0.865723	0.342041	0.712551	-0.550761	-0.352545	-0.254256	7.64834	-5.9615	1.74737	0.0624316	-0.0255179	-0.014713	-0.598145	0.886475	-0.222412	0.286339	-0.112086	-0.165659	-0.937019	3.36899	2.45648	9.50783	-0.0702484	-0.0333656	-0.0411904	-0.626709	-0.0212402	-0.8479	0.172449	-0.673465	-0.303102	-0.651794	9.38092	1.2162	-1.05337	-0.082038	0.00599165	0.012774	-1.05054	0.105469	0.435303	
53	-0.887132	0.381359	-0.0133594	0.259584	2.05584	-7.14072	7.38851	0.0106846	0.0513644	-0.0732976	0.269287	0.876221	-0.585205	0.501466	-0.84656	-0.0405694	-0.173846	3.40208	-8.00884	-4.33565	-0.113099	0.118086	-0.00213959	0.209717	0.861816	0.544189	0.815195	-0.172032	0.552447	0.0257608	-8.91338	-3.07881	3.39078	-0.0826704	-0.0192567	-0.00702848	0.974121	0.0185547	0.138428	0.725001	0.274106	0.588126	-0.230969	-9.64537	1.20371	1.45106	0.22071	-0.00267615	0.0866324	1.04004	0.203857	0.15332	0.00524455	-0.804963	0.0175105	-0.593043	9.54507	-0.58572	-3.05865	-0.243847	0.00311515	0.0331172	-0.820801	0.0012207	0.740723	-0.422758	-0.567054	0.324908	-0.627822	9.60925	2.11633	3.7114	-0.0273302	-0.00967674	-0.0401015	-0.952881	-0.63623	0.153809	0.321222	-0.901033	-0.26525	-0.120824	3.87004	-4.73879	-7.32143	-0.109599	0.165441	0.0384381	-0.00610352	0.728027	0.771973	0.504969	-0.73398	-0.218356	-0.398247	7.6713	-5.23676	-1.62054	-0.0450494	-0.0517711	-0.022261	-0.540771	0.863281	0.34668	0.710073	-0.553997	-0.352035	-0.254861	7.91276	-6.93212	1.2029	-0.0829652	-0.0270794	-0.0142869	-0.607666	0.893066	-0.218262	0.285089	-0.111721	-0.165779	-0.937422	3.2003	3.20999	9.82307	-0.00782753	0.0168966	-0.0514058	-0.62915	-0.0212402	-0.854736	0.172449	-0.673465	-0.303102	-0.651794	9.38092	1.2162	-1.05337	-0.082038	0.00599165	0.012774	-1.05054	0.105469	0.435303	
54	-0.88643	0.381023	-0.014863	0.26238	2.08738	-7.17356	7.54544	-0.0122003	0.109909	-0.0888014	0.264648	0.880615	-0.587402	0.501315	-0.846394	-0.0390929	-0.175418	3.49932	-8.02398	-4.08061	-0.00763256	0.101127	0.00486563	0.209717	0.864014	0.548828	0.8172	-0.16513	0.551764	0.021745	-9.21919	-2.24838	3.41751	0.3624	-0.077039	0.0167072	0.967285	0.029541	0.131348	0.724992	0.275591	0.587418	-0.231031	-9.59222	1.49273	1.47236	0.102957	-0.00978452	0.0825092	1.04028	0.199463	0.142334	0.00429675	-0.805415	0.0174241	-0.592439	9.45574	-0.17299	-2.90868	0.00524883	-0.0423812	-0.0473969	-0.820312	-0.00756836	0.740723	-0.423543	-0.566978	0.324521	-0.627561	9.56935	2.22953	3.36266	-0.0687426	-0.00994058	-0.0315572	-0.952881	-0.638184	0.156006	0.321546	-0.90104	-0.264127	-0.122359	3.41604	-4.75996	-7.57853	-0.00388257	0.155307	0.0281341	-0.00390625	0.72583	0.77417	0.504041	-0.734917	-0.217912	-0.397938	7.67944	-5.03571	-1.48739	-0.0969894	-0.0297993	0.00883441	-0.540771	0.863281	0.356201	0.710379	-0.553399	-0.352817	-0.254227	7.82516	-5.67475	1.41871	0.043863	-0.0233082	-0.0137101	-0.607666	0.890869	-0.224854	0.284218	-0.111756	-0.165168	-0.93779	3.28484	2.47235	9.49136	0.0292654	0.0120232	-0.0320397	-0.626709	-0.0234375	-0.850098	0.172449	-0.673465	-0.303102	-0.651794	9.38092	1.2162	-1.05337	-0.082038	0.00599165	0.012774	-1.05054	0.105469	0.435303	
55	-0.88541	0.381309	-0.0155867	0.265347	1.86355	-7.23278	7.57608	-0.0243	0.0353127	-0.105539	0.267334	0.874023	-0.578613	0.500745	-0.846337	-0.0373149	-0.177696	3.29176	-7.96587	-4.48657	-0.0427662	0.16839	-0.0142784	0.209717	0.866211	0.541748	0.817681	-0.165361	0.551006	0.0211315	-9.06117	-3.02649	3.49171	0.0120382	-0.00973205	-0.0299549	0.973877	0.0251465	0.135986	0.724864	0.279341	0.585042	-0.232952	-9.57018	1.65296	1.51518	0.209874	-0.0594889	0.0617233	1.04004	0.203857	0.14209	0.00304719	-0.80563	0.0192069	-0.592099	9.41181	-0.295469	-3.00929	-0.0680096	-0.00432228	0.0076599	-0.818115	-0.00756836	0.740723	-0.423187	-0.567879	0.323231	-0.627653	9.67039	2.57306	3.63639	0.0639987	-0.00479226	-0.0407387	-0.952881	-0.634033	0.164551	0.32027	-0.902216	-0.261217	-0.123284	3.7135	-4.67815	-6.83733	-0.142281	0.11223	0.0799003	-0.00366211	0.721436	0.774414	0.50201	-0.736422	-0.216988	-0.398227	7.78468	-5.70955	-1.8284	-0.10106	0.0185015	-0.024999	-0.538574	0.863281	0.351318	0.709178	-0.555152	-0.352512	-0.254182	7.9063	-6.42708	1.23378	0.11428	-0.0229201	-0.00886377	-0.603027	0.893311	-0.218018	0.283851	-0.112403	-0.165606	-0.937747	3.42116	2.31799	9.60516	-0.0130365	-0.0214465	0.0080819	-0.635742	-0.0212402	-0.8479	0.171878	-0.674473	-0.300773	-0.651982	9.72889	1.6335	-0.874387	-0.0279043	-0.00287118	0.0188202	-1.05054	0.105469	0.435303	
56	-0.884458	0.381627	-0.0163514	0.268006	1.83678	-7.16103	7.54186	-0.036693	0.0677405	-0.0817547	0.266846	0.882568	-0.57666	0.500042	-0.846618	-0.0365305	-0.178501	3.51956	-7.98729	-4.76712	-0.0420857	0.0501652	-0.00734264	0.207764	0.859863	0.549072	0.818853	-0.163426	0.549907	0.019319	-8.94353	-2.54615	3.5182	0.0190649	-0.0411584	-0.0229727	0.97168	0.029541	0.126709	0.725479	0.279698	0.584014	-0.23319	-9.57855	1.49158	1.59183	0.0188399	-0.040821	0.0193174	1.04224	0.203857	0.144287	-0.00166639	-0.80571	0.0257046	-0.591751	9.30321	-0.660867	-2.75642	-0.39191	0.00406517	0.0957654	-0.815918	-0.00976562	0.745361	-0.424694	-0.56745	0.324106	-0.626571	9.56359	1.99973	3.67049	-0.0792789	-0.0270116	-0.0372548	-0.950195	-0.646973	0.158447	0.319659	-0.902595	-0.260477	-0.123664	3.64394	-4.853	-7.5839	0.0726078	-0.0378441	-0.00440566	0.000732422	0.72168	0.772217	0.500185	-0.737973	-0.217905	-0.39715	7.84508	-5.36759	-1.5651	-0.102817	-0.107373	-0.0170604	-0.544922	0.858887	0.363281	0.710959	-0.552603	-0.354734	-0.251656	7.7715	-6.09987	1.7576	0.0985647	-0.0834569	-0.00714476	-0.600586	0.893311	-0.222656	0.284366	-0.111643	-0.165701	-0.937665	2.84378	3.01973	9.69165	-0.003071	0.0599414	0.0106707	-0.62915	-0.0212402	-0.852539	0.172703	-0.674371	-0.301835	-0.651378	9.31833	1.73627	-0.808252	0.142603	0.00169139	-0.00538244	-1.04834	0.107666	0.435303	
57	-0.884334	0.381397	-0.017817	0.268648	1.99009	-7.0794	7.63103	-0.00480782	0.059833	0.0294231	0.266846	0.880371	-0.57666	0.501178	-0.845649	-0.0353838	-0.180131	3.45482	-8.37364	-4.51174	0.072528	0.0145168	-0.000352188	0.203369	0.862061	0.55127	0.819289	-0.162411	0.549637	0.0169392	-9.27635	-2.82821	3.56635	0.170774	-0.00879383	-0.0791181	0.97168	0.0336914	0.131348	0.725521	0.282223	0.581757	-0.235642	-9.72312	1.39024	1.62589	0.187914	-0.0724785	0.0264456	1.04468	0.20166	0.135742	-0.00342348	-0.805964	0.0300599	-0.591191	9.5712	-0.115678	-3.32615	-0.117009	-0.0295431	0.0970667	-0.813477	-0.0163574	0.745361	-0.425004	-0.567547	0.324577	-0.626028	9.7327	2.55611	3.69455	-0.106684	-0.0391634	0.00736499	-0.947998	-0.646973	0.160645	0.324396	-0.900779	-0.261016	-0.123433	3.45968	-4.9982	-6.89478	0.217896	0.0159601	-0.0132091	0.000488281	0.728027	0.767822	0.502033	-0.736227	-0.215971	-0.399111	7.73557	-5.33319	-1.52638	0.211435	0.214467	-0.0061539	-0.538574	0.861328	0.34668	0.710244	-0.553542	-0.355671	-0.250285	7.95089	-5.80556	0.860459	-0.000910227	-0.0611992	0.00664502	-0.603027	0.890869	-0.222656	0.283887	-0.112163	-0.16513	-0.937849	3.59701	2.39887	9.61147	-0.0140645	0.00734692	-0.0207525	-0.631104	-0.0234375	-0.850098	0.170696	-0.675272	-0.2995	-0.652051	9.75264	1.47692	-1.08351	-0.174539	-0.00359422	0.0216956	-1.05518	0.109863	0.432861	
58	-0.884345	0.381454	-0.0196249	0.268406	1.80426	-7.48415	7.67596	-0.0107741	0.0503097	0.0189045	0.269043	0.880615	-0.578613	0.500535	-0.845588	-0.0334443	-0.182556	3.14424	-8.02882	-4.10966	-0.0625997	0.105092	-0.00695343	0.203369	0.861816	0.548828	0.820057	-0.159559	0.549397	0.0145351	-9.21563	-2.43176	3.42468	0.102707	-0.00860385	0.00207966	0.969238	0.0446777	0.126465	0.725498	0.283607	0.580559	-0.237004	-9.70154	1.54563	1.87198	0.0234632	-0.000777408	0.00192515	1.03784	0.20166	0.133545	-0.00391397	-0.805656	0.0320656	-0.591503	9.34079	-0.662802	-3.2775	-0.00262896	0.0308303	0.00112725	-0.813477	-0.0144043	0.75	-0.423979	-0.568118	0.32246	-0.627299	9.50777	2.72223	3.71087	0.148395	0.0480857	-0.0208431	-0.950684	-0.638184	0.1604	0.317994	-0.903609	-0.258686	-0.124305	3.79561	-4.59973	-7.51736	-0.261848	0.0634808	0.0212112	-0.00537109	0.715088	0.776611	0.503029	-0.735689	-0.217056	-0.398258	7.54952	-5.07999	-2.00883	-0.0377504	-0.0332453	0.0008792	-0.542969	0.863281	0.351562	0.713451	-0.549205	-0.357947	-0.247457	7.65109	-6.25375	1.49781	0.2333	-0.0292172	-0.0138826	-0.600586	0.893311	-0.224854	0.283712	-0.112276	-0.164297	-0.938034	3.40503	2.95494	9.75216	-0.067499	0.0231024	-0.00545015	-0.626953	-0.0212402	-0.854736	0.170525	-0.675353	-0.299365	-0.652073	10.001	1.58318	-0.941826	-0.0154816	0.000855672	-0.00480869	-1.0481	0.103271	0.4375	
59	-0.884228	0.381278	-0.0203951	0.268983	1.95222	-7.4208	7.74646	-0.00634647	0.0720278	-0.0193755	0.269287	0.878418	-0.57666	0.500285	-0.845593	-0.033104	-0.183278	3.46617	-8.15735	-4.16125	-0.0300017	0.0737545	-0.0287234	0.205322	0.866211	0.553467	0.819936	-0.159939	0.549467	0.0144812	-9.35057	-2.36027	3.55367	-0.0219629	0.0164963	-0.0184884	0.973633	0.0358887	0.131104	0.724689	0.285458	0.580113	-0.238347	-9.36394	1.23986	1.6061	0.153821	0.0155393	-0.00071225	1.04688	0.20166	0.133545	-0.00166437	-0.80573	0.0298353	-0.591528	9.13175	-0.602203	-2.99963	0.250099	0.00131586	-0.0520356	-0.811523	-0.012207	0.75	-0.423824	-0.56823	0.322065	-0.627505	9.4448	2.48004	3.2412	-0.000804612	-0.00204512	-0.0108902	-0.954834	-0.640381	0.1604	0.319174	-0.903151	-0.257882	-0.126265	3.45332	-4.57593	-6.53338	-0.151119	0.0441733	0.0143981	-0.0012207	0.717285	0.782959	0.502173	-0.73613	-0.215087	-0.39959	7.81775	-5.66849	-1.65939	-0.149962	0.144866	0.0264423	-0.542969	0.865479	0.35376	0.712606	-0.550583	-0.357512	-0.247459	7.91381	-5.0738	1.23619	-0.117189	-0.0218537	0.0226946	-0.603027	0.891113	-0.224854	0.283232	-0.111773	-0.165285	-0.938066	3.25641	2.53919	9.4285	0.0410982	0.010997	-0.0248552	-0.62915	-0.0212402	-0.854736	0.166867	-0.676597	-0.296163	-0.653192	9.4204	2.10271	-0.935256	-0.334916	-0.0222249	-0.00667226	-1.0459	0.103271	0.446533	
60	-0.883885	0.380591	-0.020562	0.271062	1.38415	-7.33924	7.68876	0.0367891	0.00372025	-0.0935886	0.268799	0.886963	-0.57666	0.499993	-0.845281	-0.0325793	-0.185593	3.22629	-7.83861	-4.15471	-0.0190873	0.0704849	-0.0448994	0.201172	0.861816	0.544189	0.820151	-0.158482	0.549587	0.0137676	-8.69977	-2.85559	3.41479	0.154062	-0.00131898	0.031385	0.971436	0.0358887	0.126709	0.724408	0.2861	0.580116	-0.238423	-9.35058	1.27196	1.44739	0.0471315	0.0291562	0.020908	1.04443	0.203857	0.135498	-0.000204782	-0.80602	0.026931	-0.591275	9.47981	0.0482135	-2.96971	0.0366533	0.0221926	-0.0794853	-0.811523	-0.0119629	0.743164	-0.422509	-0.569298	0.319725	-0.628619	9.6182	2.63032	3.693	0.109338	0.0282816	-0.0334508	-0.952637	-0.642578	0.164795	0.314833	-0.904909	-0.256416	-0.127556	3.69088	-4.29801	-7.73776	-0.382276	0.0322014	0.0467442	-0.00292969	0.708496	0.789551	0.50005	-0.738088	-0.215815	-0.398247	7.64337	-4.75642	-1.95033	-0.147777	-0.167264	-0.0315572	-0.542725	0.861084	0.363281	0.712388	-0.550847	-0.357113	-0.248074	7.85421	-7.00236	1.23403	0.289336	0.0173849	-0.0511737	-0.600342	0.884277	-0.224609	0.282131	-0.111487	-0.16383	-0.938687	3.58142	2.24122	9.69262	-0.100321	0.0387897	-0.0175039	-0.628906	-0.0234375	-0.850098	0.169223	-0.676261	-0.296577	-0.652745	10.0164	1.48856	-0.88976	0.196474	0.0420322	0.0462813	-1.04834	0.105469	0.4375	
61	-0.883432	0.380574	-0.0185521	0.272705	1.71579	-6.80444	7.57514	0.00375422	-0.0622598	-0.0812338	0.26001	0.884766	-0.581055	0.499684	-0.845182	-0.0319569	-0.186984	3.28518	-8.23784	-4.33949	-0.0243588	0.101882	-0.0274731	0.203125	0.864258	0.553467	0.820722	-0.15652	0.549341	0.0119199	-9.19518	-2.35006	3.50055	0.109731	-0.00723024	-0.0196774	0.969238	0.0402832	0.126465	0.724301	0.287724	0.579298	-0.23878	-9.71603	1.72107	1.53179	-0.00529522	-0.0189563	0.0382448	1.04004	0.203857	0.131104	-0.00315291	-0.806135	0.0301776	-0.590953	9.36647	-1.03484	-3.27834	-0.0506863	-0.00392752	0.018031	-0.813477	-0.0141602	0.743164	-0.423338	-0.568881	0.319127	-0.628743	9.55535	1.86683	3.10352	-0.0653057	0.000906873	-0.0243335	-0.957031	-0.640381	0.1604	0.314625	-0.904701	-0.255768	-0.130807	3.25831	-5.13701	-7.06155	0.0747932	0.108537	-0.073928	-0.00927734	0.706299	0.789551	0.499132	-0.73813	-0.21323	-0.400706	8.02776	-6.96053	-1.60955	0.127001	0.255404	0.00793269	-0.549561	0.865479	0.35376	0.712416	-0.550205	-0.35852	-0.24739	7.75271	-5.76444	1.72217	-0.206082	-0.0527634	-0.0246224	-0.609863	0.888672	-0.220215	0.282907	-0.11211	-0.16594	-0.938008	3.09974	2.76932	9.45939	0.126693	-0.0542202	0.0342991	-0.628906	-0.0234375	-0.850098	0.167761	-0.676444	-0.295041	-0.653628	9.51109	1.46668	-0.777815	-0.0765662	0.01134	0.00315695	-1.05273	0.103271	0.444336	
62	-0.883129	0.381323	-0.0183674	0.272651	2.01606	-7.05395	7.60675	-0.0293686	0.00548888	0.0332852	0.262207	0.884766	-0.574463	0.501027	-0.84454	-0.0328658	-0.186131	3.61029	-8.04385	-4.39839	0.080071	-0.0489995	-0.0287162	0.200928	0.864014	0.541748	0.820723	-0.160065	0.548262	0.0142322	-9.22916	-2.94019	3.51405	-0.164625	-0.0401587	-0.00491033	0.978027	0.0380859	0.128906	0.725929	0.285573	0.578727	-0.237804	-9.67742	1.44289	1.58609	-0.124693	-0.0623826	-0.000495507	1.04468	0.199463	0.12915	-0.000229737	-0.806382	0.0268062	-0.590787	9.40475	0.122202	-2.70964	0.147849	-0.00505643	-0.064399	-0.813721	-0.00976562	0.743164	-0.421001	-0.570387	0.316677	-0.630185	9.59804	2.63702	3.46965	0.112829	-0.0169056	0.0100516	-0.952637	-0.642578	0.166992	0.31425	-0.904705	-0.257367	-0.128522	3.51705	-4.56346	-7.65094	0.0537624	-0.204519	-0.0799344	-0.00512695	0.708496	0.7854	0.505586	-0.733824	-0.216013	-0.399029	7.51405	-3.78399	-1.30677	0.2014	-0.0067586	0.0196112	-0.549561	0.865479	0.34668	0.715847	-0.545138	-0.361395	-0.2445	7.76961	-5.85653	1.40325	0.387635	-0.0172259	-0.035798	-0.607178	0.879639	-0.238037	0.282884	-0.11174	-0.163369	-0.93851	3.42327	2.45967	9.49816	-0.140133	0.0823306	0.00513342	-0.624512	-0.0231934	-0.854736	0.168792	-0.676045	-0.295904	-0.653386	9.66145	1.44042	-0.815056	0.0703739	0.0185969	-0.00894793	-1.05078	0.109863	0.439697	
63	-0.884403	0.380953	-0.0185891	0.269	1.839	-7.3992	7.59898	0.0505325	-0.0801232	0.170835	0.264404	0.884766	-0.57666	0.502833	-0.843269	-0.0324946	-0.187084	3.52908	-7.81185	-3.86672	0.0539556	0.0873266	0.00221692	0.196777	0.864014	0.546387	0.821184	-0.160302	0.547535	0.0128331	-8.69631	-3.06103	3.6749	0.0732755	-0.032005	-0.0182762	0.97583	0.0380859	0.128906	0.726601	0.28564	0.577376	-0.238954	-9.48352	1.3182	2.10062	0.0728608	-0.0629525	-0.0138498	1.04443	0.204102	0.124512	-0.00271659	-0.805988	0.031431	-0.59109	9.51223	-0.0590078	-2.80101	-0.189303	0.0253058	0.0834982	-0.817871	-0.012207	0.747559	-0.420857	-0.570165	0.316285	-0.630678	9.75077	2.35357	3.76817	0.00556349	0.019378	0.00123862	-0.948486	-0.638184	0.166748	0.312752	-0.90522	-0.256562	-0.130152	3.54136	-4.52178	-7.1559	-0.0487081	0.0576963	-0.0226957	-0.0161133	0.710693	0.791748	0.502859	-0.735505	-0.212351	-0.401337	7.66284	-5.92042	-1.82747	-0.0957087	0.0756631	-0.00824777	-0.542725	0.861328	0.346924	0.71334	-0.548793	-0.360034	-0.245659	7.71518	-6.23324	1.25052	-0.274417	-0.00291109	0.0186296	-0.60498	0.884277	-0.233643	0.283594	-0.111488	-0.162553	-0.938468	3.42063	2.60553	9.73335	0.0274466	0.00466909	0.0360855	-0.631348	-0.0212402	-0.854736	0.168708	-0.675522	-0.295922	-0.653941	9.77789	1.88185	-1.00534	-0.0322034	0.0344673	-0.0165038	-1.05273	0.103271	0.435303	
64	-0.885269	0.38022	-0.0175771	0.26725	1.78752	-7.12787	7.4613	0.0307446	-0.0460069	0.00917699	0.26001	0.886963	-0.581055	0.502167	-0.843471	-0.0319876	-0.188049	3.30598	-8.05729	-4.28992	-0.0490129	0.0769208	-0.0374184	0.196777	0.864014	0.541748	0.821869	-0.158357	0.547077	0.0126943	-9.26289	-1.78055	3.61478	0.0257007	-0.0299483	0.00480842	0.971436	0.0424805	0.126465	0.727061	0.285071	0.577775	-0.237259	-9.46468	1.50365	1.61426	-0.109647	0.0620367	0.0657878	1.04004	0.20166	0.131348	-0.00862383	-0.805771	0.0400349	-0.59081	9.20656	-0.833928	-3.18748	-0.411803	0.0135787	0.127963	-0.813232	-0.020752	0.745361	-0.421684	-0.56988	0.317247	-0.6299	9.41826	2.06741	3.37803	-0.104325	-0.0373245	-0.0187648	-0.950684	-0.635986	0.162354	0.310191	-0.90631	-0.255443	-0.130891	3.59279	-4.78432	-7.23932	-0.0660164	0.0217927	0.0180516	-0.000488281	0.699951	0.789795	0.505571	-0.733246	-0.213139	-0.401647	8.02373	-5.76519	-1.88037	0.001207	0.0971335	-0.031912	-0.545166	0.863281	0.344482	0.716829	-0.544099	-0.361004	-0.244516	8.07669	-5.99681	1.62588	0.259704	0.0604045	-0.0576615	-0.602539	0.88208	-0.242432	0.283665	-0.111492	-0.162408	-0.938471	2.74846	2.39706	9.86428	-0.00986006	0.0152706	-0.00957872	-0.626953	-0.019043	-0.857178	0.169562	-0.675149	-0.296538	-0.653825	9.35611	1.39962	-0.691999	0.0884311	0.00308931	-0.00824472	-1.05054	0.105469	0.4375	
65	-0.88478	0.381328	-0.0177267	0.267282	2.28197	-7.30725	7.57486	-0.0629241	0.0132897	0.0262686	0.269287	0.876221	-0.576416	0.502431	-0.843427	-0.0324302	-0.187462	2.88416	-8.60486	-4.22598	0.0211117	-0.0433451	-0.0215511	0.201172	0.861816	0.548828	0.821213	-0.160838	0.547289	0.0146949	-9.41269	-3.86256	3.50742	-0.0843624	0.0045611	0.0497802	0.97583	0.0336914	0.126709	0.726245	0.286879	0.577804	-0.237511	-10.0614	1.72294	1.92823	0.0785663	0.0162565	0.0122612	1.04712	0.19751	0.124756	-0.00826005	-0.80525	0.0428501	-0.591327	9.21641	-0.637658	-3.28049	-0.0281877	0.0126526	0.0840195	-0.815674	-0.0166016	0.747559	-0.419698	-0.570471	0.314778	-0.631927	9.82496	2.61883	3.26195	0.12989	0.0583421	0.0215972	-0.957031	-0.635986	0.166748	0.313196	-0.905086	-0.258351	-0.126426	3.81114	-4.53156	-6.9487	0.197634	-0.201123	-0.0338077	-0.00512695	0.708496	0.783203	0.508534	-0.731361	-0.213832	-0.400973	7.54454	-4.93077	-1.23744	0.259351	0.0744055	0.0215287	-0.54541	0.870117	0.330322	0.715603	-0.545537	-0.36038	-0.245822	7.73061	-5.51535	1.25474	-0.175564	0.0108282	-0.0263121	-0.607178	0.884277	-0.240234	0.285055	-0.111528	-0.16005	-0.938451	3.53307	2.28822	9.55494	-0.0821481	0.0608826	0.0912916	-0.627197	-0.0146484	-0.85498	0.170973	-0.674016	-0.300076	-0.653013	9.81383	1.48565	-0.896613	0.0891089	0.0236766	-0.0753182	-1.05469	0.0966797	0.437744	
66	-0.885739	0.379588	-0.0201998	0.266404	1.74302	-7.67416	7.61297	0.0975312	0.0924962	0.0792833	0.27124	0.882812	-0.578857	0.507222	-0.840693	-0.0335151	-0.18665	3.14181	-8.04036	-4.41274	0.189875	-0.000450089	-0.0261204	0.203125	0.866211	0.529785	0.821715	-0.158288	0.547285	0.0144107	-8.90439	-2.10255	3.46897	0.0308817	0.0169527	0.065836	0.973633	0.0336914	0.12207	0.726701	0.285258	0.578244	-0.236995	-9.36104	1.19184	1.85218	-0.00860037	0.0164167	-0.0345162	1.04028	0.199463	0.12915	-0.00971009	-0.804753	0.0480168	-0.591585	9.44157	-0.562424	-3.0138	-0.145416	0.03185	0.0880279	-0.819824	-0.0185547	0.743164	-0.42022	-0.56954	0.315683	-0.631968	9.30033	2.64372	3.5716	-0.136467	0.0165745	0.0355579	-0.952637	-0.640381	0.166748	0.314985	-0.904397	-0.257303	-0.129018	3.40861	-4.81131	-7.78159	0.0508544	0.191565	-0.0261131	-0.00537109	0.715088	0.785156	0.508643	-0.730924	-0.213283	-0.401924	7.48982	-5.76402	-1.92589	-0.0393328	0.00100368	-0.030246	-0.543213	0.86792	0.337402	0.717953	-0.542392	-0.360819	-0.245284	7.84475	-6.03051	1.21757	0.27977	0.0589336	-0.0367344	-0.607178	0.88208	-0.24707	0.287348	-0.111863	-0.160011	-0.937718	3.39977	2.68537	9.54493	0.0269401	0.0276037	0.0792595	-0.625	-0.0124512	-0.857178	0.166553	-0.674159	-0.297993	-0.654957	9.80808	2.02863	-0.986687	-0.229736	0.00769543	-0.0639636	-1.05908	0.0944824	0.435303	
67	-0.886563	0.377724	-0.0209114	0.266259	1.75198	-7.35173	7.78194	0.142862	0.0803196	0.0532271	0.273926	0.871826	-0.580811	0.507961	-0.840307	-0.033638	-0.186355	3.31808	-7.95714	-3.91503	0.0617541	-0.00439119	-0.00611586	0.200928	0.868408	0.527588	0.821536	-0.158855	0.547346	0.0160051	-9.08196	-2.02766	3.87291	-0.106753	-0.0023689	0.0802114	0.971436	0.0358887	0.119873	0.72539	0.28612	0.580321	-0.234888	-9.58423	0.916851	1.47719	0.0314614	0.15877	0.0711303	1.04712	0.195068	0.137939	-0.00846987	-0.804479	0.0479634	-0.591981	9.50567	-0.746119	-3.22131	0.0833196	0.0409827	0.0418741	-0.811279	-0.0163574	0.743164	-0.419582	-0.569125	0.315779	-0.632717	9.62972	2.18078	3.80988	-0.00435107	0.0106236	0.0342597	-0.957275	-0.631836	0.160156	0.315499	-0.903901	-0.259289	-0.127251	3.92099	-4.43998	-6.2409	0.0935269	-0.0634315	-0.0705246	-0.00317383	0.715088	0.782959	0.511365	-0.729304	-0.215786	-0.400071	7.65661	-5.03302	-1.49284	0.187297	-0.0302107	-0.010935	-0.539062	0.872314	0.33252	0.71804	-0.542437	-0.360032	-0.246084	7.8486	-5.92568	1.33617	-0.0319103	0.0867999	-0.0272507	-0.600098	0.877441	-0.244629	0.287906	-0.111324	-0.160729	-0.937488	3.2094	2.92545	9.75118	0.0754514	0.0418663	0.0364582	-0.625	-0.0102539	-0.85498	0.166553	-0.674159	-0.297993	-0.654957	9.80808	2.02863	-0.986687	-0.229736	0.00769543	-0.0639636	-1.05908	0.0944824	0.435303	
68	-0.887451	0.374991	-0.0214842	0.267115	1.4824	-6.74914	7.86949	0.0802629	0.0323595	-0.0239011	0.276123	0.871826	-0.584961	0.508378	-0.839955	-0.0340627	-0.186726	3.68395	-7.96857	-4.02898	0.0145217	0.0531152	-0.0539575	0.200684	0.872803	0.524902	0.82127	-0.157909	0.547947	0.0182713	-9.1979	-3.01428	3.31931	0.0757502	-0.00398127	0.0963474	0.973877	0.0251465	0.124756	0.723704	0.28892	0.581623	-0.233436	-9.45343	1.56158	1.34513	-0.00695093	0.106322	0.0721806	1.04297	0.190674	0.140137	-0.00153207	-0.804684	0.0399532	-0.592355	9.52233	-0.0801505	-3.02001	0.414942	-0.000233473	-0.147816	-0.813721	-0.00756836	0.738525	-0.417336	-0.570287	0.312309	-0.634875	9.57735	2.61721	3.86759	0.15351	0.0433603	-0.0218924	-0.957275	-0.634033	0.170898	0.314087	-0.904343	-0.257936	-0.130315	3.51721	-3.99674	-7.59546	-0.106152	0.120165	0.00545134	-0.00952148	0.708496	0.789551	0.509753	-0.730366	-0.217318	-0.399362	7.70161	-5.19998	-0.94268	-0.0822386	-0.102838	-0.0793529	-0.542969	0.865479	0.344482	0.71838	-0.542386	-0.358241	-0.247814	7.86207	-5.34093	1.63784	0.0195733	0.0995817	-0.0329983	-0.607422	0.886475	-0.24707	0.287479	-0.111222	-0.161755	-0.937454	3.63647	2.85919	9.70989	0.0462699	-0.0171062	-0.021826	-0.622559	-0.0187988	-0.857178	0.16462	-0.675188	-0.29702	-0.654829	9.74774	1.93145	-0.954244	-0.0541923	-0.02909	-0.00899225	-1.05225	0.0922852	0.442383	
69	-0.887211	0.374962	-0.0203602	0.268039	1.76065	-6.85317	7.86	-0.00463265	-0.0407886	-0.0680927	0.276123	0.874023	-0.589355	0.507843	-0.840103	-0.0347147	-0.187396	3.51869	-7.89031	-4.25641	-0.0526282	0.00731068	-0.0565782	0.194336	0.870605	0.532227	0.822278	-0.15428	0.547422	0.0196483	-9.12265	-1.65001	3.67583	0.003685	-0.0569215	0.130188	0.978027	0.0270996	0.122314	0.723884	0.288341	0.582522	-0.231342	-9.51505	1.60744	0.879547	-0.151255	0.0867928	0.0776981	1.04053	0.190674	0.144531	0.00332501	-0.805195	0.0303323	-0.592224	9.50309	-0.641477	-3.02558	0.384158	-0.0198206	-0.202698	-0.812012	0.0012207	0.745361	-0.414721	-0.572245	0.306908	-0.637456	9.5665	2.24894	3.54737	0.170854	0.0318351	-0.0363496	-0.957275	-0.631836	0.177246	0.311628	-0.905151	-0.257948	-0.130586	3.65773	-4.53773	-7.05682	-0.186386	-0.0309596	-0.0345818	-0.0112305	0.701904	0.789795	0.507567	-0.732044	-0.217108	-0.399188	7.97336	-5.41625	-1.59396	-0.194052	-0.0768654	-0.0375618	-0.542969	0.865723	0.337402	0.718107	-0.543138	-0.356052	-0.2501	7.98804	-6.22569	1.92372	-0.0985549	0.106254	-0.0257583	-0.604736	0.879639	-0.240234	0.287146	-0.11112	-0.163756	-0.937221	3.04384	2.60663	9.61333	0.0538462	0.0061297	-0.0345244	-0.626709	-0.0234375	-0.856934	0.162372	-0.675963	-0.29371	-0.656082	9.63674	2.02488	-0.900376	-0.165572	0.0122962	0.0292271	-1.05444	0.0922852	0.437744	
70	-0.886253	0.376746	-0.0183253	0.268854	1.86042	-6.98877	7.64282	-0.0663309	-0.0931833	-0.0490039	0.269287	0.878418	-0.587402	0.506654	-0.840659	-0.0351557	-0.188036	3.48208	-8.21084	-4.15011	0.000258414	0.0154343	-0.0546022	0.196533	0.870605	0.536865	0.822355	-0.157293	0.546366	0.0218266	-8.7669	-2.84523	3.61782	-0.080611	-0.0208489	-0.0286682	0.973633	0.029541	0.115479	0.723915	0.290574	0.58196	-0.229863	-9.60298	1.98309	0.967652	0.0751473	-0.00411127	0.0983485	1.04321	0.184082	0.140381	0.0112626	-0.805302	0.0189978	-0.592453	9.20443	-0.554183	-2.70455	0.401287	-0.0291493	-0.140479	-0.814697	0.0144043	0.738525	-0.41091	-0.574584	0.301988	-0.640163	9.63502	2.53641	3.35574	0.308879	0.0329611	-0.00467439	-0.953125	-0.629639	0.177246	0.311182	-0.905158	-0.258416	-0.130677	3.61958	-4.37413	-7.16692	0.0162972	-0.0238502	-0.0202392	-0.0134277	0.699707	0.791992	0.506806	-0.732554	-0.216417	-0.399595	8.10691	-6.01555	-1.06254	-0.0452785	0.0193023	-0.00384428	-0.542969	0.865723	0.342041	0.716261	-0.545877	-0.354203	-0.252048	7.79293	-5.60411	1.87827	-0.155666	0.0275572	-0.015794	-0.60498	0.884277	-0.238037	0.286075	-0.111319	-0.164502	-0.937394	3.18166	2.58297	9.71006	-0.0122121	-0.0239491	-0.0254434	-0.633545	-0.0212402	-0.856934	0.162178	-0.676697	-0.291809	-0.656222	9.64683	0.887297	-0.87779	0.209421	0.0164162	0.0436199	-1.04785	0.0922852	0.439941	
71	-0.886005	0.377952	-0.0168482	0.268074	1.9524	-6.97142	7.61389	-0.0202037	-0.0801664	0.0141009	0.262939	0.871826	-0.587402	0.506202	-0.840986	-0.0360613	-0.187621	3.64893	-8.0299	-4.18225	-0.0547991	-0.00983085	-0.0346327	0.194336	0.868408	0.532227	0.823593	-0.156581	0.544753	0.0205094	-9.07749	-1.98884	3.94254	-0.00807004	-0.0646169	-0.0805099	0.97168	0.029541	0.115479	0.72551	0.289326	0.581095	-0.228593	-9.71513	1.88703	1.07948	-0.110161	-0.0741	0.0108809	1.04956	0.188477	0.144775	0.0126209	-0.805708	0.0171233	-0.591931	9.64438	-0.0607467	-2.68383	0.174378	-0.0493798	-0.0715073	-0.810547	0.0187988	0.74292	-0.411106	-0.574449	0.301113	-0.640571	9.66764	1.56108	3.23433	-0.0729019	-0.0014771	-0.0163447	-0.953125	-0.629639	0.179443	0.310635	-0.905196	-0.259226	-0.130104	3.80995	-4.66488	-7.12501	0.0331637	-0.0604161	-0.0562609	-0.0117188	0.708496	0.791748	0.510162	-0.729682	-0.217551	-0.399962	7.67968	-5.06174	-1.51775	0.190903	0.0457002	-0.022891	-0.547363	0.86792	0.332764	0.718328	-0.542967	-0.355056	-0.251251	7.82206	-6.07271	1.60269	0.264525	0.0198444	-0.0403131	-0.607422	0.886719	-0.249268	0.286314	-0.111515	-0.164606	-0.93728	3.08633	2.66273	9.51711	0.0504847	0.00662365	0.015575	-0.62915	-0.0212402	-0.859375	0.164005	-0.676048	-0.293393	-0.65573	9.60197	1.41874	-0.749653	-0.0226225	0.0177202	0.0119374	-1.05029	0.0966797	0.442139	
72	-0.886226	0.379063	-0.0160598	0.265814	2.06481	-7.45986	7.51954	-0.0265473	-0.067735	0.076972	0.262695	0.878174	-0.580811	0.506526	-0.840743	-0.0362696	-0.187795	3.65177	-8.03691	-3.78541	0.029445	0.0236399	-0.030559	0.189941	0.870605	0.532227	0.823592	-0.160086	0.543745	0.0202697	-8.89119	-2.80593	3.69013	-0.027575	-0.0302913	-0.0937875	0.97583	0.0336914	0.113037	0.72732	0.288218	0.579043	-0.229444	-9.33586	1.84701	1.77578	-0.0310359	-0.1066	-0.0104326	1.04541	0.186279	0.131592	0.0121328	-0.805292	0.0181112	-0.592478	9.4956	-0.755904	-2.92204	0.214439	-0.000697157	-0.0523729	-0.816895	0.012207	0.736084	-0.410199	-0.57482	0.3007	-0.641013	9.65509	2.56945	3.56849	-0.0368504	-0.0156299	0.0145144	-0.95752	-0.627441	0.179443	0.311166	-0.904952	-0.25968	-0.129629	4.04201	-4.49789	-6.79035	0.0753088	-0.0229488	-0.0374727	-0.00927734	0.704102	0.791748	0.508781	-0.730953	-0.215837	-0.40033	7.34025	-5.39786	-1.62174	-0.163476	0.025807	0.00340367	-0.541016	0.867676	0.344238	0.716377	-0.545872	-0.353644	-0.252514	7.73689	-6.12777	1.27861	-0.254152	0.0271727	0.000498951	-0.607178	0.88208	-0.240234	0.286273	-0.111229	-0.163307	-0.937554	3.45716	2.34995	9.7108	-0.0146137	0.0476498	-0.0127498	-0.631348	-0.019043	-0.852539	0.162746	-0.676493	-0.291386	-0.656479	10.1322	1.49711	-0.850836	-0.0837005	0.0179674	0.0233867	-1.05005	0.0944824	0.437744	
73	-0.886489	0.378399	-0.0150475	0.265941	2.00072	-7.42612	7.50799	0.038944	-0.0290742	-0.016134	0.26709	0.878418	-0.587402	0.506006	-0.841012	-0.0364596	-0.187957	3.41451	-7.92966	-4.10153	-0.0250073	0.00511489	-0.0225388	0.187744	0.872803	0.531982	0.82385	-0.160183	0.543371	0.0189825	-8.76778	-2.60396	3.66064	0.0544657	-0.0139581	-0.0939009	0.97583	0.029541	0.11084	0.728131	0.287777	0.577658	-0.230914	-9.45423	1.67433	1.87357	0.0647285	-0.0756801	-0.0321056	1.04297	0.186279	0.131592	0.00916353	-0.805401	0.0214579	-0.592271	9.04488	-0.79711	-3.27133	-0.197586	-0.000526296	0.0164662	-0.818848	0.0078125	0.740723	-0.410179	-0.57498	0.300286	-0.641078	9.36876	2.66282	3.15533	0.0278458	-0.0183575	-0.0157803	-0.953125	-0.629639	0.179443	0.311625	-0.904657	-0.259995	-0.129957	3.69661	-4.31289	-6.98565	0.0353087	-0.0282741	-0.0129427	-0.015625	0.704102	0.791748	0.509487	-0.730525	-0.216351	-0.399934	7.85999	-5.59282	-1.35999	0.14404	0.0491411	-0.0110008	-0.54541	0.870117	0.330322	0.718108	-0.543739	-0.353908	-0.251828	7.94523	-5.71488	1.75268	0.153183	0.0298302	-0.0144047	-0.609863	0.888916	-0.249268	0.286506	-0.110673	-0.162815	-0.937634	3.18341	2.5973	9.69795	-0.0131709	0.0285617	0.0295114	-0.626953	-0.0212402	-0.856934	0.162798	-0.676586	-0.291227	-0.656441	9.49253	1.45762	-0.938074	-0.00253241	0.00332434	0.00941813	-1.05029	0.0966797	0.435303	
74	-0.886082	0.377876	-0.0145696	0.268061	2.14702	-6.82985	7.6058	-0.00766887	0.0364805	-0.084298	0.262695	0.878174	-0.583008	0.505283	-0.841705	-0.0371622	-0.186657	3.69036	-8.38086	-4.64103	-0.0182538	-0.03753	-0.0159367	0.189941	0.866211	0.530029	0.823565	-0.161777	0.543351	0.0183658	-9.16199	-2.73184	3.91765	-0.117768	0.0167861	-0.016725	0.978027	0.0358887	0.117432	0.728652	0.28603	0.578033	-0.2305	-9.71862	1.43552	1.66598	-0.0856495	0.007798	-0.0323547	1.04541	0.184326	0.127197	0.0110836	-0.805865	0.0180354	-0.59172	9.22134	-0.761625	-2.80859	0.235211	-0.0185075	-0.111992	-0.81665	0.0078125	0.747559	-0.410499	-0.57497	0.300589	-0.640739	9.63063	2.51992	3.36335	-0.0765223	-0.0317008	-0.0158496	-0.95752	-0.625244	0.185791	0.309733	-0.90521	-0.260642	-0.129328	3.71416	-4.74725	-7.37807	-0.0450768	-0.0923265	-0.0267083	-0.0112305	0.701904	0.793945	0.508969	-0.73112	-0.216044	-0.399675	7.81062	-5.52096	-1.65812	-0.134469	0.00525013	-0.00123582	-0.543213	0.86792	0.3396	0.718068	-0.543843	-0.353771	-0.251913	7.86793	-6.10266	1.62908	-0.0457751	-0.000445562	-0.0203405	-0.600586	0.888916	-0.24707	0.286941	-0.109793	-0.16321	-0.937535	2.80449	2.48676	9.63066	0.00115254	0.0373882	0.00672304	-0.622314	-0.0209961	-0.854736	0.165376	-0.675618	-0.293217	-0.655908	9.35702	1.91007	-0.873883	0.0227215	0.0151959	0.00245792	-1.05469	0.0944824	0.435303	
75	-0.885988	0.37775	-0.0147758	0.268537	1.95665	-7.05764	7.57084	0.00347614	0.0274572	-0.0287938	0.262695	0.876221	-0.587402	0.505718	-0.841511	-0.037105	-0.186366	3.62439	-8.28384	-3.92938	0.0303114	-0.000206422	0.00298473	0.196777	0.864014	0.537109	0.823097	-0.163058	0.543689	0.0180513	-9.03295	-3.36515	3.6866	-0.0740171	0.0533496	-0.071415	0.971436	0.0380859	0.12207	0.728622	0.286076	0.577352	-0.23224	-9.46321	1.96138	2.4292	-0.0275953	-0.0375566	-0.0459806	1.04297	0.188477	0.133545	0.0123777	-0.80607	0.0164605	-0.591462	9.40656	-0.134236	-2.73463	0.157708	-0.0218872	-0.0548596	-0.812256	0.0100098	0.745361	-0.410735	-0.575196	0.300052	-0.640636	9.61486	2.06916	3.56397	-0.00818592	-0.00390681	-0.0248712	-0.95752	-0.627441	0.185791	0.311688	-0.904424	-0.261106	-0.1292	3.6667	-4.52069	-6.92965	0.0596631	0.110717	-0.0173466	-0.00708008	0.704102	0.789795	0.508823	-0.731173	-0.21526	-0.400185	7.74694	-5.32612	-1.37744	-0.0399681	0.07375	0.00513533	-0.543213	0.86792	0.337402	0.717852	-0.544244	-0.353495	-0.252048	7.90713	-5.71418	1.44346	-0.0358456	0.0125877	-0.00778576	-0.609619	0.884277	-0.244873	0.287029	-0.110105	-0.163148	-0.937483	3.37318	2.37005	9.5846	-0.00922882	-0.00834641	0.0151929	-0.62915	-0.0168457	-0.857178	0.165316	-0.675693	-0.293135	-0.655882	9.61037	1.06695	-0.97343	-0.00441294	0.00109013	-0.00088292	-1.04565	0.098877	0.439941	
76	-0.886637	0.376992	-0.01607	0.267384	1.74095	-7.09578	7.59719	0.0163125	0.0371085	0.0847764	0.264893	0.878418	-0.585205	0.506261	-0.841266	-0.0367529	-0.186064	3.32626	-7.99968	-4.39149	-0.00227654	0.00974873	-0.00388259	0.196533	0.870605	0.534424	0.822969	-0.161188	0.544464	0.0173126	-9.07591	-2.29946	3.62916	0.048248	0.0428262	0.0408697	0.97583	0.0380859	0.117432	0.728929	0.283831	0.578431	-0.231344	-9.54206	1.5085	2.06629	-0.198603	0.0324234	-0.0693151	1.04956	0.188721	0.124756	0.00889304	-0.806462	0.0207165	-0.590856	9.66033	-0.455913	-3.13075	-0.324663	-0.0153073	0.0705569	-0.812256	0.0100098	0.745361	-0.410862	-0.575512	0.299185	-0.640676	9.70439	2.13707	3.39666	-0.0929097	-0.0145822	-0.0162539	-0.957275	-0.629639	0.181641	0.311813	-0.904494	-0.260692	-0.12924	3.36299	-4.43951	-7.22212	0.0195393	0.0242151	0.0134112	-0.00708008	0.704102	0.787598	0.51026	-0.730191	-0.21607	-0.399712	7.497	-6.05649	-1.61319	0.118676	-0.00841132	-0.018678	-0.543213	0.872314	0.330322	0.718246	-0.543908	-0.353264	-0.251976	7.6544	-6.67609	1.7334	0.140226	0.0167856	-0.0190225	-0.607178	0.88208	-0.244873	0.287668	-0.109977	-0.162388	-0.937434	3.15958	2.58839	9.65715	-0.0314134	0.0413712	0.0324283	-0.61792	-0.0187988	-0.859375	0.166856	-0.675084	-0.295037	-0.655267	9.71068	1.66501	-0.807498	0.0860161	0.0148231	-0.0235515	-1.05469	0.098877	0.435303	
77	-0.886943	0.376675	-0.0167556	0.266774	1.8204	-7.19561	7.70873	0.0174294	0.0324321	0.0716368	0.264648	0.882568	-0.587402	0.506043	-0.841568	-0.0358901	-0.185461	3.63379	-8.3147	-4.04176	-0.0152895	-0.0118717	0.0255766	0.19873	0.868408	0.539307	0.821029	-0.164177	0.546429	0.0192884	-9.00163	-3.22239	3.68127	-0.119679	0.114944	0.0190434	0.971436	0.0358887	0.128906	0.72713	0.28374	0.580236	-0.232595	-9.64797	1.16751	1.79814	0.0851715	0.0868227	-0.0687276	1.04053	0.195068	0.135742	0.0103117	-0.806192	0.0213245	-0.59118	9.31302	-0.24398	-2.9482	0.0731189	-0.000796445	0.0192998	-0.8125	0.012207	0.74292	-0.410509	-0.575568	0.299716	-0.640604	9.68138	2.54358	3.6096	0.0137634	-0.0270364	0.0171598	-0.957275	-0.629639	0.185791	0.312911	-0.904031	-0.261518	-0.128152	3.76094	-4.79819	-7.08976	0.122865	-0.00350917	-0.0373979	-0.00732422	0.708496	0.783203	0.511584	-0.729035	-0.216116	-0.400104	7.93536	-5.2591	-1.38485	0.0237993	0.122839	-0.00280158	-0.547607	0.87207	0.33252	0.718061	-0.5442	-0.353208	-0.25195	8.03713	-5.57605	1.58799	-0.205276	0.00325687	-0.00677453	-0.602539	0.884277	-0.240234	0.287601	-0.110093	-0.162457	-0.937429	3.57028	2.36257	9.52247	-0.0321265	0.0193774	-0.0117353	-0.624756	-0.0168457	-0.852539	0.165359	-0.675923	-0.293368	-0.655531	9.7591	1.58517	-1.00507	-0.17907	-0.0142654	0.00339853	-1.04785	0.0944824	0.439941	
78	-0.887471	0.376067	-0.0173605	0.265832	1.87447	-7.35752	7.73514	0.0413594	0.00747058	-0.00981077	0.269531	0.871826	-0.585205	0.506902	-0.841091	-0.0357442	-0.185305	3.3267	-7.85203	-4.0919	0.0338314	-0.0140596	-0.00585495	0.200684	0.872803	0.539062	0.820611	-0.159563	0.548443	0.0186243	-9.06101	-2.11091	3.46192	0.151542	0.0639419	0.108728	0.969482	0.029541	0.12915	0.725503	0.282833	0.58288	-0.232166	-9.57363	1.14618	1.60063	-0.122046	0.137104	-0.0546891	1.04468	0.197266	0.140137	0.00854287	-0.806308	0.0234408	-0.59097	9.33345	-0.689937	-3.3212	-0.102167	0.0157637	0.000360117	-0.81665	0.0078125	0.75	-0.410826	-0.575553	0.298985	-0.640756	9.37295	2.29789	3.31111	-0.0554445	0.00981938	-0.0312676	-0.952881	-0.631836	0.181641	0.313726	-0.903926	-0.261033	-0.127886	3.68414	-4.33304	-7.31763	-0.0318513	-0.00524751	-0.00656113	-0.0117188	0.710693	0.787354	0.51017	-0.730489	-0.216128	-0.399251	7.6725	-5.1933	-1.36641	-0.0925219	-0.101552	-0.0145129	-0.543213	0.869873	0.337402	0.71818	-0.544006	-0.353242	-0.251982	7.79614	-5.53573	1.51346	0.131178	0.00478684	-0.0272555	-0.595703	0.886719	-0.24707	0.287752	-0.110095	-0.1624	-0.937392	3.17611	2.57921	9.78633	-0.0101532	0.0173685	0.0180518	-0.626953	-0.019043	-0.854736	0.164908	-0.675877	-0.29326	-0.655739	9.72354	2.01097	-0.777019	-0.00725994	0.0113298	-0.0234229	-1.04565	0.0966797	0.442139	
79	-0.887517	0.37556	-0.0167654	0.266435	1.9535	-7.13339	7.64602	0.0227512	-0.0144738	-0.0251247	0.269287	0.878418	-0.59375	0.506614	-0.841364	-0.0347169	-0.185052	3.46379	-8.44539	-4.14048	-0.0057614	0.0359331	0.0162186	0.200928	0.868408	0.529785	0.818859	-0.161016	0.550543	0.0211248	-9.07917	-3.23243	3.44127	-0.0461213	0.109288	0.0663913	0.969482	0.0251465	0.12915	0.72307	0.284983	0.584439	-0.233207	-9.58737	1.34801	1.54113	0.163498	0.101856	-0.000707842	1.04248	0.199463	0.142334	0.0115681	-0.806629	0.019623	-0.590619	9.55519	-0.480661	-2.9049	0.223962	-0.0290486	-0.0527739	-0.810303	0.012207	0.75	-0.40985	-0.576237	0.297147	-0.641621	9.72477	2.08097	3.43286	0.0980716	0.00361761	-0.00742126	-0.952881	-0.631836	0.181641	0.315674	-0.903147	-0.261573	-0.127496	3.77617	-4.94921	-6.93065	0.163106	0.0444962	-0.00552689	-0.00976562	0.712891	0.785156	0.51064	-0.729803	-0.216057	-0.399942	7.77655	-5.70084	-1.57266	0.0752746	0.0102073	-0.0288695	-0.545166	0.865479	0.344482	0.717083	-0.545563	-0.352458	-0.252836	7.99095	-5.56533	1.49033	-0.171431	0.0249473	-0.0123766	-0.602783	0.888916	-0.244873	0.287769	-0.10983	-0.163485	-0.937229	3.36881	2.62261	9.58136	0.0657958	0.00759403	-1.91931e-05	-0.620117	-0.0209961	-0.86377	0.16271	-0.676753	-0.291247	-0.656281	9.7155	1.14197	-1.02005	-0.00455551	-0.019829	0.0103405	-1.05469	0.0944824	0.437744	
80	-0.887605	0.374733	-0.0177641	0.267241	1.9546	-7.00001	7.73075	0.017735	0.0688984	-0.00152601	0.271729	0.874023	-0.587158	0.506864	-0.841364	-0.034785	-0.18435	3.57004	-8.08601	-4.15143	-0.00617	-0.000361256	-0.00444634	0.196533	0.868408	0.534424	0.818849	-0.159327	0.551001	0.0223565	-9.05523	-1.87639	3.5058	-0.147295	0.0157287	0.0546865	0.97168	0.020752	0.129395	0.722446	0.282805	0.58746	-0.230182	-9.71281	0.920053	0.894094	-0.0882968	0.107513	-0.026864	1.04053	0.192871	0.148926	0.00998704	-0.806014	0.0222441	-0.591394	9.28214	-0.765299	-2.79522	-0.233462	0.0889221	0.0709671	-0.8125	0.012207	0.745361	-0.410367	-0.575551	0.297226	-0.641869	9.55208	2.48517	3.72762	-0.0406385	0.0371062	-0.0136426	-0.959473	-0.631836	0.181641	0.316957	-0.902845	-0.261432	-0.12674	3.77418	-4.41614	-7.1776	0.0678037	-0.03594	-0.0178269	-0.00341797	0.717285	0.780762	0.510892	-0.729857	-0.216956	-0.399035	7.53586	-5.12409	-1.23415	-0.0602244	-0.000171773	-0.0234958	-0.543213	0.87207	0.334961	0.717628	-0.544603	-0.352567	-0.253209	7.73447	-5.651	1.63581	-0.105345	0.0108102	-0.0226226	-0.604736	0.879639	-0.244629	0.287964	-0.110047	-0.163039	-0.937222	2.86136	2.65217	9.78963	0.0363064	-0.00603622	0.0135254	-0.625	-0.0146484	-0.85498	0.16399	-0.67637	-0.292849	-0.655645	9.31936	1.77924	-0.673485	0.0113809	0.00327713	-0.000283134	-1.05249	0.0966797	0.437744	
81	-0.887725	0.374353	-0.0186846	0.267312	1.76571	-7.20084	7.76576	0.0120952	0.0711154	0.0260474	0.271729	0.871826	-0.585205	0.50766	-0.840878	-0.0349029	-0.184356	3.41459	-8.25009	-4.2079	0.0688622	0.0172236	-0.0165333	0.200928	0.866211	0.534668	0.817792	-0.161337	0.551902	0.0243089	-9.0717	-3.10097	3.63375	-0.227041	0.0898358	0.0522626	0.97168	0.020752	0.131592	0.721775	0.28382	0.587454	-0.231053	-9.58208	1.35622	1.35736	0.115901	0.0359799	-0.0143351	1.04248	0.199463	0.15332	0.010419	-0.806307	0.0213866	-0.591019	9.75929	-0.419594	-3.34842	0.120997	-0.0399663	-0.0588952	-0.814697	0.0144043	0.745361	-0.410654	-0.575325	0.296627	-0.642166	9.54054	2.35837	3.05217	-0.020272	0.0371673	-0.029982	-0.955322	-0.629639	0.179443	0.320887	-0.901223	-0.261891	-0.127441	3.5037	-4.59878	-7.01923	0.164594	0.0795342	-0.0344481	-0.012207	0.719482	0.770264	0.510227	-0.73032	-0.216388	-0.399346	7.86844	-5.69517	-1.55943	0.0676419	0.0268109	-0.00801959	-0.543213	0.872314	0.33252	0.717161	-0.545252	-0.3522	-0.253646	7.96967	-5.88069	1.54184	0.0349972	0.0158576	-0.0174637	-0.60498	0.88208	-0.240234	0.287825	-0.110177	-0.163465	-0.937175	3.77323	2.42338	9.50931	0.0162907	0.0338966	-0.00834504	-0.622559	-0.0187988	-0.857178	0.162695	-0.676794	-0.291616	-0.65608	9.74716	1.95259	-0.844455	-0.147317	-0.00603853	-0.0015442	-1.05444	0.0922852	0.439941	
82	-0.888093	0.373204	-0.0189076	0.26768	1.65292	-6.99579	7.77815	0.0476785	0.0057176	-0.0246507	0.273926	0.874023	-0.591553	0.507871	-0.841081	-0.0351909	-0.18279	3.51036	-8.32903	-4.31827	-0.0248897	-0.0150395	0.0175547	0.207275	0.868408	0.529785	0.817911	-0.159771	0.552135	0.0253295	-8.81877	-1.85673	3.52158	-0.0631722	0.0110902	0.065978	0.976074	0.0270996	0.135986	0.72048	0.283212	0.590153	-0.228952	-9.70702	1.27826	1.1415	0.190519	0.0773001	-0.0166069	1.03809	0.197021	0.162109	0.0107761	-0.80607	0.0203349	-0.591372	9.05588	-0.888375	-2.94696	0.0535293	-0.00138862	-0.0622075	-0.816895	0.012207	0.740723	-0.409326	-0.576062	0.293781	-0.643659	9.4524	2.43587	3.33837	0.0863828	0.0167214	-0.0214552	-0.957275	-0.633789	0.186035	0.321904	-0.901054	-0.262182	-0.125458	4.03943	-4.85149	-7.25333	0.0867732	-0.018273	0.0190434	-0.0124512	0.72583	0.772217	0.509996	-0.730427	-0.21666	-0.399298	7.74612	-5.7343	-1.36525	-0.0526593	0.0130762	-0.0204087	-0.54541	0.870117	0.334961	0.717411	-0.544892	-0.352374	-0.253467	7.82931	-6.14281	1.76846	0.0265163	-0.00073241	-0.0195988	-0.602783	0.888916	-0.24707	0.287781	-0.11062	-0.162857	-0.937242	3.15325	2.64034	9.59734	-0.0406396	-0.0283316	0.0177217	-0.624756	-0.0168457	-0.861572	0.162248	-0.67693	-0.29133	-0.656177	9.38538	1.43084	-0.768765	0.0468572	0.00613712	-0.00890574	-1.04761	0.0878906	0.442383	
83	-0.888209	0.372932	-0.0181137	0.267727	1.90632	-6.94663	7.66044	0.0197934	-0.0348024	-0.00420027	0.273926	0.871826	-0.587158	0.508081	-0.841059	-0.0352946	-0.182288	3.26103	-8.09546	-3.83461	0.0119627	-0.0247198	-0.00326781	0.202881	0.870605	0.531982	0.81733	-0.159174	0.553159	0.0255098	-8.78411	-2.73409	3.36797	0.190345	0.0123782	0.028932	0.971924	0.0185547	0.138428	0.720027	0.283712	0.590433	-0.229037	-9.45652	1.84712	1.63484	0.0383721	0.049898	0.00522345	1.04712	0.195068	0.162109	0.0123481	-0.806547	0.0177624	-0.590775	9.72729	-0.469605	-3.11102	0.221259	-0.0590271	-0.106647	-0.8125	0.0144043	0.740723	-0.40916	-0.576306	0.2927	-0.644039	9.72653	2.48084	3.50651	0.0419896	0.0223464	-0.0372602	-0.953125	-0.625244	0.187744	0.323859	-0.900413	-0.26127	-0.126925	3.37196	-4.69129	-6.75904	0.126722	0.0708168	0.0143161	-0.0124512	0.72583	0.772217	0.511307	-0.729319	-0.216418	-0.399777	7.85308	-5.4431	-1.4984	0.110126	0.111977	0.00128203	-0.541016	0.870117	0.327881	0.717044	-0.545463	-0.3522	-0.253521	7.87594	-5.72721	1.55248	-0.04831	-0.00438347	-0.00568321	-0.60498	0.884277	-0.233643	0.287682	-0.110323	-0.163499	-0.937196	3.63674	2.25172	9.49213	0.0559858	0.0184493	-0.0133072	-0.626953	-0.019043	-0.857178	0.16526	-0.676034	-0.293664	-0.655307	10.2391	1.6662	-0.815153	0.189724	0.0459607	0.0101677	-1.05249	0.098877	0.4375	
84	-0.888261	0.373007	-0.0188319	0.267401	1.83185	-6.81057	7.70327	-0.0230655	0.0324106	0.0318487	0.276367	0.869873	-0.591553	0.507809	-0.841453	-0.0356527	-0.181153	3.36722	-8.15139	-4.19107	-0.0354333	0.0274928	-0.00817723	0.207275	0.868408	0.536865	0.816468	-0.160725	0.553843	0.0283759	-9.39887	-2.1743	3.47558	-0.271622	0.0530871	0.0341489	0.974121	0.00756836	0.143311	0.719944	0.280914	0.592918	-0.226308	-9.8995	0.935439	0.712773	-0.0753054	0.0890131	-0.0279873	1.03809	0.199219	0.164307	0.0106604	-0.80648	0.0193452	-0.590849	9.27917	-1.07777	-3.10624	-0.152902	0.0143136	0.0431147	-0.807861	0.0100098	0.747559	-0.408634	-0.576857	0.291249	-0.644537	9.52347	2.26453	3.36369	0.0104752	-0.00351118	-0.0183334	-0.952881	-0.631836	0.187988	0.323352	-0.90071	-0.261697	-0.125222	3.40453	-4.53	-7.07968	0.0128259	-0.138474	-0.00289187	-0.0078125	0.721436	0.774414	0.509491	-0.730945	-0.216205	-0.399241	7.45721	-5.72653	-1.72973	-0.156181	-0.0587426	-0.0246971	-0.541016	0.870117	0.33252	0.717079	-0.545263	-0.35252	-0.253407	7.73176	-6.21058	1.48061	0.0688	-0.00156726	-0.0319526	-0.609619	0.884277	-0.24707	0.287598	-0.110035	-0.163535	-0.937249	3.10671	2.73547	9.56237	0.00935208	0.0333117	-0.00864888	-0.629395	-0.0146484	-0.857178	0.166226	-0.675718	-0.293974	-0.65525	9.43997	1.67634	-0.900552	0.0825604	0.0121129	-0.00907437	-1.05029	0.0966797	0.437744	
85	-0.888379	0.37392	-0.0192229	0.265701	1.74947	-7.38269	7.57979	-0.0226891	-0.0358875	0.0656767	0.280518	0.874268	-0.59375	0.508256	-0.841393	-0.0351089	-0.180281	3.33546	-8.01896	-3.85179	0.0261415	-0.0103728	0.00783746	0.207275	0.870605	0.531982	0.816463	-0.159025	0.554429	0.0266067	-8.7073	-2.4928	2.99891	0.284567	0.0133344	0.0124826	0.976318	0.0163574	0.145508	0.719261	0.282005	0.592637	-0.227858	-9.38979	1.41293	1.35885	-0.0583898	0.000875607	-0.00839323	1.04028	0.197021	0.164307	0.0105602	-0.806736	0.0197375	-0.590488	9.64041	0.0504141	-2.81059	-0.0937223	-0.00960823	0.0186032	-0.814453	0.00976562	0.752197	-0.409222	-0.576598	0.291311	-0.644368	9.53324	2.164	3.29763	-0.0808128	-0.0139443	-0.0166593	-0.95752	-0.625244	0.181396	0.326911	-0.899541	-0.261798	-0.124164	4.05494	-4.95217	-7.09732	0.163901	0.00801381	0.00658279	-0.0107422	0.734619	0.759033	0.510143	-0.730572	-0.216168	-0.399112	7.92205	-5.31888	-1.18961	0.0894881	0.0154969	0.0093967	-0.545654	0.874268	0.3396	0.715888	-0.546968	-0.35184	-0.254047	7.82816	-5.7485	1.61145	-0.126401	0.00127233	-0.00378392	-0.600586	0.888916	-0.242676	0.287771	-0.110057	-0.162906	-0.937303	3.16042	2.74897	9.58229	0.00320482	0.0372886	0.0084773	-0.626953	-0.019043	-0.854736	0.165243	-0.675873	-0.293408	-0.655593	9.668	1.23573	-0.792786	-0.016939	0.00776512	-0.0173703	-1.05249	0.0966797	0.437744	
86	-0.888433	0.373812	-0.0199258	0.265621	2.02787	-7.21491	7.70893	-0.00597457	0.0415969	0.0105923	0.271729	0.871826	-0.589355	0.507683	-0.841933	-0.0347006	-0.179452	3.33027	-8.34615	-4.20101	-0.0419655	0.00967205	0.0162549	0.211914	0.866211	0.532227	0.816594	-0.158581	0.554347	0.0269329	-9.30814	-1.94671	3.17821	0.0181967	-0.0119268	0.0400057	0.976318	0.00756836	0.143311	0.719594	0.28133	0.592385	-0.228296	-9.66422	0.651101	0.954089	0.0870994	-0.0374673	0.00316412	1.03809	0.199219	0.162109	0.0107185	-0.806397	0.0203495	-0.590927	9.05753	-1.15071	-3.21952	0.125838	0.0136956	-0.0404557	-0.8125	0.012207	0.74292	-0.408884	-0.576887	0.291201	-0.644373	9.60953	2.69019	3.47936	0.00686132	-0.0101061	-0.00628256	-0.959961	-0.62085	0.18335	0.326483	-0.899611	-0.261962	-0.12444	3.51144	-4.7848	-7.21182	0.128602	-0.0833374	-0.0549049	-0.00854492	0.736816	0.765381	0.511103	-0.729624	-0.216863	-0.399241	7.7547	-5.30674	-1.64343	0.0465523	0.0130437	-0.0396156	-0.543213	0.870117	0.334961	0.717554	-0.544678	-0.352849	-0.252864	7.84382	-6.1864	1.56988	0.233623	-0.00280313	-0.0329447	-0.60498	0.886475	-0.242676	0.287691	-0.110755	-0.162782	-0.937267	3.41983	2.39986	9.42795	0.00182541	-0.0216167	-0.00937045	-0.622559	-0.0144043	-0.859375	0.165873	-0.675725	-0.294241	-0.655213	9.48482	1.79651	-0.839382	0.0920739	-0.00201878	-0.0149091	-1.0481	0.101074	0.439941	
