40	Head	00b4120a												Throax	00b411e8												LUpArm	00b411d9												LFoArm	00b41148												RUpArm	00b411db												RFoArm	00b41204												Waist	00b411f7												Lthigh	00b411f4												Lshank	00b4111b												Rthigh	00b411c8												Rshank	00b411ee												
PacketCount	q0	q1	q2	q3	accX	accY	accZ	gyrX	gyrY	gyrZ	magX	magY	magZ	q0	q1	q2	q3	accX	accY	accZ	gyrX	gyrY	gyrZ	magX	magY	magZ	q0	q1	q2	q3	accX	accY	accZ	gyrX	gyrY	gyrZ	magX	magY	magZ	q0	q1	q2	q3	accX	accY	accZ	gyrX	gyrY	gyrZ	magX	magY	magZ	q0	q1	q2	q3	accX	accY	accZ	gyrX	gyrY	gyrZ	magX	magY	magZ	q0	q1	q2	q3	accX	accY	accZ	gyrX	gyrY	gyrZ	magX	magY	magZ	q0	q1	q2	q3	accX	accY	accZ	gyrX	gyrY	gyrZ	magX	magY	magZ	q0	q1	q2	q3	accX	accY	accZ	gyrX	gyrY	gyrZ	magX	magY	magZ	q0	q1	q2	q3	accX	accY	accZ	gyrX	gyrY	gyrZ	magX	magY	magZ	q0	q1	q2	q3	accX	accY	accZ	gyrX	gyrY	gyrZ	magX	magY	magZ	q0	q1	q2	q3	accX	accY	accZ	gyrX	gyrY	gyrZ	magX	magY	magZ	
0	-0.565968	0.405335	0.425023	0.578566	9.39075	0.0546205	3.17054	-0.193913	0.0147876	0.00877728	-0.826416	0.373535	-0.281494	0.516854	-0.438932	-0.402183	-0.615183	9.22402	0.420625	2.84729	-0.126234	0.0122532	-0.0570004	-0.768066	0.261719	-0.207031	0.733745	0.00598063	-0.354649	-0.579488	5.43151	4.25686	7.75619	-0.0586123	0.0233469	-0.0832539	-0.522949	-0.178467	-0.904541	0.0650198	0.437306	0.0901624	-0.892416	-7.4711	-0.979587	6.13387	0.104953	-0.00855398	-0.132526	0.513184	0.218262	-0.873535	0.591096	-0.446381	-0.070445	-0.668122	6.33835	-4.41198	5.97921	-0.0567082	0.0728177	-0.0301247	-0.585693	0.734131	-0.310303	0.930579	-0.0835259	0.352621	0.0520144	-8.02509	-1.32762	8.80348	0.124146	0.0198203	-0.0234559	1.00439	-0.00537109	-0.230469	0.369033	-0.533901	-0.545176	-0.530611	8.93148	1.68046	-1.46927	-0.0627359	-0.156792	-0.00120748	-0.948486	0.196777	0.194336	0.436915	-0.442831	-0.490889	-0.609945	9.83728	2.12058	1.45843	-0.16686	-0.0114363	-0.0387622	-1.05298	0.179443	-0.0854492	0.440846	-0.45999	-0.54544	-0.544573	9.50621	1.73861	0.110246	-0.100703	-0.00240587	-0.0125311	-1.07764	0.187012	0.0222168	0.451562	-0.324599	-0.0883578	-0.82639	6.28349	-1.5889	7.69087	0.0317077	0.0256135	-0.0627884	-0.748291	0.486328	-0.529297	0.276934	-0.890534	-0.30882	0.18678	-1.7019	-5.506	-7.38076	0.0539809	0.0583322	0.0600362	0.479736	0.801025	0.541748	
1	-0.565367	0.406381	0.422858	0.580005	9.72737	0.222904	3.23988	-0.081636	0.0551723	0.0103523	-0.826416	0.369141	-0.2771	0.5157	-0.440011	-0.401048	-0.616121	9.42558	0.160983	2.85267	-0.0618784	-0.0192915	-0.0248948	-0.759521	0.263916	-0.204834	0.732708	0.00589758	-0.354264	-0.581035	5.57144	4.21457	7.6352	-0.00919987	-0.00436682	-0.0713579	-0.525146	-0.187012	-0.906494	0.0617477	0.437531	0.0902304	-0.892531	-7.51317	-0.94182	5.8651	0.0366593	0.0133158	-0.042753	0.519775	0.218262	-0.871338	0.59129	-0.444762	-0.0699256	-0.669084	6.28197	-4.34858	5.66678	0.0570535	0.0717616	-0.0344962	-0.581055	0.727539	-0.310303	0.930823	-0.0818513	0.352477	0.0512662	-7.80853	-1.35831	8.67512	0.0618704	0.00888794	-0.0173317	1	-0.00341797	-0.236816	0.365708	-0.537041	-0.546155	-0.528734	9.46959	1.69485	-2.01006	-0.0348853	-0.147916	-0.0145058	-0.950684	0.196777	0.205078	0.437121	-0.441808	-0.489481	-0.611669	9.51317	2.00936	1.31782	0.00847951	0.054149	-0.0570619	-1.05518	0.179443	-0.0900879	0.439979	-0.460598	-0.545348	-0.544852	9.79294	1.66834	-0.441597	-0.00420829	-0.0139873	-0.032454	-1.07739	0.182373	0.0268555	0.449531	-0.325515	-0.0880046	-0.827174	6.74716	-1.34318	7.74208	-0.0768518	-0.000993253	-0.0628486	-0.755127	0.492676	-0.518066	0.276522	-0.891539	-0.306589	0.186272	-1.6027	-6.23834	-7.53747	0.0213879	0.0571978	0.0918069	0.486328	0.801025	0.544189	
2	-0.56544	0.407013	0.42129	0.580632	9.59817	0.39162	3.29847	-0.0612586	0.0145024	0.0273104	-0.824463	0.375732	-0.272705	0.51532	-0.440527	-0.401103	-0.616034	9.5941	0.649783	2.76093	-0.0351416	-0.0061894	-0.0191574	-0.772461	0.261719	-0.202393	0.732258	0.00522019	-0.354824	-0.581267	5.45981	4.26589	7.87216	-0.0203307	-0.0444623	0.017558	-0.522949	-0.180664	-0.899902	0.0616647	0.437729	0.0892889	-0.892535	-7.6071	-1.06614	5.75042	0.06384	0.00414773	0.0304712	0.513184	0.218262	-0.875732	0.591182	-0.445239	-0.0703667	-0.668815	6.72279	-4.08644	5.56088	-0.0335137	-0.0405594	-0.0214135	-0.581055	0.725342	-0.308105	0.930677	-0.0824639	0.35284	0.0504429	-7.83777	-1.61383	8.61249	-0.0349376	0.0411315	-0.0671132	0.997803	-0.00341797	-0.234619	0.363372	-0.539926	-0.546661	-0.52688	9.47081	2.05409	-1.78223	-0.0231334	-0.15972	0.0179092	-0.94458	0.203125	0.213379	0.436719	-0.442131	-0.488626	-0.612406	9.96586	2.36146	1.2821	-0.0515568	0.0198957	-0.0190387	-1.05298	0.177246	-0.0925293	0.439028	-0.461515	-0.543971	-0.546218	10.0983	1.10001	-0.621964	-0.11996	0.0229458	-0.0152042	-1.07056	0.18457	0.0290527	0.447318	-0.326489	-0.0867184	-0.828125	6.20052	-1.40385	8.24799	-0.121609	-0.00584097	-0.0792256	-0.757324	0.488281	-0.5271	0.276985	-0.892351	-0.303853	0.186181	-1.37112	-5.98307	-7.62071	0.0037977	0.0429861	0.106094	0.489014	0.792236	0.541992	
3	-0.564484	0.409107	0.420863	0.580399	9.43436	0.214179	3.11072	-0.0616367	-0.0960666	0.0129225	-0.822021	0.373535	-0.272705	0.514973	-0.440824	-0.400125	-0.616748	9.75312	0.471966	3.19239	-0.0557032	0.0794261	-0.0138308	-0.766113	0.266113	-0.207275	0.732344	0.00366424	-0.35637	-0.580223	5.61013	4.43789	7.99855	0.0105793	-0.0789134	0.0637428	-0.529297	-0.182617	-0.899658	0.0614872	0.437465	0.0864414	-0.892957	-7.81341	-0.894188	6.00348	0.104437	-0.0247128	0.0412578	0.517822	0.216064	-0.875488	0.589827	-0.447119	-0.0715568	-0.668632	6.88823	-4.01886	5.95388	-0.0405604	-0.0688049	-0.0695438	-0.587646	0.725342	-0.308105	0.930412	-0.0845629	0.353255	0.0489268	-8.0093	-1.81142	8.99881	-0.0564192	0.0326028	-0.105115	0.995361	0.00317383	-0.228516	0.362043	-0.542231	-0.546079	-0.526031	9.55298	1.76431	-1.78778	-0.0583337	-0.0470434	0.0343885	-0.944336	0.200928	0.221924	0.435162	-0.445419	-0.486435	-0.612876	9.57541	2.17511	1.11234	-0.124724	-0.0484539	0.0532595	-1.04858	0.179443	-0.0878906	0.440119	-0.460465	-0.54282	-0.547369	9.51458	3.07012	0.0272944	-0.139736	0.100291	-0.0156385	-1.073	0.184814	0.0246582	0.445422	-0.32713	-0.0858641	-0.828983	6.59062	-1.90019	8.00964	-0.06651	0.00504516	-0.0627991	-0.759521	0.488281	-0.513428	0.277121	-0.893028	-0.301754	0.186142	-1.73734	-5.91209	-7.52052	-0.0310476	0.0271501	0.061662	0.48877	0.798828	0.544189	
4	-0.563564	0.410216	0.421067	0.580362	9.83007	0.340991	2.95987	-0.0688317	-0.0956798	-0.0114525	-0.824463	0.375732	-0.272705	0.515094	-0.440843	-0.399624	-0.616958	9.23944	0.420028	2.99616	-0.035845	0.0451678	-0.00274549	-0.768066	0.261719	-0.209473	0.732702	0.00258805	-0.356568	-0.579656	5.36911	4.65996	8.2696	-0.0370282	-0.0449427	0.0792551	-0.531738	-0.173828	-0.902344	0.0605098	0.436461	0.0850563	-0.893648	-8.06557	-1.16409	5.66994	0.0686564	-0.0530082	-0.0366648	0.51123	0.209473	-0.873291	0.587879	-0.44796	-0.0714688	-0.669793	6.31725	-4.3741	6.00142	-0.0420289	0.0150163	-0.0930378	-0.583008	0.720947	-0.296631	0.930498	-0.0846818	0.353107	0.0481464	-7.8833	-1.77074	9.20501	0.0162033	0.00608858	-0.0772883	0.999512	0.00756836	-0.237305	0.359232	-0.545065	-0.546	-0.525109	9.11723	1.30029	-2.07029	-0.0265228	-0.105879	-0.00313497	-0.944336	0.200928	0.217773	0.432997	-0.446946	-0.486467	-0.613272	9.73749	1.37777	1.14903	-0.0498984	-0.0632465	-0.0340045	-1.05322	0.183594	-0.0786133	0.440746	-0.459521	-0.54146	-0.549003	9.70091	1.01998	-0.0660067	0.217731	0.0955809	-0.038456	-1.0752	0.182373	0.0202637	0.444729	-0.327278	-0.0862332	-0.829258	6.52412	-1.67666	7.9736	0.00212568	-0.00710892	-0.0601415	-0.761475	0.483887	-0.515625	0.2769	-0.893343	-0.301207	0.185848	-1.39727	-6.08045	-7.50637	-0.0183526	0.0375987	0.0391377	0.491211	0.796631	0.544189	
5	-0.563218	0.410827	0.419082	0.581702	9.55661	0.261583	3.14101	-0.0895445	0.0730555	0.0154129	-0.822021	0.373535	-0.274902	0.514459	-0.442166	-0.398912	-0.617001	9.51875	-0.0411589	2.69249	-0.135208	0.036816	-0.00399506	-0.768311	0.266113	-0.204834	0.732752	0.0014435	-0.356398	-0.579701	5.11641	4.78502	8.01849	-0.0743737	-0.035419	0.0308488	-0.529541	-0.17627	-0.895264	0.0597214	0.435424	0.0845884	-0.894251	-7.57319	-1.2238	5.90081	0.0248135	-0.0292647	-0.0111985	0.513672	0.209473	-0.875488	0.587378	-0.447543	-0.0721102	-0.670442	6.80484	-4.41242	5.78519	0.0329488	0.0204953	-0.0960088	-0.5896	0.720947	-0.310303	0.930674	-0.0839678	0.352955	0.0470977	-8.0128	-1.43452	9.02565	0.0450997	0.0103946	-0.0420527	0.997559	0.00317383	-0.230713	0.359148	-0.545532	-0.547971	-0.522623	9.34688	2.16732	-1.79782	0.0784634	-0.0758018	-0.0115096	-0.937988	0.203125	0.230469	0.4342	-0.447043	-0.485788	-0.612889	9.71643	2.58375	1.19343	-0.0364879	0.0222642	-0.001586	-1.05298	0.179443	-0.0900879	0.441403	-0.458615	-0.541656	-0.549039	9.6096	2.29813	0.234684	0.069517	0.0690873	-0.0380495	-1.07056	0.184814	0.0202637	0.443869	-0.327509	-0.0863337	-0.829617	6.42597	-1.67298	8.031	-0.0159993	-0.00874945	-0.0163727	-0.763916	0.486084	-0.520264	0.276135	-0.893873	-0.300533	0.185529	-1.77728	-6.17444	-7.43837	-0.0682171	0.00195478	0.0241195	0.48877	0.798828	0.548828	
6	-0.562901	0.411694	0.417821	0.582302	9.57792	0.190254	3.27063	-0.0614856	-0.0293349	0.0234072	-0.828857	0.375488	-0.270752	0.514499	-0.442385	-0.401425	-0.615178	10.1303	0.8478	2.87621	0.0889918	0.0371377	-0.00266412	-0.772705	0.266113	-0.207031	0.730966	-0.00304056	-0.354845	-0.582893	5.53455	4.04648	7.66994	-0.143765	-0.0738338	-0.0407112	-0.527588	-0.169678	-0.902344	0.0595173	0.435495	0.0832864	-0.894352	-7.56997	-0.909279	6.04696	0.103114	0.00205474	0.0315447	0.511719	0.202881	-0.877441	0.586714	-0.446871	-0.0734335	-0.671328	6.79219	-4.06706	5.78604	0.0117563	-0.030647	-0.0634617	-0.593994	0.723145	-0.303467	0.930577	-0.0845957	0.353227	0.0458309	-8.19018	-1.55259	8.68707	-0.00373688	0.0399072	-0.0827768	0.997314	0.00976562	-0.235107	0.358675	-0.546174	-0.547432	-0.522843	9.86482	1.86597	-1.84063	-0.0550429	-0.0106324	0.0094312	-0.944824	0.211914	0.228027	0.433724	-0.448122	-0.485179	-0.61292	10.1039	1.61992	0.985318	-0.0817684	-0.0340282	0.0231679	-1.05103	0.183594	-0.0808105	0.44305	-0.456851	-0.541998	-0.548847	9.98868	1.13959	-0.161608	0.295312	0.0774768	-0.022186	-1.07739	0.180176	0.0134277	0.443405	-0.32783	-0.0864555	-0.829726	6.31775	-1.57555	8.123	0.0187697	0.00833586	-0.0239226	-0.763916	0.486084	-0.513428	0.276994	-0.893788	-0.299721	0.185971	-1.76201	-5.49371	-7.6501	0.0217735	-0.0022682	0.0233909	0.498047	0.790283	0.537598	
7	-0.562136	0.412399	0.418412	0.582118	9.57219	0.217946	3.0444	0.00164677	-0.0383873	-0.0181784	-0.824463	0.37793	-0.268555	0.51465	-0.442764	-0.401558	-0.614693	9.29212	0.248604	2.51569	-0.012	0.00522182	0.0088494	-0.768066	0.263916	-0.202393	0.730792	-0.00300275	-0.357201	-0.581671	5.73468	4.10191	8.12301	0.129374	-0.0359928	0.0592531	-0.536133	-0.173828	-0.899902	0.0600775	0.435883	0.0813513	-0.894304	-7.79843	-0.750419	6.20407	0.0331576	0.00417229	0.0517976	0.513916	0.202881	-0.875244	0.584994	-0.448948	-0.0726388	-0.671529	6.63896	-4.4788	5.97476	-0.07211	-0.0190326	-0.0335419	-0.595947	0.716553	-0.298828	0.930573	-0.0858748	0.353056	0.0448378	-8.097	-1.72347	8.91147	-0.0200178	-0.000181901	-0.0596731	0.995117	0.0119629	-0.230957	0.358277	-0.547047	-0.548531	-0.521048	9.04405	1.68933	-1.95437	0.0685666	-0.0631707	-0.00655546	-0.944824	0.20752	0.234619	0.436508	-0.445927	-0.485311	-0.61244	9.15163	3.06135	1.56625	0.135303	0.0721282	-0.0525981	-1.05518	0.181396	-0.083252	0.444848	-0.45497	-0.543167	-0.547797	9.30729	3.35138	0.025823	-0.159498	0.0446115	-0.0257327	-1.073	0.182617	0.0090332	0.443205	-0.329033	-0.0872366	-0.829275	6.85089	-1.59133	7.78429	0.0275164	-0.0406658	0.0142031	-0.761475	0.481689	-0.515625	0.275258	-0.894306	-0.299648	0.186176	-1.33584	-6.71854	-7.38671	0.0585424	0.00302401	0.0176892	0.493652	0.790039	0.55127	
8	-0.562053	0.412577	0.4188	0.581793	9.51083	0.350801	3.06175	0.00634024	-0.0283655	0.0102364	-0.831055	0.373291	-0.26416	0.515182	-0.443074	-0.4024	-0.613472	9.70009	0.449126	2.58504	0.036525	-0.0150887	0.00745154	-0.766113	0.266113	-0.197754	0.731645	-0.0022865	-0.357296	-0.580543	5.69398	4.5993	7.88482	-0.0361844	0.0419534	0.0289572	-0.533936	-0.16748	-0.893311	0.0610165	0.434789	0.0813043	-0.894776	-7.8312	-0.701409	5.99386	-0.0119909	-0.0570118	0.0253994	0.516113	0.200684	-0.879639	0.586522	-0.446996	-0.074101	-0.671339	6.68285	-4.23552	5.62766	0.112946	0.0232029	0.0072639	-0.598145	0.71875	-0.314941	0.930803	-0.085701	0.352537	0.0444767	-7.8887	-1.81823	8.69929	0.0174664	-0.00371672	-0.0224257	0.99707	0.013916	-0.233154	0.358459	-0.547387	-0.549054	-0.520014	9.53678	1.96187	-1.84345	0.049302	-0.0137942	-0.0143012	-0.942627	0.209717	0.232422	0.434637	-0.446299	-0.485724	-0.613172	9.84334	1.47599	1.49473	-0.0313015	0.0466909	0.000567739	-1.05347	0.187988	-0.0878906	0.44345	-0.456077	-0.540922	-0.550227	9.77345	1.7026	0.119723	-0.101128	0.0376323	-0.0372843	-1.07056	0.184814	0.00683594	0.443253	-0.328981	-0.0862527	-0.829372	5.93363	-1.43706	8.30246	-0.0666107	0.0116757	0.0072127	-0.761475	0.486084	-0.508789	0.275794	-0.894161	-0.299489	0.186332	-1.28364	-5.70838	-7.52427	-0.0885275	-0.00735916	-0.00456837	0.493652	0.790039	0.548828	
9	-0.56167	0.41382	0.420417	0.580112	9.97864	0.344613	2.90739	0.0418612	-0.108446	0.0177609	-0.829102	0.377686	-0.266357	0.516181	-0.44296	-0.401879	-0.613056	9.59529	0.498035	2.89249	0.00756958	0.0196748	0.0264545	-0.761719	0.266113	-0.200195	0.732787	-0.0047903	-0.354533	-0.580781	5.63885	4.10897	7.94325	-0.125507	0.0554323	0.0767453	-0.531982	-0.160889	-0.900391	0.0619414	0.43294	0.0819767	-0.895548	-7.65382	-0.795591	6	-0.0487167	-0.0772017	0.012761	0.50708	0.205078	-0.879883	0.586725	-0.447275	-0.0742019	-0.670964	6.58064	-4.02895	5.79421	-0.0599274	-0.0137125	0.0125847	-0.593994	0.720947	-0.312744	0.930749	-0.0862352	0.352472	0.0450989	-7.89915	-1.91793	8.83161	-0.0176877	0.0220613	0.0110988	0.99707	0.013916	-0.233154	0.358144	-0.548392	-0.548699	-0.519546	9.36582	1.66496	-1.90272	0.0133954	-0.0481499	0.0382799	-0.938232	0.209717	0.236572	0.432101	-0.447182	-0.486653	-0.613584	9.79639	2.75335	2.01827	-0.201506	-0.120352	-0.159389	-1.04834	0.175049	-0.0783691	0.439373	-0.459737	-0.536104	-0.555145	9.68174	1.80358	0.293908	-0.496111	-0.0128616	-0.0251763	-1.0752	0.182617	0.0090332	0.443361	-0.328172	-0.0855322	-0.82971	6.7845	-1.59449	7.93557	0.0467505	0.101608	0.0110167	-0.759033	0.479492	-0.515381	0.277659	-0.893865	-0.298736	0.186194	-1.58021	-6.19527	-7.63056	0.157351	0.0557972	0.0116247	0.493652	0.792236	0.539795	
10	-0.561803	0.413919	0.420933	0.579537	10.2823	0.5132	2.90033	0.0436472	-0.0453074	0.0174317	-0.82666	0.375488	-0.26416	0.516181	-0.44296	-0.401879	-0.613056	9.59529	0.498035	2.89249	0.00756958	0.0196748	0.0264545	-0.761719	0.266113	-0.200195	0.733799	-0.00546211	-0.354172	-0.579717	5.40137	4.13344	7.99401	-0.0240766	0.0238552	0.126925	-0.536133	-0.165039	-0.902588	0.0623805	0.430799	0.0816883	-0.896576	-7.98369	-1.08774	6.00705	0.0219899	-0.0960116	0.0147222	0.50293	0.198486	-0.879639	0.586377	-0.449284	-0.0734867	-0.670005	6.9907	-4.40814	5.69853	-0.0454163	-0.0594156	0.00398253	-0.5896	0.720947	-0.303467	0.930469	-0.0863749	0.353114	0.0455754	-8.06545	-1.68238	8.99528	-0.039312	0.0482519	-0.00576509	0.997559	0.00756836	-0.224365	0.357405	-0.549569	-0.548849	-0.518653	9.60683	1.77526	-2.19271	0.0327961	-0.0387518	-0.0217588	-0.936279	0.214111	0.234375	0.43151	-0.446528	-0.485297	-0.615547	9.65297	2.09371	1.33695	0.131262	0.0970329	-0.0209053	-1.05298	0.179443	-0.0854492	0.436235	-0.462731	-0.53396	-0.557195	9.71713	2.28251	0.134917	-0.246691	-0.066475	-0.0205985	-1.07739	0.177979	0.0180664	0.441855	-0.328964	-0.0829955	-0.830457	6.81086	-1.53769	8.04	-0.177558	0.0244143	-0.0230054	-0.766113	0.490479	-0.508789	0.277659	-0.893865	-0.298736	0.186194	-1.58021	-6.19527	-7.63056	0.157351	0.0557972	0.0116247	0.493652	0.792236	0.539795	
11	-0.563078	0.415686	0.41933	0.578196	9.56411	0.286103	2.92076	-0.0481709	-0.0562336	0.0803582	-0.824707	0.379883	-0.261963	0.517559	-0.443661	-0.398296	-0.613725	9.58106	0.323428	2.81406	-0.036536	0.0842107	0.0228333	-0.761963	0.270508	-0.207275	0.734878	-0.00544328	-0.354493	-0.578152	5.51392	4.7166	7.9669	0.000701669	0.0237741	0.0354832	-0.527588	-0.165283	-0.897949	0.0627759	0.429092	0.081492	-0.897384	-7.82537	-0.887835	6.03169	-0.00966474	-0.0707743	0.00829511	0.504883	0.202881	-0.886475	0.586903	-0.449104	-0.0743873	-0.669564	6.85811	-4.00125	5.91953	0.021221	-0.00305855	0.00602585	-0.596191	0.720947	-0.298828	0.930072	-0.0868047	0.354098	0.0452273	-8.14863	-1.86029	9.07004	0.0286121	0.0599183	-0.0338016	0.997314	0.00976562	-0.22876	0.356882	-0.551141	-0.547647	-0.518616	9.47305	1.73649	-1.88951	-0.0337143	-0.032598	0.0505962	-0.937988	0.203125	0.243164	0.429232	-0.446963	-0.483841	-0.617965	9.4936	2.00765	1.39809	-0.220179	0.0398101	-0.0636235	-1.05298	0.177002	-0.0783691	0.433267	-0.465587	-0.532462	-0.558563	9.48693	2.1037	0.125304	-0.118066	-0.0683593	-0.0251757	-1.07983	0.179932	0.0268555	0.440686	-0.327385	-0.0812509	-0.831874	6.27309	-1.517	8.14686	-0.0599536	0.0993855	-0.057719	-0.761719	0.490479	-0.513428	0.280763	-0.893975	-0.296158	0.185127	-1.33411	-5.88457	-7.69107	0.172004	0.101486	0.0349253	0.495605	0.796875	0.544189	
12	-0.562826	0.41691	0.41867	0.578038	9.8322	0.308982	2.9558	-0.0882333	-0.0433274	0.0578679	-0.824951	0.38208	-0.257812	0.517911	-0.443757	-0.397358	-0.613967	9.59803	0.370341	2.77559	-0.0533658	0.0680422	0.0253228	-0.762207	0.274902	-0.205078	0.735051	-0.00753626	-0.352035	-0.579408	5.40251	4.26812	7.98837	-0.132761	0.0285375	-0.00391628	-0.53418	-0.154297	-0.891357	0.0612025	0.427804	0.0806374	-0.898185	-7.72789	-0.772572	6.09193	0.0770487	-0.0472	-0.0697075	0.496338	0.196289	-0.888428	0.586663	-0.449516	-0.0730839	-0.669642	7.07284	-4.01069	5.88021	-0.0978223	0.0483626	0.0202083	-0.589355	0.71875	-0.303467	0.929983	-0.0862901	0.354508	0.0448228	-8.10262	-1.92153	9.01341	0.0537718	0.0481162	-0.0271866	0.99292	0.0119629	-0.226562	0.356247	-0.552209	-0.546397	-0.519234	9.29212	1.54407	-2.03276	-0.0813505	0.0285555	0.0239031	-0.936279	0.214111	0.23877	0.427887	-0.447877	-0.482854	-0.619008	9.8154	2.29963	1.19516	-0.163598	-0.00928548	-0.0485281	-1.05273	0.175049	-0.0830078	0.430755	-0.468059	-0.53061	-0.5602	9.82023	1.50748	-0.263067	-0.325009	-0.0853024	-0.0137406	-1.0686	0.189453	0.0200195	0.439351	-0.327378	-0.0798436	-0.832718	6.53402	-1.41088	8.08027	-0.130915	0.0768581	-0.0776575	-0.75708	0.486084	-0.513428	0.281004	-0.894377	-0.295276	0.184226	-1.48949	-5.7373	-7.46238	0.00346188	0.100889	0.0436371	0.49585	0.79248	0.539795	
13	-0.56212	0.419757	0.41619	0.578456	9.67468	0.0452277	2.97765	-0.153768	-0.0152889	0.0656825	-0.829346	0.386475	-0.257812	0.518122	-0.443763	-0.395004	-0.615301	9.47525	0.326385	3.03708	-0.0735446	0.0986696	-0.0112725	-0.764404	0.279297	-0.205322	0.734429	-0.00721249	-0.351546	-0.580498	5.32794	4.38828	8.0444	-0.019613	0.0298687	-0.0642944	-0.53418	-0.154297	-0.902832	0.0581326	0.427086	0.0813812	-0.898663	-7.67447	-1.05905	5.86055	0.0402025	-0.00590651	-0.143795	0.500488	0.202881	-0.884277	0.585028	-0.450515	-0.0699551	-0.670734	6.86792	-4.21621	5.73159	-0.124706	0.064399	-0.0451883	-0.585205	0.720947	-0.30127	0.929975	-0.084285	0.355115	0.0439891	-8.0055	-1.88868	8.86346	0.104793	0.031451	-0.01414	0.988525	0.013916	-0.222412	0.356399	-0.553248	-0.544432	-0.520087	9.26582	1.95356	-2.05366	-0.080114	0.0455258	0.0235067	-0.94043	0.209717	0.23877	0.425714	-0.449626	-0.48138	-0.620385	9.63473	1.68317	1.33383	-0.139533	2.42138e-05	-0.0168307	-1.05493	0.177002	-0.0759277	0.429764	-0.468926	-0.530726	-0.560126	9.56183	2.04979	0.0249908	0.053303	-0.0294081	-0.0235844	-1.0752	0.180176	0.0246582	0.437753	-0.325907	-0.0773046	-0.834374	6.3235	-1.84631	7.90941	-0.0972889	0.104613	-0.0420102	-0.757324	0.490479	-0.515625	0.284196	-0.894921	-0.292024	0.181851	-1.98965	-5.86996	-7.23679	0.0647112	0.09714	0.0402324	0.486572	0.794434	0.544189	
14	-0.560833	0.422005	0.413693	0.579858	9.70705	-0.148641	3.00395	-0.143616	0.0111054	0.00157931	-0.821045	0.393066	-0.253662	0.517623	-0.444119	-0.392714	-0.616929	9.42354	0.0981699	2.76304	-0.17519	0.0944568	-0.0114887	-0.76001	0.2771	-0.205322	0.73281	-0.00952044	-0.349317	-0.583846	5.44059	4.30509	7.75059	-0.189824	-0.0281686	-0.119444	-0.530029	-0.147949	-0.898438	0.0560423	0.426976	0.0812284	-0.898862	-7.57776	-0.976327	5.92825	0.0848823	0.002966	-0.146073	0.498291	0.205078	-0.886475	0.584353	-0.449018	-0.0688717	-0.672436	6.51026	-4.36187	5.88905	0.0391729	0.113647	-0.0499488	-0.591797	0.723145	-0.298828	0.930212	-0.0809238	0.35536	0.0433068	-7.90597	-1.48771	8.9651	0.157671	0.0125058	0.0110387	1.00171	0.00756836	-0.226562	0.355817	-0.553924	-0.543456	-0.520786	9.31408	1.17926	-2.07442	-0.100368	0.0162819	0.0129241	-0.936523	0.216064	0.245117	0.425225	-0.450298	-0.48045	-0.620954	9.57848	2.37544	1.07234	-0.0209522	0.0264913	-0.0238311	-1.05273	0.174805	-0.0759277	0.428074	-0.470423	-0.529787	-0.561054	9.65469	2.16214	-0.340158	-0.0245169	-0.00757585	-0.0356724	-1.07275	0.182373	0.03125	0.436063	-0.326191	-0.0755794	-0.835306	6.28438	-1.80645	7.79527	-0.0776769	0.0494601	-0.0436774	-0.761719	0.488281	-0.513428	0.285645	-0.895181	-0.290275	0.181106	-1.76259	-5.75475	-7.48132	0.0241004	0.055831	0.0443652	0.491211	0.794434	0.537354	
15	-0.560152	0.422576	0.41105	0.581977	9.589	-0.0240525	3.17426	-0.11781	0.0706974	0.00744295	-0.827393	0.390625	-0.257812	0.516465	-0.445253	-0.392057	-0.617499	9.56675	0.275357	2.65749	-0.0295894	0.0515884	-0.0188492	-0.762207	0.279297	-0.200684	0.73085	-0.011078	-0.348065	-0.587015	5.16207	3.93828	7.91025	-0.103788	-0.0155754	-0.130854	-0.536377	-0.149902	-0.902832	0.0526649	0.427143	0.0811764	-0.898991	-7.41854	-1.20786	6.1176	0.0715287	0.0261692	-0.108439	0.498535	0.200684	-0.888428	0.583026	-0.447922	-0.0670634	-0.6745	6.54976	-4.24526	5.73553	-0.094254	0.10305	-0.0780179	-0.591797	0.720947	-0.303467	0.930462	-0.0780785	0.355489	0.0421051	-7.98797	-1.39583	8.59387	0.120935	0.0189931	-0.0309034	1.00391	0.00537109	-0.228516	0.355894	-0.554792	-0.541823	-0.521511	9.3298	1.92749	-1.819	-0.073943	0.0225721	0.0282827	-0.936523	0.216064	0.24707	0.423473	-0.450839	-0.479382	-0.622582	9.69671	2.10844	1.21962	-0.0962034	0.00858472	-0.0499273	-1.05273	0.172852	-0.0783691	0.426168	-0.47191	-0.52814	-0.562805	9.8973	1.19501	-0.484577	-0.196832	-0.0137003	-0.0321619	-1.07275	0.180176	0.03125	0.435466	-0.325856	-0.0751213	-0.83579	6.33717	-1.4402	7.9844	-0.00474018	0.0273624	-0.0109134	-0.75708	0.486084	-0.515625	0.286635	-0.895257	-0.289274	0.180765	-1.57239	-5.93562	-7.50151	0.105907	0.0474957	0.0145153	0.489014	0.794434	0.541992	
16	-0.559393	0.423391	0.409429	0.583255	9.65264	-0.204369	3.16179	-0.0808558	0.0103469	-0.0165896	-0.822998	0.390869	-0.255615	0.515892	-0.445261	-0.391287	-0.618459	9.5583	0.156643	2.92287	-0.0632297	0.0435072	-0.0312878	-0.762451	0.281494	-0.200684	0.728942	-0.0112871	-0.34827	-0.589258	5.9495	3.77236	7.88245	-0.00704031	-0.0236092	-0.064915	-0.534424	-0.145752	-0.900635	0.0513587	0.427803	0.0801549	-0.898845	-7.26952	-0.77868	6.19336	0.053464	0.0330673	0.000374702	0.496338	0.196289	-0.88623	0.581197	-0.448888	-0.0652035	-0.675617	6.60046	-4.41738	5.61253	-0.0890301	0.0185753	-0.0565916	-0.591797	0.723145	-0.308105	0.930408	-0.0775401	0.355949	0.0403597	-8.05117	-1.44661	8.58062	0.0448456	0.0434139	-0.0838002	1.00146	0.0119629	-0.224365	0.356338	-0.554708	-0.540737	-0.522423	9.46	1.74911	-2.02253	-0.00402933	0.0953344	0.0104946	-0.942627	0.211914	0.240967	0.423787	-0.451378	-0.479736	-0.621704	9.86276	2.54361	1.32669	0.0699665	-0.0510791	0.0183715	-1.05933	0.177002	-0.0737305	0.427035	-0.470613	-0.529188	-0.56225	9.65271	1.40284	-0.321834	-0.0179645	0.0201504	-0.0321826	-1.07275	0.182373	0.0290527	0.434427	-0.326456	-0.0741876	-0.836179	6.35657	-1.90915	8.3093	-0.0467304	0.0125841	-0.0233121	-0.757324	0.490479	-0.515625	0.285637	-0.895819	-0.288687	0.180496	-1.26715	-6.53061	-7.44465	-0.0204725	0.0123065	0.0246534	0.489014	0.794434	0.541992	
17	-0.55861	0.423124	0.409039	0.584472	9.61858	-0.252487	3.15007	-0.0125337	0.018396	-0.0463382	-0.825195	0.388672	-0.251465	0.515316	-0.44553	-0.390991	-0.618934	9.69445	0.128149	3.03947	-0.0335857	0.0437281	-0.033412	-0.768799	0.2771	-0.205078	0.728406	-0.0105435	-0.350723	-0.588478	5.77745	4.12438	8.00045	0.105491	-0.0497564	-0.0171519	-0.540771	-0.149902	-0.898193	0.0511065	0.42847	0.078264	-0.898708	-7.52291	-0.688169	6.48622	0.074505	0.0295655	0.0354983	0.494141	0.196289	-0.888428	0.579977	-0.449619	-0.0655683	-0.676144	6.58653	-4.50982	5.94059	-0.0146082	-0.0294138	-0.0576525	-0.598389	0.725342	-0.296631	0.930399	-0.0785691	0.355864	0.0393087	-8.22863	-1.55838	8.68782	-0.0379391	0.00664663	-0.0558075	1.00146	0.0161133	-0.220215	0.356788	-0.554271	-0.539838	-0.523508	9.50846	1.56351	-2.03675	-0.0179991	0.0614931	-0.00338574	-0.938721	0.218262	0.236328	0.425254	-0.450641	-0.481402	-0.619947	9.61374	1.53306	1.51057	0.108999	0.089814	0.0669882	-1.04858	0.179199	-0.0690918	0.433081	-0.464725	-0.537196	-0.55488	9.48971	4.38157	0.648536	0.591713	-0.00731388	-0.0359995	-1.07275	0.177734	0.0246582	0.434426	-0.326999	-0.0736559	-0.836014	6.21043	-1.75498	8.08934	-0.02547	-0.00459846	0.0132631	-0.757324	0.490479	-0.51123	0.285852	-0.895781	-0.288033	0.181389	-1.77221	-5.97497	-7.32063	-0.0183428	-0.0395727	0.0165787	0.493652	0.792236	0.541992	
18	-0.559212	0.421101	0.410739	0.584166	9.64985	0.177577	3.03925	0.122122	0.0263438	-0.0321211	-0.822998	0.390869	-0.257812	0.516483	-0.445063	-0.391746	-0.617818	9.10632	0.00860356	2.78774	0.0740127	0.000213599	0.0249874	-0.76001	0.2771	-0.2146	0.729339	-0.0110055	-0.350241	-0.587601	5.50758	4.10865	8.3315	-0.0472788	0.049199	0.0814409	-0.536377	-0.147705	-0.898438	0.0524971	0.428322	0.0794414	-0.898595	-7.56178	-1.00441	6.37848	-0.0980349	-0.0143228	0.0213494	0.496338	0.198486	-0.888428	0.58035	-0.449448	-0.0657089	-0.675924	6.1809	-4.86293	5.82101	0.0524791	0.020214	0.0297691	-0.591797	0.723145	-0.298828	0.930535	-0.0786352	0.35534	0.040667	-8.16495	-1.47242	8.71997	0.00611527	-0.0137341	0.0671842	0.999268	0.013916	-0.224609	0.35842	-0.552721	-0.540802	-0.523037	8.87506	1.74782	-1.60846	0.148425	-0.00845675	-0.0479961	-0.936523	0.216064	0.236572	0.427205	-0.447827	-0.479684	-0.621973	9.55095	1.94429	0.95135	-0.0130639	0.206438	-0.0341691	-1.05273	0.172852	-0.0900879	0.432337	-0.46556	-0.538811	-0.553191	9.47642	2.34133	-0.00386125	0.125367	-0.098709	-0.0194088	-1.07275	0.177734	0.0314941	0.43606	-0.32682	-0.075021	-0.835112	6.29095	-2.18572	8.03767	0.183562	0.00379429	0.0652784	-0.75708	0.486084	-0.515625	0.286213	-0.89522	-0.289175	0.181774	-1.29018	-5.92962	-7.34834	0.0224723	-0.0200188	-0.0854253	0.489014	0.794434	0.544189	
19	-0.560458	0.419826	0.411081	0.583648	9.57824	0.339139	3.11905	0.132661	0.0649739	0.0269806	-0.825439	0.393066	-0.262207	0.517373	-0.44524	-0.3929	-0.616212	9.66725	0.195576	3.0177	0.0473967	-0.0232018	0.0142774	-0.757812	0.2771	-0.20752	0.73012	-0.0107917	-0.349327	-0.587179	5.24672	3.88068	8.10632	-0.0162804	0.090921	0.0546428	-0.53418	-0.154297	-0.895996	0.0545788	0.427621	0.0816821	-0.898604	-7.38494	-1.09336	6.13867	-0.115991	-0.0155106	0.0523958	0.500488	0.205078	-0.890869	0.583792	-0.44746	-0.067252	-0.674124	6.77345	-4.16239	5.42562	0.130565	-0.0195008	0.0772839	-0.596191	0.725342	-0.30127	0.930597	-0.0782279	0.355127	0.0418901	-8.05436	-1.32938	8.52424	-0.00180247	-0.0128184	0.0869583	0.99707	0.013916	-0.22876	0.359415	-0.550866	-0.541965	-0.523107	9.54182	1.4937	-1.943	0.0918678	0.107994	-0.0567432	-0.94043	0.20752	0.230225	0.431124	-0.443605	-0.481971	-0.620524	9.72847	2.62785	1.37176	0.182608	0.0883073	-0.0151	-1.05273	0.175049	-0.0900879	0.433588	-0.463867	-0.542721	-0.549803	9.82428	1.50002	-0.484311	0.238877	-0.0372026	-0.0409457	-1.0752	0.179932	0.0336914	0.437897	-0.326244	-0.07555	-0.834328	6.29055	-1.50787	8.15111	0.00270736	0.00819779	0.0757437	-0.757568	0.494873	-0.51123	0.285728	-0.895	-0.290382	0.181696	-1.06264	-6.20447	-7.46563	-0.0451302	-0.0317219	-0.0906521	0.48877	0.796631	0.532715	
20	-0.562634	0.41922	0.411487	0.581701	9.61337	0.0500734	3.29665	0.0820455	-0.035442	0.07462	-0.820801	0.390869	-0.262207	0.518247	-0.444464	-0.393357	-0.615745	9.93769	0.274564	3.03197	0.0924426	0.0442664	0.00334438	-0.76001	0.274902	-0.205078	0.731532	-0.00904646	-0.348874	-0.585718	5.92167	4.08292	7.78547	0.0783211	0.0658799	0.0590952	-0.530029	-0.150146	-0.905273	0.0560954	0.427499	0.0819669	-0.898543	-7.49858	-0.861781	6.08524	-0.0716302	-0.0100598	0.0995188	0.502686	0.205078	-0.888672	0.584473	-0.448284	-0.0680281	-0.672908	6.70063	-4.22406	5.60848	0.0345655	-0.112756	0.0574368	-0.587646	0.727539	-0.303467	0.930096	-0.0805219	0.355699	0.0437602	-8.03409	-1.46684	8.57801	-0.111083	0.0335659	0.03275	0.999512	0.00756836	-0.224365	0.361625	-0.548442	-0.541941	-0.524156	9.72605	2.04082	-1.67396	0.061545	0.138317	-0.0303745	-0.940918	0.216064	0.22168	0.43138	-0.443953	-0.480694	-0.621088	9.91607	2.06247	1.62823	-0.083159	0.0732545	0.0351317	-1.05029	0.168457	-0.0898438	0.435112	-0.462378	-0.545204	-0.547391	9.93342	1.51032	-0.47525	0.328229	-0.0380184	-0.0259057	-1.07739	0.177734	0.0336914	0.437897	-0.326244	-0.07555	-0.834328	6.29055	-1.50787	8.15111	0.00270736	0.00819779	0.0757437	-0.757568	0.494873	-0.51123	0.285496	-0.894334	-0.292394	0.182111	-1.46694	-6.23644	-7.46931	-0.0268012	-0.0505701	-0.0755872	0.489014	0.792236	0.539795	
21	-0.563315	0.419139	0.413529	0.579648	9.79955	-0.0234079	3.0633	0.105488	-0.0614687	0.00986534	-0.825195	0.390869	-0.262207	0.520518	-0.442149	-0.394354	-0.614858	9.42396	0.364172	3.09266	0.114589	0.083313	0.00400771	-0.762207	0.279053	-0.212402	0.734018	-0.00729504	-0.350089	-0.581895	5.31509	4.03607	8.11613	0.161214	0.0392985	0.175153	-0.530029	-0.152344	-0.895996	0.0597395	0.42754	0.0823051	-0.898258	-7.53784	-0.863291	6.17371	-0.085133	0.00568108	0.119907	0.500488	0.202881	-0.88208	0.585247	-0.450974	-0.0687813	-0.670357	6.67917	-4.34029	6.19893	-0.0240357	-0.106463	0.0557359	-0.589844	0.725342	-0.30127	0.929654	-0.0838422	0.355826	0.0458454	-8.15472	-1.6255	9.04008	-0.133721	0.00132577	0.0262766	0.999512	0.00756836	-0.226562	0.362291	-0.547398	-0.541951	-0.524777	9.33006	1.44425	-1.83853	0.0483262	0.110599	-0.052188	-0.944824	0.211914	0.22168	0.434495	-0.442701	-0.480739	-0.619774	10.0661	2.65775	1.53239	0.226262	0.0714628	0.0207646	-1.05493	0.175049	-0.0993652	0.438323	-0.460004	-0.548876	-0.543144	9.70319	2.60011	0.154676	0.274397	-0.0199047	0.00555997	-1.07935	0.173096	0.0292969	0.440379	-0.325848	-0.0774425	-0.833002	6.29494	-1.53211	8.07711	0.0687073	-0.0528808	0.0436997	-0.755127	0.488281	-0.520264	0.284017	-0.893987	-0.294456	0.182806	-1.63567	-6.34709	-7.41145	-0.111671	-0.0719258	-0.051552	0.489014	0.792236	0.541992	
22	-0.565131	0.417072	0.414577	0.578623	9.76161	0.0686568	3.09597	0.118596	0.0358061	0.0131493	-0.822754	0.386475	-0.26416	0.522714	-0.440274	-0.396231	-0.613131	9.29853	0.242886	2.94604	0.162468	0.0206073	0.00516748	-0.766357	0.272705	-0.214355	0.736515	-0.00461146	-0.351102	-0.578145	5.14924	4.8395	8.23602	0.111077	0.0931309	0.0938265	-0.529785	-0.163086	-0.904785	0.0623869	0.427371	0.0847762	-0.897928	-7.82362	-1.27138	6.08793	-0.151188	0.00636434	0.0331936	0.500244	0.207275	-0.886475	0.588019	-0.449263	-0.0706787	-0.66888	6.63525	-4.55214	5.86595	0.220397	0.015192	0.0676425	-0.587402	0.720947	-0.303467	0.930104	-0.0843618	0.354154	0.0486284	-8.03865	-1.57938	9.14876	-0.0243899	-0.0732567	0.0841088	0.999756	0.00317383	-0.224121	0.364271	-0.544801	-0.542572	-0.525466	9.18385	1.82767	-1.58208	0.0980401	0.115343	-0.048773	-0.94458	0.205322	0.211182	0.434988	-0.440803	-0.482336	-0.61954	9.57812	1.75276	1.13212	0.0443844	0.056838	-0.00996467	-1.05054	0.172852	-0.0993652	0.439747	-0.459017	-0.550671	-0.541006	9.42269	0.911533	-0.554244	0.126817	-0.0250374	-0.00185079	-1.07739	0.177734	0.0314941	0.442458	-0.32558	-0.0779959	-0.831953	6.11413	-1.75407	8.32429	0.0703203	0.0323645	0.0770431	-0.755127	0.490479	-0.51123	0.28462	-0.89293	-0.296556	0.183634	-1.07188	-5.43572	-7.45806	-0.0337375	-0.045087	-0.104838	0.48877	0.801025	0.537354	
23	-0.566689	0.415572	0.415833	0.577274	9.58992	0.125897	3.18343	0.107124	-0.0272583	0.017277	-0.820801	0.388672	-0.270752	0.524553	-0.438224	-0.398223	-0.611737	9.73858	0.259779	3.03257	0.102885	0.0456752	-0.0117641	-0.755371	0.270508	-0.218994	0.737149	-0.0046144	-0.34941	-0.578362	5.60886	4.28638	7.80849	-0.0296463	0.0481427	-0.00811913	-0.523438	-0.158936	-0.902588	0.0644601	0.428089	0.0868194	-0.897244	-7.84015	-1.13473	5.89574	-0.0812144	0.0517012	0.0531755	0.497803	0.211426	-0.88208	0.591159	-0.446457	-0.0728738	-0.667755	6.66388	-4.00344	5.84079	0.117762	0.0109272	0.0418721	-0.583252	0.725342	-0.305664	0.930367	-0.0850449	0.352973	0.0509439	-8.01602	-1.44549	8.98084	-0.0875982	-0.0225889	0.0473191	1	-0.00341797	-0.236816	0.36638	-0.541822	-0.543064	-0.52657	9.63922	1.69768	-1.57573	0.0503782	0.130104	-0.0511228	-0.949463	0.214111	0.20459	0.436578	-0.440721	-0.483754	-0.617371	9.39969	2.49657	1.5091	-0.00447158	-0.0771662	0.0296009	-1.05273	0.172852	-0.0993652	0.442319	-0.456689	-0.55273	-0.538776	9.48321	2.56758	-0.298331	0.108646	0.0542775	-0.0103712	-1.0752	0.182373	0.03125	0.444772	-0.324574	-0.0800701	-0.830914	6.52833	-1.77568	7.65327	0.143076	0.0153064	0.0903718	-0.755127	0.490479	-0.518066	0.283004	-0.892333	-0.299854	0.183678	-1.85933	-6.18862	-7.39328	0.0132687	-0.0657619	-0.123485	0.479736	0.801025	0.541748	
24	-0.567608	0.413618	0.416734	0.577126	9.92121	0.269313	3.15963	0.0730665	0.0698142	-0.0310601	-0.818359	0.384521	-0.270752	0.525463	-0.436921	-0.400747	-0.610239	9.50357	0.651593	2.87532	0.185023	-0.0102595	-0.0135476	-0.757568	0.270508	-0.214355	0.737971	-0.000854596	-0.350542	-0.576644	5.06493	4.16197	8.08193	0.210881	0.0751476	0.0114057	-0.52124	-0.16748	-0.90918	0.0660387	0.42918	0.0888006	-0.896414	-7.62293	-1.09565	5.99628	-0.0940725	0.0553913	0.0229495	0.506348	0.220459	-0.882324	0.591982	-0.447261	-0.071955	-0.666586	6.26621	-4.4376	5.98228	-0.00324285	-0.0108528	0.0446722	-0.581299	0.729736	-0.310303	0.930354	-0.085803	0.352494	0.0531678	-7.86413	-1.47979	8.88428	-0.0366313	-0.00511725	0.0616578	1	-0.00341797	-0.232666	0.367713	-0.539905	-0.543499	-0.527161	9.32312	1.54344	-1.80032	0.0672896	0.100352	-0.0551562	-0.946777	0.203125	0.202637	0.435999	-0.441271	-0.484616	-0.61671	9.86644	1.38273	1.74829	0.145871	0.0076612	-0.0426769	-1.04858	0.175049	-0.0922852	0.44191	-0.457201	-0.551598	-0.539835	9.7855	1.61862	-0.100055	-0.0611476	0.0224797	-0.00534858	-1.0752	0.18457	0.0246582	0.446741	-0.325063	-0.0815339	-0.829523	6.28241	-1.56363	7.80777	0.00665131	-0.0783719	0.0686238	-0.748291	0.490723	-0.513428	0.282357	-0.891923	-0.301395	0.184143	-1.75255	-5.79467	-7.25847	-0.0447321	-0.0847522	-0.103904	0.481689	0.80542	0.541748	
25	-0.569409	0.410217	0.416754	0.577765	9.56849	0.132422	3.29068	0.112862	0.122912	-0.0244028	-0.818115	0.382324	-0.274902	0.526986	-0.435321	-0.402758	-0.608742	9.41223	0.262593	2.78085	0.126733	0.00521912	-0.00717952	-0.759521	0.266113	-0.221191	0.738901	0.0015771	-0.350944	-0.575205	5.41143	4.59653	7.9131	0.0249104	0.0565654	0.0400087	-0.520996	-0.169678	-0.913818	0.0680121	0.430147	0.0909653	-0.895585	-7.56746	-1.18625	5.82605	-0.102565	0.0541642	0.0516676	0.508789	0.218262	-0.87793	0.595328	-0.444979	-0.0744825	-0.664854	6.53114	-4.29031	5.77404	0.245138	0.00599773	0.0636178	-0.581055	0.727783	-0.31958	0.930401	-0.0867072	0.351775	0.055594	-7.84033	-1.51538	9.01283	-0.0614428	-0.0215473	0.0509302	0.997803	-0.00341797	-0.232666	0.370449	-0.537077	-0.544778	-0.526814	9.34998	2.04639	-1.35055	0.164769	0.0561097	-0.0341261	-0.949219	0.211914	0.198242	0.43917	-0.438595	-0.487589	-0.614021	9.95101	2.75283	1.35598	0.214667	0.052475	-0.00116951	-1.05078	0.177246	-0.0993652	0.443597	-0.455396	-0.553575	-0.537951	9.6538	1.43914	-0.426985	0.0364108	-0.00304559	-0.0166662	-1.07275	0.177734	0.0246582	0.449218	-0.325454	-0.0842648	-0.827758	6.07812	-1.52016	8.04117	0.140298	-0.0731949	0.0719326	-0.750732	0.49292	-0.520264	0.280057	-0.890981	-0.305024	0.18623	-1.40978	-5.81762	-7.34233	-0.0223851	-0.0996005	-0.0505891	0.479492	0.803223	0.539551	
26	-0.57113	0.407041	0.418163	0.577294	9.43606	0.296858	3.27326	0.148072	0.0462599	-0.0278644	-0.820312	0.384521	-0.285889	0.528344	-0.433751	-0.404047	-0.607831	9.60438	0.45313	3.10582	0.0831731	0.0407947	-0.0192531	-0.761963	0.268066	-0.230713	0.739586	0.00231695	-0.351298	-0.574106	5.69733	4.05838	7.90584	0.102735	0.0224787	0.0514874	-0.516846	-0.165527	-0.904785	0.0693376	0.430642	0.091449	-0.895196	-7.644	-1.05579	5.90295	-0.0792121	0.0468188	0.0846971	0.508545	0.222412	-0.873535	0.597408	-0.444074	-0.0764554	-0.663368	6.60706	-3.85112	5.84782	0.0188289	-0.0572872	0.0191281	-0.57666	0.727783	-0.321777	0.930283	-0.0887468	0.351324	0.0571817	-7.89888	-1.48553	8.67058	-0.133899	-0.00240341	0.00911183	0.99585	-0.00537109	-0.236816	0.372058	-0.535143	-0.545835	-0.526553	9.6234	1.45108	-1.65203	0.116225	0.116951	-0.0355995	-0.946777	0.203125	0.189941	0.439265	-0.438401	-0.490608	-0.611682	9.2812	1.80335	0.983722	0.0906113	-0.106817	0.00962717	-1.04614	0.170654	-0.0969238	0.446036	-0.453046	-0.555339	-0.536097	9.26027	2.16901	-0.552192	0.118703	0.0602367	-0.01811	-1.07495	0.177734	0.0224609	0.450515	-0.326855	-0.0850377	-0.82642	6.90849	-1.89318	8.13335	0.024922	-0.0180256	0.0835689	-0.750732	0.495117	-0.520264	0.277758	-0.890635	-0.30713	0.187858	-1.53074	-5.9817	-7.66924	-0.0565114	-0.106245	-0.0723643	0.483887	0.80542	0.539551	
27	-0.573132	0.404458	0.419736	0.575981	9.55621	0.432731	3.24142	0.146734	0.027633	0.0222328	-0.817871	0.380127	-0.287842	0.529394	-0.433039	-0.405096	-0.606726	9.44964	0.43092	2.79205	0.0555312	0.0078528	0.00250383	-0.759766	0.270264	-0.230957	0.740552	0.00380954	-0.35226	-0.572259	5.46696	4.10772	8.11146	0.185797	0.0448542	0.110379	-0.514648	-0.169922	-0.904785	0.0738478	0.431395	0.0928654	-0.894327	-7.83151	-1.0349	6.06606	-0.115492	-0.000427282	0.0807914	0.506104	0.224854	-0.880127	0.597999	-0.446193	-0.0757661	-0.66149	6.72883	-4.51846	5.75817	-0.00337288	-0.0691139	0.0903814	-0.579102	0.734375	-0.312744	0.93007	-0.0902505	0.351246	0.0587453	-7.94343	-1.69195	8.93283	-0.049207	0.0216854	0.0289062	0.991455	-0.00537109	-0.234619	0.37335	-0.534251	-0.546766	-0.525578	9.37973	1.88865	-1.50762	0.0735123	-0.0287843	-0.0284784	-0.953613	0.211914	0.194092	0.439807	-0.440786	-0.489075	-0.610805	9.74845	2.06553	1.0105	-0.0687263	-0.0182571	0.104715	-1.04883	0.181641	-0.097168	0.446856	-0.452085	-0.554446	-0.537148	9.62479	1.8484	-0.396528	0.021912	0.0871744	-0.0288717	-1.07959	0.177979	0.0134277	0.453006	-0.326723	-0.0877446	-0.824826	6.26091	-1.40219	7.68322	0.122103	-0.0581201	0.0678149	-0.746338	0.495117	-0.518066	0.276573	-0.890298	-0.308935	0.188247	-1.58451	-5.8955	-7.44026	-0.0912498	-0.0968508	-0.1147	0.484131	0.803223	0.539551	
28	-0.574151	0.403412	0.420155	0.575395	9.56149	0.439982	3.20529	0.12068	0.041442	0.0242136	-0.817871	0.380127	-0.290039	0.529297	-0.433268	-0.405191	-0.606583	9.43919	0.336152	2.87344	-0.0121849	-0.00933483	-0.0129418	-0.757568	0.272461	-0.228516	0.742547	0.0071575	-0.353586	-0.568813	5.40353	4.76175	8.1126	0.13559	0.0779983	0.0923245	-0.514648	-0.176514	-0.90918	0.0759457	0.430927	0.0943913	-0.894217	-7.7764	-1.06391	5.88242	-0.0900363	-0.0163287	0.0368701	0.508301	0.229004	-0.871338	0.600583	-0.44493	-0.0780354	-0.659733	6.38733	-4.03048	5.92406	0.13817	-0.0292932	0.0446909	-0.57251	0.732178	-0.314941	0.929904	-0.0909715	0.351328	0.0597638	-7.93428	-1.59745	8.81041	-0.0800746	0.0207829	0.0426528	0.996094	-0.0119629	-0.234375	0.374884	-0.532518	-0.548435	-0.524506	9.27482	1.57689	-1.80109	0.119609	0.0425717	-0.032315	-0.948975	0.205322	0.194092	0.441514	-0.440545	-0.489621	-0.609309	10.1567	2.29948	2.31615	0.0845584	0.0438015	0.00957932	-1.05322	0.183594	-0.0900879	0.448328	-0.450366	-0.555541	-0.536233	9.6231	1.81355	0.301733	0.207896	0.0716537	-0.0385661	-1.07031	0.175781	0.0114746	0.454185	-0.326679	-0.0893755	-0.82402	6.14319	-1.36196	7.67482	0.148351	-0.0560478	0.0675694	-0.746338	0.495117	-0.522705	0.274184	-0.889614	-0.312426	0.189209	-1.71245	-5.85387	-7.4127	-0.120461	-0.116447	-0.0931354	0.484131	0.801025	0.544189	
29	-0.575656	0.402105	0.420105	0.574843	9.58249	0.244901	3.31558	0.0532126	0.039173	0.0209562	-0.815918	0.384766	-0.296631	0.529542	-0.433677	-0.40585	-0.605637	9.42857	0.244142	2.86421	0.037465	-0.053204	0.0063912	-0.759766	0.268066	-0.226074	0.744095	0.00662349	-0.35193	-0.567824	5.46623	4.40512	7.8204	-0.0505581	0.0535744	0.0562	-0.512451	-0.169922	-0.90918	0.0781725	0.430507	0.0960385	-0.894052	-7.66265	-1.13461	5.93241	-0.0869372	-0.00439551	0.0639758	0.503418	0.233398	-0.875977	0.601803	-0.446399	-0.0782718	-0.657598	6.77007	-4.16423	5.77979	-0.0358257	-0.0886371	0.0780906	-0.572754	0.734375	-0.314941	0.929206	-0.0928892	0.35211	0.0629784	-8.00848	-1.452	8.83811	-0.107897	0.0477453	0.0404317	1.00269	-0.0163574	-0.232178	0.376724	-0.530976	-0.54959	-0.52354	9.52101	1.87703	-1.63223	0.13183	0.0760075	-0.0226164	-0.951172	0.205322	0.187744	0.443885	-0.436976	-0.489357	-0.610366	9.87774	1.79222	1.65282	0.186943	0.164023	-0.0385441	-1.05103	0.181641	-0.104248	0.448409	-0.450441	-0.558533	-0.532985	9.77244	1.23766	-0.300267	0.210009	-0.113666	-0.011905	-1.0752	0.182373	0.015625	0.455733	-0.328373	-0.091028	-0.822309	6.54178	-1.41404	7.90155	0.0512493	-0.09631	0.0682681	-0.751221	0.501709	-0.522705	0.271582	-0.889359	-0.314394	0.190894	-1.2174	-6.31625	-7.56547	-0.0601511	-0.09968	-0.0245876	0.486328	0.801025	0.539551	
30	-0.576547	0.400724	0.420859	0.574362	9.57417	0.130384	3.34931	0.0854105	0.0037725	-0.0110071	-0.817871	0.378174	-0.298584	0.529614	-0.434114	-0.407497	-0.604152	9.71274	0.604817	2.86026	0.051946	-0.0630506	0.00259645	-0.761963	0.270264	-0.223877	0.745476	0.00699951	-0.351563	-0.566233	5.66228	4.18457	7.69626	0.0612203	0.0325588	0.0834734	-0.510254	-0.169922	-0.911621	0.0795962	0.430699	0.0960701	-0.893831	-7.75465	-0.96952	5.88028	-0.0498543	0.0167161	0.104694	0.505859	0.231201	-0.875977	0.602354	-0.447448	-0.0784233	-0.656361	6.85146	-4.29221	5.72312	-0.0152905	-0.0956093	0.0760791	-0.568359	0.736572	-0.310303	0.928851	-0.0941092	0.352583	0.0637594	-8.04619	-1.71734	9.00244	-0.109864	0.0591106	0.0139928	0.998291	-0.0163574	-0.227783	0.377895	-0.530188	-0.549649	-0.523433	9.70275	2.09808	-1.47944	0.0964205	0.0892328	-0.000323516	-0.951172	0.20752	0.18335	0.445259	-0.435597	-0.489845	-0.60996	9.49565	2.394	1.4302	0.141402	0.105861	-0.00609289	-1.04883	0.181641	-0.111084	0.448693	-0.450173	-0.560156	-0.531267	9.66623	2.42093	-0.53257	0.171478	-0.091215	-0.0163285	-1.07275	0.177979	0.0224609	0.456996	-0.328984	-0.0911485	-0.82135	6.69794	-1.41929	8.26367	0.0141805	-0.0239203	0.0612562	-0.748779	0.499512	-0.522705	0.272151	-0.888808	-0.314479	0.192504	-1.43178	-6.28279	-7.72829	0.053166	-0.0399143	0.000824327	0.484131	0.803223	0.534912	
31	-0.576677	0.40009	0.423792	0.572513	9.73922	0.29682	3.12762	0.118032	-0.100893	-0.01418	-0.81543	0.373779	-0.300781	0.530286	-0.434126	-0.406699	-0.604092	9.60388	0.523626	3.17232	-0.0387315	0.0577556	0.00840252	-0.759521	0.266113	-0.226074	0.746967	0.0101628	-0.354323	-0.562488	5.46244	4.52358	8.0595	0.209921	0.0141467	0.100986	-0.514648	-0.174316	-0.90918	0.0819217	0.431093	0.095202	-0.893523	-7.94714	-1.09279	5.90888	0.0164967	0.0136898	0.0857142	0.505859	0.229004	-0.87793	0.603759	-0.448712	-0.0791208	-0.654119	6.99973	-3.98772	6.06603	-0.0044298	-0.0587131	0.0441386	-0.572998	0.740967	-0.314941	0.928312	-0.0964574	0.353261	0.0643399	-7.92541	-1.9597	9.07724	-0.0824697	0.0372377	-0.0242127	1.00269	-0.0185547	-0.234375	0.379391	-0.529632	-0.547488	-0.525175	9.46711	1.21905	-1.53418	-0.0228731	0.147948	0.0289915	-0.95166	0.214111	0.177002	0.443156	-0.437552	-0.489795	-0.610133	9.90843	2.31525	1.49377	-0.135444	-0.0701422	-0.0441811	-1.04883	0.179443	-0.104248	0.445311	-0.453805	-0.557514	-0.533795	9.57262	1.57702	0.0061629	-0.218224	-0.0534921	-0.00567284	-1.06812	0.180176	0.0268555	0.456552	-0.329995	-0.0894304	-0.82138	6.52251	-1.85703	8.09223	-0.0277495	0.0356754	-0.00127679	-0.753174	0.499268	-0.515869	0.273053	-0.888453	-0.314285	0.193181	-1.10951	-5.96391	-7.85631	0.0948562	-0.0214017	0.00144318	0.490723	0.805664	0.534912	
32	-0.576936	0.399003	0.425135	0.572016	9.76352	0.491807	3.0777	0.0491349	0.0225935	-0.0185068	-0.813232	0.373779	-0.300781	0.530556	-0.435081	-0.406357	-0.603398	9.23403	-0.0567028	2.65549	-0.00492375	-0.0167031	0.0307917	-0.755615	0.272461	-0.223877	0.74763	0.0099344	-0.353818	-0.561928	5.25935	4.79347	8.26033	-0.0717578	0.0358622	-0.00229477	-0.508057	-0.183105	-0.911133	0.0820221	0.430451	0.0957626	-0.893764	-8.06876	-1.13652	5.81906	-0.0401355	-0.0363942	-0.038758	0.508301	0.229004	-0.875732	0.603339	-0.449446	-0.0786032	-0.654066	6.50316	-4.38649	5.93905	-0.0269245	0.0329196	-0.0220797	-0.568604	0.740967	-0.312744	0.928181	-0.0963832	0.353496	0.065046	-7.88111	-1.73761	9.22837	0.0209744	0.0169736	0.0317539	0.998291	-0.0163574	-0.232178	0.381681	-0.528192	-0.546533	-0.525961	9.31829	1.77997	-1.67968	0.0133948	0.128756	-0.00543352	-0.949219	0.209717	0.172852	0.442088	-0.437855	-0.488841	-0.611454	9.6268	1.97602	1.40416	0.00578731	0.0424012	-0.0491969	-1.05103	0.181641	-0.101807	0.441935	-0.457192	-0.55625	-0.535029	9.50626	2.40651	-0.417959	-0.235812	-0.111839	-0.0159158	-1.07764	0.18457	0.0378418	0.456971	-0.329016	-0.0907587	-0.821394	6.64668	-1.10596	7.83355	0.0396642	0.0138387	-0.00531023	-0.744385	0.501709	-0.515869	0.273006	-0.888481	-0.314432	0.192877	-1.68933	-6.02908	-7.61115	0.0620058	0.0288961	-0.000913096	0.486084	0.807617	0.530273	
33	-0.578153	0.398648	0.423317	0.572383	9.56062	0.450152	3.3407	-0.0436924	0.0810087	0.0556325	-0.813477	0.378174	-0.296387	0.529687	-0.43642	-0.40775	-0.602253	9.69701	0.733694	2.74801	0.0582536	-0.138105	-0.0215864	-0.759766	0.272705	-0.219238	0.746821	0.00754968	-0.351449	-0.564521	5.08673	4.28552	7.80245	-0.175379	-0.0165348	-0.0830436	-0.510254	-0.169922	-0.911621	0.0807299	0.429718	0.0968851	-0.894113	-7.56891	-1.39632	5.81848	0.0220246	-0.00500896	-0.0682408	0.510254	0.231445	-0.875977	0.603537	-0.448686	-0.0783445	-0.654436	6.72673	-4.41738	5.69879	0.027281	0.0743105	-0.0171087	-0.562012	0.740967	-0.314941	0.928129	-0.0945022	0.354137	0.0650591	-8.01881	-1.46378	8.60579	0.0561138	0.0421578	-0.00811825	0.996582	-0.0249023	-0.225586	0.382202	-0.527244	-0.546094	-0.526988	9.59965	1.68102	-1.24868	-0.0252322	0.0315517	-0.0287003	-0.951416	0.211914	0.168457	0.442482	-0.436596	-0.489422	-0.611605	9.77049	2.1939	1.17592	0.0164516	0.0680723	-0.0192293	-1.04639	0.175049	-0.106445	0.438753	-0.460826	-0.555146	-0.535675	9.78415	1.87613	-0.86337	-0.120604	-0.0897972	-0.00120123	-1.073	0.186768	0.0402832	0.45659	-0.32922	-0.0895945	-0.821652	6.4833	-1.68109	8.17572	-0.0417474	0.0336262	-0.00217812	-0.746826	0.503906	-0.511475	0.273249	-0.888523	-0.314337	0.192496	-1.44946	-5.78776	-7.79587	-0.00452036	0.0176985	-0.0123373	0.486328	0.80542	0.532715	
34	-0.57751	0.400661	0.421077	0.573277	9.49441	0.0556389	3.37584	-0.139258	-0.0282207	0.00421059	-0.815918	0.382568	-0.296631	0.528967	-0.436722	-0.4078	-0.602633	9.83292	0.3652	3.04339	-0.0537244	-0.00616362	-0.0465276	-0.764404	0.276855	-0.22168	0.745361	0.0073419	-0.351825	-0.566218	5.7998	4.14838	7.72712	0.0379742	-0.0535174	-0.0611853	-0.510254	-0.180908	-0.908936	0.0796538	0.430459	0.0955363	-0.893998	-7.54759	-0.855729	6.02815	0.0581033	0.0522257	0.0117882	0.503662	0.231201	-0.878174	0.601315	-0.449808	-0.0772707	-0.655837	6.76861	-4.44099	5.95061	-0.111657	0.00145533	-0.0564542	-0.568359	0.736572	-0.310303	0.927896	-0.0947579	0.354934	0.0636546	-8.20844	-1.58771	8.9573	0.0206477	0.0498567	-0.078332	1.00049	-0.0141602	-0.22583	0.383985	-0.525555	-0.544465	-0.52906	9.70392	1.91465	-1.30508	0.0123553	0.109294	-0.0151138	-0.953613	0.214111	0.159912	0.441241	-0.438718	-0.4892	-0.61116	9.75838	2.13065	0.785611	-0.0593763	-0.120546	0.00983914	-1.04639	0.175049	-0.0993652	0.438898	-0.461053	-0.555244	-0.535259	9.79314	2.00532	-0.705876	0.0396056	0.0190174	-0.00328669	-1.07275	0.182373	0.0402832	0.456349	-0.328571	-0.0911102	-0.821879	6.51325	-1.46965	7.84093	0.103982	-0.00658726	-0.0423709	-0.746826	0.506104	-0.522949	0.27272	-0.888806	-0.314303	0.191992	-1.6999	-5.65094	-7.5662	-0.0293745	0.0159761	0.00113243	0.484131	0.803223	0.530518	
35	-0.576593	0.401495	0.420441	0.574083	9.74398	-0.0219648	3.18294	-0.123385	-0.0167163	-0.0319757	-0.820068	0.380127	-0.294434	0.528567	-0.437036	-0.407022	-0.603283	9.3708	0.288099	2.79659	-0.0942548	0.0413909	-0.0277949	-0.759766	0.272705	-0.216797	0.744939	0.00810181	-0.353469	-0.565738	5.36034	4.20139	8.0228	0.133663	-0.0696169	-0.0122174	-0.512451	-0.176514	-0.90918	0.0788246	0.4317	0.0945147	-0.893582	-7.6389	-0.968951	6.17032	0.0346508	0.0513944	-0.0234631	0.510498	0.229004	-0.873535	0.599952	-0.45016	-0.0757494	-0.65702	6.35303	-4.46892	5.91758	-0.0662864	0.0635255	-0.0522733	-0.572998	0.745117	-0.305908	0.928221	-0.0940389	0.354479	0.0624969	-7.98834	-1.56599	8.78655	0.0520671	-0.0208276	-0.0350214	0.998291	-0.0119629	-0.228027	0.383328	-0.525901	-0.543189	-0.530504	8.99271	1.3706	-1.58275	0.00195685	0.047113	-0.0102837	-0.958008	0.214111	0.159912	0.440613	-0.440524	-0.489995	-0.609675	9.8865	1.88583	1.55596	0.0608933	-0.0640734	0.0072414	-1.04468	0.186035	-0.0996094	0.439035	-0.461129	-0.555221	-0.535106	9.52316	1.69723	0.232754	0.081219	-0.0161881	-0.0105689	-1.07275	0.182373	0.0380859	0.455425	-0.329072	-0.0919055	-0.822103	6.31405	-1.47305	7.56046	-0.0130542	-0.0230974	-0.0427462	-0.753174	0.497314	-0.518066	0.271976	-0.889029	-0.314442	0.191787	-1.6834	-5.61522	-7.60552	-0.0624903	0.00174932	-0.00176966	0.486328	0.801025	0.532715	
36	-0.576583	0.401087	0.418104	0.576082	9.43488	-0.0541382	3.31061	-0.0568795	0.109419	-0.00992938	-0.815918	0.384766	-0.300781	0.526836	-0.438238	-0.408143	-0.603167	9.17171	0.169368	2.63642	-0.0307814	-0.0759141	-0.0484881	-0.766602	0.276855	-0.2146	0.744159	0.00957685	-0.354437	-0.566136	5.47261	4.5622	7.85335	0.0017773	0.0199616	-0.079934	-0.51001	-0.182861	-0.911133	0.078662	0.432153	0.0951501	-0.89331	-7.66666	-0.955744	5.92373	-0.0371053	0.0524692	-0.0275251	0.505615	0.235596	-0.873779	0.600052	-0.449266	-0.0758931	-0.657524	6.38167	-4.6106	5.68976	0.0512422	0.0664031	-0.0435015	-0.566162	0.736572	-0.305664	0.928481	-0.093298	0.354019	0.0623561	-7.96599	-1.53065	8.76063	0.0617167	-0.0302977	-0.00884706	0.998291	-0.0141602	-0.228027	0.383613	-0.525624	-0.54346	-0.530294	9.04201	1.6329	-1.44304	0.0560553	0.0172832	-0.0209882	-0.955566	0.205322	0.160156	0.440931	-0.440339	-0.489484	-0.60999	9.85143	1.89313	1.9616	-0.0155276	0.0659202	-0.0022606	-1.05078	0.177246	-0.101807	0.439248	-0.461029	-0.556171	-0.53403	9.53582	2.02289	-0.131855	0.105392	-0.0545186	-0.0117848	-1.07764	0.18457	0.0424805	0.455425	-0.329072	-0.0919055	-0.822103	6.31405	-1.47305	7.56046	-0.0130542	-0.0230974	-0.0427462	-0.753174	0.497314	-0.518066	0.269811	-0.889742	-0.314327	0.191727	-1.88613	-5.99088	-7.3197	-0.0809993	-0.0155965	0.0311685	0.486328	0.803223	0.537354	
37	-0.576913	0.39974	0.417628	0.577032	9.57249	0.126713	3.46736	0.0247382	0.0426405	-0.0378355	-0.809082	0.380371	-0.302979	0.525829	-0.439231	-0.411057	-0.601342	9.80352	0.619662	2.76192	0.046658	-0.141361	-0.0352226	-0.76416	0.270508	-0.214355	0.743421	0.00767293	-0.353656	-0.567621	5.51887	4.14709	7.69434	-0.0822148	-0.0437549	-0.00534268	-0.512451	-0.172119	-0.90918	0.0787114	0.433334	0.0950603	-0.892743	-7.57129	-1.0077	5.84787	0.0311695	0.0644577	0.0255942	0.514648	0.231445	-0.873779	0.601806	-0.447047	-0.0778731	-0.657202	6.75768	-3.9671	5.4753	0.117624	-0.0079334	0.00564128	-0.572754	0.73877	-0.312744	0.928606	-0.0932537	0.353722	0.062257	-7.90088	-1.64518	8.53071	-0.0138365	0.0137994	-0.0328165	1.00049	-0.0141602	-0.228027	0.382989	-0.526051	-0.543848	-0.529924	9.74263	1.94814	-1.36039	0.0114578	-0.0119806	-0.0124488	-0.962158	0.209717	0.162109	0.441067	-0.440183	-0.490334	-0.60932	10.0305	2.26758	0.879614	0.0407967	-0.0453272	-0.0144882	-1.05078	0.175049	-0.0947266	0.437927	-0.462597	-0.555594	-0.534359	9.89853	1.23939	-0.800198	-0.0568578	-0.0258752	-0.0053986	-1.07544	0.188965	0.0400391	0.454783	-0.330153	-0.0929517	-0.821907	6.51761	-1.43234	7.77867	0.00554584	-0.0353615	-0.0170399	-0.755371	0.494873	-0.515869	0.270416	-0.88984	-0.31296	0.192655	-1.60542	-5.48003	-7.68293	0.0529334	-0.0105163	0.0553897	0.495605	0.794678	0.532959	
38	-0.576168	0.398993	0.418832	0.577421	9.46618	0.206055	3.31043	0.0271523	-0.0329365	-0.0716993	-0.813232	0.375977	-0.300781	0.524965	-0.44005	-0.411189	-0.601408	9.46045	0.377345	2.76808	-0.0547596	0.00248426	-0.0290734	-0.76416	0.272705	-0.209717	0.743412	0.00961289	-0.356491	-0.565827	5.68546	4.27219	8.02555	0.208038	-0.0172827	0.040001	-0.514404	-0.178467	-0.906738	0.0791503	0.434265	0.0936043	-0.892406	-7.70503	-0.813903	5.95358	0.0317989	0.0227639	0.0452363	0.51709	0.229248	-0.871338	0.600453	-0.449587	-0.0778319	-0.656711	6.64512	-4.14215	5.81418	-0.117803	-0.078151	-0.0378815	-0.570557	0.736572	-0.310303	0.928318	-0.0951554	0.354075	0.0616561	-7.86757	-1.77662	8.84601	-0.0546742	0.0380196	-0.0634187	1.00049	-0.0141602	-0.228027	0.383523	-0.526247	-0.542883	-0.530333	9.36812	1.59034	-1.42965	0.0184344	0.0562748	0.0188983	-0.956055	0.216309	0.161865	0.440806	-0.441091	-0.490372	-0.608821	9.49904	2.06816	1.25936	-0.00673732	-0.056425	-0.0100905	-1.04883	0.181641	-0.0925293	0.439217	-0.461446	-0.557111	-0.532714	9.54028	2.28424	-0.239179	0.0537482	-0.000164832	-0.0172233	-1.07056	0.182129	0.0446777	0.453995	-0.331409	-0.093064	-0.821825	6.66666	-1.87064	7.92667	-0.0279607	-0.0408698	-0.0193999	-0.755127	0.492676	-0.506592	0.268608	-0.890371	-0.312885	0.192851	-1.60958	-5.8481	-7.61095	-0.131489	-0.0440461	0.0447456	0.486572	0.796631	0.539551	
39	-0.575163	0.398248	0.420421	0.577782	9.75411	0.450344	3.24427	0.0313684	-0.0263433	-0.0556511	-0.822021	0.373779	-0.300781	0.523826	-0.441799	-0.411925	-0.600615	9.68078	0.276415	2.45662	-0.0370664	-0.069552	-0.00723457	-0.76416	0.270508	-0.205078	0.743973	0.00900337	-0.35694	-0.564816	5.55503	4.72568	7.8853	-0.0718827	-0.0268027	0.038335	-0.516602	-0.182861	-0.906494	0.079594	0.433918	0.0927868	-0.89262	-7.95683	-0.938592	5.82737	0.0326624	-0.0252285	0.0252903	0.514893	0.227051	-0.875732	0.599964	-0.450059	-0.0785728	-0.656747	6.79079	-4.35183	5.74233	0.0403465	-0.0165171	-0.0548123	-0.568359	0.73877	-0.308105	0.928311	-0.0958215	0.354083	0.0606726	-7.88698	-1.75589	8.96444	-0.0040857	0.0170246	-0.0609991	1.00464	-0.00976562	-0.228027	0.383389	-0.526596	-0.542642	-0.530329	9.58286	1.46425	-1.56092	0.0147774	0.0105724	-0.0147389	-0.951416	0.209717	0.157959	0.440024	-0.441653	-0.490151	-0.609158	9.76197	2.17527	1.4732	-0.038981	0.0463727	-0.034183	-1.04883	0.183838	-0.0925293	0.437336	-0.463561	-0.555421	-0.534188	9.78377	1.65747	-0.62643	-0.0943871	-0.0244286	-0.00767735	-1.07983	0.184326	0.0490723	0.453909	-0.332251	-0.0938966	-0.821437	6.55742	-1.39209	8.01861	-0.0286964	-0.041165	-0.00102019	-0.755371	0.49707	-0.504395	0.268432	-0.890482	-0.312107	0.193844	-1.51501	-6.06402	-7.68734	-0.00434616	-0.0192687	0.0257499	0.48877	0.796631	0.537354	
40	-0.574946	0.398227	0.421027	0.577571	9.54949	0.377244	3.29823	0.0121092	-0.0411321	-0.013501	-0.819824	0.373779	-0.300781	0.5235	-0.442262	-0.413231	-0.599659	9.74787	0.391561	2.67148	0.0434775	-0.0588928	-0.0244531	-0.768555	0.270508	-0.202637	0.74363	0.00696504	-0.35647	-0.565593	5.69194	4.31434	7.81959	-0.0572342	-0.0315055	-0.012933	-0.522949	-0.180664	-0.908936	0.0801146	0.433538	0.0919532	-0.892844	-7.86293	-0.81771	6.02531	0.0225686	-0.0085806	0.0347905	0.512695	0.227051	-0.875732	0.599043	-0.450092	-0.0799837	-0.657395	6.88572	-4.11686	5.85275	-0.0250708	-0.010199	-0.0745279	-0.574951	0.734375	-0.312744	0.928267	-0.0966409	0.354181	0.0594722	-8.23262	-1.79986	8.93479	-0.0020625	0.0263537	-0.0716979	0.998047	-0.00756836	-0.22168	0.383784	-0.526866	-0.542547	-0.529872	9.66975	1.85095	-1.33962	0.00555557	-0.00817078	0.0150422	-0.951416	0.211914	0.159912	0.44037	-0.441315	-0.491149	-0.608349	9.76662	1.94653	0.716813	0.108918	-0.0177222	-0.0199748	-1.04883	0.181641	-0.0900879	0.43709	-0.464002	-0.555421	-0.534005	9.62263	2.08484	-0.706935	-0.0452407	-0.00681002	-0.00803678	-1.07324	0.188965	0.0512695	0.453555	-0.332658	-0.0933985	-0.821525	6.75999	-1.62741	8.04098	-0.0544552	0.00421308	-0.0067607	-0.75293	0.49292	-0.51123	0.267425	-0.890659	-0.31229	0.194126	-1.81236	-5.80678	-7.51554	-0.0894105	-0.0173036	-0.00606933	0.493164	0.80127	0.541992	
41	-0.574487	0.398513	0.421696	0.577342	9.72244	0.456311	3.15933	-0.00399695	-0.00872194	-0.00132235	-0.820068	0.375977	-0.294434	0.523198	-0.443302	-0.413732	-0.59881	9.44419	0.358142	2.4391	-0.0103009	-0.0662801	0.000698067	-0.766602	0.2771	-0.198242	0.743775	0.00711651	-0.357584	-0.564696	5.3658	4.37954	8.03198	0.0765506	-0.0131663	0.0354679	-0.522949	-0.182861	-0.904297	0.0799071	0.43343	0.0909529	-0.893018	-7.79441	-0.985498	6.01345	0.0485923	-0.00734268	-0.00463327	0.512939	0.224854	-0.873535	0.597458	-0.451543	-0.0784637	-0.658024	6.68589	-4.44678	5.76873	-0.0952397	0.0170751	-0.0392074	-0.572754	0.734131	-0.303467	0.928307	-0.0964596	0.354248	0.058734	-8.05537	-1.76043	8.75603	0.0230197	0.014596	-0.0281714	0.998047	-0.00756836	-0.223877	0.383476	-0.526937	-0.5421	-0.530482	9.27413	1.40287	-1.58709	-0.020687	0.0393837	-0.0194804	-0.949463	0.214111	0.157715	0.438657	-0.443398	-0.492084	-0.607315	10.0223	2.02454	1.07226	0.0321912	-0.0899001	-0.0205024	-1.04858	0.177246	-0.0900879	0.435687	-0.465492	-0.552611	-0.536763	9.63243	1.72117	-0.165807	-0.111341	0.0574445	-0.0145656	-1.0752	0.182129	0.046875	0.454183	-0.332348	-0.0950871	-0.82111	6.5956	-1.58529	7.8712	0.0481256	-0.0114863	0.00413253	-0.761963	0.49707	-0.506836	0.267539	-0.890344	-0.312769	0.194642	-1.72327	-5.33172	-7.67795	-0.0145691	-0.0346901	-0.0193052	0.491211	0.792236	0.541992	
42	-0.574713	0.39854	0.420971	0.577629	9.45568	0.238383	3.33193	-0.00995711	0.0134184	0.00248893	-0.81543	0.371582	-0.298584	0.522206	-0.44496	-0.415131	-0.597476	9.49137	0.221044	2.38742	0.0652046	-0.162937	-0.00575227	-0.768555	0.274902	-0.195801	0.743231	0.00690303	-0.35744	-0.565507	5.70796	4.56879	7.79855	-0.0890381	-0.0166066	-0.0554393	-0.518799	-0.17627	-0.90918	0.0797085	0.433403	0.0913112	-0.893012	-7.77069	-0.911766	5.82903	-0.00875234	0.00982081	-0.00616187	0.510742	0.224854	-0.87793	0.597902	-0.450681	-0.07936	-0.658105	6.60951	-4.52232	5.49047	0.114503	0.0136447	0.000651459	-0.572998	0.740723	-0.305908	0.928238	-0.0960311	0.354568	0.0586021	-8.049	-1.67174	8.74483	0.0340395	0.0366543	-0.0116613	0.998291	-0.0119629	-0.22583	0.383973	-0.526895	-0.542291	-0.529968	9.13272	1.29808	-1.45958	0.0674613	0.00599352	0.0109526	-0.955811	0.211914	0.157715	0.439058	-0.443573	-0.491638	-0.607259	9.63188	1.51315	0.885232	0.0682629	0.0202996	0.0144772	-1.05298	0.179443	-0.0878906	0.436327	-0.464978	-0.553087	-0.536198	9.80513	1.74356	-0.747512	0.115678	0.00567948	-0.014504	-1.0708	0.186768	0.0424805	0.454575	-0.332749	-0.0958469	-0.820642	6.81748	-1.58696	7.65607	0.0705518	-0.0219281	0.0297011	-0.762207	0.499268	-0.506836	0.266408	-0.890403	-0.313428	0.194864	-1.82694	-6.04616	-7.59367	0.0764899	-0.0101145	-0.018246	0.495605	0.796875	0.532715	
43	-0.574318	0.399735	0.421392	0.576888	9.68869	0.184391	3.20222	-0.0102762	-0.0618844	0.0101913	-0.817627	0.375977	-0.302979	0.522374	-0.445038	-0.41676	-0.596136	9.79374	0.513585	2.62478	0.0294256	-0.0238182	-0.0255839	-0.766357	0.274902	-0.195801	0.74282	0.00497666	-0.356684	-0.566542	5.66601	4.04266	7.76323	-0.0497788	-0.0279152	0.00606849	-0.518799	-0.174072	-0.90918	0.0798422	0.433792	0.0902697	-0.892917	-7.60278	-0.622257	6.04394	0.0396229	0.0220148	0.0320602	0.512939	0.222656	-0.880127	0.598128	-0.451012	-0.0801035	-0.657582	6.86675	-3.90086	5.76567	-0.0676819	-0.0427996	-0.0380445	-0.579102	0.734131	-0.308105	0.927869	-0.0970957	0.355295	0.0582836	-8.05055	-1.82005	8.6266	-0.0511388	0.0474476	-0.0414911	1.00464	-0.00976562	-0.228027	0.385461	-0.525502	-0.542747	-0.529805	9.59988	1.65248	-1.53494	0.043147	0.0717934	0.00361692	-0.953857	0.216309	0.157715	0.440014	-0.443333	-0.492468	-0.606068	9.69395	2.45729	1.47876	-0.0443734	0.0399662	-0.00640648	-1.05322	0.185791	-0.0925293	0.437348	-0.464179	-0.55402	-0.535095	9.66919	1.83267	-0.331605	0.0985043	0.00661569	-0.00825216	-1.07739	0.182129	0.0424805	0.454882	-0.332857	-0.0966115	-0.820338	6.39675	-1.39656	7.73296	0.0599971	-0.0273472	0.0151892	-0.759766	0.494873	-0.506836	0.26444	-0.890693	-0.313772	0.195667	-1.51326	-5.73528	-7.57833	-0.13336	-0.0589244	0.0189701	0.498047	0.794678	0.539795	
44	-0.573913	0.399991	0.421782	0.576829	9.54274	0.173823	3.0807	-0.00476084	-0.0488006	-0.0212497	-0.817871	0.380371	-0.296631	0.522191	-0.445491	-0.416997	-0.595792	9.47255	0.397919	2.26783	-0.0110087	-0.0358531	-0.00613469	-0.770752	0.2771	-0.191162	0.743006	0.00542836	-0.357417	-0.565832	5.68894	3.96877	7.78392	0.0817022	-0.0123959	0.0364394	-0.516602	-0.180664	-0.9021	0.0804771	0.433858	0.0901444	-0.892841	-7.667	-0.790872	5.95132	-0.00539955	-0.00133146	0.021942	0.512939	0.220459	-0.875732	0.597171	-0.452578	-0.0791109	-0.657496	6.60694	-4.27077	5.81043	-0.161864	-0.0365214	-0.0143937	-0.574951	0.736328	-0.303467	0.927795	-0.0974699	0.355377	0.0583355	-8.03183	-1.85042	8.77235	-0.0260747	0.0237217	-0.0215692	0.997803	-0.00341797	-0.226074	0.386413	-0.525045	-0.542785	-0.529526	9.12084	1.84972	-1.34445	0.0825988	0.0450687	-0.00294387	-0.956055	0.218506	0.151367	0.44007	-0.443197	-0.492752	-0.605896	9.37395	1.87334	1.10771	0.031146	0.00788865	-0.0234404	-1.04688	0.190186	-0.0878906	0.438039	-0.463428	-0.554541	-0.53464	9.39225	2.42512	-0.535452	0.099892	0.0322605	-0.0255959	-1.06836	0.186768	0.0446777	0.45469	-0.334073	-0.0972272	-0.819877	6.77658	-1.48491	7.89459	-0.00119149	-0.0513543	0.000355401	-0.761963	0.494873	-0.506836	0.263761	-0.890768	-0.313975	0.195916	-1.60047	-6.41336	-7.69038	-0.0440678	-0.0324948	-0.00129477	0.49585	0.79248	0.539795	
45	-0.573585	0.399831	0.422964	0.5764	9.61354	0.253389	3.16897	0.0482686	-0.0424604	-0.00855213	-0.819824	0.373779	-0.296387	0.522108	-0.44629	-0.418061	-0.59452	9.60976	0.32099	2.28144	0.0368582	-0.0903956	-0.000913311	-0.772705	0.270508	-0.190918	0.743755	0.00660813	-0.358248	-0.564307	5.45331	4.65602	7.75063	0.0205801	0.0224076	0.0279879	-0.522949	-0.180664	-0.906738	0.0811577	0.433883	0.0902425	-0.892757	-7.78602	-0.698369	5.91052	-0.0157007	0.000887077	0.028649	0.510742	0.224854	-0.875732	0.598663	-0.451774	-0.0802981	-0.656548	6.95916	-4.35685	5.47958	0.179075	-0.00100302	0.0171019	-0.570557	0.734375	-0.312744	0.927766	-0.0975541	0.355398	0.0585313	-7.96114	-1.81064	8.78377	-0.00878172	0.0153397	-0.00252146	1.0022	-0.00317383	-0.224121	0.386298	-0.525343	-0.542328	-0.529782	9.87568	1.36523	-1.51434	-0.0139218	0.0421181	-0.0130923	-0.951904	0.220703	0.151123	0.439416	-0.44351	-0.49333	-0.605671	9.93172	2.0232	1.35159	-0.0599572	0.0212527	-0.0123614	-1.05322	0.183594	-0.0854492	0.436375	-0.465222	-0.552525	-0.536528	9.7241	1.34806	-0.318844	-0.168387	-0.00762394	-0.00801668	-1.07739	0.182129	0.0446777	0.455203	-0.334096	-0.0977392	-0.819523	6.32069	-1.1808	7.81805	0.00926677	-0.0147567	0.00230622	-0.761963	0.49707	-0.51123	0.264242	-0.890509	-0.313925	0.19652	-1.69289	-5.43572	-7.60037	-0.021342	-0.0153102	0.00391972	0.502441	0.794678	0.537354	
46	-0.573614	0.400174	0.424774	0.5748	9.76204	0.425415	3.0414	0.0572916	-0.0767571	0.0089672	-0.817627	0.371582	-0.296387	0.522763	-0.445863	-0.418104	-0.594233	9.64097	0.403322	2.58273	0.00796259	0.0544965	-0.00411542	-0.768555	0.272705	-0.188477	0.744047	0.00514088	-0.357502	-0.564411	5.66845	4.20493	7.92468	-0.0497596	0.010916	0.0565488	-0.525146	-0.178467	-0.906738	0.0815217	0.433677	0.0902223	-0.892826	-7.71805	-0.862088	5.90079	-0.0095374	-0.0137628	0.0258887	0.510742	0.224854	-0.880127	0.599129	-0.451607	-0.0812917	-0.656116	6.72052	-3.7668	5.71525	-0.0603169	-0.0290943	-0.0158544	-0.572754	0.734131	-0.305908	0.927539	-0.0983198	0.355757	0.0586696	-7.92413	-1.89958	8.72409	-0.016327	0.0269682	-0.0206824	0.998047	-0.00756836	-0.219482	0.386732	-0.525376	-0.5422	-0.529563	9.42647	1.73731	-1.30545	0.0356407	0.0220272	0.0154494	-0.945312	0.220703	0.155518	0.438715	-0.44365	-0.494024	-0.605511	9.85056	2.49084	1.43349	0.0307219	-0.0667087	-0.0803165	-1.04663	0.183594	-0.083252	0.435038	-0.466255	-0.551419	-0.537852	9.63246	2.18076	0.027324	-0.173027	-0.0215896	-0.0213304	-1.0752	0.182129	0.046875	0.455075	-0.334544	-0.0971638	-0.819479	6.81262	-1.62427	7.74751	0.0349059	0.0259318	0.0138684	-0.757568	0.49707	-0.504395	0.264923	-0.890362	-0.313566	0.196843	-1.67938	-5.81616	-7.55493	0.105133	0.0192784	0.0024739	0.498047	0.794678	0.539795	
47	-0.573422	0.400347	0.425256	0.574514	9.76752	0.475404	3.04074	0.017911	-0.0491464	-0.00648285	-0.822021	0.373779	-0.294434	0.522639	-0.446857	-0.417997	-0.593671	9.71606	0.373337	2.35914	-0.0517501	-0.0061097	0.0110752	-0.770752	0.272705	-0.195557	0.744655	0.00547648	-0.358063	-0.563249	5.621	4.55694	7.91135	0.0570925	0.007224	0.0228698	-0.527588	-0.171875	-0.902344	0.0814115	0.432952	0.0897931	-0.893231	-7.84156	-0.870593	5.89084	0.00713666	-0.0319091	-0.00349262	0.510742	0.220459	-0.873535	0.597935	-0.453655	-0.0796901	-0.655989	6.94242	-4.47378	5.52444	-0.0570533	-0.00251881	-0.00219813	-0.575195	0.740723	-0.30127	0.927384	-0.0982691	0.356208	0.05846	-7.98103	-1.91088	8.8583	0.0215081	0.0411534	-0.026991	0.993652	-0.00537109	-0.219727	0.386585	-0.526048	-0.541171	-0.530056	9.65292	1.58822	-1.51166	-0.0257307	0.0611885	-0.00264671	-0.960449	0.218506	0.15332	0.437166	-0.444408	-0.491962	-0.607751	9.64965	1.69108	0.73162	-0.106173	0.0468733	-0.0147358	-1.05103	0.181396	-0.0854492	0.432029	-0.469313	-0.549167	-0.539918	9.97025	0.933087	-1.20311	-0.138354	-0.0342971	-0.00833337	-1.08008	0.186768	0.046875	0.454019	-0.335134	-0.0957866	-0.819986	6.97826	-1.25189	8.10196	-0.119832	0.0290713	-0.0224129	-0.761963	0.492676	-0.499756	0.26695	-0.890292	-0.312082	0.196783	-1.37019	-6.35023	-7.97526	0.154443	0.0626389	0.037193	0.498047	0.794678	0.532959	
48	-0.572233	0.402335	0.425379	0.57422	9.69128	0.371899	3.01331	-0.0656065	-0.0590182	0.0135123	-0.819824	0.371582	-0.290039	0.522134	-0.447407	-0.416296	-0.594895	9.81023	0.343844	2.62911	-0.103274	0.0790854	-0.0228139	-0.766602	0.279297	-0.188721	0.744509	0.003514	-0.357748	-0.563658	5.62517	4.56025	7.97213	-0.102612	-0.0462908	-0.00121344	-0.523193	-0.169678	-0.904541	0.080653	0.432617	0.0884114	-0.8936	-8.06566	-0.92502	5.93525	0.091152	-0.00774057	-0.00782376	0.510742	0.220459	-0.87793	0.597364	-0.453833	-0.0804841	-0.656288	6.90788	-4.071	5.94232	-0.0372455	-0.0113366	-0.0789184	-0.579102	0.731934	-0.30127	0.927171	-0.098798	0.356816	0.0572378	-8.10979	-1.77958	9.01463	-0.0289567	0.0403871	-0.069271	1.00024	-0.00537109	-0.22168	0.386956	-0.526661	-0.539381	-0.531	9.70438	1.61181	-1.43805	-0.0472006	0.0442033	0.0452352	-0.949951	0.224854	0.15332	0.436266	-0.446496	-0.491121	-0.607547	9.73029	2.73515	1.64152	-0.178236	-0.0348112	-0.00753582	-1.05103	0.183594	-0.0786133	0.430175	-0.471318	-0.545979	-0.542877	9.30947	2.55889	-0.212471	-0.3743	0.0319036	-0.0027148	-1.07568	0.191162	0.0534668	0.452801	-0.335196	-0.0945115	-0.820782	6.54628	-1.75559	7.74862	-0.0393253	0.0219602	-0.0476057	-0.76416	0.49707	-0.5	0.269152	-0.89017	-0.310578	0.196713	-1.90857	-5.43492	-7.4417	-0.0413454	0.0358647	0.032889	0.497803	0.799072	0.530518	
49	-0.571476	0.403823	0.423764	0.575122	9.72155	0.284389	3.10939	-0.107179	0.0237316	0.0145654	-0.817871	0.378174	-0.290039	0.521287	-0.448289	-0.414916	-0.595937	9.33349	0.1439	2.38877	-0.0878056	0.0194832	-0.0117305	-0.766357	0.274902	-0.193359	0.743617	0.00309046	-0.357519	-0.564982	5.30876	4.35545	7.87019	-0.0121157	-0.013369	-0.0687184	-0.527344	-0.174072	-0.902344	0.0788919	0.432113	0.088172	-0.894025	-7.74015	-0.985706	5.94453	0.0263911	-0.0123335	-0.0738912	0.508789	0.216064	-0.875488	0.595463	-0.454681	-0.0779714	-0.65773	6.72687	-4.42437	5.72534	-0.112826	0.0806519	-0.0458779	-0.574951	0.738525	-0.30127	0.927282	-0.0966993	0.357327	0.0558133	-8.06405	-1.71294	8.7875	0.142354	0.0312767	-0.0256139	1.00659	-0.00756836	-0.22168	0.386615	-0.527011	-0.538649	-0.531644	9.23857	1.48871	-1.47333	-0.0140518	0.0126556	-0.0284551	-0.949707	0.220703	0.155518	0.435016	-0.447166	-0.489719	-0.60908	9.89576	1.48822	1.38276	0.0368706	0.0393577	-0.0149705	-1.04883	0.185791	-0.0808105	0.428665	-0.472964	-0.54439	-0.544234	9.63129	1.51117	-0.326013	-0.236056	-0.0263561	-0.000486943	-1.07056	0.184326	0.0537109	0.451618	-0.334759	-0.0945869	-0.821603	6.8169	-1.31397	7.75805	-0.00699567	0.026227	-0.0545239	-0.76416	0.492676	-0.504395	0.269793	-0.890713	-0.308944	0.195948	-1.80354	-6.05814	-7.62113	0.0676707	0.0694034	0.0489825	0.497803	0.796875	0.530518	
50	-0.570708	0.405382	0.421441	0.576494	9.57153	0.147805	3.29286	-0.130628	0.0110442	0.00363599	-0.829102	0.380127	-0.288086	0.51966	-0.449798	-0.415271	-0.595975	9.93156	0.534268	2.33007	-0.0705754	-0.0412178	-0.0460562	-0.770996	0.283691	-0.188965	0.741794	0.00132409	-0.356675	-0.567911	5.62525	4.37291	7.67321	-0.147325	-0.0494037	-0.114467	-0.525391	-0.171875	-0.90918	0.0765325	0.432477	0.0871822	-0.894151	-7.66726	-0.871691	5.87274	0.101938	0.0334013	-0.0570687	0.510986	0.216064	-0.88208	0.594311	-0.454031	-0.0772766	-0.659302	6.9216	-4.28158	5.58922	-0.0175689	0.0499699	-0.0767426	-0.574951	0.736328	-0.296631	0.927352	-0.0953192	0.357788	0.0540417	-8.12027	-1.75046	8.69326	0.0788573	0.0391729	-0.0705385	0.997803	-0.00317383	-0.219727	0.386062	-0.527943	-0.537167	-0.532619	9.72634	1.79684	-1.27086	-0.0806843	0.0255074	0.0115104	-0.954346	0.224854	0.151123	0.435518	-0.447949	-0.488824	-0.608865	9.72004	2.13932	0.642005	-0.0478445	-0.00700748	0.0464142	-1.05347	0.190186	-0.0856934	0.428628	-0.473093	-0.545245	-0.543295	9.84011	2.39574	-0.632015	-0.000818643	0.0175421	-0.00660871	-1.06836	0.186768	0.0512695	0.449675	-0.335406	-0.0928833	-0.822598	6.57342	-1.58213	7.80697	-0.134413	0.0138041	-0.0642657	-0.761963	0.49707	-0.495361	0.270622	-0.891191	-0.306964	0.195744	-1.85533	-5.58454	-7.6311	0.00705975	0.0417418	0.0662916	0.500244	0.794678	0.532959	
51	-0.568735	0.406765	0.420976	0.577808	9.65074	0.0879801	3.04686	-0.0724429	-0.0273193	-0.0642851	-0.82251	0.380127	-0.285889	0.518172	-0.450845	-0.412467	-0.59842	9.15392	0.288764	2.61211	-0.136347	0.0224167	-0.028979	-0.770752	0.2771	-0.184082	0.74087	0.000454056	-0.356837	-0.569015	5.80078	4.02662	7.76673	-0.0746857	-0.0703447	-0.0841671	-0.529785	-0.16748	-0.906982	0.0743242	0.43295	0.0858031	-0.894242	-7.67594	-0.921244	6.02013	0.081371	0.0131946	-0.0606432	0.51123	0.213867	-0.88208	0.592665	-0.454313	-0.0756064	-0.66078	6.49198	-4.16271	5.7885	-0.104878	0.0806811	-0.0611048	-0.581299	0.734131	-0.294434	0.927518	-0.0938918	0.358011	0.0521792	-7.88941	-1.7582	8.75998	0.0991518	0.0139625	-0.0551635	1.00195	0.000976562	-0.217773	0.384826	-0.529506	-0.536217	-0.53292	9.20716	1.36656	-1.4072	-0.0605601	-0.0638383	0.00662122	-0.949951	0.224854	0.161865	0.433248	-0.449832	-0.488017	-0.609742	9.85441	1.96142	1.49645	-0.0644513	-0.0386444	-0.0659697	-1.05127	0.187988	-0.0786133	0.427912	-0.473951	-0.542808	-0.545547	9.45121	2.52898	0.560233	-0.120047	0.0577229	-0.00839779	-1.07056	0.184326	0.0559082	0.449107	-0.334885	-0.0936498	-0.823034	6.70951	-1.60971	7.66844	0.0767811	0.0230746	-0.039543	-0.768555	0.494873	-0.506836	0.270722	-0.89143	-0.306312	0.195538	-1.87975	-5.91192	-7.47022	0.0100994	0.040344	0.0417529	0.502197	0.803467	0.532715	
52	-0.568453	0.406675	0.420566	0.578448	9.84439	0.303204	3.10549	-0.0453971	0.0308178	-0.0332044	-0.820068	0.375732	-0.287842	0.517556	-0.451761	-0.412251	-0.598412	9.46285	0.112087	2.25247	-0.0784693	-0.0413628	-0.00947081	-0.768799	0.2771	-0.184082	0.74022	0.000524762	-0.357298	-0.569572	5.53002	4.26866	7.92236	0.0097562	0.00424378	-0.0392925	-0.527588	-0.16748	-0.902344	0.0743242	0.43295	0.0858031	-0.894242	-7.67594	-0.921244	6.02013	0.081371	0.0131946	-0.0606432	0.51123	0.213867	-0.88208	0.591707	-0.454367	-0.0745675	-0.661719	6.44024	-4.36191	5.70036	-0.098265	0.0823705	-0.0710025	-0.579102	0.731934	-0.296631	0.927694	-0.0926454	0.357991	0.0514094	-7.79075	-1.62088	8.73228	0.118954	0.00789358	-0.0375133	1	-0.00317383	-0.217529	0.383955	-0.530238	-0.535866	-0.533173	9.30386	1.38588	-1.63048	-0.0697459	-0.0359335	-0.0151702	-0.949463	0.216309	0.161865	0.432541	-0.449576	-0.487179	-0.611102	9.73939	1.91457	1.82676	-0.106575	0.0783336	-0.0785108	-1.05542	0.183594	-0.0808105	0.425593	-0.476107	-0.540041	-0.548224	9.60768	2.12524	-0.388718	-0.392845	0.0067638	-0.0133382	-1.07544	0.186523	0.0559082	0.448349	-0.334912	-0.0938698	-0.823411	6.65909	-1.14637	7.7678	-0.00689915	0.00782472	-0.0656197	-0.768555	0.492676	-0.502197	0.270226	-0.892155	-0.305333	0.194447	-1.62994	-5.9639	-7.59654	-0.0712332	0.0583744	0.0447127	0.500488	0.790283	0.537598	
53	-0.569012	0.406924	0.419302	0.57864	9.41287	0.395091	3.16202	-0.0325591	0.0121817	0.0473347	-0.820312	0.384521	-0.283691	0.516988	-0.452653	-0.411912	-0.598462	10.0026	0.330581	2.33407	-0.0420987	0.0236862	-0.0167649	-0.770996	0.279297	-0.179443	0.738734	-0.00163385	-0.356835	-0.571785	5.95672	4.26505	7.73211	-0.154813	-0.0653977	-0.0606717	-0.529785	-0.165283	-0.906982	0.0724423	0.43205	0.0834051	-0.895058	-7.53878	-0.635694	6.26603	0.069105	-0.0146686	0.0329373	0.502441	0.207031	-0.877686	0.591019	-0.453809	-0.0753709	-0.662626	7.0719	-4.30407	5.35887	0.0452535	-0.0119124	-0.0737968	-0.574463	0.725342	-0.296631	0.927493	-0.0926052	0.358729	0.0499442	-8.168	-1.65639	8.47441	-0.0147558	0.0585242	-0.0829273	0.997559	0.00317383	-0.213379	0.38134	-0.533448	-0.535426	-0.53229	9.4147	1.89997	-1.32386	-0.0882457	-0.102379	0.0317685	-0.952148	0.227051	0.170166	0.432061	-0.449933	-0.486848	-0.611443	9.85282	2.22962	1.47432	-0.071476	-0.000723428	0.00905463	-1.04883	0.183594	-0.0786133	0.4234	-0.478078	-0.537648	-0.550553	9.60164	2.11619	-0.352891	-0.0898099	0.00231507	-0.0211395	-1.06836	0.186768	0.0581055	0.446525	-0.335068	-0.0924986	-0.824493	6.78102	-1.66223	7.97355	-0.0595102	0.0440981	-0.0528682	-0.765869	0.483887	-0.499512	0.271481	-0.892706	-0.303064	0.193719	-1.83309	-5.61926	-7.77841	-0.00048845	0.0733814	0.0599502	0.500244	0.79248	0.530518	
54	-0.568386	0.40917	0.41877	0.578056	9.70777	0.26098	3.04044	-0.0736879	-0.0739648	0.0319521	-0.822754	0.384521	-0.2771	0.516843	-0.452587	-0.409745	-0.600123	9.56004	0.455328	2.43626	-0.0973936	0.0463405	-0.0183225	-0.773193	0.279297	-0.174561	0.738554	-0.00272053	-0.356976	-0.571926	5.57667	3.76618	7.98971	0.0720469	-0.00986504	0.0179546	-0.531982	-0.160889	-0.897949	0.0721996	0.431844	0.0826319	-0.895249	-7.63399	-0.649469	6.19971	0.0656728	-0.0181252	0.00792841	0.504883	0.207275	-0.884277	0.589136	-0.456067	-0.0740234	-0.662905	6.91531	-4.26287	5.63453	-0.168784	-0.0213287	-0.0186134	-0.581299	0.731934	-0.291992	0.927167	-0.0931889	0.359663	0.0481714	-8.24521	-2.04882	8.53299	0.0205965	0.0542366	-0.0755294	1.00415	0.00317383	-0.209229	0.37971	-0.535086	-0.535314	-0.531923	9.45616	1.39202	-1.38995	-0.0933127	-0.140853	0.000114872	-0.951904	0.222656	0.17041	0.42975	-0.452168	-0.483168	-0.614335	9.56884	1.67515	0.715067	-0.173007	-0.00165843	-0.0108282	-1.05737	0.183594	-0.0786133	0.421643	-0.479596	-0.536117	-0.552073	9.70247	2.03443	-0.202583	-0.0326072	-0.00943486	-0.0229827	-1.07544	0.188965	0.0578613	0.445184	-0.33508	-0.0922157	-0.825245	6.76905	-1.83506	7.89271	-0.0579551	0.0327238	-0.103569	-0.768311	0.488281	-0.501953	0.272049	-0.893628	-0.300545	0.192589	-1.60733	-5.8334	-7.70055	0.0579113	0.0997619	0.0902115	0.506836	0.794678	0.539795	
55	-0.567669	0.411076	0.417525	0.578309	9.81869	0.221636	2.98683	-0.0947656	0.00634053	0.0351885	-0.824951	0.386475	-0.275146	0.516122	-0.453315	-0.406312	-0.602523	9.3583	-0.0579638	2.55902	-0.146923	0.074579	-0.0131279	-0.768799	0.281494	-0.186523	0.739231	-0.0020222	-0.35786	-0.570499	5.51206	4.75556	8.15323	-0.0185446	0.0270826	0.0470331	-0.529785	-0.16748	-0.895508	0.0706494	0.43074	0.0822422	-0.89594	-7.8111	-0.808865	6.11832	0.0161457	-0.0527124	-0.0745474	0.500244	0.207031	-0.879883	0.587802	-0.457047	-0.072581	-0.663572	6.52455	-4.55927	5.72265	-0.0296648	0.037695	-0.0592766	-0.581543	0.736328	-0.282959	0.927201	-0.0918418	0.360044	0.047231	-7.96206	-1.77402	8.78365	0.078196	0.0258369	-0.0154963	1.00415	0.00537109	-0.211426	0.376582	-0.538243	-0.536129	-0.530138	9.19794	1.46855	-1.70825	-0.0372193	-0.182215	0.0054912	-0.94751	0.222656	0.185303	0.430208	-0.451816	-0.481756	-0.615382	10.0729	2.19863	1.49896	-0.0335997	0.12695	-0.0147969	-1.04883	0.181396	-0.0854492	0.420251	-0.481034	-0.535642	-0.552343	9.58409	2.09293	-0.113862	-0.0729827	-0.0543436	-0.0104463	-1.07544	0.186523	0.0625	0.441174	-0.334644	-0.0903402	-0.827779	6.73626	-1.85722	7.73059	-0.131115	0.0498528	-0.0829699	-0.7771	0.483643	-0.497314	0.273552	-0.894509	-0.297469	0.191144	-1.88141	-5.90008	-7.67543	0.0956789	0.110468	0.0885419	0.502686	0.788086	0.535156	
56	-0.567604	0.412592	0.415132	0.579015	9.35429	-0.00433556	3.23058	-0.0937401	-0.00486644	0.0402421	-0.81665	0.397461	-0.272949	0.515435	-0.453875	-0.405819	-0.603021	10.0559	0.313991	2.48603	-0.0504411	0.0373882	-0.0299435	-0.764404	0.281494	-0.181885	0.738341	-0.00601982	-0.354796	-0.57353	5.97723	4.19983	7.61973	-0.245006	-0.0298924	-0.071499	-0.536377	-0.156494	-0.902588	0.069362	0.429762	0.0820639	-0.896526	-7.69839	-0.962746	5.89112	0.0702788	-0.0312941	-0.0232786	0.509521	0.200684	-0.879639	0.588161	-0.456291	-0.0737753	-0.663644	7.16669	-4.24612	5.31682	0.0500347	-0.0121197	-0.0129266	-0.583496	0.734131	-0.287598	0.926993	-0.0912825	0.360818	0.0465031	-8.17226	-1.73732	8.78068	0.0251571	0.0628913	-0.0497738	0.999512	0.00976562	-0.21582	0.37356	-0.541086	-0.537363	-0.528129	10.0173	1.89828	-1.68967	-0.0225381	-0.144301	-0.0232301	-0.943115	0.218506	0.196045	0.429065	-0.451948	-0.479016	-0.618215	9.56785	2.2882	0.847849	-0.140468	0.0602933	-0.0412074	-1.05542	0.185791	-0.0739746	0.41874	-0.482707	-0.534585	-0.553054	9.78129	2.24197	-0.634442	-0.0816193	-0.0104439	-0.00433739	-1.07056	0.182129	0.0646973	0.43895	-0.334197	-0.0903098	-0.829143	6.66441	-1.34831	7.95556	-0.00683033	0.0328109	-0.0931384	-0.770508	0.483887	-0.501953	0.273984	-0.895629	-0.294321	0.190148	-1.54735	-5.94401	-7.57285	0.0683955	0.0903882	0.103471	0.504883	0.790283	0.535156	
57	-0.566488	0.415292	0.414768	0.578439	9.84027	0.167267	3.00526	-0.0798264	-0.0809084	0.0345494	-0.816162	0.388916	-0.270752	0.51444	-0.454293	-0.401662	-0.606331	9.40556	0.330106	2.53669	-0.196951	0.117152	-0.0312197	-0.764648	0.288086	-0.179688	0.737811	-0.00624062	-0.355377	-0.57385	5.39172	4.00495	8.00703	0.0938712	-0.0133792	-0.0242801	-0.533936	-0.163086	-0.895752	0.0680829	0.429511	0.0800681	-0.896925	-7.72938	-0.69957	6.12128	0.0823506	-0.00571462	-0.025784	0.496094	0.204834	-0.886475	0.586155	-0.457994	-0.0716805	-0.664474	6.65826	-4.10131	5.88088	-0.216028	0.0345618	-0.0529369	-0.587646	0.729736	-0.289795	0.926639	-0.0913616	0.361951	0.0445425	-8.01875	-1.9693	8.72015	0.0492814	0.0601845	-0.0765134	1.00146	0.0141602	-0.207275	0.370523	-0.543735	-0.536277	-0.528651	9.03385	1.38428	-1.60408	-0.134309	-0.106351	0.00515434	-0.943359	0.222656	0.195801	0.426982	-0.453609	-0.477335	-0.619739	9.82557	2.16292	1.43567	-0.14435	-0.014738	-0.0334891	-1.05103	0.185791	-0.0761719	0.416636	-0.484753	-0.531419	-0.555898	9.6451	1.65454	-0.353869	-0.170857	0.0254107	-0.00927198	-1.07544	0.188721	0.0646973	0.437598	-0.334344	-0.0886922	-0.829973	6.73813	-1.48719	8.159	-0.151892	0.0726181	-0.0711125	-0.770752	0.490479	-0.499756	0.275521	-0.896212	-0.292113	0.188582	-1.72696	-6.02402	-7.5607	0.0815154	0.116457	0.0390307	0.50293	0.783691	0.5354	
58	-0.565631	0.417368	0.413377	0.578779	9.56116	0.167087	3.04767	-0.102146	-0.0346246	0.0318458	-0.820801	0.393066	-0.266602	0.513167	-0.455497	-0.399569	-0.607888	9.93378	0.00943715	2.53746	-0.129543	0.0650077	-0.0198824	-0.769043	0.283691	-0.179443	0.736795	-0.00537374	-0.356368	-0.574549	5.91482	4.73892	7.87228	-0.0436394	-0.0383298	-0.0566039	-0.53418	-0.163086	-0.900146	0.0659744	0.428816	0.0790443	-0.897506	-7.79809	-0.684169	6.10659	0.0928604	-0.0298453	-0.0668511	0.494141	0.196289	-0.888428	0.584436	-0.459381	-0.069261	-0.665287	7.13353	-4.70309	5.53228	-0.0454441	0.0424977	-0.0355183	-0.585693	0.731934	-0.27832	0.926517	-0.089823	0.362828	0.0430623	-8.19193	-1.91606	8.71593	0.0777054	0.0510418	-0.0345638	1.00146	0.0141602	-0.205322	0.368315	-0.54562	-0.537415	-0.527094	9.77247	1.38306	-1.76405	0.00149677	-0.0857868	-0.0429775	-0.945312	0.218262	0.20459	0.426015	-0.454499	-0.475255	-0.621349	9.74086	1.88312	1.2258	-0.0589577	0.0560447	-0.00384462	-1.04053	0.192383	-0.0810547	0.416083	-0.485251	-0.53028	-0.556964	9.67871	1.64976	-0.272891	-0.0113402	0.0224647	-0.0189616	-1.0708	0.186523	0.0690918	0.435084	-0.332975	-0.0868376	-0.832039	6.598	-1.45018	7.83934	-0.0933655	0.0509384	-0.0724171	-0.7771	0.48584	-0.501953	0.276241	-0.896838	-0.290376	0.187228	-1.77736	-5.97863	-7.38536	-0.0144174	0.0751195	0.0467757	0.509521	0.785889	0.546631	
59	-0.565025	0.420157	0.411357	0.578792	9.70734	-0.105199	2.95617	-0.11978	-0.0170665	0.0653549	-0.819092	0.399658	-0.266602	0.512777	-0.455612	-0.398668	-0.608721	9.45362	0.259324	2.32643	-0.0247698	0.000921013	-0.0322032	-0.766846	0.283691	-0.179443	0.735396	-0.0100998	-0.352941	-0.57838	5.5486	3.86288	7.8734	-0.28792	-0.00613015	-0.0943947	-0.536377	-0.154297	-0.900391	0.0633041	0.428276	0.0790544	-0.897955	-7.55255	-0.726631	6.19609	0.0208196	-0.00829728	-0.104991	0.491699	0.200439	-0.88623	0.583991	-0.457561	-0.0701262	-0.666839	6.72595	-4.35371	5.67498	0.0529063	0.0593341	-0.0760195	-0.587646	0.727539	-0.285156	0.926489	-0.0885373	0.363246	0.042793	-8.17587	-1.74674	8.61452	0.0699536	0.0198453	0.00628626	1.00391	0.00976562	-0.207275	0.367188	-0.54722	-0.537423	-0.526213	9.38122	1.79098	-1.80112	-0.0450657	-0.0404459	0.0240961	-0.943359	0.222656	0.20874	0.426135	-0.455042	-0.4737	-0.622056	9.81438	2.03953	1.00987	-0.0328171	0.0481299	0.0231532	-1.04468	0.187988	-0.0739746	0.416765	-0.484402	-0.530722	-0.556772	9.68376	1.86814	-0.592284	0.122026	0.0430314	-0.0346992	-1.0752	0.184326	0.0668945	0.434318	-0.332235	-0.0852729	-0.832896	6.31976	-1.66056	7.86197	-0.0506703	0.0795785	-0.0135392	-0.770264	0.481689	-0.499512	0.277421	-0.896858	-0.289486	0.186765	-1.62596	-6.30387	-7.40681	0.0901418	0.0856292	0.0312038	0.507324	0.785889	0.544434	
60	-0.564821	0.421249	0.410522	0.57879	9.4408	-0.244495	3.00825	-0.0945633	-0.0227361	0.0534346	-0.825684	0.397217	-0.26001	0.51246	-0.45562	-0.396786	-0.610209	9.67037	0.168094	2.50539	-0.158675	0.135255	-0.0258442	-0.766602	0.281494	-0.179443	0.734964	-0.010688	-0.352159	-0.579394	5.95955	3.61692	7.69449	-0.098941	0.013158	-0.0637789	-0.538574	-0.145508	-0.89624	0.0613698	0.427863	0.0790594	-0.898285	-7.52583	-0.928567	6.21851	0.04221	-0.00637329	-0.060811	0.496338	0.198486	-0.888428	0.58335	-0.458116	-0.0689991	-0.667137	6.86506	-4.28552	5.59588	-0.112052	0.0380479	-0.0176588	-0.592041	0.729736	-0.287598	0.926553	-0.0877094	0.36329	0.0427418	-8.24497	-1.63662	8.69649	0.0667721	0.0129079	0.00498415	1.00366	0.0119629	-0.21167	0.365679	-0.548741	-0.537733	-0.525363	9.31459	1.51332	-1.72572	-0.0307755	-0.0848587	-0.0111753	-0.943359	0.224854	0.215088	0.425231	-0.455902	-0.473027	-0.622557	9.46278	1.75441	1.32219	-0.0345647	-0.0316049	-0.0396316	-1.04883	0.185791	-0.0693359	0.417663	-0.483339	-0.531113	-0.556651	9.45551	2.2492	-0.454527	0.0986788	0.0730889	-0.0353123	-1.06836	0.186768	0.0625	0.433475	-0.332469	-0.0845041	-0.83332	6.30661	-1.65228	7.71102	-0.0816346	0.0300346	-0.0451706	-0.767822	0.475098	-0.503906	0.27781	-0.89716	-0.288617	0.18608	-1.84875	-5.59787	-7.40046	0.0107971	0.0434921	0.0216659	0.505127	0.785889	0.546631	
61	-0.563787	0.423021	0.41039	0.5786	9.89274	0.145192	2.92072	-0.0656126	-0.0544447	0.0286098	-0.814453	0.397461	-0.262207	0.512086	-0.456059	-0.396563	-0.610341	9.48916	0.287652	2.88482	-0.0543262	-0.00496529	-0.0197202	-0.76709	0.290283	-0.18457	0.73507	-0.00852398	-0.352852	-0.578874	5.31944	4.25583	8.15894	0.100017	0.0522512	-0.0228101	-0.532227	-0.147949	-0.900635	0.0599868	0.427232	0.0800883	-0.898588	-7.5678	-0.941399	5.95742	-0.0289781	-0.0140481	-0.0665496	0.491699	0.202637	-0.884277	0.583522	-0.457092	-0.0672333	-0.667869	6.59354	-4.28239	5.73574	0.011566	0.0953541	0.000894999	-0.587646	0.729736	-0.285156	0.926841	-0.0856575	0.363091	0.0423586	-7.96909	-1.65764	8.65594	0.0889595	-0.00790083	-0.00235868	1.00586	0.0119629	-0.209473	0.364211	-0.550495	-0.537278	-0.525012	9.35886	1.49428	-2.00495	0.022238	-0.0975121	0.0122047	-0.945312	0.220459	0.221436	0.425736	-0.45519	-0.47284	-0.622874	10.076	2.15856	1.86201	-0.0130348	0.111776	-0.0198079	-1.04932	0.192383	-0.0856934	0.418361	-0.481934	-0.531196	-0.557265	9.78532	1.7528	0.0397039	0.0532057	0.0522633	-0.0473167	-1.07056	0.182129	0.0646973	0.433629	-0.331572	-0.0843969	-0.833608	6.42096	-1.49724	7.84741	0.0211572	0.0656073	0.01328	-0.770264	0.479492	-0.50415	0.279415	-0.896963	-0.28802	0.185551	-1.87748	-5.8782	-7.57013	0.0917299	0.0467404	-0.00587048	0.500488	0.788086	0.541992	
62	-0.563844	0.42356	0.408626	0.579398	9.61833	-0.225165	3.13147	-0.0450088	0.0512875	0.00841833	-0.819336	0.403809	-0.26001	0.512283	-0.455629	-0.395246	-0.61135	9.81491	0.048796	2.4605	0.0169814	-0.0137569	-0.0147924	-0.769043	0.288086	-0.175049	0.734439	-0.00971447	-0.351018	-0.580768	5.94887	4.38858	7.66542	-0.168797	0.000872692	-0.056767	-0.530029	-0.152344	-0.900635	0.0594783	0.426989	0.0798694	-0.898757	-7.6151	-0.794254	5.96627	0.0350414	-0.0150569	-0.0304651	0.493896	0.202637	-0.886475	0.583197	-0.456896	-0.0664944	-0.668361	6.72761	-4.66622	5.50815	0.0117861	0.0164897	-0.0105991	-0.585693	0.731934	-0.289795	0.926977	-0.0847455	0.362955	0.0423819	-8.18425	-1.61005	8.66889	0.0123031	0.0118047	-0.00557224	1.00171	0.0119629	-0.209473	0.364294	-0.550663	-0.537525	-0.524525	9.72167	1.67519	-1.83943	0.0458812	-0.0208639	-0.0018213	-0.938965	0.224854	0.215088	0.425445	-0.454915	-0.472313	-0.623674	9.26167	2.0376	1.32964	-0.0541679	0.0648107	-0.0505144	-1.05103	0.185791	-0.0808105	0.418532	-0.481264	-0.531325	-0.557594	9.52709	2.19076	-0.401806	-0.0287395	0.0283808	-0.0360219	-1.0752	0.181885	0.0646973	0.432692	-0.332728	-0.0826812	-0.833807	7.0292	-1.79489	7.88036	-0.0925241	0.00941749	0.0108323	-0.770264	0.479492	-0.501709	0.279153	-0.897292	-0.287166	0.18568	-1.48082	-6.69663	-7.44611	0.0614292	0.019809	0.0272055	0.507324	0.788086	0.541992	
63	-0.563862	0.424065	0.408909	0.578811	9.59768	0.00405373	3.02704	0.0120105	-0.0530346	0.0219124	-0.819092	0.399414	-0.255859	0.512773	-0.454906	-0.39396	-0.612307	9.62696	0.372018	2.64883	-0.0612542	0.066006	-0.0208374	-0.764893	0.290283	-0.182129	0.734056	-0.0115455	-0.350076	-0.581786	5.37663	3.6724	8.05767	-0.00947285	-0.00732852	-0.0120136	-0.532227	-0.145752	-0.903076	0.0587172	0.427113	0.0793395	-0.898795	-7.58924	-0.857238	6.20762	0.027942	0.0123061	-0.020744	0.496094	0.200684	-0.88623	0.584013	-0.455492	-0.066807	-0.668575	6.77588	-3.99344	5.71642	0.0177641	0.054689	-0.0292989	-0.585693	0.731934	-0.287598	0.927095	-0.0840746	0.362845	0.0420677	-8.08066	-1.75727	8.61266	0.0433294	-0.000593903	-0.0172119	1.00391	0.00976562	-0.209473	0.363545	-0.551916	-0.537167	-0.524095	9.47601	1.47762	-1.76512	-0.0397353	-0.0526058	0.0210671	-0.936768	0.222656	0.227783	0.425573	-0.454888	-0.472546	-0.62343	9.81347	2.29838	1.51254	0.0322044	0.06038	0.0163441	-1.05103	0.185791	-0.0739746	0.419511	-0.479843	-0.532164	-0.557282	9.6046	2.52572	-0.0919903	0.143121	0.0463005	-0.0387436	-1.07544	0.186768	0.0534668	0.432435	-0.332311	-0.081109	-0.83426	6.08707	-1.50108	8.17124	-0.073384	0.0485957	-0.00693323	-0.770508	0.486084	-0.497314	0.280492	-0.897111	-0.286587	0.185428	-1.47355	-5.63273	-7.59875	-0.0422647	0.0208746	-0.00261642	0.505127	0.785889	0.544434	
64	-0.56386	0.424286	0.40902	0.578573	9.79784	0.0316636	3.05181	0.00145561	0.00655074	-0.00430047	-0.810303	0.399658	-0.262207	0.513076	-0.45503	-0.391915	-0.613273	9.60249	-0.0306727	2.83765	-0.0320538	0.0425545	0.0194092	-0.764648	0.285889	-0.188965	0.734126	-0.00883587	-0.351652	-0.580794	5.70355	4.67123	8.2542	0.0957913	0.016198	0.00542538	-0.53418	-0.154297	-0.900391	0.0575386	0.42654	0.0795657	-0.899123	-7.74075	-0.951679	6.15348	0.0182593	-0.0285974	-0.0582146	0.493652	0.204834	-0.888672	0.582874	-0.45659	-0.0641607	-0.669079	6.60456	-4.67981	5.61014	-0.0938544	0.0499644	0.01514	-0.585449	0.729736	-0.282959	0.927222	-0.082935	0.36273	0.0425266	-8.05893	-1.78683	8.79281	0.0668821	0.00996803	0.0314591	1.00171	0.00756836	-0.205078	0.361814	-0.553706	-0.537253	-0.523316	9.4244	1.68122	-1.62152	-0.00406163	-0.100846	-0.0101738	-0.938965	0.224854	0.227783	0.423519	-0.455673	-0.471382	-0.625134	9.70897	1.56271	1.45178	-0.0942456	-0.0117407	-0.0799079	-1.04663	0.185791	-0.0739746	0.418717	-0.480204	-0.531095	-0.558586	9.68933	1.63552	-0.0869151	-0.00402774	0.0201596	-0.0327106	-1.07764	0.184326	0.0625	0.432332	-0.331353	-0.0805405	-0.83475	6.74936	-1.73044	7.83211	0.053746	0.0823584	0.00867939	-0.770264	0.481689	-0.497314	0.281283	-0.897138	-0.28621	0.184683	-1.70237	-6.28187	-7.41146	0.0240674	0.0426942	-0.0028163	0.500488	0.790283	0.546631	
65	-0.564634	0.424682	0.407791	0.578394	9.80935	0.105412	3.15515	-0.0375721	0.0361195	0.0674159	-0.81958	0.408203	-0.255859	0.513221	-0.454826	-0.389985	-0.614532	9.62221	0.215711	2.78697	-0.0753592	0.0554522	-0.0248017	-0.760498	0.288086	-0.184326	0.733924	-0.0122764	-0.34822	-0.58305	5.2371	4.19939	8.15208	-0.275783	0.0129268	-0.045773	-0.532227	-0.143555	-0.898438	0.055909	0.425364	0.0804444	-0.899705	-7.64781	-1.34083	6.15474	0.00566569	-0.0363674	-0.0785273	0.487305	0.202637	-0.890869	0.583016	-0.455609	-0.0642029	-0.669619	6.71171	-4.49315	5.74081	0.026496	0.0294916	-0.0530037	-0.589844	0.727539	-0.282959	0.927178	-0.0817063	0.363078	0.0428797	-8.17764	-1.45061	8.73343	0.0100042	0.0282703	0.00650323	1.00195	0.00537109	-0.204834	0.360308	-0.55499	-0.538242	-0.521977	9.58357	1.22481	-2.04544	0.0115559	-0.0730283	-0.0154881	-0.932373	0.222656	0.236328	0.424886	-0.454709	-0.470923	-0.625254	9.75203	2.60666	1.3684	-0.00363156	0.110439	0.0182593	-1.05298	0.181396	-0.0783691	0.418239	-0.48054	-0.53076	-0.558973	9.65349	2.04427	-0.272968	0.075471	0.0137207	-0.0238137	-1.0752	0.181885	0.0646973	0.431774	-0.331795	-0.078564	-0.835052	6.32934	-1.5687	8.09301	-0.0804228	0.0283908	0.00586199	-0.765869	0.483887	-0.495117	0.282233	-0.896972	-0.28593	0.184471	-1.4505	-5.92824	-7.5819	0.0132146	0.0115376	-0.00503152	0.505127	0.785889	0.544434	
66	-0.564942	0.425076	0.406645	0.578611	9.46746	-0.15871	3.20799	-0.0663861	0.0483638	0.05526	-0.812744	0.40625	-0.26001	0.513145	-0.454737	-0.388737	-0.615451	9.56095	-0.028573	2.87785	-0.0969228	0.101091	-0.0171534	-0.764893	0.29248	-0.19165	0.733566	-0.0131999	-0.346946	-0.58424	5.66288	3.78077	7.88394	-0.145829	0.02888	-0.0608954	-0.532227	-0.143555	-0.903076	0.0546268	0.424592	0.0808395	-0.900113	-7.48556	-1.02644	6.14619	-0.00543179	-0.0165461	-0.0469725	0.489258	0.207031	-0.888672	0.58297	-0.455606	-0.062997	-0.669777	6.70535	-4.45274	5.67063	-0.0339539	0.0595478	0.0295291	-0.587891	0.734131	-0.285156	0.927158	-0.0804212	0.363435	0.0427311	-8.1623	-1.52705	8.79782	0.0865748	0.0272323	-0.0102822	1.00195	0.00537109	-0.202881	0.360388	-0.555343	-0.539105	-0.520653	9.21336	2.0917	-1.60982	0.0626375	-0.0720457	-0.0187477	-0.932617	0.224854	0.234131	0.423433	-0.455021	-0.470406	-0.626401	9.45631	2.00123	1.16366	-0.0638687	0.00271274	-0.048589	-1.05322	0.183594	-0.0786133	0.418574	-0.47995	-0.531016	-0.558986	9.73911	1.5818	-0.334854	0.0346445	0.0243557	-0.0298487	-1.07275	0.182129	0.0581055	0.432535	-0.330132	-0.0789124	-0.835284	6.30946	-1.55852	8.12958	0.0707553	0.0597061	0.0105164	-0.770508	0.483887	-0.50415	0.282493	-0.896912	-0.28603	0.184208	-1.52706	-6.16561	-7.38233	0.0161027	0.0265183	-0.02352	0.50708	0.790283	0.541992	
67	-0.564065	0.427005	0.405407	0.578915	9.90013	-0.27051	3.12369	-0.050378	-0.004384	0.0216921	-0.81543	0.414795	-0.260254	0.51376	-0.453289	-0.38695	-0.617131	9.41839	0.037621	2.87133	-0.0373771	0.101939	-0.0413074	-0.764893	0.292236	-0.196289	0.733357	-0.0114628	-0.347077	-0.58446	5.26766	4.15927	8.03963	0.0815403	0.0349507	-0.0383174	-0.527832	-0.145752	-0.898438	0.0532345	0.4246	0.0809324	-0.900184	-7.44316	-0.900085	6.15048	0.0211456	0.0149764	-0.0589266	0.482666	0.202637	-0.890869	0.582378	-0.455263	-0.0614364	-0.670669	6.35731	-4.48799	5.83405	-0.0710694	0.0644646	-0.0423258	-0.583496	0.731934	-0.285156	0.92721	-0.0795724	0.363495	0.0426899	-8.03978	-1.50011	8.65789	0.0143417	0.00958713	0.00559836	1.00391	0.00976562	-0.209473	0.358563	-0.556419	-0.540314	-0.51951	9.32392	1.03295	-1.99556	0.0346847	-0.0902324	-0.0346189	-0.93457	0.222656	0.238525	0.425135	-0.45416	-0.470665	-0.625679	9.84544	2.31869	1.93996	0.00807854	0.0646404	-0.0053575	-1.05127	0.190186	-0.0878906	0.420034	-0.47829	-0.532818	-0.557598	9.69554	1.22357	-0.380619	0.178388	0.00240063	-0.0367671	-1.0752	0.182129	0.0559082	0.432303	-0.330105	-0.078332	-0.835469	6.55357	-1.87284	7.77568	-0.016017	0.0298066	0.0057858	-0.768066	0.483887	-0.50415	0.282998	-0.896715	-0.286595	0.183514	-1.57002	-5.75896	-7.55312	-0.0558029	0.0108227	-0.0388623	0.500488	0.788086	0.537598	
68	-0.56424	0.426875	0.404477	0.57949	9.81863	-0.317589	3.23034	-0.0497549	0.0700208	0.00818911	-0.810791	0.4104	-0.255859	0.514447	-0.452299	-0.387392	-0.617006	9.22993	-0.0769376	2.94496	0.0832446	0.0616537	-0.0260956	-0.758057	0.285889	-0.193848	0.732486	-0.0102994	-0.346606	-0.585852	5.41011	4.10998	7.94128	-0.0344748	0.0376101	-0.0759774	-0.528076	-0.143555	-0.898438	0.052444	0.425147	0.0822406	-0.899853	-7.34661	-1.10876	6.12543	-0.0107335	0.0482189	-0.0348942	0.493896	0.202881	-0.890869	0.581924	-0.455657	-0.0606985	-0.670863	6.27566	-4.62154	5.77895	-0.0760241	0.0256754	-0.0182768	-0.58374	0.740723	-0.280762	0.927313	-0.0789596	0.363329	0.042983	-8.08648	-1.44604	8.60177	0.0400369	-0.00512442	0.0239523	1.00415	0.00537109	-0.209229	0.357591	-0.556535	-0.541712	-0.518599	9.38073	2.00246	-2.0331	0.0332326	-0.0582253	-0.0438186	-0.936523	0.218262	0.24292	0.425517	-0.454085	-0.470314	-0.625737	9.91401	1.40416	1.51427	0.000592602	0.0475262	0.00969866	-1.04907	0.185791	-0.0878906	0.423137	-0.475345	-0.536972	-0.553772	9.71932	0.769252	-0.16053	0.572068	-0.0168511	-0.0371593	-1.07959	0.175293	0.0559082	0.433091	-0.329379	-0.0788076	-0.835303	6.47341	-1.81806	7.98526	0.0816025	0.0458975	0.0453381	-0.763428	0.479492	-0.508545	0.283197	-0.896494	-0.287219	0.183312	-1.76332	-6.31646	-7.37181	0.103699	0.0108288	-0.0355222	0.498291	0.788086	0.537598	
69	-0.564073	0.425822	0.404089	0.580698	9.52408	-0.502166	3.30751	0.0194902	0.0305871	-0.0601584	-0.819336	0.403809	-0.258057	0.515906	-0.44999	-0.3883	-0.616906	9.61322	0.225307	3.4857	-0.0246862	0.191134	-0.036413	-0.762695	0.288086	-0.198486	0.731725	-0.0113136	-0.346157	-0.587048	5.64956	3.98982	7.84322	-0.0358953	-0.0249841	-0.0296312	-0.530273	-0.141357	-0.898438	0.0528718	0.426663	0.0823002	-0.899105	-7.48444	-1.06818	6.19675	-0.0301134	0.0705451	0.0352577	0.489258	0.207031	-0.886475	0.583226	-0.453851	-0.0626269	-0.670779	6.65175	-4.60692	5.71037	0.18012	0.0036359	-0.0184774	-0.583252	0.729736	-0.289795	0.927584	-0.0791634	0.362446	0.0441988	-8.20052	-1.24968	8.70044	-0.0554398	-0.0322724	0.0214334	1.00391	0.00756836	-0.209229	0.357874	-0.555675	-0.542963	-0.518018	9.23492	1.54337	-1.92352	0.0775513	0.0227845	-0.0311906	-0.930176	0.220459	0.238525	0.431209	-0.450918	-0.470083	-0.624303	9.41242	2.748	1.53176	0.190885	0.198991	0.0680007	-1.04883	0.183838	-0.0925293	0.429053	-0.470369	-0.54528	-0.545285	9.68312	2.80677	-0.664317	0.568689	-0.0452471	0.0045704	-1.07739	0.179688	0.0537109	0.433928	-0.330109	-0.078414	-0.834617	6.44824	-2.03073	7.89778	-0.0273275	-0.00951899	0.0569014	-0.766113	0.490479	-0.508789	0.282191	-0.8963	-0.28856	0.183703	-1.58805	-6.52158	-7.36424	-0.0638528	-0.04404	-0.0493067	0.50293	0.785889	0.542236	
70	-0.564683	0.423125	0.406604	0.580321	9.52944	0.0772328	3.10031	0.158278	0.000486677	-0.0380622	-0.817139	0.40625	-0.264404	0.517939	-0.44818	-0.39037	-0.615212	9.34967	-0.0603705	2.75587	0.128028	0.166576	0.0196725	-0.756104	0.285889	-0.203125	0.732279	-0.00931932	-0.348256	-0.585148	5.64779	3.92025	8.22061	0.210754	0.0239581	0.038807	-0.531982	-0.154297	-0.905029	0.0549518	0.427146	0.0834444	-0.898646	-7.6366	-1.01093	6.28809	-0.0925995	0.0172075	0.0646577	0.491455	0.204834	-0.88208	0.584467	-0.453185	-0.0631715	-0.670098	6.47676	-4.33489	5.82401	-0.0034279	-0.00609031	0.0471927	-0.581299	0.734131	-0.294434	0.927943	-0.0795404	0.361284	0.0454739	-8.13139	-1.26239	8.75564	-0.0458423	-0.0395715	0.0258523	1.00415	0.00317383	-0.213379	0.358084	-0.554575	-0.544386	-0.517559	9.22779	1.25548	-2.09286	0.163743	-0.000521859	-0.085454	-0.936523	0.218262	0.236328	0.431811	-0.44807	-0.472746	-0.623927	9.8624	2.3978	1.79325	0.0597638	0.0718854	-0.127341	-1.04907	0.186035	-0.097168	0.430945	-0.469802	-0.546875	-0.542679	9.57364	2.26886	-0.110945	0.0259432	-0.00193612	0.0103149	-1.0708	0.186768	0.0534668	0.437011	-0.329304	-0.080234	-0.833152	6.25809	-2.02582	7.99878	0.121411	-0.00785004	0.103563	-0.763916	0.486084	-0.501953	0.282464	-0.895237	-0.290904	0.184767	-1.60516	-5.98044	-7.29514	-0.0681236	-0.0831456	-0.0988016	0.495605	0.794678	0.539795	
71	-0.56685	0.420688	0.408258	0.578817	9.49175	0.331051	3.15015	0.147076	0.0194196	0.0376458	-0.814697	0.399658	-0.268555	0.520354	-0.446191	-0.39209	-0.613523	9.50177	-0.029732	2.8893	0.133505	0.0630223	0.0259237	-0.756104	0.287842	-0.208008	0.733405	-0.00669456	-0.348196	-0.583807	5.61691	4.25888	8.13233	0.0233978	0.0853344	0.0355284	-0.523682	-0.150146	-0.900635	0.0563886	0.426943	0.0844413	-0.89856	-7.58976	-0.969034	6.19545	-0.120897	-0.0111182	0.0691882	0.490967	0.21582	-0.884521	0.586285	-0.452282	-0.0632935	-0.669107	6.47268	-4.60042	5.50871	0.0876593	0.0108853	0.0742059	-0.579102	0.734131	-0.294434	0.927959	-0.0805358	0.360782	0.0473526	-8.05236	-1.47196	8.6909	-0.0634432	-0.0160579	0.0464969	1.00415	0.000976562	-0.207031	0.359953	-0.552313	-0.54505	-0.517981	9.24294	1.50502	-1.84753	0.171929	0.185267	-0.0786626	-0.934326	0.218262	0.236328	0.43299	-0.445482	-0.477358	-0.621447	9.63433	2.07108	1.49463	0.217952	-0.0988757	-0.0136275	-1.05078	0.175049	-0.097168	0.430458	-0.469949	-0.546121	-0.543697	9.67886	1.93534	-0.297886	-0.0598979	0.0235728	-0.0273454	-1.073	0.18457	0.0490723	0.439558	-0.328652	-0.0810898	-0.831986	6.38034	-1.83316	8.23834	0.139115	0.0485236	0.10379	-0.761475	0.486084	-0.508789	0.282189	-0.894182	-0.294237	0.185022	-1.14996	-6.08071	-7.62417	-0.0156082	-0.0397117	-0.150008	0.493408	0.794434	0.541992	
72	-0.569241	0.419719	0.408713	0.576848	9.94593	-0.00881192	3.27654	0.100754	0.0265261	0.0713895	-0.810303	0.404053	-0.268799	0.521483	-0.445369	-0.393041	-0.612553	9.48942	0.154026	2.97015	0.143445	0.0155499	0.0175156	-0.756104	0.285645	-0.210205	0.735285	-0.0054485	-0.346633	-0.582385	5.41512	4.00978	7.95069	0.0513815	0.108564	0.0787147	-0.52124	-0.158936	-0.905029	0.0592849	0.426445	0.0867792	-0.898387	-7.481	-0.886157	6.1657	-0.139812	-0.0059354	0.0640415	0.490967	0.218018	-0.882324	0.588638	-0.452182	-0.0644559	-0.666995	6.52137	-4.43984	5.6765	0.0509432	-0.0723469	0.0720822	-0.570557	0.734131	-0.298828	0.927625	-0.0820482	0.360892	0.0503684	-8.22858	-1.47488	8.45338	-0.13229	0.0161808	0.0855266	1.00024	-0.00756836	-0.215332	0.362749	-0.549422	-0.545418	-0.518718	9.68588	1.67332	-2.02049	0.0903924	0.138498	-0.037423	-0.940674	0.211914	0.22583	0.433188	-0.445959	-0.475841	-0.622128	9.83653	1.69025	1.66783	-0.0260203	0.0654045	-0.00843056	-1.04883	0.183838	-0.0996094	0.431056	-0.469135	-0.54745	-0.542587	9.88453	1.69566	-0.531836	0.275894	-0.00590775	-0.0315178	-1.073	0.184326	0.0537109	0.441286	-0.327523	-0.0818929	-0.831438	6.2864	-1.72015	8.12351	0.144946	0.0569343	0.109945	-0.757324	0.490479	-0.51123	0.281794	-0.89306	-0.297891	0.185196	-1.81466	-6.18595	-7.35031	0.00568499	-0.0576386	-0.127465	0.48877	0.798828	0.535156	
73	-0.571126	0.418592	0.409767	0.575054	9.59429	-0.0644365	3.26617	0.111233	0.00122481	0.0477031	-0.814941	0.404053	-0.268799	0.524737	-0.442892	-0.394184	-0.610833	9.64666	0.23909	3.10089	0.0651711	0.079626	0.0255098	-0.758057	0.285645	-0.214844	0.737745	-0.00360146	-0.347862	-0.578542	5.53061	4.27079	8.18071	0.148909	0.0419529	0.170734	-0.523438	-0.156738	-0.909668	0.0622182	0.426435	0.0878211	-0.898092	-7.66898	-1.13076	6.21759	-0.0742874	0.000669797	0.0930289	0.49292	0.220215	-0.886719	0.59147	-0.453507	-0.0656891	-0.663461	6.89995	-4.49929	5.96991	0.0823745	-0.103472	0.125466	-0.568604	0.740723	-0.294434	0.927082	-0.0842312	0.361296	0.0537477	-8.21746	-1.52743	8.87445	-0.113104	0.0255953	0.0800043	1.00464	-0.00976562	-0.215332	0.366309	-0.545477	-0.546391	-0.519354	9.40725	1.78668	-1.81931	0.138223	0.179344	-0.0607104	-0.936279	0.211914	0.22168	0.435687	-0.44412	-0.478521	-0.619638	9.99224	2.00737	1.49106	0.245048	0.0512115	0.00526494	-1.04663	0.181641	-0.097168	0.432926	-0.467504	-0.550427	-0.539486	9.82848	1.81792	-0.336856	0.187987	-0.0306597	-0.0177782	-1.08203	0.17749	0.0493164	0.444865	-0.327274	-0.0828574	-0.829531	6.26734	-1.76158	7.88117	0.0129956	-0.0520023	0.0994756	-0.75293	0.49292	-0.515869	0.281021	-0.892182	-0.300548	0.186307	-1.69262	-5.95683	-7.4017	-0.0396988	-0.0934302	-0.0913921	0.490967	0.798828	0.535156	
74	-0.57297	0.417356	0.410478	0.573608	9.60061	-0.202946	3.20333	0.0971632	0.0471041	0.0280272	-0.810303	0.399658	-0.270752	0.526075	-0.441613	-0.394888	-0.610152	9.23114	0.0938648	2.73747	0.0878095	0.00668636	-0.00610606	-0.751465	0.283447	-0.217285	0.740254	-0.00121119	-0.346898	-0.575921	5.06923	4.46861	8.05367	0.0361414	0.143961	0.072833	-0.514893	-0.158936	-0.907227	0.0650925	0.426044	0.0909561	-0.897762	-7.61595	-1.2643	5.92856	-0.191487	-0.00343708	0.0418612	0.495117	0.222412	-0.882324	0.593868	-0.453218	-0.0666646	-0.661415	6.35608	-4.43763	5.91545	0.0703655	-0.0267056	0.0903846	-0.568604	0.740723	-0.298828	0.927069	-0.0854776	0.360495	0.0572771	-8.00215	-1.42043	8.99098	-0.0691529	-0.0403602	0.102387	0.998535	-0.0163574	-0.221436	0.368955	-0.542709	-0.547203	-0.519526	9.12022	1.51311	-1.86472	0.17523	0.13186	-0.0460963	-0.940918	0.216309	0.206787	0.437962	-0.442294	-0.480675	-0.61767	9.63853	2.22958	1.32964	0.136127	0.00196193	0.00172119	-1.04663	0.179443	-0.097168	0.436723	-0.463411	-0.555844	-0.534379	9.53976	1.63074	-0.481882	0.419312	0.00188098	-0.0446839	-1.0752	0.182129	0.046875	0.447882	-0.327162	-0.084967	-0.827736	6.22708	-1.48765	7.92256	0.139425	-0.0335062	0.106706	-0.748535	0.49292	-0.513428	0.279759	-0.891138	-0.30389	0.187776	-1.43301	-5.86759	-7.37726	-0.0258678	-0.107926	-0.1111	0.479492	0.803223	0.528076	
75	-0.574483	0.415297	0.411704	0.572711	9.63983	-0.1362	3.34298	0.121317	0.0141301	-0.000296769	-0.808105	0.401855	-0.275146	0.527629	-0.440124	-0.396121	-0.609087	9.43788	0.33113	3.24328	0.105086	0.0176264	-0.012399	-0.755859	0.28125	-0.217041	0.741162	-0.000699902	-0.346146	-0.575205	5.50637	4.33539	7.76756	0.0165967	0.098965	0.06884	-0.512695	-0.16333	-0.911621	0.0679267	0.426068	0.093364	-0.897293	-7.45505	-1.31886	5.88996	-0.115403	0.0187872	0.0685236	0.499512	0.224609	-0.884521	0.597803	-0.450633	-0.0687501	-0.65942	6.56971	-4.35514	5.73399	0.224826	0.00318971	0.0756734	-0.566162	0.734131	-0.303467	0.927191	-0.0863456	0.359483	0.0602775	-7.90798	-1.31195	8.64748	-0.0912249	-0.0308382	0.0711895	0.996338	-0.0185547	-0.212891	0.372121	-0.539068	-0.548437	-0.519757	9.34186	1.72167	-1.66407	0.132394	0.123509	-0.0521275	-0.945312	0.220459	0.204346	0.439424	-0.441339	-0.482738	-0.615703	9.93802	2.01433	1.19083	0.141187	-0.0333239	-0.0125498	-1.05103	0.181641	-0.101807	0.438163	-0.461925	-0.557513	-0.532745	9.67591	2.51339	-0.481066	0.255079	0.0136652	-0.0281831	-1.07739	0.179932	0.0446777	0.451292	-0.327045	-0.0867807	-0.82574	6.61646	-1.67754	7.92435	0.131536	-0.0213965	0.133619	-0.748779	0.497314	-0.515869	0.278712	-0.890676	-0.305862	0.188319	-1.64713	-6.00905	-7.46492	-0.07817	-0.109648	-0.127289	0.483887	0.807617	0.534912	
76	-0.575432	0.414044	0.412206	0.572304	9.98963	-0.05736	3.36691	0.126363	0.0493259	0.00348239	-0.814697	0.401855	-0.277344	0.527974	-0.439716	-0.397191	-0.608385	9.41309	0.316472	3.15213	0.0953458	-0.0249724	-0.0224764	-0.760254	0.283447	-0.219482	0.742789	0.00124336	-0.345973	-0.573207	4.88994	4.0901	7.95996	0.101622	0.0700288	0.0587724	-0.510498	-0.154785	-0.905029	0.0694075	0.426447	0.0943464	-0.896897	-7.38607	-1.22213	5.83255	-0.120664	0.0403516	0.0786443	0.499023	0.233398	-0.880371	0.598661	-0.450466	-0.0694192	-0.658685	6.25081	-4.10101	5.83722	0.077373	-0.0374079	0.0417283	-0.566406	0.743164	-0.305908	0.927194	-0.0872621	0.359019	0.0616559	-7.84097	-1.26389	8.65799	-0.106797	-0.0261131	0.0578632	1.00049	-0.0163574	-0.219238	0.374681	-0.536257	-0.550162	-0.519003	9.57342	1.41148	-1.94417	0.191113	0.0819465	-0.0555628	-0.942871	0.214111	0.196045	0.441065	-0.439849	-0.484118	-0.614512	10.1789	1.91587	1.50858	0.228829	0.0623675	9.7721e-05	-1.05347	0.186035	-0.106689	0.439978	-0.459775	-0.559623	-0.530894	9.84852	1.61939	-0.517813	0.16028	0.017539	-0.0250758	-1.06836	0.187012	0.0380859	0.452727	-0.327477	-0.0878581	-0.824668	6.28364	-1.49974	7.80643	0.103427	-0.0724347	0.111726	-0.755371	0.49707	-0.51123	0.277689	-0.889367	-0.309408	0.190216	-1.85167	-5.53151	-7.49896	-0.0413098	-0.141156	-0.105926	0.481934	0.803223	0.530518	
77	-0.577712	0.41034	0.412589	0.572399	9.32413	-0.0600855	3.46771	0.133937	0.11223	-0.0218605	-0.810059	0.399902	-0.283691	0.528946	-0.439068	-0.399997	-0.606166	9.42299	0.126464	3.01762	0.130091	-0.0600647	0.00168599	-0.758301	0.285645	-0.219727	0.743838	0.00397348	-0.349003	-0.569988	5.42631	4.46061	8.04786	0.204386	-0.0113453	0.0938607	-0.512451	-0.169922	-0.906982	0.0725805	0.427712	0.094933	-0.895981	-7.56693	-1.30821	6.03871	-0.0537459	0.0590226	0.119047	0.49707	0.229004	-0.882324	0.599689	-0.451942	-0.0706151	-0.656609	6.73656	-4.73813	5.67403	0.0696349	-0.0955281	0.0549162	-0.559814	0.740723	-0.30127	0.927034	-0.0899496	0.358354	0.0640285	-8.12092	-1.36332	8.7673	-0.135233	-0.0094696	0.0235144	0.998535	-0.0205078	-0.221436	0.378073	-0.532449	-0.551513	-0.51903	9.27405	2.02523	-1.48302	0.113904	0.148389	-0.0476147	-0.945068	0.211914	0.191895	0.443738	-0.437767	-0.489209	-0.610026	9.79936	2.15077	1.333	0.195376	-0.0547309	0.0257477	-1.04883	0.183838	-0.104248	0.442306	-0.456979	-0.561811	-0.529059	9.7905	1.71898	-0.860551	0.0854587	0.048374	-0.0375396	-1.07275	0.179932	0.0336914	0.455681	-0.32801	-0.0913035	-0.822452	6.6088	-1.46044	7.91086	0.152135	-0.0918861	0.0963497	-0.750977	0.497314	-0.515869	0.275247	-0.888563	-0.312761	0.192028	-1.41854	-5.70302	-7.70117	-0.0502039	-0.123406	-0.0905647	0.486328	0.803223	0.532715	
78	-0.579021	0.407628	0.414393	0.571709	9.60864	-0.107383	3.36308	0.138136	0.0190759	-0.0355185	-0.805664	0.397705	-0.296631	0.529192	-0.438846	-0.402229	-0.604633	9.29875	0.333331	3.08177	-0.00221244	0.0100539	-0.0361411	-0.758301	0.285645	-0.219727	0.745088	0.00479988	-0.349808	-0.567851	5.36677	4.19318	8.13925	0.0457123	0.0250113	0.0866325	-0.510498	-0.167725	-0.909424	0.0761024	0.428858	0.095435	-0.895087	-7.55106	-1.17348	6.04331	-0.0776214	0.0475019	0.125151	0.505615	0.235596	-0.878174	0.601862	-0.451012	-0.073854	-0.654901	6.403	-4.08435	5.94074	0.105938	-0.0828796	0.0159531	-0.561768	0.736572	-0.308105	0.926992	-0.092847	0.357407	0.0657719	-7.86094	-1.38663	8.80599	-0.136396	-0.0259148	0.00359576	0.998535	-0.0185547	-0.223633	0.378509	-0.531929	-0.55176	-0.518984	9.29381	1.54921	-1.59643	0.0624253	0.0424897	-0.0295793	-0.945068	0.216309	0.18335	0.443899	-0.437935	-0.490448	-0.608792	9.65075	2.36364	1.55752	0.112848	-0.0730875	-0.00198673	-1.04663	0.183838	-0.097168	0.445231	-0.453301	-0.562931	-0.52858	9.39792	2.38066	-0.271486	0.0863007	0.123009	-0.0513332	-1.07251	0.175537	0.0292969	0.458254	-0.328447	-0.0939679	-0.820546	6.54739	-1.38281	7.8301	0.121828	-0.0719871	0.0877729	-0.746582	0.499512	-0.511475	0.272317	-0.887901	-0.316267	0.193521	-1.64659	-5.87693	-7.55692	-0.0527067	-0.121362	-0.0958055	0.486084	0.807617	0.530273	
79	-0.580416	0.403562	0.416226	0.571848	9.5033	0.107244	3.44933	0.158367	0.0594087	-0.0595894	-0.807373	0.391357	-0.300781	0.529911	-0.438959	-0.406136	-0.601302	9.67253	0.206405	2.93079	0.135103	-0.0305049	0.0124817	-0.762451	0.283447	-0.217285	0.747011	0.00670204	-0.351559	-0.564213	5.41616	4.43047	7.96067	0.197906	0.03912	0.117067	-0.508301	-0.169922	-0.911621	0.0796934	0.429135	0.0959784	-0.894584	-7.80016	-1.14128	6.00138	-0.0845588	0.0123569	0.12179	0.501221	0.233398	-0.871582	0.603428	-0.451348	-0.0757088	-0.653014	6.87956	-4.45446	5.70312	0.103546	-0.0887626	0.0451757	-0.559814	0.740967	-0.305664	0.927061	-0.0949025	0.356466	0.0669556	-8.0108	-1.49282	8.8131	-0.103229	-0.0160638	-0.00885475	0.998535	-0.0205078	-0.221436	0.381009	-0.529378	-0.552735	-0.518724	9.40692	1.76872	-1.81515	0.111418	0.162068	-0.0417785	-0.951416	0.211914	0.181152	0.44368	-0.437628	-0.492511	-0.607505	10.0005	1.89966	2.01126	0.120038	0.0016741	-0.0477444	-1.05078	0.177246	-0.0947266	0.444933	-0.453075	-0.560948	-0.531126	9.70042	2.5169	0.166371	-0.161008	0.0669429	-0.0411923	-1.0752	0.180176	0.0268555	0.459834	-0.329707	-0.0969967	-0.818803	6.70919	-1.29826	7.71128	0.0962849	-0.111069	0.0515188	-0.753174	0.499268	-0.513672	0.269637	-0.887707	-0.31813	0.195106	-1.5837	-5.87224	-7.52295	-0.0696277	-0.100426	-0.021337	0.486328	0.801025	0.530518	
80	-0.581666	0.400413	0.418365	0.571232	9.48762	0.288755	3.41221	0.148764	0.0192528	-0.0368847	-0.80957	0.391357	-0.302979	0.53017	-0.439326	-0.40939	-0.598592	9.57684	0.322902	2.43109	0.0921288	-0.111485	-0.00191524	-0.760254	0.281494	-0.207764	0.748124	0.00712642	-0.352107	-0.562388	5.48139	4.40029	7.73867	0.00368322	0.010094	0.0632025	-0.510498	-0.167725	-0.911621	0.0830372	0.429636	0.0961772	-0.894018	-7.78258	-0.950051	5.81711	-0.0491978	0.0270045	0.120542	0.503418	0.237793	-0.873779	0.605163	-0.450755	-0.0789408	-0.651434	6.73847	-4.09021	5.65078	0.0993507	-0.0932177	0.0246092	-0.562012	0.740967	-0.305664	0.926833	-0.0978595	0.356077	0.0679144	-8.03701	-1.69774	8.79237	-0.120324	0.0160246	-0.0280258	0.998779	-0.0227051	-0.223389	0.382906	-0.527888	-0.553404	-0.518133	9.45671	1.71538	-1.66984	0.0778797	0.102158	-0.00805431	-0.947266	0.214111	0.174805	0.444235	-0.435669	-0.494713	-0.606719	9.80533	2.12054	1.87631	0.106771	0.0162135	-0.0482669	-1.04663	0.179443	-0.101807	0.443583	-0.454044	-0.560944	-0.531432	9.68841	1.63998	0.0359961	0.0178022	-0.0649187	-0.0276291	-1.07251	0.17334	0.0292969	0.459696	-0.331074	-0.0979466	-0.818215	6.67638	-1.10391	8.03752	0.00793543	-0.0639357	0.000794712	-0.757812	0.501465	-0.509033	0.268113	-0.888037	-0.317766	0.196289	-1.41543	-6.35401	-7.71217	-0.014784	-0.0281346	0.0517777	0.486572	0.796631	0.52832	
81	-0.581788	0.39916	0.420748	0.570232	9.7404	0.349257	3.29881	0.0840943	-0.0612136	-0.0384143	-0.815918	0.386963	-0.302979	0.530006	-0.439824	-0.411472	-0.596941	9.89077	0.509635	2.80341	0.0509312	-0.0802786	-0.0256852	-0.762207	0.274902	-0.212158	0.748728	0.00840088	-0.354464	-0.560081	5.38585	4.41457	8.1012	0.162249	-0.0237833	0.0620747	-0.510254	-0.180908	-0.913574	0.0853259	0.430714	0.0951367	-0.893395	-7.756	-0.897086	5.88156	0.0152684	0.0430174	0.0956028	0.512451	0.233643	-0.873779	0.605914	-0.451774	-0.0809077	-0.649787	7.05951	-4.05672	5.65444	0.0466188	-0.0894611	-0.00592692	-0.562012	0.743164	-0.308105	0.926411	-0.100833	0.356283	0.0682437	-7.9772	-2.01217	8.77508	-0.0950007	0.038154	-0.0504164	1.00269	-0.0163574	-0.223633	0.38418	-0.527045	-0.552755	-0.518741	9.73482	1.66495	-1.52279	-0.00119783	0.0645888	-0.00132838	-0.953857	0.216309	0.174805	0.444542	-0.435196	-0.494219	-0.607235	10.1239	2.1904	1.30047	0.020712	0.0740941	-0.0187337	-1.04858	0.177246	-0.0993652	0.441249	-0.456205	-0.561016	-0.531449	9.83829	1.37038	-0.105818	0.0498752	-0.100412	-0.0216388	-1.07251	0.175537	0.0380859	0.459219	-0.331868	-0.0977735	-0.818182	6.62193	-1.5063	8.05435	-0.0073559	0.00484712	-0.0289413	-0.757568	0.494873	-0.504395	0.269024	-0.88804	-0.316552	0.196993	-1.53468	-5.58473	-7.84842	0.00605016	0.00338726	0.0414001	0.495361	0.803467	0.530518	
82	-0.581215	0.398527	0.421987	0.570344	9.61634	0.339286	3.20603	0.0212682	-0.00806895	-0.0446549	-0.809326	0.384766	-0.307373	0.529137	-0.441171	-0.412765	-0.595825	9.56249	0.0714653	2.4865	-0.0171281	-0.115118	-0.0104562	-0.760254	0.281494	-0.205322	0.748877	0.00839638	-0.355713	-0.55909	5.38839	4.56986	8.11759	0.0842409	-0.0650375	0.0655653	-0.510254	-0.180908	-0.904297	0.0859062	0.431348	0.0935395	-0.893202	-8.07582	-0.996813	5.96821	0.0581976	0.0109366	0.037484	0.505859	0.229248	-0.880127	0.604683	-0.45316	-0.0818047	-0.649855	6.84966	-4.32411	5.70188	-0.0364535	-0.0330588	-0.0559898	-0.568359	0.736328	-0.30127	0.926361	-0.102105	0.356188	0.0675345	-7.99363	-1.91438	9.12479	-0.00497061	0.0193977	-0.063879	1.00049	-0.0163574	-0.219238	0.38456	-0.526815	-0.552634	-0.518821	9.45522	1.64376	-1.77839	0.0465335	0.0169406	-0.0262476	-0.949707	0.218506	0.17041	0.444916	-0.434296	-0.493509	-0.608182	9.59948	2.2735	1.20644	0.0379503	0.0243067	-0.0542167	-1.04639	0.172852	-0.104004	0.440662	-0.456997	-0.563152	-0.528989	9.61358	2.18688	-0.428166	-0.0377643	-0.116759	0.00406498	-1.07275	0.177734	0.0424805	0.458179	-0.331736	-0.0982035	-0.818767	6.87014	-1.33454	8.14035	0.0343535	0.025334	-0.0354358	-0.755371	0.49707	-0.51123	0.269053	-0.888622	-0.315327	0.196292	-1.43695	-6.4004	-7.80822	0.0869218	0.0714137	0.0321869	0.490967	0.798828	0.532715	
83	-0.580564	0.400304	0.421805	0.569897	9.76282	0.320581	3.23389	-0.0776898	-0.0769404	0.0431382	-0.811768	0.38916	-0.298828	0.52785	-0.44201	-0.413709	-0.595691	9.97657	0.361617	2.70414	-0.0144992	-0.0582173	-0.0724308	-0.768799	0.279297	-0.202881	0.747912	0.0063671	-0.356339	-0.560009	5.51991	4.45702	8.01156	-0.0983783	-0.02918	-0.0799695	-0.516846	-0.172119	-0.906982	0.0854251	0.431103	0.092483	-0.893476	-7.82107	-0.954015	6.09157	0.0593865	-0.0116215	-0.00673386	0.503906	0.226807	-0.873535	0.603239	-0.452821	-0.0825218	-0.651342	7.14609	-4.07689	5.67745	-0.0306041	0.0273087	-0.131765	-0.568359	0.738525	-0.305908	0.926476	-0.101977	0.35637	0.0651383	-8.23446	-1.84837	8.73479	0.0407675	0.0292432	-0.119948	1.00269	-0.0141602	-0.221436	0.383862	-0.526576	-0.551459	-0.520827	9.84294	1.83868	-1.45445	-0.0817855	0.05811	-0.0296576	-0.949219	0.211914	0.172607	0.445256	-0.434986	-0.492282	-0.608435	9.65986	2.08941	0.631416	-0.039808	0.00506109	0.044086	-1.04883	0.179443	-0.106445	0.440688	-0.45762	-0.563671	-0.527876	9.79613	1.24073	-1.44087	0.109282	-0.00795432	0.000550789	-1.07251	0.175293	0.0424805	0.457239	-0.331064	-0.0970322	-0.819704	6.5446	-1.77262	8.10076	-0.0303066	0.0704696	-0.0322758	-0.755371	0.494873	-0.502197	0.269631	-0.888791	-0.315103	0.195091	-1.58363	-5.94437	-7.74023	-0.0209212	0.0527659	-0.0238576	0.48877	0.796631	0.537354	
84	-0.57943	0.401934	0.421336	0.570251	9.84752	0.171156	3.15882	-0.144358	-0.082377	0.000367698	-0.813721	0.384766	-0.296631	0.527104	-0.441917	-0.4132	-0.596772	9.91778	0.505631	2.81696	-0.0911163	0.0534788	-0.0847259	-0.76001	0.2771	-0.205322	0.747267	0.00529723	-0.356219	-0.560957	5.66182	4.28292	7.79703	-0.0943736	-0.0540104	-0.0565417	-0.519043	-0.169922	-0.904785	0.0848758	0.43132	0.0915702	-0.893518	-7.70418	-0.889581	6.01587	0.0881622	0.0180661	-0.00527979	0.501709	0.224609	-0.880127	0.601144	-0.453946	-0.0818963	-0.652573	7.07093	-4.17485	5.92533	-0.171591	0.00994698	-0.152978	-0.57251	0.729736	-0.30127	0.926614	-0.102314	0.35618	0.0636752	-8.29824	-1.77643	8.80852	0.0200863	0.00948349	-0.135616	1.00024	-0.00976562	-0.219482	0.383559	-0.526439	-0.550443	-0.522261	9.69417	1.58833	-1.61919	-0.0987849	0.0944906	-0.0354171	-0.95166	0.218506	0.174561	0.445279	-0.43603	-0.492462	-0.607524	9.96997	1.96453	1.0121	0.0126882	-0.0720294	0.0518149	-1.04883	0.181641	-0.108887	0.44341	-0.45513	-0.566099	-0.525144	9.88757	1.63675	-0.702909	0.418671	0.0469207	-0.0082941	-1.07031	0.177734	0.0380859	0.457219	-0.330324	-0.0979216	-0.819908	6.49445	-1.68671	7.56971	0.0867242	0.0348339	-0.0343892	-0.755371	0.49707	-0.513672	0.269698	-0.888806	-0.315292	0.194622	-2.07149	-5.38863	-7.42606	-0.00684566	0.0361503	-0.0288293	0.488525	0.803223	0.532715	
85	-0.576885	0.403779	0.41989	0.57259	9.65794	-0.105538	3.10504	-0.140012	0.0119024	-0.0645198	-0.807129	0.384766	-0.292236	0.525319	-0.442832	-0.412731	-0.597991	9.29698	0.195759	2.55725	-0.0632952	-0.0288214	-0.0575224	-0.762207	0.2771	-0.202881	0.74624	0.0058659	-0.358346	-0.560963	5.43389	4.47963	7.90881	0.1121	-0.0410762	-0.0423651	-0.516846	-0.172119	-0.90918	0.0832851	0.432166	0.0903995	-0.893378	-7.85174	-0.839505	6.09769	0.038893	0.04726	-0.0444744	0.510498	0.227051	-0.87793	0.598417	-0.45449	-0.0801633	-0.654912	6.56272	-4.74415	5.95954	-0.115902	0.0648321	-0.10108	-0.572754	0.734131	-0.296631	0.927235	-0.100806	0.355371	0.0615228	-8.24252	-1.68916	8.8898	0.112719	-0.0267704	-0.0546117	1.00024	-0.00976562	-0.223877	0.382609	-0.525815	-0.550339	-0.523694	8.97962	1.6672	-1.59378	0.021658	0.0329851	-0.0391204	-0.949463	0.214111	0.168457	0.445142	-0.438144	-0.49255	-0.60603	9.56463	1.78393	0.731936	0.045589	-0.0977344	0.0357325	-1.04468	0.183838	-0.0925293	0.445412	-0.453596	-0.566423	-0.524427	9.59355	1.77872	-0.784186	0.0718348	0.0750857	-0.0126217	-1.0752	0.179932	0.0380859	0.457244	-0.329852	-0.099919	-0.819842	6.62051	-1.49088	7.68181	0.07232	-0.0114877	-0.00675243	-0.761719	0.490479	-0.51123	0.267421	-0.88919	-0.316638	0.193824	-1.88653	-5.84578	-7.49394	-0.0552442	-0.0140652	-0.045988	0.495605	0.799072	0.537354	
86	-0.575954	0.403769	0.419125	0.574092	9.31602	-0.115625	3.22411	-0.0297869	0.0118486	-0.0468138	-0.809326	0.382568	-0.296387	0.523929	-0.443054	-0.414821	-0.597599	9.37617	0.305884	2.41637	0.0374721	-0.0862368	-0.0773258	-0.768311	0.268311	-0.200195	0.744501	0.00598795	-0.3577	-0.563678	5.72838	4.29535	7.51844	-0.102389	0.0140233	-0.136468	-0.518799	-0.17627	-0.9021	0.0819946	0.433767	0.091256	-0.892634	-7.62248	-0.731683	5.88176	-0.00689762	0.0941969	-0.0431095	0.512939	0.222656	-0.873535	0.599528	-0.451111	-0.0811094	-0.656114	6.46439	-4.27312	5.5726	0.129458	0.100912	-0.0259961	-0.574707	0.729736	-0.303467	0.927831	-0.0990221	0.354406	0.0610044	-7.96957	-1.59614	8.68508	0.0733918	-0.0273554	-0.00515418	0.998291	-0.0119629	-0.223633	0.382439	-0.525541	-0.550668	-0.523748	9.29506	1.70724	-1.65684	0.0275797	0.00654228	-0.0509462	-0.953613	0.209717	0.16626	0.445374	-0.438714	-0.494445	-0.603901	9.64494	2.02451	1.368	0.0437224	-0.0499362	-0.0024509	-1.04883	0.181641	-0.0925293	0.44817	-0.45071	-0.5681	-0.522749	9.58626	2.24915	-0.382836	0.0628729	0.0523994	-0.0220944	-1.07764	0.18457	0.0290527	0.457952	-0.330041	-0.101782	-0.819142	6.33817	-1.47432	7.6704	0.0554158	-0.0490529	0.0142601	-0.757324	0.492676	-0.51123	0.26509	-0.889208	-0.318485	0.193916	-1.69021	-5.85875	-7.36441	-0.0645354	-0.0522675	-0.048439	0.490967	0.80127	0.535156	
