40	Head	00b4120a												Throax	00b411e8												LUpArm	00b411d9												LFoArm	00b41148												RUpArm	00b411db												RFoArm	00b41204												Waist	00b411f7												Lthigh	00b411f4												Lshank	00b4111b												Rthigh	00b411c8												Rshank	00b411ee												
PacketCount	q0	q1	q2	q3	accX	accY	accZ	gyrX	gyrY	gyrZ	magX	magY	magZ	q0	q1	q2	q3	accX	accY	accZ	gyrX	gyrY	gyrZ	magX	magY	magZ	q0	q1	q2	q3	accX	accY	accZ	gyrX	gyrY	gyrZ	magX	magY	magZ	q0	q1	q2	q3	accX	accY	accZ	gyrX	gyrY	gyrZ	magX	magY	magZ	q0	q1	q2	q3	accX	accY	accZ	gyrX	gyrY	gyrZ	magX	magY	magZ	q0	q1	q2	q3	accX	accY	accZ	gyrX	gyrY	gyrZ	magX	magY	magZ	q0	q1	q2	q3	accX	accY	accZ	gyrX	gyrY	gyrZ	magX	magY	magZ	q0	q1	q2	q3	accX	accY	accZ	gyrX	gyrY	gyrZ	magX	magY	magZ	q0	q1	q2	q3	accX	accY	accZ	gyrX	gyrY	gyrZ	magX	magY	magZ	q0	q1	q2	q3	accX	accY	accZ	gyrX	gyrY	gyrZ	magX	magY	magZ	q0	q1	q2	q3	accX	accY	accZ	gyrX	gyrY	gyrZ	magX	magY	magZ	
0	-0.0483308	-0.174987	0.0670337	0.981096	-3.66034	1.53884	10.1876	0.000897706	-0.00303259	0.00142409	0.0578613	0.0581055	-1.13403	-0.00673266	0.19957	0.00195077	-0.979858	-3.88325	-0.0324782	9.33176	-0.0180832	0.00841927	-0.0177688	0.243652	0.11084	-1.04712	0.101198	0.0410879	-0.560955	-0.82061	0.470466	9.4886	3.72682	0.0365173	0.00216873	0.00693147	-0.465576	-0.911377	-0.547363	0.0573738	0.244434	-0.93708	-0.242571	-0.102556	4.71343	-8.55924	0.00647586	0.00411232	0.00321311	-0.446777	-0.704102	0.739502	-0.0758177	-0.071085	0.65401	-0.749313	2.01864	-9.47602	1.28768	0.0179374	0.00358852	-0.0130722	-0.424072	1.15967	-0.0456543	0.0326258	-0.0399529	0.983918	-0.171009	-0.359612	-2.21852	-6.01728	0.00961885	0.0129779	-0.0164695	-0.190186	0.328125	0.898438	0.115441	-0.045254	-0.0427747	-0.991361	1.12662	0.686436	10.4036	0.0193969	0.0811633	-0.00673517	-0.443604	0.00683594	-0.994873	0.0738383	-0.0325641	0.0213234	-0.99651	0.653675	-0.528042	11.0758	0.00360375	0.0150924	-0.0143272	-0.506592	0.119629	-1.03955	0.0967821	-0.0423751	-0.0473034	-0.993277	1.00022	0.915444	10.5195	0.00410483	0.0052856	-0.0154145	-0.52832	-0.0146484	-1.06299	-0.00919128	-0.0502804	0.00222144	-0.99869	1.13981	-0.152158	10.4398	0.00220003	0.0101738	0.00327889	-0.504883	-0.00634766	-0.961914	-0.131431	-0.0225353	0.114895	-0.984387	0.789712	-2.11712	9.541	0.000270709	0.00424512	-0.00269338	-0.548584	0.119629	-1.06104	
1	-0.047972	-0.175022	0.0674238	0.981081	-3.71441	1.49975	10.2002	0.026355	-0.00801479	-0.0137713	0.0668945	0.0561523	-1.13403	-0.00669463	0.199467	0.00231918	-0.979879	-3.91129	-0.0253626	9.26179	-0.0160933	0.00733714	-0.0158722	0.243652	0.113037	-1.0542	0.101344	0.040972	-0.56016	-0.82114	0.551452	9.43363	3.6717	-0.0296773	0.00940742	-0.00315539	-0.465332	-0.917969	-0.547363	0.0572674	0.244495	-0.937039	-0.242696	-0.119344	4.70717	-8.57275	-0.0107239	0.00263668	-0.00388818	-0.444092	-0.712891	0.743896	-0.07573	-0.0710304	0.653889	-0.749432	2.00573	-9.42083	1.31522	-0.00212549	0.0117446	-0.00869753	-0.424316	1.16626	-0.050293	0.0326789	-0.0400126	0.983885	-0.171178	-0.372273	-2.23381	-6.00736	0.00854822	0.0128572	-0.0183235	-0.192383	0.330078	0.89624	0.115581	-0.0445802	-0.0430078	-0.991365	1.04779	0.684752	10.4517	0.0415355	0.0658007	-0.0067561	-0.443604	0.00708008	-0.99707	0.0738552	-0.0325184	0.0213163	-0.996511	0.645918	-0.520872	11.098	-0.000353586	0.0178902	-0.0143225	-0.511475	0.128418	-1.03955	0.0968079	-0.0424161	-0.0470786	-0.993284	1.01079	0.873467	10.5269	-0.00451275	0.00604318	-0.0169711	-0.526123	-0.0146484	-1.06519	-0.009142	-0.0501288	0.00229562	-0.998698	1.10936	-0.167035	10.4651	-0.00332435	0.0139248	0.00481819	-0.504639	-0.0107422	-0.966553	-0.131461	-0.0224501	0.114967	-0.984376	0.780848	-2.11475	9.54745	-0.00267861	0.00743501	-0.00256742	-0.548584	0.119629	-1.05884	
2	-0.0475441	-0.175067	0.0681538	0.981043	-3.67615	1.61799	10.1676	0.0298684	0.00186646	-0.0106234	0.0649414	0.0517578	-1.13623	-0.00661129	0.199359	0.00250534	-0.979901	-3.94734	-0.071385	9.32868	-0.0245573	0.00600649	-0.0142019	0.248047	0.113037	-1.04956	0.101362	0.0409567	-0.560407	-0.82097	0.450684	9.44208	3.75414	0.0243656	0.00415255	0.003201	-0.463379	-0.911377	-0.552002	0.0574556	0.244494	-0.936976	-0.242892	-0.11094	4.71163	-8.53978	-0.000555648	0.00913923	0.00223102	-0.442139	-0.708252	0.739502	-0.0756837	-0.0709529	0.65381	-0.749514	1.98162	-9.51683	1.27697	0.00821369	0.0106234	-0.00797792	-0.424561	1.16846	-0.0524902	0.0327091	-0.0400658	0.983887	-0.171148	-0.363054	-2.2414	-6.02444	-0.000197087	0.0120768	-0.0193747	-0.187988	0.330322	0.89624	0.115837	-0.0435937	-0.0428902	-0.991384	1.04722	0.732702	10.5009	0.0106962	0.0547585	-0.00563124	-0.435059	0.0090332	-0.99292	0.0738855	-0.0325238	0.0214058	-0.996506	0.652334	-0.538551	11.0914	-0.00250674	0.0170787	-0.0132766	-0.509033	0.126221	-1.03735	0.0967954	-0.0424175	-0.0469814	-0.99329	0.993927	0.832089	10.5226	0.00417523	0.00655042	-0.0182826	-0.526123	-0.0146484	-1.06299	-0.00917881	-0.0501273	0.00239231	-0.998698	1.11012	-0.162775	10.4642	-0.00173979	0.0144082	0.00397388	-0.502686	-0.00854492	-0.964355	-0.131443	-0.0224633	0.115019	-0.984372	0.777774	-2.12981	9.53825	-0.00259987	0.00700377	-0.0022717	-0.55542	0.121826	-1.05884	
3	-0.0474496	-0.175258	0.068375	0.980998	-3.75184	1.70806	10.1776	0.00210106	-0.00142919	0.0034041	0.0605469	0.0473633	-1.13403	-0.00696207	0.199909	0.00331301	-0.979784	-3.93492	-0.132004	9.29445	-0.0221739	0.0196799	-0.0195484	0.248047	0.113037	-1.04956	0.10142	0.0410472	-0.560242	-0.821071	0.480858	9.37154	3.71634	-0.00916535	0.00510339	-0.00384651	-0.467529	-0.917969	-0.551758	0.0573539	0.2445	-0.936989	-0.242861	-0.112733	4.71147	-8.58066	0.0016737	0.0015869	-0.00103396	-0.444092	-0.710693	0.743896	-0.0759924	-0.071111	0.653322	-0.749893	2.01377	-9.4154	1.29713	0.015866	0.00636352	-0.0140372	-0.424316	1.16626	-0.0524902	0.0323749	-0.0404564	0.983826	-0.171471	-0.367342	-2.23196	-6.03224	0.00879042	0.0124897	-0.0174379	-0.192383	0.330078	0.89624	0.116011	-0.042597	-0.0425314	-0.991422	1.01305	0.648583	10.4645	0.00988501	0.0521287	-0.0109316	-0.432861	0.00708008	-0.999268	0.0735332	-0.0321031	0.0214865	-0.996544	0.628023	-0.540026	11.1037	-0.000109991	0.0172139	-0.0143552	-0.510986	0.119629	-1.04419	0.0968246	-0.0423584	-0.047131	-0.993282	0.985326	0.894189	10.5234	0.00918094	0.00826447	-0.0159933	-0.523682	-0.0146484	-1.06519	-0.00911537	-0.0499447	0.00229895	-0.998708	1.10252	-0.173594	10.4459	0.00515706	0.0142384	0.00451821	-0.504883	-0.00854492	-0.964355	-0.131488	-0.0223201	0.114851	-0.984389	0.772292	-2.10383	9.54497	0.00553749	0.0105619	-0.00421398	-0.552979	0.119629	-1.06787	
4	-0.0477727	-0.175276	0.0680978	0.980999	-3.72934	1.63178	10.1834	-0.017695	-0.000258442	0.0116027	0.0627441	0.0517578	-1.13184	-0.00702033	0.199847	0.00313399	-0.979797	-3.94574	-0.0716399	9.29922	-0.00339938	0.0162757	-0.0173658	0.250244	0.113037	-1.04956	0.101394	0.0410985	-0.560857	-0.820652	0.459585	9.48032	3.66563	0.029033	0.0112477	-0.00198542	-0.465576	-0.911377	-0.547363	0.0572982	0.244479	-0.937028	-0.242745	-0.104433	4.69931	-8.54212	0.011561	0.00447974	0.00116775	-0.439697	-0.710449	0.739502	-0.076015	-0.071088	0.653533	-0.749708	1.98119	-9.41238	1.38823	-0.0231853	0.0076634	-0.0149691	-0.42627	1.15747	-0.0524902	0.0324776	-0.0404772	0.983828	-0.171431	-0.377641	-2.22486	-6.03125	-0.00139967	0.0115626	-0.0166013	-0.192383	0.330078	0.89209	0.116132	-0.0418608	-0.0426602	-0.991434	1.00392	0.683427	10.4544	0.0215694	0.0432066	-0.0111858	-0.439209	0.00488281	-0.999268	0.0735773	-0.0321273	0.0212591	-0.996545	0.63436	-0.523989	11.0912	0.0158307	0.0148728	-0.0137817	-0.515625	0.124023	-1.04419	0.0968206	-0.0423684	-0.0470862	-0.993284	0.990168	0.884664	10.5345	0.00152607	0.00666836	-0.0183786	-0.52124	-0.0168457	-1.06519	-0.00914703	-0.0499824	0.00227934	-0.998706	1.08778	-0.164562	10.4674	0.00197362	0.0123678	0.0031514	-0.502441	-0.0107422	-0.966553	-0.131502	-0.0223502	0.114895	-0.984381	0.774524	-2.12395	9.54633	-0.00171508	0.00648517	-0.00459349	-0.548584	0.121826	-1.06104	
5	-0.0480037	-0.175266	0.0676822	0.981018	-3.68513	1.5578	10.1971	-0.0157584	-0.00262535	0.00462338	0.0581055	0.0559082	-1.13184	-0.00701353	0.199807	0.0030501	-0.979805	-3.89491	-0.0515506	9.21382	-0.00482061	0.0119811	-0.0163606	0.246094	0.108643	-1.04932	0.10142	0.0411032	-0.560267	-0.821051	0.515541	9.43343	3.63469	-0.0349064	0.0158875	-0.00873195	-0.467773	-0.911377	-0.552002	0.0572276	0.244502	-0.937087	-0.242513	-0.110699	4.70296	-8.57517	0.00547125	0.00712937	0.00139649	-0.442139	-0.706055	0.739502	-0.0762775	-0.0712923	0.653332	-0.749838	2.00395	-9.44847	1.32807	-0.00511708	0.00169436	-0.0158645	-0.424316	1.16626	-0.0456543	0.0325601	-0.0405027	0.983765	-0.171773	-0.353581	-2.21632	-6.03933	0.0201925	0.0123962	-0.0170265	-0.192383	0.328125	0.89624	0.116325	-0.0407363	-0.0424615	-0.991467	0.987992	0.715784	10.4548	0.0157319	0.0569748	-0.00897008	-0.432861	0.00708008	-1.00146	0.0735778	-0.032188	0.0212805	-0.996543	0.649855	-0.510643	11.0798	-0.000840148	0.0151815	-0.0159248	-0.515625	0.126221	-1.04419	0.0968119	-0.0423914	-0.0469707	-0.99329	1.00136	0.857903	10.5402	-0.000453068	0.00647873	-0.0182237	-0.52124	-0.019043	-1.06274	-0.00922143	-0.0500426	0.00230996	-0.998702	1.12398	-0.181458	10.4417	0.00321609	0.0122949	0.00167825	-0.506836	-0.0107422	-0.961914	-0.131501	-0.0223616	0.114911	-0.984379	0.784658	-2.13345	9.55033	0.00161781	0.00973876	-0.00312652	-0.551025	0.124023	-1.05884	
6	-0.0480606	-0.175424	0.0674133	0.981006	-3.71073	1.52784	10.1929	-0.00829405	0.00468584	0.00137249	0.0556641	0.0581055	-1.13208	-0.00696315	0.199614	0.00310826	-0.979845	-3.91161	-0.0538239	9.33208	-0.0103732	0.00436825	-0.0189514	0.241455	0.115234	-1.052	0.101441	0.0410545	-0.560615	-0.820813	0.492923	9.46888	3.68173	0.0123196	0.0101937	0.00395375	-0.467529	-0.915771	-0.547363	0.0572745	0.244488	-0.937045	-0.242675	-0.107274	4.69297	-8.55582	-0.00298355	0.00256407	0.000485832	-0.446289	-0.712891	0.741699	-0.0762127	-0.0712393	0.652943	-0.750188	2.02097	-9.41945	1.31914	0.0447922	0.0147388	-0.00972454	-0.424316	1.16626	-0.043457	0.0326179	-0.040583	0.983709	-0.172066	-0.36053	-2.24587	-6.03289	0.00761082	0.0126128	-0.020865	-0.190186	0.330078	0.89209	0.116554	-0.0396428	-0.0424956	-0.991483	0.9918	0.7164	10.4607	0.0243951	0.0635257	-0.00683488	-0.430664	0.00927734	-1.00366	0.0736067	-0.0321979	0.021358	-0.996539	0.646897	-0.528688	11.1096	0.00277726	0.0171474	-0.013258	-0.513428	0.126221	-1.04419	0.0968229	-0.0423716	-0.0469769	-0.993289	1.00945	0.844213	10.5279	0.00943044	0.00736222	-0.017976	-0.521484	-0.0100098	-1.06299	-0.00923729	-0.0500738	0.00211689	-0.998701	1.0981	-0.156949	10.4746	0.0116224	0.0121259	0.00385781	-0.502441	-0.0107422	-0.966553	-0.131519	-0.0223459	0.114857	-0.984384	0.759602	-2.13338	9.54453	0.00371485	0.0101201	-0.00504905	-0.548584	0.119629	-1.0564	
7	-0.0480397	-0.175398	0.0673168	0.981018	-3.71066	1.54748	10.1855	0.000258538	-0.0081798	0.000992887	0.0559082	0.0559082	-1.13623	-0.00723249	0.199874	0.00268496	-0.979791	-3.91894	-0.0537765	9.23481	0.0143104	0.0182961	-0.0159444	0.243408	0.119629	-1.05225	0.101463	0.0409263	-0.560333	-0.82101	0.512151	9.44673	3.74489	-0.00714303	0.00010991	0.00348663	-0.465576	-0.917969	-0.549561	0.0571757	0.244552	-0.937055	-0.242597	-0.108463	4.70163	-8.56574	0.00470094	0.00281261	-0.00259336	-0.439697	-0.710449	0.741699	-0.0762113	-0.0711719	0.653211	-0.749961	2.03177	-9.42868	1.34028	-0.0312046	0.0154436	-0.011797	-0.424316	1.16187	-0.050293	0.0324679	-0.0407473	0.983796	-0.171555	-0.36525	-2.22842	-6.02105	-0.0200135	0.0117828	-0.0145602	-0.190186	0.332275	0.89624	0.116812	-0.0384219	-0.0425377	-0.991498	0.906773	0.720983	10.4994	0.0260328	0.0484103	-0.00767038	-0.43042	0.00488281	-1.00342	0.073641	-0.0322188	0.0212693	-0.996537	0.625176	-0.532445	11.0948	0.00789231	0.0168046	-0.013635	-0.515625	0.124023	-1.04883	0.0968445	-0.0423515	-0.0470981	-0.993282	0.989947	0.882993	10.5623	0.00912665	0.00695679	-0.0176352	-0.528076	-0.0214844	-1.06738	-0.00925695	-0.0500951	0.00217271	-0.998699	1.11201	-0.139874	10.4512	-0.00211015	0.0124861	0.00344374	-0.506836	-0.0109863	-0.970947	-0.131486	-0.0223191	0.114748	-0.984401	0.770052	-2.10293	9.56397	0.00418843	0.0100143	-0.00274368	-0.546387	0.121826	-1.06104	
8	-0.0480414	-0.175409	0.067327	0.981015	-3.69626	1.55404	10.1668	0.000887221	-0.00276553	0.00208329	0.0646973	0.0539551	-1.13184	-0.00720411	0.199641	0.00280789	-0.979839	-3.88522	-0.146065	9.3277	-0.0182137	-0.0041164	-0.0173489	0.241699	0.108643	-1.04932	0.10149	0.0408977	-0.560331	-0.821009	0.526951	9.52464	3.70358	0.000436562	0.00478955	0.00210178	-0.465332	-0.920166	-0.556396	0.0573583	0.244518	-0.937008	-0.242768	-0.110203	4.6912	-8.567	-0.00647607	0.0105496	0.00303487	-0.439697	-0.710449	0.746094	-0.0762528	-0.0710001	0.652802	-0.750329	1.91206	-9.45349	1.30695	0.0424432	0.00576607	-0.0155931	-0.426514	1.16187	-0.0571289	0.0324679	-0.0407473	0.983796	-0.171555	-0.36525	-2.22842	-6.02105	-0.0200135	0.0117828	-0.0145602	-0.190186	0.332275	0.89624	0.116936	-0.0377975	-0.0425972	-0.991505	0.863852	0.70094	10.5127	0.00542491	0.0408425	-0.0138498	-0.42627	0.00708008	-1.00342	0.0736482	-0.0322188	0.021385	-0.996534	0.631304	-0.508424	11.0774	-0.00281884	0.0184431	-0.0146228	-0.51123	0.124023	-1.04419	0.0968459	-0.0423549	-0.0471249	-0.993281	0.992994	0.888049	10.5262	0.00683031	0.00635973	-0.017153	-0.52124	-0.0168457	-1.06958	-0.00926546	-0.0500946	0.00223037	-0.998699	1.10223	-0.145429	10.4628	-0.00202223	0.0138701	0.0040362	-0.504639	-0.0129395	-0.96875	-0.131486	-0.0223191	0.114748	-0.984401	0.770052	-2.10293	9.56397	0.00418843	0.0100143	-0.00274368	-0.546387	0.121826	-1.06104	
9	-0.0477233	-0.175479	0.0674077	0.981013	-3.71921	1.58108	10.1947	0.00818439	-0.00694663	-0.0150495	0.0581055	0.0559082	-1.13403	-0.0072961	0.199091	0.00387149	-0.979946	-3.98131	-0.109879	9.27586	-0.0338067	-0.042562	-0.0314663	0.239258	0.117432	-1.04492	0.101469	0.040815	-0.560376	-0.820985	0.519697	9.38697	3.75642	-0.0097194	-0.0106775	0.0118961	-0.469971	-0.913574	-0.554199	0.0572473	0.244556	-0.936997	-0.242801	-0.105224	4.70307	-8.5548	0.000859696	-0.00276528	-0.00440781	-0.444092	-0.710693	0.746094	-0.0759485	-0.0710624	0.652512	-0.750607	1.97219	-9.35552	1.33977	0.0333055	-0.00921328	0.000458457	-0.428467	1.15967	-0.0480957	0.032275	-0.0409759	0.983853	-0.171206	-0.373988	-2.2104	-6.05783	0.00465966	0.0157757	-0.0165165	-0.192139	0.325928	0.900635	0.116911	-0.0380869	-0.0430947	-0.991476	0.856459	0.692138	10.4748	0.0531393	-0.0140729	-0.0171092	-0.42627	0.00488281	-1.00977	0.0736538	-0.0322428	0.0214905	-0.996531	0.566958	-0.534498	11.086	-0.00419958	0.0155715	-0.0146193	-0.517822	0.124023	-1.04663	0.0968728	-0.0423613	-0.046991	-0.993284	1.00488	0.875594	10.5304	-0.00196634	0.00687961	-0.0157933	-0.523682	-0.0146484	-1.06519	-0.00930132	-0.0501141	0.00227028	-0.998698	1.07277	-0.161166	10.478	0.000525594	0.0110223	0.00266446	-0.507324	-0.00439453	-0.968994	-0.131526	-0.022226	0.114814	-0.98439	0.770412	-2.10888	9.56283	-0.00238451	0.00777626	-0.00310251	-0.546387	0.124023	-1.06104	
10	-0.0479064	-0.175516	0.0674264	0.980996	-3.70657	1.54773	10.2158	0.000947206	0.00351379	0.0103373	0.0600586	0.0581055	-1.12988	-0.00709281	0.19888	0.00367231	-0.979991	-3.83574	-0.154434	9.34372	-0.0156522	0.0217696	-0.0129074	0.243652	0.113037	-1.04956	0.10135	0.0409487	-0.560003	-0.821248	0.355669	9.41745	3.67912	0.0203742	0.0141444	-0.0314916	-0.467529	-0.917969	-0.556396	0.0572849	0.244529	-0.937035	-0.242671	-0.119508	4.71612	-8.55654	0.00720623	0.0135321	0.00431846	-0.441895	-0.710449	0.739502	-0.0761196	-0.0709976	0.652123	-0.750933	2.01494	-9.41278	1.40364	0.024292	0.016757	-0.0271587	-0.424561	1.16846	-0.0524902	0.0323985	-0.0410441	0.9838	-0.171471	-0.376146	-2.23608	-6.02887	0.0154565	0.00883626	-0.0174222	-0.190186	0.330322	0.89624	0.117133	-0.0350721	-0.040875	-0.991655	1.04316	0.697573	10.3986	-0.0590835	0.217986	-0.00391142	-0.424561	0.0136719	-1.00586	0.0736732	-0.0322903	0.0216057	-0.996525	0.646989	-0.563219	11.0937	0.000908879	0.0170638	-0.0150571	-0.51123	0.124023	-1.04419	0.0968878	-0.0423671	-0.0468697	-0.993288	1.01742	0.839687	10.5254	0.00244855	0.00781091	-0.0183606	-0.526123	-0.0146484	-1.06519	-0.00934176	-0.0501302	0.0023206	-0.998696	1.16573	-0.197921	10.4338	0.000504627	0.0146354	0.00449984	-0.504883	-0.00854492	-0.96875	-0.131561	-0.0221455	0.114796	-0.98439	0.802168	-2.12987	9.52996	0.0090142	0.0122913	-0.00315633	-0.54834	0.115234	-1.06104	
11	-0.0478038	-0.17545	0.0675256	0.981006	-3.69857	1.64761	10.1222	0.00150973	-0.00433403	-0.000963115	0.0627441	0.0517578	-1.13184	-0.00715397	0.198934	0.00363855	-0.97998	-3.94191	-0.0868305	9.24204	-0.0030164	0.014904	-0.0183302	0.243652	0.113037	-1.04248	0.101539	0.0407378	-0.56006	-0.821196	0.529708	9.47985	3.74721	-0.019613	-0.00290066	0.0130029	-0.467529	-0.922363	-0.551758	0.0572244	0.244566	-0.937046	-0.242607	-0.106615	4.69742	-8.57832	0.00153654	-0.000219395	-0.00299247	-0.44165	-0.717041	0.744141	-0.0758709	-0.0708778	0.652016	-0.751062	2.00391	-9.38275	1.32787	-0.00981453	0.00660149	-0.00287948	-0.426514	1.16406	-0.050293	0.0325049	-0.0410688	0.983789	-0.171508	-0.361533	-2.2303	-6.03904	-0.00226032	0.0123073	-0.0145537	-0.192627	0.334473	0.898193	0.117302	-0.0346929	-0.0412102	-0.991634	0.705357	0.658036	10.2207	0.0473663	0.0415447	-0.00365282	-0.420166	0.0114746	-1.00781	0.0736284	-0.0322836	0.0216199	-0.996529	0.611015	-0.556763	11.1088	0.00379848	0.017656	-0.017183	-0.513428	0.121826	-1.04419	0.0968481	-0.042373	-0.0468633	-0.993292	0.98222	0.831819	10.5389	0.00572741	0.00607173	-0.0196515	-0.530762	-0.0146484	-1.06738	-0.00934481	-0.0502053	0.00217918	-0.998693	1.07492	-0.160535	10.4869	0.0116443	0.00850707	0.00204954	-0.504639	-0.0129395	-0.96875	-0.131534	-0.0220484	0.114612	-0.984417	0.762165	-2.10729	9.54676	0.00736487	0.0123053	-0.00140228	-0.550781	0.119629	-1.06323	
12	-0.0479515	-0.175615	0.0673245	0.980983	-3.78425	1.57255	10.1757	-0.0104674	-0.00221927	0.00583244	0.0625	0.0539551	-1.13403	-0.00707775	0.198806	0.00359967	-0.980007	-3.93165	-0.0987707	9.2681	-0.0091481	0.0119333	-0.0170461	0.241699	0.11084	-1.05176	0.101453	0.0409788	-0.559853	-0.821336	0.394823	9.28156	3.68052	0.0171437	0.0169913	-0.00482213	-0.467529	-0.917969	-0.554199	0.0573576	0.244529	-0.936978	-0.242873	-0.115307	4.71641	-8.54626	-0.0028937	0.00808929	0.00260307	-0.448975	-0.706299	0.739502	-0.0760053	-0.0708691	0.651829	-0.751212	1.92077	-9.48082	1.34317	0.0330488	0.00818881	-0.0194268	-0.421875	1.15747	-0.0549316	0.0325824	-0.0411162	0.983782	-0.171524	-0.382749	-2.24159	-6.04494	0.00675963	0.0126631	-0.0179784	-0.192383	0.328125	0.89209	0.117271	-0.0334832	-0.0424549	-0.991627	0.821573	0.722864	10.5373	0.044995	0.0330693	-0.0143077	-0.417969	0.0136719	-1.01221	0.0734369	-0.0320666	0.0215496	-0.996551	0.608003	-0.514705	11.098	0.00533089	0.0171361	-0.0150332	-0.509277	0.126221	-1.04663	0.0968816	-0.0423986	-0.0470575	-0.993278	0.977237	0.846712	10.5496	0.0136123	0.00440668	-0.0154515	-0.523438	-0.0214844	-1.06494	-0.00938274	-0.0502895	0.00216245	-0.998688	1.07094	-0.154044	10.4474	0.000409535	0.00827094	0.00217269	-0.504883	-0.00854492	-0.966553	-0.131519	-0.0221214	0.114619	-0.984416	0.751165	-2.11609	9.57375	0.00373821	0.0046577	-0.00363287	-0.550537	0.113037	-1.0564	
13	-0.0480788	-0.17542	0.0670701	0.981029	-3.68699	1.55847	10.1777	-0.0110701	-0.0114753	0.00473771	0.0603027	0.0561523	-1.13184	-0.00712943	0.19896	0.00395626	-0.979974	-3.8949	-0.0880431	9.27936	-0.0223927	0.0210922	-0.0221891	0.243652	0.11084	-1.05176	0.101409	0.0408788	-0.560152	-0.821142	0.564344	9.58166	3.74063	-0.00613294	0.00671996	-0.00558777	-0.458984	-0.916016	-0.549561	0.057322	0.244516	-0.937033	-0.242682	-0.115012	4.70332	-8.56938	0.00760857	0.00495815	0.00273079	-0.444336	-0.708252	0.735107	-0.0758482	-0.0708563	0.651778	-0.751273	2.02044	-9.37739	1.37197	-0.0175349	0.00862023	-0.00963943	-0.424072	1.15967	-0.0549316	0.0326087	-0.0411442	0.983778	-0.171535	-0.376052	-2.21927	-6.04279	0.00180717	0.0139469	-0.0164782	-0.190186	0.328125	0.898438	0.117337	-0.0337383	-0.0428691	-0.991593	0.850097	0.739527	10.461	0.035401	-0.00955613	-0.0116892	-0.422119	0.00708008	-1.00781	0.0734568	-0.0321561	0.021696	-0.996544	0.640744	-0.535532	11.0861	-0.00126695	0.0125537	-0.014788	-0.509277	0.126221	-1.04907	0.0969528	-0.0424579	-0.047244	-0.99326	0.987172	0.910363	10.5523	0.00541441	0.00328405	-0.0155138	-0.521484	-0.012207	-1.06738	-0.00940308	-0.0503889	0.00214227	-0.998683	1.11194	-0.146518	10.4597	0.00279786	0.00989846	0.0039755	-0.504883	-0.00854492	-0.96875	-0.131521	-0.0223448	0.114692	-0.984403	0.779168	-2.113	9.55761	-0.000635623	0.000303478	-0.00390337	-0.548584	0.119629	-1.06104	
14	-0.0481779	-0.175443	0.0669887	0.981025	-3.66031	1.51215	10.1956	0.00115913	-0.00127541	-0.00149543	0.0603027	0.0561523	-1.13403	-0.00719834	0.198833	0.0039722	-0.979999	-3.92954	-0.14055	9.23042	-0.00871026	-0.00353752	-0.0230775	0.241455	0.113037	-1.04492	0.101415	0.0410445	-0.560037	-0.821212	0.466293	9.3265	3.62402	-0.00857305	0.0166468	-0.00871238	-0.467529	-0.920166	-0.553955	0.0573699	0.244515	-0.937026	-0.242701	-0.0994289	4.69611	-8.56894	-0.00352304	0.00557844	0.000568448	-0.437256	-0.714844	0.737549	-0.0758979	-0.0708318	0.651651	-0.751381	1.98503	-9.44373	1.37043	0.0163041	0.0115808	-0.0147865	-0.428711	1.16187	-0.0593262	0.0324991	-0.0413437	0.983747	-0.171688	-0.362957	-2.22887	-6.0192	0.00708063	0.010983	-0.0166065	-0.192139	0.328125	0.900635	0.117192	-0.033879	-0.0437187	-0.991568	0.864668	0.714282	10.4367	0.0411295	-0.00282097	-0.0139948	-0.41748	0.00268555	-1.00342	0.0735152	-0.0321945	0.0216825	-0.996538	0.620246	-0.508714	11.1277	0.00734478	0.0157214	-0.00930578	-0.509033	0.121826	-1.04199	0.0969897	-0.0424842	-0.0471001	-0.993262	1.01112	0.849132	10.5072	0.000478402	0.00641751	-0.0162978	-0.523682	-0.0168457	-1.06738	-0.00942397	-0.0504055	0.00225429	-0.998682	1.12846	-0.143856	10.4662	-0.00247377	0.0128274	0.00553546	-0.509277	-0.00878906	-0.966553	-0.13151	-0.0224259	0.11473	-0.984398	0.79367	-2.10077	9.53762	-0.000787577	0.00182055	-0.00350284	-0.550781	0.121826	-1.06567	
15	-0.0481216	-0.175526	0.0669904	0.981013	-3.67634	1.58017	10.1971	0.00150802	0.00228945	-0.0035755	0.0644531	0.0583496	-1.13184	-0.00721582	0.198697	0.00413026	-0.980026	-3.89656	-0.123982	9.31479	-0.017826	0.0126615	-0.0197257	0.237061	0.113037	-1.052	0.101398	0.040988	-0.560236	-0.821081	0.525316	9.44474	3.72573	0.00661272	0.00639785	0.000219893	-0.467529	-0.915771	-0.547363	0.0574033	0.244485	-0.936868	-0.243332	-0.111096	4.70941	-8.56608	-0.0302113	-0.00158967	-0.000149011	-0.44165	-0.717041	0.739746	-0.075891	-0.0707973	0.651456	-0.751554	2.02655	-9.43702	1.37372	0.0122424	0.0119588	-0.0172366	-0.424072	1.15967	-0.0524902	0.0325441	-0.0413559	0.983747	-0.171674	-0.360677	-2.22859	-6.01463	0.00159753	0.0118326	-0.0156362	-0.192139	0.325928	0.89209	0.117139	-0.0343534	-0.0441746	-0.991538	0.890881	0.751696	10.5244	0.00982343	-0.000254994	-0.015944	-0.419922	0.00708008	-1.00562	0.0736978	-0.0322152	0.0208936	-0.996541	0.680308	-0.577851	11.1339	0.0434279	0.0175597	-0.00978169	-0.51123	0.126221	-1.04663	0.0970321	-0.0425151	-0.0469638	-0.993263	0.999841	0.842573	10.5562	-0.00506151	0.00399215	-0.014353	-0.523438	-0.019043	-1.06958	-0.00944706	-0.0504234	0.00230471	-0.998681	1.10588	-0.156184	10.4506	-0.00134265	0.0127186	0.00268508	-0.504883	-0.00634766	-0.966553	-0.131465	-0.0223985	0.114935	-0.984381	0.775134	-2.13858	9.55178	-0.00835376	0.0100218	-0.0019981	-0.553223	0.124023	-1.06104	
16	-0.0481168	-0.175803	0.0668768	0.980972	-3.77085	1.55921	10.1978	-0.00519685	0.00471738	-0.00166253	0.0581055	0.0559082	-1.13184	-0.00724856	0.198749	0.00423982	-0.980014	-3.90635	-0.116889	9.32946	-0.0172106	0.0194227	-0.0217445	0.239258	0.115234	-1.052	0.101343	0.0409806	-0.560415	-0.820966	0.470141	9.60112	3.74335	0.0413186	-0.000664849	-0.0202665	-0.463135	-0.922363	-0.549561	0.0575748	0.244452	-0.936793	-0.243612	-0.109401	4.74704	-8.56906	-0.0242519	0.0116985	0.00468315	-0.444092	-0.710449	0.739502	-0.0759203	-0.0707644	0.65142	-0.751585	2.01164	-9.39521	1.3793	0.00314864	0.0117517	-0.0147709	-0.426514	1.16187	-0.0571289	0.0325441	-0.0413559	0.983747	-0.171674	-0.360677	-2.22859	-6.01463	0.00159753	0.0118326	-0.0156362	-0.192139	0.325928	0.89209	0.117151	-0.0344471	-0.0441071	-0.991536	0.865979	0.734809	10.5049	0.0104963	0.00698804	-0.0137904	-0.424072	0.00708008	-1.00977	0.0737598	-0.0321637	0.0206544	-0.996543	0.610402	-0.533656	11.0489	0.0240137	0.0194054	-0.0113632	-0.506836	0.12207	-1.04663	0.0970176	-0.0424754	-0.0471208	-0.993259	1.01523	0.817466	10.5092	0.0175194	0.00823988	-0.0194452	-0.521484	-0.0144043	-1.06958	-0.00940115	-0.0502351	0.00248063	-0.99869	1.09278	-0.185711	10.4389	-0.00555159	0.0143854	0.00425698	-0.50708	-0.0065918	-0.966553	-0.131416	-0.0223415	0.115026	-0.984378	0.770856	-2.13136	9.54812	-0.00141329	0.0115221	-0.00285505	-0.553223	0.121826	-1.06323	
17	-0.0481609	-0.175788	0.0667543	0.980981	-3.71737	1.57113	10.1736	-0.00590654	-0.00214708	0.00315475	0.0625	0.0561523	-1.13184	-0.00724128	0.199028	0.00433339	-0.979958	-3.96885	-0.0851905	9.26541	-0.0121825	0.0230471	-0.0164496	0.239258	0.115234	-1.04956	0.10145	0.0411224	-0.560484	-0.820899	0.441027	9.36222	3.68443	-0.0209971	0.00506058	0.013599	-0.467529	-0.917969	-0.549561	0.0572914	0.244525	-0.936935	-0.24306	-0.118481	4.72591	-8.5966	0.0131936	-0.00318071	-0.00212892	-0.441895	-0.714844	0.744141	-0.0759228	-0.0708072	0.651632	-0.751397	1.98208	-9.43211	1.35513	-0.0181044	0.00153391	-0.0164268	-0.430664	1.15967	-0.0549316	0.0321142	-0.0418317	0.983625	-0.172342	-0.364398	-2.23606	-6.0355	0.013519	0.011154	-0.0151976	-0.19458	0.334473	0.89624	0.117226	-0.0348557	-0.044538	-0.991494	0.871032	0.738454	10.457	0.0301568	0.00671915	-0.0126024	-0.422119	0.00927734	-1.01001	0.0737105	-0.0322735	0.0211694	-0.996533	0.617481	-0.511347	11.0975	-0.024425	0.0120552	-0.0167321	-0.51123	0.126221	-1.04419	0.0970387	-0.0424329	-0.0472626	-0.993252	0.978187	0.894158	10.5487	0.00752192	0.00717693	-0.0177524	-0.516846	-0.012207	-1.06299	-0.00943248	-0.0502485	0.00247043	-0.998689	1.08664	-0.198567	10.4746	0.00714001	0.011663	0.00286743	-0.506836	-0.0107422	-0.964111	-0.131472	-0.0222334	0.114946	-0.984382	0.764016	-2.13178	9.54531	0.00327087	0.00945836	-0.0036674	-0.550781	0.119629	-1.06104	
18	-0.0482837	-0.175881	0.0666471	0.980965	-3.7507	1.53277	10.1942	-0.00278002	-0.00229202	0.00554481	0.0644531	0.0583496	-1.13843	-0.00720831	0.198878	0.00401485	-0.979989	-3.88687	-0.0928702	9.31132	0.00644968	0.0150559	-0.0142047	0.237061	0.117432	-1.04736	0.101315	0.0411641	-0.560382	-0.820983	0.489265	9.41907	3.63273	0.0199277	0.00938561	-0.0135272	-0.469727	-0.915771	-0.549561	0.0573314	0.244519	-0.936912	-0.243146	-0.106726	4.70678	-8.56758	-0.00622971	0.00629992	0.00161482	-0.444092	-0.710449	0.737305	-0.0761536	-0.0708404	0.651315	-0.751646	2.01192	-9.44692	1.37691	0.0152599	0.0103943	-0.0150282	-0.428711	1.16187	-0.0617676	0.0321693	-0.0418756	0.983579	-0.172582	-0.359106	-2.25117	-6.02358	0.0105025	0.0116118	-0.0174875	-0.194336	0.328125	0.89624	0.117238	-0.0349694	-0.044669	-0.991482	0.901609	0.770094	10.4861	0.0263085	0.00343225	-0.0144064	-0.422119	0.00708008	-1.00977	0.0737728	-0.032248	0.0209623	-0.996533	0.649713	-0.568816	11.1184	0.0253325	0.0185813	-0.0130078	-0.51123	0.126221	-1.04419	0.0970537	-0.0424232	-0.047198	-0.993254	1.00179	0.88894	10.5498	0.00156096	0.00657827	-0.0173222	-0.525879	-0.0168457	-1.06738	-0.00945809	-0.0503244	0.00219457	-0.998686	1.10261	-0.163868	10.4406	0.0109981	0.0110194	0.00334113	-0.500244	-0.00854492	-0.96875	-0.131572	-0.0221901	0.114802	-0.984387	0.766484	-2.1478	9.55346	0.0060583	0.00738468	-0.00561076	-0.552979	0.119629	-1.06104	
19	-0.0483685	-0.17583	0.066651	0.98097	-3.69254	1.54201	10.1612	-0.000316038	-0.00405159	0.0038095	0.0598145	0.0625	-1.13623	-0.00715965	0.1989	0.00380842	-0.979986	-3.86352	-0.0958358	9.26793	-0.00482792	0.0128638	-0.0121172	0.239258	0.117432	-1.04736	0.101343	0.0410022	-0.560649	-0.820805	0.466503	9.53972	3.76961	-0.0303213	-0.00631981	0.0103816	-0.463379	-0.920166	-0.549561	0.0572763	0.244542	-0.936906	-0.243158	-0.107881	4.71632	-8.56685	0.00436867	-0.00221657	-0.0028377	-0.441895	-0.710449	0.743896	-0.0762252	-0.0710328	0.651263	-0.751665	1.99206	-9.3793	1.39786	-0.000788879	0.00295983	-0.0162354	-0.426514	1.16406	-0.0593262	0.0322494	-0.0419096	0.983557	-0.172684	-0.375516	-2.23923	-6.04827	0.0073873	0.0114882	-0.017663	-0.19458	0.330322	0.900635	0.117087	-0.036934	-0.045103	-0.991409	0.868616	0.735508	10.5938	0.0278431	-0.103932	-0.0207088	-0.426025	0.00268555	-1.00977	0.0737441	-0.0322423	0.0208028	-0.996539	0.655671	-0.452998	11.0829	0.000967383	0.0174042	-0.0164575	-0.51123	0.124023	-1.04199	0.097012	-0.0424481	-0.0471036	-0.993261	1.01138	0.852151	10.5283	0.00380334	0.00586689	-0.0194532	-0.52124	-0.019043	-1.06519	-0.00950194	-0.050318	0.00218167	-0.998686	1.13477	-0.112545	10.4423	0.00416762	0.015289	0.00213133	-0.506836	-0.0129395	-0.973389	-0.131583	-0.0222002	0.114541	-0.984415	0.781255	-2.09719	9.56327	0.00992036	0.0119221	-0.00201581	-0.553223	0.126221	-1.06104	
20	-0.0484145	-0.175884	0.0666542	0.980958	-3.76606	1.56476	10.178	0.00155122	-0.00477529	0.00380847	0.0646973	0.0561523	-1.14062	-0.00713413	0.199	0.00339098	-0.979968	-3.93711	-0.0478128	9.26963	0.0172234	0.0246582	-0.0117322	0.241699	0.11084	-1.04956	0.10125	0.0412019	-0.560317	-0.821033	0.447588	9.24519	3.67443	0.0464092	0.0154175	-0.0120218	-0.463379	-0.915771	-0.549561	0.0572593	0.244569	-0.936895	-0.243178	-0.119132	4.71044	-8.54965	0.00385712	0.00696063	-0.00123109	-0.446289	-0.712891	0.741699	-0.0762376	-0.0708792	0.651625	-0.751365	1.97103	-9.47211	1.38107	-0.0159993	0.0116943	-0.0184439	-0.428711	1.16406	-0.0571289	0.0321151	-0.042111	0.983542	-0.172746	-0.368181	-2.24853	-5.999	0.00335268	0.0116962	-0.016605	-0.190186	0.328125	0.89209	0.116755	-0.0402526	-0.0456181	-0.991296	0.987738	0.818871	10.4741	0.0131456	-0.11122	-0.020852	-0.434814	0.00488281	-1.00781	0.0737452	-0.0322658	0.021145	-0.996531	0.621012	-0.532523	11.1375	-0.00686364	0.0156931	-0.0144295	-0.513672	0.130615	-1.04907	0.0970374	-0.0424265	-0.0471459	-0.993258	0.994672	0.885749	10.5392	0.00754536	0.00718291	-0.017728	-0.525879	-0.019043	-1.06958	-0.00945534	-0.0501638	0.002145	-0.998694	1.08511	-0.153739	10.4672	0.00275949	0.0130532	0.00412219	-0.504883	-0.00854492	-0.96875	-0.131617	-0.0220755	0.114642	-0.984402	0.746835	-2.09414	9.5665	-0.0038276	0.00913826	-0.00292457	-0.550781	0.119629	-1.06567	
21	-0.0483829	-0.175709	0.0667004	0.980988	-3.72679	1.57968	10.1675	0.00313697	-0.0142803	-0.000457035	0.0649414	0.0517578	-1.14038	-0.00704017	0.198806	0.00279465	-0.98001	-3.89949	-0.160893	9.35184	-0.005514	-0.0158903	-0.0111294	0.24585	0.11084	-1.04468	0.101313	0.0411441	-0.560674	-0.820785	0.472936	9.62687	3.72412	-0.0280368	0.00786701	-0.00440654	-0.469727	-0.917969	-0.551758	0.0572588	0.244599	-0.936922	-0.243043	-0.11686	4.71916	-8.56978	0.00671528	0.00737145	0.000898386	-0.439697	-0.712646	0.741699	-0.076146	-0.0709809	0.651739	-0.751265	2.00474	-9.3825	1.35961	-0.0138725	0.00316544	-0.012559	-0.424316	1.16187	-0.0593262	0.0322235	-0.0421866	0.98352	-0.172831	-0.36223	-2.25098	-6.04339	0.0101567	0.0110993	-0.0175344	-0.185791	0.330322	0.89624	0.116524	-0.0433088	-0.0463333	-0.991161	1.04169	0.704282	10.4456	0.0427101	-0.118978	-0.022118	-0.443359	0.00488281	-1.00122	0.0738388	-0.0323096	0.0209571	-0.996526	0.643725	-0.546279	11.1214	0.0184071	0.013338	-0.0142406	-0.510986	0.119873	-1.04639	0.096843	-0.0423518	-0.0471489	-0.99328	0.993273	0.888931	10.5476	0.00244491	0.00591563	-0.0167493	-0.521484	-0.0144043	-1.06519	-0.00950654	-0.0501958	0.00238662	-0.998691	1.10674	-0.15903	10.4583	-0.00738208	0.0131551	0.00237981	-0.504639	-0.0107422	-0.96875	-0.131632	-0.0221002	0.114716	-0.984391	0.780519	-2.13849	9.54248	-0.0042848	0.0061849	-0.00501778	-0.551025	0.124023	-1.06104	
22	-0.0482761	-0.175657	0.0667085	0.981002	-3.70617	1.59869	10.2061	-0.00126079	-0.00751214	-0.0034832	0.0644531	0.0583496	-1.13184	-0.00707957	0.198495	0.00361757	-0.98007	-3.94348	-0.171185	9.28524	-0.0283843	-0.0418455	-0.0310795	0.239258	0.113037	-1.04956	0.101307	0.0408857	-0.560305	-0.82105	0.506521	9.31202	3.80004	0.0155019	-0.0108678	0.0128258	-0.463379	-0.911377	-0.556641	0.0573365	0.2446	-0.936857	-0.243276	-0.104454	4.71222	-8.54878	-0.0163148	0.00394041	0.000642442	-0.441895	-0.710449	0.739502	-0.0763272	-0.0709872	0.651797	-0.751196	1.96151	-9.44104	1.35781	-0.00439354	0.00776787	-0.013037	-0.428711	1.16626	-0.0524902	0.03228	-0.0422403	0.983509	-0.172872	-0.354189	-2.24275	-6.02386	0.00145056	0.0141524	-0.0173216	-0.192383	0.330078	0.89624	0.116071	-0.0468633	-0.0468835	-0.991026	1.00152	0.786077	10.4702	0.0372597	-0.15707	-0.0246399	-0.443359	0.000488281	-0.994873	0.0738143	-0.0323078	0.0210211	-0.996527	0.616118	-0.4908	11.0571	-0.00715527	0.0188891	-0.0158585	-0.506592	0.117676	-1.04419	0.0968726	-0.0423899	-0.0470419	-0.99328	1.00539	0.845324	10.5234	0.00238765	0.00522252	-0.0170888	-0.523682	-0.0168457	-1.06738	-0.00951455	-0.0502241	0.0023801	-0.99869	1.08395	-0.16994	10.4622	0.00399166	0.0120664	0.00446207	-0.502441	-0.0107422	-0.96875	-0.131695	-0.0221438	0.114765	-0.984375	0.778336	-2.11033	9.56106	-0.00200198	0.00273352	-0.00438454	-0.553223	0.124023	-1.06104	
23	-0.0486924	-0.175655	0.0665234	0.980994	-3.69404	1.48924	10.2032	-0.00824644	0.00182528	0.015536	0.0688477	0.0583496	-1.13623	-0.00694953	0.198257	0.00267004	-0.980122	-3.82431	-0.0868328	9.32637	0.0139134	0.026989	-0.00732592	0.234863	0.115234	-1.052	0.101138	0.0409368	-0.560427	-0.820985	0.386769	9.46077	3.63512	-0.0108795	0.0012417	-0.0120162	-0.463379	-0.915771	-0.554199	0.0573706	0.244582	-0.936843	-0.24334	-0.109531	4.72135	-8.52785	-0.00437091	0.00597206	0.00237858	-0.439697	-0.710449	0.743896	-0.0764687	-0.071063	0.651829	-0.751147	2.04419	-9.286	1.42094	-0.0195039	0.0206371	-0.0279565	-0.42627	1.15967	-0.0549316	0.0324389	-0.0422585	0.98348	-0.173001	-0.369272	-2.24332	-6.0318	0.0161065	0.00773481	-0.017012	-0.190186	0.330322	0.89624	0.115726	-0.0480843	-0.0454463	-0.991075	1.30595	0.745943	10.3821	-0.0635782	0.0294137	-0.018355	-0.44751	0.000488281	-0.99707	0.0738651	-0.0323687	0.0214016	-0.996513	0.678722	-0.560546	11.1171	-0.00684765	0.0176035	-0.0117695	-0.511475	0.128418	-1.04663	0.0969137	-0.042357	-0.0471133	-0.993274	1.01354	0.869009	10.5188	0.0108009	0.00783328	-0.0172708	-0.523682	-0.012207	-1.06299	-0.0095456	-0.0502439	0.00244084	-0.998688	1.19142	-0.164079	10.4539	-0.00116422	0.0154859	0.00388463	-0.504639	-0.0129395	-0.964111	-0.131694	-0.0221807	0.114823	-0.984368	0.811474	-2.12912	9.54582	-0.00261686	0.00566535	-0.00430542	-0.546387	0.124023	-1.06104	
24	-0.048708	-0.175607	0.0665454	0.981	-3.73702	1.50326	10.1883	0.00194448	-0.0088962	0.00170722	0.0644531	0.0583496	-1.13403	-0.00695189	0.198325	0.00258719	-0.980108	-3.92183	-0.0772176	9.26935	-0.00225451	0.0209966	-0.0160734	0.241455	0.11084	-1.0542	0.101148	0.0408905	-0.560299	-0.821074	0.604565	9.42534	3.73929	-0.0116299	0.00248649	0.000270548	-0.463379	-0.913574	-0.554199	0.0574104	0.244665	-0.936963	-0.242782	-0.113423	4.7104	-8.5951	-0.0152711	0.00847052	0.000921954	-0.448486	-0.712891	0.743896	-0.0765216	-0.0709765	0.652264	-0.750772	1.90427	-9.40557	1.3503	-0.0470012	0.010674	-0.0131175	-0.419922	1.16406	-0.0524902	0.0324389	-0.0422585	0.98348	-0.173001	-0.369272	-2.24332	-6.0318	0.0161065	0.00773481	-0.017012	-0.190186	0.330322	0.89624	0.115412	-0.0507886	-0.0465019	-0.990928	1.14338	0.721493	10.3883	0.057972	-0.117305	-0.0242974	-0.454102	0.000488281	-0.990479	0.0738752	-0.0323425	0.0210696	-0.99652	0.616289	-0.578902	11.0897	0.0220022	0.0192829	-0.0157913	-0.513184	0.119629	-1.04175	0.0969081	-0.0423379	-0.0471594	-0.993274	1.00156	0.889798	10.5477	0.00894826	0.00776482	-0.0190706	-0.523438	-0.019043	-1.06738	-0.0095456	-0.0502439	0.00244084	-0.998688	1.19142	-0.164079	10.4539	-0.00116422	0.0154859	0.00388463	-0.504639	-0.0129395	-0.964111	-0.131654	-0.0220152	0.114784	-0.984382	0.763978	-2.13072	9.56236	0.00370261	0.0163618	-0.00204963	-0.550781	0.119629	-1.06567	
25	-0.0485852	-0.175617	0.0666716	0.980996	-3.81072	1.56015	10.1604	0.00628419	-0.00502364	-0.00330018	0.0644531	0.0583496	-1.13403	-0.00691314	0.198157	0.00237981	-0.980143	-3.94915	-0.0644096	9.26867	-0.000228384	0.00783825	-0.0132703	0.241699	0.11084	-1.05176	0.101227	0.040717	-0.560172	-0.82116	0.366047	9.52473	3.67461	-0.0132832	-0.00998594	0.00600613	-0.465332	-0.920166	-0.547119	0.0576796	0.24462	-0.936863	-0.24315	-0.102693	4.71777	-8.58091	-0.033438	0.0175236	0.00535317	-0.444092	-0.710693	0.743896	-0.0763394	-0.0711391	0.652431	-0.75063	2.00102	-9.44448	1.3434	0.000865532	-0.00119805	-0.0108958	-0.426514	1.16626	-0.0480957	0.032442	-0.0424989	0.983376	-0.17353	-0.357878	-2.27292	-6.00781	0.0129278	0.0107191	-0.017388	-0.187988	0.330322	0.89624	0.11531	-0.0514828	-0.0470162	-0.99088	1.16497	0.793835	10.4856	0.0504495	-0.0464791	-0.0218573	-0.451904	-0.00170898	-0.999023	0.0738677	-0.0323106	0.0208434	-0.996527	0.580019	-0.495602	11.0215	0.0223961	0.0182711	-0.0158458	-0.513184	0.117432	-1.04175	0.096872	-0.0423617	-0.0471772	-0.993275	0.959128	0.851597	10.5313	0.00707003	0.00532611	-0.0170871	-0.518799	-0.0214844	-1.06055	-0.00951528	-0.0501147	0.0023109	-0.998695	1.06822	-0.153758	10.4532	0.00808485	0.0123926	0.00069707	-0.502441	-0.0107422	-0.966553	-0.131635	-0.0220253	0.114783	-0.984384	0.738236	-2.12069	9.58205	-0.000950456	0.00448799	-0.00459011	-0.55542	0.119629	-1.06567	
26	-0.0485555	-0.175285	0.0667705	0.98105	-3.69406	1.55781	10.1851	0.00109387	-0.020169	0.00288166	0.0646973	0.0561523	-1.13623	-0.0069235	0.198355	0.00248185	-0.980103	-3.93759	-0.0595975	9.30421	-0.0189118	0.0241379	-0.0213442	0.239502	0.11084	-1.04956	0.101146	0.0408431	-0.559995	-0.821283	0.470122	9.28094	3.74835	-0.0161995	0.000802611	0.00367415	-0.458984	-0.917969	-0.558594	0.0579074	0.244654	-0.93693	-0.242804	-0.102834	4.71413	-8.57283	0.0273605	0.00971179	0.00217506	-0.446533	-0.710693	0.741699	-0.0764324	-0.0712177	0.652674	-0.750402	1.98442	-9.40009	1.33684	-0.0284663	0.00933395	-0.0185792	-0.432861	1.16187	-0.0480957	0.0324909	-0.0425945	0.983383	-0.17346	-0.361833	-2.25973	-6.03961	-0.00355068	0.0129486	-0.018792	-0.198975	0.332275	0.89624	0.114937	-0.0546782	-0.0481317	-0.990698	1.28478	0.779124	10.3891	0.0376466	-0.0789864	-0.0228201	-0.460449	-0.00170898	-0.988281	0.0739114	-0.0325114	0.0211605	-0.99651	0.670029	-0.555612	11.1109	-0.00483648	0.0106725	-0.0129179	-0.511475	0.130615	-1.04443	0.096949	-0.0423884	-0.0474241	-0.993255	1.00195	0.877505	10.5312	0.0203045	0.00470382	-0.0145199	-0.521484	-0.0144043	-1.06519	-0.00950779	-0.0501245	0.00221849	-0.998695	1.09475	-0.156055	10.4688	0.00503258	0.00649661	0.00234786	-0.504883	-0.00854492	-0.96875	-0.131641	-0.0221551	0.114798	-0.984379	0.758621	-2.13432	9.55031	0.00148534	-0.00113337	-0.00534505	-0.55542	0.119629	-1.05884	
27	-0.0485815	-0.175184	0.0668443	0.981062	-3.67918	1.5697	10.1912	0.00246849	-0.00475961	0.00327357	0.0668945	0.0561523	-1.13843	-0.0069703	0.198467	0.00286178	-0.980079	-3.83551	-0.0554877	9.33412	-0.0218213	0.0205616	-0.0215391	0.235107	0.11084	-1.04956	0.101139	0.0411097	-0.560402	-0.820994	0.484499	9.38736	3.62121	0.0397632	0.0189993	-0.021269	-0.463379	-0.917969	-0.547363	0.0579454	0.244661	-0.936969	-0.242638	-0.0912994	4.71294	-8.57352	0.0140298	0.0110903	0.00232163	-0.435303	-0.708252	0.746094	-0.0763469	-0.0712908	0.652797	-0.750296	2.04392	-9.33651	1.34693	0.000888875	0.000726211	-0.0168185	-0.431152	1.16846	-0.0480957	0.0325543	-0.0426374	0.983419	-0.17323	-0.358588	-2.24963	-6.04492	-0.00303704	0.00971298	-0.015358	-0.188232	0.334473	0.898193	0.114806	-0.0556136	-0.0485041	-0.990643	1.35522	0.784879	10.39	0.0369003	-0.0646534	-0.0227498	-0.462646	0.000244141	-0.97998	0.0739239	-0.0324896	0.0209354	-0.996515	0.660668	-0.556193	11.0811	0.0227776	0.0172738	-0.0158814	-0.506836	0.121826	-1.04419	0.0970268	-0.0424299	-0.0474339	-0.993245	1.00807	0.901799	10.5097	-0.000193518	0.00662866	-0.0155249	-0.523682	-0.0168457	-1.06519	-0.00950357	-0.0501552	0.00227559	-0.998694	1.14529	-0.126647	10.4292	-0.00164524	0.015794	0.00459294	-0.504639	-0.0129395	-0.96875	-0.131682	-0.0223574	0.114799	-0.984368	0.803036	-2.0894	9.53292	0.000266056	0.00357093	-0.00371396	-0.552734	0.113037	-1.05859	
28	-0.0485009	-0.175247	0.0668442	0.981054	-3.67401	1.59373	10.1966	-0.00166803	0.000186165	-0.0020288	0.0622559	0.0603027	-1.13208	-0.00704883	0.198146	0.00326348	-0.980142	-3.91911	-0.0701649	9.27709	-0.0236148	0.00353907	-0.020626	0.237061	0.113037	-1.04956	0.101241	0.0408539	-0.560375	-0.821012	0.477597	9.53735	3.74457	-0.002143	-0.00325852	0.00854781	-0.469727	-0.915771	-0.552002	0.0579851	0.244705	-0.936945	-0.242674	-0.100417	4.71856	-8.57496	0.00920791	0.00785469	-0.000103831	-0.439697	-0.710449	0.743896	-0.0764414	-0.0713036	0.65304	-0.750074	2.00664	-9.41226	1.35354	-0.0268523	0.00929401	-0.0208634	-0.430908	1.16626	-0.0524902	0.0326707	-0.042687	0.98341	-0.173247	-0.376358	-2.24097	-6.05758	0.00545801	0.0121189	-0.017456	-0.196777	0.332275	0.89624	0.114656	-0.056492	-0.0489216	-0.99059	1.2873	0.76942	10.376	0.0411258	-0.0602664	-0.0248485	-0.462402	-0.00390625	-0.986328	0.0739272	-0.0324424	0.02108	-0.996513	0.651173	-0.464231	11.0848	-0.0132754	0.0171406	-0.0147517	-0.513428	0.121826	-1.04663	0.097027	-0.0424561	-0.047304	-0.99325	1.01037	0.881287	10.5171	-0.00559499	0.00549871	-0.017435	-0.526123	-0.0146484	-1.06519	-0.00951151	-0.0501709	0.00241096	-0.998692	1.11154	-0.161551	10.4658	-0.00832104	0.0124241	0.00457259	-0.504883	-0.00854492	-0.966553	-0.131644	-0.0223545	0.114993	-0.984351	0.776256	-2.14599	9.57717	-0.00971983	0.00814316	-0.00255451	-0.551025	0.124023	-1.06104	
29	-0.0484897	-0.175354	0.0667079	0.981045	-3.73085	1.57217	10.1725	-0.00469255	-0.00474625	-0.00161721	0.0646973	0.0561523	-1.13403	-0.00697636	0.198137	0.00355655	-0.980143	-3.89802	-0.108281	9.29314	-0.0207017	0.0185921	-0.0170315	0.243652	0.115234	-1.05444	0.10142	0.0404164	-0.559408	-0.821671	0.493275	9.34372	3.73979	-0.0578712	-0.0134064	0.0329643	-0.467773	-0.906982	-0.549805	0.0577845	0.24476	-0.936885	-0.242898	-0.0968751	4.71898	-8.54414	-0.00812013	-0.00431844	-0.00525201	-0.44873	-0.710693	0.739502	-0.0765483	-0.0714518	0.653665	-0.749504	2.00624	-9.33682	1.33385	-0.0318532	0.00415444	-0.0162418	-0.428711	1.16626	-0.050293	0.0328266	-0.0427159	0.983368	-0.173448	-0.373819	-2.25893	-6.01821	0.0127308	0.00863115	-0.0165171	-0.19043	0.334473	0.898193	0.114118	-0.0591687	-0.0500407	-0.99044	1.35452	0.77176	10.4219	0.0219478	-0.0641019	-0.0215028	-0.473389	-0.00195312	-0.984131	0.0739155	-0.0324791	0.0214975	-0.996504	0.626472	-0.58118	11.1	-0.00753599	0.0162797	-0.0138421	-0.51123	0.126221	-1.04419	0.0968365	-0.0423645	-0.0470822	-0.993283	0.992574	0.856432	10.5517	0.000706305	0.00653156	-0.0181601	-0.521484	-0.0144043	-1.06519	-0.00948761	-0.049957	0.00267929	-0.998703	1.10362	-0.198056	10.4383	-0.00311586	0.0157998	0.00330954	-0.504883	-0.00415039	-0.968994	-0.131609	-0.0223279	0.11509	-0.984345	0.779042	-2.16137	9.54504	9.49397e-05	0.0100306	-0.00228565	-0.550781	0.121826	-1.06567	
30	-0.0485959	-0.175382	0.0665525	0.981046	-3.75387	1.53685	10.1909	-0.00865102	-0.00165186	0.00609937	0.0688477	0.0605469	-1.13843	-0.00692132	0.198397	0.00358225	-0.980091	-3.98551	-0.0675988	9.27107	-0.00911396	0.02216	-0.0168893	0.239258	0.117432	-1.052	0.101	0.0407647	-0.560487	-0.82097	0.437825	9.33923	3.67373	0.0662405	0.00266175	-0.0166606	-0.463379	-0.913574	-0.547363	0.0581046	0.244732	-0.936713	-0.243512	-0.121879	4.70699	-8.51566	-0.0179935	0.00986902	0.000729547	-0.448486	-0.712891	0.739502	-0.076597	-0.0713445	0.654093	-0.749136	1.96492	-9.54707	1.25107	-0.0463512	0.0117134	-0.0117999	-0.430908	1.16406	-0.0456543	0.0328961	-0.0427615	0.983366	-0.17344	-0.368412	-2.26079	-6.01785	0.000760072	0.0123745	-0.0166175	-0.190186	0.332275	0.89624	0.113883	-0.0612535	-0.0506154	-0.990311	1.35299	0.807618	10.421	0.0348219	-0.0743942	-0.0205441	-0.477539	-0.00634766	-0.979736	0.0739273	-0.0324072	0.0212408	-0.996511	0.632003	-0.554065	11.0829	0.0201696	0.0193094	-0.0148252	-0.509033	0.121826	-1.04663	0.096847	-0.0423558	-0.0471321	-0.99328	0.987062	0.863584	10.5227	0.00805109	0.00655444	-0.0180368	-0.519043	-0.0168457	-1.06738	-0.00950212	-0.0500009	0.00255062	-0.998701	1.09209	-0.177437	10.4785	0.00986924	0.011569	0.00274336	-0.509277	-0.0065918	-0.966553	-0.131616	-0.0223071	0.114938	-0.984362	0.754782	-2.13179	9.55772	0.00733505	0.0103195	-0.00440666	-0.548828	0.124023	-1.06567	
31	-0.0487187	-0.175374	0.0665189	0.981043	-3.74312	1.5394	10.1887	-0.000700059	-0.00686146	0.00482512	0.0625	0.0561523	-1.13623	-0.00699337	0.198477	0.00356468	-0.980074	-3.8662	-0.11427	9.28421	-0.00214324	0.0236253	-0.0168766	0.239258	0.115234	-1.05444	0.101303	0.0401739	-0.559034	-0.821952	0.516575	9.61117	3.72758	-0.0722265	-0.00279869	-0.00774121	-0.461426	-0.909424	-0.554443	0.0578098	0.244788	-0.936795	-0.243213	-0.101243	4.72726	-8.62116	0.00823649	0.00576996	0.00097029	-0.441895	-0.710449	0.739502	-0.0768039	-0.071594	0.654419	-0.748806	2.02802	-9.46648	1.30297	-0.0230685	0.0161343	-0.0207304	-0.428955	1.17065	-0.0480957	0.0329602	-0.0427756	0.983355	-0.173487	-0.359565	-2.26552	-6.02619	0.00359745	0.0142441	-0.0165971	-0.188232	0.332275	0.898438	0.113674	-0.0629668	-0.051375	-0.990189	1.46434	0.839653	10.3975	0.0326141	-0.0474733	-0.0190725	-0.479492	-0.00634766	-0.981934	0.0739297	-0.0324199	0.0210917	-0.996513	0.636782	-0.503178	11.1113	0.00509263	0.0151506	-0.0132476	-0.509033	0.121826	-1.03955	0.0968536	-0.042344	-0.0472935	-0.993272	0.987771	0.862981	10.5282	0.0161495	0.00634751	-0.0186172	-0.523682	-0.0146484	-1.06738	-0.00952802	-0.0500813	0.00235889	-0.998697	1.09538	-0.153808	10.4669	0.0105521	0.0104151	0.0013894	-0.504883	-0.00634766	-0.971191	-0.131625	-0.0223619	0.114885	-0.984366	0.773108	-2.11993	9.5323	0.00493175	0.00670589	-0.00472141	-0.557617	0.119629	-1.06787	
32	-0.0487849	-0.175258	0.0665571	0.981058	-3.72198	1.51777	10.1847	0.00167836	-0.013429	0.00725858	0.0668945	0.0561523	-1.13623	-0.00700312	0.198532	0.00338587	-0.980064	-3.91868	-0.0613868	9.26102	0.00533098	0.0196673	-0.0154747	0.241455	0.115234	-1.04492	0.101023	0.0407103	-0.5599	-0.82137	0.515694	9.15828	3.59149	0.0892882	0.0218392	-0.0361526	-0.463379	-0.915771	-0.552002	0.0579204	0.244778	-0.93677	-0.243294	-0.103941	4.73179	-8.55182	-0.00729917	0.0116571	0.00298401	-0.444092	-0.712646	0.737305	-0.0768061	-0.071528	0.654575	-0.748676	1.97141	-9.45328	1.26172	-0.017082	0.00989152	-0.0114334	-0.430908	1.16626	-0.0480957	0.0329756	-0.0427868	0.98334	-0.173561	-0.370393	-2.2536	-6.03665	0.00851067	0.0146638	-0.0166152	-0.186035	0.334473	0.900391	0.113602	-0.0637006	-0.0516376	-0.990137	1.44535	0.815852	10.3788	0.0303981	-0.0473129	-0.0184636	-0.481689	-0.00634766	-0.979736	0.0739369	-0.0324106	0.0210908	-0.996513	0.648544	-0.497429	11.1145	0.004418	0.0175353	-0.0145442	-0.513428	0.126221	-1.04199	0.0968582	-0.0423377	-0.0474282	-0.993266	1.00144	0.88943	10.5397	0.015841	0.00594034	-0.0182832	-0.523682	-0.0146484	-1.06738	-0.00955603	-0.0501201	0.00234756	-0.998695	1.12204	-0.14408	10.4621	0.00374174	0.0106267	0.00181938	-0.50708	-0.00878906	-0.96875	-0.131659	-0.0224095	0.114861	-0.984363	0.792201	-2.12104	9.55581	0.00356515	0.00600515	-0.00671591	-0.546387	0.119629	-1.06323	
33	-0.0486673	-0.17522	0.0667382	0.981058	-3.69318	1.57654	10.1605	0.00855949	-0.00346836	-0.00563485	0.0644531	0.0627441	-1.13843	-0.00719355	0.198683	0.00333211	-0.980032	-3.89067	-0.0740378	9.29819	-0.000689336	0.013612	-0.0160359	0.239502	0.11084	-1.05176	0.101527	0.0400859	-0.559727	-0.821457	0.501765	9.63105	3.75711	-0.0667942	-0.00861999	0.0165269	-0.463379	-0.913574	-0.552002	0.0573331	0.244932	-0.936736	-0.243407	-0.0858575	4.72156	-8.59937	-0.00186432	-0.0215309	-0.0135546	-0.441895	-0.710449	0.743896	-0.0767646	-0.0718114	0.654749	-0.748501	2.05932	-9.42278	1.31914	-0.0194361	0.00310188	-0.0227001	-0.426758	1.16846	-0.0480957	0.0330777	-0.0428263	0.983315	-0.173677	-0.365663	-2.26138	-6.02308	0.00448977	0.0127909	-0.0177628	-0.192383	0.332275	0.898438	0.113455	-0.0650212	-0.0523762	-0.990029	1.52871	0.875429	10.3707	0.0339932	-0.0301444	-0.0183619	-0.484131	-0.00195312	-0.971436	0.0739593	-0.032439	0.021087	-0.99651	0.655373	-0.524851	11.1062	0.00442025	0.0156747	-0.0153794	-0.508789	0.119873	-1.04883	0.0968764	-0.0423531	-0.0475018	-0.99326	1.00003	0.915458	10.5253	0.00141387	0.00621642	-0.0178793	-0.525879	-0.019043	-1.06738	-0.00955646	-0.0501803	0.00231692	-0.998692	1.1257	-0.136254	10.4709	0.00345344	0.0123533	0.00450423	-0.504639	-0.0107422	-0.96875	-0.131653	-0.0224099	0.114863	-0.984364	0.783019	-2.10401	9.54255	-5.4473e-05	0.00972643	-0.00141726	-0.553223	0.126221	-1.06348	
34	-0.0486283	-0.175151	0.0667851	0.981069	-3.71221	1.58425	10.1684	0.00172568	-0.00813454	0.00135876	0.0622559	0.0583496	-1.13403	-0.00716658	0.198616	0.0024967	-0.980048	-3.95914	-0.109152	9.3335	0.00900902	-0.0123189	-0.0101944	0.239502	0.108643	-1.04932	0.10214	0.0395132	-0.559922	-0.821275	0.507542	9.33982	3.8352	0.0554184	0.00317363	0.0363927	-0.469727	-0.917969	-0.551758	0.0564886	0.245249	-0.936599	-0.243811	-0.114712	4.72533	-8.53023	-0.0031296	-0.0306598	-0.0234109	-0.4375	-0.710449	0.741699	-0.0767165	-0.071663	0.655281	-0.748055	1.98649	-9.40247	1.30048	-0.0196122	0.00484695	-0.016896	-0.433105	1.16626	-0.043457	0.033162	-0.0428657	0.983325	-0.173591	-0.359249	-2.25684	-6.03612	-0.00102103	0.0106505	-0.0147523	-0.192627	0.334473	0.894043	0.113377	-0.0661413	-0.0528013	-0.989941	1.43235	0.817114	10.3739	0.0388546	-0.048181	-0.0176025	-0.48584	-0.00854492	-0.971191	0.073972	-0.0324286	0.0212282	-0.996507	0.621762	-0.514957	11.0976	-0.00307232	0.0165456	-0.0144984	-0.51123	0.121826	-1.04175	0.0968611	-0.0423872	-0.0472796	-0.99327	0.982719	0.867365	10.5338	-0.00224927	0.00620045	-0.017934	-0.523438	-0.019043	-1.06738	-0.00958228	-0.0501806	0.00247653	-0.998691	1.09055	-0.167336	10.4677	-0.0045085	0.0144776	0.003487	-0.504639	-0.0107422	-0.966553	-0.131618	-0.0223612	0.114979	-0.984356	0.770309	-2.13443	9.5471	-0.00398722	0.0100567	-0.00181957	-0.544189	0.121826	-1.06323	
35	-0.0485218	-0.175213	0.0667467	0.981066	-3.72491	1.59093	10.2019	0.00215167	-0.0100071	-0.00467791	0.0646973	0.0561523	-1.13623	-0.00724772	0.198706	0.00339245	-0.980026	-3.88717	-0.160346	9.31632	-0.0294448	-0.00341986	-0.0298903	0.239258	0.113037	-1.04492	0.102281	0.0394895	-0.560311	-0.820994	0.520179	9.65092	3.75973	0.0314467	0.0337587	-0.0241443	-0.467773	-0.911377	-0.554199	0.0560565	0.245438	-0.936672	-0.243439	-0.141607	4.71631	-8.60637	0.0155038	0.0077691	-0.00081783	-0.443848	-0.717041	0.741943	-0.0767006	-0.0717283	0.655316	-0.748019	1.94833	-9.43006	1.22142	-0.0041964	-0.000675416	-0.00865853	-0.435303	1.16406	-0.043457	0.0331951	-0.0429111	0.983369	-0.173326	-0.363199	-2.24004	-6.02439	-0.00914466	0.0153834	-0.0175584	-0.192383	0.330078	0.894043	0.11327	-0.0667223	-0.0530277	-0.989902	1.44178	0.792313	10.3779	0.0250273	-0.0257336	-0.017752	-0.48999	-0.0126953	-0.975342	0.0739861	-0.0325034	0.0213253	-0.996501	0.585038	-0.54924	11.0787	0.00109149	0.0141863	-0.0149579	-0.50708	0.126221	-1.04907	0.0968968	-0.042426	-0.0471885	-0.993269	0.990508	0.860516	10.5327	0.00408124	0.00494919	-0.0158529	-0.528076	-0.019043	-1.06958	-0.00960531	-0.0502355	0.00254311	-0.998688	1.0406	-0.160777	10.4549	0.000715947	0.00972207	0.00555912	-0.502441	-0.0129395	-0.966553	-0.131644	-0.0223615	0.115088	-0.98434	0.757875	-2.1385	9.55182	-0.00365762	0.00364936	-0.00288341	-0.553223	0.121826	-1.06567	
36	-0.0488374	-0.175135	0.066596	0.981075	-3.64444	1.46453	10.1785	-0.00860459	0.004797	0.00892633	0.0559082	0.0561523	-1.14062	-0.00738434	0.199116	0.00259155	-0.979945	-3.86745	-0.00215322	9.30982	0.0279619	0.0244481	-0.00786575	0.243408	0.117432	-1.04736	0.102602	0.0390977	-0.559937	-0.821228	0.478093	9.19645	3.52557	-0.083725	-0.00656314	0.0457099	-0.469727	-0.915771	-0.552002	0.0551074	0.245702	-0.936876	-0.242606	-0.148014	4.69734	-8.54537	0.059145	-0.0431393	-0.026667	-0.4375	-0.710449	0.746094	-0.0766703	-0.0719035	0.65567	-0.747696	2.06873	-9.30402	1.36178	-0.0401956	0.01209	-0.0234437	-0.428711	1.16406	-0.0366211	0.0331684	-0.0430375	0.983356	-0.173375	-0.362903	-2.24634	-6.04583	0.0030458	0.00792986	-0.0129276	-0.190186	0.332275	0.891846	0.11324	-0.0658136	-0.0514795	-0.990048	1.6244	0.841338	10.3014	-0.0702042	0.0985882	-0.0100947	-0.483887	-0.00415039	-0.971436	0.0740262	-0.0324879	0.0214231	-0.996497	0.673747	-0.553323	11.1065	-0.00396354	0.0203925	-0.0144337	-0.51123	0.12207	-1.04883	0.0969199	-0.0424239	-0.04731	-0.993262	1.01848	0.873354	10.5486	0.0125197	0.00634767	-0.018636	-0.526123	-0.0146484	-1.06299	-0.00965393	-0.0502471	0.00265151	-0.998687	1.20343	-0.202117	10.4511	-0.00418837	0.0163818	0.00334225	-0.506836	-0.0129395	-0.96875	-0.131631	-0.0223612	0.115039	-0.984347	0.814635	-2.11724	9.54708	0.00958709	0.014944	-0.00122739	-0.548584	0.121826	-1.06323	
37	-0.0486024	-0.175312	0.0666979	0.981048	-3.72444	1.56232	10.1623	0.00833754	0.000333432	-0.00796101	0.0646973	0.0561523	-1.12964	-0.0073721	0.199592	0.00223659	-0.979849	-3.92444	-0.0750833	9.23715	0.0108407	0.0351663	-0.012788	0.243408	0.117432	-1.052	0.104442	0.0370949	-0.559103	-0.821657	0.820558	9.19369	3.67543	0.0383297	-0.0225848	0.119525	-0.472168	-0.904785	-0.554443	0.0519459	0.246666	-0.936795	-0.242636	-0.208616	4.70055	-8.66343	0.00481669	-0.102718	-0.0686909	-0.43042	-0.719238	0.748535	-0.0766578	-0.0716704	0.656162	-0.747287	1.93953	-9.50967	1.19267	-0.0160371	-0.000884936	-0.00656886	-0.426514	1.16626	-0.043457	0.0332377	-0.0430838	0.983399	-0.173105	-0.36868	-2.25548	-6.02483	-0.0174274	0.0136116	-0.0146768	-0.187988	0.330322	0.89624	0.113455	-0.0637966	-0.0513722	-0.990161	1.4293	0.807688	10.1888	0.02655	0.0750905	-0.00832923	-0.481689	-0.00634766	-0.979736	0.0739988	-0.0325132	0.0214131	-0.996498	0.608602	-0.561199	11.0933	0.00475341	0.0146075	-0.0172236	-0.515625	0.126221	-1.04663	0.0968731	-0.0424322	-0.0472855	-0.993267	0.96203	0.854369	10.5153	0.00190335	0.00675643	-0.0201141	-0.52832	-0.0168457	-1.06738	-0.00966616	-0.050251	0.00262201	-0.998686	1.06032	-0.201025	10.4731	0.00479547	0.0136569	0.00364924	-0.500488	-0.00415039	-0.966553	-0.131638	-0.0222503	0.114966	-0.984357	0.738307	-2.13502	9.54149	0.00521358	0.0117439	-0.0029824	-0.551025	0.124023	-1.06104	
38	-0.0485768	-0.175414	0.0667954	0.981024	-3.75105	1.57033	10.1558	0.00217042	-0.00303025	-0.000545709	0.0600586	0.0581055	-1.13184	-0.00730385	0.199982	0.00193333	-0.97977	-3.98783	-0.0635398	9.27846	-0.00287364	0.0322556	-0.0153812	0.24585	0.11084	-1.04956	0.105949	0.0366758	-0.562717	-0.819011	0.426449	9.31916	3.57669	0.0981176	-0.00869168	0.106181	-0.480713	-0.908936	-0.547607	0.0488272	0.247704	-0.936321	-0.244054	-0.266807	4.69384	-8.53881	0.000921783	-0.131838	-0.0866027	-0.426025	-0.717041	0.750732	-0.0766304	-0.0718588	0.656097	-0.747329	1.98082	-9.41242	1.27577	0.00227856	0.00459777	-0.0207405	-0.422119	1.16406	-0.0388184	0.0333461	-0.0431391	0.983437	-0.172853	-0.382882	-2.24623	-6.04768	0.00235685	0.0112862	-0.0167668	-0.192627	0.334473	0.898193	0.113739	-0.0618411	-0.0504459	-0.9903	1.36763	0.818016	10.4007	-0.013311	0.0956125	-0.005836	-0.475342	-0.00415039	-0.981934	0.0737976	-0.0322642	0.0210034	-0.99653	0.615745	-0.480116	11.1083	0.0110362	0.0168661	-0.015186	-0.506836	0.124023	-1.04663	0.096875	-0.0424664	-0.0474494	-0.993257	0.973184	0.854147	10.5303	0.013637	0.00423007	-0.0168512	-0.52124	-0.0168457	-1.06519	-0.00965752	-0.0502491	0.00234119	-0.998687	1.09362	-0.118172	10.4539	-0.00161232	0.00811736	0.0044249	-0.504883	-0.00854492	-0.966553	-0.131631	-0.0223764	0.11492	-0.984361	0.776247	-2.15319	9.55005	0.00872894	0.00360201	-0.00395463	-0.553223	0.121826	-1.05884	
39	-0.0485237	-0.175462	0.0666982	0.981025	-3.66798	1.61263	10.1854	-0.00485169	0.00166147	-0.00112327	0.0644531	0.0583496	-1.13623	-0.00743424	0.200351	0.00202961	-0.979694	-3.89732	-0.100584	9.22625	-0.0106655	0.0266098	-0.0235085	0.246094	0.108643	-1.0542	0.109837	0.0320994	-0.560366	-0.820302	0.782478	9.28475	4.14621	-0.186688	-0.102605	0.255677	-0.489502	-0.902344	-0.559082	0.0414754	0.249999	-0.936099	-0.243925	-0.399686	4.64058	-8.55386	0.0829919	-0.274925	-0.174423	-0.408203	-0.717041	0.761719	-0.0765077	-0.0716047	0.656355	-0.747139	2.03708	-9.44364	1.24339	-0.021002	0.0114645	-0.00552068	-0.428711	1.16626	-0.0366211	0.0333759	-0.0431765	0.983466	-0.172672	-0.369103	-2.24727	-6.03323	-0.0109296	0.0136552	-0.0156925	-0.192383	0.332275	0.898438	0.113873	-0.0607517	-0.0499557	-0.990377	1.38508	0.772926	10.3837	-0.0121071	0.105336	-0.00695081	-0.475586	-0.00195312	-0.97998	0.0738206	-0.0323889	0.02126	-0.996519	0.655506	-0.527961	11.0836	-0.00675587	0.0123871	-0.0139	-0.509033	0.121826	-1.03955	0.0969566	-0.0424838	-0.0476373	-0.99324	1.00099	0.905778	10.5534	0.0100188	0.00552775	-0.0152524	-0.526123	-0.012207	-1.06299	-0.00968533	-0.0503198	0.0024109	-0.998683	1.13258	-0.148186	10.4591	-0.000434542	0.0116349	0.0041167	-0.500244	-0.00854492	-0.964355	-0.131611	-0.0224599	0.114843	-0.984371	0.756704	-2.10624	9.55489	0.00858251	0.00330275	-0.00307658	-0.553223	0.126221	-1.06104	
40	-0.0486794	-0.175551	0.0666281	0.981006	-3.719	1.56156	10.2048	-0.00670995	0.00385214	0.0113092	0.0600586	0.0603027	-1.13623	-0.0073838	0.200654	0.00183614	-0.979633	-3.82655	-0.0956564	9.30238	0.00519287	0.0396773	-0.0108266	0.246094	0.106445	-1.05176	0.111478	0.0325451	-0.555498	-0.823368	1.09977	10.8946	4.17701	-0.45693	0.12526	0.0398139	-0.489746	-0.891357	-0.566162	0.03878	0.251013	-0.935659	-0.245012	-0.504217	4.67201	-8.55963	-0.00990424	-0.0315959	-0.0319875	-0.401367	-0.721436	0.761719	-0.0766501	-0.071673	0.656349	-0.747124	2.02703	-9.52486	1.29123	-0.00108384	0.0112476	-0.0269533	-0.426758	1.17065	-0.0388184	0.0334338	-0.0431743	0.983495	-0.1725	-0.371674	-2.22902	-6.04265	-0.0114627	0.0102699	-0.0141394	-0.194336	0.325928	0.89209	0.114174	-0.056672	-0.048652	-0.990649	1.30534	0.754058	10.3693	-0.0106849	0.116558	-0.00630342	-0.466797	-0.00195312	-0.984131	0.0738225	-0.0324097	0.0212496	-0.996518	0.640224	-0.554367	11.0889	0.00496223	0.0150935	-0.0150082	-0.511475	0.126221	-1.05127	0.0969644	-0.0425169	-0.0475779	-0.99324	1.02025	0.93182	10.5291	0.000271323	0.00464036	-0.0174997	-0.52832	-0.0168457	-1.06958	-0.00969966	-0.0503204	0.00244714	-0.998683	1.11975	-0.154208	10.4513	-0.000167243	0.0135211	0.00327968	-0.502686	-0.00854492	-0.964355	-0.131632	-0.0224623	0.114992	-0.98435	0.780455	-2.09251	9.55311	-0.00509375	0.00378174	-0.00295163	-0.553223	0.121826	-1.06104	
41	-0.0486487	-0.175623	0.0666627	0.980992	-3.67475	1.56618	10.1757	0.00153591	0.00122369	-0.00621447	0.0646973	0.0561523	-1.13184	-0.00741937	0.20053	0.00185829	-0.979658	-4.0436	0.039516	9.26598	-0.0268111	0.00601777	-0.0236829	0.248291	0.108643	-1.05176	0.111487	0.0336321	-0.556596	-0.822582	0.440704	9.15826	3.97784	-0.0231246	-0.0240618	0.0413409	-0.480957	-0.900146	-0.565918	0.0359124	0.252068	-0.935919	-0.243367	-0.507125	4.63669	-8.61995	0.111738	-0.120307	-0.0908407	-0.399414	-0.717041	0.766113	-0.0764537	-0.0719139	0.656066	-0.747369	1.98512	-9.25109	1.25008	0.000723965	-0.0104414	-0.00347771	-0.422119	1.16406	-0.0412598	0.0336039	-0.0431943	0.983468	-0.172616	-0.355913	-2.23448	-6.0362	0.0103388	0.00817203	-0.0148346	-0.192139	0.328125	0.898438	0.11447	-0.0546932	-0.0476087	-0.990777	1.2805	0.811588	10.5073	-0.0289318	0.0980974	-0.00607499	-0.460205	-0.00390625	-0.990479	0.0738015	-0.0323813	0.0213857	-0.996518	0.641994	-0.495266	11.0748	-0.00874899	0.0177292	-0.0168249	-0.510986	0.117676	-1.04639	0.0969673	-0.0425416	-0.0472187	-0.993256	0.992616	0.852886	10.5318	-0.00588534	0.00859251	-0.0172254	-0.521484	-0.0144043	-1.06519	-0.00972798	-0.0503108	0.00266916	-0.998683	1.127	-0.182069	10.4412	-0.00425378	0.0136504	0.00353023	-0.502441	-0.0107422	-0.970947	-0.131605	-0.0224494	0.115189	-0.984331	0.792018	-2.15854	9.54398	-0.00172872	0.0102325	-0.00215075	-0.553223	0.121826	-1.06323	
42	-0.048611	-0.176158	0.066368	0.980918	-3.76698	1.61796	10.1847	-0.0134332	0.0186356	-6.36147e-05	0.0646973	0.0561523	-1.13184	-0.00752869	0.200501	0.00244028	-0.979661	-3.86119	-0.17097	9.26993	-0.019688	0.0198671	-0.0240257	0.246094	0.108643	-1.04932	0.113738	0.0316988	-0.54818	-0.827984	1.06097	9.78245	3.81252	-0.475364	0.0174622	0.0578095	-0.489746	-0.886963	-0.577637	0.0344708	0.252842	-0.936021	-0.24238	-0.565928	4.56296	-8.53119	0.108682	-0.0683479	-0.0802143	-0.39502	-0.714844	0.770508	-0.0765797	-0.0713377	0.657871	-0.745823	2.06084	-9.56501	1.24765	-0.118953	0.0278455	-0.00407714	-0.426758	1.16846	-0.0297852	0.0337233	-0.0431473	0.983464	-0.172625	-0.378493	-2.23657	-6.02294	0.00393532	0.00673166	-0.00986438	-0.187988	0.330322	0.898438	0.114629	-0.0536684	-0.0469478	-0.990846	1.28899	0.762974	10.4507	-0.0264585	0.101735	-0.00363881	-0.462891	0.00463867	-0.988525	0.0738234	-0.0323842	0.0215955	-0.996511	0.614409	-0.582011	11.1037	-0.00195514	0.0172245	-0.0129689	-0.513672	0.128418	-1.04663	0.0969781	-0.042551	-0.0470892	-0.993261	0.984756	0.836798	10.5174	0.00365905	0.00788882	-0.0182289	-0.521484	-0.0144043	-1.06738	-0.00972189	-0.0502768	0.00264943	-0.998684	1.0819	-0.195103	10.4484	0.0062988	0.0150122	0.00487315	-0.502686	-0.00634766	-0.968994	-0.131641	-0.0222897	0.11499	-0.984353	0.764195	-2.14741	9.55205	0.00777803	0.0120257	-0.00258481	-0.550781	0.121826	-1.06104	
43	-0.0488169	-0.176062	0.0661387	0.980941	-3.70638	1.5266	10.1627	-0.00892837	-0.0101157	0.00555268	0.0622559	0.0583496	-1.13843	-0.00763157	0.201025	0.00229856	-0.979554	-3.99183	-0.0431533	9.27176	0.00173188	0.0288389	-0.0118852	0.241699	0.106445	-1.05396	0.112941	0.0343312	-0.549151	-0.827344	0.288211	8.6794	4.05085	0.0998048	0.0356033	-0.00683	-0.483154	-0.891602	-0.577637	0.0340291	0.253197	-0.936206	-0.241353	-0.585024	4.56552	-8.58263	0.0353323	-0.00394934	-0.0139923	-0.388428	-0.7146	0.770508	-0.0765167	-0.0714158	0.65779	-0.745894	1.93463	-9.42342	1.1682	0.0412536	-0.0144323	-0.0117486	-0.431152	1.17065	-0.0297852	0.0335731	-0.0434307	0.98356	-0.172036	-0.377691	-2.2254	-6.04352	-0.0155259	0.00727178	-0.012696	-0.189941	0.325928	0.898438	0.114998	-0.0517497	-0.0459696	-0.990951	1.13332	0.73007	10.4429	-0.00593671	0.093432	-0.00340268	-0.458252	0.000488281	-0.992676	0.0738558	-0.0323667	0.0213982	-0.996514	0.64826	-0.523862	11.0846	0.0147231	0.0174057	-0.014692	-0.511475	0.128418	-1.04907	0.0969916	-0.042525	-0.0472259	-0.993254	0.990801	0.870707	10.5235	0.0105818	0.00615132	-0.0184482	-0.523682	-0.0146484	-1.06519	-0.00975287	-0.0503265	0.00243461	-0.998682	1.10266	-0.149989	10.4825	0.0081735	0.0110464	0.00224091	-0.504639	-0.0107422	-0.96875	-0.131705	-0.0222357	0.114826	-0.984365	0.75704	-2.12619	9.5573	0.00689061	0.00776847	-0.00427117	-0.551025	0.124023	-1.06104	
44	-0.0488477	-0.17623	0.0659644	0.980921	-3.69416	1.55067	10.165	-0.013157	0.0101991	0.000287402	0.0644531	0.0583496	-1.13184	-0.00769524	0.200697	0.00262199	-0.97962	-3.87767	-0.120273	9.29129	-0.0116535	0.00450877	-0.0207688	0.24585	0.113037	-1.04712	0.113215	0.0334598	-0.54831	-0.8279	0.735799	9.6193	3.95821	-0.0663249	0.00627501	-0.0536049	-0.485352	-0.887207	-0.580078	0.033748	0.253419	-0.935938	-0.242199	-0.573352	4.56922	-8.63738	-0.0486445	-0.00878038	-0.0116985	-0.390625	-0.712402	0.766113	-0.0765262	-0.0710856	0.659047	-0.744813	2.10348	-9.36383	1.19481	-0.121517	0.0265195	-0.00594265	-0.428955	1.17065	-0.0297852	0.0338527	-0.0433962	0.983384	-0.172992	-0.379216	-2.24868	-6.01146	0.0429547	0.00487511	-0.0135531	-0.188232	0.332275	0.894043	0.115346	-0.049704	-0.0450739	-0.991057	1.2308	0.746709	10.4282	-0.0133701	0.108124	-0.00309221	-0.449951	0.00488281	-0.99707	0.0738823	-0.0323891	0.0213754	-0.996512	0.62029	-0.506441	11.1062	0.00265088	0.0138949	-0.012572	-0.510986	0.119629	-1.04175	0.097003	-0.0425131	-0.047371	-0.993247	0.993681	0.908845	10.5529	0.00891309	0.00633862	-0.0186372	-0.535156	-0.0192871	-1.06738	-0.00978093	-0.0503736	0.00252064	-0.998679	1.09606	-0.159587	10.4442	-0.000434669	0.0116347	0.0041239	-0.502686	-0.00634766	-0.968994	-0.131705	-0.0223055	0.114799	-0.984367	0.761115	-2.1002	9.56392	0.00207094	0.00515704	-0.00437074	-0.54834	0.117432	-1.06104	
45	-0.0491393	-0.17651	0.0655012	0.980887	-3.74134	1.48604	10.2028	-0.00780871	-0.00397333	0.00341006	0.0622559	0.0583496	-1.13403	-0.00774945	0.200548	0.00235039	-0.97965	-3.95973	-0.0537871	9.28965	-0.00676188	0.00102827	-0.0181877	0.24585	0.113037	-1.04956	0.112979	0.0330912	-0.546981	-0.828826	0.768898	9.2646	4.02871	-0.0347863	0.00357745	0.00783383	-0.485352	-0.891357	-0.582275	0.0333901	0.253758	-0.935709	-0.242775	-0.580551	4.58943	-8.59013	-0.00929445	-0.0103861	-0.0178699	-0.388184	-0.719238	0.772705	-0.0767254	-0.0707257	0.660021	-0.743965	1.95064	-9.59931	1.19565	0.00227234	0.00826158	-0.0155805	-0.428955	1.16846	-0.0273438	0.0341144	-0.0433377	0.983413	-0.172793	-0.387814	-2.24733	-6.01686	-0.018008	0.0064767	-0.0114034	-0.188232	0.334473	0.89624	0.115701	-0.0478074	-0.0446019	-0.99113	1.114	0.721521	10.4619	0.0184585	0.0799549	-0.00385936	-0.454346	0.00683594	-0.99707	0.0738732	-0.0324137	0.0214334	-0.99651	0.647634	-0.513144	11.0889	0.00345339	0.0176966	-0.0151896	-0.509033	0.124023	-1.04199	0.0970098	-0.0425415	-0.0472432	-0.993251	1.00436	0.886963	10.53	-0.00225219	0.00610349	-0.0169139	-0.521484	-0.0100098	-1.06299	-0.00979545	-0.0503778	0.00248552	-0.998679	1.12964	-0.179282	10.4598	0.00567446	0.0139183	0.00429762	-0.506592	-0.017334	-0.964111	-0.131721	-0.0223359	0.114838	-0.984359	0.798542	-2.13915	9.55028	0.00128851	0.00959473	-0.00391265	-0.552979	0.117432	-1.06104	
46	-0.0490308	-0.176624	0.0654826	0.980873	-3.75508	1.51894	10.1699	0.000394127	0.00223977	-0.00537174	0.0690918	0.0539551	-1.13403	-0.0076992	0.200456	0.00193605	-0.979671	-3.91013	-0.00463029	9.27549	0.0146288	0.0147276	-0.00804061	0.246094	0.108643	-1.04712	0.112824	0.033506	-0.54726	-0.828646	0.68595	9.38981	4.0046	0.00957661	0.00928651	-0.00872417	-0.487549	-0.88501	-0.582275	0.0329612	0.254021	-0.935818	-0.242141	-0.590943	4.58047	-8.62465	0.0397811	-0.0019003	-0.01177	-0.390625	-0.712646	0.774902	-0.0764379	-0.0706761	0.65989	-0.744115	2.03741	-9.45992	1.13797	-0.00365448	0.00509328	-0.00492604	-0.428955	1.16846	-0.0273438	0.0341144	-0.0433377	0.983413	-0.172793	-0.387814	-2.24733	-6.01686	-0.018008	0.0064767	-0.0114034	-0.188232	0.334473	0.89624	0.116037	-0.0461822	-0.0441557	-0.991188	1.10106	0.735174	10.4575	-0.00189743	0.0867645	-0.00152107	-0.441406	0.00488281	-1.00122	0.0739095	-0.0324199	0.0215633	-0.996505	0.64296	-0.534188	11.0976	-0.00396651	0.0167386	-0.0133826	-0.513428	0.124023	-1.04419	0.0969978	-0.0425285	-0.0470713	-0.993261	0.998126	0.875301	10.5555	-0.00838148	0.00878216	-0.0192683	-0.52124	-0.0168457	-1.06055	-0.0097434	-0.0502416	0.00245232	-0.998687	1.10117	-0.158656	10.4678	0.00250265	0.0125166	0.00458517	-0.504883	-0.00634766	-0.973389	-0.131682	-0.0222993	0.114772	-0.984373	0.766245	-2.13664	9.55043	0.00672681	0.0102656	-0.00238927	-0.548584	0.119629	-1.06323	
47	-0.0489823	-0.176652	0.0655113	0.980869	-3.76051	1.5454	10.1849	0.00287197	-0.0027896	-0.00276226	0.064209	0.0627441	-1.13623	-0.00760392	0.20006	0.00165673	-0.979753	-3.98194	-0.115995	9.2947	0.0117939	-0.0174278	-0.00614277	0.239502	0.106445	-1.04932	0.112837	0.0334828	-0.546993	-0.828822	0.69751	9.41984	4.01079	-0.0242516	0.00531149	-0.00232437	-0.485352	-0.887207	-0.582275	0.0328158	0.254172	-0.935738	-0.242308	-0.603781	4.57079	-8.61894	-0.0220901	0.00278791	-0.00384446	-0.388428	-0.717041	0.772705	-0.0766427	-0.0705876	0.659551	-0.744403	1.93943	-9.44032	1.16084	0.0154095	0.0181035	-0.0144631	-0.426758	1.17065	-0.0344238	0.0338817	-0.0437355	0.983347	-0.173115	-0.397801	-2.24851	-6.02529	0.0231917	0.00991553	-0.0177203	-0.190186	0.328125	0.900635	0.116353	-0.0447254	-0.0439416	-0.991227	1.09629	0.718517	10.5078	0.0167162	0.0726571	-0.00958256	-0.439209	0.00708008	-0.99707	0.0739107	-0.0324387	0.021641	-0.996502	0.630404	-0.564785	11.0991	0.00311874	0.0150488	-0.0149938	-0.513184	0.119873	-1.05347	0.0967744	-0.0424593	-0.0470495	-0.993287	0.984928	0.84517	10.5264	0.00786229	0.00617325	-0.0175847	-0.526123	-0.0146484	-1.06519	-0.00977851	-0.0502203	0.00251393	-0.998687	1.0965	-0.189361	10.445	0.00177163	0.0145513	0.00310793	-0.509521	-0.00439453	-0.968994	-0.13168	-0.0222922	0.114746	-0.984376	0.779176	-2.1088	9.54024	0.00340542	0.00947876	-0.00335258	-0.550781	0.119629	-1.06567	
48	-0.0488949	-0.176779	0.0654951	0.980851	-3.72217	1.56896	10.1637	0.00140768	0.000483382	-0.00442261	0.0625	0.0561523	-1.12964	-0.00764306	0.199902	0.00261785	-0.979783	-3.98362	-0.185882	9.24644	-0.0489874	-0.0254703	-0.0330645	0.241211	0.119629	-1.05225	0.112782	0.0333662	-0.546555	-0.829122	0.677216	9.24461	4.05411	-0.0208285	-0.00825078	0.00378157	-0.477051	-0.880859	-0.577881	0.0330393	0.254126	-0.935465	-0.24338	-0.60874	4.59482	-8.59012	-0.0380246	0.00262527	0.00194149	-0.390381	-0.718994	0.766113	-0.0765975	-0.0706903	0.65921	-0.744699	1.92524	-9.4434	1.12775	0.0361355	0.00248503	-0.0176334	-0.426758	1.16846	-0.0251465	0.0338817	-0.0437355	0.983347	-0.173115	-0.397801	-2.24851	-6.02529	0.0231917	0.00991553	-0.0177203	-0.190186	0.328125	0.900635	0.116427	-0.0444049	-0.0437679	-0.99124	1.14175	0.737433	10.5736	0.00382683	0.0363253	-0.0124943	-0.441406	0.00488281	-1.00122	0.0739118	-0.032444	0.0216288	-0.996502	0.61716	-0.51853	11.0923	0.00765391	0.0154228	-0.0138067	-0.513672	0.128418	-1.03955	0.0968044	-0.0424581	-0.047119	-0.99328	0.986102	0.850007	10.5428	0.0107043	0.0063765	-0.015843	-0.52124	-0.019043	-1.06519	-0.00978873	-0.0502443	0.00249282	-0.998686	1.07179	-0.168416	10.4672	0.00471273	0.0122683	0.00308291	-0.506836	-0.0109863	-0.96875	-0.131677	-0.0222882	0.114786	-0.984372	0.748661	-2.12035	9.55999	-0.00187687	0.0086089	-0.00328112	-0.550537	0.115234	-1.05859	
49	-0.0492635	-0.176947	0.0652778	0.980817	-3.71208	1.51874	10.1699	-0.0143931	0.00838556	0.0190565	0.0666504	0.0583496	-1.12769	-0.00762594	0.199251	0.00184999	-0.979917	-3.83765	-0.0754015	9.34342	0.0105792	0.0176038	-0.00914885	0.241455	0.113037	-1.04712	0.112517	0.0333612	-0.547121	-0.828785	0.638813	9.35247	3.99492	0.0274094	-0.00692422	-0.00739974	-0.485596	-0.887207	-0.584473	0.0330393	0.254126	-0.935465	-0.24338	-0.60874	4.59482	-8.59012	-0.0380246	0.00262527	0.00194149	-0.390381	-0.718994	0.766113	-0.0765058	-0.0705386	0.659228	-0.744708	2.08209	-9.39674	1.20516	-0.0211951	0.0226502	-0.0195622	-0.426758	1.16846	-0.0319824	0.033829	-0.0438861	0.983387	-0.172859	-0.39043	-2.24921	-6.07048	-0.00501069	0.00732113	-0.0142353	-0.192383	0.330078	0.89624	0.116574	-0.0423481	-0.0420254	-0.991388	1.25866	0.72409	10.5036	-0.102729	0.194126	-0.0054859	-0.439209	0.00708008	-1.00146	0.0739423	-0.0324506	0.021702	-0.996498	0.669294	-0.517465	11.1082	-0.0012414	0.0170245	-0.0131294	-0.506836	0.124023	-1.04663	0.0968238	-0.0424339	-0.0473101	-0.99327	1.02104	0.892135	10.5482	0.0118665	0.00662121	-0.0178241	-0.528564	-0.0100098	-1.06738	-0.00983314	-0.0502964	0.00253652	-0.998683	1.17284	-0.154836	10.4513	-0.00132598	0.0127183	0.00272091	-0.502686	-0.00634766	-0.971191	-0.131738	-0.0222713	0.114865	-0.984355	0.777811	-2.12628	9.551	-0.00276136	0.0050126	-0.00396571	-0.550781	0.121826	-1.06567	
50	-0.0491436	-0.176877	0.0652856	0.980835	-3.73741	1.53617	10.1788	0.00543504	-0.0102043	-0.0060787	0.0666504	0.0605469	-1.13843	-0.00759229	0.19924	0.00178679	-0.97992	-3.92253	-0.0510516	9.26122	-0.000409825	0.0108399	-0.0133328	0.237305	0.11084	-1.05176	0.11252	0.0334219	-0.547177	-0.828746	0.746978	9.33603	4.00035	0.00463899	0.0185431	-0.0123512	-0.485596	-0.88501	-0.584717	0.0328646	0.254282	-0.935526	-0.243007	-0.596437	4.59839	-8.60916	0.0165682	0.000313223	-0.00636248	-0.388184	-0.719238	0.772705	-0.0763256	-0.0704601	0.659507	-0.744487	1.92133	-9.54844	1.13873	0.0047756	-0.0119466	-0.00208508	-0.424561	1.16846	-0.0251465	0.0340008	-0.0439195	0.983296	-0.173333	-0.39216	-2.24146	-6.02022	0.0267959	0.00978062	-0.0173038	-0.187988	0.330322	0.900635	0.116957	-0.0407754	-0.0422001	-0.991402	0.976787	0.588436	10.3691	0.0487063	0.00109515	-0.00536541	-0.430664	0.00927734	-1.00146	0.0739294	-0.0325155	0.0218433	-0.996494	0.641779	-0.575141	11.1059	0.00155274	0.0135632	-0.0154638	-0.513428	0.126221	-1.04883	0.0967991	-0.0424351	-0.0471712	-0.993279	0.993081	0.909656	10.5511	-0.00366526	0.00647402	-0.0199788	-0.523682	-0.0146484	-1.06738	-0.00983087	-0.0503219	0.00253738	-0.998681	1.06247	-0.188365	10.479	0.00830802	0.00838119	0.00521787	-0.504883	-0.00634766	-0.966553	-0.131779	-0.0220695	0.11473	-0.98437	0.791256	-2.12049	9.55322	0.00504186	0.0132434	-0.0026108	-0.548584	0.119629	-1.05884	
51	-0.0490582	-0.17709	0.0652726	0.980802	-3.82588	1.55385	10.1997	-0.00190504	0.00452512	-0.00302947	0.0666504	0.0583496	-1.13623	-0.00745407	0.199036	0.00177287	-0.979962	-3.96865	-0.0823113	9.28564	-0.012189	0.006043	-0.0127782	0.239258	0.113037	-1.052	0.112473	0.0337344	-0.546864	-0.828946	0.628048	9.32898	4.03796	-0.0173598	0.00816798	-0.00573362	-0.485596	-0.887207	-0.586914	0.0328158	0.254377	-0.935444	-0.243228	-0.619825	4.59883	-8.60201	-0.0148252	0.00350779	-0.00271324	-0.384033	-0.7146	0.770508	-0.0762835	-0.0704716	0.659585	-0.744421	1.95752	-9.48138	1.17415	-0.00844915	0.0144825	-0.0200575	-0.422607	1.17285	-0.0319824	0.0341332	-0.0439627	0.983197	-0.173858	-0.393246	-2.26136	-6.01535	0.0249088	0.0126236	-0.0172661	-0.190186	0.328125	0.898438	0.117162	-0.0394187	-0.0424389	-0.991422	0.929863	0.75011	10.4952	0.0255769	0.0692411	-0.00878742	-0.430664	0.00708008	-1.00781	0.0739302	-0.0324589	0.0215671	-0.996502	0.599843	-0.510874	11.1026	0.0114875	0.0162891	-0.015644	-0.509277	0.128418	-1.04663	0.0968012	-0.0425224	-0.0469808	-0.993285	0.985129	0.824183	10.5453	0.00108327	0.0032224	-0.0162612	-0.521484	-0.0144043	-1.06738	-0.00983658	-0.0503146	0.00243813	-0.998682	1.10919	-0.153517	10.4802	0.010824	0.0145478	0.00327496	-0.504883	-0.00634766	-0.964355	-0.131831	-0.0219625	0.114676	-0.984372	0.746595	-2.1457	9.57288	0.00253294	0.00439888	-0.00305347	-0.551025	0.124023	-1.06567	
52	-0.0490831	-0.17695	0.0652688	0.980826	-3.70022	1.54808	10.1968	0.00148779	-0.0104262	0.00295325	0.0644531	0.0583496	-1.13403	-0.00747671	0.199073	0.00197417	-0.979954	-3.87933	-0.0855983	9.22961	-0.017081	0.0177105	-0.0226271	0.239258	0.113037	-1.0542	0.112531	0.0334166	-0.546978	-0.828876	0.714401	9.32848	4.03982	0.0117618	-0.00628501	0.00706193	-0.481201	-0.88501	-0.580078	0.032974	0.254376	-0.935353	-0.243559	-0.591524	4.59408	-8.59714	-0.0101925	0.00736326	0.000870321	-0.390625	-0.716797	0.763916	-0.0759667	-0.070693	0.659303	-0.744682	2.04183	-9.40877	1.15095	0.0157622	-0.00778417	-0.00605688	-0.426758	1.17065	-0.0344238	0.0342254	-0.0440078	0.98315	-0.174092	-0.379836	-2.26791	-5.99871	0.00547373	0.0114738	-0.0164817	-0.190186	0.332275	0.89624	0.117331	-0.0387306	-0.0426377	-0.991421	0.947007	0.722768	10.4784	0.0293958	0.0205869	-0.0103626	-0.426514	0.0114746	-1.00562	0.0739744	-0.0325734	0.0218272	-0.996489	0.636351	-0.5322	11.0918	-0.00823523	0.0131457	-0.0131422	-0.511475	0.128418	-1.04443	0.0968653	-0.0425567	-0.0471998	-0.993266	0.99812	0.880114	10.5534	0.0129056	0.00445242	-0.0150762	-0.523682	-0.0146484	-1.06299	-0.00981573	-0.0503168	0.00243405	-0.998682	1.11318	-0.154525	10.4696	0.00279221	0.00988906	0.00405769	-0.504883	-0.00854492	-0.96875	-0.131825	-0.0221675	0.114624	-0.984374	0.775566	-2.11385	9.54657	0.00572771	0.00110402	-0.00370531	-0.551025	0.124023	-1.06104	
53	-0.0491439	-0.176975	0.0652244	0.980821	-3.69674	1.53238	10.213	-0.00193036	-0.00130312	0.00155462	0.0690918	0.0561523	-1.13403	-0.00748375	0.198906	0.00218083	-0.979988	-3.94885	-0.117544	9.24526	-0.0167663	0.00423943	-0.0202446	0.241455	0.11084	-1.0542	0.112515	0.0334783	-0.547065	-0.828818	0.73067	9.33621	4.02826	0.0100092	0.00705999	-0.00435255	-0.485596	-0.88501	-0.582275	0.0329605	0.254406	-0.935317	-0.243665	-0.612231	4.59724	-8.58873	0.000205327	0.00257919	-0.00112559	-0.390381	-0.718994	0.768311	-0.0760982	-0.070525	0.659703	-0.74433	1.95939	-9.51869	1.16956	-0.0325852	0.0170401	-0.0195251	-0.428711	1.16626	-0.0273438	0.0341516	-0.0441702	0.983144	-0.1741	-0.393743	-2.26491	-6.02426	0.00123783	0.0095007	-0.0146586	-0.186279	0.33667	0.895996	0.117434	-0.0385036	-0.0428611	-0.991408	0.953417	0.697961	10.4069	0.0255841	0.0287275	-0.0110678	-0.426025	0.00268555	-1.00757	0.0740052	-0.0325951	0.0216867	-0.996489	0.66078	-0.51998	11.0987	0.010485	0.0179805	-0.0131946	-0.509033	0.124023	-1.03735	0.0969295	-0.0425788	-0.0472908	-0.993255	1.01379	0.919346	10.5397	0.00451477	0.00535893	-0.0160731	-0.523682	-0.0146484	-1.06519	-0.00985241	-0.0503327	0.00252102	-0.998681	1.13362	-0.160088	10.4667	-0.00259999	0.0141473	0.003401	-0.502686	-0.00854492	-0.966553	-0.131859	-0.0221982	0.114694	-0.984361	0.792024	-2.12001	9.54569	-0.00184027	0.00309157	-0.00355977	-0.553223	0.121826	-1.05884	
54	-0.0491494	-0.177212	0.0651671	0.980782	-3.756	1.55068	10.1651	-0.00321923	0.00584783	0.0022362	0.0710449	0.0627441	-1.13843	-0.0075094	0.198579	0.00223349	-0.980054	-3.86559	-0.0746278	9.32768	-0.0143958	0.00373194	-0.0188583	0.241455	0.11084	-1.0542	0.112498	0.0337289	-0.547087	-0.828796	0.681916	9.32555	4.0256	0.00505248	0.00775992	-0.00638836	-0.483398	-0.880615	-0.58252	0.0329385	0.254452	-0.935271	-0.243797	-0.61111	4.59817	-8.58831	-0.00545054	0.0027333	-0.000875307	-0.390381	-0.719238	0.770508	-0.075897	-0.0705876	0.65928	-0.744719	2.0149	-9.42912	1.17493	0.0304939	0.00535121	-0.00998304	-0.424561	1.17065	-0.0319824	0.034337	-0.0441899	0.983108	-0.17426	-0.397877	-2.26451	-6.03445	0.0127051	0.00725475	-0.0170075	-0.183838	0.334473	0.894043	0.117475	-0.0380858	-0.0433864	-0.991396	0.967091	0.732856	10.5373	0.0192067	0.0317515	-0.0157081	-0.428467	0.00927734	-1.01001	0.0740177	-0.0325619	0.0218549	-0.996486	0.622546	-0.519067	11.0913	-0.00291944	0.0173238	-0.0145632	-0.515869	0.128418	-1.04419	0.0969439	-0.0425962	-0.0469993	-0.993267	0.996692	0.857194	10.5501	-0.00818552	0.00539628	-0.0165013	-0.519043	-0.0144043	-1.06299	-0.00987169	-0.0503601	0.00267232	-0.998679	1.10638	-0.174185	10.4414	-0.0026358	0.0127812	0.00349513	-0.502441	-0.0107422	-0.970947	-0.131832	-0.0221961	0.114804	-0.984351	0.791903	-2.12754	9.54432	-0.000519752	0.00864716	-0.00229012	-0.552979	0.119629	-1.0564	
55	-0.0491433	-0.177233	0.065109	0.980782	-3.79153	1.55626	10.1984	-0.00369169	-0.00291888	-0.00131452	0.0688477	0.0583496	-1.13184	-0.0074258	0.19876	0.00257532	-0.980017	-3.92719	-0.102155	9.29499	-0.0219658	0.0276934	-0.0181317	0.239258	0.117432	-1.04492	0.112488	0.0337668	-0.547065	-0.82881	0.702548	9.33965	4.03307	-0.000150792	0.00603338	-0.00449615	-0.485352	-0.887207	-0.580078	0.0329596	0.254473	-0.935211	-0.244002	-0.603262	4.61484	-8.59446	-0.00463662	0.0047273	-0.000114214	-0.388184	-0.716797	0.766113	-0.0758421	-0.0706	0.659313	-0.744695	1.95944	-9.50185	1.15243	-0.00596288	0.0019178	-0.0111172	-0.422363	1.17065	-0.0297852	0.0344152	-0.0442038	0.983065	-0.174486	-0.402641	-2.26049	-6.01665	0.0207789	0.0101506	-0.0168731	-0.19043	0.334473	0.89624	0.117589	-0.0378884	-0.043211	-0.991398	0.911918	0.685622	10.4823	0.0129639	0.0159952	-0.00973997	-0.428467	0.00488281	-1.01196	0.0740613	-0.0326035	0.0220852	-0.996476	0.634722	-0.560522	11.1024	-0.00461449	0.0154718	-0.0136334	-0.509033	0.124023	-1.04419	0.0969484	-0.0425779	-0.0468491	-0.993274	0.99582	0.853503	10.5272	-0.000242735	0.00742889	-0.017897	-0.521484	-0.0146484	-1.06079	-0.00987366	-0.0503181	0.00273468	-0.998681	1.07851	-0.177045	10.455	0.00295117	0.0140024	0.00448686	-0.502686	-0.00854492	-0.96875	-0.131808	-0.0221648	0.114788	-0.984357	0.789565	-2.12727	9.54457	0.00247913	0.0117998	-0.00154053	-0.550537	0.113037	-1.06079	
56	-0.0491645	-0.177197	0.0650321	0.980793	-3.72242	1.54582	10.1565	-0.003402	-0.00107645	0.00185809	0.0666504	0.0605469	-1.12988	-0.00742221	0.198824	0.00266248	-0.980003	-3.93337	-0.0576469	9.24668	-0.0152477	0.0201489	-0.018786	0.239258	0.113037	-1.052	0.112452	0.0339464	-0.547116	-0.828774	0.666152	9.3438	4.02007	0.00310798	0.00710883	-0.00554364	-0.483398	-0.889404	-0.584473	0.0329537	0.254507	-0.935194	-0.244032	-0.623037	4.61711	-8.59672	-0.00044572	0.00551608	0.000200407	-0.385986	-0.721191	0.766113	-0.0758421	-0.0706	0.659313	-0.744695	1.95944	-9.50185	1.15243	-0.00596288	0.0019178	-0.0111172	-0.422363	1.17065	-0.0297852	0.0343138	-0.0443743	0.983009	-0.174775	-0.396202	-2.27247	-6.01111	0.012505	0.0109103	-0.0157173	-0.186279	0.341064	0.895996	0.11762	-0.0376848	-0.043292	-0.991399	0.914059	0.732149	10.4382	0.0222233	0.0288119	-0.0144416	-0.42627	0.00488281	-1.00977	0.0740592	-0.0326052	0.0221128	-0.996475	0.614277	-0.577916	11.0883	0.00199122	0.0166386	-0.0152232	-0.513672	0.128418	-1.04443	0.0969649	-0.0425773	-0.0468755	-0.993271	0.989767	0.844139	10.5524	0.00716055	0.00641648	-0.0168262	-0.526123	-0.0146484	-1.06519	-0.00987093	-0.0503288	0.00268859	-0.99868	1.08699	-0.1793	10.444	0.00646491	0.0127923	0.00436421	-0.504639	-0.0107422	-0.966553	-0.131804	-0.0221478	0.114695	-0.984369	0.756919	-2.1187	9.55766	0.00295459	0.00841325	-0.00419882	-0.544189	0.124023	-1.06787	
57	-0.0492618	-0.177261	0.0649185	0.980784	-3.78731	1.53286	10.179	-0.0040553	-0.00595377	0.00208376	0.0732422	0.0605469	-1.13623	-0.00744015	0.198601	0.00269186	-0.980048	-3.91499	-0.075872	9.30889	-0.0118416	0.00954699	-0.0174186	0.241455	0.113037	-1.04712	0.112466	0.0339003	-0.547299	-0.828653	0.667097	9.32114	4.00375	0.0157403	0.00206212	0.00321094	-0.483398	-0.887207	-0.586914	0.0329827	0.254504	-0.935159	-0.244166	-0.610369	4.61166	-8.5857	-0.00964891	0.00432825	0.00140043	-0.383789	-0.718994	0.766113	-0.0760001	-0.0704913	0.659402	-0.74461	1.95204	-9.50026	1.17798	-0.0219091	0.0164763	-0.0137087	-0.42041	1.17505	-0.0297852	0.0344578	-0.0443925	0.983004	-0.174771	-0.401567	-2.27095	-6.01691	0.000572258	0.0102865	-0.0156639	-0.190186	0.332275	0.900391	0.11766	-0.0374706	-0.0433758	-0.991398	0.924075	0.739931	10.4703	0.0250542	0.0298401	-0.0126048	-0.428467	0.00708008	-1.00781	0.0740754	-0.0325983	0.0219553	-0.996478	0.629074	-0.550911	11.089	0.0130265	0.0159701	-0.0150425	-0.511475	0.128418	-1.04663	0.0969768	-0.0425895	-0.0468907	-0.993269	1.00117	0.837892	10.5277	0.00548826	0.00659592	-0.0170207	-0.525879	-0.0168457	-1.06519	-0.00995352	-0.0503728	0.00269961	-0.998677	1.10189	-0.175166	10.4415	0.00131711	0.0112438	0.00197958	-0.506836	-0.0109863	-0.96875	-0.131818	-0.0222049	0.114726	-0.984362	0.780951	-2.14246	9.55315	0.00191441	0.00600138	-0.00498779	-0.550781	0.121826	-1.06104	
58	-0.049299	-0.177233	0.0649394	0.980786	-3.71392	1.53121	10.1571	0.00326411	-0.00271812	0.00189457	0.0688477	0.0605469	-1.13403	-0.00747788	0.198574	0.00264355	-0.980054	-3.88128	-0.0742234	9.28403	-0.00421714	0.0126171	-0.0201735	0.234863	0.117432	-1.04736	0.112462	0.0338668	-0.547292	-0.828659	0.693151	9.36462	3.97245	-0.011026	0.00201167	-0.00263145	-0.483154	-0.889404	-0.579834	0.0330102	0.254528	-0.935124	-0.244273	-0.606866	4.61523	-8.59415	0.000939013	0.00520664	-0.000964782	-0.388184	-0.721191	0.768311	-0.0757166	-0.0705999	0.659111	-0.744886	2.00038	-9.40841	1.17527	0.019769	-0.00487097	-0.0100219	-0.428955	1.17065	-0.0319824	0.03456	-0.0444224	0.982966	-0.174958	-0.397985	-2.28397	-6.03535	0.0146116	0.0113515	-0.0165753	-0.188232	0.33667	0.895996	0.117739	-0.0373417	-0.0434795	-0.991389	0.906839	0.73208	10.4831	0.022744	0.0125579	-0.0107032	-0.430664	0.00708008	-1.00781	0.0741119	-0.0326394	0.0219229	-0.996475	0.644654	-0.511059	11.1006	0.00344582	0.0140404	-0.0149998	-0.509033	0.124023	-1.04663	0.0969813	-0.042593	-0.0470955	-0.993259	1.00931	0.878486	10.5211	0.0129568	0.00432818	-0.0185512	-0.523682	-0.012207	-1.06519	-0.00998423	-0.0504244	0.00260065	-0.998675	1.10812	-0.153356	10.4493	0.0074293	0.0135204	0.00218129	-0.506836	-0.0129395	-0.96875	-0.131826	-0.0222182	0.114626	-0.984372	0.785101	-2.11983	9.55321	0.00642434	0.0088377	-0.00511132	-0.553223	0.121826	-1.06104	
59	-0.0492804	-0.177254	0.0649328	0.980783	-3.75588	1.52794	10.1868	-9.98411e-05	-0.00485276	0.00112115	0.0688477	0.0627441	-1.13403	-0.00763649	0.198631	0.00261005	-0.980041	-3.92352	-0.0720444	9.28678	0.00360224	0.014714	-0.0153896	0.241699	0.108643	-1.04712	0.112436	0.0340254	-0.547208	-0.828712	0.675067	9.2998	4.0307	0.00821092	0.0119136	-0.00626146	-0.485596	-0.882812	-0.577881	0.0329791	0.254568	-0.935102	-0.244319	-0.611814	4.60124	-8.58678	-0.0026085	0.00386472	-1.45681e-05	-0.388184	-0.716797	0.766113	-0.07581	-0.0704557	0.659283	-0.744738	1.97883	-9.52215	1.17184	-0.0122135	0.0111805	-0.0150967	-0.428955	1.16846	-0.0273438	0.0347024	-0.0444909	0.982823	-0.175711	-0.395614	-2.28381	-5.99198	0.0326688	0.0118859	-0.0192148	-0.19043	0.334473	0.902588	0.117763	-0.0373263	-0.0435413	-0.991384	0.935556	0.740716	10.4467	0.0216484	0.0148015	-0.0131954	-0.42627	0.00708008	-1.00146	0.0741334	-0.0326546	0.0220183	-0.99647	0.640955	-0.544986	11.0982	0.00214716	0.0170614	-0.0148194	-0.513672	0.130615	-1.04663	0.0969874	-0.0426188	-0.0470656	-0.993258	0.990035	0.86551	10.5493	0.00316785	0.0046239	-0.0182113	-0.526123	-0.0146484	-1.06738	-0.0100066	-0.0504335	0.00250851	-0.998674	1.09438	-0.154632	10.4612	0.00367822	0.0142118	0.00304739	-0.504883	-0.00634766	-0.968994	-0.131803	-0.0221913	0.114579	-0.984382	0.774321	-2.11095	9.54383	0.00249333	0.00932734	-0.0020545	-0.55542	0.119629	-1.06567	
60	-0.0492443	-0.177282	0.0649216	0.980781	-3.74131	1.54108	10.1754	-0.000757877	-0.00310694	-0.0012618	0.0666504	0.0605469	-1.13623	-0.0078422	0.198496	0.00216892	-0.980068	-3.91159	-0.0744133	9.28637	0.014504	0.00202338	-0.0136131	0.237305	0.108643	-1.05176	0.11246	0.0340114	-0.547269	-0.828669	0.701277	9.35889	4.01492	-0.0032432	0.0032066	0.000249119	-0.487549	-0.886963	-0.586914	0.0330125	0.25458	-0.935059	-0.244468	-0.618947	4.61153	-8.61584	-0.00571802	0.00390194	-0.000223933	-0.381592	-0.718994	0.770508	-0.0758241	-0.0705353	0.659157	-0.744841	1.99906	-9.41964	1.18665	0.00653173	0.00261009	-0.00980188	-0.428711	1.16626	-0.0273438	0.0346142	-0.0446537	0.982813	-0.175747	-0.397744	-2.29952	-6.01108	0.00247873	0.0101765	-0.0146566	-0.197021	0.33667	0.895996	0.117754	-0.0368112	-0.0440376	-0.991383	0.890063	0.707579	10.4823	0.0297926	0.00357675	-0.0102386	-0.424072	0.00488281	-1.01416	0.0741518	-0.0326917	0.0221277	-0.996465	0.623947	-0.530862	11.0922	-0.00212107	0.0152999	-0.0146624	-0.509277	0.126221	-1.04663	0.0967822	-0.0425406	-0.0470227	-0.993284	0.992533	0.871637	10.5334	0.000715371	0.006249	-0.017343	-0.521484	-0.012207	-1.06299	-0.00996648	-0.0502996	0.0025844	-0.998681	1.09936	-0.153733	10.4553	-0.00153512	0.012209	0.00382042	-0.504883	-0.00854492	-0.966553	-0.131854	-0.0220887	0.114581	-0.984377	0.770824	-2.11702	9.55421	3.79966e-06	0.00885786	-0.00340188	-0.551025	0.124023	-1.05884	
61	-0.0491359	-0.177307	0.0649474	0.98078	-3.72227	1.54159	10.1628	0.00237076	-0.00440212	-0.00760922	0.0668945	0.0561523	-1.12964	-0.00782486	0.198519	0.0030279	-0.980061	-3.99349	-0.169469	9.28621	-0.0432574	-0.0180724	-0.030542	0.237061	0.113037	-1.052	0.112501	0.0339158	-0.546936	-0.828887	0.669236	9.32324	4.04603	-0.0209496	-0.00094543	0.00412249	-0.483398	-0.889404	-0.586914	0.0329869	0.254619	-0.935046	-0.24448	-0.627664	4.62683	-8.5858	0.00128734	0.00340567	-0.00101625	-0.388184	-0.718994	0.768311	-0.0759643	-0.0704042	0.659351	-0.744667	1.8698	-9.52422	1.15065	0.00311992	0.00992472	-0.0180771	-0.422363	1.16846	-0.0319824	0.0346554	-0.0446649	0.982841	-0.175575	-0.398467	-2.30122	-6.01247	-0.0114756	0.0108904	-0.0149671	-0.190674	0.341064	0.893799	0.117695	-0.0374944	-0.0442328	-0.991355	0.762948	0.761491	10.5184	0.0224298	-0.0384683	-0.0164119	-0.43042	0.00488281	-1.00562	0.0741961	-0.0326561	0.0221219	-0.996463	0.59174	-0.57311	11.0923	0.00656971	0.0192523	-0.014565	-0.513428	0.126221	-1.04663	0.0968044	-0.0425852	-0.046962	-0.993282	0.989287	0.853792	10.5445	0.00701069	0.00496474	-0.0165186	-0.52124	-0.0168457	-1.06299	-0.00997286	-0.0502977	0.00259975	-0.998681	1.10967	-0.17377	10.4695	0.00153989	0.0140292	0.00388041	-0.504639	-0.0107422	-0.96875	-0.131891	-0.0220295	0.114596	-0.984372	0.760171	-2.13088	9.54518	-0.000132551	0.00699816	-0.0032705	-0.550781	0.119629	-1.06323	
62	-0.0494211	-0.177448	0.0647534	0.980753	-3.74171	1.4937	10.1796	-0.0116094	0.00736345	0.0148205	0.0666504	0.0605469	-1.13184	-0.0077803	0.198124	0.00243588	-0.980143	-3.81316	-0.0964949	9.36439	0.00339164	0.0245382	-0.0093816	0.234863	0.113037	-1.052	0.11241	0.0339953	-0.547584	-0.828468	0.620025	9.348	3.99104	0.0386721	-0.00499196	0.0019986	-0.483398	-0.882812	-0.577881	0.0330176	0.254586	-0.935053	-0.244481	-0.629404	4.61485	-8.59783	0.0016177	0.00637024	0.00411715	-0.388184	-0.721191	0.768311	-0.0757479	-0.0705302	0.658779	-0.745183	2.08767	-9.38853	1.17346	0.0248232	0.013463	-0.0183058	-0.420166	1.17065	-0.0319824	0.0345743	-0.0448919	0.982811	-0.175706	-0.395585	-2.28476	-6.02184	0.0213108	0.00669859	-0.0187287	-0.188232	0.332275	0.89624	0.117658	-0.0367896	-0.0423843	-0.991467	1.11339	0.73283	10.6073	-0.111812	0.101635	-0.0127255	-0.426514	0.00927734	-1.01196	0.0742545	-0.0327121	0.0220959	-0.996458	0.686776	-0.52797	11.0875	0.00211415	0.0170598	-0.0148052	-0.51123	0.126221	-1.04907	0.0968472	-0.0425887	-0.0470093	-0.993276	1.01277	0.854471	10.5168	0.0067368	0.00573356	-0.018057	-0.521484	-0.0146484	-1.06299	-0.00995654	-0.0501945	0.00262248	-0.998686	1.15512	-0.171112	10.4528	-0.00209648	0.0124913	0.00348868	-0.504639	-0.0107422	-0.966553	-0.131878	-0.0220508	0.114605	-0.984372	0.804491	-2.12494	9.56594	0.00581013	0.00994618	-0.00456636	-0.550781	0.119629	-1.06104	
63	-0.0492438	-0.177286	0.064863	0.980784	-3.72358	1.55285	10.1654	0.00648282	-0.016329	-0.00646352	0.0688477	0.0583496	-1.13403	-0.00781911	0.198209	0.00225976	-0.980126	-3.91329	-0.0394134	9.24412	0.00339235	0.0143958	-0.0158655	0.237305	0.11084	-1.0542	0.112414	0.0339847	-0.547426	-0.828573	0.738983	9.37023	4.00075	-0.0159184	0.016973	-0.0133281	-0.485596	-0.88501	-0.582275	0.0330064	0.254628	-0.935031	-0.244524	-0.599947	4.62478	-8.59408	-0.00552985	0.00336746	-0.00148275	-0.388184	-0.718994	0.766113	-0.0756846	-0.0703524	0.658806	-0.745183	1.90477	-9.50108	1.19121	0.00202149	0.00130896	-0.00775726	-0.420166	1.17065	-0.0341797	0.0347339	-0.0449364	0.982752	-0.175993	-0.407681	-2.29281	-5.99222	0.00494419	0.00955692	-0.016489	-0.186035	0.33667	0.900391	0.117795	-0.0363022	-0.0427312	-0.991454	0.896581	0.622359	10.356	0.0473038	-0.0238402	-0.0131508	-0.422119	0.0114746	-1.01001	0.0740632	-0.0325438	0.0221018	-0.996477	0.632052	-0.57828	11.1048	0.00216984	0.0152146	-0.0151931	-0.50708	0.126221	-1.04663	0.0968266	-0.0425564	-0.0469766	-0.993281	0.992639	0.868077	10.5417	0.00325289	0.00713075	-0.0184058	-0.52832	-0.012207	-1.06519	-0.0099558	-0.0502326	0.00260856	-0.998685	1.06226	-0.193051	10.4865	0.00800165	0.00918336	0.00453685	-0.50708	-0.00878906	-0.964355	-0.131872	-0.0219821	0.114567	-0.984379	0.781095	-2.12551	9.5595	0.00380459	0.0147922	-0.00253543	-0.54834	0.117432	-1.06323	
64	-0.0492059	-0.17736	0.0648685	0.980772	-3.76564	1.55406	10.1368	0.00137502	0.00127837	-0.0024513	0.0668945	0.0561523	-1.13184	-0.0077536	0.198167	0.00218353	-0.980135	-3.97023	-0.0359965	9.27412	-0.00400573	0.0117249	-0.0111427	0.234863	0.113037	-1.052	0.112373	0.0341779	-0.547226	-0.828703	0.647725	9.28059	4.01907	-0.0157042	0.0166028	-0.0148037	-0.481201	-0.889404	-0.579834	0.0330659	0.254645	-0.934942	-0.244838	-0.623699	4.62831	-8.56505	-0.00888111	0.00698834	0.000934265	-0.390381	-0.718994	0.761719	-0.0756312	-0.0703643	0.658923	-0.745084	2.00487	-9.48192	1.19287	-0.0123874	0.00277773	-0.0125349	-0.424805	1.17505	-0.0251465	0.0347827	-0.0449606	0.982779	-0.175827	-0.400733	-2.29101	-6.01382	-0.0108559	0.0111515	-0.0163087	-0.188232	0.334473	0.889648	0.117857	-0.0357997	-0.0431791	-0.991445	0.834133	0.740944	10.5022	0.0368151	0.0280359	-0.0139472	-0.424316	0.00927734	-1.01001	0.0740531	-0.0325284	0.0220099	-0.996481	0.614557	-0.55532	11.0732	0.0116875	0.0171141	-0.0165527	-0.513428	0.126221	-1.04663	0.0968125	-0.0425798	-0.0469809	-0.993281	0.971902	0.850425	10.5534	0.00528602	0.00492697	-0.019258	-0.520996	-0.0212402	-1.06958	-0.00998043	-0.0502401	0.00250471	-0.998684	1.10898	-0.16855	10.4491	0.0109849	0.0136693	0.00199895	-0.500488	-0.00634766	-0.96875	-0.131926	-0.0218198	0.114509	-0.984382	0.759287	-2.12446	9.57104	0.00202082	0.0113051	-0.00313912	-0.548584	0.119629	-1.0542	
65	-0.0491696	-0.177401	0.0648093	0.980771	-3.81298	1.53988	10.1754	-0.00348058	-0.00645748	0.00166704	0.0710449	0.0627441	-1.13843	-0.00774216	0.198193	0.00223375	-0.98013	-3.90255	-0.0735123	9.32165	-0.0123975	0.0198517	-0.0209544	0.239502	0.106445	-1.05396	0.112466	0.0339864	-0.547141	-0.828754	0.664989	9.32881	4.05112	0.00242146	-0.00460969	0.0102598	-0.483398	-0.889404	-0.584473	0.0331411	0.254656	-0.93496	-0.244747	-0.618692	4.62911	-8.5751	0.00643394	0.00800264	0.00202417	-0.388184	-0.721191	0.766113	-0.0756631	-0.0704492	0.658891	-0.7451	1.94867	-9.4609	1.15953	0.00806037	0.00325655	-0.0214831	-0.422363	1.17065	-0.0341797	0.0348587	-0.0450125	0.982751	-0.175951	-0.397956	-2.2834	-6.01838	0.0149367	0.0133934	-0.0180339	-0.19043	0.33667	0.895996	0.117705	-0.0358692	-0.0436082	-0.991442	0.889268	0.746764	10.4855	0.0248056	0.00182653	-0.0141054	-0.424316	0.00927734	-1.00781	0.0740819	-0.032572	0.0219243	-0.996479	0.62326	-0.550381	11.1091	0.00466824	0.0129488	-0.0124962	-0.51123	0.126221	-1.04419	0.0968652	-0.0426267	-0.0471469	-0.993266	0.979608	0.851713	10.5229	0.0166722	0.00456801	-0.0148956	-0.523438	-0.019043	-1.06738	-0.0100413	-0.0503625	0.00248261	-0.998677	1.07962	-0.15915	10.4725	0.00504589	0.00783642	0.00200528	-0.506836	-0.0109863	-0.973389	-0.131937	-0.0219743	0.114523	-0.984375	0.745412	-2.13117	9.56355	0.00195946	0.00106334	-0.00599743	-0.55542	0.119629	-1.06567	
66	-0.0492893	-0.177245	0.0647511	0.980797	-3.71469	1.51334	10.1915	-0.00193786	-0.00739568	0.00548515	0.0668945	0.0561523	-1.12769	-0.00775991	0.198314	0.0024348	-0.980105	-3.85231	-0.0733224	9.34023	-0.0116669	0.0139561	-0.0178244	0.243652	0.113037	-1.052	0.112524	0.033932	-0.547371	-0.828597	0.691095	9.32096	3.99699	0.0154256	0.0070092	-0.00144725	-0.485352	-0.889404	-0.577637	0.0331409	0.254668	-0.934963	-0.244725	-0.611187	4.6211	-8.5956	0.00326234	0.00559168	0.000458531	-0.390381	-0.721191	0.768311	-0.0755916	-0.0705966	0.658803	-0.745171	2.01834	-9.45425	1.17743	0.011353	0.00112946	-0.0149578	-0.422119	1.16626	-0.0297852	0.034908	-0.0450729	0.982704	-0.17619	-0.398602	-2.30494	-6.00188	0.00906075	0.0128291	-0.017599	-0.188477	0.341064	0.893799	0.117696	-0.0362136	-0.043781	-0.991423	0.946426	0.703941	10.446	0.0272483	-0.0152293	-0.015071	-0.426025	0.000488281	-1.00757	0.0741035	-0.0326183	0.0219684	-0.996475	0.646641	-0.520505	11.0953	-0.0013652	0.0151354	-0.0139239	-0.51123	0.121826	-1.04663	0.0969166	-0.0426856	-0.0473054	-0.993251	1.01062	0.886717	10.5243	0.0120876	0.00444943	-0.015874	-0.525879	-0.0168457	-1.06519	-0.0100622	-0.0504628	0.00250589	-0.998672	1.14603	-0.133125	10.4322	-0.00129913	0.0100255	0.00429952	-0.502686	-0.00854492	-0.96875	-0.131939	-0.0221529	0.114509	-0.984372	0.802293	-2.09548	9.55079	0.00148082	0.00378761	-0.00434342	-0.550781	0.121826	-1.06104	
67	-0.0491918	-0.17736	0.0648135	0.980777	-3.7188	1.54984	10.1848	0.00377624	0.00358137	-0.00657873	0.0688477	0.0605469	-1.13403	-0.00779463	0.198239	0.00248414	-0.98012	-3.8544	-0.0368219	9.29827	-0.00834951	0.00733737	-0.0203227	0.234863	0.113037	-1.0542	0.112508	0.0339516	-0.54729	-0.828652	0.685365	9.35765	4.01591	-0.00602881	0.00988819	-0.00218883	-0.485352	-0.88916	-0.584473	0.0330903	0.25471	-0.934971	-0.244657	-0.610489	4.6182	-8.58709	0.00424524	0.00393606	-0.000166992	-0.390625	-0.716797	0.761719	-0.0755863	-0.0704843	0.658896	-0.745101	1.97493	-9.44185	1.18399	-0.010325	0.0107519	-0.00909512	-0.422363	1.16846	-0.0273438	0.0347954	-0.0452424	0.982704	-0.17617	-0.394637	-2.29436	-6.02336	-0.000225699	0.0108381	-0.0155272	-0.192627	0.334473	0.89624	0.117662	-0.0364418	-0.0445276	-0.991385	0.912917	0.765998	10.4431	0.0541196	-0.0037877	-0.0166535	-0.43042	0.00268555	-1.00757	0.0741194	-0.0326146	0.0221599	-0.99647	0.638097	-0.543058	11.0952	-0.00655113	0.0172369	-0.0128235	-0.508789	0.119873	-1.04663	0.0969686	-0.0427309	-0.0471478	-0.993251	1.01523	0.898803	10.5448	-0.00643728	0.0051603	-0.0162578	-0.519043	-0.0168457	-1.06958	-0.0100628	-0.0504569	0.00269543	-0.998672	1.10539	-0.169535	10.4493	-0.00507041	0.0134135	0.00359406	-0.506836	-0.0151367	-0.96875	-0.131955	-0.0220775	0.114654	-0.984355	0.792372	-2.11627	9.56606	-0.0054209	0.00677737	-0.00222437	-0.548584	0.121826	-1.06567	
68	-0.0491099	-0.177504	0.0647447	0.980759	-3.76777	1.53097	10.1865	0.000173136	-0.000575783	-0.0050818	0.0688477	0.0627441	-1.13623	-0.00780941	0.198144	0.00267776	-0.980138	-3.8954	-0.102317	9.32321	-0.0191079	0.0167023	-0.0210293	0.237061	0.113037	-1.04712	0.112477	0.0340058	-0.547195	-0.828716	0.695233	9.32339	4.03828	-0.00172605	0.00324984	-0.00143451	-0.479004	-0.889404	-0.582275	0.032989	0.254804	-0.935031	-0.244343	-0.617861	4.60987	-8.59122	0.0202963	0.00589394	-0.00334639	-0.388428	-0.716797	0.768311	-0.0754711	-0.0703656	0.658936	-0.745088	1.99476	-9.42426	1.18832	-0.00203943	0.00621649	-0.00620903	-0.424316	1.16626	-0.0319824	0.0347131	-0.0454456	0.982715	-0.176073	-0.398457	-2.29817	-6.02586	-0.00304234	0.00929167	-0.0159731	-0.186035	0.334473	0.900391	0.117664	-0.0367323	-0.0445262	-0.991374	0.914673	0.728402	10.4913	0.0142448	0.00347382	-0.0143164	-0.421631	0.000488281	-1.00757	0.0739378	-0.0323599	0.0221237	-0.996492	0.633212	-0.56633	11.0887	0.00396715	0.0184628	-0.014369	-0.513428	0.124023	-1.04883	0.0969491	-0.0427387	-0.0468756	-0.993266	1.00754	0.825626	10.5378	-0.00362479	0.00635341	-0.0189264	-0.526123	-0.0146484	-1.06738	-0.0100756	-0.0504179	0.00282472	-0.998673	1.08299	-0.169326	10.4421	-0.000856671	0.0160227	0.00390012	-0.502441	-0.0129395	-0.966553	-0.131941	-0.0220563	0.114717	-0.98435	0.786916	-2.14592	9.56235	0.00157825	0.00967089	-0.00323275	-0.54834	0.117432	-1.05859	
69	-0.0490722	-0.177513	0.0646076	0.980768	-3.78417	1.53093	10.1712	-0.00741881	-0.00477567	1.54034e-05	0.0664062	0.0627441	-1.13403	-0.00786551	0.19841	0.00299365	-0.980083	-3.92597	-0.0450266	9.28966	-0.018921	0.0238086	-0.0222337	0.241455	0.113037	-1.04712	0.112477	0.0342249	-0.54732	-0.828624	0.668986	9.31897	4.01348	0.0113653	0.0117987	-0.00532723	-0.474854	-0.885254	-0.575439	0.0328278	0.254892	-0.93512	-0.243931	-0.606319	4.60533	-8.6044	0.0138705	0.00338831	-0.00264725	-0.385986	-0.718994	0.763916	-0.0754103	-0.0701194	0.659064	-0.745004	1.97465	-9.48822	1.17048	-0.00583276	0.0127069	-0.00956911	-0.424561	1.17065	-0.0344238	0.0348471	-0.0454862	0.982757	-0.175797	-0.413954	-2.28876	-5.9995	-0.0116723	0.010195	-0.0157483	-0.181885	0.33667	0.898193	0.117636	-0.0370904	-0.0444905	-0.991366	0.895848	0.73432	10.4589	0.0140824	-0.0033312	-0.0163519	-0.428467	0.00708008	-1.00781	0.0739501	-0.032382	0.0223473	-0.996486	0.623658	-0.5689	11.083	-0.00243543	0.0167506	-0.0132868	-0.51123	0.126221	-1.04419	0.0969815	-0.0427337	-0.0469163	-0.993261	1.00525	0.833716	10.5254	0.00937986	0.00562783	-0.0169058	-0.523682	-0.0168457	-1.06738	-0.0100829	-0.0504371	0.00275307	-0.998673	1.09301	-0.169	10.4702	0.00666765	0.0119383	0.00375877	-0.502686	-0.00634766	-0.968994	-0.131994	-0.0219254	0.114518	-0.984369	0.763027	-2.14105	9.55431	0.00783573	0.0109154	-0.00331089	-0.552979	0.115234	-1.06543	
70	-0.0491744	-0.177418	0.0644821	0.980789	-3.76133	1.50012	10.1668	-0.00570739	-0.00545543	0.00377246	0.0666504	0.0605469	-1.13403	-0.00781759	0.198342	0.00291195	-0.980097	-3.89493	-0.0844566	9.30484	-0.00603929	0.0139899	-0.0161055	0.237305	0.11084	-1.04712	0.112507	0.0341153	-0.547468	-0.828527	0.670724	9.35282	3.9949	0.00485478	-0.00195499	0.00508638	-0.487549	-0.891357	-0.584473	0.0329323	0.254865	-0.935077	-0.244111	-0.618512	4.60903	-8.58611	-0.0103048	0.00726644	0.00270452	-0.385986	-0.718994	0.768311	-0.0754032	-0.0703242	0.65901	-0.745033	1.97239	-9.45626	1.17616	0.0087598	-0.00900843	-0.0206544	-0.424561	1.17285	-0.0297852	0.0346711	-0.0456893	0.982763	-0.175748	-0.397721	-2.29018	-6.02234	-0.00136604	0.0134541	-0.0171496	-0.190186	0.332275	0.898438	0.11769	-0.0372109	-0.044686	-0.991346	0.916079	0.735614	10.4731	0.023014	0.0115702	-0.0127406	-0.43042	0.00488281	-1.00977	0.0739932	-0.0323658	0.0221371	-0.996488	0.639543	-0.568471	11.1152	0.0150622	0.0169995	-0.012289	-0.515625	0.128418	-1.04199	0.0970002	-0.0427109	-0.0471121	-0.993251	0.994222	0.869125	10.5286	0.0135211	0.00506407	-0.0171787	-0.523682	-0.0168457	-1.06299	-0.0100685	-0.0503175	0.0026281	-0.998679	1.0831	-0.163508	10.4515	0.00642995	0.0116328	0.00240074	-0.504639	-0.0107422	-0.970947	-0.131975	-0.0219796	0.114519	-0.98437	0.77284	-2.12524	9.55021	0.000251566	0.00600809	-0.00325332	-0.553223	0.124023	-1.06348	
71	-0.0491401	-0.177364	0.0645299	0.980797	-3.73361	1.50765	10.1818	0.00333296	-0.0078803	-0.00140994	0.064209	0.0646973	-1.13403	-0.00780164	0.198311	0.00292391	-0.980104	-3.8887	-0.0596596	9.2891	-0.0122967	0.0121721	-0.0180055	0.235107	0.108643	-1.05176	0.112537	0.0340878	-0.547396	-0.828572	0.692552	9.32248	4.01083	-0.00352914	0.00809131	-0.00335921	-0.485352	-0.893555	-0.584473	0.0329217	0.25489	-0.935058	-0.244157	-0.623878	4.60821	-8.59646	0.00431811	0.00400134	-0.00140756	-0.384033	-0.7146	0.768311	-0.0753166	-0.0703662	0.65888	-0.745153	2.0247	-9.41662	1.19485	-0.00100956	0.00957968	-0.0115219	-0.420166	1.16626	-0.0319824	0.0347705	-0.0457076	0.9827	-0.176077	-0.390221	-2.29123	-6.00537	0.0141464	0.010309	-0.0150108	-0.186279	0.338867	0.898193	0.117714	-0.0373402	-0.0445961	-0.991343	0.942021	0.748497	10.4464	0.0100669	0.0103628	-0.0135695	-0.428467	0.00708008	-1.00781	0.0740125	-0.0324286	0.02211	-0.996485	0.645665	-0.509895	11.0884	0.00289083	0.0150438	-0.0148796	-0.513184	0.121826	-1.04175	0.0970359	-0.0426972	-0.0472278	-0.993242	1.00394	0.87399	10.5146	0.00812905	0.0076007	-0.0167329	-0.521484	-0.0144043	-1.06958	-0.0101261	-0.0503608	0.00266457	-0.998676	1.14115	-0.171412	10.4538	0.00116154	0.0134536	0.00256706	-0.502686	-0.00634766	-0.968994	-0.131975	-0.0219796	0.114519	-0.98437	0.77284	-2.12524	9.55021	0.000251566	0.00600809	-0.00325332	-0.553223	0.124023	-1.06348	
72	-0.0491271	-0.177381	0.0645665	0.980792	-3.72013	1.53508	10.1841	0.00362131	-0.00272899	0.000455523	0.0686035	0.0649414	-1.13843	-0.00781139	0.198319	0.00285332	-0.980102	-3.89466	-0.064977	9.2586	-0.0036099	0.0160381	-0.0170309	0.237061	0.117432	-1.052	0.112534	0.0341899	-0.547392	-0.828571	0.685738	9.32272	4.02416	0.001841	0.0109895	-0.00613268	-0.485352	-0.88916	-0.589111	0.0328685	0.254925	-0.935077	-0.244058	-0.615757	4.61923	-8.60564	0.00465408	0.00458507	0.00113267	-0.390381	-0.721191	0.768311	-0.0753524	-0.0702028	0.659038	-0.745025	1.94875	-9.48013	1.17315	-0.00750548	0.0061734	-0.012717	-0.422363	1.16846	-0.0319824	0.0347705	-0.0457076	0.9827	-0.176077	-0.390221	-2.29123	-6.00537	0.0141464	0.010309	-0.0150108	-0.186279	0.338867	0.898193	0.117755	-0.0374581	-0.0446282	-0.991332	0.910879	0.764642	10.4716	0.0232046	0.00460942	-0.0124184	-0.432861	0.00708008	-1.00977	0.0740339	-0.0324348	0.0221174	-0.996483	0.622065	-0.53002	11.1066	0.00377056	0.017119	-0.0147108	-0.509033	0.124023	-1.04663	0.0970359	-0.0426972	-0.0472278	-0.993242	1.00394	0.87399	10.5146	0.00812905	0.0076007	-0.0167329	-0.521484	-0.0144043	-1.06958	-0.010121	-0.0503529	0.0026541	-0.998677	1.11602	-0.173266	10.4573	0.00377815	0.0142439	0.00446887	-0.504639	-0.0129395	-0.973389	-0.132047	-0.0219147	0.114479	-0.984367	0.777607	-2.12746	9.54433	0.0019751	0.00769765	-0.00469994	-0.550781	0.121826	-1.06323	
73	-0.0491188	-0.177414	0.0645903	0.980785	-3.77568	1.54405	10.1887	0.000240429	-0.00433355	0.00100393	0.0664062	0.0649414	-1.13623	-0.00782173	0.198285	0.00281802	-0.980109	-3.91139	-0.0419082	9.30425	-0.00271187	0.0170543	-0.0181031	0.241699	0.11084	-1.04956	0.112543	0.0342351	-0.547457	-0.828525	0.681786	9.35217	3.99944	0.00313063	0.00421009	-0.000943121	-0.483154	-0.889404	-0.579834	0.0329027	0.25491	-0.935068	-0.244102	-0.620879	4.60544	-8.59816	-0.00262112	0.00625031	0.00256754	-0.385986	-0.716797	0.768311	-0.0752626	-0.0701925	0.65899	-0.745078	2.00376	-9.44815	1.16562	0.00559073	0.00405578	-0.008894	-0.426758	1.16846	-0.0366211	0.0347101	-0.0459045	0.982756	-0.175725	-0.410507	-2.28844	-6.03027	-0.00661924	0.0105584	-0.0164073	-0.188477	0.338867	0.893799	0.117765	-0.0374993	-0.0446933	-0.991326	0.943381	0.759956	10.4678	0.0215392	0.0103129	-0.0143684	-0.42627	0.00708008	-1.00342	0.0740433	-0.0324474	0.0221408	-0.996481	0.634247	-0.558922	11.0986	0.00227064	0.0156531	-0.0143085	-0.513672	0.128418	-1.04907	0.0968352	-0.0426473	-0.0471001	-0.99327	1.00101	0.85116	10.535	-0.00163406	0.00540161	-0.017157	-0.521729	-0.00756836	-1.06519	-0.0101614	-0.0503741	0.00263853	-0.998675	1.07568	-0.158072	10.4519	0.00194871	0.012333	0.00259967	-0.504639	-0.0107422	-0.966553	-0.132054	-0.0217876	0.114442	-0.984373	0.756641	-2.11998	9.55768	6.86926e-05	0.00932017	-0.00336997	-0.551025	0.124023	-1.06104	
74	-0.0490845	-0.177354	0.0645811	0.980798	-3.75494	1.53764	10.1696	-0.000398438	-0.00642722	-0.00138844	0.0710449	0.0627441	-1.13843	-0.00781952	0.198192	0.00219136	-0.98013	-3.95606	-0.0891521	9.18739	0.0204156	0.0149343	-0.0101538	0.235107	0.11084	-1.04468	0.1126	0.0342474	-0.547384	-0.828564	0.684703	9.33532	4.01674	-0.000853957	0.00448416	0.000246673	-0.485596	-0.887207	-0.584473	0.0329624	0.254882	-0.935004	-0.244369	-0.608153	4.61346	-8.60468	-0.0108489	0.00410439	0.00128595	-0.385986	-0.721191	0.768311	-0.0753297	-0.069998	0.659199	-0.744905	1.93961	-9.46685	1.16261	-0.0212225	0.0150483	-0.0129252	-0.427002	1.17505	-0.0273438	0.0348295	-0.0459566	0.982753	-0.175704	-0.410112	-2.29058	-6.00908	-0.00302766	0.0111659	-0.0167918	-0.188232	0.334473	0.898193	0.11785	-0.0376124	-0.0447349	-0.99131	0.910087	0.728593	10.4613	0.0218169	0.00489211	-0.0118256	-0.426025	0.00268555	-1.01196	0.0740808	-0.0324781	0.0222038	-0.996476	0.621819	-0.557473	11.0903	0.00305121	0.0154723	-0.0144741	-0.509277	0.126221	-1.04419	0.0968547	-0.0426486	-0.0470439	-0.993271	0.997014	0.852555	10.5353	0.00559915	0.0066056	-0.0169145	-0.52832	-0.0168457	-1.06519	-0.0101945	-0.0503785	0.00270743	-0.998674	1.12781	-0.177913	10.4458	0.000422771	0.0145922	0.00323538	-0.502441	-0.0107422	-0.970947	-0.132013	-0.021837	0.114499	-0.984371	0.781165	-2.12633	9.54594	0.000101068	0.00570967	-0.00237574	-0.548584	0.121826	-1.06104	
75	-0.0489851	-0.177452	0.0645321	0.980789	-3.74416	1.51552	10.2044	-0.000274677	0.000677099	-0.00645112	0.0688477	0.0605469	-1.13623	-0.007728	0.198148	0.00299832	-0.980137	-3.9417	-0.134205	9.20077	-0.0563552	0.00816021	-0.0270732	0.239502	0.11084	-1.05176	0.112626	0.0341712	-0.54707	-0.828772	0.677813	9.36246	4.01061	-0.0259808	0.00125814	0.00261548	-0.483398	-0.887207	-0.582275	0.0330152	0.254938	-0.934985	-0.244378	-0.622287	4.6237	-8.59516	-0.000256531	0.00498151	-0.00105987	-0.388428	-0.7146	0.763916	-0.0752131	-0.0700946	0.65919	-0.744915	1.96222	-9.44051	1.15428	0.0111213	0.00172209	-0.0137908	-0.426758	1.17065	-0.0319824	0.0348849	-0.0459872	0.982803	-0.175402	-0.403592	-2.28358	-6.02314	-0.0101754	0.0122166	-0.0161039	-0.183838	0.332275	0.894043	0.117635	-0.0380008	-0.0451233	-0.991303	0.907377	0.735659	10.5303	0.0214197	-0.0109351	-0.0158022	-0.42627	0.00488281	-1.00562	0.0741519	-0.0324482	0.0221082	-0.996474	0.617103	-0.553424	11.0999	0.00897135	0.0191832	-0.0136981	-0.513428	0.124023	-1.04663	0.0968665	-0.042625	-0.0471409	-0.993266	0.983746	0.853116	10.5548	0.00992387	0.00750883	-0.0174545	-0.526123	-0.0100098	-1.06519	-0.010159	-0.0502445	0.00263268	-0.998682	1.09783	-0.170281	10.4641	0.0043315	0.0121436	0.00353726	-0.504883	-0.00854492	-0.96875	-0.132024	-0.0218863	0.114534	-0.984364	0.757205	-2.13185	9.55562	0.00130812	0.00595036	-0.00297139	-0.548828	0.124023	-1.06787	
76	-0.0492932	-0.177414	0.0643368	0.980793	-3.67999	1.49705	10.142	-0.0166	-6.68395e-05	0.0233857	0.0688477	0.0605469	-1.13403	-0.00770025	0.197739	0.002396	-0.980222	-3.83091	-0.0563148	9.40935	0.0165545	0.0185024	-0.00477972	0.239258	0.113037	-1.052	0.112525	0.0343188	-0.547644	-0.8284	0.605133	9.29125	3.99611	0.0477552	0.00255038	-0.0054928	-0.479004	-0.887207	-0.577637	0.0330044	0.25492	-0.934994	-0.24436	-0.618004	4.61872	-8.59584	0.00483046	0.00643366	0.00247043	-0.383789	-0.718994	0.770508	-0.0751604	-0.0701602	0.658939	-0.745136	2.00447	-9.51118	1.15786	0.019636	0.0152795	-0.0202077	-0.422119	1.16626	-0.0341797	0.0350001	-0.0460206	0.982758	-0.175622	-0.400033	-2.27182	-6.04032	0.0219127	0.010319	-0.0177797	-0.186279	0.341064	0.898193	0.117603	-0.0381591	-0.0437201	-0.991364	1.08345	0.768879	10.6969	-0.112382	0.0647193	-0.0117241	-0.422363	0.0136719	-1.00781	0.0741822	-0.0324981	0.0220872	-0.99647	0.671876	-0.521498	11.1036	0.00225981	0.0156839	-0.0133975	-0.513672	0.128418	-1.03955	0.0969071	-0.0426464	-0.0472231	-0.993257	1.01521	0.864971	10.5475	0.00606857	0.00596836	-0.0172717	-0.521484	-0.0144043	-1.06738	-0.0101904	-0.0503057	0.00269243	-0.998678	1.15133	-0.175639	10.4523	-0.000821588	0.0124084	0.00204748	-0.509277	-0.00878906	-0.961914	-0.132026	-0.0219127	0.114538	-0.984363	0.823952	-2.13004	9.54163	0.00475433	0.00884139	-0.00337826	-0.550781	0.117432	-1.06323	
77	-0.0491576	-0.177432	0.0645115	0.980785	-3.77547	1.50944	10.1959	0.0141741	-0.0138958	-0.0100828	0.0666504	0.0605469	-1.13184	-0.00773619	0.19785	0.0021896	-0.980199	-3.87485	-0.0481997	9.24758	0.00566941	0.0161339	-0.0172282	0.233154	0.106445	-1.05176	0.112535	0.0341445	-0.547585	-0.828445	0.770623	9.35851	3.99046	-0.00897483	0.0140414	-0.00754436	-0.479004	-0.889404	-0.580078	0.0329173	0.254961	-0.935045	-0.244135	-0.605092	4.61885	-8.6066	0.00721491	0.00208205	-0.00190576	-0.388428	-0.7146	0.766113	-0.0749375	-0.0703831	0.65836	-0.745649	1.93755	-9.38822	1.20731	0.0373822	-0.00700086	-0.0137643	-0.424561	1.17065	-0.0388184	0.0349893	-0.046212	0.982585	-0.17654	-0.410812	-2.29288	-6.02157	0.0379716	0.00828606	-0.0173959	-0.186035	0.334473	0.900391	0.117759	-0.0371725	-0.0436185	-0.991387	0.851826	0.635884	10.227	0.0471985	-0.0219606	-0.0127765	-0.43042	0.00488281	-1.00342	0.074153	-0.0325463	0.0222889	-0.996466	0.628465	-0.562557	11.0984	-0.00268438	0.0143388	-0.0172071	-0.513428	0.126221	-1.04663	0.0968697	-0.0426427	-0.0471562	-0.993264	0.979322	0.886156	10.5278	0.000210297	0.00646749	-0.0197425	-0.518799	-0.019043	-1.06958	-0.0101119	-0.0501556	0.00268265	-0.998687	1.09526	-0.167906	10.4592	0.00188395	0.0132355	0.00533992	-0.498047	-0.00854492	-0.96875	-0.131985	-0.0217595	0.114438	-0.984383	0.768698	-2.12712	9.56404	0.00346803	0.0159854	-0.00130305	-0.550781	0.117432	-1.06104	
78	-0.0490285	-0.177494	0.0646211	0.980773	-3.81379	1.55918	10.1644	0.00115282	0.00177183	-0.0034679	0.0688477	0.0627441	-1.13843	-0.00763609	0.197767	0.00206579	-0.980217	-3.95342	-0.0999678	9.29054	-0.0107674	0.0124578	-0.0151004	0.243896	0.108643	-1.04932	0.112474	0.0345264	-0.547342	-0.828598	0.598447	9.3283	4.00145	-0.0145202	0.0100401	-0.00495234	-0.483398	-0.887207	-0.580078	0.0329433	0.254971	-0.934943	-0.244514	-0.630085	4.60056	-8.59042	-0.017513	0.00349785	0.000167592	-0.385986	-0.718994	0.772705	-0.0748448	-0.0700485	0.658578	-0.745498	1.96457	-9.49646	1.23125	-0.0216092	0.0223598	-0.0058227	-0.428955	1.17065	-0.0319824	0.0351298	-0.0462256	0.982648	-0.176156	-0.405915	-2.29916	-5.99149	-0.027796	0.00966125	-0.0141136	-0.188232	0.334473	0.894043	0.11779	-0.0367853	-0.0439184	-0.991385	0.844834	0.802971	10.5203	0.0280229	0.038374	-0.0122328	-0.424072	0.00488281	-1.00562	0.0741458	-0.0325453	0.0220534	-0.996472	0.611935	-0.556622	11.0814	0.0147037	0.0164622	-0.0162085	-0.509033	0.121826	-1.04663	0.096859	-0.0426918	-0.0470581	-0.993268	0.981798	0.822999	10.5701	0.00267543	0.00379336	-0.0174531	-0.52832	-0.0168457	-1.06299	-0.0101433	-0.050189	0.00261162	-0.998685	1.07096	-0.157865	10.4618	0.00103533	0.0120498	0.00128185	-0.50708	-0.0065918	-0.971191	-0.131989	-0.0217882	0.114503	-0.984375	0.748488	-2.14838	9.5878	-0.00137694	0.00338632	-0.00548948	-0.548584	0.119629	-1.05884	
79	-0.0490787	-0.177304	0.0645736	0.980808	-3.75704	1.54817	10.1777	-0.00455523	-0.0166982	0.00315535	0.0688477	0.0605469	-1.13623	-0.00773495	0.197983	0.00224173	-0.980172	-3.86172	-0.0599447	9.29418	-0.0194336	0.0244547	-0.0247791	0.241455	0.113037	-1.05664	0.112543	0.0342847	-0.547261	-0.828652	0.645591	9.34271	4.01362	-0.00896572	-0.00779482	0.0129118	-0.479004	-0.88501	-0.582275	0.0331294	0.254957	-0.934864	-0.244805	-0.619932	4.62045	-8.59498	-0.00830297	0.0101852	0.00170886	-0.392578	-0.718994	0.763916	-0.074822	-0.070152	0.65853	-0.745533	1.95455	-9.45449	1.16417	0.0109429	-0.00225841	-0.016635	-0.422363	1.17065	-0.0319824	0.03519	-0.0462495	0.98275	-0.175572	-0.405819	-2.27637	-6.04829	-0.0117409	0.0141	-0.0144062	-0.185791	0.330322	0.898438	0.117776	-0.0369947	-0.0440173	-0.991374	0.912892	0.715728	10.4786	0.0142023	-0.0101014	-0.013683	-0.428467	0.00488281	-1.00562	0.0741752	-0.0326535	0.0220857	-0.996466	0.643971	-0.521597	11.1071	-4.56185e-05	0.0103071	-0.0131008	-0.513672	0.128418	-1.05371	0.0969172	-0.0427361	-0.0473284	-0.993248	1.00141	0.873734	10.5311	0.0180037	0.00511643	-0.0141997	-0.52124	-0.0168457	-1.06519	-0.0101905	-0.0503134	0.00261777	-0.998678	1.10873	-0.152164	10.4565	0.00290499	0.00765233	0.00285673	-0.504639	-0.0107422	-0.966553	-0.132056	-0.0219301	0.114436	-0.98437	0.774365	-2.13736	9.55083	0.00402356	-0.000428431	-0.00522999	-0.546387	0.124023	-1.06567	
80	-0.0491251	-0.177186	0.0645197	0.980831	-3.69134	1.53327	10.181	-0.00525859	-0.0136296	0.00406368	0.0664062	0.0646973	-1.13208	-0.00773945	0.197988	0.00238801	-0.980171	-3.86118	-0.063284	9.3505	-0.0200891	0.0152142	-0.0205053	0.241699	0.11084	-1.04712	0.112666	0.0341451	-0.547426	-0.828532	0.715962	9.32042	4.0304	0.00793865	-0.000576516	0.00713776	-0.485352	-0.887207	-0.580078	0.0331733	0.254948	-0.934847	-0.244873	-0.602794	4.6179	-8.60287	0.0033361	0.00565775	-0.000778545	-0.385742	-0.723389	0.768311	-0.0747563	-0.0701969	0.658462	-0.745594	1.98983	-9.44849	1.18075	0.00752214	0.00240294	-0.0132884	-0.417969	1.17065	-0.0388184	0.0352351	-0.0462885	0.98273	-0.175661	-0.398926	-2.27391	-6.02502	0.0101854	0.0121473	-0.0178347	-0.19043	0.334473	0.89624	0.117754	-0.0374439	-0.0443757	-0.991344	0.962869	0.705464	10.3977	0.0260256	0.00709313	-0.0143018	-0.42627	0.00708008	-1.01196	0.0742365	-0.0327049	0.0221256	-0.996459	0.672832	-0.527537	11.0908	0.00416463	0.0161823	-0.0129321	-0.509033	0.124023	-1.04419	0.0969684	-0.0427687	-0.0474718	-0.993234	1.02349	0.905534	10.523	0.0162835	0.00277268	-0.0141828	-0.526123	-0.0146484	-1.06738	-0.0101961	-0.0503538	0.00260254	-0.998676	1.13469	-0.121513	10.4613	0.00390189	0.0106643	0.00401161	-0.50708	-0.00878906	-0.964355	-0.132056	-0.0219301	0.114436	-0.98437	0.774365	-2.13736	9.55083	0.00402356	-0.000428431	-0.00522999	-0.546387	0.124023	-1.06567	
81	-0.0490277	-0.177235	0.06452	0.980827	-3.70948	1.50914	10.1904	0.00399913	-0.000487102	-0.00492311	0.0644531	0.0605469	-1.13623	-0.00775071	0.198042	0.00237397	-0.98016	-3.87097	-0.0684841	9.29032	-0.00176084	-0.00391687	-0.0193743	0.239258	0.113037	-1.052	0.112701	0.0342065	-0.547231	-0.828654	0.712393	9.35279	4.00735	-0.00994806	0.00863289	-0.00159602	-0.487549	-0.88501	-0.584717	0.0331782	0.254963	-0.934816	-0.244976	-0.609127	4.63637	-8.60169	-0.00691441	0.00367817	-0.000334062	-0.385986	-0.721191	0.768311	-0.0746953	-0.0702602	0.658415	-0.745636	1.97162	-9.44559	1.21771	-0.000831708	0.00378159	-0.0149614	-0.422607	1.17285	-0.0319824	0.0350983	-0.0465101	0.982651	-0.176076	-0.401862	-2.28578	-6.02384	0.0175253	0.0121575	-0.0180989	-0.188232	0.334473	0.894043	0.117769	-0.0375227	-0.0448547	-0.991318	0.909202	0.739804	10.4357	0.054024	0.00266814	-0.0149585	-0.428223	0.00268555	-1.00562	0.0742362	-0.0326713	0.0222077	-0.996458	0.66022	-0.535822	11.0839	-0.00215891	0.0197358	-0.0148424	-0.509277	0.126221	-1.04199	0.0970067	-0.0427873	-0.0474658	-0.99323	1.00832	0.924105	10.5349	0.00459558	0.00530227	-0.0149635	-0.525879	-0.0168457	-1.06299	-0.0101713	-0.0501649	0.00280048	-0.998685	1.12107	-0.163306	10.4651	-0.00653369	0.0145635	0.00359559	-0.502441	-0.0107422	-0.966553	-0.13213	-0.0218575	0.114569	-0.984346	0.798753	-2.10573	9.5497	-0.00330997	0.00449644	-0.00310178	-0.550781	0.121826	-1.06323	
82	-0.0490162	-0.177311	0.064535	0.980813	-3.77452	1.50736	10.1908	0.00191694	-0.00147885	0.00106263	0.0666504	0.0605469	-1.13623	-0.00773116	0.19801	0.00252269	-0.980166	-3.88828	-0.111605	9.315	-0.0206072	0.0216931	-0.0186466	0.241699	0.11084	-1.04468	0.112734	0.0342764	-0.547326	-0.828583	0.664414	9.32581	3.99019	0.00354443	0.000539815	0.000699204	-0.481201	-0.889404	-0.582275	0.0333739	0.254924	-0.934719	-0.245357	-0.616457	4.6409	-8.57586	-0.0165537	0.00576894	0.00250238	-0.385986	-0.718994	0.766113	-0.0747866	-0.0704409	0.657947	-0.746023	1.99955	-9.44554	1.19725	0.0242552	0.00343747	-0.0150771	-0.424561	1.16846	-0.0297852	0.0352056	-0.0465735	0.982631	-0.176147	-0.395445	-2.304	-5.99463	0.00529029	0.010904	-0.0170737	-0.186279	0.341064	0.895996	0.117607	-0.0376504	-0.0452215	-0.991315	0.94918	0.767818	10.5129	0.0218908	-0.000146388	-0.0141595	-0.428467	0.00488281	-1.00781	0.0741928	-0.0326339	0.0224208	-0.996458	0.614594	-0.555787	11.0791	-0.0043233	0.0187711	-0.016578	-0.509033	0.12207	-1.04883	0.0968101	-0.0427421	-0.047074	-0.99327	0.997726	0.831199	10.5427	-0.00394311	0.00582957	-0.0175891	-0.518799	-0.019043	-1.06738	-0.0101944	-0.0501477	0.00292566	-0.998685	1.09527	-0.177012	10.4688	-6.54842e-05	0.0149018	0.00395426	-0.507324	-0.00439453	-0.964355	-0.132097	-0.021791	0.114681	-0.984339	0.771246	-2.15756	9.54674	-0.000114763	0.0114781	-0.00200714	-0.546387	0.121826	-1.06104	
83	-0.0489797	-0.177253	0.0646259	0.980819	-3.77318	1.54078	10.1613	0.00263048	-0.00785582	0.00146601	0.0710449	0.0627441	-1.13184	-0.00772488	0.198248	0.00272615	-0.980118	-3.94815	-0.0709498	9.28856	-0.0177298	0.0252813	-0.0183684	0.241455	0.113037	-1.052	0.112685	0.0344305	-0.547345	-0.828571	0.668457	9.30498	4.0296	0.00895845	0.0106559	-0.00745437	-0.481201	-0.887207	-0.580078	0.0333349	0.254917	-0.934715	-0.245385	-0.613383	4.64111	-8.59904	0.00492319	0.00341471	0.000490456	-0.390381	-0.721191	0.761719	-0.0748318	-0.0702442	0.658037	-0.745958	1.91802	-9.52711	1.17712	-0.0103394	0.0139922	-0.0155297	-0.418213	1.17285	-0.0341797	0.0353222	-0.046573	0.982668	-0.175918	-0.410496	-2.3034	-6.00402	-0.0111381	0.0113694	-0.0148441	-0.19458	0.334473	0.89624	0.117619	-0.0378281	-0.0451648	-0.99131	0.902574	0.735987	10.4493	0.0149574	0.00220724	-0.0147858	-0.426025	0.00268555	-1.00757	0.0742515	-0.0326514	0.0224152	-0.996453	0.638506	-0.576109	11.0965	0.00987816	0.0154005	-0.0127951	-0.509277	0.128418	-1.04663	0.0968062	-0.0427099	-0.0470748	-0.993272	0.995376	0.838407	10.5303	0.00783701	0.00832445	-0.0172384	-0.52124	-0.0168457	-1.06738	-0.0102137	-0.0501492	0.00282776	-0.998686	1.08079	-0.179579	10.4806	0.00852161	0.0129173	0.00226457	-0.504639	-0.0107422	-0.970947	-0.1321	-0.0217961	0.114598	-0.984348	0.768258	-2.16039	9.56361	0.0082245	0.009267	-0.00428153	-0.550781	0.119629	-1.05884	
