40	Head	00b4120a												Throax	00b411e8												LUpArm	00b411d9												LFoArm	00b41148												RUpArm	00b411db												RFoArm	00b41204												Waist	00b411f7												Lthigh	00b411f4												Lshank	00b4111b												Rthigh	00b411c8												Rshank	00b411ee												
PacketCount	q0	q1	q2	q3	accX	accY	accZ	gyrX	gyrY	gyrZ	magX	magY	magZ	q0	q1	q2	q3	accX	accY	accZ	gyrX	gyrY	gyrZ	magX	magY	magZ	q0	q1	q2	q3	accX	accY	accZ	gyrX	gyrY	gyrZ	magX	magY	magZ	q0	q1	q2	q3	accX	accY	accZ	gyrX	gyrY	gyrZ	magX	magY	magZ	q0	q1	q2	q3	accX	accY	accZ	gyrX	gyrY	gyrZ	magX	magY	magZ	q0	q1	q2	q3	accX	accY	accZ	gyrX	gyrY	gyrZ	magX	magY	magZ	q0	q1	q2	q3	accX	accY	accZ	gyrX	gyrY	gyrZ	magX	magY	magZ	q0	q1	q2	q3	accX	accY	accZ	gyrX	gyrY	gyrZ	magX	magY	magZ	q0	q1	q2	q3	accX	accY	accZ	gyrX	gyrY	gyrZ	magX	magY	magZ	q0	q1	q2	q3	accX	accY	accZ	gyrX	gyrY	gyrZ	magX	magY	magZ	q0	q1	q2	q3	accX	accY	accZ	gyrX	gyrY	gyrZ	magX	magY	magZ	
0	-0.0488694	-0.178673	0.0637833	0.980622	-3.77946	1.4518	10.185	0.00367314	-0.00470644	0.00504591	0.0710449	0.0605469	-1.13184	-0.0088203	0.198346	0.00417202	-0.980083	-3.88645	-0.124024	9.27297	-0.0216572	0.0176393	-0.0147932	0.239258	0.113037	-1.04712	0.114461	0.0362684	-0.547229	-0.828326	0.663249	9.35404	3.99057	-0.00738542	0.00861594	-0.00550754	-0.481201	-0.88501	-0.577881	0.0341635	0.254671	-0.933777	-0.24907	-0.613502	4.69902	-8.53989	-0.00623153	0.003184	0.000208155	-0.387939	-0.725586	0.757568	-0.0729867	-0.0713827	0.654839	-0.748841	1.98568	-9.42041	1.2797	-0.0210513	0.0134232	-0.0193312	-0.424561	1.17065	-0.043457	0.0338406	-0.0614601	0.980585	-0.183113	-0.430186	-2.36295	-6.00659	0.0091701	0.0106485	-0.0176953	-0.181885	0.338867	0.891602	0.114418	-0.0634122	-0.04949	-0.990171	1.46276	0.778482	10.4145	0.0213403	-0.0270961	-0.0192095	-0.481689	-0.00830078	-0.986084	0.074313	-0.0316203	0.0219077	-0.996493	0.632095	-0.579512	11.1134	-0.00330557	0.0157592	-0.014533	-0.506836	0.124023	-1.04419	0.0962152	-0.0426823	-0.0476373	-0.993303	1.00423	0.832036	10.5369	-0.00427777	0.00629397	-0.0169572	-0.523438	-0.0214844	-1.06274	-0.0112263	-0.0484603	0.00352006	-0.998756	1.13465	-0.19663	10.4521	-0.00332266	0.0152927	0.0028115	-0.505127	-0.00195312	-0.966797	-0.133151	-0.0209561	0.114843	-0.984197	0.772129	-2.14612	9.54826	-0.00627516	0.00650759	-0.00345595	-0.553223	0.121826	-1.06787	
1	-0.0486915	-0.178595	0.0640646	0.980627	-3.75881	1.54951	10.1236	0.0120127	-0.00667928	-0.00286972	0.0688477	0.0583496	-1.13184	-0.00874604	0.198531	0.00419729	-0.980047	-3.89788	-0.106959	9.29153	-0.00428527	0.0258878	-0.0154752	0.239502	0.11084	-1.05664	0.114437	0.0363713	-0.547188	-0.828352	0.67048	9.29633	4.0133	0.00534221	0.00790712	-0.00517768	-0.481201	-0.889404	-0.589111	0.0340871	0.254663	-0.933781	-0.249075	-0.624392	4.6938	-8.52236	0.00450872	0.00205586	0.0010896	-0.383545	-0.725586	0.759766	-0.0729172	-0.0716683	0.654962	-0.748713	1.97782	-9.45651	1.25307	0.00781499	-0.00946453	-0.0191884	-0.422363	1.16626	-0.0456543	0.0338817	-0.0614888	0.980561	-0.183223	-0.414832	-2.36272	-6.01141	0.0115573	0.0122051	-0.0175835	-0.186279	0.341064	0.895996	0.114209	-0.0643076	-0.049881	-0.990118	1.44079	0.74735	10.418	0.0299291	-0.0284971	-0.0226606	-0.486328	0.000244141	-0.971436	0.0743276	-0.0315933	0.0217384	-0.996496	0.619534	-0.58943	11.0852	0.0149181	0.0175217	-0.0144403	-0.508789	0.119629	-1.03955	0.0962055	-0.0426736	-0.0476411	-0.993304	0.991135	0.847675	10.5415	0.00939808	0.00697793	-0.0167019	-0.525879	-0.019043	-1.06519	-0.011219	-0.0484652	0.0034994	-0.998756	1.09155	-0.209873	10.4356	0.00428433	0.0138668	0.00353721	-0.504883	-0.00415039	-0.962158	-0.133203	-0.0208334	0.114812	-0.984196	0.784055	-2.15191	9.53685	0.00133606	0.00978327	-0.00336675	-0.550781	0.121826	-1.05884	
2	-0.0486915	-0.178595	0.0640646	0.980627	-3.75881	1.54951	10.1236	0.0120127	-0.00667928	-0.00286972	0.0688477	0.0583496	-1.13184	-0.00876489	0.198665	0.00408651	-0.98002	-3.90091	-0.0742503	9.25636	-0.000518608	0.0261939	-0.0172197	0.243896	0.108643	-1.04468	0.114443	0.0364349	-0.547317	-0.828263	0.656657	9.31006	4.0432	0.014284	0.00694937	-0.00307045	-0.479004	-0.88501	-0.584717	0.0340718	0.254681	-0.933796	-0.249	-0.630963	4.69007	-8.53448	0.00761923	0.00579243	0.00025099	-0.381348	-0.723389	0.759521	-0.0729214	-0.0717723	0.655065	-0.748613	2.03084	-9.39346	1.26675	-0.0114359	9.13944e-05	-0.0202904	-0.426758	1.16846	-0.043457	0.0337512	-0.0616654	0.980522	-0.183399	-0.41609	-2.35632	-5.99346	0.00778638	0.0118839	-0.0159742	-0.186279	0.33667	0.887451	0.114054	-0.0650567	-0.0503029	-0.990065	1.48883	0.81212	10.3472	0.0254641	-0.00620599	-0.0199323	-0.477539	-0.00195312	-0.975586	0.0743218	-0.0315759	0.021655	-0.996499	0.618224	-0.554306	11.0931	0.0107794	0.0177476	-0.0151211	-0.51123	0.124023	-1.03955	0.0962084	-0.0426538	-0.047735	-0.993301	0.985033	0.842862	10.5376	0.0125844	0.00759338	-0.0176747	-0.525879	-0.0168457	-1.06299	-0.0111582	-0.0483631	0.00326692	-0.998762	1.08622	-0.183054	10.464	0.0105967	0.0113855	0.00362077	-0.504883	-0.00854492	-0.961914	-0.133197	-0.020853	0.114686	-0.984211	0.764631	-2.12513	9.54217	0.00371883	0.00633463	-0.00428408	-0.546387	0.121826	-1.0564	
3	-0.0487399	-0.178543	0.0641895	0.980626	-3.79945	1.56219	10.1686	0.00434171	-0.00420091	0.00347743	0.0688477	0.0605469	-1.13843	-0.00879665	0.198774	0.00390579	-0.979998	-3.92079	-0.0863876	9.29935	0.00553048	0.0235198	-0.0181837	0.239258	0.115234	-1.04492	0.114486	0.0362908	-0.547859	-0.827905	0.658937	9.35898	3.97968	0.027071	-0.00335419	0.0069966	-0.485352	-0.887207	-0.577637	0.0340846	0.25461	-0.93382	-0.248982	-0.621481	4.68144	-8.55516	0.000500652	0.00488794	0.0052169	-0.390137	-0.725586	0.755371	-0.0731115	-0.0718234	0.655514	-0.748196	1.94646	-9.51534	1.26356	-0.014987	0.00265399	-0.0220709	-0.420166	1.16846	-0.0412598	0.0337805	-0.0616807	0.980511	-0.183447	-0.412646	-2.35261	-5.98367	0.00644002	0.0130603	-0.0164824	-0.190674	0.341064	0.895996	0.114004	-0.0650843	-0.0502828	-0.99007	1.48288	0.785121	10.3242	0.0145049	0.0113199	-0.0188193	-0.484131	0.000244141	-0.971436	0.0741595	-0.031401	0.0214267	-0.996522	0.631559	-0.526719	11.1116	0.0115803	0.0149956	-0.0142086	-0.509033	0.12207	-1.04883	0.0962088	-0.0426178	-0.0480303	-0.993288	0.995865	0.903416	10.5376	0.0166646	0.0055194	-0.0190579	-0.518799	-0.019043	-1.06958	-0.0111901	-0.048401	0.00320468	-0.99876	1.10064	-0.157208	10.4426	0.0071206	0.0114536	0.000836325	-0.504883	-0.00634766	-0.968994	-0.133176	-0.0208647	0.114641	-0.984219	0.77638	-2.13315	9.54744	0.00557279	0.00840353	-0.00232308	-0.552979	0.119629	-1.05884	
4	-0.0488821	-0.178515	0.0639538	0.980639	-3.79923	1.53735	10.1655	-0.00847347	0.000307506	-0.00212096	0.0732422	0.0605469	-1.13403	-0.00907571	0.199489	0.00356747	-0.979852	-3.9245	-0.0425825	9.27142	0.0047877	0.0275435	-0.014927	0.241699	0.108643	-1.04932	0.114505	0.0361917	-0.547831	-0.827925	0.672326	9.34723	3.98898	-0.00568193	0.00358931	-0.00142745	-0.481201	-0.88501	-0.577881	0.0340761	0.254584	-0.933827	-0.248985	-0.623837	4.68936	-8.54544	0.00423254	0.00322674	0.00173413	-0.39209	-0.72998	0.753174	-0.0730006	-0.0718755	0.655644	-0.748088	2.00487	-9.34303	1.29884	-0.0213893	0.0092391	-0.011354	-0.420166	1.16626	-0.0388184	0.033701	-0.0618648	0.980489	-0.183517	-0.410529	-2.37312	-5.96788	-0.00788937	0.0112223	-0.0150147	-0.188477	0.341064	0.891602	0.113982	-0.0649202	-0.0502467	-0.990085	1.44647	0.75773	10.3196	0.0224231	0.0196402	-0.016482	-0.477539	-0.00415039	-0.975586	0.0742027	-0.031384	0.0212502	-0.996523	0.651517	-0.516799	11.0868	0.0109005	0.0183336	-0.0120626	-0.509033	0.121826	-1.04199	0.0962264	-0.0426144	-0.0480879	-0.993283	1.0139	0.899319	10.5596	0.00960341	0.00593784	-0.0167271	-0.52124	-0.0168457	-1.06055	-0.0111336	-0.0483226	0.00307684	-0.998765	1.09534	-0.139224	10.4523	0.00502259	0.0114235	0.00505231	-0.502441	-0.0129395	-0.966553	-0.133246	-0.0208761	0.114598	-0.984214	0.776932	-2.13167	9.57177	-0.00170832	0.00513529	-0.00343819	-0.546387	0.121826	-1.0564	
5	-0.0488994	-0.178489	0.0636416	0.980663	-3.74856	1.52679	10.1717	-0.0145389	-0.00105382	0.000814456	0.0710449	0.0627441	-1.13403	-0.00906611	0.200044	0.00318252	-0.97974	-3.92471	-0.0284537	9.26492	0.0124942	0.0424251	-0.0146607	0.237061	0.113037	-1.052	0.114579	0.0362343	-0.548002	-0.8278	0.643409	9.33446	3.99095	0.0125397	0.00544778	0.0048138	-0.476807	-0.887207	-0.582275	0.0340573	0.254573	-0.933871	-0.248832	-0.63707	4.68997	-8.5294	0.00846488	0.00645394	0.0034676	-0.385498	-0.727783	0.757568	-0.0730775	-0.0717849	0.656094	-0.747695	1.96626	-9.48075	1.25376	-0.0488729	0.0124625	-0.0144125	-0.426514	1.16626	-0.0388184	0.0337051	-0.0618495	0.980609	-0.182877	-0.415105	-2.35895	-6.02754	-0.0235846	0.0146816	-0.01338	-0.186523	0.345459	0.893799	0.114084	-0.0636679	-0.0488562	-0.990224	1.47219	0.884253	10.2464	-0.0779619	0.088432	-0.0062397	-0.477783	0.000244141	-0.973633	0.0742444	-0.0314764	0.0215871	-0.996509	0.649552	-0.494773	11.1147	-0.0150255	0.0106978	-0.0132966	-0.51123	0.124023	-1.04419	0.0960748	-0.0424721	-0.0479806	-0.993309	0.993524	0.872552	10.5613	0.00249612	0.00886489	-0.0146115	-0.523682	-0.0168457	-1.06958	-0.0111212	-0.048365	0.0031157	-0.998763	1.11317	-0.114002	10.4696	-0.00103071	0.0106175	0.00511591	-0.500244	-0.00854492	-0.96875	-0.133246	-0.0208761	0.114598	-0.984214	0.776932	-2.13167	9.57177	-0.00170832	0.00513529	-0.00343819	-0.546387	0.121826	-1.0564	
6	-0.0490207	-0.178614	0.0633001	0.980657	-3.74675	1.46162	10.1745	-0.0143388	0.00254558	0.00246918	0.0686035	0.0627441	-1.13184	-0.00926384	0.200143	0.00240808	-0.97972	-3.89949	-0.0883816	9.3769	0.00522969	-0.00896267	-0.0180764	0.241943	0.102051	-1.05396	0.114641	0.0359909	-0.547984	-0.827814	0.685527	9.36352	3.97549	0.000660148	2.949e-05	0.00365756	-0.483154	-0.889404	-0.577637	0.0340277	0.254582	-0.933894	-0.248739	-0.626157	4.70177	-8.54816	0.00460165	0.00454119	0.00181442	-0.389893	-0.72998	0.761963	-0.0730933	-0.0718289	0.656138	-0.74765	2.0376	-9.38544	1.27138	-0.0158334	0.0195373	-0.0105665	-0.422363	1.16846	-0.0388184	0.0338332	-0.06189	0.980639	-0.182683	-0.404983	-2.34441	-5.99475	-0.00113279	0.00715946	-0.0176732	-0.188721	0.343262	0.887207	0.114291	-0.0614982	-0.0469931	-0.990428	1.41	0.619464	10.216	-0.0058242	0.107936	-0.00862317	-0.473633	0.00463867	-0.978027	0.0743108	-0.0315094	0.0217453	-0.9965	0.623344	-0.597859	11.1061	0.00595744	0.0159534	-0.0142403	-0.50708	0.128418	-1.03955	0.096124	-0.0424698	-0.0478866	-0.993309	0.991036	0.896035	10.5631	0.000652974	0.00714612	-0.0161295	-0.521484	-0.0146484	-1.06299	-0.011044	-0.0482791	0.00341971	-0.998767	1.11096	-0.208036	10.4564	0.00151074	0.0126562	0.00431819	-0.502686	-0.00854492	-0.96875	-0.133253	-0.0206753	0.114676	-0.984208	0.777977	-2.11662	9.5591	-0.0077849	0.00906495	-0.000581389	-0.548584	0.121826	-1.06323	
7	-0.0487589	-0.178722	0.0633628	0.980646	-3.778	1.48931	10.2137	0.0115979	-0.00428613	-0.0146154	0.0708008	0.0649414	-1.13403	-0.00934147	0.200057	0.00310894	-0.979735	-3.96547	-0.12334	9.23315	-0.0302254	-0.0144621	-0.0274878	0.241699	0.11084	-1.05176	0.114763	0.0357775	-0.547425	-0.828176	0.693342	9.31086	4.04707	-0.0383399	-0.000893435	0.00464091	-0.481201	-0.889404	-0.582275	0.0340561	0.254584	-0.933893	-0.248739	-0.628315	4.68412	-8.55091	0.000519711	0.00349868	0.000798623	-0.383301	-0.72998	0.761963	-0.0730435	-0.0717271	0.656049	-0.747743	1.9261	-9.50362	1.27067	0.0277725	-0.00305507	-0.00411572	-0.424805	1.17285	-0.0388184	0.0338428	-0.0619047	0.980654	-0.182591	-0.435975	-2.33612	-6.01796	-0.00504136	0.0139952	-0.0162178	-0.186279	0.341064	0.893799	0.114567	-0.0599869	-0.0457677	-0.990546	1.2965	0.686888	10.5707	-0.022871	0.0499937	-0.00404173	-0.467529	0.0134277	-0.982422	0.0741287	-0.0312482	0.0216037	-0.996525	0.613193	-0.551049	11.0795	0.00845606	0.0185794	-0.0152208	-0.51123	0.126221	-1.04907	0.0961126	-0.0424871	-0.0477717	-0.993315	0.98568	0.846943	10.5208	0.00454613	0.00611952	-0.0174711	-0.530762	-0.0124512	-1.06738	-0.0110531	-0.0482962	0.00342834	-0.998766	1.10532	-0.186679	10.4457	0.00147961	0.0126098	0.002921	-0.502441	-0.0107422	-0.973389	-0.133243	-0.0206694	0.114797	-0.984195	0.802451	-2.15693	9.54697	0.000614264	0.00982522	-0.0047179	-0.548584	0.121826	-1.05884	
8	-0.0487425	-0.178758	0.0634823	0.980632	-3.77047	1.50839	10.1771	0.00508661	-0.000910233	0.00041849	0.0688477	0.0627441	-1.13403	-0.00912342	0.200112	0.00250855	-0.979727	-3.87598	-0.122667	9.26324	-0.00803381	0.0329061	-0.00751209	0.24585	0.11084	-1.0542	0.114734	0.0357371	-0.547455	-0.828162	0.626776	9.41186	3.96143	-0.00317753	-0.00631528	0.00884381	-0.476807	-0.887207	-0.580078	0.0340574	0.254566	-0.933898	-0.248739	-0.627509	4.68866	-8.55091	0.00605287	0.00667773	0.00202002	-0.385498	-0.727783	0.761963	-0.0729865	-0.0715504	0.6556	-0.74816	2.04281	-9.33606	1.26042	-0.0112983	0.0298616	-0.0124447	-0.424316	1.16626	-0.0412598	0.0336924	-0.062119	0.980726	-0.182162	-0.419252	-2.32655	-6.0176	-0.00120618	0.0087212	-0.016961	-0.186279	0.33667	0.891846	0.115039	-0.0567208	-0.042995	-0.990808	1.45142	0.703544	10.4282	-0.0913099	0.200682	0.00499246	-0.461182	0.0134277	-0.98877	0.0741459	-0.0312371	0.0215446	-0.996525	0.660736	-0.577125	11.0987	0.00803729	0.0200512	-0.0139021	-0.513428	0.124023	-1.04663	0.0960965	-0.0424605	-0.047826	-0.993315	0.984848	0.859457	10.5247	0.00854792	0.00766283	-0.0199374	-0.530518	-0.0168457	-1.06958	-0.0110307	-0.0481676	0.00328153	-0.998773	1.16266	-0.200405	10.4449	0.0119885	0.015113	0.00277672	-0.502441	-0.0129395	-0.961914	-0.133225	-0.02065	0.114714	-0.984208	0.787392	-2.16093	9.53351	0.00820457	0.0114316	-0.00231638	-0.548584	0.119629	-1.06104	
9	-0.0484733	-0.178739	0.06363	0.980639	-3.77642	1.5833	10.1294	0.00406851	-0.00304811	-0.00544284	0.0710449	0.0605469	-1.13843	-0.00907221	0.20016	0.00247049	-0.979718	-3.98988	-0.0740424	9.27937	-0.00326004	0.0146632	-0.0154732	0.241455	0.115234	-1.04736	0.114738	0.0357982	-0.546973	-0.828477	0.674096	9.29147	4.03747	-0.0153636	0.0154353	-0.0109844	-0.481201	-0.889404	-0.584473	0.0339577	0.254613	-0.93392	-0.248623	-0.63472	4.68166	-8.55473	0.00111054	0.00151986	-0.00171878	-0.385742	-0.725586	0.755371	-0.0727513	-0.071667	0.655482	-0.748274	1.95827	-9.53489	1.2077	0.0314273	-0.0139274	-0.0129667	-0.42041	1.17285	-0.0456543	0.0337227	-0.0621805	0.980719	-0.182172	-0.408455	-2.33195	-5.98904	0.000680662	0.0143088	-0.0170707	-0.188477	0.341064	0.893799	0.115569	-0.0538892	-0.0425881	-0.990922	1.23827	0.609011	10.2665	0.0153794	0.129744	0.00166156	-0.460693	0.00683594	-0.990723	0.074064	-0.0312715	0.0213558	-0.996534	0.589986	-0.552702	11.0881	0.0128219	0.0136017	-0.0196146	-0.510986	0.119873	-1.04639	0.0960316	-0.0424729	-0.0479201	-0.993316	0.960868	0.868946	10.5609	0.00775558	0.00502906	-0.0206015	-0.52124	-0.0168457	-1.06738	-0.0109833	-0.0481314	0.00283371	-0.998777	1.04857	-0.167879	10.4877	0.0189396	0.00877445	0.00304881	-0.502686	-0.00854492	-0.966553	-0.133291	-0.0203709	0.114354	-0.984247	0.770415	-2.12204	9.55334	0.0136393	0.0177724	-0.00320025	-0.548584	0.119629	-1.06104	
10	-0.0484927	-0.178857	0.0635237	0.980624	-3.83753	1.56744	10.1303	-0.00817804	0.00570247	0.000359073	0.0732422	0.0583496	-1.13184	-0.0090157	0.200135	0.00249357	-0.979724	-3.95139	-0.0569674	9.26253	-0.011274	0.0130705	-0.0135344	0.241699	0.108643	-1.04932	0.114801	0.0357629	-0.54697	-0.828472	0.62465	9.31503	4.01172	0.000515731	0.00477355	0.00434554	-0.483398	-0.882812	-0.580078	0.0340193	0.2546	-0.933911	-0.248659	-0.629837	4.69278	-8.53326	0.00391537	0.00815199	0.00188835	-0.383545	-0.725586	0.755371	-0.0727731	-0.0716648	0.655353	-0.748386	2.04779	-9.4119	1.27419	0.0128617	0.00986168	-0.0161744	-0.420166	1.16846	-0.0388184	0.0337346	-0.0621884	0.980732	-0.182096	-0.41968	-2.33739	-6.00765	-0.00374301	0.0139841	-0.0157153	-0.186523	0.343262	0.893799	0.115904	-0.0512374	-0.0422502	-0.991038	1.20461	0.624418	10.5287	0.0257293	0.0882994	-0.0112457	-0.449951	0.00463867	-0.99292	0.0740719	-0.03131	0.0209756	-0.996541	0.61551	-0.483917	11.1262	0.0144256	0.0135594	-0.0154264	-0.513428	0.124023	-1.04199	0.0960473	-0.042518	-0.047963	-0.993311	0.981138	0.870754	10.5411	0.00819588	0.00246609	-0.0167625	-0.523682	-0.0146484	-1.06519	-0.0110277	-0.0481953	0.00273527	-0.998773	1.11495	-0.119946	10.4627	0.00999667	0.00907956	-0.000441043	-0.504639	-0.0107422	-0.964111	-0.133367	-0.0203561	0.114294	-0.984244	0.747847	-2.12807	9.5537	0.00299553	0.0058193	-0.00486331	-0.550781	0.121826	-1.0564	
11	-0.0485544	-0.178936	0.063181	0.980629	-3.75022	1.48485	10.1908	-0.0134409	0.000970087	-0.0020252	0.0686035	0.0649414	-1.13208	-0.00888394	0.199895	0.0025597	-0.979774	-3.91458	-0.0754618	9.29443	-0.0162662	0.00230699	-0.0112844	0.239502	0.108643	-1.0542	0.114866	0.0355783	-0.546925	-0.8285	0.679409	9.3543	4.01075	-0.00502465	-0.00431566	0.0104045	-0.479004	-0.882812	-0.58252	0.0340337	0.25462	-0.933915	-0.248622	-0.605071	4.69076	-8.54033	0.00423954	0.00701207	0.000626894	-0.389893	-0.72998	0.759766	-0.0728854	-0.0716575	0.655123	-0.748576	1.93275	-9.4761	1.26003	0.0208846	0.00470014	-0.01798	-0.422363	1.16846	-0.0388184	0.0337689	-0.0622415	0.98073	-0.182082	-0.413848	-2.32183	-6.00215	0.00382383	0.0139214	-0.0181289	-0.184082	0.33667	0.894043	0.115996	-0.0505763	-0.0424204	-0.991054	1.20904	0.701742	10.507	0.0359913	0.0647065	-0.00994538	-0.450195	0.0112305	-0.997314	0.0740407	-0.031389	0.0209994	-0.99654	0.656411	-0.47556	11.1219	0.0019328	0.0110948	-0.017774	-0.515625	0.124023	-1.04883	0.0960781	-0.0425774	-0.0480913	-0.993299	1.00065	0.908879	10.5496	0.0113915	0.00309358	-0.0177231	-0.52124	-0.0168457	-1.05835	-0.0110018	-0.048097	0.00278166	-0.998778	1.13712	-0.155166	10.4449	-0.000779291	0.0110814	0.00299595	-0.500244	-0.0107422	-0.964111	-0.133362	-0.0205233	0.114234	-0.984248	0.783623	-2.10206	9.5254	0.00541779	0.00519239	-0.00448078	-0.552979	0.119629	-1.05884	
12	-0.0484246	-0.179036	0.0630594	0.980625	-3.8093	1.49116	10.1676	-0.00322855	-0.005729	-0.00379698	0.0710449	0.0605469	-1.13403	-0.00863539	0.199611	0.0027893	-0.979833	-3.83291	0.00270272	9.34435	-0.0208174	0.00601162	-0.00629944	0.23291	0.108643	-1.04224	0.115013	0.0355632	-0.546562	-0.82872	0.690824	9.33454	4.02134	-0.0152587	0.0121551	-0.00894183	-0.483398	-0.88501	-0.577881	0.0340139	0.25466	-0.933889	-0.248682	-0.639317	4.68767	-8.56651	-0.00155755	0.00224966	-0.00130048	-0.385742	-0.725586	0.759766	-0.0727301	-0.0717684	0.65477	-0.748889	2.02058	-9.4231	1.29378	0.0120244	0.00796343	-0.0121993	-0.426758	1.16846	-0.0456543	0.0337957	-0.0622882	0.98071	-0.182168	-0.405764	-2.33457	-6.02067	0.0115651	0.0123042	-0.0174729	-0.186523	0.343262	0.887207	0.116471	-0.0485571	-0.0425343	-0.991094	1.20076	0.624755	10.3692	0.0338303	0.0934951	0.00210562	-0.449951	0.00463867	-0.99292	0.0740184	-0.0314535	0.0212355	-0.996534	0.627635	-0.543088	11.0611	-0.0008995	0.0156468	-0.0162541	-0.509033	0.126221	-1.03735	0.0960836	-0.0426577	-0.0477616	-0.993311	1.01341	0.861167	10.5107	-0.0116404	0.00560538	-0.0173544	-0.52124	-0.0168457	-1.06299	-0.0109979	-0.0479187	0.00285352	-0.998787	1.1039	-0.149155	10.4512	-0.00188114	0.0141132	0.00216142	-0.502686	-0.00854492	-0.966553	-0.133326	-0.0205525	0.114414	-0.984231	0.770383	-2.10757	9.56406	-0.00769595	0.00773752	-0.00257048	-0.548828	0.124023	-1.05664	
13	-0.0483453	-0.179078	0.0630333	0.980623	-3.79052	1.50346	10.1689	0.000899769	-0.000251434	-0.00121221	0.0710449	0.0627441	-1.13403	-0.00858879	0.199226	0.00302501	-0.979911	-3.92749	-0.0619773	9.24431	-0.0106897	-0.00212172	-0.0177769	0.234863	0.113037	-1.04712	0.114998	0.0356189	-0.546295	-0.828896	0.681365	9.30386	4.06414	-0.00486088	0.00665508	-0.00341189	-0.483398	-0.88501	-0.584717	0.0339534	0.254672	-0.933901	-0.248634	-0.647666	4.692	-8.52826	0.00747966	0.00327348	0.000148538	-0.385498	-0.727783	0.76416	-0.0726763	-0.0716487	0.654458	-0.749179	1.95988	-9.43075	1.27486	0.0217301	0.00930111	-0.00696489	-0.422363	1.16626	-0.0456543	0.0338711	-0.0623229	0.980648	-0.182476	-0.423489	-2.34009	-5.98516	0.0126825	0.0124021	-0.0163057	-0.184082	0.341064	0.891602	0.116907	-0.0474571	-0.0432563	-0.991065	1.04169	0.740022	10.598	0.0536514	0.0277267	-0.00390216	-0.443848	0.0112305	-0.990723	0.0739901	-0.0314536	0.0213329	-0.996535	0.65454	-0.536731	11.101	-0.00186258	0.0180477	-0.0157943	-0.511475	0.130615	-1.04663	0.096066	-0.0426997	-0.047382	-0.993329	1.00348	0.807713	10.5212	-0.00775913	0.005996	-0.0180358	-0.521484	-0.012207	-1.06519	-0.0110025	-0.0478842	0.00286966	-0.998788	1.08392	-0.194017	10.4899	0.00323591	0.0144874	0.00424171	-0.49585	-0.0107422	-0.970947	-0.133297	-0.0205199	0.114524	-0.984223	0.768675	-2.16709	9.52794	0.000999274	0.00975877	-0.00237187	-0.552979	0.119629	-1.06567	
14	-0.04835	-0.179132	0.0630733	0.98061	-3.83377	1.50264	10.1704	0.00344339	-0.00526878	0.00139851	0.0710449	0.0605469	-1.13184	-0.00857194	0.1989	0.00336759	-0.979976	-3.9099	-0.0811196	9.32597	-0.0298139	0.00393969	-0.0217888	0.239258	0.113037	-1.04956	0.114993	0.0355186	-0.546583	-0.828711	0.674579	9.38294	4.01774	0.0113898	-0.00127474	0.00265287	-0.483398	-0.882812	-0.580078	0.0339193	0.254628	-0.933935	-0.248554	-0.629858	4.68618	-8.54744	0.00591108	0.00416093	0.00191538	-0.383545	-0.725586	0.759766	-0.0729336	-0.0716266	0.654231	-0.749354	1.97778	-9.43604	1.29323	0.0103283	0.0122996	-0.0145603	-0.424561	1.16846	-0.0480957	0.0339293	-0.0623647	0.980648	-0.18245	-0.411611	-2.34019	-6.00573	-0.000418285	0.0134785	-0.0174439	-0.190918	0.347412	0.893555	0.11717	-0.0472033	-0.0430968	-0.991053	1.13188	0.711543	10.437	0.00541324	0.0354693	-0.00394079	-0.445801	0.00683594	-0.994873	0.0740632	-0.0314248	0.0212918	-0.996531	0.588577	-0.550698	11.08	0.00679897	0.0163076	-0.0130457	-0.515869	0.128418	-1.04419	0.0960865	-0.0426804	-0.0475733	-0.993319	0.987015	0.833921	10.5359	0.0194374	0.00714335	-0.0180702	-0.525879	-0.0168457	-1.06299	-0.0109946	-0.0478966	0.00286046	-0.998788	1.09298	-0.150809	10.4382	0.00155926	0.0139974	0.00356823	-0.504639	-0.0129395	-0.964111	-0.133278	-0.020546	0.11434	-0.984247	0.763864	-2.12593	9.54331	0.00961972	0.0101783	-0.00324616	-0.555176	0.117432	-1.0542	
15	-0.048366	-0.179012	0.0631392	0.980627	-3.75625	1.53252	10.1584	0.00154677	-0.0068273	0.00234145	0.0708008	0.0649414	-1.12988	-0.00860201	0.198832	0.00376708	-0.979989	-3.91233	-0.0493221	9.25867	-0.0211903	0.00770171	-0.0214518	0.241699	0.11084	-1.04956	0.114991	0.0354531	-0.546571	-0.828722	0.676677	9.31518	4.01185	0.0028383	0.00200303	-0.000161805	-0.485596	-0.88501	-0.582275	0.0339299	0.254632	-0.933948	-0.248501	-0.632203	4.69236	-8.53871	0.00131571	0.00582658	0.000950816	-0.383301	-0.72998	0.766357	-0.072842	-0.0716829	0.653844	-0.749696	2.01798	-9.41977	1.306	0.0225661	0.00549936	-0.0146073	-0.424805	1.17285	-0.050293	0.0339758	-0.0623765	0.980663	-0.182357	-0.421714	-2.33475	-6.0058	-0.00342836	0.0138078	-0.0148323	-0.192627	0.338867	0.889648	0.117447	-0.0462492	-0.0428142	-0.991077	1.08841	0.71273	10.509	0.0162826	0.0511691	-0.00700758	-0.443848	0.0134277	-0.997314	0.0741212	-0.0314533	0.0211915	-0.996528	0.633387	-0.52133	11.0824	0.0103714	0.017081	-0.0123082	-0.51123	0.124023	-1.04419	0.0961235	-0.0426413	-0.0478908	-0.993302	1.0084	0.90417	10.5329	0.0142415	0.00613189	-0.0170578	-0.520996	-0.0214844	-1.06274	-0.0110098	-0.0479558	0.00282033	-0.998785	1.12753	-0.157778	10.4574	0.00254687	0.0120142	0.00295851	-0.500244	-0.00854492	-0.964355	-0.133252	-0.0206176	0.114339	-0.984249	0.795115	-2.10309	9.54615	-0.00291137	0.00599296	-0.00442025	-0.550781	0.121826	-1.06323	
16	-0.0483102	-0.178963	0.0630333	0.980645	-3.79626	1.51405	10.176	-0.00442266	-0.0108721	-0.0050583	0.072998	0.0649414	-1.13184	-0.00866384	0.19852	0.00416207	-0.98005	-3.90417	-0.0712786	9.32242	-0.0194082	-0.0053958	-0.0146073	0.237061	0.113037	-1.04492	0.115045	0.0353535	-0.546561	-0.828725	0.698926	9.3581	3.99613	-0.00983743	0.000993853	0.0021188	-0.481201	-0.887207	-0.582275	0.0339579	0.254628	-0.933941	-0.248527	-0.61526	4.68758	-8.54721	-0.000478352	0.0054953	0.000781685	-0.390381	-0.721191	0.763916	-0.0729512	-0.0717324	0.653736	-0.749775	1.92848	-9.48601	1.33425	0.00699188	0.000562858	-0.0203699	-0.424561	1.16846	-0.0480957	0.0339801	-0.0624314	0.980649	-0.182415	-0.418436	-2.34371	-6.01665	0.00946435	0.0158099	-0.0182506	-0.184082	0.33667	0.894043	0.117512	-0.046417	-0.0423641	-0.991081	1.13763	0.608324	10.5137	-0.0146881	0.00510356	-0.0129926	-0.439697	0.015625	-0.995117	0.0740927	-0.0314887	0.0211342	-0.99653	0.607648	-0.482802	11.1278	0.00490319	0.0155018	-0.017138	-0.509277	0.126221	-1.04199	0.0961369	-0.0427084	-0.0477471	-0.993305	0.986767	0.916381	10.5564	-0.00849726	0.00254511	-0.0163144	-0.523682	-0.0168457	-1.06519	-0.0110527	-0.0479121	0.00294738	-0.998786	1.10154	-0.146958	10.4582	-0.0045492	0.0180899	0.00269199	-0.50708	-0.00878906	-0.966553	-0.133238	-0.0205231	0.114487	-0.984235	0.769339	-2.10193	9.55064	-0.00514886	0.0131906	-0.00215106	-0.548584	0.121826	-1.0564	
17	-0.0481578	-0.178756	0.0629174	0.980698	-3.77357	1.51123	10.1649	-0.00504462	-0.0157284	-0.00477613	0.0664062	0.0627441	-1.13403	-0.008426	0.198377	0.0042441	-0.98008	-3.87598	-0.0896566	9.22947	-0.0124237	0.0107991	-0.00797214	0.237305	0.11084	-1.04956	0.115028	0.0354739	-0.546056	-0.829056	0.691316	9.30607	4.0498	-0.0203926	0.0131655	-0.00854754	-0.483398	-0.887207	-0.582275	0.0339186	0.254664	-0.933921	-0.24857	-0.6336	4.69049	-8.56022	-0.00226885	0.00274086	-0.00134675	-0.387695	-0.727783	0.76416	-0.0727521	-0.0719825	0.653384	-0.750077	2.02489	-9.39236	1.31844	0.0126198	0.00203125	-0.0140669	-0.428711	1.16626	-0.0456543	0.0340177	-0.0624806	0.980589	-0.182716	-0.40887	-2.33993	-6.00467	0.014629	0.0135016	-0.0177861	-0.192627	0.33667	0.898193	0.117758	-0.0462441	-0.0422498	-0.991065	1.05528	0.671488	10.4277	0.0176867	0.0112265	-0.00360638	-0.443848	0.0112305	-0.995117	0.0740569	-0.0315884	0.0212772	-0.996526	0.641126	-0.578835	11.0593	-0.00424381	0.0130435	-0.0169243	-0.506836	0.119873	-1.04419	0.0960886	-0.0428097	-0.0472314	-0.99333	1.01586	0.830123	10.5223	-0.0160134	0.00517994	-0.0193549	-0.519043	-0.0144043	-1.06299	-0.0111151	-0.0479418	0.00302395	-0.998784	1.0988	-0.215249	10.4437	0.00475333	0.0134481	9.98495e-05	-0.500244	-0.0107422	-0.966553	-0.133253	-0.020511	0.114705	-0.984208	0.752814	-2.15694	9.52578	-0.00476617	0.00795177	-0.00488756	-0.551025	0.124023	-1.06104	
18	-0.0481287	-0.178663	0.0628137	0.980723	-3.78253	1.4894	10.1719	-0.00834922	-0.0111714	-0.00204289	0.0686035	0.0649414	-1.13208	-0.00832999	0.198307	0.0043383	-0.980095	-3.92055	-0.114791	9.27298	-0.018172	0.00933759	-0.0115746	0.237305	0.11084	-1.05176	0.115025	0.0355095	-0.545977	-0.829107	0.663118	9.27899	4.05047	-0.00622415	0.00784378	-0.00372038	-0.481201	-0.889404	-0.584473	0.0339197	0.254667	-0.933921	-0.248569	-0.628901	4.70213	-8.5485	0.00142974	0.0052249	0.000938919	-0.387939	-0.723389	0.759521	-0.0727937	-0.0719808	0.653405	-0.750055	1.98892	-9.42541	1.29292	-0.00289997	0.0098878	-0.0166034	-0.424316	1.16626	-0.0480957	0.0340466	-0.0624912	0.980573	-0.182792	-0.401056	-2.34488	-6.01207	0.00872128	0.0132963	-0.0162546	-0.188477	0.343262	0.895996	0.117862	-0.0466433	-0.0423637	-0.991029	1.06209	0.707152	10.441	0.0223523	-0.0185582	-0.00533032	-0.443604	0.00708008	-0.999268	0.0739999	-0.0316	0.0213561	-0.996529	0.649366	-0.621574	11.0787	-0.00244232	0.0161632	-0.0191471	-0.513184	0.119629	-1.04419	0.0960589	-0.0428163	-0.0470933	-0.993339	1.00996	0.784325	10.5197	-0.00607447	0.00672648	-0.020145	-0.521484	-0.012207	-1.06738	-0.0111352	-0.0479311	0.00286464	-0.998784	1.11175	-0.202618	10.4428	0.0146936	0.014929	0.00143752	-0.504639	-0.0107422	-0.96875	-0.133253	-0.020511	0.114705	-0.984208	0.752814	-2.15694	9.52578	-0.00476617	0.00795177	-0.00488756	-0.551025	0.124023	-1.06104	
19	-0.0482929	-0.178575	0.062707	0.980738	-3.76361	1.44813	10.1704	-0.00384114	-0.00584698	0.00830646	0.0686035	0.0671387	-1.13403	-0.00836896	0.197899	0.00394201	-0.980179	-3.86568	-0.0514648	9.32633	0.0123383	-0.00223363	-0.0149974	0.23291	0.11084	-1.04468	0.115024	0.0353923	-0.546156	-0.828993	0.697373	9.31726	4.03202	0.0109571	-0.00196676	0.00287437	-0.483398	-0.882812	-0.586914	0.0338972	0.254681	-0.933966	-0.248388	-0.617827	4.68008	-8.55166	0.00383913	0.00500239	0.0023889	-0.389893	-0.727783	0.761963	-0.0727682	-0.0719126	0.653259	-0.75019	2.00332	-9.40667	1.3177	0.0118715	0.00825129	-0.0116275	-0.426514	1.16406	-0.050293	0.0339253	-0.0626893	0.980575	-0.182735	-0.400128	-2.34637	-6.00166	-0.00162465	0.0108604	-0.0163565	-0.190674	0.338867	0.893799	0.118168	-0.0463151	-0.0426499	-0.990996	1.0583	0.705734	10.4598	0.01597	0.0238668	-0.00914124	-0.439453	0.0112305	-0.995117	0.0740183	-0.031545	0.020997	-0.996537	0.622434	-0.527521	11.1313	0.0222637	0.0177188	-0.0132579	-0.504639	0.124023	-1.03955	0.0960824	-0.0427815	-0.047439	-0.993321	1.00212	0.798699	10.5301	0.0315231	0.00581711	-0.0162534	-0.523682	-0.0146484	-1.06299	-0.0111338	-0.0480484	0.00249779	-0.99878	1.08283	-0.115143	10.4684	0.0146433	0.00736001	0.00388339	-0.502441	-0.0129395	-0.970947	-0.133287	-0.0204434	0.114362	-0.984245	0.758962	-2.13284	9.55023	0.0188267	0.00905543	-0.00208521	-0.548584	0.119629	-1.0564	
20	-0.0482966	-0.1787	0.0627906	0.980709	-3.78145	1.48773	10.1613	0.0053574	0.00521303	-7.87276e-05	0.0708008	0.0671387	-1.13623	-0.00842025	0.197723	0.00361501	-0.980215	-3.82479	-0.0693683	9.34893	-0.0133253	0.00674816	-0.0173281	0.237305	0.11084	-1.05176	0.115051	0.0354017	-0.546407	-0.828824	0.67254	9.33811	4.01527	0.00969578	0.00370278	-0.000353601	-0.483398	-0.880615	-0.584717	0.0339027	0.254669	-0.933978	-0.248352	-0.632511	4.69394	-8.55326	0.00432288	0.00571475	0.00245695	-0.389893	-0.727783	0.755371	-0.0728366	-0.0717046	0.653289	-0.750178	1.95635	-9.4645	1.3343	-0.00334626	0.0143952	-0.0126717	-0.426758	1.16846	-0.0480957	0.0340289	-0.0627236	0.98058	-0.182674	-0.409481	-2.34945	-5.98646	0.00160178	0.0115668	-0.0158974	-0.184082	0.338867	0.889648	0.11822	-0.0464199	-0.0428614	-0.990975	1.11442	0.637168	10.4336	0.0326181	0.00330719	-0.0110656	-0.44165	0.0134277	-0.995117	0.0741427	-0.0315186	0.0207867	-0.996533	0.636369	-0.480281	11.0916	0.00779483	0.0171582	-0.0105794	-0.509277	0.126221	-1.04419	0.0961188	-0.0426671	-0.0481303	-0.99329	0.997836	0.922869	10.5264	0.0292733	0.00867458	-0.0178913	-0.523438	-0.019043	-1.06738	-0.0110941	-0.048063	0.00248772	-0.99878	1.12944	-0.12721	10.4388	-0.000272552	0.0157262	0.00349732	-0.502686	-0.00854492	-0.971191	-0.133278	-0.0204935	0.114166	-0.984268	0.777585	-2.07882	9.54158	0.0047914	0.00854085	-0.00193041	-0.548584	0.121826	-1.06567	
21	-0.0481854	-0.178893	0.0628074	0.980679	-3.80438	1.58325	10.178	0.000231966	-0.00233515	-0.00358056	0.0712891	0.0583496	-1.13843	-0.0085382	0.196983	0.00414331	-0.980361	-3.91745	-0.0919391	9.33093	-0.00884531	-0.0406853	-0.0263843	0.23291	0.11084	-1.04712	0.115069	0.0351858	-0.546247	-0.828937	0.721025	9.24778	4.10681	0.00316663	-0.00162335	-0.000667695	-0.481201	-0.887207	-0.580078	0.0339353	0.254655	-0.933963	-0.248419	-0.627636	4.68365	-8.54436	-0.00409789	0.00413735	0.0022829	-0.390381	-0.721191	0.761719	-0.0727286	-0.0717824	0.653073	-0.750369	1.99477	-9.42379	1.3343	0.0136517	-0.00116935	-0.010218	-0.417969	1.16846	-0.0456543	0.034046	-0.0628137	0.980654	-0.182246	-0.398745	-2.35052	-5.99557	-0.0287395	0.0130751	-0.0220129	-0.184082	0.33667	0.898193	0.118269	-0.0475949	-0.0435058	-0.990886	1.1441	0.738695	10.422	0.038781	-0.0377791	-0.012466	-0.449951	0.00683594	-0.99707	0.0739635	-0.0312988	0.021029	-0.996548	0.60863	-0.472481	11.1032	-0.00698611	0.0180398	-0.0145866	-0.51123	0.126221	-1.04199	0.0961495	-0.0426754	-0.0481196	-0.993287	0.991615	0.925375	10.5388	-0.00330976	0.00636072	-0.0159963	-0.520996	-0.0236816	-1.06714	-0.0110284	-0.0479277	0.00269539	-0.998786	1.07721	-0.134012	10.4609	-0.00712056	0.0122723	0.00469799	-0.504639	-0.0107422	-0.964111	-0.133247	-0.0205882	0.114479	-0.984234	0.767076	-2.12925	9.55278	-0.0123897	0.00300352	-0.00268458	-0.551025	0.124023	-1.06348	
22	-0.0485654	-0.178867	0.0625648	0.98068	-3.80528	1.41672	10.1733	-0.00757532	-0.00360292	0.0103454	0.0710449	0.0627441	-1.13623	-0.0085464	0.196935	0.00372786	-0.980372	-3.80149	-0.0951547	9.31459	-0.00611013	0.022823	-0.0174857	0.233154	0.106445	-1.04688	0.115033	0.035072	-0.54697	-0.828469	0.688729	9.42584	3.98573	0.0207771	-0.0110581	0.0121467	-0.481201	-0.889404	-0.586914	0.0339663	0.254608	-0.93399	-0.248361	-0.628917	4.68287	-8.5753	0.00660067	0.00675791	0.00269587	-0.383545	-0.721191	0.766113	-0.0728563	-0.0715591	0.652861	-0.750562	1.92781	-9.40768	1.35003	0.00672688	0.0196435	-0.0123395	-0.424316	1.16626	-0.050293	0.0342265	-0.0628197	0.980646	-0.182251	-0.431836	-2.33865	-6.01173	0.005848	0.00984858	-0.0120468	-0.186279	0.341064	0.893799	0.118425	-0.0456815	-0.0420585	-0.99102	1.16868	0.671624	10.318	0.00693211	0.162361	-0.00662069	-0.439453	0.0112305	-0.995117	0.0739919	-0.0313579	0.0216515	-0.996531	0.644826	-0.530533	11.0862	-0.0253424	0.0183822	-0.014926	-0.51123	0.121826	-1.04663	0.0961582	-0.0427278	-0.0476224	-0.993308	1.0108	0.835466	10.5243	-0.0161748	0.0067894	-0.0162811	-0.523682	-0.0144043	-1.07178	-0.0110048	-0.0479137	0.00304383	-0.998786	1.14584	-0.185825	10.4425	-0.0130199	0.0167405	0.00694963	-0.500244	-0.0129395	-0.964111	-0.133182	-0.0205842	0.114657	-0.984222	0.808567	-2.13513	9.5268	3.81299e-05	0.0136486	0.000417543	-0.546631	0.126221	-1.05884	
23	-0.0484062	-0.178662	0.0626807	0.980718	-3.80727	1.49122	10.1455	0.00627651	-0.00883921	-0.00336938	0.0708008	0.0671387	-1.13208	-0.00849593	0.197006	0.00351275	-0.980359	-3.90759	-0.0326432	9.2927	-0.00049014	0.0204335	-0.0100981	0.237305	0.11084	-1.04712	0.114957	0.0353039	-0.546773	-0.8286	0.696588	9.32482	4.01465	-0.00864832	0.0163635	-0.017792	-0.483398	-0.887207	-0.580078	0.0339178	0.254649	-0.933974	-0.248386	-0.621053	4.68287	-8.55529	-0.00477355	0.00290112	-0.00156516	-0.387939	-0.723389	0.757324	-0.0726627	-0.0716532	0.652763	-0.750658	1.97574	-9.41504	1.33162	-0.00553273	0.00122981	-0.0145526	-0.422363	1.16626	-0.0456543	0.0343173	-0.0628328	0.98059	-0.18253	-0.405468	-2.35266	-5.98203	0.00962702	0.0142955	-0.0151342	-0.188477	0.341064	0.895996	0.118327	-0.0458879	-0.042777	-0.990991	1.0477	0.623958	10.3941	0.0356234	-0.00496463	-0.0120893	-0.443604	0.0090332	-0.995117	0.0739129	-0.0314907	0.0224147	-0.996515	0.617096	-0.631783	11.0875	-0.0229355	0.0152164	-0.0168755	-0.511475	0.128418	-1.04663	0.0961496	-0.0427126	-0.0473466	-0.993322	0.985876	0.837263	10.5319	-0.00349344	0.00679044	-0.0189771	-0.52832	-0.0168457	-1.06299	-0.0109599	-0.0479135	0.00313822	-0.998786	1.08232	-0.200745	10.4654	-0.00548544	0.0139408	0.00778823	-0.50708	-0.0109863	-0.975586	-0.133128	-0.0205302	0.114706	-0.984225	0.744556	-2.11868	9.56026	-0.00122343	0.00888346	-0.00311896	-0.546387	0.121826	-1.05884	
24	-0.0482989	-0.178599	0.0627853	0.980728	-3.86103	1.5214	10.1736	0.0056576	-0.0129052	-0.00111701	0.0686035	0.0649414	-1.13403	-0.00843705	0.19695	0.00348923	-0.980371	-3.89181	-0.0854772	9.29336	-0.00925204	0.0120689	-0.0182943	0.230713	0.11084	-1.04468	0.115046	0.0352373	-0.546587	-0.828713	0.66067	9.31779	4.02103	-0.00489493	-0.00151892	0.00902676	-0.487549	-0.886963	-0.582275	0.0339786	0.254651	-0.933947	-0.248479	-0.623953	4.69272	-8.54454	0.000163442	0.00806173	0.00217481	-0.387695	-0.727783	0.759766	-0.0726717	-0.0716958	0.652806	-0.750615	1.92946	-9.4078	1.38556	0.0006336	0.00362935	-0.0170641	-0.422119	1.16406	-0.0456543	0.0344314	-0.0628307	0.980571	-0.182613	-0.42223	-2.35002	-5.99701	0.00693885	0.0128998	-0.0161209	-0.186279	0.341064	0.893799	0.118369	-0.0455139	-0.0430869	-0.99099	1.07079	0.715812	10.4764	0.0279221	0.0253736	-0.0154986	-0.447998	0.0112305	-0.997314	0.0740115	-0.0314469	0.0220803	-0.996517	0.572571	-0.602131	11.1183	0.0276985	0.016508	-0.0117261	-0.505127	0.130615	-1.04443	0.096198	-0.0427743	-0.0476004	-0.993303	0.975695	0.826375	10.5242	0.0211136	0.00460372	-0.0165944	-0.52832	-0.0168457	-1.06079	-0.0109197	-0.0478926	0.00315571	-0.998788	1.08477	-0.183701	10.4452	-0.00254254	0.00918442	0.000994826	-0.502441	-0.0107422	-0.96875	-0.133119	-0.0206788	0.114843	-0.984207	0.76398	-2.15535	9.55409	0.000696429	0.00223663	-0.00513011	-0.546631	0.126221	-1.06104	
25	-0.0483008	-0.178262	0.0628926	0.980782	-3.72482	1.50504	10.167	0.00400444	-0.0144284	0.00216087	0.0751953	0.0671387	-1.13403	-0.00841825	0.197164	0.00373406	-0.980327	-3.87505	-0.104894	9.30614	-0.0207817	0.0229588	-0.0184443	0.234863	0.115234	-1.04956	0.115112	0.0351309	-0.546723	-0.828619	0.715346	9.34226	4.00274	0.00696285	0.00607293	-0.000973271	-0.483398	-0.88501	-0.580078	0.0340073	0.254644	-0.933961	-0.248428	-0.636609	4.68589	-8.55847	0.00400127	0.00443167	0.00176054	-0.383545	-0.725586	0.757568	-0.0726917	-0.0716894	0.65291	-0.750523	1.9941	-9.47549	1.32433	-0.00521098	0.0128398	-0.0143757	-0.424561	1.16626	-0.0549316	0.0344607	-0.062825	0.980582	-0.182551	-0.406664	-2.34832	-6.00215	-0.00245534	0.0139811	-0.0151758	-0.192627	0.338867	0.893799	0.118402	-0.0454634	-0.0431759	-0.990984	1.07874	0.697972	10.4379	0.0226253	0.00900208	-0.0126823	-0.441406	0.00683594	-0.99292	0.0740748	-0.0315155	0.0216192	-0.99652	0.665134	-0.498583	11.0924	0.0153441	0.0143756	-0.0146223	-0.509033	0.124023	-1.03955	0.0962661	-0.042819	-0.0480041	-0.993275	1.0167	0.868704	10.5417	0.0199539	0.00434985	-0.0156615	-0.52124	-0.019043	-1.06274	-0.0109537	-0.0480597	0.00295073	-0.99878	1.11432	-0.15962	10.4529	0.0130088	0.00817525	0.00177478	-0.504639	-0.0107422	-0.966553	-0.133115	-0.0209048	0.114711	-0.984218	0.793057	-2.1489	9.54091	0.0108482	0.00125048	-0.00526911	-0.55542	0.124023	-1.05884	
26	-0.0483086	-0.178196	0.0629437	0.980791	-3.76043	1.49864	10.1755	0.00429426	-0.010351	0.00135211	0.0686035	0.0649414	-1.13623	-0.00840137	0.197163	0.00372033	-0.980328	-3.82432	-0.0603507	9.3158	-0.00803181	0.0150768	-0.0160063	0.230469	0.119629	-1.04736	0.115125	0.035166	-0.546732	-0.82861	0.688176	9.34471	4.02081	0.00223844	0.00780757	-0.00187369	-0.483398	-0.882812	-0.577881	0.0339701	0.254694	-0.933968	-0.248356	-0.602522	4.68615	-8.56431	0.00440905	0.00401739	-0.0019609	-0.385254	-0.732178	0.757568	-0.0727087	-0.0717113	0.652876	-0.750549	1.97872	-9.44726	1.345	0.00278692	0.00684311	-0.0165716	-0.422363	1.16846	-0.0456543	0.0342958	-0.0630002	0.980605	-0.182396	-0.40644	-2.34219	-6.00128	-0.00557754	0.0128433	-0.0155866	-0.188477	0.338867	0.898193	0.118434	-0.0456401	-0.0434445	-0.990961	1.06058	0.694078	10.4388	0.0362022	0.00306178	-0.0145622	-0.445801	0.0090332	-0.995117	0.0740882	-0.0315005	0.0216688	-0.996518	0.635709	-0.519463	11.091	-0.00145783	0.0170493	-0.0158	-0.511475	0.128418	-1.04443	0.096276	-0.0428182	-0.0481277	-0.993268	1.02048	0.905562	10.5175	0.0148422	0.00557495	-0.0173095	-0.523682	-0.012207	-1.06519	-0.0109499	-0.0480611	0.00286745	-0.99878	1.14655	-0.1584	10.4522	0.00868307	0.0141952	0.00360501	-0.504883	-0.00854492	-0.971191	-0.133101	-0.0209746	0.114655	-0.984225	0.812777	-2.11185	9.55127	0.00707094	0.00471648	-0.00367924	-0.548584	0.119629	-1.06104	
27	-0.0482623	-0.178088	0.0630339	0.980807	-3.73453	1.53773	10.1823	0.00164797	-0.00634299	-0.000112128	0.072998	0.0671387	-1.12988	-0.00840443	0.196925	0.00360763	-0.980376	-3.85636	-0.048388	9.27802	-0.00384238	0.00991282	-0.0169645	0.237305	0.11084	-1.04956	0.11508	0.035267	-0.546655	-0.828662	0.710767	9.30612	4.04087	0.000847206	0.0110052	-0.010156	-0.483398	-0.887207	-0.584473	0.0339437	0.254723	-0.93394	-0.248436	-0.624252	4.68718	-8.55812	-0.00194591	0.00402394	-0.000653312	-0.387939	-0.725586	0.761963	-0.0728341	-0.0717959	0.65281	-0.750586	1.97875	-9.45311	1.32353	0.00271553	0.00513214	-0.0134207	-0.422363	1.16626	-0.0480957	0.0343536	-0.063029	0.980591	-0.182452	-0.415963	-2.32963	-6.02078	0.00751449	0.0118219	-0.0173683	-0.190674	0.341064	0.893799	0.11844	-0.0458256	-0.0434217	-0.990952	1.10147	0.72527	10.4649	-0.00181761	0.0203801	-0.012721	-0.443848	0.0112305	-0.997314	0.0741186	-0.0314936	0.0216662	-0.996517	0.638616	-0.560173	11.111	0.0102273	0.0170181	-0.0139954	-0.51123	0.124023	-1.04419	0.0960758	-0.0427232	-0.0480082	-0.993297	1.00639	0.906931	10.542	-0.00212324	0.00715626	-0.0173306	-0.523682	-0.0146484	-1.06519	-0.0109544	-0.0480709	0.00284438	-0.99878	1.1382	-0.147831	10.4619	0.00398019	0.0133086	0.00293223	-0.502441	-0.0107422	-0.96875	-0.133122	-0.0209824	0.114654	-0.984222	0.788801	-2.12163	9.54738	0.00114161	0.00776624	-0.00534707	-0.550781	0.121826	-1.0564	
28	-0.0482417	-0.178094	0.0630407	0.980806	-3.79325	1.51655	10.1772	0.000411966	-0.007923	-0.00204876	0.0686035	0.0627441	-1.13184	-0.00840744	0.196839	0.00371623	-0.980393	-3.90088	-0.073507	9.3074	-0.0168068	0.0153548	-0.0209312	0.235107	0.11084	-1.04468	0.115065	0.0352867	-0.546693	-0.828639	0.700951	9.35549	4.0213	0.0023739	0.0029984	-0.00149253	-0.483398	-0.882812	-0.586914	0.0338939	0.254716	-0.933956	-0.248389	-0.632928	4.68185	-8.55093	0.00492519	0.00340094	0.00055848	-0.383545	-0.721191	0.757324	-0.0728128	-0.0715154	0.652878	-0.750556	1.9289	-9.47526	1.31411	-0.00775828	0.01198	-0.0108305	-0.426758	1.16846	-0.0456543	0.0343806	-0.0632368	0.980492	-0.182907	-0.424062	-2.34839	-5.9876	0.0023079	0.010433	-0.0155831	-0.186279	0.341064	0.891602	0.118458	-0.0454653	-0.0429844	-0.990986	1.0685	0.649053	10.4634	0.00461384	0.029372	-0.015551	-0.441406	0.0090332	-0.999268	0.0741511	-0.0315173	0.0216918	-0.996513	0.612028	-0.537558	11.0648	-0.00301931	0.0147109	-0.0145509	-0.513428	0.126221	-1.04663	0.0960619	-0.0427504	-0.0477222	-0.993311	1.00818	0.843851	10.5305	-0.00750941	0.00598777	-0.0188981	-0.521484	-0.0146484	-1.06299	-0.0108936	-0.0479419	0.00297136	-0.998786	1.11044	-0.161111	10.4252	-0.0063001	0.0149796	0.00493524	-0.500244	-0.0107422	-0.966553	-0.133059	-0.0209409	0.114705	-0.984225	0.777639	-2.13314	9.54449	-0.000435129	0.0109876	-0.00148651	-0.551025	0.124023	-1.06348	
29	-0.0482818	-0.178014	0.0631068	0.980815	-3.79295	1.48762	10.1666	0.00393288	-0.00546086	0.0053978	0.0708008	0.0649414	-1.13623	-0.00840117	0.197002	0.00394842	-0.980359	-3.90691	-0.0950913	9.29358	-0.016326	0.0197675	-0.0199122	0.234863	0.113037	-1.052	0.11507	0.0353682	-0.546686	-0.828639	0.665962	9.31466	4.01575	0.000344609	0.00398982	-0.0022538	-0.481201	-0.882812	-0.58252	0.0338705	0.254738	-0.933971	-0.248314	-0.617926	4.67584	-8.5599	0.00778493	0.00521901	-0.000370533	-0.390137	-0.723389	0.757324	-0.0727745	-0.0715534	0.652836	-0.750592	1.96989	-9.48503	1.30724	0.00461995	0.00434987	-0.0140927	-0.422363	1.16846	-0.0480957	0.0343806	-0.0632368	0.980492	-0.182907	-0.424062	-2.34839	-5.9876	0.0023079	0.010433	-0.0155831	-0.186279	0.341064	0.891602	0.118435	-0.0451438	-0.0429956	-0.991003	1.07604	0.684752	10.4696	0.0202772	0.0390826	-0.0178918	-0.447998	0.0112305	-0.997314	0.0741531	-0.0315348	0.0217985	-0.99651	0.62273	-0.5489	11.0918	-0.00425213	0.0162182	-0.0148954	-0.509277	0.126221	-1.04199	0.0961085	-0.0427152	-0.0477009	-0.993309	0.99086	0.850909	10.5312	0.00429721	0.00852865	-0.0157564	-0.523682	-0.0146484	-1.05835	-0.0109058	-0.0479276	0.00303029	-0.998787	1.10597	-0.195482	10.4573	-0.00277351	0.0150053	0.00284445	-0.506836	-0.0109863	-0.96875	-0.133056	-0.0209487	0.114731	-0.984223	0.762173	-2.12402	9.53963	-0.000127403	0.00818085	-0.00379035	-0.548828	0.124023	-1.06104	
30	-0.0483866	-0.177795	0.0633673	0.980832	-3.74712	1.46429	10.1545	0.0112623	-0.0147324	0.0062652	0.0686035	0.0649414	-1.13623	-0.00849017	0.19691	0.00383686	-0.980377	-3.87048	-0.0774061	9.32182	-0.00503809	0.0147238	-0.0200074	0.234863	0.113037	-1.04956	0.115076	0.035313	-0.547027	-0.828415	0.696959	9.3142	4.02356	0.0231356	0.00157432	0.000953324	-0.487793	-0.882812	-0.580078	0.033803	0.254733	-0.934043	-0.248055	-0.634615	4.6837	-8.54468	0.0122795	0.00349099	0.00183902	-0.385742	-0.723389	0.757324	-0.0728011	-0.0716718	0.652596	-0.750788	1.99293	-9.45024	1.32023	0.0136979	0.0067926	-0.0182114	-0.426758	1.16846	-0.043457	0.0341072	-0.0636166	0.980439	-0.18311	-0.42391	-2.34543	-6.03246	0.0405542	0.0125245	-0.0190647	-0.190674	0.341064	0.895996	0.11844	-0.0435344	-0.0429839	-0.991075	1.09094	0.671377	10.4404	0.0245027	0.0948115	-0.0179798	-0.439697	0.0178223	-0.999512	0.0741963	-0.0315445	0.0219233	-0.996503	0.619864	-0.570937	11.102	0.00331155	0.0164311	-0.0129258	-0.50708	0.126221	-1.04663	0.0959011	-0.0426202	-0.0477629	-0.99333	0.991986	0.854933	10.5363	0.00502301	0.00657576	-0.0176366	-0.528076	-0.0192871	-1.06519	-0.0108563	-0.047826	0.00294844	-0.998792	1.09832	-0.182366	10.4282	0.00369314	0.0128003	0.00366728	-0.506836	-0.0109863	-0.970947	-0.133107	-0.020914	0.11468	-0.984222	0.768708	-2.14489	9.56542	0.00715548	0.00742378	-0.00415461	-0.550781	0.121826	-1.06104	
31	-0.0484921	-0.177891	0.0637873	0.980783	-3.73913	1.50081	10.1954	0.0167362	0.00172146	0.00776229	0.0688477	0.0605469	-1.13843	-0.00860275	0.196614	0.00343133	-0.980437	-3.84786	-0.0599293	9.27249	0.00992822	-0.0020457	-0.0193045	0.241699	0.11084	-1.04468	0.115013	0.0353549	-0.547359	-0.828203	0.68344	9.33129	4.00185	0.0139819	0.00314765	-0.00398164	-0.479004	-0.882812	-0.577881	0.0337206	0.254734	-0.934094	-0.247876	-0.627573	4.67078	-8.55738	0.00494067	0.00273786	0.00178269	-0.385742	-0.725586	0.759766	-0.0728925	-0.0716967	0.652043	-0.751257	1.98019	-9.44133	1.3624	0.031101	0.0142186	-0.0182728	-0.424561	1.16626	-0.0571289	0.0343117	-0.0636789	0.980266	-0.183972	-0.405935	-2.3569	-5.99648	0.0308886	0.0092876	-0.0181882	-0.188721	0.345459	0.891602	0.118287	-0.0416083	-0.0426478	-0.99119	0.963602	0.698567	10.5357	0.00369199	0.0619386	-0.026439	-0.437256	0.00927734	-1.00146	0.0741886	-0.031549	0.0220283	-0.996502	0.660581	-0.513975	11.0936	-0.00218337	0.0175763	-0.0161611	-0.517822	0.126221	-1.03735	0.0958875	-0.0426238	-0.0477144	-0.993334	0.994824	0.851832	10.5312	0.00164204	0.00665319	-0.0181556	-0.523682	-0.0146484	-1.06519	-0.0108543	-0.047875	0.00287266	-0.99879	1.10977	-0.167556	10.4666	0.00724298	0.0128733	0.00298045	-0.506836	-0.0107422	-0.961914	-0.133126	-0.0209371	0.114573	-0.984232	0.782819	-2.13006	9.54721	0.0104857	0.00869901	-0.00563338	-0.548828	0.124023	-1.06567	
32	-0.0484727	-0.177895	0.0642251	0.980754	-3.80037	1.54746	10.1868	0.0162309	-0.00858639	0.000380031	0.0666504	0.0605469	-1.13403	-0.00868093	0.196668	0.00301721	-0.980427	-3.81911	-0.0216043	9.33398	0.015834	0.0309288	-0.0158794	0.235107	0.108643	-1.05176	0.114939	0.0353932	-0.547606	-0.828048	0.693928	9.39343	3.97658	0.00721877	0.00575768	-0.00351196	-0.487549	-0.88916	-0.582275	0.0337312	0.254719	-0.934087	-0.247915	-0.62654	4.67046	-8.55763	-0.00170777	0.00458221	0.00250235	-0.388184	-0.721191	0.757324	-0.0728692	-0.0715904	0.651499	-0.751741	1.97196	-9.33608	1.36069	0.01286	0.00439451	-0.00969005	-0.422363	1.16626	-0.0524902	0.0344624	-0.0636861	0.980215	-0.184214	-0.430482	-2.38032	-5.98207	0.00466555	0.00978344	-0.0169085	-0.19043	0.33667	0.895996	0.11799	-0.0425271	-0.0429691	-0.991173	1.02103	0.66415	10.5854	0.0304731	-0.0396239	-0.0256708	-0.4375	0.0134277	-1.00146	0.0742491	-0.0315147	0.0220242	-0.996498	0.603892	-0.541542	11.08	0.00753767	0.016697	-0.0117861	-0.513428	0.124023	-1.04199	0.0958935	-0.0425818	-0.0476835	-0.993337	0.997136	0.854487	10.5249	0.00347044	0.0083969	-0.0166273	-0.526123	-0.0100098	-1.06519	-0.0108194	-0.0479149	0.0028248	-0.998789	1.07753	-0.12285	10.4653	-0.000977322	0.0119892	0.00508743	-0.504639	-0.0107422	-0.966553	-0.133133	-0.0208171	0.114457	-0.984247	0.769595	-2.11394	9.55065	-0.00133164	0.0101929	-0.00117236	-0.548584	0.121826	-1.06323	
33	-0.0483168	-0.177679	0.0643994	0.98079	-3.72712	1.5956	10.1463	0.00371738	-0.011691	-0.00279167	0.0664062	0.0646973	-1.13208	-0.00866449	0.196604	0.00261082	-0.980441	-3.9244	-0.102845	9.33604	-0.00800588	-0.00578812	-0.0130212	0.235107	0.108643	-1.04932	0.114932	0.0354981	-0.547424	-0.828165	0.690321	9.32884	3.99477	-0.0100471	0.00936912	-0.005676	-0.483398	-0.880615	-0.580078	0.0337377	0.254749	-0.934078	-0.247918	-0.637899	4.67471	-8.54991	-0.00100488	0.00232824	-0.000632581	-0.385742	-0.725586	0.759766	-0.0728699	-0.0714625	0.65182	-0.751475	1.96567	-9.45606	1.37799	-0.0164357	0.0100301	-0.0089341	-0.426514	1.16187	-0.0524902	0.0345583	-0.063726	0.980267	-0.183908	-0.409479	-2.36735	-6.0139	-0.00899621	0.0110944	-0.0161162	-0.190918	0.345459	0.893799	0.117682	-0.04536	-0.0434086	-0.991065	1.03019	0.681491	10.4862	0.0181707	-0.115011	-0.0223569	-0.441406	0.0090332	-0.99707	0.0742933	-0.0315861	0.0220004	-0.996493	0.655515	-0.564071	11.0948	0.00383123	0.0154068	-0.0138227	-0.509033	0.121826	-1.04419	0.0959259	-0.0425962	-0.0476879	-0.993333	0.987361	0.877988	10.5621	0.00472092	0.0061486	-0.0173226	-0.523682	-0.0146484	-1.06079	-0.0108463	-0.0479603	0.00300664	-0.998786	1.08454	-0.186315	10.4599	-0.00343707	0.0125826	0.00294985	-0.502686	-0.00634766	-0.968994	-0.1331	-0.0208131	0.114586	-0.984236	0.772579	-2.12688	9.54875	-0.00316841	0.00812038	-0.00313602	-0.550781	0.121826	-1.05884	
34	-0.0482829	-0.177811	0.0642954	0.980774	-3.78366	1.58268	10.1318	-0.00653952	0.00669039	-0.00422531	0.0710449	0.0605469	-1.13184	-0.00858831	0.19699	0.00310966	-0.980363	-3.90228	-0.078138	9.22435	-0.049697	0.0461009	-0.0197009	0.23291	0.11084	-1.04248	0.114947	0.0355574	-0.54727	-0.828262	0.654461	9.36269	3.98267	-0.0127452	0.0100565	-0.0047495	-0.485352	-0.889404	-0.579834	0.0337316	0.254762	-0.934049	-0.248014	-0.636461	4.67552	-8.54958	-0.00275591	0.00445386	0.000532454	-0.385742	-0.723389	0.763916	-0.0728233	-0.0713985	0.651974	-0.751351	1.9535	-9.45529	1.32291	-0.0161873	0.00745323	-0.00786101	-0.424561	1.17065	-0.0524902	0.0346163	-0.0637509	0.980274	-0.183851	-0.416675	-2.3607	-5.99856	-0.00208102	0.0107632	-0.0172193	-0.188477	0.343262	0.893799	0.11719	-0.0479091	-0.0438614	-0.990983	0.978778	0.705521	10.4503	0.0271494	-0.0945982	-0.0303132	-0.447754	0.00268555	-0.992676	0.074269	-0.0315485	0.0220206	-0.996496	0.627341	-0.566487	11.0924	0.00264625	0.0198642	-0.016556	-0.50708	0.126221	-1.04419	0.0959409	-0.0426201	-0.0476627	-0.993331	0.980465	0.834675	10.5136	0.00305967	0.00508561	-0.0167196	-0.526123	-0.0146484	-1.06738	-0.0108342	-0.0479484	0.00303531	-0.998786	1.0723	-0.192571	10.4511	-2.15933e-05	0.0149203	0.0042706	-0.50708	-0.0065918	-0.968994	-0.13311	-0.0208586	0.114637	-0.984228	0.750748	-2.13891	9.54413	-0.0018089	0.00527692	-0.00511429	-0.553223	0.121826	-1.05884	
35	-0.0483574	-0.177814	0.0637942	0.980803	-3.70864	1.59805	10.1773	-0.0260299	-0.0073112	0.00835155	0.0710449	0.0627441	-1.13843	-0.00876954	0.195957	0.00327736	-0.980568	-3.80185	0.0274245	9.36698	0.031046	-0.0257406	-0.015475	0.23291	0.113037	-1.04492	0.114966	0.0354817	-0.547466	-0.828133	0.700254	9.2573	4.05895	0.0437621	0.00689992	-0.00278391	-0.481201	-0.887207	-0.580078	0.0337744	0.254703	-0.933894	-0.248653	-0.631147	4.68626	-8.63475	-0.0506301	0.00154363	0.00488523	-0.385742	-0.725586	0.761963	-0.07262	-0.0715673	0.651842	-0.75147	2.05237	-9.45649	1.37554	0.0144131	-0.0022831	-0.0108581	-0.422119	1.16406	-0.050293	0.034686	-0.0637695	0.98029	-0.183746	-0.40259	-2.37138	-6.00181	-0.00433227	0.0120964	-0.015099	-0.188721	0.345459	0.891602	0.11677	-0.0494596	-0.0427017	-0.991007	1.36909	0.706489	10.5496	-0.0880791	-0.0032415	-0.0218429	-0.449951	0.00683594	-0.99292	0.0743466	-0.0316408	0.0221278	-0.996485	0.697711	-0.547541	11.0973	0.000429322	0.0183059	-0.0112768	-0.513428	0.126221	-1.04663	0.0959955	-0.0426344	-0.0476972	-0.993324	1.00754	0.858153	10.5182	0.0038727	0.00663201	-0.0151787	-0.523682	-0.0168457	-1.06738	-0.010811	-0.0478693	0.00294352	-0.998791	1.08577	-0.162148	10.4736	0.0047873	0.0103746	0.00238751	-0.50708	-0.00878906	-0.971191	-0.13313	-0.0210353	0.114763	-0.984207	0.806214	-2.14543	9.53665	-0.00305919	0.00166595	-0.005045	-0.548584	0.119629	-1.06787	
36	-0.0486293	-0.177948	0.0633335	0.980795	-3.74582	1.43146	10.2077	-0.0102878	-0.0010291	-0.00425206	0.0688477	0.0605469	-1.13403	-0.00870794	0.196206	0.00289455	-0.98052	-3.85716	-0.0712984	9.33598	-0.00626006	0.0237273	-0.0157291	0.237305	0.108643	-1.04932	0.11467	0.0350552	-0.54754	-0.828144	0.739213	9.52449	3.92112	-0.0527954	-0.0194331	0.000474345	-0.485596	-0.882812	-0.58252	0.0345723	0.254416	-0.933201	-0.251421	-0.627093	4.73714	-8.52065	-0.113978	0.00515514	0.0080295	-0.387695	-0.72998	0.750977	-0.0727219	-0.0712852	0.652027	-0.751326	1.91721	-9.37929	1.38682	-0.0207429	0.019626	-0.00789743	-0.419922	1.16187	-0.0480957	0.0349047	-0.0637954	0.980252	-0.183897	-0.416021	-2.35537	-6.01934	0.013609	0.00756267	-0.0164644	-0.186523	0.345459	0.895752	0.116519	-0.0510854	-0.0432949	-0.990928	1.11433	0.592131	10.2493	0.0467174	-0.0983963	-0.0228334	-0.454346	0.0090332	-0.990723	0.0743519	-0.0316146	0.022164	-0.996484	0.637233	-0.581914	11.0966	0.0015819	0.0192583	-0.0145932	-0.513428	0.124023	-1.04419	0.0959799	-0.0426112	-0.0477781	-0.993322	1.01514	0.907895	10.5603	0.00572764	0.00713831	-0.0196978	-0.519043	-0.0168457	-1.06055	-0.0107498	-0.0478678	0.00303399	-0.998791	1.12484	-0.185776	10.4503	-0.00235258	0.0170229	0.00627593	-0.50708	-0.0065918	-0.966553	-0.133104	-0.0210161	0.114686	-0.98422	0.826976	-2.1296	9.5251	0.00756219	0.0107353	-0.00128658	-0.550781	0.119629	-1.05884	
37	-0.0484198	-0.178298	0.0632883	0.980745	-3.84111	1.48897	10.1498	0.000612334	0.0114002	-0.00674297	0.064209	0.0646973	-1.12769	-0.00868232	0.196063	0.00274555	-0.980549	-3.91477	-0.0426524	9.28316	-0.00243127	0.00586256	-0.0151951	0.230713	0.108643	-1.04932	0.114476	0.0351662	-0.546153	-0.829081	0.686631	9.24654	4.06342	-0.0650781	0.00646718	-0.0160946	-0.481201	-0.889404	-0.579834	0.0348268	0.254328	-0.932981	-0.252292	-0.620898	4.75748	-8.47904	-0.0731837	0.00477455	0.00605612	-0.387695	-0.72998	0.761963	-0.0724991	-0.0712903	0.652292	-0.751117	2.02061	-9.44241	1.35317	-0.0204245	0.00508397	-0.00961463	-0.422363	1.16846	-0.043457	0.0350309	-0.0638308	0.980252	-0.18386	-0.419008	-2.36368	-5.98522	-0.00343823	0.010827	-0.0154903	-0.18457	0.347412	0.893555	0.116406	-0.051358	-0.0437241	-0.990909	1.16775	0.778268	10.4052	0.0476532	-0.012082	-0.0243413	-0.452148	0.00683594	-0.990723	0.0743255	-0.031592	0.0220684	-0.996489	0.59818	-0.552489	11.074	0.0128846	0.0178292	-0.0157046	-0.511475	0.130615	-1.04443	0.0959292	-0.0426182	-0.0476474	-0.993333	0.974899	0.843557	10.5367	-0.000657298	0.00550958	-0.019316	-0.530518	-0.0192871	-1.06519	-0.0107281	-0.0479179	0.00292404	-0.998789	1.09146	-0.176927	10.461	0.0100516	0.0141201	0.00367013	-0.502441	-0.0107422	-0.973389	-0.133161	-0.0207761	0.114648	-0.984222	0.738882	-2.1223	9.55447	-0.00461056	0.0070985	-0.00428728	-0.548584	0.121826	-1.06567	
38	-0.0483769	-0.178278	0.06326	0.980752	-3.8197	1.50918	10.17	-0.000438869	-0.0109668	0.000511652	0.0754395	0.0605469	-1.13403	-0.00873542	0.196156	0.00269041	-0.98053	-3.87664	-0.112082	9.32682	-0.00947614	0.0256293	-0.0193237	0.23291	0.113037	-1.04248	0.114621	0.0350965	-0.546159	-0.82906	0.671302	9.29717	4.05817	0.00567154	0.00176607	0.0119367	-0.483398	-0.882812	-0.575439	0.034853	0.254307	-0.933031	-0.252125	-0.612068	4.75718	-8.48496	0.0294822	0.00859288	0.00113341	-0.387695	-0.732178	0.753174	-0.0725623	-0.0713991	0.65251	-0.750911	1.9232	-9.45622	1.32397	-0.00188075	-0.00332319	-0.0221501	-0.426758	1.16846	-0.0524902	0.0352103	-0.0639022	0.980229	-0.183925	-0.418595	-2.36061	-6.01383	0.0101198	0.00662766	-0.0185055	-0.179688	0.338867	0.891602	0.116201	-0.0528227	-0.044193	-0.990835	1.17625	0.713867	10.5403	0.0233999	-0.0707745	-0.0205885	-0.456543	0.0090332	-0.98877	0.0744515	-0.0316738	0.0219139	-0.996481	0.616904	-0.589939	11.1105	0.012734	0.00892612	-0.00942227	-0.509277	0.126221	-1.04663	0.0961177	-0.042516	-0.04699	-0.993351	0.948057	0.712465	10.5464	-0.00708833	0.0174462	-0.00497809	-0.52832	-0.0168457	-1.05835	-0.0107411	-0.0480392	0.00283654	-0.998784	1.15052	-0.145009	10.4873	0.00770132	0.0111838	0.00238027	-0.49585	-0.00854492	-0.96875	-0.133182	-0.0210026	0.114669	-0.984212	0.746495	-2.13912	9.53993	0.00326969	-0.00147698	-0.006142	-0.551025	0.124023	-1.0542	
39	-0.048404	-0.178314	0.0632719	0.980744	-3.75111	1.51166	10.1686	-0.000225712	0.00207266	0.00292151	0.0664062	0.0646973	-1.13208	-0.00882503	0.196274	0.00289814	-0.980505	-3.8192	-0.0751603	9.35103	-0.0153386	0.0108092	-0.0212327	0.235107	0.11084	-1.04956	0.114699	0.0352692	-0.546523	-0.828802	0.698316	9.30641	4.01736	0.0202453	0.0181266	-0.00440212	-0.479004	-0.88501	-0.582275	0.0347332	0.254384	-0.933226	-0.251339	-0.626542	4.74737	-8.51555	0.0332826	0.00871812	0.000229192	-0.387695	-0.727783	0.755371	-0.072526	-0.0715478	0.652446	-0.750956	1.99774	-9.42294	1.28984	0.00674136	-0.00274379	-0.0199406	-0.426514	1.16626	-0.0524902	0.0359217	-0.0640658	0.979907	-0.185441	-0.423562	-2.37554	-6.02404	0.0896446	-0.0143661	-0.0194287	-0.184326	0.345459	0.895752	0.115853	-0.0548902	-0.0449614	-0.990729	1.3218	0.655753	10.3962	0.0334141	-0.0633975	-0.0247081	-0.460938	0.0112305	-0.995117	0.0746919	-0.031704	0.0216912	-0.996466	0.738684	-0.632544	11.0963	0.00369934	0.0243212	-0.00502991	-0.509277	0.128418	-1.04199	0.0962984	-0.0423351	-0.0494485	-0.993222	0.993056	1.11926	10.4891	0.154435	0.00920463	-0.0184893	-0.523438	-0.019043	-1.07178	-0.0107358	-0.0480789	0.00325182	-0.998781	1.1151	-0.148067	10.42	-0.0149106	0.00717724	0.00380859	-0.502686	-0.00634766	-0.968994	-0.133137	-0.0211648	0.115042	-0.984171	0.77166	-2.16292	9.56608	-0.0284417	-0.00100924	-0.00212512	-0.551025	0.126221	-1.06104	
40	-0.0483197	-0.178371	0.0632465	0.980739	-3.72998	1.54128	10.1669	0.00144863	-0.0023365	-0.00557987	0.0686035	0.0649414	-1.13403	-0.00892298	0.196291	0.0031235	-0.9805	-3.84407	-0.0936178	9.29807	-0.0137769	0.00281883	-0.0224952	0.228516	0.108643	-1.04932	0.114797	0.0355532	-0.546837	-0.828569	0.719885	9.37192	4.01891	0.0189811	0.0161308	-0.00481473	-0.483398	-0.889404	-0.582275	0.0346339	0.254486	-0.933378	-0.250686	-0.625028	4.74401	-8.5325	0.0209799	0.00833116	-0.000905364	-0.385498	-0.727783	0.753174	-0.0727173	-0.0717329	0.652695	-0.750703	1.96711	-9.41547	1.33277	-0.0174787	0.0025803	-0.0160851	-0.424316	1.16406	-0.0480957	0.0362288	-0.0641302	0.979747	-0.186203	-0.426515	-2.41352	-5.96251	0.0660747	-0.00509766	-0.01947	-0.186523	0.347412	0.889404	0.115631	-0.0560811	-0.0461253	-0.990635	1.23133	0.717164	10.374	0.0596028	-0.0410752	-0.0256764	-0.462646	0.000244141	-0.986328	0.0747034	-0.031605	0.020894	-0.996486	0.58158	-0.337579	11.1129	0.00216227	0.0154004	-0.0180106	-0.509033	0.124023	-1.03735	0.0963338	-0.0423118	-0.0488304	-0.99325	0.980207	0.914369	10.5727	-0.0289586	0.0109363	-0.0171311	-0.52124	-0.0168457	-1.06055	-0.0107192	-0.0480923	0.00345002	-0.998779	1.10107	-0.269924	10.4485	-0.00456573	0.0118223	0.00298397	-0.50708	-0.0065918	-0.968994	-0.133118	-0.0212353	0.115186	-0.984155	0.807756	-2.15804	9.54193	0.00101822	0.00796816	-0.00184929	-0.548828	0.124023	-1.05884	
41	-0.0483441	-0.178437	0.0630838	0.980736	-3.79884	1.52723	10.1792	-0.00649237	-0.00472764	-0.000357527	0.064209	0.0627441	-1.13623	-0.00888125	0.196232	0.00319651	-0.980512	-3.83902	-0.0689254	9.30122	-0.0158159	0.0106032	-0.0149281	0.23291	0.113037	-1.04956	0.114817	0.0358587	-0.547076	-0.828395	0.683448	9.32182	4.00076	0.0131127	0.0109861	-0.00468796	-0.483154	-0.889404	-0.579834	0.0346507	0.254528	-0.93339	-0.250596	-0.632123	4.72469	-8.50826	0.00537483	0.0078636	0.00015654	-0.387695	-0.732178	0.755371	-0.0727037	-0.0718039	0.653156	-0.750297	2.02231	-9.42275	1.39654	-0.0282425	0.00182135	-0.018461	-0.422363	1.16846	-0.0412598	0.036442	-0.0643674	0.979715	-0.186244	-0.439926	-2.42164	-5.98247	-0.038836	0.00754411	-0.013321	-0.186523	0.343262	0.893799	0.115361	-0.057477	-0.0464299	-0.990572	1.32256	0.728983	10.4732	0.0177895	-0.0385634	-0.0222071	-0.471436	0.00463867	-0.990723	0.074719	-0.0317237	0.0214133	-0.99647	0.6708	-0.454989	11.1643	-0.0377321	0.0105461	-0.0129	-0.511475	0.128418	-1.04199	0.0963613	-0.0423807	-0.0484247	-0.993264	0.979093	0.951392	10.5763	-0.0186403	0.00652129	-0.0174463	-0.525879	-0.019043	-1.06738	-0.0107303	-0.0480999	0.00340595	-0.998779	1.09815	-0.18065	10.4035	0.00564292	0.0137423	0.00227388	-0.498291	-0.00415039	-0.971191	-0.133123	-0.0211922	0.11503	-0.984173	0.773838	-2.15903	9.5566	0.011286	0.0119133	-0.00553977	-0.55542	0.124023	-1.06104	
42	-0.0483467	-0.178407	0.0629864	0.980748	-3.77211	1.5222	10.1558	-0.00805301	-0.005769	0.000463901	0.0732422	0.0627441	-1.12964	-0.00901035	0.196703	0.00354187	-0.980415	-3.85954	-0.102396	9.33153	-0.0171659	0.0267008	-0.0165537	0.233154	0.106445	-1.04688	0.114787	0.0359959	-0.547244	-0.828283	0.67664	9.33957	4.02509	0.0182479	0.0117457	-0.00768315	-0.483398	-0.88501	-0.584717	0.034623	0.254559	-0.933431	-0.250413	-0.62898	4.72334	-8.51927	0.0168078	0.00689584	-8.91174e-05	-0.387695	-0.727783	0.759766	-0.0727474	-0.0718156	0.653442	-0.750043	1.95883	-9.43279	1.30245	-0.0306655	0.00708868	-0.0178576	-0.424561	1.16846	-0.0480957	0.0365066	-0.0644078	0.979759	-0.185985	-0.43664	-2.39614	-6.02815	-0.0179178	0.00950851	-0.0165274	-0.182373	0.347656	0.893555	0.115278	-0.058191	-0.0466301	-0.99053	1.31039	0.740653	10.4537	0.0257044	-0.0448398	-0.0193292	-0.464844	0.00244141	-0.984131	0.0745073	-0.0315349	0.0217058	-0.996485	0.630431	-0.622493	11.0685	-0.00909903	0.0171002	-0.0158254	-0.509033	0.126221	-1.03955	0.0963403	-0.0424191	-0.0481496	-0.993278	0.996672	0.85315	10.5126	-0.0172523	0.00574738	-0.0183899	-0.525879	-0.0168457	-1.06738	-0.010628	-0.0479526	0.00300292	-0.998789	1.10315	-0.165457	10.4767	0.0173846	0.0128282	0.00485411	-0.502686	-0.00634766	-0.961914	-0.133114	-0.0211844	0.114884	-0.984192	0.778409	-2.10299	9.55858	0.0134821	0.0116723	-0.00326165	-0.548584	0.119629	-1.05884	
43	-0.0485746	-0.178471	0.0627379	0.980741	-3.82093	1.46148	10.1709	-0.0118591	-0.00268895	0.00824842	0.0664062	0.0646973	-1.13208	-0.00906544	0.196936	0.00347042	-0.980368	-3.90121	-0.043179	9.28433	-0.00363782	0.0219429	-0.0194725	0.234863	0.113037	-1.04492	0.114847	0.0362243	-0.547739	-0.827937	0.673176	9.35241	3.99984	0.0300607	0.0109848	-0.00091977	-0.481201	-0.887207	-0.577637	0.0345156	0.254598	-0.933539	-0.249988	-0.628549	4.7249	-8.53339	0.0150271	0.00590087	0.000957614	-0.385742	-0.725586	0.757568	-0.0727226	-0.072035	0.653846	-0.749672	1.98658	-9.44028	1.33807	-0.0245042	0.0022702	-0.0183868	-0.426514	1.16406	-0.043457	0.036159	-0.0645175	0.979782	-0.185897	-0.443798	-2.41411	-5.97492	-0.00346364	0.0208272	-0.0148357	-0.18457	0.349609	0.891357	0.11496	-0.059501	-0.0472033	-0.990462	1.32095	0.767526	10.4021	0.0355238	-0.0382051	-0.0250186	-0.468994	0.000244141	-0.988525	0.0744791	-0.0315503	0.0216821	-0.996487	0.618959	-0.589374	11.0823	0.0093777	0.017527	-0.0151651	-0.513428	0.121826	-1.04883	0.0963574	-0.0423879	-0.048199	-0.993275	0.983502	0.812414	10.5334	0.0232029	0.0087519	-0.0175192	-0.52124	-0.0168457	-1.06519	-0.0106802	-0.0479177	0.00315176	-0.998789	1.06502	-0.133121	10.4813	-0.00966979	0.013944	0.00144819	-0.502686	-0.00634766	-0.966553	-0.13311	-0.0211818	0.115038	-0.984174	0.755097	-2.11905	9.54172	-0.0105217	0.00725877	-0.00387459	-0.551025	0.124023	-1.06104	
44	-0.0486269	-0.178358	0.06273	0.980759	-3.75253	1.46465	10.1408	0.00188707	-0.0068345	0.000904356	0.072998	0.0649414	-1.13843	-0.00912101	0.197019	0.00342112	-0.980351	-3.87599	-0.0407932	9.30486	-0.00850809	0.0206268	-0.0190726	0.235107	0.11084	-1.05664	0.11488	0.0361731	-0.547988	-0.82777	0.676398	9.36808	3.98447	0.000614141	0.00176567	0.00103523	-0.485352	-0.889404	-0.579834	0.0345746	0.25463	-0.933569	-0.249833	-0.612306	4.71533	-8.53437	0.0056309	0.00978057	0.000243289	-0.394531	-0.725586	0.759766	-0.072755	-0.0720746	0.654167	-0.749384	1.95937	-9.44221	1.31702	-0.00628457	0.00408668	-0.017393	-0.420166	1.16846	-0.043457	0.0358301	-0.064443	0.979927	-0.185221	-0.44532	-2.39476	-5.98553	-0.0348441	0.0297382	-0.0134384	-0.188721	0.343262	0.887207	0.114763	-0.0606821	-0.0477906	-0.990385	1.38472	0.776784	10.446	0.0269196	-0.0189635	-0.0171587	-0.47998	0.000244141	-0.984131	0.0745367	-0.0314836	0.0216396	-0.996486	0.612492	-0.498762	11.1066	-0.00254239	0.0169564	-0.0116723	-0.509277	0.130615	-1.04663	0.0964527	-0.0423122	-0.0489007	-0.993235	1.00163	0.902232	10.5272	0.0375271	0.00688485	-0.0157144	-0.52124	-0.0168457	-1.06299	-0.0107036	-0.0480237	0.00332204	-0.998783	1.12563	-0.212446	10.4464	-0.00548268	0.0101827	0.00163977	-0.505127	-0.00195312	-0.966797	-0.133111	-0.0212318	0.115177	-0.984157	0.772303	-2.15481	9.56463	-0.00872753	0.00370626	-0.00446357	-0.551025	0.124023	-1.06104	
45	-0.0485303	-0.178321	0.06294	0.980757	-3.74897	1.5019	10.1768	0.00963872	-0.00672156	-0.00268453	0.0708008	0.0649414	-1.14062	-0.00911625	0.197117	0.00329006	-0.980332	-3.87068	-0.0921001	9.33991	-0.0123585	0.0150808	-0.0158895	0.237305	0.11084	-1.04956	0.114962	0.0361586	-0.54788	-0.827831	0.67248	9.35568	3.9923	-0.00347888	0.00541942	-0.00205588	-0.483398	-0.887207	-0.586914	0.0346509	0.254653	-0.933552	-0.249864	-0.626273	4.70787	-8.53863	-0.00217037	0.00523087	-0.000632871	-0.387939	-0.725586	0.757568	-0.0727605	-0.0720874	0.654446	-0.749139	2.00425	-9.40359	1.31582	-0.020547	0.00992515	-0.0143276	-0.424316	1.16626	-0.043457	0.0355508	-0.0643957	0.980066	-0.184555	-0.4357	-2.36884	-6.02076	-0.0117329	0.0222974	-0.0172	-0.186279	0.341064	0.895996	0.114743	-0.0611138	-0.0480238	-0.99035	1.39488	0.78206	10.4049	0.0310997	-0.0221924	-0.0152921	-0.471191	-0.00195312	-0.97998	0.0745676	-0.0315904	0.021719	-0.996479	0.662711	-0.547678	11.1035	0.00579833	0.016771	-0.0150487	-0.51123	0.126221	-1.04419	0.0964858	-0.0422876	-0.0491398	-0.993221	0.994378	0.978515	10.5661	0.00714733	0.00728775	-0.0160681	-0.52124	-0.0168457	-1.06958	-0.0106849	-0.0480292	0.00317707	-0.998784	1.10392	-0.184194	10.4653	0.0121651	0.0128655	0.00237906	-0.504883	-0.00854492	-0.96875	-0.133169	-0.0212087	0.115203	-0.984147	0.791001	-2.16424	9.54766	0.00655118	0.00785115	-0.00464532	-0.553223	0.124023	-1.06104	
46	-0.048374	-0.178264	0.0630616	0.980768	-3.77442	1.55539	10.1566	0.00343666	-0.00710844	-0.00319526	0.0710449	0.0627441	-1.13623	-0.00910386	0.197486	0.00286368	-0.980259	-3.86139	-0.0659832	9.32634	0.0113466	0.0319163	-0.0115425	0.237305	0.11084	-1.04956	0.115035	0.0362309	-0.547605	-0.828	0.664105	9.31836	4.00289	-0.012713	0.00826422	-0.00108461	-0.476807	-0.88501	-0.580078	0.0345237	0.254649	-0.933576	-0.249794	-0.614695	4.71078	-8.5473	0.00637123	-0.000675052	-6.63675e-05	-0.392334	-0.723389	0.757324	-0.072638	-0.0721202	0.654563	-0.749046	1.98463	-9.41875	1.29005	-0.00218293	0.000142024	-0.011195	-0.424316	1.16626	-0.0456543	0.0355759	-0.0644305	0.980082	-0.184452	-0.420641	-2.37977	-5.98778	-0.00486331	0.0131338	-0.0160188	-0.186523	0.345459	0.887207	0.114725	-0.0611179	-0.048084	-0.990349	1.42615	0.763079	10.3358	0.0210121	0.0127257	-0.0163172	-0.475586	-0.00195312	-0.981934	0.0745958	-0.0315246	0.021617	-0.996481	0.632966	-0.495544	11.1078	0.012942	0.0214952	-0.0132377	-0.50708	0.126221	-1.04419	0.0964745	-0.0423155	-0.0489277	-0.993231	0.993278	0.928106	10.5243	-0.0119777	0.00568093	-0.0184897	-0.52124	-0.0168457	-1.06299	-0.0106921	-0.0481053	0.00310679	-0.99878	1.10967	-0.162188	10.4644	0.00255564	0.0120115	0.00303543	-0.500244	-0.0107422	-0.966553	-0.133162	-0.0211922	0.115056	-0.984165	0.765964	-2.11628	9.55092	0.0056296	0.0110834	-0.00283954	-0.54834	0.117432	-1.06543	
47	-0.0484265	-0.178385	0.062954	0.98075	-3.81115	1.51092	10.1587	-0.00623368	0.00475095	0.00274024	0.0664062	0.0649414	-1.13623	-0.00899015	0.197772	0.00272677	-0.980203	-3.89148	-0.109475	9.25847	-0.0374649	0.0435489	-0.0166384	0.237061	0.113037	-1.04956	0.115025	0.0363053	-0.547611	-0.827994	0.667915	9.36159	3.98339	0.00435959	0.00544382	-0.00489454	-0.485352	-0.887207	-0.580078	0.0344266	0.25461	-0.933599	-0.249763	-0.632035	4.72334	-8.53952	0.00982284	0.00367543	0.00102919	-0.389893	-0.72998	0.761963	-0.0727754	-0.0718817	0.65501	-0.748665	1.96559	-9.49383	1.28539	-0.0302925	0.0203047	-0.0152408	-0.422607	1.17285	-0.0412598	0.0356483	-0.0644647	0.980186	-0.183872	-0.427742	-2.37751	-5.98501	-0.0223684	0.0106413	-0.0167259	-0.19043	0.33667	0.895996	0.114459	-0.0603602	-0.0485765	-0.990402	1.36772	0.747942	10.361	0.0202885	0.0229185	-0.0137801	-0.473145	-0.00390625	-0.988281	0.0744238	-0.0314479	0.0217203	-0.996494	0.649194	-0.572674	11.1161	0.00230835	0.0134058	-0.0139154	-0.511475	0.128418	-1.04199	0.0962739	-0.0422716	-0.048603	-0.993268	0.983146	0.841398	10.5073	0.00226742	0.0063416	-0.0169009	-0.525879	-0.019043	-1.06738	-0.0106817	-0.0480983	0.0031315	-0.998781	1.06361	-0.17396	10.4571	0.000436191	0.0132363	0.00367028	-0.498291	-0.00634766	-0.971191	-0.133158	-0.0211919	0.115168	-0.984153	0.756952	-2.12426	9.5315	-0.00466769	0.00774657	-0.00332397	-0.55542	0.121826	-1.06104	
48	-0.0484823	-0.178348	0.0628294	0.980762	-3.74435	1.55116	10.1991	-0.00637488	-0.009476	0.00692495	0.0732422	0.0627441	-1.13184	-0.00906288	0.197427	0.00328905	-0.98027	-3.90367	-0.135608	9.32474	-0.0514839	-0.0134861	-0.0323149	0.230713	0.11084	-1.0542	0.115065	0.0361296	-0.547668	-0.827958	0.711935	9.22477	4.07377	0.0261031	0.000505905	-0.000298416	-0.483154	-0.893555	-0.579834	0.03445	0.254635	-0.933637	-0.249591	-0.636075	4.70593	-8.53448	0.00565656	0.0084504	0.00269061	-0.383545	-0.725586	0.759766	-0.0724575	-0.0721333	0.654653	-0.748983	2.06521	-9.45713	1.27332	0.0311767	-0.0132481	-0.00652616	-0.42041	1.17285	-0.0412598	0.0356422	-0.0644831	0.980235	-0.183605	-0.411428	-2.35162	-5.99861	-0.0187475	0.015238	-0.0153575	-0.184082	0.341064	0.891602	0.11446	-0.0600025	-0.0481686	-0.990443	1.26314	0.761517	10.3839	-0.0128503	0.0459448	-0.0142	-0.471191	0.000244141	-0.986328	0.0744569	-0.0314198	0.0216483	-0.996494	0.593083	-0.593266	11.0723	0.0104821	0.0187945	-0.0131666	-0.509033	0.124023	-1.04663	0.0963161	-0.0422766	-0.0487522	-0.993257	0.966499	0.84279	10.5495	0.0170609	0.00530339	-0.0147823	-0.52124	-0.019043	-1.06519	-0.010694	-0.0481287	0.00316846	-0.998779	1.05539	-0.165732	10.457	-0.00078056	0.0110635	0.00234587	-0.509277	-0.00878906	-0.96875	-0.133161	-0.0213173	0.11541	-0.984121	0.82039	-2.17635	9.57298	-0.00800746	0.00420924	-0.0039022	-0.546143	0.117432	-1.06104	
49	-0.0486202	-0.178458	0.0628527	0.980734	-3.77266	1.42014	10.217	0.00841498	0.0014043	-0.00320037	0.0688477	0.0605469	-1.13623	-0.00922523	0.197694	0.00233109	-0.980218	-3.8892	-0.0511819	9.35318	-0.00330256	0.0318948	-0.0126312	0.23291	0.108643	-1.04932	0.114987	0.0360521	-0.547943	-0.82779	0.728439	9.49296	3.94348	-0.0126482	-0.00436625	0.00425865	-0.481201	-0.887207	-0.584473	0.0344032	0.254717	-0.933703	-0.249267	-0.613066	4.70927	-8.54315	0.0216385	0.0060487	-0.00341878	-0.389893	-0.727783	0.761963	-0.072633	-0.0716397	0.654902	-0.748796	1.91509	-9.41197	1.31481	-0.0311015	0.0334351	-0.00372222	-0.422363	1.16846	-0.0412598	0.0356422	-0.0644831	0.980235	-0.183605	-0.411428	-2.35162	-5.99861	-0.0187475	0.015238	-0.0153575	-0.184082	0.341064	0.891602	0.114486	-0.0570559	-0.0462458	-0.990706	1.28435	0.641686	10.265	-0.0120019	0.132637	-0.00680478	-0.467041	0.00463867	-0.984375	0.0743703	-0.0312549	0.0212553	-0.996514	0.643861	-0.513202	11.1009	0.0102238	0.017848	-0.0148421	-0.51123	0.126221	-1.04419	0.0958817	-0.042008	-0.0492571	-0.993285	1.01196	0.914322	10.5259	0.0152162	0.00743536	-0.0184659	-0.52124	-0.019043	-1.06274	-0.0105843	-0.0477896	0.00332539	-0.998796	1.13651	-0.194817	10.448	-0.00344821	0.0138229	0.00431565	-0.502686	-0.00634766	-0.973389	-0.133132	-0.0211788	0.115274	-0.984144	0.782621	-2.15072	9.55264	0.0093185	0.0174359	-0.00201149	-0.553223	0.121826	-1.06323	
50	-0.0484181	-0.178456	0.0630256	0.980733	-3.7998	1.50069	10.1423	0.0160886	-0.00594521	-0.0121793	0.072998	0.0671387	-1.13623	-0.00919252	0.197848	0.00219995	-0.980187	-3.9499	-0.0584062	9.28592	0.000357512	0.0280287	-0.0125611	0.237305	0.11084	-1.04712	0.115028	0.0362479	-0.547627	-0.827985	0.70853	9.3682	3.99626	-0.0265891	0.020852	-0.0102854	-0.483398	-0.88501	-0.580078	0.0344462	0.25478	-0.933607	-0.249557	-0.637013	4.69983	-8.5584	-0.020828	0.00484599	-0.000490683	-0.387695	-0.72998	0.757568	-0.0725134	-0.0717018	0.654991	-0.748724	1.83021	-9.58541	1.25397	-0.00836981	-0.00300622	-0.0106603	-0.422607	1.17285	-0.043457	0.035125	-0.0649701	0.980268	-0.183358	-0.413421	-2.35388	-5.99189	-0.00535869	0.0121452	-0.01525	-0.186279	0.33667	0.889648	0.114764	-0.0555174	-0.0460914	-0.990769	1.26932	0.782123	10.4153	0.00180825	0.103483	-0.00607267	-0.460449	0.000244141	-0.982178	0.0743639	-0.0312704	0.0212102	-0.996515	0.616725	-0.570719	11.1329	0.00790885	0.0154817	-0.0161457	-0.50708	0.130615	-1.03979	0.0958497	-0.0420077	-0.0491909	-0.993292	0.973027	0.897117	10.5513	-0.000260892	0.00699709	-0.0204184	-0.523682	-0.012207	-1.06958	-0.0105851	-0.0478365	0.00315791	-0.998794	1.02371	-0.210639	10.4813	0.015589	0.0102288	0.0025475	-0.504883	-0.00634766	-0.971191	-0.133128	-0.0210993	0.115154	-0.98416	0.735748	-2.15183	9.56569	0.0104206	0.0167384	-0.0026722	-0.55542	0.121826	-1.06323	
51	-0.0482886	-0.178596	0.0631748	0.980704	-3.84936	1.55235	10.1507	0.00316138	-0.00200373	-0.00227128	0.0664062	0.0646973	-1.13208	-0.00911646	0.197987	0.00204701	-0.98016	-3.90042	-0.0819733	9.26428	-0.00481167	0.0201012	-0.015744	0.237305	0.108643	-1.04712	0.115072	0.0362084	-0.547255	-0.828227	0.642881	9.32139	4.01086	-0.0167611	-0.000928279	0.0054393	-0.476807	-0.891602	-0.579834	0.0345181	0.254771	-0.933568	-0.249703	-0.613548	4.71068	-8.52231	-0.0115286	0.00711439	0.00231409	-0.394531	-0.725586	0.757568	-0.072415	-0.0719433	0.654892	-0.748797	2.00862	-9.40114	1.28581	0.00321217	0.00665045	-0.0191176	-0.428711	1.16406	-0.0388184	0.035109	-0.0649797	0.980326	-0.183046	-0.416024	-2.34918	-6.01255	-0.0227232	0.0160512	-0.0153756	-0.190674	0.338867	0.891846	0.115009	-0.0537313	-0.0456325	-0.99086	1.2492	0.70812	10.5053	0.00814769	0.0744471	-0.00769085	-0.462891	0.00463867	-0.986328	0.0743469	-0.0312834	0.0210993	-0.996518	0.595431	-0.497801	11.0813	0.00730711	0.0132993	-0.0172559	-0.509277	0.126221	-1.04663	0.0958526	-0.0420665	-0.0490525	-0.993296	0.966361	0.873077	10.5338	-0.00289738	0.00383592	-0.0165811	-0.516357	-0.0212402	-1.06494	-0.0105639	-0.0478675	0.00290144	-0.998794	1.07473	-0.160906	10.4971	0.0227935	0.0118231	0.00396271	-0.50708	-0.00878906	-0.964355	-0.133139	-0.0211725	0.115075	-0.984166	0.760424	-2.1451	9.55316	0.00581016	0.00397354	-0.00572063	-0.550781	0.121826	-1.06104	
52	-0.0483894	-0.178462	0.0631401	0.980726	-3.74233	1.51435	10.1743	-0.00292428	-0.00713987	0.00449632	0.0710449	0.0627441	-1.13403	-0.00917324	0.198329	0.00215123	-0.98009	-3.87509	-0.0730747	9.28715	-0.0171527	0.0315281	-0.0236038	0.239502	0.11084	-1.04712	0.115171	0.0359193	-0.547379	-0.828143	0.709676	9.30761	4.00846	0.0146005	0.00287119	0.0061391	-0.485352	-0.887207	-0.580078	0.0344728	0.254807	-0.933658	-0.249335	-0.608889	4.7194	-8.5528	0.0238272	0.00636392	-0.000703208	-0.383301	-0.727783	0.759766	-0.0724489	-0.0719934	0.654761	-0.748903	1.98356	-9.45221	1.29078	0.0105971	0.00614907	-0.0148751	-0.422119	1.16626	-0.0388184	0.0349801	-0.0651888	0.980256	-0.183369	-0.41234	-2.34948	-5.96797	0.0149283	0.0136287	-0.0165836	-0.192871	0.343262	0.893799	0.11512	-0.0531236	-0.0454552	-0.990888	1.26001	0.731734	10.4452	0.00857766	0.0646406	-0.00762489	-0.458496	0.00244141	-0.990723	0.0744361	-0.0313999	0.021071	-0.996509	0.654359	-0.549512	11.1177	0.00831301	0.0113251	-0.0106523	-0.508789	0.119873	-1.04663	0.0959536	-0.0421071	-0.0492337	-0.993275	0.999107	0.909453	10.5585	0.0140355	0.00502192	-0.0132154	-0.52124	-0.019043	-1.06519	-0.0105206	-0.047945	0.00295993	-0.99879	1.14168	-0.149235	10.4762	-0.00310161	0.00822975	0.00384274	-0.504883	-0.00634766	-0.968994	-0.133173	-0.0212946	0.115004	-0.984168	0.775676	-2.10726	9.54008	0.00427827	0.000277034	-0.00380503	-0.548584	0.119629	-1.05884	
53	-0.0484497	-0.17846	0.0631253	0.980724	-3.74311	1.4844	10.1635	0.000803206	-0.00125912	-6.83387e-05	0.0664062	0.0627441	-1.12988	-0.00912025	0.198433	0.00236913	-0.980069	-3.9187	-0.0928378	9.25836	-0.0253678	0.0208499	-0.0203041	0.243896	0.108643	-1.04932	0.115163	0.0359999	-0.54746	-0.828087	0.669956	9.38879	3.99343	-0.0044169	0.00724364	-0.00152037	-0.481201	-0.887207	-0.584473	0.0343458	0.254823	-0.933715	-0.249122	-0.609211	4.69106	-8.55912	0.00634844	0.00241491	0.000668289	-0.390137	-0.725586	0.761963	-0.0724685	-0.0719788	0.654696	-0.748959	1.98782	-9.41628	1.3033	-0.00357706	0.0140383	-0.0139872	-0.419922	1.16406	-0.043457	0.034988	-0.0651761	0.980274	-0.183276	-0.408715	-2.34932	-6.00435	-0.00516854	0.0148267	-0.0146108	-0.186279	0.33667	0.894043	0.115303	-0.0517205	-0.0451482	-0.990955	1.20488	0.698705	10.4035	0.00606802	0.0742559	-0.00876026	-0.456299	0.00463867	-0.988525	0.0744635	-0.0313592	0.0209851	-0.99651	0.627762	-0.504116	11.0798	0.0053817	0.0187362	-0.0124516	-0.515625	0.126221	-1.04199	0.0959902	-0.0421292	-0.0492218	-0.993271	1.00523	0.902563	10.5252	0.000401723	0.00739205	-0.017113	-0.521484	-0.0146484	-1.06299	-0.0105142	-0.0479153	0.00312318	-0.998791	1.11868	-0.186488	10.4308	-0.00654925	0.0157553	0.00280005	-0.502686	-0.00634766	-0.971191	-0.133158	-0.0213717	0.115123	-0.984154	0.80148	-2.11079	9.5594	-0.00703788	0.0014663	-0.00309894	-0.557617	0.119629	-1.05884	
54	-0.0483621	-0.178571	0.063189	0.980704	-3.78282	1.5277	10.1911	0.000894205	-0.000252313	-0.00121596	0.0751953	0.0649414	-1.13403	-0.009059	0.198275	0.00248993	-0.980101	-3.87543	-0.0613675	9.29485	-0.0204599	0.00785835	-0.0169408	0.239502	0.108643	-1.04932	0.115156	0.0360475	-0.547251	-0.828225	0.677051	9.28596	4.02731	-0.00150293	0.00780593	-0.0043904	-0.487549	-0.886963	-0.580078	0.0343582	0.254776	-0.933676	-0.249316	-0.617861	4.70845	-8.53877	-0.00893813	0.00323112	0.00240962	-0.387695	-0.727783	0.761963	-0.0723958	-0.0719177	0.654721	-0.748951	1.99247	-9.47661	1.29056	0.00230797	0.00739697	-0.0118099	-0.422363	1.16846	-0.0456543	0.0348484	-0.0653962	0.980283	-0.183175	-0.409558	-2.33729	-6.01248	-0.00327361	0.0118797	-0.0172166	-0.188477	0.338867	0.895996	0.115469	-0.050635	-0.04512	-0.990993	1.20426	0.732084	10.5036	0.00753043	0.0542073	-0.00925556	-0.454346	0.0090332	-0.99292	0.0744769	-0.0314086	0.0212096	-0.996502	0.626075	-0.565369	11.1032	-0.0019602	0.0162524	-0.0139384	-0.50708	0.126221	-1.04907	0.0959962	-0.0421521	-0.0488457	-0.993288	0.998774	0.894957	10.5386	-0.0123056	0.00661129	-0.0175357	-0.523438	-0.019043	-1.06738	-0.0105086	-0.0479369	0.00318663	-0.99879	1.09511	-0.196791	10.452	0.00316004	0.0130723	0.00301934	-0.504639	-0.0107422	-0.96875	-0.133197	-0.0212758	0.115329	-0.984127	0.79061	-2.19128	9.5525	0.00157312	0.00929082	-0.00194826	-0.548828	0.128418	-1.06128	
55	-0.0483296	-0.178489	0.0631592	0.980723	-3.80825	1.54162	10.165	3.53472e-05	-0.0130002	-7.08695e-05	0.0686035	0.0668945	-1.13208	-0.00902438	0.198455	0.00286977	-0.980064	-3.90984	-0.0824801	9.30628	-0.0203684	0.026339	-0.0186411	0.243896	0.108643	-1.04932	0.11515	0.0360825	-0.547271	-0.828211	0.683838	9.33368	4.01459	0.00142425	0.00657221	-0.00357011	-0.483154	-0.889404	-0.579834	0.0342529	0.254768	-0.933718	-0.249181	-0.628893	4.71335	-8.5408	0.0150993	0.00284345	-0.000381449	-0.385986	-0.718994	0.759521	-0.0723836	-0.0717689	0.654692	-0.748992	1.95407	-9.44216	1.28223	0.000129402	0.0139679	-0.00937959	-0.426758	1.16846	-0.043457	0.0347132	-0.0656017	0.980284	-0.183126	-0.406745	-2.35428	-5.99003	-0.00123751	0.0118252	-0.0168029	-0.184082	0.338867	0.895996	0.115643	-0.0496869	-0.0445325	-0.991047	1.13821	0.697259	10.4123	0.00243183	0.053004	-0.00953902	-0.445557	0.00488281	-0.990723	0.0744792	-0.0313936	0.0212161	-0.996502	0.59966	-0.553936	11.0673	0.0036251	0.0152929	-0.0155298	-0.510986	0.119873	-1.04883	0.0959863	-0.0421668	-0.0487062	-0.993296	0.992718	0.827687	10.5352	-0.00617381	0.00644416	-0.0182275	-0.519043	-0.012207	-1.06299	-0.0104917	-0.0479557	0.00307414	-0.99879	1.08104	-0.165641	10.4313	0.00862245	0.0128165	0.00379742	-0.506836	-0.0151367	-0.96875	-0.133197	-0.0212758	0.115329	-0.984127	0.79061	-2.19128	9.5525	0.00157312	0.00929082	-0.00194826	-0.548828	0.128418	-1.06128	
56	-0.0485207	-0.17839	0.0630061	0.980741	-3.80004	1.46566	10.1842	-0.00910612	-0.00594599	0.00792975	0.0732422	0.0627441	-1.13843	-0.00902118	0.198543	0.00287137	-0.980046	-3.9401	-0.0539465	9.28851	-0.00806984	0.0112828	-0.0183905	0.241455	0.113037	-1.04956	0.115132	0.0361433	-0.547493	-0.828064	0.66098	9.34498	4.00254	0.01863	0.0044936	0.000306007	-0.483398	-0.887207	-0.580078	0.0341714	0.254776	-0.933813	-0.248827	-0.627965	4.6981	-8.54963	0.0155634	0.00320832	0.000608966	-0.387695	-0.727783	0.759766	-0.0724529	-0.0717151	0.65451	-0.749149	1.93407	-9.4815	1.29831	0.00550091	0.0164075	-0.0165452	-0.422363	1.16846	-0.043457	0.0342514	-0.0659877	0.980366	-0.182634	-0.411838	-2.33595	-6.0036	-0.0135557	0.0149598	-0.0170552	-0.186279	0.33667	0.895996	0.115806	-0.0488176	-0.0442836	-0.991083	1.14392	0.722273	10.4281	0.0142535	0.0507238	-0.00959828	-0.450195	0.0090332	-0.99707	0.0745228	-0.031436	0.0211254	-0.9965	0.617198	-0.54053	11.1108	0.0111583	0.015681	-0.0117257	-0.508789	0.117676	-1.04883	0.0958235	-0.0420204	-0.0489348	-0.993306	0.987005	0.874811	10.5213	0.00956537	0.00817098	-0.0163099	-0.519043	-0.0168457	-1.06738	-0.01051	-0.0479988	0.00297611	-0.998788	1.08859	-0.162081	10.4807	0.00308463	0.0116859	0.00237589	-0.504883	-0.00854492	-0.971191	-0.133278	-0.0210898	0.114977	-0.984161	0.782394	-2.10994	9.55418	-0.000814156	0.00588131	-0.00383886	-0.546387	0.124023	-1.06567	
57	-0.0485222	-0.1783	0.0630158	0.980757	-3.7967	1.42896	10.1791	0.00037252	-0.0119579	0.00110955	0.072998	0.0649414	-1.13403	-0.00900929	0.198507	0.00283468	-0.980054	-3.89412	-0.0498618	9.29971	-0.00598303	0.0119269	-0.0165612	0.239502	0.11084	-1.05176	0.115164	0.0360504	-0.547546	-0.828028	0.703468	9.3795	3.99261	-0.00746685	0.00403529	-0.000492059	-0.481201	-0.887207	-0.582275	0.0341687	0.254752	-0.933817	-0.248836	-0.605841	4.69192	-8.56379	0.000575372	0.00320018	0.000786944	-0.387939	-0.725586	0.757568	-0.0723083	-0.071797	0.654331	-0.749312	2.02102	-9.34347	1.33186	-0.000899522	0.0129623	-0.0109336	-0.424805	1.17725	-0.043457	0.0342734	-0.0659699	0.980443	-0.182221	-0.41815	-2.31438	-6.00397	-0.0306717	0.0131803	-0.0124691	-0.179688	0.334473	0.894043	0.115997	-0.0476775	-0.0439356	-0.991131	1.14863	0.713565	10.4669	0.00955001	0.0589433	-0.0082054	-0.447754	0.00683594	-0.994873	0.0745782	-0.0314084	0.020874	-0.996502	0.619789	-0.51746	11.0969	0.0120612	0.0158412	-0.0140635	-0.509033	0.126221	-1.03735	0.0958383	-0.0419986	-0.0490368	-0.993301	0.984067	0.895024	10.5352	0.0135218	0.00721885	-0.0175877	-0.521484	-0.0144043	-1.06519	-0.0105248	-0.0479869	0.00297426	-0.998788	1.10303	-0.175262	10.4524	0.0021629	0.0150108	0.0022326	-0.502441	-0.0129395	-0.970947	-0.133282	-0.0211261	0.115096	-0.984146	0.788683	-2.15147	9.53434	-0.000929488	0.00720006	-0.00187574	-0.550781	0.119629	-1.05884	
58	-0.0483349	-0.178127	0.0632993	0.980779	-3.75858	1.45895	10.1807	0.0122532	-0.0102636	-0.00484588	0.0664062	0.0627441	-1.12988	-0.00914692	0.198731	0.00290022	-0.980007	-3.86864	-0.030812	9.27828	-0.00607881	0.0166761	-0.0147718	0.241455	0.115234	-1.04956	0.115145	0.0361231	-0.547289	-0.828198	0.676122	9.35214	3.99357	-0.0227282	0.0101794	-0.00825939	-0.481201	-0.889404	-0.582275	0.034172	0.254801	-0.933828	-0.248744	-0.622336	4.68885	-8.55265	0.00434159	0.00396833	-0.00102296	-0.387939	-0.725586	0.759766	-0.0726008	-0.0717054	0.654565	-0.749088	1.94136	-9.50884	1.29161	-0.0141283	0.0130736	-0.0137012	-0.422363	1.16626	-0.0480957	0.034135	-0.0661573	0.980471	-0.18203	-0.409435	-2.31595	-6.0251	-0.00692551	0.0121543	-0.0159843	-0.188232	0.334473	0.898193	0.116042	-0.0468953	-0.0438937	-0.991165	1.11013	0.723714	10.4767	0.0102933	0.0383255	-0.00705631	-0.449951	0.00683594	-0.99292	0.0743706	-0.0312627	0.0211371	-0.996516	0.642451	-0.499467	11.1028	-0.00805524	0.0153012	-0.0157079	-0.509033	0.121826	-1.04419	0.0956547	-0.0419333	-0.0491427	-0.993316	0.999222	0.907468	10.5259	0.00679366	0.00509943	-0.0169542	-0.52124	-0.019043	-1.06519	-0.0104959	-0.0478848	0.00298258	-0.998793	1.10411	-0.165414	10.4571	0.000592645	0.0110203	0.00307695	-0.504883	-0.00854492	-0.96875	-0.133282	-0.0211343	0.115099	-0.984145	0.792746	-2.15775	9.54531	0.00135671	0.00851187	-0.00367488	-0.544189	0.121826	-1.06323	
59	-0.0482302	-0.178216	0.063605	0.980748	-3.78926	1.56704	10.1671	0.00242876	-0.00245824	0.00307676	0.0686035	0.0649414	-1.13843	-0.00911185	0.198627	0.00273011	-0.980029	-3.89015	-0.0543322	9.30069	0.00823491	0.0140267	-0.0156582	0.239502	0.108643	-1.04712	0.115186	0.0361146	-0.547155	-0.828281	0.675308	9.30963	4.01598	0.00186906	0.00547061	-9.29261e-05	-0.481201	-0.88501	-0.577881	0.0341725	0.254787	-0.93384	-0.248715	-0.630282	4.69846	-8.5495	0.00203829	0.00467344	0.00221969	-0.388184	-0.721191	0.763916	-0.0724325	-0.0717892	0.654424	-0.749219	2.0456	-9.41968	1.27931	-0.00165971	0.00954681	-0.0129331	-0.422363	1.16846	-0.0388184	0.0345065	-0.0664279	0.980196	-0.183338	-0.431463	-2.34207	-5.97289	0.0405509	0.00272332	-0.0185529	-0.190674	0.343262	0.889404	0.116217	-0.0460698	-0.0438635	-0.991185	1.1131	0.718193	10.4348	0.0142241	0.0560686	-0.00760486	-0.447754	0.00488281	-0.994873	0.0744288	-0.0312747	0.021162	-0.996511	0.61291	-0.569808	11.1193	0.0103272	0.0157135	-0.0133652	-0.50708	0.128418	-1.04443	0.0956725	-0.0419361	-0.0489984	-0.993321	0.988893	0.885066	10.5378	-0.000216022	0.00652242	-0.0165028	-0.526123	-0.0124512	-1.06079	-0.010494	-0.0479064	0.00285433	-0.998793	1.07627	-0.153174	10.4727	0.00309054	0.011711	0.00308448	-0.504883	-0.00854492	-0.96875	-0.133267	-0.0210899	0.115042	-0.984155	0.779878	-2.13894	9.56064	0.00290719	0.0104683	-0.00244924	-0.550781	0.117432	-1.0564	
60	-0.0482495	-0.178198	0.0636152	0.98075	-3.80055	1.53441	10.159	0.000766337	-0.0055591	0.00242772	0.0688477	0.0605469	-1.13184	-0.00913552	0.198781	0.00231003	-0.979999	-3.92042	-0.0336848	9.20313	0.024122	0.0278072	-0.0131305	0.241455	0.113037	-1.04712	0.115223	0.0360416	-0.547185	-0.828259	0.685063	9.3372	4.01135	0.00187929	0.00367444	0.00359828	-0.481201	-0.887207	-0.577637	0.0341725	0.254774	-0.933844	-0.248712	-0.62188	4.67995	-8.55041	0.00137803	0.00519639	0.00155256	-0.385498	-0.72998	0.757568	-0.0725213	-0.0716807	0.654509	-0.749146	1.93349	-9.45512	1.30969	-0.0101438	0.0186563	-0.0142857	-0.422607	1.17285	-0.043457	0.0345065	-0.0664279	0.980196	-0.183338	-0.431463	-2.34207	-5.97289	0.0405509	0.00272332	-0.0185529	-0.190674	0.343262	0.889404	0.116444	-0.0452954	-0.0440342	-0.991186	1.08339	0.645882	10.4615	0.0401309	0.0441297	-0.00884359	-0.443359	0.00488281	-0.999268	0.0744642	-0.0312675	0.0210463	-0.996511	0.626637	-0.546665	11.0824	0.0138642	0.0164905	-0.0134471	-0.509033	0.124023	-1.04419	0.0956782	-0.0419505	-0.0489816	-0.993321	0.992971	0.864189	10.5302	0.00407141	0.00601074	-0.0180672	-0.52124	-0.019043	-1.06519	-0.0105027	-0.0479385	0.00293094	-0.998791	1.11985	-0.138166	10.4517	-0.00403047	0.0115335	0.00299842	-0.506836	-0.0109863	-0.970947	-0.13325	-0.0211436	0.115015	-0.984159	0.786424	-2.11838	9.53178	0.00344924	0.00843979	-0.00302422	-0.548828	0.124023	-1.06104	
61	-0.0481908	-0.17824	0.063577	0.980748	-3.78421	1.50886	10.1702	-0.00205303	-0.00084856	-0.00317445	0.0686035	0.0668945	-1.13208	-0.00904208	0.198664	0.00278639	-0.980022	-3.93316	-0.075521	9.21003	-0.0506734	0.0320621	-0.0233021	0.241455	0.115234	-1.052	0.115231	0.0359886	-0.547065	-0.82834	0.662736	9.38695	3.98639	-0.0146218	0.0043248	0.000650392	-0.485352	-0.889404	-0.577637	0.0341795	0.254763	-0.933824	-0.248797	-0.62054	4.70104	-8.53819	-0.00518685	0.00332246	0.00212912	-0.385742	-0.725586	0.761963	-0.0724281	-0.0718085	0.65442	-0.749221	1.96547	-9.42079	1.31044	0.00471099	0.0046767	-0.0155261	-0.420166	1.16846	-0.043457	0.0344167	-0.0666292	0.980161	-0.183468	-0.425849	-2.33613	-5.98892	-0.00781579	0.0163385	-0.0170747	-0.188477	0.341064	0.893799	0.116507	-0.0448093	-0.0438767	-0.991208	1.0461	0.691423	10.4962	0.00868818	0.05421	-0.0109457	-0.441406	0.00488281	-0.999268	0.0744717	-0.0313008	0.0211001	-0.996508	0.635183	-0.526249	11.0871	-0.00476761	0.015279	-0.0148335	-0.51123	0.126221	-1.04419	0.0957027	-0.0419781	-0.0490029	-0.993316	0.980003	0.883144	10.5049	0.00535315	0.0037737	-0.0187445	-0.523438	-0.019043	-1.06274	-0.0104835	-0.0479431	0.00297036	-0.998791	1.07956	-0.214354	10.4778	0.0024101	0.0142546	0.00438419	-0.504883	-0.00854492	-0.966553	-0.133254	-0.0211476	0.115105	-0.984148	0.752517	-2.14015	9.55302	-0.00218994	0.00645604	-0.00392857	-0.546387	0.124023	-1.05884	
62	-0.0483168	-0.17823	0.0634375	0.980752	-3.71826	1.53846	10.1672	-0.0127545	-0.00541158	0.0152656	0.0705566	0.0690918	-1.13208	-0.00900848	0.197885	0.00252657	-0.980181	-3.82831	0.015659	9.37197	0.0295129	-0.00625021	-0.00376594	0.237061	0.113037	-1.04956	0.115175	0.036037	-0.547337	-0.828165	0.649599	9.24348	4.03018	0.0429232	0.00914412	-0.00849436	-0.479004	-0.889404	-0.577637	0.0342091	0.254721	-0.933831	-0.248811	-0.626631	4.67739	-8.55208	0.000369278	0.00307739	0.00325871	-0.387939	-0.725586	0.759766	-0.0723519	-0.0719099	0.654026	-0.749563	2.03962	-9.49353	1.31352	0.0311121	0.00328379	-0.0153583	-0.424561	1.17065	-0.050293	0.034325	-0.0666236	0.980233	-0.183104	-0.401398	-2.33662	-6.02714	-0.00693102	0.0173232	-0.0159815	-0.188477	0.341064	0.891602	0.116609	-0.0441716	-0.0434703	-0.991242	1.1844	0.74745	10.6249	-0.0397306	0.0743346	-0.0111128	-0.443848	0.0134277	-0.995117	0.0745186	-0.0313745	0.0210833	-0.996503	0.671608	-0.543644	11.1172	0.0113243	0.013489	-0.0111504	-0.50708	0.126221	-1.03955	0.0957271	-0.0419766	-0.0489928	-0.993315	1.0027	0.896895	10.5351	0.00268811	0.00677695	-0.0171187	-0.519043	-0.012207	-1.06738	-0.01052	-0.0480318	0.00287058	-0.998786	1.14351	-0.160124	10.4543	0.00762932	0.00975997	0.00112528	-0.504883	-0.00854492	-0.96875	-0.13326	-0.021226	0.11519	-0.984135	0.799179	-2.17626	9.55029	0.00306116	0.00738511	-0.0038436	-0.55127	0.128418	-1.06128	
63	-0.0483793	-0.178322	0.0634402	0.980732	-3.78072	1.4906	10.1865	0.00531647	-0.00608042	-0.00546139	0.0688477	0.0605469	-1.13623	-0.0089768	0.197982	0.00244118	-0.980162	-3.89182	-0.0515569	9.29013	-0.0089001	0.0182767	-0.0176343	0.235107	0.106445	-1.04932	0.115205	0.0358753	-0.547434	-0.828104	0.706861	9.44393	3.9648	0.0041438	-0.00236443	0.00455033	-0.485352	-0.887207	-0.577637	0.0341843	0.254739	-0.933861	-0.248684	-0.620545	4.69791	-8.56051	0.00730592	0.00450212	-0.000416969	-0.387695	-0.727783	0.759766	-0.0723665	-0.0717617	0.653757	-0.74981	1.92617	-9.41693	1.31758	0.00638436	0.0107517	-0.00753773	-0.424561	1.17065	-0.0480957	0.0344364	-0.0666299	0.98014	-0.183575	-0.416265	-2.3502	-5.98731	0.0243401	0.0127998	-0.0172971	-0.188477	0.338867	0.893799	0.116957	-0.0413961	-0.0422218	-0.991375	0.862529	0.635557	10.2454	0.041608	0.076566	-0.00641612	-0.432861	0.00708008	-1.00342	0.0745186	-0.0313089	0.020937	-0.996508	0.621757	-0.531337	11.0783	0.0051521	0.0179769	-0.0180916	-0.504639	0.121826	-1.04419	0.0956981	-0.0419648	-0.0489507	-0.99332	0.994885	0.891294	10.5315	0.00308262	0.00658639	-0.0204023	-0.521484	-0.0144043	-1.06738	-0.0104922	-0.0480088	0.00284747	-0.998788	1.07614	-0.171399	10.4568	0.00384954	0.0155716	0.0050594	-0.502686	-0.00634766	-0.966553	-0.133267	-0.0209632	0.11491	-0.984173	0.785593	-2.13582	9.53849	0.0108854	0.0164857	-0.00126527	-0.548584	0.121826	-1.06104	
64	-0.0482837	-0.178378	0.0635558	0.980719	-3.84295	1.52506	10.1434	0.00457964	0.00158718	-0.00264124	0.0686035	0.0671387	-1.13403	-0.00888622	0.197857	0.00231124	-0.980188	-3.93516	-0.0566162	9.27254	-0.00768914	0.00658882	-0.0136105	0.235107	0.106445	-1.04932	0.115147	0.0361685	-0.547166	-0.828277	0.633265	9.30191	4.0068	-0.00421218	0.010239	-0.00609694	-0.483154	-0.891602	-0.579834	0.0342542	0.254764	-0.933792	-0.248905	-0.648596	4.68697	-8.54634	-0.0119098	0.00647007	0.000985332	-0.389893	-0.727783	0.759766	-0.0722854	-0.071863	0.653742	-0.749822	1.98637	-9.43988	1.31046	-0.00290249	0.007916	-0.0143639	-0.430908	1.16626	-0.050293	0.0344723	-0.0666608	0.980114	-0.183695	-0.415692	-2.36149	-5.99709	0.0125306	0.0136189	-0.0181303	-0.184082	0.338867	0.889648	0.117118	-0.0403097	-0.0426805	-0.991381	0.916744	0.731007	10.5578	0.0411681	0.0713841	-0.0120275	-0.435059	0.0112305	-1.00146	0.0745106	-0.0313432	0.0209847	-0.996507	0.59523	-0.532417	11.0943	0.00764916	0.0152078	-0.0138431	-0.509277	0.128418	-1.04443	0.0957059	-0.041968	-0.048933	-0.99332	0.954134	0.87575	10.5792	0.00698934	0.00549192	-0.0163083	-0.520996	-0.0236816	-1.06494	-0.0104856	-0.0480952	0.0027086	-0.998784	1.09549	-0.151412	10.4756	0.00588292	0.0128801	0.00168545	-0.504639	-0.0107422	-0.964111	-0.133254	-0.0209333	0.114917	-0.984174	0.744628	-2.1226	9.55881	-0.00445644	0.00624197	-0.00369381	-0.551025	0.124023	-1.06348	
65	-0.0483143	-0.17826	0.0635698	0.980739	-3.78159	1.52909	10.1811	0.000393103	-0.0109004	0.00374619	0.0688477	0.0605469	-1.13184	-0.0089278	0.197837	0.00244968	-0.980191	-3.87219	-0.0783067	9.30948	-0.0182846	0.0167457	-0.0214641	0.237305	0.108643	-1.04932	0.11527	0.0358314	-0.547221	-0.828238	0.720095	9.31052	4.04276	0.00599941	-0.00341469	0.0108688	-0.483398	-0.889404	-0.582275	0.0344939	0.254798	-0.933812	-0.248762	-0.627873	4.69936	-8.54728	0.00389861	0.0131383	0.00205787	-0.390137	-0.723389	0.755127	-0.0725288	-0.0719457	0.653354	-0.750128	1.95601	-9.46013	1.31946	0.0188842	0.00947519	-0.0166192	-0.420166	1.16626	-0.050293	0.0343219	-0.0668737	0.980074	-0.183863	-0.404749	-2.36005	-6.00935	0.0112286	0.0151119	-0.0163917	-0.190674	0.341064	0.893799	0.117068	-0.0393071	-0.0431699	-0.991406	0.93495	0.722132	10.5195	0.0323911	0.0444958	-0.0121207	-0.43042	0.00488281	-1.00122	0.0743572	-0.0311992	0.0208033	-0.996526	0.625395	-0.527754	11.1304	0.00975559	0.0137603	-0.0142552	-0.509033	0.124023	-1.03955	0.0957727	-0.0420398	-0.0491203	-0.993301	0.985984	0.895103	10.5442	0.01572	0.00329608	-0.0140988	-0.520996	-0.0212402	-1.06738	-0.0104984	-0.0482529	0.00276875	-0.998776	1.0972	-0.181965	10.4684	0.00127895	0.00850258	0.00249399	-0.504639	-0.0129395	-0.96875	-0.133245	-0.0211401	0.115025	-0.984159	0.768009	-2.13693	9.52919	-0.000867236	-0.00194505	-0.00327261	-0.54834	0.117432	-1.0564	
66	-0.0483853	-0.17821	0.0635672	0.980744	-3.7355	1.52407	10.173	-0.00152951	-0.00784275	0.0066385	0.0710449	0.0627441	-1.13184	-0.00895437	0.197922	0.00256418	-0.980174	-3.85625	-0.0769255	9.26972	-0.0177246	0.0219413	-0.021675	0.241699	0.106445	-1.05176	0.115338	0.0358501	-0.547417	-0.828098	0.695166	9.30592	4.02861	0.0200834	0.00748387	0.0041396	-0.481201	-0.882812	-0.58252	0.0346154	0.254849	-0.933849	-0.248555	-0.614599	4.68372	-8.55441	0.0171468	0.0119627	-0.000488251	-0.385742	-0.723389	0.759521	-0.0725207	-0.0720251	0.653227	-0.750232	1.98535	-9.44141	1.31742	0.0130451	0.00347876	-0.0185501	-0.424316	1.16406	-0.0456543	0.0343205	-0.0668984	0.98007	-0.183874	-0.42028	-2.34508	-5.9908	0.00337497	0.0158877	-0.0179338	-0.188721	0.345459	0.887207	0.117128	-0.039201	-0.0433062	-0.991397	0.994029	0.716214	10.4579	0.028469	0.0212728	-0.0105495	-0.43042	0.00488281	-1.00122	0.0743692	-0.0312415	0.020817	-0.996524	0.649953	-0.519418	11.0558	0.00307005	0.013654	-0.0144632	-0.509277	0.128418	-1.04443	0.0957945	-0.0420643	-0.0491579	-0.993296	1.00114	0.903535	10.5184	0.00789091	0.00423108	-0.0160531	-0.521484	-0.0144043	-1.06738	-0.0104992	-0.0482999	0.00279908	-0.998774	1.12794	-0.164127	10.4377	-0.00053661	0.0102874	0.00380193	-0.504883	-0.00854492	-0.964355	-0.13325	-0.0212482	0.115019	-0.984156	0.796261	-2.12763	9.52848	0.00302778	0.000663935	-0.00482516	-0.553223	0.121826	-1.0564	
67	-0.0484401	-0.178169	0.0636232	0.980745	-3.71709	1.50694	10.1917	0.00241523	-0.00351286	0.000453112	0.0688477	0.0605469	-1.13184	-0.00898782	0.19779	0.00269692	-0.980199	-3.8925	-0.0885121	9.24568	-0.0127692	0.00352522	-0.0226536	0.239502	0.11084	-1.05176	0.115362	0.0358694	-0.54749	-0.828046	0.694133	9.3644	3.97739	-0.0032891	0.00645419	0.000263747	-0.489746	-0.893555	-0.579834	0.0346913	0.254937	-0.933894	-0.248284	-0.611485	4.67676	-8.54846	0.00643483	0.0117792	0.000996441	-0.390137	-0.723389	0.757324	-0.0726665	-0.0719604	0.65305	-0.750377	1.96018	-9.42768	1.31485	-0.00275001	0.0110447	-0.009632	-0.417969	1.16626	-0.050293	0.0344588	-0.0669335	0.980045	-0.183968	-0.416259	-2.35189	-5.97746	0.00480201	0.00915287	-0.0181293	-0.193115	0.347412	0.891357	0.117107	-0.0385717	-0.0442671	-0.991382	0.944242	0.730948	10.4845	0.0541694	0.0152963	-0.0134239	-0.432617	0.00268555	-1.00757	0.0741862	-0.0310644	0.021137	-0.996536	0.642219	-0.545669	11.1078	-0.00699879	0.016483	-0.0146224	-0.509033	0.124023	-1.03955	0.0958594	-0.0421094	-0.0489399	-0.993299	0.988337	0.905918	10.5251	-0.00425355	0.00676169	-0.0173056	-0.521484	-0.0144043	-1.06519	-0.0104776	-0.0483154	0.00289095	-0.998773	1.13164	-0.178908	10.4784	-0.00144774	0.0136638	0.00506301	-0.502441	-0.0129395	-0.973389	-0.133236	-0.0213413	0.11509	-0.984148	0.778368	-2.11666	9.55252	-0.000638899	0.00615061	-0.00475446	-0.553223	0.124023	-1.06104	
68	-0.0483878	-0.178321	0.0635566	0.980725	-3.76364	1.52298	10.1494	-0.0034164	0.00144191	-0.00136583	0.0710449	0.0583496	-1.13184	-0.00897215	0.197612	0.00279411	-0.980235	-3.86002	-0.0810733	9.30218	-0.0167848	0.00913194	-0.0169147	0.237305	0.11084	-1.04468	0.115358	0.0360267	-0.547533	-0.828011	0.650314	9.32773	4.00612	0.00765882	0.00812003	-0.00416984	-0.483398	-0.889404	-0.582275	0.0348444	0.254902	-0.933835	-0.248521	-0.62671	4.70309	-8.55837	-0.0205863	0.0109621	0.00467349	-0.389893	-0.727783	0.759766	-0.0726665	-0.0719604	0.65305	-0.750377	1.96018	-9.42768	1.31485	-0.00275001	0.0110447	-0.009632	-0.417969	1.16626	-0.050293	0.0344908	-0.0670304	0.980208	-0.183055	-0.413541	-2.33772	-6.02164	-0.0546135	0.0125989	-0.0203119	-0.184082	0.341064	0.891602	0.11714	-0.038509	-0.0443112	-0.991379	0.95945	0.733971	10.5249	0.020659	0.0187168	-0.0122707	-0.428467	0.00488281	-1.00342	0.0742117	-0.0310287	0.0210856	-0.996537	0.633178	-0.577509	11.0916	0.00873963	0.0194839	-0.0133493	-0.51123	0.124023	-1.04199	0.0958616	-0.0421215	-0.048778	-0.993306	0.990613	0.87801	10.5305	-0.00764547	0.00678425	-0.0178553	-0.518799	-0.019043	-1.06055	-0.0104709	-0.0483105	0.00292304	-0.998773	1.11906	-0.172024	10.4592	-0.000323424	0.0143479	0.00294913	-0.502686	-0.00854492	-0.966553	-0.133208	-0.0212995	0.115168	-0.984143	0.783437	-2.15788	9.53292	0.00152444	0.011038	-0.00254815	-0.548584	0.119629	-1.0564	
69	-0.0483281	-0.178382	0.0634867	0.980721	-3.78872	1.5244	10.174	-0.00110142	-0.00386738	-0.00173101	0.0710449	0.0605469	-1.12964	-0.00897242	0.197777	0.00307266	-0.980201	-3.90956	-0.0679673	9.30685	-0.0180626	0.0281119	-0.0198741	0.239258	0.113037	-1.052	0.115297	0.0360098	-0.547206	-0.828236	0.699677	9.29343	4.04149	-0.0115854	0.011077	-0.00670198	-0.485596	-0.882812	-0.580078	0.0351621	0.254784	-0.933628	-0.249376	-0.612794	4.70819	-8.531	-0.046814	0.00593181	0.00827016	-0.389893	-0.732178	0.76416	-0.0728297	-0.0719003	0.652946	-0.750458	1.87741	-9.52941	1.25222	0.0223199	0.00583184	-0.0151506	-0.422363	1.16626	-0.050293	0.0345724	-0.0671101	0.980004	-0.184101	-0.406787	-2.35796	-5.92871	0.0499026	0.0161405	-0.0191706	-0.186523	0.347412	0.891357	0.117236	-0.0384628	-0.0440746	-0.99138	0.926989	0.693044	10.4694	0.00494677	0.0154033	-0.0107705	-0.426025	0.00268555	-1.00122	0.0742506	-0.0310232	0.0209443	-0.996537	0.628092	-0.522128	11.0872	0.00873843	0.0163806	-0.0136007	-0.504883	0.126221	-1.04419	0.0958794	-0.0421156	-0.0488035	-0.993303	0.976687	0.893492	10.5347	0.00752714	0.00600165	-0.0174641	-0.523682	-0.0168457	-1.06738	-0.010441	-0.0483196	0.0029499	-0.998773	1.07798	-0.192667	10.452	0.00204027	0.0123884	0.00517339	-0.498291	-0.00634766	-0.971191	-0.133174	-0.0212647	0.115057	-0.984162	0.770358	-2.1297	9.5446	0.00830555	0.0105672	-0.00171998	-0.551025	0.124023	-1.07031	
70	-0.0484174	-0.178429	0.0633942	0.980714	-3.79492	1.49037	10.1791	-0.00344318	-0.0023306	0.00244348	0.0686035	0.0649414	-1.13843	-0.00894336	0.19778	0.00320115	-0.9802	-3.8833	-0.104004	9.27158	-0.00732618	0.00519155	-0.0174243	0.239502	0.11084	-1.04956	0.115301	0.0359381	-0.547342	-0.828149	0.721464	9.31604	4.03495	0.00950486	0.00425742	-0.000957327	-0.476807	-0.889404	-0.582275	0.034936	0.254801	-0.933777	-0.248831	-0.616166	4.69372	-8.5344	0.0359368	0.0024283	-0.00214448	-0.383545	-0.723389	0.759521	-0.0727437	-0.0720841	0.652679	-0.750682	2.0271	-9.30504	1.40789	-0.00779068	0.015361	-0.0135132	-0.418213	1.17285	-0.050293	0.0345528	-0.0671304	0.979985	-0.184197	-0.412514	-2.35219	-6.01313	0.00190409	0.0189613	-0.0192065	-0.186279	0.341064	0.891602	0.117273	-0.0384382	-0.0441939	-0.991371	0.923998	0.714663	10.467	0.027313	0.0159652	-0.0133782	-0.424072	0.00268555	-0.999023	0.0742657	-0.0310075	0.0209323	-0.996536	0.62009	-0.549468	11.0901	0.00632918	0.0167051	-0.0141837	-0.51123	0.126221	-1.04199	0.0958886	-0.0420855	-0.0488956	-0.993299	0.980017	0.880292	10.5435	0.010548	0.00774212	-0.018332	-0.523438	-0.019043	-1.06274	-0.0104398	-0.0483406	0.00281844	-0.998772	1.10145	-0.183363	10.452	0.00922485	0.0138457	0.00312956	-0.504883	-0.00634766	-0.964355	-0.13324	-0.0212072	0.115015	-0.984159	0.777406	-2.13127	9.55134	0.0021799	0.00713983	-0.00430586	-0.550781	0.119629	-1.05884	
71	-0.0484184	-0.178372	0.0634816	0.980719	-3.72802	1.50907	10.1619	0.00587306	-0.00903944	0.00119739	0.072998	0.0649414	-1.13623	-0.00894518	0.197714	0.00311135	-0.980214	-3.86566	-0.0560488	9.30803	-0.00787061	0.0124288	-0.0176465	0.23291	0.11084	-1.04712	0.11536	0.0360556	-0.5478	-0.827833	0.691314	9.43882	3.97258	0.0218995	0.00886638	-0.000500043	-0.485596	-0.88501	-0.582275	0.0346905	0.254819	-0.933903	-0.248373	-0.607021	4.69551	-8.55837	0.00702943	-0.00120082	0.000622123	-0.387695	-0.72998	0.761963	-0.0727906	-0.0721157	0.652581	-0.750758	1.97734	-9.48138	1.3059	0.0190929	0.00341529	-0.0142833	-0.424316	1.16626	-0.050293	0.0346031	-0.0671162	0.979988	-0.184181	-0.40381	-2.37236	-5.99005	0.00149299	0.0125198	-0.0141959	-0.188721	0.345459	0.893799	0.117343	-0.038364	-0.0442732	-0.991362	0.96756	0.735248	10.4593	0.0177696	0.0191164	-0.0114984	-0.428467	0.00488281	-1.00562	0.0742847	-0.0310645	0.0208006	-0.996536	0.648416	-0.519156	11.1193	0.00930995	0.0122569	-0.0147409	-0.509277	0.128418	-1.04663	0.0959333	-0.0420942	-0.0490017	-0.993289	0.995022	0.916781	10.5354	0.00700558	0.00660197	-0.0171292	-0.523682	-0.0168457	-1.06958	-0.0104654	-0.0484325	0.00277778	-0.998768	1.10233	-0.153828	10.4507	0.00195584	0.0109255	0.00242096	-0.502441	-0.0107422	-0.96875	-0.133256	-0.0212344	0.114989	-0.984159	0.770339	-2.14713	9.54777	0.00395112	0.00816487	-0.0041835	-0.551025	0.124023	-1.06104	
72	-0.0483688	-0.178431	0.0635586	0.980705	-3.76599	1.51944	10.1551	0.00340003	-0.00249629	-0.00125831	0.0686035	0.0627441	-1.13184	-0.00894874	0.197645	0.00316835	-0.980228	-3.8755	-0.0627319	9.25324	-0.00825411	0.0130814	-0.016388	0.235107	0.11084	-1.04956	0.115339	0.0359604	-0.547511	-0.828031	0.674251	9.43181	3.98148	-0.0274296	-0.000869834	-0.00175262	-0.476807	-0.887207	-0.580078	0.0346791	0.254783	-0.933839	-0.248652	-0.606341	4.6974	-8.55738	-0.0132694	-4.95414e-05	0.00186765	-0.387695	-0.727783	0.755371	-0.0728264	-0.0720231	0.652646	-0.750708	1.97615	-9.4255	1.32346	-0.00965203	0.0129115	-0.0156546	-0.424316	1.16626	-0.0480957	0.0345649	-0.0672905	0.980034	-0.183879	-0.411786	-2.34348	-5.9995	0.011504	0.00687077	-0.0177259	-0.188477	0.341064	0.891602	0.117425	-0.0382784	-0.0441945	-0.991359	0.941175	0.729604	10.4698	0.0125337	0.0164801	-0.0118897	-0.428467	0.00927734	-1.00366	0.0741356	-0.0308466	0.0207202	-0.996556	0.64347	-0.525392	11.0949	0.00596396	0.0169913	-0.0139318	-0.51123	0.121826	-1.04175	0.0959184	-0.0420837	-0.0489185	-0.993295	0.984408	0.884041	10.5435	0.00278618	0.0064669	-0.0185655	-0.523682	-0.012207	-1.06079	-0.010432	-0.0483986	0.00273762	-0.99877	1.11006	-0.176929	10.4629	0.00498273	0.0163059	0.00437601	-0.50708	-0.00878906	-0.966553	-0.133241	-0.0212307	0.11495	-0.984166	0.782963	-2.12798	9.54222	0.00505057	0.00972822	-0.00279383	-0.551025	0.124023	-1.05884	
73	-0.0483781	-0.178426	0.0635668	0.980705	-3.78953	1.51672	10.1729	-0.000465474	-0.00661006	0.00181397	0.0751953	0.0649414	-1.13403	-0.0089667	0.197632	0.00298025	-0.980231	-3.90327	-0.0629762	9.28548	0.00626306	0.0210445	-0.0158675	0.239502	0.11084	-1.04956	0.11535	0.0360228	-0.547338	-0.828141	0.690766	9.40392	3.98145	-0.00477769	0.00504453	-0.00296738	-0.487549	-0.88501	-0.582275	0.0347848	0.254671	-0.933721	-0.249194	-0.622023	4.70921	-8.52538	-0.0145319	0.00212828	0.004316	-0.392334	-0.723389	0.761719	-0.0727375	-0.0720462	0.652538	-0.750808	1.97297	-9.40533	1.34766	0.0073296	0.00580136	-0.0125447	-0.424561	1.17065	-0.0549316	0.0345809	-0.0675525	0.979914	-0.184415	-0.422769	-2.35674	-6.0103	0.0227863	0.00678473	-0.0192658	-0.186279	0.341064	0.893799	0.117491	-0.0381613	-0.0443962	-0.991347	0.950092	0.745937	10.485	0.022392	0.0221896	-0.0105107	-0.428223	0.00268555	-1.00122	0.0741593	-0.0309033	0.0208161	-0.99655	0.623813	-0.515466	11.0924	-0.00178996	0.0144009	-0.0138689	-0.513428	0.121826	-1.04663	0.0959437	-0.0420876	-0.048864	-0.993295	0.989794	0.873105	10.5398	0.0037698	0.00699832	-0.0170677	-0.523682	-0.0168457	-1.06519	-0.0104368	-0.0484314	0.00277498	-0.998768	1.08781	-0.150864	10.462	-0.0015265	0.0122541	0.00371859	-0.498047	-0.0107422	-0.96875	-0.133334	-0.0210067	0.114926	-0.984161	0.774864	-2.1209	9.55728	0.000394276	0.00932079	-0.00310557	-0.553223	0.124023	-1.06348	
74	-0.0483808	-0.178387	0.063552	0.980713	-3.77939	1.50655	10.1561	-0.000808962	-0.00791517	-1.98029e-05	0.0666504	0.0605469	-1.13184	-0.00896507	0.197649	0.00264799	-0.980228	-3.8624	-0.0478097	9.26062	0.0171358	0.016451	-0.0127652	0.234863	0.115234	-1.052	0.115378	0.0359016	-0.54713	-0.82828	0.674005	9.33181	4.00917	-0.0198876	-0.000782161	0.00331447	-0.481201	-0.88501	-0.580078	0.0347116	0.254661	-0.933732	-0.249175	-0.622685	4.6992	-8.5465	0.00210305	0.00227672	-0.000348198	-0.387939	-0.723389	0.759521	-0.0727314	-0.0720614	0.652528	-0.750816	1.97708	-9.39086	1.35062	0.000534908	0.0060221	-0.0150156	-0.424316	1.16406	-0.0549316	0.0345809	-0.0675525	0.979914	-0.184415	-0.422769	-2.35674	-6.0103	0.0227863	0.00678473	-0.0192658	-0.186279	0.341064	0.893799	0.117438	-0.038116	-0.0448096	-0.991336	0.92384	0.715631	10.4696	0.0247736	0.00673395	-0.0100618	-0.432861	0.00708008	-1.00146	0.0741721	-0.0309395	0.0208482	-0.996547	0.62369	-0.553776	11.1152	0.00151449	0.0143512	-0.0138514	-0.51123	0.121826	-1.04175	0.0959437	-0.0421095	-0.0488556	-0.993295	0.991085	0.883022	10.5436	0.0043768	0.00498919	-0.0180246	-0.520996	-0.0212402	-1.06958	-0.0104281	-0.0484465	0.00281934	-0.998767	1.0995	-0.177208	10.4543	-0.00152423	0.0122798	0.00442154	-0.504883	-0.00854492	-0.964355	-0.133313	-0.021008	0.114968	-0.984159	0.767175	-2.12436	9.54867	-0.00142191	0.0085501	-0.00231864	-0.552979	0.119629	-1.05884	
75	-0.048327	-0.178439	0.0635342	0.980708	-3.79094	1.50239	10.1474	-0.00148308	-0.000824621	-0.0022888	0.0732422	0.0583496	-1.13403	-0.00888335	0.1977	0.00300918	-0.980218	-3.85923	-0.0762942	9.22287	-0.0431892	0.049206	-0.0197976	0.241699	0.108643	-1.04712	0.115417	0.0359669	-0.547064	-0.828315	0.663776	9.37538	3.98504	0.000933402	0.00910173	-0.00324383	-0.481201	-0.88501	-0.577881	0.0347252	0.254682	-0.933745	-0.2491	-0.611261	4.70051	-8.54596	-0.000590066	0.006103	0.000773937	-0.390137	-0.725586	0.761963	-0.0727373	-0.0719442	0.652595	-0.750769	1.94949	-9.44034	1.32856	-0.0059161	0.0139084	-0.0121229	-0.422119	1.16406	-0.0524902	0.034655	-0.0678073	0.979798	-0.184926	-0.413178	-2.36157	-5.96186	0.0220011	0.00464436	-0.0184546	-0.188477	0.341064	0.895996	0.117351	-0.0389031	-0.0450408	-0.991306	0.825396	0.733703	10.5218	0.0353231	-0.0518576	-0.0173963	-0.43042	0.00488281	-1.00562	0.0742139	-0.0309019	0.020693	-0.996549	0.640872	-0.518351	11.096	0.0119616	0.0193351	-0.0150609	-0.511475	0.130615	-1.04907	0.0959515	-0.0421168	-0.0487848	-0.993297	0.979664	0.846841	10.5351	0.00110663	0.0064756	-0.0188292	-0.523682	-0.0168457	-1.06738	-0.0104342	-0.0484458	0.00283234	-0.998767	1.106	-0.194121	10.4558	0.00104355	0.0142774	0.0029869	-0.500488	-0.00415039	-0.968994	-0.133327	-0.0210251	0.114966	-0.984157	0.793803	-2.13859	9.54299	0.00185986	0.00822869	-0.00484827	-0.55542	0.124023	-1.06348	
76	-0.0483687	-0.178449	0.0634742	0.980708	-3.76103	1.59137	10.1697	-0.00827609	-0.00666954	0.00919886	0.0710449	0.0605469	-1.13403	-0.00896037	0.196865	0.00311545	-0.980385	-3.86269	-0.00217431	9.38199	0.0202704	-0.0194801	-0.0126849	0.232666	0.115234	-1.04956	0.11538	0.0358846	-0.547107	-0.828296	0.684993	9.23253	4.05188	0.0218398	0.00485144	-0.00719316	-0.485352	-0.887207	-0.575439	0.0347252	0.254633	-0.933743	-0.249161	-0.615397	4.68846	-8.54798	-0.00344103	0.00296081	0.00414186	-0.390137	-0.723389	0.761719	-0.0725549	-0.0720195	0.652242	-0.751085	2.04685	-9.48537	1.31705	0.0320269	-0.00292453	-0.00818805	-0.424561	1.16626	-0.0549316	0.0347211	-0.0680968	0.97982	-0.184687	-0.412181	-2.35019	-6.03247	0.0132413	0.000730718	-0.0177873	-0.184326	0.343262	0.889404	0.11729	-0.0391018	-0.0446908	-0.991321	1.05197	0.77332	10.6331	-0.0131491	0.00118269	-0.018089	-0.43042	0.000488281	-0.999023	0.074238	-0.0309447	0.0207378	-0.996545	0.640951	-0.517632	11.0945	-0.000542705	0.0128546	-0.0143774	-0.51123	0.124023	-1.04663	0.0959875	-0.0421084	-0.0488704	-0.99329	1.0018	0.881515	10.5208	0.00855135	0.00654881	-0.0159299	-0.525879	-0.0168457	-1.05835	-0.0103818	-0.0483504	0.002712	-0.998773	1.11157	-0.158602	10.4643	0.00332301	0.010879	0.00316075	-0.504639	-0.0107422	-0.96875	-0.133386	-0.0210156	0.114922	-0.984154	0.781611	-2.14312	9.55305	0.0025518	0.00763888	-0.00271798	-0.55542	0.121826	-1.06323	
77	-0.0485121	-0.178518	0.0634039	0.980693	-3.79841	1.4623	10.1984	0.00366525	-0.00812583	-0.00348585	0.0688477	0.0605469	-1.13184	-0.00890526	0.197074	0.00299542	-0.980344	-3.85374	-0.06379	9.29386	-0.00752258	0.0211412	-0.0168132	0.239502	0.11084	-1.05176	0.115355	0.0356258	-0.547293	-0.828187	0.743681	9.44337	3.98138	-0.00471884	-7.10036e-05	0.00275849	-0.487549	-0.88916	-0.577637	0.0347298	0.254603	-0.933743	-0.24919	-0.60174	4.70313	-8.52459	0.00242144	0.00356028	0.000349518	-0.385498	-0.72998	0.76416	-0.0726842	-0.0718184	0.652051	-0.751258	1.89792	-9.38275	1.40014	-0.00226236	0.0172441	-0.0102127	-0.424316	1.16626	-0.050293	0.0347211	-0.0680968	0.97982	-0.184687	-0.412181	-2.35019	-6.03247	0.0132413	0.000730718	-0.0177873	-0.184326	0.343262	0.889404	0.117459	-0.0369518	-0.043023	-0.991457	0.817266	0.673574	10.1718	0.0252163	0.101554	-0.00931622	-0.424316	0.00927734	-1.00562	0.074284	-0.0309584	0.0207879	-0.99654	0.633694	-0.564512	11.1191	0.00603784	0.0158116	-0.0149579	-0.513672	0.130615	-1.04907	0.0959799	-0.0421099	-0.0489108	-0.993289	1.00082	0.894677	10.5245	0.00654508	0.00689925	-0.0182676	-0.523438	-0.019043	-1.06738	-0.01038	-0.0483403	0.00276085	-0.998773	1.09778	-0.184962	10.467	-0.000242679	0.015764	0.00431696	-0.504883	-0.00854492	-0.966553	-0.133377	-0.0209954	0.114847	-0.984165	0.803852	-2.11382	9.52186	0.00754375	0.01181	-0.00288125	-0.548828	0.124023	-1.05884	
78	-0.0483758	-0.178601	0.0635298	0.980676	-3.80933	1.53787	10.156	0.00305993	0.00537182	-0.00300708	0.0686035	0.0649414	-1.13208	-0.00879039	0.196937	0.00271775	-0.980373	-3.91989	-0.0334467	9.27558	-0.00413725	0.00836805	-0.0114823	0.237061	0.113037	-1.052	0.115269	0.0359556	-0.54695	-0.828412	0.656407	9.2953	4.03183	-0.0112033	0.0168457	-0.0115763	-0.481201	-0.88501	-0.582275	0.0347038	0.254682	-0.933755	-0.249066	-0.618093	4.69041	-8.54951	0.00576123	0.00364427	-0.00213904	-0.390137	-0.725586	0.757568	-0.0727052	-0.0720131	0.652052	-0.751237	1.98342	-9.4497	1.36306	-0.000196669	-0.00140615	-0.0130204	-0.422119	1.16406	-0.0456543	0.0346945	-0.0685	0.979611	-0.185649	-0.40948	-2.39913	-5.98126	-0.00541886	0.0141913	-0.0168597	-0.186523	0.345459	0.893799	0.117346	-0.0368846	-0.0438326	-0.991437	0.887115	0.680407	10.4816	0.0406697	0.00550661	-0.0132635	-0.428711	0.0114746	-1.01221	0.0740869	-0.0307542	0.0206279	-0.996564	0.620938	-0.531605	11.0985	0.00910413	0.0163929	-0.0160441	-0.51123	0.126221	-1.04199	0.0959561	-0.0421262	-0.0487873	-0.993296	0.975871	0.860987	10.5455	0.00216975	0.00559517	-0.0179592	-0.523682	-0.0146484	-1.06738	-0.0103821	-0.0484018	0.00272505	-0.99877	1.08988	-0.160621	10.4856	0.00369783	0.0127451	0.00239999	-0.506836	-0.0107422	-0.964111	-0.133417	-0.0207698	0.114895	-0.984158	0.741986	-2.13519	9.56405	-0.00754134	0.00792222	-0.00365802	-0.546387	0.121826	-1.06104	
79	-0.0483955	-0.178467	0.0635167	0.9807	-3.83667	1.53534	10.1527	-0.000799231	-0.00738735	0.00129355	0.0664062	0.0649414	-1.13623	-0.00880818	0.197034	0.00277336	-0.980353	-3.86003	-0.0708598	9.32803	-0.0134362	0.02274	-0.0200484	0.233154	0.106445	-1.04688	0.115369	0.0356544	-0.546934	-0.828421	0.675514	9.35313	4.0028	0.000699622	-0.00678385	0.0109356	-0.483398	-0.889404	-0.582275	0.0349568	0.254595	-0.933648	-0.249522	-0.620411	4.70837	-8.5672	-0.0279712	0.00953372	0.00639918	-0.392334	-0.727783	0.755371	-0.0728348	-0.0719948	0.652112	-0.751174	1.94442	-9.441	1.36242	-0.00149431	0.00330118	-0.0200481	-0.426758	1.16846	-0.050293	0.0346562	-0.0685368	0.97962	-0.185598	-0.425812	-2.3785	-5.99275	0.0109905	0.0190245	-0.0178372	-0.188477	0.341064	0.893799	0.117384	-0.0368751	-0.0441224	-0.99142	0.910576	0.754993	10.4959	0.0218359	0.00167483	-0.0151875	-0.428467	0.00708008	-1.00977	0.074098	-0.0308403	0.0205641	-0.996562	0.616021	-0.523592	11.1182	0.00310108	0.0109941	-0.0142858	-0.51123	0.126221	-1.04907	0.0960137	-0.0421844	-0.0488868	-0.993283	0.978763	0.861674	10.5225	0.0136168	0.00366619	-0.0154553	-0.523682	-0.0146484	-1.06519	-0.0104052	-0.0485477	0.00271059	-0.998763	1.08614	-0.183646	10.4585	0.00666026	0.00682459	0.0019805	-0.504883	-0.00634766	-0.964355	-0.133397	-0.0209491	0.114908	-0.984156	0.756248	-2.1318	9.54924	0.0046206	0.000860886	-0.00301769	-0.548584	0.121826	-1.06323	
80	-0.0485048	-0.178345	0.0634995	0.980718	-3.74806	1.50455	10.1762	-0.000545701	-0.00735095	0.00362288	0.0688477	0.0627441	-1.13843	-0.00883164	0.197116	0.00296976	-0.980336	-3.87405	-0.073903	9.33363	-0.012268	0.0103512	-0.0185948	0.234863	0.115234	-1.052	0.115451	0.0354923	-0.546908	-0.828434	0.69995	9.32273	4.0208	0.0038905	0.00443465	0.00175737	-0.485596	-0.88501	-0.584717	0.0352461	0.254571	-0.933474	-0.250155	-0.613113	4.70972	-8.50142	-0.0149195	0.00902316	0.00138372	-0.385498	-0.727783	0.757568	-0.0728099	-0.0721368	0.651986	-0.751272	2.00268	-9.43941	1.33907	0.00866718	0.004256	-0.0178874	-0.426758	1.16846	-0.0524902	0.0345856	-0.068508	0.979653	-0.185446	-0.414604	-2.38672	-5.98784	-0.00964837	0.0173076	-0.0147904	-0.184326	0.345459	0.889404	0.117369	-0.0375793	-0.0442923	-0.991388	0.981732	0.699755	10.441	0.0240523	-0.00846614	-0.0139995	-0.422119	0.00927734	-1.00562	0.0741588	-0.0309094	0.0206053	-0.996554	0.663505	-0.522246	11.0836	0.00407352	0.0148739	-0.0133258	-0.51123	0.124023	-1.04419	0.0961134	-0.04221	-0.0491069	-0.993262	1.0117	0.925788	10.5189	0.0115023	0.00573935	-0.0156621	-0.521484	-0.0146484	-1.06299	-0.0103796	-0.0486398	0.00267481	-0.998759	1.14364	-0.132202	10.465	-0.000161978	0.012184	0.0037543	-0.511475	-0.00878906	-0.971191	-0.133413	-0.0211479	0.114874	-0.984153	0.81118	-2.09694	9.55744	0.00188924	0.00311033	-0.0047567	-0.548584	0.121826	-1.06104	
81	-0.048407	-0.178367	0.0636201	0.980711	-3.76949	1.55067	10.1619	0.00730766	-0.00220433	-0.00429897	0.0686035	0.0649414	-1.13403	-0.00884181	0.197138	0.0029431	-0.980331	-3.83045	-0.0546483	9.29852	-0.00567208	0.00711501	-0.0183998	0.237305	0.108643	-1.0542	0.115548	0.0357424	-0.547095	-0.828286	0.714046	9.33884	4.03921	0.0189619	0.0227719	-0.00663254	-0.479004	-0.887207	-0.580078	0.0347956	0.2548	-0.933801	-0.248759	-0.615024	4.69203	-8.4911	0.0857644	0.00256346	-0.00795615	-0.390137	-0.725586	0.757568	-0.0728573	-0.0719927	0.652154	-0.751135	1.97057	-9.42396	1.35731	-0.0158843	0.013222	-0.0113932	-0.426514	1.16626	-0.0571289	0.0345554	-0.0685217	0.979715	-0.185118	-0.406647	-2.36746	-5.96762	-0.0246031	0.0168469	-0.0169243	-0.193115	0.345459	0.889404	0.117398	-0.0377924	-0.044971	-0.991346	0.911277	0.740332	10.4531	0.0570226	-0.0054398	-0.0146208	-0.42627	0.00708008	-1.00781	0.0741821	-0.0308843	0.0206559	-0.996552	0.631103	-0.524231	11.0808	0.000142147	0.0188765	-0.0148376	-0.513428	0.121826	-1.04883	0.0961402	-0.0422203	-0.0490471	-0.993262	1.00655	0.919344	10.5152	0.000586954	0.00628356	-0.0161327	-0.52832	-0.0146484	-1.06519	-0.010378	-0.0486371	0.00287582	-0.998758	1.10906	-0.186246	10.4501	-0.00531447	0.013006	0.00362436	-0.50708	-0.0065918	-0.971191	-0.133408	-0.0211685	0.114937	-0.984146	0.789538	-2.11768	9.55633	-0.00296737	0.00658489	-0.00355835	-0.548584	0.121826	-1.06104	
82	-0.0484253	-0.178407	0.0636153	0.980703	-3.76795	1.53572	10.1769	-8.19178e-05	-0.000741749	0.00180625	0.0710449	0.0583496	-1.13623	-0.00878607	0.197035	0.00292844	-0.980353	-3.84931	-0.0786152	9.30918	-0.008896	0.0065663	-0.01319	0.237061	0.115234	-1.04956	0.115485	0.0359859	-0.547311	-0.828142	0.674079	9.31621	4.01234	0.0238946	0.0166598	-0.0138688	-0.481201	-0.887207	-0.584473	0.0346079	0.254866	-0.933924	-0.248256	-0.635653	4.65136	-8.57937	-0.0479627	0.00576089	0.00747525	-0.390137	-0.725586	0.757568	-0.0728709	-0.071952	0.652174	-0.75112	1.96647	-9.5026	1.3215	-0.0029769	0.00991284	-0.0129538	-0.426514	1.16406	-0.0524902	0.0342376	-0.0687074	0.979801	-0.184652	-0.412843	-2.35651	-6.01696	-0.0189315	0.0177362	-0.0169145	-0.188477	0.343262	0.897949	0.1174	-0.0382639	-0.0449783	-0.991327	0.938518	0.730097	10.5222	0.00909591	-0.0037001	-0.015856	-0.428467	0.00488281	-1.00562	0.0741931	-0.0309172	0.0208004	-0.996547	0.631216	-0.535349	11.09	-0.00393557	0.0159354	-0.0150223	-0.513428	0.126221	-1.03955	0.0959265	-0.0421456	-0.0488072	-0.993297	0.995373	0.887221	10.5286	-0.00699263	0.00702608	-0.0175178	-0.523682	-0.012207	-1.06958	-0.0103764	-0.0486414	0.00293891	-0.998758	1.11054	-0.195789	10.4511	-0.00281518	0.0136917	0.00365043	-0.50708	-0.00878906	-0.96875	-0.133357	-0.0211325	0.11511	-0.984134	0.767532	-2.16044	9.53334	-0.00268958	0.0100553	-0.00234324	-0.553223	0.121826	-1.07007	
83	-0.0483978	-0.178419	0.063665	0.980699	-3.78491	1.53882	10.162	0.00133365	-0.00632399	0.00134975	0.0732422	0.0627441	-1.13843	-0.00875141	0.197138	0.00309542	-0.980332	-3.87449	-0.0919171	9.33095	-0.0155615	0.0198852	-0.0191432	0.237061	0.113037	-1.04248	0.115445	0.0359764	-0.547252	-0.828187	0.618707	9.4867	3.92983	-0.0173126	-0.0132101	-0.00150893	-0.483398	-0.887207	-0.584473	0.0350477	0.254747	-0.933616	-0.249473	-0.59897	4.69164	-8.57231	-0.104695	0.0113291	0.00909835	-0.39209	-0.72998	0.755371	-0.0728101	-0.0719314	0.652006	-0.751274	1.95575	-9.45464	1.36035	0.00621236	0.0056027	-0.0180456	-0.424561	1.16626	-0.0549316	0.0342899	-0.0687266	0.979783	-0.184732	-0.420563	-2.37596	-5.9719	0.0049445	0.0158004	-0.0164646	-0.190674	0.338867	0.889648	0.117252	-0.0397983	-0.0451261	-0.991278	0.922941	0.698382	10.5665	0.0223658	-0.0755005	-0.0204419	-0.432617	0.00488281	-1.00562	0.0742357	-0.0309281	0.0208305	-0.996543	0.638154	-0.558183	11.0986	0.00741764	0.0183375	-0.0135092	-0.509277	0.128418	-1.04663	0.0959474	-0.0421142	-0.0487363	-0.9933	0.98289	0.867285	10.5167	0.00911212	0.00707392	-0.0170615	-0.523682	-0.0168457	-1.06738	-0.0103406	-0.0486385	0.00285119	-0.998759	1.09792	-0.170985	10.4701	0.00900246	0.0146963	0.00385979	-0.511719	-0.00219727	-0.966797	-0.133341	-0.0211018	0.11499	-0.984151	0.787994	-2.17166	9.55735	0.0111834	0.0114423	-0.00303438	-0.55542	0.121826	-1.05884	
