40	Head	00b4120a												Throax	00b411e8												LUpArm	00b411d9												LFoArm	00b41148												RUpArm	00b411db												RFoArm	00b41204												Waist	00b411f7												Lthigh	00b411f4												Lshank	00b4111b												Rthigh	00b411c8												Rshank	00b411ee												
PacketCount	q0	q1	q2	q3	accX	accY	accZ	gyrX	gyrY	gyrZ	magX	magY	magZ	q0	q1	q2	q3	accX	accY	accZ	gyrX	gyrY	gyrZ	magX	magY	magZ	q0	q1	q2	q3	accX	accY	accZ	gyrX	gyrY	gyrZ	magX	magY	magZ	q0	q1	q2	q3	accX	accY	accZ	gyrX	gyrY	gyrZ	magX	magY	magZ	q0	q1	q2	q3	accX	accY	accZ	gyrX	gyrY	gyrZ	magX	magY	magZ	q0	q1	q2	q3	accX	accY	accZ	gyrX	gyrY	gyrZ	magX	magY	magZ	q0	q1	q2	q3	accX	accY	accZ	gyrX	gyrY	gyrZ	magX	magY	magZ	q0	q1	q2	q3	accX	accY	accZ	gyrX	gyrY	gyrZ	magX	magY	magZ	q0	q1	q2	q3	accX	accY	accZ	gyrX	gyrY	gyrZ	magX	magY	magZ	q0	q1	q2	q3	accX	accY	accZ	gyrX	gyrY	gyrZ	magX	magY	magZ	q0	q1	q2	q3	accX	accY	accZ	gyrX	gyrY	gyrZ	magX	magY	magZ	
0	-0.19947	-0.21472	0.0669115	0.953745	-4.17174	2.34219	9.80939	0.0080214	-0.0137245	-0.00902737	0.112061	-0.0541992	-1.13696	0.00486361	0.192008	0.0104664	-0.981325	-3.8449	-0.167107	9.34645	-0.031447	-0.00699083	-0.0224585	0.231934	0.132812	-1.03369	0.135253	0.209319	-0.268058	-0.930611	-3.28443	5.96262	8.21788	0.00624539	0.0113397	0.00249348	-0.0754395	-0.594482	-0.960693	-0.539789	0.327188	-0.224189	-0.742506	-7.14308	-0.219005	6.69946	-0.00959352	0.000734936	0.00293998	0.685303	-0.320801	-0.806641	0.1188	0.0641123	0.558874	-0.81819	-2.26401	-8.84094	3.58155	0.0114954	0.00456381	-0.0183021	0.0466309	1.10376	-0.385498	0.837504	0.140451	0.431042	-0.305062	-9.1732	-0.140225	6.63565	-0.0174508	0.0180808	-0.00516078	1.01831	0.334473	-0.266357	0.0995624	-0.135153	-0.0331728	-0.985252	2.8361	0.525907	10.1061	-0.0224186	0.0679067	-0.00447847	-0.610596	0.0319824	-0.899902	0.245032	-0.0522215	0.0304472	-0.967629	0.965299	-0.989073	11.0224	-0.00273016	0.0222142	-0.0153267	-0.542236	0.0910645	-1.01562	-0.00921208	-0.0511572	-0.0774907	-0.995637	1.09842	1.65473	10.462	0.00160744	-0.000719071	-0.0148465	-0.544189	-0.195312	-1.03345	-0.0562075	0.908996	-0.150127	-0.384746	-6.4965	0.437414	-6.60295	0.0107134	0.0138773	-0.00115616	0.990479	-0.0388184	0.567139	-0.0284217	-0.00726948	0.0195338	-0.999379	0.23436	-0.324694	9.8018	-0.00211507	0.0025994	-0.00827635	-0.388428	0.171875	-1.02075	
1	-0.199426	-0.214747	0.0668695	0.953751	-4.10368	2.30754	9.79865	-0.00227613	0.00576132	-0.004277	0.118896	-0.0583496	-1.13672	0.00498439	0.192041	0.00996612	-0.981324	-3.79478	-0.243521	9.32382	0.00292144	0.0228611	-0.0127967	0.232422	0.126221	-1.03345	0.135136	0.209366	-0.267594	-0.930751	-3.40029	5.91209	8.09848	-0.0111609	-0.00118702	-0.0145311	-0.0795898	-0.596436	-0.953857	-0.539787	0.327182	-0.224197	-0.742508	-7.12656	-0.249199	6.73845	0.00329002	0.00613275	0.00144457	0.680664	-0.318604	-0.802246	0.118652	0.064189	0.558679	-0.818339	-2.24859	-8.65979	3.70509	0.020519	0.0170899	-0.0217476	0.0488281	1.10376	-0.387939	0.837472	0.140395	0.431243	-0.304893	-9.19405	-0.216273	6.63558	-0.000770413	0.0179111	-0.0177817	1.02246	0.341064	-0.268555	0.0996388	-0.133981	-0.0323976	-0.98543	2.8657	0.493245	10.1091	-0.0362329	0.11346	-0.00477416	-0.606445	0.0385742	-0.900146	0.244918	-0.0519635	0.0303328	-0.967675	1.01542	-0.912625	11.0157	0.00827878	0.0175428	-0.0133408	-0.537842	0.0932617	-1.01318	-0.00926348	-0.0512372	-0.0771437	-0.995659	1.13076	1.57107	10.3913	-0.0117847	0.00493307	-0.0176377	-0.548584	-0.19751	-1.03809	-0.0563925	0.908974	-0.150044	-0.384802	-6.58227	0.412719	-6.59625	0.00790477	0.00260376	-0.00400597	0.990479	-0.0410156	0.5625	-0.0284746	-0.0068508	0.0197982	-0.999375	0.158413	-0.339862	9.81357	-0.00891416	0.00629424	0.000451412	-0.392822	0.169678	-1.02515	
2	-0.199279	-0.214955	0.0666996	0.953747	-4.21495	2.30952	9.80054	-0.00459768	0.0024697	-0.00548806	0.112061	-0.0563965	-1.13037	0.00511287	0.192139	0.00967865	-0.981307	-3.84184	-0.156437	9.30152	0.000188326	0.0231823	-0.00868538	0.232178	0.128418	-1.03125	0.134941	0.209321	-0.267526	-0.930809	-3.28425	5.794	8.12425	0.00235798	0.0119945	-0.0036749	-0.0839844	-0.596436	-0.956055	-0.539907	0.32714	-0.224334	-0.742397	-7.09834	-0.150915	6.71766	0.00796422	0.00411345	-0.00263606	0.682861	-0.316406	-0.804443	0.118539	0.0642711	0.558809	-0.81826	-2.39438	-8.73942	3.55329	-0.0112297	0.0199727	-0.018909	0.0554199	1.104	-0.387939	0.837493	0.140517	0.431143	-0.304921	-9.17603	-0.180881	6.60031	0.0211419	0.0148444	-0.0126495	1.01831	0.33667	-0.274902	0.0997281	-0.132515	-0.0314564	-0.985649	2.62258	0.454361	10.1325	-0.00291052	0.0580792	-0.0121305	-0.604248	0.0341797	-0.897949	0.244919	-0.0521368	0.0307013	-0.967654	0.949332	-1.08172	11.0289	-0.00943216	0.0178016	-0.0183705	-0.540039	0.0932617	-1.02026	-0.00935576	-0.0511481	-0.0768766	-0.995684	1.07409	1.58279	10.4585	-0.00808071	0.0111277	-0.0192988	-0.544189	-0.190674	-1.03809	-0.056398	0.908937	-0.149995	-0.384909	-6.52559	0.401003	-6.57361	0.00119415	0.00166493	-0.00341455	0.988037	-0.0344238	0.564697	-0.0284231	-0.00695208	0.0199391	-0.999373	0.205479	-0.349035	9.78195	-0.00984404	0.000552635	6.66897e-05	-0.390625	0.169678	-1.02515	
3	-0.199234	-0.214724	0.0666347	0.953813	-4.25042	2.26983	9.80445	-0.00102701	-0.0211758	-0.0044631	0.110107	-0.060791	-1.12598	0.00513468	0.192288	0.00946819	-0.981279	-3.86303	-0.200855	9.32663	-0.00479983	0.025252	-0.0178493	0.232178	0.130615	-1.02905	0.134965	0.209857	-0.267668	-0.930644	-3.40416	5.90174	8.12879	0.0139664	0.0266783	-0.00402983	-0.0773926	-0.605225	-0.958252	-0.540008	0.327026	-0.224022	-0.742468	-7.09407	-0.30882	6.81589	0.000402264	-0.00527793	-0.00180782	0.685059	-0.318604	-0.800049	0.117565	0.0650204	0.558318	-0.818677	-2.31876	-8.60303	3.71018	-0.0142285	0.0650721	-0.0235117	0.0424805	1.10156	-0.387939	0.837817	0.140251	0.43043	-0.30516	-9.22328	-0.245594	6.63834	0.00706221	-0.0371911	-0.0250572	1.01611	0.33667	-0.266357	0.0997604	-0.129844	-0.031543	-0.985999	2.66899	0.479826	10.1829	0.0214017	0.11334	-0.0111702	-0.600098	0.0385742	-0.900146	0.245047	-0.0520785	0.0300887	-0.967644	0.957003	-0.897642	11.0991	0.033516	0.0135955	-0.0124487	-0.544434	0.095459	-1.01318	-0.00938148	-0.051191	-0.0770992	-0.995664	1.04627	1.60083	10.4957	0.0243128	0.00211856	-0.0167252	-0.546631	-0.190918	-1.03125	-0.0562557	0.909006	-0.149824	-0.384833	-6.50142	0.322864	-6.66108	-0.00686076	0.00832489	0.000788605	0.98999	-0.0300293	0.564453	-0.0285436	-0.00721928	0.019687	-0.999373	0.159313	-0.366473	9.84804	0.000573745	0.00230108	-0.0101749	-0.392578	0.163086	-1.01831	
4	-0.199147	-0.214404	0.0667328	0.953896	-4.13791	2.28412	9.82745	0.00263194	-0.0128749	-0.00245432	0.114258	-0.0541992	-1.13037	0.00513637	0.192549	0.00972644	-0.981226	-3.87356	-0.135446	9.31427	-0.0204788	0.0214394	-0.0219884	0.232178	0.130615	-1.03833	0.135157	0.209812	-0.267459	-0.930687	-3.36748	5.95298	8.1203	-0.0304557	0.00172508	0.00689155	-0.0795898	-0.60083	-0.960693	-0.540051	0.326893	-0.223986	-0.742507	-7.18563	-0.254727	6.66767	0.00486394	-0.000206582	0.00604122	0.682861	-0.316406	-0.800049	0.117135	0.0659344	0.557397	-0.819293	-2.46993	-8.93566	3.32297	0.0945506	0.0284505	-0.0105598	0.0512695	1.09741	-0.392334	0.838059	0.140144	0.429614	-0.305693	-9.15597	-0.0572109	6.63113	0.0145578	-0.00629397	-0.029285	1.01392	0.341064	-0.270752	0.0999207	-0.127859	-0.0307422	-0.986267	2.56023	0.45178	10.1427	-0.00568629	0.0904138	-0.00749887	-0.598145	0.0407715	-0.906494	0.245041	-0.0519087	0.0303244	-0.967647	0.979855	-1.00477	11.0395	-0.00838091	0.0334073	-0.0216205	-0.540039	0.0910645	-1.01318	-0.00936435	-0.0514166	-0.0771275	-0.995651	1.10445	1.65411	10.4659	-0.018168	-0.0058356	-0.0139558	-0.548828	-0.193115	-1.04028	-0.0559659	0.909042	-0.149653	-0.384857	-6.51672	0.45233	-6.66868	-0.0144568	0.0113024	-0.00399324	0.994873	-0.0366211	0.560059	-0.0286064	-0.00719804	0.0195549	-0.999374	0.106911	-0.29729	9.91325	0.00850101	0.0137121	1.52221e-05	-0.39502	0.165039	-1.02295	
5	-0.19906	-0.214534	0.0668647	0.953876	-4.1911	2.31055	9.82093	0.00723515	0.00118686	-0.00513067	0.112061	-0.0585938	-1.13037	0.00530262	0.192658	0.00964877	-0.981204	-3.85655	-0.162337	9.31671	-0.00186469	0.0232072	-0.0107947	0.234375	0.128418	-1.03369	0.134958	0.209615	-0.266969	-0.9309	-3.37952	5.87567	8.14112	-0.0164425	-0.00671378	-0.0161332	-0.0773926	-0.603027	-0.956055	-0.539959	0.327013	-0.224186	-0.74246	-7.04503	-0.278616	6.71584	0.00642406	0.0185099	0.00317171	0.685303	-0.322998	-0.800049	0.117814	0.0652899	0.55648	-0.81987	-2.33436	-8.39065	3.55666	-0.0238075	-0.0498968	0.00410208	0.0488281	1.104	-0.399414	0.837951	0.140116	0.429908	-0.305588	-9.09426	-0.129391	6.58099	-0.00754962	0.0377085	-0.0155745	1.01392	0.33667	-0.270508	0.100161	-0.125598	-0.0306457	-0.986536	2.57514	0.484321	10.2082	0.0277051	0.110763	-0.0108318	-0.589355	0.0385742	-0.906494	0.245123	-0.0518803	0.0301476	-0.967633	0.930953	-0.929596	10.9108	0.0226987	0.0139124	-0.013638	-0.540039	0.0910645	-1.01782	-0.00941594	-0.0514363	-0.0772677	-0.995638	1.09095	1.56988	10.317	0.0273262	0.00866764	-0.0205571	-0.544189	-0.192871	-1.04028	-0.0562454	0.908968	-0.149651	-0.384992	-6.53738	0.400409	-6.53868	0.0197636	0.00117043	-0.00512808	0.990234	-0.0344238	0.557861	-0.028395	-0.00700547	0.0197395	-0.999377	0.166833	-0.359787	9.75584	-0.00845052	0.0089946	0.00634444	-0.390625	0.169678	-1.02759	
6	-0.198922	-0.214567	0.0668261	0.9539	-4.14532	2.37709	9.82546	-0.00514578	-0.00360918	-0.00306779	0.112061	-0.0585938	-1.12598	0.0053201	0.192623	0.00979583	-0.98121	-3.78041	-0.231818	9.32087	-0.018492	0.012805	-0.0155263	0.234619	0.121826	-1.03809	0.135063	0.209525	-0.266663	-0.930993	-3.30849	5.88332	8.1388	-0.0137284	0.00739767	0.000379881	-0.0817871	-0.596436	-0.958496	-0.539956	0.327002	-0.224447	-0.742389	-7.11899	-0.132123	6.76134	-0.000269977	0.0129405	0.00357375	0.685059	-0.318604	-0.797852	0.118346	0.0648424	0.559336	-0.817883	-2.29069	-8.95865	3.68399	-0.130602	0.0134985	-0.0117803	0.0466309	1.10596	-0.381104	0.837587	0.139885	0.431064	-0.305062	-9.2121	-0.285417	6.63203	-0.00181807	0.0170645	-0.0117653	1.01807	0.341064	-0.272949	0.100219	-0.124683	-0.0307588	-0.986643	2.57269	0.483725	10.2356	0.0137003	0.034665	-0.0146601	-0.593506	0.0385742	-0.910645	0.245255	-0.0521105	0.0302884	-0.967583	1.03092	-0.969746	11.0664	-0.0122621	0.0129275	-0.0172832	-0.540039	0.0910645	-1.01318	-0.00938391	-0.0513119	-0.0774505	-0.995631	1.10319	1.60635	10.4839	0.0236311	0.0132408	-0.0148125	-0.546631	-0.188477	-1.03589	-0.056181	0.908907	-0.149686	-0.385132	-6.5567	0.368056	-6.57758	0.000372013	0.00631793	0.00521725	0.988037	-0.0366211	0.560059	-0.0284647	-0.00711219	0.0199012	-0.999371	0.195166	-0.332565	9.80882	0.0024322	0.001199	-0.011747	-0.393066	0.171875	-1.02295	
7	-0.198974	-0.214603	0.0667018	0.95389	-4.13435	2.32918	9.80296	-0.00935753	0.000799114	0.00135893	0.114258	-0.0583496	-1.13477	0.00530627	0.192913	0.00977921	-0.981153	-3.83507	-0.198829	9.34923	-0.00746688	0.0301873	-0.0176539	0.236328	0.132812	-1.03369	0.135153	0.209541	-0.266491	-0.931026	-3.38633	5.86354	8.07831	0.00451555	0.00184974	0.00364823	-0.0776367	-0.594482	-0.958496	-0.540003	0.327027	-0.224924	-0.742199	-7.14094	-0.195343	6.70912	0.0281865	0.023633	0.00020187	0.683105	-0.322998	-0.797852	0.118431	0.0650384	0.558245	-0.8186	-2.31762	-8.89655	3.5089	0.0977364	0.00404953	-0.00691709	0.0488281	1.10376	-0.387939	0.837713	0.139563	0.430953	-0.305022	-9.18049	-0.229811	6.64183	-0.000526363	0.00590529	-0.0182449	1.01611	0.334473	-0.272705	0.100289	-0.123222	-0.0304398	-0.986829	2.54729	0.410814	10.1626	0.016771	0.0879367	-0.0153008	-0.59375	0.0407715	-0.906494	0.245132	-0.0518188	0.0300615	-0.967637	0.994667	-0.942163	11.1055	0.0129729	0.0177527	-0.0142057	-0.542236	0.0932617	-1.01782	-0.00942984	-0.0513257	-0.0775963	-0.995618	1.08667	1.73796	10.4851	0.00266089	0.00428156	-0.018458	-0.551025	-0.195312	-1.03589	-0.0561424	0.908872	-0.149733	-0.3852	-6.57078	0.416581	-6.58639	0.00186937	0.00550625	0.00576894	0.990479	-0.0388184	0.5625	-0.02869	-0.00746544	0.0197558	-0.999365	0.21294	-0.328133	9.82374	0.00949518	-0.00398956	-0.0106201	-0.397217	0.162842	-1.02515	
8	-0.199088	-0.21465	0.066376	0.953878	-4.16807	2.29963	9.81435	-0.0127719	0.002518	0.00124727	0.114258	-0.0563965	-1.13257	0.0052764	0.192996	0.00976171	-0.981137	-3.8548	-0.141155	9.3117	-0.00588522	0.0216117	-0.021442	0.234375	0.130615	-1.03613	0.135165	0.209375	-0.266351	-0.931101	-3.367	5.88671	8.23311	-0.013744	-0.00703759	0.000200831	-0.0776367	-0.594482	-0.956299	-0.54023	0.3269	-0.225421	-0.741938	-7.12454	-0.21039	6.70973	0.0475328	0.022633	-0.00832883	0.685303	-0.325195	-0.797607	0.118368	0.0652684	0.556828	-0.819556	-2.30011	-8.65272	3.5875	0.137624	0.00752141	-0.0107478	0.0510254	1.10376	-0.385498	0.837742	0.139453	0.430955	-0.304988	-9.14767	-0.212835	6.60475	-0.004998	0.0111141	-0.0173203	1.01855	0.332275	-0.272705	0.100301	-0.122529	-0.0303811	-0.986916	2.4847	0.474435	10.2093	0.0164838	0.0697302	-0.0159163	-0.591553	0.0407715	-0.908691	0.245187	-0.0517216	0.0299197	-0.967633	0.960584	-0.90745	11.0372	0.0164106	0.021436	-0.0132097	-0.542236	0.095459	-1.01318	-0.00948285	-0.0513712	-0.0771431	-0.995651	1.0765	1.62056	10.4384	-0.0310801	0.00312665	-0.0180756	-0.541748	-0.195312	-1.04028	-0.0560005	0.908878	-0.149729	-0.385209	-6.52029	0.451054	-6.56442	-0.00340802	0.00599295	0.00204527	0.994629	-0.0344238	0.560059	-0.0287089	-0.00756593	0.0196809	-0.999365	0.238013	-0.365654	9.78214	0.00676811	0.00149687	-0.00540634	-0.390381	0.165283	-1.02295	
9	-0.199408	-0.214803	0.0662013	0.953789	-4.25106	2.21669	9.82165	-0.00370449	0.00340444	0.0117267	0.114502	-0.0627441	-1.13037	0.00503017	0.193002	0.00975805	-0.981137	-3.80728	-0.154626	9.32614	-0.00712822	0.0197388	-0.0295121	0.236572	0.128418	-1.03125	0.13572	0.209861	-0.266026	-0.931004	-3.31928	5.69134	8.09961	0.0112581	0.0512106	0.020155	-0.0754395	-0.598877	-0.962891	-0.540856	0.326318	-0.225563	-0.741695	-7.29054	-0.260996	6.68286	0.00601713	0.00135551	-0.0123913	0.683105	-0.325195	-0.79541	0.117684	0.0655978	0.558117	-0.818751	-2.2594	-8.65695	3.67703	-0.117747	0.061419	-0.0313617	0.0444336	1.1062	-0.392578	0.837879	0.13933	0.430438	-0.305398	-9.15112	-0.256605	6.6461	0.0333125	-0.0177251	-0.0297903	1.01831	0.338867	-0.268555	0.100287	-0.121075	-0.0296834	-0.987118	2.45519	0.416029	10.2322	0.00789361	0.059966	-0.0144904	-0.587402	0.0429688	-0.910889	0.245174	-0.0518479	0.0302888	-0.967618	0.955734	-1.02032	10.99	-0.00397463	0.0161099	-0.0161679	-0.544189	0.0888672	-1.01538	-0.00952811	-0.0513861	-0.0771086	-0.995652	1.06913	1.61025	10.4095	0.00730072	0.00517939	-0.0168296	-0.544189	-0.190674	-1.03809	-0.0557257	0.908895	-0.149718	-0.385212	-6.4941	0.419484	-6.62513	-0.0156024	0.0159215	0.00573055	0.999268	-0.0388184	0.564697	-0.0287146	-0.00747126	0.0193831	-0.999372	0.209119	-0.333286	9.80579	0.0195711	0.0172405	-0.00433164	-0.397461	0.171875	-1.02515	
10	-0.199476	-0.21482	0.0665217	0.953749	-4.1602	2.24953	9.79481	0.0156992	-0.00451256	0.00242231	0.110107	-0.060791	-1.13037	0.00483684	0.193183	0.00941124	-0.981106	-3.93591	-0.165004	9.31524	0.00257788	0.0217792	-0.0204404	0.236572	0.126221	-1.03345	0.135416	0.210008	-0.266057	-0.931006	-3.47222	5.99138	8.10505	-0.00945902	-0.00843344	-0.0231016	-0.0776367	-0.596436	-0.962891	-0.541289	0.326055	-0.226053	-0.741346	-7.03762	-0.201485	6.75319	0.028056	0.00350864	-0.00669857	0.680664	-0.320801	-0.800049	0.117751	0.0656063	0.555523	-0.820502	-2.36201	-8.35738	3.61926	0.0556197	-0.0396724	-0.00146587	0.046875	1.09961	-0.401611	0.837908	0.139543	0.430366	-0.305326	-9.15854	-0.00170301	6.64906	-0.00736638	0.0351413	-0.000425778	1.01172	0.338867	-0.266357	0.100336	-0.119563	-0.0297881	-0.987294	2.40149	0.454442	10.222	0.0156579	0.0771186	-0.0160338	-0.576416	0.0385742	-0.915039	0.245257	-0.0517753	0.029943	-0.967611	0.963704	-0.920447	11.0939	0.0184051	0.012044	-0.0109293	-0.544434	0.0932617	-1.01782	-0.00976173	-0.0513029	-0.0769861	-0.995664	1.08805	1.56036	10.454	0.00400003	0.00603237	-0.0176782	-0.548828	-0.190674	-1.03809	-0.0559755	0.908924	-0.149722	-0.385107	-6.48613	0.453205	-6.60194	0.00781223	0.0108534	-0.0023218	0.992432	-0.0344238	0.55542	-0.0287108	-0.00740734	0.0195391	-0.999369	0.16267	-0.201123	9.81856	-0.0111578	0.0140816	-0.00346724	-0.388184	0.165283	-1.02979	
11	-0.199112	-0.215071	0.0668866	0.953743	-4.24937	2.3729	9.78574	0.0166083	-0.000884966	-0.0153411	0.112305	-0.060791	-1.12817	0.00483509	0.193086	0.00954713	-0.981123	-3.74937	-0.134304	9.2635	-0.0183019	0.0148123	-0.0140797	0.236572	0.130615	-1.03125	0.13555	0.209715	-0.265783	-0.931131	-3.23422	5.8652	8.20557	-0.0138816	0.00891711	0.00938621	-0.079834	-0.592285	-0.958496	-0.541296	0.325911	-0.226148	-0.741376	-7.18421	-0.149459	6.84669	0.0143812	0.000949616	0.00681005	0.685303	-0.322998	-0.793457	0.118011	0.0653762	0.556998	-0.819483	-2.1815	-8.27482	3.82526	-0.146759	0.000317305	-0.00618233	0.0488281	1.1062	-0.390137	0.837782	0.139301	0.431123	-0.304713	-9.12664	-0.226259	6.60653	-0.0184104	0.0315528	-0.00927547	1.01611	0.33667	-0.272705	0.100399	-0.119106	-0.0294731	-0.987353	2.41368	0.474916	10.285	-0.0055395	0.0518176	-0.00904283	-0.578613	0.0385742	-0.919189	0.245303	-0.0518312	0.0299643	-0.967596	0.936584	-0.877463	11.0416	0.000820565	0.0129086	-0.0125781	-0.537842	0.0888672	-1.01538	-0.00975311	-0.0513285	-0.0771911	-0.995646	1.06082	1.63254	10.45	0.0221679	0.00513982	-0.016292	-0.541992	-0.188477	-1.03589	-0.0559529	0.908873	-0.149756	-0.385217	-6.51931	0.303561	-6.59463	0.00135435	0.00231682	0.00426173	0.99707	-0.0388184	0.5625	-0.0287714	-0.00728202	0.0195362	-0.999369	0.16161	-0.332082	9.79942	0.00173017	0.00379893	-0.00494612	-0.39502	0.16748	-1.03198	
12	-0.199045	-0.214825	0.0668433	0.953815	-4.17514	2.38807	9.79422	-0.0099194	-0.0146087	0.0013194	0.114258	-0.0561523	-1.13892	0.00493851	0.193344	0.00946743	-0.981073	-3.89319	-0.155883	9.28034	0.0040176	0.02745	-0.0169247	0.232422	0.126221	-1.02881	0.135739	0.210073	-0.264954	-0.931259	-3.4465	5.67746	8.10579	-0.0312467	0.0228236	-0.00495085	-0.0776367	-0.596436	-0.962891	-0.541153	0.325966	-0.225966	-0.741511	-7.1537	-0.111478	6.79401	-0.0176682	-5.22832e-06	0.0100703	0.685303	-0.322998	-0.795654	0.11806	0.0651601	0.558766	-0.818289	-2.45381	-9.25519	3.50222	0.00386477	0.00126687	-0.0103386	0.046875	1.10156	-0.387939	0.837933	0.138981	0.431235	-0.304284	-9.31468	-0.256817	6.61362	-0.0195705	0.0130528	-0.00536086	1.02246	0.338867	-0.266357	0.100613	-0.11808	-0.0292103	-0.987462	2.39699	0.435712	10.2301	0.0179613	0.0620332	-0.0104124	-0.574463	0.0429688	-0.912842	0.245388	-0.0518362	0.030364	-0.967562	0.953479	-1.02778	11.0352	-0.00708661	0.017322	-0.0139178	-0.538086	0.095459	-1.01099	-0.00974629	-0.0513763	-0.0770011	-0.995659	1.07234	1.60403	10.4251	-0.0107858	0.00417537	-0.0160328	-0.544189	-0.193115	-1.03345	-0.0561651	0.908834	-0.149746	-0.385281	-6.52842	0.514081	-6.55725	0.0026333	0.0101434	-0.00090468	0.98584	-0.0368652	0.555664	-0.0287684	-0.00745834	0.0199025	-0.99936	0.218919	-0.452052	9.80647	0.00214766	0.0019671	-0.00496624	-0.390625	0.16748	-1.02515	
13	-0.19916	-0.214864	0.0663846	0.953814	-4.11306	2.30039	9.81897	-0.0169767	0.00530427	-0.00206926	0.114502	-0.0605469	-1.13892	0.00494108	0.193251	0.00887817	-0.981097	-3.78485	-0.304891	9.32663	0.0110066	0.00918137	-0.00774316	0.240967	0.126221	-1.03345	0.135544	0.209885	-0.265461	-0.931186	-3.35647	5.82066	8.06376	0.0283125	-0.0152584	-0.00741407	-0.0839844	-0.592041	-0.958496	-0.541294	0.326123	-0.226352	-0.741222	-7.11136	-0.222521	6.70811	0.0313924	0.0341101	-0.00572465	0.689697	-0.320801	-0.800049	0.117454	0.0664225	0.556574	-0.819767	-2.28308	-8.40802	3.79898	0.0957608	0.0751574	-0.0162491	0.046875	1.10181	-0.392578	0.838387	0.138534	0.430361	-0.304474	-9.18437	-0.246286	6.6615	-0.00111884	-0.0507981	-0.0241711	1.02246	0.338867	-0.2771	0.100802	-0.117368	-0.0296032	-0.987516	2.40521	0.44009	10.2278	0.0358625	0.0258615	-0.00759705	-0.574219	0.036377	-0.914795	0.245506	-0.0517852	0.0298459	-0.967551	1.00518	-0.911985	11.0436	0.0289877	0.0159665	-0.0135687	-0.546631	0.0932617	-1.01074	-0.00976643	-0.0513628	-0.0770456	-0.995656	1.12262	1.59548	10.4193	0.0108596	0.008986	-0.0163001	-0.548828	-0.193115	-1.03369	-0.055802	0.908807	-0.149802	-0.385376	-6.54252	0.329762	-6.61802	-0.00407739	0.00628171	0.0103707	0.992676	-0.0366211	0.560059	-0.0290552	-0.00764685	0.0193405	-0.999361	0.176087	-0.347349	9.82254	0.0159119	0.000883962	-0.016631	-0.392578	0.163086	-1.02515	
14	-0.199192	-0.214996	0.0660501	0.953801	-4.22474	2.22666	9.82313	-0.00645078	-0.000275327	-0.00471905	0.114014	-0.0541992	-1.12598	0.00495161	0.193235	0.00925962	-0.981096	-3.93454	-0.0741713	9.32294	-0.0348363	-0.00391516	-0.0312699	0.240967	0.124023	-1.03345	0.134334	0.209963	-0.26785	-0.930659	-3.40788	5.65418	7.98519	0.137751	-0.0122046	-0.0275352	-0.0773926	-0.60083	-0.951416	-0.541597	0.326514	-0.227339	-0.740526	-7.03536	-0.101609	6.69566	0.0243585	0.0425516	-0.0217703	0.6875	-0.322998	-0.797852	0.117177	0.0674912	0.556599	-0.819702	-2.39069	-8.94531	3.35282	0.00604014	0.0277575	0.0120897	0.0556641	1.09961	-0.396973	0.838819	0.13851	0.429193	-0.304944	-9.10123	-0.128123	6.60624	0.0184105	-0.0176787	-0.0167248	1.01172	0.341064	-0.268555	0.100801	-0.117373	-0.0297331	-0.987511	2.27044	0.480916	10.3536	0.0134944	0.0010165	-0.0153895	-0.578857	0.0429688	-0.915039	0.245607	-0.0518117	0.0302213	-0.967512	0.894514	-1.00136	11.0392	-0.0220446	0.0167494	-0.0163647	-0.548828	0.0932617	-1.01782	-0.00975453	-0.0513375	-0.0770563	-0.995656	1.06499	1.61079	10.4345	0.00468348	0.00709423	-0.0163796	-0.541992	-0.192871	-1.03589	-0.0555774	0.90878	-0.149801	-0.385472	-6.50888	0.494278	-6.56015	-0.0138925	0.00589044	0.0078054	0.988281	-0.0410156	0.5625	-0.0290866	-0.0076675	0.0188995	-0.999369	0.27475	-0.38306	9.81598	0.0323025	0.0171244	0.000340273	-0.39502	0.167236	-1.03418	
15	-0.199357	-0.21514	0.0661395	0.953728	-4.16943	2.20351	9.82972	0.0091775	0.00522568	0.0103108	0.114258	-0.0541992	-1.13477	0.0048805	0.192902	0.00864802	-0.981168	-3.75516	-0.161312	9.38961	0.00903119	0.0147899	-0.0189143	0.236816	0.124023	-1.03809	0.133365	0.210025	-0.271166	-0.929824	-3.36109	6.24373	8.31389	0.11577	-0.0067978	0.00675988	-0.0837402	-0.611572	-0.948975	-0.542312	0.326817	-0.228264	-0.739583	-7.23756	-0.155637	6.88438	0.0510359	0.040279	-0.0269406	0.689941	-0.325195	-0.793213	0.117334	0.0671132	0.555983	-0.820129	-2.29428	-8.43438	3.70497	0.00347863	-0.0171884	-0.0207313	0.0512695	1.09961	-0.396973	0.83886	0.138446	0.429324	-0.304675	-9.12831	-0.205296	6.65078	-0.00717474	0.0233151	-0.005314	1.01392	0.33667	-0.2771	0.100873	-0.116338	-0.0282358	-0.98767	2.6197	0.507786	10.118	-0.0755427	0.133022	-0.00267616	-0.574463	0.045166	-0.921631	0.245692	-0.0517503	0.0300428	-0.967499	0.985907	-0.960223	11.0219	0.0243635	0.0191309	-0.0126817	-0.544189	0.0888672	-1.01782	-0.00983439	-0.0513854	-0.076987	-0.995658	1.08912	1.62282	10.4258	-0.00588198	0.00393322	-0.0186004	-0.544189	-0.195312	-1.03809	-0.0550157	0.90897	-0.149862	-0.385081	-6.56447	0.349814	-6.58649	-0.00325582	0.0166149	0.00585091	0.992676	-0.0366211	0.5625	-0.0288436	-0.00762748	0.0184864	-0.999384	0.182431	-0.280961	9.80882	-0.00407766	0.0071668	0.002939	-0.397461	0.171875	-1.02515	
16	-0.1992	-0.215243	0.0663949	0.95372	-4.22289	2.25295	9.82553	0.0246554	-0.00131111	-0.00862337	0.109619	-0.0498047	-1.13037	0.00474178	0.192952	0.00881371	-0.981157	-3.76612	-0.177218	9.32042	-0.0200387	0.0190267	-0.0308689	0.230225	0.126221	-1.03345	0.133158	0.209953	-0.2715	-0.929772	-3.20565	6.16975	8.36422	0.0279346	-0.00665727	-0.00828384	-0.0793457	-0.607422	-0.955811	-0.542177	0.327194	-0.228084	-0.739572	-7.18191	-0.103753	6.73613	-0.0334368	0.00431748	0.0128902	0.689697	-0.322998	-0.79126	0.117577	0.0670842	0.556683	-0.819622	-2.26386	-8.60318	3.75002	-0.0708118	0.00441099	0.000545181	0.0512695	1.09741	-0.394775	0.838937	0.138463	0.429242	-0.304573	-9.27955	-0.258407	6.73748	0.00253372	0.00777422	-0.00592675	1.01587	0.343262	-0.275146	0.10113	-0.114998	-0.0283759	-0.987797	2.26568	0.308017	10.273	0.0672869	-0.00325335	-0.0133259	-0.572021	0.0366211	-0.921387	0.245701	-0.0517563	0.0299615	-0.967499	0.978488	-0.931228	11.0488	-0.0105852	0.015435	-0.0182141	-0.540039	0.0932617	-1.01318	-0.00984879	-0.051335	-0.0769174	-0.995666	1.10049	1.55778	10.4431	-0.000277724	0.0106075	-0.0168862	-0.541748	-0.195312	-1.04028	-0.0550604	0.908963	-0.149934	-0.385064	-6.57797	0.420941	-6.62514	0.00943207	0.011684	0.00447578	0.983643	-0.034668	0.560059	-0.0287448	-0.00769346	0.01883	-0.99938	0.177881	-0.325161	9.91908	-0.0256191	0.00309411	0.00397742	-0.394775	0.162842	-1.02734	
17	-0.198895	-0.215287	0.0668078	0.953745	-4.16193	2.37432	9.80841	0.0144375	-0.00469624	-0.000549951	0.116943	-0.0649414	-1.13452	0.0050461	0.192862	0.00884576	-0.981173	-3.90489	-0.192893	9.32713	-0.0118608	0.0108822	-0.00123264	0.23877	0.130615	-1.03833	0.133328	0.210222	-0.270983	-0.929838	-3.15418	5.97977	8.21327	-0.039728	0.0331777	-0.0035856	-0.0837402	-0.605225	-0.951416	-0.541735	0.327261	-0.227711	-0.739981	-7.19893	-0.311548	6.68465	-0.00752183	0.0025565	0.0130628	0.694092	-0.322998	-0.79126	0.117771	0.0673728	0.557059	-0.819314	-2.51303	-8.97456	3.42846	0.0401462	0.00569955	-0.00424597	0.0490723	1.10181	-0.390137	0.839041	0.13831	0.429103	-0.30455	-9.15153	-0.152409	6.64949	-0.0106923	0.00944199	-0.0176678	1.01611	0.338867	-0.2771	0.101212	-0.113576	-0.0280877	-0.987961	2.31013	0.477372	10.3297	-0.000569759	0.0798588	-0.00877643	-0.572021	0.0385742	-0.923584	0.245808	-0.0516081	0.0295614	-0.967492	0.899959	-0.989458	10.9942	0.0419608	0.0179583	-0.0104606	-0.539795	0.0888672	-1.01782	-0.00992825	-0.0513619	-0.0770377	-0.995655	1.09163	1.61156	10.4229	0.00824206	0.00240561	-0.0202847	-0.544189	-0.190674	-1.03369	-0.0548594	0.908913	-0.149995	-0.385187	-6.47055	0.458882	-6.5617	0.00245843	0.00871157	0.00905398	0.992676	-0.0410156	0.560303	-0.0288712	-0.00774066	0.0183953	-0.999384	0.162838	-0.317238	9.84162	0.034397	0.00908363	-0.014346	-0.39502	0.16748	-1.02515	
18	-0.198953	-0.215516	0.0667691	0.953684	-4.25873	2.34209	9.79913	-0.0040596	0.00557939	0.00183551	0.114502	-0.0605469	-1.13452	0.00510823	0.192748	0.00905411	-0.981193	-3.86883	-0.146885	9.29091	-0.0185355	0.00926097	-0.0236836	0.230225	0.126221	-1.03589	0.133938	0.210228	-0.269208	-0.930264	-3.51632	5.80376	8.00995	-0.0339699	-0.0262149	-0.0175153	-0.0773926	-0.60083	-0.953613	-0.541894	0.327337	-0.228101	-0.73971	-7.05259	-0.16013	6.65367	0.0162911	0.0134278	-0.00583877	0.692139	-0.325195	-0.793213	0.118241	0.0672143	0.555618	-0.820238	-2.21322	-8.4377	3.76587	0.0293898	-0.0113169	-0.00528234	0.0510254	1.104	-0.392578	0.839008	0.138258	0.429358	-0.304305	-9.16125	-0.207185	6.71411	-0.00459219	0.022185	-0.0103648	1.01587	0.343262	-0.275146	0.101133	-0.11283	-0.0279508	-0.988059	2.24158	0.43266	10.3063	0.0116391	0.0289716	-0.0208042	-0.567871	0.0407715	-0.917236	0.24587	-0.0518039	0.0295534	-0.967466	0.977557	-0.890763	11.057	-0.023112	0.0102912	-0.0167345	-0.548584	0.0888672	-1.02246	-0.00996155	-0.0513565	-0.0772247	-0.99564	1.07463	1.62871	10.4464	0.0197479	0.00900919	-0.016707	-0.544189	-0.193115	-1.03589	-0.0548376	0.908861	-0.150145	-0.385255	-6.49471	0.398513	-6.60055	0.0154455	0.00685156	0.00396693	0.988281	-0.0388184	0.564697	-0.0290937	-0.00762959	0.0183769	-0.999379	0.172383	-0.304408	9.78589	-0.0134544	0.00929423	-0.00867871	-0.39502	0.165039	-1.02295	
19	-0.199252	-0.215466	0.0665601	0.953647	-4.19539	2.25338	9.80154	-0.00903296	-0.00377735	0.0123381	0.118652	-0.0561523	-1.13037	0.00494223	0.192558	0.00946437	-0.981228	-3.82161	-0.139154	9.30101	-0.0262602	0.00781496	-0.0258344	0.232178	0.130615	-1.03613	0.133892	0.210255	-0.269603	-0.930151	-3.35541	5.91846	8.08952	0.0255928	0.0143581	0.00990592	-0.0817871	-0.60083	-0.960449	-0.541952	0.327397	-0.22803	-0.739663	-7.22058	-0.159869	6.71943	-0.00266381	0.00634711	-0.00692925	0.691895	-0.322998	-0.795654	0.118241	0.0672143	0.555618	-0.820238	-2.21322	-8.4377	3.76587	0.0293898	-0.0113169	-0.00528234	0.0510254	1.104	-0.392578	0.838894	0.138337	0.429369	-0.304569	-9.12346	-0.175025	6.67816	0.0233083	0.016771	-0.0252023	1.01587	0.341064	-0.272949	0.101224	-0.112798	-0.0281079	-0.988049	2.31815	0.491204	10.2974	0.0288947	0.0145131	-0.00903853	-0.570068	0.0429688	-0.923584	0.245876	-0.0518382	0.0299319	-0.967451	0.978621	-0.98427	11.0467	-0.0257832	0.0215652	-0.0160931	-0.544434	0.0910645	-1.01782	-0.00998342	-0.0514373	-0.0770562	-0.995649	1.06817	1.64937	10.4772	-0.0102144	0.00163678	-0.0180633	-0.544189	-0.190674	-1.03589	-0.0545903	0.90896	-0.150121	-0.385065	-6.46745	0.50409	-6.59824	-0.00621838	0.0151131	0.00245604	0.992676	-0.0410156	0.560303	-0.0289928	-0.00759812	0.0180558	-0.999388	0.178752	-0.274985	9.81595	0.0166011	0.010903	0.00427166	-0.383545	0.160889	-1.02515	
20	-0.199253	-0.215535	0.0666876	0.953622	-4.20061	2.23783	9.82861	0.0108832	-0.00407617	-0.00470728	0.116211	-0.052002	-1.13257	0.00484474	0.192473	0.00968299	-0.981242	-3.85251	-0.142079	9.25309	-0.0192124	0.0103233	-0.0251184	0.236572	0.128418	-1.03369	0.133639	0.209936	-0.26937	-0.930326	-3.34228	5.96729	8.13574	-0.0320668	-0.0112363	-0.0107871	-0.0817871	-0.60083	-0.953613	-0.542103	0.327479	-0.228259	-0.739446	-7.1689	-0.172523	6.72271	0.0133686	0.0144638	-0.00400725	0.687744	-0.32959	-0.793213	0.117552	0.067062	0.556621	-0.819669	-2.38685	-8.75641	3.62815	-0.0221985	0.0103519	-0.0167625	0.0490723	1.09741	-0.394775	0.838918	0.138213	0.429365	-0.304564	-9.20503	-0.270937	6.71033	-0.00236534	0.00977923	-0.0179351	1.01611	0.334473	-0.270508	0.101368	-0.112414	-0.0287089	-0.98806	2.28356	0.434877	10.3019	0.0409326	0.0236122	-0.0156717	-0.568115	0.045166	-0.915039	0.245986	-0.0517822	0.0297043	-0.967433	0.97789	-0.980101	11.0198	0.0158484	0.0141779	-0.0134251	-0.541992	0.0888672	-1.01782	-0.0102348	-0.0514442	-0.0769437	-0.995655	1.10144	1.5599	10.4073	-0.00217099	0.00228727	-0.0178531	-0.541992	-0.192871	-1.03809	-0.0545903	0.90896	-0.150121	-0.385065	-6.46745	0.50409	-6.59824	-0.00621838	0.0151131	0.00245604	0.992676	-0.0410156	0.560303	-0.0287819	-0.0076199	0.0180853	-0.999393	0.173851	-0.252766	9.80793	-0.00134311	0.00551786	0.00111135	-0.394775	0.162842	-1.02515	
21	-0.198998	-0.2156	0.0669439	0.953643	-4.20054	2.34172	9.81961	0.0114852	-0.00575817	-0.00755421	0.114502	-0.060791	-1.12598	0.00483357	0.192328	0.00973875	-0.981271	-3.81386	-0.151184	9.32079	-0.0128369	0.00279248	-0.0201815	0.236328	0.134766	-1.03613	0.133782	0.209723	-0.268704	-0.930546	-3.36238	5.9363	8.14115	-0.0232883	0.00652136	0.000671249	-0.0795898	-0.603027	-0.956055	-0.542093	0.327332	-0.228384	-0.73948	-7.215	-0.12755	6.68296	0.0098993	0.00159023	0.00453996	0.689941	-0.325195	-0.791016	0.117612	0.0673966	0.555547	-0.820361	-2.4615	-8.45362	3.61652	-0.00198159	-0.00230723	-0.0137705	0.0512695	1.09961	-0.396973	0.838894	0.138038	0.429554	-0.304442	-9.07269	-0.189985	6.62116	-0.00278693	0.0273625	-0.0140692	1.01611	0.338867	-0.281494	0.101511	-0.112588	-0.0294289	-0.988005	2.38956	0.488351	10.2341	0.0300333	0.0118082	-0.010711	-0.572021	0.0366211	-0.921387	0.246152	-0.0517902	0.0296094	-0.967394	0.958746	-0.923193	11.0166	-0.00480326	0.0215718	-0.0130592	-0.540283	0.095459	-1.01562	-0.0101853	-0.051381	-0.0776263	-0.995606	1.08579	1.65137	10.4181	0.0472592	0.0125124	-0.0165189	-0.544434	-0.188477	-1.03809	-0.0545209	0.909028	-0.150092	-0.384925	-6.50336	0.430164	-6.55918	0.00289758	0.00661737	0.00279363	0.988281	-0.0410156	0.560303	-0.0289514	-0.0077081	0.0179288	-0.99939	0.211494	-0.280333	9.81301	0.00709284	0.00379963	-0.0123986	-0.392578	0.160645	-1.02271	
22	-0.198907	-0.215551	0.0669865	0.95367	-4.1528	2.35347	9.81719	-0.00158081	-0.00451559	-0.00443598	0.116943	-0.0649414	-1.13037	0.00469741	0.192675	0.010311	-0.981197	-3.85031	-0.210936	9.32706	-0.0206765	0.0198939	-0.0213829	0.234375	0.128418	-1.03589	0.133862	0.209637	-0.267834	-0.930805	-3.33272	5.82517	8.12551	-0.0413306	0.00898352	-0.00196489	-0.0817871	-0.596436	-0.956055	-0.542014	0.327212	-0.228162	-0.739659	-7.09008	-0.142444	6.6837	-0.00386621	-0.00805137	0.00542796	0.691895	-0.322998	-0.789062	0.11797	0.0667461	0.557411	-0.819098	-2.3003	-8.84468	3.62955	-0.0879426	0.00100467	-0.0177201	0.046875	1.09741	-0.392334	0.838802	0.137792	0.430112	-0.30402	-9.20571	-0.251438	6.68857	-0.0255401	0.0313397	-0.0137631	1.01392	0.341064	-0.268555	0.101623	-0.112095	-0.0292059	-0.988056	2.29056	0.425368	10.2445	0.00569265	0.0323954	-0.0112478	-0.567871	0.0407715	-0.925781	0.246285	-0.0519698	0.0297811	-0.967345	0.985878	-0.924234	11.1169	-0.00599645	0.0077142	-0.012347	-0.544189	0.0866699	-1.02002	-0.0101862	-0.0513706	-0.0773449	-0.995628	1.07739	1.71887	10.4682	-0.0244456	0.00715379	-0.0157799	-0.549072	-0.188477	-1.03589	-0.0548337	0.908956	-0.15011	-0.385044	-6.5211	0.471937	-6.55987	0.0165877	0.00585524	-0.004188	0.990479	-0.0410156	0.5625	-0.0289766	-0.0077286	0.0182625	-0.999383	0.225908	-0.358459	9.78957	-0.0171148	0.00662972	-0.0011132	-0.390381	0.165283	-1.02734	
23	-0.199018	-0.215634	0.0667508	0.953645	-4.25284	2.32232	9.79861	-0.0110677	-0.0014857	0.00174533	0.112061	-0.0585938	-1.13037	0.00467564	0.192654	0.0105394	-0.981199	-3.82918	-0.226788	9.2906	-0.0137119	0.0139565	-0.0204837	0.22998	0.132812	-1.03613	0.133976	0.209503	-0.26738	-0.930949	-3.39599	5.80405	8.0327	-0.00543706	-0.000483596	-0.00208442	-0.0817871	-0.603027	-0.951416	-0.542204	0.327063	-0.227967	-0.739646	-7.16171	-0.208149	6.681	0.0108147	-0.00124832	-0.00930728	0.689941	-0.327393	-0.786621	0.117845	0.0669758	0.557298	-0.819174	-2.36164	-8.83998	3.67476	0.0127756	0.0270652	-0.0126854	0.0510254	1.104	-0.387939	0.838875	0.137871	0.429935	-0.304034	-9.13518	-0.217762	6.63888	0.0159079	0.00377077	-0.011313	1.01147	0.343262	-0.275146	0.101721	-0.111659	-0.0294844	-0.988087	2.30279	0.460681	10.28	0.0328545	0.0212572	-0.0135695	-0.561279	0.0388184	-0.923584	0.246325	-0.051937	0.029989	-0.96733	0.943861	-0.938818	11.0689	-0.00152876	0.017926	-0.0162107	-0.538086	0.095459	-1.01099	-0.0102709	-0.0514692	-0.0765767	-0.995681	1.09407	1.53023	10.4063	-0.024668	0.00390527	-0.0163303	-0.541992	-0.193115	-1.03345	-0.0546725	0.909008	-0.14994	-0.38501	-6.52646	0.38834	-6.56261	-0.000493808	0.0152958	-0.00390472	0.990479	-0.0410156	0.5625	-0.0289198	-0.00768041	0.0181483	-0.999387	0.223107	-0.33906	9.78145	0.00505784	0.00630983	0.000280826	-0.396973	0.160645	-1.02271	
24	-0.199078	-0.215552	0.0666281	0.953659	-4.1999	2.2949	9.81543	-0.0113357	-0.00834087	0.00228605	0.112061	-0.0585938	-1.13257	0.00466936	0.19263	0.0104741	-0.981205	-3.8172	-0.215899	9.30068	-0.00308268	0.0133081	-0.0179167	0.234375	0.126221	-1.03345	0.133846	0.209421	-0.267449	-0.930966	-3.36129	5.83786	8.11573	0.00540778	-0.00422413	-0.00758072	-0.0773926	-0.598633	-0.956055	-0.542345	0.327066	-0.227955	-0.739545	-7.14763	-0.169489	6.7273	0.0057069	0.00514703	-0.0113694	0.69165	-0.318604	-0.795654	0.117361	0.0671871	0.556448	-0.819804	-2.39291	-8.73182	3.51867	0.0442071	0.0161241	-0.0194362	0.0488281	1.104	-0.392578	0.838896	0.13778	0.42999	-0.303938	-9.18343	-0.127197	6.61624	-0.00753357	0.0160425	-0.0120892	1.01611	0.338867	-0.274902	0.101742	-0.111832	-0.0294542	-0.988066	2.26963	0.463151	10.3339	0.0116578	-0.00104552	-0.0130086	-0.567871	0.0388184	-0.923584	0.246365	-0.0519572	0.0300954	-0.967315	0.961309	-0.963229	11.0235	-0.00429894	0.0172379	-0.0145754	-0.544189	0.0888672	-1.02002	-0.0102404	-0.0514679	-0.076528	-0.995686	1.08952	1.53583	10.4177	0.00167289	0.00695191	-0.0132273	-0.548828	-0.195312	-1.04028	-0.0547791	0.909012	-0.149953	-0.38498	-6.52903	0.408004	-6.58459	0.0121553	0.0119429	-0.00252787	0.988281	-0.0388184	0.555664	-0.0289198	-0.00768041	0.0181483	-0.999387	0.223107	-0.33906	9.78145	0.00505784	0.00630983	0.000280826	-0.396973	0.160645	-1.02271	
25	-0.19926	-0.215632	0.0664611	0.953615	-4.19	2.23654	9.82318	-0.00408417	0.00415956	0.00625219	0.114258	-0.0585938	-1.13037	0.00458874	0.192508	0.0103698	-0.98123	-3.84844	-0.202363	9.32613	-0.00907455	0.0106806	-0.0188545	0.234375	0.130615	-1.03369	0.133787	0.209351	-0.267369	-0.931014	-3.38565	5.94349	8.14215	-0.00987655	-0.00175868	-0.00549805	-0.0795898	-0.60083	-0.958252	-0.542513	0.32704	-0.22816	-0.73937	-7.17764	-0.236195	6.70646	0.0201793	0.0146974	0.00316349	0.691895	-0.322998	-0.789062	0.117435	0.0668743	0.556218	-0.819975	-2.35494	-8.53781	3.64829	-0.00709225	-0.0125476	-0.0144816	0.0532227	1.104	-0.396973	0.838721	0.137905	0.430472	-0.303682	-9.26178	-0.126037	6.70722	0.0124389	0.01678	-0.0154435	1.01392	0.33667	-0.272705	0.101842	-0.111341	-0.0297219	-0.988103	2.27834	0.442868	10.3055	0.036425	0.0256523	-0.0117661	-0.565674	0.0407715	-0.923584	0.246512	-0.0518564	0.0298171	-0.967292	0.913198	-0.912515	11.0684	0.00652134	0.0114703	-0.0162481	-0.537842	0.0910645	-1.01562	-0.0102669	-0.0514238	-0.0767093	-0.995674	1.06746	1.61756	10.4202	0.00583156	0.00985011	-0.0196712	-0.541992	-0.192871	-1.03589	-0.0548972	0.908966	-0.149986	-0.385061	-6.54792	0.366377	-6.66286	0.00566593	0.00284458	-0.000165304	0.988037	-0.0344238	0.560059	-0.0288719	-0.00748766	0.0179769	-0.999393	0.117244	-0.292997	9.86731	0.00495666	0.00811387	-0.00680488	-0.397217	0.165039	-1.02734	
26	-0.199169	-0.215713	0.0665836	0.953607	-4.26307	2.30105	9.80425	0.00892318	-0.00487123	-0.00465388	0.116699	-0.0605469	-1.13452	0.00451674	0.192413	0.0105639	-0.981247	-3.8584	-0.192344	9.32926	-0.0167042	0.0107413	-0.0228542	0.234131	0.132812	-1.03369	0.133691	0.209139	-0.26695	-0.931196	-3.31055	5.8229	8.15474	-0.0218687	-0.00316403	-0.00400982	-0.0795898	-0.594238	-0.960693	-0.542414	0.326967	-0.228298	-0.739433	-7.09944	-0.135587	6.76253	0.000509962	0.00330559	0.00782328	0.694336	-0.325195	-0.788818	0.117459	0.0670542	0.55689	-0.8195	-2.43517	-8.89199	3.52163	0.0702665	-0.00433248	-0.00468668	0.0490723	1.09937	-0.387939	0.83876	0.137712	0.430464	-0.303675	-9.24432	-0.219944	6.61741	-0.00971452	0.00767985	-0.0213339	1.02026	0.338867	-0.268555	0.101915	-0.111397	-0.0297452	-0.988089	2.26102	0.482707	10.2674	0.00300115	0.0111289	-0.012139	-0.569824	0.0388184	-0.927734	0.246422	-0.0517311	0.029777	-0.967323	0.958321	-0.954108	11.0139	0.00407055	0.012937	-0.0128566	-0.539795	0.0866699	-1.01074	-0.0103306	-0.0513787	-0.0769225	-0.995659	1.07234	1.59417	10.4273	0.0226029	0.00725698	-0.0181125	-0.539551	-0.190674	-1.03369	-0.0546964	0.908898	-0.149993	-0.385247	-6.48785	0.42955	-6.55859	-0.00715384	0.00581725	0.00868109	0.990479	-0.0388184	0.560059	-0.0289501	-0.00754676	0.0182801	-0.999385	0.151677	-0.375645	9.77787	0.00371007	0.00178249	-0.00546305	-0.390381	0.160889	-1.02515	
27	-0.199093	-0.215634	0.0667954	0.953626	-4.19066	2.31282	9.79979	0.00895184	-0.00811518	-0.000441867	0.112305	-0.0627441	-1.13037	0.00477173	0.192393	0.0105806	-0.981249	-3.83189	-0.232336	9.29937	-0.0072592	0.0145647	-0.00470416	0.23877	0.128418	-1.03589	0.133988	0.20933	-0.266718	-0.931177	-3.38342	5.84328	8.12235	-0.00499211	0.0145824	0.0044485	-0.0773926	-0.59668	-0.958496	-0.542357	0.326999	-0.228328	-0.73945	-7.14682	-0.172436	6.67671	-0.000103199	0.00907939	0.00617418	0.687744	-0.325195	-0.793213	0.117408	0.0669557	0.556036	-0.820095	-2.39052	-8.5124	3.54662	0.0817786	-0.00721374	-0.0237382	0.0512695	1.09961	-0.399414	0.838786	0.137514	0.430536	-0.303589	-9.12308	-0.161801	6.56707	-0.00853804	0.0167571	-0.0129724	1.01367	0.343262	-0.268555	0.101975	-0.11144	-0.0297369	-0.988078	2.27721	0.457132	10.2446	0.0149405	0.00974912	-0.00996786	-0.567627	0.0366211	-0.919189	0.246495	-0.0516808	0.0296675	-0.96731	0.980732	-0.924953	11.1004	0.0123823	0.0185216	-0.0112448	-0.541992	0.0888672	-1.01538	-0.0103131	-0.0513781	-0.0770976	-0.995645	1.085	1.67153	10.482	0.0197717	0.00673143	-0.0154369	-0.551025	-0.197754	-1.03125	-0.0546628	0.908875	-0.150064	-0.385278	-6.52298	0.372608	-6.5557	0.00311569	0.00876311	0.00687549	0.990479	-0.0410156	0.555664	-0.0289674	-0.00779419	0.0180464	-0.999387	0.199457	-0.34097	9.80157	0.00312235	0.00365718	-0.00332569	-0.394775	0.162842	-1.02051	
28	-0.199165	-0.21563	0.0668997	0.953604	-4.16948	2.34136	9.79973	0.000702358	-0.00334895	0.00339007	0.112305	-0.060791	-1.13037	0.00473743	0.192319	0.0102838	-0.981267	-3.82269	-0.152576	9.29678	0.00854186	0.0138911	-0.0182396	0.227783	0.130615	-1.03369	0.134003	0.209276	-0.266824	-0.931156	-3.3857	5.7856	8.13722	0.0111052	-0.00241586	-0.0022232	-0.0795898	-0.60083	-0.960693	-0.542434	0.327024	-0.228627	-0.73929	-7.14761	-0.158767	6.69941	0.0171685	0.015768	-0.00517083	0.689941	-0.325195	-0.793213	0.117702	0.0669448	0.556394	-0.819811	-2.30013	-8.76209	3.66232	-0.0511521	0.0183058	-0.00322576	0.0512695	1.09961	-0.396973	0.838904	0.13726	0.430507	-0.303419	-9.21879	-0.268148	6.68105	-0.00389639	0.00455196	-0.0129063	1.01587	0.341064	-0.272949	0.101978	-0.111623	-0.0304232	-0.988036	2.30617	0.468271	10.2937	0.03739	0.003807	-0.0175692	-0.565674	0.0388184	-0.929932	0.246517	-0.0516465	0.0296806	-0.967306	0.971214	-0.970407	11.0302	0.0139037	0.0195718	-0.015372	-0.544434	0.095459	-1.01782	-0.0103274	-0.051412	-0.0768529	-0.995662	1.08863	1.62773	10.4398	-0.0109356	0.00495847	-0.016953	-0.544189	-0.190674	-1.04248	-0.0545211	0.908832	-0.150154	-0.385365	-6.5419	0.472952	-6.59196	-0.010311	0.00894534	0.00680887	0.99707	-0.0388184	0.560303	-0.0289009	-0.00803127	0.0179689	-0.999388	0.21819	-0.314074	9.81672	0.00763545	-0.00148214	-0.00288807	-0.388184	0.163086	-1.02271	
29	-0.199377	-0.215655	0.0668466	0.953558	-4.16509	2.31354	9.80818	-0.00306388	-0.00178982	0.00755851	0.116455	-0.0539551	-1.13892	0.00480924	0.192161	0.00965787	-0.981304	-3.81821	-0.239115	9.44261	0.00201528	0.00624448	-0.00878178	0.236572	0.128418	-1.03125	0.13397	0.209203	-0.266813	-0.931181	-3.33995	5.92115	8.15753	-0.0121609	0.00126488	-0.00143215	-0.0817871	-0.592041	-0.960693	-0.542536	0.327102	-0.228784	-0.739132	-7.18619	-0.16455	6.70539	0.00652618	0.0117755	-0.00213721	0.694336	-0.325195	-0.791016	0.117698	0.0669303	0.556628	-0.819654	-2.38917	-8.73346	3.58085	0.0124273	-0.0033306	-0.0174115	0.046875	1.09741	-0.394775	0.838976	0.137141	0.430458	-0.303342	-9.13242	-0.224627	6.6322	-0.00163726	0.0133666	-0.0131299	1.01392	0.338867	-0.272705	0.101901	-0.111556	-0.0310072	-0.988033	2.27494	0.485788	10.2471	0.0306649	0.00640753	-0.0134987	-0.565674	0.0388184	-0.925537	0.246544	-0.0515992	0.0295493	-0.967306	0.970368	-0.962801	11.0277	9.29166e-05	0.0139056	-0.0162443	-0.538086	0.095459	-1.02026	-0.0104268	-0.0514196	-0.0766641	-0.995676	1.11213	1.52839	10.424	0.00514424	0.00733002	-0.0192186	-0.541992	-0.188477	-1.04028	-0.0544328	0.908828	-0.150289	-0.385334	-6.50955	0.387636	-6.55696	0.0114609	0.0140249	0.00660983	0.988037	-0.0366211	0.555664	-0.0289133	-0.00800456	0.0176684	-0.999394	0.2065	-0.274147	9.84183	0.00573489	0.0154246	-0.00496048	-0.399414	0.162842	-1.02295	
30	-0.19936	-0.215828	0.0667438	0.95353	-4.2197	2.32853	9.82188	0.000517828	0.00338559	-0.00685914	0.112305	-0.0605469	-1.13257	0.0048077	0.192043	0.0103687	-0.98132	-3.85826	-0.188536	9.3139	-0.0409838	-0.0171448	-0.0281592	0.22998	0.132812	-1.03613	0.134077	0.209204	-0.266421	-0.931277	-3.33398	5.89817	8.1472	-0.031736	0.00221165	-0.00223735	-0.0817871	-0.594238	-0.956299	-0.542503	0.327124	-0.228819	-0.739136	-7.18341	-0.114612	6.66631	-0.00101553	0.00624789	0.00246632	0.692139	-0.325195	-0.793213	0.117851	0.0671457	0.555589	-0.820319	-2.40235	-8.57178	3.69048	0.0346207	0.0120664	-0.00697212	0.0490723	1.10181	-0.394775	0.839043	0.137284	0.430333	-0.303271	-9.15906	-0.215157	6.70552	0.00754924	0.00911507	-0.0101627	1.01611	0.33667	-0.268555	0.101795	-0.112547	-0.031196	-0.987926	2.16755	0.481483	10.3093	0.0145447	-0.0518683	-0.0170061	-0.572021	0.0366211	-0.927734	0.24671	-0.051524	0.0292997	-0.967275	0.928264	-0.967591	11.0481	0.0302003	0.0189873	-0.0124473	-0.539795	0.0888672	-1.01538	-0.0104117	-0.0513324	-0.0773232	-0.995629	1.07994	1.6616	10.4583	0.033276	0.00874467	-0.0168846	-0.541992	-0.188477	-1.03589	-0.0543467	0.9088	-0.150373	-0.385379	-6.49876	0.456363	-6.61977	0.00325053	0.0112923	0.00357412	0.990234	-0.0366211	0.555664	-0.0290081	-0.00781373	0.017856	-0.999389	0.171249	-0.288125	9.80208	-0.00490446	0.0164792	-0.00574404	-0.388184	0.163086	-1.02515	
31	-0.199658	-0.215922	0.0666405	0.953453	-4.20817	2.247	9.79473	-0.00517193	0.00387728	0.0115462	0.112061	-0.0563965	-1.13037	0.00492602	0.191858	0.0101049	-0.981358	-3.80553	-0.21548	9.40582	-0.00230729	0.0215608	-0.0176289	0.22998	0.130615	-1.03613	0.134062	0.209306	-0.266181	-0.931325	-3.51817	5.78411	8.08156	0.0143975	0.00680061	-0.00738154	-0.0817871	-0.594238	-0.963135	-0.54249	0.327152	-0.228714	-0.739166	-7.15884	-0.253121	6.65655	-0.000593457	0.0038617	-0.00348862	0.689941	-0.325195	-0.79541	0.117673	0.0670048	0.556874	-0.819484	-2.38488	-8.80288	3.59022	-0.0709488	0.0186758	-0.0256062	0.0534668	1.09961	-0.387939	0.838868	0.137348	0.430451	-0.30356	-9.17871	-0.195749	6.67619	0.00867162	0.0130147	-0.0194964	1.01611	0.338867	-0.268555	0.101756	-0.110776	-0.0287319	-0.988205	2.46761	0.541723	10.1477	-0.119154	0.164018	-0.000772345	-0.561523	0.0410156	-0.923584	0.246825	-0.0514129	0.0290276	-0.96726	0.970135	-0.8459	11.0934	0.00260701	0.0130118	-0.0143676	-0.539795	0.0866699	-1.01538	-0.0104545	-0.051348	-0.0774528	-0.995618	1.09332	1.66131	10.4521	0.0062706	0.00493047	-0.0194793	-0.548828	-0.195312	-1.03589	-0.054383	0.90881	-0.150387	-0.385344	-6.53023	0.487412	-6.60905	0.00692286	0.0138029	0.00017267	0.992676	-0.0388184	0.560303	-0.0289585	-0.00787346	0.0176206	-0.999394	0.186806	-0.304067	9.78913	0.0119123	0.00212636	-0.0013948	-0.396973	0.160645	-1.02271	
32	-0.199571	-0.215966	0.0666286	0.953462	-4.23458	2.30383	9.81348	0.00189069	-0.00106031	-0.0076143	0.114502	-0.0627441	-1.13672	0.00482315	0.191937	0.0101453	-0.981343	-3.81553	-0.147038	9.3016	-0.0100849	0.0217155	-0.0268292	0.23877	0.130615	-1.02905	0.133749	0.2091	-0.266681	-0.931273	-3.35235	5.86723	8.10873	0.0417753	-0.021103	-0.0111088	-0.0817871	-0.596436	-0.960693	-0.542637	0.327135	-0.22885	-0.739023	-7.20473	-0.201393	6.66634	0.0176194	0.0119304	-0.00997118	0.691895	-0.322998	-0.789062	0.117721	0.0670993	0.556695	-0.819591	-2.43263	-8.84875	3.56467	0.0170928	0.00992662	-0.00822613	0.0490723	1.09961	-0.390137	0.838843	0.137453	0.430434	-0.303604	-9.11828	-0.219882	6.65681	0.0131536	0.015556	-0.0159146	1.01611	0.33667	-0.2771	0.101909	-0.110538	-0.0285527	-0.988221	2.04485	0.421223	10.2641	0.00440535	0.0334768	-0.00246374	-0.565918	0.045166	-0.927979	0.246837	-0.0514707	0.0292063	-0.967248	0.965845	-0.916443	11.021	-0.0122246	0.0158239	-0.015355	-0.540039	0.0932617	-1.01318	-0.01049	-0.0513514	-0.0773325	-0.995627	1.09096	1.65366	10.432	-0.00436014	0.00657777	-0.0183294	-0.546631	-0.190674	-1.03809	-0.054244	0.908838	-0.150343	-0.385317	-6.52883	0.44191	-6.56103	-0.00387063	0.00768551	0.000440549	0.990479	-0.0410156	0.560303	-0.0288897	-0.00798476	0.0175955	-0.999396	0.20953	-0.277497	9.82576	0.00315838	0.000374979	0.00154755	-0.390381	0.163086	-1.02271	
33	-0.199531	-0.215934	0.0665991	0.95348	-4.2149	2.31565	9.78074	-0.00215141	-0.00607582	0.00262576	0.114258	-0.0563965	-1.13037	0.00493529	0.191866	0.00995658	-0.981358	-3.85183	-0.164853	9.33773	-0.00613469	0.0121435	-0.0104705	0.230225	0.124023	-1.03101	0.133849	0.209073	-0.266253	-0.931387	-3.28073	5.83234	8.25099	-0.0416928	0.0261642	0.00435212	-0.0776367	-0.590088	-0.958496	-0.542589	0.327112	-0.228785	-0.739088	-7.10487	-0.135092	6.74186	-0.0135072	-0.00726931	0.0102569	0.689697	-0.320801	-0.795654	0.117551	0.0673751	0.55588	-0.820147	-2.31783	-8.55515	3.68646	0.00491387	0.0244946	-0.0165525	0.046875	1.10181	-0.394775	0.83889	0.137383	0.430326	-0.303661	-9.22838	-0.205267	6.68054	0.00311097	0.00465223	-0.0198488	1.01587	0.341064	-0.268555	0.10185	-0.111082	-0.0287383	-0.988161	2.30557	0.442957	10.3138	0.00589032	0.0372837	-0.0157221	-0.559082	0.0366211	-0.92334	0.246896	-0.051472	0.0291733	-0.967234	0.935339	-0.943955	11.0678	0.00296572	0.0176861	-0.015814	-0.540283	0.095459	-1.01782	-0.0105087	-0.0513761	-0.077054	-0.995647	1.05193	1.57438	10.4649	0.00306861	0.0046993	-0.0153662	-0.539551	-0.190674	-1.03809	-0.0542135	0.908801	-0.150274	-0.385433	-6.48246	0.475474	-6.60753	-0.00649194	0.00833573	-0.000318415	0.990479	-0.0388184	0.557861	-0.0287551	-0.00810308	0.0176289	-0.999398	0.169665	-0.324718	9.7824	0.00638624	0.00470717	-0.000304518	-0.392578	0.163086	-1.02734	
34	-0.199507	-0.215793	0.0665532	0.95352	-4.23347	2.30196	9.8041	-0.00246013	-0.00757053	-0.00148971	0.112549	-0.0649414	-1.13257	0.00498955	0.192008	0.0101589	-0.981328	-3.84316	-0.228188	9.30671	-0.0171174	0.0237684	-0.0180613	0.236572	0.126221	-1.03125	0.134233	0.209391	-0.26586	-0.931373	-3.51354	5.91218	8.0581	-0.000467491	0.00654676	-0.00386946	-0.0795898	-0.594238	-0.960693	-0.542448	0.327111	-0.228306	-0.739341	-7.23364	-0.289814	6.63596	-0.00238769	0.00104424	-0.00305239	0.689941	-0.325195	-0.786621	0.117474	0.0675262	0.555915	-0.820121	-2.44236	-8.76382	3.4675	0.0209044	0.00720329	-0.0123657	0.0490723	1.10181	-0.392578	0.838975	0.137353	0.430123	-0.303726	-9.13633	-0.133127	6.65028	0.00197315	0.0088026	-0.0129891	1.02051	0.33667	-0.268555	0.101919	-0.111377	-0.0285039	-0.988127	2.24931	0.449353	10.3334	0.00365105	-0.0071089	-0.0106589	-0.567871	0.0407715	-0.925781	0.246989	-0.0514883	0.0289641	-0.967216	0.97278	-0.937331	11.0252	0.0161108	0.0160909	-0.0128979	-0.537842	0.0932617	-1.02026	-0.0105075	-0.0514684	-0.0770642	-0.995641	1.08946	1.61047	10.4319	0.0108568	0.00303226	-0.0151897	-0.544189	-0.195312	-1.03809	-0.0540231	0.908839	-0.150271	-0.385371	-6.52495	0.3858	-6.59779	0.00159147	0.0136022	0.00226917	0.992676	-0.0410156	0.560303	-0.0289124	-0.00793896	0.0174618	-0.999398	0.191902	-0.253753	9.86881	0.00692363	0.0112232	-0.00817764	-0.390137	0.158691	-1.02271	
35	-0.199595	-0.215684	0.0664723	0.953532	-4.17637	2.27585	9.80174	-0.00280806	-0.00427058	0.00456435	0.116455	-0.0583496	-1.13477	0.00494877	0.192074	0.0102557	-0.981314	-3.82502	-0.172153	9.29199	-0.0160273	0.0167105	-0.0199064	0.22998	0.128418	-1.04077	0.133989	0.209149	-0.265708	-0.931506	-3.32927	5.77647	8.18318	-0.0021459	0.000461158	-0.00262683	-0.0817871	-0.596436	-0.958496	-0.542553	0.327054	-0.228681	-0.739173	-7.13335	-0.142513	6.74446	0.0131863	0.0144193	0.00159446	0.689697	-0.322998	-0.793457	0.117699	0.0673303	0.555489	-0.820394	-2.30879	-8.49916	3.72347	-0.0070934	-0.00884097	-0.00911435	0.0512695	1.09741	-0.394775	0.838796	0.137492	0.430527	-0.303586	-9.16853	-0.238262	6.66122	0.00369679	0.0336576	-0.016401	1.01611	0.338867	-0.270752	0.101921	-0.111763	-0.0289373	-0.988071	2.29688	0.433229	10.2198	0.0374872	0.00326719	-0.0160533	-0.572266	0.0407715	-0.923584	0.247069	-0.0515933	0.0291254	-0.967185	0.957693	-0.943259	11.0335	-0.0170065	0.0130374	-0.0147135	-0.541992	0.0888672	-1.01074	-0.0104757	-0.0515361	-0.0770111	-0.995642	1.09117	1.61133	10.3998	0.00113479	0.00499035	-0.0150794	-0.548828	-0.190918	-1.03589	-0.0544189	0.908802	-0.150421	-0.385344	-6.47832	0.429511	-6.59346	0.0239524	0.008966	7.32132e-05	0.992676	-0.0366211	0.564697	-0.0290293	-0.00763245	0.0175733	-0.999395	0.157023	-0.342248	9.7909	-0.00414222	0.0239038	-0.00962733	-0.390381	0.163086	-1.02515	
36	-0.199536	-0.215657	0.0665197	0.953547	-4.22712	2.30671	9.80828	0.00512421	-0.00770516	-0.00604146	0.114258	-0.0585938	-1.12598	0.00498665	0.192044	0.0103476	-0.981319	-3.84402	-0.232582	9.29425	-0.0137565	0.00481908	-0.0195615	0.232178	0.126221	-1.03589	0.134061	0.209114	-0.265195	-0.931649	-3.3513	5.84902	8.14165	-0.0381632	0.0116608	-0.000339659	-0.079834	-0.590088	-0.965332	-0.542484	0.326991	-0.228524	-0.7393	-7.16046	-0.139999	6.69725	-0.00730791	-0.00265824	0.00490845	0.685303	-0.325195	-0.791016	0.117625	0.0672804	0.556847	-0.819487	-2.43522	-8.93025	3.59091	-0.036687	0.0215516	-0.0190821	0.0512695	1.09961	-0.392334	0.838763	0.137595	0.430506	-0.303658	-9.19927	-0.211721	6.63993	0.00641216	0.00951743	-0.0174313	1.01611	0.33667	-0.274902	0.102003	-0.112259	-0.0291702	-0.987999	2.26368	0.41151	10.296	0.0288324	-0.0117718	-0.0112112	-0.565674	0.0410156	-0.927734	0.247114	-0.0516459	0.0293485	-0.967164	0.947195	-0.963559	11.0527	0.0065806	0.0171497	-0.0124235	-0.540283	0.0976562	-1.01099	-0.0106913	-0.0514693	-0.0769826	-0.995646	1.08995	1.60338	10.425	0.00119883	0.00552942	-0.0169006	-0.541992	-0.190674	-1.03125	-0.0543248	0.908813	-0.150262	-0.385395	-6.54982	0.481968	-6.59797	0.000729765	0.0108172	-0.00380603	0.990479	-0.0410156	0.557861	-0.0289641	-0.00750746	0.0177885	-0.999394	0.183837	-0.326823	9.78967	-0.00431009	0.0064895	0.00249688	-0.390137	0.158691	-1.02271	
37	-0.199436	-0.215586	0.0666235	0.953577	-4.15376	2.30831	9.82445	0.00439176	-0.00648463	-0.0028079	0.109863	-0.0563965	-1.12817	0.00506743	0.192086	0.0103041	-0.981311	-3.80673	-0.203207	9.33772	-0.0111587	0.0176688	-0.0126945	0.236328	0.13501	-1.03394	0.134177	0.209061	-0.264821	-0.931751	-3.34171	5.72439	8.11783	-0.00568996	0.00531997	0.00194035	-0.0817871	-0.598633	-0.965088	-0.542471	0.326889	-0.228566	-0.739342	-7.09708	-0.200854	6.67676	0.00995658	0.00541267	0.00443957	0.694092	-0.318604	-0.793457	0.117624	0.0674047	0.555472	-0.82041	-2.30887	-8.60845	3.6119	0.0688612	-0.00386096	-0.00833453	0.0556641	1.09741	-0.387939	0.838762	0.137365	0.43061	-0.303619	-9.17525	-0.228753	6.60441	-0.00686772	0.0158271	-0.0214635	1.01636	0.334473	-0.268311	0.101966	-0.11284	-0.0296946	-0.987921	2.36349	0.491442	10.2223	0.0214366	-0.00158059	-0.0153271	-0.570068	0.0407715	-0.915039	0.24722	-0.0516258	0.0291859	-0.967143	0.993936	-0.912778	11.0332	-0.000547487	0.0169826	-0.0140375	-0.539795	0.0888672	-1.01318	-0.0106907	-0.0514429	-0.0770455	-0.995642	1.08834	1.59068	10.4393	0.0078803	0.00806455	-0.0159612	-0.546631	-0.188477	-1.04028	-0.0541987	0.90879	-0.150192	-0.385495	-6.51828	0.412207	-6.54691	-0.00631708	0.00682824	0.000435309	0.992432	-0.0366211	0.555664	-0.0288374	-0.00794703	0.0176045	-0.999397	0.18226	-0.336602	9.80776	0.0149894	-0.0084087	0.000419791	-0.397217	0.165039	-1.02515	
38	-0.19944	-0.215638	0.066566	0.953568	-4.19126	2.3086	9.79004	-0.00342468	0.00136521	0.000995414	0.112305	-0.0629883	-1.12817	0.00512929	0.192307	0.0104662	-0.981266	-3.85082	-0.214009	9.32129	-0.0135633	0.0269039	-0.0204615	0.236572	0.128418	-1.03369	0.134185	0.209138	-0.265441	-0.931556	-3.37175	5.87469	8.18839	0.0259481	0.00536204	0.0038458	-0.0817871	-0.60083	-0.958252	-0.542457	0.326921	-0.228644	-0.739314	-7.14346	-0.151603	6.71771	0.00299652	0.00588331	0.00136887	0.687744	-0.325195	-0.791016	0.117594	0.0673692	0.555666	-0.820285	-2.44221	-8.65631	3.57258	-0.02253	0.00785058	-0.0210965	0.0446777	1.09961	-0.394775	0.838869	0.137279	0.430488	-0.303535	-9.1677	-0.211629	6.64279	-0.00249081	0.00556663	-0.00867774	1.01587	0.343262	-0.270752	0.10201	-0.112766	-0.0293358	-0.987936	2.32238	0.435899	10.2563	0.00365356	0.0235749	-0.0122771	-0.572266	0.0407715	-0.919189	0.247336	-0.0516381	0.0292663	-0.96711	0.968291	-0.94264	11.0439	-0.00203677	0.0183595	-0.0113	-0.541992	0.0866699	-1.01782	-0.0107044	-0.051441	-0.0771948	-0.995631	1.09439	1.67415	10.4541	0.00783799	0.00672403	-0.0173761	-0.549072	-0.186279	-1.0293	-0.0540925	0.908767	-0.150311	-0.385517	-6.57105	0.383127	-6.56036	0.00403052	0.0150255	0.00646952	0.994873	-0.0410156	0.560303	-0.0289167	-0.00792877	0.0175189	-0.999397	0.24736	-0.305903	9.82353	-0.000387013	0.016139	-0.0108316	-0.394531	0.15625	-1.01807	
39	-0.199542	-0.215751	0.0665018	0.953526	-4.21568	2.29504	9.80057	-0.00100354	0.0010093	0.00179173	0.114502	-0.0605469	-1.13037	0.00511338	0.192182	0.0103513	-0.981291	-3.80231	-0.22584	9.32005	-0.000794923	0.00716027	-0.0132581	0.22998	0.132812	-1.03613	0.134278	0.209131	-0.265288	-0.931588	-3.36776	5.8867	8.16012	-0.00938883	0.00330103	-0.00134421	-0.079834	-0.594238	-0.963135	-0.542579	0.326943	-0.228587	-0.739232	-7.19265	-0.173362	6.71033	-0.000368308	0.00625462	-0.00618761	0.692139	-0.325195	-0.791016	0.117931	0.0672715	0.55606	-0.819978	-2.36813	-8.75972	3.60644	-0.00473535	-0.000338167	-0.00437914	0.0556641	1.09741	-0.392334	0.838924	0.13734	0.430522	-0.303306	-9.14023	-0.168717	6.64888	0.0105859	0.0202962	-0.00622183	1.01416	0.334473	-0.272705	0.101957	-0.112655	-0.0296903	-0.987943	2.31804	0.429351	10.2492	0.039829	0.0135197	-0.0177085	-0.565674	0.0388184	-0.921387	0.247339	-0.0515068	0.0290708	-0.967122	0.989776	-0.986092	11.0422	0.0116952	0.0259724	-0.0188467	-0.544189	0.0910645	-1.01562	-0.0107122	-0.0514471	-0.076921	-0.995651	1.08852	1.60354	10.4463	-0.00564025	0.00468975	-0.0159449	-0.544189	-0.193115	-1.03345	-0.054133	0.908788	-0.150447	-0.38541	-6.50263	0.460825	-6.60748	0.00786263	0.0170247	0.00238679	0.99292	-0.0432129	0.560303	-0.028983	-0.00779576	0.0173991	-0.999398	0.139932	-0.289638	9.80627	0.00617366	0.0127045	-0.00285962	-0.390137	0.158691	-1.02051	
40	-0.199615	-0.215791	0.0664917	0.953502	-4.22999	2.29827	9.81669	-0.00108633	-0.000285946	0.00529471	0.114502	-0.0605469	-1.13452	0.00516371	0.192206	0.010281	-0.981287	-3.83555	-0.173093	9.32911	-0.00341141	0.0171422	-0.0136101	0.231934	0.13501	-1.03394	0.134291	0.209099	-0.265112	-0.931643	-3.34912	5.80103	8.18263	-0.0146964	0.00398397	-0.00295908	-0.0776367	-0.594482	-0.958496	-0.542586	0.32693	-0.228445	-0.739277	-7.12056	-0.227336	6.70853	-0.0016317	-0.00377992	0.000842002	0.691895	-0.322998	-0.793457	0.117824	0.0672168	0.556256	-0.819865	-2.39156	-8.7428	3.65193	-0.020821	0.0136426	-0.0170109	0.0510254	1.104	-0.392578	0.838939	0.13733	0.430546	-0.303236	-9.19501	-0.219739	6.66619	-8.00792e-06	0.0158061	-0.0119365	1.01611	0.338867	-0.270752	0.101916	-0.112739	-0.0290905	-0.987956	2.28214	0.476244	10.2462	-0.0157477	0.0226248	-0.0132703	-0.567627	0.0366211	-0.916992	0.24737	-0.0514406	0.0289125	-0.967123	0.925118	-0.922305	11.0305	0.0169671	0.0190429	-0.0140822	-0.533203	0.0869141	-1.01782	-0.0107698	-0.0515072	-0.077003	-0.995641	1.07486	1.56953	10.4094	0.0200308	0.00378857	-0.0187901	-0.544189	-0.193115	-1.03809	-0.0540484	0.908854	-0.150454	-0.385261	-6.51056	0.441171	-6.59281	-0.000639374	0.0124837	0.00050399	0.994873	-0.0410156	0.564697	-0.0288956	-0.00769063	0.0174357	-0.999401	0.161662	-0.336989	9.79161	-0.00236045	0.0169983	0.00321115	-0.390137	0.158691	-1.02271	
41	-0.199715	-0.215808	0.0665622	0.953473	-4.21876	2.27392	9.80675	0.00480501	-0.00482298	0.00157115	0.112305	-0.060791	-1.13037	0.0052014	0.192134	0.0101865	-0.981302	-3.84135	-0.186366	9.28695	-0.0037919	0.00985656	-0.0155254	0.232178	0.128418	-1.03125	0.134457	0.209264	-0.265133	-0.931576	-3.40676	5.88092	8.11581	0.00399143	0.00878295	0.00205562	-0.0861816	-0.589844	-0.958496	-0.542569	0.32699	-0.228368	-0.739287	-7.23043	-0.221704	6.72005	-0.00565105	0.00592328	-0.000200058	0.6875	-0.322998	-0.793457	0.117861	0.0673767	0.555933	-0.820066	-2.40908	-8.76537	3.55558	0.0313038	0.0128638	-0.00576619	0.046875	1.10181	-0.399414	0.838997	0.13731	0.43041	-0.303279	-9.138	-0.17688	6.64531	0.0118611	0.00807267	-0.0166038	1.01611	0.334473	-0.274902	0.101964	-0.112669	-0.0293265	-0.987952	2.31604	0.446733	10.2812	0.0373067	0.00980455	-0.0168226	-0.568115	0.0473633	-0.923584	0.247287	-0.0512889	0.0290142	-0.967149	0.959578	-0.934465	11.0027	-0.00132823	0.0151489	-0.0128476	-0.537842	0.0932617	-1.01562	-0.0107753	-0.0515297	-0.0771402	-0.995629	1.07688	1.62379	10.4167	0.0165614	0.00490831	-0.0168797	-0.544189	-0.193115	-1.03345	-0.0540234	0.908849	-0.150519	-0.385251	-6.54528	0.399206	-6.6057	0.00391221	0.0119103	0.0055982	0.986084	-0.0412598	0.555664	-0.0288226	-0.0076078	0.0172992	-0.999406	0.160967	-0.316279	9.80501	0.0114795	0.0155864	0.00197496	-0.394775	0.162842	-1.02051	
42	-0.199677	-0.215829	0.066725	0.953465	-4.19958	2.31008	9.78604	0.00737498	-0.00400907	-0.000223335	0.116455	-0.0561523	-1.13257	0.00519055	0.19213	0.0101104	-0.981304	-3.84587	-0.151663	9.34644	-0.0100988	0.0168774	-0.0187543	0.236572	0.130615	-1.03125	0.134202	0.209028	-0.265283	-0.931623	-3.32142	5.7288	8.18767	0.00943351	-0.00605334	-0.00334205	-0.0754395	-0.592285	-0.956299	-0.54262	0.326995	-0.228857	-0.739096	-7.10257	-0.216216	6.65845	0.0244521	0.0169101	0.00498101	0.689697	-0.322998	-0.789062	0.117639	0.0673491	0.555548	-0.82036	-2.40455	-8.63865	3.63433	0.0191784	0.00535491	-0.0154685	0.0490723	1.09741	-0.392334	0.839026	0.137118	0.4305	-0.303156	-9.24214	-0.213407	6.66735	-0.0117411	0.0138913	-0.0178538	1.01367	0.341064	-0.2771	0.101994	-0.112682	-0.0293807	-0.987946	2.32046	0.447063	10.2602	0.0201189	0.0113552	-0.0146041	-0.572021	0.0366211	-0.916992	0.247353	-0.0511729	0.0287969	-0.967144	0.950676	-0.906636	11.0336	0.0138395	0.0204269	-0.0154949	-0.537842	0.0910645	-1.01318	-0.0107806	-0.0514841	-0.0772378	-0.995624	1.08503	1.62356	10.4429	0.008164	0.00771153	-0.0164866	-0.548828	-0.193115	-1.04028	-0.0540257	0.908841	-0.15055	-0.385259	-6.51881	0.461134	-6.62181	0.00234424	0.00521342	0.00120824	0.990479	-0.0388184	0.5625	-0.0288713	-0.0077842	0.0173021	-0.999403	0.134151	-0.327733	9.78664	0.0063773	-0.00453024	-0.00639498	-0.399658	0.167236	-1.02515	
43	-0.199596	-0.215794	0.0667687	0.953487	-4.23355	2.33786	9.80836	0.00227843	-0.00944321	-0.00347708	0.114258	-0.0541992	-1.13037	0.00526889	0.192103	0.0102669	-0.981307	-3.81598	-0.236632	9.31092	-0.0143327	0.0127281	-0.0141996	0.234375	0.130615	-1.03125	0.134451	0.209292	-0.265494	-0.931468	-3.35438	5.87831	8.18123	0.00892933	0.0149202	0.00852876	-0.0795898	-0.596436	-0.960693	-0.542516	0.32689	-0.228932	-0.739195	-7.2247	-0.132937	6.73051	-0.00442016	0.00729811	0.00728438	0.687744	-0.325195	-0.793213	0.117593	0.067299	0.556117	-0.819985	-2.35408	-8.7396	3.65324	-0.0271869	0.00714844	-0.00986737	0.0534668	1.09741	-0.392334	0.839051	0.137012	0.430375	-0.303311	-9.09461	-0.244544	6.6385	0.00435522	0.00653077	-0.0194114	1.01807	0.341064	-0.274902	0.102101	-0.112861	-0.0291358	-0.987921	2.29225	0.441912	10.2796	0.0136096	-0.000590726	-0.00799849	-0.567871	0.0388184	-0.921387	0.247452	-0.0512733	0.0288015	-0.967114	0.958795	-0.916891	11.0458	-0.000970591	0.0138422	-0.0137946	-0.544678	0.0976562	-1.01562	-0.010854	-0.0514792	-0.0773602	-0.995614	1.06099	1.63941	10.4477	0.0151361	0.00498061	-0.0189623	-0.546631	-0.190674	-1.03809	-0.0538939	0.908825	-0.150631	-0.385283	-6.52285	0.406483	-6.58274	-0.00160411	0.00525106	0.0055563	0.994873	-0.0388184	0.560303	-0.0290035	-0.00813652	0.0171191	-0.9994	0.250293	-0.249826	9.83114	-0.0029781	-0.000304646	-0.00939051	-0.392578	0.163086	-1.02271	
44	-0.199701	-0.215696	0.0666804	0.953493	-4.15674	2.29638	9.80013	-0.00474036	-0.00265563	0.00353611	0.114502	-0.0605469	-1.13257	0.0052482	0.192144	0.00994133	-0.981302	-3.86078	-0.181104	9.34627	0.00531052	0.0188742	-0.0158523	0.234375	0.128418	-1.02881	0.134377	0.209224	-0.265381	-0.931526	-3.38087	5.7701	8.11795	0.00445711	-0.00244898	-0.00375406	-0.0817871	-0.596436	-0.956055	-0.542572	0.326921	-0.228933	-0.73914	-7.12729	-0.159753	6.6343	0.0102447	0.00542605	-0.00496392	0.689697	-0.322998	-0.784668	0.117613	0.0674224	0.555179	-0.820608	-2.43046	-8.70435	3.61832	0.0499183	0.00807491	-0.00591941	0.0490723	1.10181	-0.392578	0.839108	0.136819	0.430429	-0.303165	-9.18848	-0.244959	6.67067	-0.00195365	0.0158659	-0.0118389	1.01392	0.338867	-0.270752	0.102152	-0.113204	-0.0297709	-0.987858	2.31618	0.462774	10.2453	0.0361396	-0.00296487	-0.0131543	-0.565674	0.0407715	-0.925537	0.24753	-0.0512262	0.0289012	-0.967093	0.981583	-0.974147	11.0473	-4.92882e-05	0.0190272	-0.0127726	-0.542236	0.0932617	-1.01562	-0.0108476	-0.0515081	-0.0773325	-0.995615	1.0934	1.63709	10.4268	0.00161886	0.00653538	-0.0164975	-0.553467	-0.195557	-1.03125	-0.0540487	0.908844	-0.150751	-0.385169	-6.51495	0.505565	-6.56249	0.00976352	0.00931627	0.00167988	0.988281	-0.0410156	0.551025	-0.0290641	-0.00804234	0.0172999	-0.999395	0.216074	-0.309429	9.79929	0.00139078	0.0133436	-0.00604241	-0.399414	0.160645	-1.02271	
45	-0.199817	-0.215821	0.06663	0.953444	-4.24258	2.27714	9.79818	0.000672969	0.000174397	0.00470639	0.110107	-0.0627441	-1.13257	0.00535583	0.192149	0.00971667	-0.981303	-3.72384	-0.197645	9.37092	-0.00908671	0.0220531	-0.0102557	0.236328	0.132812	-1.03613	0.134361	0.209159	-0.265403	-0.931537	-3.34282	5.8712	8.17491	0.00105546	0.00460464	-0.0010242	-0.079834	-0.594238	-0.967529	-0.542662	0.326884	-0.228875	-0.739108	-7.19529	-0.144172	6.71637	0.00143327	0.00282778	-0.00119742	0.689697	-0.320801	-0.793457	0.117424	0.0671384	0.555993	-0.820107	-2.33526	-8.57916	3.65284	-0.038633	0.00423005	-0.0198602	0.0510254	1.10181	-0.392578	0.839064	0.136836	0.430619	-0.303009	-9.16365	-0.259173	6.6452	-0.00601377	0.0204684	-0.0127576	1.01807	0.343262	-0.272949	0.102202	-0.113498	-0.0299093	-0.987815	2.41725	0.447984	10.2546	0.0150109	0.000363964	-0.0152921	-0.569824	0.0366211	-0.92334	0.247616	-0.0511855	0.0287751	-0.967077	0.963283	-0.936201	11.0025	0.0104276	0.0178272	-0.0120109	-0.544434	0.0932617	-1.01562	-0.0108942	-0.0515432	-0.0770546	-0.995634	1.0915	1.5485	10.3884	-0.00468366	0.00549676	-0.0183651	-0.541992	-0.192871	-1.04248	-0.0541422	0.908866	-0.150749	-0.385106	-6.55034	0.410712	-6.58903	0.0132674	0.00997754	-0.00281423	0.988281	-0.0410156	0.564697	-0.0290641	-0.00804234	0.0172999	-0.999395	0.216074	-0.309429	9.79929	0.00139078	0.0133436	-0.00604241	-0.399414	0.160645	-1.02271	
46	-0.199649	-0.215835	0.0667484	0.953467	-4.13698	2.33738	9.79134	0.00521153	-0.00542297	-0.00622261	0.116455	-0.0585938	-1.12598	0.00531934	0.191868	0.010175	-0.981354	-3.85415	-0.143027	9.33037	-0.0163601	-0.012069	-0.0244808	0.22998	0.128418	-1.03125	0.134487	0.209085	-0.264906	-0.931677	-3.33684	5.74265	8.15768	-0.0356997	0.00354002	0.000820599	-0.0773926	-0.59668	-0.956055	-0.5427	0.326848	-0.228697	-0.739152	-7.10973	-0.169951	6.68644	-0.00217705	-0.00089116	0.00151308	0.689697	-0.322998	-0.786865	0.117324	0.0673364	0.555758	-0.820265	-2.44281	-8.87284	3.62495	0.0566973	0.0220926	-0.010575	0.0512695	1.09961	-0.387939	0.839153	0.136843	0.430505	-0.302922	-9.19296	-0.195565	6.65293	-0.000155443	0.00505844	-0.0124969	1.01831	0.334473	-0.272705	0.102139	-0.11468	-0.0303082	-0.987673	2.34068	0.470392	10.2262	0.0379454	-0.0521199	-0.0193297	-0.567871	0.0407715	-0.917236	0.247647	-0.0514409	0.0290169	-0.967048	0.975232	-0.917857	11.0444	-0.0156811	0.00827576	-0.0159375	-0.538086	0.095459	-1.01318	-0.0108794	-0.0514662	-0.0773489	-0.995615	1.1032	1.67724	10.4507	0.0124826	0.0113254	-0.0147218	-0.541992	-0.190674	-1.03809	-0.0541664	0.908881	-0.150751	-0.385065	-6.50633	0.429007	-6.61369	0.00865676	0.0124924	0.00184252	0.992676	-0.0410156	0.560303	-0.0290588	-0.0075855	0.0174032	-0.999397	0.190488	-0.289512	9.7877	-0.0020972	0.0114405	-0.000646771	-0.387939	0.158691	-1.02051	
47	-0.199863	-0.216061	0.0667326	0.953373	-4.22336	2.28307	9.82568	0.00199663	0.00518752	0.00548834	0.114258	-0.0583496	-1.13257	0.00543446	0.191872	0.0100275	-0.981354	-3.77899	-0.200351	9.4343	0.000915794	0.0152141	-0.00634184	0.232178	0.130615	-1.03833	0.134227	0.209151	-0.265166	-0.931625	-3.45219	5.90803	8.10591	0.024411	-0.0030846	-0.0160066	-0.079834	-0.592285	-0.960693	-0.542647	0.326961	-0.228651	-0.739155	-7.2073	-0.224414	6.66091	0.00109919	0.0138368	0.00036879	0.694336	-0.325195	-0.786621	0.117241	0.0671596	0.555552	-0.82043	-2.43166	-8.60088	3.51532	-0.0350407	-0.00595749	-0.0217846	0.0490723	1.09741	-0.396973	0.839043	0.137032	0.430626	-0.302971	-9.17963	-0.124116	6.66389	0.0112856	0.0297391	-0.0169614	1.01392	0.33667	-0.266357	0.102155	-0.112425	-0.0274756	-0.988013	2.28938	0.38207	10.0946	-0.0887036	0.153381	0.000544809	-0.570312	0.045166	-0.927979	0.247667	-0.0515427	0.0293626	-0.967027	0.968607	-0.943193	10.9953	-0.00612856	0.018668	-0.019983	-0.540283	0.095459	-1.01562	-0.0109635	-0.0513975	-0.0769358	-0.99565	1.10241	1.65096	10.41	-0.014112	0.00938178	-0.020092	-0.546631	-0.192871	-1.04468	-0.0541474	0.90885	-0.15068	-0.385169	-6.56083	0.445764	-6.61822	0.00201592	0.00277898	-0.00354433	0.988525	-0.0454102	0.5625	-0.0290058	-0.00758266	0.0175085	-0.999397	0.129083	-0.281996	9.83742	-0.00382001	0.00427783	0.000144772	-0.388184	0.163086	-1.02515	
48	-0.199776	-0.21608	0.066727	0.953387	-4.20537	2.32324	9.81633	0.00179326	-0.00334764	-0.00743403	0.116455	-0.0583496	-1.13037	0.00520779	0.192141	0.0101043	-0.981302	-3.83801	-0.185206	9.30021	-0.00546423	0.0185619	-0.0185552	0.234375	0.128418	-1.03369	0.133949	0.208902	-0.265301	-0.931683	-3.32172	5.88445	8.19285	0.0110533	-0.0216425	-0.014864	-0.0817871	-0.592041	-0.960693	-0.542534	0.327012	-0.229227	-0.739036	-7.13753	-0.111047	6.79691	0.0144372	0.0215024	0.010767	0.689697	-0.322998	-0.79126	0.117454	0.0668736	0.555831	-0.820234	-2.48863	-8.77253	3.58835	-0.0314839	-0.0166385	-0.0133979	0.0466309	1.104	-0.396973	0.838919	0.13715	0.430865	-0.30292	-9.22046	-0.210807	6.62683	0.00567237	0.0373867	-0.0143619	1.01807	0.343262	-0.272949	0.102229	-0.11285	-0.0279743	-0.987943	2.36358	0.442286	10.3189	0.020026	0.00598035	-0.0170127	-0.568115	0.045166	-0.921387	0.247564	-0.0516408	0.0296549	-0.96704	0.933608	-0.983515	11.0808	-0.00122695	0.0153951	-0.0194397	-0.540039	0.0910645	-1.01318	-0.0110242	-0.0513247	-0.0766127	-0.995678	1.08783	1.60435	10.4763	-0.0205707	0.0118826	-0.0199988	-0.544189	-0.190674	-1.03125	-0.0542384	0.908801	-0.150684	-0.38527	-6.53922	0.407454	-6.60499	0.00947676	0.000757594	-0.00188559	0.988281	-0.0388184	0.557861	-0.0289206	-0.00777681	0.017648	-0.999396	0.169328	-0.30594	9.84526	-0.00961016	-0.0074568	0.00255777	-0.39502	0.165039	-1.02295	
49	-0.199796	-0.216168	0.0666727	0.953366	-4.31429	2.33545	9.79952	-0.00197493	-0.00249621	-0.00105292	0.118652	-0.0583496	-1.13037	0.00521635	0.192214	0.0100043	-0.981288	-3.87893	-0.175779	9.31734	-0.00908003	0.0178289	-0.017427	0.234131	0.13501	-1.03149	0.134131	0.208801	-0.26465	-0.931864	-3.34437	5.73638	8.21811	-0.0352934	0.0161969	0.00495485	-0.0817871	-0.596436	-0.958496	-0.542311	0.327157	-0.228932	-0.739227	-7.1174	-0.182782	6.65367	-0.0184682	0.00106749	0.00432766	0.689941	-0.325195	-0.788818	0.117679	0.0669309	0.55631	-0.819873	-2.47849	-8.8116	3.55638	-0.00254958	0.0158646	-0.0171486	0.0510254	1.10181	-0.392578	0.838866	0.137269	0.430828	-0.303064	-9.18923	-0.29425	6.59874	0.021399	0.00355802	-0.01918	1.01392	0.341064	-0.274902	0.102331	-0.112752	-0.0277768	-0.987949	2.25641	0.420991	10.2835	0.0184953	0.00373088	-0.0111877	-0.565918	0.045166	-0.925781	0.247794	-0.0516754	0.0293812	-0.966987	0.951689	-0.958023	11.0395	0.0158514	0.0166466	-0.010172	-0.542236	0.0932617	-1.01562	-0.011007	-0.0513815	-0.0775858	-0.9956	1.0509	1.77921	10.4784	0.0571353	0.0032836	-0.0154712	-0.537354	-0.192871	-1.03345	-0.0541648	0.90873	-0.150729	-0.38543	-6.48672	0.373734	-6.5661	-0.00394367	0.0108288	0.00591028	0.988281	-0.0388184	0.557861	-0.0289539	-0.00779611	0.0178923	-0.99939	0.266806	-0.372277	9.76862	-0.00681839	0.0152471	-0.00717698	-0.394775	0.160645	-1.02515	
50	-0.199752	-0.215876	0.0665636	0.953449	-4.18722	2.29529	9.79995	-0.00572015	-0.0154981	-0.00175379	0.118408	-0.052002	-1.13037	0.00530636	0.192344	0.0101501	-0.981261	-3.81754	-0.258732	9.32723	-0.0125173	0.02164	-0.0150214	0.234375	0.128418	-1.02661	0.134436	0.209127	-0.265097	-0.93162	-3.42744	5.84649	8.1141	0.0345714	0.0123651	0.0100325	-0.0776367	-0.592285	-0.963135	-0.542306	0.327225	-0.228897	-0.739212	-7.16057	-0.21244	6.59507	-0.00307661	0.00871131	-0.00103115	0.689697	-0.320801	-0.793457	0.117768	0.0670091	0.555506	-0.820399	-2.50288	-8.81166	3.47798	0.0761659	-0.00115726	-0.0065396	0.0490723	1.09961	-0.394775	0.839051	0.137222	0.430423	-0.303149	-9.13323	-0.164306	6.62322	0.00360045	0.00168031	-0.0103333	1.01367	0.341064	-0.2771	0.102363	-0.113037	-0.0279261	-0.987909	2.30124	0.365935	10.2722	0.0251828	-0.0114817	-0.0135967	-0.567871	0.0407715	-0.919189	0.247856	-0.0516346	0.0291366	-0.966981	0.976286	-0.979869	10.983	0.0233426	0.0151137	-0.0127525	-0.546387	0.0888672	-1.01318	-0.0110176	-0.0514627	-0.0773948	-0.99561	1.09361	1.71854	10.4161	-0.00961371	-0.000329815	-0.0155609	-0.537109	-0.19751	-1.03345	-0.0539846	0.908765	-0.150851	-0.385327	-6.5152	0.469599	-6.57893	-0.0103082	0.0176141	0.00458551	0.98584	-0.0390625	0.555664	-0.0290673	-0.00747077	0.0177664	-0.999392	0.193094	-0.318175	9.78869	0.00500746	0.0177542	-0.0062098	-0.388184	0.163086	-1.02051	
51	-0.199904	-0.215724	0.0664479	0.95346	-4.17394	2.27282	9.8135	-0.00752694	-0.00621684	0.00590341	0.112061	-0.0585938	-1.12817	0.00536956	0.19241	0.0101974	-0.981247	-3.80073	-0.201055	9.33018	-0.0112938	0.0157804	-0.0143861	0.234375	0.130615	-1.03833	0.134418	0.20912	-0.265681	-0.931458	-3.34379	5.80772	8.20289	0.0321529	0.00471335	0.00387996	-0.0817871	-0.596436	-0.962891	-0.542382	0.327358	-0.229012	-0.739062	-7.19985	-0.157985	6.76001	0.00125253	0.0123976	-0.00223473	0.685303	-0.325195	-0.793213	0.118151	0.0667719	0.555006	-0.820701	-2.22521	-8.37403	3.70725	-0.0453602	-0.0101341	-0.0114442	0.0490723	1.09961	-0.394775	0.839035	0.137191	0.430644	-0.302894	-9.18241	-0.239168	6.63971	-0.00824163	0.0255278	-0.0112586	1.02026	0.343262	-0.272949	0.102381	-0.113535	-0.0284152	-0.987836	2.33291	0.47184	10.2749	0.0148803	-0.0153836	-0.0149576	-0.570312	0.045166	-0.919434	0.247941	-0.0515274	0.0288887	-0.966972	0.964482	-0.887359	11.03	-0.00333538	0.0170924	-0.0126284	-0.544189	0.0888672	-1.01318	-0.0110293	-0.0515338	-0.077138	-0.995627	1.09482	1.60248	10.3986	-0.00718239	0.00278965	-0.0171932	-0.544189	-0.193115	-1.03589	-0.0540325	0.908797	-0.150952	-0.385204	-6.55171	0.437609	-6.55631	0.00828787	0.0114193	0.0026618	0.988037	-0.0366211	0.5625	-0.0288387	-0.00731361	0.0178357	-0.999398	0.177177	-0.316317	9.81441	-0.00714458	0.0166253	0.0078451	-0.392578	0.160645	-1.02051	
52	-0.199931	-0.215682	0.066522	0.953459	-4.17619	2.30034	9.8163	0.0033905	-0.00547722	-0.00101822	0.114258	-0.0563965	-1.13257	0.00541445	0.192576	0.0101083	-0.981215	-3.80154	-0.180019	9.32075	-0.00305602	0.014605	-0.0165558	0.243164	0.126221	-1.03125	0.134534	0.209223	-0.26551	-0.931467	-3.32845	5.81686	8.17384	-0.0222775	0.00864511	0.00195391	-0.079834	-0.590088	-0.958496	-0.542329	0.327448	-0.228956	-0.739078	-7.17111	-0.152476	6.6562	-0.00317278	0.0072627	0.00389143	0.6875	-0.325195	-0.788818	0.118202	0.066611	0.556598	-0.819628	-2.34632	-8.69389	3.69816	-0.154045	0.0160993	-0.0171704	0.0512695	1.09961	-0.394775	0.839128	0.137256	0.430529	-0.30277	-9.15806	-0.197937	6.6667	0.00332477	0.00670334	-0.00889584	1.00977	0.33667	-0.272705	0.102419	-0.114337	-0.029107	-0.98772	2.31606	0.402416	10.2541	0.0696707	-0.0230835	-0.0177593	-0.565918	0.045166	-0.921387	0.247775	-0.0514718	0.0292961	-0.967006	0.986676	-1.00627	11.0073	-0.0139315	0.0150653	-0.0136495	-0.541992	0.0910645	-1.0061	-0.0110483	-0.0515666	-0.0771453	-0.995624	1.10046	1.56916	10.4276	0.0148832	0.00666667	-0.0161402	-0.544434	-0.188477	-1.03809	-0.0538726	0.908792	-0.151082	-0.385187	-6.55412	0.449027	-6.57243	0.00318877	0.014411	0.00910496	0.988037	-0.0366211	0.560059	-0.0288767	-0.00734873	0.0182175	-0.99939	0.199686	-0.293397	9.80164	-0.0196064	0.00668962	-0.00873682	-0.390381	0.165283	-1.02515	
53	-0.199899	-0.215718	0.0665518	0.953455	-4.18482	2.33516	9.80693	0.00131657	-0.00361368	-0.00387463	0.114502	-0.060791	-1.12598	0.00554728	0.192639	0.00993096	-0.981204	-3.83575	-0.157627	9.35064	-0.00637673	0.0203893	-0.0126013	0.234375	0.130615	-1.03369	0.13449	0.209248	-0.265515	-0.931466	-3.36501	5.84866	8.19123	0.00455714	0.00255805	-0.00569821	-0.0817871	-0.592041	-0.956299	-0.542159	0.327638	-0.228946	-0.739121	-7.15724	-0.221761	6.65845	-0.00540654	0.0135359	0.00781583	0.6875	-0.322998	-0.786865	0.118493	0.0667144	0.555225	-0.820508	-2.37578	-8.4595	3.63154	0.042729	-0.00606392	-0.00618385	0.0471191	1.09521	-0.394775	0.839197	0.137123	0.4308	-0.302254	-9.15782	-0.248458	6.62347	-0.0115694	0.0269444	0.000571782	1.01367	0.343262	-0.270752	0.102375	-0.114636	-0.0295194	-0.987677	2.38019	0.455815	10.2172	0.0166452	0.00963576	-0.0162961	-0.578613	0.0407715	-0.919189	0.247797	-0.0514956	0.028192	-0.967032	0.961173	-0.933299	11.1004	0.0546467	0.00296937	-0.0198327	-0.539795	0.0866699	-1.01538	-0.0110728	-0.0514392	-0.0771049	-0.995634	1.10074	1.65564	10.4027	-0.00327966	0.0123168	-0.018392	-0.541992	-0.192871	-1.03589	-0.0537695	0.908809	-0.15108	-0.385161	-6.50885	0.521525	-6.59499	-0.00294275	0.0145123	0.00421155	0.983887	-0.0412598	0.560303	-0.0289467	-0.00720012	0.0181697	-0.99939	0.176751	-0.273181	9.82298	0.00979173	0.0175821	-0.00745767	-0.388184	0.163086	-1.01831	
54	-0.199958	-0.215768	0.0663231	0.953448	-4.20213	2.30687	9.80867	-0.0109626	0.00179453	0.00491825	0.12085	-0.0561523	-1.13257	0.00569545	0.192812	0.0101904	-0.981166	-3.87899	-0.161577	9.32244	-0.0195007	0.0209132	-0.015301	0.236572	0.128418	-1.03125	0.134535	0.209341	-0.265486	-0.931447	-3.36505	5.82008	8.20374	-0.00629206	0.0164636	0.000130867	-0.0817871	-0.592041	-0.958496	-0.541983	0.327716	-0.228818	-0.739256	-7.11663	-0.144013	6.69838	-0.012817	-0.00103673	0.00629717	0.692139	-0.327393	-0.791016	0.118919	0.0662569	0.557185	-0.819154	-2.28752	-8.77628	3.67263	-0.106949	0.00565127	-0.0147057	0.0515137	1.09521	-0.390137	0.839198	0.136921	0.431065	-0.301965	-9.19182	-0.26856	6.65237	-0.0186646	0.0157365	-0.0134384	1.01587	0.341064	-0.270752	0.102361	-0.114657	-0.0293264	-0.987682	2.36098	0.439167	10.2286	-2.51712e-05	0.013466	-0.0140644	-0.572266	0.0407715	-0.917236	0.24779	-0.051459	0.0277481	-0.967048	0.981017	-0.934478	11.0096	0.000929027	0.021053	-0.0161271	-0.544434	0.0932617	-1.01562	-0.0112074	-0.0513309	-0.0769362	-0.995651	1.07033	1.58745	10.4935	0.00830081	0.00975858	-0.0219704	-0.541992	-0.192871	-1.03589	-0.0539044	0.908819	-0.151192	-0.385075	-6.47942	0.489964	-6.55102	0.00665627	0.00447768	-0.000657404	0.988281	-0.0410156	0.560303	-0.028908	-0.0073254	0.0182863	-0.999388	0.244664	-0.367003	9.77264	-0.00665529	0.00400998	0.00131405	-0.390381	0.163086	-1.02515	
55	-0.200106	-0.215826	0.0661439	0.953416	-4.24892	2.25746	9.81799	-0.00359437	-0.00320534	0.00136425	0.116699	-0.0605469	-1.13037	0.00558566	0.192742	0.0101941	-0.981181	-3.83837	-0.201852	9.29309	-0.00830677	0.00946171	-0.0211257	0.236572	0.128418	-1.03125	0.134648	0.209427	-0.265963	-0.931275	-3.37364	5.77342	8.05503	0.0395942	0.00119023	0.00573364	-0.0795898	-0.598633	-0.958252	-0.542014	0.327912	-0.228338	-0.739295	-7.19101	-0.245559	6.63132	-0.0103134	0.00610838	-0.0100546	0.689697	-0.322998	-0.786865	0.118955	0.0663927	0.556637	-0.819511	-2.42245	-8.77868	3.58255	0.0725218	-0.00356899	-0.00803113	0.0490723	1.09741	-0.394775	0.839236	0.13726	0.430819	-0.302055	-9.15584	-0.151983	6.63685	0.0129064	0.00722917	-0.0112193	1.01172	0.338867	-0.270752	0.102317	-0.11416	-0.0295929	-0.987736	2.32556	0.427959	10.2838	0.0292794	0.0147054	-0.0124828	-0.569824	0.0385742	-0.916992	0.247811	-0.0514263	0.0284807	-0.967023	0.952485	-0.96437	11.0724	-0.0280674	0.0240242	-0.0171205	-0.542236	0.0910645	-1.01318	-0.0112111	-0.051321	-0.0770462	-0.995643	1.05868	1.60575	10.464	0.0122922	0.00627101	-0.0153229	-0.539551	-0.195312	-1.03784	-0.0537392	0.908915	-0.151162	-0.384885	-6.5303	0.399489	-6.56861	0.0054702	0.0191584	-0.000168198	0.988281	-0.0432129	0.558105	-0.0286908	-0.00732536	0.0181027	-0.999398	0.168907	-0.281489	9.86279	-0.00257471	0.0076662	0.00493862	-0.390381	0.160889	-1.02051	
56	-0.2001	-0.215767	0.0661879	0.953427	-4.2251	2.24881	9.80466	0.00254691	-0.00994261	0.00016762	0.116455	-0.0563965	-1.12378	0.00558344	0.192685	0.0101275	-0.981193	-3.85435	-0.188299	9.31983	-0.00353754	0.00994248	-0.0171974	0.234375	0.128418	-1.03125	0.134473	0.209425	-0.26648	-0.931153	-3.38914	5.90429	8.14185	0.0437634	-0.00214078	-0.00383748	-0.0839844	-0.596436	-0.958496	-0.54214	0.327943	-0.228446	-0.739155	-7.20078	-0.197246	6.65751	0.0125732	0.0134912	-0.00966978	0.689941	-0.325195	-0.788818	0.118964	0.0663216	0.556017	-0.819936	-2.41876	-8.5935	3.54848	0.0579696	-0.00537804	-0.0181559	0.0510254	1.10181	-0.394775	0.839269	0.137299	0.430779	-0.302001	-9.18481	-0.18216	6.63797	0.00489003	0.0117863	-0.00946841	1.01416	0.334473	-0.268311	0.102372	-0.114175	-0.0298755	-0.98772	2.33925	0.441274	10.2927	0.0272746	0.0114271	-0.0115194	-0.570068	0.0407715	-0.923584	0.247825	-0.0513141	0.0284286	-0.967027	0.953479	-1.04014	10.9884	0.00974597	0.0247301	-0.0154961	-0.537598	0.0888672	-1.01318	-0.011185	-0.0513791	-0.0771951	-0.995628	1.06625	1.63416	10.4297	0.0175604	0.00198134	-0.0139182	-0.541748	-0.19751	-1.03564	-0.0536559	0.908932	-0.151154	-0.38486	-6.54488	0.46086	-6.62228	-0.00265629	0.014495	0.00137254	0.986084	-0.0432129	0.558105	-0.0285775	-0.00727272	0.0181091	-0.999401	0.16411	-0.301173	9.79173	0.000244491	0.0129446	0.00522336	-0.390381	0.163086	-1.02734	
57	-0.19995	-0.215764	0.066389	0.953446	-4.21758	2.30953	9.80393	0.0101088	-0.00725031	-0.00705338	0.118652	-0.0583496	-1.13037	0.00564013	0.192581	0.0102009	-0.981212	-3.81284	-0.218978	9.33082	-0.0161171	0.00885227	-0.0150875	0.236572	0.128418	-1.02881	0.134471	0.209416	-0.266923	-0.931029	-3.32243	5.97748	8.29294	0.00355288	0.00905461	0.00297954	-0.0776367	-0.596436	-0.965332	-0.542229	0.327975	-0.228441	-0.739077	-7.20839	-0.156511	6.72357	-0.00191499	0.00387884	0.00174405	0.682861	-0.321045	-0.784668	0.119194	0.0661037	0.556687	-0.819465	-2.34992	-8.61733	3.63419	-0.0693339	-0.00101804	-0.0107439	0.046875	1.09961	-0.392578	0.839157	0.137528	0.43092	-0.30201	-9.16577	-0.218239	6.63809	0.00862652	0.0163247	-0.00659121	1.01831	0.334473	-0.268311	0.102393	-0.114507	-0.0299662	-0.987677	2.33935	0.456379	10.307	0.0200783	-0.0146844	-0.0135057	-0.572021	0.0385742	-0.916992	0.248021	-0.0511436	0.0279807	-0.966999	0.973255	-0.841154	11.0425	-0.00131573	0.0149944	-0.012203	-0.535645	0.0888672	-1.01318	-0.0112088	-0.0513639	-0.0772861	-0.995622	1.06597	1.60294	10.3885	0.00396808	0.00774649	-0.017297	-0.544189	-0.195312	-1.03345	-0.0537027	0.908936	-0.15122	-0.384817	-6.52146	0.370488	-6.59165	0.0116534	0.0108433	0.00302726	0.988281	-0.0432129	0.558105	-0.0286868	-0.00721318	0.0179929	-0.9994	0.19341	-0.271545	9.82231	0.00201801	0.0146706	-0.0141157	-0.392822	0.165283	-1.02734	
58	-0.199893	-0.215805	0.0664862	0.953441	-4.15451	2.34046	9.78795	0.00173703	-0.00195066	0.000503456	0.116699	-0.0627441	-1.13452	0.0056973	0.192437	0.0104061	-0.981238	-3.83289	-0.176808	9.30598	-0.0179535	0.00984752	-0.0172824	0.234375	0.128418	-1.03125	0.134803	0.209479	-0.266094	-0.931204	-3.38021	5.82304	8.14776	-0.0331542	0.0124307	0.00257303	-0.0839844	-0.589844	-0.954102	-0.54203	0.327932	-0.22806	-0.73936	-7.18615	-0.169538	6.66699	-0.0133482	-0.00676751	0.00758046	0.689453	-0.318604	-0.79126	0.119166	0.0659141	0.557169	-0.819157	-2.36726	-8.82725	3.66423	0.0101802	0.00785984	-0.0244489	0.0490723	1.09937	-0.385498	0.839149	0.137605	0.430961	-0.301938	-9.19331	-0.192776	6.69321	-0.000711687	0.0140555	-0.0141393	1.02051	0.334473	-0.274902	0.102378	-0.115169	-0.0300341	-0.9876	2.34189	0.471322	10.2703	0.00997171	-0.0106634	-0.0159352	-0.574219	0.0385742	-0.925537	0.24806	-0.0512885	0.0284489	-0.966968	0.974383	-0.966695	11.0355	-0.00605135	0.0173826	-0.0148702	-0.537842	0.0888672	-1.01782	-0.0112468	-0.0513741	-0.0774475	-0.995608	1.07931	1.67401	10.4415	0.00614585	0.00526686	-0.0181438	-0.544189	-0.195312	-1.03345	-0.0540248	0.908877	-0.151343	-0.384862	-6.50703	0.519736	-6.60207	0.0191935	0.00665802	-0.0022207	0.986084	-0.0410156	0.5625	-0.0288364	-0.00713744	0.0181842	-0.999393	0.185224	-0.32499	9.79904	-0.0114033	0.0101437	-0.00488058	-0.388184	0.163086	-1.02515	
59	-0.199955	-0.215813	0.0664163	0.953432	-4.23933	2.31029	9.80077	-0.00310558	-0.00109723	0.00168385	0.116455	-0.0563965	-1.12817	0.00574298	0.192224	0.0103871	-0.981279	-3.84452	-0.173311	9.35492	-0.00471187	0.0041808	-0.0155921	0.234131	0.132812	-1.02905	0.134828	0.209408	-0.26598	-0.931249	-3.38225	5.75977	8.08146	0.00988595	0.000405974	0.000800117	-0.0820312	-0.592041	-0.965332	-0.541961	0.327923	-0.227999	-0.739433	-7.13956	-0.210976	6.66982	0.00463738	0.0108345	0.00198376	0.689697	-0.320801	-0.79126	0.119004	0.0660435	0.556424	-0.819676	-2.38023	-8.63547	3.6063	0.0343959	0.00785337	-0.0120278	0.0490723	1.09741	-0.396973	0.839203	0.137793	0.430739	-0.302019	-9.12859	-0.218719	6.61368	0.0135745	0.00607148	-0.0136186	1.01392	0.33667	-0.272705	0.102427	-0.116557	-0.0307861	-0.987408	2.36985	0.465592	10.2916	0.0469051	-0.0565807	-0.0165731	-0.576172	0.036377	-0.914795	0.248166	-0.0512461	0.0283672	-0.966945	0.950184	-0.941302	11.0776	0.0150315	0.0144003	-0.012221	-0.535645	0.0888672	-1.00854	-0.0113156	-0.0514023	-0.0772021	-0.995625	1.0617	1.56412	10.4597	0.00407605	0.00597522	-0.0182862	-0.544189	-0.190918	-1.02905	-0.0538502	0.908932	-0.151159	-0.384829	-6.51227	0.413424	-6.57615	-0.00183714	0.0150348	-0.00296675	0.986084	-0.0412598	0.555664	-0.0287441	-0.00716611	0.0180587	-0.999398	0.200637	-0.310661	9.79626	0.00524184	0.00614271	-2.64958e-05	-0.397217	0.162842	-1.02271	
60	-0.199917	-0.215676	0.0663553	0.953475	-4.18801	2.26639	9.78833	-0.00311314	-0.0105745	-0.00352508	0.114258	-0.0563965	-1.12817	0.00577424	0.192067	0.00989458	-0.981315	-3.82072	-0.145649	9.23046	0.011963	0.00145938	-0.0171174	0.234375	0.126221	-1.03125	0.134657	0.209432	-0.266701	-0.931062	-3.33435	5.8748	8.19536	0.0226269	0.00445695	-0.000365867	-0.0817871	-0.596436	-0.956055	-0.542002	0.328228	-0.228192	-0.739208	-7.18151	-0.158907	6.69379	-0.00205871	0.0215872	-0.00480615	0.694092	-0.318604	-0.789062	0.118912	0.065912	0.556818	-0.819432	-2.33854	-8.697	3.55412	-0.0420798	0.00643254	-0.0200837	0.046875	1.09961	-0.390137	0.839271	0.137725	0.430708	-0.301906	-9.17484	-0.203155	6.60716	0.00129732	0.01392	-0.0123021	1.01831	0.338867	-0.268555	0.102457	-0.118028	-0.0311971	-0.987218	2.38429	0.480784	10.2283	0.0207445	-0.0449434	-0.0116323	-0.580566	0.0344238	-0.919189	0.248323	-0.0511376	0.0283053	-0.966912	0.975921	-0.901281	11.0139	0.005605	0.0186547	-0.0134344	-0.542236	0.095459	-1.01318	-0.0112685	-0.0515104	-0.0776592	-0.995585	1.08176	1.62797	10.379	0.0280906	0.00269025	-0.0144994	-0.539551	-0.195312	-1.03125	-0.0539796	0.908961	-0.151171	-0.384737	-6.51154	0.471015	-6.59276	0.0058003	0.0145316	-0.00312848	0.992676	-0.0410156	0.560303	-0.0286245	-0.00720479	0.018062	-0.999401	0.168972	-0.326338	9.82713	0.00269249	0.00686594	0.00176462	-0.394775	0.162842	-1.02515	
61	-0.199902	-0.215696	0.0663591	0.953473	-4.25023	2.28604	9.81076	0.00267112	-0.00283569	-0.00220258	0.116455	-0.0583496	-1.13257	0.00589995	0.192082	0.0102245	-0.981308	-3.86751	-0.190635	9.21553	-0.0356535	0.03309	-0.0171885	0.22998	0.128418	-1.03369	0.134928	0.209725	-0.267038	-0.93086	-3.42999	5.95058	8.17272	0.01994	0.0222453	0.0124001	-0.0795898	-0.596436	-0.958496	-0.541925	0.328227	-0.22788	-0.739361	-7.21843	-0.187962	6.70277	-0.0140373	-0.00864268	0.00423885	0.69165	-0.318604	-0.789062	0.118891	0.0657176	0.557017	-0.819315	-2.40887	-8.79016	3.51227	0.00891765	0.00499978	-0.0243795	0.0490723	1.10181	-0.392578	0.839247	0.137834	0.430781	-0.301817	-9.19623	-0.228306	6.62211	-0.00386279	0.0197243	-0.0115953	1.01611	0.338867	-0.272705	0.102451	-0.119347	-0.0318486	-0.987039	2.46163	0.468725	10.299	0.0264342	-0.0466357	-0.0160315	-0.580566	0.036377	-0.916992	0.248444	-0.0511507	0.0284059	-0.966878	0.949481	-0.953103	11.0232	0.00229682	0.0157059	-0.00947879	-0.541992	0.0888672	-1.01318	-0.0112859	-0.0515312	-0.0778485	-0.995569	1.08842	1.6845	10.4045	0.0205624	0.00491317	-0.0179428	-0.541748	-0.195312	-1.03345	-0.0540428	0.908987	-0.151154	-0.384674	-6.52688	0.43774	-6.63517	0.00665689	0.0120892	-0.00310639	0.988281	-0.0388184	0.555664	-0.0285113	-0.00714307	0.0179964	-0.999406	0.170669	-0.30577	9.86214	0.00383602	0.011621	0.00106049	-0.383789	0.169678	-1.02295	
62	-0.19991	-0.215557	0.066354	0.953503	-4.15553	2.32719	9.80852	-0.0049138	-0.0103503	0.00721701	0.118652	-0.0583496	-1.12817	0.00584604	0.191369	0.0103231	-0.981446	-3.75185	-0.155184	9.39069	0.0100121	-0.00696718	-0.0114196	0.225586	0.130615	-1.03125	0.135202	0.209695	-0.266762	-0.930906	-3.34648	5.71303	8.07652	-0.00108505	0.00834714	0.00606507	-0.0817871	-0.598633	-0.960693	-0.541989	0.32805	-0.227568	-0.739489	-7.14536	-0.193197	6.71293	-0.00641976	-0.00647884	-0.00100563	0.6875	-0.320801	-0.795654	0.119093	0.0656309	0.556743	-0.81948	-2.32545	-8.63613	3.67781	-0.012683	0.00639462	-0.0103467	0.0493164	1.09497	-0.387939	0.83921	0.13806	0.430834	-0.301744	-9.16696	-0.183562	6.61668	0.0192868	0.016728	-0.0127189	1.01636	0.334473	-0.268311	0.102262	-0.120546	-0.0317081	-0.986917	2.63159	0.517012	10.1936	-0.0119815	0.00102082	-0.0203825	-0.584961	0.036377	-0.915039	0.248539	-0.0511174	0.0283959	-0.966855	1.00094	-0.943925	11.042	0.00637755	0.0195195	-0.0137612	-0.540283	0.0976562	-1.01318	-0.0114818	-0.0514595	-0.0777923	-0.995574	1.10514	1.58052	10.4223	0.0191393	0.00531752	-0.0158943	-0.541992	-0.190674	-1.04028	-0.05415	0.909054	-0.151199	-0.384484	-6.53763	0.402759	-6.55593	0.0119134	0.0180264	0.00338832	0.992676	-0.0410156	0.560303	-0.0284054	-0.00696553	0.0179599	-0.999411	0.166021	-0.332275	9.78137	0.00182883	0.0159911	-0.00121212	-0.388428	0.16748	-1.02051	
63	-0.199937	-0.215502	0.0663104	0.953513	-4.21541	2.2991	9.79448	0.000878015	-0.00768661	-0.00715702	0.116699	-0.060791	-1.12378	0.00588081	0.191422	0.0100254	-0.981439	-3.81979	-0.194975	9.34617	0.00178393	0.0185317	-0.0138548	0.232178	0.130615	-1.03125	0.135061	0.209767	-0.267799	-0.930613	-3.3144	5.96467	8.15625	0.0467864	-0.00508792	0.00441784	-0.0817871	-0.592041	-0.958496	-0.542016	0.328051	-0.227369	-0.73953	-7.15002	-0.195643	6.65886	-0.00924922	-0.00398584	-0.00411836	0.694092	-0.322998	-0.789062	0.118717	0.065554	0.557294	-0.819166	-2.38464	-8.73484	3.59644	-0.0245577	0.0133482	-0.0215684	0.0490723	1.09741	-0.392334	0.839259	0.138166	0.430664	-0.3018	-9.19826	-0.26468	6.61033	0.0163649	0.00786431	-0.0120799	1.01392	0.33667	-0.270508	0.102297	-0.120178	-0.0306125	-0.986993	2.28771	0.353712	10.2154	0.0292959	-0.024302	-0.0107837	-0.582764	0.036377	-0.908447	0.248644	-0.0511126	0.0284618	-0.966826	0.977252	-0.95901	11.0336	0.00485225	0.0174387	-0.0125852	-0.539795	0.0888672	-1.01074	-0.0114791	-0.0514746	-0.0779182	-0.995564	1.08839	1.69411	10.4717	-0.00635985	0.00661167	-0.0163301	-0.541748	-0.195312	-1.03125	-0.0541085	0.909076	-0.151199	-0.384436	-6.5483	0.455472	-6.63439	0.000100833	0.0153102	-0.00144102	0.990479	-0.0410156	0.5625	-0.0283882	-0.00693057	0.017716	-0.999416	0.221782	-0.301824	9.83413	0.0202594	0.00723322	-0.00484724	-0.397217	0.167236	-1.02051	
64	-0.199855	-0.215449	0.0662758	0.953544	-4.20729	2.31297	9.8101	-0.00216133	-0.00904923	-0.00732248	0.114014	-0.0541992	-1.12598	0.00598135	0.191302	0.00987258	-0.981463	-3.85437	-0.173276	9.31559	0.00216794	0.00485107	-0.00856832	0.22998	0.128418	-1.04077	0.135257	0.209741	-0.267911	-0.930558	-3.27934	5.95786	8.21258	0.00670762	0.00726978	0.0164537	-0.0795898	-0.596436	-0.960693	-0.54197	0.328147	-0.227185	-0.739578	-7.16798	-0.175695	6.75598	-0.0160823	-0.00189826	0.00551394	0.689697	-0.320801	-0.79126	0.118881	0.0655382	0.557093	-0.81928	-2.39638	-8.77368	3.5975	0.0164294	-0.00306481	-0.00501179	0.046875	1.10181	-0.390137	0.839298	0.138293	0.430576	-0.30176	-9.17143	-0.167072	6.61199	0.0123413	0.0102386	-0.00676363	1.01611	0.33667	-0.270508	0.102185	-0.121462	-0.0312488	-0.986828	2.52859	0.506551	10.22	0.0180653	0.000862184	-0.018111	-0.585205	0.0407715	-0.906494	0.248651	-0.0510804	0.0282507	-0.966833	0.943753	-0.918231	11.0523	0.00962234	0.0153849	-0.0171605	-0.535645	0.0888672	-1.01538	-0.0115285	-0.0514855	-0.0777973	-0.995572	1.07167	1.60716	10.4184	-0.00440437	0.00549988	-0.0193931	-0.546387	-0.197754	-1.03125	-0.0541898	0.909106	-0.151274	-0.384326	-6.53201	0.408025	-6.54085	0.0130423	0.01917	0.00216377	0.988281	-0.0432129	0.560303	-0.0284413	-0.00694223	0.0175342	-0.999418	0.212979	-0.32042	9.81264	0.0159483	0.00914721	-0.00828955	-0.392578	0.160645	-1.02515	
65	-0.19996	-0.215313	0.0660595	0.953568	-4.2182	2.28519	9.80424	-0.0112987	-0.00905358	0.00455396	0.114258	-0.0585938	-1.12817	0.00610972	0.191033	0.0097801	-0.981516	-3.79583	-0.209152	9.323	-0.00684723	0.00724041	-0.0131065	0.225586	0.132812	-1.03149	0.135886	0.210202	-0.26758	-0.930457	-3.39865	5.77025	8.07664	-0.00717153	0.0366523	0.0168116	-0.0776367	-0.594482	-0.958496	-0.541876	0.328183	-0.226505	-0.73984	-7.1382	-0.333344	6.62618	-0.00948347	-0.00638172	-0.00142971	0.689697	-0.320801	-0.795654	0.118576	0.0654763	0.557131	-0.819303	-2.30813	-8.6374	3.6323	-0.000392734	0.00895123	-0.0190218	0.0488281	1.10376	-0.385498	0.839449	0.138292	0.430324	-0.301699	-9.16583	-0.238248	6.6078	0.0109442	0.000956607	-0.0114288	1.01831	0.33667	-0.266357	0.102238	-0.122263	-0.0314607	-0.986717	2.45955	0.470273	10.2647	0.0198313	-0.0282549	-0.0123523	-0.591553	0.0385742	-0.906494	0.248806	-0.0509899	0.028031	-0.966804	0.939367	-0.947135	11.0117	0.00744414	0.0198672	-0.0122541	-0.546387	0.0888672	-1.01318	-0.0115143	-0.0515558	-0.0778719	-0.995563	1.07635	1.60313	10.4263	0.00932472	0.00482171	-0.0145059	-0.541992	-0.193115	-1.02905	-0.0540697	0.90916	-0.15132	-0.384197	-6.46309	0.408669	-6.62599	-0.00207624	0.0196651	0.00176975	0.990723	-0.0432129	0.560303	-0.0283642	-0.00670578	0.0174466	-0.999423	0.153635	-0.301768	9.7953	0.00579099	0.0220471	0.000704185	-0.388184	0.163086	-1.02734	
66	-0.20006	-0.21507	0.0659442	0.95361	-4.20167	2.24819	9.8174	-0.00520088	-0.0132548	0.00134568	0.114258	-0.0585938	-1.12817	0.00604324	0.190991	0.00987109	-0.981524	-3.8485	-0.186923	9.3299	-0.0106167	0.0111951	-0.0220867	0.232178	0.128418	-1.03369	0.136064	0.210286	-0.268269	-0.930214	-3.41001	5.91949	8.07174	0.0271427	0.00103013	0.00585337	-0.0751953	-0.598877	-0.953857	-0.541961	0.32821	-0.226551	-0.73975	-7.22189	-0.20141	6.68836	0.00753233	0.0103092	-0.00697408	0.687256	-0.318604	-0.793457	0.11863	0.0655277	0.55703	-0.81936	-2.47213	-8.77558	3.5104	0.0296297	0.00609052	-0.0116138	0.0490723	1.09961	-0.392334	0.839521	0.138728	0.429996	-0.301766	-9.16433	-0.10337	6.65484	0.0220738	0.0106045	-0.00521606	1.01831	0.334473	-0.270508	0.102237	-0.122933	-0.0318196	-0.986622	2.47833	0.41946	10.2571	0.0386562	-0.0431645	-0.0158072	-0.591553	0.0385742	-0.906494	0.248784	-0.0509912	0.0280132	-0.96681	0.954968	-0.922062	11.0621	0.004724	0.0170679	-0.0165357	-0.537598	0.0866699	-1.01538	-0.0115397	-0.0516695	-0.0781342	-0.995536	1.07173	1.64628	10.4245	0.018326	0.00188552	-0.0172548	-0.543945	-0.199951	-1.03564	-0.0541248	0.909219	-0.151394	-0.38402	-6.5105	0.41832	-6.64149	0.011193	0.025531	0.001392	0.992676	-0.0410156	0.5625	-0.0283302	-0.00630929	0.0173757	-0.999428	0.148332	-0.280945	9.8304	0.00532933	0.0231437	-0.00182711	-0.392578	0.160645	-1.02515	
67	-0.200102	-0.214728	0.0660302	0.953672	-4.20712	2.26581	9.82888	0.000884892	-0.0205794	0.00143962	0.112061	-0.0585938	-1.13257	0.00606309	0.191219	0.0100936	-0.981477	-3.79102	-0.149885	9.30696	-0.0177676	0.0320572	-0.0198407	0.234375	0.130615	-1.03125	0.135801	0.210563	-0.269339	-0.929881	-3.2878	5.92224	8.16601	0.0486932	0.0163468	-0.00522954	-0.0817871	-0.60083	-0.953613	-0.541928	0.328296	-0.22658	-0.739728	-7.17027	-0.163814	6.72734	-0.00611241	0.00828948	0.00570175	0.682861	-0.316406	-0.795654	0.118847	0.0651586	0.557374	-0.819124	-2.29171	-8.57217	3.65663	-0.0545584	-0.00896625	-0.016031	0.0466309	1.10376	-0.385498	0.839527	0.138979	0.430049	-0.301558	-9.14674	-0.220455	6.65093	0.00878819	0.0204004	-0.00476184	1.01611	0.338867	-0.266357	0.102355	-0.124373	-0.0323201	-0.986413	2.52269	0.529811	10.2186	0.0132114	-0.0516929	-0.00692969	-0.589111	0.036377	-0.904297	0.24891	-0.0509217	0.0277494	-0.966789	0.974322	-0.955402	11.0019	0.015886	0.0157896	-0.012193	-0.541992	0.0888672	-1.01318	-0.0115857	-0.0517035	-0.0780188	-0.995543	1.09826	1.625	10.4168	-0.00632554	0.00709676	-0.0177119	-0.544189	-0.195312	-1.03125	-0.0542268	0.909433	-0.151378	-0.383503	-6.49288	0.438575	-6.61972	0.00514034	0.017984	-0.00317859	0.983643	-0.034668	0.564697	-0.0281083	-0.00604131	0.0175248	-0.999433	0.142874	-0.28233	9.79431	-0.00827746	0.0179862	0.00696757	-0.385742	0.160889	-1.02515	
68	-0.199936	-0.214446	0.0660918	0.953766	-4.14207	2.32767	9.82938	0.000364723	-0.0154675	-0.00583611	0.116455	-0.0539551	-1.13696	0.00614036	0.191131	0.0105279	-0.981489	-3.82745	-0.179136	9.30774	-0.0257388	0.00960164	-0.0156789	0.232178	0.128418	-1.02881	0.13585	0.210908	-0.269763	-0.929672	-3.3056	5.93588	8.15627	0.0390135	0.0312001	0.00471115	-0.0754395	-0.59668	-0.95166	-0.541488	0.328483	-0.226066	-0.740124	-7.19511	-0.253916	6.67435	-0.0299991	-0.00199815	0.0154725	0.6875	-0.322998	-0.800049	0.118861	0.0650355	0.558053	-0.818669	-2.34465	-8.78554	3.61702	-0.0658149	0.00848526	-0.0188015	0.0427246	1.09717	-0.383301	0.839568	0.1393	0.42983	-0.301608	-9.11474	-0.160996	6.65042	0.0171292	0.00851307	-0.0124591	1.02075	0.328125	-0.270264	0.102512	-0.125658	-0.0326685	-0.986222	2.59377	0.468847	10.1174	0.027017	-0.0225642	-0.00954091	-0.593506	0.036377	-0.906494	0.248885	-0.0508738	0.0279328	-0.966793	1.00804	-1.03249	11.0795	-0.00705191	0.0235049	-0.0195788	-0.539795	0.0888672	-1.01318	-0.0115732	-0.0516141	-0.0781099	-0.99554	1.10601	1.61629	10.4744	0.0171225	0.0133631	-0.0149515	-0.541992	-0.193115	-1.02905	-0.0542312	0.909507	-0.151194	-0.383401	-6.48458	0.418325	-6.59444	0.00633087	0.0140235	-0.00487402	0.98584	-0.034668	0.557861	-0.0280887	-0.0058526	0.0175995	-0.999433	0.113269	-0.268588	9.79872	-0.00279027	0.0117685	-0.00102868	-0.392822	0.165283	-1.02515	
69	-0.199858	-0.214232	0.0659539	0.95384	-4.1746	2.30232	9.82655	-0.00634083	-0.012276	-0.00420065	0.116211	-0.052002	-1.12817	0.00624235	0.191156	0.0107294	-0.981481	-3.82995	-0.204343	9.35575	-0.0144649	0.0176563	-0.0168477	0.232422	0.126221	-1.02881	0.136084	0.211306	-0.270379	-0.929369	-3.38461	5.8373	8.06282	0.0269427	-0.0021395	0.00523592	-0.0837402	-0.603027	-0.956055	-0.541265	0.328612	-0.226017	-0.740245	-7.13544	-0.227455	6.72084	-0.00291994	0.00820167	0.00235972	0.689697	-0.320801	-0.793457	0.118691	0.0648105	0.557262	-0.81925	-2.38332	-8.68613	3.60579	0.0300354	-0.0132356	-0.0188662	0.0424805	1.10156	-0.390137	0.839584	0.139281	0.429942	-0.301414	-9.19356	-0.212098	6.62729	0.00486926	0.0226834	-0.0108776	1.01855	0.330078	-0.266113	0.102617	-0.126058	-0.0327733	-0.986157	2.57937	0.492182	10.2136	0.0196459	-0.0126301	-0.011008	-0.595703	0.036377	-0.9021	0.249048	-0.0507472	0.0273292	-0.966775	0.972566	-0.812306	11.0528	0.0201828	0.0117081	-0.00680623	-0.541992	0.0866699	-1.01538	-0.0115985	-0.0517248	-0.0790306	-0.995462	1.04744	1.57495	10.4093	0.10279	0.0064171	-0.0205415	-0.546631	-0.193115	-1.03809	-0.0544204	0.909506	-0.15113	-0.383402	-6.50375	0.495078	-6.55984	0.00305291	0.0100315	-0.00361662	0.983887	-0.0412598	0.560303	-0.0281285	-0.00569457	0.0177345	-0.999431	0.177186	-0.328429	9.80364	-0.0049954	0.010836	-0.00337598	-0.383545	0.163086	-1.02954	
70	-0.199883	-0.214147	0.0656397	0.953876	-4.15583	2.27086	9.84184	-0.0137487	-0.0037545	0.000688722	0.109863	-0.0563965	-1.13037	0.00635632	0.191149	0.0108676	-0.98148	-3.7809	-0.233237	9.30988	-0.0112827	0.0123529	-0.0158437	0.232178	0.130615	-1.03125	0.136139	0.211428	-0.271191	-0.929096	-3.35989	5.94618	8.07754	0.0268104	0.0150251	0.0100169	-0.0751953	-0.607422	-0.958252	-0.541292	0.32854	-0.225715	-0.740349	-7.1486	-0.198841	6.70828	-0.00935659	-0.00589942	-0.00220671	0.689453	-0.318604	-0.79126	0.11869	0.0647275	0.557607	-0.819022	-2.24801	-8.55665	3.66935	-0.033944	0.00722816	-0.0179725	0.0490723	1.10156	-0.385498	0.839695	0.139345	0.429759	-0.301334	-9.15396	-0.225471	6.62536	0.00559363	0.00292353	-0.0103297	1.02075	0.332275	-0.268311	0.102572	-0.126964	-0.0328755	-0.986042	2.59674	0.476924	10.16	0.0183314	-0.0248948	-0.0151012	-0.591553	0.0385742	-0.904297	0.249182	-0.0506523	0.0273026	-0.966746	0.930124	-0.867695	11.0496	0.00603761	0.0172424	-0.0136992	-0.535645	0.0910645	-1.01562	-0.0115636	-0.0517383	-0.0789696	-0.995466	1.0619	1.71883	10.4061	-0.0367443	0.00200008	-0.0148637	-0.546387	-0.19751	-1.03564	-0.0544796	0.909561	-0.151089	-0.383279	-6.49766	0.424579	-6.58829	0.00459928	0.0168641	-0.00375072	0.988037	-0.0366211	0.5625	-0.028061	-0.00567794	0.0178182	-0.999431	0.191298	-0.317397	9.8009	0.000211604	0.0130237	-0.000512232	-0.388184	0.165283	-1.02515	
71	-0.199965	-0.214128	0.0655084	0.953872	-4.18681	2.24825	9.81858	-0.0113767	-0.00299815	0.00388305	0.114258	-0.0585938	-1.12817	0.00633022	0.191114	0.0107874	-0.981488	-3.82353	-0.210103	9.30707	-0.0019425	0.0118895	-0.0190158	0.227783	0.130615	-1.02905	0.136265	0.211528	-0.271471	-0.928973	-3.36486	5.89743	8.12917	0.0225987	0.0140661	0.0121582	-0.0751953	-0.605225	-0.948975	-0.541489	0.328341	-0.225327	-0.740411	-7.20664	-0.19818	6.72445	-0.00806732	-0.0149864	-0.00794821	0.682617	-0.314209	-0.795654	0.118297	0.064379	0.558033	-0.818817	-2.3884	-8.75257	3.49218	0.0420657	-0.00102653	-0.0205796	0.0532227	1.10181	-0.390137	0.839727	0.13944	0.429688	-0.301301	-9.17352	-0.126655	6.60958	0.010499	0.0104097	-0.00919153	1.01855	0.332275	-0.272705	0.102524	-0.127467	-0.0328791	-0.985982	2.57232	0.474497	10.1974	0.016636	-0.00669809	-0.0165932	-0.593506	0.0341797	-0.904297	0.249147	-0.0506098	0.0275205	-0.966751	0.947518	-0.910649	11.0128	0.000765518	0.0197732	-0.0154306	-0.541992	0.0888672	-1.01538	-0.0116425	-0.0517858	-0.0784532	-0.995504	1.0956	1.65017	10.4203	-0.0253773	0.00399263	-0.0182896	-0.55127	-0.190918	-1.03589	-0.0545476	0.909608	-0.1511	-0.383154	-6.49883	0.421183	-6.58279	0.0103974	0.0207428	-0.00176184	0.986084	-0.0410156	0.564697	-0.0280579	-0.00557521	0.0177993	-0.999432	0.158147	-0.301169	9.84153	0.00241712	0.0171766	-0.00358195	-0.383545	0.163086	-1.02515	
72	-0.200075	-0.214215	0.0654389	0.953834	-4.15928	2.21632	9.82488	0.00129864	0.00260196	0.00186958	0.111816	-0.0541992	-1.13037	0.00630776	0.190949	0.0106912	-0.981522	-3.80717	-0.213183	9.31763	-0.00224532	0.00816198	-0.0196574	0.231934	0.13501	-1.02905	0.136395	0.211578	-0.271582	-0.92891	-3.40036	5.99412	8.05473	-0.00569026	0.00534681	0.00186435	-0.0773926	-0.60083	-0.949219	-0.541578	0.328178	-0.224901	-0.740549	-7.15394	-0.331262	6.73822	-0.015452	-0.0271896	-0.00658258	0.682861	-0.318604	-0.797852	0.118326	0.0642622	0.557693	-0.819053	-2.32302	-8.62915	3.63452	0.0308852	-0.0056742	-0.0196351	0.0490723	1.09961	-0.390137	0.839654	0.139768	0.429843	-0.301132	-9.20888	-0.141843	6.66177	0.0104174	0.0275271	-0.00777269	1.02051	0.332275	-0.270508	0.102449	-0.12778	-0.0331162	-0.985941	2.58136	0.480685	10.2035	0.0306961	-0.0144897	-0.0218791	-0.595703	0.036377	-0.9021	0.24922	-0.050654	0.0274953	-0.96673	0.949333	-0.881422	11.0551	0.00469667	0.0129337	-0.0103038	-0.537598	0.0866699	-1.01318	-0.0116471	-0.051801	-0.0781147	-0.99553	1.09485	1.57388	10.4138	-0.0212871	0.00573648	-0.015624	-0.541748	-0.19751	-1.03125	-0.0547779	0.909636	-0.151182	-0.383022	-6.51706	0.406826	-6.64634	0.0157608	0.0133103	-0.00130168	0.983643	-0.0390625	0.5625	-0.028025	-0.00535404	0.0177031	-0.999436	0.0696213	-0.288282	9.81484	0.00819163	0.0144156	-0.00208066	-0.383789	0.165283	-1.02515	
73	-0.200031	-0.21457	0.0655702	0.953755	-4.22529	2.27796	9.79789	0.0108693	0.0069636	-0.00121338	0.109863	-0.0563965	-1.13037	0.0062781	0.190809	0.0106643	-0.981549	-3.79326	-0.19292	9.3181	-0.00502056	0.00331686	-0.0218242	0.232178	0.130615	-1.02905	0.136403	0.211511	-0.271737	-0.928879	-3.32962	5.88765	8.0587	0.0179753	0.00470674	0.00044455	-0.081543	-0.605225	-0.953613	-0.542006	0.327459	-0.224807	-0.740582	-7.17617	-0.171364	6.70013	0.0166638	-0.00576328	-0.00378253	0.689453	-0.318604	-0.797852	0.11829	0.0642425	0.558985	-0.818178	-2.41031	-8.97069	3.45301	0.00641157	0.00218483	-0.00984051	0.0490723	1.10156	-0.385498	0.839623	0.140181	0.429574	-0.301412	-9.16898	-0.0825901	6.64141	0.000233559	0.0123652	-0.0197219	1.01831	0.33667	-0.272705	0.102282	-0.129561	-0.0334857	-0.985713	2.63882	0.461847	10.16	0.0278921	-0.0355959	-0.0175553	-0.602295	0.0385742	-0.904297	0.249365	-0.0505385	0.0274798	-0.9667	0.923381	-0.947218	11.0242	0.022404	0.0222409	-0.0129542	-0.537842	0.0888672	-1.02026	-0.0116177	-0.0518646	-0.0786089	-0.995488	1.07684	1.66111	10.4029	0.0281796	0.00560105	-0.0162902	-0.546143	-0.199951	-1.03345	-0.0548407	0.90959	-0.151194	-0.383117	-6.48854	0.454443	-6.60703	-0.00337938	0.00712539	-0.00311778	0.986084	-0.0390625	0.566895	-0.0281376	-0.0053501	0.0179904	-0.999428	0.10245	-0.336293	9.79425	-0.0120539	0.00675516	-0.0101967	-0.383545	0.160889	-1.02734	
74	-0.200068	-0.214509	0.0657274	0.95375	-4.19916	2.32187	9.81158	0.00352142	-0.0105528	0.00298761	0.116455	-0.0563965	-1.13037	0.00611437	0.190804	0.0104211	-0.981554	-3.81118	-0.165807	9.32112	0.00920919	0.0104713	-0.0122584	0.236572	0.128418	-1.03125	0.136415	0.211525	-0.271974	-0.928805	-3.37899	5.98858	8.06896	0.00622111	0.00611561	0.000230704	-0.0837402	-0.609375	-0.951172	-0.541992	0.327318	-0.224759	-0.740669	-7.10108	-0.261142	6.72929	0.00328369	-0.00683885	0.0073644	0.680664	-0.316406	-0.797852	0.118417	0.0642252	0.55826	-0.818656	-2.30221	-8.72186	3.54446	0.0675751	-0.00826779	-0.0086493	0.0490723	1.10156	-0.385498	0.839573	0.14022	0.429675	-0.30139	-9.15418	-0.202004	6.61496	0.00353504	0.0235459	-0.0150605	1.01855	0.330078	-0.272461	0.102281	-0.129854	-0.0337156	-0.985667	2.63817	0.480078	10.1655	0.0313266	-0.0124978	-0.0167468	-0.5979	0.0385742	-0.900146	0.249485	-0.0505082	0.027173	-0.966679	0.931404	-0.892369	11.0323	0.0279165	0.0124808	-0.00932382	-0.537598	0.0866699	-1.01538	-0.0116393	-0.0518717	-0.0786602	-0.995483	1.08548	1.6594	10.4199	0.0093166	0.00626679	-0.0177071	-0.548584	-0.197754	-1.03125	-0.0548911	0.909584	-0.151174	-0.383132	-6.46428	0.388601	-6.60985	0.0071626	0.00856043	-0.00223419	0.983643	-0.0390625	0.560059	-0.0280983	-0.00558784	0.0178367	-0.99943	0.15613	-0.314548	9.83053	0.00655128	-2.24383e-05	-0.00256048	-0.385986	0.165283	-1.02295	
75	-0.200042	-0.21441	0.0656599	0.953782	-4.15677	2.3167	9.79499	-0.00589327	-0.00579097	-0.00201442	0.116455	-0.0541992	-1.13257	0.00616174	0.190724	0.00974724	-0.981576	-3.78381	-0.193213	9.17909	0.022176	0.00724726	-0.0100943	0.232178	0.126221	-1.03589	0.136556	0.211556	-0.272071	-0.928749	-3.33222	5.9751	8.11203	0.00151694	0.0116163	0.00806697	-0.0817871	-0.60083	-0.951416	-0.541942	0.326998	-0.22469	-0.740868	-7.13829	-0.165398	6.76979	0.000157096	-0.00674837	0.0088273	0.682861	-0.316406	-0.797852	0.118563	0.0640539	0.558615	-0.818407	-2.34539	-8.65121	3.6134	-0.0526137	0.00114763	-0.0097039	0.0471191	1.09497	-0.387939	0.839583	0.140093	0.429756	-0.301305	-9.19722	-0.172412	6.63267	-0.00506506	0.0123294	-0.0168139	1.01855	0.330078	-0.274658	0.102324	-0.131348	-0.0342182	-0.985447	2.62491	0.491929	10.2416	0.0308545	-0.0670668	-0.0123665	-0.599854	0.0341797	-0.897949	0.249534	-0.0506159	0.0274514	-0.966653	0.973575	-0.906902	11.0778	-0.0116	0.0125479	-0.0169518	-0.540039	0.0910645	-1.01562	-0.0116901	-0.0518606	-0.0789103	-0.995463	1.08592	1.7036	10.4464	0.0178702	0.00592949	-0.0194026	-0.539307	-0.199707	-1.03564	-0.0549691	0.909563	-0.151173	-0.383172	-6.49294	0.4271	-6.58723	0.0068201	0.0075471	0.000310452	0.997314	-0.0432129	0.564941	-0.0280689	-0.00566844	0.0179748	-0.999428	0.137552	-0.360647	9.82328	-0.00968735	0.00202287	-0.00178565	-0.381592	0.16748	-1.02734	
76	-0.200019	-0.214284	0.0654562	0.953829	-4.21916	2.29091	9.80266	-0.00762638	-0.0124652	-0.00716259	0.109619	-0.0541992	-1.12817	0.0063612	0.190694	0.0103006	-0.981575	-3.84889	-0.243253	9.48349	-0.0498869	0.00952101	-0.020802	0.234375	0.128418	-1.03125	0.136909	0.211705	-0.272112	-0.928651	-3.38001	5.92135	8.06389	0.0188926	0.0129787	0.0161727	-0.081543	-0.603027	-0.949219	-0.541735	0.326862	-0.224429	-0.741158	-7.09579	-0.235758	6.73363	0.00178894	-0.00586819	0.0121975	0.676025	-0.316406	-0.800049	0.118637	0.0640808	0.558766	-0.818291	-2.40624	-8.78414	3.53448	0.0213893	0.0090943	-0.0105735	0.0534668	1.09741	-0.387939	0.839661	0.140028	0.429632	-0.301294	-9.19157	-0.13167	6.63832	0.00371246	0.0063435	-0.0145336	1.01636	0.334473	-0.268311	0.102317	-0.132557	-0.0347895	-0.985266	2.68922	0.482726	10.0871	0.0236639	-0.00747394	-0.0139459	-0.602051	0.0341797	-0.893555	0.249675	-0.050543	0.0273083	-0.966624	0.896161	-0.911419	11.064	0.00920692	0.0198745	-0.010359	-0.5354	0.0844727	-1.01074	-0.0116758	-0.0518777	-0.0789083	-0.995463	1.05043	1.65819	10.4671	0.0112726	0.0063644	-0.0138603	-0.546387	-0.195312	-1.03564	-0.0549207	0.909561	-0.151276	-0.383142	-6.49157	0.416951	-6.60481	-0.000810204	0.0152902	0.00535381	0.990234	-0.0344238	0.562256	-0.0280733	-0.00561882	0.0178287	-0.999431	0.15602	-0.343231	9.82902	0.0136458	0.00500304	-0.00411217	-0.392578	0.163086	-1.02515	
77	-0.200139	-0.213989	0.0652786	0.953883	-4.10516	2.23735	9.82756	-0.0090893	-0.00935673	0.00945783	0.116455	-0.0561523	-1.13257	0.00648238	0.190759	0.00975628	-0.981567	-3.70331	-0.142038	9.34917	0.0122348	0.0310049	-0.00309412	0.234375	0.128418	-1.03369	0.136935	0.211775	-0.272133	-0.928625	-3.36072	6.03762	8.11004	-0.000606611	0.0105645	-0.00691461	-0.081543	-0.605225	-0.951416	-0.541444	0.326874	-0.224227	-0.741427	-7.24015	-0.214045	6.80431	-0.0124865	0.0046412	0.0106243	0.685059	-0.316406	-0.795654	0.118977	0.0641027	0.558079	-0.818708	-2.22667	-8.65567	3.60907	0.0204024	-0.00993051	-0.00421117	0.0532227	1.10376	-0.385498	0.839614	0.140081	0.429637	-0.301393	-9.20776	-0.112513	6.67405	0.014879	0.0211207	-0.0214041	1.01636	0.332275	-0.274658	0.10224	-0.133267	-0.0341506	-0.985201	2.88851	0.538826	10.2356	-0.0313125	-0.00186811	-0.00867506	-0.608643	0.0383301	-0.891602	0.249741	-0.0504647	0.0272343	-0.966613	1.0132	-0.954723	11.0265	0.0103895	0.021252	-0.012667	-0.537598	0.0866699	-1.01538	-0.0116804	-0.0519303	-0.0786658	-0.995479	1.14051	1.66013	10.36	-0.0168192	0.00444168	-0.0172353	-0.54834	-0.202148	-1.03564	-0.0548441	0.909569	-0.151317	-0.383117	-6.48906	0.417953	-6.6072	-0.000460194	0.014324	0.00571367	0.988037	-0.0344238	0.564697	-0.0279353	-0.00560662	0.0175638	-0.99944	0.120487	-0.264096	9.8583	0.00560867	0.0065714	0.00293124	-0.387939	0.158691	-1.02271	
78	-0.200068	-0.214094	0.0652707	0.953874	-4.1999	2.25161	9.81741	0.00461234	-0.000609474	-0.00669998	0.112061	-0.0541992	-1.13257	0.00655874	0.190948	0.00966668	-0.981531	-3.82641	-0.202284	9.30986	-0.00527987	0.0250218	-0.0116113	0.227783	0.128418	-1.02881	0.13705	0.211779	-0.27149	-0.928795	-3.34784	5.89773	8.04483	-0.0373849	0.0114497	0.00168125	-0.081543	-0.605225	-0.955811	-0.541043	0.326898	-0.22408	-0.741754	-7.05491	-0.224515	6.72852	-0.00548087	0.00435091	0.0193386	0.687256	-0.316406	-0.797852	0.119554	0.0637933	0.559103	-0.817949	-2.35555	-8.81833	3.57461	-0.0541055	-0.0107003	-0.00262645	0.0490723	1.09937	-0.385498	0.839355	0.140339	0.429888	-0.301638	-9.17101	-0.205621	6.63672	0.0248975	0.0305722	-0.0224848	1.01416	0.332275	-0.268311	0.102282	-0.133719	-0.0332164	-0.985167	2.58668	0.458225	10.0753	0.00113543	-0.0444641	-0.0109097	-0.61084	0.036377	-0.891602	0.24963	-0.0503417	0.0273082	-0.966646	0.922854	-1.01132	11.0417	-0.0140117	0.0102569	-0.016489	-0.533447	0.0888672	-1.01562	-0.0118381	-0.051807	-0.0783115	-0.995512	1.07703	1.55577	10.4222	-0.00627018	0.0108246	-0.0222733	-0.548828	-0.193115	-1.02905	-0.0549091	0.90952	-0.151281	-0.383239	-6.48454	0.383875	-6.56015	0.0140907	0.0053484	-0.0049354	0.983887	-0.0412598	0.564697	-0.0277753	-0.00584962	0.0175545	-0.999443	0.199649	-0.317751	9.77796	0.00161401	-0.00172073	-0.000890962	-0.388428	0.16748	-1.02734	
79	-0.200082	-0.214112	0.0654181	0.953857	-4.24286	2.25909	9.81286	0.00623235	-0.00757529	0.00190166	0.109863	-0.0563965	-1.13257	0.00660823	0.190992	0.00930649	-0.981525	-3.8546	-0.206036	9.27689	0.00467446	0.0139961	-0.0131443	0.232178	0.128418	-1.03369	0.137162	0.211644	-0.271536	-0.928796	-3.42807	5.81955	7.98826	0.0179562	-0.00110949	0.00275265	-0.0795898	-0.603027	-0.951416	-0.540888	0.326911	-0.224057	-0.741868	-7.06743	-0.250659	6.70723	0.00367189	0.00655003	0.00324645	0.680664	-0.320801	-0.802246	0.119807	0.0638662	0.558738	-0.818156	-2.36324	-8.68055	3.58546	0.0317072	0.00383881	-0.0114952	0.0510254	1.10156	-0.383301	0.839399	0.140373	0.429728	-0.301726	-9.1518	-0.208099	6.6106	0.00236613	0.000639274	-0.0145582	1.02295	0.330078	-0.270508	0.102339	-0.133605	-0.0338636	-0.985155	2.69598	0.461927	10.1736	0.0351269	0.0407361	-0.0148259	-0.608643	0.0385742	-0.895752	0.249778	-0.0503091	0.0266912	-0.966627	0.91174	-0.902443	11.1122	0.0457642	0.0137491	-0.0098122	-0.537598	0.0869141	-1.02002	-0.0118259	-0.0517405	-0.0791106	-0.995452	1.04697	1.64036	10.4847	0.0487537	0.00608362	-0.016461	-0.546143	-0.199951	-1.02905	-0.0547533	0.90949	-0.151332	-0.383312	-6.46948	0.386932	-6.5665	-0.00109181	0.0126968	0.00515711	0.992432	-0.0344238	0.564697	-0.0279087	-0.00600533	0.0174301	-0.99944	0.190921	-0.310205	9.77947	0.0079048	0.0047704	-0.0111057	-0.387939	0.160889	-1.02515	
80	-0.200064	-0.214049	0.0655183	0.953868	-4.19598	2.27076	9.80954	0.0071542	-0.0108705	0.000289812	0.114258	-0.0585938	-1.13037	0.00661494	0.191027	0.00927782	-0.981519	-3.83192	-0.170147	9.33938	-0.00626088	0.0175957	-0.0174838	0.229736	0.134766	-1.03613	0.137182	0.211677	-0.272042	-0.928637	-3.37417	5.91411	8.06414	0.0412707	0.00542612	0.0100914	-0.0773926	-0.603027	-0.951416	-0.540973	0.326865	-0.224139	-0.741801	-7.10889	-0.256518	6.72415	0.0125981	0.00726362	-0.00417332	0.683105	-0.322998	-0.802246	0.119807	0.0638662	0.558738	-0.818156	-2.36324	-8.68055	3.58546	0.0317072	0.00383881	-0.0114952	0.0510254	1.10156	-0.383301	0.839467	0.140345	0.429591	-0.301745	-9.18096	-0.135634	6.6452	0.00522798	0.00128134	-0.0155998	1.01416	0.330078	-0.270508	0.102156	-0.133982	-0.0339454	-0.98512	2.69045	0.489405	10.179	0.00850865	-0.00907701	-0.0146501	-0.610596	0.0341797	-0.889404	0.249879	-0.0502692	0.0264537	-0.966609	0.931806	-0.776768	11.1525	0.0226594	0.0146766	-0.0105212	-0.541992	0.0888672	-1.01538	-0.0117839	-0.0518133	-0.0797375	-0.995399	1.05383	1.77149	10.4747	0.0557947	0.00196338	-0.0148138	-0.543701	-0.202148	-1.03125	-0.0547366	0.909522	-0.151379	-0.38322	-6.47757	0.380514	-6.63108	0.004906	0.0190719	0.00386858	0.988037	-0.0366211	0.564697	-0.028022	-0.005963	0.0174176	-0.999438	0.158542	-0.30526	9.85959	0.00167428	0.012417	-0.0128486	-0.392578	0.163086	-1.02271	
81	-0.200112	-0.213863	0.0657048	0.953887	-4.15932	2.28724	9.82377	0.00434228	-0.013324	0.00508083	0.114258	-0.0583496	-1.13257	0.0066156	0.191287	0.00935247	-0.981467	-3.81872	-0.174922	9.2797	-0.00948712	0.0265135	-0.0172487	0.22998	0.132812	-1.02905	0.137236	0.211823	-0.272467	-0.928471	-3.37724	6.06753	8.13798	0.00209554	0.0115499	0.000316295	-0.0793457	-0.607422	-0.953613	-0.54097	0.326839	-0.223802	-0.741917	-7.1096	-0.198148	6.75744	-0.0135029	-0.00482241	0.00109454	0.680664	-0.316406	-0.800049	0.119538	0.0636223	0.558975	-0.818053	-2.30209	-8.55885	3.65303	-0.0542362	-0.00223033	-0.0299067	0.0466309	1.10376	-0.387939	0.839417	0.140614	0.429595	-0.301754	-9.125	-0.0816012	6.66017	0.0145358	0.0231393	-0.00931046	1.01392	0.33667	-0.274902	0.102157	-0.133775	-0.034002	-0.985146	2.72519	0.487362	10.0867	0.0149934	0.026718	-0.0170862	-0.608398	0.0319824	-0.897705	0.249952	-0.050194	0.026711	-0.966587	0.951306	-0.883157	10.9736	0.00139849	0.0173283	-0.0141871	-0.539795	0.0866699	-1.01782	-0.0117807	-0.0520287	-0.0789404	-0.995451	1.08296	1.64516	10.3405	-0.034977	0.00377413	-0.014675	-0.543945	-0.19751	-1.03345	-0.0548712	0.909605	-0.15157	-0.38293	-6.49881	0.410037	-6.61469	0.0135859	0.00842845	-8.4539e-05	0.988037	-0.0344238	0.562256	-0.0280831	-0.00557924	0.0172455	-0.999441	0.124855	-0.265957	9.79811	0.00174286	0.0251846	-0.0019468	-0.387939	0.160889	-1.02734	
82	-0.200066	-0.213857	0.0658726	0.953887	-4.1691	2.30845	9.83261	0.00649209	-0.00522905	-0.00328359	0.112061	-0.0585938	-1.12598	0.00671832	0.191473	0.00952641	-0.981429	-3.81451	-0.169205	9.25324	-0.014018	0.0137093	-0.0171302	0.234375	0.126221	-1.04053	0.137422	0.212004	-0.272034	-0.92853	-3.34673	5.9245	8.01495	-0.0219517	0.0178697	0.0028913	-0.0751953	-0.605225	-0.955811	-0.540913	0.326821	-0.223638	-0.742015	-7.16624	-0.24602	6.70179	-0.00153759	0.00766955	0.00428056	0.685059	-0.318604	-0.806641	0.119474	0.0637	0.559327	-0.817815	-2.31712	-8.8856	3.57932	0.02383	0.0128002	-0.0151847	0.0490723	1.09937	-0.385498	0.839429	0.140597	0.429659	-0.301636	-9.19547	-0.135835	6.70052	-0.00360567	0.0189118	-0.00846294	1.01855	0.330078	-0.276855	0.102146	-0.133991	-0.0340058	-0.985117	2.7813	0.491616	10.0968	0.0215094	0.00243706	-0.0162354	-0.613037	0.0405273	-0.889404	0.249968	-0.0504016	0.0271963	-0.966559	1.01592	-1.0541	11.0114	-0.0116654	0.01595	-0.0154524	-0.541992	0.0888672	-1.01074	-0.0117763	-0.0520164	-0.0786253	-0.995477	1.11579	1.54084	10.4278	0.010422	0.00570384	-0.0169792	-0.54834	-0.20459	-1.02905	-0.054835	0.909605	-0.151554	-0.382939	-6.49892	0.461765	-6.65111	0.000607905	0.0107887	0.000851222	0.986084	-0.0410156	0.564697	-0.0280558	-0.00545865	0.0173421	-0.999441	0.138643	-0.322477	9.78887	-0.000406185	0.0118869	-0.00388792	-0.381348	0.163086	-1.02734	
83	-0.200118	-0.213798	0.0658816	0.953888	-4.10751	2.28679	9.83037	-0.00187928	-0.00404703	0.00429195	0.112061	-0.0585938	-1.13477	0.00678067	0.191566	0.00957397	-0.98141	-3.82702	-0.179155	9.33434	-0.00936174	0.0205697	-0.0173715	0.232178	0.128418	-1.03369	0.13732	0.211995	-0.271894	-0.928588	-3.45009	6.00449	8.0563	-0.00495865	-0.00127334	-0.0129148	-0.0795898	-0.605225	-0.953613	-0.540931	0.326835	-0.223709	-0.741975	-7.14812	-0.216428	6.73957	0.00743101	0.0107526	-0.000197584	0.680664	-0.316406	-0.800049	0.119119	0.0638185	0.558754	-0.818249	-2.34593	-8.69418	3.49245	0.0591203	0.0236968	-0.0344429	0.0488281	1.10376	-0.383301	0.839291	0.140871	0.429581	-0.302004	-9.18433	-0.15091	6.70281	0.00803855	0.0134543	-0.0180344	1.01416	0.332275	-0.276855	0.102168	-0.13385	-0.0338263	-0.98514	2.77192	0.498879	10.063	0.00296991	0.0266043	-0.0122172	-0.608643	0.0385742	-0.893799	0.250053	-0.0503138	0.0269118	-0.966549	0.983299	-1.00994	11.0491	0.0276188	0.0182139	-0.00991455	-0.539795	0.0844727	-1.01074	-0.0118094	-0.0520113	-0.0789032	-0.995454	1.13615	1.5993	10.4286	0.027044	0.00764928	-0.0193088	-0.546387	-0.195312	-1.03345	-0.0547972	0.909621	-0.151415	-0.382963	-6.50173	0.447264	-6.63845	-0.00946377	0.00622619	-0.00664353	0.988281	-0.0388184	0.5625	-0.0279863	-0.00568923	0.0173917	-0.999441	0.131354	-0.257494	9.78713	-0.0019265	-0.00114219	-0.000348926	-0.390381	0.163086	-1.02271	
84	-0.200076	-0.213955	0.0658007	0.953868	-4.18402	2.28348	9.83469	-0.00203076	0.00245321	-0.00414476	0.114014	-0.0541992	-1.12817	0.00674259	0.191835	0.00960456	-0.981357	-3.82952	-0.159868	9.3249	-0.00795563	0.0275971	-0.0181069	0.236816	0.124023	-1.02881	0.137085	0.211801	-0.271907	-0.928663	-3.32423	6.01608	8.09495	0.000314069	0.00194274	-0.00130286	-0.0773926	-0.605225	-0.951416	-0.541028	0.326767	-0.224093	-0.741818	-7.1242	-0.144398	6.76654	0.0242176	0.0149689	0.000632746	0.68042	-0.312012	-0.802246	0.119249	0.0639324	0.558556	-0.818357	-2.32162	-8.68382	3.53993	-0.0139249	0.00678524	-0.00406805	0.046875	1.09937	-0.385498	0.839118	0.140952	0.429845	-0.30207	-9.12532	-0.160613	6.60693	0.0133504	0.0294142	-0.0201909	1.01611	0.334473	-0.270508	0.102266	-0.132737	-0.0335301	-0.985291	2.69314	0.473103	10.1277	0.00722802	0.0566129	-0.0106125	-0.606689	0.0405273	-0.897949	0.25024	-0.0502372	0.0264403	-0.966518	0.958717	-0.795487	11.1013	0.00611615	0.0149869	-0.0114596	-0.541992	0.0888672	-1.01318	-0.011831	-0.0520005	-0.0797433	-0.995388	1.07262	1.70615	10.458	0.039535	0.00584949	-0.018844	-0.541504	-0.202148	-1.03345	-0.0548388	0.909606	-0.151325	-0.383029	-6.51057	0.388154	-6.58021	0.00964521	0.00839617	-0.000703811	0.983887	-0.0412598	0.560303	-0.0280483	-0.00574849	0.0173407	-0.99944	0.158867	-0.300832	9.78144	0.00358861	0.00878936	-0.00696384	-0.388184	0.163086	-1.02734	
