40	Head	00b4120a												Throax	00b411e8												LUpArm	00b411d9												LFoArm	00b41148												RUpArm	00b411db												RFoArm	00b41204												Waist	00b411f7												Lthigh	00b411f4												Lshank	00b4111b												Rthigh	00b411c8												Rshank	00b411ee												
PacketCount	q0	q1	q2	q3	accX	accY	accZ	gyrX	gyrY	gyrZ	magX	magY	magZ	q0	q1	q2	q3	accX	accY	accZ	gyrX	gyrY	gyrZ	magX	magY	magZ	q0	q1	q2	q3	accX	accY	accZ	gyrX	gyrY	gyrZ	magX	magY	magZ	q0	q1	q2	q3	accX	accY	accZ	gyrX	gyrY	gyrZ	magX	magY	magZ	q0	q1	q2	q3	accX	accY	accZ	gyrX	gyrY	gyrZ	magX	magY	magZ	q0	q1	q2	q3	accX	accY	accZ	gyrX	gyrY	gyrZ	magX	magY	magZ	q0	q1	q2	q3	accX	accY	accZ	gyrX	gyrY	gyrZ	magX	magY	magZ	q0	q1	q2	q3	accX	accY	accZ	gyrX	gyrY	gyrZ	magX	magY	magZ	q0	q1	q2	q3	accX	accY	accZ	gyrX	gyrY	gyrZ	magX	magY	magZ	q0	q1	q2	q3	accX	accY	accZ	gyrX	gyrY	gyrZ	magX	magY	magZ	q0	q1	q2	q3	accX	accY	accZ	gyrX	gyrY	gyrZ	magX	magY	magZ	
0	0.900981	0.173642	-0.332171	0.218507	7.15818	1.84424	7.80941	-0.0211449	0.0248022	-0.0133124	-0.42627	-0.355957	-0.906738	-0.647634	-0.0101313	0.760912	-0.0384742	9.71825	-0.525128	-1.55006	-0.0121697	0.0113502	-0.0228144	-0.970703	-0.229004	-0.0996094	0.675386	0.377348	-0.435664	0.460065	9.52876	1.2271	3.3725	-0.0758734	0.000213963	-0.00160504	-1.00122	-0.496094	-0.470459	-0.662728	-0.0708641	0.728929	-0.156306	9.75034	-1.34151	-0.726352	-0.0111239	0.0115636	0.0116699	-1.20459	0.0615234	-0.313721	-0.729145	0.221286	0.572455	0.302781	9.57829	0.272423	2.54519	0.0638696	0.00297265	-0.000443879	-0.864014	0.121826	-0.627441	-0.789486	0.10938	0.504602	0.331851	9.56703	1.78179	5.14233	0.0200015	0.00881302	-0.0177122	-0.914307	-0.232422	-0.681885	-0.401295	-0.0575841	0.914108	-0.00729124	6.78164	0.32477	-6.42691	-0.00157214	0.0258743	-0.0129598	-0.980469	-0.326416	0.607178	-0.122797	-0.989318	0.0224765	-0.0752645	1.12257	2.34623	-8.10795	0.00339563	0.0138447	-0.0190885	-0.425537	-0.261719	0.95752	-0.0987318	-0.172277	-0.924252	-0.326085	-0.578269	5.97416	-7.09704	-0.00413759	0.0032651	-0.0165135	-0.334961	-0.544678	0.913574	-0.0354955	-0.106643	0.99363	-0.00821152	0.337608	0.170004	-9.07028	0.00503424	0.00890354	0.000345493	-0.425537	-0.212891	1.02905	0.00972751	-0.0780597	0.99657	0.0257107	-0.263539	0.574816	-9.71163	0.0124811	0.0110621	-0.00398833	-0.443359	-0.140381	1.15063	
1	0.901164	0.173268	-0.331922	0.218425	7.1128	1.72853	7.83335	-0.0278102	0.0240037	-0.00300826	-0.419434	-0.35791	-0.906738	-0.647839	-0.0102256	0.760734	-0.0385174	9.69534	-0.409253	-1.53955	-0.00552562	0.0205875	-0.0190877	-0.964355	-0.226807	-0.106689	0.675223	0.377853	-0.435253	0.460279	9.42418	1.17955	3.32021	0.0780444	0.0140539	-0.019612	-1.00342	-0.498047	-0.470215	-0.662936	-0.0710611	0.72868	-0.156496	9.70098	-1.31062	-0.706938	0.0128423	0.0166921	-0.00249589	-1.20679	0.0615234	-0.313721	-0.729241	0.221263	0.572511	0.302458	9.60143	0.270623	2.45723	-0.00324129	0.0095309	-0.00557674	-0.875	0.124023	-0.622803	-0.789576	0.109332	0.504582	0.331682	9.59068	1.77473	5.13169	0.00504471	0.0169334	-0.00835192	-0.918701	-0.232422	-0.684082	-0.401603	-0.05742	0.913984	-0.00712122	6.80272	0.346515	-6.31846	0.00429934	0.0187622	-0.0135895	-0.978271	-0.326416	0.603027	-0.122995	-0.989273	0.0222147	-0.0756103	1.13462	2.34305	-8.09809	-0.00249774	0.0207483	-0.0195547	-0.418945	-0.263916	0.95752	-0.0987112	-0.172381	-0.924173	-0.326258	-0.579125	5.99188	-7.11274	0.00629502	0.00325142	-0.0151604	-0.3396	-0.547119	0.915771	-0.035384	-0.106715	0.993625	-0.00836498	0.340515	0.169384	-9.07471	0.010981	0.0101682	0.000759554	-0.42334	-0.212891	1.02905	0.00961626	-0.0780739	0.996582	0.0252318	-0.236456	0.569608	-9.71577	0.0198736	0.0109592	-0.00553421	-0.447754	-0.142822	1.15283	
2	0.901111	0.173315	-0.33197	0.218533	7.08879	1.81478	7.8038	0.00458207	-0.00738352	0.00522496	-0.422119	-0.349365	-0.906738	-0.64799	-0.0101853	0.760614	-0.0383585	9.70798	-0.469363	-1.47159	-0.0108602	0.0222413	-0.0223612	-0.968262	-0.233398	-0.104004	0.675267	0.377593	-0.435226	0.460453	9.42083	1.07454	3.44939	-0.00964046	0.00883851	0.0148515	-1.00562	-0.49585	-0.470459	-0.663094	-0.071174	0.728492	-0.156649	9.71971	-1.33104	-0.687932	0.00948453	0.0129923	-0.00100873	-1.20215	0.0571289	-0.315918	-0.729194	0.22162	0.572312	0.302687	9.60854	0.140556	2.49072	-0.0260313	0.00755298	-0.0158333	-0.877197	0.121826	-0.622803	-0.78987	0.108636	0.505017	0.330546	9.59724	1.77619	5.14111	0.0685915	0.00499469	0.0136737	-0.912354	-0.228271	-0.679932	-0.401788	-0.0571991	0.913919	-0.006829	6.85247	0.328312	-6.35188	0.00235606	0.013764	-0.0126069	-0.980225	-0.328613	0.609375	-0.122656	-0.989325	0.021908	-0.0755721	1.1272	2.32336	-8.11662	0.0172973	0.00796506	-0.0192684	-0.420898	-0.266113	0.959961	-0.0986448	-0.172459	-0.9244	-0.325594	-0.575677	5.97795	-7.13514	0.0372659	3.37379e-05	-0.0223416	-0.332764	-0.54248	0.917969	-0.0354331	-0.106778	0.993616	-0.00841073	0.336115	0.160344	-9.05947	0.0038514	0.00852621	-0.00117699	-0.425537	-0.208496	1.02905	0.0096295	-0.0780454	0.996578	0.0254769	-0.252669	0.564552	-9.70284	-0.0108167	0.00502828	-0.00330411	-0.438721	-0.140381	1.146	
3	0.901093	0.173218	-0.33216	0.218394	7.15588	1.73218	7.80358	-0.0075034	-0.0136041	-0.00869744	-0.41748	-0.353516	-0.908936	-0.647944	-0.0101279	0.76066	-0.0382308	9.70635	-0.49234	-1.61854	-0.00508384	0.00236704	-0.0197667	-0.974854	-0.231201	-0.104248	0.675446	0.376968	-0.435773	0.460185	9.55612	1.16436	3.38509	-0.091474	0.00601961	0.0134306	-1.01001	-0.491455	-0.472656	-0.66283	-0.0709133	0.728846	-0.15624	9.73628	-1.37284	-0.752423	-0.024363	-0.0200488	-0.00383538	-1.20215	0.0571289	-0.315918	-0.729359	0.221581	0.572165	0.302596	9.57417	0.313678	2.42231	0.00493251	0.00982851	-0.00883563	-0.868164	0.119629	-0.615967	-0.78998	0.107492	0.5059	0.329305	9.59567	1.82676	5.08614	0.0695107	0.000959287	-0.00681123	-0.914307	-0.232422	-0.677734	-0.40195	-0.0571245	0.913851	-0.00702694	6.78572	0.309236	-6.36697	0.0190478	0.0111936	-0.0126848	-0.984619	-0.328613	0.605225	-0.122666	-0.989331	0.0218671	-0.0754978	1.13055	2.32935	-8.1247	0.00503815	0.0113528	-0.019989	-0.42334	-0.259521	0.952637	-0.0986194	-0.172499	-0.924496	-0.325309	-0.595383	5.95741	-7.14024	0.0309751	0.00171238	-0.0207896	-0.332764	-0.54248	0.917969	-0.035464	-0.106797	0.993612	-0.00843479	0.337822	0.162011	-9.06516	0.0029055	0.00767331	0.000456665	-0.423096	-0.217285	1.03394	0.00976175	-0.0780253	0.996575	0.025586	-0.263972	0.570175	-9.7202	-0.00159922	-0.00191531	-0.0029524	-0.443115	-0.146973	1.15063	
4	0.901064	0.173166	-0.332215	0.218474	7.1009	1.78575	7.80475	-0.00244794	-0.00831958	0.0108491	-0.419678	-0.353516	-0.911133	-0.647933	-0.0101148	0.760672	-0.0381925	9.73303	-0.392933	-1.49451	-0.0141542	0.0150066	-0.0201236	-0.972656	-0.235596	-0.0993652	0.674885	0.377751	-0.435195	0.460911	9.34861	1.25298	3.49627	0.0987338	0.00893871	-0.00661424	-1.00757	-0.498047	-0.470215	-0.662521	-0.0716769	0.729013	-0.156425	9.67901	-1.29532	-0.649959	0.0247768	-0.00902434	-0.0144448	-1.20654	0.0571289	-0.315918	-0.729076	0.221972	0.572087	0.303137	9.61533	0.120097	2.45008	-0.0385465	0.0108149	-0.0207239	-0.870605	0.121826	-0.627441	-0.79019	0.107673	0.505553	0.329274	9.62921	1.75805	5.18365	-0.035651	0.0316702	-0.0162121	-0.911865	-0.236816	-0.679688	-0.401928	-0.0569174	0.913875	-0.00681156	6.85421	0.388454	-6.40822	0.00916411	0.00851054	-0.0116043	-0.977783	-0.335205	0.61377	-0.122493	-0.989368	0.0214535	-0.0754128	1.11112	2.32878	-8.12808	0.00408055	0.0150531	-0.0203916	-0.42334	-0.257324	0.959717	-0.0987218	-0.172087	-0.924868	-0.324436	-0.585864	5.95312	-7.12399	0.0255141	-0.000646388	-0.022006	-0.337158	-0.549316	0.915771	-0.0355149	-0.106864	0.993604	-0.00840044	0.338179	0.166761	-9.08142	0.000743135	0.00833633	-0.0012878	-0.420898	-0.215088	1.03369	0.00992078	-0.078039	0.996568	0.0257547	-0.263276	0.571634	-9.71045	0.000635698	0.00395507	-0.00566958	-0.441162	-0.138184	1.14136	
5	0.90095	0.173136	-0.332496	0.218538	7.12186	1.73207	7.78607	-0.00390671	-0.0268913	0.0112168	-0.421875	-0.35376	-0.900391	-0.647873	-0.0100968	0.760725	-0.0381667	9.66893	-0.480679	-1.55936	-0.0109026	0.00705002	-0.0181342	-0.974854	-0.231201	-0.097168	0.674834	0.377589	-0.435537	0.460797	9.45926	1.4892	3.37743	-0.026889	-0.0121867	0.00833696	-1.00977	-0.500244	-0.472412	-0.662451	-0.0717168	0.729091	-0.156341	9.73652	-1.32562	-0.764031	-0.00111596	-0.00422536	-0.00480982	-1.20435	0.0571289	-0.309326	-0.72913	0.221508	0.572414	0.302731	9.67465	0.215303	2.59466	0.0447808	0.0119228	-0.0177182	-0.870605	0.121826	-0.627441	-0.790172	0.10816	0.505055	0.329923	9.57182	1.79389	5.13748	-0.0686347	0.036972	-0.0333644	-0.914307	-0.234619	-0.681885	-0.401874	-0.056885	0.9139	-0.00691995	6.80413	0.305497	-6.4553	0.0208836	0.00745192	-0.0117451	-0.982666	-0.324219	0.60498	-0.122598	-0.989346	0.0211413	-0.0756102	1.12551	2.32915	-8.10797	-0.00053704	0.017824	-0.0197239	-0.421143	-0.259521	0.959717	-0.0986653	-0.172142	-0.924871	-0.324415	-0.589438	5.95124	-7.13306	0.01043	0.00612771	-0.0156796	-0.335205	-0.540283	0.917969	-0.0355149	-0.106864	0.993604	-0.00840044	0.338179	0.166761	-9.08142	0.000743135	0.00833633	-0.0012878	-0.420898	-0.215088	1.03369	0.00990094	-0.0780309	0.99657	0.0257012	-0.268733	0.552526	-9.72039	0.00628034	0.00841368	-0.00434721	-0.443115	-0.142578	1.14819	
6	0.900661	0.173335	-0.333171	0.218544	7.12317	1.77	7.70679	0.00089879	-0.0316076	0.0104364	-0.424072	-0.35376	-0.908936	-0.647612	-0.010402	0.760924	-0.0385405	9.74545	-0.425795	-1.53085	0.00312177	0.015843	-0.0244222	-0.970703	-0.229004	-0.0996094	0.675136	0.376864	-0.43617	0.460348	9.55092	0.893053	3.26761	-0.090921	-0.00511643	0.0057526	-1.01196	-0.493652	-0.472656	-0.662438	-0.0723047	0.729003	-0.156533	9.71321	-1.291	-0.672319	-0.00165558	-0.00433348	-0.00647398	-1.20654	0.0549316	-0.311279	-0.729489	0.220944	0.572608	0.301909	9.52576	0.45868	2.33566	0.0388997	-0.00561591	0.00247209	-0.865967	0.117432	-0.625244	-0.789793	0.108966	0.504655	0.331174	9.59004	1.75754	5.15618	-0.0612146	0.00913242	-0.0520228	-0.914551	-0.226074	-0.682129	-0.402023	-0.0568499	0.913838	-0.00678389	6.84307	0.391917	-6.21022	0.00603714	0.0220061	-0.0199657	-0.982422	-0.328613	0.607422	-0.12249	-0.989367	0.0210923	-0.0755225	1.13223	2.33234	-8.11736	0.0089418	0.0153415	-0.0180363	-0.423096	-0.266113	0.95752	-0.0986729	-0.172257	-0.924855	-0.3244	-0.597132	5.94526	-7.14461	0.00375075	0.00149684	-0.0171617	-0.335205	-0.54248	0.913574	-0.0355149	-0.106864	0.993604	-0.00840044	0.338179	0.166761	-9.08142	0.000743135	0.00833633	-0.0012878	-0.420898	-0.215088	1.03369	0.00992132	-0.078021	0.996568	0.0258142	-0.254828	0.579683	-9.70089	-0.000462133	0.00624699	-0.00334126	-0.443359	-0.135986	1.146	
7	0.900331	0.173414	-0.333911	0.218713	7.25003	1.7495	7.71459	0.00279946	-0.0330241	0.00751608	-0.421875	-0.351562	-0.898193	-0.647527	-0.0106097	0.760988	-0.03865	9.68159	-0.445381	-1.42305	0.0168907	0.00426239	-0.0205761	-0.968506	-0.231201	-0.097168	0.675194	0.377289	-0.435537	0.460515	9.48313	1.24773	3.43662	-0.0535743	0.00820271	-0.00143868	-1.00342	-0.49585	-0.470459	-0.662503	-0.0720363	0.72897	-0.156533	9.74159	-1.26579	-0.73934	-0.00781013	0.021422	0.0133589	-1.20435	0.0549316	-0.311279	-0.729177	0.221337	0.572404	0.302759	9.6447	0.027427	2.4768	-0.0545939	0.0100855	-0.0316422	-0.872803	0.121826	-0.622803	-0.789758	0.109919	0.5035	0.332698	9.63201	1.95398	5.12057	-0.0853596	0.0588284	-0.0283929	-0.910156	-0.226074	-0.679932	-0.402528	-0.0566839	0.91363	-0.00627303	6.99907	0.36922	-6.28261	0.00558145	0.0213371	-0.0134868	-0.984863	-0.324219	0.603027	-0.122283	-0.989411	0.0209926	-0.0753135	1.13159	2.33309	-8.12634	0.0169846	0.00576035	-0.0211678	-0.42334	-0.261719	0.962158	-0.0985911	-0.17244	-0.925009	-0.323885	-0.585127	5.93456	-7.12726	0.0331088	-0.000259364	-0.0233236	-0.334961	-0.547119	0.920166	-0.0358978	-0.106958	0.993577	-0.00870904	0.341081	0.168524	-9.07364	0.00828671	0.0079554	-0.000252516	-0.420898	-0.212891	1.02905	0.0098928	-0.07802	0.996574	0.0256044	-0.257699	0.557527	-9.71106	0.00954942	0.0062285	-0.00467975	-0.441162	-0.140381	1.146	
8	0.900298	0.173432	-0.334131	0.218498	7.27429	1.75258	7.70786	-0.00369233	-0.00898719	-0.0116894	-0.421875	-0.35376	-0.904541	-0.647282	-0.0106004	0.761187	-0.0388363	9.68315	-0.448048	-1.48028	-0.00211762	0.0167778	-0.0153386	-0.96875	-0.224609	-0.0949707	0.675194	0.377289	-0.435537	0.460515	9.48313	1.24773	3.43662	-0.0535743	0.00820271	-0.00143868	-1.00342	-0.49585	-0.470459	-0.66277	-0.0717288	0.72874	-0.156617	9.70139	-1.37142	-0.749738	-0.0079665	0.0374386	0.0184344	-1.20239	0.0615234	-0.318115	-0.729222	0.221319	0.572511	0.302464	9.60637	0.0489868	2.43104	0.0170854	-0.00120151	0.00129684	-0.870605	0.121826	-0.622803	-0.789859	0.110013	0.503382	0.332606	9.5908	1.73746	5.13556	0.0421242	0.000902873	-0.00615191	-0.912354	-0.228271	-0.684326	-0.402715	-0.0566001	0.913552	-0.00626168	6.81196	0.368041	-6.45935	0.0135241	0.0258006	-0.0126469	-0.980225	-0.333008	0.601074	-0.122202	-0.989429	0.0209472	-0.07522	1.13704	2.31866	-8.14701	0.0122032	0.00954887	-0.0201006	-0.418701	-0.268066	0.955322	-0.0986056	-0.172464	-0.92506	-0.323725	-0.571865	5.94367	-7.13131	0.020563	0.000372534	-0.0214642	-0.333008	-0.540283	0.915771	-0.0358978	-0.106958	0.993577	-0.00870904	0.341081	0.168524	-9.07364	0.00828671	0.0079554	-0.000252516	-0.420898	-0.212891	1.02905	0.0098928	-0.07802	0.996574	0.0256044	-0.257699	0.557527	-9.71106	0.00954942	0.0062285	-0.00467975	-0.441162	-0.140381	1.146	
9	0.900342	0.173321	-0.334054	0.21852	7.16855	1.6869	7.67732	-0.000197127	0.00128469	0.00833708	-0.428467	-0.35376	-0.902588	-0.646982	-0.0107487	0.761428	-0.0390741	9.64947	-0.490309	-1.56888	0.0133359	0.00255466	-0.0176782	-0.9729	-0.231201	-0.0993652	0.675301	0.377609	-0.435187	0.460427	9.40508	1.20453	3.30199	0.0032188	0.00163357	-0.00917778	-1.00342	-0.49585	-0.472656	-0.663286	-0.0716897	0.728193	-0.156993	9.68362	-1.29264	-0.702436	0.0171152	0.0339392	0.00665694	-1.20654	0.0571289	-0.313721	-0.729103	0.22152	0.572496	0.302632	9.5667	0.214521	2.46433	-0.0282249	0.00644743	-0.0223212	-0.872803	0.121826	-0.622803	-0.790048	0.108959	0.504228	0.331219	9.56215	1.83205	5.14259	0.078485	-0.0018289	0.00933217	-0.914307	-0.232422	-0.684082	-0.403151	-0.056341	0.913378	-0.00593644	6.77205	0.33879	-6.33935	-0.0108136	0.0375641	-0.0142396	-0.984375	-0.333008	0.605225	-0.122168	-0.989439	0.0205691	-0.0752422	1.10628	2.32067	-8.11701	0.00548093	0.0111407	-0.0228143	-0.416748	-0.263916	0.959717	-0.0986982	-0.172256	-0.925118	-0.323641	-0.597484	5.93142	-7.15489	0.00593325	0.000859182	-0.0200684	-0.340088	-0.538086	0.917969	-0.035925	-0.106977	0.993574	-0.00876799	0.330312	0.165067	-9.07106	0.00569502	0.0079545	0.00212775	-0.427734	-0.210693	1.03149	0.00996077	-0.0781021	0.996561	0.0258382	-0.273513	0.574212	-9.71699	-0.00343746	0.00273265	-0.00445127	-0.443115	-0.144775	1.14844	
10	0.900199	0.173695	-0.333926	0.219009	7.18666	1.76435	7.73385	0.0244917	-0.00548561	0.0127446	-0.424316	-0.349365	-0.902588	-0.646779	-0.0109094	0.761591	-0.0392028	9.76138	-0.419292	-1.56242	0.00302482	0.00976093	-0.0218987	-0.970703	-0.231201	-0.104248	0.675502	0.377277	-0.435318	0.460279	9.46348	1.11312	3.4236	-0.0349392	0.0130958	-0.00262138	-1.00537	-0.502441	-0.474854	-0.66364	-0.0717518	0.727818	-0.157208	9.73718	-1.31357	-0.68864	0.0185182	0.0250892	-0.00169997	-1.20215	0.0571289	-0.318115	-0.729359	0.220986	0.572631	0.30215	9.6502	0.283636	2.46475	0.0334867	0.0150944	-1.29413e-06	-0.872803	0.124023	-0.629639	-0.790031	0.108839	0.504337	0.331132	9.63385	1.79788	5.20041	-0.0159908	0.0160687	-0.0308783	-0.912109	-0.234619	-0.677734	-0.403185	-0.056235	0.91337	-0.0058606	6.87909	0.391066	-6.35705	0.0211833	0.0069266	-0.0157401	-0.986816	-0.328613	0.60083	-0.122183	-0.989438	0.0205779	-0.0752396	1.12126	2.31351	-8.11768	0.00580201	0.0172521	-0.0149234	-0.423096	-0.263916	0.952881	-0.0986257	-0.172345	-0.924977	-0.324018	-0.584614	5.95241	-7.1447	-0.00410628	0.00868762	-0.0134001	-0.333008	-0.538086	0.920166	-0.0359161	-0.107059	0.993565	-0.00875961	0.348741	0.160386	-9.06861	0.00407601	0.0121434	0.000259643	-0.42334	-0.210693	1.03149	0.00987461	-0.0781092	0.996565	0.0257025	-0.253784	0.55741	-9.72086	0.00801266	0.0112523	-0.0048842	-0.443359	-0.135986	1.14819	
11	0.900078	0.173821	-0.334226	0.218949	7.19154	1.80148	7.74022	0.00194162	-0.0162604	-0.000973885	-0.42627	-0.355957	-0.900391	-0.64681	-0.0108813	0.761568	-0.0391465	9.69458	-0.495695	-1.63032	-0.00480177	0.0181276	-0.0176194	-0.970703	-0.229004	-0.0996094	0.675663	0.377117	-0.435248	0.46024	9.47877	1.11438	3.40679	-0.0369639	0.010617	-0.00664643	-1.00562	-0.49585	-0.477295	-0.663834	-0.0716586	0.727633	-0.157286	9.73029	-1.35574	-0.681041	0.00267585	0.0144007	0.00296725	-1.20215	0.0571289	-0.315918	-0.729383	0.221043	0.572608	0.302093	9.60231	0.340458	2.49131	-0.0091952	0.00718279	-0.0110807	-0.870605	0.121826	-0.629639	-0.789884	0.109634	0.50362	0.33231	9.57965	1.82291	5.14636	-0.0559842	0.0296273	-0.0379901	-0.912109	-0.232422	-0.681885	-0.403511	-0.0561838	0.913228	-0.00601165	6.80873	0.324464	-6.30651	0.0256335	0.019256	-0.0141233	-0.984375	-0.333008	0.605225	-0.122183	-0.989438	0.0205779	-0.0752396	1.12126	2.31351	-8.11768	0.00580201	0.0172521	-0.0149234	-0.423096	-0.263916	0.952881	-0.0986648	-0.172157	-0.924943	-0.324204	-0.576353	5.93476	-7.13272	-0.00498924	0.00417154	-0.0170444	-0.332764	-0.54248	0.920166	-0.0359161	-0.107059	0.993565	-0.00875961	0.348741	0.160386	-9.06861	0.00407601	0.0121434	0.000259643	-0.42334	-0.210693	1.03149	0.00989033	-0.0780874	0.996566	0.0256954	-0.256703	0.567415	-9.7192	0.00185664	0.00375865	-0.00403267	-0.436523	-0.142578	1.146	
12	0.900104	0.173871	-0.334308	0.21868	7.17804	1.74727	7.68302	0.000494998	-0.00928696	-0.00918758	-0.42627	-0.35376	-0.902588	-0.64708	-0.010942	0.761334	-0.0392153	9.68469	-0.458797	-1.56715	-0.00874995	0.0259695	-0.0208526	-0.9729	-0.229004	-0.097168	0.675435	0.377551	-0.434763	0.460678	9.41814	1.27696	3.43444	0.0594775	0.0158254	-0.0101734	-1.00317	-0.500244	-0.472412	-0.663669	-0.0721161	0.72771	-0.157416	9.71671	-1.29293	-0.622395	0.0151169	-0.0105626	-0.0058449	-1.20459	0.0593262	-0.315918	-0.729383	0.221348	0.572391	0.302279	9.59609	0.20174	2.46456	-0.0326418	0.0156609	-0.00745126	-0.866455	0.126221	-0.625244	-0.789862	0.110188	0.502868	0.333316	9.61279	1.74993	5.20343	-0.0476149	0.0338395	-0.0329737	-0.914551	-0.228271	-0.682129	-0.403499	-0.0561386	0.913236	-0.00615699	6.84326	0.422022	-6.30902	0.0195359	0.00681169	-0.0118217	-0.984619	-0.326416	0.605225	-0.121992	-0.989465	0.0199849	-0.0753553	1.12086	2.31045	-8.13878	0.0114717	0.0125765	-0.0160171	-0.42334	-0.257324	0.957275	-0.0987293	-0.172149	-0.924683	-0.32493	-0.587191	5.94786	-7.12657	-0.0337914	0.0072393	-0.015808	-0.337402	-0.54248	0.915771	-0.0360399	-0.107112	0.993554	-0.00890956	0.346994	0.172025	-9.07255	0.00427819	0.00984089	0.000960914	-0.425537	-0.212891	1.03369	0.009934	-0.078079	0.996564	0.0257836	-0.260068	0.548468	-9.71949	-0.00159434	0.00598218	-0.00455835	-0.436523	-0.138184	1.15039	
13	0.900226	0.173937	-0.334009	0.21858	7.23238	1.69851	7.75239	0.00716311	0.0133964	-0.0127829	-0.428467	-0.351562	-0.906982	-0.646759	-0.0109036	0.76161	-0.0391699	9.69065	-0.481785	-1.60258	0.00208479	-0.00162769	-0.0178856	-0.968506	-0.226807	-0.097168	0.67578	0.376838	-0.43522	0.460324	9.43944	1.21546	3.40551	-0.0402913	0.00413213	0.00203981	-1.00537	-0.498047	-0.472656	-0.663424	-0.0719134	0.728012	-0.157146	9.76856	-1.3856	-0.773734	0.00269023	-0.00296285	0.00293542	-1.20215	0.0571289	-0.315918	-0.729691	0.220631	0.572577	0.30171	9.58097	0.303445	2.56186	0.0314293	-0.00510304	-0.0185972	-0.872803	0.124023	-0.622803	-0.789876	0.110439	0.502541	0.333694	9.57492	1.87258	5.17207	-0.00758973	0.0201218	-0.00881022	-0.910156	-0.226074	-0.682129	-0.403433	-0.055842	0.913285	-0.00575656	6.84057	0.351697	-6.42265	-0.0117363	0.00857782	-0.0128527	-0.986816	-0.328613	0.607422	-0.121916	-0.989473	0.0197173	-0.0754333	1.11021	2.32055	-8.12805	0.00664989	0.0126432	-0.0180953	-0.425537	-0.259521	0.95752	-0.0988775	-0.172057	-0.92418	-0.326359	-0.589472	5.97797	-7.11574	-0.0554562	0.00547224	-0.0189514	-0.337402	-0.544922	0.915771	-0.0359895	-0.107151	0.993551	-0.00894579	0.347508	0.155668	-9.08014	0.00770061	0.00916148	-0.0001781	-0.420898	-0.215088	1.03833	0.00989671	-0.0781349	0.996563	0.0256748	-0.256254	0.572151	-9.71844	0.00521692	0.00550536	-0.00473725	-0.443115	-0.142578	1.15063	
14	0.900338	0.174165	-0.333672	0.218452	7.17996	1.79749	7.7624	0.0172601	0.0169583	-0.0226837	-0.428467	-0.35376	-0.900391	-0.646685	-0.0108248	0.761681	-0.03902	9.81969	-0.413611	-1.50051	-0.0208119	0.00508811	-0.0215801	-0.974854	-0.235596	-0.0969238	0.675641	0.377067	-0.435078	0.460475	9.46633	1.00032	3.36191	0.0253823	0.00477106	-0.00155675	-1.00537	-0.498047	-0.472656	-0.663389	-0.0718602	0.728016	-0.157301	9.705	-1.30981	-0.651358	0.00430179	0.00222404	0.00619928	-1.20874	0.0571289	-0.318115	-0.729785	0.220476	0.572517	0.301709	9.70097	0.23903	2.49866	0.00884978	0.0193464	-0.0180753	-0.870605	0.121826	-0.620605	-0.789883	0.110478	0.502628	0.333534	9.61094	1.75639	5.1921	0.00961273	0.00640862	-0.00455379	-0.912354	-0.228271	-0.684326	-0.40356	-0.055928	0.913223	-0.00592003	6.88873	0.340759	-6.39013	0.0157291	0.0109553	-0.00924532	-0.984375	-0.333008	0.601074	-0.121949	-0.989476	0.0196734	-0.0753623	1.11386	2.32022	-8.13986	0.00308394	0.0115153	-0.0207973	-0.423096	-0.266113	0.955078	-0.0988775	-0.172057	-0.92418	-0.326359	-0.589472	5.97797	-7.11574	-0.0554562	0.00547224	-0.0189514	-0.337402	-0.544922	0.915771	-0.0359895	-0.107151	0.993551	-0.00894579	0.347508	0.155668	-9.08014	0.00770061	0.00916148	-0.0001781	-0.420898	-0.215088	1.03833	0.00990176	-0.0781264	0.996564	0.0256703	-0.262774	0.557639	-9.7179	0.00282088	0.00625281	-0.0040729	-0.445312	-0.14502	1.14844	
15	0.900387	0.174258	-0.333668	0.218179	7.17452	1.85223	7.74706	-0.00968127	-0.01027	-0.00233639	-0.424072	-0.355957	-0.902588	-0.646732	-0.0106902	0.761652	-0.0388541	9.67625	-0.459358	-1.56305	-0.0250992	0.0179321	-0.0187299	-0.968262	-0.233398	-0.0969238	0.675744	0.377181	-0.434973	0.46033	9.53027	1.2075	3.35898	-0.0273611	0.00810084	-0.0123747	-1.00977	-0.49585	-0.472656	-0.663405	-0.0716598	0.728025	-0.157286	9.72403	-1.36803	-0.752035	0.00572183	0.0175105	0.00458737	-1.19751	0.0527344	-0.313477	-0.72977	0.220826	0.572398	0.301714	9.64512	0.237821	2.45761	-0.0415824	0.0188545	-0.0181485	-0.87085	0.126221	-0.627441	-0.789941	0.110265	0.502969	0.332952	9.61307	1.81455	5.18369	0.0216527	0.0136974	0.00362869	-0.914307	-0.230469	-0.682129	-0.403304	-0.055704	0.913351	-0.00580091	6.87248	0.37164	-6.29971	0.00489601	0.00260297	-0.0110404	-0.982422	-0.330811	0.605225	-0.122089	-0.989456	0.0193606	-0.0754757	1.11283	2.32469	-8.12341	0.00276181	0.0144415	-0.0199152	-0.420898	-0.266113	0.962158	-0.0992128	-0.171717	-0.923448	-0.328502	-0.583868	6.0086	-7.09361	-0.0132764	0.00562056	-0.0196939	-0.336914	-0.553955	0.913574	-0.0359895	-0.107151	0.993551	-0.00894579	0.347508	0.155668	-9.08014	0.00770061	0.00916148	-0.0001781	-0.420898	-0.215088	1.03833	0.00986885	-0.078176	0.996556	0.0258228	-0.268651	0.561287	-9.71619	-0.00199383	0.00738496	-0.00668401	-0.445312	-0.14502	1.146	
16	0.900216	0.173896	-0.334236	0.218304	7.09389	1.74445	7.73762	-0.0162592	-0.0311153	0.0175454	-0.432861	-0.35376	-0.900391	-0.646979	-0.0107283	0.761461	-0.0384638	9.68446	-0.432726	-1.54504	-0.00595206	0.0243097	-0.0209971	-0.972656	-0.235596	-0.0969238	0.675767	0.377376	-0.43471	0.460384	9.42566	1.04172	3.45104	0.0521888	0.0179837	-0.0113808	-1.01392	-0.504395	-0.472412	-0.663526	-0.0717691	0.72788	-0.157394	9.68907	-1.32277	-0.648104	0.0152369	0.0192591	-0.00194457	-1.20654	0.0549316	-0.320312	-0.729842	0.220972	0.57223	0.301752	9.58477	0.0516909	2.38618	-0.0134581	0.0176865	-0.00534835	-0.875	0.126221	-0.627441	-0.790025	0.110314	0.502873	0.332883	9.59939	1.76112	5.15501	0.00352274	0.0189287	-0.0138658	-0.912354	-0.230469	-0.688477	-0.40345	-0.0556197	0.913292	-0.0056788	6.81709	0.35863	-6.4066	0.00498535	0.0220123	-0.0149262	-0.978027	-0.333008	0.605225	-0.122075	-0.989466	0.0193097	-0.0753737	1.11771	2.31975	-8.11503	0.00713076	0.00927841	-0.020818	-0.420898	-0.268311	0.962158	-0.0992314	-0.171714	-0.923345	-0.328788	-0.581825	6.01314	-7.08273	-0.0169045	0.00561065	-0.0180961	-0.337158	-0.551758	0.915771	-0.036458	-0.107208	0.993527	-0.0090723	0.34107	0.161079	-9.05639	0.00175972	0.00859591	-0.000302746	-0.425537	-0.210693	1.03369	0.00989132	-0.0781632	0.996558	0.0257869	-0.267541	0.560808	-9.72593	0.00610005	0.00626348	-0.00479933	-0.443115	-0.142578	1.146	
17	0.899889	0.173877	-0.334951	0.218572	7.23143	1.64822	7.68125	0.00893748	-0.025504	0.0185788	-0.428711	-0.351562	-0.900391	-0.647134	-0.0109795	0.761319	-0.0386075	9.74857	-0.490034	-1.53664	0.0108053	0.0232836	-0.022329	-0.970947	-0.224609	-0.0996094	0.676021	0.377133	-0.434609	0.460305	9.48791	1.10773	3.39937	-0.0485716	0.0172289	0.00311054	-1.00977	-0.504395	-0.474609	-0.663728	-0.0716803	0.727713	-0.157356	9.72342	-1.37792	-0.73663	0.00651646	0.0183093	-0.000205838	-1.19751	0.0527344	-0.311279	-0.729831	0.221299	0.571971	0.30203	9.59369	0.315246	2.55926	-0.0463531	0.01855	-0.0145624	-0.864258	0.130615	-0.625244	-0.79008	0.109997	0.5031	0.332511	9.59458	1.77371	5.19249	0.0372433	0.00454057	-0.00933142	-0.910156	-0.228271	-0.684326	-0.402949	-0.0559224	0.913492	-0.0061107	6.89629	0.352452	-6.29189	0.0430023	-0.0202143	-0.0220751	-0.982422	-0.330811	0.598877	-0.122037	-0.989476	0.0192751	-0.0753133	1.12731	2.32284	-8.12619	0.00505589	0.0163096	-0.016598	-0.427734	-0.259521	0.959717	-0.0992658	-0.171773	-0.92311	-0.329405	-0.578434	6.02531	-7.08163	-0.0180296	0.00527109	-0.0151093	-0.334717	-0.551514	0.911377	-0.0363576	-0.107281	0.993522	-0.00908115	0.340663	0.166411	-9.05546	0.00612428	0.00984981	0.000133397	-0.421143	-0.208496	1.03125	0.00986494	-0.0781642	0.996561	0.025662	-0.25385	0.565439	-9.72773	0.0122423	0.00937461	-0.00484991	-0.438965	-0.138184	1.146	
18	0.899717	0.174129	-0.335045	0.218939	7.2507	1.68607	7.7019	0.0283827	-0.0150137	0.0234453	-0.428711	-0.349365	-0.904785	-0.646926	-0.0112079	0.761486	-0.03873	9.68955	-0.39954	-1.56452	-0.00774116	-0.00247533	-0.0258134	-0.966064	-0.235596	-0.0969238	0.675785	0.37769	-0.434153	0.460625	9.43785	1.42126	3.49678	0.0423871	0.0104772	-0.0119292	-1.00757	-0.502441	-0.479248	-0.663839	-0.0716839	0.72762	-0.157314	9.73359	-1.28205	-0.612668	-0.0143532	0.00174196	0.00114585	-1.20435	0.0571289	-0.315918	-0.730131	0.220582	0.572134	0.301522	9.60128	0.139463	2.43865	0.0739568	0.00816924	-0.00739117	-0.864014	0.124023	-0.627441	-0.790035	0.109282	0.503771	0.331837	9.61386	1.76369	5.17354	0.0526718	-0.00293463	-0.0159624	-0.909912	-0.232422	-0.684082	-0.402906	-0.0560002	0.913505	-0.00618578	6.80807	0.326984	-6.35242	0.0366248	0.0140566	-0.0166721	-0.982422	-0.328613	0.605225	-0.122076	-0.989475	0.0192344	-0.075281	1.11663	2.31767	-8.13597	0.0026945	0.0145276	-0.0202976	-0.421143	-0.263916	0.952881	-0.0992676	-0.171782	-0.923093	-0.329447	-0.576458	6.04191	-7.07514	0.00345826	0.00404405	-0.019878	-0.3396	-0.549316	0.917969	-0.0363365	-0.107296	0.993522	-0.00903617	0.332366	0.164976	-9.07679	0.000759113	0.0109865	0.00113345	-0.420898	-0.215088	1.03149	0.00983078	-0.0782007	0.996557	0.0257468	-0.259699	0.555794	-9.71675	-0.0109643	0.00372305	-0.00377377	-0.443359	-0.140381	1.1438	
19	0.89956	0.174636	-0.334794	0.219561	7.22267	1.74696	7.72114	0.0299189	0.00451202	0.0148626	-0.426025	-0.358154	-0.902588	-0.646557	-0.0114091	0.761784	-0.0389663	9.72035	-0.408167	-1.60563	-0.000106535	-0.00431202	-0.014299	-0.968262	-0.233398	-0.0993652	0.675896	0.377353	-0.43457	0.460347	9.42587	0.984355	3.40055	-0.00134392	-0.00767754	0.00331271	-1.00098	-0.504639	-0.477051	-0.663848	-0.0716556	0.727622	-0.157281	9.70841	-1.33235	-0.65173	0.00195945	0.00702997	-0.00360547	-1.19995	0.0571289	-0.315918	-0.729986	0.220739	0.572165	0.301699	9.6347	0.321557	2.49876	-0.0435564	-0.00444296	-0.0233263	-0.862061	0.126221	-0.622803	-0.790113	0.108806	0.504048	0.331388	9.5968	1.80867	5.16744	0.021076	0.0140306	-0.00816963	-0.907959	-0.228271	-0.679932	-0.402861	-0.0561563	0.913514	-0.00644196	6.87908	0.398199	-6.37395	0.0413496	0.00734126	-0.0201534	-0.984619	-0.326416	0.603027	-0.122076	-0.989475	0.0192344	-0.075281	1.11663	2.31767	-8.13597	0.0026945	0.0145276	-0.0202976	-0.421143	-0.263916	0.952881	-0.0993511	-0.171387	-0.923298	-0.329054	-0.569825	6.05093	-7.09769	0.0183092	0.00209562	-0.0293325	-0.33252	-0.551514	0.913574	-0.0364112	-0.107319	0.993518	-0.00887617	0.343103	0.17207	-9.07166	-0.0044431	0.00881384	0.000225979	-0.432129	-0.212891	1.03149	0.00980776	-0.0782333	0.996545	0.0260912	-0.260635	0.570847	-9.71554	-0.0126774	0.00307543	-0.00363373	-0.440674	-0.146973	1.146	
20	0.899481	0.175238	-0.334826	0.219357	7.14065	1.77471	7.72761	0.0127202	-0.0219126	-0.0138812	-0.43042	-0.358154	-0.898193	-0.646558	-0.0115389	0.761782	-0.0389683	9.67759	-0.456828	-1.58601	0.00503158	0.00993603	-0.0243046	-0.9729	-0.226807	-0.0996094	0.675829	0.377681	-0.434253	0.460475	9.45109	1.23514	3.36874	-0.00920816	0.00868747	-0.00865791	-1.00342	-0.498047	-0.470215	-0.663817	-0.071593	0.72767	-0.157216	9.75563	-1.32577	-0.707605	0.00775156	0.00599535	0.00347027	-1.2063	0.0527344	-0.315674	-0.730086	0.220498	0.572306	0.301365	9.58578	0.0781928	2.53157	0.0514186	0.00261816	-0.00727867	-0.868164	0.119629	-0.625244	-0.790086	0.109025	0.503926	0.331565	9.56395	1.75902	5.19826	-0.00684259	0.00949702	-0.0196058	-0.918701	-0.230469	-0.684082	-0.402823	-0.0564286	0.913513	-0.00659222	6.82107	0.326818	-6.37363	0.0188194	0.00377883	-0.0162619	-0.984619	-0.328613	0.607422	-0.122076	-0.989475	0.0192344	-0.075281	1.11663	2.31767	-8.13597	0.0026945	0.0145276	-0.0202976	-0.421143	-0.263916	0.952881	-0.0988127	-0.171026	-0.925027	-0.324518	-0.571615	5.94821	-7.14802	0.131382	0.00765717	-0.0306805	-0.335205	-0.54248	0.911377	-0.0364502	-0.107338	0.993513	-0.00907901	0.346266	0.163286	-9.07535	0.0100612	0.00868699	0.000887189	-0.425537	-0.212891	1.03369	0.00997527	-0.0782216	0.996549	0.0259349	-0.253011	0.579542	-9.71626	0.0171309	0.00391807	-0.00493802	-0.443359	-0.140381	1.146	
21	0.899393	0.175499	-0.335056	0.219158	7.18229	1.84806	7.73372	0.00994733	-0.0303738	-0.0167775	-0.423828	-0.358154	-0.895996	-0.646508	-0.0117771	0.761811	-0.03915	9.68987	-0.461532	-1.49503	0.0164195	0.00783654	-0.0240742	-0.9729	-0.231201	-0.097168	0.675836	0.377371	-0.43468	0.460315	9.44008	1.16399	3.46902	-0.0381377	-0.00991651	0.0125889	-1.00537	-0.498047	-0.472656	-0.663785	-0.0715905	0.72769	-0.157263	9.6816	-1.31742	-0.67803	0.0011607	0.00209697	0.00308913	-1.20215	0.0571289	-0.315918	-0.730229	0.220355	0.572312	0.301111	9.55404	0.343324	2.49873	-0.021719	0.00427443	-0.0116841	-0.866211	0.119629	-0.629639	-0.789983	0.109041	0.504038	0.331636	9.60937	1.80206	5.1581	0.00143427	0.00306312	-0.0231699	-0.914551	-0.228271	-0.684326	-0.402832	-0.0567803	0.913487	-0.00665508	6.8577	0.393464	-6.23023	0.00177409	-0.000961337	-0.019391	-0.982178	-0.335205	0.605469	-0.122076	-0.989475	0.0192344	-0.075281	1.11663	2.31767	-8.13597	0.0026945	0.0145276	-0.0202976	-0.421143	-0.263916	0.952881	-0.0988176	-0.171094	-0.925048	-0.324419	-0.607224	5.92485	-7.12584	-0.0177301	0.000525443	-0.0156897	-0.330566	-0.54248	0.913574	-0.0364427	-0.107417	0.993499	-0.00964714	0.332013	0.15679	-9.06931	0.0214458	0.0146058	0.000761397	-0.423096	-0.212891	1.03589	0.00988155	-0.0782039	0.996562	0.0255258	-0.267604	0.547527	-9.71532	0.0343109	0.0164581	-0.00360234	-0.447754	-0.140625	1.14136	
22	0.899133	0.175361	-0.335757	0.21926	7.21694	1.65844	7.682	-0.00585761	-0.0343526	0.0204839	-0.430664	-0.355957	-0.898193	-0.64608	-0.0119851	0.762159	-0.0393626	9.69079	-0.470003	-1.63875	0.0137056	0.0042536	-0.0220572	-0.970703	-0.231201	-0.0947266	0.675699	0.377893	-0.433979	0.46075	9.51046	1.02962	3.23548	0.057832	0.0341744	-0.00841648	-1.00122	-0.500244	-0.477051	-0.663858	-0.0715769	0.727613	-0.157315	9.77573	-1.357	-0.754331	0.00504032	0.0140365	0.00287814	-1.20435	0.0549316	-0.318115	-0.730155	0.220137	0.572537	0.301021	9.66041	0.102255	2.59111	0.0197446	-0.00584749	-0.0247806	-0.876953	0.117432	-0.622803	-0.789905	0.109336	0.503947	0.331862	9.59713	1.78407	5.20466	-0.0152658	0.010926	-0.011941	-0.914307	-0.232422	-0.681885	-0.403054	-0.056765	0.91339	-0.00665553	6.82103	0.397601	-6.51265	0.0159725	0.029204	-0.0160029	-0.980225	-0.330811	0.601074	-0.121178	-0.989535	0.0170881	-0.0764547	1.12409	2.32059	-8.12642	0.0115369	0.0161213	-0.0211826	-0.42334	-0.259521	0.955078	-0.0988938	-0.171165	-0.924846	-0.324934	-0.57843	5.94115	-7.10548	-0.0366587	0.00207855	-0.0108872	-0.330322	-0.544922	0.922607	-0.0364427	-0.107417	0.993499	-0.00964714	0.332013	0.15679	-9.06931	0.0214458	0.0146058	0.000761397	-0.423096	-0.212891	1.03589	0.00968019	-0.0782137	0.996575	0.0250393	-0.23766	0.558775	-9.68881	0.0133385	0.0122818	-0.00445293	-0.445312	-0.14502	1.15063	
23	0.898606	0.176338	-0.336342	0.21974	7.25216	1.81819	7.63179	0.0493272	-0.0394721	0.0141498	-0.434814	-0.358154	-0.902588	-0.645762	-0.0124894	0.76239	-0.0399551	9.69822	-0.41308	-1.60922	0.0206846	-0.00598646	-0.0161616	-0.9729	-0.231201	-0.097168	0.675223	0.378741	-0.433258	0.461429	9.3673	1.38161	3.43466	0.0389086	0.0159778	-0.00344033	-1.00098	-0.504639	-0.470215	-0.664105	-0.0717582	0.72729	-0.157683	9.70134	-1.26164	-0.633023	0.00967412	0.0165099	0.00528369	-1.19995	0.0593262	-0.315918	-0.730564	0.219451	0.572784	0.30006	9.54876	0.34663	2.46282	0.057286	0.00112742	0.0100087	-0.866211	0.119629	-0.627441	-0.789559	0.10939	0.504272	0.332175	9.57136	1.82397	5.12847	-0.00102425	-0.00300119	-0.0326637	-0.912109	-0.232422	-0.681885	-0.403344	-0.0566659	0.91327	-0.00640157	6.83379	0.353269	-6.25788	-0.00789231	0.029545	-0.0161292	-0.980225	-0.328613	0.605225	-0.120946	-0.989569	0.016749	-0.0764479	1.12348	2.31982	-8.11865	0.0131848	0.00952454	-0.0208573	-0.418945	-0.263916	0.955078	-0.0989826	-0.171179	-0.924806	-0.325015	-0.611832	5.97733	-7.14145	0.0229414	-0.000766801	-0.0247523	-0.339844	-0.540283	0.913574	-0.0364687	-0.107471	0.993489	-0.00995433	0.339548	0.14763	-9.06919	0.00682326	0.00880363	0.00162665	-0.42334	-0.210693	1.03149	0.00972638	-0.0782119	0.996575	0.0250256	-0.253003	0.550918	-9.72592	0.00202769	0.00503593	-0.00358782	-0.443359	-0.138184	1.146	
24	0.898258	0.176708	-0.336692	0.220332	7.26299	1.91423	7.60953	0.00518382	-0.0119128	0.0178475	-0.43457	-0.362549	-0.900391	-0.645901	-0.0124418	0.762275	-0.0399171	9.68701	-0.503615	-1.64751	-0.0171254	0.02084	-0.0187488	-0.972656	-0.235596	-0.0944824	0.675214	0.378832	-0.432932	0.461672	9.42534	0.97422	3.54928	0.0340211	0.0133847	0.00300148	-1.00537	-0.502441	-0.472412	-0.664143	-0.0716662	0.727229	-0.15785	9.69573	-1.40642	-0.651606	0.011053	0.00820085	0.00171	-1.20435	0.0571289	-0.313721	-0.730417	0.22009	0.572448	0.300589	9.66698	0.157964	2.32397	-0.0696872	0.0176644	-0.0254392	-0.868408	0.121826	-0.625244	-0.78955	0.109528	0.504316	0.332083	9.60441	1.92183	5.09354	-0.00150226	0.00605031	-0.00503948	-0.912354	-0.228271	-0.682129	-0.403229	-0.0567328	0.913315	-0.00655715	6.79749	0.364862	-6.48363	0.0340273	0.00594347	-0.0159798	-0.984619	-0.326416	0.605225	-0.12101	-0.98956	0.0167101	-0.0764732	1.13469	2.31276	-8.14204	0.00102859	0.0195666	-0.0190766	-0.421143	-0.261719	0.95752	-0.0988358	-0.171193	-0.925207	-0.323909	-0.594255	5.95284	-7.13073	0.0600054	0.00213177	-0.0283576	-0.333008	-0.540283	0.922363	-0.0364478	-0.107516	0.993485	-0.0100042	0.33509	0.141297	-9.05975	0.00946329	0.0136324	0.00167863	-0.425537	-0.212891	1.02686	0.00971039	-0.0781754	0.996576	0.0251066	-0.257663	0.552745	-9.71468	-0.00211997	0.00645724	-0.00320119	-0.443115	-0.142578	1.15063	
25	0.89865	0.17592	-0.33654	0.219594	7.2444	1.81566	7.69499	-0.0530266	0.00799647	-0.0289471	-0.432861	-0.355957	-0.902588	-0.646043	-0.0124305	0.762169	-0.0396568	9.72161	-0.475593	-1.52217	-0.0181014	0.0184184	-0.0258726	-0.970703	-0.229004	-0.0947266	0.675229	0.378591	-0.433255	0.461546	9.50909	1.39261	3.31546	-0.0619834	0.00371385	0.00268515	-1.00537	-0.502441	-0.474854	-0.664004	-0.0713966	0.727434	-0.157608	9.76355	-1.28802	-0.700078	-0.0259155	-0.00329589	0.009904	-1.20898	0.0615234	-0.320312	-0.730534	0.220094	0.572515	0.300176	9.52843	0.205573	2.60796	0.0255315	0.00266106	-0.000138021	-0.872803	0.124023	-0.622803	-0.789805	0.109577	0.50395	0.332019	9.55308	1.78589	5.16757	0.0203408	0.0128158	-0.0142631	-0.914062	-0.236816	-0.686035	-0.403423	-0.0567927	0.913223	-0.00686078	6.85369	0.300267	-6.26381	0.0339896	0.0165915	-0.0179848	-0.984619	-0.326416	0.60083	-0.120855	-0.989568	0.0163295	-0.076698	1.12805	2.31445	-8.12508	0.0103301	0.0190915	-0.021456	-0.42334	-0.257324	0.957275	-0.0986068	-0.171266	-0.92561	-0.322787	-0.602082	5.88703	-7.12501	0.0446114	0.00864881	-0.0179558	-0.333008	-0.538086	0.920166	-0.0364478	-0.107516	0.993485	-0.0100042	0.33509	0.141297	-9.05975	0.00946329	0.0136324	0.00167863	-0.425537	-0.212891	1.02686	0.00960132	-0.0781562	0.996589	0.0246917	-0.256627	0.537697	-9.72488	0.0218914	0.0124574	-0.00475236	-0.443359	-0.138184	1.14355	
26	0.898797	0.175343	-0.336728	0.219165	7.1626	1.67697	7.64078	-0.0585897	-0.0101256	-0.0156513	-0.432617	-0.358154	-0.898193	-0.646333	-0.0124325	0.761923	-0.0396639	9.72128	-0.427632	-1.74426	-0.00772169	0.0311705	-0.0231314	-0.970459	-0.233398	-0.0969238	0.675036	0.378644	-0.433181	0.461853	9.39887	0.974465	3.42769	0.0723745	0.0121367	0.0092423	-1.00537	-0.504639	-0.477051	-0.664245	-0.07142	0.727167	-0.157817	9.67438	-1.37351	-0.639528	0.0144125	0.0256306	-0.00174671	-1.20215	0.0549316	-0.32251	-0.730272	0.221149	0.572097	0.300833	9.67238	0.228389	2.35035	-0.0699745	0.00816332	-0.00976479	-0.868164	0.119629	-0.627441	-0.790068	0.108937	0.504369	0.330964	9.64956	1.80184	5.11579	0.0539654	0.0124548	0.0108094	-0.912109	-0.232422	-0.679932	-0.40292	-0.0567556	0.91345	-0.00656516	6.77939	0.371541	-6.30835	0.000660946	-0.0216911	-0.0196744	-0.984619	-0.326416	0.607178	-0.121039	-0.989507	0.0160846	-0.0772426	1.13012	2.31597	-8.12682	-0.00370771	0.0314633	-0.0155828	-0.420898	-0.263916	0.955078	-0.0985588	-0.171348	-0.925513	-0.323034	-0.59314	5.89912	-7.17974	-0.0126503	0.00807123	-0.0105836	-0.330811	-0.535645	0.922363	-0.0366091	-0.107531	0.993473	-0.0104085	0.345482	0.140218	-9.07291	0.0117362	0.00967222	0.000848623	-0.425537	-0.208496	1.03589	0.00971333	-0.0781234	0.996596	0.0244851	-0.244804	0.528427	-9.72702	0.0104072	0.00173679	-0.00393344	-0.441162	-0.135986	1.15039	
27	0.898824	0.175607	-0.336483	0.219217	7.12986	1.77461	7.68564	0.0249523	0.00790731	-0.00154272	-0.439209	-0.360352	-0.902588	-0.646304	-0.0121695	0.76196	-0.0394913	9.71497	-0.559318	-1.56938	-0.0124877	0.0136451	-0.0133138	-0.9729	-0.229004	-0.0947266	0.674967	0.378539	-0.433144	0.462076	9.46816	1.32589	3.37696	-0.0590118	0.01025	0.0125585	-1.00122	-0.502441	-0.474854	-0.664333	-0.0711906	0.727081	-0.157947	9.73816	-1.31987	-0.683323	-0.00270836	0.00971161	0.0146314	-1.20435	0.0549316	-0.32251	-0.729992	0.221432	0.572242	0.301029	9.53878	0.215148	2.60102	-0.0072752	-0.0113411	-0.0224281	-0.862061	0.126221	-0.620605	-0.790438	0.108218	0.504809	0.329643	9.5299	1.80486	5.1956	0.0612592	0.0071582	0.0153637	-0.916504	-0.230469	-0.682129	-0.402876	-0.0566599	0.913475	-0.00668403	6.85793	0.324656	-6.39745	0.0196921	0.00875383	-0.00809755	-0.978271	-0.326416	0.603027	-0.121054	-0.989492	0.0158335	-0.0774642	1.13373	2.3166	-8.12403	0.00316267	0.0185691	-0.0168392	-0.429932	-0.259521	0.952637	-0.0988107	-0.171172	-0.925158	-0.324067	-0.596692	5.94232	-7.14823	-0.0420072	0.000775588	-0.0138436	-0.334961	-0.544922	0.917969	-0.0366091	-0.107531	0.993473	-0.0104085	0.345482	0.140218	-9.07291	0.0117362	0.00967222	0.000848623	-0.425537	-0.208496	1.03589	0.00969581	-0.0780994	0.996601	0.0243659	-0.260435	0.529291	-9.72394	0.00365558	0.00745437	-0.00456529	-0.445557	-0.138184	1.146	
28	0.898743	0.175877	-0.33663	0.219107	7.18199	1.83924	7.67693	0.0142948	-0.0229481	-0.0120652	-0.430664	-0.35376	-0.894043	-0.64637	-0.012092	0.761905	-0.0394905	9.70704	-0.450533	-1.62213	-0.0114776	0.0203641	-0.0145217	-0.970459	-0.233398	-0.0969238	0.675011	0.378207	-0.433444	0.462002	9.45497	0.879736	3.50389	-0.0336543	0.00062722	0.013109	-1.00342	-0.498047	-0.474854	-0.66434	-0.0713659	0.727016	-0.158133	9.69599	-1.35927	-0.686065	0.0156469	0.00433823	-0.00526768	-1.19995	0.0593262	-0.315918	-0.729765	0.221682	0.572225	0.301428	9.64839	0.185914	2.34288	-0.00798894	-0.00473295	-0.0237224	-0.868408	0.121826	-0.615967	-0.790713	0.108432	0.504393	0.329551	9.65608	1.7976	5.15862	-0.045462	0.045985	-0.00999609	-0.912354	-0.226074	-0.682129	-0.402586	-0.0564957	0.913615	-0.00633956	6.83958	0.304993	-6.39815	0.0125189	-0.00304058	-0.014711	-0.982666	-0.324219	0.603027	-0.121124	-0.989454	0.0153484	-0.0779394	1.1391	2.31633	-8.13601	0.00118223	0.0197779	-0.0169615	-0.425293	-0.261719	0.959717	-0.0988753	-0.170786	-0.925105	-0.324403	-0.591663	5.94736	-7.14714	-0.00765337	0.00441038	-0.0159926	-0.330322	-0.544678	0.920166	-0.0366091	-0.107531	0.993473	-0.0104085	0.345482	0.140218	-9.07291	0.0117362	0.00967222	0.000848623	-0.425537	-0.208496	1.03589	0.00970788	-0.0781144	0.996599	0.0243883	-0.250622	0.54652	-9.70459	0.000645906	0.00525776	-0.00608884	-0.443604	-0.135986	1.15039	
29	0.899099	0.175378	-0.33631	0.218538	7.13043	1.76833	7.68926	-0.0269475	0.00392082	-0.00161616	-0.430664	-0.35376	-0.902588	-0.646607	-0.0118672	0.761725	-0.0391731	9.71782	-0.491921	-1.47294	-0.0136404	0.0291527	-0.0199127	-0.968506	-0.231201	-0.0947266	0.674729	0.378627	-0.433068	0.462422	9.38373	1.22862	3.46926	-0.0324056	0.00136389	0.00266591	-0.999023	-0.498047	-0.479492	-0.664241	-0.0715237	0.727087	-0.158153	9.6729	-1.31274	-0.615125	-0.016745	-0.0059109	-0.00176053	-1.20898	0.0615234	-0.320312	-0.729465	0.221981	0.572173	0.302033	9.60525	0.19777	2.50145	-0.036571	0.0111676	-0.0261263	-0.866211	0.121826	-0.622803	-0.790783	0.109663	0.503203	0.330791	9.59463	1.72009	5.18404	-0.0696261	0.0316004	-0.0336649	-0.907959	-0.228271	-0.686523	-0.402522	-0.0567644	0.913622	-0.00694996	6.88938	0.338406	-6.2686	0.0417176	0.00220416	-0.0160607	-0.980469	-0.326416	0.605225	-0.121497	-0.989375	0.0150819	-0.0784156	1.15029	2.31559	-8.12296	-0.0111596	0.0290951	-0.0172655	-0.423096	-0.263916	0.959717	-0.0988596	-0.170679	-0.924941	-0.32493	-0.590348	5.95422	-7.13059	-0.018475	0.00709843	-0.011077	-0.337158	-0.547119	0.915771	-0.0371359	-0.107576	0.993442	-0.0110625	0.34208	0.133896	-9.06907	0.00739555	0.00865076	4.56719e-05	-0.429932	-0.210693	1.03369	0.00981532	-0.0781055	0.996595	0.0245237	-0.255027	0.529082	-9.7144	0.00166967	0.00510905	-0.00530504	-0.443115	-0.144775	1.1438	
30	0.899099	0.175378	-0.33631	0.218538	7.13043	1.76833	7.68926	-0.0269475	0.00392082	-0.00161616	-0.430664	-0.35376	-0.902588	-0.646621	-0.0117827	0.761721	-0.0390238	9.66392	-0.456734	-1.52411	-0.0213255	0.0144725	-0.0212982	-0.970459	-0.233398	-0.0993652	0.674793	0.37841	-0.433188	0.462394	9.48828	0.9298	3.35797	-0.0177764	0.00753454	0.00560198	-1.00317	-0.500244	-0.474854	-0.664114	-0.0715295	0.727237	-0.157996	9.69511	-1.3953	-0.711463	-0.00770054	-0.0110673	-0.00583452	-1.20459	0.0615234	-0.320312	-0.729204	0.222313	0.572142	0.302476	9.58573	0.0957711	2.40507	-0.0461674	-0.00293666	-0.0306934	-0.868408	0.124023	-0.622803	-0.790659	0.110325	0.502662	0.33169	9.6127	1.73381	5.17644	-0.0906478	0.0330164	-0.0443293	-0.912598	-0.22168	-0.686523	-0.402254	-0.0568044	0.913738	-0.00693027	6.81169	0.355891	-6.36071	0.0184899	-0.013581	-0.0200815	-0.978027	-0.330811	0.607422	-0.121545	-0.989373	0.0150247	-0.0783705	1.16504	2.31654	-8.10801	0.0021552	0.0141526	-0.0208133	-0.425293	-0.261719	0.959717	-0.0988881	-0.170705	-0.924869	-0.325113	-0.57215	5.96219	-7.12615	-0.00829421	0.0027415	-0.017564	-0.3396	-0.547119	0.917969	-0.0370908	-0.107616	0.993439	-0.0110308	0.347593	0.136208	-9.06355	0.00235216	0.00892233	-0.00041392	-0.432129	-0.210693	1.03369	0.00984568	-0.0781036	0.996596	0.0244963	-0.262293	0.540665	-9.72232	0.00527997	0.00417589	-0.00432069	-0.447754	-0.140625	1.146	
31	0.899036	0.174841	-0.336416	0.219064	7.23355	1.65891	7.72207	0.00147936	0.0155843	0.0281925	-0.428467	-0.355957	-0.900391	-0.646608	-0.0119664	0.761721	-0.0391896	9.72679	-0.378021	-1.51956	0.00164376	0.0101467	-0.0201647	-0.968506	-0.231201	-0.0993652	0.674523	0.378843	-0.432942	0.462664	9.38906	1.21966	3.52178	0.0245472	0.00533964	-0.00438611	-1.00537	-0.504639	-0.474609	-0.664088	-0.0718147	0.72722	-0.158055	9.77212	-1.31538	-0.72091	0.0213422	0.00121771	-0.0128456	-1.20435	0.0571289	-0.313721	-0.728931	0.222393	0.572216	0.302935	9.65624	0.15019	2.42363	0.0016708	-0.00709964	-0.0339363	-0.868408	0.121826	-0.625244	-0.790578	0.111077	0.501824	0.332898	9.63268	1.80582	5.18401	-0.0457113	0.0313799	-0.0272074	-0.916504	-0.232422	-0.688477	-0.40203	-0.0572688	0.913807	-0.00708236	6.81973	0.373241	-6.35314	0.0221463	-0.00410441	-0.0226523	-0.980225	-0.328613	0.611572	-0.121353	-0.989404	0.0146575	-0.0783523	1.14279	2.33071	-8.11506	0.0116974	0.00934895	-0.0218967	-0.429688	-0.263916	0.95752	-0.0989143	-0.170753	-0.924919	-0.324939	-0.603152	5.96136	-7.11762	0.0206261	0.00254524	-0.0209381	-0.33252	-0.549316	0.913574	-0.0370908	-0.107616	0.993439	-0.0110308	0.347593	0.136208	-9.06355	0.00235216	0.00892233	-0.00041392	-0.432129	-0.210693	1.03369	0.00999963	-0.0781017	0.996594	0.0245016	-0.256979	0.527297	-9.73383	0.000917139	0.00125391	-0.00399195	-0.447998	-0.135986	1.14819	
32	0.898739	0.175419	-0.336804	0.219223	7.19453	1.76473	7.70591	0.0247929	-0.0425623	-0.00737354	-0.42627	-0.355957	-0.895996	-0.646581	-0.0121248	0.761739	-0.039236	9.70477	-0.426333	-1.54366	0.00363808	0.0186302	-0.0214079	-0.968262	-0.233398	-0.0969238	0.674564	0.378966	-0.432923	0.46252	9.41909	1.37578	3.4882	-2.31399e-05	-0.00113541	-0.0160235	-1.00757	-0.500244	-0.470215	-0.663967	-0.071764	0.727397	-0.157768	9.76161	-1.30685	-0.678559	-0.0110358	-0.00577073	0.00282557	-1.2019	0.0527344	-0.322266	-0.729069	0.222064	0.572323	0.302642	9.5574	0.304606	2.41123	0.0110112	0.0113517	-0.0032749	-0.864014	0.124023	-0.620605	-0.790439	0.110464	0.502577	0.332296	9.58071	1.77424	5.13817	0.0658159	-0.0181095	-0.00989371	-0.912598	-0.22168	-0.684326	-0.401588	-0.0575197	0.913984	-0.0072027	6.78089	0.331531	-6.41442	0.0282944	-0.0125398	-0.0263465	-0.980225	-0.330811	0.603027	-0.121287	-0.98942	0.0145609	-0.0782653	1.15244	2.33233	-8.12658	0.00719668	0.0153361	-0.019978	-0.42334	-0.261719	0.95752	-0.0987881	-0.170873	-0.924982	-0.324732	-0.58519	5.94963	-7.14266	0.0138895	0.00824354	-0.014729	-0.330811	-0.537842	0.911133	-0.0370908	-0.107616	0.993439	-0.0110308	0.347593	0.136208	-9.06355	0.00235216	0.00892233	-0.00041392	-0.432129	-0.210693	1.03369	0.00999963	-0.0781017	0.996594	0.0245016	-0.256979	0.527297	-9.73383	0.000917139	0.00125391	-0.00399195	-0.447998	-0.135986	1.14819	
33	0.898567	0.175753	-0.337256	0.218967	7.2178	1.80428	7.63706	0.000283503	-0.0217731	-0.0111006	-0.44165	-0.356201	-0.898193	-0.646714	-0.0120574	0.76163	-0.0391816	9.73288	-0.402428	-1.52221	-0.0165147	0.0229839	-0.0199828	-0.974854	-0.233398	-0.0922852	0.674659	0.379	-0.433032	0.462252	9.36783	1.11392	3.4291	0.0662905	0.00818537	-0.0187816	-1.00757	-0.498047	-0.472656	-0.663887	-0.0718333	0.727467	-0.15775	9.68134	-1.29396	-0.645563	-0.000529472	-0.000106615	-0.0016713	-1.20874	0.0571289	-0.315918	-0.728736	0.222426	0.572333	0.303158	9.6413	0.222686	2.50444	-0.0347851	0.0139617	-0.0291875	-0.877441	0.128418	-0.627441	-0.790659	0.109286	0.503564	0.330664	9.60686	1.76506	5.20238	0.0583716	0.00645763	0.00805342	-0.916748	-0.226074	-0.684326	-0.400976	-0.0578994	0.914223	-0.00781426	6.79354	0.339004	-6.30544	0.0439385	-0.00660128	-0.0175274	-0.978027	-0.330811	0.607422	-0.121362	-0.98942	0.0145048	-0.0781628	1.15521	2.32311	-8.13076	0.00239802	0.0146021	-0.0190501	-0.425293	-0.263916	0.952881	-0.0988702	-0.17071	-0.924794	-0.325328	-0.592008	5.95452	-7.14438	-0.022253	0.0044312	-0.0140622	-0.334961	-0.547119	0.915771	-0.0370908	-0.107616	0.993439	-0.0110308	0.347593	0.136208	-9.06355	0.00235216	0.00892233	-0.00041392	-0.432129	-0.210693	1.03369	0.00974567	-0.0782536	0.996592	0.0241974	-0.257685	0.524346	-9.72298	0.015525	0.0120277	-0.00638435	-0.445557	-0.138184	1.146	
34	0.898389	0.175986	-0.33771	0.21881	7.28598	1.80314	7.61562	0.00244968	-0.0204215	0.00582161	-0.44165	-0.356201	-0.900391	-0.646679	-0.0121705	0.761646	-0.0394032	9.70591	-0.454366	-1.64923	0.00444067	0.0250649	-0.0209958	-0.968506	-0.229004	-0.101807	0.67497	0.378441	-0.433578	0.461744	9.42379	1.02584	3.4009	-0.062658	0.000500214	0.00299917	-1.00757	-0.498047	-0.474854	-0.663852	-0.0716684	0.727536	-0.157658	9.71624	-1.32817	-0.667855	0.00131199	0.0043937	0.00228357	-1.20239	0.0615234	-0.318115	-0.728909	0.222334	0.572204	0.303055	9.59224	0.350121	2.41752	0.0131309	0.0106934	-0.00635257	-0.868408	0.121826	-0.625244	-0.790408	0.109543	0.503471	0.33132	9.62504	1.77922	5.13523	-0.0354857	0.0169424	-0.0418641	-0.914551	-0.226074	-0.684326	-0.400363	-0.0582584	0.914466	-0.00818763	6.77644	0.330539	-6.32337	0.040845	-0.00525817	-0.0266674	-0.982666	-0.322021	0.607178	-0.121424	-0.989415	0.0144838	-0.0781326	1.14471	2.33007	-8.0997	0.00112435	0.0149039	-0.0185172	-0.420898	-0.266113	0.95752	-0.0988755	-0.170799	-0.924721	-0.325487	-0.583549	5.97467	-7.12234	0.015352	0.00396133	-0.0182941	-0.334961	-0.544678	0.915771	-0.0370908	-0.107616	0.993439	-0.0110308	0.347593	0.136208	-9.06355	0.00235216	0.00892233	-0.00041392	-0.432129	-0.210693	1.03369	0.00983234	-0.0782171	0.996589	0.0244161	-0.267055	0.517395	-9.72146	-0.00916499	0.000383056	-0.00270417	-0.438965	-0.135986	1.14819	
35	0.898317	0.175944	-0.337794	0.219011	7.27992	1.77464	7.65955	0.000770988	-0.00421463	0.00862881	-0.439209	-0.360352	-0.898193	-0.646561	-0.012246	0.761743	-0.0394464	9.71275	-0.414744	-1.42154	0.0106865	0.0128153	-0.020722	-0.974854	-0.235596	-0.101562	0.674871	0.37859	-0.433585	0.461761	9.42216	1.18336	3.42761	0.00652665	-0.0014258	-0.00120016	-1.00317	-0.502441	-0.477051	-0.663825	-0.0714298	0.727632	-0.157437	9.72978	-1.33153	-0.667132	-0.024361	0.000435145	0.00200906	-1.20679	0.0593262	-0.315918	-0.729008	0.221875	0.572234	0.303094	9.5469	0.212084	2.43279	-0.00111353	0.0279479	-0.020797	-0.870605	0.121826	-0.622803	-0.790056	0.110272	0.503017	0.332603	9.60345	1.75623	5.17684	-0.0552893	0.0187803	-0.0506475	-0.914551	-0.226074	-0.684326	-0.400387	-0.0584355	0.914442	-0.00844033	6.80671	0.273495	-6.41585	0.0304122	0.0181538	-0.019264	-0.982422	-0.328613	0.609375	-0.121107	-0.989462	0.0141813	-0.0780834	1.151	2.32621	-8.11977	0.0166251	0.00780279	-0.0190217	-0.425537	-0.259521	0.955078	-0.0987704	-0.17089	-0.924778	-0.325309	-0.593609	5.96237	-7.12281	0.0136511	0.00678983	-0.0152824	-0.335205	-0.54248	0.917969	-0.0370908	-0.107616	0.993439	-0.0110308	0.347593	0.136208	-9.06355	0.00235216	0.00892233	-0.00041392	-0.432129	-0.210693	1.03369	0.00974157	-0.0782861	0.996589	0.0242064	-0.254175	0.538566	-9.72219	0.00912792	0.00783326	-0.00524466	-0.441162	-0.135986	1.146	
36	0.898347	0.175947	-0.337647	0.219111	7.25337	1.69519	7.66352	0.0109245	0.000780187	0.0006402	-0.435303	-0.351807	-0.89624	-0.646272	-0.0122251	0.761975	-0.0397294	9.77133	-0.37525	-1.65451	0.00457234	0.0127764	-0.0123449	-0.974854	-0.231201	-0.0993652	0.674714	0.378598	-0.433659	0.461914	9.4726	0.962174	3.30449	0.00379374	-6.42449e-05	0.00712772	-0.999023	-0.498291	-0.474854	-0.663983	-0.0716174	0.727422	-0.157655	9.71212	-1.31138	-0.673069	0.0234985	0.0177051	-0.000231762	-1.20679	0.0615234	-0.318115	-0.728901	0.221663	0.572464	0.303073	9.75966	0.134693	2.5036	0.0327017	0.0133107	-0.0176249	-0.872559	0.117432	-0.622803	-0.789792	0.110733	0.502677	0.333589	9.64066	1.76622	5.20887	-0.0260753	0.0110396	-0.0345552	-0.914551	-0.226074	-0.682129	-0.399996	-0.058367	0.914622	-0.00800059	6.79986	0.301695	-6.60634	-0.0100345	0.00622399	-0.0191769	-0.978271	-0.326416	0.61377	-0.121062	-0.989459	0.0135529	-0.0782984	1.14726	2.32488	-8.13061	0.00448861	0.0133326	-0.0211393	-0.429443	-0.266113	0.955322	-0.0987852	-0.170987	-0.92478	-0.325248	-0.574348	5.95202	-7.12372	0.00818955	-0.000977428	-0.0196296	-0.325684	-0.544678	0.913574	-0.0370908	-0.107616	0.993439	-0.0110308	0.347593	0.136208	-9.06355	0.00235216	0.00892233	-0.00041392	-0.432129	-0.210693	1.03369	0.00987533	-0.078283	0.996589	0.024163	-0.257618	0.530946	-9.72169	0.00332966	0.000506769	-0.004646	-0.445557	-0.140381	1.146	
37	0.898353	0.176196	-0.337382	0.219294	7.17871	1.85989	7.66288	0.00695595	0.00663073	0.00672532	-0.437012	-0.358154	-0.894043	-0.645999	-0.0121985	0.762199	-0.0398682	9.62249	-0.544101	-1.51721	-0.00421643	-0.00508249	-0.0139755	-0.974854	-0.233398	-0.0922852	0.674394	0.379217	-0.433406	0.462111	9.3729	1.53689	3.59639	0.0602946	-0.0091846	-0.00831708	-1.00757	-0.498047	-0.477051	-0.663503	-0.0717552	0.727876	-0.157518	9.69753	-1.37567	-0.729592	0.00148819	-0.0308479	-0.00257993	-1.20215	0.0593262	-0.32251	-0.728921	0.221043	0.572955	0.30255	9.50803	0.413209	2.4982	0.0160871	-0.0221999	-0.0294435	-0.868408	0.121826	-0.620605	-0.789694	0.110963	0.502418	0.334136	9.54123	1.86738	5.12212	-0.011962	0.0274089	-0.0133495	-0.916748	-0.228271	-0.688477	-0.399971	-0.0587806	0.914599	-0.0087157	6.74025	0.32285	-6.31472	0.0441486	0.0106747	-0.0219849	-0.982422	-0.326416	0.609375	-0.121093	-0.989458	0.0131641	-0.0783308	1.1413	2.31904	-8.12245	0.00310274	0.0116577	-0.0235495	-0.421143	-0.259521	0.955078	-0.0989504	-0.170974	-0.924606	-0.325699	-0.605538	5.9745	-7.14944	-0.0184549	0.00269573	-0.0176856	-0.33252	-0.549316	0.911377	-0.0383916	-0.107638	0.993383	-0.0113987	0.339921	0.13808	-9.06501	0.00160727	0.00852777	4.56901e-05	-0.430176	-0.208496	1.02686	0.00995041	-0.0782767	0.996586	0.0242779	-0.257669	0.531254	-9.72167	-0.00610162	-0.000436934	-0.004292	-0.443359	-0.138184	1.146	
38	0.898305	0.176096	-0.337405	0.219535	7.11713	1.7963	7.64103	-0.00109171	-0.00175654	0.0208993	-0.439453	-0.355957	-0.902588	-0.645804	-0.0122956	0.762354	-0.0400357	9.68505	-0.445003	-1.61623	0.00686773	-0.00658218	-0.014999	-0.970459	-0.233398	-0.0922852	0.674651	0.378142	-0.434559	0.461534	9.47171	0.688183	3.29557	-0.0276978	3.5615e-05	0.0113669	-1.00562	-0.493652	-0.472656	-0.663254	-0.072179	0.72805	-0.157567	9.70066	-1.42966	-0.748933	0.026951	-0.0242014	-0.0174396	-1.19995	0.0549316	-0.315918	-0.728921	0.221043	0.572955	0.30255	9.50803	0.413209	2.4982	0.0160871	-0.0221999	-0.0294435	-0.868408	0.121826	-0.620605	-0.789662	0.110855	0.502756	0.333739	9.59505	1.77491	5.24036	0.0347258	-0.00937872	0.00131756	-0.914062	-0.236816	-0.688232	-0.399973	-0.0580639	0.91466	-0.00684939	6.73584	0.36201	-6.45078	-0.118293	0.00122103	-0.0228006	-0.97583	-0.330811	0.605225	-0.121311	-0.989423	0.0131292	-0.0784492	1.13461	2.3332	-8.13462	-0.0116444	0.027277	-0.0185281	-0.423096	-0.263916	0.959717	-0.0988833	-0.171077	-0.924509	-0.32594	-0.607411	5.97156	-7.11254	-0.0110415	0.00875625	-0.00836265	-0.330566	-0.54248	0.911377	-0.0383916	-0.107638	0.993383	-0.0113987	0.339921	0.13808	-9.06501	0.00160727	0.00852777	4.56901e-05	-0.430176	-0.208496	1.02686	0.009874	-0.078276	0.996582	0.0245087	-0.252335	0.544716	-9.72143	-0.000697232	0.0102287	-0.00545742	-0.443604	-0.133789	1.14819	
39	0.898123	0.176171	-0.337586	0.219944	7.33328	1.76801	7.77811	0.0102398	-0.00678321	0.0129026	-0.437256	-0.356201	-0.895996	-0.645175	-0.0124103	0.762869	-0.0403187	9.66116	-0.421937	-1.44127	0.00655954	-0.0154247	-0.0130863	-0.970459	-0.235596	-0.0969238	0.674246	0.37877	-0.434158	0.461988	9.44478	1.78357	3.51147	-0.0288741	-0.00539374	0.0061125	-1.00977	-0.498047	-0.474854	-0.662903	-0.0725806	0.728348	-0.157485	9.7854	-1.25901	-0.646111	-0.00839471	-0.0166538	-0.000540914	-1.20215	0.0571289	-0.315918	-0.729071	0.219762	0.573284	0.302497	9.46687	0.525999	2.54508	0.0664739	-0.0121213	-0.0330719	-0.868164	0.117432	-0.622803	-0.789739	0.110905	0.503048	0.3331	9.54452	1.82724	5.10733	0.0283543	0.01284	0.0208576	-0.909912	-0.232422	-0.686279	-0.399895	-0.0575633	0.914735	-0.00552513	6.94701	0.342902	-6.35081	0.00716126	-0.000968703	-0.0125728	-0.980225	-0.330811	0.607422	-0.121378	-0.98941	0.0131244	-0.0785002	1.14981	2.32593	-8.09598	0.000507588	0.021398	-0.0158215	-0.421143	-0.261719	0.955078	-0.09868	-0.171284	-0.924548	-0.325783	-0.578386	5.96879	-7.11695	0.02028	0.00816316	-0.0136684	-0.337402	-0.544922	0.915771	-0.0383916	-0.107638	0.993383	-0.0113987	0.339921	0.13808	-9.06501	0.00160727	0.00852777	4.56901e-05	-0.430176	-0.208496	1.02686	0.00985917	-0.0782631	0.996588	0.0242872	-0.268893	0.525762	-9.69937	0.010583	0.00872726	-0.00469498	-0.445801	-0.135986	1.15039	
40	0.897889	0.176426	-0.338066	0.219958	7.12339	1.76272	7.69437	0.00700406	-0.0481406	-0.00753433	-0.439453	-0.356201	-0.898193	-0.645125	-0.0119768	0.762932	-0.0400521	9.78944	-0.352782	-1.54056	-0.0341065	0.0330818	-0.0168307	-0.9729	-0.229004	-0.0925293	0.674482	0.37788	-0.435325	0.461273	9.44204	0.703428	3.33564	0.0192018	-0.0151255	0.00288548	-1.00781	-0.493652	-0.472656	-0.662545	-0.0723357	0.728754	-0.157221	9.69489	-1.35452	-0.704901	-0.0112875	-0.0149269	-0.00180912	-1.20215	0.0549316	-0.311279	-0.728707	0.220441	0.573015	0.303389	9.73527	-0.0713497	2.40535	-0.0515811	0.0104147	-0.0106572	-0.870361	0.117432	-0.622803	-0.79005	0.11039	0.503593	0.331706	9.64166	1.68189	5.19333	0.0483952	0.000610288	0.00848835	-0.912109	-0.232422	-0.688477	-0.399762	-0.0574291	0.914803	-0.00530422	6.86639	0.418299	-6.48721	-0.0020126	-0.00322236	-0.0143416	-0.97998	-0.337402	0.611816	-0.121465	-0.989384	0.0127354	-0.0787626	1.15943	2.33909	-8.12251	-0.0105652	0.0249155	-0.0235675	-0.425293	-0.263916	0.955078	-0.0985443	-0.171459	-0.924598	-0.325592	-0.569819	5.95814	-7.11389	0.0257592	0.00423839	-0.0142287	-0.335205	-0.54248	0.913574	-0.0387267	-0.107662	0.993367	-0.0114242	0.345352	0.143913	-9.07249	0.000901132	0.0099215	8.22167e-05	-0.42334	-0.210693	1.03369	0.00980699	-0.07825	0.996594	0.0241077	-0.238599	0.524152	-9.73352	0.00651312	0.00617982	-0.0030777	-0.445557	-0.138184	1.14819	
41	0.897699	0.176775	-0.338755	0.21939	7.26745	1.8211	7.61291	-0.000126603	-0.0729972	-0.0376959	-0.437012	-0.360352	-0.891846	-0.645125	-0.0119768	0.762932	-0.0400521	9.78944	-0.352782	-1.54056	-0.0341065	0.0330818	-0.0168307	-0.9729	-0.229004	-0.0925293	0.674315	0.378288	-0.435505	0.461012	9.45091	1.45457	3.44044	-0.0646	-0.0186518	-0.0104694	-1.00977	-0.498047	-0.477051	-0.662555	-0.0717313	0.728828	-0.157115	9.72455	-1.33915	-0.729149	-0.0236616	0.0145652	0.026175	-1.20654	0.0568848	-0.309326	-0.728708	0.219959	0.573587	0.302655	9.55895	0.51347	2.53012	0.027973	-0.0139248	-0.0227188	-0.874756	0.119629	-0.625244	-0.790032	0.109961	0.504057	0.331188	9.5667	1.75938	5.11909	0.0622176	-0.0100277	-0.0048436	-0.914551	-0.223877	-0.682129	-0.399488	-0.0575756	0.914911	-0.00571057	6.73522	0.32542	-6.25331	0.0506281	0.00204698	-0.0164266	-0.982422	-0.330811	0.607422	-0.121465	-0.989384	0.0127354	-0.0787626	1.15943	2.33909	-8.12251	-0.0105652	0.0249155	-0.0235675	-0.425293	-0.263916	0.955078	-0.0985159	-0.171502	-0.92469	-0.325316	-0.581869	5.94438	-7.12244	0.0304815	0.00177281	-0.0207442	-0.334961	-0.544678	0.911377	-0.0387267	-0.107662	0.993367	-0.0114242	0.345352	0.143913	-9.07249	0.000901132	0.0099215	8.22167e-05	-0.42334	-0.210693	1.03369	0.00993736	-0.0782244	0.996586	0.0244575	-0.25507	0.53165	-9.72044	-0.0126614	0.00171869	-0.00326851	-0.443115	-0.144775	1.14844	
42	0.897454	0.176756	-0.339971	0.218525	7.27712	1.80124	7.57096	6.12223e-05	-0.0407437	-0.00307372	-0.44165	-0.354004	-0.894043	-0.645646	-0.0116224	0.762554	-0.0389537	9.67004	-0.454874	-1.59448	-0.0402803	0.0292117	-0.0217355	-0.977051	-0.231201	-0.0947266	0.674139	0.378294	-0.435691	0.46109	9.48445	1.13594	3.37993	0.0804006	0.00257351	-0.00301407	-1.00562	-0.49585	-0.472656	-0.662658	-0.0714026	0.728817	-0.15688	9.75892	-1.30755	-0.723448	-0.0222975	0.00521532	7.21038e-05	-1.20874	0.0568848	-0.313721	-0.72842	0.220408	0.573382	0.303408	9.64308	0.0748006	2.37939	-0.0315012	0.0120992	-0.0219251	-0.865967	0.115234	-0.627441	-0.790099	0.10899	0.504869	0.33011	9.59474	1.75411	5.14149	0.00559165	0.00846385	-0.0154995	-0.918701	-0.228271	-0.682129	-0.399251	-0.0576737	0.915006	-0.00601735	6.75328	0.318419	-6.44069	0.024329	-0.00341988	-0.0156405	-0.973633	-0.333008	0.609619	-0.121508	-0.98938	0.0120511	-0.078847	1.14598	2.33708	-8.11666	-0.01117	0.0173847	-0.0222757	-0.425293	-0.263916	0.952881	-0.0987205	-0.171322	-0.924342	-0.326336	-0.586758	5.98266	-7.13539	-0.0237931	0.00545671	-0.0130809	-0.337158	-0.547119	0.913574	-0.0387267	-0.107662	0.993367	-0.0114242	0.345352	0.143913	-9.07249	0.000901132	0.0099215	8.22167e-05	-0.42334	-0.210693	1.03369	0.00999549	-0.0782184	0.996581	0.0246454	-0.242793	0.531768	-9.71233	-0.00511475	0.00424328	-0.00474204	-0.443604	-0.133789	1.14819	
43	0.897315	0.176105	-0.34058	0.218674	7.41229	1.8356	7.61099	-0.0398764	-0.00781174	0.0263315	-0.435059	-0.355957	-0.898193	-0.645729	-0.0115437	0.762495	-0.0387553	9.71739	-0.479623	-1.59018	-0.00625245	0.0116597	-0.0236873	-0.974854	-0.231201	-0.0947266	0.674553	0.37723	-0.436713	0.460388	9.47925	0.92509	3.31364	-0.100659	-0.0026118	0.00815321	-1.00122	-0.498047	-0.474854	-0.662638	-0.0711763	0.728893	-0.156713	9.71854	-1.37016	-0.743634	-0.0138611	0.00292162	0.0036614	-1.20654	0.0546875	-0.309082	-0.728513	0.219801	0.573584	0.303246	9.62965	0.199862	2.46365	0.0300681	0.0067342	-0.0262349	-0.874512	0.115234	-0.618408	-0.789939	0.107911	0.505933	0.329217	9.62603	1.73251	5.13048	0.0788486	-0.0181256	-0.0154812	-0.914551	-0.228271	-0.682129	-0.399076	-0.0579673	0.915061	-0.00649021	6.79636	0.39845	-6.42838	0.0415795	0.0109563	-0.02399	-0.978027	-0.330811	0.609619	-0.121565	-0.989375	0.0120271	-0.0788322	1.13181	2.32369	-8.10694	0.00152663	0.0162057	-0.0184312	-0.425293	-0.266113	0.952881	-0.0986299	-0.17146	-0.92427	-0.326495	-0.562105	5.99502	-7.1254	0.0144573	0.00513599	-0.0147492	-0.334961	-0.544678	0.911377	-0.0387267	-0.107662	0.993367	-0.0114242	0.345352	0.143913	-9.07249	0.000901132	0.0099215	8.22167e-05	-0.42334	-0.210693	1.03369	0.00991348	-0.0782882	0.99658	0.0245216	-0.26472	0.537434	-9.71311	0.00562717	0.00699085	-0.00538962	-0.443359	-0.138184	1.14819	
44	0.89734	0.17513	-0.340948	0.21878	7.27392	1.63956	7.64863	-0.0308229	-0.0163046	0.0168627	-0.439453	-0.354004	-0.891846	-0.645769	-0.0116189	0.762458	-0.0387911	9.726	-0.448958	-1.659	-0.00983553	0.0143077	-0.0197606	-0.970703	-0.231201	-0.097168	0.674372	0.377634	-0.436679	0.460355	9.47344	1.27751	3.44323	0.00443996	-0.00600039	0.00377337	-1.00757	-0.49585	-0.477295	-0.66265	-0.0711978	0.728916	-0.156548	9.74105	-1.3328	-0.711272	-0.0002581	0.00312855	-0.00696853	-1.20679	0.0593262	-0.313721	-0.728667	0.21939	0.573631	0.303084	9.56448	0.336146	2.46256	0.0112261	0.0109401	-0.0132593	-0.874756	0.119629	-0.625244	-0.789719	0.10792	0.506052	0.329557	9.59315	1.79838	5.09502	-0.0294422	0.0161234	-0.0336085	-0.912354	-0.226074	-0.679932	-0.398904	-0.058104	0.915128	-0.0063818	6.7723	0.344489	-6.43395	0.00559539	-0.00610305	-0.0230022	-0.973633	-0.330811	0.615967	-0.121344	-0.989401	0.0117199	-0.0788946	1.15503	2.32848	-8.12184	0.0129221	0.0123222	-0.0192006	-0.427246	-0.270508	0.95752	-0.0985723	-0.171526	-0.924422	-0.326046	-0.56945	5.95661	-7.13469	0.0213284	0.000835352	-0.0210594	-0.337402	-0.54248	0.908936	-0.0387267	-0.107662	0.993367	-0.0114242	0.345352	0.143913	-9.07249	0.000901132	0.0099215	8.22167e-05	-0.42334	-0.210693	1.03369	0.0100059	-0.0782751	0.99658	0.0245249	-0.257924	0.533278	-9.719	-0.00360256	0.00055041	-0.00492959	-0.438721	-0.140381	1.15063	
45	0.897268	0.17492	-0.341084	0.219029	7.26017	1.60778	7.6052	0.00403654	-0.00622724	0.00887782	-0.439941	-0.347412	-0.898438	-0.645868	-0.0116522	0.762374	-0.038796	9.77577	-0.421142	-1.61908	-0.00381386	0.0183009	-0.0216754	-0.974854	-0.231201	-0.0947266	0.67433	0.377851	-0.436803	0.460121	9.40835	1.12695	3.42957	0.00602507	-0.00692546	-0.0108976	-1.00537	-0.498047	-0.474854	-0.662595	-0.0712173	0.728974	-0.156498	9.68245	-1.34968	-0.698879	-0.0012762	0.00109665	-0.000495555	-1.20898	0.0612793	-0.313721	-0.728592	0.218889	0.574003	0.302922	9.66038	0.239608	2.46785	0.0209469	0.0103317	-0.0164966	-0.870361	0.119629	-0.622803	-0.789503	0.10832	0.505975	0.330062	9.61183	1.73353	5.1083	-0.00705554	0.00365836	-0.030231	-0.91626	-0.234619	-0.679688	-0.398401	-0.0583629	0.915328	-0.00664136	6.79261	0.403301	-6.43823	0.0337865	-0.0137624	-0.0221551	-0.982422	-0.326416	0.615723	-0.121344	-0.989401	0.0117199	-0.0788946	1.15503	2.32848	-8.12184	0.0129221	0.0123222	-0.0192006	-0.427246	-0.270508	0.95752	-0.0985204	-0.171659	-0.924245	-0.326493	-0.5681	5.99793	-7.11408	-0.0128506	0.00507328	-0.0131755	-0.33252	-0.547119	0.917969	-0.0387267	-0.107662	0.993367	-0.0114242	0.345352	0.143913	-9.07249	0.000901132	0.0099215	8.22167e-05	-0.42334	-0.210693	1.03369	0.0100532	-0.0782674	0.996579	0.02458	-0.277126	0.528894	-9.70614	-0.00161553	0.00289899	-0.00418672	-0.443359	-0.138184	1.146	
46	0.897174	0.175139	-0.341207	0.219051	7.20869	1.70357	7.59032	0.0155121	-0.0196925	-0.00178716	-0.443848	-0.354004	-0.891846	-0.645902	-0.0116226	0.762346	-0.038785	9.61113	-0.441165	-1.56137	-0.00971482	0.0168161	-0.0176445	-0.970459	-0.235352	-0.0922852	0.674287	0.377727	-0.437134	0.45997	9.48416	1.2282	3.33248	-0.0222516	-0.0143582	0.00621261	-1.01001	-0.489258	-0.468262	-0.662535	-0.0710821	0.729087	-0.156289	9.72615	-1.29807	-0.711394	-0.0180786	-0.0037586	-0.00137275	-1.20654	0.0549316	-0.315918	-0.728608	0.218795	0.574109	0.302751	9.50499	0.276986	2.41673	0.0157979	0.00133895	-0.0103024	-0.870361	0.117432	-0.620605	-0.789354	0.108335	0.506077	0.330258	9.55787	1.81407	5.09153	-0.00514265	0.00247577	-0.0323401	-0.914062	-0.234619	-0.677734	-0.398385	-0.0584585	0.91533	-0.00661253	6.71003	0.373071	-6.30468	0.0225464	0.00270161	-0.0204496	-0.97168	-0.326416	0.61792	-0.121399	-0.989363	0.0108618	-0.0794105	1.15077	2.34021	-8.12551	0.00186852	0.0166501	-0.0198136	-0.429688	-0.263916	0.95752	-0.0985202	-0.171753	-0.924158	-0.326691	-0.58206	5.96208	-7.11864	-0.00921009	0.00390965	-0.0113502	-0.334717	-0.551758	0.915771	-0.0387267	-0.107662	0.993367	-0.0114242	0.345352	0.143913	-9.07249	0.000901132	0.0099215	8.22167e-05	-0.42334	-0.210693	1.03369	0.00999269	-0.0782586	0.996583	0.0244408	-0.26149	0.533166	-9.70796	0.00726073	0.00784666	-0.00398378	-0.441162	-0.138184	1.14819	
47	0.896984	0.175395	-0.341536	0.219112	7.30011	1.74974	7.59665	0.00434395	-0.0168146	0.00200777	-0.444092	-0.351807	-0.89624	-0.645967	-0.0116746	0.762285	-0.0388787	9.7177	-0.378124	-1.53856	-0.00993355	0.0225594	-0.0184679	-0.974854	-0.231201	-0.0947266	0.674267	0.37786	-0.437074	0.459948	9.41989	1.01555	3.44838	0.0305906	0.00230627	0.000877872	-1.01196	-0.493652	-0.470459	-0.662455	-0.0711964	0.729167	-0.156206	9.68094	-1.36289	-0.681213	-0.000164456	-0.00153846	-0.00987242	-1.20459	0.0612793	-0.309326	-0.728796	0.218357	0.574124	0.302586	9.59565	0.357358	2.349	-0.000407373	0.0234612	-0.0113264	-0.872559	0.115234	-0.625244	-0.789105	0.108446	0.506243	0.330561	9.60643	1.80212	5.07918	-0.00726468	0.004845	-0.0309594	-0.91626	-0.234619	-0.677734	-0.398311	-0.0583647	0.91537	-0.00635015	6.79021	0.368091	-6.3649	-0.00469679	0.00217737	-0.0183474	-0.973633	-0.330811	0.615967	-0.121488	-0.989354	0.0108206	-0.0793819	1.16858	2.34111	-8.12561	-0.000966145	0.0152231	-0.0201712	-0.42749	-0.263916	0.95752	-0.0985493	-0.171854	-0.923946	-0.327228	-0.585637	6.00753	-7.12426	-0.00590547	0.00433997	-0.0162765	-0.337402	-0.544922	0.913574	-0.0401895	-0.107655	0.99331	-0.0114612	0.340964	0.151218	-9.06624	-0.000371278	0.00929864	0.000118814	-0.421143	-0.210693	1.03149	0.00996137	-0.0782406	0.996585	0.0244337	-0.258331	0.541724	-9.72733	0.00206993	0.00721679	-0.00399341	-0.445801	-0.135986	1.15039	
48	0.896857	0.175436	-0.341973	0.218916	7.28973	1.69963	7.54637	-0.00640814	-0.0247169	-0.0034454	-0.446045	-0.356201	-0.894043	-0.645917	-0.0116436	0.76232	-0.0390329	9.72189	-0.597899	-1.76045	-0.00855176	0.0188487	-0.0192476	-0.970703	-0.231201	-0.097168	0.674387	0.377695	-0.437298	0.459694	9.47823	1.14383	3.26334	-0.037667	0.0104281	-0.00909198	-1.00342	-0.49585	-0.470459	-0.662294	-0.0711336	0.729381	-0.155917	9.71044	-1.32788	-0.768513	-0.00377887	-0.00190527	-0.00045807	-1.20435	0.0546875	-0.306885	-0.728614	0.218603	0.573993	0.303094	9.60029	0.284717	2.44174	-0.0274301	0.0180456	-0.0277097	-0.874756	0.115234	-0.622803	-0.789111	0.108286	0.506334	0.330459	9.58412	1.75855	5.11038	0.0204046	0.00866324	-0.0155879	-0.918701	-0.228271	-0.677734	-0.398209	-0.0590032	0.915368	-0.00697115	6.73403	0.301428	-6.41454	0.041835	0.00254173	-0.0219535	-0.973877	-0.328613	0.611572	-0.121399	-0.989351	0.0102431	-0.0796325	1.14711	2.33803	-8.11849	0.005575	0.0141412	-0.0195283	-0.420898	-0.266113	0.959961	-0.0984731	-0.171962	-0.924022	-0.326978	-0.573349	5.98624	-7.08566	0.0282508	0.00435853	-0.0202778	-0.341797	-0.549316	0.913574	-0.0400859	-0.1077	0.99331	-0.0114024	0.341479	0.15394	-9.06617	0.000843045	0.00495626	-0.000960317	-0.421143	-0.210693	1.03149	0.0100219	-0.0782354	0.996585	0.0244277	-0.254577	0.539988	-9.71783	0.00278401	0.00450378	-0.00409523	-0.445557	-0.140381	1.15283	
49	0.896822	0.17562	-0.341953	0.218945	7.47594	1.7974	7.63075	0.00638511	0.00271925	0.00209251	-0.448486	-0.354004	-0.894043	-0.645909	-0.0117887	0.762311	-0.0392909	9.7292	-0.350943	-1.42682	0.0040513	-0.00437791	-0.0138503	-0.972656	-0.233398	-0.0947266	0.674221	0.378065	-0.437062	0.459858	9.44395	1.20574	3.39585	0.0435217	-0.00165443	-0.00192234	-1.00122	-0.496094	-0.470459	-0.66194	-0.0715305	0.729728	-0.155611	9.74645	-1.29391	-0.727997	-0.00239593	-0.0266907	-0.0181318	-1.20459	0.0593262	-0.313721	-0.728577	0.218519	0.574028	0.303178	9.61512	0.300524	2.57349	0.00288584	0.00399747	-0.0278399	-0.876709	0.113037	-0.622803	-0.789109	0.108158	0.506372	0.330448	9.62411	1.78905	5.12621	0.00815277	0.0171925	-0.0154755	-0.91626	-0.234619	-0.677734	-0.398283	-0.0590378	0.915335	-0.00681355	6.81808	0.365313	-6.39328	0.0234853	0.0132178	-0.0211177	-0.976074	-0.328613	0.611572	-0.121302	-0.989372	0.0102064	-0.0795336	1.15297	2.34439	-8.09225	0.0137534	0.00968119	-0.0183668	-0.423096	-0.263916	0.95752	-0.0984113	-0.172074	-0.923989	-0.327033	-0.579416	5.98368	-7.13354	-0.00664939	0.00338739	-0.0153749	-0.337402	-0.544678	0.906738	-0.0402579	-0.107738	0.993298	-0.011448	0.335588	0.161951	-9.06912	0.00224641	0.00925533	-0.000158432	-0.420898	-0.215088	1.0293	0.0100004	-0.0782401	0.996586	0.0244093	-0.256658	0.519634	-9.71816	0.0037688	0.00918664	-0.00454208	-0.441162	-0.138184	1.14355	
50	0.896918	0.175463	-0.341496	0.21939	7.26311	1.71621	7.58212	0.00961189	0.0173726	0.00704855	-0.443848	-0.354004	-0.898438	-0.645804	-0.0118759	0.762378	-0.0396974	9.61095	-0.422796	-1.54505	0.0108513	0.0168621	-0.01196	-0.966309	-0.230957	-0.0900879	0.6742	0.377922	-0.437432	0.459655	9.4753	0.951802	3.3862	-0.00394552	0.00192578	-0.000939804	-1.00757	-0.493652	-0.468018	-0.661677	-0.07206	0.729915	-0.155609	9.71649	-1.31201	-0.695581	0.020838	-0.00965582	-0.0119314	-1.20215	0.0549316	-0.313477	-0.728413	0.218959	0.573862	0.303569	9.50814	0.358524	2.40598	-0.0171873	-0.00168609	-0.0144275	-0.875	0.121826	-0.625244	-0.789168	0.107581	0.506514	0.330277	9.59875	1.80739	5.0939	0.025085	0.010468	-0.01399	-0.916504	-0.232422	-0.675537	-0.398054	-0.0589733	0.915441	-0.00648726	6.67584	0.314663	-6.55444	0.00404391	0.0176926	-0.0192848	-0.978027	-0.330811	0.615967	-0.121302	-0.989372	0.0102064	-0.0795336	1.15297	2.34439	-8.09225	0.0137534	0.00968119	-0.0183668	-0.423096	-0.263916	0.95752	-0.0984401	-0.172157	-0.923915	-0.32719	-0.570515	5.99002	-7.08478	0.00832127	0.000420214	-0.0197461	-0.337402	-0.54248	0.911377	-0.0400916	-0.10781	0.993299	-0.0112904	0.343916	0.162363	-9.05858	-0.000645922	0.00517932	0.000298759	-0.425537	-0.208496	1.03809	0.0101949	-0.0782242	0.996585	0.0244198	-0.26266	0.530007	-9.71654	0.00131708	-0.00271038	-0.00539322	-0.441162	-0.138184	1.15283	
51	0.897105	0.175501	-0.340775	0.219714	7.20175	1.8326	7.65548	0.00760854	0.0233348	0.00882401	-0.444092	-0.351807	-0.898438	-0.645456	-0.0119519	0.762657	-0.0399844	9.72265	-0.507532	-1.58558	-0.000629401	-0.00550651	-0.0141993	-0.966064	-0.233398	-0.0947266	0.673872	0.378413	-0.437262	0.459894	9.54893	1.39251	3.34153	-0.0162197	-0.000558365	0.0117731	-1.00977	-0.498047	-0.468018	-0.661424	-0.0724472	0.730119	-0.155552	9.77121	-1.26047	-0.755305	0.015923	-0.00722204	-0.0094492	-1.2019	0.0524902	-0.304688	-0.727963	0.219145	0.574002	0.304248	9.64624	0.262098	2.42692	-0.0310368	0.0110202	-0.0375968	-0.86377	0.115234	-0.620605	-0.789395	0.106921	0.507002	0.329199	9.59584	1.77634	5.1249	0.0525619	0.00338675	0.00382035	-0.920654	-0.234619	-0.675537	-0.398115	-0.0593246	0.915387	-0.00722293	6.75789	0.356467	-6.41495	0.0423267	0.0184072	-0.0175451	-0.971436	-0.333008	0.615967	-0.121302	-0.989372	0.0102064	-0.0795336	1.15297	2.34439	-8.09225	0.0137534	0.00968119	-0.0183668	-0.423096	-0.263916	0.95752	-0.0984831	-0.172162	-0.923906	-0.327199	-0.584731	5.99513	-7.10809	0.000293101	0.00470896	-0.017896	-0.337158	-0.547119	0.915771	-0.0400916	-0.10781	0.993299	-0.0112904	0.343916	0.162363	-9.05858	-0.000645922	0.00517932	0.000298759	-0.425537	-0.208496	1.03809	0.0102551	-0.0782026	0.996578	0.0247375	-0.273276	0.5363	-9.72436	-0.0116064	0.00593457	-0.00330544	-0.447754	-0.142822	1.146	
52	0.897039	0.175418	-0.340834	0.219959	7.16129	1.82627	7.67232	0.000292116	-0.00553353	0.0211306	-0.448486	-0.349609	-0.894043	-0.645437	-0.0119361	0.762675	-0.0399361	9.63785	-0.383064	-1.63936	-0.0179214	0.0181709	-0.0234386	-0.968506	-0.231201	-0.097168	0.674002	0.378425	-0.436964	0.459977	9.41058	1.04503	3.37939	0.00561801	0.0142923	-0.00570994	-1.00757	-0.49585	-0.468018	-0.661226	-0.0725539	0.730301	-0.155489	9.66868	-1.2938	-0.722385	-0.00649356	-0.00857378	-0.00327847	-1.20654	0.0571289	-0.311523	-0.727836	0.219362	0.573925	0.30454	9.57921	0.343873	2.40534	-0.00084329	-0.00164486	-0.0199463	-0.874512	0.115234	-0.620605	-0.789525	0.106331	0.50733	0.328573	9.60952	1.79058	5.07495	0.031499	0.0157415	-0.006993	-0.920654	-0.236816	-0.67749	-0.398233	-0.059278	0.915339	-0.00711473	6.74737	0.365196	-6.42613	0.00742221	0.0196535	-0.0170978	-0.978027	-0.333008	0.615967	-0.121492	-0.989298	0.00867759	-0.0803307	1.14453	2.33215	-8.10172	0.0118086	0.0173782	-0.0150615	-0.423096	-0.263916	0.955078	-0.0984226	-0.172064	-0.923798	-0.327572	-0.575127	5.99479	-7.1161	-0.0117055	0.00761654	-0.0112409	-0.3396	-0.549316	0.911377	-0.0400916	-0.10781	0.993299	-0.0112904	0.343916	0.162363	-9.05858	-0.000645922	0.00517932	0.000298759	-0.425537	-0.208496	1.03809	0.0101839	-0.078177	0.99658	0.0247501	-0.267785	0.536777	-9.71479	0.00406009	0.00956671	-0.00324744	-0.445801	-0.135986	1.14136	
53	0.896791	0.174981	-0.341711	0.219958	7.28322	1.75358	7.63404	-0.0218391	-0.0329373	0.0136953	-0.446045	-0.356201	-0.891846	-0.645482	-0.0119192	0.762641	-0.0398722	9.76481	-0.504804	-1.61711	-0.011897	0.0172769	-0.0211075	-0.970703	-0.229004	-0.0900879	0.67404	0.378299	-0.437038	0.459955	9.53004	1.22789	3.26128	-0.0102815	0.00724744	0.00230491	-1.00342	-0.49585	-0.468018	-0.661204	-0.0724553	0.730361	-0.155345	9.73222	-1.28137	-0.754808	-0.00318574	0.00770701	0.00447471	-1.21069	0.050293	-0.306885	-0.727526	0.21997	0.573621	0.305415	9.6725	0.113343	2.52145	-0.0588468	0.0108393	-0.0279442	-0.870361	0.117432	-0.620605	-0.789665	0.106315	0.507212	0.328423	9.61895	1.85878	5.12558	0.00802715	0.0261837	-0.00215516	-0.918457	-0.232422	-0.677734	-0.39883	-0.0596376	0.915055	-0.00719244	6.84401	0.341054	-6.39379	0.0182345	0.0274585	-0.0210304	-0.973877	-0.328613	0.615967	-0.121365	-0.989333	0.00861714	-0.0801054	1.16039	2.33894	-8.12415	0.00722838	0.00648815	-0.0205203	-0.425537	-0.259521	0.952637	-0.0984315	-0.172121	-0.923769	-0.327621	-0.564287	5.99273	-7.10257	0.00316237	0.00187382	-0.0164685	-0.3396	-0.549316	0.913574	-0.0405619	-0.107808	0.99328	-0.0112981	0.339679	0.157972	-9.07526	0.000173058	0.0100336	0.000434687	-0.425293	-0.215088	1.0293	0.010186	-0.0781545	0.996585	0.0246431	-0.248444	0.550361	-9.69714	0.010766	0.00651053	-0.00341692	-0.445557	-0.142578	1.14819	
54	0.896722	0.174857	-0.342116	0.21971	7.36457	1.63687	7.62581	-0.0227193	-0.0361499	-0.00760525	-0.444336	-0.347412	-0.89624	-0.645764	-0.0119328	0.762402	-0.0398733	9.72178	-0.363497	-1.56796	-0.0126765	0.0394818	-0.0215448	-0.968262	-0.235352	-0.0922852	0.674108	0.378331	-0.436843	0.460012	9.44501	1.07942	3.3364	0.00498121	0.00957019	-0.00396113	-1.00781	-0.493652	-0.470459	-0.661212	-0.0723993	0.730341	-0.155432	9.69726	-1.29528	-0.709588	0.00427887	0.0080499	0.00869878	-1.20435	0.0549316	-0.311279	-0.727786	0.219824	0.573516	0.305097	9.67393	0.00454691	2.4076	0.0243208	0.023536	0.00564543	-0.874756	0.119629	-0.620605	-0.789452	0.107378	0.506601	0.329533	9.62202	1.72987	5.16325	-0.0853473	0.0135361	-0.0446867	-0.918457	-0.234619	-0.67749	-0.399335	-0.059482	0.914847	-0.00697619	6.70573	0.33055	-6.50167	0.0065131	0.0307843	-0.0144253	-0.973633	-0.333008	0.615967	-0.121366	-0.989341	0.00851421	-0.0800138	1.15185	2.3546	-8.1129	0.0060519	0.0106685	-0.0249255	-0.42749	-0.266113	0.959961	-0.0983783	-0.172178	-0.923994	-0.326973	-0.572198	5.97943	-7.09704	0.0414785	0.00146449	-0.0235402	-0.337158	-0.547119	0.911377	-0.0404703	-0.10788	0.993275	-0.0113257	0.342754	0.149225	-9.05868	0.00345724	0.00825781	-0.00028946	-0.429932	-0.212891	1.03149	0.0102351	-0.0781471	0.996586	0.0245993	-0.260866	0.540614	-9.71513	-0.0023108	0.00209816	-0.00326987	-0.445557	-0.138184	1.146	
55	0.896374	0.175325	-0.343022	0.219342	7.48252	1.77844	7.57507	0.00212806	-0.013742	0.0089332	-0.450684	-0.349854	-0.894043	-0.645649	-0.0120741	0.762489	-0.0400259	9.68206	-0.459763	-1.65241	-0.00300546	0.00131256	-0.0175874	-0.970703	-0.226807	-0.0949707	0.674313	0.378144	-0.436873	0.459839	9.47762	1.17349	3.34522	-0.0430994	0.00897373	-0.00574603	-1.00562	-0.49585	-0.470459	-0.661406	-0.0719534	0.730195	-0.155499	9.72614	-1.31472	-0.767083	-0.0112418	0.0217508	0.0162821	-1.2019	0.0527344	-0.309082	-0.727976	0.219433	0.573688	0.304602	9.61298	0.529682	2.47726	-0.00129117	0.000143106	-0.0251434	-0.865723	0.113037	-0.625244	-0.789077	0.10888	0.505584	0.331493	9.61624	1.95863	5.04526	-0.107439	0.0365436	-0.0381498	-0.91626	-0.234619	-0.675537	-0.399577	-0.0595185	0.914738	-0.00709432	6.76263	0.385821	-6.38713	0.0259593	0.031691	-0.0163037	-0.97583	-0.333008	0.611572	-0.121133	-0.989367	0.00821416	-0.08008	1.15353	2.34786	-8.11557	0.0131839	0.012451	-0.018661	-0.423096	-0.263916	0.955078	-0.0983701	-0.172036	-0.924138	-0.326644	-0.580787	5.97729	-7.12405	0.0171244	0.00235548	-0.0180405	-0.337402	-0.54248	0.920166	-0.0404049	-0.107897	0.993276	-0.0113374	0.342402	0.169495	-9.06279	0.00585077	0.00755981	0.00127084	-0.420898	-0.215088	1.03369	0.01029	-0.0781201	0.996583	0.0247857	-0.258707	0.553313	-9.72455	0.00101573	0.00649291	-0.00478855	-0.443359	-0.140381	1.14819	
56	0.896467	0.175343	-0.342514	0.219742	7.25367	1.78212	7.5796	0.0108015	0.0113857	0.00594032	-0.450684	-0.351807	-0.894043	-0.645761	-0.0119732	0.762406	-0.0398295	9.68691	-0.433215	-1.61666	-0.0152414	0.0130126	-0.0181938	-0.968506	-0.231201	-0.0947266	0.674169	0.378303	-0.436826	0.459964	9.48808	1.31202	3.43998	0.017941	-0.000777693	0.0044155	-1.00977	-0.498047	-0.474854	-0.66182	-0.0715904	0.729824	-0.155649	9.729	-1.3193	-0.710304	-0.00919915	0.0215638	0.00861145	-1.20874	0.0568848	-0.313721	-0.727669	0.219992	0.573594	0.30511	9.59155	0.0424904	2.51583	-0.0203209	-0.00528932	-0.0139501	-0.872559	0.115234	-0.629639	-0.789273	0.10932	0.504882	0.331952	9.6061	1.74793	5.11442	-0.0306174	0.0292571	-0.00789537	-0.914307	-0.234619	-0.679688	-0.400151	-0.0595904	0.914478	-0.00756775	6.79217	0.294522	-6.56051	0.0567304	0.0419139	-0.0100913	-0.982422	-0.330811	0.615967	-0.12119	-0.989367	0.00812204	-0.0799948	1.15432	2.32765	-8.13524	-0.000256363	0.0154315	-0.0211845	-0.425293	-0.263916	0.95752	-0.0984216	-0.172132	-0.924054	-0.326816	-0.575602	5.97511	-7.10951	0.000339396	0.0013202	-0.0177666	-0.334961	-0.544678	0.913574	-0.0404049	-0.107897	0.993276	-0.0113374	0.342402	0.169495	-9.06279	0.00585077	0.00755981	0.00127084	-0.420898	-0.215088	1.03369	0.0102279	-0.0781152	0.996587	0.0246441	-0.267722	0.534115	-9.70401	0.0134088	0.0122983	-0.00441785	-0.445557	-0.140381	1.14819	
57	0.896606	0.174991	-0.34247	0.219525	7.33517	1.76759	7.62324	-0.0164346	0.00309566	-0.00485163	-0.446289	-0.351807	-0.89624	-0.645604	-0.0122315	0.762526	-0.0400005	9.71154	-0.432566	-1.45587	-0.000288115	0.00322835	-0.0222701	-0.9729	-0.231201	-0.0922852	0.674418	0.377744	-0.437408	0.459504	9.4544	1.03363	3.31814	-0.0274418	-0.0026693	-0.0025251	-1.00562	-0.491455	-0.470459	-0.661861	-0.0713771	0.729757	-0.155884	9.69281	-1.31931	-0.737734	-0.00279388	0.00941482	0.0118127	-1.20215	0.0571289	-0.307129	-0.728075	0.219224	0.573809	0.304288	9.56678	0.444295	2.38493	0.0364092	0.0158208	0.00324907	-0.870117	0.113037	-0.620605	-0.789217	0.10864	0.505624	0.331177	9.60796	1.7891	5.07981	0.0598122	-0.00886193	-0.0132856	-0.91626	-0.234619	-0.67334	-0.400152	-0.0598981	0.91445	-0.00841408	6.7714	0.296793	-6.27767	0.0892393	0.0147238	-0.0127176	-0.978027	-0.333008	0.611572	-0.121176	-0.989373	0.00808744	-0.0799483	1.1431	2.3342	-8.1045	0.00685573	0.0136708	-0.0187642	-0.423096	-0.263916	0.95752	-0.0983133	-0.172239	-0.924153	-0.326513	-0.567108	5.9816	-7.12297	0.0206838	0.0054422	-0.0191103	-0.33252	-0.551514	0.918213	-0.0406544	-0.107907	0.993261	-0.0116834	0.34133	0.156534	-9.05951	0.0074188	0.00887938	0.000636491	-0.421143	-0.210693	1.03149	0.0102162	-0.0781561	0.996584	0.0246529	-0.252294	0.548782	-9.72498	-0.000720936	0.00365227	-0.00425202	-0.441162	-0.135986	1.146	
58	0.896774	0.174598	-0.342373	0.219301	7.21374	1.60795	7.6472	-0.0103457	-0.00907386	0.00150827	-0.446045	-0.356201	-0.889648	-0.645514	-0.0120885	0.762612	-0.0398486	9.68098	-0.480241	-1.71727	-0.0125565	0.0100583	-0.0155379	-0.970459	-0.233398	-0.0969238	0.674097	0.378252	-0.437035	0.459912	9.41354	1.21038	3.35652	0.0485207	0.00790448	-0.00118126	-1.01196	-0.49585	-0.472656	-0.661894	-0.0714615	0.729707	-0.155939	9.68352	-1.26176	-0.71313	0.00625305	0.00501891	-0.00294768	-1.20215	0.0571289	-0.311523	-0.727583	0.219821	0.573853	0.30495	9.67138	0.268913	2.43799	-0.0392013	9.57915e-05	-0.0378974	-0.86792	0.113037	-0.622803	-0.789541	0.108148	0.505876	0.33018	9.63416	1.7932	5.12722	0.02315	0.0246466	0.015378	-0.916504	-0.230469	-0.677734	-0.40076	-0.0603591	0.914146	-0.00926456	6.73861	0.40272	-6.45021	0.00320917	0.0317707	-0.0110546	-0.980469	-0.322021	0.611328	-0.121098	-0.989371	0.007744	-0.0801239	1.1582	2.34149	-8.13244	0.00700802	0.0171638	-0.0202222	-0.421143	-0.261719	0.952881	-0.0982189	-0.172089	-0.924429	-0.325836	-0.574457	5.96856	-7.12073	0.0323668	0.00407207	-0.0193325	-0.33252	-0.547119	0.915771	-0.0406885	-0.107935	0.993255	-0.0117985	0.339114	0.155682	-9.06891	0.00662098	0.00818558	0.000331552	-0.429932	-0.210693	1.03369	0.0102338	-0.0781247	0.996586	0.0246605	-0.249334	0.538052	-9.70588	0.00540069	0.00591442	-0.00428655	-0.443359	-0.140381	1.146	
59	0.896439	0.175021	-0.343049	0.219276	7.21017	1.7044	7.62308	0.0130136	-0.0497776	-0.000439194	-0.443848	-0.354004	-0.89624	-0.645521	-0.0121488	0.762612	-0.0397141	9.72676	-0.477197	-1.59778	-0.0108739	0.0156564	-0.023474	-0.974854	-0.231201	-0.0922852	0.674427	0.377552	-0.437589	0.459477	9.52744	0.943449	3.26965	-0.0494011	1.69738e-05	0.00776237	-1.00342	-0.491699	-0.477295	-0.661884	-0.0713314	0.729723	-0.155964	9.74309	-1.34352	-0.773715	0.00526924	0.00847838	0.00531383	-1.2041	0.0524902	-0.306885	-0.727981	0.219382	0.573892	0.304242	9.58753	0.263156	2.44595	0.0490619	0.0149943	0.0156126	-0.870361	0.115234	-0.622803	-0.789468	0.10833	0.505718	0.330538	9.61422	1.74013	5.15466	-0.0127902	0.0112576	-0.0346995	-0.914307	-0.230469	-0.682129	-0.401276	-0.0602496	0.913929	-0.00906602	6.83238	0.286136	-6.31199	0.0124398	0.0293419	-0.0182069	-0.977783	-0.335205	0.61377	-0.120701	-0.989423	0.00740313	-0.0801218	1.15615	2.33595	-8.12466	0.019317	0.0112214	-0.0166245	-0.431641	-0.266113	0.959961	-0.098226	-0.172187	-0.924429	-0.325783	-0.576336	5.97695	-7.14087	-0.00200068	0.00239332	-0.0172332	-0.337158	-0.547119	0.913574	-0.0406885	-0.107935	0.993255	-0.0117985	0.339114	0.155682	-9.06891	0.00662098	0.00818558	0.000331552	-0.429932	-0.210693	1.03369	0.0100493	-0.0781685	0.996595	0.024232	-0.24887	0.534026	-9.72551	0.0177674	0.0119477	-0.00412329	-0.445557	-0.140381	1.146	
60	0.895911	0.175426	-0.34436	0.219054	7.45766	1.70866	7.53532	0.000737903	-0.0563384	0.000908204	-0.446289	-0.349609	-0.891846	-0.645553	-0.01229	0.762573	-0.0399156	9.6798	-0.446858	-1.61315	0.00220534	0.01241	-0.0181214	-0.972656	-0.233398	-0.0947266	0.674367	0.378055	-0.436823	0.459879	9.47178	1.27951	3.45715	0.0363856	0.0255161	-0.0139776	-1.00781	-0.493652	-0.470459	-0.662047	-0.0713747	0.729565	-0.155995	9.72786	-1.28741	-0.723576	-0.000703878	0.00986821	-0.00316875	-1.20239	0.0615234	-0.313721	-0.727919	0.219561	0.573822	0.304395	9.62527	0.357522	2.4593	-0.0246328	0.00596746	-0.0290624	-0.870361	0.115234	-0.622803	-0.789493	0.109076	0.505081	0.331204	9.60276	1.82915	5.12061	-0.0446439	0.0332045	-0.00731753	-0.914307	-0.230469	-0.677734	-0.401807	-0.0601345	0.913703	-0.00904832	6.79339	0.293474	-6.41674	0.0116612	0.0306005	-0.0120273	-0.980469	-0.324219	0.609375	-0.120701	-0.989423	0.00740313	-0.0801218	1.15615	2.33595	-8.12466	0.019317	0.0112214	-0.0166245	-0.431641	-0.266113	0.959961	-0.0982928	-0.172188	-0.924417	-0.325796	-0.573904	5.96691	-7.12085	0.0108944	0.00191826	-0.0232308	-0.337402	-0.544922	0.915771	-0.0406885	-0.107935	0.993255	-0.0117985	0.339114	0.155682	-9.06891	0.00662098	0.00818558	0.000331552	-0.429932	-0.210693	1.03369	0.0101348	-0.0781567	0.996592	0.0243436	-0.261226	0.543859	-9.72257	-0.0076392	0.00236214	-0.00414113	-0.445801	-0.135986	1.14819	
61	0.89579	0.175659	-0.344552	0.219061	7.44969	1.70286	7.54064	0.0149406	-0.0257089	-0.00153997	-0.446289	-0.351807	-0.889648	-0.645533	-0.0123085	0.762586	-0.039973	9.79926	-0.460176	-1.5089	-0.0031673	0.0112013	-0.0166267	-0.9729	-0.231201	-0.0922852	0.674373	0.377957	-0.436852	0.459923	9.47502	1.1433	3.33614	-0.00312993	0.00947763	0.00459171	-1.00977	-0.493652	-0.468018	-0.662134	-0.0715109	0.729441	-0.156144	9.76333	-1.31485	-0.759103	0.0194576	0.0157492	-0.00152366	-1.21094	0.0568848	-0.311523	-0.727977	0.219627	0.573654	0.304525	9.69719	0.0377804	2.43903	-0.0138845	0.0204948	-0.0144928	-0.872559	0.119629	-0.625244	-0.789421	0.109607	0.504715	0.331757	9.64527	1.7009	5.2008	-0.0634263	0.0249008	-0.0279558	-0.916504	-0.228271	-0.677734	-0.402407	-0.060124	0.913436	-0.00935586	6.83397	0.305452	-6.46159	0.0349802	0.0329751	-0.013671	-0.984375	-0.333008	0.605225	-0.120701	-0.989423	0.00740313	-0.0801218	1.15615	2.33595	-8.12466	0.019317	0.0112214	-0.0166245	-0.431641	-0.266113	0.959961	-0.09828	-0.172237	-0.92442	-0.325767	-0.574135	5.96856	-7.1355	0.00981697	0.00311692	-0.0175926	-0.332764	-0.54248	0.917969	-0.0406885	-0.107935	0.993255	-0.0117985	0.339114	0.155682	-9.06891	0.00662098	0.00818558	0.000331552	-0.429932	-0.210693	1.03369	0.010111	-0.0781714	0.99659	0.0244026	-0.253235	0.533185	-9.72421	-0.00264989	0.00785935	-0.00621611	-0.445557	-0.138184	1.15039	
62	0.895549	0.175817	-0.344984	0.219242	7.46077	1.78214	7.4881	-0.00271962	-0.0177434	0.0184154	-0.452881	-0.354248	-0.891846	-0.64521	-0.0123541	0.762848	-0.0401725	9.67803	-0.486229	-1.61266	0.000119736	-0.00545271	-0.0160383	-0.968262	-0.235352	-0.0898438	0.674576	0.377741	-0.437029	0.459635	9.44601	1.14764	3.38326	-0.0360626	0.00768537	-0.00800309	-1.01196	-0.49585	-0.479492	-0.662141	-0.071364	0.729472	-0.156036	9.68334	-1.3427	-0.717115	-0.0144593	0.00240636	0.00252328	-1.20435	0.0571289	-0.311523	-0.728274	0.219165	0.573789	0.30389	9.5808	0.503796	2.47087	0.0391439	0.00691456	-0.0141196	-0.874512	0.113037	-0.618408	-0.789115	0.110126	0.504256	0.333009	9.58862	1.84804	5.10492	-0.0344868	0.0246468	-0.0427359	-0.914551	-0.223877	-0.682129	-0.402832	-0.0600559	0.913254	-0.0093459	6.77654	0.326405	-6.40141	0.0130118	0.0465972	-0.0136274	-0.986572	-0.333008	0.603271	-0.120559	-0.989427	0.00649896	-0.0803612	1.16008	2.32689	-8.13781	0.00232849	0.0121645	-0.0223954	-0.425537	-0.259521	0.95752	-0.0983138	-0.172305	-0.924394	-0.325794	-0.564471	5.96344	-7.12109	0.00440411	0.00145271	-0.0201942	-0.337646	-0.535645	0.91333	-0.041208	-0.107967	0.993224	-0.0122989	0.337012	0.147957	-9.0771	0.00621632	0.00778062	0.00171408	-0.42334	-0.212891	1.03149	0.01016	-0.0781496	0.996589	0.0244916	-0.257738	0.525537	-9.69382	-2.41145e-06	0.000938451	-0.00435254	-0.441162	-0.138184	1.14136	
63	0.895651	0.175635	-0.344536	0.219674	7.3682	1.68951	7.5727	0.00742849	0.0221386	0.00576544	-0.450439	-0.356201	-0.894043	-0.645052	-0.0126478	0.76297	-0.0403084	9.67516	-0.464408	-1.50662	0.00391661	0.00453452	-0.024685	-0.9729	-0.231201	-0.0900879	0.674507	0.377834	-0.437015	0.459674	9.3859	1.22493	3.41784	0.0245187	-0.000582996	-0.00183219	-1.01196	-0.498047	-0.470215	-0.662153	-0.0716194	0.729414	-0.156141	9.72939	-1.32243	-0.711732	0.0112746	0.00313475	-0.00455876	-1.20874	0.0546875	-0.311279	-0.728381	0.218632	0.573971	0.303676	9.61912	0.0401031	2.37362	0.0382469	0.0148255	-0.0114976	-0.868164	0.117432	-0.622803	-0.789027	0.110335	0.503844	0.333771	9.60655	1.74661	5.17608	-0.0260306	0.024906	-0.0380837	-0.914307	-0.234619	-0.681885	-0.403411	-0.0600687	0.913	-0.00908041	6.84951	0.300712	-6.34878	-0.00180196	0.0293661	-0.0141723	-0.982666	-0.326416	0.603027	-0.120559	-0.989427	0.00649896	-0.0803612	1.16008	2.32689	-8.13781	0.00232849	0.0121645	-0.0223954	-0.425537	-0.259521	0.95752	-0.0982657	-0.172461	-0.924506	-0.325406	-0.577167	5.99033	-7.13268	0.027179	0.000727739	-0.0171856	-0.337646	-0.535889	0.922363	-0.041208	-0.107967	0.993224	-0.0122989	0.337012	0.147957	-9.0771	0.00621632	0.00778062	0.00171408	-0.42334	-0.212891	1.03149	0.0101564	-0.0781506	0.996592	0.0243865	-0.249285	0.521578	-9.71488	0.00642099	0.00927607	-0.00431828	-0.440918	-0.144775	1.15283	
64	0.895741	0.175612	-0.344254	0.219768	7.34908	1.61857	7.56442	0.00445072	0.00149684	0.00045268	-0.450684	-0.354248	-0.887695	-0.644656	-0.0128801	0.763277	-0.040752	9.71111	-0.506307	-1.68883	0.0230589	0.0057606	-0.0134369	-0.968262	-0.235352	-0.0947266	0.674732	0.37754	-0.437234	0.459377	9.48721	1.00117	3.19821	-0.0237513	0.00374334	-0.00488403	-1.00342	-0.49585	-0.472656	-0.66205	-0.0715034	0.729549	-0.155995	9.72354	-1.33582	-0.779418	0.00361991	0.00362231	0.002754	-1.20459	0.0593262	-0.313721	-0.728573	0.218084	0.57416	0.303252	9.55906	0.422247	2.50623	0.0293766	0.00551985	-0.00678606	-0.868164	0.119629	-0.622803	-0.788943	0.110282	0.503638	0.334299	9.56933	1.84575	5.11968	-0.0018408	0.0208791	-0.0228921	-0.91626	-0.234619	-0.679688	-0.403802	-0.059741	0.912855	-0.00840589	6.87052	0.406891	-6.41416	-0.0261973	0.0427686	-0.0191468	-0.984375	-0.333008	0.603271	-0.120317	-0.989428	0.00561942	-0.0807695	1.14831	2.33381	-8.11677	0.00753917	0.0144045	-0.0199517	-0.42334	-0.261719	0.955078	-0.0980833	-0.172583	-0.925051	-0.323845	-0.568518	5.91394	-7.1417	0.0769262	-0.0010537	-0.0244781	-0.335449	-0.537842	0.915771	-0.0414523	-0.108022	0.993205	-0.0125359	0.340613	0.150337	-9.0656	0.00530672	0.00853968	-0.000347471	-0.425537	-0.210693	1.02686	0.0103017	-0.0781316	0.996589	0.0244854	-0.233498	0.537385	-9.71639	-0.00167604	-0.00235323	-0.0033909	-0.441162	-0.138184	1.146	
65	0.895688	0.176067	-0.34397	0.220065	7.2789	1.76569	7.54521	0.021433	0.00312338	0.00652288	-0.450684	-0.352051	-0.889893	-0.644629	-0.0129693	0.763288	-0.040952	9.6841	-0.378	-1.60565	-0.00789504	0.0127472	-0.0186296	-0.972656	-0.233398	-0.0969238	0.674492	0.378303	-0.436636	0.459669	9.38733	1.24792	3.42911	0.0607491	0.0106176	-0.0167408	-1.00317	-0.500244	-0.472412	-0.662129	-0.0717601	0.729422	-0.156135	9.69074	-1.28135	-0.649273	0.0110561	0.0072434	-0.00250229	-1.20679	0.059082	-0.309326	-0.728626	0.218135	0.57414	0.303124	9.6628	0.0744106	2.41765	0.0170055	0.0134919	0.00187194	-0.870361	0.117432	-0.622803	-0.788914	0.110376	0.503474	0.334585	9.59612	1.77995	5.17412	-0.0063587	0.0131318	-0.0284839	-0.912109	-0.232422	-0.684082	-0.403991	-0.0594993	0.912791	-0.00804668	6.82614	0.383469	-6.30813	0.0010378	0.0240252	-0.0122602	-0.986816	-0.328613	0.60083	-0.120063	-0.989466	0.00529385	-0.0807071	1.14755	2.33562	-8.1129	0.013975	0.00745787	-0.0201434	-0.425537	-0.261719	0.95752	-0.0981374	-0.172633	-0.925192	-0.323398	-0.592411	5.93993	-7.18163	0.0051538	0.00115212	-0.0176825	-0.339844	-0.540283	0.915771	-0.0415397	-0.108038	0.993198	-0.0126133	0.330252	0.159466	-9.07795	0.00488514	0.0101592	0.000691929	-0.42334	-0.210693	1.03369	0.010423	-0.078129	0.996586	0.0245508	-0.265933	0.535608	-9.72131	-0.00104949	0.00590584	-0.00637691	-0.438721	-0.142578	1.146	
66	0.895584	0.176226	-0.344156	0.220066	7.4215	1.76536	7.55956	-0.00069163	-0.0136822	-0.00338652	-0.450684	-0.354248	-0.889648	-0.644588	-0.012964	0.763323	-0.0409385	9.58652	-0.477622	-1.67118	-0.00814968	0.00830194	-0.0188027	-0.970459	-0.233154	-0.0900879	0.674773	0.377626	-0.437101	0.459372	9.51185	1.06415	3.27321	-0.0643381	-0.00206376	0.013132	-1.00537	-0.498047	-0.472656	-0.662015	-0.0717113	0.729564	-0.15598	9.7526	-1.33554	-0.76277	-0.00153994	0.00104233	-0.00133418	-1.20215	0.0571289	-0.311523	-0.728787	0.218066	0.574087	0.302886	9.58666	0.640271	2.47554	-0.0256263	0.00338431	-0.0204135	-0.870117	0.113037	-0.620605	-0.789037	0.110361	0.503197	0.334715	9.61987	1.9354	5.11783	-0.0074757	0.0352456	-0.00481483	-0.907715	-0.232422	-0.686279	-0.40448	-0.0592429	0.912592	-0.00788126	6.82648	0.259393	-6.3203	0.0050035	0.0292704	-0.011452	-0.982666	-0.324219	0.60083	-0.120104	-0.989461	0.00528554	-0.0807056	1.14842	2.33811	-8.13347	0.00210391	0.0170175	-0.0165758	-0.423096	-0.263916	0.95752	-0.0981247	-0.172756	-0.924959	-0.324002	-0.574692	5.94841	-7.16578	-0.0140181	0.00573617	-0.0136727	-0.332764	-0.544678	0.913574	-0.0415397	-0.108038	0.993198	-0.0126133	0.330252	0.159466	-9.07795	0.00488514	0.0101592	0.000691929	-0.42334	-0.210693	1.03369	0.0103839	-0.0781185	0.996583	0.0247437	-0.2484	0.533932	-9.69397	-0.00332621	0.00574137	-0.00488297	-0.447754	-0.140381	1.15503	
67	0.895787	0.176043	-0.343844	0.219876	7.2885	1.78446	7.56891	-0.0124047	0.00512428	-0.00561153	-0.455078	-0.354248	-0.887695	-0.644937	-0.01288	0.763052	-0.0405208	9.70282	-0.472998	-1.57792	-0.021307	0.0297184	-0.0197163	-0.9729	-0.231201	-0.0900879	0.674819	0.378036	-0.436552	0.459489	9.44553	1.20007	3.44404	0.0359169	0.0146139	-0.0171778	-1.00537	-0.504639	-0.474609	-0.662007	-0.0716994	0.729584	-0.155926	9.69944	-1.33262	-0.713002	-0.00360823	0.00440521	0.00020624	-1.20654	0.0549316	-0.311279	-0.728906	0.21833	0.573766	0.30302	9.56334	0.00146814	2.42426	0.00733417	0.018803	0.0107085	-0.868164	0.119629	-0.625244	-0.789138	0.110613	0.502913	0.334819	9.57652	1.7497	5.17831	-0.00479584	0.010719	-0.023231	-0.914307	-0.230469	-0.682129	-0.404865	-0.0591655	0.912423	-0.00820749	6.91542	0.402198	-6.38847	0.0276604	0.0356645	-0.00823245	-0.990723	-0.335205	0.603271	-0.120108	-0.989438	0.00475608	-0.0810147	1.15681	2.33121	-8.13382	0.00281935	0.0156134	-0.0181217	-0.42749	-0.266113	0.9646	-0.0981456	-0.172851	-0.924792	-0.324423	-0.581549	5.93132	-7.13271	-0.00777306	0.00485297	-0.0145569	-0.334961	-0.549316	0.917969	-0.0415397	-0.108038	0.993198	-0.0126133	0.330252	0.159466	-9.07795	0.00488514	0.0101592	0.000691929	-0.42334	-0.210693	1.03369	0.0103494	-0.0781285	0.996581	0.0247918	-0.257424	0.537202	-9.71175	-0.00166689	0.00684501	-0.00543862	-0.443115	-0.142578	1.14819	
68	0.895754	0.17574	-0.344128	0.219809	7.42378	1.64143	7.51717	-0.00980468	-0.00390451	0.00533998	-0.446289	-0.354004	-0.891846	-0.644979	-0.0128431	0.763013	-0.0406004	9.77475	-0.487346	-1.63724	-0.016165	0.0152272	-0.0194747	-0.974854	-0.233398	-0.0969238	0.675043	0.377629	-0.436723	0.459333	9.43652	1.02879	3.28044	-0.00854427	0.0153323	-0.0064382	-1.00342	-0.493652	-0.472656	-0.662165	-0.0717938	0.729398	-0.15608	9.72719	-1.30675	-0.744806	0.00875433	0.0119712	0.00020029	-1.20679	0.0593262	-0.313721	-0.728925	0.218503	0.573748	0.302883	9.67442	0.398364	2.51238	-0.0269805	0.0108983	-0.014772	-0.870117	0.113037	-0.629639	-0.789067	0.11019	0.503329	0.334501	9.59084	1.84354	5.15084	0.0262939	-0.00329113	-0.00917984	-0.9104	-0.223877	-0.682129	-0.404858	-0.058915	0.91245	-0.00740833	6.8566	0.325247	-6.26387	-0.0243772	0.00238111	-0.0122224	-0.986816	-0.328613	0.60083	-0.12005	-0.989452	0.00438592	-0.0809575	1.14967	2.34068	-8.11738	0.00624607	0.00800113	-0.0224145	-0.42749	-0.261719	0.952881	-0.0981742	-0.172642	-0.924925	-0.324145	-0.578783	5.93523	-7.13881	0.0148291	0.00226128	-0.0205742	-0.332764	-0.544678	0.917969	-0.0415397	-0.108038	0.993198	-0.0126133	0.330252	0.159466	-9.07795	0.00488514	0.0101592	0.000691929	-0.42334	-0.210693	1.03369	0.0104151	-0.0781295	0.996578	0.0248859	-0.247262	0.535472	-9.71332	-0.00442023	0.000642127	-0.00487022	-0.445557	-0.140381	1.14819	
69	0.895874	0.175683	-0.343747	0.219962	7.32175	1.67815	7.52321	0.00462253	0.0291617	0.00504174	-0.448242	-0.356201	-0.894043	-0.64507	-0.0128395	0.762935	-0.0406173	9.63046	-0.339878	-1.51768	-0.00608525	0.0223323	-0.0179134	-0.972656	-0.233398	-0.0947266	0.674964	0.378067	-0.436272	0.459517	9.41079	1.14637	3.50421	0.0511046	0.0166408	-0.0177183	-1.00537	-0.498047	-0.470215	-0.662247	-0.0717543	0.729313	-0.156152	9.70962	-1.30784	-0.746451	0.00297762	0.00818429	0.00398891	-1.20874	0.0549316	-0.315918	-0.728974	0.218606	0.573643	0.302888	9.59158	0.0668016	2.34171	-0.00920679	0.0130498	-0.006809	-0.872314	0.113037	-0.622803	-0.789022	0.110329	0.503406	0.334448	9.61839	1.76627	5.17192	-0.000712399	0.00320954	-0.00840465	-0.909912	-0.232422	-0.684082	-0.404962	-0.0583608	0.912446	-0.00643054	6.75564	0.39892	-6.37092	-0.049001	0.0225235	-0.0132829	-0.984619	-0.328613	0.598877	-0.12005	-0.989452	0.00438592	-0.0809575	1.14967	2.34068	-8.11738	0.00624607	0.00800113	-0.0224145	-0.42749	-0.261719	0.952881	-0.0982323	-0.172661	-0.924845	-0.324345	-0.587725	5.93174	-7.17073	-0.0101778	0.00160065	-0.0185223	-0.332764	-0.54248	0.90918	-0.0415397	-0.108038	0.993198	-0.0126133	0.330252	0.159466	-9.07795	0.00488514	0.0101592	0.000691929	-0.42334	-0.210693	1.03369	0.0104626	-0.0781552	0.996569	0.025132	-0.261405	0.546881	-9.72039	-0.00843508	0.000483146	-0.0034543	-0.440918	-0.142578	1.146	
70	0.895972	0.175672	-0.343397	0.220117	7.21898	1.67807	7.51996	0.00759477	0.0256698	0.00478239	-0.446045	-0.354004	-0.89624	-0.644626	-0.0130407	0.763301	-0.0407229	9.70841	-0.472447	-1.57334	0.00309275	-0.0129168	-0.0238228	-0.970459	-0.233154	-0.0900879	0.674958	0.378049	-0.43627	0.459543	9.42051	1.36253	3.37023	0.00135033	0.00725777	0.000656903	-1.00122	-0.493896	-0.468018	-0.662303	-0.0717564	0.729245	-0.156226	9.72471	-1.34816	-0.724758	0.00793574	0.00467787	0.000663037	-1.20874	0.0568848	-0.311523	-0.729033	0.217969	0.574106	0.302329	9.59023	0.345527	2.49878	0.0262735	-0.000899125	-0.0255594	-0.865967	0.115234	-0.625244	-0.78917	0.110732	0.503126	0.334384	9.56482	1.83169	5.12324	0.0101778	0.00910093	0.00551412	-0.914551	-0.228271	-0.679932	-0.405002	-0.0576321	0.912487	-0.00429753	6.92622	0.386448	-6.26107	-0.0809066	0.000912111	-0.0165901	-0.982178	-0.333008	0.601074	-0.119989	-0.989452	0.00409783	-0.0810597	1.14695	2.33005	-8.12067	0.00613116	0.0138431	-0.0187574	-0.425537	-0.259521	0.95752	-0.0982775	-0.172681	-0.92477	-0.324535	-0.588057	5.94407	-7.12942	-0.00894841	0.00212292	-0.0181899	-0.335205	-0.54248	0.917969	-0.0422537	-0.1081	0.993157	-0.0129692	0.337662	0.152851	-9.06889	0.00333356	0.0090717	-0.000288992	-0.425537	-0.212891	1.03149	0.0105544	-0.0781455	0.996565	0.0252918	-0.254161	0.553068	-9.71132	-0.00952288	-0.00176924	-0.00405457	-0.438721	-0.140381	1.14819	
71	0.896137	0.176129	-0.342362	0.220694	7.17686	1.74177	7.66512	0.0236488	0.0109393	0.00440299	-0.446045	-0.354004	-0.894043	-0.644382	-0.0129413	0.763525	-0.0404182	9.68327	-0.460375	-1.65	-0.0303619	0.00232758	-0.0196762	-0.968262	-0.235352	-0.0852051	0.675015	0.377829	-0.436447	0.459471	9.43228	1.17433	3.25395	0.0786013	0.00446833	-0.00726631	-1.00757	-0.500244	-0.474854	-0.662327	-0.0717031	0.72922	-0.156271	9.70955	-1.27574	-0.727993	0.0021565	0.00897676	0.0057211	-1.20874	0.0568848	-0.313721	-0.728763	0.218063	0.57447	0.302219	9.63385	0.367063	2.51207	-0.0126494	-0.00789369	-0.0149676	-0.872314	0.11084	-0.627441	-0.78945	0.109899	0.504106	0.332517	9.58559	1.7686	5.17296	0.0807353	-0.00321709	0.0253822	-0.912354	-0.228271	-0.682129	-0.404884	-0.0575483	0.912546	-0.00421094	6.8724	0.389215	-6.36449	0.00885583	-0.00090397	-0.0134608	-0.982178	-0.333008	0.601074	-0.119989	-0.989452	0.00409783	-0.0810597	1.14695	2.33005	-8.12067	0.00613116	0.0138431	-0.0187574	-0.425537	-0.259521	0.95752	-0.0982291	-0.172546	-0.924899	-0.324256	-0.591859	5.94261	-7.14632	0.0176698	0.00416216	-0.0197204	-0.335205	-0.54248	0.915771	-0.0422537	-0.1081	0.993157	-0.0129692	0.337662	0.152851	-9.06889	0.00333356	0.0090717	-0.000288992	-0.425537	-0.212891	1.03149	0.0104578	-0.0782196	0.996562	0.0252429	-0.252796	0.543261	-9.71153	0.00448157	0.00779603	-0.00504785	-0.443359	-0.135986	1.146	
72	0.895844	0.1765	-0.343122	0.220405	7.33595	1.74709	7.61602	-0.0023351	-0.0485314	-0.0114493	-0.446289	-0.351807	-0.891846	-0.644577	-0.0130949	0.763357	-0.0404396	9.70506	-0.405953	-1.61307	0.000568931	0.0269546	-0.0237815	-0.974609	-0.239746	-0.0874023	0.67514	0.377432	-0.436696	0.459378	9.45743	0.883074	3.26526	-0.0172429	0.00793519	0.0113946	-1.00562	-0.493652	-0.477295	-0.662551	-0.071817	0.728973	-0.156419	9.71089	-1.32634	-0.733864	0.0093339	0.0153366	-0.00115305	-1.19995	0.0571289	-0.309326	-0.728579	0.218572	0.57445	0.302335	9.65317	0.225504	2.44228	-0.0102452	-0.00421103	-0.00763982	-0.870117	0.11084	-0.622803	-0.78974	0.109404	0.50433	0.331651	9.62598	1.79727	5.16059	0.0237211	0.020496	0.000816662	-0.912109	-0.234619	-0.679688	-0.405055	-0.0578148	0.912452	-0.00428148	6.82727	0.415632	-6.32294	0.0152051	0.0128609	-0.0173763	-0.986572	-0.333008	0.59668	-0.119726	-0.989455	0.00325877	-0.0814519	1.1441	2.33486	-8.10865	0.00785968	0.0139842	-0.0191397	-0.423096	-0.266113	0.959961	-0.0982315	-0.172572	-0.924993	-0.323972	-0.577517	5.92643	-7.14289	0.0308428	-9.68191e-05	-0.0228809	-0.334961	-0.547119	0.920166	-0.0422537	-0.1081	0.993157	-0.0129692	0.337662	0.152851	-9.06889	0.00333356	0.0090717	-0.000288992	-0.425537	-0.212891	1.03149	0.0105084	-0.078204	0.996562	0.0252418	-0.272248	0.547593	-9.72778	0.0036239	0.00571601	-0.00457304	-0.445557	-0.140381	1.1438	
73	0.895487	0.176785	-0.344128	0.22006	7.33961	1.67328	7.476	0.00368978	-0.0539468	-0.0041991	-0.455078	-0.354248	-0.889893	-0.644781	-0.0131937	0.763185	-0.0404077	9.63144	-0.492447	-1.60166	-0.000773781	0.0246166	-0.0206137	-0.972656	-0.235352	-0.0898438	0.674981	0.378216	-0.43568	0.459931	9.43076	1.34329	3.47371	0.0236124	0.0239762	-0.00957215	-1.00537	-0.498047	-0.474854	-0.662781	-0.0719683	0.728687	-0.156705	9.69405	-1.33284	-0.700603	0.0172378	0.0196403	0.0048647	-1.20459	0.0615234	-0.311523	-0.72895	0.218828	0.573989	0.30213	9.47999	0.376672	2.37762	-0.0132576	0.0264642	0.00797819	-0.865723	0.113037	-0.622803	-0.789679	0.109952	0.503847	0.332348	9.55999	1.78809	5.10668	-0.0464035	0.0233246	-0.0328458	-0.907959	-0.230225	-0.679932	-0.405231	-0.0577642	0.912377	-0.00430923	6.82237	0.33903	-6.31719	0.0115154	0.0158747	-0.0165675	-0.981934	-0.339355	0.594727	-0.119726	-0.989455	0.00325877	-0.0814519	1.1441	2.33486	-8.10865	0.00785968	0.0139842	-0.0191397	-0.423096	-0.266113	0.959961	-0.0982874	-0.172403	-0.92514	-0.323625	-0.580543	5.93455	-7.15976	-0.00331842	0.0015279	-0.0209815	-0.333008	-0.537842	0.917969	-0.0422537	-0.1081	0.993157	-0.0129692	0.337662	0.152851	-9.06889	0.00333356	0.0090717	-0.000288992	-0.425537	-0.212891	1.03149	0.0104638	-0.078209	0.996564	0.0251713	-0.257154	0.531688	-9.70078	0.00455212	0.00734367	-0.00462336	-0.441162	-0.140381	1.15063	
74	0.895218	0.177301	-0.344386	0.220336	7.51944	1.73335	7.48883	0.0250421	-0.00191197	0.00842686	-0.448486	-0.354004	-0.887695	-0.644981	-0.0133192	0.763011	-0.0404424	9.76797	-0.367343	-1.6267	-0.00734065	0.0198264	-0.0240295	-0.972656	-0.233154	-0.0898438	0.675118	0.378196	-0.43536	0.46005	9.44449	1.19149	3.40827	0.0302471	0.0190961	-0.0118602	-0.999023	-0.496094	-0.470459	-0.662818	-0.0720226	0.728646	-0.156718	9.73796	-1.28748	-0.690282	-0.00400859	0.0035325	0.000474629	-1.19995	0.0549316	-0.313477	-0.729027	0.219264	0.573556	0.302452	9.72672	0.108156	2.48559	-0.0176605	0.03642	-0.00929672	-0.870361	0.117432	-0.622803	-0.789508	0.11072	0.503217	0.333453	9.63776	1.72338	5.22303	-0.0528681	0.0200141	-0.0446576	-0.912354	-0.226074	-0.684326	-0.40505	-0.0576398	0.912466	-0.00421778	6.88302	0.430258	-6.37748	0.0209599	0.00616486	-0.0134927	-0.978027	-0.333008	0.598877	-0.119726	-0.989455	0.00325877	-0.0814519	1.1441	2.33486	-8.10865	0.00785968	0.0139842	-0.0191397	-0.423096	-0.266113	0.959961	-0.0983787	-0.17224	-0.9251	-0.323799	-0.590169	5.92902	-7.15442	-0.00477011	0.00183619	-0.0168891	-0.333008	-0.540283	0.915771	-0.0422537	-0.1081	0.993157	-0.0129692	0.337662	0.152851	-9.06889	0.00333356	0.0090717	-0.000288992	-0.425537	-0.212891	1.03149	0.0104979	-0.0781869	0.996569	0.0250547	-0.262814	0.540967	-9.709	0.00822578	0.00597814	-0.00319395	-0.445557	-0.142578	1.14136	
75	0.89544	0.177495	-0.343584	0.220527	7.36639	1.83567	7.53227	0.00530442	0.0273873	-0.00434496	-0.450439	-0.356201	-0.894043	-0.644967	-0.0131125	0.763036	-0.0402617	9.64621	-0.520396	-1.51679	-0.010563	0.00638088	-0.0119079	-0.974854	-0.231201	-0.0900879	0.675244	0.378127	-0.435352	0.459928	9.37903	1.13943	3.44067	-0.0160891	0.00193778	-0.00910588	-1.00537	-0.500244	-0.472412	-0.66293	-0.0719107	0.728505	-0.156948	9.62904	-1.35667	-0.655399	0.000842823	0.0165177	0.0112496	-1.20435	0.0549316	-0.313477	-0.72903	0.219364	0.573635	0.30222	9.53069	0.486991	2.49883	-0.0188732	-0.0124764	-0.0192335	-0.876953	0.117432	-0.629639	-0.789576	0.11146	0.502014	0.334855	9.55511	1.83145	5.13059	-0.0503389	0.061604	-0.0218981	-0.912354	-0.226074	-0.690674	-0.405237	-0.0575159	0.91239	-0.00433922	6.86074	0.410738	-6.36601	0.0167652	0.019902	-0.0109301	-0.986328	-0.337402	0.599121	-0.119038	-0.989504	0.00192573	-0.0819065	1.14892	2.32665	-8.12472	0.0115268	0.0109159	-0.0186388	-0.429688	-0.261719	0.962158	-0.0982893	-0.172326	-0.925192	-0.323515	-0.578632	5.92605	-7.15454	0.0234977	0.00316439	-0.0198323	-0.330566	-0.540283	0.915771	-0.0422537	-0.1081	0.993157	-0.0129692	0.337662	0.152851	-9.06889	0.00333356	0.0090717	-0.000288992	-0.425537	-0.212891	1.03149	0.0105198	-0.0781692	0.996563	0.025331	-0.261946	0.543142	-9.7186	-0.0108379	0.00405824	-0.00343181	-0.438721	-0.144775	1.14844	
76	0.89584	0.177139	-0.342666	0.220617	7.33063	1.77824	7.59479	-0.0100446	0.0399484	0.00320454	-0.452881	-0.349854	-0.89624	-0.644802	-0.0132061	0.763163	-0.0404613	9.79444	-0.459808	-1.66791	0.0095815	0.0175	-0.0179686	-0.966309	-0.230957	-0.0854492	0.675393	0.378183	-0.435247	0.459762	9.47901	1.11985	3.15044	0.00737555	0.00723891	-0.0143079	-1.00562	-0.49585	-0.474854	-0.663067	-0.0718834	0.728372	-0.157002	9.74786	-1.26642	-0.723333	0.0152651	0.018326	0.00351598	-1.20874	0.0549316	-0.313477	-0.729034	0.219604	0.573332	0.302611	9.63303	0.0450783	2.26481	0.00315028	0.0200761	-0.00221186	-0.865967	0.115234	-0.622803	-0.789671	0.111295	0.502232	0.334358	9.63475	1.77034	5.15111	0.0513431	-0.00993334	-0.0033768	-0.914307	-0.230469	-0.682129	-0.405124	-0.0573635	0.91245	-0.00425683	6.91313	0.431514	-6.40976	0.0262791	0.0110744	-0.016323	-0.982422	-0.330811	0.59668	-0.119028	-0.989503	0.0015929	-0.0819331	1.13593	2.32616	-8.12515	0.00412136	0.0111047	-0.0208119	-0.42334	-0.261719	0.95752	-0.0983983	-0.172112	-0.925164	-0.323676	-0.588381	5.93075	-7.14402	-0.0043286	0.00188118	-0.0190531	-0.332764	-0.54248	0.920166	-0.0422537	-0.1081	0.993157	-0.0129692	0.337662	0.152851	-9.06889	0.00333356	0.0090717	-0.000288992	-0.425537	-0.212891	1.03149	0.0105767	-0.0781741	0.996562	0.0253076	-0.247517	0.539844	-9.70095	0.00617633	0.00407711	-0.0043645	-0.447998	-0.138184	1.146	
77	0.896029	0.176752	-0.342077	0.221073	7.28138	1.68024	7.65478	0.00226232	0.0235095	0.0114366	-0.44165	-0.356201	-0.894043	-0.644521	-0.0132188	0.763401	-0.0404564	9.63129	-0.559231	-1.7239	-0.00799562	-0.00577552	-0.0183476	-0.970459	-0.233154	-0.0900879	0.675445	0.378245	-0.435215	0.459665	9.43037	1.22326	3.43932	-0.00697958	-0.00373457	-0.00315978	-1.00757	-0.502441	-0.477051	-0.663203	-0.0718	0.728273	-0.156924	9.72801	-1.31248	-0.671918	-0.00668446	0.00648717	-0.00248611	-1.21118	0.059082	-0.315918	-0.728866	0.219522	0.573629	0.302513	9.62917	0.31093	2.43126	0.00210159	0.00413108	-0.0303864	-0.872559	0.115234	-0.627441	-0.790009	0.110338	0.502821	0.332988	9.59246	1.80342	5.22238	0.0577199	0.0150029	0.0108589	-0.914551	-0.223877	-0.688721	-0.404945	-0.0571966	0.912542	-0.00398711	6.77449	0.348494	-6.33973	0.012142	0.015276	-0.0150489	-0.984375	-0.335205	0.601074	-0.118941	-0.989507	0.00129793	-0.082019	1.14667	2.32833	-8.13168	0.00703372	0.0133676	-0.018611	-0.425293	-0.263916	0.950439	-0.0984544	-0.172173	-0.925011	-0.324066	-0.587066	5.94005	-7.13414	0.000752091	0.00336609	-0.0180694	-0.335205	-0.540283	0.915771	-0.0434602	-0.108152	0.993082	-0.0142095	0.341	0.141308	-9.05964	0.000903564	0.00773639	-0.000394376	-0.416748	-0.208252	1.02905	0.010609	-0.0781645	0.996558	0.0255051	-0.263587	0.555975	-9.70732	-0.00411249	0.00670916	-0.0048069	-0.440918	-0.142578	1.14819	
78	0.896115	0.176627	-0.341796	0.221261	7.31355	1.75585	7.67926	-0.000477168	0.022506	0.0114033	-0.452881	-0.354004	-0.89624	-0.644137	-0.0134828	0.763703	-0.0407876	9.73909	-0.353182	-1.48037	0.0255704	-0.0262813	-0.0161026	-0.970459	-0.233154	-0.0852051	0.675707	0.377919	-0.435429	0.459346	9.52125	1.09621	3.2504	-0.0431874	0.00536888	-0.0104534	-1.00781	-0.493652	-0.472656	-0.663292	-0.0718384	0.728186	-0.156936	9.74944	-1.33038	-0.752621	0.00553087	0.0147467	-0.00271025	-1.20215	0.0571289	-0.315918	-0.728934	0.219471	0.573483	0.302663	9.64909	0.223273	2.41414	-0.00757694	0.022848	-0.0211403	-0.874756	0.117432	-0.622803	-0.790073	0.110183	0.502828	0.332879	9.6379	1.72749	5.17599	0.0192765	0.019177	-0.0131437	-0.914551	-0.228271	-0.684326	-0.405083	-0.0572301	0.912478	-0.0041066	6.91635	0.396995	-6.22868	0.026629	0.0226392	-0.0159339	-0.982178	-0.335205	0.603271	-0.119004	-0.989493	0.000989357	-0.0821007	1.13842	2.32172	-8.11944	0.00124833	0.0132646	-0.0199734	-0.423096	-0.263916	0.955078	-0.0984516	-0.172196	-0.925024	-0.324016	-0.595352	5.93239	-7.13066	0.0113199	0.00287723	-0.0200843	-0.335449	-0.538086	0.917969	-0.0434005	-0.108176	0.993082	-0.0142134	0.345965	0.137079	-9.07853	0.00528214	0.00805866	0.000717355	-0.42334	-0.212891	1.03149	0.0106096	-0.0781608	0.99656	0.0254156	-0.252643	0.552849	-9.70898	0.0097117	0.00712237	-0.00460111	-0.440918	-0.142578	1.146	
79	0.895947	0.176643	-0.341923	0.221733	7.20726	1.65158	7.62905	0.0134405	-0.0206669	0.0172777	-0.448242	-0.358398	-0.891846	-0.643803	-0.0136738	0.763961	-0.0411695	9.64296	-0.473221	-1.58938	0.00113534	-0.00421189	-0.0138295	-0.974854	-0.233154	-0.0852051	0.675445	0.378672	-0.434577	0.459918	9.4036	1.11681	3.42323	0.0905207	0.0242615	-0.01159	-1.00122	-0.502441	-0.474854	-0.663652	-0.0721697	0.72778	-0.157144	9.68126	-1.30307	-0.661456	0.015425	0.0198661	-0.00825637	-1.20435	0.0549316	-0.315918	-0.72841	0.219751	0.573741	0.303232	9.7166	0.262119	2.48791	-0.0260857	0.00468615	-0.0356101	-0.868164	0.115234	-0.625244	-0.790103	0.110497	0.502395	0.333356	9.59044	1.73151	5.24089	-0.0249214	0.0207723	-0.0251793	-0.910156	-0.228271	-0.686279	-0.405662	-0.0571669	0.912225	-0.00395755	6.87421	0.441457	-6.28126	0.00858065	0.0151246	-0.0192372	-0.98877	-0.330811	0.590332	-0.11901	-0.989494	0.000940989	-0.0820796	1.14042	2.32205	-8.14142	0.0052562	0.0159608	-0.0194289	-0.42334	-0.259521	0.959717	-0.098463	-0.172019	-0.925108	-0.323866	-0.581836	5.93363	-7.1469	0.00923604	0.00311739	-0.0185448	-0.333008	-0.538086	0.920166	-0.0434689	-0.108229	0.993073	-0.0142442	0.337454	0.135268	-9.07524	0.00321245	0.00922257	-0.000893774	-0.427734	-0.212891	1.02905	0.0107407	-0.078139	0.996558	0.0255052	-0.261914	0.554088	-9.71718	-0.006754	-0.00258547	-0.00298926	-0.438721	-0.142578	1.15063	
80	0.895512	0.177298	-0.34248	0.222105	7.31333	1.78794	7.57692	0.0247273	-0.0357063	0.00803049	-0.452881	-0.354248	-0.891846	-0.643623	-0.0140792	0.764082	-0.0416079	9.68459	-0.366793	-1.56474	0.0125033	0.00793922	-0.0201171	-0.977295	-0.229004	-0.0854492	0.675453	0.378746	-0.434376	0.460035	9.41205	1.27818	3.46925	-0.0191725	-0.00141316	0.00210777	-1.00342	-0.500244	-0.479248	-0.663829	-0.0724158	0.727565	-0.157277	9.71768	-1.26638	-0.622154	0.00985376	0.0116721	-0.00288962	-1.20874	0.0549316	-0.315918	-0.728746	0.219562	0.573634	0.302764	9.5415	0.270541	2.34473	0.0416176	0.00165238	0.0067876	-0.868164	0.119629	-0.629639	-0.789838	0.110942	0.501972	0.334472	9.60092	1.88107	5.10451	-0.0303071	0.0282859	-0.0349107	-0.910156	-0.228271	-0.688477	-0.405477	-0.0572451	0.9123	-0.00444306	6.83629	0.362942	-6.34409	0.0537453	0.000927116	-0.0082692	-0.981934	-0.339355	0.599121	-0.11886	-0.989506	0.000606737	-0.0821605	1.15029	2.33432	-8.12556	0.00953227	0.0133144	-0.0199151	-0.42334	-0.259521	0.962158	-0.098458	-0.172065	-0.925133	-0.323774	-0.590933	5.95185	-7.14795	0.0146099	0.00227052	-0.0188631	-0.335205	-0.54248	0.915771	-0.0435693	-0.10823	0.993068	-0.0143017	0.33452	0.135813	-9.07173	0.00403662	0.0106305	0.0012553	-0.42334	-0.208496	1.03809	0.0107974	-0.0781023	0.996559	0.0255702	-0.273086	0.548677	-9.71563	0.00656497	0.00838121	-0.0034557	-0.441162	-0.138184	1.14819	
81	0.895263	0.177761	-0.343137	0.221726	7.31082	1.79517	7.52436	0.00706218	-0.0357248	-0.0134967	-0.450684	-0.354248	-0.887695	-0.643304	-0.0139515	0.764357	-0.0415191	9.67736	-0.513611	-1.71256	-0.00625262	-0.000926641	-0.0202861	-0.9729	-0.230957	-0.0854492	0.675567	0.378726	-0.434181	0.460068	9.45428	1.09475	3.31817	0.000512201	0.0241284	-0.00442644	-1.00342	-0.498047	-0.474854	-0.663708	-0.0723896	0.727694	-0.157205	9.71596	-1.32554	-0.748602	0.00541025	0.000203105	0.000406966	-1.20435	0.0549316	-0.318115	-0.728656	0.219671	0.573517	0.303122	9.61603	0.14439	2.40325	-0.027371	0.0229952	-0.0217223	-0.868164	0.115234	-0.618408	-0.790099	0.11054	0.502284	0.333519	9.61317	1.78553	5.19288	0.0594478	0.00319323	0.0136846	-0.916504	-0.228271	-0.684326	-0.405409	-0.0572475	0.91233	-0.00451083	6.84729	0.414995	-6.42839	0.0226524	0.00437906	-0.0143623	-0.986328	-0.337402	0.601074	-0.118878	-0.989497	0.000270704	-0.0822362	1.14322	2.32484	-8.10936	0.00273897	0.0132035	-0.0204851	-0.42749	-0.263916	0.955078	-0.0984496	-0.171984	-0.925067	-0.324007	-0.59368	5.93606	-7.12327	-0.00127685	0.00408998	-0.0142002	-0.333008	-0.540283	0.920166	-0.043512	-0.1083	0.993063	-0.0142607	0.352631	0.142142	-9.07096	0.00546708	0.0105505	0.000436837	-0.425537	-0.210693	1.03589	0.0107047	-0.0781693	0.996556	0.0255001	-0.262294	0.539828	-9.71741	0.00357798	0.00726025	-0.00519729	-0.443359	-0.138184	1.14819	
82	0.895316	0.177908	-0.343232	0.221246	7.40717	1.85684	7.59517	-0.00983002	-0.00743279	-0.0148983	-0.448242	-0.358398	-0.883301	-0.643123	-0.0141196	0.764505	-0.0415382	9.74455	-0.348259	-1.5754	-0.00977068	0.00465626	-0.0195829	-0.975098	-0.229004	-0.0876465	0.67542	0.378889	-0.433978	0.460342	9.41048	1.29569	3.52594	0.0127491	0.0101471	0.00369077	-1.00537	-0.504639	-0.470215	-0.663642	-0.0724996	0.727733	-0.157247	9.70464	-1.29813	-0.630861	-0.000686768	-0.00397788	0.00219831	-1.20435	0.0571289	-0.311523	-0.728984	0.219198	0.573678	0.30237	9.53614	0.513107	2.46201	0.0343206	0.00193854	0.00213839	-0.870361	0.117432	-0.622803	-0.79018	0.109487	0.503166	0.332343	9.57334	1.82016	5.13778	0.0770021	-0.00457068	-0.00336995	-0.910156	-0.226074	-0.682129	-0.405325	-0.0576521	0.912336	-0.00550921	6.95075	0.398139	-6.21579	0.0703675	0.000959405	-0.0131303	-0.984375	-0.335205	0.596924	-0.118825	-0.989495	-2.15476e-06	-0.0823446	1.13453	2.31842	-8.1195	0.00573093	0.0140712	-0.0180125	-0.418701	-0.266113	0.962158	-0.0983667	-0.172099	-0.925102	-0.323872	-0.581173	5.94758	-7.12628	0.0158256	0.00563122	-0.0166545	-0.330566	-0.540283	0.920166	-0.043512	-0.1083	0.993063	-0.0142607	0.352631	0.142142	-9.07096	0.00546708	0.0105505	0.000436837	-0.425537	-0.210693	1.03589	0.0107049	-0.078148	0.996558	0.0255137	-0.264271	0.55523	-9.71588	0.00622162	0.008451	-0.00517162	-0.441162	-0.140381	1.1438	
83	0.895261	0.177889	-0.343713	0.220738	7.34846	1.80703	7.52835	-0.0100622	-0.0288076	-0.0210997	-0.450439	-0.356201	-0.891846	-0.643244	-0.0138801	0.764416	-0.0413882	9.66203	-0.464562	-1.68304	0.0195829	0.036248	-0.0166648	-0.975098	-0.226807	-0.0854492	0.675451	0.378653	-0.434276	0.460209	9.46377	1.09019	3.36388	-0.015235	0.000162827	-0.00363555	-1.00122	-0.500244	-0.472412	-0.663535	-0.0722612	0.727866	-0.157196	9.7292	-1.30097	-0.706401	-0.00722696	-0.00247854	0.00691982	-1.20215	0.0571289	-0.318115	-0.728785	0.219956	0.573359	0.302904	9.61142	0.132478	2.46056	-0.0496104	0.0216208	-0.0101609	-0.868164	0.117432	-0.622803	-0.790352	0.109163	0.503522	0.3315	9.59653	1.74875	5.21402	0.0404855	0.00202315	0.00210703	-0.912598	-0.223877	-0.686523	-0.40507	-0.0577829	0.912436	-0.00629132	6.84659	0.304531	-6.31581	0.0320426	0.00615631	-0.0100593	-0.986572	-0.333008	0.601074	-0.11872	-0.989493	-0.000648113	-0.0825133	1.14225	2.32702	-8.12509	0.00588851	0.0123368	-0.0210926	-0.420898	-0.263916	0.955078	-0.0983362	-0.172161	-0.925348	-0.323143	-0.587102	5.92361	-7.15373	0.0419165	-0.00167882	-0.0250016	-0.332764	-0.54248	0.922363	-0.0436977	-0.108355	0.993048	-0.014315	0.343178	0.143913	-9.0704	0.0024161	0.00931792	-0.000649681	-0.421143	-0.210693	1.03149	0.0107738	-0.0781111	0.996559	0.0255309	-0.256677	0.542082	-9.72733	0.000102082	0.00267001	-0.00433321	-0.445557	-0.138184	1.146	
84	0.895277	0.177721	-0.343885	0.22054	7.41307	1.81737	7.51649	-0.0212076	-0.0161195	-0.00784815	-0.450684	-0.354004	-0.894043	-0.643015	-0.0137808	0.764618	-0.0412463	9.6553	-0.438827	-1.5664	-0.0117425	0.00380253	-0.0211418	-0.974854	-0.233154	-0.0852051	0.675424	0.378707	-0.43414	0.460332	9.47752	1.07673	3.33495	0.0145372	0.0139416	0.000289877	-1.00757	-0.504639	-0.474609	-0.663543	-0.0723649	0.727773	-0.157542	9.69007	-1.28923	-0.690754	0.0251274	0.0120441	0.00792636	-1.19775	0.0593262	-0.320312	-0.729062	0.219312	0.573727	0.302007	9.60408	0.306284	2.49402	0.069923	0.00377729	-0.00786227	-0.872559	0.117432	-0.618408	-0.790274	0.109684	0.503238	0.331946	9.5954	1.75998	5.20749	-0.0543965	0.020656	-0.0220291	-0.918701	-0.230469	-0.684082	-0.405008	-0.0578144	0.91246	-0.0065833	6.88187	0.415052	-6.3289	0.0221367	0.00575865	-0.0125826	-0.991211	-0.326416	0.60083	-0.118526	-0.989524	-0.000698876	-0.0824247	1.13929	2.32492	-8.11973	0.0212013	0.0105565	-0.0186847	-0.421143	-0.261719	0.950439	-0.0983214	-0.172262	-0.925409	-0.322919	-0.603324	5.91822	-7.16921	0.00592827	0.00279784	-0.0173609	-0.332764	-0.544678	0.917969	-0.0438592	-0.108384	0.993033	-0.014627	0.336275	0.142552	-9.07297	0.00928326	0.00943115	0.000327928	-0.42334	-0.208496	1.03809	0.0107728	-0.0780936	0.996564	0.025414	-0.268825	0.553951	-9.70496	0.0115763	0.00687783	-0.00387495	-0.441162	-0.138184	1.14819	
