40	Head	00b4120a												Throax	00b411e8												LUpArm	00b411d9												LFoArm	00b41148												RUpArm	00b411db												RFoArm	00b41204												Waist	00b411f7												Lthigh	00b411f4												Lshank	00b4111b												Rthigh	00b411c8												Rshank	00b411ee												
PacketCount	q0	q1	q2	q3	accX	accY	accZ	gyrX	gyrY	gyrZ	magX	magY	magZ	q0	q1	q2	q3	accX	accY	accZ	gyrX	gyrY	gyrZ	magX	magY	magZ	q0	q1	q2	q3	accX	accY	accZ	gyrX	gyrY	gyrZ	magX	magY	magZ	q0	q1	q2	q3	accX	accY	accZ	gyrX	gyrY	gyrZ	magX	magY	magZ	q0	q1	q2	q3	accX	accY	accZ	gyrX	gyrY	gyrZ	magX	magY	magZ	q0	q1	q2	q3	accX	accY	accZ	gyrX	gyrY	gyrZ	magX	magY	magZ	q0	q1	q2	q3	accX	accY	accZ	gyrX	gyrY	gyrZ	magX	magY	magZ	q0	q1	q2	q3	accX	accY	accZ	gyrX	gyrY	gyrZ	magX	magY	magZ	q0	q1	q2	q3	accX	accY	accZ	gyrX	gyrY	gyrZ	magX	magY	magZ	q0	q1	q2	q3	accX	accY	accZ	gyrX	gyrY	gyrZ	magX	magY	magZ	q0	q1	q2	q3	accX	accY	accZ	gyrX	gyrY	gyrZ	magX	magY	magZ	
0	0.598055	0.0670182	0.798618	-0.00690766	-8.9703	0.574505	-2.64955	0.00804477	-0.00228841	-0.0206457	0.896729	-0.161865	0.686768	-0.0793101	0.0287182	-0.994967	-0.0540967	-1.39088	1.09325	-9.32836	0.00495481	0.0233099	-0.0249979	-0.0979004	-0.265381	1.13379	0.0920762	0.0461106	-0.987325	0.120771	1.9696	-2.13273	-8.32622	0.00764582	0.000199508	0.0146499	-0.564941	0.108398	0.899902	0.170108	0.066832	-0.851588	0.491319	3.46069	-7.93749	-4.37341	0.0388361	-0.00118624	0.0108168	-0.6604	0.776367	0.325684	0.163574	0.102025	-0.933377	-0.302725	2.55197	5.94616	-7.51829	0.091418	-0.00148361	-0.022604	-0.619873	-0.697021	0.631836	0.122133	-0.164988	-0.523388	-0.826999	4.06147	9.22755	4.17341	0.00795764	-0.0271385	-0.0111528	-0.854492	-0.809814	-0.233643	-0.150304	0.0839993	-0.984513	0.0329548	-2.5371	-0.725394	-8.63378	0.0132728	0.0346557	-0.0199871	-0.0693359	-0.00952148	1.07935	0.782077	-0.172449	-0.527642	-0.283213	9.5431	0.202692	4.07268	0.000284077	0.0101041	-0.00931716	-0.877686	0.134277	-0.608643	0.0332793	0.0534103	0.99537	-0.0726587	-1.16332	-0.951185	-9.04198	0.0319876	0.00011096	-0.0279089	-0.265381	0.187012	1.05225	0.790609	0.18844	-0.550802	0.189858	9.41382	0.868804	3.39248	0.00485238	0.00341441	0.00832208	-0.844727	-0.291504	-0.62085	-0.0132569	0.0709423	-0.979522	-0.187955	-0.581522	3.48307	-9.07951	0.0317118	0.00408549	-0.00211008	-0.408936	-0.480225	1.02173	
1	0.598114	0.0670421	0.798567	-0.00741729	-9.00288	0.562143	-2.60421	0.0157111	-0.0048157	-0.00902398	0.892578	-0.16626	0.688965	-0.0793218	0.0284645	-0.994989	-0.0538087	-1.35513	1.02085	-9.51857	0.00497717	0.0157547	-0.00281789	-0.0935059	-0.265381	1.12915	0.0918338	0.046049	-0.987207	0.121933	2.01398	-2.00015	-8.26929	0.0480425	-0.00689634	-0.0120594	-0.562744	0.110352	0.904541	0.169991	0.0667135	-0.851344	0.491798	3.55536	-7.87757	-4.34888	0.0431257	0.00733052	0.0181114	-0.655762	0.776367	0.332275	0.163109	0.101593	-0.933258	-0.303488	2.24754	5.75329	-7.58368	-0.0539116	-0.0344963	-0.0123995	-0.624023	-0.703613	0.627441	0.121822	-0.165248	-0.523415	-0.826976	4.08394	8.86565	4.18418	-0.0109193	-0.000108442	-0.013247	-0.858887	-0.809814	-0.2229	-0.150556	0.0839921	-0.984456	0.0335487	-2.51521	-0.725897	-8.74578	0.0272884	-0.00265884	-0.0106755	-0.0668945	-0.0117188	1.08374	0.782163	-0.172402	-0.527701	-0.282897	9.56602	0.167614	4.10816	0.0105847	0.0224343	-0.00843005	-0.882324	0.138672	-0.613281	0.0338357	0.0531228	0.995359	-0.0727534	-1.1492	-0.937284	-9.04604	-0.0047903	-0.0116057	-0.00346901	-0.265381	0.189209	1.05444	0.790699	0.188067	-0.550818	0.189804	9.49861	0.572676	3.36707	0.0122337	0.0128837	0.0184271	-0.849365	-0.287109	-0.616211	-0.0134812	0.0707942	-0.979798	-0.186551	-0.566969	3.46083	-9.07488	0.0703018	0.00202716	-0.00365289	-0.413818	-0.471436	1.02832	
2	0.597917	0.0670288	0.798709	-0.00810034	-8.90831	0.617744	-2.58172	0.0207991	0.00866991	-0.0160336	0.892578	-0.164062	0.686768	-0.0790605	0.0284299	-0.99503	-0.0534476	-1.44999	1.39179	-9.45011	0.0155962	0.0151214	-0.0128642	-0.0891113	-0.265381	1.13379	0.0923252	0.0455525	-0.987193	0.121866	1.61506	-1.94083	-8.56407	-0.0195187	0.0166141	0.0245776	-0.562744	0.106201	0.900146	0.170558	0.0660343	-0.851876	0.490771	3.47445	-8.2431	-4.50926	-0.0941357	0.0210104	2.65812e-05	-0.660156	0.77417	0.332275	0.162987	0.102045	-0.933784	-0.301778	2.30786	5.86625	-7.65113	0.0775358	0.022631	-0.0161577	-0.626221	-0.699219	0.625	0.121924	-0.165419	-0.524339	-0.826341	3.96887	9.00025	4.4292	0.0646317	0.00975116	-0.0122147	-0.858887	-0.809814	-0.227295	-0.150301	0.0838548	-0.984502	0.0336818	-2.53227	-0.623537	-8.6668	0.0303683	0.0319289	-0.00573537	-0.0715332	-0.00732422	1.07715	0.781948	-0.172511	-0.527908	-0.283038	9.56925	0.0846053	4.11043	0.0169465	-0.0029876	-0.0209914	-0.881836	0.13208	-0.608643	0.0338121	0.0532674	0.995363	-0.0726067	-1.1468	-0.943839	-9.01727	0.00113786	0.0056698	-0.0214724	-0.268066	0.193848	1.05444	0.790693	0.188281	-0.550677	0.190025	9.56431	0.780594	3.32802	0.00405914	0.0214421	-0.00590608	-0.849365	-0.287109	-0.618652	-0.0136301	0.0710877	-0.980122	-0.184723	-0.57365	3.4172	-9.10477	0.0755241	0.00509573	-0.0157743	-0.404785	-0.469238	1.02148	
3	0.597714	0.0668311	0.798871	-0.00871135	-9.00947	0.547072	-2.64111	0.0191064	0.00242453	-0.0256764	0.896729	-0.159668	0.691162	-0.0788958	0.0281735	-0.995048	-0.0534957	-1.33809	1.00585	-9.4534	-0.00265272	0.0235024	-0.0046599	-0.0976562	-0.269775	1.13159	0.092254	0.0451898	-0.987309	0.121112	2.04833	-2.31784	-8.34168	-0.0125056	-0.00683282	0.024273	-0.569336	0.108398	0.904541	0.170739	0.0661648	-0.851153	0.491944	3.5126	-8.06829	-4.49939	0.0557263	0.0145109	-0.0015503	-0.65625	0.782959	0.334229	0.162714	0.102661	-0.933993	-0.301069	2.63567	6.03186	-7.46066	0.0249661	0.00962734	-0.0377121	-0.628174	-0.703613	0.629639	0.121838	-0.16554	-0.52499	-0.825916	4.10951	9.31539	4.12858	-0.00660818	-0.00909854	-0.0228042	-0.854248	-0.814209	-0.227051	-0.150314	0.0831871	-0.984559	0.033592	-2.41545	-0.859653	-8.6777	0.0154711	0.00743939	0.0101663	-0.0712891	-0.0136719	1.0752	0.781802	-0.172601	-0.527791	-0.283604	9.55631	0.287022	4.07279	-0.0111938	0.0195509	-0.0364507	-0.88208	0.134277	-0.61084	0.0340432	0.0533601	0.995371	-0.0723231	-1.16278	-0.975768	-9.0162	-0.0151921	-0.0123907	-0.0144933	-0.265625	0.193848	1.04321	0.790823	0.188097	-0.550713	0.189559	9.47391	0.766047	3.38797	-0.0171323	0.0112661	-0.00612883	-0.851562	-0.291504	-0.618408	-0.0134531	0.0709791	-0.980072	-0.185041	-0.560712	3.41139	-9.09197	-0.0189894	0.0107973	-0.00280199	-0.409424	-0.467041	1.02832	
4	0.59774	0.0669466	0.79883	-0.00977998	-8.95632	0.488444	-2.5709	0.0413931	-0.00472699	-0.020061	0.896484	-0.157471	0.686768	-0.0788115	0.0276166	-0.995063	-0.0536185	-1.38045	1.17174	-9.48065	-0.0225632	0.0123284	0.00404073	-0.0981445	-0.260986	1.13354	0.0923406	0.0443428	-0.987241	0.121914	1.75042	-1.72326	-8.31917	0.00286655	0.0147398	0.0288241	-0.562744	0.110352	0.904541	0.171047	0.0654446	-0.851733	0.490928	3.44096	-8.05757	-4.48925	-0.0334867	0.032815	0.0142795	-0.657959	0.771973	0.327881	0.162515	0.102228	-0.93369	-0.302261	2.3362	5.58914	-7.63052	-0.0340751	-0.00876063	-0.00761502	-0.632812	-0.699219	0.629639	0.121699	-0.166106	-0.524694	-0.826011	4.05589	8.89154	4.09637	0.00736958	-0.00631803	-0.000640801	-0.858643	-0.812012	-0.225098	-0.150272	0.0823422	-0.984636	0.0336069	-2.50287	-0.644513	-8.78409	0.0320319	0.00651265	0.0157721	-0.0712891	-0.0136719	1.07959	0.78162	-0.17307	-0.527504	-0.284353	9.55336	0.15393	4.10928	-0.0310374	0.0139705	-0.0323896	-0.88208	0.136475	-0.613281	0.0341232	0.0535614	0.995437	-0.0712191	-1.17759	-0.930616	-9.04362	-0.0400419	0.00193201	-0.00242325	-0.263184	0.189209	1.05664	0.791007	0.18814	-0.550544	0.189241	9.45688	0.801005	3.50039	-0.022822	0.00854142	-0.0148849	-0.851807	-0.287109	-0.614014	-0.0131175	0.070987	-0.979865	-0.186152	-0.576339	3.41656	-9.10186	-0.0448826	0.0134552	-0.000800576	-0.415771	-0.473877	1.02148	
5	0.597488	0.0672996	0.798977	-0.0107112	-8.98231	0.516258	-2.60675	0.0363728	0.00919533	-0.00982907	0.894531	-0.159668	0.686768	-0.0786411	0.0270805	-0.99507	-0.0540143	-1.40059	1.0495	-9.42343	-0.0142274	0.0132342	0.00163086	-0.0998535	-0.271973	1.13403	0.0925959	0.0438841	-0.987363	0.120889	1.88889	-2.21185	-8.4836	-0.0132732	0.0110567	0.00668461	-0.564941	0.108154	0.906738	0.1714	0.0649816	-0.852038	0.490337	3.29473	-7.79367	-4.49136	-0.0955627	0.0229617	0.00815686	-0.660645	0.780762	0.327881	0.1625	0.102206	-0.933874	-0.301706	2.47787	5.97262	-7.50643	0.000913391	-0.0211814	-0.0101668	-0.626221	-0.701416	0.629639	0.121781	-0.166496	-0.524416	-0.826097	4.16844	9.019	4.14502	-0.0265544	0.00715042	-0.00461663	-0.865234	-0.814209	-0.227051	-0.150343	0.0819574	-0.984675	0.0330955	-2.52392	-0.778623	-8.73161	-0.021786	0.0157506	-0.00275733	-0.0690918	-0.0136719	1.0752	0.781556	-0.17284	-0.527421	-0.284824	9.59421	0.235406	4.08153	-0.00869321	0.0227684	-0.0345497	-0.879883	0.136475	-0.61792	0.0342214	0.0536962	0.995481	-0.0704446	-1.17668	-0.920975	-8.99959	-0.0400182	0.00878046	-0.00510085	-0.260742	0.184814	1.05225	0.79109	0.188315	-0.550418	0.189089	9.4625	0.841039	3.35997	0.00294226	0.00889696	-0.00938773	-0.847168	-0.289307	-0.618652	-0.0129912	0.070921	-0.979682	-0.187149	-0.573153	3.4701	-9.08904	-0.0788472	0.00953731	0.00108396	-0.411621	-0.469238	1.02368	
6	0.597444	0.0675032	0.798987	-0.0111605	-8.96777	0.550522	-2.62275	0.00945529	-0.00243407	-0.000290681	0.896484	-0.155273	0.690918	-0.0787131	0.0269322	-0.995042	-0.0545058	-1.34234	1.1527	-9.49026	-0.0263258	0.0127048	-0.0118228	-0.100098	-0.265381	1.13135	0.0926848	0.0436022	-0.987463	0.120101	1.75833	-2.12757	-8.51725	-0.0563199	-0.0206577	-0.00408004	-0.562744	0.108154	0.904541	0.171666	0.0647255	-0.852235	0.489935	3.55517	-8.33198	-4.6882	0.0615305	0.0166869	0.000802608	-0.6604	0.778564	0.332275	0.1628	0.10191	-0.933611	-0.30246	2.42546	5.74003	-7.60252	-0.034454	0.0285919	-0.00228101	-0.624268	-0.697021	0.629639	0.121977	-0.166174	-0.524093	-0.826338	4.16995	8.95729	4.20664	-0.0228115	0.0393502	-0.0126824	-0.861084	-0.807617	-0.227295	-0.15044	0.0818868	-0.98468	0.0326673	-2.4985	-0.674519	-8.71296	-0.0120966	-0.000354032	-0.00388478	-0.0688477	-0.0158691	1.07324	0.781622	-0.172512	-0.527345	-0.284982	9.56812	0.25411	4.0958	0.0185165	0.0283128	-0.0253272	-0.880127	0.143066	-0.613281	0.0341205	0.053889	0.995508	-0.0699645	-1.18244	-0.893758	-9.07722	0.0118249	0.00572937	-0.0213383	-0.265381	0.184814	1.05225	0.791162	0.18825	-0.550491	0.188637	9.53157	0.661694	3.40728	-0.00335518	0.00778476	-0.0103852	-0.849365	-0.289307	-0.614014	-0.0128666	0.0708916	-0.97956	-0.187805	-0.551677	3.45034	-9.06832	-0.00340764	-0.000296321	-0.00471791	-0.411377	-0.473633	1.02368	
7	0.597368	0.0675342	0.799043	-0.0110435	-8.99038	0.505435	-2.61066	-0.00539219	0.00619965	0.00703591	0.892334	-0.161865	0.688965	-0.0787176	0.0269062	-0.99504	-0.0545345	-1.39062	0.984113	-9.42273	-0.00912366	0.0109822	-0.0155318	-0.0979004	-0.265381	1.12671	0.0926848	0.0436022	-0.987463	0.120101	1.75833	-2.12757	-8.51725	-0.0563199	-0.0206577	-0.00408004	-0.562744	0.108154	0.904541	0.171442	0.065087	-0.852299	0.489854	3.46658	-8.14985	-4.4881	-0.0207743	-0.00865058	-0.00879268	-0.664795	0.776367	0.33667	0.16279	0.102262	-0.933478	-0.302757	2.45915	5.69026	-7.51622	0.0109577	0.0162435	-0.0359786	-0.625977	-0.703613	0.627441	0.122132	-0.166095	-0.524057	-0.826354	4.03132	8.96456	4.01729	0.00134939	0.0245106	-0.00793799	-0.856689	-0.812012	-0.225098	-0.150232	0.0819551	-0.984719	0.0322791	-2.55221	-0.675547	-8.69852	-0.00826498	0.00227947	-0.0174442	-0.0693359	-0.00952148	1.0752	0.781629	-0.17249	-0.527268	-0.285118	9.55158	0.231951	4.12248	-0.000967878	0.0210941	-0.0171002	-0.884033	0.13208	-0.615479	0.0341558	0.0538915	0.995453	-0.0707216	-1.16298	-0.900971	-9.03543	0.0478085	0.00144368	-0.0249465	-0.27002	0.189209	1.05444	0.791068	0.188593	-0.550466	0.188762	9.42214	0.797997	3.35577	0.0236609	0.010373	0.00401426	-0.853516	-0.298096	-0.620605	-0.0128666	0.0708916	-0.97956	-0.187805	-0.551677	3.45034	-9.06832	-0.00340764	-0.000296321	-0.00471791	-0.411377	-0.473633	1.02368	
8	0.59714	0.0677605	0.799198	-0.0107284	-8.96539	0.547141	-2.60745	-0.00678383	0.0112139	0.0158635	0.894287	-0.157471	0.691162	-0.0788842	0.0271074	-0.995019	-0.0545849	-1.3684	1.22558	-9.44623	-0.0151318	0.00438639	-0.0229556	-0.0976562	-0.269775	1.13623	0.0927629	0.0439302	-0.987403	0.120415	1.61932	-2.04095	-8.46252	0.0488882	0.0106329	-0.0219749	-0.564941	0.112549	0.906738	0.171462	0.0652007	-0.851636	0.490984	3.42069	-7.68978	-4.39284	0.0273019	0.0161822	0.00843372	-0.665039	0.782959	0.327637	0.162863	0.102349	-0.933459	-0.302745	2.40565	5.69614	-7.63241	0.000295232	0.0137749	-0.0183006	-0.623779	-0.703613	0.631836	0.122263	-0.165785	-0.524511	-0.826108	4.04956	9.01363	4.06176	0.0123379	0.0269448	-0.0293842	-0.858643	-0.814209	-0.229248	-0.150297	0.082042	-0.984709	0.0320725	-2.44751	-0.643589	-8.75723	0.0027849	0.00304602	-0.0185395	-0.0732422	-0.0158691	1.08179	0.78163	-0.172367	-0.527337	-0.28506	9.59253	0.199501	4.1253	0.0159042	0.0129243	-0.0189713	-0.879639	0.129883	-0.61084	0.0342132	0.0539737	0.995449	-0.070691	-1.16069	-0.933037	-8.99318	0.00584026	3.66055e-05	-0.0168303	-0.263184	0.189209	1.05444	0.790995	0.188735	-0.550545	0.188697	9.41893	0.930803	3.38046	0.00680972	-0.000502205	-0.00536469	-0.85376	-0.291504	-0.614014	-0.0129698	0.0710445	-0.979337	-0.188901	-0.579219	3.48268	-9.07936	-0.0367707	0.00195576	-0.00642512	-0.411133	-0.480469	1.02173	
9	0.596996	0.0678556	0.799304	-0.0101932	-8.96479	0.562888	-2.67053	-0.0155558	0.00395834	0.013521	0.889893	-0.157715	0.690918	-0.0790528	0.0271546	-0.995001	-0.0546474	-1.41266	1.30722	-9.48445	-0.0100344	-0.00424721	-0.0162718	-0.0979004	-0.267578	1.12915	0.0924828	0.044278	-0.987293	0.121405	1.77319	-1.84009	-8.39708	-0.0100587	0.0219566	-0.00500091	-0.562744	0.108154	0.90918	0.171551	0.0649296	-0.851928	0.490483	3.3585	-7.8689	-4.4865	-0.0477257	0.0147179	0.0095335	-0.655762	0.77417	0.332275	0.162959	0.102574	-0.933777	-0.301634	2.27035	5.8941	-7.72592	0.0487587	0.0116488	-0.00807622	-0.626221	-0.699219	0.629639	0.122446	-0.165849	-0.524334	-0.826181	3.98105	9.02732	4.2131	0.0114336	0.0184954	0.00194468	-0.856689	-0.807617	-0.229492	-0.150062	0.0823172	-0.984733	0.0317132	-2.4474	-0.615752	-8.73867	-0.00644967	0.0126351	-0.0160668	-0.0666504	-0.0180664	1.07104	0.7818	-0.171865	-0.527331	-0.284908	9.45867	0.140516	4.10668	0.0224231	0.0283052	-0.0169623	-0.879639	0.13208	-0.608643	0.0341637	0.0541919	0.995476	-0.0701719	-1.17329	-0.910626	-9.03598	-0.0323033	0.012174	-0.00586913	-0.263184	0.189209	1.05225	0.791063	0.18864	-0.550508	0.188614	9.48315	0.684984	3.33436	0.0128937	0.0196938	0.00366284	-0.849121	-0.295898	-0.618408	-0.0130891	0.0710692	-0.979321	-0.188968	-0.568241	3.49977	-9.07594	0.00598554	0.00165504	-0.00867713	-0.413574	-0.478271	1.01929	
10	0.596569	0.0678245	0.799628	-0.0100581	-8.93162	0.558008	-2.54982	0.00391894	0.0315732	-0.00401073	0.894287	-0.157471	0.691162	-0.0794979	0.0274492	-0.994915	-0.0554139	-1.51379	1.23413	-9.38833	-0.0375003	-0.00901932	-0.0368528	-0.0913086	-0.267578	1.13379	0.0921725	0.044219	-0.987626	0.118931	1.99935	-2.21778	-8.5111	-0.0744677	-0.0219221	-0.0100577	-0.569336	0.108398	0.90918	0.171672	0.0651877	-0.851903	0.49045	3.21745	-7.90908	-4.62868	0.0082876	0.00385607	-0.00817374	-0.6604	0.776367	0.330078	0.162764	0.102738	-0.933996	-0.301007	2.4807	5.86707	-7.49733	0.0274467	-0.00115443	-0.0104068	-0.628418	-0.697021	0.634277	0.122714	-0.165787	-0.524505	-0.826045	4.18531	9.14632	4.28458	-0.00669251	0.018251	-0.0107036	-0.865234	-0.809814	-0.227295	-0.151275	0.0827891	-0.98457	0.029736	-2.54877	-0.75626	-8.97208	-0.0584792	-0.0653444	-0.0226228	-0.0603027	-0.0180664	1.07764	0.781915	-0.171595	-0.527306	-0.284801	9.65222	0.260483	4.01714	0.0109844	0.0124583	-0.0190439	-0.879883	0.134277	-0.620361	0.0342057	0.0539847	0.995456	-0.0705945	-1.19721	-0.895887	-8.98841	0.0369909	0.00455565	-0.0308506	-0.270264	0.193604	1.06104	0.790917	0.189118	-0.550558	0.188601	9.44918	0.789331	3.41972	0.00464268	-0.000920869	-0.012723	-0.844971	-0.289307	-0.618652	-0.0132447	0.0711146	-0.979367	-0.188699	-0.550651	3.47778	-9.08194	0.00729877	-0.00278809	-0.00942208	-0.408936	-0.478027	1.02148	
11	0.595707	0.0676683	0.800276	-0.0105988	-8.94594	0.563808	-2.71023	0.0141257	0.0401306	-0.0248656	0.885254	-0.151123	0.695312	-0.0802019	0.0280243	-0.994763	-0.0568151	-1.17355	1.32347	-9.49437	-0.0757508	-0.00109757	-0.0467255	-0.0932617	-0.271973	1.12939	0.0913418	0.0439486	-0.987714	0.118936	1.61053	-1.67097	-8.45494	-0.0280565	-0.062357	0.0095519	-0.560547	0.105957	0.906982	0.171597	0.0647274	-0.851799	0.490717	3.57626	-8.15935	-4.62918	0.0845497	0.0145749	0.0235511	-0.657959	0.774414	0.325684	0.163266	0.102343	-0.933857	-0.3013	2.44539	6.14039	-7.43649	-0.081785	0.0337545	0.00401103	-0.624268	-0.694824	0.627441	0.122612	-0.166409	-0.523255	-0.826728	4.07407	8.99298	4.35266	-0.044567	-0.00160182	0.000760467	-0.861084	-0.807617	-0.233887	-0.153518	0.0819176	-0.984308	0.0293175	-2.4594	-0.408568	-8.44545	0.0280338	-0.061818	0.018617	-0.0622559	-0.0224609	1.08179	0.782265	-0.170401	-0.52737	-0.284438	9.42426	0.180021	4.14219	0.0593787	0.0321189	-0.0346735	-0.879639	0.129883	-0.61792	0.0335447	0.0536276	0.995513	-0.0703815	-1.16947	-0.932508	-9.02185	-0.00370802	0.0279144	-0.0280809	-0.265381	0.189209	1.05005	0.790828	0.18954	-0.550499	0.188721	9.54542	0.774069	3.415	0.0211032	0.00987588	-0.00761665	-0.844727	-0.295898	-0.611572	-0.013548	0.0712718	-0.97919	-0.189534	-0.58065	3.50274	-9.0956	-0.0465596	-0.00763575	-0.0149545	-0.40918	-0.473633	1.01465	
12	0.594227	0.0672204	0.801406	-0.0111473	-8.81888	0.442325	-2.64715	0.00905258	0.0837238	-0.0290566	0.889893	-0.155518	0.695312	-0.0798986	0.0283286	-0.994727	-0.0577197	-1.49394	0.921653	-9.298	-0.0408366	0.0175396	-0.0175803	-0.0932617	-0.276123	1.13428	0.0911197	0.0434778	-0.988162	0.115513	2.12955	-2.34385	-8.59071	-0.0985652	0.0131807	-0.0015621	-0.564941	0.104004	0.916016	0.171193	0.0652237	-0.851241	0.491759	3.65863	-7.48446	-4.30345	-0.0163756	-0.0170212	-0.0156459	-0.656006	0.778564	0.327881	0.163788	0.102112	-0.932719	-0.3046	2.20923	5.49046	-7.50902	-0.0954457	0.00778355	-0.046738	-0.624023	-0.701172	0.622803	0.12265	-0.166804	-0.523298	-0.826615	3.94615	8.97756	4.16299	0.0135383	-0.00101728	-0.00643768	-0.865234	-0.812012	-0.225098	-0.154146	0.0815077	-0.984242	0.0293674	-2.61196	-0.856703	-8.739	0.0515121	-0.0158645	0.000776667	-0.0581055	-0.0158691	1.08179	0.782079	-0.170506	-0.527246	-0.285116	9.58973	0.452942	4.0863	-0.0479476	0.0170607	-0.0403219	-0.875244	0.12793	-0.61792	0.0337835	0.0538969	0.995538	-0.0696937	-1.17198	-0.896638	-9.01787	-0.0125722	-0.00871269	-0.0107765	-0.265625	0.19165	1.04785	0.790949	0.189775	-0.55045	0.188121	9.42057	0.965856	3.31845	-0.0133181	0.009854	-0.0254797	-0.849365	-0.289307	-0.62085	-0.0134934	0.071281	-0.978918	-0.190934	-0.603476	3.52548	-9.05029	-0.0493487	0.0145613	0.0009295	-0.406494	-0.480225	1.02393	
13	0.591736	0.0671615	0.80324	-0.0119236	-8.91593	0.496742	-2.73622	0.0362136	0.126932	-0.026899	0.887695	-0.155518	0.70166	-0.0799609	0.0275559	-0.994805	-0.0566541	-1.44274	1.39113	-9.40913	0.0397736	0.0148249	0.0176159	-0.0957031	-0.269775	1.13159	0.092081	0.0437047	-0.987796	0.117767	1.79815	-2.08247	-8.45937	0.138534	0.0574393	-0.00751445	-0.569336	0.112793	0.904541	0.1717	0.0655124	-0.851437	0.491205	3.36979	-8.15722	-4.41486	0.0151787	0.0257715	-0.0173213	-0.655762	0.776367	0.332275	0.163418	0.103072	-0.933637	-0.301649	2.41363	5.65326	-7.66134	0.182391	0.0187178	-0.0179147	-0.624023	-0.701416	0.634277	0.122983	-0.166371	-0.524489	-0.825898	4.02108	9.00038	4.24166	0.0640874	0.0384199	-0.0192254	-0.856689	-0.809814	-0.225098	-0.153884	0.0810118	-0.984298	0.0302451	-2.55844	-0.600897	-8.75728	0.0465898	0.0191235	0.00674665	-0.0622559	-0.0202637	1.08179	0.782005	-0.170955	-0.526727	-0.286009	9.55685	0.0849971	4.06723	-0.0164567	0.0375263	-0.02966	-0.881836	0.13208	-0.61792	0.0340013	0.0544662	0.995575	-0.0686176	-1.17283	-0.899955	-9.03488	-0.0457534	0.000697234	0.00451153	-0.263184	0.187012	1.05005	0.791196	0.18952	-0.550412	0.18745	9.48377	0.76032	3.39813	-0.0272093	0.0158385	-0.0193215	-0.842529	-0.293701	-0.616211	-0.0130925	0.0710523	-0.978715	-0.192088	-0.579019	3.5406	-9.04439	-0.0441586	0.0142562	0.0062715	-0.408691	-0.482666	1.01489	
14	0.590266	0.0672188	0.804308	-0.0125161	-8.78144	0.525373	-2.75587	0.0481444	0.140025	-0.0318677	0.883057	-0.151367	0.703857	-0.0801215	0.0271092	-0.994798	-0.0567716	-1.39355	1.24666	-9.43306	-0.017419	-0.000379968	-0.00956581	-0.095459	-0.271973	1.13647	0.0924412	0.0435036	-0.987599	0.119204	1.61626	-1.96171	-8.42538	0.112374	0.0401236	0.0207423	-0.567139	0.110596	0.906738	0.171977	0.0654058	-0.851826	0.490447	3.35728	-8.04497	-4.64003	-0.0420539	0.00753286	-0.00596173	-0.6604	0.778564	0.330078	0.163446	0.102896	-0.933857	-0.301012	2.57888	6.30444	-7.61355	-0.08519	-0.00198362	0.001345	-0.628662	-0.692627	0.634277	0.123341	-0.166258	-0.524334	-0.825966	4.24928	9.08028	4.0649	-0.00382568	0.0131928	0.00492747	-0.86084	-0.812012	-0.225098	-0.153622	0.0807386	-0.984366	0.0300948	-2.585	-0.578217	-8.61543	-6.1196e-05	0.0218701	-0.0100718	-0.0603027	-0.0180664	1.07959	0.782294	-0.170125	-0.526558	-0.286026	9.5244	0.308988	4.1672	0.0324724	0.0321123	-0.0283153	-0.877441	0.129883	-0.615479	0.0341548	0.0549784	0.995627	-0.0673592	-1.16832	-0.832385	-9.06828	-0.0251632	0.00283481	-0.00798306	-0.267334	0.180176	1.05249	0.791192	0.19014	-0.550268	0.187262	9.51827	0.880838	3.33164	0.0308392	0.0116262	-0.0130567	-0.844727	-0.295898	-0.623047	-0.0129543	0.0708916	-0.978595	-0.192765	-0.547006	3.55117	-9.05572	-0.0529742	0.0112073	0.00896614	-0.410645	-0.489258	1.01489	
15	0.586039	0.0668691	0.807415	-0.0129536	-8.88476	0.482036	-2.91212	-0.0064315	0.11521	-0.0183814	0.874023	-0.151367	0.712402	-0.0800818	0.0273052	-0.994766	-0.0572959	-1.26543	1.12249	-9.43479	-0.0330286	0.0263439	-0.0369709	-0.0932617	-0.271973	1.13403	0.092325	0.0430798	-0.987829	0.117537	1.89138	-1.70751	-8.3551	-0.148173	-0.000870159	0.0106003	-0.569092	0.106201	0.904541	0.171753	0.0654699	-0.851825	0.490519	3.39876	-7.74149	-4.55057	0.0111138	-0.0080554	0.00508121	-0.655762	0.772217	0.325684	0.163482	0.102607	-0.933207	-0.3031	2.63474	5.51416	-7.47845	-0.0404641	0.0134241	-0.0256732	-0.626221	-0.701416	0.629639	0.123267	-0.166502	-0.52379	-0.826273	4.12694	9.00506	4.26224	-0.0528996	0.00759041	-0.0164306	-0.856689	-0.812012	-0.227295	-0.153424	0.0807224	-0.984406	0.0298335	-2.51485	-0.672892	-8.69728	0.00677865	0.00270773	-0.016742	-0.0666504	-0.0180664	1.07324	0.78233	-0.170138	-0.526369	-0.286267	9.5068	0.422362	4.11705	-0.0127484	0.0212215	-0.02324	-0.875488	0.134277	-0.622559	0.0340302	0.0549329	0.995609	-0.067724	-1.1917	-0.847364	-9.05284	0.037286	0.0164174	-0.0323566	-0.272461	0.186768	1.05444	0.791238	0.190451	-0.550191	0.186977	9.40553	0.892342	3.40006	-0.0158841	0.0144817	-0.0163888	-0.84668	-0.298096	-0.618408	-0.0125878	0.0707876	-0.978453	-0.193549	-0.574074	3.58136	-9.04629	-0.0313679	0.0145868	0.00411986	-0.406494	-0.484619	1.01489	
16	0.584699	0.0666	0.80841	-0.0128197	-8.81095	0.501009	-2.84197	-0.0147578	0.131457	-0.0181972	0.876221	-0.151367	0.7146	-0.0799522	0.0276188	-0.994756	-0.0574919	-1.45999	1.19249	-9.49172	-0.0248998	0.0231558	-0.0409525	-0.0888672	-0.27417	1.13184	0.0921869	0.0434601	-0.987991	0.116131	1.80528	-2.20612	-8.48104	0.013953	-0.00701667	-0.0367617	-0.562744	0.0996094	0.906982	0.171793	0.0655139	-0.852422	0.489461	3.47676	-8.13619	-4.40107	-0.0313334	0.000620289	-0.0210528	-0.662354	0.77417	0.330078	0.163531	0.102849	-0.933321	-0.302641	2.277	5.67241	-7.45157	0.0385246	0.0177339	-0.0234635	-0.621826	-0.699219	0.634277	0.123181	-0.166497	-0.523596	-0.826409	4.0803	8.51742	4.14226	-0.0178461	0.0132749	-0.0183021	-0.863037	-0.812012	-0.225098	-0.153097	0.0810432	-0.984441	0.0294782	-2.58819	-0.533151	-8.80811	-0.0102233	0.015994	-0.0283259	-0.0625	-0.0158691	1.07739	0.782375	-0.170198	-0.526219	-0.286384	9.50663	0.227969	4.16987	-0.00702431	0.0260036	-0.0188946	-0.877441	0.129883	-0.613281	0.0337998	0.0549294	0.995603	-0.0679315	-1.13484	-0.872873	-9.02433	0.0256276	0.0212661	-0.0262164	-0.263184	0.187012	1.05005	0.791354	0.190423	-0.550065	0.186885	9.47127	0.769161	3.44308	-0.00476145	0.0227039	-0.0059328	-0.849121	-0.295898	-0.618408	-0.0126492	0.0707411	-0.978383	-0.193913	-0.557845	3.56958	-9.0544	-0.0335037	0.00135855	-0.00458386	-0.413086	-0.487061	1.01953	
17	0.582237	0.0660264	0.810249	-0.0117118	-8.93557	0.437158	-2.99637	-0.045309	0.118921	0.00666866	0.867676	-0.156006	0.723145	-0.0799536	0.0283026	-0.994729	-0.0576289	-1.37192	1.21818	-9.37724	-0.00682994	0.0132008	-0.0473048	-0.0932617	-0.273926	1.13647	0.0926248	0.0439234	-0.987869	0.116642	1.79214	-2.11053	-8.56154	0.0182509	0.0210601	-0.0178063	-0.562744	0.105957	0.906982	0.171931	0.0657961	-0.852273	0.489635	3.53172	-8.23927	-4.5548	0.0230557	0.00649493	-0.022535	-0.664551	0.771973	0.330078	0.163903	0.103453	-0.933692	-0.301086	2.49221	5.78299	-7.68081	0.0681289	0.0457909	-0.0131874	-0.628662	-0.694824	0.631836	0.123613	-0.166101	-0.524559	-0.825814	4.17143	9.143	4.12584	0.0435465	0.031341	-0.00992075	-0.861084	-0.807617	-0.225098	-0.153065	0.0813039	-0.98442	0.0296465	-2.48274	-0.70791	-8.65283	0.0297181	0.0126159	-0.0373048	-0.0625	-0.0180664	1.07764	0.782702	-0.169342	-0.526092	-0.286231	9.55744	0.195614	4.13235	0.0330392	0.0272984	-0.0169778	-0.87793	0.136475	-0.620361	0.0338313	0.0549993	0.995602	-0.0678821	-1.15552	-0.886169	-9.0545	0.000177346	9.37522e-05	-0.0199436	-0.265137	0.180176	1.05249	0.791251	0.190603	-0.550144	0.186908	9.42639	0.832775	3.37515	0.00813733	-0.000251995	-0.00514191	-0.84668	-0.300293	-0.611572	-0.0128533	0.0707616	-0.978312	-0.194252	-0.571773	3.60112	-9.025	0.00324571	-0.00423058	-0.0106009	-0.410889	-0.487061	1.01489	
18	0.58074	0.0658995	0.811351	-0.0103783	-8.87517	0.470603	-2.99181	-0.0363196	0.0660439	0.0255709	0.867676	-0.156006	0.727539	-0.0797362	0.029079	-0.994704	-0.0579764	-1.43325	1.31973	-9.40872	-0.0247312	0.0275151	-0.0445343	-0.095459	-0.271973	1.13647	0.0922386	0.0443886	-0.987695	0.118236	1.89918	-1.88206	-8.51183	0.0631877	-0.0173271	-0.00953947	-0.567139	0.110596	0.904541	0.17154	0.0660738	-0.851913	0.49036	3.481	-7.92238	-4.59451	0.0557252	-0.0116069	0.00340192	-0.657959	0.77417	0.330078	0.163902	0.103196	-0.933604	-0.301446	2.48452	5.97548	-7.49946	-0.0624376	-0.0104968	-0.00577136	-0.619873	-0.697021	0.629639	0.123711	-0.165546	-0.524249	-0.826107	4.08652	9.00515	4.16824	-0.020631	0.0347092	-0.0233219	-0.858643	-0.814209	-0.229248	-0.153044	0.0817381	-0.984385	0.0296986	-2.51655	-0.526589	-8.79565	0.00458312	0.00796428	-0.0293882	-0.0625	-0.0158691	1.08179	0.782784	-0.169144	-0.526113	-0.286084	9.57655	0.385957	4.19556	-0.0130119	0.0195235	-0.0177361	-0.877441	0.129883	-0.61792	0.0339214	0.0551286	0.995589	-0.0679146	-1.16251	-0.854161	-9.05753	0.0200737	0.00068646	-0.021031	-0.262939	0.184814	1.05225	0.791107	0.191261	-0.54994	0.187443	9.42403	0.964653	3.36609	0.0383745	0.0102721	0.00362094	-0.846924	-0.293701	-0.616211	-0.0129623	0.0708159	-0.978402	-0.19377	-0.586685	3.59277	-9.04154	0.0276083	0.00604943	-0.00869882	-0.408691	-0.484863	1.01489	
19	0.579991	0.0661617	0.811876	-0.00950159	-8.80667	0.489148	-2.98584	-0.0164875	0.0290148	0.0238164	0.86792	-0.1604	0.725342	-0.0798367	0.0294342	-0.994674	-0.058174	-1.42306	1.2275	-9.49926	-0.013724	0.0125239	-0.0298294	-0.0930176	-0.27832	1.13184	0.0921857	0.0447232	-0.987799	0.117277	1.78748	-1.85004	-8.42294	-0.0551871	0.000216343	-0.0201906	-0.569092	0.101807	0.90918	0.171378	0.066682	-0.851695	0.490712	3.44464	-7.82352	-4.53828	0.0219229	-0.01213	-0.0155264	-0.664795	0.776367	0.330078	0.163987	0.10389	-0.933833	-0.300452	2.31963	5.83609	-7.67795	0.043479	0.0173902	-0.0241326	-0.626221	-0.699219	0.631836	0.124253	-0.165275	-0.524091	-0.826181	4.08534	9.14102	4.33368	-0.00482216	0.0420602	0.00227432	-0.859131	-0.805664	-0.229492	-0.153202	0.0821605	-0.984303	0.0304487	-2.56128	-0.660743	-8.66955	0.0374991	0.000147524	-0.028506	-0.0625	-0.0158691	1.07104	0.782918	-0.169061	-0.525939	-0.286085	9.50022	0.147709	4.20152	0.0152746	0.0256588	-0.0170626	-0.879639	0.12793	-0.622559	0.0338685	0.0553262	0.995582	-0.0678861	-1.13777	-0.875881	-9.03748	-0.0016013	0.00330328	-0.0135973	-0.267334	0.180176	1.05469	0.791034	0.191348	-0.550059	0.187316	9.51416	0.78786	3.36696	0.00311512	0.00310955	0.0038553	-0.840332	-0.293701	-0.620605	-0.013084	0.0708309	-0.978367	-0.193933	-0.586985	3.59202	-9.05641	-0.0144132	-0.0021756	-0.00674494	-0.410889	-0.487061	1.0127	
20	0.579644	0.0664821	0.812102	-0.00911546	-8.79478	0.522818	-3.0316	-0.00246717	0.00796981	0.0190063	0.867676	-0.158203	0.720947	-0.0800297	0.0295595	-0.994617	-0.0588146	-1.39904	1.2923	-9.30896	-0.0323307	0.000303954	-0.0163386	-0.0910645	-0.276367	1.13184	0.092021	0.0452577	-0.98777	0.117447	1.95335	-2.05264	-8.3034	0.0139622	-0.00556544	-0.0134306	-0.564941	0.108154	0.911377	0.171064	0.0667642	-0.851493	0.491161	3.53793	-7.86373	-4.37853	0.0212688	-0.00646951	0.0100083	-0.664795	0.776367	0.33667	0.164138	0.104026	-0.933439	-0.301545	2.61334	5.91684	-7.50211	-0.110271	0.0267309	-0.0272129	-0.626465	-0.697021	0.631836	0.124515	-0.16501	-0.523572	-0.826523	4.08824	9.01532	4.3581	-0.0143533	0.034652	-0.0176427	-0.858887	-0.807617	-0.227295	-0.152952	0.0823423	-0.984345	0.0298378	-2.53545	-0.599737	-8.67907	-0.00713384	0.0147703	-0.00964014	-0.0625	-0.0180664	1.07324	0.783076	-0.16832	-0.526011	-0.285957	9.54014	0.374127	4.09121	0.0359082	0.0219364	-0.0261771	-0.881836	0.129883	-0.61792	0.0338638	0.0555543	0.995575	-0.0678086	-1.15089	-0.857443	-9.06312	0.00853786	0.00740755	-0.0131938	-0.267334	0.180176	1.05688	0.790884	0.191749	-0.550178	0.187189	9.45775	0.763588	3.33811	-0.00505987	0.00489059	-0.0154524	-0.844482	-0.30249	-0.620605	-0.0132612	0.0708768	-0.978287	-0.194308	-0.585964	3.58195	-9.02924	-0.0237427	0.00116534	-0.00734958	-0.40625	-0.489258	1.01489	
21	0.579764	0.0667348	0.811999	-0.00880089	-8.78191	0.51742	-3.00754	-0.0045922	-0.00882866	0.013377	0.865723	-0.162598	0.727539	-0.0797856	0.0296496	-0.994604	-0.0593081	-1.37878	1.28813	-9.45247	-0.0254337	0.0326887	-0.024872	-0.0930176	-0.280518	1.13208	0.0920498	0.0449953	-0.987968	0.115849	1.72015	-1.90234	-8.49726	-0.100325	0.0149756	0.010312	-0.566895	0.0952148	0.904785	0.17106	0.0669855	-0.852218	0.489874	3.53447	-8.02017	-4.39603	-0.0675385	-0.00384244	-0.0171878	-0.6604	0.776367	0.332275	0.16444	0.104243	-0.933299	-0.301739	2.40124	5.68983	-7.53343	0.0690972	0.0343091	-0.021319	-0.626465	-0.696777	0.622803	0.124645	-0.165054	-0.523311	-0.82666	4.03124	9.04012	4.17978	-0.0101982	0.0132356	-0.00541898	-0.858887	-0.809814	-0.229492	-0.152871	0.0823208	-0.984363	0.0297183	-2.59238	-0.606334	-8.76657	0.00590249	0.0076234	-0.0115659	-0.0644531	-0.0180664	1.07959	0.783111	-0.16823	-0.525734	-0.286425	9.54618	0.268974	4.13242	-0.0143436	0.0253369	-0.0378871	-0.877441	0.129883	-0.620117	0.0338887	0.0556806	0.995564	-0.0678528	-1.17044	-0.886866	-9.02343	0.00489449	0.00819155	-0.0206431	-0.265381	0.18457	1.05444	0.790744	0.192432	-0.550115	0.187265	9.43023	0.997185	3.48418	0.0215232	-0.00605758	-0.0147292	-0.84668	-0.298096	-0.618408	-0.0131268	0.0709655	-0.978264	-0.1944	-0.58629	3.59232	-9.04072	-0.00295613	0.00914884	-0.00520767	-0.415283	-0.489258	1.01489	
22	0.579574	0.0669231	0.812124	-0.00835033	-8.8117	0.550909	-3.03484	-0.010108	0.0144779	0.0148043	0.863525	-0.162598	0.725342	-0.080008	0.0296104	-0.994551	-0.0599166	-1.45147	1.24884	-9.34589	-0.0326313	-0.0151191	-0.00949996	-0.0908203	-0.27832	1.13184	0.0923753	0.0449496	-0.988004	0.1153	1.91926	-2.00237	-8.45827	-0.0439258	0.0272909	-0.00516817	-0.571289	0.0996094	0.904785	0.171137	0.0666601	-0.852383	0.489603	3.37083	-7.91194	-4.6054	0.0110945	0.0146453	0.0104711	-0.662354	0.77417	0.334473	0.164628	0.103929	-0.933032	-0.302569	2.51256	5.78411	-7.57655	-0.053712	0.0084768	-0.00683104	-0.624023	-0.699219	0.634277	0.124578	-0.165126	-0.522942	-0.826889	4.1218	8.84395	4.05576	-0.008027	0.00762074	-0.0101709	-0.861084	-0.807617	-0.231689	-0.152475	0.0821981	-0.984436	0.0296866	-2.52602	-0.62848	-8.6877	0.00813627	0.0209624	-0.00248213	-0.0646973	-0.0158691	1.08398	0.783083	-0.167979	-0.52563	-0.286838	9.48717	0.209025	4.21919	-0.00349253	0.0293542	-0.0348882	-0.877197	0.123535	-0.622314	0.0339475	0.0560487	0.995597	-0.0670277	-1.14748	-0.855283	-9.0303	-0.031519	-0.000562579	-0.00572815	-0.267578	0.18457	1.05444	0.790909	0.192556	-0.550028	0.18669	9.50081	0.839787	3.30157	-0.00290476	0.0164789	-0.0194002	-0.84668	-0.300293	-0.611572	-0.0130715	0.0709367	-0.978179	-0.194839	-0.575202	3.58986	-9.01971	-0.0333424	0.00776721	-0.00295353	-0.408691	-0.487061	1.02173	
23	0.579484	0.0669644	0.812187	-0.00815478	-8.83036	0.541328	-3.06322	-0.00976968	0.00780034	0.010819	0.856934	-0.1604	0.723145	-0.0799546	0.0295072	-0.994551	-0.0600369	-1.38347	1.32727	-9.49199	-0.0243838	0.00794743	-0.00859769	-0.0952148	-0.280762	1.1272	0.0922632	0.0450955	-0.987812	0.116965	1.59724	-1.85538	-8.56339	0.0550092	-0.00170208	0.00485093	-0.566895	0.101807	0.911621	0.171174	0.067012	-0.852445	0.489435	3.4958	-8.00902	-4.55579	-0.00341286	-0.00366748	-0.0134192	-0.657959	0.771973	0.334473	0.16482	0.103875	-0.93338	-0.301406	2.38281	5.9641	-7.61434	0.0427859	0.00910264	0.00976386	-0.624023	-0.699219	0.631836	0.124529	-0.165083	-0.522815	-0.826985	4.0899	9.19773	4.25402	-0.0193873	0.0171046	-0.0151917	-0.863281	-0.809814	-0.229492	-0.152345	0.0818513	-0.984487	0.0296185	-2.53459	-0.521598	-8.70019	0.00888782	0.0105257	0.00695162	-0.0646973	-0.0136719	1.07739	0.782978	-0.167869	-0.525531	-0.287371	9.55657	0.376405	4.12844	0.00184694	0.0210558	-0.0306913	-0.875244	0.12793	-0.61792	0.0339353	0.0561864	0.995632	-0.0663929	-1.15982	-0.832853	-9.04474	-0.0419595	0.0090527	-0.0120822	-0.267578	0.18457	1.05908	0.791108	0.192259	-0.5501	0.185943	9.47467	0.825729	3.33386	-0.0326213	0.0105936	-0.0132301	-0.842041	-0.30249	-0.615967	-0.0128226	0.0708162	-0.977744	-0.197073	-0.581729	3.63716	-9.03872	-0.0951599	0.00989024	-0.000184692	-0.4104	-0.49585	1.01733	
24	0.579422	0.0670575	0.812228	-0.00773289	-8.77951	0.524333	-2.99238	-0.0112098	0.00292175	0.0124418	0.861084	-0.158203	0.725342	-0.0798991	0.0294855	-0.994529	-0.0604876	-1.45007	1.26203	-9.53558	-0.042696	0.0147521	-0.0133761	-0.0949707	-0.282715	1.13208	0.0922635	0.0449942	-0.988012	0.115309	2.06983	-2.10317	-8.49012	-0.037371	0.000392308	-0.00921078	-0.564697	0.0974121	0.911621	0.171174	0.0667707	-0.852726	0.488978	3.37255	-7.86804	-4.56124	-0.0403324	0.0110244	0.00339076	-0.662598	0.778564	0.33667	0.16473	0.10383	-0.933436	-0.301299	2.35022	6.07321	-7.58821	0.00803468	-0.0014575	-0.0101257	-0.62207	-0.694824	0.629639	0.124492	-0.165184	-0.522279	-0.827309	4.08845	9.07722	4.24749	-0.0492571	0.0139787	-0.00892995	-0.861084	-0.805664	-0.227295	-0.152128	0.0820369	-0.984532	0.0287098	-2.50898	-0.489098	-8.81661	-0.0514043	0.0207131	-0.0252087	-0.0603027	-0.0180664	1.07764	0.783054	-0.167916	-0.525139	-0.287854	9.56012	0.35797	4.26894	-0.00109117	0.0326361	-0.02617	-0.881836	0.13208	-0.620117	0.0339923	0.0559551	0.995656	-0.0661953	-1.16143	-0.840553	-9.08737	-0.00421321	-0.00014551	-0.0212098	-0.267334	0.180176	1.05005	0.791174	0.192072	-0.550095	0.18587	9.49079	0.784969	3.36381	-0.0148728	0.0153199	0.00507468	-0.844482	-0.300293	-0.61377	-0.0123469	0.070828	-0.977064	-0.200444	-0.56534	3.67466	-9.02805	-0.167731	0.0193229	-0.00204844	-0.405762	-0.502441	1.0105	
25	0.579221	0.0673441	0.812346	-0.00788082	-8.84127	0.544608	-3.05125	0.0187849	0.00454859	0.00656383	0.861084	-0.158203	0.725342	-0.0803895	0.0295721	-0.994433	-0.0613712	-1.3269	1.39103	-9.3598	-0.042898	-0.0204892	-0.0139965	-0.088623	-0.280518	1.12964	0.0923339	0.0448569	-0.987962	0.115726	1.61905	-1.80207	-8.39626	-0.0031691	0.00134623	0.00978841	-0.564697	0.0952148	0.909424	0.170993	0.0668598	-0.853183	0.488231	3.62146	-8.00436	-4.60657	-0.0314123	-0.00848358	0.00668179	-0.664795	0.77417	0.33667	0.164973	0.103655	-0.933305	-0.301631	2.6106	5.95448	-7.35558	0.00902845	0.0233322	-0.0212167	-0.626465	-0.697021	0.629639	0.124779	-0.16541	-0.522104	-0.827332	4.1982	8.92294	4.33013	0.0134077	0.0108281	0.00437087	-0.861328	-0.803467	-0.227539	-0.151813	0.0821682	-0.984577	0.0284464	-2.37333	-0.61872	-8.60651	0.0246427	0.0182527	-0.0182993	-0.0664062	-0.0224609	1.07129	0.78315	-0.167003	-0.525579	-0.28732	9.56449	0.475564	4.17341	0.0400647	0.00952346	-0.0225807	-0.877441	0.125732	-0.620117	0.0339923	0.0559551	0.995656	-0.0661953	-1.16143	-0.840553	-9.08737	-0.00421321	-0.00014551	-0.0212098	-0.267334	0.180176	1.05005	0.79084	0.192492	-0.5503	0.186248	9.29288	1.19067	3.32162	0.0170385	-0.0157725	-0.00443082	-0.84668	-0.300293	-0.61377	-0.0119043	0.0709838	-0.976503	-0.203131	-0.555189	3.75497	-8.93579	-0.0406678	0.0124827	-0.0105209	-0.414307	-0.513428	1.00854	
26	0.579705	0.0678449	0.811956	-0.00820333	-8.84439	0.552058	-3.09472	0.0221456	-0.0391194	0.00941989	0.859131	-0.162598	0.725342	-0.0804752	0.0298103	-0.994373	-0.0621048	-1.2533	1.26339	-9.26865	-0.0335156	0.00218885	-0.0164113	-0.0883789	-0.284912	1.12744	0.0920187	0.0447844	-0.988148	0.114411	2.02586	-1.83166	-8.64634	-0.0529494	0.000598383	0.00743009	-0.5625	0.0952148	0.904785	0.170908	0.0665142	-0.853479	0.487791	3.55372	-7.94369	-4.62504	-0.0434655	0.00660591	0.0229765	-0.662354	0.771973	0.334473	0.165062	0.10367	-0.933193	-0.301924	2.48567	5.839	-7.32309	-0.0265621	0.0121261	-0.0173368	-0.626221	-0.699219	0.627441	0.124692	-0.166076	-0.521461	-0.827617	4.08338	8.85739	4.19448	-0.0589855	-0.0152528	-0.00463506	-0.863281	-0.805664	-0.233887	-0.151782	0.0822246	-0.98458	0.0283315	-2.53645	-0.485851	-8.49828	0.0101516	0.0113087	-0.0180928	-0.0598145	-0.0246582	1.07983	0.783128	-0.167324	-0.525341	-0.287629	9.43852	0.244797	4.30242	-0.0343826	0.0259223	-0.0200199	-0.873047	0.125732	-0.622559	0.0333518	0.0550535	0.995573	-0.0684891	-1.15918	-0.856896	-9.03999	0.0480273	0.0100236	-0.026353	-0.262939	0.184814	1.05225	0.790838	0.19261	-0.550257	0.186262	9.47712	0.91307	3.38742	0.00952758	0.0101867	0.0056975	-0.844238	-0.30249	-0.61377	-0.0122569	0.0711086	-0.976604	-0.202577	-0.561834	3.74498	-8.97299	0.0248119	-0.00785385	-0.0104965	-0.405518	-0.504639	1.00146	
27	0.58087	0.0683239	0.81108	-0.00851088	-8.80214	0.531559	-2.99934	0.0155898	-0.0655976	0.00998063	0.865479	-0.158203	0.723145	-0.080337	0.0298546	-0.99438	-0.0621563	-1.42175	1.29305	-9.32806	-0.0114444	0.0232724	-0.0206851	-0.0949707	-0.282715	1.13208	0.0919782	0.0448025	-0.988313	0.113004	2.03153	-2.03851	-8.34606	-0.0640497	-0.000582087	-0.0158065	-0.5625	0.0930176	0.909424	0.170772	0.0668131	-0.853221	0.488248	3.59247	-7.82344	-4.45921	0.0389978	-0.0043655	-0.00817703	-0.662354	0.771973	0.341064	0.165305	0.103425	-0.933068	-0.30226	2.34148	5.54009	-7.72251	0.0353621	0.0190773	0.00900341	-0.628418	-0.699219	0.627441	0.124604	-0.166107	-0.521978	-0.827298	4.10231	9.04173	4.15104	0.0343247	0.0147907	-0.0176045	-0.863281	-0.809814	-0.231445	-0.151624	0.0819202	-0.984623	0.0285639	-2.49085	-0.543314	-8.80442	0.0575041	0.0217915	-0.00105919	-0.0666504	-0.0202637	1.07983	0.782994	-0.167249	-0.525514	-0.28772	9.47584	0.328025	4.20708	0.0294169	0.00382894	-0.0234482	-0.875244	0.125732	-0.620117	0.0338191	0.055343	0.995522	-0.0687711	-1.15628	-0.882084	-9.06453	0.0197294	-0.0163699	-0.00967703	-0.262939	0.182373	1.05249	0.790664	0.192793	-0.550441	0.186267	9.51477	0.789397	3.35332	0.00399426	0.00298097	0.00175351	-0.849121	-0.298096	-0.61377	-0.0125281	0.071146	-0.976658	-0.20229	-0.573472	3.73508	-8.95515	0.0273653	-0.0119754	-0.0127523	-0.407959	-0.504639	1.0061	
28	0.581757	0.068859	0.810391	-0.00919078	-8.78231	0.58233	-2.93567	0.0349289	-0.0402539	0.0020475	0.86792	-0.160156	0.720947	-0.0799644	0.0299325	-0.99443	-0.0617893	-1.52275	1.33644	-9.2788	0.00839165	0.0175423	-0.0181178	-0.088623	-0.280518	1.13672	0.0924728	0.0448511	-0.987992	0.115363	1.57348	-1.78774	-8.66629	0.116128	0.0364205	0.00755388	-0.564697	0.0996094	0.904785	0.170822	0.06673	-0.853383	0.487959	3.47864	-7.86285	-4.43797	-0.0248488	0.00909628	0.00146747	-0.657959	0.771973	0.33667	0.16517	0.102888	-0.933548	-0.301033	2.48928	6.17976	-7.56798	0.0093946	-0.00719132	0.0169681	-0.624268	-0.696777	0.625	0.124413	-0.166228	-0.521626	-0.827524	4.09696	9.05815	4.27514	-0.0211196	0.00598353	-0.0145937	-0.861572	-0.799072	-0.229736	-0.15093	0.0816651	-0.984753	0.0285135	-2.48207	-0.56191	-8.71522	0.00338765	0.0449728	0.000195549	-0.0708008	-0.0224609	1.07764	0.782624	-0.167417	-0.525799	-0.288108	9.57541	0.34188	4.09683	-0.0111522	0.00926671	-0.0271889	-0.875	0.123535	-0.622314	0.0342243	0.0558326	0.995485	-0.0687061	-1.16537	-0.90406	-8.99993	-0.00267391	-0.00463427	-0.00314999	-0.267578	0.182373	1.05005	0.790564	0.192792	-0.550638	0.18611	9.39492	1.12106	3.36089	-0.0146872	-0.00128436	-0.00519163	-0.846924	-0.295898	-0.616211	-0.0126403	0.0711493	-0.976732	-0.201921	-0.578195	3.73788	-8.98513	-0.00543126	-0.00158683	-0.00109277	-0.405762	-0.502441	1.00146	
29	0.582677	0.0690357	0.80971	-0.00953389	-8.81599	0.618546	-2.94151	0.00252285	-0.0560435	-0.00481226	0.865479	-0.158203	0.725342	-0.0799457	0.030183	-0.994396	-0.06225	-1.42433	1.41591	-9.59817	-0.0358399	0.017077	-0.0341631	-0.097168	-0.284912	1.12988	0.0924784	0.0445092	-0.988125	0.114346	1.72955	-2.11438	-8.35574	-0.0543753	-0.0112486	0.0113057	-0.5625	0.0930176	0.911865	0.171473	0.0666506	-0.85296	0.488482	3.2334	-7.91271	-4.5123	0.0602073	0.0124665	-0.0059975	-0.662354	0.77417	0.33667	0.164955	0.102334	-0.933206	-0.302397	2.54458	6.01916	-7.38075	-0.0793246	-0.0134286	-0.0171118	-0.626221	-0.699219	0.629639	0.124365	-0.166629	-0.520462	-0.828183	4.186	9.06154	4.42693	-0.071882	0.00925498	-0.00573758	-0.865479	-0.805664	-0.240234	-0.151559	0.0805005	-0.984732	0.0292018	-2.65099	-0.43294	-8.89306	0.0627011	-0.028262	0.0204187	-0.0644531	-0.0180664	1.07764	0.782306	-0.167678	-0.526046	-0.288369	9.42643	0.199266	4.21177	0.00752472	-0.00553623	-0.0275304	-0.879639	0.125732	-0.622559	0.0343437	0.0562634	0.995521	-0.0677659	-1.17008	-0.876109	-9.0539	-0.0254247	0.00166767	-0.0109157	-0.265381	0.184814	1.05225	0.79071	0.192256	-0.550788	0.185601	9.61041	0.593551	3.2603	-0.00388642	0.0212466	0.00597964	-0.842285	-0.298096	-0.611572	-0.0128211	0.0710328	-0.976733	-0.201946	-0.574342	3.717	-8.97524	0.00178102	-0.00928473	0.000660229	-0.412354	-0.504639	1.0083	
30	0.583222	0.0688336	0.809335	-0.00952163	-8.80937	0.568871	-2.90903	-0.0127712	-0.0556085	-0.0104006	0.86792	-0.1604	0.723145	-0.0800403	0.0304927	-0.994365	-0.0624706	-1.52683	1.43389	-9.4544	-0.0262097	0.0047358	-0.041592	-0.0905762	-0.287109	1.12988	0.0922874	0.0443731	-0.988115	0.114642	1.63965	-1.98849	-8.48497	0.0246412	-0.00857548	0.0128786	-0.5625	0.0952148	0.907227	0.171716	0.0660081	-0.85309	0.488256	3.53549	-7.90202	-4.54521	0.00269989	0.0253454	0.0207685	-0.662354	0.77417	0.341064	0.165323	0.102416	-0.932798	-0.303426	2.43669	5.6118	-7.57734	-0.0197144	0.0326912	-0.0177138	-0.626221	-0.701416	0.629639	0.124676	-0.166232	-0.520656	-0.828094	4.07782	9.05658	4.58634	0.0400179	0.0416724	-0.0167781	-0.863525	-0.803467	-0.238281	-0.152022	0.0802677	-0.984693	0.0287549	-2.55968	-0.724284	-8.69835	0.0226725	-0.00131115	-0.0054847	-0.0646973	-0.0158691	1.07544	0.782049	-0.16755	-0.526407	-0.288482	9.66336	0.469868	3.99264	0.0253912	0.011329	-0.0241958	-0.875	0.119141	-0.613037	0.0345095	0.0563784	0.995524	-0.0675475	-1.15678	-0.87271	-9.02464	0.00556279	0.00300988	-0.018344	-0.265137	0.180176	1.05469	0.79066	0.192393	-0.55079	0.185667	9.53497	0.913545	3.37556	0.0134443	0.00721057	0.00102607	-0.846924	-0.293701	-0.62085	-0.0130184	0.0710947	-0.976622	-0.202447	-0.59336	3.74375	-8.97875	-0.0187365	-0.00538537	-0.00701717	-0.407715	-0.506836	1.00391	
31	0.583634	0.0686976	0.809046	-0.0098259	-8.83416	0.437059	-2.93596	0.024768	-0.0154889	-0.00081463	0.869873	-0.155762	0.716797	-0.0802628	0.0305333	-0.994328	-0.0627531	-1.52938	1.22172	-9.35934	0.00716396	0.0101714	-0.00339186	-0.0908203	-0.280518	1.13208	0.0924583	0.044369	-0.98813	0.114379	1.90827	-1.87565	-8.58483	-0.04376	0.016936	-0.031354	-0.569092	0.0974121	0.911621	0.171751	0.0659483	-0.85326	0.487955	3.6487	-8.06559	-4.33392	-0.03705	0.00753912	-0.00647719	-0.664551	0.77417	0.334473	0.165507	0.103174	-0.932763	-0.303177	2.28116	5.85384	-7.41876	0.0166245	0.0105022	-0.0413165	-0.628418	-0.701416	0.629639	0.124829	-0.166325	-0.520798	-0.827963	3.98318	8.87966	4.11342	-0.00133548	0.00452508	-0.00100382	-0.863525	-0.803467	-0.238281	-0.152061	0.0801368	-0.984683	0.0292382	-2.58802	-0.591366	-8.54554	0.0239446	0.0103487	-0.0167527	-0.0666504	-0.0180664	1.07324	0.782077	-0.168015	-0.526035	-0.288813	9.42391	0.367771	4.23994	-0.0429395	0.0246478	-0.0107287	-0.879395	0.123535	-0.620117	0.0342376	0.0565698	0.995526	-0.0674913	-1.14955	-0.857115	-9.05489	0.0147139	0.0127821	-0.0236257	-0.27002	0.18457	1.05444	0.791157	0.191439	-0.550641	0.184976	9.53927	0.653404	3.36405	-0.0059878	0.0290649	0.0160064	-0.844482	-0.298096	-0.611572	-0.013085	0.0709465	-0.976649	-0.202366	-0.592442	3.72341	-8.98568	0.0158573	0.00455647	0.004403	-0.410156	-0.504639	1.01074	
32	0.583736	0.0690726	0.808936	-0.0102202	-8.80514	0.532368	-2.91003	0.0428158	-0.0156259	0.00643826	0.869873	-0.155762	0.718994	-0.080412	0.0301671	-0.994338	-0.0625754	-1.46953	1.43739	-9.44133	0.00959848	-0.00128266	0.00974031	-0.0927734	-0.284912	1.12988	0.0927336	0.0443944	-0.988083	0.114547	1.86155	-1.9725	-8.4511	0.0138667	0.0259935	-0.00531422	-0.5625	0.088623	0.909668	0.171776	0.0657893	-0.853349	0.487811	3.48104	-7.91711	-4.52354	-0.0132814	0.0110826	0.00883677	-0.662354	0.771973	0.338867	0.16538	0.103032	-0.932771	-0.303269	2.44223	5.5892	-7.81948	-0.00889118	-0.00741632	-0.00738722	-0.624268	-0.697021	0.631836	0.125152	-0.166275	-0.520974	-0.827814	4.1305	8.71011	4.14401	0.0246458	0.025443	0.00403035	-0.861328	-0.80127	-0.236084	-0.151757	0.0802732	-0.984726	0.0289991	-2.53123	-0.437519	-8.78454	-0.00257044	0.0323076	-0.023084	-0.0666504	-0.0180664	1.07104	0.782153	-0.168306	-0.525764	-0.288933	9.56457	0.161349	4.11918	-0.0241959	0.0300482	-0.00645476	-0.877197	0.121338	-0.613037	0.0343476	0.0566755	0.995519	-0.0674581	-1.1669	-0.885721	-9.04896	0.0057412	-0.00385611	-0.0153613	-0.262939	0.184814	1.05225	0.791056	0.191797	-0.550523	0.185389	9.5207	0.784886	3.39655	0.0449367	0.0149223	0.0120737	-0.846924	-0.295898	-0.618408	-0.0126994	0.0708217	-0.97671	-0.202138	-0.583081	3.74506	-8.96165	0.0238232	0.0207765	-0.00193942	-0.409912	-0.506836	1.0083	
33	0.583805	0.0696595	0.808828	-0.0108105	-8.81873	0.599634	-2.9256	0.0267788	-0.00503057	0.00478302	0.870117	-0.160156	0.7146	-0.080481	0.0297205	-0.994345	-0.062588	-1.38203	1.31904	-9.35411	-0.00412731	0.00629814	-0.00878702	-0.0905762	-0.287109	1.12744	0.0930392	0.0439001	-0.988113	0.114231	1.80642	-2.15787	-8.37024	-0.0280705	0.0314142	0.0322505	-0.5625	0.0952148	0.909424	0.171699	0.0659079	-0.853419	0.4877	3.37622	-7.93469	-4.56534	0.00287717	0.00518306	-0.00976755	-0.660156	0.77417	0.33667	0.165573	0.103294	-0.933354	-0.301273	2.65483	6.11643	-7.40713	0.0976201	0.025494	-0.00839102	-0.632812	-0.697021	0.627441	0.125408	-0.16708	-0.520654	-0.827814	4.2959	9.2433	4.36135	-0.0650668	-0.00526452	0.000255166	-0.863281	-0.807617	-0.233887	-0.151595	0.0805647	-0.984737	0.0286431	-2.55303	-0.571057	-8.68611	0.00828967	0.0145523	-0.0212629	-0.0625	-0.0158691	1.07959	0.782557	-0.167784	-0.525606	-0.28843	9.49201	0.416684	4.10651	0.0154375	0.0385366	-0.00658701	-0.879395	0.123535	-0.617676	0.0344711	0.0568791	0.995513	-0.0673107	-1.15882	-0.872884	-9.04335	-0.00307352	-0.0032723	-0.00770755	-0.258301	0.182617	1.05005	0.791061	0.19259	-0.550089	0.185834	9.43104	1.04641	3.33873	0.0356779	0.0342815	0.00198824	-0.848877	-0.298096	-0.611572	-0.0124466	0.0706773	-0.976881	-0.201379	-0.569633	3.73951	-9.00176	0.0316637	0.018285	0.00550759	-0.4104	-0.500244	1.0061	
34	0.583641	0.0695335	0.808963	-0.0103041	-8.82593	0.554028	-2.92181	-0.0298458	0.0105891	0.00828865	0.870117	-0.160156	0.7146	-0.0801424	0.0301834	-0.994372	-0.0623759	-1.4714	1.31853	-9.36632	0.0115566	0.0275627	-0.0359306	-0.0883789	-0.287109	1.12988	0.093045	0.044517	-0.988015	0.114836	1.86407	-2.10594	-8.47266	0.0231299	0.0191636	-0.0162098	-0.571289	0.101807	0.911621	0.171731	0.0664943	-0.852664	0.488928	3.42603	-8.05046	-4.57205	0.0822123	0.00272285	-0.01143	-0.658203	0.776367	0.334473	0.165613	0.1037	-0.932909	-0.30249	2.42449	5.74861	-7.61107	-0.0229418	0.0352558	-0.0543866	-0.621826	-0.699219	0.627441	0.125587	-0.167648	-0.52089	-0.827524	4.21297	8.95005	4.43005	0.0273811	-0.00230317	0.0110671	-0.86792	-0.796875	-0.231934	-0.151205	0.0810412	-0.984767	0.0283316	-2.47869	-0.60792	-8.7747	-0.00253869	0.0257386	-0.0364843	-0.0664062	-0.0224609	1.08398	0.782744	-0.168238	-0.525131	-0.288523	9.57097	0.198557	4.2192	-0.0158111	0.0343701	0.000885149	-0.877441	0.125732	-0.622559	0.0339019	0.0566118	0.995505	-0.0679381	-1.14029	-0.868477	-9.06669	0.0264654	0.0160286	-0.0312546	-0.269775	0.182373	1.05469	0.79124	0.192146	-0.549985	0.185836	9.50547	0.819008	3.37442	-0.0289806	0.017855	0.00661507	-0.84668	-0.300293	-0.618408	-0.0124771	0.0706286	-0.976902	-0.201291	-0.561702	3.71637	-8.96575	0.0047639	0.00254857	-0.00569149	-0.407959	-0.504639	1.00391	
35	0.583501	0.0694375	0.809079	-0.00979048	-8.85493	0.507921	-2.95533	-0.0104355	0.00447913	0.00854167	0.870117	-0.157959	0.712402	-0.0804967	0.0304933	-0.994358	-0.0619833	-1.29044	1.37596	-9.56485	0.000677258	0.0022469	-0.0369927	-0.088623	-0.280518	1.13428	0.0927032	0.0451642	-0.987911	0.115747	2.01168	-1.75069	-8.323	-0.0105429	0.000784513	-0.00252701	-0.564697	0.0974121	0.902588	0.171746	0.0669846	-0.852188	0.489686	3.66468	-8.13977	-4.35875	0.0170489	-7.28794e-05	-0.0129544	-0.662354	0.77417	0.330078	0.16549	0.104348	-0.932929	-0.302272	2.41589	5.96936	-7.43044	0.0251158	0.0147886	-0.0618823	-0.630615	-0.699219	0.627441	0.126065	-0.16796	-0.520827	-0.827427	4.1611	8.93371	4.33944	-0.00477277	0.019869	-0.00456927	-0.867676	-0.805664	-0.233887	-0.151164	0.0812855	-0.984747	0.0285536	-2.49751	-0.526653	-8.67886	0.0420128	0.0125346	-0.0229537	-0.0666504	-0.0202637	1.07983	0.78285	-0.167993	-0.525287	-0.288093	9.47673	0.348482	4.13627	0.0261362	0.012064	-0.0131532	-0.881592	0.125732	-0.620117	0.0336295	0.0563511	0.995503	-0.0683232	-1.13988	-0.87834	-9.03849	0.0200535	0.0114371	-0.0238205	-0.267578	0.18457	1.05688	0.7914	0.192241	-0.54964	0.186079	9.49712	0.847954	3.33218	0.0428826	0.0291507	0.00775276	-0.844482	-0.298096	-0.618408	-0.012486	0.0706351	-0.976878	-0.201406	-0.578146	3.72941	-9.005	-0.0109856	0.0086686	-0.00581121	-0.405762	-0.502441	1.00146	
36	0.583606	0.0696821	0.808983	-0.00973397	-8.85744	0.511148	-2.94464	0.00403277	-0.0132738	0.011372	0.870117	-0.160156	0.7146	-0.0804255	0.0304072	-0.994374	-0.0618646	-1.4668	1.25878	-9.35291	-0.00404991	0.00275206	-0.0101845	-0.0908203	-0.282715	1.13208	0.0926956	0.0449647	-0.987858	0.116288	1.75716	-2.03193	-8.48812	0.0689891	0.00383829	0.00816148	-0.564941	0.104004	0.906982	0.171995	0.0663547	-0.851991	0.490027	3.46296	-7.63233	-4.4763	-0.0368813	0.0366178	0.0233996	-0.655762	0.776367	0.330078	0.165738	0.105925	-0.932649	-0.302451	2.40388	5.80834	-7.59937	0.0440871	0.0350425	-0.0284059	-0.626465	-0.697021	0.627441	0.127007	-0.16713	-0.521386	-0.827099	4.09682	9.00002	4.0928	0.0512006	0.0508157	0.000586466	-0.86792	-0.799072	-0.236084	-0.151249	0.0814897	-0.984737	0.0278704	-2.48247	-0.6744	-8.67698	7.54834e-05	-0.00492189	-0.0143962	-0.0710449	-0.0180664	1.07959	0.783058	-0.168175	-0.524929	-0.288075	9.50849	0.291658	4.22036	-0.00533716	0.0277666	-0.00562224	-0.877441	0.12793	-0.622559	0.0334491	0.0561149	0.995506	-0.0685576	-1.14994	-0.886279	-9.04266	0.0138506	0.00835167	-0.0226139	-0.269775	0.182373	1.05469	0.791431	0.192499	-0.549417	0.186338	9.47344	0.920918	3.38391	-0.000261358	0.0257891	-0.00276764	-0.844482	-0.300293	-0.615967	-0.0125169	0.0706516	-0.976828	-0.201639	-0.579345	3.71405	-8.97231	-0.0168845	0.00231209	-0.0064764	-0.405762	-0.502441	1.00366	
37	0.584055	0.0698246	0.808643	-0.0100042	-8.86431	0.57633	-2.93265	0.0118525	-0.0270188	-0.00331076	0.874268	-0.155762	0.7146	-0.0804113	0.0304037	-0.994384	-0.061729	-1.32439	1.38899	-9.49821	0.00387209	0.0134501	-0.0184141	-0.0883789	-0.287109	1.12744	0.0927762	0.0445758	-0.987964	0.115466	2.05739	-1.83876	-8.34937	-0.0613288	0.00805318	0.00621537	-0.564697	0.101807	0.90918	0.172245	0.0661499	-0.852176	0.489645	3.54103	-8.2381	-4.54894	0.000884172	0.00903245	0.00389387	-0.657959	0.77417	0.330078	0.166031	0.10546	-0.932353	-0.303363	2.59672	5.94362	-7.60823	-0.0825155	-0.0116318	-0.00361897	-0.628174	-0.703613	0.629639	0.127151	-0.166539	-0.521683	-0.827009	4.16671	9.07782	4.01802	0.0122074	0.010812	-0.024795	-0.865479	-0.805664	-0.238037	-0.15123	0.0814734	-0.984743	0.0278019	-2.43005	-0.495466	-8.6737	0.013924	0.00852422	-0.0117865	-0.0666504	-0.0202637	1.07324	0.783037	-0.168352	-0.524918	-0.288046	9.53765	0.328019	4.20854	-0.0163484	0.0110196	-0.0187849	-0.879395	0.125488	-0.615479	0.0335681	0.0561805	0.995477	-0.068865	-1.17101	-0.900986	-9.07494	0.0280361	0.00431621	-0.030465	-0.267822	0.187012	1.05444	0.791519	0.19231	-0.54935	0.186357	9.40274	0.983318	3.35773	-0.0147018	0.00693285	0.00368082	-0.84668	-0.30249	-0.618164	-0.012524	0.0706412	-0.976912	-0.201234	-0.571711	3.71541	-8.99445	0.0229457	0.00889117	-0.00739424	-0.410156	-0.504639	1.00391	
38	0.584344	0.0698569	0.808431	-0.0100974	-8.85809	0.51088	-2.94797	0.00644323	-0.030682	-0.000833957	0.870117	-0.160156	0.716797	-0.0804037	0.0303002	-0.994395	-0.0616045	-1.36506	1.27279	-9.38384	0.00204772	0.00631497	-0.00546936	-0.0927734	-0.287109	1.13232	0.0929446	0.0449787	-0.987798	0.116594	1.7489	-2.1041	-8.5996	0.0936744	0.0187921	-0.0273556	-0.569092	0.101807	0.904785	0.172519	0.0654962	-0.851798	0.490293	3.51313	-7.59337	-4.3493	0.0506168	0.0587034	0.040931	-0.6604	0.778564	0.330078	0.165439	0.105484	-0.932893	-0.302016	2.34428	5.86105	-7.5762	0.101076	-0.0282485	-0.00458534	-0.624023	-0.698975	0.625	0.126913	-0.167071	-0.521468	-0.827074	4.09297	9.04199	4.03021	-0.0232418	-0.0291405	-0.00495794	-0.867676	-0.803467	-0.233887	-0.15096	0.0813239	-0.98479	0.0280365	-2.44497	-0.635129	-8.77946	0.0379936	0.0334262	-0.00694049	-0.0688477	-0.0180664	1.07764	0.78311	-0.168447	-0.524736	-0.288126	9.49924	0.277328	4.25144	0.00336246	0.0273128	-0.0126853	-0.875244	0.12793	-0.620117	0.033821	0.0564842	0.995454	-0.0688216	-1.13863	-0.886104	-9.02175	0.00493033	-0.0038055	-0.00928683	-0.263184	0.187012	1.05444	0.791647	0.192202	-0.549201	0.186366	9.46334	0.927669	3.43241	0.0101033	0.0156428	0.0063494	-0.844482	-0.300293	-0.615967	-0.012396	0.0706011	-0.97683	-0.201655	-0.581868	3.70782	-8.96719	-0.0322299	0.0135205	-0.000356775	-0.414795	-0.502441	1.01294	
39	0.585223	0.0696199	0.807812	-0.0103557	-8.86517	0.495601	-2.9074	0.000178998	-0.0287397	-0.00164466	0.87207	-0.153564	0.7146	-0.0806847	0.0301307	-0.994385	-0.0614941	-1.3676	1.21605	-9.40066	-0.000410063	-0.0138484	-0.00512448	-0.0908203	-0.280518	1.1272	0.0929875	0.044525	-0.98785	0.116292	1.81453	-2.0586	-8.50702	0.0499406	0.0020254	-0.00860446	-0.569092	0.0996094	0.902588	0.173066	0.0656197	-0.851784	0.490108	3.47981	-8.03982	-4.57252	-0.00201755	0.00058166	-0.0162603	-0.664551	0.771973	0.327881	0.16464	0.105378	-0.933494	-0.30063	2.50892	5.97028	-7.2833	-0.00570883	-0.0173977	-0.00781373	-0.62207	-0.697021	0.629639	0.126662	-0.168688	-0.520734	-0.827247	4.17177	8.98785	4.4013	-0.0157343	0.0134289	-0.00940043	-0.865723	-0.803467	-0.233887	-0.150441	0.0812059	-0.984871	0.0283233	-2.43255	-0.647994	-8.72566	0.0201328	0.026588	-0.00840261	-0.0688477	-0.0202637	1.07959	0.783066	-0.16849	-0.524773	-0.288154	9.44845	0.291753	4.20567	-0.00138965	0.00747442	-0.0157721	-0.877441	0.125732	-0.620117	0.0340002	0.056777	0.99546	-0.0684048	-1.1443	-0.901911	-9.06077	-0.0179679	0.000574456	-0.0109395	-0.267822	0.191406	1.05664	0.791682	0.192115	-0.549242	0.186187	9.43203	0.848253	3.32692	-0.00944073	0.0115204	0.00142522	-0.853271	-0.300293	-0.615967	-0.0123024	0.070338	-0.976764	-0.202074	-0.573755	3.73994	-8.96608	0.00681091	0.00360114	-0.00270355	-0.409912	-0.506836	1.0083	
40	0.585518	0.0696482	0.807595	-0.0104217	-8.87207	0.469248	-2.91331	0.00425965	-0.0316981	0.000225687	0.874268	-0.155762	0.712402	-0.0807476	0.0300702	-0.994399	-0.061208	-1.41576	1.16495	-9.38806	0.0163968	0.00728701	-0.0151853	-0.0930176	-0.282715	1.12744	0.09289	0.0449056	-0.98773	0.11724	1.69497	-1.78165	-8.58849	0.0800758	-0.00367667	-0.0243708	-0.564941	0.106201	0.911377	0.173195	0.065849	-0.851383	0.490728	3.55515	-8.09988	-4.50629	0.0334907	0.00560791	-0.00236772	-0.666992	0.77417	0.330078	0.164537	0.105212	-0.9332	-0.301654	2.44324	5.87445	-7.41716	-0.0861245	-0.0101716	-0.0196351	-0.619629	-0.699219	0.629639	0.126531	-0.168883	-0.520671	-0.827267	4.10557	8.71438	4.15874	-0.00681038	-0.00460944	-0.0135128	-0.87207	-0.80127	-0.227539	-0.150283	0.0811856	-0.984898	0.0282823	-2.49541	-0.591974	-8.65679	0.0159197	0.0223275	-0.0128456	-0.0751953	-0.0202637	1.07324	0.782944	-0.16884	-0.524743	-0.288335	9.50693	0.350158	4.19375	-0.027572	0.00631611	-0.0156625	-0.877441	0.125732	-0.622559	0.0341239	0.0569188	0.995443	-0.0684768	-1.15703	-0.874004	-9.07539	0.0140138	-0.00487554	-0.0135978	-0.260742	0.187012	1.05444	0.791628	0.192071	-0.549273	0.18637	9.46321	0.86912	3.4011	0.00650273	0.0102936	0.0167535	-0.84668	-0.300293	-0.61377	-0.0123024	0.070338	-0.976764	-0.202074	-0.573755	3.73994	-8.96608	0.00681091	0.00360114	-0.00270355	-0.409912	-0.506836	1.0083	
41	0.586059	0.0697194	0.807195	-0.0104894	-8.83662	0.549211	-2.87602	0.00245529	-0.0254071	0.00491269	0.874512	-0.157959	0.718994	-0.0808555	0.0299384	-0.994412	-0.0609225	-1.41024	1.31913	-9.37095	-0.00611151	0.00545842	-0.0142724	-0.0930176	-0.282715	1.13208	0.0930543	0.0449268	-0.987825	0.116294	1.88491	-2.07618	-8.37897	-0.060737	0.00860212	-0.00528262	-0.566895	0.0974121	0.902588	0.173059	0.0657952	-0.851232	0.491045	3.40122	-7.94452	-4.40321	0.0299313	0.00212721	0.0133739	-0.669189	0.776367	0.325684	0.164763	0.105814	-0.933318	-0.300954	2.51892	5.78358	-7.54112	0.0252314	0.0208464	-0.0197944	-0.626221	-0.699219	0.629639	0.126606	-0.169254	-0.521572	-0.826611	4.24735	9.13212	4.19054	0.0473038	-0.00513742	-0.0100812	-0.872314	-0.799072	-0.231934	-0.150183	0.0812858	-0.984891	0.0287704	-2.50076	-0.609199	-8.79279	0.0283052	0.0100302	-0.0142756	-0.0644531	-0.0202637	1.07324	0.782907	-0.168814	-0.524902	-0.288161	9.52848	0.295793	4.17066	0.00561425	0.00920882	-0.0113082	-0.879395	0.125732	-0.620117	0.0341056	0.0572214	0.995441	-0.0682557	-1.1556	-0.88178	-9.02964	-0.012118	0.00931137	-0.00855392	-0.27002	0.18457	1.05225	0.791534	0.192227	-0.54932	0.186467	9.42137	0.92855	3.3597	0.00416793	0.010594	0.000615684	-0.842041	-0.30249	-0.622803	-0.0124309	0.0704193	-0.977067	-0.200564	-0.570433	3.70947	-9.00619	0.0306256	-0.00269411	-0.00599498	-0.407959	-0.500244	1.0083	
42	0.586341	0.0696853	0.806995	-0.0103779	-8.86172	0.571249	-2.87187	-0.0120942	-0.0144276	0.00171175	0.874512	-0.157959	0.710205	-0.080912	0.0302675	-0.994394	-0.0609743	-1.4487	1.31937	-9.41016	-0.0146479	0.00633156	-0.0289191	-0.088623	-0.280518	1.13208	0.0929082	0.0450164	-0.987901	0.115731	1.90902	-1.8978	-8.39307	-0.0474325	0.00660994	-0.00176288	-0.55835	0.0974121	0.906982	0.173136	0.065786	-0.85124	0.491005	3.5637	-8.09788	-4.53652	0.00788706	0.00257474	-0.00458883	-0.660156	0.774414	0.323486	0.164758	0.105445	-0.933297	-0.301154	2.38502	5.72454	-7.8307	0.0193689	0.00126586	-0.00264964	-0.626465	-0.694824	0.634277	0.126468	-0.169341	-0.521702	-0.826533	4.20025	8.95406	4.1479	0.00463194	0.00523822	-0.0113793	-0.872314	-0.799072	-0.227539	-0.149981	0.0815664	-0.984908	0.0284239	-2.48906	-0.503555	-8.7205	0.00339841	0.0231637	-0.0260861	-0.0710449	-0.0158691	1.07544	0.782899	-0.168896	-0.52491	-0.28812	9.37942	0.213695	4.18632	0.00100349	0.0119864	-0.0108584	-0.877441	0.129883	-0.620117	0.0343575	0.0573766	0.995428	-0.0682012	-1.15355	-0.88395	-9.0464	0.013544	-0.00942309	-0.0212718	-0.27002	0.189209	1.05005	0.791299	0.19234	-0.549434	0.187014	9.50094	0.950872	3.32412	0.0280609	0.00546167	0.0167487	-0.84668	-0.300293	-0.615967	-0.012515	0.0704695	-0.97715	-0.200137	-0.564224	3.70245	-8.96043	0.0352389	0.00684309	-0.00938275	-0.407959	-0.500244	1.01294	
43	0.58645	0.0695646	0.80693	-0.0100301	-8.83784	0.510415	-2.8654	-0.0121542	-0.00588492	0.00571306	0.870117	-0.162354	0.710205	-0.0804222	0.031137	-0.994393	-0.0612058	-1.41094	1.19352	-9.35805	-0.016092	0.0273362	-0.0415904	-0.088623	-0.282715	1.12744	0.0928437	0.0453581	-0.987821	0.11633	1.69917	-1.94457	-8.5982	0.0626705	-0.000755584	-0.0200486	-0.560547	0.101562	0.906982	0.173032	0.0657053	-0.851176	0.491164	3.38942	-7.79991	-4.39996	-0.0294903	0.0122893	0.00723882	-0.666992	0.77417	0.327881	0.164771	0.105227	-0.933357	-0.301036	2.39048	5.96275	-7.40261	-0.0236028	0.00405984	-0.00321413	-0.624512	-0.69043	0.629639	0.126331	-0.169475	-0.521415	-0.826708	4.11564	8.86942	4.26923	-0.0243459	0.0119637	-0.0219551	-0.86792	-0.80127	-0.229736	-0.15005	0.0818498	-0.984871	0.0285453	-2.52507	-0.697775	-8.64548	0.0231131	-0.000192178	-0.0247704	-0.0732422	-0.0180664	1.07764	0.783036	-0.168357	-0.525193	-0.287546	9.47987	0.349318	4.14204	0.011715	0.00209312	-0.0061367	-0.879639	0.12793	-0.622559	0.0343358	0.0574093	0.995391	-0.06872	-1.18535	-0.873828	-9.06707	0.0379413	0.0106093	-0.0303974	-0.263184	0.189453	1.04565	0.79141	0.192087	-0.549443	0.186772	9.42427	0.87606	3.40286	-0.0230906	0.021429	-0.000401203	-0.84668	-0.300293	-0.615967	-0.0127835	0.0703691	-0.977377	-0.199044	-0.581345	3.66099	-9.05008	0.0233763	-0.000798306	1.29072e-05	-0.412842	-0.493652	1.00586	
44	0.586353	0.0695133	0.807011	-0.009577	-8.85304	0.563204	-2.86629	-0.0163357	0.00785387	0.00739149	0.874512	-0.157959	0.7146	-0.0802396	0.0317075	-0.99438	-0.0613643	-1.41514	1.23874	-9.41672	-0.0317857	0.0156102	-0.0386612	-0.0908203	-0.280518	1.13208	0.0930653	0.0454074	-0.98786	0.115802	2.04919	-2.09237	-8.3389	-0.0338125	0.000253138	-0.00649529	-0.564697	0.0974121	0.909424	0.173172	0.0660087	-0.850654	0.491978	3.47309	-7.82476	-4.44824	0.0719382	0.00515205	-0.0144374	-0.658203	0.780762	0.325684	0.16485	0.105436	-0.933416	-0.300736	2.64166	5.70853	-7.56195	0.0683808	0.0313131	-0.0303508	-0.630615	-0.699219	0.631836	0.126423	-0.169479	-0.521969	-0.826343	4.19977	9.04021	4.39037	0.0493931	0.00881396	-0.0154191	-0.86377	-0.794678	-0.22998	-0.14995	0.0822624	-0.984843	0.0288321	-2.53137	-0.478264	-8.79386	0.0184575	0.00899702	-0.025356	-0.0708008	-0.0202637	1.07959	0.783177	-0.168569	-0.525015	-0.287361	9.55688	0.291916	4.21152	0.00109929	0.0183778	-0.00891533	-0.879883	0.13208	-0.615479	0.0346862	0.0571165	0.995343	-0.069475	-1.16208	-0.92908	-9.04865	0.0332674	-0.0165994	-0.0350184	-0.263428	0.193848	1.05225	0.791295	0.192201	-0.549371	0.187356	9.47362	0.87028	3.38929	0.0228728	0.00559925	0.0108304	-0.851074	-0.300293	-0.618408	-0.0128152	0.0704477	-0.977293	-0.199426	-0.600375	3.6873	-8.97281	0.0188291	0.0022326	-0.01404	-0.408203	-0.49585	1.0105	
45	0.586258	0.0693777	0.807097	-0.00913259	-8.86498	0.503174	-2.89537	-0.015352	-0.000436758	0.00439131	0.874268	-0.155762	0.710205	-0.0799424	0.0322982	-0.994391	-0.0612659	-1.45461	1.3022	-9.44015	-0.00891434	0.0204939	-0.0327478	-0.088623	-0.282715	1.12744	0.0933037	0.0454592	-0.987777	0.116295	1.68358	-1.7786	-8.63276	0.030415	0.0187096	0.00056318	-0.5625	0.0974121	0.902588	0.173265	0.0659488	-0.850937	0.491463	3.49592	-7.83697	-4.51299	-0.0455471	0.00776126	-0.0054873	-0.662598	0.778564	0.321289	0.165134	0.105735	-0.933359	-0.300651	2.2755	5.95069	-7.59285	-0.032873	0.0023881	-0.0273629	-0.628418	-0.699219	0.629639	0.126564	-0.169324	-0.52243	-0.826062	4.11148	8.88707	4.11062	0.0352287	0.0119353	-0.0107382	-0.865967	-0.796875	-0.229736	-0.14982	0.0826626	-0.984813	0.029395	-2.48113	-0.709766	-8.70709	0.0294093	0.0112186	-0.0267764	-0.0712891	-0.0136719	1.06885	0.783185	-0.168443	-0.525211	-0.287056	9.46576	0.32913	4.1586	0.00341735	0.00813004	-0.0084987	-0.879883	0.13208	-0.620117	0.0344296	0.0573259	0.99533	-0.0696215	-1.15919	-0.910438	-9.01639	0.00396976	0.0189614	-0.0157149	-0.265381	0.187012	1.05225	0.791496	0.192206	-0.549103	0.187286	9.40346	0.936542	3.36107	5.61945e-05	0.0261626	0.00090293	-0.84668	-0.298096	-0.615967	-0.0131022	0.0704432	-0.977405	-0.198861	-0.585954	3.66434	-9.00863	0.011836	-0.00288887	-0.00562732	-0.4104	-0.500244	1.0083	
46	0.585998	0.0697935	0.80725	-0.00905774	-8.87519	0.515288	-2.87056	0.0162547	0.0146698	0.0159047	0.872314	-0.160156	0.710205	-0.0798978	0.0324904	-0.994389	-0.0612432	-1.38096	1.24731	-9.42699	-0.00269608	0.0134984	-0.0262817	-0.0930176	-0.282715	1.12744	0.0930413	0.0459516	-0.987767	0.116395	2.18342	-2.10782	-8.2797	0.00292351	-0.00429479	-0.00893587	-0.562744	0.0996094	0.906982	0.173124	0.0668216	-0.849086	0.494586	3.53456	-7.71333	-4.32727	0.108963	-0.0129349	-0.0116709	-0.662598	0.778809	0.319092	0.165199	0.106403	-0.933416	-0.300205	2.52493	5.80577	-7.64097	0.0187223	0.013642	-0.0284431	-0.626221	-0.699219	0.629639	0.126696	-0.169609	-0.522656	-0.82584	4.28428	9.07047	4.26423	0.00616824	0.00906381	-0.00856611	-0.867676	-0.803467	-0.227539	-0.149983	0.0827538	-0.984774	0.0296252	-2.43121	-0.611489	-8.69925	0.0173624	0.0142202	-0.0242331	-0.0690918	-0.0136719	1.07959	0.783317	-0.169093	-0.524645	-0.28735	9.51886	0.216425	4.25705	-0.0197545	0.0257213	-0.00589949	-0.877441	0.129883	-0.61792	0.0345154	0.0574142	0.995306	-0.0698401	-1.15707	-0.935728	-9.08882	0.0297223	-0.00517896	-0.0215226	-0.265381	0.187012	1.04785	0.791464	0.192246	-0.549044	0.187555	9.50736	0.789688	3.38056	0.00648077	0.0110484	0.00521282	-0.840088	-0.298096	-0.620605	-0.013129	0.0705125	-0.977418	-0.19877	-0.583375	3.68022	-8.99936	0.0113422	0.00904982	-0.0100798	-0.408203	-0.49585	1.0083	
47	0.585953	0.0701336	0.807252	-0.00917763	-8.88483	0.538159	-2.96431	0.0243759	0.000627372	0.0160594	0.874512	-0.157959	0.710205	-0.0797151	0.0326072	-0.994398	-0.0612735	-1.40378	1.33224	-9.32275	-0.010426	0.026802	-0.0260689	-0.0927734	-0.284912	1.1228	0.0930569	0.0457798	-0.987738	0.116699	1.64255	-2.00963	-8.62405	0.023823	0.00826482	0.0138653	-0.566895	0.0996094	0.906982	0.172671	0.0675979	-0.847656	0.497087	3.4793	-8.25869	-4.44601	0.120875	-0.0115411	-0.00381772	-0.662598	0.776611	0.319092	0.16521	0.106287	-0.933346	-0.300455	2.48862	5.72785	-7.55964	-0.00933144	0.00824807	-0.0160387	-0.624023	-0.703613	0.625	0.126732	-0.169093	-0.523071	-0.825677	4.19858	8.87005	4.10337	0.0208736	0.0210125	-0.0184317	-0.870117	-0.799072	-0.225342	-0.150246	0.0829107	-0.984732	0.0292478	-2.45341	-0.562649	-8.6775	0.0151724	-0.00116945	-0.0146441	-0.0708008	-0.0202637	1.07129	0.783348	-0.168738	-0.524965	-0.286887	9.50955	0.325171	4.14076	0.0293226	0.0121518	-0.00984054	-0.873047	0.12793	-0.622559	0.0347303	0.0575514	0.995186	-0.0713191	-1.16217	-0.925138	-9.06656	0.0833331	-0.0115399	-0.0242861	-0.263184	0.189209	1.05225	0.79151	0.192366	-0.548928	0.187577	9.41882	1.00536	3.45901	-0.00337637	0.014878	0.00209925	-0.842529	-0.295898	-0.618408	-0.013129	0.0705125	-0.977418	-0.19877	-0.583375	3.68022	-8.99936	0.0113422	0.00904982	-0.0100798	-0.408203	-0.49585	1.0083	
48	0.58621	0.0708443	0.807001	-0.00940702	-8.82971	0.571381	-2.84406	0.0246716	-0.015462	0.0188446	0.874756	-0.164551	0.7146	-0.0794865	0.0329128	-0.994386	-0.0616008	-1.35877	1.30125	-9.38475	-0.0176285	0.0152469	-0.0196693	-0.0905762	-0.284912	1.12744	0.0925131	0.0461368	-0.987771	0.116713	1.9805	-2.04148	-8.43287	-0.00365908	-0.0250178	-0.0189438	-0.569092	0.0996094	0.913818	0.172333	0.0680683	-0.846273	0.49949	3.50525	-7.83213	-4.27013	0.234868	-0.0176868	0.00027262	-0.6604	0.778809	0.310303	0.165327	0.106339	-0.933475	-0.299974	2.51659	5.81358	-7.51875	0.0381701	0.0185337	-0.00711972	-0.624268	-0.692627	0.629639	0.126593	-0.169219	-0.522839	-0.82582	4.24363	9.10266	4.23767	-0.023084	0.00257821	-0.0169552	-0.870117	-0.799072	-0.225342	-0.15015	0.0828146	-0.984747	0.0294966	-2.46971	-0.572253	-8.73892	0.0401205	0.0193244	-0.0105893	-0.0710449	-0.0180664	1.07324	0.783521	-0.168887	-0.524645	-0.286915	9.47152	0.208128	4.17042	-0.0111803	0.0389992	-0.00395246	-0.877441	0.127686	-0.615479	0.0350366	0.0573915	0.995093	-0.0725866	-1.16935	-0.973856	-9.04481	0.108824	-0.0265297	-0.0391527	-0.265625	0.193848	1.05664	0.791532	0.192315	-0.548923	0.187552	9.54136	0.847258	3.44009	-0.00334269	0.0120732	0.00213088	-0.844482	-0.300293	-0.61377	-0.013083	0.0704906	-0.977422	-0.19876	-0.58508	3.66916	-9.02345	-0.0113819	0.00226936	-0.00361053	-0.412842	-0.49585	1.0105	
49	0.586206	0.0711036	0.806981	-0.00943691	-8.86916	0.629134	-2.85866	0.014767	-0.00279928	0.0148679	0.874756	-0.164551	0.712646	-0.0792768	0.033046	-0.994404	-0.0615177	-1.46962	1.24359	-9.40562	-0.00138292	0.0296569	-0.0277475	-0.0930176	-0.282715	1.13452	0.0927653	0.0460744	-0.987769	0.116552	1.74807	-1.92402	-8.40647	-0.0333159	0.0238344	0.00854073	-0.566895	0.0996094	0.911621	0.172014	0.068305	-0.845666	0.500594	3.52213	-8.18999	-4.33845	0.0443735	-0.00613698	0.000751875	-0.658203	0.781006	0.312256	0.165624	0.105898	-0.933068	-0.301229	2.36309	5.71948	-7.59233	-0.0675847	0.0211593	-0.00089082	-0.628662	-0.692627	0.631836	0.126443	-0.169112	-0.522622	-0.826002	4.11114	8.88573	4.22301	0.00862644	0.0224141	-0.0191633	-0.867676	-0.803467	-0.223145	-0.150229	0.0830515	-0.984727	0.0290893	-2.51884	-0.602033	-8.74431	0.00131034	-0.00163362	-0.0206642	-0.072998	-0.0224609	1.07349	0.783764	-0.168357	-0.524579	-0.286683	9.56097	0.324617	4.16651	0.0319229	0.0159441	-0.024329	-0.877197	0.123535	-0.622314	0.0350366	0.0573915	0.995093	-0.0725866	-1.16935	-0.973856	-9.04481	0.108824	-0.0265297	-0.0391527	-0.265625	0.193848	1.05664	0.791546	0.192409	-0.548894	0.187481	9.44411	0.82564	3.30423	0.0058506	0.0128422	-0.00165737	-0.844727	-0.293701	-0.618408	-0.0131231	0.0704963	-0.977464	-0.198548	-0.585632	3.67186	-8.99512	0.0213209	0.00982826	-0.00525913	-0.408203	-0.493652	1.0105	
50	0.586239	0.0710684	0.806969	-0.00860833	-8.84527	0.508943	-2.83807	-0.018804	0.00546795	0.0151795	0.870361	-0.164551	0.7146	-0.0791182	0.0334527	-0.994395	-0.0616354	-1.50575	1.1918	-9.33768	0.0108245	0.0165307	-0.0185338	-0.088623	-0.282715	1.12744	0.0925067	0.046877	-0.987619	0.117703	1.95751	-1.96427	-8.6025	0.0989061	-0.010909	-0.0436331	-0.566895	0.104004	0.90918	0.171733	0.0696292	-0.844242	0.502907	3.55567	-7.95242	-4.28383	0.041662	-0.0226369	-0.0257375	-0.665039	0.781006	0.314453	0.165642	0.105879	-0.933385	-0.300243	2.47735	5.77629	-7.60959	0.0785087	0.00616482	-0.00786253	-0.626465	-0.692627	0.627441	0.126558	-0.168721	-0.522892	-0.825894	4.12386	9.00234	4.26349	0.0256617	0.0244561	-0.0235554	-0.869873	-0.80127	-0.223145	-0.150139	0.0831349	-0.984737	0.0289888	-2.50739	-0.679817	-8.64883	0.0101652	0.00775743	-0.018965	-0.0710449	-0.0180664	1.07959	0.783678	-0.168791	-0.524289	-0.287193	9.50844	0.351668	4.16007	-0.0515597	0.0296614	-0.0231908	-0.868896	0.12793	-0.624756	0.0350366	0.0573915	0.995093	-0.0725866	-1.16935	-0.973856	-9.04481	0.108824	-0.0265297	-0.0391527	-0.265625	0.193848	1.05664	0.791609	0.192751	-0.548699	0.187434	9.40686	0.971088	3.47156	-0.00129307	0.0162499	-0.0110655	-0.839844	-0.304688	-0.620361	-0.0130531	0.070514	-0.977541	-0.19817	-0.582519	3.64819	-9.01166	0.0162663	0.0074243	-0.00299264	-0.410645	-0.493652	1.0105	
51	0.586106	0.071446	0.807036	-0.00831996	-8.83032	0.633831	-2.881	0.00211238	0.00286451	0.0168734	0.870361	-0.164551	0.710449	-0.0790429	0.0335503	-0.994404	-0.0615339	-1.35546	1.38109	-9.31737	0.00427851	0.0233002	-0.0191112	-0.0930176	-0.282715	1.12744	0.0926972	0.0473974	-0.987508	0.118273	1.74269	-2.05679	-8.24117	-0.0139814	0.00118895	-0.0171003	-0.562744	0.0996094	0.904785	0.171734	0.0697815	-0.844158	0.503027	3.5328	-8.23707	-3.97291	0.0305051	0.0107024	-0.000357791	-0.662598	0.778809	0.310303	0.165443	0.106175	-0.934129	-0.297924	2.47773	5.92418	-7.53477	0.0945486	0.000615593	-0.00529966	-0.626465	-0.692627	0.634277	0.126687	-0.168706	-0.523173	-0.825699	4.32605	9.03718	4.18439	0.00360337	0.0110717	-0.00806261	-0.86792	-0.80127	-0.227539	-0.150197	0.0831517	-0.984731	0.0288231	-2.51284	-0.537132	-8.77532	0.013349	0.0113436	-0.0112931	-0.0688477	-0.0158691	1.07959	0.783691	-0.168951	-0.524087	-0.287432	9.4565	0.101706	4.17651	0.0167664	0.0166985	-0.0226304	-0.87085	0.125732	-0.620117	0.0350366	0.0573915	0.995093	-0.0725866	-1.16935	-0.973856	-9.04481	0.108824	-0.0265297	-0.0391527	-0.265625	0.193848	1.05664	0.791677	0.192652	-0.548709	0.187219	9.49504	0.800688	3.3487	-0.00100879	0.00964536	-0.00167165	-0.846924	-0.295898	-0.616211	-0.0130531	0.070514	-0.977541	-0.19817	-0.582519	3.64819	-9.01166	0.0162663	0.0074243	-0.00299264	-0.410645	-0.493652	1.0105	
52	0.586057	0.0715649	0.807062	-0.00814914	-8.85601	0.621097	-2.91916	-0.00406668	-0.0014905	0.00534302	0.872314	-0.162354	0.7146	-0.0789699	0.0335487	-0.994398	-0.0617271	-1.34375	1.34918	-9.44588	-0.0210148	0.0217341	-0.0200984	-0.0905762	-0.284912	1.12988	0.0923979	0.046405	-0.987735	0.117	1.93385	-1.84106	-8.53416	-0.0390296	0.00767342	0.0449888	-0.562744	0.101807	0.906982	0.171447	0.0691883	-0.845277	0.501324	3.53339	-8.00995	-4.28021	-0.0957622	-0.0044008	0.0214841	-0.662842	0.783203	0.310059	0.165873	0.106022	-0.933607	-0.299372	2.33138	5.9539	-7.69494	-0.0888309	0.0355231	-0.0182157	-0.626465	-0.697021	0.629639	0.126443	-0.169323	-0.522286	-0.826171	4.1912	8.93236	4.33184	-0.0495897	-0.00610034	-0.0014825	-0.869873	-0.805664	-0.229492	-0.15013	0.0831027	-0.984759	0.0283517	-2.59501	-0.584255	-8.69543	0.00787878	0.0114709	-0.0103954	-0.0688477	-0.0202637	1.07324	0.783895	-0.168117	-0.524163	-0.287227	9.52961	0.334891	4.19314	0.0207757	0.0296674	-0.0233368	-0.873047	0.125732	-0.622559	0.0350366	0.0573915	0.995093	-0.0725866	-1.16935	-0.973856	-9.04481	0.108824	-0.0265297	-0.0391527	-0.265625	0.193848	1.05664	0.791738	0.192999	-0.548549	0.187073	9.43823	0.976531	3.38374	0.0114567	0.0160019	-0.0122619	-0.842285	-0.300293	-0.618408	-0.0128379	0.0705953	-0.977077	-0.200429	-0.588584	3.70304	-8.97673	-0.0502952	0.0062399	-0.00214856	-0.412598	-0.49585	1.0083	
53	0.586033	0.071526	0.807084	-0.00802673	-8.84375	0.56782	-2.84789	-0.000711751	0.00342473	0.00439141	0.872559	-0.162354	0.710449	-0.0788646	0.0335931	-0.994353	-0.0625586	-1.44806	1.20944	-9.39735	-0.0388327	-0.00396843	-0.00784693	-0.0927734	-0.287109	1.12988	0.0926401	0.0466317	-0.987643	0.117496	1.85381	-1.91517	-8.27428	0.00483259	0.0123185	-0.0189454	-0.571289	0.104004	0.900146	0.171799	0.068173	-0.846431	0.499392	3.42944	-7.58125	-4.34008	-0.131158	0.0241012	0.00963734	-0.665039	0.783203	0.312256	0.166111	0.105548	-0.933036	-0.301182	2.61346	5.73391	-7.50497	-0.0585421	0.0141624	-0.0143449	-0.630615	-0.697021	0.627441	0.126881	-0.169189	-0.521361	-0.826715	4.23334	8.96094	4.29783	-0.0492414	0.0424258	0.00115954	-0.865967	-0.796875	-0.227539	-0.14981	0.0831667	-0.984823	0.0276344	-2.44555	-0.62716	-8.70523	-0.00736445	0.0291877	-0.0134252	-0.0708008	-0.0202637	1.07324	0.784009	-0.168178	-0.523749	-0.287635	9.49594	0.312394	4.20665	-0.00708242	0.034326	-0.0247746	-0.875244	0.12793	-0.61792	0.0350366	0.0573915	0.995093	-0.0725866	-1.16935	-0.973856	-9.04481	0.108824	-0.0265297	-0.0391527	-0.265625	0.193848	1.05664	0.791764	0.19308	-0.548492	0.187046	9.45479	0.903511	3.41863	0.00390145	0.00605814	0.00116992	-0.844238	-0.30249	-0.615967	-0.0126494	0.0706823	-0.976852	-0.201504	-0.580172	3.70715	-8.98351	-0.0433	0.00824613	-0.00501749	-0.407959	-0.502441	1.0061	
54	0.586094	0.0716129	0.807034	-0.00789314	-8.9026	0.540561	-2.95338	-0.00446198	-0.00740858	0.0120545	0.86792	-0.162354	0.712402	-0.078886	0.0335649	-0.994346	-0.0626641	-1.28952	1.31119	-9.31657	-0.0148642	0.00973255	-0.0146957	-0.097168	-0.284912	1.12744	0.0927778	0.0466053	-0.987783	0.116214	1.96537	-1.90138	-8.47459	-0.102877	0.00830706	-0.0100155	-0.564697	0.0996094	0.909424	0.172113	0.0672787	-0.848927	0.49515	3.69905	-8.27084	-4.51409	-0.15342	-0.0108939	-0.00269527	-0.6604	0.776367	0.325684	0.166476	0.106035	-0.93289	-0.301262	2.58736	5.669	-7.54326	-0.0122843	0.0148715	-0.0205304	-0.632812	-0.697021	0.625	0.127318	-0.16898	-0.521345	-0.826701	4.30962	9.01267	4.35805	0.034035	0.0219958	-0.00248998	-0.868164	-0.790527	-0.227783	-0.149766	0.0831376	-0.984838	0.0274117	-2.51563	-0.636893	-8.69471	0.00199346	0.0118763	-0.010521	-0.0708008	-0.0202637	1.07544	0.784021	-0.167885	-0.523762	-0.28775	9.5539	0.347535	4.20261	0.0263655	0.0215884	-0.0235294	-0.873047	0.125732	-0.624756	0.0350366	0.0573915	0.995093	-0.0725866	-1.16935	-0.973856	-9.04481	0.108824	-0.0265297	-0.0391527	-0.265625	0.193848	1.05664	0.791794	0.193569	-0.548297	0.186986	9.44606	0.937647	3.41121	0.0237287	0.0196291	-0.0116051	-0.840088	-0.300293	-0.61377	-0.0127171	0.0707404	-0.976831	-0.20158	-0.56979	3.72227	-8.96825	-0.00362934	0.00203714	-0.0111727	-0.4104	-0.498047	1.00366	
55	0.586807	0.0717138	0.80651	-0.00744923	-8.83253	0.600109	-2.80697	-0.0113372	-0.018644	0.00899858	0.874756	-0.164551	0.708252	-0.0778298	0.0333774	-0.99444	-0.0625958	-1.53347	1.3535	-9.38858	0.0227069	0.0391074	-0.0134078	-0.097168	-0.287109	1.13232	0.0932121	0.0464898	-0.987908	0.11484	1.99922	-2.22372	-8.53207	0.0158022	0.0153433	-0.00908512	-0.564697	0.0930176	0.907227	0.172238	0.0664685	-0.850766	0.492049	3.36345	-7.95253	-4.42514	-0.178774	0.00460378	0.000135725	-0.666992	0.77417	0.330078	0.166979	0.106272	-0.932777	-0.301251	2.35777	5.71905	-7.57179	0.0190582	0.0361003	-0.0160207	-0.628418	-0.699219	0.625	0.127254	-0.16877	-0.521853	-0.826434	4.10373	8.87577	4.04665	-0.00727579	0.00145832	-0.0173109	-0.868164	-0.79248	-0.223389	-0.149254	0.0832206	-0.984905	0.0275473	-2.39712	-0.570666	-8.70577	0.0127875	0.0257674	-0.0121983	-0.0754395	-0.0158691	1.06885	0.784097	-0.168134	-0.523335	-0.288172	9.47426	0.261386	4.25855	-0.0108079	0.0307294	-0.0178367	-0.873047	0.12793	-0.620117	0.0350366	0.0573915	0.995093	-0.0725866	-1.16935	-0.973856	-9.04481	0.108824	-0.0265297	-0.0391527	-0.265625	0.193848	1.05664	0.791768	0.193767	-0.548311	0.186851	9.39247	0.988506	3.41673	0.000660172	0.00365449	-0.0114594	-0.835449	-0.302246	-0.615967	-0.012664	0.0706796	-0.976568	-0.202876	-0.582068	3.73645	-8.96119	-0.0488189	0.00353556	-0.00530018	-0.405518	-0.504639	1.01074	
56	0.586868	0.0717119	0.806468	-0.00724368	-8.83017	0.591341	-2.83405	-0.0131907	-0.00654859	0.0096291	0.874756	-0.164551	0.708252	-0.0777377	0.0334311	-0.994445	-0.0625889	-1.45892	1.44554	-9.45044	-0.00672432	0.0194127	-0.0213808	-0.0927734	-0.284912	1.125	0.0937846	0.0465191	-0.987729	0.115897	1.61212	-1.83311	-8.539	0.0133033	0.0398018	0.00928532	-0.566895	0.0974121	0.907227	0.172448	0.066498	-0.850805	0.491906	3.42189	-8.4854	-4.61443	-0.00343178	0.00369537	-0.018783	-0.662354	0.77417	0.323486	0.166935	0.106217	-0.932892	-0.300937	2.20519	5.7622	-7.57823	0.024739	0.00291577	-0.00592322	-0.626465	-0.694824	0.631836	0.127228	-0.168827	-0.52178	-0.826472	4.12972	8.98931	4.17011	-0.00672481	0.00843606	-0.0141768	-0.86792	-0.799072	-0.229736	-0.148347	0.0834326	-0.985019	0.0277315	-2.47551	-0.539386	-8.91597	-0.00282946	0.0249942	-0.0128402	-0.0749512	-0.0246582	1.08398	0.784052	-0.168072	-0.5234	-0.288213	9.51594	0.223651	4.2331	0.00761143	0.0112753	-0.0239232	-0.877441	0.130127	-0.622559	0.0346571	0.0540754	0.995172	-0.0742112	-1.17267	-0.988784	-9.01935	0.00869215	0.000558369	-0.019747	-0.258545	0.19165	1.05005	0.791776	0.193803	-0.548358	0.186642	9.44599	0.854537	3.44537	-0.00641412	0.00406136	-0.0118353	-0.842041	-0.304688	-0.611328	-0.0127036	0.0706073	-0.976671	-0.202405	-0.592694	3.72757	-8.9911	0.0247339	0.00800995	-8.51589e-05	-0.405762	-0.502441	1.00366	
57	0.586711	0.0716912	0.806589	-0.00666708	-8.87872	0.649318	-2.8437	-0.0218114	0.0118736	0.0112075	0.874756	-0.166504	0.710449	-0.0779772	0.0335691	-0.994411	-0.062762	-1.40721	1.30034	-9.39553	-0.00802931	-0.000867362	-0.0253377	-0.0949707	-0.287109	1.12524	0.0936091	0.0470884	-0.987532	0.117478	1.85899	-1.84557	-8.34213	0.0576803	0.00239725	-0.0180465	-0.564941	0.101807	0.904785	0.172416	0.066595	-0.850492	0.492444	3.39891	-7.81521	-4.48406	-0.0425298	0.0041485	0.00831393	-0.664551	0.77417	0.321289	0.166884	0.105514	-0.932817	-0.301443	2.59593	5.98666	-7.63984	-0.0186326	-0.00633635	0.00411251	-0.626221	-0.699219	0.627441	0.127173	-0.168631	-0.521505	-0.826694	4.2458	8.98514	4.21149	-0.0237109	0.0184261	-0.0155791	-0.86792	-0.799072	-0.227539	-0.148199	0.0834538	-0.985054	0.0272381	-2.40995	-0.569882	-8.69273	-0.0199589	0.0184363	-0.0107287	-0.0793457	-0.0224609	1.07983	0.784049	-0.167772	-0.523479	-0.288253	9.52479	0.347882	4.15583	-0.0029152	0.0179417	-0.0237404	-0.871094	0.12793	-0.624756	0.0346412	0.0539555	0.995206	-0.0738455	-1.2151	-0.98301	-9.06044	-0.00998999	0.00384232	-0.0172383	-0.263428	0.193848	1.05005	0.791582	0.194364	-0.548348	0.18691	9.42935	1.05104	3.37502	0.0273736	0.00096242	-0.00430884	-0.837646	-0.300049	-0.615967	-0.012658	0.0705839	-0.976548	-0.203008	-0.582377	3.75863	-8.95613	-0.0172621	0.00648788	-0.00804702	-0.409912	-0.506836	1.00391	
58	0.586694	0.0715155	0.806622	-0.00597174	-8.8585	0.58643	-2.89508	-0.0247232	-0.00460265	0.00953751	0.874756	-0.166504	0.706055	-0.0778538	0.0338502	-0.994408	-0.0628182	-1.29789	1.32714	-9.29419	-0.0161693	0.023059	-0.0282728	-0.097168	-0.287109	1.12744	0.0934931	0.0468891	-0.987877	0.114717	2.02491	-1.99682	-8.59314	-0.138645	-0.00231974	-0.00729982	-0.564697	0.0908203	0.905029	0.17238	0.0670691	-0.850557	0.49228	3.61619	-8.32864	-4.51738	0.0476076	-0.00222483	-0.0170109	-0.658203	0.776367	0.327881	0.166728	0.105879	-0.932986	-0.300879	2.31063	5.98676	-7.3727	0.0126387	-0.0035301	-0.0323171	-0.626465	-0.696777	0.622803	0.127139	-0.168869	-0.521223	-0.826829	4.16589	8.93242	4.34756	-0.0232117	0.00210136	-0.007453	-0.870361	-0.79248	-0.234131	-0.14797	0.0837948	-0.985051	0.0275384	-2.45604	-0.579171	-8.64446	0.0190544	0.0142994	-0.0226259	-0.072998	-0.0224609	1.07764	0.78405	-0.167495	-0.523623	-0.28815	9.41089	0.266609	4.26261	0.00964669	0.0124767	-0.0196077	-0.873047	0.125732	-0.617676	0.0344997	0.0539492	0.995199	-0.0740129	-1.17555	-0.992486	-9.00544	0.0232302	0.0154777	-0.0274293	-0.268066	0.196045	1.0498	0.791635	0.193996	-0.548597	0.186335	9.4734	0.920886	3.39508	-0.0403927	-0.000289135	-0.00131635	-0.839844	-0.304443	-0.615967	-0.0126693	0.0705751	-0.976551	-0.202996	-0.583942	3.74117	-8.96626	0.00179156	0.00285676	-0.00251082	-0.412354	-0.506836	1.0061	
59	0.586752	0.0716688	0.80657	-0.00552493	-8.89372	0.609806	-2.88015	-0.00665313	-0.00214137	0.0175938	0.877441	-0.173096	0.708252	-0.078058	0.0335875	-0.994404	-0.0627595	-1.40061	1.26573	-9.52954	0.00151937	0.0111419	-0.0106029	-0.0949707	-0.284912	1.13208	0.0934373	0.0475707	-0.987519	0.117524	1.83726	-2.08665	-8.39087	0.164463	0.00764155	-0.0120078	-0.569092	0.106201	0.904541	0.172178	0.0678036	-0.849511	0.494054	3.49852	-7.54748	-4.27006	0.0344316	-0.00383923	-0.0185096	-0.662598	0.776367	0.325684	0.166769	0.106211	-0.932565	-0.302043	2.51872	5.67622	-7.65414	-0.0295681	0.0245335	-0.033895	-0.626221	-0.701416	0.625	0.127311	-0.168822	-0.521621	-0.826561	4.24272	8.84299	4.23168	0.0306389	0.0157687	-0.00936062	-0.870117	-0.799072	-0.234131	-0.147702	0.0839994	-0.985077	0.0274283	-2.44782	-0.55513	-8.78541	0.00346526	0.0150434	-0.0151152	-0.0708008	-0.0202637	1.07129	0.784016	-0.167592	-0.523431	-0.288535	9.58623	0.274684	4.14703	-0.00036003	0.0244208	-0.0233575	-0.879639	0.125732	-0.624756	0.0344997	0.0539492	0.995199	-0.0740129	-1.17555	-0.992486	-9.00544	0.0232302	0.0154777	-0.0274293	-0.268066	0.196045	1.0498	0.791489	0.194456	-0.548524	0.186689	9.46648	0.806574	3.38398	0.0411432	0.00294674	0.000579726	-0.844482	-0.30249	-0.618164	-0.0127519	0.0706397	-0.976379	-0.203792	-0.582881	3.77319	-8.96467	-0.0206124	0.00577948	-0.00951574	-0.405518	-0.504639	1.00146	
60	0.586996	0.0718151	0.806381	-0.00521457	-8.85869	0.705111	-2.85198	-0.0107824	-0.0148947	0.010821	0.872559	-0.166748	0.708252	-0.0777892	0.0337394	-0.994426	-0.0626736	-1.36497	1.39227	-9.23734	-0.00611839	0.0147014	-0.0182933	-0.097168	-0.284912	1.12988	0.0938125	0.0476093	-0.987477	0.117562	1.96702	-1.6556	-8.27152	-0.0659624	0.0249086	-0.00705455	-0.571289	0.0976562	0.902588	0.17222	0.0683574	-0.849353	0.494233	3.49698	-8.17253	-4.40628	0.0515756	0.00282692	-0.00602585	-0.6604	0.776611	0.321289	0.166807	0.106683	-0.932952	-0.300656	2.41216	5.8816	-7.42692	0.0635474	0.0111011	-0.0156031	-0.626465	-0.692627	0.634277	0.127318	-0.168673	-0.5222	-0.826224	4.17272	9.0945	4.19387	-0.000980012	0.0128451	-0.0257889	-0.863525	-0.799072	-0.225342	-0.147778	0.0839946	-0.985075	0.027101	-2.39711	-0.433383	-8.67526	0.00381548	0.00374248	-0.0104382	-0.072998	-0.0224609	1.07544	0.784027	-0.167362	-0.52343	-0.288639	9.43106	0.365972	4.25709	-0.00476317	0.0273462	-0.0273015	-0.868652	0.125732	-0.629395	0.0344997	0.0539492	0.995199	-0.0740129	-1.17555	-0.992486	-9.00544	0.0232302	0.0154777	-0.0274293	-0.268066	0.196045	1.0498	0.791453	0.194645	-0.548545	0.186584	9.45596	1.06993	3.3779	-0.0016246	0.0112469	0.000436272	-0.846436	-0.306885	-0.615967	-0.0126984	0.0706488	-0.976375	-0.203811	-0.573129	3.74531	-8.97066	-0.0132784	0.00562029	-0.00455695	-0.410156	-0.504639	1.0083	
61	0.587292	0.0717166	0.806177	-0.00478372	-8.87404	0.636363	-2.85205	-0.0146775	-0.0132141	0.00674493	0.875	-0.170898	0.710449	-0.0774766	0.0341344	-0.994417	-0.0629807	-1.39492	1.31073	-9.45939	-0.01737	0.0188484	-0.0228451	-0.097168	-0.282715	1.12964	0.0937617	0.0476799	-0.987576	0.116743	1.929	-2.21604	-8.53411	-0.00882857	-0.0128978	0.00339296	-0.569092	0.0996094	0.902588	0.17232	0.0685256	-0.849133	0.494553	3.57727	-7.7713	-4.3814	-0.0238904	0.00167968	-0.0172781	-0.6604	0.776611	0.321289	0.166784	0.106409	-0.932709	-0.301521	2.56857	5.83034	-7.53266	-0.0462754	0.00147677	-0.00477953	-0.628418	-0.699219	0.625	0.127068	-0.168761	-0.521796	-0.8265	4.27314	8.81447	4.22536	-0.00374216	0.00900819	-0.0154655	-0.869873	-0.80127	-0.225342	-0.148046	0.0839064	-0.985042	0.0270874	-2.46232	-0.638078	-8.77106	0.0187062	0.00275031	-0.013776	-0.0727539	-0.0268555	1.07349	0.783927	-0.167401	-0.523354	-0.289027	9.58261	0.342829	4.20103	0.0100227	0.015997	-0.0251037	-0.875244	0.125732	-0.624756	0.0343575	0.0531695	0.995288	-0.0734493	-1.17028	-0.980792	-9.03168	-0.00631654	0.00232505	-0.0145432	-0.263184	0.189209	1.05444	0.79147	0.194633	-0.54863	0.186274	9.44123	0.892829	3.39665	-0.0142679	0.00686415	-0.0104164	-0.846436	-0.304688	-0.618164	-0.012703	0.0705891	-0.976207	-0.204635	-0.591938	3.77889	-8.94662	-0.0322282	0.00369219	-0.00188966	-0.409912	-0.51123	1.0061	
62	0.587489	0.0718966	0.806019	-0.00451895	-8.84823	0.656629	-2.84967	-0.00144795	-0.0120296	0.015096	0.870605	-0.168701	0.706055	-0.0775027	0.0339816	-0.994423	-0.0629468	-1.3536	1.26006	-9.41074	-0.0103424	0.00956736	-0.0113232	-0.0949707	-0.287109	1.12988	0.0943906	0.0475694	-0.987462	0.117247	1.63457	-2.03249	-8.54507	0.0657231	0.0218037	-0.00475131	-0.569092	0.101807	0.906982	0.172357	0.0689256	-0.849105	0.494533	3.55047	-8.24582	-4.42469	0.00702685	-0.00751434	-0.0290114	-0.662354	0.771973	0.325684	0.166866	0.106158	-0.93266	-0.301713	2.51208	5.7432	-7.57758	-0.0206453	0.00549268	0.00340447	-0.624268	-0.696777	0.625	0.127083	-0.168588	-0.521962	-0.826428	4.13004	9.16836	4.2669	-0.00789954	0.014007	-0.0162905	-0.874512	-0.794678	-0.231934	-0.148062	0.0838996	-0.985035	0.0272952	-2.48116	-0.506299	-8.71361	0.0317415	0.00659895	-0.0151866	-0.0751953	-0.0224609	1.07129	0.784067	-0.16704	-0.523221	-0.289095	9.46159	0.325017	4.16533	0.00848573	0.0290159	-0.0253852	-0.875	0.123535	-0.627197	0.0345359	0.0532486	0.995299	-0.0731587	-1.16674	-0.973637	-9.03916	-0.00701225	-0.00360124	-0.008758	-0.265625	0.191406	1.05444	0.791409	0.194838	-0.54861	0.18638	9.43962	1.0141	3.39345	0.0240916	0.00607875	0.00212067	-0.842041	-0.304688	-0.620361	-0.0126522	0.070577	-0.976133	-0.204995	-0.580232	3.77266	-8.96801	-0.0271658	0.00839747	-0.0037846	-0.407715	-0.506836	1.00146	
63	0.5876	0.0719872	0.805931	-0.00433837	-8.83107	0.691925	-2.85096	-0.00767434	-0.0122901	0.014782	0.875	-0.170898	0.710449	-0.0774614	0.0340556	-0.994429	-0.0628524	-1.38932	1.35534	-9.44143	-0.0155479	0.0100804	-0.0216515	-0.0949707	-0.287109	1.12744	0.0943421	0.0478696	-0.987329	0.118276	1.70779	-1.90197	-8.36872	0.0857179	0.0021034	-0.0177534	-0.569092	0.0996094	0.906982	0.172572	0.0688151	-0.849157	0.494384	3.43918	-7.97458	-4.46934	-0.00626662	0.0117837	-0.00100476	-0.664551	0.771973	0.325684	0.166707	0.106732	-0.932823	-0.301093	2.63817	5.93111	-7.51012	-0.0347396	0.00216107	-0.016667	-0.626221	-0.699219	0.629639	0.126917	-0.168702	-0.521956	-0.826434	4.25339	8.87598	4.27574	0.0200092	0.00786372	-0.0222877	-0.865723	-0.796875	-0.225586	-0.148151	0.0839942	-0.985013	0.0273233	-2.46391	-0.623876	-8.73061	0.0215691	0.00241399	-0.0227186	-0.072998	-0.0224609	1.07544	0.78409	-0.166983	-0.523099	-0.289287	9.51757	0.268711	4.23929	-0.00245175	0.0222499	-0.0212414	-0.872803	0.121338	-0.622314	0.0344735	0.0534091	0.995317	-0.0728224	-1.18264	-0.951036	-9.01785	0.00267542	0.00820537	-0.0141776	-0.26123	0.198486	1.05225	0.791358	0.195012	-0.548679	0.186209	9.45639	0.924689	3.32495	-0.00155718	0.00699083	-0.00372707	-0.837402	-0.306641	-0.611328	-0.0125236	0.0706459	-0.976079	-0.205237	-0.581532	3.7916	-8.96311	-0.009186	0.00828695	-0.00448355	-0.409912	-0.509033	1.00854	
64	0.587616	0.071959	0.805925	-0.00389196	-8.86657	0.669718	-2.82806	-0.0165204	0.00158173	0.00830213	0.870605	-0.170898	0.706055	-0.0772656	0.0341971	-0.994438	-0.062883	-1.36793	1.35949	-9.47906	-0.0105586	0.0281938	-0.0278038	-0.0927734	-0.284912	1.12988	0.0942577	0.0477383	-0.98752	0.11679	1.94495	-2.07423	-8.4663	-0.0512163	-0.00720404	-0.00800797	-0.571289	0.101807	0.900146	0.172533	0.0693555	-0.848815	0.494909	3.49111	-8.05936	-4.52971	0.0296676	-0.00520299	-0.0144955	-0.669189	0.776367	0.321289	0.167099	0.106566	-0.932565	-0.301737	2.50798	5.74888	-7.56132	-0.0612752	0.0296912	-0.00284041	-0.63501	-0.697021	0.627441	0.12684	-0.168694	-0.521922	-0.826469	4.19206	8.94077	4.21661	-0.00356204	0.0104852	-0.0198532	-0.86792	-0.80127	-0.227539	-0.148221	0.0842266	-0.984971	0.0277358	-2.48092	-0.537659	-8.81667	0.0250833	0.00301159	-0.0191774	-0.0727539	-0.0246582	1.07983	0.784039	-0.167014	-0.523108	-0.28939	9.46652	0.281386	4.23289	-0.00246413	0.0131994	-0.0229137	-0.873047	0.123535	-0.624756	0.0344454	0.0534669	0.99532	-0.0727482	-1.18944	-0.961428	-9.0522	0.00322068	0.00825982	-0.0222623	-0.260986	0.193848	1.04785	0.791344	0.195106	-0.548642	0.186283	9.47463	0.869277	3.39573	0.0112244	0.0121982	0.00264156	-0.837402	-0.306641	-0.620361	-0.0125781	0.070596	-0.976032	-0.205475	-0.592941	3.79209	-8.93344	-0.0049148	0.00397132	-0.00673833	-0.412354	-0.506836	1.00146	
65	0.587504	0.0720181	0.806003	-0.00343311	-8.83308	0.670323	-2.85235	-0.0131685	0.00424423	0.0140937	0.873047	-0.173096	0.710449	-0.0774014	0.0342513	-0.994426	-0.0628651	-1.33423	1.28811	-9.33977	-0.011383	-0.000110792	-0.0197999	-0.0949707	-0.282959	1.125	0.0940852	0.0479755	-0.987497	0.117034	1.84172	-1.9589	-8.53076	0.0267689	-0.00811588	-0.00713504	-0.569092	0.104004	0.900146	0.172163	0.0694629	-0.848993	0.494717	3.54889	-8.10844	-4.35295	0.00711988	-0.00986041	0.00608121	-0.666992	0.778564	0.327881	0.16711	0.106618	-0.932548	-0.301762	2.43595	5.8269	-7.53812	0.0188418	-0.00796652	-0.0154658	-0.626465	-0.694824	0.629639	0.126747	-0.16928	-0.521107	-0.826878	4.22822	8.94806	4.29957	-0.0383174	-0.00302021	0.0012976	-0.870361	-0.79248	-0.22998	-0.148198	0.0844026	-0.984964	0.0275629	-2.44188	-0.582076	-8.72512	0.0191553	0.00523871	-0.0181887	-0.0705566	-0.0288086	1.07349	0.784073	-0.166646	-0.523249	-0.289255	9.51146	0.326231	4.20198	0.0303394	0.0155211	-0.0216862	-0.87085	0.125732	-0.617676	0.0342892	0.0532812	0.995316	-0.0730118	-1.16583	-0.971341	-9.01565	0.015186	0.00776937	-0.0214217	-0.260986	0.193848	1.05005	0.79128	0.195261	-0.54874	0.186098	9.44481	1.0121	3.35661	-0.00913983	-6.30842e-05	-0.00777157	-0.844238	-0.306885	-0.611328	-0.0125874	0.070628	-0.976096	-0.205156	-0.592784	3.7921	-8.94816	0.0282056	0.00826468	-0.00859317	-0.409912	-0.51123	0.999268	
66	0.587522	0.0720539	0.805988	-0.00310528	-8.89663	0.683829	-2.88676	-0.00726853	-0.00635538	0.00808514	0.873291	-0.17749	0.706299	-0.0775479	0.0340363	-0.994435	-0.0626696	-1.40353	1.2228	-9.48913	0.0196688	0.00397781	-0.00226406	-0.097168	-0.284912	1.12988	0.0939436	0.0482259	-0.987389	0.117948	1.92895	-1.93464	-8.35453	0.0389444	0.000548813	-0.0126091	-0.573486	0.0998535	0.904785	0.171823	0.0697382	-0.848964	0.494848	3.45713	-7.57069	-4.27239	-0.0409702	-0.0137087	-0.00472657	-0.664795	0.778564	0.325684	0.167201	0.106846	-0.932557	-0.301606	2.50107	5.88062	-7.474	-0.0132747	0.0292953	-0.027008	-0.630859	-0.694824	0.627441	0.12666	-0.169234	-0.520643	-0.827193	4.21835	8.90801	4.3731	-0.0288002	0.0252721	-0.021846	-0.876709	-0.794678	-0.231934	-0.147949	0.0843413	-0.985009	0.0274912	-2.39757	-0.581559	-8.74095	0.0153534	0.0462618	-0.0115121	-0.072998	-0.0224609	1.07983	0.784147	-0.166709	-0.522934	-0.289589	9.51759	0.26157	4.23969	-0.00739141	0.0278005	-0.0221178	-0.877441	0.125732	-0.622559	0.0342434	0.0534118	0.995326	-0.0728027	-1.16422	-0.961893	-9.02846	-0.0068425	0.0107476	-0.0158316	-0.260986	0.19165	1.05225	0.791347	0.195364	-0.548622	0.186055	9.44468	0.924636	3.36114	0.0165054	0.0153365	-0.00379533	-0.842041	-0.306885	-0.618164	-0.0123772	0.0706249	-0.975861	-0.206287	-0.590005	3.81168	-8.92744	-0.0307206	0.00553435	-0.00435207	-0.409912	-0.509033	1.00391	
67	0.587585	0.0721167	0.805937	-0.00287039	-8.82307	0.732509	-2.82365	-0.00543269	0.00039908	0.00471983	0.873047	-0.175293	0.706055	-0.0771998	0.0343897	-0.994427	-0.0630198	-1.41946	1.41937	-9.36515	-0.0189952	0.0201064	-0.0209476	-0.0949707	-0.287109	1.12524	0.0944392	0.0480315	-0.987554	0.11624	1.82784	-1.85446	-8.43822	-0.101268	0.0333749	-0.00578105	-0.564697	0.0908203	0.905029	0.171803	0.0693588	-0.850171	0.49283	3.52613	-8.15873	-4.45636	-0.0632217	0.00416662	0.00887093	-0.658203	0.778564	0.327881	0.167331	0.106728	-0.932325	-0.30229	2.49598	5.75932	-7.47882	-0.0110184	0.01022	-0.00997192	-0.624023	-0.701172	0.625	0.127391	-0.168634	-0.520256	-0.827447	4.15867	8.75844	4.2472	0.0160331	0.0560734	0.000420667	-0.874512	-0.794678	-0.231934	-0.147774	0.0844209	-0.985026	0.0275504	-2.44314	-0.509576	-8.83449	0.00359699	0.0226262	-0.0144365	-0.0773926	-0.0202637	1.07129	0.784183	-0.166459	-0.522936	-0.289631	9.49232	0.356383	4.21567	0.0207405	0.0244517	-0.0248717	-0.866455	0.123535	-0.624756	0.0341202	0.0534186	0.995375	-0.0721848	-1.16455	-0.956163	-9.03638	-0.0027869	0.00469198	-0.0179427	-0.262939	0.184814	1.05005	0.79153	0.195493	-0.54843	0.185708	9.49739	0.940023	3.35753	-0.012766	0.0203221	-0.012876	-0.8396	-0.306641	-0.613525	-0.0124975	0.0705912	-0.97586	-0.206298	-0.59586	3.8111	-8.97654	-0.0141662	0.00160687	-0.00487206	-0.409668	-0.513428	1.00391	
68	0.587498	0.0721399	0.805999	-0.00266716	-8.89128	0.671073	-2.90481	-0.00260425	-0.000668941	0.00237314	0.873047	-0.175293	0.701904	-0.0772928	0.0342168	-0.994427	-0.06301	-1.36933	1.30534	-9.40051	-0.0078121	0.0100764	-0.0131454	-0.097168	-0.287109	1.12744	0.0944261	0.0481996	-0.987516	0.1165	1.9142	-1.93219	-8.57443	0.00963701	0.00510686	-0.00292298	-0.577637	0.102051	0.906982	0.171687	0.0693562	-0.850843	0.491711	3.52554	-8.07215	-4.61993	-0.0678637	-0.0134799	-0.0122515	-0.664551	0.771973	0.332275	0.167742	0.107026	-0.932388	-0.301764	2.5706	5.82079	-7.68855	0.0324714	0.0226724	-0.0183423	-0.624023	-0.699219	0.627441	0.12779	-0.167662	-0.52121	-0.826982	4.26233	9.40675	4.54119	0.0570853	0.0450419	-0.0361269	-0.86792	-0.796875	-0.229736	-0.147591	0.0843164	-0.98507	0.0272883	-2.45793	-0.565479	-8.64359	0.0191347	0.00820478	-0.0108627	-0.081543	-0.0246582	1.06714	0.784279	-0.166495	-0.52261	-0.28994	9.48977	0.323452	4.26892	-0.0128605	0.0280533	-0.0191066	-0.868652	0.125732	-0.624756	0.0341202	0.0534186	0.995375	-0.0721848	-1.16455	-0.956163	-9.03638	-0.0027869	0.00469198	-0.0179427	-0.262939	0.184814	1.05005	0.791653	0.195453	-0.548291	0.185635	9.42678	0.97139	3.39651	0.00546283	0.0116647	-0.00228409	-0.841797	-0.309082	-0.618164	-0.0122741	0.0705602	-0.975557	-0.207749	-0.592682	3.85451	-8.92792	-0.0561529	0.0177002	0.00316128	-0.409668	-0.517822	1.00171	
69	0.587454	0.0722571	0.806021	-0.0027141	-8.85384	0.674257	-2.83522	0.00670844	0.00441315	0.00441134	0.87085	-0.175293	0.706055	-0.0771775	0.0342667	-0.994432	-0.0630425	-1.3755	1.35411	-9.45235	-0.00495556	0.0105525	-0.0103491	-0.0993652	-0.284912	1.13208	0.0942425	0.0482352	-0.987576	0.11613	1.98098	-1.93684	-8.33435	-0.00703958	-0.00567278	-0.0124729	-0.575439	0.095459	0.909424	0.171413	0.069741	-0.85091	0.491637	3.58376	-8.02089	-4.46985	0.000745339	-0.0146312	-0.00772498	-0.664551	0.771973	0.327881	0.167424	0.107534	-0.932613	-0.301062	2.48458	6.02551	-7.52926	0.040282	0.00270051	-0.0344293	-0.624023	-0.703613	0.629639	0.12771	-0.168238	-0.520939	-0.827048	4.22858	8.91879	4.05751	-0.0384304	-0.025355	0.0111821	-0.872314	-0.796875	-0.234131	-0.147317	0.0843997	-0.985094	0.0276309	-2.39343	-0.552183	-8.81413	0.0220946	0.0165721	-0.0129493	-0.0776367	-0.0158691	1.07739	0.784174	-0.166457	-0.522738	-0.290013	9.52346	0.386801	4.2332	0.00163659	0.0163741	-0.02321	-0.874756	0.116943	-0.626953	0.0341202	0.0534186	0.995375	-0.0721848	-1.16455	-0.956163	-9.03638	-0.0027869	0.00469198	-0.0179427	-0.262939	0.184814	1.05005	0.791634	0.195715	-0.548254	0.185551	9.43372	1.03864	3.39918	0.0179956	0.0147833	-0.00323371	-0.839844	-0.304443	-0.618164	-0.0122035	0.0705071	-0.975606	-0.207538	-0.58484	3.82052	-8.94167	0.0181391	0.00689158	-0.00486919	-0.409912	-0.51123	0.994873	
70	0.587374	0.0723554	0.80607	-0.00277384	-8.89782	0.679884	-2.89665	0.00941815	0.00510878	0.00294806	0.875488	-0.179688	0.708496	-0.0771372	0.0342522	-0.994433	-0.0630782	-1.33076	1.33479	-9.42523	-0.00973716	0.0145884	-0.0152376	-0.097168	-0.284912	1.12744	0.0942963	0.0482479	-0.987593	0.115932	1.86812	-1.90148	-8.53115	-0.014776	0.00651273	-0.00486117	-0.566895	0.0952148	0.902588	0.171414	0.069503	-0.851113	0.491317	3.45897	-8.10806	-4.52422	0.00422993	0.00729068	0.000833595	-0.664551	0.771973	0.327881	0.1674	0.10691	-0.932113	-0.30284	2.47726	5.64886	-7.53526	-0.0802765	0.00751148	0.00819287	-0.630615	-0.699219	0.627441	0.127423	-0.168732	-0.520634	-0.827184	4.29404	8.78415	4.26332	-0.00851662	0.00597221	-0.0182621	-0.865967	-0.794678	-0.234131	-0.146946	0.0844863	-0.985149	0.0273893	-2.4031	-0.467758	-8.63433	0.00380852	0.0222345	-0.0187095	-0.0727539	-0.0268555	1.07129	0.78417	-0.166608	-0.522673	-0.290057	9.46906	0.295481	4.27998	0.00296615	0.0180467	-0.0121622	-0.87085	0.125732	-0.627197	0.0336275	0.0526386	0.99548	-0.0715373	-1.16823	-0.939086	-9.03184	-0.00844737	0.0086266	-0.0178665	-0.260986	0.19165	1.05005	0.791564	0.195633	-0.548421	0.185441	9.53533	0.92809	3.33203	-0.0180561	0.00432662	0.00130034	-0.844238	-0.304688	-0.611328	-0.0121381	0.0704352	-0.975566	-0.207758	-0.594845	3.83849	-8.94479	-0.0158391	0.00926369	0.000965446	-0.409668	-0.515625	1.00854	
71	0.587476	0.0724551	0.805986	-0.00300738	-8.85941	0.746843	-2.84183	0.00604213	-0.00921792	-0.00105384	0.871094	-0.17749	0.710449	-0.0770557	0.0343029	-0.994415	-0.0634349	-1.34691	1.3565	-9.29749	-0.0263156	0.00428953	-0.016056	-0.0991211	-0.289307	1.1228	0.0941353	0.0478735	-0.987734	0.115015	1.90268	-2.05313	-8.3498	-0.0243555	-0.00407559	0.00227691	-0.564697	0.0908203	0.907227	0.171154	0.0694967	-0.851207	0.491247	3.52796	-7.71193	-4.43503	-0.0293526	-0.00539003	0.00918041	-0.6604	0.776367	0.330078	0.167091	0.106882	-0.932576	-0.301593	2.53612	5.91543	-7.25065	0.0644183	0.00478734	-0.0129683	-0.624023	-0.698975	0.625	0.127268	-0.168961	-0.520582	-0.827193	4.18436	9.03803	4.42715	-0.0180736	9.83773e-05	-0.0185448	-0.865967	-0.79248	-0.232178	-0.146858	0.0844987	-0.985165	0.0272314	-2.45589	-0.647914	-8.64343	0.0215116	0.0125241	-0.0174278	-0.0795898	-0.0202637	1.07959	0.784373	-0.166116	-0.522653	-0.289823	9.54676	0.423128	4.20576	0.0299743	0.0165702	-0.0164181	-0.872803	0.121338	-0.622314	0.0339056	0.0523648	0.995487	-0.0715052	-1.17261	-0.928346	-9.03652	0.0016111	-0.00596935	-0.0157108	-0.260986	0.19165	1.05005	0.791607	0.195803	-0.548284	0.185483	9.41731	1.03518	3.38814	0.00686354	0.0144479	-0.00291987	-0.842041	-0.304688	-0.615967	-0.0121931	0.0703799	-0.975513	-0.208021	-0.567269	3.8272	-8.92553	0.00866843	0.000808431	-0.00501012	-0.409668	-0.515625	0.99707	
72	0.587676	0.0723824	0.805847	-0.00276394	-8.85058	0.672667	-2.88929	-0.0126128	-0.0126581	0.00429404	0.875244	-0.173096	0.704102	-0.076864	0.034372	-0.994447	-0.063137	-1.41517	1.35142	-9.31593	0.0188079	0.0253879	-0.0190661	-0.0949707	-0.282959	1.125	0.0939435	0.0481343	-0.987588	0.116312	1.91469	-1.69924	-8.49072	0.0457997	0.00807631	-0.00333383	-0.569092	0.0996094	0.906982	0.1712	0.069317	-0.851567	0.490631	3.49541	-7.86688	-4.42927	-0.0567543	0.00726807	0.00386426	-0.664551	0.769775	0.325684	0.167095	0.107031	-0.932474	-0.301855	2.42262	5.98129	-7.41944	-0.0212514	0.00971586	-0.029494	-0.624023	-0.698975	0.622803	0.127096	-0.168879	-0.520719	-0.82715	4.15987	8.70752	4.38274	0.010806	0.00836553	-0.0308392	-0.870117	-0.799072	-0.231934	-0.146916	0.0845384	-0.985154	0.0272112	-2.47602	-0.526558	-8.79602	0.0180795	0.00465158	-0.0172768	-0.0754395	-0.0158691	1.07959	0.784434	-0.166206	-0.522547	-0.289798	9.41329	0.31336	4.21654	-0.00181309	0.022133	-0.0084151	-0.875244	0.125732	-0.629395	0.0338718	0.0524989	0.995491	-0.071379	-1.16524	-0.915454	-9.02547	-0.000217141	0.00961671	-0.0162173	-0.268066	0.193848	1.05444	0.79169	0.195693	-0.548231	0.185401	9.50557	0.938996	3.37227	-0.00966619	0.0179408	-0.000505861	-0.842041	-0.30249	-0.61377	-0.0122542	0.0703195	-0.97554	-0.207911	-0.580305	3.81839	-8.92813	-0.0113968	0.00592815	-0.00107532	-0.411865	-0.515625	0.99707	
73	0.587743	0.0723237	0.805805	-0.00260558	-8.85811	0.700595	-2.78466	-0.00159149	0.00318083	0.000704072	0.875	-0.170898	0.710449	-0.0768892	0.0343756	-0.994437	-0.0632542	-1.45712	1.35288	-9.5402	-0.0163652	0.0095339	-0.0168062	-0.0927734	-0.284912	1.12988	0.0943119	0.0481141	-0.98774	0.114713	1.81789	-2.20894	-8.50289	-0.0546589	0.00176025	-0.0109377	-0.569092	0.0974121	0.902588	0.171353	0.0691474	-0.852008	0.489835	3.45137	-8.01256	-4.48452	-0.0492588	0.00821637	-0.00025964	-0.659912	0.769775	0.334473	0.166934	0.107456	-0.932772	-0.300869	2.52222	5.8138	-7.60781	0.0834497	0.0107843	-0.0292456	-0.628418	-0.697021	0.634277	0.12738	-0.168609	-0.521956	-0.826382	4.25174	9.19748	4.19561	0.0575524	0.0121822	-0.00821548	-0.86792	-0.799072	-0.229736	-0.147186	0.0846976	-0.985095	0.0273926	-2.45258	-0.608159	-8.85314	0.023416	0.0107736	-0.0242321	-0.072998	-0.0202637	1.07764	0.784491	-0.166428	-0.522268	-0.29002	9.53085	0.30514	4.23528	-0.00549177	0.0186845	-0.0158159	-0.87085	0.123535	-0.627197	0.0339076	0.0526717	0.995471	-0.0715035	-1.17167	-0.943654	-9.05844	0.0204455	0.00485194	-0.0200317	-0.265381	0.187012	1.04785	0.791632	0.196007	-0.548082	0.185758	9.40769	1.06173	3.41612	0.0298555	0.0153423	0.00363336	-0.842041	-0.306885	-0.618164	-0.0122723	0.0702764	-0.975603	-0.207628	-0.57569	3.83639	-8.91778	0.0385486	0.00529667	-0.00543272	-0.407471	-0.513428	0.999268	
74	0.58758	0.0722074	0.805934	-0.00264827	-8.87417	0.717034	-2.89052	0.000720995	0.00377614	-0.00798707	0.875244	-0.175293	0.704102	-0.0768667	0.0345744	-0.99444	-0.0631263	-1.29593	1.33822	-9.37215	-0.0263532	0.0107608	-0.0146861	-0.0930176	-0.282715	1.12744	0.0939719	0.0477357	-0.987697	0.115519	2.0213	-1.77632	-8.48166	0.0330586	-0.00559413	0.0221801	-0.562744	0.0996094	0.902588	0.171309	0.0690314	-0.85237	0.489237	3.5709	-8.15537	-4.65809	0.00632316	0.00120053	0.00814475	-0.662598	0.778564	0.327881	0.166894	0.107636	-0.932812	-0.300705	2.3926	6.00818	-7.60126	-0.0525547	-0.00954809	-0.0131979	-0.626221	-0.701416	0.629639	0.127216	-0.168842	-0.521979	-0.826345	4.19418	8.95754	4.14852	-0.00894119	-0.00289556	-0.0152912	-0.865967	-0.794678	-0.227783	-0.147487	0.0848742	-0.985035	0.0273882	-2.44915	-0.482215	-8.61911	0.0251412	-0.0143292	-0.0220942	-0.0771484	-0.0246582	1.07544	0.784548	-0.166056	-0.522529	-0.289611	9.43937	0.418164	4.25254	0.0188826	0.0161318	-0.0121942	-0.875244	0.125732	-0.624756	0.033844	0.0527565	0.995467	-0.0715355	-1.16955	-0.937413	-9.01371	0.0127299	0.0105892	-0.0198738	-0.263184	0.189209	1.05005	0.791682	0.195777	-0.548135	0.185629	9.47497	0.941295	3.39193	-0.00897102	0.0105563	0.00645492	-0.844238	-0.304688	-0.615967	-0.0122364	0.0703131	-0.975671	-0.207298	-0.58424	3.82788	-8.95273	0.0144374	0.00610725	-0.00382894	-0.405029	-0.517822	1.00171	
75	0.587732	0.0721242	0.80583	-0.00270704	-8.84683	0.643742	-2.84566	0.00240928	-0.0123924	-0.00195329	0.873291	-0.179688	0.704102	-0.0768893	0.0344766	-0.994442	-0.0631201	-1.31736	1.27064	-9.478	0.00177819	0.0139317	-0.020317	-0.0949707	-0.282715	1.12744	0.0936544	0.0478311	-0.987764	0.115167	1.85137	-1.83739	-8.37235	-0.0451206	-0.0106003	-0.00269288	-0.564697	0.0908203	0.905029	0.171039	0.0691166	-0.85237	0.48932	3.5618	-7.67058	-4.40788	-0.0383173	-0.00916493	0.00013998	-0.657715	0.769775	0.334473	0.166668	0.107622	-0.932618	-0.301434	2.4446	5.76941	-7.45263	-0.00902618	-0.00479511	-0.0176442	-0.626465	-0.697021	0.629639	0.127091	-0.169115	-0.521707	-0.82648	4.23752	8.88141	4.21108	-0.0231648	0.00424415	-0.0122311	-0.868164	-0.79248	-0.22998	-0.148089	0.0850251	-0.98493	0.0274524	-2.39962	-0.645625	-8.74767	0.0225575	-0.0113997	-0.0199744	-0.072998	-0.0224609	1.07764	0.784513	-0.166461	-0.52233	-0.289831	9.53385	0.258017	4.27782	-0.00194034	0.0127616	-0.014556	-0.872803	0.121338	-0.622314	0.0336466	0.0524804	0.995475	-0.0717202	-1.15942	-0.934792	-9.0555	0.00810491	0.00627947	-0.0167676	-0.260986	0.19165	1.05225	0.791564	0.195931	-0.548157	0.185906	9.42295	1.03027	3.37535	0.0111006	0.00513477	0.00132222	-0.835205	-0.308838	-0.618164	-0.0122043	0.0702668	-0.975653	-0.207398	-0.578482	3.83104	-8.94185	0.0213746	0.00575625	-0.00437707	-0.405029	-0.515625	1.00171	
76	0.588053	0.0721122	0.805597	-0.0026603	-8.88732	0.744034	-2.86185	-0.00624402	-0.0217921	0.000578791	0.871094	-0.17749	0.710449	-0.0767107	0.0344676	-0.99446	-0.063056	-1.31278	1.32206	-9.44129	-0.0082794	0.0210513	-0.0139451	-0.0905762	-0.289307	1.12988	0.0938073	0.0476836	-0.987855	0.114317	1.85033	-2.05177	-8.4985	-0.0212736	0.0151906	0.000124868	-0.564697	0.0888672	0.907227	0.170986	0.0687715	-0.852796	0.488644	3.48083	-8.03061	-4.58281	-4.7466e-05	0.00958937	0.0106126	-0.664551	0.769775	0.332275	0.16653	0.107668	-0.932849	-0.300779	2.52871	5.70488	-7.63451	0.0628868	0.0259723	-0.0143271	-0.628174	-0.703613	0.627441	0.126928	-0.16895	-0.522365	-0.826123	4.19022	8.8725	4.245	0.0358813	0.011338	-0.027767	-0.86792	-0.796875	-0.225586	-0.148608	0.085101	-0.984845	0.0274563	-2.39973	-0.487438	-8.73555	0.0294398	-0.0123612	-0.0153477	-0.0732422	-0.0180664	1.07544	0.784399	-0.166403	-0.522539	-0.289796	9.41914	0.35613	4.20918	-0.00449504	0.0107426	-0.0234136	-0.87085	0.123535	-0.624756	0.0339312	0.0527477	0.995448	-0.0717551	-1.16082	-0.94411	-9.0019	-0.00110656	-0.00339159	-0.0128659	-0.265381	0.187012	1.05005	0.791615	0.19578	-0.548149	0.185871	9.44032	0.946426	3.38643	0.00236429	0.012082	0.00814322	-0.846436	-0.306885	-0.613525	-0.0122796	0.0702741	-0.975695	-0.207196	-0.590209	3.81753	-8.93181	0.000261414	0.00297086	-0.00611644	-0.405273	-0.513428	0.999268	
77	0.588416	0.0718558	0.805355	-0.0024973	-8.84568	0.692399	-2.82492	-0.0108564	-0.0157943	-0.00357001	0.875488	-0.17749	0.704102	-0.0765788	0.0343475	-0.994499	-0.0626646	-1.41949	1.38018	-9.3797	0.0275094	0.00887127	-0.0129098	-0.0949707	-0.287109	1.13232	0.0936941	0.04784	-0.987734	0.115384	1.86292	-1.94498	-8.58015	0.0636223	0.000951164	0.000457675	-0.564697	0.0952148	0.900391	0.170946	0.0687116	-0.853223	0.487921	3.51221	-7.91872	-4.53056	-0.0540391	0.000639131	-0.00774838	-0.655518	0.769775	0.338867	0.166548	0.107483	-0.933073	-0.300142	2.45481	6.12413	-7.48807	-0.0200223	-0.00540396	0.00123042	-0.628418	-0.701416	0.636475	0.126747	-0.16878	-0.522471	-0.826119	4.17666	9.09142	4.12143	-0.00656203	0.0114904	-0.0253249	-0.863525	-0.799072	-0.229736	-0.148921	0.0852358	-0.984787	0.0274086	-2.4456	-0.651527	-8.78537	0.0125958	0.0031281	-0.021529	-0.072998	-0.0202637	1.07129	0.78437	-0.166539	-0.522447	-0.289961	9.55444	0.319041	4.28627	0.00566639	0.0117798	-0.0138258	-0.87085	0.125732	-0.629395	0.0339443	0.0529276	0.995459	-0.0714712	-1.1791	-0.935714	-9.01031	-0.0124542	0.00648354	-0.0111131	-0.265381	0.187012	1.04785	0.79159	0.195626	-0.548265	0.185799	9.47075	0.987102	3.37885	-0.00683597	0.0058543	0.00434955	-0.8396	-0.308838	-0.615723	-0.0124393	0.0702581	-0.975732	-0.207015	-0.586717	3.82684	-8.93773	0.0151821	0.0019876	-0.00482671	-0.409912	-0.509033	1.00171	
78	0.588717	0.0717538	0.805144	-0.00241109	-8.89766	0.672316	-2.89072	-0.00165809	-0.0201644	-0.000222338	0.875488	-0.179688	0.699707	-0.0762899	0.0343372	-0.994535	-0.0624636	-1.36172	1.2178	-9.36885	0.00251624	0.0357647	-0.0152631	-0.0993652	-0.284912	1.125	0.0938288	0.0477182	-0.987805	0.114717	1.84216	-2.00431	-8.46333	-0.0266786	0.0114798	-0.00494332	-0.569092	0.0974121	0.907227	0.170776	0.0687721	-0.853315	0.487812	3.42986	-7.96212	-4.58169	0.029496	-0.0017525	0.00672798	-0.664551	0.771973	0.332275	0.166288	0.107336	-0.933005	-0.300547	2.54265	5.5734	-7.48859	0.0332811	0.0107542	-0.0180848	-0.621826	-0.698975	0.625	0.126426	-0.168937	-0.522406	-0.826177	4.23974	9.02118	4.36784	-0.00155964	0.00625693	-0.0258188	-0.870117	-0.799072	-0.229736	-0.149392	0.0852185	-0.984719	0.027373	-2.47094	-0.604901	-8.63252	0.0239411	-0.01427	-0.0140301	-0.072998	-0.0224609	1.07764	0.784186	-0.166564	-0.522704	-0.289981	9.47673	0.358411	4.15651	0.000857224	0.0110144	-0.0228882	-0.873047	0.125732	-0.624756	0.0340343	0.0530109	0.995455	-0.0714238	-1.16236	-0.918967	-9.02764	0.0123358	0.00441015	-0.0178262	-0.267822	0.191406	1.05225	0.79151	0.195555	-0.548437	0.185707	9.45037	0.947704	3.35385	0.00126529	0.00304821	0.000183911	-0.844238	-0.306885	-0.613525	-0.0124032	0.0702374	-0.975711	-0.207127	-0.581638	3.81011	-8.95565	-0.00723639	0.00865606	-0.00363728	-0.402832	-0.515625	0.994873	
79	0.5892	0.0721756	0.804753	-0.00263126	-8.83439	0.69311	-2.78296	0.0138942	-0.0256036	0.0128571	0.873047	-0.175293	0.706055	-0.0761278	0.0343775	-0.99458	-0.061914	-1.31541	1.26459	-9.39147	0.014421	0.0156016	-0.0214037	-0.0949707	-0.284912	1.13208	0.0937046	0.0478381	-0.98777	0.115067	1.72	-2.03358	-8.40771	0.0299791	-0.00564115	-0.00766694	-0.566895	0.0910645	0.905029	0.170652	0.0688669	-0.853284	0.487895	3.41288	-7.73598	-4.47757	0.0109096	-0.00677511	-0.000611845	-0.657471	0.765381	0.33252	0.165915	0.107211	-0.933063	-0.300618	2.29028	5.91486	-7.54922	-0.010516	-0.0237135	-0.0193061	-0.62207	-0.697021	0.627441	0.126161	-0.168773	-0.521712	-0.82669	4.19669	9.04102	4.13397	-0.0528184	0.0129121	-0.0177233	-0.86792	-0.80127	-0.229736	-0.150345	0.085091	-0.984571	0.0278352	-2.54325	-0.51026	-8.66871	0.0448218	-0.0344182	-0.0145525	-0.0688477	-0.0202637	1.07764	0.783995	-0.166832	-0.522693	-0.290362	9.52574	0.362094	4.33042	-0.0195195	0.00659985	-0.0223257	-0.873047	0.125732	-0.622559	0.0338266	0.0533266	0.995475	-0.0710023	-1.15566	-0.920274	-9.02836	-0.0169331	0.011856	-0.010373	-0.263184	0.189453	1.04565	0.791466	0.195706	-0.548437	0.185735	9.50198	0.95398	3.38856	0.00813655	0.0102548	0.00355624	-0.842041	-0.306885	-0.613525	-0.0124452	0.070155	-0.97576	-0.20692	-0.587788	3.81211	-8.93429	0.0240838	0.00506614	-0.00270139	-0.407471	-0.513428	0.999268	
80	0.589307	0.0722019	0.804672	-0.00257418	-8.8527	0.795461	-2.79671	-0.00266986	-0.0127994	0.0046026	0.875488	-0.17749	0.704102	-0.0759533	0.034436	-0.994591	-0.0619252	-1.30699	1.23747	-9.62251	-0.00840453	0.026422	-0.0210909	-0.0952148	-0.280762	1.1272	0.0937129	0.0480171	-0.987703	0.115566	1.99329	-1.93813	-8.44412	0.0381026	-0.000223578	-0.00190408	-0.573242	0.0976562	0.902588	0.170741	0.068368	-0.853894	0.486866	3.44975	-7.7445	-4.57075	-0.0680911	0.0101438	0.0101115	-0.659912	0.765381	0.336914	0.165831	0.107103	-0.932792	-0.301543	2.53407	5.90808	-7.66895	-0.062692	0.0126116	-0.00733278	-0.626465	-0.697021	0.627441	0.126014	-0.168864	-0.52111	-0.827073	4.27093	8.88323	4.33775	-0.0569925	0.0118598	-0.0156736	-0.86377	-0.79248	-0.227783	-0.150641	0.0852059	-0.984516	0.027848	-2.55073	-0.684477	-8.74037	0.014848	0.0107592	-0.0264359	-0.0688477	-0.0158691	1.07544	0.783973	-0.16672	-0.522729	-0.290422	9.52216	0.334168	4.15473	0.0186857	0.0177695	-0.0247167	-0.874756	0.116943	-0.622314	0.0339487	0.0534923	0.995491	-0.0705942	-1.1631	-0.925373	-9.06318	-0.0233097	-0.00168735	-0.0116954	-0.262939	0.184814	1.05469	0.791447	0.195535	-0.548552	0.185659	9.45797	1.0032	3.36422	-0.0142559	0.00397987	0.00700208	-0.848877	-0.30249	-0.611328	-0.0122873	0.0700981	-0.975652	-0.207457	-0.587007	3.82921	-8.95865	-0.0343198	0.0103665	-0.00313549	-0.407471	-0.515625	1.00391	
81	0.589479	0.0719374	0.804571	-0.00241523	-8.84385	0.656557	-2.79771	-0.0109311	-0.00772977	-0.00624951	0.875488	-0.179688	0.706299	-0.075547	0.0344715	-0.994617	-0.0619803	-1.45501	1.32564	-9.50957	-0.0262815	0.03	-0.0240379	-0.0974121	-0.278564	1.12476	0.0939352	0.0477002	-0.987782	0.114835	1.75018	-1.77641	-8.55912	-0.075334	0.00931018	0.00865881	-0.566895	0.0952148	0.904785	0.170854	0.0682306	-0.854421	0.48592	3.42973	-8.05161	-4.65318	-0.0854787	0.0062412	-0.00441451	-0.655273	0.763184	0.339111	0.165993	0.107234	-0.932857	-0.301206	2.28645	5.82967	-7.73942	0.0257738	0.0237379	-0.0153657	-0.624268	-0.697021	0.627441	0.12648	-0.168284	-0.521294	-0.827004	4.16806	9.018	4.20656	0.00831276	0.0427787	-0.00154332	-0.869873	-0.80127	-0.229736	-0.150427	0.085505	-0.984536	0.0273716	-2.52418	-0.556466	-8.65228	-0.0010861	0.0218026	-0.0182796	-0.0710449	-0.0180664	1.07544	0.783999	-0.166382	-0.522899	-0.290241	9.50012	0.297717	4.17665	0.0371814	0.0112181	-0.0205106	-0.872803	0.121338	-0.620117	0.0339453	0.0536707	0.995474	-0.0707022	-1.14469	-0.918989	-9.02252	0.0143919	0.00829606	-0.019595	-0.260742	0.184814	1.05005	0.791481	0.19556	-0.548538	0.18553	9.51602	0.973864	3.38826	0.00247141	0.0170563	-0.000629187	-0.843994	-0.309082	-0.613525	-0.0123397	0.0701006	-0.975581	-0.207784	-0.577245	3.82581	-8.92298	-0.0120896	0.000509144	-0.00321636	-0.411865	-0.515625	1.00391	
82	0.589464	0.0719757	0.804578	-0.00232619	-8.90813	0.708647	-2.83796	-0.0031936	-0.00307125	0.00723938	0.871094	-0.17749	0.704102	-0.0758229	0.0342513	-0.994583	-0.0623061	-1.17985	1.31978	-9.38651	-0.00656329	0.00203861	-0.00681597	-0.101807	-0.280518	1.13208	0.0935046	0.0476003	-0.987868	0.114491	1.87225	-2.11122	-8.48914	0.0248943	-0.0147565	-0.000235501	-0.569092	0.0996094	0.906982	0.170654	0.0681853	-0.854526	0.485811	3.47273	-7.84041	-4.61235	0.00696909	-0.00691427	0.00701768	-0.659912	0.769775	0.343262	0.166011	0.107709	-0.932541	-0.302004	2.53798	5.96137	-7.43501	-0.116785	0.00189217	-0.0281529	-0.621826	-0.703613	0.627441	0.126806	-0.167807	-0.521337	-0.827024	4.2111	8.84208	4.32749	0.0390132	0.0560734	-0.036851	-0.86792	-0.796875	-0.234131	-0.150379	0.0855599	-0.984543	0.0272254	-2.37125	-0.559836	-8.7175	0.00651934	0.0121611	-0.0187578	-0.0708008	-0.0246582	1.07129	0.784104	-0.166209	-0.522803	-0.290229	9.48812	0.430329	4.25629	-0.000841025	0.0148454	-0.0186533	-0.873047	0.123535	-0.627197	0.0339016	0.0537228	0.995492	-0.0704227	-1.18882	-0.895677	-9.08689	0.00653356	0.00935518	-0.0265381	-0.265381	0.184814	1.04785	0.79147	0.195655	-0.548447	0.185741	9.45318	0.904966	3.3613	0.00902576	0.00902901	0.00514177	-0.839844	-0.30249	-0.618164	-0.0123942	0.0700884	-0.975564	-0.20787	-0.591661	3.83229	-8.93477	-0.00535218	0.00377509	-0.00562498	-0.405029	-0.517822	0.99707	
83	0.589598	0.0719199	0.804486	-0.00197869	-8.87438	0.7	-2.80721	-0.0140852	-0.00496443	0.00593576	0.87085	-0.173096	0.701904	-0.0756193	0.0342776	-0.9946	-0.0622733	-1.34826	1.20766	-9.43591	-0.00165704	0.0226843	-0.0205361	-0.0974121	-0.280762	1.1272	0.0932115	0.0477999	-0.987853	0.114773	2.02891	-1.83584	-8.50635	-0.00644102	0.00282138	-0.0106893	-0.564697	0.0952148	0.900391	0.170636	0.0681897	-0.854565	0.485748	3.51164	-8.02495	-4.63041	0.0133146	0.00557823	-0.000443218	-0.662109	0.765381	0.341309	0.165921	0.108313	-0.932371	-0.302361	2.53379	5.55594	-7.46529	0.0992191	0.0216989	-0.0519533	-0.621826	-0.699219	0.627441	0.126722	-0.168266	-0.521535	-0.826819	4.24417	8.74646	3.95041	0.0180054	-0.0288332	0.000326409	-0.865723	-0.796875	-0.225586	-0.150332	0.0858551	-0.984521	0.0273569	-2.55464	-0.636477	-8.84097	0.0197779	0.012469	-0.0284764	-0.0708008	-0.0202637	1.07764	0.78401	-0.16614	-0.522981	-0.290199	9.50224	0.27382	4.24806	0.00602676	0.000894015	-0.0222414	-0.870605	0.121338	-0.629395	0.0338152	0.0536296	0.995471	-0.0708377	-1.14756	-0.937028	-9.02561	0.0213767	0.00478084	-0.0172834	-0.260742	0.189209	1.05225	0.791362	0.195863	-0.548523	0.185761	9.48002	1.0864	3.4266	-0.00148392	0.00618058	-0.00203687	-0.837646	-0.304443	-0.615967	-0.0124325	0.0701026	-0.975589	-0.207741	-0.579184	3.81495	-8.94623	0.0106433	0.00442413	-0.00563608	-0.407471	-0.515625	0.99707	
84	0.589582	0.0719967	0.804491	-0.00167404	-8.85465	0.74697	-2.83924	-0.010495	-0.00046061	0.00906156	0.877686	-0.177246	0.69751	-0.0756216	0.0342055	-0.994638	-0.06169	-1.29789	1.37871	-9.45053	0.0127429	0.018671	-0.0206302	-0.097168	-0.282715	1.13452	0.0932239	0.0478231	-0.987862	0.114676	1.81003	-2.06544	-8.41843	-0.00684379	0.00400077	-0.00439205	-0.564697	0.0908203	0.907227	0.170553	0.0683329	-0.854463	0.485938	3.54617	-7.87335	-4.40799	0.00135867	0.00677905	-0.000985327	-0.655273	0.763184	0.339111	0.165872	0.108353	-0.932874	-0.300821	2.10956	5.80688	-7.68497	0.0476082	-0.00414819	0.00990939	-0.619629	-0.699219	0.629639	0.126504	-0.168285	-0.522131	-0.826472	4.13745	9.17786	4.20333	-0.0125924	0.0152455	-0.0244438	-0.865967	-0.796875	-0.234131	-0.150008	0.0859001	-0.984568	0.027294	-2.5016	-0.489591	-8.66138	0.0225422	0.0222949	-0.0147859	-0.0666504	-0.0202637	1.07544	0.783893	-0.166207	-0.523106	-0.290255	9.53559	0.375483	4.1974	0.00368978	0.0112232	-0.0207342	-0.875	0.123535	-0.620117	0.0339675	0.0538434	0.995509	-0.0700693	-1.13806	-0.915226	-9.06417	-0.0231997	-0.00046168	-0.0151318	-0.267822	0.189209	1.05005	0.791362	0.195588	-0.548679	0.185585	9.39826	1.01142	3.30581	-0.00803082	0.0010847	0.000530704	-0.837646	-0.304443	-0.618164	-0.0123895	0.0700508	-0.975518	-0.208094	-0.594424	3.82858	-8.91393	-0.00078682	0.00842845	-0.00302649	-0.409668	-0.517822	1.00635	
85	0.589598	0.0717049	0.804507	-0.00105234	-8.89453	0.788704	-2.80505	-0.0310564	-0.000778248	0.00436028	0.873291	-0.17749	0.704102	-0.0756257	0.0341348	-0.994649	-0.0615542	-1.34477	1.24861	-9.37742	0.00909741	0.0110357	-0.0110463	-0.101807	-0.280762	1.125	0.0931024	0.0479106	-0.987817	0.115127	1.81791	-1.98573	-8.56929	0.0220344	0.01532	-0.00835597	-0.5625	0.0974121	0.909424	0.170523	0.0681569	-0.854446	0.486002	3.45304	-7.81243	-4.69543	0.00366054	0.00901246	0.00545642	-0.659912	0.765381	0.339111	0.165389	0.107828	-0.932897	-0.301202	2.68808	5.9652	-7.5001	-0.056182	-0.0110918	-0.00454569	-0.621826	-0.699219	0.629639	0.125979	-0.168334	-0.521731	-0.826795	4.11237	8.87503	4.35174	-0.0104184	0.00254285	-0.0298555	-0.863525	-0.799072	-0.225342	-0.149939	0.0859322	-0.984577	0.0272417	-2.45544	-0.583597	-8.72919	0.0224595	0.017015	-0.0123006	-0.0666504	-0.0202637	1.06689	0.783952	-0.165917	-0.523158	-0.290167	9.4408	0.39286	4.26282	-0.000152383	0.0163271	-0.0149409	-0.875	0.123535	-0.622314	0.0340083	0.054163	0.995512	-0.0697589	-1.1488	-0.88898	-9.05097	0.00361964	0.00627627	-0.0135481	-0.265381	0.184814	1.05005	0.791376	0.195624	-0.548702	0.185424	9.57661	0.844313	3.36194	0.00678314	0.018436	0.00180682	-0.837402	-0.311035	-0.615723	-0.0123387	0.0698627	-0.975528	-0.208113	-0.580462	3.81422	-8.95368	-0.0339384	0.00674528	0.00312974	-0.414062	-0.515625	0.992676	
