40	Head	00b4120a												Throax	00b411e8												LUpArm	00b411d9												LFoArm	00b41148												RUpArm	00b411db												RFoArm	00b41204												Waist	00b411f7												Lthigh	00b411f4												Lshank	00b4111b												Rthigh	00b411c8												Rshank	00b411ee												
PacketCount	q0	q1	q2	q3	accX	accY	accZ	gyrX	gyrY	gyrZ	magX	magY	magZ	q0	q1	q2	q3	accX	accY	accZ	gyrX	gyrY	gyrZ	magX	magY	magZ	q0	q1	q2	q3	accX	accY	accZ	gyrX	gyrY	gyrZ	magX	magY	magZ	q0	q1	q2	q3	accX	accY	accZ	gyrX	gyrY	gyrZ	magX	magY	magZ	q0	q1	q2	q3	accX	accY	accZ	gyrX	gyrY	gyrZ	magX	magY	magZ	q0	q1	q2	q3	accX	accY	accZ	gyrX	gyrY	gyrZ	magX	magY	magZ	q0	q1	q2	q3	accX	accY	accZ	gyrX	gyrY	gyrZ	magX	magY	magZ	q0	q1	q2	q3	accX	accY	accZ	gyrX	gyrY	gyrZ	magX	magY	magZ	q0	q1	q2	q3	accX	accY	accZ	gyrX	gyrY	gyrZ	magX	magY	magZ	q0	q1	q2	q3	accX	accY	accZ	gyrX	gyrY	gyrZ	magX	magY	magZ	q0	q1	q2	q3	accX	accY	accZ	gyrX	gyrY	gyrZ	magX	magY	magZ	
0	0.692581	-0.0313345	-0.0874843	-0.715329	3.03945	0.807156	10.3916	-0.00545584	0.0282267	0.0173371	-0.190918	0.296875	-0.89917	0.904834	0.0352091	-0.402295	0.134888	7.61216	-0.395013	6.70015	0.0278567	0.0272083	-0.00480048	-0.525391	0.332275	-0.558594	0.778358	0.181352	0.174771	-0.575088	-4.31109	0.809975	9.8717	0.0229623	0.00977231	-0.068285	0.495117	0.187256	-0.781982	0.110794	0.166789	0.551335	-0.809899	-3.83613	-8.11001	3.71924	-0.0504745	0.0749777	0.0363592	0.0351562	0.954346	-0.386475	0.630446	0.0918463	0.176119	-0.750389	-3.48009	-1.29134	8.93666	-0.00927493	0.0152678	-0.0382182	0.269775	0.495605	-0.793701	-0.821426	-0.53457	-0.188339	-0.0634304	-4.26091	8.22979	6.80725	-0.139975	0.0597721	0.00928103	0.713379	-0.677246	-0.124268	0.720513	0.132492	-0.651779	0.196189	10.0075	-0.589168	1.12251	0.027824	-0.0176525	-0.00977656	-0.868652	0.423096	-0.130371	0.425409	-0.539424	-0.520273	-0.507312	9.767	0.796691	-1.38623	-0.231046	0.0201018	0.0210685	-1.0105	0.3125	0.150391	0.532743	-0.429529	-0.566125	-0.459557	9.73717	0.313868	-0.0552462	-0.418704	0.0405458	-0.0252873	-1.03174	0.25415	-0.0209961	0.541314	0.392971	-0.648403	0.363492	9.57392	-0.593538	-1.39686	0.129431	-0.0394741	0.0191662	-0.951416	0.464355	0.191406	0.529501	-0.511281	-0.5238	-0.428782	9.62382	-0.600682	-0.558273	-0.00819164	0.0190896	0.0184918	-0.980957	0.48999	0.0351562	
1	0.692756	-0.0309638	-0.0872574	-0.715204	2.9219	0.907872	10.4857	0.0112867	0.0376351	0.0179482	-0.188721	0.296875	-0.905518	0.904922	0.0352904	-0.401779	0.135806	7.48278	-0.305875	6.74566	-0.00774992	0.0332272	0.0273734	-0.520996	0.330078	-0.561035	0.778631	0.182661	0.175266	-0.574152	-4.43009	0.833085	9.76121	0.0180442	0.0829762	0.0712028	0.505859	0.189209	-0.779785	0.110501	0.166356	0.551744	-0.809749	-3.83344	-8.15178	3.36191	-0.0196857	-0.0237766	-0.0310213	0.0441895	0.956787	-0.391113	0.631287	0.091555	0.177335	-0.749431	-3.54055	-1.78259	9.02745	-0.0313748	0.0357661	0.0478959	0.269775	0.493408	-0.789062	-0.820991	-0.534686	-0.18938	-0.0649568	-4.3135	8.331	6.47242	0.0825426	0.0755193	0.0180585	0.715576	-0.681396	-0.121826	0.720759	0.132484	-0.651262	0.197007	9.82927	-0.773013	1.04662	0.0228812	0.0434649	0.00504672	-0.87085	0.423096	-0.132568	0.424167	-0.540676	-0.518004	-0.509337	9.72109	0.495463	-0.907323	-0.269314	0.0782	0.0145754	-1.00806	0.310303	0.159668	0.530682	-0.431803	-0.564204	-0.462165	9.66557	0.466936	0.0356684	-0.35131	0.00143609	-0.0388792	-1.02466	0.25415	-0.0119629	0.539311	0.394522	-0.64829	0.364988	9.70005	-0.359803	-1.42213	0.0660982	-0.0070132	0.0212062	-0.951172	0.457764	0.184814	0.530281	-0.510908	-0.523539	-0.428582	9.89266	-0.577502	-0.770574	0.0373137	0.0402544	0.00972653	-0.978516	0.487793	0.0373535	
2	0.693954	-0.0294324	-0.0861513	-0.714241	2.7152	0.865629	10.7276	0.00859296	0.0400414	0.0551838	-0.18457	0.30127	-0.905518	0.904829	0.0347346	-0.401645	0.13696	7.57736	-0.528779	6.68155	-0.0030327	0.0145355	0.0421765	-0.52124	0.334473	-0.561035	0.779838	0.18206	0.176867	-0.572211	-4.72608	1.05358	9.5697	-0.114931	0.0263057	0.0644451	0.501465	0.193604	-0.777588	0.111075	0.164507	0.552423	-0.809585	-3.71476	-8.58151	3.14102	-0.00315304	-0.0727588	-0.016908	0.0375977	0.954346	-0.388672	0.633065	0.0926146	0.176516	-0.747993	-3.45497	-1.35944	8.8447	0.0293994	0.00675519	0.0896361	0.271973	0.49585	-0.79834	-0.821602	-0.533395	-0.189757	-0.0667269	-4.25949	8.3052	6.50086	-0.121992	0.0342949	0.0277073	0.711426	-0.681396	-0.124023	0.721181	0.133098	-0.650119	0.198817	9.90638	-0.74353	0.911603	0.116479	0.0627095	0.0101942	-0.87085	0.423096	-0.134766	0.422959	-0.541909	-0.514613	-0.512459	9.90705	0.515533	-1.28103	0.0297255	0.0510743	-0.0136998	-1.0166	0.308105	0.157471	0.527059	-0.43445	-0.564124	-0.463924	9.81323	0.556109	0.0369405	0.0788953	-0.100715	-0.0509654	-1.02246	0.25415	-0.00512695	0.540472	0.39246	-0.649362	0.363585	9.57447	0.00092943	-1.26585	-0.173743	0.0321676	0.0333568	-0.953857	0.470703	0.188965	0.529267	-0.512382	-0.521918	-0.43005	9.73715	-0.298515	-0.745055	-0.133265	0.0160067	0.00827976	-0.983398	0.494385	0.0258789	
3	0.69561	-0.0293307	-0.0857062	-0.712685	2.73884	0.794066	10.7484	-0.00599529	0.0208711	0.106525	-0.182129	0.296875	-0.905518	0.904573	0.0346001	-0.401716	0.138474	7.49818	-0.649026	6.69113	0.0187344	-0.00372247	0.0497096	-0.516602	0.330078	-0.558594	0.781388	0.18009	0.177884	-0.570401	-4.61521	0.736352	9.53505	-0.0780937	-0.00270412	0.0735084	0.508057	0.191406	-0.773193	0.112422	0.162813	0.551667	-0.810258	-3.86131	-8.34593	3.23488	0.023197	-0.0873732	0.0142349	0.0351562	0.954346	-0.38208	0.634794	0.0922442	0.176344	-0.746613	-3.58449	-1.35198	8.85259	-0.0457885	-0.0233809	0.0669622	0.273926	0.500244	-0.795898	-0.822903	-0.531045	-0.190258	-0.0679993	-3.88428	8.27589	6.81122	-0.0583265	0.0595468	-0.0197396	0.711426	-0.681396	-0.124023	0.72093	0.133897	-0.649733	0.200446	9.92564	-0.76739	1.29062	0.0317862	0.0291426	0.00654418	-0.866699	0.423096	-0.134766	0.424867	-0.540564	-0.514449	-0.512465	9.32707	0.71696	-1.46857	0.0425734	0.0401179	0.00855078	-1.0127	0.3125	0.147949	0.527081	-0.434711	-0.565164	-0.462387	10.057	0.48665	-0.861812	0.0265989	-0.00894819	0.0141035	-1.03149	0.251709	-0.00756836	0.543086	0.3886	-0.651827	0.359401	9.65997	-0.828098	-1.76731	-0.242399	-0.00218619	0.0066152	-0.951172	0.459961	0.196045	0.52692	-0.51504	-0.519769	-0.432354	9.9879	-1.05403	-0.625029	-0.376289	0.00254181	0.0167859	-0.983154	0.487793	0.0419922	
4	0.697447	-0.0301373	-0.0857395	-0.71085	2.72151	0.395936	10.6269	0.00395091	-0.028769	0.0978476	-0.177734	0.299072	-0.90332	0.904565	0.0354399	-0.400978	0.14044	7.5169	-0.486577	6.82185	0.0618822	0.0473613	0.0295079	-0.52124	0.334473	-0.556396	0.782164	0.179681	0.177614	-0.56955	-4.73352	1.12388	9.76875	-0.034375	-0.00130397	0.0362138	0.505859	0.191406	-0.775391	0.113252	0.161105	0.550646	-0.811177	-3.92342	-8.28373	3.40451	0.0304397	-0.0723222	-0.0129741	0.0351562	0.956543	-0.391113	0.636326	0.0895131	0.177394	-0.745391	-3.46084	-1.49067	9.08668	-0.119516	-0.0558318	0.0383547	0.27832	0.497803	-0.786865	-0.823896	-0.52905	-0.191089	-0.0691811	-4.25229	7.99511	6.74775	-0.0555333	0.0367685	0.0076999	0.719971	-0.681396	-0.124023	0.721584	0.13307	-0.649163	0.200489	9.79912	-0.688414	1.25023	0.0126291	0.0398511	-0.00212796	-0.866699	0.423096	-0.138916	0.425942	-0.540336	-0.515051	-0.511208	9.5964	0.674392	-1.14138	0.0480729	0.043008	0.0018364	-1.0105	0.3125	0.145752	0.528182	-0.434155	-0.565539	-0.461193	9.7251	0.927574	-0.0462463	0.0576566	0.0268895	-0.00443675	-1.02246	0.25415	-0.00732422	0.542804	0.388516	-0.651657	0.360224	9.52281	-1.07028	-1.70935	0.0783577	0.00964729	0.0258756	-0.953369	0.459717	0.196045	0.526804	-0.515703	-0.518993	-0.432637	9.8127	-0.790357	-0.761865	-0.0198322	0.0191372	0.0121508	-0.97876	0.492188	0.041748	
5	0.698037	-0.0300105	-0.0859472	-0.710251	2.72368	0.57412	10.5539	0.0268727	0.00048106	0.0672444	-0.182617	0.305664	-0.905518	0.904667	0.0351896	-0.400323	0.141709	7.35216	-0.479002	6.73189	-0.00609194	0.0179834	0.0362209	-0.51709	0.33667	-0.561279	0.782841	0.177914	0.17905	-0.568724	-4.69375	0.918306	9.48158	-0.102512	0.0209269	0.0116715	0.508057	0.193604	-0.775391	0.113539	0.159463	0.550627	-0.811474	-3.76159	-8.5015	3.44388	0.0214144	-0.046943	-0.0265467	0.0307617	0.954346	-0.388672	0.636964	0.0891586	0.177748	-0.744804	-3.40826	-1.72399	9.03645	-0.0522315	-0.00292743	0.0449275	0.273926	0.5	-0.782227	-0.823866	-0.52889	-0.191398	-0.0698992	-4.15997	8.21467	6.98538	0.00521239	0.0513107	0.0231232	0.713379	-0.677246	-0.12207	0.721454	0.133305	-0.64912	0.200941	9.80771	-0.830568	1.18821	0.0512172	0.00786566	-0.000919837	-0.864746	0.42749	-0.138916	0.425857	-0.540269	-0.514534	-0.511869	9.68839	0.667689	-0.833422	-0.0462513	0.0618806	-0.0220624	-1.00586	0.310303	0.155029	0.528584	-0.433842	-0.565855	-0.46064	9.93486	0.520109	0.0805065	0.0504645	0.00435246	-0.0246172	-1.02466	0.253906	-0.00512695	0.541892	0.389386	-0.650838	0.362135	9.60246	-0.137563	-1.15307	0.0755264	0.0527797	0.0231328	-0.951416	0.466309	0.193604	0.527766	-0.514975	-0.518293	-0.43317	9.91885	-0.329496	-0.948387	-0.0479188	0.0970232	-0.0139548	-0.985352	0.487793	0.0373535	
6	0.69909	-0.0295084	-0.0859712	-0.709233	2.77575	0.586949	10.7181	0.023918	0.0299164	0.0556582	-0.18457	0.30127	-0.907715	0.90442	0.0351202	-0.400649	0.142381	7.46768	-0.668048	6.80188	0.00893072	-0.0156994	0.0368955	-0.516846	0.332275	-0.565674	0.782983	0.177368	0.179411	-0.568586	-4.73297	0.804568	9.44799	-0.0547443	0.007293	0.00214587	0.508057	0.197998	-0.770996	0.113146	0.15958	0.550161	-0.811822	-3.72509	-8.56145	3.22845	0.0402143	0.0267745	0.00175958	0.0310059	0.952148	-0.388672	0.63811	0.0893547	0.176797	-0.744026	-3.66661	-1.40471	9.11567	0.00832148	-0.0185692	0.036685	0.27417	0.495605	-0.786865	-0.823998	-0.528086	-0.192353	-0.071774	-4.07338	8.44437	6.96554	-0.0117243	0.0841118	0.0213226	0.71167	-0.685791	-0.121826	0.721398	0.134469	-0.648324	0.202927	9.86649	-0.919554	1.09487	0.131516	0.0137783	0.0104603	-0.868652	0.423096	-0.145264	0.426657	-0.539348	-0.514133	-0.512577	9.69272	0.403083	-1.03553	0.0127409	0.0669139	-0.0138058	-1.01465	0.310303	0.150391	0.528586	-0.433746	-0.566081	-0.460449	9.81918	0.737278	-0.0606212	0.0267936	-0.00524424	-0.0251362	-1.03174	0.253906	-0.000732422	0.54225	0.389039	-0.651118	0.361467	9.6096	-0.0654081	-1.48632	-0.0693838	0.00851173	-0.0104398	-0.94458	0.464355	0.196045	0.526765	-0.516063	-0.516631	-0.435075	9.87147	-1.11161	-0.65559	-0.220599	0.0761646	-0.0053564	-0.980957	0.48999	0.0395508	
7	0.699738	-0.0292608	-0.0858931	-0.708613	2.55294	0.749718	10.6919	0.00213649	0.00108027	0.0361018	-0.175537	0.299316	-0.909912	0.904321	0.0358108	-0.400374	0.143605	7.45288	-0.572359	6.80553	0.0556577	0.026465	0.013767	-0.512451	0.334473	-0.563477	0.783246	0.176903	0.178312	-0.568714	-4.71495	0.83446	9.68345	0.0175443	-0.0444741	0.00528261	0.503662	0.191406	-0.780029	0.11306	0.159732	0.549319	-0.812374	-3.75772	-8.58201	3.24605	0.0817859	0.00508346	0.00963523	0.0310059	0.952148	-0.393066	0.638905	0.0885197	0.177699	-0.743228	-3.40582	-1.53359	8.97525	-0.0684649	-0.0151633	0.0194907	0.280762	0.495605	-0.786865	-0.824452	-0.526473	-0.194043	-0.0738395	-4.29309	8.46402	6.56067	-0.0730285	0.0877497	0.00117308	0.709229	-0.683594	-0.124023	0.721225	0.135703	-0.647826	0.204305	9.90223	-0.593512	1.17225	0.0635923	0.040428	-0.0162755	-0.864502	0.425293	-0.141113	0.428232	-0.538006	-0.514828	-0.511976	9.66969	0.60892	-1.21534	0.0969286	0.0422015	-0.0164814	-1.0083	0.314697	0.140869	0.528806	-0.433742	-0.566302	-0.459928	9.8081	0.43559	-0.185	0.0494279	-0.00139561	-0.0087382	-1.0271	0.256348	-0.00537109	0.54351	0.387349	-0.651752	0.360246	9.73875	-0.920759	-1.26104	-0.0659204	0.0906336	0.0276652	-0.951416	0.464355	0.191406	0.5266	-0.516513	-0.515816	-0.435707	9.77237	-1.07289	-0.551491	0.0261157	0.0142647	0.0098332	-0.97876	0.492188	0.0373535	
8	0.700618	-0.0294905	-0.0861404	-0.707703	2.61367	0.647763	10.6584	0.00891873	0.00208497	0.0603115	-0.175537	0.297119	-0.909668	0.90434	0.0361983	-0.39991	0.144674	7.32388	-0.457844	6.80031	0.00192386	0.029887	0.0150616	-0.514648	0.334473	-0.563477	0.783418	0.176884	0.177777	-0.568651	-4.63473	0.961999	9.57227	-0.00607025	-0.00230716	0.00923346	0.499268	0.196045	-0.784668	0.113465	0.160207	0.548567	-0.812732	-3.75938	-8.5005	3.37171	0.0329196	0.0128637	0.0380424	0.0354004	0.952393	-0.395264	0.63995	0.0878009	0.178596	-0.742199	-3.4077	-1.62219	8.82559	-0.0375264	0.0126887	0.0286101	0.276123	0.497803	-0.784668	-0.824808	-0.525375	-0.195298	-0.074374	-4.06435	8.26646	6.72144	0.0112932	0.0557411	-0.0498532	0.709229	-0.681396	-0.124023	0.721302	0.135762	-0.647624	0.204636	9.78369	-0.580918	1.28314	0.0352141	0.0294986	-0.00399129	-0.866699	0.423096	-0.147461	0.429086	-0.537278	-0.514244	-0.512612	9.65132	0.905074	-1.05961	-0.0129893	0.0655645	-0.0101678	-1.0105	0.3125	0.147949	0.529304	-0.433173	-0.56724	-0.458735	9.79733	0.75758	-0.0879332	0.046858	-0.0175343	-0.0201695	-1.03198	0.258545	0.00146484	0.543815	0.387069	-0.651063	0.361332	9.51003	-0.613412	-1.73154	0.0384439	0.0327867	0.0142733	-0.951416	0.468506	0.193604	0.527901	-0.515661	-0.515942	-0.434993	9.73258	-0.99805	-0.562121	0.0662168	0.0418395	0.0170398	-0.979004	0.496582	0.0371094	
9	0.701623	-0.0297512	-0.0866431	-0.706635	2.64468	0.59303	10.6929	0.0158596	-0.0153554	0.0526527	-0.175293	0.294922	-0.907715	0.90408	0.0354361	-0.400481	0.144911	7.33887	-0.60071	6.77741	-0.00847553	-0.00762466	0.000845686	-0.510498	0.33667	-0.561279	0.783617	0.175801	0.178084	-0.568616	-4.70248	0.679239	9.56732	-0.0369511	0.00555582	0.00115278	0.503662	0.200195	-0.773193	0.11391	0.15991	0.547139	-0.81369	-3.65681	-8.21776	3.29302	0.0797787	-0.0398859	0.00124182	0.0332031	0.950195	-0.401855	0.641059	0.086513	0.178396	-0.74144	-3.54061	-1.40179	9.008	-0.0633784	-0.0405875	0.0240278	0.276123	0.497803	-0.786865	-0.825309	-0.524144	-0.196409	-0.0745808	-4.1591	7.95826	6.47606	-0.0112515	0.025496	-0.0218313	0.717529	-0.675049	-0.119873	0.721604	0.135352	-0.647282	0.204921	9.75871	-0.865314	1.33047	0.0344919	0.024521	-0.000243623	-0.862305	0.425293	-0.145264	0.429609	-0.536989	-0.512231	-0.514488	9.74943	0.371839	-0.658629	-0.0631661	0.129637	-0.00202309	-1.01245	0.310303	0.138672	0.528311	-0.43339	-0.568467	-0.458155	9.79184	0.611315	0.269078	0.0313106	-0.0674975	-0.0515582	-1.0271	0.253906	0.00146484	0.544248	0.38638	-0.650659	0.362143	9.47331	-0.156696	-1.30234	-0.0253872	0.0554004	0.0242123	-0.947021	0.466553	0.189209	0.52779	-0.515917	-0.51432	-0.43674	10.0473	-0.722041	-0.572129	-0.183763	0.0917501	-6.48876e-05	-0.976318	0.48999	0.0351562	
10	0.701842	-0.0299431	-0.0873437	-0.706323	2.62057	0.76141	10.785	0.0119199	-0.0320766	0.0107149	-0.179932	0.299072	-0.907715	0.903758	0.0352368	-0.401131	0.145169	7.52629	-0.637531	6.88502	-0.0214275	0.0154092	0.000353025	-0.512451	0.334473	-0.563477	0.784469	0.174747	0.177562	-0.56793	-4.79364	0.888074	9.50879	-0.0423409	-0.0707253	0.0369092	0.503662	0.200195	-0.775635	0.113716	0.158772	0.545668	-0.814927	-3.63054	-8.1886	3.0691	0.0593332	-0.0538286	-0.0372946	0.03125	0.945801	-0.401855	0.641559	0.0852895	0.179191	-0.740958	-3.65347	-1.63448	8.86393	-0.0445003	-0.0283762	-0.0018503	0.278076	0.504395	-0.782227	-0.825619	-0.523637	-0.196354	-0.0748528	-4.08715	8.24341	6.49671	-0.0257788	0.00403334	0.00315299	0.718018	-0.683594	-0.124023	0.721216	0.135906	-0.647238	0.20606	9.99997	-0.837678	1.32951	0.0733016	0.0158709	0.00324546	-0.871094	0.425293	-0.151855	0.429849	-0.536522	-0.510142	-0.516844	9.65293	0.603007	-0.714908	-0.0918491	0.109353	-0.0210714	-1.01245	0.310547	0.136475	0.526341	-0.435078	-0.568363	-0.458951	10.1583	0.565296	-0.500167	-0.122605	-0.033955	-0.0161002	-1.03174	0.256104	0.00366211	0.545871	0.38446	-0.651636	0.359981	9.885	-0.823144	-1.38203	-0.167519	0.0702072	-0.00616586	-0.951416	0.464355	0.193848	0.527899	-0.515626	-0.51254	-0.439038	9.8905	-1.24018	-0.580551	0.0304392	0.0672675	-0.0215349	-0.985352	0.48999	0.0327148	
11	0.701949	-0.0314531	-0.0879512	-0.706076	2.61619	0.820793	10.6145	-0.0374931	-0.0590736	0.0225706	-0.177979	0.30127	-0.90332	0.903903	0.0348634	-0.400643	0.145701	7.3738	-0.627245	6.89807	-0.00203447	0.0385684	0.00774913	-0.510498	0.338867	-0.565918	0.785529	0.172169	0.176591	-0.567554	-4.65066	0.949306	9.66722	-0.0857155	-0.0819914	0.0288983	0.495117	0.200195	-0.775635	0.112953	0.156571	0.543606	-0.816835	-3.94992	-8.37767	3.25348	0.108918	-0.0776516	-0.0715985	0.0246582	0.943604	-0.40625	0.642234	0.0845495	0.17982	-0.740305	-3.48629	-1.52029	8.95616	-0.0610241	0.0153611	0.00537069	0.273682	0.504395	-0.782227	-0.826779	-0.522417	-0.19424	-0.0760762	-4.27286	8.29151	6.63737	0.00201898	-0.0402845	0.0519282	0.709229	-0.683594	-0.126221	0.72087	0.136218	-0.647233	0.207074	9.90625	-0.846645	1.45903	0.0166964	0.0162747	0.0088248	-0.866699	0.425293	-0.147461	0.430828	-0.535913	-0.509652	-0.517145	9.41311	0.426196	-1.37873	0.0814127	0.0629113	-0.0121609	-1.01294	0.319092	0.12915	0.52642	-0.43497	-0.568369	-0.458954	9.75321	0.37819	-0.535949	0.0785938	0.0137745	-0.0255925	-1.02954	0.258545	-0.00317383	0.547089	0.382455	-0.652531	0.358643	9.58865	-0.701195	-1.45195	-0.105713	-0.010169	0.0160599	-0.947021	0.466553	0.196045	0.525796	-0.517403	-0.510349	-0.442015	9.91961	-1.28922	-0.564111	-0.226867	0.0374119	-0.0161568	-0.974121	0.487793	0.0351562	
12	0.702265	-0.0325231	-0.0880458	-0.705701	2.59227	0.607551	10.5512	-0.0481629	-0.0617748	0.047307	-0.179932	0.299072	-0.907715	0.904029	0.0345742	-0.400226	0.146131	7.28418	-0.672551	6.78485	-0.00730551	0.0518227	0.0199447	-0.514893	0.338867	-0.561279	0.785897	0.170114	0.176379	-0.56773	-4.67028	0.795811	9.71736	-0.0412663	-0.0191934	-0.0220617	0.49707	0.200195	-0.782471	0.110827	0.153728	0.54036	-0.819815	-3.72979	-8.53276	4.01697	0.201519	-0.0414649	-0.125524	0.0180664	0.941406	-0.412842	0.642232	0.0835837	0.180267	-0.740308	-3.581	-1.69958	8.91666	-0.0764918	-0.0262564	-0.0306991	0.275879	0.508789	-0.780029	-0.82758	-0.521581	-0.192756	-0.0768765	-4.32394	8.44589	6.81243	-0.0838997	-0.0736561	0.0843015	0.707031	-0.683594	-0.128174	0.721242	0.135711	-0.646903	0.207147	9.7186	-0.951185	1.35019	-0.0119656	0.058655	0.00426457	-0.868652	0.423096	-0.149658	0.431201	-0.535365	-0.510094	-0.516967	9.31906	0.299621	-0.909332	0.0642186	0.0323617	-0.036626	-1.01709	0.312744	0.129395	0.527141	-0.434119	-0.568782	-0.45842	9.73294	0.740615	-0.413244	0.105622	0.0349923	-0.0255411	-1.0293	0.251709	0.00146484	0.547078	0.382342	-0.652832	0.358234	9.69397	-0.830708	-1.61363	-0.0349129	-0.0101063	-0.000515862	-0.955566	0.459717	0.200684	0.526887	-0.516076	-0.511396	-0.441056	9.72136	-0.980049	-0.432174	0.205307	0.002922	-0.00807782	-0.97876	0.48999	0.0305176	
13	0.703059	-0.0336809	-0.0880004	-0.704861	2.68665	0.509051	10.6086	-0.0286861	-0.0283057	0.0507175	-0.18457	0.303467	-0.905518	0.90373	0.0338187	-0.400829	0.146507	7.20893	-0.701156	6.90952	-0.0316891	-0.029657	0.00686908	-0.514893	0.34082	-0.566162	0.78552	0.168784	0.17672	-0.568543	-4.80613	0.71671	9.68564	-0.0391003	-0.0137532	-0.0632228	0.49292	0.202637	-0.780273	0.108598	0.152744	0.539342	-0.820966	-3.44251	-8.62734	3.77708	0.0341284	0.0270895	-0.0826343	0.0158691	0.941406	-0.417236	0.642343	0.0832996	0.180847	-0.740102	-3.50899	-1.63844	8.71777	0.00250035	0.0289365	-0.012711	0.275879	0.508789	-0.780029	-0.827512	-0.521881	-0.191668	-0.0782804	-3.75824	8.35999	7.3644	0.0745218	0.046468	0.0397897	0.705322	-0.690186	-0.132324	0.720732	0.13659	-0.646835	0.20855	9.77095	-0.925295	1.25774	0.0986675	-0.00063834	0.00608505	-0.866699	0.423096	-0.145264	0.43116	-0.534949	-0.510931	-0.516604	9.74088	0.742239	-1.01005	0.0294171	0.013928	-0.0321131	-1.01245	0.310547	0.131592	0.527849	-0.433186	-0.568932	-0.458303	9.91196	0.494998	-0.213524	0.0472077	0.0373411	-0.0327844	-1.02686	0.251709	-0.00292969	0.546267	0.384436	-0.650454	0.361541	9.58072	-0.692898	-1.10745	0.201339	0.0647578	-0.0102158	-0.951416	0.468506	0.188965	0.529168	-0.514119	-0.513143	-0.438574	9.85229	-1.21905	-0.320395	0.185237	0.00285339	0.0160285	-0.974365	0.494385	0.0280762	
14	0.70359	-0.0347567	-0.0881768	-0.704257	2.62438	0.570449	10.7461	-0.0179931	-0.0452633	0.0291101	-0.186768	0.303467	-0.907715	0.903451	0.033372	-0.401418	0.146719	7.45969	-0.62803	6.92377	-0.0183389	0.00123746	-0.00961533	-0.514893	0.341064	-0.556641	0.785322	0.168393	0.176851	-0.568891	-4.69377	0.558522	9.67913	-0.0232135	-0.00126727	-0.0380524	0.49707	0.20459	-0.784912	0.10824	0.152313	0.539823	-0.820778	-3.67363	-8.47534	2.93696	-0.0388312	-0.000454411	-0.0436476	0.0158691	0.941406	-0.415039	0.642393	0.0812452	0.181353	-0.740163	-3.36953	-1.63726	9.05064	-0.117965	-0.0372064	-0.0299063	0.277832	0.513184	-0.782227	-0.826963	-0.521717	-0.193951	-0.0795392	-4.13711	8.28516	6.88796	0.00568085	0.115255	-0.0220005	0.703125	-0.692383	-0.12793	0.720416	0.13657	-0.647005	0.209127	9.89578	-0.749473	1.30735	0.0204144	-0.0114665	0.00221569	-0.868896	0.425293	-0.145264	0.431279	-0.534546	-0.511609	-0.516251	9.86653	0.58748	-0.929224	0.045673	-0.00953526	-0.0279829	-1.01929	0.316895	0.131592	0.529156	-0.431784	-0.569362	-0.457584	9.90716	0.73397	-0.116378	0.0781013	0.0345308	-0.0167632	-1.03149	0.249268	-0.00292969	0.545335	0.386585	-0.648673	0.363847	9.61271	-0.345435	-1.37007	0.160089	0.030067	-0.00783369	-0.951416	0.464111	0.180176	0.531049	-0.512147	-0.514843	-0.436611	9.69505	-0.554762	-0.6726	0.304302	0.000521357	-0.00592743	-0.980957	0.48999	0.0236816	
15	0.703384	-0.0364059	-0.0881824	-0.704379	2.6979	0.520899	10.7126	-0.0482301	-0.036109	-0.00321139	-0.182617	0.305664	-0.901367	0.903212	0.0330368	-0.401838	0.147116	7.49767	-0.563329	6.81176	-0.0185835	-0.0103078	0.0142446	-0.512695	0.341064	-0.556641	0.785519	0.167363	0.177571	-0.568699	-4.70912	0.728967	9.43962	-0.0599038	0.00303094	-0.00900379	0.494873	0.208984	-0.780273	0.107525	0.150077	0.536205	-0.82365	-3.15604	-8.54796	3.94806	0.260723	-0.0663594	-0.0377749	0.00488281	0.937012	-0.425781	0.642699	0.0791074	0.182288	-0.7399	-3.63565	-1.81871	9.12674	-0.0508297	-0.0614269	-0.0123474	0.273438	0.515381	-0.780029	-0.826775	-0.521448	-0.195301	-0.0799532	-4.26884	8.49807	6.31452	0.0148261	0.00600805	-0.0123217	0.707275	-0.687988	-0.125977	0.720314	0.136137	-0.647053	0.209609	9.95978	-0.845225	1.36021	0.000774131	0.0301591	0.0130047	-0.864502	0.425293	-0.145264	0.433091	-0.532489	-0.513039	-0.51544	9.69362	0.553746	-0.491286	0.132563	0.0637798	-0.047406	-1.0105	0.314941	0.124512	0.530275	-0.429866	-0.570608	-0.456541	9.88939	0.683938	0.143593	0.109322	0.0199139	-0.0330687	-1.02686	0.251709	-0.00732422	0.54564	0.386741	-0.648322	0.363851	9.68273	-0.302663	-1.44501	-0.0720937	-0.00756645	-0.020807	-0.948975	0.464355	0.189209	0.529237	-0.51392	-0.513337	-0.438498	9.80046	-1.26995	-0.479352	-0.161006	0.0168365	-0.00866909	-0.980957	0.492188	0.0258789	
16	0.703174	-0.0380777	-0.0886325	-0.704444	2.79518	0.585511	10.6442	-0.0299827	-0.0616234	0.000341929	-0.184814	0.307861	-0.901367	0.903237	0.0320731	-0.401918	0.146954	7.3908	-0.701641	6.77508	-0.0366697	0.0134919	-0.0191687	-0.510498	0.33667	-0.558838	0.785905	0.167408	0.175121	-0.568911	-4.43437	0.420293	9.56143	0.0978902	-0.0708206	0.0328763	0.488525	0.207031	-0.782471	0.107908	0.151553	0.534932	-0.824157	-3.44133	-8.29083	3.75466	-0.0336529	0.0457683	0.0673719	0.0136719	0.939209	-0.421631	0.642283	0.0805073	0.181468	-0.740311	-3.63757	-1.75619	8.95498	0.0961376	0.0321515	-0.0301174	0.26709	0.508789	-0.782227	-0.82622	-0.522421	-0.195214	-0.0795527	-4.19175	8.52693	6.68073	0.118445	-0.0195914	-0.0162479	0.709717	-0.692383	-0.119385	0.720186	0.13724	-0.64655	0.210883	9.80138	-0.628886	1.40438	0.0970584	0.016448	-0.0229468	-0.864746	0.429688	-0.151855	0.433424	-0.531864	-0.51447	-0.514379	9.66076	0.703635	-1.23269	0.0969323	-0.0386174	-0.0211139	-1.01489	0.314941	0.129395	0.531379	-0.42888	-0.570759	-0.455996	9.81488	0.493818	-0.295718	0.0947043	0.036005	-0.0186087	-1.02222	0.251709	-0.00512695	0.546353	0.386234	-0.648121	0.363677	9.63519	-0.875911	-1.16461	0.0195241	0.0736978	0.00564549	-0.955811	0.461914	0.180176	0.529095	-0.513571	-0.514084	-0.438202	9.89938	-0.836936	-0.639181	0.0389568	-0.0147392	-0.0234221	-0.978516	0.487793	0.0283203	
17	0.70361	-0.0394273	-0.0894748	-0.703827	2.83351	0.207762	10.5146	0.0126572	-0.05774	0.0368925	-0.184814	0.307861	-0.89917	0.903297	0.0330932	-0.401567	0.147322	7.43299	-0.620062	6.89868	0.0414537	0.0218166	-0.024644	-0.510498	0.341064	-0.561279	0.786242	0.169953	0.172929	-0.568361	-4.47085	0.927353	9.86341	0.0961758	0.0293085	0.0677115	0.490723	0.202637	-0.780273	0.108702	0.151872	0.535196	-0.823823	-3.59581	-8.52598	3.76747	-0.0371956	-0.000439385	0.068518	0.013916	0.934814	-0.419189	0.642083	0.0802225	0.180548	-0.740741	-3.32881	-1.48983	8.99909	-0.0249071	-0.00784944	-0.0455951	0.27124	0.510986	-0.777832	-0.825238	-0.523549	-0.197155	-0.0775129	-4.33665	8.31986	6.46518	-0.030129	-0.00447635	-0.0837453	0.71167	-0.687988	-0.117432	0.720423	0.136717	-0.646646	0.210115	9.8448	-0.784359	1.38926	-0.0524848	0.0238459	-0.0242487	-0.862061	0.418945	-0.145264	0.433492	-0.531531	-0.515058	-0.514077	9.56454	0.882644	-0.526264	-0.0480395	0.0206146	-0.0340554	-1.01465	0.30835	0.124756	0.531813	-0.428295	-0.570829	-0.455953	9.69984	0.864802	-0.0692049	-0.034166	0.0235927	-0.0246531	-1.02954	0.256348	-0.00537109	0.545802	0.386857	-0.648454	0.363248	9.62221	-0.393717	-1.59262	-0.00189849	-0.0467869	-0.021837	-0.953369	0.461914	0.18457	0.528594	-0.513726	-0.514141	-0.438558	9.69931	-1.0869	-0.538826	0.00630372	-0.00923851	-0.0146313	-0.983154	0.48999	0.0283203	
18	0.703676	-0.0393288	-0.0907066	-0.703609	3.02298	0.501086	10.5586	0.0352862	-0.0138189	-0.00110955	-0.189209	0.307617	-0.901367	0.903522	0.033088	-0.401106	0.1472	7.45873	-0.631944	6.75804	-0.0131542	0.0123208	-0.0179091	-0.512451	0.334473	-0.551758	0.786865	0.169257	0.173901	-0.56741	-4.55954	0.736005	9.79695	-0.0824528	0.021397	0.0187063	0.495117	0.198242	-0.773193	0.111653	0.15224	0.536588	-0.822454	-3.56598	-8.35899	3.70768	-0.0586746	-0.0348401	0.0685876	0.0161133	0.937012	-0.419189	0.641626	0.081045	0.179334	-0.741341	-3.55373	-1.89264	8.95725	0.118385	-0.0263932	-0.00747189	0.273438	0.513184	-0.786865	-0.82462	-0.524423	-0.198073	-0.0758201	-4.15067	8.20389	6.71015	0.110465	0.003142	-0.0738493	0.71167	-0.690186	-0.115234	0.720868	0.136747	-0.646162	0.210057	9.90863	-0.793856	1.1868	0.0223743	0.0519882	-0.0210672	-0.868896	0.425293	-0.153809	0.432172	-0.532777	-0.514459	-0.514498	9.92973	0.460772	-1.18288	-0.0100517	-0.0101896	0.00240779	-1.01904	0.3125	0.131592	0.531837	-0.4285	-0.570008	-0.456759	9.89507	0.688521	0.0945745	-0.0355114	0.0409699	-0.0281838	-1.0293	0.253906	-0.00756836	0.545407	0.387567	-0.648078	0.363755	9.57764	-0.298323	-0.995977	0.025657	0.0068196	0.00397702	-0.953613	0.464111	0.189209	0.527245	-0.514834	-0.51449	-0.438473	9.77823	-0.480319	-0.509591	-0.165316	-0.0496149	-0.00293139	-0.976318	0.487793	0.0373535	
19	0.703248	-0.0387092	-0.0910252	-0.70403	2.83966	0.650773	10.6375	0.0230092	0.010204	-0.0317088	-0.188965	0.303467	-0.905518	0.903568	0.0331423	-0.400989	0.147224	7.45132	-0.707898	6.89985	0.0049077	0.0298232	-0.0185986	-0.512695	0.338867	-0.563721	0.78776	0.169601	0.175133	-0.565684	-4.57397	0.825688	9.56295	-0.00972293	0.0712235	0.0697514	0.495117	0.196045	-0.780029	0.112755	0.151476	0.537571	-0.821802	-3.71311	-8.23494	3.6412	-0.0671747	-0.0257692	0.0106452	0.0180664	0.941406	-0.415039	0.641762	0.0825074	0.17689	-0.741649	-3.4971	-1.6966	9.07659	0.0998467	0.000224407	-0.0165037	0.269531	0.5	-0.786865	-0.824958	-0.523924	-0.197994	-0.0758047	-4.35127	8.37328	6.4279	-0.0358839	-0.0193749	0.00325179	0.709473	-0.685791	-0.119629	0.72169	0.136189	-0.645484	0.209683	9.87515	-0.846885	1.22746	-0.0257811	0.0498162	-0.031493	-0.858154	0.425293	-0.149658	0.432398	-0.532368	-0.514505	-0.514685	9.54735	0.549341	-0.498952	-0.0214544	0.0285455	-0.0311421	-1.01465	0.306152	0.129395	0.530932	-0.429232	-0.569715	-0.457488	9.72447	0.612926	-0.118472	-0.0455615	-0.0162254	-0.0309636	-1.02954	0.256348	-0.0119629	0.545418	0.387168	-0.649069	0.362395	9.69899	-0.530971	-1.24163	-0.117152	-0.0601118	-0.00596796	-0.953613	0.464111	0.18457	0.525282	-0.516767	-0.513972	-0.439163	9.7542	-1.13152	-0.353538	0.000752273	-0.0409284	-0.00731239	-0.978516	0.487793	0.0419922	
20	0.702981	-0.0385862	-0.0910956	-0.704294	2.83946	0.659934	10.6027	0.0106805	0.00490399	-0.0306782	-0.191406	0.30542	-0.89917	0.903723	0.0334736	-0.40058	0.147305	7.38294	-0.704877	6.81131	0.0263003	0.0438846	-0.0254292	-0.510742	0.343018	-0.566162	0.78796	0.169944	0.174818	-0.5654	-4.64538	0.920736	9.57148	0.00166345	-0.00596183	0.00852065	0.499268	0.195801	-0.777832	0.11289	0.151607	0.5368	-0.822264	-3.57545	-8.36137	3.61942	0.0716566	0.00700111	0.013381	0.0161133	0.937012	-0.416992	0.641855	0.0832905	0.1759	-0.741717	-3.5002	-1.66487	9.02387	0.0976759	0.00084839	0.0051973	0.269531	0.5	-0.782227	-0.825644	-0.523105	-0.197081	-0.0763672	-4.21218	8.30311	6.71138	-0.0729978	-0.0410744	0.0432643	0.707031	-0.681396	-0.117676	0.721707	0.136534	-0.645411	0.209623	9.78133	-0.846897	1.14739	0.0301221	0.00978783	-0.0389138	-0.862305	0.425293	-0.151855	0.432106	-0.532496	-0.514563	-0.51474	9.61372	0.658309	-1.05215	-0.012139	0.000919316	-0.0262218	-1.01025	0.30835	0.129395	0.530593	-0.429394	-0.569912	-0.457485	9.87182	0.601301	-0.263537	-0.00550353	-0.0227656	-0.0331067	-1.01758	0.247314	-0.00952148	0.546374	0.386278	-0.648911	0.362186	9.79947	-0.84806	-1.32493	-0.0374993	0.0442434	0.00335292	-0.955566	0.459717	0.187012	0.52553	-0.51651	-0.514999	-0.437964	9.79875	-1.00007	-0.600885	0.0588667	-0.0321231	0.00340507	-0.980713	0.487793	0.0395508	
21	0.702796	-0.0384382	-0.0910934	-0.704487	2.75491	0.620467	10.5704	0.00759325	0.00625675	-0.00250313	-0.189209	0.305664	-0.903564	0.903896	0.0339431	-0.40013	0.147364	7.36127	-0.667136	6.75709	0.0123837	0.0247809	-0.0228591	-0.508301	0.33667	-0.565918	0.788258	0.169751	0.174548	-0.565126	-4.51119	0.738956	9.64704	0.0111946	-0.0101564	0.0134674	0.497314	0.197998	-0.773193	0.113321	0.152377	0.536643	-0.822164	-3.62805	-8.31094	3.61978	-0.00999178	0.0204586	0.0367743	0.0180664	0.941406	-0.417236	0.642262	0.0850202	0.174092	-0.741595	-3.2994	-1.47264	8.84523	0.0936943	6.64124e-05	0.0118247	0.27002	0.486816	-0.789062	-0.825629	-0.523099	-0.196863	-0.0771355	-4.01224	8.43521	6.85461	0.0416228	0.0329032	-0.00732449	0.705322	-0.692383	-0.119385	0.721938	0.137366	-0.644905	0.209844	9.82496	-0.794164	1.54371	0.0163557	0.0387446	-0.0372677	-0.864502	0.42334	-0.153809	0.431689	-0.532724	-0.514753	-0.514664	9.52911	0.603257	-1.20588	-0.00497049	-0.00499703	-0.0196712	-1.0083	0.310547	0.13623	0.530521	-0.429532	-0.569553	-0.457885	9.77143	0.613092	-0.447709	-0.0219893	0.0226206	-0.0207448	-1.03394	0.253906	-0.00976562	0.545517	0.388176	-0.647568	0.363849	9.60794	-0.517948	-1.53861	0.0953514	0.00567543	-0.0052229	-0.953613	0.464111	0.189209	0.526308	-0.515727	-0.516445	-0.436245	9.78736	-0.880506	-0.661153	0.0673925	-0.0299137	0.00177184	-0.978516	0.485596	0.0373535	
22	0.702986	-0.0383416	-0.0911286	-0.704298	2.81714	0.507489	10.6379	0.00828091	0.00432207	0.0138476	-0.184814	0.305664	-0.901367	0.904052	0.0343274	-0.399813	0.14718	7.31043	-0.55016	6.87184	0.0102766	0.0230979	-0.03377	-0.516846	0.334473	-0.565918	0.788258	0.169751	0.174548	-0.565126	-4.51119	0.738956	9.64704	0.0111946	-0.0101564	0.0134674	0.497314	0.197998	-0.773193	0.113491	0.152473	0.536368	-0.822302	-3.65758	-8.40527	3.66482	0.0236815	0.000972607	0.0208384	0.020752	0.934814	-0.416992	0.642448	0.0852067	0.173128	-0.741638	-3.37187	-1.35451	9.01013	0.0143188	-0.00420766	-0.0207793	0.267578	0.495605	-0.791504	-0.825728	-0.522845	-0.197061	-0.0772868	-4.08517	8.40249	6.67054	0.000378394	0.020543	-0.0207067	0.71167	-0.690186	-0.119385	0.722422	0.137023	-0.644737	0.208915	9.78242	-0.761203	1.35594	-0.0173145	0.0143824	-0.0398798	-0.862305	0.425293	-0.153809	0.430999	-0.533021	-0.515294	-0.514393	9.77534	0.545275	-0.85781	0.00894523	-0.0215684	-0.0315563	-1.01245	0.306152	0.136475	0.531316	-0.428658	-0.569837	-0.457429	9.92538	0.493169	-0.176107	0.0776186	0.033831	-0.0216814	-1.02246	0.256348	-0.0141602	0.545089	0.388863	-0.64706	0.364661	9.64427	-0.546608	-1.44842	0.100036	0.0183844	-0.00130052	-0.955566	0.459717	0.180176	0.526496	-0.515538	-0.516919	-0.43568	9.88136	-0.970675	-0.622046	0.0586942	-0.0221443	-0.000926177	-0.980713	0.487793	0.0419922	
23	0.702956	-0.0377049	-0.0913308	-0.704337	2.72465	0.589283	10.6952	0.0284385	0.0154214	-0.0125532	-0.187012	0.305664	-0.901367	0.904124	0.0348132	-0.399691	0.146955	7.40661	-0.530376	6.9187	0.00492277	0.0305233	-0.0352767	-0.510498	0.338623	-0.570801	0.788869	0.170368	0.174058	-0.564238	-4.6132	0.894269	9.67204	0.00590254	-0.00694012	0.034267	0.499512	0.193604	-0.773193	0.114522	0.153529	0.535826	-0.822316	-3.71775	-8.36367	3.61891	0.0210868	0.00605912	0.0502896	0.0251465	0.934814	-0.419189	0.641641	0.0859199	0.172609	-0.742375	-3.60369	-1.46962	9.06848	0.0450695	0.0205842	-0.0559801	0.267578	0.493652	-0.79834	-0.825814	-0.522848	-0.196901	-0.0767504	-3.98797	8.46019	6.79188	0.0486858	0.00221684	-0.0216653	0.709473	-0.690186	-0.119385	0.722305	0.13768	-0.644766	0.208797	9.94122	-0.769457	1.14004	0.0322487	-0.00340113	-0.03385	-0.868896	0.425293	-0.153809	0.430966	-0.533074	-0.515768	-0.513891	9.67055	0.64021	-0.93848	0.018505	0.00613007	-0.0139582	-1.01465	0.310303	0.143311	0.532035	-0.428074	-0.569727	-0.457278	9.91444	0.716339	-0.140548	-0.00795669	0.0405315	-0.00964479	-1.0293	0.25415	-0.0141602	0.544772	0.389772	-0.646254	0.365591	9.7456	-0.657092	-1.23677	0.0629129	0.0142417	-0.011642	-0.955566	0.45752	0.184814	0.527903	-0.514184	-0.518501	-0.433693	9.84718	-1.06706	-0.551309	0.182981	-0.0205154	-0.00149106	-0.985352	0.48999	0.0351562	
24	0.702489	-0.037553	-0.0919069	-0.704735	2.69324	0.748189	10.7509	0.0154581	-0.0219989	-0.0294704	-0.18457	0.30127	-0.90332	0.904196	0.0352465	-0.399531	0.14684	7.40915	-0.573297	6.76767	0.0141005	0.00948997	-0.030137	-0.506104	0.33667	-0.565918	0.789193	0.170553	0.173787	-0.563812	-4.42934	0.916711	9.68534	0.0142917	0.00189458	0.0459116	0.495117	0.193848	-0.780029	0.115297	0.153888	0.53601	-0.822021	-3.80254	-8.28399	3.61066	-0.030524	0.00146957	0.0695824	0.0227051	0.939209	-0.415039	0.64116	0.0866415	0.1719	-0.742871	-3.52764	-1.45896	9.11345	0.0876129	0.0177544	-0.0530153	0.269531	0.5	-0.791504	-0.825681	-0.523279	-0.196474	-0.0763383	-4.2205	8.46997	6.57955	0.045714	-0.030525	-0.0181634	0.71167	-0.685791	-0.115234	0.722258	0.138199	-0.644789	0.208547	9.84257	-0.830643	1.29574	0.0212492	-0.00232683	-0.0376585	-0.866699	0.423096	-0.149658	0.431524	-0.532432	-0.516507	-0.513345	9.63293	0.657311	-1.00453	0.0695744	0.0240111	-0.0353256	-1.01245	0.310547	0.131592	0.532695	-0.427346	-0.569753	-0.457157	9.78069	0.689523	-0.0674572	0.0632193	0.0308536	-0.030809	-1.03174	0.251709	-0.0163574	0.543979	0.39106	-0.64525	0.367166	9.6062	-0.397565	-1.46041	0.0716023	0.0125662	-0.0031056	-0.953613	0.466309	0.175537	0.528265	-0.513583	-0.519413	-0.432873	9.96037	-0.686344	-0.74642	-0.0634799	-0.00840463	-0.00689867	-0.971924	0.492188	0.0349121	
25	0.702026	-0.0383806	-0.0931599	-0.704987	2.81891	0.818097	10.6156	0.00993839	-0.0579665	-0.0113745	-0.189209	0.30542	-0.89917	0.904217	0.036294	-0.399315	0.147041	7.43669	-0.540536	6.85101	0.0413401	0.0205007	-0.0267394	-0.512451	0.334473	-0.570557	0.789834	0.171238	0.173084	-0.562923	-4.49457	0.831935	9.78323	0.0358081	0.0106425	0.0483462	0.49707	0.198242	-0.780029	0.11738	0.154027	0.535998	-0.821708	-3.73228	-8.22032	3.80345	-0.0129519	-0.0347184	0.0765134	0.0314941	0.941406	-0.419434	0.639937	0.0887511	0.171303	-0.743814	-3.41546	-1.53014	9.04741	0.0664906	0.0409697	-0.0120971	0.274414	0.489258	-0.79834	-0.825673	-0.523809	-0.195416	-0.0755023	-4.19875	8.35117	6.69734	0.0284492	-0.0590179	-0.00974076	0.707275	-0.687988	-0.123779	0.722467	0.139157	-0.644262	0.208814	9.84142	-0.718242	1.34669	0.0596887	0.034077	-0.0346913	-0.864502	0.425293	-0.151855	0.431693	-0.531869	-0.517117	-0.513173	9.75824	0.692999	-0.909877	0.00800084	0.0206231	-0.0238458	-1.0166	0.303955	0.136475	0.532971	-0.426757	-0.570072	-0.456987	9.88476	0.630606	0.0526364	0.0107701	0.0105607	-0.0310022	-1.03394	0.251709	-0.0185547	0.543768	0.391748	-0.644739	0.367643	9.53411	-0.351024	-1.27215	0.0362975	0.0338148	-0.00660781	-0.957764	0.459717	0.171143	0.528844	-0.51267	-0.520161	-0.432349	9.82825	-0.763948	-0.813941	0.0941315	0.0111878	-0.0217155	-0.976318	0.487793	0.0373535	
26	0.702122	-0.0390915	-0.0943562	-0.704694	2.94141	0.757953	10.5789	0.022752	-0.0475815	0.0221643	-0.188965	0.30127	-0.903564	0.904147	0.0369333	-0.399209	0.147603	7.37816	-0.553241	6.88975	0.0243713	0.00518005	-0.000552852	-0.510254	0.334473	-0.568115	0.790839	0.171513	0.173421	-0.561322	-4.57063	0.899597	9.81785	-0.0380248	0.0423222	0.0769427	0.508057	0.187012	-0.782227	0.119075	0.153654	0.536472	-0.821224	-3.64839	-8.38356	3.98881	-0.0528347	-0.0310882	0.0439781	0.0224609	0.941406	-0.415039	0.639829	0.0909464	0.17088	-0.743739	-3.58036	-1.36766	8.97456	0.0648014	0.056599	0.00164537	0.265869	0.482422	-0.795898	-0.825518	-0.524187	-0.195059	-0.0754978	-4.00764	8.28849	6.75082	0.0451678	0.00945772	-0.00156638	0.709717	-0.692383	-0.117188	0.722169	0.140261	-0.644162	0.209416	9.8805	-0.720182	1.2979	0.0417088	-0.00383411	-0.0264467	-0.866455	0.418945	-0.153809	0.431823	-0.53169	-0.516787	-0.513581	9.58565	0.698715	-0.861298	-0.00464207	0.0282015	-0.0186068	-1.01245	0.30835	0.134033	0.532768	-0.426975	-0.569587	-0.457625	9.80776	0.717544	-0.231939	-0.0272023	0.0216529	-0.0224724	-1.02441	0.247314	-0.0163574	0.543694	0.392034	-0.644935	0.367104	9.7916	-0.614633	-1.41319	-0.00657999	-0.0170513	-0.0106455	-0.953369	0.461914	0.175537	0.528307	-0.513038	-0.519561	-0.433289	9.82898	-1.02033	-0.515663	-0.046928	0.019858	-0.0124446	-0.97876	0.48999	0.0373535	
27	0.702788	-0.0391674	-0.0947411	-0.703974	3.01979	0.706213	10.5643	0.012324	0.0103058	0.036926	-0.186768	0.30127	-0.90332	0.904081	0.0377102	-0.399128	0.148028	7.42192	-0.534328	6.85882	0.03312	0.00444209	-0.00566546	-0.510254	0.332275	-0.568115	0.792224	0.171302	0.17533	-0.558835	-4.47924	0.854878	9.77482	-0.0755262	0.0927277	0.0935199	0.512207	0.193604	-0.782227	0.120661	0.15283	0.539145	-0.819394	-3.98275	-8.27478	3.55005	-0.173347	-0.0364835	0.0286216	0.0270996	0.941406	-0.40625	0.639865	0.0920422	0.171388	-0.743456	-3.43508	-1.3847	8.91425	-0.00576586	0.0630626	-0.00775215	0.272705	0.478271	-0.800537	-0.8243	-0.526004	-0.195184	-0.0758399	-4.12879	8.25414	6.55601	0.117938	0.018902	0.0156777	0.707275	-0.683594	-0.117432	0.72208	0.140954	-0.644089	0.209481	9.88307	-0.655631	1.2714	0.0351638	0.00629465	-0.0303224	-0.868164	0.412354	-0.155762	0.431792	-0.53156	-0.51715	-0.513377	9.68825	0.71588	-0.992096	0.0184799	0.0177301	-0.0249025	-1.01904	0.30835	0.129395	0.533047	-0.426597	-0.569577	-0.457665	9.77921	0.646659	-0.0393107	0.0379271	0.0189678	-0.0292994	-1.02466	0.249512	-0.0163574	0.543673	0.392456	-0.644125	0.368105	9.60061	-0.468645	-1.23409	0.054198	0.051378	0.00187892	-0.958008	0.464111	0.179932	0.528861	-0.512349	-0.520173	-0.432694	9.82249	-0.854557	-0.60367	0.0653307	0.00222463	-0.00635903	-0.983154	0.492188	0.0373535	
28	0.70336	-0.0391767	-0.0946561	-0.703413	2.85176	0.65288	10.5932	0.000972442	-0.0133422	0.0277808	-0.191162	0.30127	-0.905518	0.904074	0.0381169	-0.398915	0.148538	7.39896	-0.543478	6.80538	0.00257931	0.0200694	-0.00686595	-0.510254	0.332275	-0.563477	0.792987	0.171986	0.177331	-0.556907	-4.70714	1.18342	9.63105	-0.0481229	0.0875703	0.0452382	0.510254	0.193604	-0.770752	0.121622	0.151402	0.540518	-0.818612	-3.96388	-8.21823	3.49135	-0.0472466	-0.0513426	-0.00494029	0.0246582	0.945801	-0.404053	0.639945	0.0925415	0.171501	-0.743299	-3.58253	-1.51389	8.92151	0.0125355	0.0435627	0.00444848	0.274658	0.484619	-0.793701	-0.824005	-0.526337	-0.195403	-0.0761728	-4.02102	8.51047	6.55257	0.048929	0.0346773	0.00683416	0.705078	-0.685791	-0.117432	0.722025	0.140944	-0.644211	0.209301	9.84796	-0.753875	1.32321	0.000899004	-0.000584405	-0.0239085	-0.868408	0.416748	-0.155762	0.431793	-0.531406	-0.517136	-0.51355	9.63484	0.688697	-0.894004	0.00165581	0.0316094	-0.027475	-1.01465	0.30835	0.126953	0.533109	-0.426581	-0.569248	-0.458017	9.92284	0.466353	-0.313584	-0.018217	0.0320456	-0.0189561	-1.03149	0.247314	-0.0163574	0.543813	0.392874	-0.643537	0.368481	9.68084	-0.472566	-1.4278	0.0253696	0.0318883	-0.0115805	-0.956055	0.468506	0.173096	0.529547	-0.511687	-0.520827	-0.431852	9.89171	-1.02102	-0.67797	0.0817461	0.00133599	-0.00264506	-0.983154	0.48999	0.0283203	
29	0.703439	-0.0390927	-0.0947734	-0.703324	2.85176	0.617722	10.5764	0.0130909	0.0100628	-4.69929e-05	-0.186768	0.30127	-0.90332	0.903932	0.0386954	-0.398993	0.149044	7.42319	-0.43691	6.81699	0.0391264	0.010004	-0.00605383	-0.505859	0.332275	-0.575195	0.793275	0.171962	0.178953	-0.555985	-4.64949	0.915262	9.43461	-0.0269085	0.0531444	0.016097	0.516602	0.188965	-0.772949	0.122079	0.150459	0.542209	-0.817599	-3.7703	-8.24557	3.45834	-0.0805236	-0.0124569	-0.00973871	0.0246582	0.945801	-0.404053	0.640898	0.0931488	0.170596	-0.74261	-3.47567	-1.22518	8.93218	0.0211678	-0.00606153	0.0401905	0.274658	0.480469	-0.795898	-0.824223	-0.525843	-0.195606	-0.0767036	-4.05452	8.3562	6.55108	-0.0298562	0.0394484	0.00317389	0.700928	-0.687988	-0.119629	0.722035	0.141092	-0.644294	0.20891	9.87606	-0.637787	1.42392	-0.00125714	0.00407056	-0.0329199	-0.870605	0.416748	-0.151611	0.431803	-0.531339	-0.51743	-0.513313	9.6747	0.508466	-1.09843	0.0427591	-0.00756416	-0.0160835	-1.01904	0.30835	0.134033	0.534268	-0.425291	-0.569819	-0.457156	9.78066	0.793487	0.0784116	0.0754291	0.0286738	-0.0226857	-1.02466	0.251953	-0.0163574	0.54385	0.392991	-0.64324	0.368819	9.59686	-0.552272	-1.29291	-0.0127751	0.01377	0.00412974	-0.957764	0.459717	0.177979	0.529632	-0.511482	-0.520855	-0.431957	9.81342	-0.818618	-0.661248	0.00576536	0.0102297	-0.00759852	-0.983154	0.487793	0.0351562	
30	0.703394	-0.0390236	-0.0950194	-0.703338	2.8715	0.636188	10.5892	0.020319	-0.00796159	-0.00604093	-0.188965	0.303467	-0.905518	0.903907	0.0390535	-0.398919	0.149303	7.42621	-0.43345	6.85135	0.0300814	0.0140462	-0.0107673	-0.510254	0.330078	-0.568115	0.793308	0.172176	0.17927	-0.555769	-4.60312	0.972362	9.47098	-0.00320692	0.0415475	0.011287	0.514648	0.191162	-0.768555	0.122155	0.150326	0.542606	-0.817349	-3.64669	-8.30319	3.49661	-0.0387494	0.000899345	0.000177247	0.0290527	0.945801	-0.399658	0.641861	0.0921699	0.170744	-0.741866	-3.43514	-1.26798	9.07038	-0.0351018	-0.0212364	0.0242489	0.274658	0.482666	-0.79834	-0.823828	-0.52557	-0.19748	-0.0780054	-4.08608	8.43084	6.6717	-0.0114972	0.0602411	-0.00286923	0.709717	-0.694336	-0.11499	0.722287	0.140539	-0.644374	0.208164	9.86708	-0.641467	1.23454	-0.0238556	0.018928	-0.0272773	-0.870605	0.414551	-0.153564	0.432161	-0.530767	-0.518202	-0.512826	9.65373	0.786866	-0.687051	0.0225738	0.0231726	-0.0305287	-1.0166	0.306152	0.129395	0.534495	-0.425169	-0.569773	-0.457062	9.88521	0.730079	0.00967165	0.021575	0.0210165	-0.0130351	-1.02466	0.25415	-0.0185547	0.543947	0.392994	-0.643163	0.368806	9.64511	-0.679665	-1.25161	-0.00123005	0.0209185	-0.00358644	-0.958008	0.461914	0.175537	0.529778	-0.511351	-0.521001	-0.431756	9.77555	-1.12649	-0.533009	0.0284416	0.00302015	-0.00172907	-0.983398	0.494385	0.0327148	
31	0.703086	-0.0385425	-0.0954478	-0.703615	2.83892	0.839697	10.5548	0.0248943	0.00297545	-0.0191132	-0.188721	0.296875	-0.909912	0.904064	0.0395405	-0.398516	0.149297	7.42857	-0.435694	6.73775	0.0075467	0.0153618	-0.0278608	-0.512451	0.330078	-0.572754	0.793745	0.172476	0.179427	-0.555002	-4.58658	0.770575	9.55063	0.0119225	0.01837	0.036229	0.512451	0.187012	-0.770752	0.122454	0.15032	0.543231	-0.81689	-3.68515	-8.27499	3.46641	-0.0375802	-0.00119428	0.0133218	0.0244141	0.947754	-0.399658	0.642299	0.092634	0.170278	-0.741536	-3.41577	-1.17378	9.14025	0.0374045	0.00995744	0.00883916	0.278809	0.484863	-0.800537	-0.823934	-0.525274	-0.197571	-0.078647	-4.02153	8.4088	6.7448	0.0280889	0.00493963	0.00446991	0.703125	-0.690186	-0.113037	0.722338	0.141023	-0.644244	0.208064	9.90685	-0.673438	1.17778	0.023624	0.0218956	-0.0311194	-0.870605	0.414551	-0.151611	0.432019	-0.530887	-0.518136	-0.512889	9.71495	0.798141	-0.974803	-0.0112946	0.0117223	-0.0159705	-1.01929	0.314697	0.131592	0.534275	-0.425395	-0.569374	-0.457605	9.79774	0.663083	0.0176563	-0.0217694	0.00854045	-0.0271255	-1.03149	0.249512	-0.020752	0.543595	0.393825	-0.642016	0.370434	9.57942	-0.469886	-1.24424	0.100328	0.0351328	0.00562536	-0.955566	0.459717	0.171143	0.531232	-0.509842	-0.522363	-0.430106	9.80149	-0.622902	-0.688001	0.0993008	0.00146885	-0.00407652	-0.983154	0.487793	0.0305176	
32	0.703001	-0.0385474	-0.0955126	-0.703691	2.78142	0.820888	10.6393	-0.000637266	-0.0029409	-0.000961264	-0.186523	0.299072	-0.90332	0.904089	0.0396565	-0.398485	0.149196	7.44082	-0.518417	6.81598	-0.00106836	0.0152045	-0.0259111	-0.514648	0.332275	-0.570557	0.794208	0.173136	0.179101	-0.554239	-4.70662	1.05509	9.75375	-0.000121029	0.00285909	0.0363782	0.516602	0.188965	-0.772949	0.123158	0.150163	0.544087	-0.816243	-3.84838	-8.45688	3.48742	-0.0410785	-0.0161786	0.0183203	0.0288086	0.950195	-0.399658	0.641822	0.0942927	0.169894	-0.741828	-3.45716	-1.107	9.026	0.0655113	0.0522622	-0.0343425	0.276855	0.480469	-0.79834	-0.82363	-0.526119	-0.196718	-0.0783213	-4.01408	8.51328	6.68792	0.0556582	-0.0482695	-0.00249807	0.703125	-0.687988	-0.108887	0.722973	0.14082	-0.643664	0.207788	9.83695	-0.710376	1.37324	-0.0137229	0.0380619	-0.0317863	-0.866211	0.414551	-0.157959	0.431714	-0.530758	-0.517591	-0.513827	9.60107	0.503283	-0.930916	-0.0185266	0.021078	-0.0210716	-1.01855	0.301758	0.134277	0.534094	-0.425366	-0.569243	-0.458007	9.83042	0.566922	-0.128734	-0.00929803	0.0124063	-0.0310387	-1.02222	0.249756	-0.020752	0.543539	0.39411	-0.641666	0.370821	9.73518	-0.424342	-1.38094	0.00953762	0.0278652	-0.000719862	-0.955566	0.455322	0.17334	0.531345	-0.509898	-0.522428	-0.42982	9.80741	-1.00955	-0.564071	0.0293045	0.000576235	0.00475098	-0.980957	0.494385	0.0305176	
33	0.70302	-0.0390145	-0.0958726	-0.703598	2.97544	0.676072	10.623	0.00187007	-0.0182134	0.00227053	-0.188721	0.294678	-0.90332	0.90428	0.0401976	-0.398131	0.14884	7.45966	-0.391103	6.93649	0.00631547	0.0241668	-0.0429488	-0.51001	0.327881	-0.574951	0.794878	0.173088	0.180297	-0.552904	-4.6105	0.885729	9.73032	-0.0424887	0.0701596	0.0567363	0.514648	0.184814	-0.761475	0.124045	0.149146	0.544991	-0.815692	-3.77879	-8.4387	3.69622	-0.0660581	-0.0380464	0.005684	0.0266113	0.949951	-0.395264	0.64068	0.0956881	0.170327	-0.742538	-3.47369	-1.24704	8.93546	0.0276594	0.0716372	-0.0629327	0.279297	0.478271	-0.79834	-0.823375	-0.527102	-0.195515	-0.0774004	-3.91247	8.42321	6.68851	0.081155	-0.0480716	-0.024837	0.700928	-0.692383	-0.121582	0.723305	0.141224	-0.643177	0.207866	9.95594	-0.57709	1.3866	0.0355845	0.030677	-0.0253968	-0.868164	0.412354	-0.153564	0.432146	-0.530425	-0.517929	-0.513468	9.74302	0.735034	-1.00209	0.0443578	0.0384111	-0.01516	-1.01465	0.30835	0.134033	0.534449	-0.424728	-0.569815	-0.457473	9.90273	0.784312	0.0550365	0.0579086	0.00398103	-0.0289779	-1.02466	0.249512	-0.020752	0.543831	0.393891	-0.641251	0.371342	9.57235	-0.332362	-1.10739	-0.0182372	0.0304142	0.00938206	-0.958008	0.461914	0.166504	0.531422	-0.50987	-0.522537	-0.429626	9.91513	-0.814083	-0.754646	-0.0466209	0.00748341	-0.000407859	-0.985352	0.487793	0.0351562	
34	0.702926	-0.038797	-0.0960786	-0.703675	2.85239	0.797274	10.5592	0.0118544	0.0034976	-0.0122491	-0.191162	0.30127	-0.905518	0.904757	0.0398462	-0.397201	0.148523	7.37044	-0.465341	6.89141	-0.0232171	0.0636368	-0.026974	-0.505615	0.325684	-0.563232	0.795156	0.17329	0.180947	-0.552228	-4.65768	0.96839	9.67262	-0.0287031	0.0651427	0.0462277	0.516602	0.191162	-0.770752	0.124746	0.148119	0.546438	-0.814804	-3.99095	-8.37993	3.54291	-0.0730664	-0.0368685	-0.0154612	0.0241699	0.952148	-0.393066	0.639658	0.0966343	0.170385	-0.743282	-3.60983	-1.33946	9.05361	0.0277279	0.0508324	-0.0527728	0.276855	0.480469	-0.795898	-0.82317	-0.527768	-0.194844	-0.0767349	-4.10403	8.433	6.60128	0.037444	-0.0295648	-0.0110795	0.70752	-0.690186	-0.113037	0.723867	0.141017	-0.642739	0.207408	9.87781	-0.663296	1.33373	-0.0111375	0.0319107	-0.0232421	-0.872559	0.412354	-0.157715	0.432508	-0.53012	-0.517958	-0.513448	9.65123	0.772522	-0.917226	0.00612998	0.0138435	-0.0146246	-1.01465	0.306152	0.124756	0.534396	-0.424799	-0.56971	-0.4576	9.80137	0.654335	-0.0591702	-0.00665806	0.00611113	-0.0201601	-1.03149	0.247314	-0.020752	0.544301	0.39312	-0.641752	0.370605	9.65539	-0.588265	-1.41252	-0.0225656	0.030383	0.0128543	-0.960205	0.461914	0.177734	0.5314	-0.509972	-0.522274	-0.429852	9.78014	-0.822605	-0.691258	0.0211295	0.0153549	-0.00163191	-0.978516	0.487793	0.0258789	
35	0.702454	-0.0388773	-0.0960397	-0.704148	2.89868	0.759638	10.5457	-0.00248055	0.0108388	-0.0396114	-0.188721	0.299072	-0.901367	0.904825	0.0399087	-0.397117	0.148311	7.39058	-0.519792	6.8664	0.000712774	0.0064689	-0.022529	-0.508057	0.327881	-0.570312	0.795404	0.174351	0.184512	-0.550354	-4.67186	1.04607	9.43489	-0.0574185	0.12165	0.0245603	0.525391	0.186768	-0.761719	0.124853	0.14658	0.548667	-0.813566	-3.77045	-8.37394	3.3503	-0.12314	-0.015255	-0.0259009	0.0263672	0.952148	-0.384277	0.638774	0.0979905	0.170896	-0.743747	-3.64319	-1.36334	8.94343	0.0227715	0.0592345	-0.0419954	0.279297	0.476074	-0.795898	-0.822256	-0.529341	-0.194493	-0.0765945	-4.0789	8.46201	6.61329	0.0962427	0.00101455	0.0109625	0.701172	-0.692383	-0.11084	0.724061	0.141105	-0.642505	0.207394	9.88965	-0.64009	1.34989	0.0100346	0.0314049	-0.0187441	-0.868408	0.414551	-0.157959	0.432513	-0.530227	-0.51728	-0.514017	9.76817	0.78117	-0.880591	-0.0422177	0.0502835	-0.00911172	-1.0166	0.306152	0.131836	0.534009	-0.425087	-0.569453	-0.458103	9.89954	0.760022	0.0150768	-0.0376876	0.00629626	-0.0285019	-1.0293	0.251953	-0.0229492	0.544499	0.392776	-0.641789	0.370614	9.55854	-0.404554	-1.3151	-0.0322842	0.00414463	0.00857641	-0.953369	0.459717	0.171143	0.53109	-0.510508	-0.521375	-0.430689	9.80792	-0.873975	-0.686616	-0.0413456	0.0346045	0.00179327	-0.983154	0.48999	0.0258789	
36	0.702144	-0.0387941	-0.0957825	-0.704496	2.79747	0.809202	10.5848	-0.0106318	0.0204605	-0.0386492	-0.188477	0.294678	-0.907715	0.90503	0.0398955	-0.3966	0.148446	7.37345	-0.498899	6.90047	-0.000789576	0.0392981	-0.0132384	-0.507812	0.325684	-0.570312	0.795315	0.174002	0.18621	-0.550021	-4.8124	0.907032	9.44328	-0.0468212	0.0625581	-0.0149705	0.529541	0.190918	-0.761719	0.124399	0.145784	0.549537	-0.813192	-3.6356	-8.32018	3.33722	-0.0375131	0.0044861	-0.0270922	0.0241699	0.952148	-0.38208	0.638653	0.0988233	0.170889	-0.743743	-3.67034	-1.36523	8.96877	0.0428944	0.0583443	-0.00942746	0.28125	0.480469	-0.800537	-0.822256	-0.529341	-0.194493	-0.0765945	-4.0789	8.46201	6.61329	0.0962427	0.00101455	0.0109625	0.701172	-0.692383	-0.11084	0.724264	0.140699	-0.642461	0.2071	9.90197	-0.703319	1.41937	-0.0280532	0.0275788	-0.0165117	-0.872803	0.416748	-0.151611	0.432312	-0.530474	-0.516396	-0.51482	9.68442	0.629932	-0.894767	-0.0818305	0.0645854	-0.00420397	-1.0166	0.306152	0.129395	0.532799	-0.426051	-0.568947	-0.459244	9.73612	0.697158	0.0595189	-0.0776415	-0.0170321	-0.0392037	-1.02686	0.247314	-0.0163574	0.5451	0.391808	-0.642351	0.36978	9.67029	-0.483594	-1.36923	-0.0576676	0.0284373	0.0100373	-0.958008	0.464111	0.173096	0.530673	-0.511162	-0.520087	-0.431983	9.82219	-1.06551	-0.548748	-0.0415713	0.0400017	0.00332761	-0.976318	0.48999	0.0236816	
37	0.702072	-0.0388894	-0.0955762	-0.704591	2.78234	0.831962	10.6038	-0.00455894	0.00677919	0.012034	-0.195557	0.298828	-0.901367	0.905216	0.0400702	-0.396104	0.148593	7.32905	-0.423674	6.85816	0.00465416	0.0260676	-0.0143308	-0.508057	0.327881	-0.570312	0.795362	0.174417	0.186248	-0.549809	-4.92718	0.858782	9.46347	0.0342047	-0.00654028	0.00884395	0.520996	0.191162	-0.754883	0.124282	0.145794	0.550273	-0.81271	-3.63607	-8.44709	3.18024	-0.00647254	0.00698139	-0.00675438	0.0200195	0.947754	-0.384277	0.638637	0.100638	0.171278	-0.743423	-3.67724	-1.35879	8.85917	0.0108108	0.0411434	0.0141515	0.285889	0.473877	-0.800537	-0.821665	-0.530136	-0.194449	-0.0775407	-4.04432	8.40746	6.3663	0.0271918	0.0149029	0.0188832	0.703125	-0.692383	-0.11084	0.724683	0.140629	-0.642017	0.207055	9.79913	-0.665082	1.22808	0.029776	0.0386275	-0.0187778	-0.868408	0.414551	-0.155762	0.432094	-0.530933	-0.513333	-0.517585	9.75463	0.589542	-0.809245	-0.0921946	0.129496	-0.000260521	-1.0188	0.306152	0.129395	0.530535	-0.427695	-0.569046	-0.460213	9.88032	0.60558	-0.0437128	-0.0890735	-0.0666704	-0.0480505	-1.02441	0.247314	-0.0117188	0.546176	0.390289	-0.643052	0.368579	9.66545	-0.511856	-1.10929	-0.121424	0.0312252	0.00526209	-0.955811	0.461914	0.175537	0.529685	-0.512307	-0.518056	-0.434274	9.88069	-1.01758	-0.669138	-0.190267	0.0544081	-0.00369668	-0.980713	0.487793	0.0327148	
38	0.702072	-0.0388894	-0.0955762	-0.704591	2.78234	0.831962	10.6038	-0.00455894	0.00677919	0.012034	-0.195557	0.298828	-0.901367	0.905059	0.0399901	-0.396401	0.148783	7.31165	-0.495095	6.88587	-0.00735447	-0.0118286	0.00148974	-0.512207	0.323486	-0.574951	0.795307	0.174698	0.186065	-0.549861	-4.8159	0.888143	9.47391	0.0282527	0.0107277	-0.00110129	0.527588	0.188721	-0.766113	0.124183	0.145661	0.55013	-0.812846	-3.58903	-8.37299	3.31801	0.0152802	-0.00149649	-0.00908202	0.0241699	0.954346	-0.384277	0.638762	0.10108	0.171228	-0.743268	-3.63417	-1.33695	8.71216	0.0209309	0.0305047	0.00750107	0.285889	0.47168	-0.800537	-0.821558	-0.530201	-0.194475	-0.078165	-3.83852	8.41928	6.3321	0.00673844	0.0250497	-0.00231574	0.699219	-0.696533	-0.108643	0.724658	0.140431	-0.642066	0.207125	9.86395	-0.790343	1.35531	-9.7686e-05	0.0109529	-0.0082605	-0.868164	0.412354	-0.157715	0.432049	-0.530884	-0.512245	-0.518749	9.47685	0.47473	-0.814594	-0.0880175	0.105703	-0.0136724	-1.01465	0.306152	0.124756	0.529773	-0.4283	-0.569021	-0.46056	9.96847	0.60466	-0.41953	-0.0626819	-0.0367695	-0.0356091	-1.03589	0.244873	-0.0117188	0.546802	0.389398	-0.643704	0.367454	9.79418	-0.713709	-1.35411	-0.135593	0.0078616	0.000884242	-0.966797	0.461914	0.177734	0.529368	-0.512664	-0.517251	-0.435198	9.84578	-1.28241	-0.392844	-0.0910156	0.0533458	-0.006315	-0.980713	0.487793	0.0283203	
39	0.70254	-0.0391107	-0.0952705	-0.704153	2.6653	0.689445	10.6743	-0.0123857	-0.00482937	0.00854724	-0.188965	0.303467	-0.901367	0.904995	0.0397669	-0.396561	0.148799	7.41929	-0.4787	6.91964	-0.0124225	0.0219373	-0.0165788	-0.51001	0.327881	-0.572754	0.795713	0.173948	0.185714	-0.54963	-4.94119	0.89545	9.61083	-0.0212729	-0.038498	0.0041707	0.527588	0.186523	-0.761719	0.124182	0.145639	0.549847	-0.813042	-3.80306	-8.52969	3.25922	0.0287036	-0.00402487	-4.42586e-05	0.0178223	0.947754	-0.386475	0.639353	0.100372	0.17099	-0.74291	-3.60196	-1.22183	8.89035	-0.0379949	-0.0266975	-0.00290346	0.283691	0.473877	-0.800537	-0.821941	-0.529465	-0.19475	-0.0784294	-3.9364	8.3707	6.37159	-0.0181224	0.0145631	-0.0207966	0.701172	-0.69458	-0.11084	0.724705	0.140949	-0.641677	0.207815	9.89135	-0.588088	1.54722	0.0380147	0.0150209	-0.0125717	-0.870605	0.416748	-0.160156	0.43218	-0.530713	-0.51294	-0.518128	9.54572	0.393962	-1.31716	0.0897479	-0.0254677	-0.0197196	-1.01465	0.306152	0.129395	0.530369	-0.427684	-0.569053	-0.460406	9.78403	0.300844	-0.563129	0.0949695	0.0366233	-0.0201567	-1.03125	0.240234	-0.013916	0.547497	0.388921	-0.643068	0.368037	9.74284	-0.867103	-1.15011	0.0604306	0.0759996	0.0045746	-0.955811	0.464111	0.170898	0.530064	-0.511949	-0.517655	-0.434712	9.83947	-0.982	-0.511527	0.08209	-9.98232e-05	-0.00509463	-0.983154	0.487793	0.0305176	
40	0.702534	-0.040081	-0.0953241	-0.704097	2.70936	0.665813	10.5918	-0.0289566	-0.0269537	0.00295703	-0.186768	0.303467	-0.89917	0.905169	0.0390929	-0.396224	0.14882	7.28456	-0.506201	6.94811	-0.0355942	0.0353618	-0.0140043	-0.505859	0.329834	-0.584473	0.795741	0.173348	0.186283	-0.549587	-4.79302	0.956831	9.53809	-0.0364693	0.0288954	-0.00853929	0.525391	0.193115	-0.759521	0.12407	0.144354	0.5495	-0.813522	-3.6959	-8.48475	3.42709	0.000461199	-0.0409388	-0.0361171	0.0217285	0.956543	-0.391113	0.639383	0.0999736	0.171092	-0.742915	-3.50198	-1.19662	8.88272	-0.0279876	-0.0112586	-0.0185895	0.283936	0.469482	-0.802734	-0.822316	-0.528964	-0.194728	-0.0779344	-3.92009	8.462	6.63098	-0.00558144	-0.0138369	-0.038962	0.705566	-0.694336	-0.11084	0.725037	0.139678	-0.641849	0.20698	9.77592	-0.75054	1.39029	-0.0641221	0.02304	-0.00797265	-0.866211	0.412354	-0.155762	0.432945	-0.529644	-0.51455	-0.516985	9.68424	0.880649	-0.694967	0.0769859	0.0183716	-0.0464548	-1.01636	0.299561	0.122559	0.532517	-0.425121	-0.570542	-0.458453	9.68972	1.10539	0.203577	0.104975	0.0358955	-0.0226863	-1.03369	0.247314	-0.0185547	0.546815	0.390321	-0.641701	0.369948	9.62899	-0.458999	-1.20507	0.0898651	0.0256924	-0.00576839	-0.955566	0.45752	0.171143	0.531377	-0.510863	-0.519056	-0.432711	9.73766	-1.04279	-0.489293	0.130763	-0.0253203	0.0135371	-0.980957	0.48999	0.0236816	
41	0.702129	-0.0409269	-0.0951248	-0.704479	2.84328	0.643464	10.6592	-0.0282296	-0.00885837	-0.0247484	-0.188721	0.296875	-0.89917	0.905128	0.0385221	-0.396509	0.148457	7.27494	-0.485036	6.89773	-0.0399644	-0.0182077	-0.0229842	-0.508301	0.334473	-0.570557	0.795524	0.172275	0.187081	-0.549967	-4.80955	0.911802	9.45335	-0.0494681	0.0118037	-0.0406892	0.525391	0.193115	-0.759521	0.123331	0.143517	0.549172	-0.814004	-3.57215	-8.3722	3.41489	0.0200078	0.00269539	-0.0360255	0.0153809	0.949951	-0.388672	0.638435	0.0989437	0.171498	-0.743774	-3.67064	-1.29111	8.98326	0.00832264	0.0200698	-0.0683417	0.281494	0.476074	-0.793701	-0.822535	-0.528759	-0.194616	-0.0772938	-3.91163	8.54499	6.61685	0.0157795	-0.00600946	-0.0340106	0.703125	-0.692383	-0.113037	0.7248	0.139484	-0.642169	0.206951	9.86271	-0.700304	1.35431	0.0379328	-0.00364152	-0.00838154	-0.868408	0.414551	-0.159912	0.432971	-0.529522	-0.514729	-0.516911	9.87746	0.730972	-0.8461	-0.00189732	0.0148872	-0.00350818	-1.01245	0.306152	0.122314	0.532734	-0.42485	-0.570187	-0.458894	9.93327	0.679747	0.030171	-0.00440583	0.0285706	-0.0161842	-1.02661	0.240479	-0.0183105	0.546465	0.3915	-0.640029	0.372111	9.59966	-0.39039	-1.13748	0.106286	0.0496328	0.000515744	-0.956055	0.468506	0.161621	0.533449	-0.508687	-0.521037	-0.430336	10.0402	-0.430873	-0.918143	0.127821	0.0192357	-0.0143178	-0.978516	0.487793	0.0283203	
42	0.701757	-0.0416206	-0.0949744	-0.70483	2.72646	0.705078	10.6508	-0.0194076	-0.0231222	-0.0157365	-0.191162	0.303467	-0.903564	0.905002	0.038366	-0.396938	0.14812	7.42333	-0.440736	6.86592	-0.00884294	0.00677334	-0.0222103	-0.510254	0.330078	-0.577393	0.79533	0.171556	0.186927	-0.550524	-4.88242	0.773685	9.47621	0.0051939	-0.026107	-0.0278088	0.529541	0.193115	-0.757324	0.122766	0.143431	0.549002	-0.814219	-3.68411	-8.45887	3.21133	0.0274796	0.0102394	-0.0137425	0.0131836	0.952148	-0.384277	0.637654	0.0986294	0.171431	-0.744501	-3.77582	-1.33401	8.9981	-0.00260361	-0.00437139	-0.0540724	0.281494	0.478271	-0.79834	-0.822973	-0.528092	-0.194755	-0.0768426	-4.06785	8.54288	6.3313	-0.0185328	-0.00491962	-0.0368344	0.703125	-0.692383	-0.115234	0.725149	0.13917	-0.641821	0.207017	9.86318	-0.56304	1.50964	-0.0192132	0.0407561	-0.0153916	-0.868408	0.414551	-0.162109	0.432759	-0.529492	-0.514423	-0.517424	9.65999	0.604282	-0.735056	-0.0495036	0.0248731	-0.0296644	-1.01685	0.30835	0.124756	0.532357	-0.425118	-0.569838	-0.459516	9.84487	0.701363	-0.0395853	-0.0484955	0.00680209	-0.0283771	-1.02881	0.240479	-0.013916	0.54644	0.391425	-0.640502	0.371412	9.77532	-0.511679	-1.37377	-0.0425491	-0.00445043	0.0034519	-0.956055	0.466309	0.159424	0.533165	-0.509013	-0.520456	-0.431007	9.70509	-1.18956	-0.423401	-0.0020877	0.0209961	-0.00746983	-0.983154	0.48999	0.0214844	
43	0.701736	-0.0425021	-0.0955055	-0.704726	2.75368	0.688555	10.6276	0.00126817	-0.0399454	-9.4816e-05	-0.197754	0.303223	-0.903564	0.904934	0.0384699	-0.397111	0.148046	7.35579	-0.41774	6.93096	-0.010818	-0.000152521	-0.0220997	-0.505859	0.327881	-0.572754	0.79513	0.171518	0.186215	-0.551067	-4.8717	0.918744	9.39609	0.0108862	-0.02596	-0.016912	0.520996	0.195312	-0.759521	0.122652	0.143417	0.548138	-0.814821	-3.5024	-8.43547	3.36366	0.0426511	-0.00266819	-0.000467891	0.0175781	0.949951	-0.395264	0.63722	0.0984997	0.1712	-0.744943	-3.65187	-1.39518	8.8981	0.0153665	-0.0105896	-0.0266816	0.2771	0.476074	-0.800537	-0.82334	-0.527692	-0.194444	-0.0764458	-4.0432	8.45587	6.45208	-0.0108727	-0.0153577	-0.0214957	0.70752	-0.692383	-0.115234	0.725095	0.139035	-0.64196	0.206866	9.9033	-0.619747	1.36369	0.0101597	0.0104302	-0.0142453	-0.868164	0.412354	-0.153564	0.432254	-0.529879	-0.513788	-0.51808	9.63142	0.739078	-0.860897	-0.0223956	0.0277608	-0.014288	-1.021	0.30835	0.127197	0.531725	-0.425624	-0.569507	-0.46019	9.87253	0.612331	-0.127371	-0.0286145	0.00653763	-0.0332959	-1.03809	0.242676	-0.0163574	0.546673	0.391343	-0.639797	0.372371	9.61281	-0.560747	-1.08096	0.0388317	0.0332764	0.00917354	-0.955566	0.459717	0.159668	0.533657	-0.50854	-0.52071	-0.430649	9.86096	-0.919495	-0.523064	0.0169961	0.016589	0.00377083	-0.974365	0.494385	0.0212402	
44	0.701569	-0.0431889	-0.0962544	-0.704749	2.81772	0.726597	10.605	0.00661022	-0.0308669	-0.00548782	-0.193359	0.303223	-0.903564	0.904941	0.0379288	-0.397268	0.147722	7.24924	-0.489072	6.91596	-0.0346552	0.00252374	-0.0231772	-0.514648	0.332275	-0.572754	0.795416	0.170749	0.184903	-0.551333	-4.75397	0.785136	9.53742	0.00996488	-0.032689	0.00845179	0.520996	0.195557	-0.766357	0.122469	0.144091	0.547024	-0.815478	-3.63472	-8.41788	3.42822	0.051786	0.0247382	0.0146138	0.0175781	0.952148	-0.393066	0.637541	0.098297	0.170414	-0.744875	-3.61796	-1.19199	8.87798	0.00431092	-0.017941	-0.00332427	0.279297	0.476074	-0.79834	-0.824007	-0.526683	-0.19437	-0.076407	-3.9426	8.40367	6.48476	-0.0204911	0.00828092	-0.0264031	0.709473	-0.687988	-0.119629	0.725381	0.138143	-0.642028	0.20625	9.76823	-0.734601	1.35589	-0.0330248	0.0183889	-0.0105893	-0.866455	0.421143	-0.153809	0.432064	-0.530136	-0.513395	-0.518364	9.7679	0.644628	-0.804411	-0.0182651	0.0293956	-0.0100632	-1.0188	0.301758	0.124756	0.531234	-0.426074	-0.56894	-0.461041	9.84409	0.730516	-0.00133595	-0.0620539	0.00801236	-0.0269937	-1.02661	0.244873	-0.013916	0.546882	0.391262	-0.639474	0.372703	9.63769	-0.438479	-1.15578	0.00840145	0.0464865	0.00624075	-0.962646	0.464111	0.157227	0.534851	-0.50743	-0.52115	-0.429943	9.75158	-0.719678	-0.566654	0.0627261	0.0207188	-0.000106424	-0.989746	0.487793	0.0214844	
45	0.70153	-0.0440803	-0.0965404	-0.704693	2.75257	0.722275	10.6537	-0.0200962	-0.0345878	0.00342028	-0.193359	0.301025	-0.901367	0.904713	0.037524	-0.398	0.147251	7.32333	-0.567035	6.93318	-0.026452	-0.0153988	-0.027319	-0.512207	0.327881	-0.572754	0.795534	0.170398	0.18394	-0.551594	-4.79773	0.980647	9.56324	0.00303262	-0.0335949	-0.0149206	0.520996	0.191162	-0.761719	0.122221	0.144353	0.546114	-0.816078	-3.72698	-8.45952	3.36075	0.0571065	0.00646035	-0.000676529	0.0131836	0.952148	-0.393066	0.637625	0.0979266	0.170227	-0.744895	-3.68196	-1.27107	8.93637	-0.00896941	-0.0258649	-0.0137244	0.2771	0.478271	-0.805176	-0.824238	-0.526348	-0.194365	-0.0762385	-3.90578	8.54486	6.53561	-0.0139114	-0.00224179	-0.0293816	0.705322	-0.692383	-0.117188	0.725351	0.138061	-0.642051	0.206338	9.77592	-0.714733	1.42753	0.012124	0.0107646	-0.00658169	-0.864258	0.416748	-0.160156	0.431943	-0.530205	-0.512831	-0.518954	9.61218	0.689999	-0.80154	-0.0269285	0.0328697	-0.0160867	-1.0188	0.303955	0.11792	0.53096	-0.426234	-0.568664	-0.461549	9.85327	0.807338	0.0653741	-0.0155837	0.0247864	-0.0280685	-1.02637	0.238037	-0.0161133	0.546971	0.391279	-0.638917	0.373507	9.71831	-0.543002	-1.11954	0.0276862	0.0331336	0.00833492	-0.955811	0.461914	0.159668	0.534509	-0.508308	-0.52097	-0.42955	9.84124	-0.971864	-0.382328	-0.0167719	-0.0248675	0.0229266	-0.976318	0.48999	0.0236816	
46	0.701545	-0.0446995	-0.0966825	-0.70462	2.79573	0.644678	10.6621	-0.0242616	-0.0406482	0.00637956	-0.195801	0.303223	-0.896973	0.904563	0.0374404	-0.398437	0.147013	7.38166	-0.556804	6.97053	-0.0231407	-0.0230286	-0.0292255	-0.514648	0.330078	-0.568115	0.795572	0.169806	0.183815	-0.551764	-4.78742	0.910794	9.5572	-0.0292189	-0.0274101	-0.0196801	0.520996	0.19751	-0.759521	0.122119	0.144371	0.545693	-0.816372	-3.65279	-8.41062	3.42043	0.0428013	0.00386935	-0.000469922	0.0153809	0.949951	-0.397461	0.637467	0.0974085	0.169598	-0.745241	-3.69787	-1.2187	8.8627	0.014432	-0.0351227	-0.0356335	0.2771	0.476074	-0.802734	-0.824987	-0.525259	-0.194334	-0.075721	-3.90363	8.46776	6.44161	-0.0342271	-0.0129246	-0.0432114	0.703125	-0.692383	-0.123779	0.724794	0.137938	-0.6428	0.206049	9.87401	-0.718826	1.48776	0.00954349	-0.029131	-0.0162942	-0.870605	0.414551	-0.155762	0.431955	-0.530216	-0.512707	-0.519055	9.735	0.761744	-0.82702	-0.00536943	0.0257423	-0.0130027	-1.021	0.303955	0.127197	0.530779	-0.426799	-0.567747	-0.462363	9.98649	0.898973	-0.138717	-0.0954178	0.0448228	-0.00520633	-1.02881	0.240479	-0.0183105	0.546976	0.391485	-0.638406	0.374159	9.76217	-0.725896	-0.98291	0.0574265	0.0498059	0.00416817	-0.955811	0.461914	0.155029	0.534707	-0.50834	-0.521356	-0.428796	9.89671	-1.06805	-0.537965	0.0546644	-0.0332235	0.0207445	-0.980957	0.494385	0.0258789	
47	0.701372	-0.0458388	-0.0973213	-0.70463	2.79716	0.688032	10.6068	-0.0106485	-0.0491062	-0.00914304	-0.195801	0.303223	-0.896973	0.904576	0.0375189	-0.398474	0.146808	7.35219	-0.454829	7.0024	-0.00619285	0.0192812	-0.0243581	-0.512451	0.330078	-0.570312	0.795711	0.168591	0.182907	-0.552238	-4.56553	0.783764	9.56301	-0.00455986	-0.0489158	-0.00939352	0.514404	0.195557	-0.76416	0.122088	0.144395	0.545366	-0.816591	-3.63349	-8.46735	3.40039	0.0319615	0.00270568	0.00370562	0.0200195	0.947754	-0.393066	0.637134	0.096552	0.169204	-0.745727	-3.62256	-1.31162	8.93565	-0.0108712	-0.0257348	-0.0411051	0.270508	0.478271	-0.802734	-0.825596	-0.524332	-0.194413	-0.0753061	-4.00001	8.50918	6.51328	-0.0136754	0.00303991	-0.0445039	0.709473	-0.685791	-0.119629	0.724366	0.138496	-0.643055	0.206383	9.90966	-0.673263	1.55087	0.029991	-0.000302532	-0.0164303	-0.868408	0.416748	-0.155762	0.43233	-0.53004	-0.513014	-0.518618	9.63478	0.701697	-0.855453	0.0555252	0.00594488	-0.0177625	-1.0188	0.301758	0.11792	0.530998	-0.426997	-0.567362	-0.462402	9.85888	0.613707	-0.16547	0.0603887	0.00576479	-0.00971295	-1.02661	0.242676	-0.013916	0.546085	0.392562	-0.637672	0.375581	9.60807	-0.418626	-1.1736	0.0586706	-0.00874072	0.00580146	-0.951172	0.461914	0.159668	0.5354	-0.507749	-0.522517	-0.427217	9.92125	-0.893673	-0.714189	0.06214	-0.0163285	0.00362663	-0.979004	0.496582	0.0212402	
48	0.701311	-0.0468825	-0.0979104	-0.704541	2.8723	0.669259	10.5344	-0.00260961	-0.0423179	0.0010199	-0.199951	0.301025	-0.89917	0.904591	0.0376467	-0.39836	0.146996	7.20867	-0.431566	6.8884	0.0114191	0.00196341	-0.0130912	-0.512207	0.327881	-0.572754	0.795817	0.168587	0.182284	-0.552292	-4.71118	0.82842	9.64142	0.0136812	-0.0161164	0.00341554	0.516602	0.193359	-0.768555	0.122504	0.143888	0.544006	-0.817525	-3.60958	-8.38185	3.61165	0.0267839	-0.0357906	-0.00209631	0.0134277	0.947754	-0.401855	0.637031	0.0955429	0.168857	-0.746023	-3.72151	-1.36716	9.0079	-0.0121055	-0.0159335	-0.022815	0.272705	0.476074	-0.800537	-0.826427	-0.523032	-0.194408	-0.0752374	-4.07716	8.33342	6.57079	-0.0400716	0.00468831	-0.0209467	0.70752	-0.692383	-0.119385	0.724277	0.138901	-0.642958	0.206722	9.7524	-0.563624	1.5388	0.0525402	0.00163044	-0.0166627	-0.866211	0.414551	-0.159912	0.43273	-0.529683	-0.514086	-0.517587	9.72697	0.660926	-0.777245	0.05304	-0.0106836	-0.0151377	-1.01685	0.30835	0.120117	0.531815	-0.426333	-0.568407	-0.460789	9.93931	0.800126	0.04555	0.0706303	-0.0177786	-0.00151185	-1.02881	0.240479	-0.0161133	0.545584	0.393028	-0.637713	0.37575	9.63717	-0.403388	-1.00113	0.0274163	0.00700905	0.00682077	-0.962646	0.464111	0.152588	0.534998	-0.508138	-0.523036	-0.426622	9.8264	-0.916959	-0.648576	-0.0140378	-0.0289592	6.22859e-05	-0.980957	0.494385	0.0236816	
49	0.701357	-0.0473394	-0.0981267	-0.704435	2.84439	0.676956	10.5842	-0.00196786	-0.0102084	0.00933285	-0.199951	0.298828	-0.905762	0.90433	0.0378571	-0.39874	0.147513	7.43527	-0.451343	6.98845	0.0061185	0.003937	0.00534733	-0.508057	0.330078	-0.565674	0.796429	0.167734	0.182481	-0.551603	-4.83084	0.793587	9.58467	-0.0396119	-0.0142328	0.0274509	0.518799	0.197754	-0.76416	0.122957	0.143682	0.543961	-0.817523	-3.66036	-8.46871	3.48296	-0.00703151	-0.00747948	0.0157085	0.0178223	0.947754	-0.397461	0.637279	0.0955851	0.168201	-0.745954	-3.70747	-1.33842	8.95675	0.0179575	-0.0197392	0.00851711	0.270508	0.476074	-0.807373	-0.826608	-0.522457	-0.194941	-0.0758639	-4.01461	8.60217	6.54124	-0.0261976	0.0474034	-0.00772285	0.705078	-0.685791	-0.125977	0.724052	0.138965	-0.643172	0.206801	9.96025	-0.58949	1.42733	-0.00863331	0.00492489	-0.0108032	-0.868652	0.418945	-0.151611	0.432776	-0.530003	-0.514811	-0.516499	9.71139	0.912156	-0.716398	0.0253531	-0.0345619	-0.0023631	-1.0166	0.303955	0.129395	0.532312	-0.426292	-0.568928	-0.459609	9.76376	0.750083	0.00523764	0.058565	-0.0252198	-0.000449142	-1.02686	0.249512	-0.0163574	0.544969	0.393011	-0.638817	0.374786	9.63681	-0.536401	-1.33075	-0.0462448	-0.0563903	0.00756349	-0.955811	0.464111	0.159424	0.53434	-0.508756	-0.522984	-0.426773	9.66092	-0.854326	-0.553286	-0.0258201	-0.0211943	-0.00189357	-0.97876	0.494385	0.0236816	
50	0.701738	-0.0474268	-0.098789	-0.703957	2.90985	0.677045	10.6326	0.0223155	-0.0151523	0.0257455	-0.200195	0.30542	-0.901367	0.90442	0.0380741	-0.398332	0.148007	7.2926	-0.482079	6.86896	0.0142417	0.0170335	-0.0043631	-0.514404	0.327881	-0.567871	0.796946	0.167884	0.182509	-0.550802	-4.83653	0.947547	9.57105	-0.00428996	0.0201015	0.0352959	0.518799	0.195557	-0.761719	0.123341	0.143062	0.544151	-0.817447	-3.65479	-8.45578	3.40646	-0.0105943	-0.0274616	-0.00603003	0.0175781	0.952148	-0.390869	0.637879	0.0950469	0.167729	-0.745616	-3.64676	-1.30076	8.95632	-0.00507027	-0.0269681	0.0177926	0.272705	0.478271	-0.800537	-0.827039	-0.521429	-0.19542	-0.0769988	-3.98977	8.35529	6.52681	-0.0223162	0.0415338	0.0069697	0.701172	-0.69458	-0.12793	0.723888	0.139339	-0.643127	0.207262	9.81015	-0.66	1.35438	0.0472897	0.00619515	-0.0103096	-0.864258	0.416748	-0.153564	0.432393	-0.530873	-0.514368	-0.516369	9.78838	0.702772	-0.700292	-0.0335433	0.0104496	0.00895021	-1.0188	0.306152	0.122559	0.531716	-0.42711	-0.569376	-0.458983	9.89716	0.738639	0.112377	-0.0142183	-0.048371	-0.00766871	-1.03149	0.24707	-0.00952148	0.544775	0.392394	-0.640002	0.373691	9.60258	-0.362752	-1.15161	-0.0703827	-0.0231965	0.0199651	-0.958008	0.464111	0.159424	0.532801	-0.510406	-0.522127	-0.427776	9.82023	-1.01483	-0.653756	-0.0971798	-0.0180138	0.00121833	-0.97876	0.494385	0.0280762	
51	0.702544	-0.0472427	-0.0997691	-0.703026	2.84156	0.692516	10.6471	0.0414745	-0.0175343	0.0423328	-0.199951	0.301025	-0.905762	0.904125	0.038208	-0.398877	0.14831	7.42999	-0.585574	6.91397	0.0109628	-0.000398346	-0.0083797	-0.510254	0.330078	-0.570312	0.797532	0.166991	0.182341	-0.55028	-4.72981	0.840655	9.49625	-0.0392949	-0.0238068	0.0188177	0.518799	0.195557	-0.76416	0.123668	0.142674	0.543867	-0.817654	-3.53143	-8.42476	3.465	0.0125567	-0.00688828	0.0125792	0.0180664	0.943359	-0.395264	0.638553	0.0945022	0.167141	-0.745241	-3.58761	-1.34102	8.94244	-0.00477464	-0.0341149	0.018232	0.270508	0.476074	-0.800537	-0.827471	-0.520311	-0.196123	-0.0781293	-4.10881	8.43288	6.58767	-0.0413716	0.0596559	-0.00915813	0.703125	-0.692383	-0.123779	0.723177	0.139685	-0.643809	0.207397	9.93415	-0.799298	1.36376	0.0254543	-0.0264295	-0.0128303	-0.868652	0.418945	-0.153809	0.431828	-0.531875	-0.513418	-0.516755	9.63374	0.689719	-0.842575	-0.0394471	-0.0010903	0.0011751	-1.01025	0.30835	0.134033	0.53016	-0.428636	-0.569034	-0.459785	9.75619	0.873411	-0.0714744	-0.105589	-0.0360084	-0.0286041	-1.02686	0.247314	-0.0117188	0.544576	0.391262	-0.642273	0.371263	9.67168	-0.414801	-1.38053	-0.147129	-0.0611549	0.00673628	-0.951416	0.466309	0.170898	0.530406	-0.512929	-0.520177	-0.430104	9.80147	-1.01482	-0.701268	-0.226283	0.0010631	0.00343931	-0.979004	0.496582	0.0327148	
52	0.702787	-0.0473367	-0.100249	-0.702709	2.71022	0.681359	10.6292	0.026933	-0.029108	0.0273281	-0.200195	0.303223	-0.901367	0.904198	0.0384723	-0.398604	0.148531	7.32491	-0.520538	6.87685	0.0243694	0.0326651	-0.0120068	-0.512451	0.332275	-0.568115	0.798132	0.166338	0.181266	-0.549964	-4.67459	0.683745	9.569	0.0150914	-0.0338235	0.0200676	0.514404	0.197754	-0.759521	0.124018	0.142935	0.543105	-0.818062	-3.59296	-8.39879	3.55343	0.0307389	-0.00129596	0.0251591	0.0178223	0.947754	-0.395264	0.639081	0.0940049	0.166771	-0.744933	-3.47596	-1.31221	9.04206	-0.0120964	-0.0463687	0.0293218	0.268311	0.480469	-0.807373	-0.827816	-0.519524	-0.196533	-0.0786798	-4.06686	8.41635	6.53396	-0.055521	0.0542327	-0.0118882	0.703125	-0.692383	-0.121582	0.723	0.140088	-0.643807	0.207747	9.82087	-0.773096	1.35207	0.055505	-0.000505944	-0.0141414	-0.866211	0.416748	-0.149414	0.431631	-0.532334	-0.512953	-0.516908	9.75429	0.68511	-0.830435	-0.0443652	0.0143278	0.00890751	-1.02124	0.30835	0.124756	0.5292	-0.429708	-0.568706	-0.460295	9.84479	0.668854	-0.0339951	-0.108025	-0.0446292	-0.0180642	-1.02441	0.247314	-0.0141602	0.544664	0.390633	-0.643373	0.369889	9.64798	-0.552334	-1.23605	-0.133618	-0.05467	0.0064191	-0.953369	0.45752	0.168701	0.527491	-0.515832	-0.517843	-0.433023	9.76884	-1.12767	-0.538124	-0.240456	0.000411493	0.000340369	-0.980957	0.492188	0.0395508	
53	0.703165	-0.0486145	-0.101711	-0.702033	2.90656	0.58918	10.5739	0.00577224	-0.0574658	0.0186912	-0.202393	0.307617	-0.899414	0.903831	0.0388743	-0.399323	0.148725	7.41451	-0.575179	6.88347	0.0115496	-0.0189378	-0.0148032	-0.512451	0.332275	-0.568115	0.798495	0.166131	0.180189	-0.549853	-4.70648	0.829475	9.64698	-0.00346655	-0.0370977	0.0117331	0.514404	0.193359	-0.766357	0.12447	0.143225	0.54244	-0.818384	-3.5679	-8.42866	3.5873	0.0331075	-0.00479327	0.0254078	0.015625	0.945557	-0.401855	0.640062	0.0931445	0.166179	-0.744331	-3.45532	-1.38278	9.03717	0.00470283	-0.0196619	0.0151222	0.270508	0.476074	-0.800537	-0.828397	-0.518274	-0.197083	-0.079435	-4.08174	8.44886	6.62114	-0.0464849	0.0313913	-0.0129699	0.707275	-0.687988	-0.121582	0.721953	0.1414	-0.644416	0.208608	9.81231	-0.718129	1.2447	0.0730225	-0.0593081	-0.0156173	-0.877197	0.416748	-0.151611	0.431021	-0.533457	-0.511458	-0.517741	9.57823	0.501003	-0.974547	-0.040214	0.00963187	0.0011587	-1.01465	0.30835	0.126953	0.527177	-0.432194	-0.568355	-0.460723	9.87454	0.56939	-0.313562	-0.0111054	-0.0433616	-0.00921334	-1.03149	0.249268	-0.00512695	0.544728	0.38912	-0.646021	0.36676	9.66855	-0.737824	-1.23221	-0.0446235	-0.0297823	0.0117491	-0.953369	0.461914	0.187012	0.525773	-0.517483	-0.516852	-0.434325	9.86937	-1.02503	-0.641086	-0.0974018	-0.00986347	-0.0052972	-0.974121	0.48999	0.0441895	
54	0.703343	-0.0489004	-0.102149	-0.701771	3.09585	0.598666	10.5944	0.0145038	-0.0380255	0.0225684	-0.202148	0.301025	-0.901367	0.903651	0.0393262	-0.399627	0.148887	7.39403	-0.550259	6.82906	0.0302743	-0.0195635	-0.0172552	-0.512207	0.323486	-0.574951	0.798752	0.165664	0.180033	-0.549672	-4.64294	0.764971	9.58578	-0.027934	-0.0223201	0.0146154	0.508057	0.195557	-0.761719	0.124771	0.143414	0.54216	-0.818491	-3.52167	-8.40374	3.60434	0.0219993	0.000532537	0.0332842	0.0136719	0.943359	-0.397461	0.640334	0.0931622	0.165822	-0.744175	-3.45974	-1.25608	9.03519	0.0176095	-0.013022	0.0126596	0.268311	0.478271	-0.800537	-0.828935	-0.51725	-0.197357	-0.0798131	-4.04745	8.37148	6.62577	-0.0211018	0.0211614	-0.0191547	0.707275	-0.685791	-0.124023	0.721183	0.141885	-0.645163	0.208634	9.84821	-0.804368	1.35712	0.0190712	-0.0314328	-0.019088	-0.872803	0.418945	-0.151611	0.431013	-0.533644	-0.511543	-0.517471	9.52496	0.450545	-1.00295	0.0119843	-0.00484774	-0.00282048	-1.0166	0.306152	0.124756	0.526934	-0.43267	-0.568345	-0.460566	9.86246	0.591142	-0.342069	-0.0161569	-0.0264553	-0.00153908	-1.0249	0.256348	-0.00756836	0.544457	0.389173	-0.646492	0.366278	9.6294	-0.676889	-1.40803	-0.0278386	-0.0378541	0.00121296	-0.955811	0.466309	0.177734	0.525422	-0.517804	-0.516732	-0.434509	9.907	-1.2043	-0.627947	-0.0365666	-0.00619043	-0.00567163	-0.976318	0.48999	0.0441895	
55	0.70361	-0.0498411	-0.1034	-0.701254	3.02171	0.548751	10.5355	0.0153566	-0.0779772	0.0153081	-0.206787	0.303223	-0.903564	0.903482	0.0395487	-0.399975	0.148919	7.42153	-0.545235	6.87209	-0.00409622	0.0115853	-0.0202131	-0.514648	0.334473	-0.570557	0.799284	0.165255	0.179001	-0.549358	-4.5622	0.672545	9.61201	0.0225593	-0.0302764	0.0281718	0.514404	0.195557	-0.768555	0.125542	0.143691	0.541691	-0.818635	-3.62053	-8.32294	3.59188	0.00979849	-0.00934775	0.0351389	0.0178223	0.947754	-0.404053	0.640788	0.0927354	0.16525	-0.743965	-3.39705	-1.30438	9.06591	0.00513109	-0.0219098	0.0056718	0.272705	0.478271	-0.805176	-0.8296	-0.516161	-0.197297	-0.0800917	-4.16145	8.32175	6.64395	-0.0354549	-0.00247573	-0.0120495	0.702881	-0.685791	-0.123779	0.720808	0.142287	-0.645525	0.208539	9.8319	-0.726462	1.4625	0.0169824	-0.0147277	-0.0258235	-0.872559	0.414551	-0.147217	0.430486	-0.534247	-0.512387	-0.516451	9.63497	0.525861	-1.06233	0.0214657	-0.0575665	-0.022023	-1.0105	0.312744	0.131592	0.527556	-0.432648	-0.568763	-0.459357	9.91404	0.527943	-0.346596	0.0778696	0.00407125	0.00824115	-1.02466	0.251709	-0.00292969	0.543455	0.39007	-0.6467	0.366444	9.64895	-0.648382	-1.25439	0.0583778	-0.0177152	0.00507825	-0.958008	0.464111	0.179932	0.525613	-0.517379	-0.517665	-0.433673	9.78828	-1.02027	-0.584236	0.0480106	-0.0221947	-0.00914823	-0.976318	0.48999	0.0419922	
56	0.703727	-0.0504453	-0.104238	-0.70097	3.05601	0.514176	10.4981	0.00689522	-0.0269551	0.0118365	-0.208984	0.305176	-0.897217	0.903063	0.0401889	-0.400707	0.149317	7.42223	-0.565632	6.88927	0.0274962	-0.0398471	-0.00654007	-0.514648	0.330078	-0.561035	0.79977	0.165485	0.17815	-0.548859	-4.59673	0.828332	9.62692	0.0134257	-0.0112428	0.0270829	0.512451	0.191162	-0.763916	0.126375	0.143722	0.541311	-0.818753	-3.52544	-8.39403	3.69549	0.0118963	-0.0101736	0.0382652	0.0158691	0.943359	-0.404053	0.641068	0.0927363	0.164612	-0.743865	-3.44487	-1.31741	9.02546	0.0202403	-0.0159552	-0.00172853	0.274902	0.473877	-0.805176	-0.830137	-0.515389	-0.196952	-0.0803518	-4.0399	8.36925	6.73407	-0.0223666	-0.00188998	-0.00742592	0.70752	-0.69458	-0.130127	0.719952	0.142382	-0.646646	0.207954	9.91463	-0.760992	1.23496	-0.0129414	-0.0507885	-0.022941	-0.874756	0.414551	-0.149414	0.43055	-0.534423	-0.513808	-0.514801	9.66972	0.683258	-0.700613	0.0513937	-0.033652	-0.0113955	-1.0144	0.303955	0.138916	0.528352	-0.432318	-0.568914	-0.458565	9.79271	0.817813	-0.0119423	0.0170028	0.0172746	-0.00328069	-1.02466	0.251709	-0.00976562	0.542409	0.391101	-0.647082	0.366221	9.6992	-0.712778	-1.34719	0.0175475	-0.0448596	-0.0141325	-0.948975	0.462158	0.182373	0.525685	-0.517106	-0.51853	-0.432878	9.7437	-1.07307	-0.542404	0.0475632	-0.027902	-0.0107663	-0.976807	0.498779	0.0395508	
57	0.703677	-0.0504542	-0.105105	-0.700889	3.11861	0.745401	10.4924	0.0230214	-0.0111351	-0.00572871	-0.208984	0.303223	-0.899414	0.903017	0.0406194	-0.400702	0.149491	7.40296	-0.532633	6.80198	0.011544	0.00609354	-0.0198979	-0.516602	0.325684	-0.567871	0.800466	0.16514	0.177624	-0.548117	-4.62362	0.841241	9.75071	-0.0116639	-0.00741134	0.0364617	0.512451	0.191406	-0.770752	0.127111	0.143677	0.54117	-0.81874	-3.72227	-8.36824	3.61205	-0.00278764	-0.0191162	0.0251546	0.0244141	0.947754	-0.401855	0.641305	0.0928941	0.163766	-0.743828	-3.36551	-1.25004	9.04595	0.0242304	0.00165941	-0.00903206	0.268311	0.476074	-0.812012	-0.830781	-0.51441	-0.196644	-0.0807296	-4.02834	8.37327	6.70222	-0.022699	-0.00184911	-0.00984796	0.709717	-0.692383	-0.12793	0.719237	0.142841	-0.64743	0.207675	9.8836	-0.732951	1.07371	0.0216609	-0.0340762	-0.0291032	-0.875	0.418701	-0.145264	0.429783	-0.534907	-0.514859	-0.513889	9.70597	0.632518	-0.92538	0.0183252	-0.0541008	-0.0202449	-1.01904	0.310303	0.141113	0.528958	-0.432378	-0.568568	-0.45824	9.93576	0.601208	-0.244866	0.0255955	0.0244823	0.00406766	-1.02686	0.251709	-0.00512695	0.541186	0.39266	-0.646367	0.367623	9.71588	-0.705428	-1.30291	0.131339	0.00344973	0.00311389	-0.956055	0.468506	0.182129	0.526752	-0.51586	-0.520583	-0.430598	9.83269	-0.839667	-0.740125	0.139463	-0.0440046	-0.00809992	-0.976562	0.494385	0.0463867	
58	0.703661	-0.0504304	-0.105363	-0.700868	3.01867	0.772054	10.6682	0.0122159	-0.0158915	-0.000404598	-0.204346	0.301025	-0.897217	0.902745	0.0410388	-0.401182	0.149738	7.4704	-0.519481	6.79654	0.0106098	-0.00780971	-0.0151911	-0.510254	0.330078	-0.568115	0.801021	0.164656	0.17735	-0.547541	-4.63827	0.91076	9.64344	-0.0192373	-0.0222204	0.0195705	0.516846	0.188965	-0.768555	0.12798	0.143583	0.540919	-0.818787	-3.7213	-8.30398	3.65041	0.00936791	-0.0136738	0.0318288	0.0200195	0.949951	-0.401855	0.641358	0.0930191	0.163216	-0.743887	-3.32155	-1.24132	9.01072	0.0154011	-0.00434195	-0.00945649	0.270508	0.478271	-0.807373	-0.831046	-0.514034	-0.196565	-0.0805829	-4.07447	8.30443	6.79479	-0.0015956	-0.000762877	-0.0262129	0.709473	-0.690186	-0.132324	0.719045	0.143115	-0.647563	0.20774	9.83876	-0.725218	1.30256	0.0252835	0.00952565	-0.0183952	-0.875	0.416748	-0.140869	0.42953	-0.535269	-0.516119	-0.512457	9.62037	0.642784	-1.06836	0.0558913	-0.044646	-0.0162343	-1.01489	0.3125	0.13623	0.529672	-0.432189	-0.568315	-0.457907	9.86017	0.728812	-0.0842292	0.0256894	0.0274585	-0.00545125	-1.03198	0.258545	-0.00756836	0.539758	0.394027	-0.646327	0.368327	9.54811	-0.417446	-1.59802	0.0375748	-0.0431723	-0.00257165	-0.951416	0.468506	0.177734	0.527442	-0.514829	-0.52216	-0.429075	9.90797	-0.941558	-0.969774	0.126417	-0.0142671	-0.0184038	-0.97876	0.494385	0.0441895	
59	0.703965	-0.0512285	-0.105961	-0.700415	3.03137	0.675026	10.5161	-0.00286016	-0.0412496	0.0233573	-0.206787	0.303223	-0.89917	0.902567	0.0412298	-0.401497	0.14991	7.48886	-0.521748	6.80569	-0.00238235	0.0100978	-0.0119347	-0.514648	0.330078	-0.570312	0.801331	0.164408	0.176607	-0.547402	-4.54383	0.779653	9.69607	0.020152	-0.0218908	0.011496	0.510254	0.191406	-0.768555	0.128618	0.143853	0.540768	-0.818739	-3.72768	-8.29162	3.6581	0.00600219	0.0055224	0.0288543	0.0175781	0.952148	-0.397461	0.641601	0.0923964	0.162892	-0.743826	-3.41888	-1.17975	9.09886	-0.0156042	-0.035001	-0.00356454	0.268311	0.476074	-0.802734	-0.831413	-0.513293	-0.197043	-0.0803586	-4.06472	8.30942	6.80005	-0.0219017	0.0106473	-0.032397	0.705078	-0.687988	-0.125977	0.718752	0.143318	-0.647851	0.207714	9.84646	-0.775858	1.31631	0.0215531	-0.0240782	-0.020311	-0.874756	0.414551	-0.147217	0.429065	-0.535578	-0.516884	-0.511751	9.62613	0.717577	-1.00658	-0.000846679	-0.0168431	-0.0287126	-1.01465	0.3125	0.145752	0.529847	-0.43245	-0.567589	-0.458358	9.92663	0.632251	-0.190352	-0.0322524	0.0307941	-0.00489868	-1.02466	0.25415	-0.0119629	0.538854	0.395064	-0.646475	0.36828	9.65706	-0.314337	-1.529	0.0207937	-0.0299534	-0.0105725	-0.955811	0.466309	0.18457	0.526766	-0.515179	-0.522313	-0.4293	9.86452	-1.05902	-0.737214	-0.0596251	-0.0129451	-0.014118	-0.983398	0.496582	0.0463867	
60	0.70421	-0.0518441	-0.106634	-0.700022	3.24262	0.724408	10.4923	0.00581648	-0.0299996	0.0104819	-0.206787	0.303223	-0.901367	0.902523	0.0411847	-0.40154	0.150074	7.45825	-0.482074	6.79491	-0.00483838	0.00379945	-0.0115512	-0.512207	0.327881	-0.565674	0.801675	0.164292	0.175762	-0.547205	-4.4822	0.937947	9.76921	-0.00514444	-0.016585	0.0144079	0.514404	0.195557	-0.770996	0.128801	0.143645	0.540133	-0.819166	-3.76501	-8.29979	3.7027	0.0376184	-0.0169759	-0.000845739	0.0200195	0.945557	-0.401855	0.641682	0.0922504	0.162819	-0.74379	-3.34797	-1.27292	9.04753	0.0176083	-0.000294496	-0.0171411	0.263916	0.476074	-0.805176	-0.831711	-0.512737	-0.197097	-0.080691	-4.05929	8.34534	6.77701	-0.00879858	0.00526408	-0.00511346	0.705322	-0.690186	-0.130127	0.717556	0.144512	-0.648815	0.208014	9.85787	-0.633208	0.984549	0.033866	-0.0482055	-0.0190149	-0.870361	0.412354	-0.14502	0.428808	-0.535867	-0.517707	-0.510832	9.78143	0.59903	-1.061	0.0396535	-0.0175816	-0.0118367	-1.01465	0.310303	0.143311	0.530103	-0.432425	-0.567282	-0.458466	9.80196	0.584044	0.0299579	0.028603	0.0118861	-0.0208054	-1.02954	0.258545	-0.00976562	0.538188	0.395596	-0.646969	0.367817	9.58714	-0.604106	-1.36761	-0.00322508	-0.0302154	0.000408397	-0.953613	0.466309	0.186768	0.526335	-0.515148	-0.522613	-0.4295	9.84016	-0.604421	-0.773582	-0.0498627	-0.000870738	-0.0253505	-0.974121	0.492188	0.048584	
61	0.704313	-0.0519632	-0.106591	-0.699915	3.15021	0.628225	10.4957	-0.00532644	-0.00210351	0.00928867	-0.206299	0.296631	-0.896973	0.902376	0.0414005	-0.401741	0.150362	7.52838	-0.505448	6.67616	0.0182419	-0.00786714	-0.00146756	-0.518799	0.330078	-0.565674	0.80208	0.163123	0.175807	-0.546946	-4.45728	0.85232	9.67326	-0.042437	-0.0147857	0.00605515	0.516602	0.193359	-0.770996	0.129017	0.143294	0.539618	-0.819533	-3.69022	-8.30454	3.72077	0.0161163	-0.0114654	0.00816235	0.0200195	0.945557	-0.401855	0.641745	0.0922558	0.162417	-0.743823	-3.41198	-1.23465	9.09533	0.0241958	-0.0140215	-0.00851993	0.266357	0.473877	-0.805176	-0.832103	-0.512115	-0.196921	-0.0810289	-4.04018	8.41055	6.82758	-0.0441038	0.000709047	0.00117548	0.709717	-0.692383	-0.130127	0.717163	0.144661	-0.649219	0.208001	9.88525	-0.709192	1.0157	0.0176114	-0.0351392	-0.013788	-0.870605	0.414551	-0.14502	0.428932	-0.535641	-0.518001	-0.510668	9.5999	0.616295	-0.87056	0.0362461	0.0150639	-0.0272203	-1.01245	0.308105	0.143311	0.53004	-0.432504	-0.567289	-0.458454	9.79088	0.705812	-0.0862343	0.000732914	0.000623865	-0.0198514	-1.0293	0.253906	-0.00756836	0.538238	0.395418	-0.647497	0.367005	9.66666	-0.508368	-1.53474	-0.0670508	-0.027731	-0.00817266	-0.953613	0.464111	0.187012	0.525265	-0.515931	-0.522205	-0.430365	9.85336	-1.18513	-0.780989	0.0158223	-0.00342826	-0.0210904	-0.983398	0.496582	0.0532227	
62	0.704341	-0.0522677	-0.107035	-0.699796	3.1329	0.688579	10.4991	0.00588605	-0.0268836	0.000256098	-0.204346	0.301025	-0.897217	0.902079	0.0415579	-0.402344	0.150488	7.54891	-0.455508	6.73692	-0.00576865	-0.00505617	-0.0146843	-0.508057	0.327881	-0.572754	0.802315	0.162587	0.175674	-0.546805	-4.47084	0.756861	9.69164	-0.0319027	-0.0245856	0.00901525	0.508057	0.193604	-0.770752	0.12924	0.143251	0.539323	-0.819699	-3.6991	-8.33638	3.71828	0.0249673	-0.0116476	0.0174726	0.0180664	0.943359	-0.404053	0.642022	0.0921589	0.161661	-0.743761	-3.22069	-1.11649	9.07936	0.0158463	-0.0318909	-0.00193722	0.266113	0.476074	-0.802734	-0.832103	-0.512115	-0.196921	-0.0810289	-4.04018	8.41055	6.82758	-0.0441038	0.000709047	0.00117548	0.709717	-0.692383	-0.130127	0.716399	0.145386	-0.649773	0.2084	9.90348	-0.748888	1.0295	0.0623581	-0.029446	-0.0154568	-0.872803	0.418701	-0.140869	0.428391	-0.535952	-0.518518	-0.510271	9.5941	0.53194	-1.3664	0.0242056	-0.0275022	-0.0245349	-1.00854	0.316895	0.143311	0.529856	-0.432791	-0.566934	-0.458835	9.75639	0.499064	-0.168196	-0.00934806	0.0077586	-0.0254502	-1.0271	0.256348	-0.00756836	0.538084	0.395691	-0.647477	0.366971	9.60287	-0.63012	-1.52433	0.0330569	0.0114084	-0.00337719	-0.953613	0.464111	0.187012	0.525498	-0.515468	-0.522595	-0.430161	9.8207	-0.759034	-0.837781	0.0549255	0.00776953	-0.0230589	-0.976562	0.492188	0.048584	
63	0.70438	-0.0527588	-0.107637	-0.699628	3.14134	0.720146	10.4418	0.00465334	-0.0339304	0.00762418	-0.210938	0.298828	-0.897217	0.902086	0.0411988	-0.402349	0.15053	7.38221	-0.541713	6.66993	-0.0198834	0.0156173	-0.01182	-0.512451	0.330078	-0.570312	0.80264	0.162554	0.174958	-0.546566	-4.37068	0.888729	9.71569	0.0150097	-0.00407398	0.0144417	0.514648	0.191162	-0.770752	0.129558	0.142846	0.538781	-0.820076	-3.75879	-8.13846	3.82335	0.0144374	-0.021715	-0.00136975	0.0224609	0.943604	-0.40625	0.642373	0.0912843	0.16168	-0.743562	-3.20793	-1.30497	9.02795	-0.0128296	0.00121562	-0.0106907	0.268555	0.473877	-0.807373	-0.83315	-0.510133	-0.197566	-0.081195	-4.07664	8.19489	6.92265	-0.0291161	0.00183947	-0.0204254	0.70752	-0.692383	-0.132324	0.715916	0.145702	-0.65015	0.208663	9.71677	-0.702747	0.97926	0.0106911	-0.0216116	-0.0110141	-0.874756	0.414551	-0.143066	0.427986	-0.53601	-0.518625	-0.51044	9.54752	0.642201	-1.04285	-0.0209142	0.0123725	-0.0297214	-1.0166	0.303711	0.143555	0.529664	-0.432871	-0.567086	-0.458794	9.86612	0.551094	-0.277272	0.00867174	-0.00359126	-0.0213935	-1.02954	0.256348	-0.00756836	0.537565	0.396497	-0.647272	0.367222	9.57727	-0.627248	-1.48358	0.0324927	0.0114695	-0.0107291	-0.948975	0.464355	0.189209	0.525322	-0.515418	-0.523083	-0.429843	9.72021	-1.14588	-0.778657	0.0506225	-0.0210526	-0.0136599	-0.983154	0.48999	0.0441895	
64	0.704518	-0.053029	-0.107781	-0.699447	3.26008	0.658312	10.4771	-0.00328006	-0.0206965	0.0156088	-0.208984	0.303223	-0.899414	0.901521	0.0413449	-0.403541	0.15068	7.61638	-0.527513	6.64992	0.00641508	-0.0490984	-0.00773594	-0.512451	0.332275	-0.565674	0.802749	0.161498	0.175109	-0.546672	-4.53807	0.813355	9.66423	-0.0440778	-0.028231	-0.0184882	0.512207	0.195557	-0.770996	0.129589	0.142735	0.538629	-0.820191	-3.60789	-8.36331	3.70791	0.0237615	0.00817017	0.00544703	0.0249023	0.941406	-0.404053	0.642381	0.0915546	0.160522	-0.743772	-3.338	-1.05494	9.11133	0.0336429	-0.0273268	-0.00988775	0.266113	0.480469	-0.802734	-0.833482	-0.509357	-0.19805	-0.0814771	-4.03226	8.26653	6.90961	-0.0136544	0.0274505	-0.0250209	0.71167	-0.690186	-0.132324	0.715297	0.145438	-0.651017	0.208264	9.98665	-0.769095	1.0581	0.00255432	-0.0204031	-0.00960986	-0.872559	0.414551	-0.143066	0.427798	-0.536064	-0.519048	-0.510111	9.58727	0.556864	-1.15545	0.0232005	-0.000142667	-0.0223642	-1.01245	0.310303	0.145752	0.52985	-0.43261	-0.567224	-0.458655	9.81695	0.622051	-0.210065	0.0223635	0.0123488	-0.0246188	-1.02466	0.25415	-0.00756836	0.537202	0.397231	-0.646842	0.367718	9.61978	-0.484653	-1.63634	0.0296039	-0.0110855	-0.00926029	-0.951416	0.466309	0.189209	0.525595	-0.514724	-0.523793	-0.429476	9.78518	-0.78465	-0.75667	-0.00688163	0.00159771	-0.0178736	-0.983154	0.48999	0.0441895	
65	0.70486	-0.0537833	-0.108597	-0.698919	3.25925	0.754442	10.4922	-0.00416426	-0.0382764	0.0137461	-0.206787	0.30542	-0.899414	0.901375	0.0412751	-0.40384	0.150777	7.58186	-0.505868	6.7574	-0.00875215	0.013512	-0.0129032	-0.520996	0.330078	-0.565674	0.802926	0.160935	0.174335	-0.546825	-4.44963	0.705859	9.71626	0.0259747	-0.0327154	-0.0044248	0.51001	0.197754	-0.768799	0.129701	0.143054	0.537861	-0.820621	-3.74451	-8.26181	3.67427	0.0190386	-8.55733e-05	0.0194607	0.0200195	0.945801	-0.408447	0.642167	0.0904755	0.160839	-0.74402	-3.22809	-1.18588	9.10776	-0.033994	-0.0202524	-0.027855	0.26416	0.473877	-0.812012	-0.833911	-0.508412	-0.198704	-0.0814012	-4.119	8.34945	6.7811	-0.0241826	0.00740695	-0.0432621	0.707031	-0.683594	-0.134766	0.714708	0.145916	-0.651484	0.208494	9.93656	-0.60567	1.00833	0.0308329	-0.017603	-0.0166317	-0.872803	0.416748	-0.143066	0.428189	-0.535443	-0.520428	-0.509029	9.7577	0.425345	-1.19198	0.0997857	-0.0162618	-0.0293654	-1.01465	0.310303	0.145752	0.531339	-0.430791	-0.568676	-0.456843	9.94642	0.417534	-0.155507	0.220771	0.0103784	-0.0222734	-1.02466	0.251709	-0.0141602	0.537233	0.397801	-0.646068	0.368416	9.6904	-0.492236	-1.32067	0.0462271	0.0584708	-0.00495961	-0.955811	0.464111	0.187012	0.52604	-0.513911	-0.524857	-0.428607	9.91496	-0.823242	-0.844596	0.107909	-0.0112273	-0.0255126	-0.983154	0.487793	0.0373535	
66	0.704867	-0.0546876	-0.108667	-0.69883	3.17817	0.644199	10.4523	-0.0229637	-0.0247447	-0.00238866	-0.213379	0.302979	-0.89502	0.901313	0.0413787	-0.403943	0.150839	7.48642	-0.454907	6.74491	0.000737552	0.00202105	-0.0145255	-0.516602	0.330078	-0.565674	0.803009	0.160916	0.173277	-0.547044	-4.38955	0.942723	9.78328	-0.00183252	-0.0142668	-0.00130662	0.510254	0.193604	-0.768555	0.129822	0.142844	0.536901	-0.821267	-3.73142	-8.18937	3.86133	0.042381	-0.0128124	0.00184404	0.0136719	0.941162	-0.40625	0.642323	0.0895676	0.160485	-0.744072	-3.22102	-1.32829	9.16032	0.00852846	-0.0109096	-0.0210112	0.263916	0.476074	-0.80957	-0.834656	-0.507212	-0.198675	-0.0813223	-4.16054	8.26914	6.91843	-0.0221151	-0.00660118	-0.0283574	0.709473	-0.687988	-0.132324	0.714403	0.145669	-0.651967	0.208202	9.89029	-0.776808	1.01927	-0.0155387	7.00815e-05	-0.0129979	-0.870605	0.414551	-0.134521	0.429085	-0.534217	-0.521754	-0.508204	9.63996	0.979556	-0.834291	0.0540116	0.0393206	-0.0402793	-1.01245	0.310303	0.145752	0.532141	-0.429616	-0.569545	-0.455933	9.85873	1.17062	0.199441	0.155631	0.0180242	-0.0365681	-1.03174	0.253906	-0.00976562	0.53721	0.397848	-0.646335	0.367932	9.60668	-0.56383	-1.68832	-0.0438954	-0.0249913	-0.0127444	-0.948975	0.464355	0.189209	0.525401	-0.514253	-0.524684	-0.42919	9.7622	-1.043	-0.707573	-0.0338902	0.00145183	-0.0152607	-0.973877	0.485596	0.0488281	
67	0.704863	-0.055319	-0.109068	-0.698722	3.16235	0.633565	10.4419	0.00303682	-0.0269661	0.00223691	-0.213379	0.305176	-0.899414	0.901237	0.0412381	-0.404111	0.150879	7.45828	-0.490023	6.56866	-0.00393956	0.0119498	-0.0137214	-0.516602	0.330078	-0.568115	0.803285	0.159727	0.173222	-0.547005	-4.38261	0.772854	9.78426	-0.0305019	-0.021304	-0.00667519	0.512207	0.195557	-0.777832	0.129916	0.142678	0.536495	-0.821546	-3.76816	-8.24961	3.89605	0.0236948	-0.00319252	0.00311035	0.0200195	0.945801	-0.408447	0.642478	0.0898775	0.159768	-0.744055	-3.29567	-1.12566	9.15776	0.00750255	0.0102555	0.00011825	0.259766	0.476074	-0.807373	-0.834951	-0.506728	-0.198669	-0.0813266	-4.09675	8.28192	7.02407	0.0130857	0.00551399	-0.0196363	0.713623	-0.685791	-0.136719	0.714159	0.14604	-0.652025	0.208599	9.74695	-0.657931	1.01665	0.0514005	-0.0179286	-0.0118167	-0.870605	0.416748	-0.132324	0.428989	-0.534094	-0.521849	-0.508317	9.60384	0.666185	-1.15233	-0.0109714	0.0164019	-0.0218357	-1.01221	0.305908	0.145752	0.531809	-0.429175	-0.569893	-0.456301	9.72829	0.756489	-0.0604432	0.022357	-0.00562864	-0.0445108	-1.0293	0.25415	-0.0163574	0.537192	0.398339	-0.64541	0.369048	9.4736	-0.563107	-1.43051	0.0912171	0.0455153	0.00518031	-0.953613	0.464111	0.182373	0.526205	-0.513159	-0.525631	-0.428355	9.80106	-0.770467	-0.835213	0.0734984	0.0141665	-0.0122648	-0.985352	0.487793	0.0441895	
68	0.705158	-0.0555545	-0.109796	-0.698292	3.16752	0.765558	10.4342	0.0191837	-0.0277071	0.0211979	-0.215332	0.300781	-0.897217	0.900947	0.0415743	-0.40461	0.151182	7.50943	-0.535186	6.756	0.00458173	0.00162696	-0.0116297	-0.519043	0.334473	-0.563477	0.803393	0.159795	0.17306	-0.546878	-4.46567	0.82482	9.72908	0.0144506	-0.00612018	0.00577989	0.51001	0.197754	-0.770996	0.129952	0.142779	0.536535	-0.821497	-3.71875	-8.22145	3.90182	-0.00254648	0.0121133	0.00973275	0.0112305	0.943359	-0.40625	0.64247	0.090131	0.160067	-0.743968	-3.28573	-1.23278	9.03018	-0.00178553	0.0140958	-0.00505536	0.253174	0.473633	-0.802734	-0.834871	-0.506574	-0.199281	-0.0816047	-4.08736	8.30596	6.85894	0.000654229	0.0276493	-0.0180202	0.711426	-0.685791	-0.136719	0.713597	0.146549	-0.652471	0.208769	9.88368	-0.685994	1.07329	0.0295975	0.0054869	-0.0187542	-0.870605	0.414551	-0.136475	0.428204	-0.534456	-0.520781	-0.509692	9.61609	0.613264	-1.12907	-0.0641461	0.0410118	-0.0229964	-1.01001	0.303955	0.145752	0.530893	-0.429767	-0.569821	-0.456899	9.87675	0.462062	-0.343465	-0.027378	-0.0157278	-0.0310906	-1.0293	0.251709	-0.0141602	0.536697	0.399247	-0.644928	0.369631	9.6915	-0.394951	-1.45513	0.0381973	0.0218562	-0.0124845	-0.953369	0.459717	0.184814	0.527173	-0.512079	-0.526434	-0.42747	9.82345	-0.886863	-0.753507	0.092744	0.010002	-0.00951142	-0.985352	0.487793	0.0441895	
69	0.705377	-0.0556824	-0.110023	-0.698024	3.3008	0.76391	10.4401	0.0105834	-0.0170516	0.0232666	-0.217773	0.302979	-0.901611	0.900835	0.0416338	-0.404805	0.151313	7.58182	-0.460592	6.69094	0.00221313	-0.00478014	-0.00806485	-0.520996	0.327881	-0.567871	0.803458	0.16023	0.172848	-0.546722	-4.40185	0.864899	9.77684	0.0153583	0.0268938	0.0121262	0.505859	0.195801	-0.775391	0.130108	0.143373	0.536765	-0.821219	-3.72579	-8.21217	3.69545	-0.0207742	0.0072255	0.00941417	0.0202637	0.943604	-0.40625	0.64271	0.0900407	0.160223	-0.743737	-3.31502	-1.24314	9.0526	-0.0185566	0.00934106	0.0108047	0.270752	0.47168	-0.802734	-0.834915	-0.506334	-0.199585	-0.081909	-4.0739	8.14118	6.74177	0.000500884	0.0328978	-0.0110624	0.71167	-0.687988	-0.125977	0.713299	0.146926	-0.652638	0.209002	9.88854	-0.695005	1.26248	0.0462911	-0.0174684	-0.0160259	-0.876953	0.414551	-0.132324	0.428175	-0.534432	-0.520781	-0.509741	9.65264	0.482815	-1.08722	0.00220317	0.0199336	-0.0196823	-1.0144	0.303711	0.145752	0.531051	-0.429417	-0.570397	-0.456326	9.90424	0.465773	-0.176225	0.0725389	-0.0172593	-0.0267674	-1.0293	0.251709	-0.00292969	0.536869	0.399253	-0.644607	0.369933	9.64394	-0.325717	-1.39375	0.0199047	0.0451595	-0.000226585	-0.951172	0.462158	0.180176	0.527025	-0.51214	-0.52634	-0.427696	10.0331	-0.857049	-0.791097	-0.0509979	0.012916	-0.0094623	-0.980713	0.485596	0.0397949	
70	0.705885	-0.0558546	-0.110041	-0.697493	3.21742	0.582345	10.554	0.00249007	-0.00533645	0.023356	-0.213379	0.302979	-0.897217	0.900579	0.0418398	-0.405195	0.151734	7.6431	-0.49158	6.83506	-0.0048116	-0.00982604	-0.00569191	-0.523438	0.334473	-0.563477	0.803612	0.159948	0.172968	-0.54654	-4.49692	0.853642	9.795	-0.0264303	0.0050536	0.00916146	0.508057	0.193604	-0.770752	0.130239	0.143111	0.537031	-0.821069	-3.68928	-8.29755	3.65016	-0.0269024	-0.0125298	-0.0010393	0.0200195	0.947998	-0.410645	0.643139	0.0898797	0.159964	-0.743441	-3.36912	-1.13523	9.13528	0.000431544	-0.0224756	0.0101822	0.268555	0.473877	-0.80957	-0.83488	-0.506059	-0.200179	-0.0825094	-4.04442	8.43623	6.75751	-0.00848868	0.0262488	-0.00975596	0.709473	-0.690186	-0.134521	0.71315	0.146851	-0.652817	0.209003	10.0297	-0.651401	1.02731	-0.00544573	0.017963	-0.0111365	-0.870361	0.412354	-0.134521	0.428541	-0.533971	-0.521323	-0.509362	9.70342	0.814568	-1.13628	0.0413957	0.0248466	-0.0275897	-1.0144	0.305908	0.148193	0.530874	-0.42941	-0.570261	-0.456708	9.83299	0.775405	-0.0859965	-0.0705732	0.0128842	-0.0263371	-1.0271	0.253906	-0.00756836	0.53718	0.399089	-0.644888	0.369168	9.74349	-0.567054	-1.50588	-0.0490396	-0.0017591	-0.0131206	-0.951172	0.462158	0.177734	0.527154	-0.511887	-0.526396	-0.427771	9.82592	-0.948581	-0.723406	0.0175759	0.0214993	-0.0156048	-0.978516	0.485596	0.0441895	
71	0.706087	-0.0557419	-0.110404	-0.697241	3.17876	0.640496	10.4545	0.0212777	0.000230723	0.00245886	-0.210938	0.298828	-0.897217	0.901031	0.041653	-0.404116	0.151978	7.41806	-0.525951	6.7221	0.00342089	0.0620861	-0.0134213	-0.514648	0.332275	-0.568115	0.803998	0.159521	0.173585	-0.545901	-4.43924	0.813595	9.68006	-0.0306457	0.0387511	0.0254076	0.507812	0.199951	-0.775635	0.130482	0.142132	0.536901	-0.821286	-3.57883	-8.39346	3.80859	0.00575076	-0.0314205	-0.00572946	0.0202637	0.941162	-0.404053	0.643384	0.0894995	0.160169	-0.743231	-3.2933	-1.2118	9.19219	-0.00826878	0.0103892	-0.00989162	0.263916	0.476074	-0.807373	-0.835223	-0.505423	-0.200147	-0.0830146	-4.13074	8.32719	6.95826	0.000531735	0.0023496	-0.002967	0.707031	-0.683594	-0.136963	0.713422	0.146731	-0.652589	0.208872	9.80889	-0.700839	0.915373	0.0148535	0.0229607	-0.0222749	-0.872803	0.418701	-0.130371	0.428257	-0.533929	-0.521198	-0.509772	9.68167	0.673438	-1.03645	-0.0256597	0.0174388	-0.0187362	-1.01221	0.305908	0.145752	0.530967	-0.429007	-0.570652	-0.456489	9.90557	0.690153	-0.0914677	0.0556185	0.00588217	-0.0321808	-1.02686	0.251709	-0.00732422	0.537504	0.399007	-0.644447	0.369554	9.6142	-0.578291	-1.38219	0.00931512	0.0315612	-0.000249962	-0.958008	0.461914	0.177734	0.527154	-0.511797	-0.52645	-0.427812	9.82391	-0.840427	-0.772526	-0.0270301	0.00726996	-0.00489741	-0.98291	0.485596	0.0373535	
72	0.706099	-0.0551937	-0.110646	-0.697234	3.07326	0.721421	10.4728	0.0242717	0.0144815	-0.00708491	-0.213379	0.302979	-0.899414	0.901033	0.041992	-0.404035	0.152094	7.4428	-0.5064	6.7111	0.0118695	0.00567633	-0.0181335	-0.519043	0.332275	-0.565674	0.804456	0.159438	0.173676	-0.545221	-4.42193	0.75081	9.71868	0.00201651	0.0189425	0.0310761	0.508057	0.197998	-0.775635	0.131172	0.141749	0.537613	-0.820776	-3.76059	-8.21722	3.77245	-0.0588315	-0.0129667	0.0169277	0.0178223	0.947754	-0.40625	0.643277	0.0901341	0.160518	-0.743172	-3.28607	-1.24661	9.15709	0.0135322	0.0437562	-0.0142677	0.26416	0.473877	-0.807373	-0.834882	-0.50593	-0.200214	-0.0831952	-4.19428	8.40646	6.88946	0.0434166	0.00539772	-0.0040266	0.713867	-0.692383	-0.134521	0.713259	0.14735	-0.652488	0.209305	9.86913	-0.666359	1.14198	0.0277648	0.00598409	-0.0216898	-0.875	0.416748	-0.136719	0.428371	-0.533675	-0.521122	-0.510021	9.56643	0.605051	-1.0015	0.00902822	0.0285558	-0.0247129	-1.0188	0.308105	0.148193	0.530566	-0.429233	-0.570593	-0.456818	9.81035	0.531947	-0.221387	-0.0168053	-0.000447274	-0.0275484	-1.03394	0.249512	-0.0119629	0.537422	0.399104	-0.644576	0.369344	9.66236	-0.559653	-1.49391	-0.0100701	0.00282966	0.00079997	-0.953369	0.459717	0.182373	0.527066	-0.511853	-0.526545	-0.427736	9.74554	-0.854887	-0.680764	0.0172259	-0.00390392	-0.0034134	-0.983154	0.487793	0.0395508	
73	0.706196	-0.0555416	-0.110748	-0.697092	3.30901	0.712512	10.544	-0.0172536	-0.00800098	0.00279414	-0.210938	0.301025	-0.899414	0.901176	0.0422115	-0.403722	0.152017	7.58561	-0.481939	6.81483	0.0053708	0.0355684	-0.0277598	-0.518799	0.327881	-0.560791	0.80458	0.160698	0.173833	-0.544619	-4.589	0.818079	9.71486	0.0287236	0.0143027	0.0106013	0.510254	0.195801	-0.773193	0.131519	0.142627	0.538738	-0.81983	-3.80149	-8.28573	3.61816	-0.0279469	0.0458481	0.0206077	0.0180664	0.943359	-0.40625	0.643016	0.0915121	0.160956	-0.743134	-3.35693	-1.20013	9.04666	0.0227225	0.0592679	-0.0117671	0.266113	0.476074	-0.807373	-0.834517	-0.506541	-0.200057	-0.0835197	-4.02153	8.29303	6.87944	0.0410559	0.00821993	0.00627281	0.709473	-0.687988	-0.132324	0.71342	0.147462	-0.652388	0.208991	9.94413	-0.639149	1.20593	0.00740032	0.00246687	-0.0311143	-0.872559	0.412354	-0.138672	0.428463	-0.533615	-0.521462	-0.509658	9.67462	0.66741	-1.21874	0.0292297	0.00613353	-0.0164971	-1.01221	0.301758	0.145752	0.530824	-0.42888	-0.570674	-0.456747	9.94741	0.711465	-0.205293	0.00375499	0.024263	-0.0252563	-1.03149	0.251709	-0.00976562	0.537522	0.399411	-0.64418	0.36956	9.67658	-0.500929	-1.48783	0.0130106	0.00605744	-0.0139896	-0.958008	0.464111	0.179932	0.527393	-0.511309	-0.526878	-0.427574	9.80341	-0.843188	-0.647907	0.0120563	0.0100948	-0.00942271	-0.983154	0.48999	0.0395508	
74	0.706168	-0.0550899	-0.110527	-0.697191	3.20097	0.659743	10.4971	0.0202912	0.0324279	-0.0111317	-0.208496	0.296631	-0.903564	0.901685	0.042132	-0.402678	0.151788	7.47687	-0.474735	6.82627	-0.00763931	0.0646862	-0.0315809	-0.514404	0.325684	-0.577393	0.804573	0.161516	0.173807	-0.544395	-4.61279	0.901419	9.80806	0.0523243	0.0462108	0.021825	0.505859	0.193604	-0.773193	0.131359	0.142708	0.53918	-0.819551	-3.86077	-8.33272	3.55454	-0.0379532	0.0258163	-0.00564445	0.0244141	0.950195	-0.40625	0.642964	0.0922386	0.161494	-0.742973	-3.34499	-1.22586	9.10596	-0.00935495	0.0552552	-0.0102167	0.270752	0.469482	-0.80957	-0.834255	-0.506892	-0.199943	-0.0842693	-4.06012	8.30363	6.69237	0.036231	0.0123403	0.0146317	0.705322	-0.690186	-0.134521	0.713582	0.147764	-0.652185	0.208856	9.86044	-0.657308	1.02749	0.0232649	0.0139471	-0.030869	-0.876953	0.412354	-0.138672	0.428361	-0.533435	-0.521849	-0.509536	9.69532	0.767134	-0.9782	0.0205391	0.0103995	-0.0308491	-1.01221	0.303955	0.141113	0.531481	-0.428159	-0.571018	-0.45623	9.8499	0.740877	0.0636943	0.0598767	0.016092	-0.0230739	-1.03394	0.253906	-0.00756836	0.53766	0.399296	-0.644102	0.369617	9.62343	-0.453219	-1.31044	-0.00107583	0.0365825	0.0106234	-0.955322	0.455322	0.180176	0.527393	-0.511309	-0.526878	-0.427574	9.80341	-0.843188	-0.647907	0.0120563	0.0100948	-0.00942271	-0.983154	0.48999	0.0395508	
75	0.706152	-0.0539662	-0.109994	-0.697379	3.08511	0.59933	10.4775	0.0203504	0.0640795	-0.0196552	-0.20874	0.301025	-0.901367	0.901886	0.042331	-0.402289	0.151572	7.52324	-0.47731	6.80647	0.00311366	0.0276463	-0.0316355	-0.516602	0.327881	-0.567871	0.804476	0.161777	0.174461	-0.544252	-4.58175	0.949643	9.66814	-0.0205378	0.0292435	-0.0133324	0.516602	0.191162	-0.768555	0.131141	0.142768	0.539925	-0.819085	-3.78511	-8.37768	3.65638	-0.0319547	0.0238588	0.000207157	0.0178223	0.945557	-0.399658	0.642867	0.0927375	0.161648	-0.742961	-3.38051	-1.21302	9.00974	0.0162109	0.045631	-0.0146441	0.268555	0.47168	-0.807373	-0.834134	-0.507141	-0.19964	-0.084689	-4.00978	8.36931	6.81594	0.0138579	0.000381022	0.00545495	0.703125	-0.690186	-0.134521	0.713633	0.147643	-0.652303	0.208399	9.92495	-0.687324	0.964365	-0.0219718	0.0257343	-0.0264184	-0.881104	0.412354	-0.136475	0.42841	-0.53335	-0.521711	-0.509725	9.60553	0.679017	-1.07108	-0.0172863	0.0245421	-0.0147139	-1.0144	0.301758	0.141113	0.531177	-0.42846	-0.570404	-0.45707	9.75277	0.571519	-0.131807	-0.0599656	0.0168528	-0.0265174	-1.02686	0.247314	-0.0141602	0.53802	0.398812	-0.644527	0.368874	9.64443	-0.524311	-1.58184	-0.0515573	0.00149405	-0.00372854	-0.955811	0.466309	0.179932	0.526754	-0.511697	-0.526272	-0.428641	9.71863	-0.917511	-0.716266	-0.0354812	0.0159563	-0.00841724	-0.980713	0.485596	0.0419922	
76	0.705982	-0.0530226	-0.109913	-0.697637	3.09797	0.792764	10.521	0.0195899	0.0206758	-0.0235939	-0.212891	0.296631	-0.905762	0.902397	0.0422632	-0.40128	0.151224	7.3481	-0.454309	6.72354	-0.00853336	0.0515098	-0.0357135	-0.516846	0.330078	-0.570312	0.804087	0.16234	0.174819	-0.544544	-4.44001	0.772756	9.51167	0.033613	0.0362618	-0.020513	0.514648	0.187012	-0.768311	0.130757	0.143497	0.54029	-0.818778	-3.65097	-8.12677	3.66118	-0.0223191	0.0465416	0.00893867	0.0244141	0.949951	-0.399658	0.642407	0.0940748	0.161715	-0.743176	-3.27815	-1.13249	8.95828	0.0289529	0.040072	-0.0168703	0.272705	0.476074	-0.812012	-0.834087	-0.507134	-0.199704	-0.085045	-3.95225	8.27903	6.82089	0.0259462	0.0177541	-0.0113834	0.705322	-0.690186	-0.136719	0.71384	0.147339	-0.652343	0.207782	9.72387	-0.653022	0.995258	-0.00144388	0.00640749	-0.028308	-0.870361	0.412354	-0.134521	0.427843	-0.533851	-0.52093	-0.510476	9.5701	0.633326	-1.18297	-0.0384351	0.0280446	-0.0107459	-1.0144	0.305908	0.143555	0.530624	-0.428941	-0.56995	-0.457826	9.84565	0.699606	-0.284261	-0.0447043	0.0138556	-0.0305824	-1.02686	0.249512	-0.00732422	0.538318	0.398504	-0.644389	0.369013	9.54475	-0.547602	-1.42326	-0.00642028	0.0286899	0.00488042	-0.953613	0.464111	0.180176	0.526554	-0.511829	-0.526101	-0.42894	9.84373	-0.869259	-0.823482	-0.0237332	0.0107171	-0.00765867	-0.978516	0.485596	0.0441895	
77	0.705771	-0.0526427	-0.109665	-0.697918	2.97605	0.784756	10.5392	0.0007769	0.0103938	-0.0201681	-0.210938	0.301025	-0.901367	0.902483	0.0423271	-0.401276	0.150701	7.48686	-0.45734	6.7185	-0.0162289	0.0176077	-0.0392665	-0.514648	0.332275	-0.570557	0.80373	0.163657	0.174083	-0.544912	-4.68314	0.871196	9.64938	0.0680297	0.011665	-0.00851488	0.514648	0.189209	-0.772949	0.130369	0.144371	0.540634	-0.818459	-3.70462	-8.34665	3.43847	0.0221247	0.0454414	0.00251573	0.0246582	0.945557	-0.399658	0.642316	0.0941166	0.16179	-0.743233	-3.30046	-1.0545	8.97258	-0.000671413	0.0139933	-0.0230537	0.275146	0.47168	-0.805176	-0.83402	-0.507148	-0.199956	-0.0850287	-3.9749	8.26887	6.75378	0.025172	0.0190432	-0.0257133	0.705322	-0.692383	-0.12793	0.713847	0.147344	-0.652393	0.207596	9.81984	-0.697397	1.08062	0.00182316	0.00647461	-0.0270488	-0.876709	0.407959	-0.136475	0.427564	-0.533993	-0.520638	-0.510859	9.57485	0.601615	-1.03325	-0.0208072	0.0202883	-0.0202375	-1.01221	0.301758	0.145752	0.530175	-0.429217	-0.569792	-0.458284	9.76948	0.572741	-0.191614	-0.00249191	0.00104485	-0.0307201	-1.0293	0.249512	-0.00952148	0.538521	0.39842	-0.644407	0.368777	9.64964	-0.637877	-1.48866	0.00722057	0.0254102	-0.00239776	-0.953369	0.461914	0.177734	0.526604	-0.511754	-0.526103	-0.428966	9.77011	-0.883682	-0.700867	0.0138146	0.00672582	-0.00504357	-0.980713	0.483398	0.0397949	
78	0.705579	-0.0526848	-0.109613	-0.698117	3.13514	0.736046	10.5901	-0.00550288	0.00185445	-0.0254917	-0.213135	0.298828	-0.905762	0.902483	0.0423271	-0.401276	0.150701	7.48686	-0.45734	6.7185	-0.0162289	0.0176077	-0.0392665	-0.514648	0.332275	-0.570557	0.803637	0.163909	0.173937	-0.54502	-4.58439	0.997634	9.63589	0.0268435	0.0107698	-0.0102714	0.512451	0.187012	-0.772949	0.129956	0.144742	0.540156	-0.818775	-3.69258	-8.16663	3.50388	0.0545863	0.0393067	-0.00607566	0.0224609	0.945557	-0.401855	0.641971	0.0942857	0.162193	-0.743422	-3.37878	-1.28371	8.95896	0.014458	0.0346149	-0.0347718	0.275146	0.47168	-0.800537	-0.834238	-0.50689	-0.199639	-0.0851724	-3.93625	8.2643	6.67184	0.00749867	-0.0111634	-0.00492918	0.703125	-0.692383	-0.132324	0.713916	0.147119	-0.65254	0.207054	9.86177	-0.74634	0.967845	-0.00408687	0.0029981	-0.024609	-0.870605	0.416748	-0.136719	0.42751	-0.534019	-0.520524	-0.510993	9.63079	0.576044	-1.1272	-0.00878958	0.0244526	-0.0167008	-1.0144	0.305908	0.143555	0.530202	-0.42908	-0.569848	-0.458312	9.93974	0.610907	-0.273894	0.0131355	0.011946	-0.0296372	-1.02441	0.247314	-0.0163574	0.538645	0.398534	-0.64402	0.369148	9.65622	-0.540316	-1.41745	0.0309872	0.0442845	-0.00367838	-0.955811	0.464111	0.179932	0.526751	-0.511589	-0.52624	-0.428814	9.90504	-0.918692	-0.728458	0.0271204	0.00662674	-0.00501372	-0.987549	0.487793	0.0351562	
79	0.705359	-0.0527569	-0.109633	-0.698331	3.00936	0.764933	10.5506	-0.00254884	-0.0094691	-0.0135944	-0.204102	0.296631	-0.907715	0.902867	0.0419437	-0.400897	0.149513	7.45614	-0.512037	6.71466	-0.0203221	0.0337048	-0.0378226	-0.503662	0.327881	-0.567871	0.803623	0.162984	0.173429	-0.54548	-4.57136	0.879543	9.69578	-0.0146593	-0.0347158	-0.0205341	0.510254	0.193604	-0.770752	0.129528	0.1448	0.539392	-0.819336	-3.76938	-8.47194	3.59828	0.0595985	-0.000850889	-0.00814644	0.0200195	0.945557	-0.401855	0.641698	0.0942621	0.161462	-0.74382	-3.49366	-1.08189	9.05193	0.00266272	-0.0196562	-0.034704	0.266357	0.47168	-0.80957	-0.834847	-0.506173	-0.198968	-0.0850335	-3.99678	8.38841	6.70693	-0.030325	-0.0329594	-0.0139224	0.703125	-0.690186	-0.132324	0.714218	0.146934	-0.652338	0.206781	9.90939	-0.676183	1.01326	-0.00479602	0.0337898	-0.0236778	-0.876709	0.410156	-0.134277	0.427748	-0.533561	-0.520916	-0.510872	9.63052	0.640488	-0.991606	0.032113	0.0316067	-0.0317033	-1.0188	0.303955	0.141113	0.530609	-0.428389	-0.570502	-0.457674	9.76939	0.622241	-0.119288	0.060129	0.000276693	-0.0257552	-1.03149	0.249512	-0.00732422	0.538872	0.398684	-0.64351	0.369544	9.66824	-0.5422	-1.36527	0.0121901	0.0330166	-0.00345931	-0.957764	0.459717	0.182373	0.527023	-0.511337	-0.526596	-0.428345	9.77808	-0.855158	-0.704679	0.0159608	-0.00285378	0.00100804	-0.987549	0.487793	0.0441895	
80	0.705189	-0.052998	-0.109593	-0.69849	3.05551	0.79817	10.5174	-0.0150033	0.00142482	-0.00972168	-0.204346	0.298828	-0.89917	0.902916	0.0418721	-0.400931	0.149147	7.3747	-0.476625	6.83172	-0.0126992	-0.000107741	-0.0280753	-0.514404	0.327881	-0.574951	0.803585	0.163083	0.172809	-0.545704	-4.5047	0.90506	9.69157	0.0233978	-0.0193288	-0.00871158	0.508301	0.184814	-0.775146	0.129466	0.144973	0.539082	-0.81952	-3.74788	-8.37376	3.73729	-0.00129097	0.0141566	0.0114465	0.0290527	0.945801	-0.401855	0.640938	0.0943646	0.161339	-0.744489	-3.42067	-1.23689	8.96176	0.0262523	0.00539722	-0.050353	0.262207	0.469482	-0.812012	-0.835111	-0.506003	-0.198504	-0.0845379	-3.97682	8.53375	6.86267	0.0115131	-0.0177715	-0.036723	0.700928	-0.692383	-0.138672	0.713996	0.14691	-0.652725	0.206343	9.8576	-0.647253	1.06535	0.00996173	-0.00935265	-0.0215901	-0.872559	0.410156	-0.130127	0.42823	-0.532933	-0.521478	-0.510551	9.64401	0.736499	-1.15862	0.0484337	0.0169212	-0.0231302	-1.0144	0.303711	0.145752	0.531138	-0.427585	-0.571244	-0.456886	9.86672	0.786546	-0.106755	0.0509411	0.00912677	-0.0279191	-1.0271	0.25415	-0.0141602	0.539461	0.398637	-0.64263	0.370267	9.62806	-0.546706	-1.393	0.0289864	0.0641183	-0.00488358	-0.953613	0.464111	0.170898	0.527144	-0.511262	-0.526886	-0.427927	9.79121	-0.92603	-0.715341	0.0392411	-0.0148009	0.00277065	-0.987549	0.485596	0.0395508	
81	0.704982	-0.0532929	-0.109415	-0.698705	3.00961	0.733327	10.5677	-0.00687416	-0.00795099	-0.019616	-0.208984	0.303223	-0.903564	0.902918	0.0418451	-0.401041	0.148842	7.3902	-0.437487	6.79649	-0.00391209	0.0119616	-0.0278683	-0.514404	0.325684	-0.56543	0.803487	0.16312	0.172645	-0.545889	-4.54941	0.953962	9.68133	-0.00253678	0.0220702	-0.0118027	0.512451	0.189209	-0.770752	0.129224	0.145254	0.538543	-0.819862	-3.77324	-8.22071	3.75003	0.0235245	0.0195995	-0.00130962	0.0246582	0.945801	-0.408447	0.640641	0.0941341	0.161512	-0.744736	-3.45051	-1.28108	9.04618	-0.0140844	0.0241608	-0.029342	0.270752	0.47168	-0.807373	-0.835265	-0.505692	-0.19873	-0.084349	-4.04732	8.23253	6.75048	0.026894	0.0141985	-0.0257459	0.70752	-0.692383	-0.136475	0.713939	0.146905	-0.652856	0.20613	9.81721	-0.62295	1.08767	-0.00291354	-0.000286034	-0.0227101	-0.875	0.416504	-0.132324	0.428092	-0.532814	-0.52126	-0.511014	9.67542	0.748079	-1.03747	-0.0310844	0.0369733	-0.0212016	-1.01855	0.299561	0.141357	0.531015	-0.427435	-0.57122	-0.457198	9.92532	0.568794	-0.223362	0.00867917	0.0151218	-0.0333312	-1.03345	0.242432	-0.00292969	0.539274	0.39933	-0.641755	0.371309	9.60139	-0.464122	-1.44449	0.0634475	0.0288369	-0.00490765	-0.957764	0.45752	0.17334	0.528487	-0.509862	-0.528054	-0.426499	9.80008	-0.830215	-0.761152	0.0376993	0.00341095	0.000258791	-0.980713	0.487793	0.0351562	
82	0.70488	-0.0535621	-0.109435	-0.698784	3.01445	0.739542	10.524	-0.00379483	-0.00713677	-0.00653885	-0.206299	0.296631	-0.901367	0.902809	0.0418572	-0.401339	0.148698	7.41681	-0.495876	6.90486	-0.0134543	0.00773688	-0.0228621	-0.512207	0.327881	-0.565674	0.803337	0.162924	0.172512	-0.546209	-4.52154	0.836013	9.64454	0.0148355	-0.00861686	-0.0198046	0.510254	0.191406	-0.777588	0.128981	0.145897	0.538807	-0.819613	-3.72745	-8.30698	3.5783	0.0028189	0.0352225	0.00936542	0.0244141	0.947998	-0.40625	0.640618	0.0941149	0.16151	-0.744759	-3.46732	-1.2712	9.03482	-0.00142751	0.0013059	-0.00842398	0.266357	0.47168	-0.80957	-0.835324	-0.505371	-0.199132	-0.0847364	-4.09274	8.41968	6.71107	-0.0216479	0.02301	-0.00999794	0.70752	-0.692383	-0.136475	0.71397	0.146475	-0.653107	0.20553	9.93611	-0.635423	1.15241	-0.0102445	0.0093745	-0.0215523	-0.874512	0.410156	-0.134277	0.427966	-0.532902	-0.521106	-0.511184	9.67254	0.617757	-1.07296	-0.0174254	0.0214856	-0.0163387	-1.00977	0.295166	0.145996	0.530989	-0.427257	-0.570993	-0.457678	9.91993	0.739942	-0.0646752	-0.0310883	0.0270809	-0.0294532	-1.03369	0.244873	-0.0185547	0.539296	0.399565	-0.641321	0.371773	9.66158	-0.474773	-1.34753	0.0152509	0.0190748	-0.0018574	-0.960205	0.459717	0.171143	0.529036	-0.509232	-0.528337	-0.42622	9.83672	-0.788665	-0.738909	0.0258875	0.024693	-0.00987183	-0.985107	0.485596	0.0305176	
83	0.704995	-0.0535551	-0.109382	-0.698677	3.01362	0.749571	10.5924	-0.000572424	0.00624235	0.00847959	-0.206543	0.298828	-0.901367	0.902704	0.0420985	-0.4015	0.148832	7.42639	-0.438872	6.83403	0.0119976	0.000689719	-0.0128068	-0.516602	0.327881	-0.570312	0.803251	0.1636	0.171868	-0.546338	-4.62279	0.962171	9.63681	0.0399568	-0.00281347	-0.000659577	0.508057	0.191406	-0.768555	0.128506	0.146467	0.538339	-0.819893	-3.76193	-8.31098	3.62084	0.0298832	0.0278628	-0.00167565	0.0249023	0.941406	-0.412842	0.640917	0.0943291	0.161256	-0.744529	-3.54848	-1.17797	9.04287	0.011012	-0.0023322	0.00397911	0.272949	0.47168	-0.805176	-0.835448	-0.504909	-0.199455	-0.0855086	-3.95616	8.37776	6.65933	0.00283326	0.0297439	0.00211398	0.709717	-0.696777	-0.134277	0.713475	0.14673	-0.653666	0.205291	9.89992	-0.6354	1.00596	0.0153488	-0.0228969	-0.0224029	-0.874512	0.410156	-0.12793	0.427903	-0.532558	-0.520966	-0.511739	9.67079	0.660279	-1.03099	0.00415713	0.0240943	-0.0222117	-1.0144	0.303955	0.138916	0.531133	-0.427021	-0.570884	-0.457867	9.93331	0.66356	-0.100704	0.017629	0.0211662	-0.0251555	-1.02905	0.244873	-0.013916	0.539531	0.399506	-0.641122	0.371839	9.69372	-0.520648	-1.21696	0.000276107	0.0368204	-0.000206577	-0.955811	0.461914	0.170898	0.529031	-0.509148	-0.52825	-0.426435	9.84456	-0.973099	-0.694603	0.0107894	0.0128312	-0.0114075	-0.980713	0.485596	0.0351562	
84	0.705018	-0.0536605	-0.109469	-0.698632	2.99073	0.698516	10.5643	0.000984184	-0.0094445	-0.000613291	-0.208496	0.296631	-0.905762	0.902734	0.0422243	-0.401386	0.148919	7.45501	-0.454036	6.81161	0.00842376	0.0210899	-0.0162722	-0.518799	0.330078	-0.568115	0.803277	0.163314	0.17141	-0.546529	-4.50047	0.912194	9.65618	-0.00584521	-0.0153189	-0.00882579	0.512451	0.187012	-0.777588	0.128464	0.146981	0.538137	-0.81994	-3.74948	-8.37472	3.60283	0.00977352	0.0186922	0.0206883	0.0334473	0.947998	-0.40625	0.641136	0.0941355	0.161162	-0.744386	-3.41702	-1.1413	9.02589	-0.00772562	-0.0116642	0.00379328	0.264404	0.467285	-0.805176	-0.835688	-0.504407	-0.199533	-0.0859381	-4.01195	8.5017	6.76074	-0.0316912	0.0231884	2.00965e-05	0.707275	-0.690186	-0.132324	0.713483	0.14679	-0.653665	0.205225	9.91718	-0.642572	1.00934	0.0123192	0.0100565	-0.0235402	-0.876953	0.412354	-0.134521	0.428057	-0.53241	-0.521006	-0.511722	9.64176	0.676176	-1.04994	0.0179454	0.0280321	-0.0172523	-1.01855	0.299561	0.134277	0.531276	-0.426866	-0.570813	-0.457935	9.83374	0.654261	-0.15328	0.0110634	0.0246757	-0.0235163	-1.02686	0.247314	-0.0163574	0.53962	0.399509	-0.641011	0.371898	9.6486	-0.546121	-1.27499	0.00315471	0.0239963	-0.00152583	-0.953613	0.461914	0.164062	0.529176	-0.508893	-0.528335	-0.426454	9.76397	-0.817021	-0.6261	-0.00531007	0.00910739	-0.00483141	-0.987549	0.487793	0.0305176	
85	0.704894	-0.0537838	-0.109883	-0.698682	2.96053	0.834352	10.5224	0.00702427	-0.0124199	-0.00933175	-0.206055	0.292236	-0.89917	0.902853	0.0424834	-0.401076	0.148961	7.38705	-0.364007	6.80871	0.00241413	0.0114123	-0.022323	-0.518555	0.323486	-0.570068	0.803331	0.163599	0.170558	-0.54663	-4.55086	0.886213	9.7253	0.0372769	-0.00418689	0.00158922	0.508057	0.189209	-0.775391	0.128491	0.147539	0.537471	-0.820273	-3.80592	-8.17161	3.70059	0.0312763	0.0184857	0.010625	0.0334473	0.945801	-0.408447	0.641604	0.0937646	0.160992	-0.744066	-3.35557	-1.05307	9.04473	-0.0143425	-0.0195383	0.00958445	0.270508	0.476074	-0.80957	-0.835991	-0.50364	-0.200067	-0.0862509	-3.95598	8.33233	6.83071	-0.000207817	0.0281762	-0.0314404	0.703125	-0.69458	-0.136475	0.713445	0.146804	-0.65375	0.205075	9.90568	-0.632113	1.10435	0.00358088	0.00233105	-0.0242616	-0.872314	0.405762	-0.125732	0.428433	-0.531918	-0.521839	-0.51107	9.66324	0.604245	-1.13177	0.0694982	-0.00549978	-0.0254663	-1.01636	0.301758	0.141113	0.532579	-0.425324	-0.571751	-0.456683	9.92382	0.630004	-0.147136	0.147295	0.0296506	-0.0211133	-1.02417	0.242676	-0.0161133	0.539872	0.399538	-0.640524	0.372341	9.58578	-0.551251	-1.20163	0.0123513	0.032693	0.00295293	-0.958008	0.461914	0.170898	0.529341	-0.508718	-0.528635	-0.426086	9.79988	-0.86665	-0.720921	0.0345052	-0.00168405	-0.00227806	-0.976318	0.487793	0.0351562	
