40	Head	00b4120a												Throax	00b411e8												LUpArm	00b411d9												LFoArm	00b41148												RUpArm	00b411db												RFoArm	00b41204												Waist	00b411f7												Lthigh	00b411f4												Lshank	00b4111b												Rthigh	00b411c8												Rshank	00b411ee												
PacketCount	q0	q1	q2	q3	accX	accY	accZ	gyrX	gyrY	gyrZ	magX	magY	magZ	q0	q1	q2	q3	accX	accY	accZ	gyrX	gyrY	gyrZ	magX	magY	magZ	q0	q1	q2	q3	accX	accY	accZ	gyrX	gyrY	gyrZ	magX	magY	magZ	q0	q1	q2	q3	accX	accY	accZ	gyrX	gyrY	gyrZ	magX	magY	magZ	q0	q1	q2	q3	accX	accY	accZ	gyrX	gyrY	gyrZ	magX	magY	magZ	q0	q1	q2	q3	accX	accY	accZ	gyrX	gyrY	gyrZ	magX	magY	magZ	q0	q1	q2	q3	accX	accY	accZ	gyrX	gyrY	gyrZ	magX	magY	magZ	q0	q1	q2	q3	accX	accY	accZ	gyrX	gyrY	gyrZ	magX	magY	magZ	q0	q1	q2	q3	accX	accY	accZ	gyrX	gyrY	gyrZ	magX	magY	magZ	q0	q1	q2	q3	accX	accY	accZ	gyrX	gyrY	gyrZ	magX	magY	magZ	q0	q1	q2	q3	accX	accY	accZ	gyrX	gyrY	gyrZ	magX	magY	magZ	
0	-0.0190918	-0.149826	-0.729663	-0.666918	1.61705	9.49338	-1.05159	0.065742	0.0108125	-0.0126585	-0.504395	-0.803955	0.220459	0.846128	0.336838	-0.411824	-0.0317556	7.0303	6.08682	4.31891	0.0170492	0.00964808	0.00658382	-0.575195	-0.403076	-0.577148	0.88303	0.431553	0.151444	-0.105279	-3.84341	7.57699	6.07238	-0.0365524	0.0106525	0.0191453	0.637695	-0.629639	-0.487061	0.322809	0.751895	0.134415	-0.558911	-9.14108	3.4091	-1.81476	-0.0682309	0.0047596	0.0192473	1.01685	-0.0529785	-0.152832	0.727591	0.644929	0.0861857	-0.217372	-3.98359	9.18873	1.6633	-0.0200355	0.0115737	0.0295257	0.720459	-0.692139	-0.177734	-0.948833	-0.273986	-0.109502	-0.112507	-2.64108	6.56831	10.7771	-0.0590387	0.0403615	0.00866266	0.613525	-0.543701	-0.563477	0.732019	0.193834	-0.653115	-0.00426804	9.52261	2.75854	0.713325	-0.0387522	-0.00870254	-0.00374912	-0.969971	0.0393066	-0.157471	0.487711	-0.507781	-0.545843	-0.454259	9.70766	0.220938	-1.1501	-0.0337933	0.0151756	-0.00125805	-0.998047	0.369629	0.0908203	0.577634	-0.40928	-0.575006	-0.410119	9.88174	0.359389	0.135459	-0.104663	0.0293356	-0.0265393	-1.00146	0.311768	-0.0617676	0.574943	0.285172	-0.698424	0.316735	9.62337	-1.14211	-1.51278	-0.0563543	-0.0113389	0.000224792	-0.92749	0.530273	0.155762	0.526371	-0.540832	-0.524852	-0.393656	9.81279	-1.57763	-1.49406	-0.0277256	0.0532651	0.0154601	-0.931885	0.558838	0.0976562	
1	-0.0190624	-0.149848	-0.730108	-0.666426	1.68498	9.53078	-1.14081	0.0143916	-0.0144794	-0.00504816	-0.501953	-0.806152	0.20752	0.846644	0.336919	-0.41075	-0.0310522	6.77082	6.02313	4.42023	-0.00759088	0.0679306	-0.0152238	-0.575195	-0.40332	-0.586426	0.883782	0.429761	0.152312	-0.105051	-3.94108	7.52542	5.91338	-0.0933905	0.00605717	-0.0219695	0.637695	-0.625244	-0.484863	0.323254	0.751638	0.13426	-0.559036	-9.14597	3.33072	-1.59658	0.0361654	-0.00996174	0.00119753	1.01685	-0.0551758	-0.150635	0.727959	0.644434	0.0862516	-0.21758	-4.04227	9.15092	1.5996	-0.0487255	-0.0103558	-0.0273343	0.718018	-0.687744	-0.175537	-0.948909	-0.27328	-0.109994	-0.113098	-2.88826	6.06687	10.898	0.0490959	0.0153651	-0.00427428	0.61377	-0.548096	-0.561279	0.732144	0.194247	-0.652855	-0.00369044	9.63293	2.89716	0.887739	0.055225	0.055113	-0.0266399	-0.963623	0.0415039	-0.161621	0.486578	-0.509355	-0.543849	-0.456101	9.78515	-0.189081	-1.13613	-0.14488	0.0229468	0.00833778	-0.989014	0.365234	0.0932617	0.575671	-0.412406	-0.572386	-0.4134	10.0501	-0.340509	-0.138662	-0.215218	0.0323975	-0.0133286	-1.00171	0.316406	-0.0617676	0.574694	0.284925	-0.698902	0.316356	9.53312	-1.15396	-1.41549	-0.00924177	-0.00764706	0.0102109	-0.934082	0.530273	0.157959	0.526968	-0.540695	-0.523654	-0.39464	9.64044	-1.61057	-1.31217	-0.0424884	0.067168	0.0135274	-0.934082	0.558838	0.0908203	
2	-0.0188725	-0.149377	-0.729699	-0.666985	1.60684	9.48802	-1.08143	-0.0333426	0.0375363	-0.00128228	-0.504639	-0.799561	0.216064	0.846955	0.336466	-0.410428	-0.0317208	6.79851	5.88752	4.12236	-0.0476217	0.0135977	-0.0360686	-0.573242	-0.398926	-0.582031	0.883541	0.429882	0.153232	-0.10525	-3.66787	7.45201	6.03172	0.043228	0.050502	-0.0421305	0.639893	-0.62085	-0.484863	0.323476	0.751355	0.13555	-0.558977	-9.14852	3.18698	-1.78893	-0.0324216	0.0117047	-0.0425855	1.01904	-0.0554199	-0.14624	0.726519	0.646025	0.0869147	-0.217409	-3.76464	8.73564	1.57546	0.0764477	0.0462176	-0.0264947	0.718262	-0.692139	-0.17334	-0.948836	-0.272992	-0.111382	-0.113045	-2.57209	6.30013	10.7166	-0.0492197	0.0611293	-0.0625613	0.615967	-0.548096	-0.561279	0.732362	0.194397	-0.65256	-0.00450417	9.42273	2.77119	0.462693	-0.0162732	0.00346344	-0.0430684	-0.961426	0.0415039	-0.157471	0.486519	-0.50978	-0.543021	-0.456675	9.50807	-0.564857	-0.919614	0.00712117	0.0321769	-0.011171	-0.99585	0.369629	0.0908203	0.575992	-0.412498	-0.571981	-0.413419	9.72398	0.0336891	0.159835	0.0340303	0.0164177	-0.00603335	-0.999268	0.314209	-0.0617676	0.574684	0.284208	-0.699282	0.316179	9.6097	-1.1924	-1.20055	-0.0441128	0.0291786	0.0349398	-0.923096	0.534668	0.157959	0.526869	-0.541363	-0.522567	-0.395296	9.479	-1.6531	-1.06309	-0.0480652	0.0162303	0.0212251	-0.929688	0.556641	0.095459	
3	-0.0186452	-0.149503	-0.729423	-0.667266	1.50513	9.32063	-1.00034	-0.0285443	0.00540435	0.0218769	-0.502197	-0.801758	0.21167	0.84715	0.336218	-0.410218	-0.0318751	6.78806	5.84233	4.29447	-0.0311505	0.0297186	-0.0250681	-0.571045	-0.398926	-0.57959	0.883104	0.430624	0.153452	-0.105561	-3.85407	7.51944	5.97545	0.0707717	0.0187961	-0.0258209	0.639893	-0.625244	-0.482666	0.322136	0.751748	0.135641	-0.5592	-8.9255	3.16433	-1.65907	0.0904261	0.0265215	-0.0646831	1.01685	-0.0529785	-0.152832	0.72692	0.64538	0.0870237	-0.217943	-3.94175	8.74367	1.35495	0.00322461	-0.0162615	-0.055519	0.722656	-0.692139	-0.168701	-0.948702	-0.272772	-0.111879	-0.114205	-2.63809	6.54105	10.685	0.0371213	0.021904	0.03088	0.618164	-0.55249	-0.563232	0.732702	0.193352	-0.652481	-0.00565571	9.42122	2.76181	0.465727	-0.050684	0.0105387	-0.0204661	-0.958984	0.0373535	-0.163818	0.486856	-0.509716	-0.542963	-0.456455	9.69837	-0.312531	-0.780498	0.0279237	0.0277664	0.00397148	-0.991455	0.371826	0.095459	0.575981	-0.41273	-0.571864	-0.413367	9.88341	-0.230539	0.0879685	-0.00711188	0.00261436	-0.00475767	-0.992432	0.314209	-0.0595703	0.574991	0.283534	-0.699343	0.316089	9.42746	-1.25052	-1.22597	-0.044086	0.0424276	0.028978	-0.922607	0.523926	0.158203	0.526775	-0.54176	-0.522288	-0.395246	9.58584	-1.71716	-1.29817	-0.0246602	-0.000429892	0.0235256	-0.932129	0.563232	0.0932617	
4	-0.0191592	-0.150605	-0.729417	-0.66701	1.61278	9.18374	-1.02999	0.0223874	-0.0686096	0.00506697	-0.504395	-0.801758	0.213867	0.847435	0.335936	-0.409793	-0.0327209	6.90841	5.86897	4.24816	-0.0300136	0.0139677	-0.0383834	-0.570801	-0.401123	-0.58667	0.882376	0.432027	0.152956	-0.106626	-3.87545	7.86263	6.21544	0.0236494	-0.0148158	-0.0111024	0.64209	-0.623047	-0.480225	0.321258	0.751814	0.135803	-0.559577	-9.0021	3.05344	-1.91325	0.0442021	-0.0188878	0.0135162	1.01904	-0.0529785	-0.148438	0.725874	0.646336	0.0867668	-0.218695	-3.89217	9.21726	1.45938	0.0121676	0.00310149	-0.0283176	0.722412	-0.687744	-0.170898	-0.94882	-0.272126	-0.11219	-0.114465	-2.69831	5.98801	10.441	0.0209997	0.00684927	-0.0452944	0.61377	-0.550293	-0.56543	0.732431	0.193663	-0.652693	-0.0056637	9.62071	2.67244	0.959981	0.0290301	-0.00016328	-0.0216154	-0.972168	0.0415039	-0.163818	0.487806	-0.50922	-0.542962	-0.455996	9.55414	-0.0716883	-0.890334	0.024089	0.0561881	-0.00837958	-0.991455	0.369629	0.088623	0.576112	-0.412728	-0.572047	-0.412932	9.89015	0.155204	-0.0387807	-0.00312143	0.000284013	-0.0114198	-0.999512	0.318848	-0.0595703	0.57554	0.282204	-0.699782	0.315309	9.50913	-1.28144	-1.55022	-0.0647909	0.0275208	0.0223074	-0.929688	0.530273	0.1604	0.526989	-0.542216	-0.52141	-0.395495	9.71812	-1.57552	-1.27745	0.0172796	0.0226542	0.0100325	-0.938965	0.563232	0.095459	
5	-0.0206258	-0.151373	-0.729765	-0.666411	1.84095	9.45079	-1.18142	0.00962131	-0.0683949	-0.0337889	-0.502197	-0.801758	0.21167	0.847766	0.335878	-0.409137	-0.03296	6.76916	5.97863	4.48728	-0.0186607	0.0312857	-0.0320447	-0.568848	-0.398926	-0.58667	0.883	0.430593	0.152975	-0.107236	-3.77658	7.63547	6.04521	-0.114268	-0.0376377	-0.0577583	0.639893	-0.627441	-0.480225	0.32064	0.751908	0.134737	-0.560063	-8.86281	3.36981	-1.59732	0.0938625	-0.0398124	0.0270766	1.01709	-0.0595703	-0.150391	0.726109	0.645763	0.0868623	-0.219569	-3.84064	8.66495	1.40592	0.00994599	-0.0154078	-0.0336382	0.724609	-0.687744	-0.168701	-0.948683	-0.272871	-0.111816	-0.114192	-2.66985	6.49161	10.5841	0.0144687	-0.0275206	-0.033345	0.616211	-0.554688	-0.563232	0.733264	0.193359	-0.651849	-0.00530971	9.38572	2.72021	0.783047	0.00457085	0.0451465	-0.00560069	-0.959229	0.0393066	-0.163818	0.487462	-0.509888	-0.542227	-0.456493	9.63269	-0.260307	-1.36686	-0.0138854	0.0270507	-0.00366268	-0.989258	0.367432	0.0908203	0.576385	-0.412674	-0.571836	-0.412897	9.84814	-0.155566	0.14088	0.0380328	0.0226473	-0.017687	-0.994629	0.314209	-0.0617676	0.575101	0.282758	-0.69954	0.316151	9.69933	-1.17954	-1.23028	0.0592765	0.0242742	0.0084787	-0.929443	0.528076	0.158203	0.527133	-0.542277	-0.521269	-0.395406	9.60142	-1.48651	-1.13159	0.00557549	0.0125634	0.0128992	-0.934082	0.558838	0.102295	
6	-0.0206428	-0.151245	-0.730042	-0.666136	1.7863	9.55921	-1.18746	0.0135299	0.0141765	0.0199719	-0.502197	-0.803955	0.218262	0.848115	0.335076	-0.409098	-0.03261	6.70342	5.77307	4.43112	-0.0302002	0.00370167	0.0158665	-0.577637	-0.398926	-0.584229	0.883359	0.430246	0.152363	-0.106537	-3.93104	7.50596	6.1638	0.014958	0.0139551	0.0677788	0.637695	-0.625244	-0.484863	0.322292	0.751206	0.134189	-0.560188	-9.17623	3.51229	-1.55031	-0.0919474	-0.014571	0.0493911	1.01489	-0.0620117	-0.145996	0.72635	0.645438	0.086782	-0.219762	-4.19891	8.84321	1.33375	-0.0228583	-0.00662255	-0.0298863	0.720215	-0.687744	-0.17334	-0.948599	-0.273109	-0.112255	-0.113885	-2.82724	6.58371	10.7526	0.0333553	0.0250568	-0.0431279	0.61377	-0.545898	-0.563477	0.733325	0.192765	-0.651957	-0.0053236	9.45945	2.82807	0.561499	0.00891676	0.0235852	0.00174139	-0.96582	0.0437012	-0.161865	0.488267	-0.509327	-0.542089	-0.456421	9.76119	-0.159681	-0.805265	0.0275764	0.0435592	-0.00983821	-0.991455	0.371826	0.0930176	0.576664	-0.412615	-0.571729	-0.412715	9.9328	-0.246969	0.0822962	0.041924	0.0166018	-0.0131491	-0.99707	0.316406	-0.0595703	0.575063	0.282862	-0.699152	0.316983	9.62328	-1.24508	-1.31545	0.0190296	0.0208634	0.0204524	-0.929443	0.525879	0.158203	0.527829	-0.541935	-0.52137	-0.394812	9.69662	-1.6831	-1.26561	0.0384331	0.00827219	0.0121498	-0.934082	0.558838	0.0864258	
7	-0.0196794	-0.151409	-0.730139	-0.666022	1.64604	9.36727	-1.14095	0.0129439	0.0273327	0.0276775	-0.504395	-0.803955	0.21167	0.847957	0.335271	-0.409294	-0.0322775	6.85574	5.97747	4.43964	0.0188769	0.0278841	-0.0123156	-0.56665	-0.398682	-0.577148	0.883421	0.429918	0.152899	-0.106585	-3.76177	7.51772	6.06548	-0.00858093	0.0241868	-0.021306	0.637695	-0.623047	-0.484863	0.323237	0.750611	0.134001	-0.560487	-9.27807	3.35014	-1.70769	0.00407835	-0.0271584	0.0111788	1.01685	-0.0529785	-0.150635	0.726808	0.644971	0.0865744	-0.219697	-3.89164	8.79537	1.62791	-0.024883	0.0213326	0.0029957	0.724365	-0.681152	-0.180176	-0.949236	-0.270625	-0.112821	-0.113949	-2.80452	5.83733	10.7404	-0.0703904	0.0290056	-0.0511353	0.615967	-0.545898	-0.563477	0.73327	0.192959	-0.651964	-0.00500727	9.53941	2.74758	0.907041	0.0343224	0.0203889	-0.0176378	-0.961426	0.0437012	-0.166016	0.4892	-0.508697	-0.542256	-0.455926	9.69113	-0.05174	-0.960623	0.0479358	0.0438495	-0.00222658	-0.993652	0.371826	0.0837402	0.577267	-0.412388	-0.571445	-0.412492	9.96536	0.022742	0.0679781	-0.011706	0.0383829	-0.00503282	-0.994873	0.31665	-0.0661621	0.575534	0.281988	-0.699181	0.316844	9.58723	-0.956216	-1.42884	-0.0464433	0.0317861	0.0106061	-0.929443	0.528076	0.155762	0.527718	-0.542455	-0.520506	-0.395386	9.7928	-1.78807	-1.32274	-0.0246399	0.035688	0.0110629	-0.936523	0.558838	0.0908203	
8	-0.0194913	-0.151056	-0.729946	-0.666319	1.78015	9.42634	-1.08432	-0.0219806	0.0188634	-0.014101	-0.500244	-0.799561	0.216064	0.848369	0.335287	-0.408451	-0.0319523	6.75412	5.96453	4.39739	-0.0143584	0.0676734	-0.0239949	-0.572998	-0.401123	-0.581787	0.883396	0.429614	0.153696	-0.106873	-3.75945	7.36829	5.86559	-0.0014212	0.0103424	-0.0407287	0.637695	-0.623047	-0.491699	0.321884	0.750913	0.133809	-0.560906	-8.85781	3.47888	-1.41828	0.0560793	0.00944056	-0.036276	1.01489	-0.0595703	-0.152588	0.726998	0.644762	0.0870328	-0.2195	-3.80042	8.93649	1.60785	-0.0149908	0.0290199	-0.0327333	0.724609	-0.687744	-0.177734	-0.948929	-0.271214	-0.113544	-0.114386	-2.62754	6.2299	10.9332	0.0670466	0.0301185	-0.00334324	0.61792	-0.545898	-0.563477	0.732873	0.192632	-0.652502	-0.00555848	9.5013	2.80428	0.760199	-0.0270083	-0.0253553	-0.0240967	-0.963623	0.0437012	-0.161865	0.489225	-0.508779	-0.542036	-0.45607	9.59711	0.0527228	-0.994311	-0.0125117	0.0298366	-0.00861007	-0.991699	0.374023	0.0861816	0.577539	-0.412557	-0.570876	-0.41273	9.8819	-0.0539567	0.126992	-0.00481679	0.0291445	-0.0114865	-0.99707	0.316406	-0.057373	0.575271	0.282143	-0.69902	0.317537	9.49764	-1.31675	-1.27057	0.0512463	0.0235115	0.0153426	-0.927246	0.528076	0.155762	0.528246	-0.542309	-0.520183	-0.395306	9.59911	-1.56249	-1.25751	-0.00521713	0.0241276	0.0117883	-0.941162	0.56543	0.0930176	
9	-0.0187222	-0.151202	-0.729333	-0.666979	1.65131	9.41809	-1.04128	-0.0318168	0.00611861	0.0469964	-0.506836	-0.799561	0.213867	0.84882	0.334592	-0.40803	-0.0326196	6.77833	5.77281	4.32479	-0.0485029	-0.00833231	-0.0397514	-0.568604	-0.40332	-0.586426	0.88243	0.431642	0.153928	-0.106343	-3.76265	7.52527	6.04198	0.0943066	0.0621924	0.0256917	0.644287	-0.625244	-0.484863	0.32144	0.75076	0.135362	-0.560993	-8.91431	3.29221	-1.71269	-0.0304928	0.0273694	-0.0604944	1.01245	-0.0554199	-0.152832	0.726998	0.644762	0.0870328	-0.2195	-3.80042	8.93649	1.60785	-0.0149908	0.0290199	-0.0327333	0.724609	-0.687744	-0.177734	-0.948775	-0.271346	-0.114192	-0.114703	-2.68974	6.40974	10.8607	0.0357644	0.0522635	-0.0140747	0.615967	-0.548096	-0.572021	0.733051	0.19219	-0.652429	-0.00606991	9.44793	2.83834	0.757416	-0.0415302	0.0168851	-0.024882	-0.969971	0.0415039	-0.163818	0.489223	-0.508886	-0.541198	-0.456948	9.682	-0.193958	-0.916829	-0.0342761	0.0410564	-0.006186	-0.989258	0.369629	0.0837402	0.577462	-0.413018	-0.570225	-0.413277	9.89736	-0.0754059	0.140421	-0.0509247	0.0205885	-0.0102485	-0.992432	0.31665	-0.0686035	0.575512	0.281631	-0.699101	0.317377	9.69278	-1.10443	-1.28181	-0.0458467	0.0236591	0.018367	-0.925293	0.530273	0.151123	0.528348	-0.542667	-0.519505	-0.39557	9.66993	-1.63214	-1.19613	-0.0207723	0.0224724	0.0158338	-0.929688	0.561035	0.0976562	
10	-0.0184023	-0.151822	-0.728586	-0.667663	1.63194	9.27168	-1.11158	-0.0401698	-0.0136238	0.0195806	-0.504395	-0.801758	0.209473	0.84878	0.335508	-0.407337	-0.0329094	6.80047	5.96599	4.48298	0.0391417	0.0451759	-0.049355	-0.571045	-0.398926	-0.584229	0.882078	0.432173	0.154473	-0.10632	-3.91953	7.43225	5.95404	0.0181339	-0.0122297	0.00574474	0.64209	-0.625244	-0.487061	0.318634	0.751417	0.136179	-0.561515	-9.02467	3.25584	-1.49888	0.0913197	0.0464938	-0.0949981	1.0144	-0.0488281	-0.150635	0.726114	0.645585	0.0883282	-0.219493	-4.00948	8.93226	1.53541	-0.0284564	0.0232402	-0.0428054	0.724365	-0.681152	-0.175537	-0.948512	-0.27145	-0.114819	-0.115999	-2.82739	6.00691	10.4644	0.0500375	0.026053	0.0371033	0.620605	-0.554688	-0.563232	0.733644	0.191808	-0.651864	-0.00696204	9.52484	2.77719	0.688262	-0.0379237	0.0250366	-0.0399352	-0.970215	0.0437012	-0.159668	0.489628	-0.508859	-0.540939	-0.45685	9.71557	-0.166871	-0.93364	-0.000711843	0.0164928	-0.000671991	-0.993896	0.376221	0.0791016	0.57742	-0.413416	-0.569844	-0.413463	9.87487	-0.034362	0.173458	0.00795375	0.00874568	-0.0121292	-0.999512	0.318848	-0.0595703	0.57576	0.280897	-0.699195	0.31737	9.69251	-1.23089	-1.2728	-0.0300937	0.0318919	0.0126753	-0.92749	0.534668	0.157959	0.528467	-0.543008	-0.51894	-0.395685	9.72196	-1.57235	-1.19316	-0.0135091	0.0201627	0.013576	-0.934326	0.563232	0.0932617	
11	-0.0186771	-0.151872	-0.728316	-0.667938	1.79604	9.29385	-1.11097	-0.0333612	-0.0197575	-0.00877737	-0.504395	-0.801758	0.213867	0.848916	0.335605	-0.406958	-0.0331204	6.81603	5.96118	4.42689	-0.0106299	0.0372175	-0.0462896	-0.571045	-0.396729	-0.58667	0.881719	0.432903	0.154393	-0.106442	-3.70816	7.5439	6.072	0.0675977	0.00389323	-0.00164868	0.637695	-0.627441	-0.489258	0.318345	0.751622	0.137143	-0.561171	-9.08382	3.15804	-1.72878	-0.0232697	0.0636747	-0.0578377	1.01416	-0.0466309	-0.14624	0.725327	0.646501	0.0888127	-0.219203	-3.84808	8.33386	1.58256	0.0820822	0.0726135	-0.0297779	0.724365	-0.68335	-0.170898	-0.948272	-0.271588	-0.115683	-0.116782	-2.75942	6.08763	10.5009	0.00956487	0.0258847	-0.00437048	0.618408	-0.55249	-0.558838	0.73424	0.192086	-0.651106	-0.00746098	9.52677	2.76333	0.841476	-0.00325142	0.0397892	-0.0360763	-0.963623	0.0437012	-0.157471	0.48972	-0.509145	-0.540199	-0.457309	9.66009	-0.0724867	-0.840412	-0.025979	0.0466526	-0.00545119	-0.991455	0.371826	0.0883789	0.577355	-0.413738	-0.569615	-0.413546	9.91829	-0.0412533	-0.00943762	-0.0221989	0.00727587	-0.00498887	-0.98999	0.312012	-0.0639648	0.575956	0.280485	-0.699202	0.317363	9.67034	-1.34435	-1.28253	-0.0230087	0.0341021	0.0202878	-0.925293	0.530273	0.151123	0.528526	-0.543218	-0.51868	-0.395658	9.67833	-1.66964	-1.16978	-0.0103808	0.0119662	0.019071	-0.932129	0.561035	0.0908203	
12	-0.0187539	-0.151603	-0.727713	-0.668655	1.73411	9.33566	-1.0788	-0.0391518	0.00526817	-0.00351926	-0.506836	-0.799561	0.207275	0.849474	0.335531	-0.405815	-0.0335707	6.63647	5.86411	4.49678	-0.0208353	0.0298712	-0.0439406	-0.570801	-0.401123	-0.58667	0.881088	0.434211	0.154406	-0.106315	-3.92723	7.3374	5.92202	0.0658018	-0.00859696	0.0266167	0.635742	-0.629395	-0.480225	0.316419	0.752357	0.137877	-0.561095	-8.91658	3.31345	-1.60848	0.058567	0.045913	-0.0608794	1.01416	-0.0466309	-0.14624	0.724461	0.647712	0.0895711	-0.218182	-3.85273	8.52814	1.4252	0.0976383	0.0555693	-0.0296373	0.726807	-0.685547	-0.166504	-0.947487	-0.273616	-0.116008	-0.118088	-2.65038	6.85447	10.8642	0.0976095	0.031665	0.0219095	0.620361	-0.55249	-0.558838	0.734904	0.191936	-0.650394	-0.00795656	9.33656	2.77376	0.827578	-0.00134831	0.075548	-0.0332717	-0.96582	0.0415039	-0.163818	0.489942	-0.509325	-0.53993	-0.457187	9.72256	-0.36658	-1.11397	0.0231206	0.02314	-0.00355039	-0.998291	0.376221	0.0930176	0.578029	-0.41347	-0.569465	-0.413078	9.89502	-0.161377	0.10153	0.0536856	0.0234839	-0.00257994	-0.999512	0.318848	-0.0617676	0.576141	0.280265	-0.698706	0.318313	9.58936	-1.11355	-1.3608	0.0225121	0.0523808	0.0195514	-0.92749	0.530273	0.153564	0.529446	-0.542788	-0.519015	-0.394577	9.62381	-1.42808	-1.25101	0.0519275	-0.00103625	0.0179639	-0.93457	0.567627	0.095459	
13	-0.0179404	-0.151118	-0.72736	-0.66917	1.78097	9.35113	-1.03847	-0.0185062	0.0493131	0.012546	-0.502197	-0.803955	0.203125	0.849484	0.335913	-0.405457	-0.0338297	6.75316	5.87456	4.35735	0.0378658	0.0501756	-0.0394948	-0.564453	-0.398926	-0.589111	0.879917	0.436541	0.154997	-0.105613	-3.84048	7.70678	5.98809	0.0791143	0.0747935	0.0231347	0.644287	-0.631836	-0.480225	0.316464	0.752175	0.139442	-0.560927	-9.08136	3.18738	-1.78676	-0.0295913	0.0177897	-0.0431961	1.021	-0.0466309	-0.144043	0.724154	0.648182	0.0900234	-0.217616	-4.04735	9.11431	1.27955	-0.0421378	0.0308562	-0.0308675	0.72876	-0.68335	-0.164062	-0.947135	-0.274127	-0.116739	-0.119002	-2.67847	6.37861	10.4992	0.031929	0.0346622	0.0176845	0.616211	-0.55249	-0.558838	0.735132	0.19195	-0.65013	-0.00815609	9.48546	2.75298	0.835828	0.0521951	0.02589	-0.0140023	-0.965576	0.0373535	-0.163818	0.490914	-0.508702	-0.539962	-0.4568	9.52689	-0.159652	-1.11217	0.0616869	0.0320811	-0.00589088	-0.989502	0.376221	0.0883789	0.578843	-0.412993	-0.569625	-0.412195	9.81278	-0.0998421	0.0206949	0.049728	0.0122506	-0.00271967	-0.992676	0.321045	-0.064209	0.576351	0.279522	-0.698767	0.318452	9.61426	-1.30077	-1.3573	-0.0216466	0.0194091	0.0204329	-0.925537	0.539062	0.150879	0.529417	-0.543319	-0.518552	-0.394495	9.74199	-1.64245	-1.36818	0.0226274	0.0135466	0.0132705	-0.929932	0.563232	0.0932617	
14	-0.0177578	-0.149965	-0.727215	-0.669592	1.80957	9.42594	-1.0235	-0.010856	0.0324298	-0.0435617	-0.502441	-0.799561	0.21167	0.849387	0.336958	-0.404846	-0.0331764	6.71733	6.03982	4.43806	0.0369707	0.043425	-0.00445002	-0.566406	-0.405273	-0.586426	0.879936	0.43656	0.155277	-0.104958	-3.60654	7.69819	6.10217	-0.0187081	0.0304454	0.00880901	0.644287	-0.629639	-0.473389	0.316193	0.752386	0.140333	-0.560575	-9.1495	3.18399	-1.76655	-0.0234471	0.0339232	-0.00946485	1.0166	-0.0466309	-0.141846	0.72414	0.648576	0.0905513	-0.216265	-4.02603	9.12934	1.23651	-0.00815171	0.06354	0.03916	0.720215	-0.687744	-0.168701	-0.947088	-0.27347	-0.117241	-0.120387	-2.60141	6.0366	10.5283	-0.0133458	0.0318761	0.0213339	0.616455	-0.558838	-0.558838	0.735029	0.192887	-0.649975	-0.00776816	9.5205	2.72015	0.775583	0.053765	0.00697356	-0.0274197	-0.968018	0.0415039	-0.163818	0.491465	-0.508388	-0.539842	-0.4567	9.74152	-0.10225	-0.798349	-0.0130194	0.0435116	-0.0110425	-0.991699	0.374023	0.0837402	0.579059	-0.412753	-0.56962	-0.412138	9.83421	0.00239156	0.184607	0.00102765	0.00967054	-0.0294883	-0.997314	0.321045	-0.0664062	0.576516	0.279469	-0.698545	0.318687	9.52017	-1.20707	-1.33825	0.019522	0.0176649	-0.00150395	-0.923096	0.534668	0.148926	0.52988	-0.543204	-0.518024	-0.394725	9.68092	-1.68076	-1.34141	0.00836941	0.0416388	0.00645354	-0.929932	0.563477	0.095459	
15	-0.0173035	-0.149165	-0.727271	-0.669722	1.87788	9.44664	-0.950633	-0.000819059	0.0668437	-0.0235532	-0.50415	-0.806152	0.20752	0.84961	0.337067	-0.404384	-0.0319736	6.72309	5.93243	4.55972	0.00836587	0.0194838	0.0178232	-0.557861	-0.40332	-0.588867	0.880652	0.435303	0.156108	-0.102929	-3.92667	7.51002	5.90628	-0.0768979	0.0561118	0.0599806	0.640137	-0.631836	-0.475586	0.318178	0.751845	0.141785	-0.559812	-9.13167	3.3216	-1.68742	-0.146249	0.0319864	0.00574548	1.02075	-0.0422363	-0.144287	0.724722	0.647995	0.091032	-0.215857	-4.0049	9.13904	1.23876	-0.076171	0.0430324	-0.0106291	0.722412	-0.687744	-0.168701	-0.946564	-0.274096	-0.118247	-0.122088	-2.73159	7.14574	10.9018	-0.00656503	0.0714325	0.0154306	0.614258	-0.561035	-0.554443	0.735226	0.19333	-0.649635	-0.00637572	9.41596	2.85462	0.845505	0.0903335	0.0452495	0.00640844	-0.963623	0.0415039	-0.166016	0.491544	-0.508321	-0.539167	-0.457486	9.64505	-0.34089	-0.946881	-0.00555584	0.0410474	-0.0104526	-0.993896	0.376221	0.0812988	0.578682	-0.413283	-0.569128	-0.412816	10.198	-0.107118	0.0639126	-0.0616625	0.0346263	-0.0168274	-0.988037	0.318848	-0.0661621	0.576474	0.27927	-0.698704	0.318589	9.61456	-1.23875	-1.20771	-0.0289704	0.022353	0.00803042	-0.923096	0.534668	0.148926	0.529503	-0.543876	-0.51689	-0.395792	9.72378	-1.63813	-1.15747	-0.106376	0.0328913	0.00908606	-0.932373	0.567627	0.0908203	
16	-0.0153941	-0.148477	-0.727863	-0.669278	1.72112	9.49884	-1.01481	0.0185909	0.0168313	0.0287007	-0.504395	-0.801758	0.200928	0.849722	0.337816	-0.403597	-0.0310249	6.74869	6.002	4.5444	0.0562813	0.0838999	-0.0254036	-0.559814	-0.407471	-0.586426	0.881194	0.43405	0.157554	-0.101359	-3.89398	7.79199	5.98942	-0.0854033	0.0786101	0.010093	0.644287	-0.634033	-0.475586	0.319711	0.751125	0.142947	-0.559609	-9.26343	3.21487	-1.74454	-0.0485854	-0.0078715	0.00057947	1.01636	-0.0444336	-0.141846	0.724328	0.648459	0.092418	-0.215197	-3.89488	9.00721	1.55921	-0.0120143	0.0297837	-0.0555976	0.726807	-0.690186	-0.161865	-0.946556	-0.27317	-0.118951	-0.123531	-2.74015	6.00645	10.5609	0.0663634	0.0394779	0.0184337	0.614258	-0.558838	-0.554443	0.735372	0.19456	-0.649113	-0.0052242	9.54957	2.78948	1.14984	0.0932403	0.0511733	-0.0243208	-0.961426	0.0393066	-0.166016	0.491812	-0.508291	-0.539042	-0.457379	9.6824	0.050724	-0.875566	-0.00700925	0.032046	-0.0173871	-0.989502	0.376221	0.0791016	0.578127	-0.414342	-0.567964	-0.414133	9.81027	0.0495243	0.324374	-0.0896479	0.0200744	-0.0218554	-0.997314	0.321045	-0.0595703	0.57626	0.279372	-0.698856	0.318553	9.69081	-1.30369	-1.30521	0.0158867	-0.00120875	0.0107838	-0.92749	0.534668	0.15332	0.529422	-0.54418	-0.516096	-0.396517	9.72665	-1.47435	-1.1226	-0.0321802	0.033506	0.000988715	-0.936768	0.567627	0.095459	
17	-0.0149049	-0.147985	-0.727501	-0.669792	1.71942	9.62663	-1.00989	-0.0357425	0.0298144	-0.00904201	-0.504395	-0.801758	0.203125	0.850449	0.337534	-0.402293	-0.0311145	6.7126	5.9406	4.4354	-0.0725764	0.0774114	-0.0299934	-0.564209	-0.405273	-0.586426	0.882183	0.43146	0.159559	-0.100677	-4.10513	7.23227	5.5784	-0.0795794	0.0324626	-0.0291294	0.644287	-0.627441	-0.475586	0.319579	0.750828	0.144747	-0.55962	-9.2139	2.9082	-1.76048	-0.00370663	0.0339982	-0.0818221	1.01392	-0.0400391	-0.14209	0.723719	0.64915	0.0929869	-0.214915	-3.82284	8.61021	1.52547	0.0585775	0.0714514	-0.0334918	0.726562	-0.683594	-0.161865	-0.946238	-0.273781	-0.119684	-0.123907	-2.69659	6.65749	10.8642	0.0754903	0.0573625	-0.00423157	0.614258	-0.556885	-0.556641	0.735579	0.194685	-0.64884	-0.00528073	9.54731	2.71568	0.799914	0.013078	0.0371484	-0.0309857	-0.965576	0.0393066	-0.167969	0.490846	-0.509349	-0.537454	-0.459105	9.71804	-0.237997	-0.844413	-0.12692	0.0364399	-0.00662773	-0.985352	0.376221	0.0791016	0.577309	-0.415471	-0.56713	-0.415286	9.83191	-0.0395467	0.171883	-0.152938	0.00999195	-0.0226567	-0.995117	0.321045	-0.0664062	0.57608	0.280013	-0.698467	0.319167	9.58957	-1.2524	-1.1025	0.0508598	0.0152629	-0.00386763	-0.925537	0.539062	0.150879	0.53009	-0.543783	-0.515804	-0.396549	9.56433	-1.54236	-1.10704	0.0413922	0.0270177	0.00352147	-0.93457	0.567627	0.0930176	
18	-0.0144993	-0.147761	-0.727026	-0.670366	1.92381	9.53959	-0.932081	-0.0542752	0.0379219	0.0143626	-0.508545	-0.806152	0.20752	0.850995	0.337484	-0.401174	-0.0311796	6.68198	5.91902	4.48558	-0.00216645	0.0140671	-0.0373719	-0.564209	-0.405518	-0.591064	0.880351	0.434907	0.160246	-0.100789	-3.87414	7.5211	5.92211	0.190316	0.0848772	0.00556877	0.64209	-0.631836	-0.473145	0.318201	0.751092	0.146595	-0.55957	-9.25429	2.94178	-1.80844	-0.0182306	0.0407679	-0.0772141	1.01807	-0.0334473	-0.14209	0.722956	0.649962	0.094072	-0.214556	-4.05288	8.94412	1.37415	0.0013827	0.0466026	-0.0544995	0.724609	-0.685791	-0.152832	-0.94581	-0.274065	-0.120976	-0.125286	-2.72164	6.32805	10.3752	0.0710651	0.0647965	0.0221244	0.616699	-0.563232	-0.554199	0.735713	0.194388	-0.648778	-0.00525245	9.45739	2.86932	0.84479	0.0444974	0.0111747	-0.00273912	-0.96582	0.0415039	-0.167969	0.490719	-0.509609	-0.536961	-0.459528	9.74397	-0.533237	-1.00569	-0.0473322	0.0391388	-0.00679424	-0.987549	0.376221	0.0812988	0.576181	-0.416278	-0.567077	-0.416115	9.84287	-0.110242	0.236112	0.0163797	-0.0234195	-0.0305523	-0.992676	0.321045	-0.0551758	0.576424	0.279363	-0.698552	0.31893	9.72538	-1.31946	-1.26394	-0.0327423	0.0309052	0.0152688	-0.920898	0.532715	0.155762	0.53014	-0.543994	-0.515569	-0.396499	9.67535	-1.77801	-1.08493	0.0224572	0.00427602	0.00584546	-0.932373	0.567627	0.0861816	
19	-0.0137844	-0.148574	-0.726056	-0.671251	1.70425	9.29444	-0.959446	-0.0455953	-0.0261935	0.0496039	-0.506348	-0.803955	0.19873	0.851127	0.337811	-0.400614	-0.0312408	6.71712	5.92488	4.42418	0.00877944	0.0533884	-0.0489429	-0.559814	-0.405518	-0.593506	0.879615	0.436317	0.16051	-0.1007	-4.16281	7.72755	5.84652	0.122923	0.0458549	0.00703264	0.646484	-0.629883	-0.466553	0.317207	0.751218	0.147014	-0.559855	-9.14148	2.74839	-1.88122	0.0486259	0.0169456	-0.073543	1.02026	-0.0334473	-0.139893	0.721939	0.651205	0.0947889	-0.213896	-4.22644	9.07718	1.08854	0.0563939	0.0453382	-0.00475112	0.729004	-0.685791	-0.159668	-0.945532	-0.274247	-0.122076	-0.125921	-2.78658	6.32118	10.3135	0.0232645	0.0342363	-0.0131345	0.614258	-0.556885	-0.550293	0.736086	0.194772	-0.648241	-0.00504832	9.50701	2.7456	1.01598	0.0330761	0.0379592	-0.022395	-0.961182	0.0351562	-0.167969	0.4913	-0.509015	-0.537072	-0.459435	9.69471	-0.239797	-0.757464	0.0390295	0.0295364	-0.0280346	-0.993896	0.374023	0.0791016	0.575924	-0.416441	-0.567289	-0.416018	9.95885	-0.203272	0.0995852	0.00218934	-0.0223165	-0.0251079	-0.995117	0.323486	-0.064209	0.57674	0.278905	-0.698445	0.318995	9.62026	-1.36405	-1.27197	-0.0202947	0.0490088	0.0206393	-0.92749	0.534668	0.15332	0.530049	-0.544175	-0.515491	-0.396472	9.63441	-1.53752	-1.15967	-0.0108036	-0.00118627	0.00528209	-0.929932	0.565674	0.0908203	
20	-0.0137403	-0.148778	-0.725492	-0.671817	1.81122	9.37394	-0.885963	-0.0338502	-0.00617982	-0.00263331	-0.506836	-0.797363	0.200928	0.85175	0.337271	-0.399695	-0.0318498	6.68816	5.99505	4.64409	-0.0743402	0.0118555	-0.0329165	-0.55542	-0.405518	-0.598145	0.879579	0.43593	0.161473	-0.101156	-3.87072	7.48077	5.84232	-0.0404185	0.0394547	-0.033817	0.644287	-0.631836	-0.466309	0.316611	0.751207	0.147774	-0.560008	-9.06186	2.93262	-1.70952	0.00215102	0.0112481	-0.0373287	1.02002	-0.0268555	-0.137939	0.721172	0.651842	0.0952238	-0.21435	-3.94451	8.61494	1.16307	0.0602162	0.0311119	-0.0322159	0.726807	-0.685791	-0.155029	-0.944913	-0.275855	-0.122814	-0.126334	-2.77147	6.9665	10.4506	0.0621257	0.0233092	-0.0166535	0.614746	-0.567627	-0.549805	0.736623	0.19389	-0.647894	-0.00516951	9.51678	2.6392	0.815091	-0.0291924	0.0483719	0.00305589	-0.965576	0.0393066	-0.167969	0.491771	-0.508605	-0.537305	-0.459113	9.65275	-0.256889	-1.12921	0.0526045	0.0273745	-0.0142969	-0.987549	0.378418	0.0791016	0.576733	-0.415524	-0.56786	-0.415034	9.85931	-0.224907	-0.00900721	0.115835	0.00780664	-0.0166102	-0.990479	0.321289	-0.0664062	0.577262	0.278513	-0.698159	0.319019	9.51721	-1.3992	-1.21697	0.00288688	0.0360316	0.00378596	-0.918945	0.539307	0.15332	0.53063	-0.543792	-0.515781	-0.395845	9.63396	-1.74786	-1.19092	0.0790952	0.0119964	0.00269204	-0.927734	0.567871	0.0908203	
21	-0.0137484	-0.148438	-0.725087	-0.672329	2.07403	9.41472	-0.866393	-0.0200705	0.0214165	-0.00376387	-0.513184	-0.799561	0.194336	0.852389	0.336624	-0.398905	-0.0314814	6.48181	5.82106	4.71124	-0.00697743	0.0284433	0.00425757	-0.559814	-0.405518	-0.595947	0.879652	0.435973	0.161388	-0.100467	-3.89359	7.61553	5.93159	0.0148774	0.0260613	0.0293712	0.646484	-0.631836	-0.461914	0.318259	0.75034	0.148218	-0.560119	-9.14452	3.04063	-1.69206	-0.0753927	-0.0278688	0.0311875	1.01831	-0.0356445	-0.14209	0.720931	0.651975	0.095524	-0.214621	-4.2132	8.95777	0.948104	-0.0343919	0.00434074	-0.0478566	0.726562	-0.679199	-0.152832	-0.944645	-0.276483	-0.123324	-0.126469	-2.76071	6.66059	10.2944	0.0728753	0.0211176	-0.0147577	0.612305	-0.563232	-0.545654	0.736485	0.193974	-0.648031	-0.00444946	9.35926	2.68813	0.917588	0.0239583	-0.005703	0.00152321	-0.961426	0.0415039	-0.170166	0.492121	-0.508081	-0.537447	-0.459153	9.73267	-0.23464	-1.01184	0.0161909	0.0330612	-0.0291648	-0.991455	0.369873	0.0744629	0.577062	-0.414942	-0.568083	-0.414855	9.90502	-0.11737	0.109268	0.0014798	0.0143228	-0.0325438	-0.992676	0.321045	-0.0595703	0.576829	0.279617	-0.697465	0.320351	9.52165	-1.31015	-1.35117	0.0990442	0.0210951	-0.00260639	-0.925537	0.536865	0.148682	0.531874	-0.542574	-0.516292	-0.39518	9.61895	-1.53674	-1.24959	0.0547339	0.0271185	-0.00603558	-0.936768	0.56543	0.095459	
22	-0.0126889	-0.147777	-0.725225	-0.672346	1.8104	9.19933	-0.831568	0.0297194	0.0451682	0.00345482	-0.513184	-0.799561	0.19873	0.852116	0.336906	-0.399327	-0.0305002	6.66051	5.9104	4.5869	0.0392271	0.0147728	0.0135547	-0.55542	-0.405518	-0.595947	0.879925	0.435456	0.16179	-0.099673	-3.95534	7.65955	5.77513	-0.0410082	0.0073494	0.0123565	0.646484	-0.631836	-0.466309	0.319433	0.749791	0.14848	-0.560116	-9.24574	2.94392	-1.78841	-0.0287998	-0.00883787	0.0112049	1.01831	-0.0356445	-0.139893	0.72112	0.651713	0.0957706	-0.214671	-4.1818	8.93688	1.16686	-0.0263176	0.0092386	-0.00828741	0.726562	-0.683594	-0.152832	-0.944901	-0.27498	-0.123882	-0.127287	-2.80099	6.38792	10.3118	-0.0688656	0.0419813	-0.0144996	0.616699	-0.567627	-0.543457	0.735832	0.194715	-0.648558	-0.00308949	9.52967	2.67533	0.820501	0.0928932	-0.0242862	0.00782822	-0.96582	0.0415039	-0.174561	0.492514	-0.507341	-0.537832	-0.459098	9.62343	-0.175029	-0.954303	0.0496363	0.0171514	-0.0311502	-0.994141	0.382812	0.0720215	0.577299	-0.414354	-0.568318	-0.41479	9.86347	-0.0924966	0.020464	0.0315172	0.0158843	-0.0363029	-0.992676	0.321045	-0.0595703	0.576838	0.280077	-0.69707	0.320792	9.58418	-1.20822	-1.27244	0.0562244	0.0298113	-0.0118446	-0.925293	0.534668	0.146484	0.532863	-0.541419	-0.516544	-0.395101	9.69401	-1.53418	-1.10137	0.0534251	0.0446635	-0.0165361	-0.932373	0.570068	0.0839844	
23	-0.0120027	-0.147168	-0.726217	-0.671422	1.8648	9.49457	-0.808606	0.0499915	0.0214608	-0.00514151	-0.506592	-0.801758	0.200928	0.851952	0.337448	-0.399327	-0.0290646	6.61763	6.01307	4.67092	0.0247347	0.0430312	0.0279354	-0.55542	-0.405518	-0.595947	0.880321	0.434722	0.162008	-0.0990194	-3.99015	7.60181	5.84619	-0.0410954	0.0258869	0.0115528	0.648682	-0.63623	-0.468506	0.320331	0.749501	0.148305	-0.560038	-9.13155	2.92869	-1.58507	-0.0252283	-0.00373998	0.032555	1.02246	-0.0332031	-0.148682	0.72221	0.650595	0.0962067	-0.214203	-4.1134	8.79138	1.26704	-0.0526745	0.0230264	-0.0109068	0.726807	-0.685547	-0.164062	-0.945005	-0.274042	-0.124308	-0.128119	-2.78764	6.62853	10.4981	-0.0259481	0.0207832	0.00286323	0.614502	-0.56543	-0.547852	0.735253	0.195154	-0.649087	-0.00218349	9.47704	2.85545	1.05184	0.0392823	-0.018346	0.00344982	-0.961426	0.0415039	-0.167969	0.493146	-0.506338	-0.538268	-0.459017	9.75509	-0.256613	-0.657673	0.0291614	0.0443855	-0.0314347	-0.996094	0.374023	0.0744629	0.57744	-0.413632	-0.568773	-0.414692	9.99243	-0.244111	0.0765952	0.0199983	0.0102484	-0.0369023	-0.999512	0.316406	-0.0639648	0.576512	0.281607	-0.696315	0.321678	9.68909	-1.31494	-1.19772	0.054311	0.0278679	-0.0235015	-0.927979	0.54126	0.144043	0.533603	-0.540411	-0.516865	-0.395062	9.72066	-1.71156	-1.09566	0.0468274	0.0218527	-0.0195854	-0.932129	0.56543	0.0839844	
24	-0.0118864	-0.147002	-0.726887	-0.670735	1.79885	9.56692	-0.873245	0.0314802	-0.0152712	-0.00609044	-0.508789	-0.799561	0.194336	0.852327	0.337207	-0.398793	-0.0281814	6.56983	6.02696	4.70623	0.00370354	0.0471811	-0.000756438	-0.560059	-0.40332	-0.595947	0.880691	0.433939	0.162199	-0.0988538	-4.0765	7.50485	5.71444	-0.0705309	0.0107579	-0.00446513	0.646484	-0.634033	-0.473145	0.321332	0.749171	0.148576	-0.559833	-9.14924	3.0923	-1.73336	-0.0647103	0.00537527	0.0138584	1.01831	-0.0356445	-0.146484	0.722747	0.650101	0.0962831	-0.213857	-4.08864	9.08656	1.30015	-0.0615076	-0.00505941	-0.00291648	0.730957	-0.683594	-0.159668	-0.945227	-0.272718	-0.124805	-0.12882	-2.67896	6.42597	10.4295	-0.024303	0.0249267	-0.00364716	0.618652	-0.558838	-0.554443	0.734436	0.195233	-0.649988	-0.0019396	9.4631	2.86762	0.776807	0.0437216	-0.0362875	-0.00888473	-0.965576	0.0393066	-0.167969	0.493745	-0.505328	-0.539374	-0.458188	9.75996	-0.200137	-0.673742	0.0880978	0.0123063	-0.0323904	-0.991699	0.374023	0.0766602	0.578645	-0.411905	-0.569539	-0.413677	9.97118	0.0812954	0.288413	0.0701232	0.03746	-0.0232211	-0.99707	0.314209	-0.0683594	0.57626	0.282512	-0.695749	0.322559	9.70244	-1.35922	-1.0368	0.0648155	0.0181539	-0.00364808	-0.927734	0.534668	0.146484	0.534093	-0.539705	-0.517524	-0.394502	9.69024	-1.84264	-1.03529	0.0572516	-0.00544359	-0.0180267	-0.930176	0.570068	0.0839844	
25	-0.0121211	-0.14728	-0.726781	-0.670784	1.81878	9.47575	-0.95222	-0.0134382	-0.021262	-0.00405802	-0.506592	-0.799561	0.203125	0.852343	0.3372	-0.398776	-0.0280268	6.64946	6.03834	4.54063	-0.00338105	0.0454601	-0.019512	-0.557861	-0.401123	-0.595947	0.881057	0.433086	0.162602	-0.0986671	-4.20562	7.50145	5.68034	-0.00268642	-0.0191518	-0.0316443	0.650879	-0.63208	-0.46875	0.321151	0.749035	0.148974	-0.560013	-9.15113	2.85029	-1.76393	0.0351471	-0.0030458	-0.0235167	1.02051	-0.0356445	-0.139893	0.72272	0.65003	0.0963981	-0.214115	-3.95952	8.7208	1.36293	-0.00388104	0.000578913	-0.0364338	0.72876	-0.683594	-0.155029	-0.945209	-0.27255	-0.124897	-0.129216	-2.79012	6.48641	10.5343	0.00291763	0.0144806	0.00314896	0.610352	-0.56543	-0.550049	0.734195	0.195009	-0.650326	-0.00228624	9.56957	2.88964	1.15596	-0.0147183	-0.0266511	-0.0201486	-0.966064	0.0458984	-0.166016	0.494191	-0.50475	-0.540009	-0.457595	9.76316	-0.187888	-0.703743	0.0947999	0.00924181	-0.0275615	-0.99585	0.371826	0.0744629	0.580455	-0.40953	-0.570885	-0.41164	9.93495	0.157736	0.400033	0.189297	0.014315	-0.0230164	-0.992432	0.31665	-0.0708008	0.576532	0.282969	-0.69505	0.323181	9.60082	-1.16507	-1.03514	0.0105882	0.0461596	-0.00150022	-0.92749	0.532471	0.14209	0.534037	-0.539352	-0.518446	-0.39385	9.71601	-1.48653	-1.12919	-0.0294348	-0.0227138	-0.0165478	-0.932129	0.56543	0.0839844	
26	-0.0121861	-0.147356	-0.726613	-0.670948	1.67908	9.5323	-0.949677	-0.0196444	-0.010018	0.00243373	-0.506592	-0.799561	0.196533	0.852365	0.337076	-0.398806	-0.0283967	6.6507	6.09378	4.64944	-0.0253896	0.00157468	-0.0386646	-0.557861	-0.40332	-0.593506	0.880592	0.434139	0.162437	-0.0984616	-3.88519	7.66313	5.79144	0.041969	0.0218434	0.0119906	0.648682	-0.638428	-0.466309	0.320797	0.748922	0.148905	-0.560386	-9.13764	2.87954	-1.81588	0.0423247	-0.00462691	-0.00977786	1.01587	-0.0334473	-0.146484	0.722237	0.650576	0.0961339	-0.214203	-4.13487	9.15927	1.25546	-0.00438541	-0.0143106	-0.0117603	0.724365	-0.681396	-0.159668	-0.945051	-0.272946	-0.125357	-0.129094	-2.84663	6.46353	10.3458	0.0501737	0.00238037	-0.0299332	0.612305	-0.56543	-0.550049	0.734433	0.194293	-0.650272	-0.00224977	9.50452	2.80228	0.723388	0.000619495	0.0192994	0.000191186	-0.96582	0.0437012	-0.166016	0.494928	-0.503525	-0.54119	-0.456751	9.69738	-0.129701	-0.562677	0.077974	0.0312575	-0.0373136	-0.993896	0.376221	0.0744629	0.580902	-0.409014	-0.571199	-0.411086	9.94259	0.0560632	0.258002	0.0798946	0.0118788	-0.0148043	-0.994629	0.314209	-0.0683594	0.576634	0.28302	-0.69507	0.322909	9.56945	-1.25606	-1.32521	-0.000990065	0.00906285	-0.00637334	-0.925537	0.536865	0.139648	0.533578	-0.539315	-0.518986	-0.393812	9.69217	-1.56686	-1.16556	0.00610724	-0.0171219	-0.0233986	-0.929688	0.561035	0.0817871	
27	-0.0121702	-0.147707	-0.726222	-0.671294	1.87069	9.51047	-0.920598	-0.0190974	0.007214	0.0209013	-0.510986	-0.799561	0.196533	0.852884	0.336438	-0.398223	-0.028579	6.58554	5.89945	4.55649	-0.0369706	0.0492127	-0.0124125	-0.553467	-0.401123	-0.59375	0.880217	0.434993	0.16186	-0.0989928	-3.85874	7.53212	5.87422	0.0854701	-0.0451832	-0.0118099	0.648682	-0.629883	-0.464111	0.320285	0.748973	0.148583	-0.560696	-9.10072	3.19165	-1.72996	0.0508943	-0.0119894	-0.00937123	1.02051	-0.0356445	-0.146484	0.722237	0.650576	0.0961339	-0.214203	-4.13487	9.15927	1.25546	-0.00438541	-0.0143106	-0.0117603	0.724365	-0.681396	-0.159668	-0.944836	-0.273822	-0.125361	-0.128807	-2.53863	6.74526	10.5011	0.0361086	0.00166806	-0.0475322	0.614502	-0.563232	-0.550049	0.734681	0.193971	-0.650089	-0.00211409	9.43697	2.76683	0.741875	0.0142695	0.0357596	0.00228927	-0.963379	0.0393066	-0.167969	0.494985	-0.503282	-0.541487	-0.456606	9.69953	-0.00722675	-0.821052	0.00108822	0.0198004	-0.01872	-0.993896	0.374023	0.0744629	0.58126	-0.408586	-0.571465	-0.410636	9.89004	0.0301241	0.196335	0.0168371	0.00638123	-0.0243776	-0.992676	0.318848	-0.0708008	0.576704	0.283054	-0.695054	0.322789	9.4923	-1.29637	-1.17126	-0.00637857	0.0139392	-0.00723073	-0.92749	0.532471	0.139648	0.533304	-0.539319	-0.519183	-0.393917	9.65506	-1.74336	-1.26942	-0.0069148	-0.00898918	-0.0251421	-0.93457	0.56543	0.0793457	
28	-0.0111515	-0.148479	-0.725714	-0.671691	1.81366	9.23104	-0.901796	-0.0134542	-0.00244033	0.0559862	-0.517822	-0.797363	0.19873	0.852902	0.335913	-0.39861	-0.0288214	6.58989	5.87341	4.50279	-0.00863666	-0.0104148	-0.0129408	-0.553711	-0.398926	-0.598389	0.879924	0.435782	0.161308	-0.0990385	-3.91012	7.91756	6.00441	0.00631627	0.00561816	0.00657894	0.642334	-0.63623	-0.473145	0.320201	0.74867	0.148124	-0.56127	-9.18142	3.1029	-1.75414	0.0232114	-0.0231156	0.0117781	1.02271	-0.0354004	-0.146484	0.72155	0.650817	0.0966998	-0.215526	-4.02506	8.86032	1.20739	-0.030513	-0.00756802	-0.0517175	0.731201	-0.685791	-0.159668	-0.944778	-0.274004	-0.125612	-0.1286	-2.74851	6.52197	10.381	0.0402293	0.00346118	-0.0280147	0.616455	-0.561035	-0.550049	0.734748	0.193864	-0.650047	-0.00133911	9.38161	2.7656	0.79669	0.0238836	0.00740471	0.00413802	-0.96582	0.0437012	-0.170166	0.494224	-0.504008	-0.540999	-0.457208	9.64379	-0.237609	-0.939933	-0.0467121	0.00212751	-0.0161997	-0.991699	0.374023	0.0766602	0.580752	-0.409036	-0.571219	-0.411249	9.82176	-0.161659	0.167636	-0.0233846	0.00358053	-0.0371265	-0.999512	0.318848	-0.0686035	0.576474	0.283097	-0.695371	0.32248	9.54122	-0.999063	-1.27282	-0.0116452	0.00580009	0.00278995	-0.929688	0.532471	0.135254	0.532412	-0.539814	-0.519308	-0.394281	9.60431	-1.42344	-1.1512	-0.0868587	-0.0155759	-0.0132815	-0.93457	0.569824	0.0839844	
29	-0.0106414	-0.14889	-0.725553	-0.671782	1.76545	9.2736	-0.915457	-0.00801434	-0.00646367	0.0124927	-0.513428	-0.797363	0.194336	0.852806	0.335866	-0.398851	-0.0288707	6.61398	5.97977	4.59016	-0.00454838	-0.00658976	-0.0125826	-0.557861	-0.398926	-0.596191	0.880798	0.433592	0.161997	-0.0997431	-3.83193	7.38715	5.88225	-0.099192	-0.00210968	-0.0261521	0.644287	-0.629639	-0.466553	0.320323	0.748259	0.147638	-0.561875	-9.15033	3.11054	-1.63264	-0.0141544	-0.0264366	0.00911687	1.01343	-0.03125	-0.139893	0.721344	0.650987	0.0963145	-0.215877	-4.21924	9.07901	1.21619	0.01415	-0.021432	-0.00516175	0.726807	-0.687988	-0.155029	-0.945048	-0.273015	-0.126025	-0.128311	-2.88506	6.25098	10.4851	-0.0247443	0.0103275	-0.0433431	0.614258	-0.558838	-0.550049	0.734892	0.193724	-0.649927	-0.000862292	9.45739	2.75004	0.818409	0.0265884	0.02401	-0.00469936	-0.96167	0.0458984	-0.166016	0.493756	-0.504398	-0.54074	-0.457589	9.57013	-0.0307077	-0.805295	-0.0371825	0.00909246	-0.0233405	-0.991211	0.365479	0.0744629	0.579786	-0.409825	-0.570985	-0.41215	9.91834	0.0244762	-0.0272203	-0.0964983	-0.00151953	-0.0292599	-1.00171	0.314209	-0.0686035	0.576646	0.282891	-0.695683	0.321678	9.73168	-1.28832	-1.33415	-0.0378683	0.00783754	-0.00520819	-0.927734	0.539062	0.148682	0.531651	-0.540377	-0.519333	-0.394502	9.666	-1.60061	-1.13324	0.0113055	-0.0122738	-0.0106356	-0.936523	0.563232	0.088623	
30	-0.0105399	-0.148521	-0.72572	-0.671685	1.81326	9.37541	-0.882637	0.0113958	0.0155206	-0.0102858	-0.51123	-0.797363	0.196533	0.853057	0.334939	-0.399079	-0.0290758	6.59914	5.85407	4.5361	-0.041989	-0.0094356	-0.00309028	-0.557861	-0.401123	-0.59375	0.880725	0.43367	0.162329	-0.099518	-3.84515	7.41713	5.82236	0.0184202	0.0351528	-0.00937748	0.64209	-0.625244	-0.471191	0.321156	0.747816	0.147489	-0.56203	-9.03422	3.21015	-1.54604	-0.0474834	-0.0141672	0.0158625	1.01587	-0.0356445	-0.146484	0.720951	0.651227	0.0965024	-0.216381	-3.91439	8.51486	1.24908	0.064807	0.0205099	-0.0328602	0.733154	-0.685791	-0.155029	-0.94489	-0.273303	-0.126691	-0.128212	-2.68541	6.73232	10.5961	0.00858576	0.0314757	-0.0395383	0.618896	-0.56543	-0.545654	0.73508	0.193403	-0.649809	-0.000717626	9.45808	2.78175	0.793802	-0.00251399	0.0317693	-0.00042163	-0.963867	0.0458984	-0.172363	0.493328	-0.504938	-0.54065	-0.457562	9.68933	-0.219792	-0.983913	-0.00100281	0.0170241	-0.0119032	-0.99585	0.369629	0.0769043	0.579887	-0.409432	-0.571292	-0.411972	9.82741	0.0529843	0.199303	0.0731864	-0.00053126	-0.0331958	-0.99707	0.31665	-0.072998	0.576691	0.282886	-0.695812	0.321324	9.54714	-1.20655	-1.09901	-0.0127329	-0.00313005	-0.00498897	-0.92749	0.530273	0.148926	0.531151	-0.540688	-0.519469	-0.394572	9.68254	-1.53592	-1.29643	-0.0362985	-0.0086844	-0.00949117	-0.929932	0.563232	0.0908203	
31	-0.010878	-0.148717	-0.725704	-0.671654	1.8679	9.4568	-0.930456	-0.0045849	-0.0304004	-0.00371317	-0.51123	-0.797363	0.194336	0.853025	0.33495	-0.399116	-0.0293554	6.60004	5.91417	4.61223	0.00914267	0.0040531	-0.0279808	-0.555664	-0.401123	-0.591309	0.881066	0.432938	0.162486	-0.0994218	-3.82842	7.57567	5.82185	-0.0347112	-0.00530416	-0.011788	0.644287	-0.629639	-0.466553	0.321169	0.747576	0.147894	-0.562234	-8.98015	2.99277	-1.58432	0.0151705	0.00719956	-0.0123488	1.01807	-0.03125	-0.148682	0.721022	0.651028	0.0963809	-0.216796	-4.03446	8.92374	1.32208	-0.0317516	0.00387269	-0.0373413	0.730957	-0.683594	-0.152832	-0.944895	-0.272918	-0.126994	-0.128697	-2.77543	6.04462	10.3372	0.0606468	0.0153517	0.000392857	0.616699	-0.56543	-0.550049	0.735564	0.193659	-0.649184	-0.000955459	9.43043	2.60886	0.707722	-0.00493123	0.033911	-0.0409282	-0.963867	0.0458984	-0.174561	0.49305	-0.504886	-0.54106	-0.457435	9.64716	-0.146596	-0.813896	-0.00619179	-0.0253938	-0.027928	-0.99585	0.369629	0.0769043	0.579265	-0.409962	-0.571245	-0.412387	9.87715	-0.290606	0.0301225	-0.0253235	-0.00639272	-0.029455	-1.00195	0.318848	-0.064209	0.576491	0.283083	-0.695976	0.321155	9.6025	-1.26362	-1.2159	0.010321	0.00914926	-0.00611469	-0.927246	0.525879	0.148926	0.530672	-0.54097	-0.5194	-0.394921	9.63105	-1.7035	-1.08306	0.0185143	0.000526886	-0.0129388	-0.936768	0.567627	0.0908203	
32	-0.0106844	-0.148677	-0.725375	-0.672021	1.72283	9.35886	-0.945262	-0.0218153	0.0104645	0.0097445	-0.509033	-0.797363	0.194336	0.852844	0.335054	-0.399422	-0.0293005	6.73406	5.82205	4.51267	-0.0188581	0.00240009	-0.00919771	-0.555664	-0.40332	-0.598389	0.881188	0.432833	0.162565	-0.0986683	-4.0027	7.31625	5.7956	-0.00508767	0.000874397	0.0438609	0.646484	-0.627686	-0.46875	0.322302	0.74735	0.148635	-0.561691	-9.0238	2.87552	-1.69466	-0.0543868	0.0215794	0.00501253	1.02246	-0.0288086	-0.151123	0.720758	0.651585	0.096393	-0.215993	-4.32152	9.16514	1.10509	-0.00589092	0.014046	0.0272156	0.733154	-0.681396	-0.155029	-0.94501	-0.272237	-0.127346	-0.128942	-2.81302	6.50051	10.2521	-0.0729394	0.00859522	-0.00940996	0.62085	-0.563232	-0.543701	0.73574	0.193797	-0.648944	-0.000794371	9.51487	2.82135	0.942557	0.0356457	0.0279921	-0.0175785	-0.968018	0.0458984	-0.172363	0.492849	-0.505082	-0.541034	-0.457465	9.75814	-0.103598	-0.7534	-0.00824552	0.034647	-0.0159277	-0.99585	0.367676	0.0698242	0.579073	-0.409814	-0.571693	-0.412183	9.90772	0.12119	0.317754	-0.00524327	-0.00663424	-0.0290533	-0.994629	0.314209	-0.0661621	0.576326	0.283538	-0.696077	0.320829	9.65651	-1.18318	-1.23124	-0.0193974	-0.0147268	-0.00900928	-0.931885	0.532471	0.139648	0.530729	-0.540599	-0.519774	-0.394859	9.6942	-1.58832	-1.20375	0.0180349	0.0010509	-0.0156857	-0.927734	0.563477	0.0864258	
33	-0.010967	-0.148922	-0.725343	-0.671996	1.91024	9.19874	-0.984907	-0.00161254	-0.0169525	-0.000583712	-0.51123	-0.797363	0.194336	0.852604	0.335481	-0.399598	-0.028998	6.59704	5.94567	4.47663	0.0437758	0.0124793	-0.0167188	-0.557861	-0.401123	-0.595947	0.880876	0.433686	0.161812	-0.0989517	-3.82435	7.62249	5.96076	0.037294	-0.00878223	-0.0112652	0.646484	-0.631836	-0.470947	0.321876	0.747982	0.147912	-0.561285	-9.13665	2.94855	-1.68018	0.035403	0.0225735	0.0221372	1.01611	-0.0378418	-0.148682	0.721344	0.650951	0.0965674	-0.215871	-4.02286	8.65117	1.29162	-0.0361486	0.00450634	-0.0056572	0.726562	-0.683594	-0.157227	-0.944972	-0.272181	-0.127124	-0.129553	-2.78535	6.69052	10.4462	0.0308692	-0.00150354	-0.0217121	0.616699	-0.563232	-0.545654	0.735708	0.194525	-0.648763	-0.000295263	9.5015	2.76532	0.806049	0.0382108	0.00532891	-0.0227203	-0.970215	0.0458984	-0.172363	0.492368	-0.505383	-0.541224	-0.457426	9.70195	-0.13196	-0.940221	-0.0248944	-0.0149016	-0.0191411	-0.991455	0.367676	0.0791016	0.578345	-0.410484	-0.571725	-0.412493	9.92597	-0.156757	0.106655	-0.00924737	-0.0188953	-0.0277207	-0.999268	0.312012	-0.0661621	0.576175	0.283824	-0.696092	0.320817	9.65102	-1.25626	-1.12357	0.0326239	0.0162109	-0.00610884	-0.92749	0.532471	0.146484	0.530635	-0.540474	-0.520092	-0.394737	9.69075	-1.57465	-1.14316	0.0309468	-0.00693256	-0.0143226	-0.932129	0.563232	0.0908203	
34	-0.0113728	-0.147747	-0.725967	-0.671575	1.95665	9.32931	-0.91175	0.0332413	0.0164876	-0.0618646	-0.508789	-0.801758	0.194336	0.852321	0.335773	-0.399956	-0.0289901	6.68397	5.90737	4.59372	-0.0178249	-0.010297	-0.0161144	-0.555908	-0.398926	-0.596191	0.88175	0.432231	0.161346	-0.0982925	-3.99107	7.46467	5.85629	-0.0942144	-0.0304395	0.0327792	0.648682	-0.627686	-0.46875	0.323109	0.747938	0.147036	-0.560865	-9.09364	3.09331	-1.53469	-0.0245958	-0.00354913	0.0641551	1.01831	-0.0378418	-0.148682	0.721448	0.65114	0.0961342	-0.215146	-4.19805	9.19033	1.08689	0.0062418	0.0234826	0.0523215	0.731201	-0.685791	-0.152832	-0.945136	-0.271707	-0.126976	-0.1295	-2.71551	6.53567	10.4054	-0.0240467	-0.0105385	-0.0310218	0.614502	-0.561035	-0.543701	0.735951	0.194488	-0.648498	-0.000479896	9.51614	2.77659	0.967802	-0.00180733	0.0368304	-0.0300066	-0.959473	0.0437012	-0.172363	0.491983	-0.50547	-0.541026	-0.457977	9.6995	-0.123767	-0.878406	-0.0226054	0.014011	-0.020178	-0.99585	0.369629	0.0769043	0.577606	-0.411283	-0.571484	-0.413067	9.96185	-0.112467	0.0583878	-0.0599657	0.00184667	-0.0232567	-0.98999	0.314209	-0.0617676	0.575968	0.284126	-0.696278	0.320516	9.54626	-1.15408	-1.38302	-0.0200263	-0.0174135	-0.00860392	-0.92749	0.530273	0.151123	0.53058	-0.540236	-0.520439	-0.394682	9.70945	-1.64984	-1.30246	0.0170931	0.00359939	-0.0162553	-0.932129	0.563232	0.0839844	
35	-0.0116246	-0.147255	-0.726298	-0.671321	1.74458	9.47868	-0.896415	0.029461	0.00529086	-0.046772	-0.508789	-0.799561	0.196533	0.852326	0.335727	-0.399976	-0.0291078	6.67462	5.88192	4.63207	-0.010255	0.00959976	-0.0232013	-0.555908	-0.396729	-0.603271	0.882062	0.43184	0.160988	-0.0977927	-3.85571	7.38183	5.81916	-0.0410813	-0.0128442	0.0434483	0.64209	-0.631836	-0.473145	0.324028	0.747855	0.146979	-0.560461	-9.0508	3.19304	-1.6126	-0.0583239	0.0142234	0.0557639	1.01831	-0.0375977	-0.157471	0.722075	0.650321	0.0954438	-0.215827	-3.95332	8.4001	1.48306	0.0208207	-0.0330102	-0.0233471	0.726562	-0.679199	-0.159668	-0.945194	-0.27163	-0.126022	-0.130173	-2.80166	6.82984	10.6248	0.00424284	-0.0239899	0.00446383	0.616455	-0.561035	-0.550049	0.736229	0.194583	-0.648154	-0.000531156	9.41723	2.78215	0.867357	0.0172633	0.025308	-0.0287386	-0.957275	0.0458984	-0.17041	0.491732	-0.505691	-0.541154	-0.457852	9.62082	-0.261333	-0.93783	-0.00426915	-0.0114006	-0.0163441	-0.993896	0.374023	0.0766602	0.577538	-0.411361	-0.571468	-0.413106	9.85646	-0.343997	-0.00590304	-0.00219506	0.00379147	-0.0214217	-0.994629	0.314209	-0.0639648	0.575816	0.284308	-0.696431	0.320295	9.73455	-1.17854	-1.36829	-0.00289354	-0.011985	-0.0104441	-0.920898	0.532715	0.146484	0.530608	-0.540125	-0.520612	-0.394567	9.67392	-1.49805	-1.14306	0.0185688	-0.00142849	-0.0103879	-0.932129	0.56543	0.0839844	
36	-0.0123075	-0.146559	-0.726552	-0.671186	1.84442	9.5439	-0.887627	0.00168014	0.00637927	-0.035637	-0.506348	-0.803955	0.196533	0.852207	0.336187	-0.399826	-0.0293496	6.64371	5.87902	4.45046	0.0224457	0.0291146	-0.0389684	-0.557861	-0.401123	-0.598389	0.881983	0.432319	0.160347	-0.0974407	-3.93865	7.61184	5.94631	0.0204701	-0.0185347	0.0309982	0.640137	-0.631836	-0.466309	0.325166	0.74763	0.146095	-0.560333	-9.14212	3.02628	-1.61543	0.00291893	-0.0169269	0.0580817	1.01636	-0.0441895	-0.152832	0.722271	0.65031	0.0944171	-0.215655	-4.20472	9.24537	1.27592	-0.0731781	-0.0381401	0.00900454	0.730957	-0.68335	-0.161865	-0.945287	-0.271526	-0.125619	-0.130101	-2.81179	6.17149	10.3701	0.042635	-0.0258705	-0.00673608	0.614502	-0.56543	-0.547852	0.736267	0.194681	-0.648081	-0.000978756	9.4382	2.76417	1.05232	-0.00575882	0.0105114	-0.0497369	-0.963623	0.0393066	-0.170166	0.491283	-0.506046	-0.541261	-0.457815	9.76214	-0.108001	-0.86075	-0.0153118	0.0166191	-0.0171474	-0.99585	0.369629	0.081543	0.577582	-0.411262	-0.571742	-0.412765	9.89909	-0.0483758	0.154048	0.00464068	-0.00178606	-0.0163902	-1.00171	0.314209	-0.0639648	0.575742	0.284455	-0.696403	0.320358	9.50919	-1.17089	-1.15639	-0.000780161	0.00102426	0.000623501	-0.931885	0.532471	0.146484	0.530127	-0.540412	-0.520853	-0.394502	9.69292	-1.68886	-1.26806	0.00840078	-0.0151446	-0.011498	-0.934326	0.563232	0.088623	
37	-0.0140228	-0.146805	-0.726474	-0.671183	1.71016	9.18897	-0.970564	-0.00600143	-0.0923391	-0.0632326	-0.508789	-0.799561	0.19873	0.851823	0.336339	-0.400458	-0.030125	6.80879	6.04068	4.59683	-0.00631821	-0.0123998	-0.036554	-0.559814	-0.405518	-0.595947	0.882711	0.431429	0.159153	-0.0967553	-3.74209	7.3109	5.80384	-0.0439558	-0.0570723	0.0367252	0.642334	-0.63623	-0.475342	0.325496	0.747745	0.14562	-0.560111	-8.81139	3.02705	-1.47621	0.00274065	0.00884696	0.0515974	1.01611	-0.0400391	-0.150879	0.72268	0.649791	0.0942693	-0.215914	-3.97263	8.8107	1.30255	-0.0479501	-0.0256349	-0.0185784	0.72876	-0.683594	-0.159668	-0.945344	-0.2716	-0.124181	-0.130907	-2.67818	6.51672	10.5483	-0.0123761	-0.0317107	0.00340759	0.616699	-0.567627	-0.547852	0.736763	0.194791	-0.647482	-0.00209662	9.54147	2.7413	0.927032	0.0242986	0.00724254	-0.0574784	-0.957275	0.0458984	-0.180908	0.491022	-0.50634	-0.541654	-0.457305	9.747	-0.122262	-0.941346	0.0159648	-0.0270753	-0.0109722	-0.989258	0.369629	0.0837402	0.577612	-0.411319	-0.571727	-0.412685	9.88799	-0.246132	0.0445202	0.00558534	0.00604986	-0.0206792	-0.995117	0.321045	-0.0686035	0.576019	0.283995	-0.696634	0.319765	9.63825	-1.04872	-1.38019	-0.0297364	0.034226	8.34389e-05	-0.923096	0.534668	0.148926	0.52945	-0.540881	-0.5209	-0.394706	9.67304	-1.62757	-1.20367	-0.0387865	-0.0119777	-0.0106213	-0.929688	0.561035	0.095459	
38	-0.0156974	-0.14547	-0.726928	-0.670945	1.77739	9.43606	-0.964293	-0.00328466	-0.0024906	-0.0814802	-0.50415	-0.805908	0.19873	0.851627	0.337148	-0.400252	-0.0293418	6.53688	5.83813	4.43724	0.0407396	0.0235104	-0.000158256	-0.55542	-0.405518	-0.593506	0.882128	0.43342	0.157271	-0.0962475	-3.90048	8.01501	5.98986	0.0848255	-0.0482788	0.0163986	0.635986	-0.640381	-0.477539	0.325292	0.74918	0.144742	-0.558538	-9.31173	3.25688	-1.87431	0.101734	0.0581116	0.00799573	1.0166	-0.0488281	-0.14624	0.723067	0.64984	0.0936208	-0.214748	-4.00057	8.90633	1.24958	-0.0631191	0.0129199	0.0157283	0.72876	-0.683594	-0.157227	-0.945021	-0.272715	-0.123401	-0.131661	-2.61357	6.57483	10.4356	0.0586927	-0.0213634	0.0356688	0.612305	-0.56543	-0.552002	0.736865	0.194601	-0.647422	-0.00245583	9.31491	2.68677	0.742907	-0.0315921	0.0202632	-0.01313	-0.963379	0.0373535	-0.172119	0.490083	-0.507364	-0.540746	-0.458252	9.6413	-0.104922	-0.903058	-0.0896834	0.0373847	-0.0130522	-0.998047	0.374023	0.081543	0.577171	-0.41171	-0.57185	-0.412742	9.83968	0.0360395	0.108502	-0.0649354	-0.0180123	-0.019088	-1.00439	0.321045	-0.0620117	0.576353	0.283226	-0.697062	0.31891	9.55461	-1.32379	-1.29005	-0.0446395	0.0129761	0.00698981	-0.922852	0.530273	0.148926	0.528565	-0.541485	-0.520883	-0.395087	9.64524	-1.64052	-1.32025	-0.0493372	-0.0111722	-0.0142577	-0.936523	0.561035	0.0932617	
39	-0.0162397	-0.144057	-0.727796	-0.670296	1.4753	9.49444	-0.889667	0.0557735	0.0127699	-0.0410755	-0.497314	-0.808105	0.198975	0.851213	0.337553	-0.400766	-0.029677	6.6875	5.91326	4.49213	0.00583142	-0.017749	-0.0365121	-0.562256	-0.398926	-0.596191	0.8819	0.434148	0.156304	-0.0966228	-3.85408	7.4148	5.98527	0.0395778	-0.021853	0.0230635	0.637939	-0.638184	-0.475342	0.32342	0.750156	0.144159	-0.558465	-9.26053	3.20973	-1.81696	0.0430779	0.0307177	-0.0141608	1.01831	-0.0400391	-0.144287	0.723735	0.649531	0.0921629	-0.214062	-3.9792	8.97701	1.31389	-0.0350985	-0.0557789	0.0697103	0.724854	-0.692383	-0.157227	-0.945716	-0.270245	-0.123029	-0.132109	-2.53059	6.74306	10.441	-0.097197	-0.000362451	-0.00642433	0.605957	-0.56543	-0.550049	0.736386	0.19447	-0.648003	-0.00298934	9.48877	2.79996	0.867152	-0.00156821	0.00129134	-0.0294633	-0.961426	0.0395508	-0.172363	0.489826	-0.507632	-0.540784	-0.458184	9.51534	-0.444567	-1.18302	0.0246055	-0.015874	-0.0175697	-0.989502	0.374023	0.0791016	0.576969	-0.411759	-0.572199	-0.412493	9.84818	-0.143867	-0.155808	0.0468371	-0.00567378	-0.0267186	-1.00391	0.314209	-0.0639648	0.576407	0.282899	-0.697451	0.318256	9.5225	-1.29426	-1.20716	-0.0188255	-0.00677559	-0.00645452	-0.929688	0.530273	0.153564	0.528003	-0.541827	-0.520847	-0.395418	9.66408	-1.55419	-1.25279	-0.0298935	0.000230613	-0.0122457	-0.929688	0.561035	0.0976562	
40	-0.0167678	-0.14484	-0.728466	-0.669386	1.57499	9.6481	-0.982991	0.0294848	-0.0597287	0.00280706	-0.497803	-0.801514	0.205322	0.851048	0.337385	-0.401194	-0.0305421	6.77437	6.01043	4.56261	-0.022591	-0.0224998	-0.0427748	-0.562012	-0.407715	-0.591064	0.881396	0.435039	0.156411	-0.0970394	-3.77266	7.57831	5.7257	0.0259715	0.000941088	-0.00574147	0.637939	-0.635986	-0.470947	0.322627	0.750409	0.142968	-0.55889	-8.85642	2.97266	-1.66442	0.0651974	-0.0132411	0.0228149	1.0188	-0.0463867	-0.148438	0.723788	0.649486	0.0912701	-0.214401	-3.87258	8.82275	1.44786	0.0610207	-0.00241149	-0.0134923	0.729004	-0.685547	-0.164062	-0.945734	-0.270591	-0.122757	-0.131526	-2.71374	6.69229	10.7927	0.0543094	-0.0212508	-0.0513718	0.605957	-0.56543	-0.556396	0.736517	0.194503	-0.647843	-0.00323676	9.46669	2.73052	1.01323	-0.000308366	0.0235737	-0.0355192	-0.957275	0.0458984	-0.178711	0.489801	-0.507319	-0.54173	-0.45744	9.72257	0.0663443	-0.857228	0.0298651	-0.00712913	-0.0310944	-0.987061	0.369629	0.0791016	0.576967	-0.41143	-0.572601	-0.412264	9.88814	-0.0726579	0.131004	0.0137846	0.00291577	-0.0311098	-0.999268	0.314209	-0.0617676	0.575952	0.283895	-0.697278	0.31857	9.80982	-1.15396	-1.29404	0.0546172	0.00553155	-0.0166915	-0.927246	0.525879	0.148926	0.52827	-0.541271	-0.521495	-0.394968	9.73077	-1.48352	-1.10785	0.0633892	-0.00403687	-0.0168678	-0.934082	0.558838	0.0932617	
41	-0.0181555	-0.144547	-0.728397	-0.669488	1.80636	9.55917	-1.04971	-0.0131308	-0.0340899	-0.0457113	-0.499756	-0.803711	0.200928	0.85072	0.338342	-0.401108	-0.0302063	6.62615	6.02271	4.49301	0.0560391	0.010802	-0.0126185	-0.559814	-0.405518	-0.598145	0.881628	0.435172	0.15463	-0.0971988	-3.60693	7.712	6.06541	0.00439829	-0.063299	0.023638	0.640137	-0.635986	-0.477783	0.322612	0.750984	0.141792	-0.558426	-9.12631	3.38984	-1.55901	-0.0029204	0.0215571	0.0554462	1.021	-0.0463867	-0.14624	0.724365	0.648947	0.0910628	-0.214174	-3.96925	9.12195	1.18012	-0.071622	-0.00197019	-0.0162663	0.720215	-0.687988	-0.150391	-0.945708	-0.27092	-0.122058	-0.13168	-2.5205	6.45665	10.4127	0.0419374	-0.0239297	0.00903771	0.608154	-0.56543	-0.552002	0.736279	0.194986	-0.647965	-0.00405486	9.49885	2.90018	0.648954	0.0218445	0.0247688	-0.0179484	-0.963623	0.0395508	-0.176514	0.48947	-0.507424	-0.541807	-0.457586	9.8099	-0.171188	-0.857512	-0.0189859	0.0217671	-0.0191445	-0.997803	0.367432	0.081543	0.576983	-0.411108	-0.572938	-0.412096	9.96442	-0.0164486	0.214586	0.0153591	0.000316315	-0.0296387	-1.00391	0.314209	-0.0639648	0.576047	0.284494	-0.696926	0.318634	9.55268	-1.14248	-1.27534	0.00114415	0.00679462	-0.011187	-0.929688	0.528076	0.146729	0.528292	-0.540918	-0.522158	-0.394547	9.65096	-1.64314	-1.31557	0.0097452	-0.011582	-0.0166031	-0.936279	0.554443	0.0910645	
42	-0.0184205	-0.144184	-0.728325	-0.669637	1.56685	9.46621	-1.04124	-0.015916	0.0015674	-0.0355147	-0.501709	-0.810303	0.205322	0.8504	0.338438	-0.401716	-0.0300441	6.63408	5.98603	4.39845	0.0202519	-0.0318076	0.00744674	-0.55542	-0.407471	-0.591064	0.881946	0.435244	0.153149	-0.0963274	-3.72893	7.70411	6.08405	0.000654827	-0.019991	0.0459207	0.627197	-0.642334	-0.479736	0.324645	0.750773	0.141418	-0.557626	-9.26264	3.39391	-1.99383	-0.0513902	-0.00152632	0.0689481	1.0166	-0.0488281	-0.144043	0.724537	0.648832	0.0910211	-0.213957	-3.84171	8.50673	1.29647	-0.0181015	0.0118063	0.00198814	0.718262	-0.692383	-0.166504	-0.945811	-0.27054	-0.121861	-0.131906	-2.65431	6.9043	10.3924	-0.0200539	-0.0078616	-0.00718644	0.60791	-0.563232	-0.550049	0.736024	0.195115	-0.648215	-0.00391698	9.31959	2.90643	0.880579	0.0336766	-0.0143167	-0.0115295	-0.961182	0.0373535	-0.170166	0.48936	-0.507313	-0.541842	-0.457785	9.52352	-0.357485	-0.89831	-0.00335779	0.0233998	-0.0343521	-0.991455	0.367432	0.0839844	0.576739	-0.411236	-0.573027	-0.412186	9.75332	-0.0889839	0.085606	-0.00975102	-0.00941184	-0.0304933	-0.99707	0.314209	-0.0617676	0.576037	0.284359	-0.697109	0.318373	9.6664	-1.28648	-1.48263	-0.0258696	0.00137395	0.00269242	-0.929443	0.525879	0.153564	0.528017	-0.541015	-0.522283	-0.394616	9.65666	-1.57157	-1.27703	-0.0121773	-0.0105078	-0.0163718	-0.932129	0.563232	0.095459	
43	-0.0179495	-0.143881	-0.728911	-0.669078	1.68938	9.44301	-1.013	0.0517307	0.0309068	0.0157029	-0.495117	-0.808105	0.201172	0.850176	0.337911	-0.402677	-0.0294669	6.63094	5.95978	4.49068	-0.00721028	-0.0162428	0.0286781	-0.559814	-0.407715	-0.595703	0.881855	0.435385	0.153318	-0.0962512	-3.67776	7.8636	6.01098	0.0118472	0.0203773	-0.00173608	0.633789	-0.642334	-0.486572	0.325064	0.750637	0.140805	-0.557719	-9.26903	3.33054	-1.94984	0.000995155	-0.0264382	0.053591	1.021	-0.048584	-0.148438	0.726187	0.64724	0.0902148	-0.213526	-3.92879	9.07283	1.32723	-0.118705	-0.0282299	0.00305415	0.722656	-0.692383	-0.161865	-0.946254	-0.268962	-0.121498	-0.132294	-2.45061	6.5639	10.6205	-0.0186636	0.00125451	-0.00743766	0.610107	-0.56543	-0.558594	0.735716	0.195332	-0.6485	-0.00378595	9.48674	2.79685	0.855909	0.0164051	0.00768577	-0.00658857	-0.965576	0.0373535	-0.170166	0.488899	-0.507502	-0.54232	-0.457502	9.72585	-0.0523758	-1.16995	0.0028833	-0.0106177	-0.020457	-0.991455	0.369629	0.0837402	0.576449	-0.411365	-0.573126	-0.412326	9.89399	-0.147894	-0.0593152	-0.0130506	-0.010262	-0.0347641	-1.00146	0.30957	-0.0595703	0.576391	0.284249	-0.697017	0.31803	9.48547	-1.1522	-1.16357	-0.0118282	0.0077714	-0.0174609	-0.929688	0.530273	0.146729	0.527542	-0.541026	-0.522531	-0.394906	9.74845	-1.64354	-1.39914	0.00881973	0.00100167	-0.0242379	-0.940918	0.556641	0.0910645	
44	-0.0174571	-0.144027	-0.729643	-0.668261	1.54623	9.49657	-1.02226	0.0457572	-0.00674548	0.00217511	-0.501953	-0.805908	0.205322	0.849845	0.337569	-0.403668	-0.0293908	6.81398	6.09529	4.53703	-0.0100812	-0.00693844	0.000106369	-0.566406	-0.407471	-0.588623	0.88305	0.433129	0.153036	-0.0959212	-3.8478	7.77172	5.8722	-0.105138	-0.0252695	0.00689816	0.635986	-0.640381	-0.47998	0.325822	0.749964	0.139901	-0.55841	-9.19997	3.14951	-1.86541	-0.0166437	-0.0418238	0.0337977	1.0166	-0.0488281	-0.148438	0.726546	0.646824	0.0896115	-0.213821	-3.84578	9.30205	1.51262	-0.0240566	-0.0168875	-0.00402251	0.720215	-0.685791	-0.166504	-0.946852	-0.266983	-0.121441	-0.132072	-2.5132	6.34796	10.9321	-0.0661613	-0.000218361	-0.0555741	0.608154	-0.569824	-0.55835	0.736077	0.194531	-0.64833	-0.00407548	9.50717	2.74261	1.08163	0.00854844	0.0161502	-0.0160141	-0.96582	0.0437012	-0.174561	0.488397	-0.507705	-0.542603	-0.457478	9.66627	-0.251484	-0.692432	-0.00559063	-0.0202236	-0.0248091	-0.995605	0.367432	0.0861816	0.576773	-0.410536	-0.572817	-0.413127	9.84938	-0.133591	0.0022648	-1.38052e-06	0.0356928	-0.0294849	-0.996826	0.307373	-0.0639648	0.576122	0.284867	-0.697139	0.317696	9.6905	-1.20495	-1.35709	0.028881	0.0115943	-0.0217644	-0.927246	0.523682	0.14917	0.527464	-0.540652	-0.523001	-0.394901	9.68426	-1.63742	-1.13731	0.0357164	-0.00138539	-0.0259976	-0.934082	0.556641	0.095459	
45	-0.0170331	-0.144149	-0.729838	-0.668032	1.6107	9.6126	-0.946982	0.000143718	0.00972476	0.0311752	-0.499512	-0.810303	0.209717	0.850282	0.33677	-0.403435	-0.0290876	6.62516	5.85711	4.48056	-0.027507	0.036649	-0.00609536	-0.560059	-0.401123	-0.59375	0.883063	0.432841	0.153057	-0.0970675	-3.84953	7.55151	5.80414	0.0139149	-0.0216252	-0.0424462	0.633545	-0.635986	-0.484619	0.325521	0.74964	0.139149	-0.559209	-9.2088	3.46622	-1.65077	0.0429465	-0.0313058	-0.0100946	1.0144	-0.0510254	-0.148438	0.726158	0.646792	0.0903205	-0.214936	-3.94926	8.47422	1.46277	0.0574173	0.00854582	-0.0768356	0.729004	-0.687744	-0.168701	-0.946527	-0.268037	-0.122378	-0.131402	-2.72846	6.90697	10.764	0.0443704	0.0362669	-0.0642432	0.609863	-0.558838	-0.554443	0.736533	0.19357	-0.648098	-0.00426369	9.47352	2.91102	0.630906	-0.0330843	0.0671056	0.0103603	-0.963623	0.0415039	-0.174561	0.488584	-0.507452	-0.543159	-0.456899	9.73175	-0.277301	-1.06172	0.055001	0.0372373	-0.020392	-1	0.369629	0.0861816	0.577636	-0.409315	-0.573624	-0.412012	9.90304	-0.0855512	0.100363	0.0879723	0.00113729	-0.0168119	-0.999268	0.314209	-0.0617676	0.575877	0.285319	-0.697188	0.317627	9.8291	-1.37484	-0.999314	0.0119687	-0.00694581	0.00166041	-0.92749	0.530273	0.148926	0.527268	-0.540267	-0.524005	-0.394359	9.74066	-1.56689	-1.12592	0.0333891	-0.0287211	-0.0238981	-0.929688	0.558838	0.0932617	
46	-0.0165916	-0.145221	-0.729623	-0.668046	1.67844	9.31465	-0.982503	0.00201335	-0.0209402	0.0407562	-0.5	-0.803955	0.20752	0.850288	0.336176	-0.403877	-0.0296526	6.67174	5.94952	4.43966	-0.00769541	0.0039581	-0.0183146	-0.568848	-0.398926	-0.59375	0.882193	0.434286	0.153429	-0.0979319	-3.62982	7.77481	6.01637	0.0637132	0.0380859	-0.0407491	0.635986	-0.640381	-0.477539	0.324607	0.749518	0.138824	-0.559983	-9.06102	3.25459	-1.70988	0.03805	-0.0222102	-0.0203747	1.01904	-0.0529785	-0.155029	0.726251	0.646445	0.090491	-0.215589	-3.88594	8.89479	1.31636	-0.0476548	0.000944838	-0.0465842	0.726807	-0.685547	-0.168701	-0.946739	-0.267218	-0.123286	-0.13069	-2.60233	5.92473	10.1877	0.0252483	0.0216701	-0.0519361	0.610107	-0.561035	-0.556396	0.736796	0.193593	-0.647791	-0.00443145	9.45317	2.69965	1.01986	0.0189925	0.0354278	-0.0333333	-0.963623	0.0415039	-0.176514	0.489598	-0.506042	-0.545175	-0.454972	9.74794	-0.0534957	-1.03487	0.14521	-0.0143706	-0.0332558	-1	0.365234	0.088623	0.578984	-0.407411	-0.575355	-0.409585	9.90418	-0.0707735	0.000805953	0.188862	-0.0107736	-0.0152826	-1.00391	0.312012	-0.0683594	0.575609	0.286096	-0.696657	0.318579	9.56754	-0.97614	-1.19889	0.0609859	0.0208203	-0.00945336	-0.929443	0.528076	0.153564	0.526657	-0.540346	-0.525051	-0.393675	9.66051	-1.54124	-1.24624	0.0203766	-0.0509142	-0.0216094	-0.934082	0.558838	0.0932617	
47	-0.016473	-0.145853	-0.729765	-0.667756	1.74011	9.2232	-1.02881	0.0227376	-0.0179043	0.00983096	-0.502197	-0.803955	0.20752	0.850337	0.335809	-0.404104	-0.0293168	6.73025	5.88475	4.37795	-0.013503	0.024897	0.0127686	-0.559814	-0.405273	-0.586426	0.88244	0.433651	0.153327	-0.0986753	-3.56739	7.38601	6.0743	-0.0280743	-0.0255511	-0.000458568	0.635742	-0.635986	-0.482178	0.323581	0.749609	0.137931	-0.560675	-8.90074	3.29247	-1.36654	-0.00745801	-0.0105533	0.0208428	1.0188	-0.048584	-0.159424	0.726199	0.646578	0.0906934	-0.215282	-4.14484	9.05275	1.25802	-0.0284021	0.0201233	0.00867151	0.722168	-0.681152	-0.166504	-0.946505	-0.267779	-0.1243	-0.130279	-2.77369	6.52113	10.5561	0.038684	0.0340984	-0.0500896	0.616699	-0.563232	-0.550049	0.737085	0.192942	-0.647656	-0.00450358	9.43425	2.82807	0.786673	-0.001188	0.000384129	-0.00138324	-0.959229	0.041748	-0.178711	0.490494	-0.504598	-0.547011	-0.453405	9.76341	0.0581779	-0.931335	0.104737	-0.00677937	-0.0315655	-0.995605	0.365234	0.0839844	0.580162	-0.405616	-0.577149	-0.407168	10.0204	0.216725	0.245128	0.0953846	-0.014294	-0.0165338	-0.996826	0.307373	-0.0727539	0.575464	0.286678	-0.696485	0.318693	9.32616	-1.02999	-1.42428	0.00143245	-0.0118845	-0.00722879	-0.927246	0.525879	0.146729	0.526802	-0.539559	-0.526293	-0.392902	9.7086	-1.50792	-1.61519	0.0535959	-0.00624008	-0.0290237	-0.936279	0.556641	0.095459	
48	-0.016307	-0.146112	-0.730573	-0.66682	1.79418	9.26834	-1.08624	0.0550642	-0.00570631	-0.00675944	-0.502197	-0.801758	0.20752	0.850199	0.33638	-0.404014	-0.02797	6.66902	6.0176	4.41137	0.0517311	0.0303844	0.0134919	-0.564209	-0.405518	-0.591064	0.883402	0.431692	0.153847	-0.0978496	-3.55001	7.3609	6.01071	-0.139651	0.0194779	0.00479159	0.633789	-0.638184	-0.47998	0.326142	0.748778	0.137683	-0.560363	-8.8385	3.44868	-1.4229	-0.0936236	-0.0374939	0.0784618	1.01904	-0.0507812	-0.152832	0.726835	0.645727	0.091423	-0.215384	-3.7541	8.7961	1.41736	-0.0172471	0.0261459	-0.0364	0.720459	-0.690186	-0.164062	-0.946437	-0.267686	-0.124652	-0.130626	-2.55475	6.6005	10.6942	-0.0044335	0.019319	-0.00825942	0.610352	-0.56543	-0.552002	0.736671	0.193849	-0.647863	-0.00332069	9.49649	2.8896	1.04354	0.0762145	0.018689	-0.012074	-0.965576	0.0351562	-0.174316	0.490302	-0.504766	-0.547218	-0.453175	9.67435	-0.0461805	-1.02774	-0.0239856	-0.0078367	-0.0171562	-0.991455	0.367432	0.0839844	0.579811	-0.405941	-0.577434	-0.406942	9.91216	-0.0967305	0.032235	0.00991048	-0.0156355	-0.0214763	-1.00391	0.30957	-0.0683594	0.574801	0.287557	-0.696793	0.318425	9.59545	-1.07287	-1.5477	0.0162373	-0.0333659	-0.0173749	-0.929443	0.525879	0.146729	0.526573	-0.539426	-0.526429	-0.393209	9.5984	-1.46999	-1.32437	-0.0381378	0.00597137	-0.0145861	-0.936035	0.550049	0.0979004	
49	-0.0158755	-0.144629	-0.731404	-0.666242	1.7395	9.30907	-1.08405	0.0379491	0.063301	-0.0440291	-0.502441	-0.799561	0.21167	0.849828	0.33639	-0.40485	-0.0270325	6.66662	5.90674	4.41347	-0.00764841	-0.0194351	0.0306372	-0.566895	-0.394531	-0.584473	0.885001	0.428762	0.154443	-0.095312	-3.79051	7.70955	5.85621	-0.146489	0.0514609	0.0556253	0.635742	-0.629395	-0.484619	0.330257	0.74736	0.138967	-0.559527	-9.03651	3.29953	-1.64696	-0.167643	0.00672896	0.040071	1.01465	-0.0529785	-0.157227	0.726974	0.645593	0.0919434	-0.215091	-3.95136	8.96425	1.39086	-0.0344038	0.0172488	-0.025675	0.726562	-0.681152	-0.166504	-0.946511	-0.266467	-0.125321	-0.131934	-2.5745	6.2721	10.4072	-0.0345077	0.0541803	0.0283656	0.616699	-0.56543	-0.556396	0.736347	0.193926	-0.648209	-0.00328337	9.40191	2.80748	0.765428	-0.0110248	-0.0259012	-0.0112845	-0.965576	0.0395508	-0.176514	0.489541	-0.505486	-0.54695	-0.45352	9.6675	-0.010227	-1.07094	-0.0252554	0.00403075	-0.0165746	-0.997803	0.367432	0.0861816	0.579104	-0.40655	-0.577626	-0.407067	9.90456	0.0418039	0.0551995	-0.0516978	-0.0206804	-0.0206482	-0.996826	0.312012	-0.0683594	0.573946	0.28825	-0.69731	0.318208	9.58994	-1.14622	-1.18073	-0.00105496	-0.0366578	-0.00734573	-0.927246	0.528076	0.153564	0.5262	-0.539569	-0.52646	-0.39347	9.59172	-1.46217	-1.23431	-0.0108634	0.00122274	-0.00873299	-0.936279	0.552246	0.0979004	
50	-0.0156707	-0.143535	-0.7319	-0.665939	1.55859	9.36342	-1.04149	0.044944	0.0632982	-0.0606169	-0.501953	-0.808105	0.20752	0.849569	0.336118	-0.405668	-0.0262765	6.84042	5.81548	4.38994	0.0155239	-0.0277577	0.0229343	-0.56665	-0.401123	-0.591309	0.885511	0.427808	0.154471	-0.0948115	-3.87318	7.49295	5.83361	-0.0905633	0.00834086	0.0251534	0.637695	-0.627441	-0.487061	0.33176	0.746897	0.14022	-0.558945	-9.1753	3.0909	-1.84194	-0.0545407	0.0266834	-0.000938321	1.01904	-0.0507812	-0.155029	0.727449	0.645163	0.0923161	-0.214619	-3.87728	8.54089	1.43872	-0.0608974	0.0426245	-0.000909646	0.722412	-0.685791	-0.164062	-0.94663	-0.265389	-0.125801	-0.132796	-2.76082	6.44177	10.3637	-0.0736603	0.0648409	0.0199967	0.614258	-0.561035	-0.550049	0.736123	0.193997	-0.648443	-0.00297032	9.53057	2.80689	0.898581	0.0383047	-0.00916889	0.0017261	-0.961426	0.0415039	-0.172363	0.489549	-0.505608	-0.547004	-0.453309	9.57124	-0.270335	-1.06958	0.0110367	0.00277772	-0.00482485	-0.995605	0.367432	0.0861816	0.579219	-0.406477	-0.577831	-0.406686	9.88229	-0.00853287	0.0539219	0.0612535	0.000489646	-0.0182721	-0.999023	0.307373	-0.0661621	0.57354	0.288787	-0.697412	0.318229	9.61822	-1.07465	-1.26063	0.0453372	-0.00130468	-0.00331797	-0.929688	0.530273	0.155762	0.526459	-0.53924	-0.527051	-0.392783	9.68714	-1.44839	-1.27097	0.051487	-0.0115505	-0.00665603	-0.943115	0.558838	0.0932617	
51	-0.015199	-0.142535	-0.733021	-0.664931	1.60725	9.4256	-1.07746	0.0673689	0.0240977	-0.0108878	-0.502197	-0.801758	0.20752	0.849216	0.336665	-0.405985	-0.0257775	6.76538	5.82422	4.35226	0.0605487	-0.00414031	0.00707449	-0.56665	-0.401123	-0.591309	0.88506	0.428863	0.154716	-0.0938551	-3.68602	7.57868	6.0127	0.0387477	0.0331265	0.0339487	0.637939	-0.631592	-0.484619	0.331256	0.747237	0.139925	-0.558863	-9.07175	3.14499	-1.70988	0.0531474	0.0235708	0.00365656	1.0144	-0.0507812	-0.161621	0.728329	0.644469	0.092073	-0.213819	-3.91322	8.85855	1.61054	-0.0404353	0.0156977	-0.000515551	0.726807	-0.689941	-0.170898	-0.946922	-0.263532	-0.125931	-0.134281	-2.75103	6.35059	10.4807	-0.0306083	0.021447	0.017117	0.609863	-0.556885	-0.554443	0.735647	0.194792	-0.648748	-0.00244252	9.46329	2.79412	0.581602	0.0393844	-0.0220649	-0.0274316	-0.959229	0.0395508	-0.170166	0.489686	-0.505465	-0.547783	-0.452379	9.66947	0.0811104	-1.05419	0.0387016	0.00830681	-0.0276978	-0.991211	0.365479	0.0793457	0.579331	-0.406375	-0.577983	-0.406412	9.74658	0.150057	0.191213	0.0311383	-0.000360915	-0.0143677	-0.999268	0.314209	-0.0639648	0.57297	0.28935	-0.697477	0.318604	9.61036	-1.21306	-1.29717	0.0592437	-0.0273491	0.00384156	-0.933838	0.523682	0.156006	0.526559	-0.539152	-0.527361	-0.392352	9.64178	-1.46161	-1.25578	0.0379621	-0.018475	0.000144769	-0.940674	0.554443	0.095459	
52	-0.0152001	-0.141708	-0.734085	-0.663933	1.55136	9.55635	-1.14151	0.0527928	-0.00113928	-0.0414985	-0.497803	-0.803711	0.20752	0.8486	0.337902	-0.406308	-0.024785	6.81061	6.0999	4.38467	0.0358097	0.00877335	0.00956396	-0.562256	-0.401123	-0.591309	0.885195	0.428834	0.154327	-0.0933459	-3.57368	7.41096	5.94632	-0.0125899	-0.0220563	0.0363098	0.631348	-0.633789	-0.484619	0.331863	0.747395	0.139861	-0.558307	-8.88482	3.07051	-1.58594	-0.0520477	0.0237073	0.0349873	1.01001	-0.0507812	-0.157227	0.729464	0.643676	0.0920791	-0.212333	-3.99561	9.3924	1.27684	-0.0956087	0.0211314	0.0431871	0.720459	-0.689941	-0.177734	-0.947057	-0.262566	-0.12607	-0.135087	-2.47589	6.39518	10.5895	-0.0341341	0.0122602	0.0153182	0.616455	-0.558838	-0.552246	0.734999	0.195921	-0.649144	-0.00192818	9.42688	2.73278	0.928288	0.0882654	-0.0289183	-0.0283198	-0.963379	0.0373535	-0.170166	0.489715	-0.505357	-0.548446	-0.451664	9.81236	-0.168123	-1.16468	0.0538673	-0.0180106	-0.00990458	-0.993652	0.369629	0.088623	0.579526	-0.406241	-0.578293	-0.405826	9.94062	-0.0915105	0.00284917	0.0467598	-0.00500866	-0.0142797	-0.996826	0.30957	-0.0639648	0.572776	0.290208	-0.696868	0.319503	9.35158	-0.916021	-1.31719	0.0452198	0.0322063	-0.00530684	-0.929443	0.525879	0.155762	0.526898	-0.538758	-0.528285	-0.391195	9.59965	-1.51893	-1.43613	0.0483028	-0.0285827	-0.00248302	-0.936279	0.554443	0.100098	
53	-0.0147954	-0.141132	-0.734486	-0.663622	1.4752	9.39268	-1.14349	0.0146623	0.0265266	-0.00865048	-0.495605	-0.803711	0.211914	0.848706	0.338121	-0.405948	-0.0240327	6.76731	5.98344	4.22209	0.0299474	0.0260333	-0.0139463	-0.570801	-0.401123	-0.58667	0.885521	0.428527	0.153562	-0.092934	-3.56367	7.77657	6.09675	-0.00798844	-0.0244442	0.0258324	0.631592	-0.640137	-0.489014	0.33424	0.747169	0.140184	-0.557109	-8.98844	3.55453	-1.83844	-0.121561	0.0221895	0.0789951	1.01709	-0.0595703	-0.152588	0.72982	0.643219	0.0925228	-0.212301	-3.7189	8.7686	1.48286	-0.0269644	0.0128965	-0.0166913	0.724609	-0.689941	-0.170898	-0.947189	-0.261827	-0.125868	-0.135785	-2.44347	6.66344	10.5275	-0.032227	0.00514373	-0.0333939	0.614258	-0.558838	-0.558838	0.734171	0.196688	-0.64985	-0.00106138	9.44279	2.95259	0.899148	0.0602538	0.0307826	-0.00562362	-0.961426	0.0395508	-0.170166	0.490017	-0.505064	-0.548603	-0.451474	9.4508	-0.309895	-1.12721	0.0228102	0.00483378	-0.0238697	-0.99585	0.369629	0.088623	0.579608	-0.406256	-0.578552	-0.405325	9.86679	-0.11816	-0.094248	0.00851255	-0.00202819	-0.00947087	-1.00391	0.311768	-0.0639648	0.5719	0.291029	-0.6971	0.319819	9.78669	-1.28389	-1.61676	0.0404531	-0.00889347	0.000140461	-0.931641	0.523682	0.156006	0.527094	-0.538544	-0.528861	-0.390445	9.74707	-1.48145	-1.40766	0.0291838	-0.007694	-0.00513902	-0.936279	0.554443	0.102295	
54	-0.0148667	-0.140146	-0.734978	-0.663283	1.68143	9.5151	-1.14704	0.0229044	0.0183309	-0.026439	-0.497803	-0.801758	0.213867	0.848408	0.338377	-0.406374	-0.0237827	6.71715	5.99373	4.34862	0.00486649	0.0149089	-0.00438413	-0.564209	-0.40332	-0.586426	0.886233	0.42741	0.152965	-0.0922733	-3.90946	7.73047	5.91397	-0.0628541	-0.028468	0.0260271	0.633545	-0.635986	-0.489014	0.335953	0.74663	0.13926	-0.557033	-9.30278	3.41129	-1.80363	0.0438851	-0.0313122	0.05089	1.01733	-0.0617676	-0.156982	0.730934	0.641842	0.092204	-0.212774	-3.89191	8.74609	1.56599	-0.0336338	-0.031151	-0.0623335	0.726807	-0.687744	-0.177734	-0.947133	-0.262303	-0.12535	-0.135733	-2.62624	6.62459	10.7099	0.0542173	-0.0306692	-0.00336386	0.612061	-0.558838	-0.556641	0.73354	0.196958	-0.65048	-0.00148116	9.58036	2.97542	0.281524	-0.021469	-0.0616559	-0.0187099	-0.965576	0.0393066	-0.166016	0.490146	-0.505088	-0.549112	-0.450688	9.86219	0.18187	-0.900387	-0.00540708	0.0208721	-0.00205038	-0.997803	0.365234	0.0908203	0.579564	-0.406303	-0.578861	-0.404899	9.88506	0.0338521	0.148184	0.0152209	-0.0147033	-0.017721	-0.999268	0.312012	-0.0639648	0.571365	0.29141	-0.69732	0.319948	9.35645	-1.07305	-1.18496	0.00613042	-0.0463241	0.00782264	-0.927246	0.528076	0.151123	0.527086	-0.538536	-0.529049	-0.390214	9.5615	-1.40921	-1.42013	0.00197566	0.000198782	-0.0012774	-0.938721	0.556641	0.100098	
55	-0.0141443	-0.139907	-0.734761	-0.66359	1.58708	9.46539	-1.03309	-0.01651	0.0243837	0.0138709	-0.497803	-0.801758	0.21167	0.84871	0.33695	-0.406869	-0.0247769	6.78669	5.87889	4.35587	-0.0696247	-0.0195229	-0.0118603	-0.564697	-0.392334	-0.591553	0.885815	0.428188	0.152685	-0.0931373	-3.51344	7.6837	6.1068	0.0724851	0.0199957	-0.0353477	0.635742	-0.633789	-0.486816	0.336818	0.746119	0.138293	-0.557436	-9.24775	3.38772	-1.75991	-0.012109	-0.0358508	0.0330585	1.01733	-0.0639648	-0.15918	0.730568	0.642159	0.091502	-0.213377	-4.18084	9.33388	1.50869	-0.0368421	-0.049356	0.00402537	0.724609	-0.685547	-0.17334	-0.947343	-0.261968	-0.125524	-0.134753	-2.69303	6.21551	10.6246	0.00784322	0.00115816	-0.0611565	0.616699	-0.563232	-0.556396	0.733277	0.196837	-0.650814	-0.00117143	9.36486	2.69507	1.15266	0.0142148	-0.0137634	-0.0227812	-0.963379	0.0393066	-0.166016	0.490217	-0.505344	-0.548472	-0.451102	9.59571	-0.194909	-1.00163	0.0219414	0.0113153	-0.00689334	-0.99585	0.371826	0.0883789	0.578586	-0.407237	-0.578867	-0.405351	9.91885	0.0795433	-0.0530327	-0.0379621	-0.0293217	-0.0279627	-0.996826	0.307373	-0.0593262	0.570994	0.291457	-0.697776	0.319574	9.68674	-0.969221	-1.50862	-0.0110958	0.0122402	-0.000394587	-0.929443	0.528076	0.153564	0.526361	-0.539492	-0.528191	-0.391034	9.66142	-1.65891	-1.23849	-0.0347317	0.0122025	0.00452713	-0.940674	0.552246	0.0979004	
56	-0.0142738	-0.140728	-0.734791	-0.663381	1.5168	9.30353	-1.06181	0.0159051	-0.045501	0.0224937	-0.501953	-0.806152	0.213867	0.848275	0.337294	-0.407494	-0.0247402	6.92301	5.84215	4.42624	0.0267178	-0.00784549	-0.0175136	-0.562256	-0.398926	-0.584229	0.88639	0.427049	0.152044	-0.0939375	-3.8681	7.6727	6.15451	-0.0618698	-0.0646255	-0.0327376	0.626953	-0.629395	-0.491455	0.33474	0.746541	0.136704	-0.558514	-9.11324	3.59267	-1.49156	0.111657	-0.021685	-0.0139545	1.01245	-0.057373	-0.157227	0.730459	0.641925	0.0918534	-0.214302	-3.8487	8.47054	1.60522	0.0379209	-0.0102881	-0.0247995	0.730957	-0.685547	-0.175537	-0.947502	-0.261491	-0.125995	-0.134115	-2.64774	6.5689	10.6166	-0.0426629	0.0194138	-0.0722853	0.618408	-0.556885	-0.556641	0.732725	0.196507	-0.651534	-0.00170567	9.52032	2.79792	0.620207	-0.0196975	-0.0240904	-0.00545387	-0.96582	0.0415039	-0.167969	0.489783	-0.505988	-0.548047	-0.451368	9.86416	0.238118	-1.10461	-0.0580687	0.0230511	-0.0015719	-0.991455	0.369629	0.0908203	0.577015	-0.409249	-0.577781	-0.407109	10.0591	0.0944727	0.0403023	-0.200799	0.00125873	-0.0163806	-1.00146	0.307373	-0.0595703	0.570731	0.291254	-0.698331	0.319017	9.71012	-0.993215	-1.45567	-0.0427694	-0.0214826	-0.00166363	-0.92749	0.530273	0.162598	0.52596	-0.540221	-0.527341	-0.391713	9.84664	-1.46488	-1.47121	-0.112296	0.0272512	0.0141674	-0.938721	0.558838	0.100098	
57	-0.0153896	-0.142754	-0.735306	-0.662351	1.80806	9.42293	-1.25385	0.0433952	-0.0928006	0.0258525	-0.495605	-0.801758	0.218262	0.848474	0.336901	-0.407388	-0.0249887	6.8042	6.03316	4.41115	-0.0283494	0.0354003	-0.0171747	-0.568848	-0.396729	-0.589111	0.886438	0.426427	0.152631	-0.0953519	-3.70775	7.61439	6.12342	-0.00163755	0.00564745	-0.06972	0.633545	-0.627197	-0.491699	0.333226	0.746741	0.135882	-0.559352	-9.03064	3.21782	-1.606	0.115147	-0.0072009	-0.0289327	1.01709	-0.0595703	-0.156982	0.730794	0.641562	0.0909026	-0.214651	-4.14431	9.22105	1.68093	-0.0209495	-0.0747138	0.0174787	0.722412	-0.685547	-0.177979	-0.947735	-0.260845	-0.126027	-0.133697	-2.8761	6.08934	10.4707	-0.0359021	-0.00183862	-0.0641739	0.614258	-0.558838	-0.556641	0.73254	0.196174	-0.65184	-0.00212444	9.65314	2.85629	1.07306	-0.0236773	-0.0227323	-0.0192623	-0.967773	0.0393066	-0.163818	0.489089	-0.507065	-0.547365	-0.45174	9.6791	-0.320529	-1.04676	-0.0390408	-0.0405727	-0.00108436	-0.99585	0.369629	0.0908203	0.576916	-0.409653	-0.577714	-0.406939	9.93933	0.0632494	0.0808779	0.0577102	0.00067347	-0.0119924	-1.00171	0.316406	-0.0595703	0.571082	0.290077	-0.698976	0.318045	9.5707	-1.0576	-1.32768	-0.0690432	0.0251886	0.0291643	-0.927246	0.528076	0.1604	0.525814	-0.540556	-0.526915	-0.392021	9.71665	-1.58344	-1.26403	-0.0437624	0.0210184	0.0107974	-0.934082	0.558838	0.104492	
58	-0.0156608	-0.143419	-0.735458	-0.662032	1.83782	9.43281	-1.27557	0.0245218	-0.0586727	0.0218733	-0.497803	-0.801758	0.216064	0.848684	0.336557	-0.40723	-0.0250561	6.66369	5.97233	4.37958	-0.0333801	0.0299765	-0.0137108	-0.56665	-0.398926	-0.589111	0.886767	0.425506	0.152603	-0.0964482	-3.47007	7.16976	5.95828	-0.0263331	-0.002234	-0.0151317	0.633545	-0.629395	-0.487061	0.331485	0.74697	0.134659	-0.560375	-8.77613	3.51894	-1.2964	-0.00642881	-0.0255078	0.00639852	1.01489	-0.0617676	-0.15918	0.73021	0.641934	0.0911479	-0.215421	-3.91363	8.62583	1.56829	0.0258637	-0.00341086	-0.039796	0.724609	-0.687744	-0.180176	-0.947752	-0.261052	-0.126353	-0.132866	-2.58912	6.50468	10.7536	0.00103182	0.0146023	-0.0680943	0.614014	-0.55249	-0.558838	0.732983	0.194937	-0.651709	-0.00319849	9.37221	2.95751	0.491808	-0.0645009	0.0184797	-0.0103035	-0.961426	0.0415039	-0.163818	0.489074	-0.507444	-0.547094	-0.451658	9.74392	-0.23586	-1.02343	-0.0172668	0.0105177	0.0137351	-0.991455	0.371826	0.0883789	0.576773	-0.410204	-0.577455	-0.406954	9.89039	-0.0785115	0.0257344	-0.0335764	-0.00504254	0.00699431	-0.994629	0.314209	-0.057373	0.571714	0.287976	-0.699903	0.316778	9.51472	-1.30452	-1.46711	-0.129541	0.0264371	0.0376947	-0.927246	0.528076	0.155762	0.524685	-0.542349	-0.525728	-0.39265	9.60771	-1.5637	-1.36989	-0.0560238	-0.00629465	0.0151973	-0.927246	0.556641	0.100098	
59	-0.0155378	-0.144376	-0.734995	-0.662342	1.51835	9.3546	-1.18974	-0.0349537	-0.0198712	0.0371207	-0.502197	-0.801758	0.218262	0.848719	0.335063	-0.40827	-0.0269034	6.79266	5.79846	4.2291	-0.101132	-0.0606486	-0.0425349	-0.5625	-0.394531	-0.584473	0.886689	0.425491	0.153095	-0.0964514	-3.76513	7.36293	5.87841	-0.0017207	0.0379039	-0.0196059	0.633545	-0.627197	-0.491699	0.331678	0.746821	0.134996	-0.560379	-8.80005	3.01573	-1.64164	-0.029276	0.00565284	-0.0109057	1.01489	-0.0595703	-0.163574	0.730043	0.641924	0.0901939	-0.216415	-3.95879	9.01556	1.51364	-0.0314162	-0.0258531	-0.0536708	0.720459	-0.692139	-0.180176	-0.947772	-0.261237	-0.126499	-0.13222	-2.70249	6.28203	10.4521	0.0467531	-0.00796172	-0.0276776	0.614014	-0.550293	-0.556885	0.732915	0.193003	-0.65235	-0.00491187	9.51469	2.67096	0.809654	-0.123431	-0.00695469	-0.0134749	-0.963623	0.0415039	-0.163818	0.489144	-0.508116	-0.546673	-0.451337	9.55943	-0.144026	-1.01609	-0.0114306	-0.00229723	0.0211725	-0.989502	0.374023	0.095459	0.57661	-0.411005	-0.577051	-0.40695	9.88521	0.00547589	-0.118591	-0.035468	0.00379586	-0.000756551	-1.00391	0.314209	-0.057373	0.572012	0.286984	-0.700384	0.316076	9.46515	-1.27807	-1.57973	-0.104684	0.0163965	0.0294977	-0.925049	0.525879	0.1604	0.524697	-0.54265	-0.52535	-0.392722	9.73916	-1.64323	-1.5581	-0.0244521	0.0162943	0.0219571	-0.938721	0.561035	0.104492	
60	-0.0167057	-0.145527	-0.734353	-0.662773	1.69153	9.37171	-1.18423	-0.0346592	-0.0715621	0.00398095	-0.5	-0.803955	0.216064	0.84858	0.334782	-0.408691	-0.0283656	6.93598	5.85894	4.37232	-0.0131334	0.00137665	-0.0567435	-0.571289	-0.394531	-0.584473	0.886018	0.427023	0.151818	-0.09785	-3.41817	7.31287	6.20709	0.104794	-0.040458	0.00990269	0.635498	-0.627197	-0.496094	0.331127	0.746743	0.133573	-0.561149	-8.9866	3.28004	-1.47	0.0263144	-0.0449719	0.0449857	1.01514	-0.0639648	-0.163574	0.728838	0.64312	0.0889898	-0.217422	-3.99647	9.06616	1.59037	0.0616649	-0.0471066	0.00596686	0.726562	-0.68335	-0.170898	-0.947735	-0.262106	-0.125999	-0.131235	-2.78874	6.22784	10.3814	0.0696587	-0.0407223	-0.063976	0.618408	-0.554688	-0.558838	0.733365	0.191562	-0.652258	-0.00618232	9.53878	2.75855	0.821411	-0.0393492	0.0034746	-0.0180732	-0.963379	0.0393066	-0.159424	0.488185	-0.509579	-0.545561	-0.45207	9.67317	-0.13506	-1.19758	-0.0817087	-0.00179147	0.0144787	-0.994141	0.380371	0.0952148	0.576212	-0.412146	-0.576315	-0.407402	9.96517	-0.0440522	-0.00740133	-0.0322498	0.00866718	-0.00342573	-0.999512	0.318604	-0.0551758	0.571873	0.286207	-0.700931	0.31582	9.5069	-1.12564	-1.41184	-0.0207503	0.00947366	0.0271058	-0.922852	0.526123	0.165039	0.524457	-0.543305	-0.524718	-0.392983	9.70043	-1.50898	-1.38581	-0.0489064	0.0142907	0.0167291	-0.934082	0.556641	0.104736	
61	-0.0178188	-0.146639	-0.733829	-0.663079	1.6999	9.26937	-1.26306	-0.0237719	-0.0665815	-0.00575552	-0.5	-0.801758	0.220459	0.84853	0.334863	-0.408686	-0.0289702	6.78686	5.93688	4.41916	-0.0265329	-0.0141657	-0.0412541	-0.564209	-0.40332	-0.588867	0.885987	0.427304	0.150826	-0.0984363	-3.7325	7.74407	6.14746	-0.0260148	-0.0710624	-0.0291148	0.633545	-0.629395	-0.491455	0.331855	0.746713	0.132116	-0.561104	-9.04901	3.58174	-1.4259	0.0197348	-0.0100299	0.0628877	1.01318	-0.0683594	-0.165771	0.728962	0.642843	0.0887722	-0.217914	-4.17725	9.01382	1.49007	-0.0168662	-0.0370694	-0.0315075	0.726807	-0.685547	-0.175537	-0.947497	-0.263961	-0.125093	-0.130099	-2.66075	6.47668	10.6273	0.0568482	-0.0487121	-0.0451355	0.616211	-0.556885	-0.558838	0.733674	0.190306	-0.652275	-0.00663707	9.48501	2.73778	0.5865	-0.0169691	0.0056641	0.00776705	-0.963623	0.0415039	-0.161621	0.487999	-0.51031	-0.544911	-0.45223	9.57964	-0.319892	-1.11052	0.00494323	0.00397385	0.000819064	-0.989502	0.376221	0.0930176	0.576022	-0.413037	-0.575617	-0.407755	9.87084	-0.163073	-0.118715	-0.0249718	0.0077399	-0.00153154	-0.994873	0.318848	-0.057373	0.571879	0.285335	-0.701523	0.315283	9.69262	-1.18027	-1.36307	-0.0432091	0.0134377	0.0286389	-0.929443	0.528076	0.165039	0.52428	-0.543951	-0.524113	-0.393134	9.64194	-1.4557	-1.26879	-0.0274334	0.003028	0.0163319	-0.936279	0.556641	0.104736	
62	-0.0185252	-0.146769	-0.733658	-0.66322	1.7573	9.31169	-1.17303	-0.00967775	-0.00677104	-0.0108232	-0.497559	-0.80835	0.222656	0.848565	0.333991	-0.409282	-0.0295844	6.75051	5.79861	4.28354	-0.0490952	-0.0125307	-0.00763249	-0.569092	-0.394531	-0.584473	0.886437	0.42656	0.15009	-0.098732	-3.78105	7.62561	6.1418	-0.0223117	-0.00701391	-0.0087739	0.633545	-0.629395	-0.496094	0.332238	0.746835	0.131307	-0.560905	-9.18777	3.70161	-1.57821	0.0185057	2.03915e-05	0.0231926	1.01074	-0.0683594	-0.167969	0.728562	0.643234	0.0873556	-0.218669	-3.84774	9.04832	1.49267	-0.0255783	-0.0393601	-0.00410086	0.717773	-0.681152	-0.182373	-0.947555	-0.264221	-0.124517	-0.129699	-2.53381	6.34396	10.6596	0.0372435	-0.0211699	-0.0181719	0.612305	-0.563232	-0.556396	0.732999	0.189554	-0.653248	-0.0070612	9.38043	2.60283	0.705969	-0.0215069	-0.0440131	0.00606252	-0.959229	0.0415039	-0.159668	0.488287	-0.510369	-0.544699	-0.452109	9.55783	-0.0257247	-1.14113	-0.00525261	0.0374895	-0.00834683	-0.993896	0.378174	0.095459	0.576077	-0.41335	-0.575346	-0.407743	9.83692	-0.0632155	-0.0779532	-0.0275397	0.00592593	-0.0065153	-0.992676	0.318848	-0.0529785	0.572181	0.284361	-0.701867	0.31485	9.51238	-1.27398	-1.45905	-0.0393807	0.00890047	0.0156398	-0.925293	0.532471	0.166992	0.524052	-0.544535	-0.523806	-0.393037	9.61282	-1.52976	-1.45752	-0.00569131	-0.00218886	0.014225	-0.934326	0.563232	0.113525	
63	-0.0191626	-0.146875	-0.734003	-0.662797	1.42266	9.42979	-1.16624	0.0315056	-0.0613464	-0.0186771	-0.502197	-0.801758	0.222412	0.848344	0.333631	-0.410014	-0.0298496	6.8655	5.97399	4.40442	-0.0230496	-0.0357964	-0.00702654	-0.573242	-0.398926	-0.57959	0.886306	0.426855	0.149568	-0.0994248	-3.36706	7.5026	6.24258	0.0404549	-0.0226965	0.00520208	0.633545	-0.629395	-0.489258	0.33259	0.74668	0.131282	-0.560908	-9.16067	3.50937	-1.70407	-0.0292172	0.00109417	0.0130487	1.01978	-0.0683594	-0.163574	0.728917	0.642862	0.0864816	-0.218927	-3.97898	9.09486	1.5171	0.00633339	-0.032783	0.00457562	0.720215	-0.685547	-0.184814	-0.947918	-0.263012	-0.124441	-0.129581	-2.62681	6.41702	10.7581	-0.056357	0.0010261	-0.0344353	0.616211	-0.554688	-0.556641	0.732361	0.189448	-0.653996	-0.00674583	9.49214	2.78418	0.888786	0.0235108	-0.0298025	-0.0131023	-0.972656	0.050293	-0.159668	0.487931	-0.511235	-0.544063	-0.452281	9.79029	-0.324859	-1.19721	-0.0369349	-0.000882742	0.0120541	-0.993896	0.378174	0.095459	0.575948	-0.414151	-0.574467	-0.408352	9.9289	-0.295491	-0.0700747	-0.0234274	0.0179617	-0.00734391	-0.99707	0.316406	-0.057373	0.571975	0.284413	-0.701854	0.315207	9.32856	-1.12792	-1.49756	0.0370972	0.00555687	0.0103147	-0.925049	0.530273	0.167236	0.524351	-0.544569	-0.523668	-0.392775	9.59746	-1.58329	-1.518	0.0202188	0.0185303	0.00787719	-0.929688	0.556641	0.102295	
64	-0.0191322	-0.147537	-0.734332	-0.662287	1.64451	9.52314	-1.14355	0.0134464	-0.0140841	0.0260507	-0.497803	-0.801758	0.222656	0.848556	0.33353	-0.409697	-0.0292972	6.79598	5.91701	4.44991	-0.00977384	0.0144013	-0.00349404	-0.569092	-0.392334	-0.584473	0.886732	0.425955	0.149717	-0.0992657	-3.8275	7.60013	6.14107	-0.0756438	0.000887737	-0.0202374	0.633545	-0.629395	-0.498291	0.333094	0.746179	0.130711	-0.561409	-8.89104	3.6197	-1.42109	-0.0207885	-0.0344685	0.0186552	1.01538	-0.0683594	-0.172363	0.728695	0.6428	0.0868566	-0.219698	-3.82098	8.83655	1.5298	0.0209655	0.0128239	-0.0466524	0.726807	-0.685547	-0.182373	-0.947827	-0.263391	-0.124529	-0.129392	-2.62613	6.42176	10.7938	0.0461247	0.000582272	-0.0342939	0.614014	-0.554688	-0.561035	0.732408	0.188883	-0.654116	-0.00577666	9.49523	2.73338	0.839195	0.0307373	0.049942	0.0351548	-0.968506	0.0524902	-0.159912	0.488007	-0.511551	-0.543245	-0.452824	9.60601	-0.291688	-1.00946	-0.0188519	0.0423475	-0.00641063	-0.993896	0.376221	0.095459	0.57559	-0.414874	-0.57389	-0.408932	9.92831	0.0279556	0.05339	-0.0729502	0.00808466	-0.0149884	-1.00195	0.318604	-0.057373	0.571412	0.284405	-0.702313	0.315212	9.74621	-1.32482	-1.40117	-0.00323981	0.00760835	0.0218525	-0.920898	0.532715	0.169434	0.524455	-0.54481	-0.523043	-0.393134	9.75013	-1.61761	-1.29096	-0.0129184	0.0339516	0.00823444	-0.936523	0.561035	0.109131	
65	-0.0193485	-0.1483	-0.734496	-0.661928	1.6309	9.45687	-1.27478	0.018718	-0.0428406	0.0144252	-0.499756	-0.806152	0.220459	0.848572	0.332901	-0.410178	-0.0292755	6.96308	5.84389	4.4298	0.00101553	0.0278052	-0.00479602	-0.573486	-0.392334	-0.584473	0.887529	0.424234	0.149665	-0.0995944	-3.63203	7.53561	6.24831	-0.0664215	-0.0143051	-0.0183187	0.633301	-0.625	-0.493896	0.333813	0.745637	0.130613	-0.561724	-9.11019	3.43482	-1.50399	-2.38367e-05	-0.0213034	0.0150778	1.0127	-0.0617676	-0.170166	0.728777	0.642446	0.0867245	-0.220514	-3.97109	9.01157	1.65273	-0.0139022	-0.0216506	-0.0434403	0.724365	-0.681152	-0.184814	-0.947987	-0.262817	-0.125406	-0.128539	-2.84871	6.16131	10.4054	-0.00421822	0.00381185	-0.0302409	0.616211	-0.55249	-0.558838	0.732574	0.18916	-0.653859	-0.00471605	9.66128	2.64248	0.674454	0.073468	0.0350163	0.00526903	-0.966064	0.050293	-0.164062	0.488127	-0.511717	-0.542964	-0.452844	9.65884	0.103427	-1.11845	-0.0224932	0.0342445	-0.0103392	-0.993896	0.374023	0.0908203	0.574941	-0.41596	-0.572877	-0.410162	9.78213	-0.0237335	-0.0448589	-0.0631223	0.0137848	-0.018818	-0.99707	0.316406	-0.0505371	0.571221	0.284385	-0.702444	0.315283	9.68533	-1.00499	-1.40133	0.00828108	0.00133253	0.00199852	-0.925293	0.532471	0.169434	0.524539	-0.545195	-0.522113	-0.393726	9.63319	-1.47244	-1.21576	-0.0589758	0.034778	0.0163807	-0.932129	0.563232	0.113525	
66	-0.01934	-0.14869	-0.734557	-0.661772	1.83715	9.47657	-1.29927	0.0136055	-0.0258012	0.021594	-0.498047	-0.799561	0.224609	0.848814	0.332474	-0.410072	-0.0285688	6.75027	5.77476	4.4096	-0.0292628	0.0140037	0.0208789	-0.566895	-0.392334	-0.589355	0.887543	0.424305	0.149388	-0.0995788	-3.7179	7.2206	6.1031	0.0519301	-0.00464108	0.0215039	0.633301	-0.622803	-0.496338	0.334521	0.745099	0.12994	-0.562173	-9.00074	3.48978	-1.39266	-0.0258058	-0.0231557	0.0285797	1.01074	-0.0661621	-0.170166	0.728922	0.642201	0.0869845	-0.220644	-3.87768	8.70101	1.5894	-0.0267793	0.0110628	-0.0344161	0.722168	-0.68335	-0.180176	-0.947901	-0.263184	-0.125516	-0.128314	-2.67264	6.37161	10.5862	0.0457197	0.00213381	-0.0371006	0.622803	-0.556885	-0.562988	0.732784	0.188996	-0.653674	-0.00425374	9.49613	2.60016	0.662018	0.0265324	0.0401491	0.0161142	-0.970459	0.0480957	-0.164062	0.487898	-0.511914	-0.542428	-0.453509	9.52277	-0.106468	-0.949637	-0.0615525	0.0483081	-0.0200443	-0.993896	0.376221	0.0930176	0.574245	-0.417144	-0.57197	-0.411197	9.97366	-0.406178	-0.171582	-0.0625789	0.0159182	-0.0122986	-0.997314	0.323242	-0.0551758	0.571164	0.284585	-0.702168	0.315821	9.50828	-1.20356	-1.40224	0.0172203	0.0266986	0.00138804	-0.922852	0.526123	0.162598	0.525058	-0.545033	-0.522043	-0.39335	9.67144	-1.60696	-1.4323	0.0453645	0.0138973	0.00893986	-0.936523	0.563232	0.102295	
67	-0.0181512	-0.14942	-0.73446	-0.661749	1.72242	9.40106	-1.29319	0.005737	0.0133253	0.052983	-0.500244	-0.797363	0.222412	0.848841	0.331907	-0.410474	-0.0285951	6.79332	5.7471	4.28407	-0.0396553	-0.0124493	0.0123625	-0.571289	-0.390137	-0.589355	0.887249	0.424956	0.149254	-0.0996201	-3.75843	7.5256	6.01119	0.0583646	0.000253478	0.00578473	0.631348	-0.627197	-0.50293	0.334642	0.744929	0.129913	-0.562333	-8.93665	3.47193	-1.50343	-0.00741926	-0.0132645	0.00370962	1.00854	-0.0639648	-0.172363	0.728967	0.641963	0.0868034	-0.221259	-4.01034	8.96119	1.56256	-0.0281127	-0.0292525	-0.0327696	0.726562	-0.681152	-0.184814	-0.948011	-0.262712	-0.125981	-0.128011	-2.7275	6.41051	10.506	-0.0251033	0.0176494	-0.0336814	0.622803	-0.554688	-0.556641	0.732953	0.188208	-0.653715	-0.00367826	9.41585	2.8676	0.719169	0.0106659	0.00931603	0.0189052	-0.966309	0.0524902	-0.159912	0.487823	-0.512343	-0.541936	-0.453694	9.73198	-0.427868	-1.29703	0.00457128	0.0115558	0.00576842	-0.991699	0.374023	0.0930176	0.574635	-0.416928	-0.571926	-0.410934	10.0113	-0.447103	-0.123179	0.0386714	0.0251041	-0.00498751	-0.997314	0.318848	-0.057373	0.571227	0.284443	-0.702215	0.315731	9.50713	-1.19696	-1.48895	-0.0147179	0.0158192	0.00624048	-0.923096	0.534668	0.169434	0.524979	-0.545345	-0.521706	-0.393469	9.59868	-1.57381	-1.4213	-0.0294347	0.0125577	0.0162992	-0.929932	0.563477	0.104492	
68	-0.0171732	-0.149867	-0.734084	-0.662092	1.6217	9.23053	-1.23144	-0.0156458	0.0155681	0.0284687	-0.506836	-0.797607	0.224609	0.848465	0.33206	-0.411108	-0.0288875	6.83459	5.98698	4.32947	0.00148502	-0.0284519	-0.0254931	-0.573242	-0.394531	-0.589111	0.887071	0.425259	0.149146	-0.100073	-3.60397	7.51293	6.10024	0.0141197	0.00538336	0.00428163	0.626953	-0.627197	-0.493896	0.334359	0.744729	0.129649	-0.562827	-8.99641	3.27318	-1.51526	0.0109171	-0.00908254	-0.00459357	1.01099	-0.0727539	-0.174561	0.728719	0.642091	0.0866233	-0.221775	-3.9064	8.70132	1.56975	0.0507334	0.000784083	-0.0188704	0.724365	-0.681152	-0.184814	-0.948159	-0.26228	-0.126113	-0.127666	-2.74794	6.1166	10.5265	0.0202134	0.00152767	-0.0466779	0.618652	-0.558838	-0.560791	0.732975	0.187606	-0.653865	-0.00348218	9.50711	2.67152	0.757863	-0.0168797	0.00662699	-0.000610787	-0.966064	0.0480957	-0.159668	0.48818	-0.512306	-0.541951	-0.453334	9.63374	-0.115986	-0.780501	-0.0065749	0.0130206	-0.00706236	-0.991699	0.376221	0.095459	0.57494	-0.4171	-0.571723	-0.410614	9.77271	-0.116486	0.0618873	-0.0170804	0.00712557	-0.00234012	-1.00195	0.323242	-0.048584	0.571061	0.283932	-0.702479	0.315904	9.57464	-1.30393	-1.4999	0.0129736	0.0123392	0.0262564	-0.92749	0.530273	0.169434	0.5253	-0.545464	-0.521519	-0.393125	9.61974	-1.51702	-1.32855	0.0322585	0.00589646	0.0109734	-0.927734	0.565674	0.104492	
69	-0.0172269	-0.149312	-0.733769	-0.662565	1.67584	9.32004	-1.14283	-0.0230231	0.0137068	-0.016199	-0.506592	-0.801758	0.222412	0.848967	0.330885	-0.410993	-0.02924	6.88324	5.8535	4.52032	-0.0724516	0.0151347	-0.00952524	-0.575928	-0.385742	-0.587158	0.886733	0.426142	0.148203	-0.100714	-3.70702	7.39131	6.04424	0.044901	-0.0373809	-0.00377431	0.635498	-0.629395	-0.500732	0.332818	0.745152	0.128955	-0.56334	-8.95037	3.46487	-1.40748	0.0703286	-0.00372018	-0.0177647	1.01099	-0.0705566	-0.172363	0.728663	0.64217	0.0863703	-0.221826	-3.96257	9.07741	1.55407	0.010977	-0.00783565	-0.00489803	0.724365	-0.68335	-0.187012	-0.947948	-0.263137	-0.126093	-0.127493	-2.64804	6.60065	10.5573	0.0290177	-0.00502743	-0.0155509	0.611816	-0.554688	-0.556641	0.732664	0.18633	-0.654578	-0.00354447	9.65293	2.62328	0.535244	-0.0177939	-0.0280945	0.0349515	-0.964111	0.0524902	-0.153564	0.488224	-0.512811	-0.541298	-0.453497	9.80366	-0.188352	-1.1441	-0.00028183	0.0364747	0.00909988	-0.993896	0.374023	0.0930176	0.57507	-0.417049	-0.571707	-0.410507	10.0035	-0.157768	0.0770232	0.0173764	0.0124091	-0.0138277	-0.999512	0.318604	-0.0551758	0.571308	0.283179	-0.702793	0.315434	9.67831	-1.1289	-1.32293	-0.0627512	0.00579739	0.00905859	-0.918701	0.537109	0.160156	0.525169	-0.545925	-0.520736	-0.393697	9.7538	-1.58967	-1.35389	-0.0337814	0.0349714	0.00877342	-0.927734	0.565674	0.106689	
70	-0.0179102	-0.149424	-0.733456	-0.662868	1.712	9.46991	-1.14802	-0.0155791	-0.036902	-0.00858915	-0.502441	-0.799561	0.218262	0.849265	0.329846	-0.411192	-0.0295178	6.93095	5.73072	4.37713	-0.0167732	0.0291401	-0.00678505	-0.575439	-0.394531	-0.586914	0.885362	0.429391	0.146655	-0.101238	-3.69808	7.75363	6.40121	0.14022	-0.0385665	-0.00514762	0.62915	-0.627197	-0.496094	0.331568	0.745485	0.12854	-0.563731	-9.21329	3.46182	-1.56548	0.072166	-0.011295	0.00136798	1.01294	-0.0661621	-0.167969	0.728712	0.642018	0.0857101	-0.222364	-4.0318	8.99498	1.66806	0.0200892	-0.0254547	-0.0136602	0.724121	-0.676758	-0.187012	-0.948183	-0.262461	-0.125681	-0.127546	-2.7767	6.19982	10.6186	0.0149894	-0.0130014	-0.0287781	0.618408	-0.554688	-0.561035	0.732922	0.185338	-0.654574	-0.00281891	9.48036	2.67701	0.865053	0.0225962	0.0295463	0.0194866	-0.962158	0.0566406	-0.155762	0.488362	-0.512782	-0.541052	-0.453674	9.63936	-0.228059	-1.08871	-0.00465748	0.0169101	-0.0160292	-0.989746	0.378418	0.095459	0.575186	-0.417194	-0.571325	-0.410729	9.86628	-0.153102	-0.023158	0.0165071	0.0079634	-0.0103078	-1.00195	0.320801	-0.0507812	0.571102	0.282945	-0.702893	0.315796	9.52226	-1.26272	-1.45428	0.0317672	0.0239089	0.0211352	-0.923096	0.536865	0.164795	0.525262	-0.546135	-0.520368	-0.393769	9.50574	-1.59804	-1.23501	0.0104631	0.00607228	0.00846879	-0.932129	0.56543	0.102295	
71	-0.0175461	-0.150486	-0.732987	-0.663156	1.67377	9.379	-1.17723	-0.023873	-0.0181899	0.0558938	-0.506836	-0.797363	0.213867	0.849306	0.329226	-0.411591	-0.0296953	6.741	5.72331	4.40696	-0.050266	-0.0248328	-0.0105643	-0.577881	-0.390137	-0.586914	0.885855	0.428106	0.147472	-0.101184	-3.63256	7.75049	6.18229	-0.135439	0.0360756	-0.00790624	0.637695	-0.631592	-0.498291	0.331764	0.745353	0.127783	-0.563961	-9.10145	3.655	-1.51403	0.022946	-0.0365116	0.0491375	1.01318	-0.0683594	-0.170166	0.727955	0.642582	0.0857167	-0.223209	-4.05003	8.84613	1.45282	0.0574522	-0.00805294	-0.0406023	0.724365	-0.68335	-0.184814	-0.947939	-0.263711	-0.126157	-0.126304	-2.73111	6.72918	10.7687	0.0308644	0.00775465	-0.0732119	0.622803	-0.554688	-0.558838	0.733397	0.184448	-0.654295	-0.0023796	9.38848	2.62071	0.641565	-0.0155818	0.0369285	0.0183166	-0.964355	0.0610352	-0.162109	0.488894	-0.512629	-0.54089	-0.453467	9.5942	-0.190658	-1.11958	0.0301778	0.0311916	-0.00171771	-0.985352	0.380615	0.0905762	0.575555	-0.417166	-0.57123	-0.410373	9.84018	-0.193441	-0.0645668	0.0196138	0.0117072	-0.00444505	-0.997314	0.323242	-0.0551758	0.571257	0.282555	-0.702903	0.315841	9.46043	-1.21989	-1.46683	-0.0254293	0.0126242	0.0152925	-0.925537	0.536865	0.162354	0.525311	-0.546474	-0.520097	-0.39359	9.57227	-1.62677	-1.38766	-0.0111191	0.00469374	0.0163169	-0.927734	0.563477	0.111328	
72	-0.0170342	-0.151097	-0.732544	-0.66352	1.76958	9.1931	-1.13693	-0.0128464	0.0110464	0.0183953	-0.50708	-0.79541	0.220215	0.849436	0.328879	-0.411578	-0.0300065	6.88543	5.91478	4.37503	-0.0141018	0.0146206	-0.0146474	-0.580322	-0.385742	-0.584717	0.887471	0.424169	0.148852	-0.101583	-3.62413	7.2846	6.17441	-0.152283	0.0337212	-0.0618114	0.62915	-0.625	-0.500732	0.333773	0.744093	0.126527	-0.564722	-8.89486	3.64403	-1.22236	-0.0392765	-0.0564953	0.0345764	1.01318	-0.0705566	-0.172363	0.727463	0.64267	0.0861861	-0.224376	-3.787	8.76271	1.5294	0.0048292	0.0143845	-0.0641222	0.722168	-0.681152	-0.187012	-0.947813	-0.264137	-0.127048	-0.125463	-2.54949	6.44447	10.5244	0.0644241	0.0376091	-0.0636889	0.620361	-0.550293	-0.55249	0.733104	0.184276	-0.654674	-0.00179412	9.54429	2.66041	0.964062	0.0187366	0.00604438	0.00367616	-0.960205	0.0610352	-0.157959	0.489088	-0.512766	-0.54071	-0.453318	9.73001	-0.25702	-0.992104	-0.0203046	0.0172965	-0.00291746	-0.994141	0.380371	0.0952148	0.575647	-0.417344	-0.57107	-0.410285	9.93506	-0.0987811	0.0351768	-0.009405	0.00932915	-0.0142486	-0.995361	0.330078	-0.0507812	0.57112	0.28263	-0.702756	0.316349	9.50123	-1.17838	-1.50658	0.0246061	0.0278756	0.00518705	-0.923096	0.536865	0.166992	0.525775	-0.546405	-0.520004	-0.39319	9.62566	-1.55814	-1.39736	0.0225601	0.0127442	0.0132765	-0.93457	0.569824	0.0976562	
73	-0.016988	-0.15068	-0.732853	-0.663275	1.78307	9.26149	-1.15136	0.0301107	0.00677068	-0.024458	-0.504883	-0.793213	0.218018	0.849686	0.328185	-0.411685	-0.0290519	6.84084	5.77663	4.44755	-0.0129789	0.0239674	0.032	-0.57373	-0.385742	-0.58252	0.887883	0.423169	0.149477	-0.101239	-3.58895	7.49006	6.1013	0.00592279	0.0148835	0.00538378	0.635498	-0.623047	-0.498535	0.335163	0.743429	0.127183	-0.564626	-8.94357	3.42573	-1.51368	-0.037605	0.00658658	0.00890824	1.00244	-0.0771484	-0.176514	0.727309	0.642796	0.0862465	-0.22449	-4.06469	9.10923	1.45763	-0.021316	0.0105239	-0.0220062	0.724365	-0.678955	-0.180176	-0.947905	-0.263235	-0.127934	-0.12576	-2.7531	6.09502	10.3806	-0.0255181	0.0420506	-0.00891426	0.620361	-0.548096	-0.554688	0.733135	0.183981	-0.654724	-0.000629357	9.56187	2.53708	0.576402	0.0443509	0.0239204	0.0316962	-0.968994	0.0654297	-0.160156	0.489106	-0.512999	-0.540087	-0.453778	9.71755	-0.219765	-0.983826	-0.00619694	0.0351553	-0.00848366	-0.987549	0.380615	0.0883789	0.575259	-0.417942	-0.570678	-0.410766	10.0209	-0.0323217	0.0984079	-0.0436747	0.0057764	-0.0207004	-0.995117	0.323242	-0.048584	0.57109	0.282557	-0.702824	0.316316	9.54889	-1.17464	-1.47925	-0.00566497	0.00938362	0.00716345	-0.923096	0.536865	0.164795	0.525598	-0.546764	-0.519165	-0.394034	9.82279	-1.53625	-1.27836	-0.0746352	0.0537236	-0.0015342	-0.92749	0.559082	0.104492	
74	-0.0164895	-0.150115	-0.733977	-0.662171	1.83146	9.70953	-1.16365	0.060554	0.0159439	0.00600857	-0.506836	-0.799805	0.222412	0.849523	0.327765	-0.412429	-0.0279889	6.9798	5.7425	4.47316	0.00337373	0.00901887	0.0277552	-0.578125	-0.381348	-0.58252	0.887528	0.424207	0.149168	-0.100459	-3.92783	7.48388	6.12921	0.0343124	0.0164354	0.0634459	0.624756	-0.62915	-0.496094	0.336001	0.743019	0.127192	-0.564667	-9.04861	3.35681	-1.38733	-0.0425113	-0.000337662	0.0224259	1.00903	-0.0749512	-0.176514	0.727853	0.642266	0.0866303	-0.224095	-3.93931	8.72328	1.51567	-0.0698947	0.0365137	-0.00528398	0.719727	-0.674561	-0.184814	-0.947822	-0.263165	-0.128366	-0.126092	-2.71791	6.5013	10.3912	0.00952536	0.0432396	-0.00579156	0.622559	-0.550293	-0.556885	0.733246	0.183832	-0.654642	-4.11888e-05	9.61728	2.58914	0.913621	0.0344324	0.0308412	0.0239332	-0.9646	0.0654297	-0.160156	0.488515	-0.513847	-0.539156	-0.454561	9.71138	-0.145365	-1.28653	-0.0667532	0.0159018	-0.0133046	-0.991943	0.382568	0.0952148	0.574765	-0.418995	-0.569582	-0.411905	9.87877	-0.334766	-0.0657737	-0.0474497	0.0211213	-0.0128561	-0.997559	0.325439	-0.0529785	0.571173	0.281995	-0.703248	0.315725	9.65413	-1.27304	-1.38741	0.00707027	0.00616567	0.00735045	-0.923096	0.532471	0.171631	0.526126	-0.546471	-0.518542	-0.394556	9.61802	-1.521	-1.18601	0.0175446	0.0404269	-0.000473354	-0.932129	0.563232	0.100098	
75	-0.0156223	-0.150475	-0.734068	-0.66201	1.77396	9.60093	-1.18742	0.0252631	0.0261746	0.0646624	-0.506836	-0.797607	0.224609	0.849473	0.327622	-0.412665	-0.0276802	6.85355	5.70637	4.46145	-0.00383591	0.00221856	0.0124141	-0.575928	-0.385742	-0.58252	0.887417	0.424476	0.149205	-0.100243	-3.90646	7.6896	6.18352	0.0202534	0.0165432	0.0139692	0.633301	-0.627197	-0.498535	0.336639	0.742978	0.127178	-0.564344	-9.1101	3.28924	-1.54366	-0.0402534	0.0161014	0.0400481	1.00903	-0.0749512	-0.185547	0.72817	0.641941	0.0864468	-0.224071	-4.15944	8.88691	1.69867	-0.00660685	0.00282431	-0.0319846	0.724121	-0.674561	-0.187012	-0.947899	-0.262678	-0.128494	-0.126403	-2.95513	6.38929	10.607	0.0298444	0.00958962	-0.0232981	0.622803	-0.554688	-0.554688	0.73393	0.183777	-0.653889	0.00143281	9.48877	2.57757	0.615856	0.0168281	0.0776763	0.00832217	-0.9646	0.0654297	-0.162354	0.488631	-0.513702	-0.538879	-0.454928	9.53057	-0.343068	-1.06632	-0.0108077	0.0539117	-0.0217782	-0.987793	0.382812	0.0905762	0.574957	-0.418881	-0.569473	-0.411903	9.84511	-0.106203	0.0251637	0.0139038	0.0246704	-0.0163729	-0.997559	0.325439	-0.0507812	0.571144	0.281853	-0.703294	0.315802	9.59975	-1.22234	-1.21315	-0.00133095	0.0148102	0.0158132	-0.921143	0.539307	0.166992	0.52577	-0.547007	-0.517957	-0.395058	9.56681	-1.65154	-1.11909	-0.0746787	0.0212275	0.0118048	-0.927734	0.567871	0.0998535	
76	-0.0147816	-0.151933	-0.733394	-0.662443	1.71566	9.26338	-1.21097	-0.043222	-0.0188679	0.0649459	-0.509277	-0.79541	0.220215	0.849706	0.327083	-0.412593	-0.0279765	6.84239	5.66785	4.36395	-0.0329965	0.0325004	-0.029257	-0.575928	-0.381348	-0.587158	0.888193	0.422425	0.149897	-0.101006	-3.86234	7.46006	6.04532	-0.0838958	2.80987e-05	-0.0487754	0.635498	-0.618652	-0.498779	0.337318	0.742512	0.126315	-0.564746	-9.06697	3.4754	-1.43099	-0.00885342	-0.0284832	0.0277386	1.00903	-0.0749512	-0.178711	0.727423	0.64256	0.0866246	-0.224652	-4.01873	8.75286	1.52271	0.0344432	-0.00790908	-0.0321104	0.72876	-0.681152	-0.189209	-0.947774	-0.263455	-0.12909	-0.125102	-2.72956	6.41934	10.4917	0.0254427	0.00657939	-0.0816872	0.628906	-0.550293	-0.556885	0.734288	0.183784	-0.653484	0.00158505	9.50413	2.50701	0.800017	0.00261198	0.0477409	-0.0138257	-0.958252	0.067627	-0.164551	0.489508	-0.512889	-0.539258	-0.454453	9.57888	-0.205287	-1.02102	0.066018	0.0259252	-0.0180244	-0.98999	0.384766	0.0905762	0.575278	-0.418705	-0.569443	-0.411674	9.78394	-0.279309	-0.00643272	0.0333244	0.0111774	-0.013976	-0.997803	0.330078	-0.048584	0.571132	0.282063	-0.702836	0.316656	9.53206	-1.25907	-1.36114	0.0308051	0.0354708	0.0116998	-0.925537	0.536865	0.166992	0.526054	-0.547029	-0.518084	-0.394482	9.56091	-1.46832	-1.2983	0.0336627	-0.00766933	0.011188	-0.936768	0.567627	0.104492	
77	-0.0149287	-0.152601	-0.73251	-0.663264	1.71085	9.10886	-1.15113	-0.0408044	-0.0257978	-9.24726e-05	-0.509277	-0.793213	0.220215	0.849894	0.326856	-0.412345	-0.0285931	6.86328	5.81296	4.36859	-0.0139118	0.0218625	-0.0401857	-0.578125	-0.383545	-0.584717	0.88796	0.422257	0.150566	-0.10274	-3.39928	7.12607	6.02342	0.0444147	0.000623091	-0.107438	0.631104	-0.620605	-0.503174	0.335995	0.742775	0.125871	-0.565287	-8.86034	3.58521	-1.31892	0.0905798	-0.00486706	-0.0371767	1.00903	-0.0749512	-0.18335	0.727108	0.642597	0.0865192	-0.225606	-3.79523	8.59452	1.57671	0.0200767	0.00111894	-0.0415089	0.726318	-0.676758	-0.187012	-0.947679	-0.263989	-0.129455	-0.124317	-2.70385	6.22527	10.4941	0.0444874	0.0113849	-0.0520266	0.624756	-0.550293	-0.559082	0.734534	0.183669	-0.65324	0.00178426	9.47026	2.57881	0.735262	-0.00203302	0.0217666	-0.0124667	-0.9646	0.0654297	-0.162354	0.489821	-0.512791	-0.539167	-0.454334	9.64419	-0.226629	-0.885314	-0.0148297	0.0261116	-0.000682784	-0.987549	0.378418	0.0859375	0.575373	-0.418689	-0.569449	-0.41155	9.8993	-0.187036	0.0698616	-0.00784774	0.00836096	-0.0194712	-0.997559	0.325439	-0.048584	0.571358	0.281905	-0.702733	0.316617	9.48858	-1.08033	-1.4942	-0.00989312	0.0128011	-0.00272299	-0.921143	0.539307	0.169189	0.526131	-0.547255	-0.518077	-0.394075	9.68668	-1.71407	-1.43593	0.011666	-0.00096588	0.00558574	-0.929932	0.563477	0.106934	
78	-0.0155467	-0.152226	-0.732291	-0.663578	1.80554	9.4164	-1.10881	-0.0135502	-0.00811138	-0.0264809	-0.509033	-0.797607	0.222412	0.850054	0.326641	-0.412145	-0.0291601	6.89579	5.81129	4.49301	-0.0350444	0.0258588	-0.0310508	-0.578125	-0.383545	-0.58252	0.886641	0.425295	0.14958	-0.103046	-3.6435	7.36167	6.26826	0.142694	-0.0120606	0.0346909	0.635498	-0.622803	-0.500977	0.333954	0.743233	0.125785	-0.565913	-8.80361	3.45673	-1.08468	0.0534561	0.010258	-0.037866	1.01318	-0.0727539	-0.181152	0.726831	0.642958	0.0860472	-0.225651	-3.99784	8.92195	1.54377	0.04275	-0.0134267	0.00458546	0.728516	-0.678955	-0.184814	-0.947546	-0.264368	-0.129632	-0.124344	-2.83794	6.21584	10.5554	0.0410767	0.00331101	-2.03931e-05	0.622559	-0.548096	-0.554688	0.734878	0.183012	-0.653037	0.00174343	9.63727	2.6866	0.828196	-0.0203137	0.0436976	0.00226981	-0.964844	0.067627	-0.166504	0.489565	-0.513444	-0.53844	-0.454734	9.71459	-0.230172	-0.875657	-0.0475757	0.0405863	-3.02082e-05	-0.993896	0.378418	0.0930176	0.574933	-0.419347	-0.569105	-0.41197	9.9012	-0.128325	0.0685723	-0.036777	0.00119339	-0.0162534	-0.997559	0.325439	-0.0529785	0.571512	0.281082	-0.703168	0.316104	9.61498	-1.44411	-1.41334	-0.0420219	0.0119743	0.0231908	-0.923096	0.534668	0.171631	0.525765	-0.547881	-0.517512	-0.394435	9.64657	-1.76258	-1.30667	-0.0524033	0.00860738	0.00899499	-0.929688	0.561279	0.109131	
79	-0.0155757	-0.152362	-0.732251	-0.66359	1.84373	9.51212	-1.1039	-0.000908221	-0.00919625	0.0133335	-0.509033	-0.797607	0.218018	0.850459	0.325647	-0.412075	-0.02945	6.84577	5.64712	4.45874	-0.0545537	0.0010269	-0.013311	-0.573975	-0.381348	-0.587158	0.886142	0.426537	0.149259	-0.102667	-3.80275	7.6319	6.16401	0.00571505	0.00392864	0.0351046	0.635498	-0.618652	-0.494141	0.334608	0.743146	0.126755	-0.565424	-9.10154	3.50212	-1.50038	-0.0654701	0.0298695	-0.00797088	1.00439	-0.0705566	-0.178955	0.726426	0.643386	0.0865091	-0.225558	-4.10014	8.86935	1.44933	0.0117948	0.0165671	-0.0123988	0.73291	-0.676758	-0.189209	-0.94741	-0.264508	-0.12983	-0.124876	-2.73472	6.62188	10.4109	-0.0149791	0.0168737	0.00344878	0.622559	-0.550293	-0.55249	0.735197	0.182414	-0.652846	0.00169319	9.50446	2.41598	0.783563	0.0237637	0.0139813	-0.00989696	-0.960693	0.0739746	-0.168945	0.489044	-0.514304	-0.537663	-0.455243	9.62798	-0.349791	-1.26874	-0.0230443	0.00765901	-0.000478344	-0.987549	0.378418	0.095459	0.57453	-0.420077	-0.568637	-0.412435	9.89285	-0.312142	-0.0898404	-0.0228437	0.00667166	-0.0150596	-0.995117	0.323242	-0.0529785	0.571545	0.28052	-0.703304	0.31624	9.54063	-1.19306	-1.35662	-0.00514745	0.0182028	0.0199754	-0.921143	0.541504	0.169189	0.525708	-0.548072	-0.517363	-0.394441	9.67465	-1.61667	-1.30917	0.00629035	0.00270173	0.00222602	-0.930176	0.570068	0.102051	
80	-0.0150769	-0.152935	-0.732144	-0.663588	1.84251	9.28011	-1.12956	0.0068322	-0.00777391	0.0273521	-0.509033	-0.797607	0.220215	0.850443	0.325634	-0.412114	-0.0295131	6.82104	5.58525	4.47598	-0.00670818	0.00852734	-0.0206553	-0.576172	-0.37915	-0.587402	0.886719	0.425288	0.149422	-0.102628	-3.80993	7.58415	6.21058	-0.0551887	-0.00514225	-0.0247558	0.635498	-0.623047	-0.496338	0.334142	0.743188	0.12702	-0.565586	-9.2196	3.35526	-1.46678	0.0201876	-0.00304575	-0.0106703	1.01147	-0.0793457	-0.180908	0.726699	0.643103	0.0865241	-0.225479	-4.02169	8.80979	1.48967	-0.0190519	0.00633937	-0.00342718	0.73291	-0.678955	-0.187012	-0.947385	-0.264261	-0.130122	-0.125286	-2.74463	6.57293	10.4158	0.0143157	0.0134412	-0.0173442	0.622803	-0.554688	-0.554688	0.735449	0.182524	-0.65253	0.00194696	9.56051	2.43252	0.758149	0.0145632	0.0236594	-0.0138664	-0.964844	0.067627	-0.162354	0.489467	-0.513925	-0.537846	-0.455	9.60744	-0.187166	-0.905844	0.0361183	0.0298867	-0.0230721	-0.987793	0.382812	0.0930176	0.574652	-0.419967	-0.568691	-0.412302	9.84219	-0.0268932	-0.0187451	0.00634391	0.00672759	-0.0185555	-0.997559	0.327881	-0.0529785	0.571512	0.280431	-0.703501	0.315942	9.61565	-1.20886	-1.42408	-0.00682073	0.00088484	-0.00749425	-0.918701	0.537109	0.164795	0.525757	-0.548105	-0.517085	-0.394694	9.70589	-1.64183	-1.29019	-0.00387556	0.0165724	-0.0036174	-0.927979	0.570068	0.102051	
81	-0.0147392	-0.153161	-0.732201	-0.66348	1.85926	9.23058	-1.1744	0.00598797	0.000132638	0.00696184	-0.509277	-0.793213	0.222412	0.850161	0.326366	-0.412133	-0.0292796	6.87403	5.77998	4.52378	0.0110875	0.0193376	-0.0091802	-0.578125	-0.381348	-0.580078	0.886787	0.425175	0.149475	-0.10243	-3.75635	7.31113	6.05644	0.0179792	0.00317933	0.00253031	0.637695	-0.623047	-0.496338	0.333722	0.743155	0.126757	-0.565936	-9.02759	3.4335	-1.38052	0.0196986	-0.0102872	-0.00384533	1.00903	-0.0749512	-0.181152	0.726927	0.642861	0.0866025	-0.225402	-4.12147	8.94942	1.43983	-0.00938309	0.00649076	-0.0160432	0.728516	-0.678955	-0.184814	-0.947553	-0.263469	-0.130335	-0.12546	-2.81286	6.46079	10.5896	-0.0169871	0.0174108	-0.0208698	0.620361	-0.548096	-0.552734	0.735515	0.183232	-0.652255	0.00259566	9.58941	2.66599	1.00201	0.0565054	0.0185319	-0.0188464	-0.962891	0.0720215	-0.164551	0.489768	-0.513573	-0.538267	-0.454576	9.78625	-0.26627	-1.15475	0.0515191	0.0145668	-0.0141292	-0.98999	0.386963	0.0927734	0.57515	-0.41953	-0.568852	-0.411831	9.98045	-0.218868	0.165325	0.0440302	0.0208632	-0.015091	-0.995361	0.330078	-0.0507812	0.571361	0.280919	-0.703266	0.316305	9.63563	-1.3231	-1.35257	0.0248148	0.0189146	-0.00335112	-0.927734	0.539062	0.169189	0.525967	-0.547972	-0.517144	-0.394521	9.6723	-1.71751	-1.25591	-0.000713881	0.00675231	-4.62462e-05	-0.927979	0.572266	0.104492	
82	-0.0146578	-0.152897	-0.732409	-0.663313	1.85243	9.26549	-1.154	0.0213454	0.0129702	-0.0149289	-0.511719	-0.791016	0.218018	0.850195	0.326513	-0.411969	-0.0289591	6.85852	5.85155	4.48525	0.0106709	0.0316049	-0.00798006	-0.573975	-0.381348	-0.587158	0.886502	0.425889	0.149406	-0.102027	-3.66659	7.51751	6.14491	0.00875069	0.0227747	0.0346322	0.62915	-0.622803	-0.498535	0.334234	0.742802	0.126762	-0.566096	-8.92146	3.54937	-1.23396	-0.0447293	-0.00039462	0.0124498	1.01123	-0.0749512	-0.174316	0.727123	0.642596	0.0867164	-0.225483	-4.02649	8.94581	1.53355	-0.0283564	0.0039885	-0.0233942	0.726318	-0.674561	-0.184814	-0.947503	-0.263473	-0.130526	-0.125632	-2.73245	6.49076	10.5522	0.0130203	0.0216381	-0.0118405	0.626953	-0.55249	-0.55249	0.735689	0.18344	-0.652	0.00278361	9.59356	2.66467	0.938155	0.0326006	0.0383219	-0.0210257	-0.958008	0.0632324	-0.172852	0.490226	-0.513153	-0.538414	-0.454381	9.69871	-0.234547	-0.828274	0.0536819	0.0389565	-0.0168229	-0.992188	0.38916	0.0927734	0.575312	-0.419445	-0.568833	-0.411718	9.91885	-0.0629534	0.110053	0.020146	0.0146918	-0.0143236	-0.995117	0.325684	-0.0551758	0.571326	0.280925	-0.703244	0.31641	9.60414	-1.24696	-1.46266	0.00827328	0.01436	0.00735117	-0.92334	0.539062	0.166992	0.526099	-0.547912	-0.517159	-0.394409	9.66568	-1.51465	-1.31721	0.00777499	0.00789201	-0.00197182	-0.93042	0.574463	0.102051	
83	-0.0147568	-0.152255	-0.732613	-0.663234	1.86075	9.43204	-1.15837	-0.00439601	0.00724376	-0.0281169	-0.515625	-0.797607	0.220215	0.850227	0.326347	-0.412042	-0.0288693	6.87677	5.76798	4.44421	-0.0195738	0.00597986	-0.0113485	-0.575928	-0.381348	-0.58252	0.88674	0.425522	0.14939	-0.101513	-3.69944	7.67523	6.15904	-0.0393655	0.0139386	0.0330553	0.62915	-0.622803	-0.498535	0.335081	0.742585	0.127165	-0.565789	-9.04838	3.41166	-1.48411	-0.0763207	0.0156886	0.022412	1.01318	-0.0725098	-0.185547	0.726871	0.642849	0.0867109	-0.225577	-4.03149	8.84424	1.54466	0.0248066	0.00783716	-0.0117937	0.721924	-0.674561	-0.182373	-0.947634	-0.262682	-0.130669	-0.126147	-2.80343	6.13099	10.4301	-0.0202681	0.0130032	-0.00539643	0.624512	-0.548096	-0.556885	0.735817	0.1836	-0.65181	0.00276476	9.56213	2.52379	0.862852	0.0207416	0.0170043	-0.0259334	-0.960205	0.0632324	-0.164307	0.489945	-0.513426	-0.538302	-0.454509	9.6337	-0.184523	-0.956417	-0.0221533	0.00437603	-0.0135734	-0.992188	0.384766	0.0930176	0.575222	-0.419681	-0.568553	-0.411989	9.81668	-0.201001	0.0544152	-0.00113008	0.011598	-0.0240874	-0.995117	0.323242	-0.0551758	0.5712	0.281019	-0.7032	0.316651	9.54236	-1.11214	-1.35814	0.00284006	0.0202204	0.000539709	-0.923096	0.536865	0.169189	0.526099	-0.547912	-0.517159	-0.394409	9.66568	-1.51465	-1.31721	0.00777499	0.00789201	-0.00197182	-0.93042	0.574463	0.102051	
84	-0.0146779	-0.151251	-0.732444	-0.663652	1.82148	9.43705	-1.1435	-0.0218545	0.0217872	-0.0194947	-0.50708	-0.793213	0.218018	0.850185	0.326382	-0.412125	-0.028517	6.87185	5.6519	4.46271	0.0119983	0.00422118	-0.00618491	-0.573975	-0.37915	-0.580322	0.886796	0.425704	0.148775	-0.101168	-3.69033	7.40681	6.21237	0.0674806	-0.022818	0.012703	0.631104	-0.622803	-0.500977	0.334567	0.743165	0.126798	-0.565413	-9.34696	3.56442	-1.40715	0.0409464	0.0229599	0.00557549	1.01099	-0.0705566	-0.176758	0.727023	0.642689	0.0868325	-0.225498	-3.99218	8.83001	1.54667	-0.0212585	0.0147365	-0.0148133	0.728516	-0.678955	-0.187012	-0.947519	-0.262774	-0.130703	-0.126785	-2.759	6.60196	10.4941	-0.00733569	0.0138974	0.000316647	0.622559	-0.550293	-0.556885	0.736452	0.183224	-0.651199	0.002556	9.44976	2.56594	0.837035	-0.0168536	0.0469549	-0.0131734	-0.962646	0.0654297	-0.172852	0.489654	-0.513917	-0.537785	-0.454879	9.65228	-0.221623	-1.0119	-0.0341267	0.0101241	-0.00686882	-0.985352	0.380615	0.0905762	0.574648	-0.420454	-0.568182	-0.412513	9.94806	-0.161932	0.0317743	-0.0566934	0.000409681	-0.0185181	-0.995361	0.327881	-0.0507812	0.571456	0.280223	-0.703802	0.315556	9.60448	-1.14162	-1.54748	-0.0354745	0.00613214	-0.000177005	-0.918945	0.539307	0.171631	0.525606	-0.548265	-0.516378	-0.395598	9.58692	-1.5162	-1.19982	-0.0734374	0.0211795	-0.00665173	-0.932617	0.572266	0.108887	
85	-0.0140451	-0.151092	-0.732543	-0.663592	1.8399	9.40061	-1.09251	0.0254751	0.0228446	0.0207474	-0.509033	-0.797607	0.222412	0.850156	0.327102	-0.411629	-0.0282933	6.9119	5.66272	4.39195	0.0406279	0.0458732	-0.0368547	-0.576172	-0.37915	-0.58252	0.886396	0.426352	0.149209	-0.10131	-3.7877	7.449	6.31733	0.0586013	0.0392152	-0.0215823	0.62915	-0.627197	-0.50293	0.334598	0.743233	0.126512	-0.56537	-9.16152	3.61131	-1.29374	0.0140039	0.00314369	0.0228095	1.01099	-0.0683594	-0.176758	0.727584	0.642106	0.0869954	-0.225284	-4.08665	8.9004	1.57403	-0.0274956	0.0152732	-0.022687	0.730469	-0.672363	-0.187012	-0.947632	-0.262238	-0.130716	-0.127036	-2.8438	6.61554	10.5428	0.00624341	0.00914549	-0.0295359	0.626953	-0.550293	-0.556885	0.736877	0.183386	-0.650674	0.00233951	9.66676	2.5008	0.78497	0.0114884	0.0469946	-0.034358	-0.9646	0.0610352	-0.172852	0.489442	-0.514097	-0.537709	-0.454995	9.6766	-0.218122	-1.04742	-0.0190622	0.00972996	-0.0180106	-0.985596	0.384766	0.0952148	0.574099	-0.42104	-0.568055	-0.412855	9.761	-0.12311	-0.0104893	-0.0185596	-0.0109271	-0.024503	-0.993164	0.330078	-0.0463867	0.571649	0.280012	-0.703788	0.315425	9.5277	-1.18523	-1.35127	-0.0197051	0.0272	0.00268528	-0.925537	0.536865	0.166992	0.525475	-0.548385	-0.516285	-0.395727	9.53633	-1.87596	-1.25977	-0.0149766	0.00712867	-0.00484573	-0.930176	0.567871	0.109131	
