40	Head	00b4120a												Throax	00b411e8												LUpArm	00b411d9												LFoArm	00b41148												RUpArm	00b411db												RFoArm	00b41204												Waist	00b411f7												Lthigh	00b411f4												Lshank	00b4111b												Rthigh	00b411c8												Rshank	00b411ee												
PacketCount	q0	q1	q2	q3	accX	accY	accZ	gyrX	gyrY	gyrZ	magX	magY	magZ	q0	q1	q2	q3	accX	accY	accZ	gyrX	gyrY	gyrZ	magX	magY	magZ	q0	q1	q2	q3	accX	accY	accZ	gyrX	gyrY	gyrZ	magX	magY	magZ	q0	q1	q2	q3	accX	accY	accZ	gyrX	gyrY	gyrZ	magX	magY	magZ	q0	q1	q2	q3	accX	accY	accZ	gyrX	gyrY	gyrZ	magX	magY	magZ	q0	q1	q2	q3	accX	accY	accZ	gyrX	gyrY	gyrZ	magX	magY	magZ	q0	q1	q2	q3	accX	accY	accZ	gyrX	gyrY	gyrZ	magX	magY	magZ	q0	q1	q2	q3	accX	accY	accZ	gyrX	gyrY	gyrZ	magX	magY	magZ	q0	q1	q2	q3	accX	accY	accZ	gyrX	gyrY	gyrZ	magX	magY	magZ	q0	q1	q2	q3	accX	accY	accZ	gyrX	gyrY	gyrZ	magX	magY	magZ	q0	q1	q2	q3	accX	accY	accZ	gyrX	gyrY	gyrZ	magX	magY	magZ	
0	0.542311	-0.432548	-0.449663	-0.562676	9.78052	0.282698	2.24138	0.00482613	0.010406	0.00389124	-0.897217	0.370117	-0.219482	0.678412	-0.357244	-0.439993	-0.467483	9.23994	-0.752948	3.61633	-0.00656316	0.0254117	-0.00201752	-0.750732	0.370361	-0.288574	0.753429	-0.0290112	0.0513171	-0.654881	-0.35691	-1.02768	10.7193	-0.00215196	0.0309366	-0.0198345	0.0395508	0.41333	-0.916992	0.829171	-0.00860529	0.0569707	-0.556017	-0.960417	-1.17661	9.50559	0.059084	0.0198037	0.00757622	0.2854	0.521484	-0.896484	0.733493	0.0722522	-0.0605056	-0.673132	0.0154136	1.63948	9.21853	0.0383655	-0.0493587	0.00516482	0.0681152	0.197266	-1.00366	-0.59624	-0.231674	-0.0118419	0.76856	-1.45241	0.862024	13.3827	-0.0438037	0.0260314	0.00496914	0.197266	0.375244	-1.01709	0.483816	-0.429564	-0.736505	-0.197373	8.4252	-1.33977	-4.22579	0.0402072	0.0424127	-0.00945961	-0.792969	0.478516	0.424072	0.727727	-0.177551	0.0455068	-0.660922	2.16069	-3.48276	10.3354	0.0563042	0.0040559	0.0235741	-0.100586	0.693848	-0.794189	0.281213	-0.55466	-0.774518	-0.115732	5.57386	-1.26045	-7.73812	0.0768035	0.024138	-0.063128	-0.686768	0.444824	0.734131	0.993142	0.0910739	-0.0729178	0.00753408	1.6932	2.11946	10.18	0.0599338	0.0231458	0.0284904	-0.217529	0.212158	-1.0625	0.110212	-0.769116	-0.605376	-0.172723	4.05626	0.669733	-8.82231	-0.0502614	0.00525047	-0.0440276	-0.319092	0.392578	1.01465	
1	0.542838	-0.431743	-0.449336	-0.563047	9.84063	0.386899	2.32244	0.0146517	0.0408534	-0.00443432	-0.89917	0.365723	-0.22583	0.678487	-0.357434	-0.440004	-0.467218	9.34491	-0.697489	3.60243	-0.00708453	-0.00460671	-0.00348768	-0.75293	0.372559	-0.281738	0.753968	-0.0258442	0.049234	-0.654553	-0.482218	-1.0973	10.8653	0.197315	0.013086	0.0223524	0.0397949	0.404785	-0.918945	0.829087	-0.00621054	0.0554323	-0.55633	-0.975713	-0.714687	9.6591	0.229913	0.0120838	-0.013227	0.287842	0.514893	-0.898438	0.733717	0.0719091	-0.0594047	-0.673023	-0.154193	2.63358	9.88547	-0.0809821	0.0556418	-0.00237771	0.0786133	0.204102	-1.0105	-0.597298	-0.229733	-0.0140774	0.768283	-1.42972	0.678359	13.254	-0.244951	0.00621799	0.0177703	0.188477	0.381592	-1.01074	0.484421	-0.429023	-0.736637	-0.196573	8.42844	-1.23459	-4.12599	0.102231	0.0219894	-0.0120571	-0.801758	0.482666	0.421875	0.728576	-0.177245	0.0459522	-0.660038	1.87031	-3.41498	10.1483	0.000697345	0.0183416	0.0387923	-0.092041	0.698242	-0.796631	0.281494	-0.553679	-0.775041	-0.11624	5.03758	-1.38091	-7.33337	0.00483579	0.0213812	-0.0679811	-0.695801	0.437988	0.736328	0.993	0.0925281	-0.0729244	0.00841279	1.75594	2.34112	10.0614	0.0458325	0.00562576	0.0218736	-0.214844	0.203369	-1.06909	0.108849	-0.768572	-0.606131	-0.173362	3.85133	0.133421	-8.822	-0.0106577	-0.016171	-0.0361175	-0.318848	0.388184	1.01904	
2	0.543041	-0.431494	-0.449189	-0.56316	9.71752	0.369603	2.33654	0.00873145	0.0248377	-0.000991773	-0.901611	0.370117	-0.223633	0.678662	-0.357472	-0.439778	-0.467148	9.35246	-0.742184	3.58933	-0.00758275	0.027869	0.000581267	-0.746338	0.372559	-0.279297	0.753937	-0.0250246	0.0483991	-0.654683	-0.334538	-0.506249	10.902	0.0940107	-0.000601065	-0.0108256	0.041748	0.404785	-0.932617	0.829193	-0.00642323	0.0551101	-0.556202	-0.743643	-0.796611	9.72963	-0.0662357	-0.00573953	0.0139296	0.283447	0.51709	-0.903076	0.734898	0.0654889	-0.0537072	-0.672869	-0.111429	1.31063	9.53818	-0.26242	-0.00307652	0.0302181	0.0715332	0.219238	-0.999023	-0.599445	-0.227627	-0.0158216	0.767204	-1.53396	0.0346431	13.2756	-0.010618	-0.00133119	0.0656188	0.194824	0.385986	-1.00879	0.485297	-0.428988	-0.736006	-0.196853	8.56614	-1.23058	-4.25578	0.0299792	0.0648821	-0.00529158	-0.797363	0.482666	0.419678	0.729088	-0.177274	0.045612	-0.659488	1.91982	-3.33118	10.102	0.0249971	-0.0104315	0.0369675	-0.0856934	0.698242	-0.794434	0.281615	-0.553262	-0.775313	-0.116122	5.13947	-1.28872	-7.47101	0.0292618	0.00648827	-0.0549006	-0.684326	0.438232	0.725342	0.993017	0.092135	-0.0731689	0.00860983	1.72791	2.0885	10.2057	-0.0318911	-0.00272803	0.018073	-0.212891	0.207764	-1.06006	0.109006	-0.768586	-0.606249	-0.17279	3.99214	0.505749	-8.8658	0.0437682	-0.0229129	-0.00537451	-0.314453	0.390625	1.01465	
3	0.543612	-0.430943	-0.448762	-0.563371	9.79881	0.346587	2.32932	0.00941784	0.0430793	0.0113726	-0.901367	0.363525	-0.22583	0.679051	-0.357252	-0.439859	-0.466674	9.20128	-0.773264	3.66413	0.0142391	-0.00214783	-0.00361195	-0.750732	0.370361	-0.281494	0.754063	-0.0281714	0.0503599	-0.654263	-0.255418	-1.08961	10.7104	-0.195852	-0.0143954	0.013748	0.0354004	0.40918	-0.919189	0.829312	-0.00693083	0.0554848	-0.555981	-0.848734	-0.961755	9.77178	-0.0500762	0.00888784	0.0192665	0.278809	0.519287	-0.898682	0.735653	0.0679025	-0.0553335	-0.671671	-0.164493	1.51996	9.60209	0.115026	0.0257757	0.0466638	0.0783691	0.210693	-1.00586	-0.600265	-0.228503	-0.0140274	0.766337	-1.53738	1.04817	13.4955	0.0349511	0.0109394	0.0469143	0.192627	0.385986	-1.01318	0.485815	-0.428562	-0.736005	-0.196507	8.4885	-1.19483	-4.05739	0.0125157	0.0117644	-0.0176561	-0.795166	0.478516	0.417725	0.729458	-0.178228	0.0460364	-0.658792	1.97744	-3.33147	10.4986	-0.0474665	0.0132538	0.0092008	-0.0917969	0.693848	-0.789551	0.282278	-0.552888	-0.775422	-0.115567	5.48554	-0.960204	-7.57403	0.0321898	0.0228544	-0.0182245	-0.686523	0.438232	0.725342	0.992889	0.0928752	-0.0738676	0.00945749	1.74992	1.83263	10.1862	0.0632096	0.00193663	0.0331769	-0.215088	0.205566	-1.06006	0.107651	-0.76817	-0.6069	-0.173201	4.16895	0.712572	-8.94671	-0.0721653	-0.0157623	-0.0591352	-0.314453	0.390625	1.01465	
4	0.544757	-0.430102	-0.447855	-0.56363	9.71235	0.245008	2.44699	0.0175471	0.066803	0.0189066	-0.896973	0.365723	-0.228027	0.679367	-0.357062	-0.440125	-0.466108	9.26724	-0.808296	3.70873	0.0269576	-0.00848818	-0.00367161	-0.750732	0.374756	-0.28418	0.754608	-0.0286964	0.0511135	-0.653552	-0.427874	-1.3069	10.8192	0.0499599	0.0119961	0.040139	0.0375977	0.411377	-0.919189	0.829475	-0.00785793	0.0563833	-0.555635	-0.787112	-0.660614	9.76215	-0.0732818	0.0193064	0.0188095	0.281006	0.519287	-0.898682	0.736194	0.0684795	-0.0553167	-0.671021	-0.133801	1.90877	9.83539	-0.069461	0.0395932	0.0134519	0.0761719	0.210693	-1.0083	-0.600682	-0.228926	-0.0137163	0.765889	-1.40429	0.905505	13.4646	0.038234	0.0280226	-0.0204711	0.198975	0.385986	-1.01099	0.486305	-0.427924	-0.736264	-0.195716	8.49168	-1.34007	-4.28533	0.0577798	-0.00310568	-0.0230774	-0.799316	0.478516	0.419678	0.729497	-0.177622	0.0462034	-0.6589	1.9258	-3.3656	10.4274	0.0221874	0.0553685	-0.0202652	-0.0876465	0.693848	-0.794189	0.282849	-0.552698	-0.775338	-0.115642	5.50455	-0.911832	-7.56439	-0.00757162	0.0281674	-0.0301507	-0.691406	0.442627	0.729736	0.992786	0.0938715	-0.0739652	0.00968172	1.69441	2.18663	10.1816	0.0804728	0.00774625	0.0130364	-0.219238	0.201172	-1.06445	0.106942	-0.768056	-0.607069	-0.173552	4.05395	0.150637	-8.86831	0.0368193	-3.41584e-05	0.00829199	-0.318604	0.381592	1.01465	
5	0.545462	-0.42955	-0.447731	-0.563467	9.6527	0.294547	2.4449	0.0271559	0.0052304	0.0108774	-0.894775	0.365723	-0.22998	0.679484	-0.356856	-0.44052	-0.465722	9.36995	-0.71798	3.46817	0.0121364	0.0257727	-0.0199634	-0.746582	0.374756	-0.28418	0.755143	-0.0285521	0.0505663	-0.652983	-0.345914	-0.796636	10.9069	-0.0311603	-0.00208176	0.0367608	0.0375977	0.40918	-0.921387	0.830092	-0.00900781	0.0573347	-0.554598	-0.857355	-1.00112	9.72477	0.00765039	0.00532988	0.0464209	0.2854	0.519287	-0.898682	0.736766	0.0673431	-0.0537935	-0.670632	-0.0420701	1.94208	9.63109	-0.0316494	0.0280004	-0.00264149	0.0827637	0.212646	-0.999023	-0.600356	-0.228691	-0.0147911	0.766195	-1.40603	0.492607	13.515	-0.0418719	0.0319551	-0.0280884	0.197266	0.379395	-1.01294	0.486628	-0.427417	-0.736435	-0.195376	8.47396	-1.22803	-4.04574	0.0446857	0.0240776	-0.0251461	-0.789062	0.487061	0.411133	0.729407	-0.176894	0.0458287	-0.659222	1.77607	-3.22137	10.0383	0.0394246	0.0252796	-0.0386877	-0.0898438	0.696045	-0.791992	0.282583	-0.552673	-0.775385	-0.116097	5.19423	-1.15277	-7.30742	-0.0119836	-0.00437522	-0.0190611	-0.693604	0.442627	0.731934	0.992935	0.0925874	-0.0735709	0.00972835	1.59734	1.80278	10.2588	-0.024391	0.0316055	0.00649585	-0.214844	0.203369	-1.06445	0.107541	-0.768309	-0.606845	-0.172848	4.1604	0.674821	-8.89465	0.00976261	0.00310057	0.00705231	-0.318848	0.390381	1.01221	
6	0.545886	-0.429525	-0.44777	-0.563044	9.80617	0.289435	2.39983	0.0148407	-0.00306509	0.0181828	-0.897217	0.372314	-0.232422	0.679481	-0.356877	-0.440846	-0.465403	9.28279	-0.741584	3.60628	-0.00730937	-0.0225734	-0.0103102	-0.748779	0.376953	-0.28418	0.755415	-0.0293249	0.0514131	-0.652568	-0.282503	-1.08873	10.8681	-0.0918764	0.0154764	0.0355355	0.0439453	0.415527	-0.921631	0.830613	-0.00978263	0.0582774	-0.553706	-0.834171	-0.755503	9.73262	-0.0961178	0.0210482	0.0438953	0.2854	0.521484	-0.896484	0.736868	0.0687858	-0.0540455	-0.670353	-0.0274988	1.29764	9.48552	0.073618	0.0191071	-0.00549043	0.0847168	0.215088	-1.00146	-0.600668	-0.229484	-0.0150648	0.765708	-1.48232	0.522971	13.3247	0.030671	0.052491	0.00344573	0.199219	0.383789	-1.01733	0.487194	-0.426914	-0.736262	-0.195716	8.52684	-1.25485	-4.10828	0.0223499	0.036656	-0.0264668	-0.803711	0.478516	0.411133	0.729097	-0.177328	0.0457365	-0.659454	1.99141	-3.50759	10.2903	0.00103439	0.00734473	-0.0341403	-0.0961914	0.693848	-0.798828	0.282104	-0.552993	-0.775374	-0.115809	5.38778	-1.29356	-7.62018	0.0142484	-0.0153275	-0.00325191	-0.693604	0.440186	0.729736	0.992902	0.0929007	-0.0736243	0.00971275	1.74758	2.30373	10.1752	-0.00114397	0.00369773	-0.0100008	-0.217041	0.198975	-1.06201	0.108378	-0.768618	-0.606603	-0.171794	3.83026	0.215919	-8.83979	0.102037	-0.0154832	0.039902	-0.314453	0.390625	1.00781	
7	0.545875	-0.429807	-0.447716	-0.562882	9.80644	0.279511	2.37112	-0.0105709	-0.00796078	0.00147245	-0.901611	0.36792	-0.230225	0.67977	-0.356387	-0.440579	-0.46561	9.31691	-0.723088	3.6478	0.0132199	0.0442469	-0.0193051	-0.746582	0.376953	-0.281738	0.755906	-0.0297191	0.0522704	-0.651913	-0.423916	-1.45146	10.8289	0.0434758	0.0283335	0.043664	0.0395508	0.413574	-0.923828	0.830733	-0.00856797	0.0577902	-0.553597	-0.793367	-0.639508	9.68054	0.0717643	0.0180011	0.00299962	0.287354	0.523682	-0.898682	0.736858	0.0710908	-0.0556566	-0.669991	-0.310543	2.02886	9.76426	0.0534032	0.030603	-0.0092433	0.0874023	0.206299	-1.00586	-0.600311	-0.230736	-0.0137963	0.765635	-1.51952	0.855231	13.1526	0.0528838	0.0191294	-0.0198748	0.199219	0.379395	-1.01294	0.487381	-0.426786	-0.736039	-0.19637	8.48846	-1.33983	-4.36223	-0.0404058	0.0318361	-0.0224795	-0.801514	0.480713	0.411133	0.72858	-0.177516	0.0454899	-0.659993	2.06895	-3.39817	10.3985	-0.00941847	0.010299	-0.0503647	-0.0942383	0.696045	-0.796631	0.281641	-0.553637	-0.775104	-0.115665	5.4396	-1.36552	-7.70359	-0.00525717	-0.00600531	0.00742888	-0.688965	0.44043	0.727539	0.99319	0.0897598	-0.0737317	0.00896703	1.78845	1.76077	10.0444	-0.119228	0.00912008	-0.0213014	-0.219727	0.212158	-1.0625	0.110408	-0.769673	-0.605586	-0.169346	4.0108	0.524484	-8.91309	0.117527	-0.024159	0.0755282	-0.314697	0.399414	1.01221	
8	0.54546	-0.429659	-0.447964	-0.5632	9.73602	0.282893	2.36814	0.00777768	-0.0107686	-0.0317134	-0.892578	0.36792	-0.234375	0.679558	-0.356696	-0.440657	-0.465607	9.24096	-0.743951	3.43123	-0.0105864	0.00341872	-0.0206414	-0.748779	0.374756	-0.28418	0.756427	-0.0284094	0.050756	-0.651487	-0.376597	-0.654358	10.7699	0.030489	-0.0131803	0.0359887	0.0439453	0.408936	-0.923584	0.831056	-0.00877094	0.0576864	-0.55312	-0.864307	-0.796234	9.5603	-0.00590992	-0.00576447	0.0286943	0.289551	0.528076	-0.898682	0.736946	0.0706295	-0.0555129	-0.669955	-0.118962	1.68359	9.35793	-0.0360956	-0.009172	-0.00952773	0.0783691	0.215088	-1.00366	-0.600402	-0.230543	-0.0136039	0.765625	-1.36963	0.746893	13.2661	-0.00272041	0.00257739	-0.00997281	0.205811	0.377441	-1.01294	0.48793	-0.426471	-0.735862	-0.196349	8.37857	-1.22352	-3.9943	0.0401885	0.0271359	-0.0205007	-0.803955	0.484863	0.411133	0.727951	-0.177984	0.0458779	-0.660533	1.95035	-3.59402	10.0296	-0.0174903	0.0220366	-0.0471912	-0.0876465	0.696045	-0.789551	0.281623	-0.55448	-0.774543	-0.115428	4.99721	-1.41544	-7.34883	-0.00495264	0.00194275	0.0201866	-0.687012	0.449463	0.727295	0.993159	0.0898422	-0.0740278	0.00913025	1.82222	1.63141	10.2394	0.0566133	0.00559892	0.019117	-0.221924	0.212158	-1.0625	0.109723	-0.769697	-0.605511	-0.16995	3.94302	0.230784	-8.97681	-0.0503397	0.0187648	-0.0352364	-0.312256	0.392822	1.00781	
9	0.545622	-0.429723	-0.448326	-0.562707	9.67893	0.380505	2.34545	0.0196178	-0.0256459	0.0263623	-0.899414	0.370117	-0.228027	0.679407	-0.357031	-0.440917	-0.465324	9.28927	-0.854457	3.66262	-0.0158372	-0.00191666	-0.00942582	-0.746582	0.37915	-0.281982	0.756755	-0.0300502	0.0515681	-0.650968	-0.381969	-1.32891	10.71	-0.0695317	-0.0146723	0.00341739	0.041748	0.415527	-0.923828	0.831356	-0.00949967	0.0575802	-0.552667	-0.887634	-0.764565	9.66229	-0.0186142	-0.0116916	0.0141035	0.287354	0.525879	-0.898682	0.737118	0.0705783	-0.0552438	-0.669793	-0.0891977	1.74852	9.57363	-0.00884776	0.0111638	0.000399944	0.0849609	0.208496	-1.0105	-0.60066	-0.229707	-0.0146569	0.765655	-1.26468	0.831677	13.2129	-0.104684	0.0127821	-0.0234011	0.199219	0.381592	-1.00854	0.48798	-0.426554	-0.735692	-0.196685	8.49549	-1.30135	-3.9872	-0.0156494	0.0299984	-0.0165154	-0.801758	0.482666	0.41333	0.727611	-0.178412	0.0449445	-0.660856	2.08203	-3.53132	10.1904	0.0308405	-0.0201313	-0.0429112	-0.092041	0.698242	-0.791992	0.281273	-0.555009	-0.774362	-0.114956	5.22881	-1.29966	-7.5743	-0.00281441	-0.0165377	0.000742289	-0.689209	0.447266	0.727295	0.99304	0.0906127	-0.0746472	0.00944553	1.72161	1.99345	10.2155	0.0259802	-0.0189763	0.00983975	-0.212891	0.207764	-1.06226	0.109142	-0.769506	-0.605615	-0.170821	4.03197	0.450291	-8.82788	-0.0522964	0.0182831	-0.0170146	-0.319092	0.396973	1.01001	
10	0.545885	-0.430112	-0.448213	-0.562243	9.70789	0.341977	2.35214	0.0053452	-0.0225822	0.048381	-0.892578	0.36792	-0.22998	0.679229	-0.357158	-0.440702	-0.46569	9.22264	-0.875604	3.56021	-0.0385949	0.0239442	-0.0346479	-0.748535	0.372559	-0.281738	0.756884	-0.0304078	0.0515208	-0.650806	-0.465565	-1.29219	10.7192	-0.0193758	-0.0158387	0.0123796	0.0395508	0.411377	-0.923828	0.831311	-0.00966812	0.0574327	-0.552747	-0.97422	-0.732951	9.66955	-0.0028599	-0.0097191	-0.0065553	0.289795	0.521484	-0.896484	0.737205	0.0700881	-0.055597	-0.66972	-0.163124	1.93744	9.7217	-0.0152652	-0.00984917	-0.0307963	0.0808105	0.208496	-1.0105	-0.600689	-0.229078	-0.0146697	0.76582	-1.40977	0.305676	13.2594	0.0650235	-0.0118453	-0.0191873	0.199219	0.381592	-1.01294	0.488269	-0.426352	-0.735702	-0.19637	8.46749	-1.29741	-4.19194	0.033366	0.000534978	-0.0173406	-0.79541	0.487061	0.406738	0.727494	-0.178519	0.0446481	-0.660976	2.16237	-3.33722	10.4369	0.0118527	-0.000555313	-0.035035	-0.0983887	0.693848	-0.789551	0.28097	-0.5552	-0.774337	-0.114942	5.60648	-1.18345	-7.68837	-0.015424	-0.0138745	-0.0077898	-0.689209	0.444824	0.731934	0.993057	0.0903967	-0.074685	0.00939901	1.79044	2.10359	10.238	-0.0189828	0.0114024	-0.0038189	-0.224121	0.209961	-1.0647	0.109096	-0.769518	-0.605534	-0.171084	4.04997	0.285844	-8.95346	-0.0136665	0.0197123	-0.00115224	-0.316895	0.39502	1.0144	
11	0.546048	-0.431405	-0.44732	-0.561806	9.6532	0.179991	2.34858	-0.0521111	-0.0224306	0.0444682	-0.89502	0.370117	-0.228027	0.67912	-0.357109	-0.440506	-0.466073	9.12568	-0.845355	3.60046	-0.0258586	0.0322509	-0.0386276	-0.746582	0.374756	-0.28418	0.756637	-0.0303599	0.0509291	-0.651141	-0.129304	-0.944958	10.6914	0.00328352	-0.00817574	-0.0419457	0.0375977	0.411377	-0.919189	0.831426	-0.00960408	0.0571684	-0.552603	-0.711275	-0.869295	9.63738	0.0295168	-0.000559574	0.0116288	0.292236	0.519287	-0.894287	0.73695	0.0701807	-0.0564537	-0.66992	-0.0333259	1.56165	9.42718	0.0876024	-0.0232635	-0.0235055	0.0874023	0.206299	-1.0127	-0.600431	-0.22916	-0.0138049	0.766014	-1.41592	0.53262	13.4188	0.0100749	-0.0035241	-0.0210083	0.197266	0.377441	-1.01489	0.487397	-0.427194	-0.735593	-0.197113	8.38274	-1.3058	-4.07974	-0.0396144	-0.00331649	-0.00620666	-0.795166	0.478516	0.41333	0.727352	-0.178554	0.0445175	-0.661132	1.98995	-3.35275	10.2283	0.0220962	0.0156131	-0.0208369	-0.0983887	0.693848	-0.794189	0.280703	-0.555513	-0.774185	-0.115102	5.32079	-1.29092	-7.50139	-9.09447e-05	0.00629098	-0.0076724	-0.684326	0.442627	0.729736	0.993132	0.0899323	-0.0742961	0.0090391	1.61048	1.76262	10.1398	-0.00406271	0.0346304	-0.0107286	-0.217285	0.209961	-1.06689	0.109551	-0.769745	-0.605236	-0.170825	4.01293	0.417224	-8.8117	0.0211129	0.00338145	0.0109852	-0.314697	0.399414	1.0166	
12	0.544972	-0.432647	-0.446919	-0.562215	9.74815	0.0321184	2.31036	-0.0529421	-0.0389631	-0.0208092	-0.899658	0.376465	-0.223877	0.678343	-0.357254	-0.441474	-0.466178	9.25267	-0.701638	3.67762	-0.00173076	0.000585174	-0.0270842	-0.748535	0.372559	-0.276855	0.756588	-0.0299835	0.050547	-0.651245	-0.342451	-1.06875	10.7254	0.0486473	-0.00575593	-0.007545	0.0439453	0.411133	-0.921387	0.831167	-0.00957006	0.0567693	-0.553035	-0.677604	-0.746646	9.59598	-0.00515699	-0.00418831	-0.0246395	0.278564	0.523682	-0.896484	0.736898	0.0699613	-0.0567996	-0.66997	-0.0931112	1.68102	9.59396	-0.0562533	-0.00824788	-0.018457	0.0720215	0.210693	-1.00586	-0.600128	-0.229648	-0.0126838	0.766125	-1.43384	0.913815	13.3696	0.0319336	0.00585054	-0.0165847	0.199463	0.377197	-1.01929	0.486876	-0.427442	-0.735725	-0.197368	8.52526	-1.24154	-4.0604	-0.0179118	-0.00934908	-0.0200655	-0.797363	0.482666	0.415283	0.727265	-0.178213	0.0449581	-0.66129	1.98978	-3.512	10.2784	0.00888833	0.0492103	-0.0182233	-0.092041	0.698242	-0.791992	0.280471	-0.555756	-0.774085	-0.115169	5.28316	-1.30557	-7.53223	-0.0134618	-0.000168578	-0.0179966	-0.693604	0.442627	0.734131	0.993138	0.0905611	-0.0734107	0.00925078	1.68533	1.95523	10.1925	0.0252707	0.04321	0.00297812	-0.217285	0.209961	-1.0647	0.11002	-0.769816	-0.605118	-0.17062	4.03863	0.0680007	-8.89704	0.0680607	0.00590971	0.0134567	-0.317139	0.399414	1.0166	
13	0.543921	-0.433155	-0.447438	-0.56243	9.8657	0.13868	2.24089	-0.00642525	-0.0370664	-0.030517	-0.897217	0.370117	-0.228027	0.67797	-0.357403	-0.441685	-0.466406	9.31645	-0.687285	3.53198	-0.000950938	0.00993148	-0.0369986	-0.746582	0.374756	-0.286377	0.756266	-0.0302338	0.050217	-0.651633	-0.316816	-1.0211	10.8582	-0.0184012	-0.00508804	-0.0112084	0.0395508	0.411377	-0.921387	0.830888	-0.00919283	0.0560083	-0.553537	-0.816974	-0.650455	9.80029	0.0215846	-0.00994324	-0.0156299	0.285156	0.523682	-0.896484	0.736913	0.0700271	-0.0571455	-0.669917	-0.138534	1.8919	9.89482	0.00815137	0.00578752	-0.00826281	0.0808105	0.204102	-1.0105	-0.600354	-0.229016	-0.0130743	0.76613	-1.37889	0.468137	13.346	0.0115199	0.0104951	-0.0292003	0.192871	0.377197	-1.01489	0.486629	-0.427279	-0.735994	-0.197325	8.46457	-1.1883	-4.23381	0.0287622	-0.000593165	-0.0321568	-0.799316	0.478516	0.41333	0.727397	-0.178323	0.0446284	-0.661138	2.04847	-3.34278	10.1394	0.00499069	-0.00723661	-0.00890343	-0.0961914	0.691895	-0.798828	0.280096	-0.555644	-0.774343	-0.114886	5.14669	-1.11936	-7.48144	0.0131499	-0.0200132	-0.0294993	-0.68457	0.444824	0.734131	0.993262	0.0897515	-0.0727093	0.0094106	1.56576	1.65091	10.1848	-0.0315876	0.038734	0.0149055	-0.215332	0.212158	-1.0647	0.110695	-0.769966	-0.604991	-0.169955	3.86408	0.559286	-8.73455	0.0743	-0.00368694	0.0256715	-0.31665	0.392578	1.01221	
14	0.543621	-0.432831	-0.448222	-0.562344	9.86408	0.346297	2.26024	0.0246281	-0.012431	-0.020523	-0.897217	0.370117	-0.221436	0.677339	-0.357701	-0.442336	-0.466477	9.39519	-0.804855	3.48258	-0.0180005	-0.0162695	-0.0345359	-0.75293	0.372559	-0.281738	0.756052	-0.0300342	0.0497523	-0.651927	-0.33313	-1.17159	10.8259	0.0338253	-0.00646332	-0.0248441	0.0354004	0.411377	-0.921387	0.830609	-0.00931004	0.0556417	-0.55399	-0.843965	-0.930414	9.73364	0.0341856	-0.00840494	-0.0271629	0.283203	0.521484	-0.900879	0.736985	0.0703592	-0.0579475	-0.669735	-0.186999	1.96762	9.60019	0.0697607	-0.00214665	-0.0200594	0.0744629	0.201904	-1.00586	-0.60012	-0.22929	-0.0121909	0.766247	-1.46515	0.513444	13.464	0.0492863	-0.00118394	-0.00497816	0.195312	0.373047	-1.01489	0.485078	-0.427874	-0.736534	-0.197842	8.55075	-1.35888	-4.25308	-0.0357897	-0.0494373	-0.0293898	-0.795166	0.480713	0.419678	0.727572	-0.177861	0.0443608	-0.661087	2.12668	-3.50842	10.4904	0.030563	0.0309065	-0.0143685	-0.0876465	0.693848	-0.794189	0.278898	-0.555557	-0.774726	-0.115634	5.44315	-1.31653	-7.78756	-0.0383941	-0.0123407	-0.0451759	-0.682129	0.442627	0.736328	0.993243	0.0898955	-0.072726	0.00990357	1.86216	2.03247	10.3675	0.0028051	0.0145073	0.0152567	-0.212891	0.207764	-1.06226	0.110332	-0.769785	-0.605381	-0.169625	4.1422	0.354183	-9.12634	0.0186599	-0.00294786	-0.00979796	-0.310303	0.397217	1.01221	
15	0.543882	-0.432559	-0.44811	-0.56239	9.90474	0.274285	2.34728	0.00503597	0.013789	0.00120809	-0.901611	0.370117	-0.228027	0.677027	-0.357665	-0.443149	-0.466186	9.37339	-0.852352	3.56561	0.0168955	-0.0372991	-0.0224463	-0.752686	0.368164	-0.271973	0.755925	-0.029584	0.0487107	-0.652173	-0.391904	-0.904043	10.8978	0.0287071	-0.0179017	-0.0212584	0.0354004	0.413574	-0.923828	0.830502	-0.00927661	0.0550647	-0.55421	-0.766209	-0.920579	9.68248	0.00318425	-0.0138625	0.0032087	0.280762	0.525879	-0.898682	0.736979	0.0706167	-0.0584471	-0.669671	-0.0919388	1.38451	9.52054	0.0135103	-0.0143974	0.000407195	0.0766602	0.204102	-1.0105	-0.60006	-0.229746	-0.0113426	0.76617	-1.5049	0.762714	13.3525	0.0192956	0.00825349	-0.0242612	0.197266	0.375244	-1.01929	0.483818	-0.427514	-0.737866	-0.196737	8.5425	-1.24243	-4.22322	0.018745	-0.0842295	-0.0325157	-0.799561	0.480469	0.423828	0.727646	-0.177314	0.0442367	-0.661161	2.16526	-3.26088	10.5767	0.042957	0.0427575	-0.0184586	-0.0917969	0.691895	-0.803467	0.279289	-0.555617	-0.774543	-0.115626	5.40658	-1.14097	-7.67465	0.00682337	0.0287327	-0.00385117	-0.681885	0.437988	0.73877	0.993328	0.0893301	-0.0722086	0.0102299	1.77085	2.10128	10.1472	-0.0365926	0.0403149	0.0104776	-0.208496	0.210205	-1.0647	0.111561	-0.769773	-0.605275	-0.16925	3.9027	0.285945	-8.84788	0.0720963	0.0264024	0.0129918	-0.314941	0.403809	1.0144	
16	0.543718	-0.432543	-0.448398	-0.562331	9.8108	0.30405	2.31688	0.00558955	-0.0242565	-0.013807	-0.89502	0.370117	-0.223633	0.676653	-0.357783	-0.443926	-0.465898	9.4482	-0.607326	3.59786	0.0114299	-0.0295324	-0.0276773	-0.75293	0.374756	-0.272217	0.755991	-0.0306337	0.0484967	-0.652064	-0.257899	-1.18028	10.9313	-0.0176669	-0.0273134	0.0183575	0.0288086	0.415771	-0.921631	0.83053	-0.00994591	0.0542989	-0.554231	-0.686105	-0.673825	9.83616	-0.0344396	-0.0364784	0.00194378	0.278564	0.521484	-0.900879	0.737227	0.0701656	-0.0589232	-0.669404	-0.0719619	2.19968	9.86008	-0.0660842	-0.0121848	-0.00659384	0.0788574	0.201904	-1.00586	-0.600139	-0.229238	-0.0107426	0.766269	-1.3121	0.629816	13.3392	0.0193631	-0.0185977	-0.00152281	0.193359	0.368652	-1.01465	0.481545	-0.428338	-0.739006	-0.196243	8.58093	-1.18694	-4.41703	-0.00616417	-0.0877585	-0.0168212	-0.790527	0.474121	0.43042	0.727152	-0.177371	0.0445486	-0.661668	1.99373	-3.46029	10.0225	0.0108247	0.00205227	-0.0347964	-0.0959473	0.689697	-0.798828	0.279667	-0.555768	-0.774266	-0.115851	5.04692	-1.2353	-7.37577	0.00430225	0.0211557	-0.0121931	-0.682129	0.444824	0.736328	0.993421	0.0881575	-0.0723457	0.0104105	1.67807	1.6339	10.2248	-0.0321745	0.000956038	0.0114446	-0.215332	0.212158	-1.0625	0.112246	-0.76983	-0.605095	-0.169181	3.99964	0.462104	-8.86889	-0.00558195	0.022672	-0.00415736	-0.312744	0.406006	1.00977	
17	0.543477	-0.432708	-0.448626	-0.562255	9.84818	0.284731	2.28368	-0.000893908	-0.0324324	-0.0111174	-0.903809	0.369873	-0.223633	0.676384	-0.358084	-0.444583	-0.465432	9.40109	-0.661492	3.61704	0.0117089	-0.0563893	-0.0114079	-0.755127	0.370361	-0.279297	0.756251	-0.0311829	0.0476804	-0.651797	-0.231593	-1.12153	10.9403	-0.00164686	-0.0281004	0.00510925	0.0332031	0.40918	-0.923584	0.830838	-0.0110384	0.053938	-0.553785	-0.748406	-0.924977	9.80969	0.023493	-0.0284938	0.0186805	0.276367	0.521484	-0.903076	0.737416	0.0692799	-0.0587324	-0.669305	0.0155846	1.46752	9.49974	-0.0640091	-0.027917	0.00210298	0.0698242	0.206055	-1.00586	-0.600584	-0.228709	-0.0106076	0.76608	-1.39205	0.71841	13.3413	-0.0212496	-0.0204437	0.0201555	0.192871	0.377197	-1.01489	0.480293	-0.428874	-0.739527	-0.196178	8.55383	-1.18005	-4.22154	-0.0382737	-0.0943975	-0.0203457	-0.792725	0.474121	0.43042	0.727033	-0.17768	0.0442306	-0.661737	2.00795	-3.37824	10.2905	3.96724e-05	-0.0125389	-0.0340641	-0.0983887	0.69165	-0.798828	0.279607	-0.55585	-0.77421	-0.115972	5.25607	-1.30491	-7.50577	-0.00975185	0.00921595	-0.0152043	-0.684326	0.442627	0.731934	0.993361	0.0884652	-0.0727605	0.0106725	1.66797	1.91107	10.2206	0.0245108	-0.0166829	0.0201284	-0.210938	0.2146	-1.0625	0.111503	-0.769544	-0.605211	-0.170555	4.21712	0.562003	-9.01108	-0.0959069	0.0362274	-0.0343094	-0.314697	0.399414	1.00293	
18	0.543125	-0.432998	-0.449047	-0.562036	9.78006	0.288495	2.24017	0.00536402	-0.0275143	-0.00452875	-0.89502	0.370117	-0.221436	0.676079	-0.358549	-0.444616	-0.465486	9.27461	-0.782697	3.45009	-0.0340948	0.00111516	-0.0241966	-0.75293	0.372559	-0.276855	0.756456	-0.0311339	0.0471604	-0.651599	-0.312435	-1.16849	10.9	0.0298288	-0.02361	0.0189497	0.0332031	0.411377	-0.926025	0.830984	-0.0109981	0.0534408	-0.553614	-0.753358	-0.642488	9.85221	0.0252189	-0.0244418	0.0192271	0.281006	0.521484	-0.900879	0.737467	0.0700869	-0.0606244	-0.668995	-0.0454376	1.95139	9.74419	0.0644786	-0.0134018	-0.00872825	0.0766602	0.204102	-1.0083	-0.601043	-0.22863	-0.00892715	0.765765	-1.28427	0.711019	13.4245	0.0845498	-0.0232882	0.0125901	0.193115	0.375244	-1.02124	0.479025	-0.429217	-0.740222	-0.195907	8.44775	-1.22783	-4.19695	-0.0167135	-0.106477	-0.0298996	-0.797363	0.480469	0.43457	0.727096	-0.177839	0.0436498	-0.661664	2.11224	-3.41573	10.5073	0.0238361	0.0115861	-0.0112561	-0.0983887	0.696045	-0.796631	0.280302	-0.555615	-0.774174	-0.115663	5.61573	-1.26143	-7.7401	0.0442157	0.0312538	-0.0170108	-0.682129	0.445068	0.727539	0.993215	0.0897263	-0.073194	0.0107295	1.62108	2.07836	10.2247	0.0467382	0.0125081	-0.00166726	-0.210693	0.210205	-1.06006	0.110923	-0.769377	-0.605271	-0.171473	4.09302	0.160437	-8.83619	-0.0745915	0.0358355	-0.0320775	-0.319092	0.394775	1.00757	
19	0.543221	-0.433065	-0.448862	-0.562041	9.97187	0.293981	2.23803	-0.00971633	0.0217794	0.00691393	-0.894775	0.365723	-0.228027	0.675667	-0.358782	-0.445314	-0.465237	9.34565	-0.752115	3.41143	0.00742951	-0.0137649	-0.0211359	-0.75293	0.372803	-0.265137	0.756608	-0.0309458	0.0463267	-0.651491	-0.149621	-0.950559	10.7497	0.00668366	-0.0107182	0.00182037	0.0310059	0.415771	-0.923828	0.831214	-0.0111026	0.0529263	-0.553317	-0.64903	-0.765731	9.74924	0.0323179	-0.00821687	0.00741296	0.278809	0.51709	-0.900879	0.737646	0.0695635	-0.0612751	-0.668794	-0.0182773	1.8752	9.61518	-0.00791173	-0.0341007	-0.000157802	0.0742188	0.206299	-1.01514	-0.600981	-0.228268	-0.00846089	0.765927	-1.36754	0.848487	13.4838	-0.0255157	-0.00666827	-0.0295384	0.193359	0.366455	-1.01465	0.475112	-0.430105	-0.742485	-0.194921	8.37661	-1.16565	-4.2319	-0.076621	-0.090256	-0.0189969	-0.783936	0.474121	0.441162	0.727299	-0.177691	0.0438218	-0.66147	1.90809	-3.30545	10.1937	0.00553008	0.0366123	-0.00425942	-0.0939941	0.69165	-0.796631	0.280982	-0.555304	-0.774165	-0.115565	5.18114	-1.16732	-7.38015	0.0211004	0.0231142	-0.0258457	-0.691406	0.44043	0.729736	0.993199	0.0895595	-0.0736477	0.0105355	1.48919	1.87147	9.99863	-0.025824	-0.00441096	-0.00672297	-0.210693	0.210205	-1.06226	0.110994	-0.769616	-0.604955	-0.171466	3.94499	0.270993	-8.715	0.0197529	-0.010024	0.0200198	-0.317139	0.399414	1.0144	
20	0.543766	-0.432279	-0.447579	-0.563139	9.45079	0.207688	2.24062	-0.0169571	0.0621258	-0.0120041	-0.89502	0.372314	-0.228027	0.675419	-0.358598	-0.445906	-0.465171	9.21752	-0.629766	3.47769	0.0210211	-0.00934802	-0.0338099	-0.755127	0.370361	-0.269775	0.756764	-0.0307488	0.0460637	-0.651338	-0.273367	-0.904154	10.7057	0.0286521	0.0034779	0.0027518	0.0332031	0.40918	-0.923584	0.831129	-0.011317	0.0528512	-0.553446	-0.627773	-0.712257	9.7646	-0.0338386	0.00635248	-0.000497553	0.276123	0.525879	-0.898682	0.737634	0.0695299	-0.0611416	-0.668822	0.0120022	1.7877	9.59046	0.000502957	0.0229426	-0.0226699	0.0766602	0.204102	-1.00586	-0.600856	-0.228135	-0.00827968	0.766067	-1.33389	0.622871	13.4731	0.0112066	-0.00450173	-0.0293157	0.188721	0.375244	-1.02124	0.472571	-0.430676	-0.743873	-0.194546	8.29976	-1.08637	-4.23558	-0.0219281	-0.0924911	-0.0474352	-0.783936	0.469727	0.454102	0.72744	-0.177703	0.0435678	-0.661328	1.89642	-3.25887	10.1273	0.0111502	-0.000106673	-0.0144451	-0.0964355	0.696045	-0.794189	0.280832	-0.555238	-0.774296	-0.115367	5.24718	-1.19333	-7.37225	-0.00299842	-0.0141502	-0.0218947	-0.688965	0.442627	0.734131	0.993199	0.0894239	-0.0738122	0.0104856	1.65763	1.63199	10.2669	-0.0125495	0.00119263	-0.00336599	-0.219727	0.214355	-1.0625	0.110735	-0.769633	-0.605106	-0.171025	4.07895	0.262592	-8.84616	0.00315515	-0.014496	-0.0244698	-0.310303	0.399414	1.00977	
21	0.543664	-0.431604	-0.447409	-0.56389	9.70127	0.308766	2.26964	4.65475e-05	0.0348113	-0.0307621	-0.895264	0.374512	-0.223633	0.675469	-0.3584	-0.445947	-0.465213	9.2361	-0.719841	3.52192	-0.027678	0.00204775	-0.0233349	-0.75708	0.370361	-0.274414	0.756753	-0.0300296	0.046124	-0.651379	-0.268473	-1.16999	10.9158	0.0278568	0.0363764	-0.00312565	0.0375977	0.40918	-0.921387	0.831085	-0.00974113	0.0521387	-0.55361	-0.789102	-0.656641	9.74936	0.0996358	0.0189362	-0.00563479	0.281006	0.51709	-0.89624	0.737559	0.070771	-0.0620361	-0.668693	-0.0327825	1.99408	9.57944	0.060466	0.0155861	-0.0167504	0.074707	0.19751	-1.0127	-0.600441	-0.229089	-0.00825687	0.766108	-1.32097	0.715059	13.4518	0.0167042	0.0401221	-0.0301183	0.188965	0.366455	-1.02539	0.471339	-0.430539	-0.74479	-0.194328	8.24798	-1.18711	-4.24506	0.0340076	-0.0415107	-0.0376888	-0.785889	0.467529	0.449707	0.727418	-0.178117	0.044026	-0.661211	2.1327	-3.51716	10.4954	-0.0238444	0.0387776	-0.00893227	-0.0939941	0.693848	-0.794189	0.28089	-0.555301	-0.774327	-0.114714	5.5057	-1.14422	-7.72658	0.0251945	-0.00186235	-0.00883922	-0.686768	0.44043	0.734131	0.993128	0.090486	-0.0733402	0.0113948	1.67054	2.04151	10.3407	0.0462103	0.0334036	0.027599	-0.217285	0.209961	-1.06689	0.11015	-0.769269	-0.605664	-0.171066	4.12987	0.192872	-8.96834	0.0038032	-0.00365877	-0.0312027	-0.316895	0.397217	1.0144	
22	0.543919	-0.430596	-0.447289	-0.564511	9.84892	0.353734	2.3866	0.0162367	0.0407153	-0.022653	-0.899414	0.370117	-0.228027	0.675298	-0.358331	-0.445992	-0.465471	9.41169	-0.680665	3.48806	0.00929636	0.031867	-0.0258012	-0.752686	0.368164	-0.271973	0.756789	-0.0286294	0.0453962	-0.651452	-0.434863	-0.753278	10.8317	0.0489059	0.0212199	-0.005883	0.0332031	0.40918	-0.923584	0.831114	-0.00926018	0.0522933	-0.55356	-0.730269	-0.839433	9.64275	0.0187279	0.0262399	0.0103259	0.278809	0.519287	-0.905273	0.737544	0.0702651	-0.0609891	-0.668858	-0.112582	1.74318	9.57634	-0.0719339	0.0141709	-0.0186482	0.0744629	0.199707	-1.0083	-0.600358	-0.229139	-0.00875584	0.766152	-1.45562	0.771437	13.2483	-0.0393843	0.022986	-0.0260867	0.195312	0.373047	-1.0127	0.470014	-0.43088	-0.74548	-0.194137	8.48635	-1.20024	-4.5486	-0.0312067	-0.00994588	-0.0217969	-0.78833	0.471924	0.451904	0.727385	-0.177902	0.0441501	-0.661296	1.99574	-3.27652	10.2739	-0.00734822	0.026365	-0.0232501	-0.0964355	0.696045	-0.794189	0.280816	-0.555582	-0.774165	-0.114633	5.20853	-1.35055	-7.44354	-0.00660346	0.00198191	-0.00493532	-0.687256	0.45166	0.729492	0.993179	0.0901354	-0.0730228	0.0117899	1.70018	1.90328	10.0206	-0.00432219	0.017346	0.0172178	-0.210693	0.212402	-1.0625	0.110178	-0.76916	-0.605985	-0.170399	3.86929	0.431717	-8.80202	0.0188759	-0.0219749	-0.00893508	-0.3125	0.399414	1.01221	
23	0.54388	-0.430068	-0.447508	-0.564777	9.7427	0.39642	2.37444	0.0118024	0.00922696	-0.0207612	-0.899414	0.36792	-0.228027	0.675183	-0.358205	-0.446419	-0.465325	9.4406	-0.676818	3.47591	0.0036294	-0.00513398	-0.0249434	-0.759277	0.368164	-0.269775	0.756892	-0.0290618	0.0458836	-0.651279	-0.245564	-1.21579	11.0286	-0.0381376	0.0134187	0.0183797	0.0375977	0.402588	-0.927979	0.831087	-0.00892271	0.051984	-0.553635	-0.771447	-0.460611	9.76719	-0.0350019	-0.00501968	-0.00868	0.281006	0.521484	-0.905273	0.737552	0.070224	-0.0612734	-0.668828	-0.127045	2.03536	9.74546	0.01667	0.00392614	-0.01883	0.0681152	0.199463	-1.00586	-0.600597	-0.228821	-0.0088041	0.766059	-1.43874	0.466568	13.2537	0.0251426	0.00033779	0.00493368	0.186768	0.37085	-1.02344	0.470143	-0.430682	-0.745501	-0.194183	8.3718	-1.11961	-4.47393	0.0432063	-0.0150037	-0.0252152	-0.786133	0.471924	0.451904	0.727337	-0.178418	0.0443179	-0.661199	2.12655	-3.68386	10.3058	0.000115807	0.0147573	-0.0118208	-0.0961914	0.693848	-0.798828	0.280614	-0.555686	-0.774231	-0.114169	5.35497	-1.25863	-7.63397	0.00363303	-0.0134767	-0.0233724	-0.686768	0.444824	0.734131	0.99323	0.089638	-0.0729327	0.0118587	1.86843	2.07209	10.3667	-0.0386177	0.024799	0.00237146	-0.215576	0.21875	-1.06494	0.110536	-0.76938	-0.605891	-0.169505	4.09262	0.36262	-9.10578	0.0455151	-0.0102567	0.0127539	-0.3125	0.399414	1.01221	
24	0.543841	-0.429863	-0.447722	-0.564801	9.74945	0.372217	2.41304	0.0132961	-0.0140659	-0.00635249	-0.899414	0.36792	-0.230225	0.675476	-0.357979	-0.446351	-0.465139	9.33273	-0.704008	3.45825	0.00832589	0.0195407	-0.00555297	-0.755127	0.372559	-0.267578	0.75698	-0.0296448	0.0454213	-0.651184	-0.190216	-0.797927	10.8061	-0.0261804	-0.0181478	-0.00460768	0.0375977	0.400391	-0.925781	0.831293	-0.00984575	0.0520373	-0.553305	-0.744328	-0.972574	9.71784	0.0172384	-0.0107848	0.0215516	0.28125	0.514893	-0.900635	0.737813	0.0704929	-0.0618737	-0.668457	0.0209908	1.65971	9.52733	0.0534528	-0.00864499	0.0136998	0.0766602	0.204102	-1.0083	-0.600644	-0.229092	-0.00802887	0.76595	-1.37884	0.70073	13.2927	0.0645456	-0.00245247	0.00473577	0.186768	0.37085	-1.02124	0.469878	-0.430714	-0.745654	-0.194167	8.41567	-1.16174	-4.43332	0.00297859	-0.0122536	-0.0223922	-0.788086	0.469727	0.456055	0.72743	-0.178456	0.0436289	-0.661132	2.05946	-3.23753	10.2971	0.0112081	-0.0063421	-0.0236236	-0.0986328	0.698242	-0.794189	0.280303	-0.555596	-0.774395	-0.114257	5.27464	-1.29511	-7.5908	-0.0042318	-1.35917e-05	-0.018879	-0.688965	0.442627	0.734131	0.993276	0.0891594	-0.072913	0.0117485	1.73303	1.91397	10.1902	-0.03837	0.017675	-0.000747932	-0.208496	0.212402	-1.0647	0.110743	-0.76967	-0.605571	-0.1692	3.89374	0.454314	-8.78634	-0.00519061	-0.000243457	0.0118624	-0.312988	0.408203	1.01196	
25	0.543717	-0.43013	-0.448517	-0.564085	9.66941	0.338203	2.40074	0.0319596	-0.0541654	0.00599937	-0.899414	0.36792	-0.232178	0.675512	-0.358339	-0.44622	-0.464935	9.28694	-0.77941	3.55096	-0.0189529	0.0206089	-0.00546212	-0.75708	0.370361	-0.276855	0.757244	-0.0299758	0.0453753	-0.650864	-0.367657	-1.08749	10.8923	0.0266115	-0.0115228	0.00752455	0.0310059	0.409424	-0.928223	0.831447	-0.0103054	0.0519766	-0.553072	-0.714522	-0.616127	9.8508	-0.0597359	-0.0022256	0.0130064	0.285645	0.51709	-0.89624	0.738022	0.0705878	-0.0622468	-0.668181	-0.0778321	2.12019	9.64636	0.0254098	-0.00737232	0.0132342	0.074707	0.19751	-1.0083	-0.600835	-0.228473	-0.00805338	0.765984	-1.34424	0.736918	13.4458	-0.0422549	-0.00380303	-0.0125684	0.186768	0.37085	-1.01904	0.470298	-0.430464	-0.745615	-0.193853	8.32262	-1.23889	-4.42453	0.0541868	0.00602394	-0.012557	-0.790283	0.469727	0.451904	0.727279	-0.178786	0.0437653	-0.6612	2.11227	-3.30405	10.361	-0.0246338	0.01229	-0.0279018	-0.100586	0.696045	-0.794189	0.280573	-0.555671	-0.774244	-0.114253	5.36474	-1.21586	-7.61727	0.00648564	0.0128222	-0.00300388	-0.687012	0.447266	0.729736	0.993313	0.0883916	-0.0734122	0.011287	1.78622	1.91086	10.2329	-0.0415179	-0.00706334	-0.0128056	-0.212891	0.209961	-1.06689	0.110833	-0.769917	-0.605217	-0.169279	4.07664	0.670527	-9.03167	-0.00698945	0.0144673	0.0106531	-0.314697	0.399414	1.01221	
26	0.543743	-0.43013	-0.44894	-0.563724	9.79671	0.346922	2.40184	0.034636	-0.0340648	0.000697024	-0.901611	0.370117	-0.230225	0.675662	-0.358319	-0.446172	-0.464778	9.27681	-0.716933	3.43604	0.00425829	0.0166984	-0.00310143	-0.75293	0.370361	-0.276855	0.757207	-0.0300571	0.0450496	-0.650926	-0.287853	-0.680263	10.786	0.0124722	-0.0169929	-0.00883398	0.0310059	0.407227	-0.923584	0.831571	-0.0106572	0.0522313	-0.552854	-0.709179	-0.870137	9.81013	-0.0340756	0.00688308	0.0198232	0.281006	0.519287	-0.900879	0.738276	0.0693768	-0.0612231	-0.668123	0.042949	1.50752	9.52397	-0.0516682	0.0134739	-0.00513567	0.0720215	0.208496	-1.0105	-0.601325	-0.227823	-0.00843987	0.76579	-1.32322	0.731249	13.3936	-0.022864	0.00969229	-0.00550197	0.190918	0.37085	-1.01904	0.470879	-0.430436	-0.745302	-0.193708	8.26379	-1.0666	-4.37479	0.00707519	0.0472149	-0.00633943	-0.788086	0.467529	0.454102	0.72718	-0.178708	0.0435702	-0.661342	1.96945	-3.39609	10.1756	0.0267696	0.0174164	-0.0294968	-0.100586	0.696045	-0.789551	0.28065	-0.555769	-0.774156	-0.11419	5.22885	-1.27931	-7.48878	0.00648895	0.00961869	-0.00659189	-0.684326	0.442627	0.734131	0.99327	0.0887778	-0.0735195	0.011342	1.67156	1.57694	10.2595	0.0291036	0.00558776	-0.00058042	-0.215332	0.216553	-1.05786	0.109943	-0.769822	-0.605225	-0.170262	4.17712	0.382219	-8.97906	-0.0975223	0.0242316	-0.0307563	-0.312256	0.39502	1.01221	
27	0.543334	-0.430896	-0.449634	-0.56298	9.72377	0.356699	2.34744	-0.00449492	-0.0646583	0.00499812	-0.899414	0.370117	-0.230225	0.67561	-0.358538	-0.446196	-0.464662	9.3333	-0.698405	3.50595	-0.0105662	0.00444931	-0.0131607	-0.752686	0.366211	-0.269531	0.757225	-0.0310547	0.0464216	-0.650762	-0.272669	-1.17654	10.8338	-0.0588997	0.026217	-0.00466971	0.0332031	0.40918	-0.926025	0.831635	-0.0105747	0.0523382	-0.552749	-0.665729	-0.624222	9.83499	0.00169614	0.0172677	0.0115541	0.276367	0.523682	-0.900879	0.738385	0.0699272	-0.0618598	-0.667886	-0.0129697	1.87878	9.66954	0.0334497	0.000573339	0.00255393	0.0722656	0.203857	-1.00586	-0.601219	-0.227963	-0.00824863	0.765833	-1.3003	0.76867	13.3421	0.0207933	0.0167317	-0.0216776	0.197754	0.366455	-1.02319	0.471197	-0.430307	-0.745261	-0.193382	8.39098	-1.2541	-4.33632	0.0481728	0.0106096	-0.0128883	-0.786133	0.474121	0.449707	0.726911	-0.179026	0.0439994	-0.661525	2.01209	-3.44739	10.2257	-0.0211323	0.0279022	-0.0210163	-0.0964355	0.700439	-0.787354	0.280665	-0.55608	-0.773977	-0.113852	5.25172	-1.16346	-7.47675	0.00496383	-0.00471277	-0.00922269	-0.68457	0.447266	0.734131	0.993145	0.0899835	-0.0737373	0.0113474	1.57482	2.14551	10.025	0.0149077	0.000231971	-0.00551836	-0.217529	0.212158	-1.0647	0.109548	-0.769786	-0.605196	-0.170783	3.96881	0.144402	-8.7294	0.00965338	0.00305926	0.00827691	-0.3125	0.397217	1.01221	
28	0.542379	-0.431922	-0.449934	-0.562875	9.73445	0.22777	2.27587	-0.0314271	-0.0491368	-0.00821984	-0.901611	0.36792	-0.223633	0.675799	-0.358442	-0.445572	-0.465059	9.29842	-0.722489	3.45857	-0.00977927	0.0416222	-0.0248896	-0.755127	0.372559	-0.269775	0.756987	-0.0311156	0.0468924	-0.651002	-0.303668	-0.9779	10.8366	-0.010043	0.0278742	-0.0139735	0.0354004	0.406982	-0.921387	0.831284	-0.0108149	0.0535119	-0.553161	-0.73682	-0.86307	9.64226	0.0411098	0.0286373	-0.0169181	0.283203	0.519287	-0.903076	0.738249	0.0699067	-0.0616783	-0.668055	-0.0687383	1.99745	9.61879	0.00250686	0.0184263	-0.0311646	0.0700684	0.204102	-1.01294	-0.601602	-0.228025	-0.00803135	0.765517	-1.28365	0.684119	13.3845	0.0181397	0.0148841	0.00988077	0.188965	0.37085	-1.02344	0.472601	-0.429669	-0.744744	-0.193364	8.27241	-1.09394	-4.21564	0.0400563	0.0749834	-0.0142605	-0.783936	0.474121	0.443359	0.726907	-0.178994	0.0433299	-0.661581	2.02911	-3.41587	10.2184	0.0188058	-0.00403333	-0.0208415	-0.100586	0.693848	-0.796631	0.28042	-0.556009	-0.774148	-0.113636	5.37481	-1.32569	-7.57703	-0.00254736	-0.0104527	-0.025745	-0.682373	0.449463	0.736328	0.993161	0.0898794	-0.0736413	0.0113658	1.72331	1.81429	10.2218	0.0198428	0.0235999	0.00803342	-0.217529	0.212158	-1.06006	0.109601	-0.769915	-0.605122	-0.170428	4.12417	0.136973	-8.965	0.00661711	-0.00187878	-0.00511312	-0.316895	0.39502	1.01001	
29	0.541266	-0.432581	-0.450725	-0.562807	9.8535	0.258761	2.24494	-0.00822442	-0.050314	-0.0310082	-0.901367	0.365723	-0.221436	0.676058	-0.358057	-0.445423	-0.465122	9.25589	-0.661104	3.5647	-0.00261137	0.0209859	-0.0148024	-0.75293	0.370361	-0.274414	0.756805	-0.0308163	0.0474648	-0.651186	-0.234635	-1.18781	10.7293	-0.00546673	0.0420367	-0.0125008	0.0375977	0.411377	-0.923828	0.831096	-0.0111562	0.0544013	-0.553349	-0.746221	-0.66483	9.6462	-0.0708667	0.0318776	-0.0141214	0.282959	0.523682	-0.905273	0.73843	0.0703055	-0.0619131	-0.667791	-0.047346	1.72884	9.52444	0.0599375	0.00900622	0.00457735	0.0700684	0.201904	-1.0105	-0.601278	-0.228128	-0.00823293	0.765738	-1.46719	0.774052	13.3984	-0.00325787	0.021099	-0.0443243	0.190918	0.373047	-1.01904	0.472497	-0.429978	-0.744532	-0.193744	8.35136	-1.17062	-4.53891	-0.0173679	0.0176709	-0.0140634	-0.788086	0.469727	0.447754	0.727175	-0.179233	0.0434633	-0.661213	2.04047	-3.46468	10.1746	-0.0125181	0.00956589	0.00735499	-0.0964355	0.696045	-0.796631	0.280304	-0.555766	-0.77444	-0.113123	5.17005	-1.32875	-7.54951	0.0200459	-0.00889918	-0.0259357	-0.687012	0.449463	0.736328	0.993262	0.0892546	-0.0730014	0.0116055	1.74896	2.14915	10.1764	-0.054218	0.0448541	0.0062283	-0.217529	0.214355	-1.0625	0.111429	-0.770111	-0.605069	-0.168537	3.85272	0.268223	-8.79999	0.148921	-0.0132481	0.042072	-0.316895	0.397217	1.01001	
30	0.540736	-0.432706	-0.451261	-0.562791	9.80483	0.310933	2.22756	0.00371172	-0.0250371	-0.0170809	-0.906006	0.369873	-0.215088	0.675984	-0.357909	-0.445327	-0.465436	9.33481	-0.674574	3.51998	-0.0030141	0.0257803	-0.0330045	-0.755127	0.372559	-0.272217	0.756611	-0.0306127	0.0472583	-0.651436	-0.352924	-0.844546	10.7988	0.00676998	-0.00252946	-0.0118803	0.0332031	0.413574	-0.923828	0.830612	-0.0106492	0.0543821	-0.554087	-0.821108	-0.750163	9.65932	0.0238881	0.0139159	-0.0254594	0.283203	0.519287	-0.894287	0.738263	0.0699185	-0.0616195	-0.668044	-0.0733359	1.96446	9.66846	-0.0735461	0.00693217	-0.0377654	0.0766602	0.201904	-1.0105	-0.601287	-0.228179	-0.00797655	0.765719	-1.35837	0.5617	13.3245	0.035174	0.0106048	0.00200146	0.190918	0.373047	-1.01709	0.472703	-0.429539	-0.744793	-0.193213	8.34425	-1.09932	-4.39725	0.0364134	-0.014226	-0.0231323	-0.790527	0.474121	0.445312	0.727269	-0.179391	0.0433738	-0.661073	2.19038	-3.37066	10.4467	-0.0031821	0.0176321	-0.0142405	-0.100586	0.696045	-0.791992	0.28001	-0.555887	-0.774486	-0.112941	5.44541	-1.28104	-7.76537	-0.00296753	-0.0048054	-0.0144358	-0.689209	0.447021	0.736328	0.993458	0.0872495	-0.0727503	0.011641	1.79205	1.67464	10.176	-0.0804023	0.0194375	0.00710306	-0.217773	0.220947	-1.06494	0.112436	-0.770321	-0.604956	-0.167309	4.03295	0.692229	-9.02302	0.0167973	-0.00687525	-0.00702936	-0.315186	0.406006	1.00757	
31	0.540131	-0.43242	-0.452076	-0.562938	9.8301	0.425712	2.27301	0.0119427	-0.0277958	-0.0454317	-0.903564	0.361328	-0.215088	0.675783	-0.357875	-0.445834	-0.465269	9.37844	-0.67761	3.36899	-0.00803435	-0.0283727	-0.0232979	-0.752686	0.368408	-0.269775	0.756406	-0.031147	0.0476307	-0.651622	-0.308358	-1.14752	10.7952	-0.0199031	-0.0113877	-0.0183277	0.0351562	0.417969	-0.928467	0.830674	-0.0108865	0.0543318	-0.553995	-0.783565	-0.81317	9.58723	0.0123554	-0.00288256	0.00340227	0.282959	0.523682	-0.898682	0.738286	0.0710729	-0.0628505	-0.667781	0.0207388	1.81932	9.50421	0.113137	-0.00476049	0.0040553	0.0744629	0.199707	-1.0127	-0.601035	-0.228756	-0.0070871	0.765752	-1.32746	0.91578	13.4312	0.0221679	0.00959977	-0.0239883	0.186768	0.37085	-1.02124	0.472075	-0.429839	-0.745072	-0.193005	8.31512	-1.29096	-4.45531	0.0285872	-0.0161968	-0.0108311	-0.783691	0.467529	0.449707	0.727084	-0.179546	0.0441373	-0.661184	2.04118	-3.65154	10.2371	-0.0109756	0.0484032	-0.0224939	-0.100586	0.693848	-0.789551	0.280112	-0.556039	-0.774329	-0.113019	5.168	-1.15866	-7.53724	-0.0103443	0.0142092	-0.0164596	-0.686768	0.444824	0.738525	0.993389	0.0880158	-0.0727875	0.0115555	1.70714	2.05004	10.2237	0.0304	0.00566663	-0.00376218	-0.215332	0.216553	-1.0647	0.112974	-0.770383	-0.604897	-0.166874	3.84634	0.395957	-8.88337	0.0499679	0.00781711	0.0238462	-0.312744	0.406006	1.00977	
32	0.53943	-0.432884	-0.452631	-0.562807	9.71704	0.466895	2.22891	-0.0153959	-0.0460575	-0.00164462	-0.903564	0.363525	-0.219238	0.675487	-0.358305	-0.445603	-0.465588	9.37216	-0.774657	3.60256	-0.0343962	0.0195318	-0.0206753	-0.761719	0.376953	-0.272461	0.756345	-0.03086	0.0464811	-0.65179	-0.302879	-1.06975	10.8596	0.0391175	-0.023792	-0.00870626	0.0354004	0.413574	-0.921631	0.830637	-0.0117085	0.0539815	-0.554068	-0.680908	-0.811333	9.61982	-0.0295893	-0.0282622	0.000489006	0.281006	0.521484	-0.894287	0.738178	0.07039	-0.0625615	-0.668	-0.00168678	1.85003	9.74803	-0.0882413	0.00695229	-0.0329097	0.0744629	0.199707	-1.00586	-0.601497	-0.228137	-0.0072902	0.765573	-1.30988	0.762534	13.2641	-0.0217992	-0.000314231	-0.000262312	0.193359	0.366455	-1.01904	0.471928	-0.430082	-0.745195	-0.192349	8.40521	-1.17967	-4.52408	-0.00413206	-0.00678094	0.000427779	-0.786133	0.474121	0.44751	0.726938	-0.179092	0.0432701	-0.661525	2.03701	-3.08142	10.283	0.0305602	0.00510932	-0.0401716	-0.100586	0.693848	-0.789551	0.279865	-0.556206	-0.77427	-0.113207	5.29522	-1.37155	-7.57262	0.0022959	-0.00272825	-0.00479413	-0.679932	0.447266	0.734131	0.993454	0.0870114	-0.0731675	0.0111385	1.74086	1.69353	10.2348	-0.0117044	0.00229481	-0.00689583	-0.215576	0.21875	-1.0603	0.112956	-0.770713	-0.60447	-0.166909	4.0468	0.210162	-8.91097	-0.0170057	0.00737198	0.00948191	-0.310791	0.4104	1.00513	
33	0.538392	-0.434176	-0.453465	-0.562134	9.85574	0.418254	2.19418	-0.00770047	-0.0835584	-0.00232434	-0.908203	0.365479	-0.212891	0.675268	-0.358355	-0.445784	-0.465695	9.28042	-0.688101	3.4294	0.00217265	-0.00778337	-0.028233	-0.752686	0.368164	-0.271973	0.756193	-0.0320353	0.0462438	-0.651925	-0.24459	-1.14143	10.8494	-0.0489211	-0.0198666	-0.00788714	0.0288086	0.411621	-0.923828	0.830563	-0.0121709	0.0530104	-0.554263	-0.656977	-0.610717	9.87731	-0.0091205	-0.0321798	-0.0125655	0.278564	0.523682	-0.898682	0.738286	0.0699369	-0.0625811	-0.667927	0.0470194	1.43342	9.45628	-0.0265819	-0.017373	-0.00335839	0.0700684	0.199707	-1.0127	-0.601343	-0.227993	-0.00709267	0.765738	-1.34496	0.762301	13.407	0.012444	-0.00639277	-0.031732	0.193115	0.37085	-1.01685	0.471702	-0.430423	-0.745104	-0.192495	8.30228	-1.16163	-4.35051	-0.0195853	-0.000168016	-0.00152533	-0.785889	0.467529	0.449707	0.726573	-0.179971	0.0438495	-0.661649	2.05734	-3.80463	10.1852	-0.0170355	0.00560133	-0.0249194	-0.0986328	0.698242	-0.791992	0.279834	-0.556709	-0.773937	-0.113091	5.22326	-1.22509	-7.57036	-0.00897109	0.00591278	-0.0062775	-0.682129	0.445068	0.729736	0.993473	0.0866324	-0.0734093	0.0107858	1.69725	1.87252	10.2001	-0.0433248	0.000927673	-0.0140477	-0.217773	0.21875	-1.06934	0.113635	-0.770947	-0.604052	-0.166881	4.02032	0.406323	-8.92126	0.0187463	0.0249585	0.0210596	-0.315186	0.4104	1.00513	
34	0.538083	-0.434908	-0.453551	-0.561795	9.90095	0.425544	2.17936	-0.0244278	-0.0633752	0.0225745	-0.903564	0.361084	-0.210693	0.675116	-0.358496	-0.445826	-0.465766	9.42349	-0.77487	3.37737	-0.0175422	0.00185406	-0.0234342	-0.754883	0.365967	-0.274414	0.755957	-0.0324898	0.0460692	-0.65219	-0.30341	-1.1417	10.8681	-0.017799	-0.0261305	-0.0327085	0.0288086	0.411621	-0.923828	0.830487	-0.0128094	0.0530661	-0.554357	-0.607667	-0.804844	9.86334	-0.0431894	-0.0173155	-0.0108576	0.276367	0.521484	-0.900879	0.738311	0.0703604	-0.0633124	-0.667786	-0.00311255	2.02559	9.66425	0.0638522	-0.0121941	-0.00410991	0.0725098	0.195312	-1.0105	-0.601114	-0.227599	-0.00699602	0.766037	-1.31595	0.726435	13.3844	-0.0148283	-0.000395274	-0.0198018	0.191162	0.366455	-1.01904	0.47164	-0.430639	-0.74506	-0.192332	8.3594	-1.23002	-4.46556	0.0184808	0.0118861	-0.00358251	-0.786377	0.476318	0.44751	0.726481	-0.179524	0.0433932	-0.661902	2.10523	-3.40801	10.3508	0.0531333	0.0213248	-0.0417274	-0.10083	0.698242	-0.796631	0.279795	-0.556818	-0.773867	-0.113134	5.32036	-1.29465	-7.586	-0.00441015	0.00651593	-0.0108723	-0.687256	0.45166	0.736328	0.993462	0.0864952	-0.0737548	0.0105655	1.67945	1.70524	10.1929	-0.0133974	-0.0135918	-0.0135995	-0.217773	0.216553	-1.0625	0.113574	-0.771061	-0.603811	-0.167265	4.01964	0.441915	-8.89596	-0.0235941	0.0265894	0.0123389	-0.310791	0.4104	1.00977	
35	0.537453	-0.436336	-0.453751	-0.561128	9.82029	0.288737	2.10146	-0.020494	-0.0648315	0.010425	-0.906006	0.365479	-0.212891	0.674746	-0.358762	-0.445453	-0.466455	9.34228	-0.690258	3.48421	-0.0212091	0.0127257	-0.0311891	-0.754883	0.366211	-0.264893	0.75575	-0.0324363	0.0453374	-0.652483	-0.166988	-1.13404	10.9079	0.0199942	-0.00800141	-0.00430768	0.0266113	0.416016	-0.928467	0.830092	-0.0128294	0.0523491	-0.555015	-0.710422	-0.711744	9.89758	0.0195509	-0.0165825	-0.0355434	0.276123	0.525879	-0.900879	0.737943	0.0696454	-0.062947	-0.668302	-0.0164467	1.673	9.65683	-0.0144794	-0.00120985	-0.0174586	0.067627	0.206299	-1.0083	-0.600916	-0.227501	-0.00682234	0.766222	-1.30759	0.785437	13.419	0.00437544	0.00871148	-0.0377389	0.188721	0.375244	-1.02563	0.47248	-0.430547	-0.744574	-0.19236	8.3397	-1.29832	-4.30698	0.0244602	0.0513372	-0.00683833	-0.783936	0.471924	0.44751	0.726096	-0.179907	0.0437789	-0.662195	2.04829	-3.4988	10.1607	-0.0364834	0.0296861	-0.0232734	-0.100586	0.693848	-0.787109	0.279855	-0.557106	-0.773654	-0.113017	5.30844	-1.28816	-7.5235	-0.00157093	0.00507128	-0.00727361	-0.679932	0.447266	0.731934	0.993461	0.086614	-0.0736909	0.0100996	1.73808	1.95016	10.2331	-0.0108902	0.0294006	-0.0155029	-0.217773	0.216553	-1.05786	0.113665	-0.771223	-0.603447	-0.16777	4.03462	0.121463	-8.87458	0.00736057	0.0237444	0.010323	-0.315186	0.408203	1.00977	
36	0.537057	-0.437261	-0.454014	-0.560574	9.8505	0.310638	2.05105	-0.0075523	-0.0363756	0.0180324	-0.906006	0.367676	-0.20874	0.674993	-0.358701	-0.445368	-0.466225	9.27155	-0.740488	3.57686	0.00696182	0.0210136	-0.00800754	-0.750488	0.364014	-0.271973	0.755308	-0.0325899	0.0450714	-0.653005	-0.0743104	-0.887607	10.8442	-0.0150236	-0.00236238	-0.0369135	0.0268555	0.411621	-0.923828	0.829665	-0.0134317	0.0525698	-0.555618	-0.670663	-0.913053	9.88097	-0.0190967	0.00888891	-0.0277057	0.273926	0.528076	-0.896484	0.737811	0.0698229	-0.0631702	-0.668408	-0.01079	2.11859	9.7185	-0.00558311	0.0136972	-0.0324235	0.0703125	0.19751	-1.01514	-0.600744	-0.227449	-0.00693214	0.766371	-1.27882	0.571088	13.3897	0.0207267	0.0182449	-0.0142635	0.186768	0.373047	-1.01489	0.473554	-0.430675	-0.743627	-0.193093	8.34207	-1.13137	-4.42415	-0.000776518	0.0839223	-0.0017351	-0.786133	0.471924	0.445557	0.726198	-0.179197	0.0433341	-0.662304	1.98744	-3.45345	10.1155	0.0568162	0.0161837	-0.0197363	-0.103027	0.698242	-0.794189	0.279611	-0.557048	-0.773782	-0.113033	5.08559	-1.30446	-7.41424	0.00243861	-0.00613742	-0.0297053	-0.682129	0.442627	0.736328	0.993468	0.0863671	-0.0739046	0.00999129	1.59131	1.68831	10.1572	-0.0108232	-0.00118293	-0.00321885	-0.215332	0.216553	-1.05786	0.113723	-0.771305	-0.603278	-0.167963	3.97304	0.2872	-8.8345	-0.000180574	0.00996499	-0.00321011	-0.312988	0.4104	0.998291	
37	0.536876	-0.437791	-0.454181	-0.560199	9.83127	0.27093	2.01895	0.00158173	-0.0236907	0.0079545	-0.901611	0.367676	-0.208496	0.675239	-0.358473	-0.444885	-0.466505	9.335	-0.748301	3.48459	-0.00637311	0.0320235	-0.00873977	-0.759521	0.372559	-0.272217	0.755044	-0.0333307	0.0458836	-0.653217	-0.290448	-1.16527	10.8728	-0.019537	0.010295	-0.0223591	0.0266113	0.413818	-0.923828	0.829354	-0.0133375	0.0529211	-0.556051	-0.701878	-0.82836	9.86498	-0.00551905	0.0255165	-0.00997434	0.276611	0.519287	-0.903076	0.737811	0.0699774	-0.063134	-0.668395	0.00279925	1.61426	9.52266	0.045853	0.00273878	-0.0106773	0.0703125	0.195312	-1.0105	-0.600746	-0.227401	-0.0073148	0.766381	-1.40389	0.650391	13.4465	-0.0160561	0.0210143	-0.0260079	0.186768	0.37085	-1.02344	0.474524	-0.43053	-0.743059	-0.193221	8.33134	-1.31975	-4.39431	0.0332598	0.0364322	-0.00541304	-0.78833	0.474121	0.445312	0.726192	-0.179343	0.0426855	-0.662314	2.08209	-3.4255	10.4513	-0.000688361	-0.00373008	-0.0203122	-0.0983887	0.693848	-0.787109	0.278861	-0.557273	-0.773853	-0.113293	5.42801	-1.41854	-7.69403	-0.0248089	-0.00945295	-0.0179515	-0.679932	0.447266	0.731934	0.993315	0.0877208	-0.0743437	0.010207	1.69984	1.78295	10.1863	0.0734172	0.00517344	0.00997596	-0.217773	0.216553	-1.0625	0.113073	-0.771047	-0.603606	-0.168407	4.00034	0.186171	-8.87098	-0.0272571	0.00246332	-0.0369999	-0.30835	0.408203	1.00757	
38	0.537121	-0.43809	-0.453997	-0.559879	9.80652	0.298932	2.09367	-0.0039016	-0.00846816	0.0214155	-0.906006	0.365479	-0.206543	0.675167	-0.358834	-0.444679	-0.466528	9.34213	-0.730395	3.42804	-0.0153682	0.00906554	-0.0151498	-0.755127	0.370361	-0.279297	0.754798	-0.0330749	0.0462485	-0.653488	-0.165231	-1.07677	10.7511	-0.00863724	0.0250718	-0.0141932	0.0266113	0.415771	-0.921631	0.829153	-0.0132028	0.0535327	-0.556296	-0.641774	-0.939643	9.68338	0.0120842	0.033075	-0.0144466	0.273926	0.528076	-0.896484	0.737627	0.0702515	-0.0628651	-0.668595	0.00752873	1.76692	9.56505	-0.0379324	0.0185255	-0.0325404	0.0722656	0.201904	-1.0127	-0.600385	-0.227645	-0.00762675	0.766589	-1.26177	0.851614	13.3311	-0.0242065	0.0333415	-0.0341479	0.188721	0.373047	-1.02563	0.475217	-0.43053	-0.742676	-0.19299	8.35978	-1.1334	-4.34446	0.0181924	0.0371699	6.29007e-05	-0.78418	0.476318	0.441162	0.726418	-0.179699	0.0427712	-0.661964	2.06033	-3.37177	10.2987	-0.0211776	0.0109178	0.00289421	-0.103027	0.698242	-0.796631	0.279062	-0.557279	-0.773798	-0.113142	5.35119	-1.35921	-7.63784	0.0278431	0.0170766	-0.0136788	-0.682373	0.447266	0.736328	0.993179	0.0888004	-0.074787	0.0107851	1.66159	1.80839	10.1856	0.0389713	0.00138204	0.0226718	-0.217529	0.212158	-1.0625	0.111691	-0.770583	-0.604249	-0.169143	4.07229	0.335378	-8.83662	-0.0676302	-0.00544424	-0.0497789	-0.314941	0.401611	1.0144	
39	0.53696	-0.438377	-0.454091	-0.559732	9.81448	0.226678	2.11074	0.00179975	-0.0188563	-0.0114763	-0.903809	0.365479	-0.204346	0.675632	-0.358096	-0.444767	-0.466338	9.37576	-0.625065	3.52871	0.029897	0.0248242	-0.0166615	-0.752686	0.368408	-0.269775	0.754644	-0.0328939	0.0468686	-0.653631	-0.211149	-1.11841	10.7829	0.00194449	0.0316111	-0.00224783	0.0266113	0.417969	-0.92627	0.828934	-0.0127062	0.0539621	-0.556592	-0.68507	-0.805123	9.64766	-0.00879474	0.0284108	-0.00829449	0.276123	0.525879	-0.900879	0.737564	0.070063	-0.0629223	-0.668679	-0.0317818	1.98948	9.74255	-0.00612235	0.0143571	-0.0223209	0.0678711	0.201904	-1.0105	-0.600158	-0.227834	-0.00713362	0.766714	-1.39008	0.600473	13.2838	0.0789682	0.00158737	-0.0226911	0.188721	0.373047	-1.02124	0.475296	-0.430647	-0.742557	-0.192992	8.4343	-1.27265	-4.2818	0.0259322	0.0187908	-0.0148522	-0.782227	0.482666	0.440918	0.726814	-0.18036	0.0433746	-0.661309	2.06727	-3.64937	10.1793	-0.00695626	0.0168683	0.0249219	-0.10498	0.696045	-0.791992	0.279153	-0.556717	-0.774161	-0.113197	5.22939	-1.20162	-7.60222	-0.00383794	0.0038848	-0.0660443	-0.682129	0.445068	0.731934	0.993115	0.0894597	-0.0748209	0.0110226	1.78044	2.04265	10.3318	0.00794803	0.0103142	0.00706767	-0.217773	0.216553	-1.05566	0.11101	-0.770335	-0.604597	-0.169481	4.19034	0.205985	-8.97862	-0.0236368	-0.00315674	-0.0253394	-0.3125	0.399414	1.01221	
40	0.536539	-0.438181	-0.454518	-0.559943	9.81175	0.397868	2.07327	0.00577845	-0.0101206	-0.0212581	-0.906006	0.365479	-0.206543	0.675896	-0.35825	-0.444193	-0.466384	9.38628	-0.795042	3.41973	-0.0280506	0.0233643	-0.000440593	-0.75708	0.370361	-0.274414	0.754799	-0.0329091	0.046546	-0.653475	-0.223682	-0.933683	10.7803	0.00280385	-0.0175635	0.00705421	0.0268555	0.411621	-0.921387	0.829044	-0.0129396	0.0539682	-0.556423	-0.703224	-0.826436	9.56383	0.00385549	-0.00905253	0.0160292	0.27832	0.528076	-0.903076	0.737487	0.0711547	-0.0642672	-0.668521	-0.0327813	2.00584	9.50846	0.0940627	-0.021568	-0.0105095	0.0703125	0.19751	-1.0105	-0.600361	-0.227606	-0.00704298	0.766625	-1.25291	0.61545	13.3354	-0.0267529	0.0101749	-0.00188423	0.18457	0.368652	-1.02124	0.47673	-0.430044	-0.742029	-0.192829	8.3592	-1.28278	-4.37985	0.035429	0.0798249	-0.00673865	-0.784424	0.480713	0.436768	0.727847	-0.178799	0.042659	-0.660643	2.07084	-3.35287	10.3897	0.0978204	0.0359691	0.0233532	-0.0983887	0.696045	-0.791992	0.278664	-0.555454	-0.775095	-0.114218	5.28311	-1.19168	-7.60694	-0.0285291	0.0134411	-0.0939336	-0.686768	0.44043	0.734131	0.993114	0.0895696	-0.0746534	0.0113251	1.70528	1.89132	10.1039	0.00145774	0.0298952	0.0142295	-0.222168	0.214355	-1.06689	0.110896	-0.770085	-0.604763	-0.170097	3.90939	0.381677	-8.84752	-0.015076	0.0220224	-0.02399	-0.319336	0.399414	1.01221	
41	0.536757	-0.438346	-0.454786	-0.559388	9.77922	0.347976	2.04132	0.0228862	-0.0270177	0.0259865	-0.903809	0.367676	-0.206543	0.675899	-0.358339	-0.444271	-0.466238	9.31416	-0.769399	3.54487	0.0118607	-0.0178178	-0.0179055	-0.754883	0.368164	-0.271973	0.754924	-0.0335677	0.046068	-0.65333	-0.341622	-1.08748	10.7842	-0.000239322	-0.0378235	-0.00666517	0.0288086	0.417969	-0.921631	0.829132	-0.0143405	0.0539266	-0.556261	-0.729842	-0.934434	9.64806	-0.0420583	-0.0295507	-0.000445001	0.273926	0.528076	-0.900879	0.737604	0.0696552	-0.0631776	-0.668653	-0.0285159	1.61973	9.7631	-0.111189	0.000324184	-0.00670956	0.0725098	0.19751	-1.0105	-0.600175	-0.227825	-0.00601615	0.766714	-1.36085	0.935578	13.3911	0.0147695	-0.00896019	-0.0246481	0.186768	0.37085	-1.01904	0.477188	-0.429872	-0.741895	-0.192599	8.34834	-1.26615	-4.57412	0.0423501	0.0375885	-0.00482337	-0.784424	0.480713	0.438965	0.728149	-0.17823	0.0423762	-0.660483	2.01094	-3.04582	10.329	0.0555445	0.0304577	0.00635325	-0.0961914	0.693848	-0.794189	0.278636	-0.55494	-0.775429	-0.114514	5.12814	-1.05245	-7.51323	-0.000199037	0.00821941	-0.0310758	-0.686768	0.44043	0.734131	0.993104	0.0896449	-0.0746749	0.0114945	1.8476	2.08986	10.0553	-0.00676343	0.00766934	0.00663477	-0.215332	0.214355	-1.05322	0.111034	-0.76997	-0.604955	-0.169845	3.82585	0.312663	-8.82754	0.0263667	-0.00340171	-0.0054514	-0.312744	0.401611	1.00977	
42	0.536934	-0.438549	-0.454949	-0.558926	9.76203	0.3566	1.98412	0.0229545	-0.0302925	0.0276593	-0.90625	0.369873	-0.197754	0.676222	-0.357888	-0.444382	-0.466009	9.30882	-0.704847	3.44074	0.0415338	0.0287724	-0.0122995	-0.754883	0.368164	-0.274414	0.754998	-0.0341298	0.0460245	-0.653219	-0.137903	-0.977634	10.6474	-0.0312936	-0.0264037	0.00583211	0.0288086	0.415771	-0.926025	0.829118	-0.014294	0.0535362	-0.556321	-0.627859	-0.994816	9.73418	0.0218144	-0.0165203	-0.00352282	0.27832	0.530273	-0.896484	0.737779	0.069356	-0.0633163	-0.668478	0.0125203	1.59405	9.44677	-0.0112975	-0.0153998	0.00587307	0.065918	0.197266	-1.0083	-0.600334	-0.226977	-0.00658355	0.766835	-1.40353	0.698163	13.514	-0.0732128	-0.0120557	-0.0236615	0.18457	0.37085	-1.01685	0.477997	-0.429556	-0.741542	-0.192654	8.37466	-1.12924	-4.1638	-0.0028514	0.0413193	-0.0120915	-0.788574	0.476318	0.434814	0.727887	-0.178714	0.0427354	-0.660618	2.03502	-3.2623	10.2677	-0.0234668	0.00920887	-0.0177099	-0.100586	0.69165	-0.794189	0.278579	-0.555018	-0.775376	-0.114638	5.27937	-1.17401	-7.61887	-0.00928799	0.00879062	-0.0155256	-0.686768	0.44043	0.731934	0.993104	0.0896449	-0.0746749	0.0114945	1.8476	2.08986	10.0553	-0.00676343	0.00766934	0.00663477	-0.215332	0.214355	-1.05322	0.111223	-0.769944	-0.605009	-0.169649	4.04568	0.266875	-8.99705	0.0254035	0.00264782	-0.00460383	-0.317139	0.399414	1.00977	
43	0.537285	-0.438502	-0.454727	-0.558806	9.83055	0.273125	2.01898	0.00271669	0.0137607	-0.00167701	-0.903809	0.365479	-0.204346	0.676554	-0.357638	-0.444401	-0.465702	9.19756	-0.659069	3.43609	0.00596885	-0.00677307	-0.00560628	-0.750732	0.370361	-0.272217	0.755254	-0.0340225	0.045931	-0.652935	-0.241372	-1.23972	10.8688	0.0423505	0.00439249	0.0102061	0.0266113	0.413818	-0.919189	0.829148	-0.0150679	0.0537467	-0.556236	-0.660799	-0.855677	9.72626	-0.0598833	-0.00165457	0.00419246	0.273926	0.530273	-0.896484	0.737825	0.0701626	-0.0638174	-0.668296	0.0559783	1.88495	9.60001	0.00999405	0.0235678	-0.0105141	0.0700684	0.201904	-1.0127	-0.600618	-0.227312	-0.00596449	0.766519	-1.20666	0.721596	13.3646	0.0699955	0.0233623	0.0143546	0.193115	0.37085	-1.01685	0.478181	-0.429509	-0.741481	-0.192538	8.21946	-1.24233	-4.34907	0.0334129	-0.00356445	-0.0145676	-0.788818	0.484863	0.432373	0.72773	-0.17869	0.0428576	-0.660789	2.07747	-3.50215	10.1737	0.0123156	0.0334366	-0.0258202	-0.0961914	0.693848	-0.796631	0.278656	-0.555134	-0.775227	-0.114892	5.14005	-1.12783	-7.47921	-0.0195377	0.0173802	-0.0199548	-0.684326	0.44043	0.734131	0.993332	0.0876817	-0.0739355	0.0116864	1.77677	1.90537	10.2053	-0.0519704	0.0262125	0.00788649	-0.217529	0.214355	-1.05566	0.112594	-0.76998	-0.604875	-0.169054	3.81699	0.409129	-8.7947	0.0762716	0.0230445	0.015195	-0.312744	0.403809	1.00977	
44	0.53718	-0.438207	-0.454754	-0.559117	9.67391	0.330326	2.04271	0.000983364	0.00046737	-0.0164057	-0.899414	0.369873	-0.204346	0.676486	-0.357852	-0.444509	-0.465533	9.39044	-0.690479	3.48033	-0.0140106	0.014641	-0.0154376	-0.759277	0.365967	-0.276611	0.755564	-0.0334623	0.045142	-0.65266	-0.189099	-0.878104	10.8962	0.00930727	0.00819679	0.0158967	0.0266113	0.413818	-0.923828	0.829381	-0.0140735	0.0529083	-0.555994	-0.679478	-0.651237	9.81296	0.0718282	-0.000265153	0.023183	0.271484	0.532471	-0.901123	0.738267	0.0704948	-0.0641051	-0.667744	0.0256976	2.19436	9.74407	0.00983258	0.00440119	0.010216	0.0722656	0.199707	-1.0127	-0.601145	-0.227388	-0.00612148	0.766082	-1.2963	0.678299	13.424	-0.0240613	0.022415	0.00895789	0.184814	0.366455	-1.02319	0.477815	-0.429371	-0.741895	-0.192162	8.3802	-1.24954	-4.39657	0.0138356	-0.0188574	-0.0138649	-0.788818	0.482666	0.436768	0.727618	-0.178322	0.042557	-0.661031	2.09684	-3.19517	10.3514	0.00520944	0.0213699	-0.0284195	-0.102783	0.693848	-0.791748	0.278435	-0.555345	-0.775105	-0.115235	5.36891	-1.19978	-7.61664	-0.00899092	0.00507882	-0.0106205	-0.682129	0.445068	0.734131	0.993317	0.0876287	-0.0741739	0.0118252	1.73048	1.73725	10.1919	0.0430419	0.00909779	0.00871313	-0.219971	0.216553	-1.0603	0.112459	-0.769865	-0.604979	-0.169295	4.18069	0.274551	-8.96875	-0.0340439	0.00946213	-0.0249573	-0.314941	0.403809	1.01196	
45	0.537184	-0.438134	-0.454919	-0.559036	9.79293	0.371271	2.10458	0.0138666	-0.00851221	0.00116531	-0.903809	0.367676	-0.206543	0.676281	-0.358059	-0.444369	-0.465805	9.30759	-0.770322	3.39616	-0.0108592	-0.00255851	-0.0210099	-0.75293	0.370361	-0.269775	0.755483	-0.0337203	0.0452577	-0.652733	-0.0666068	-1.11334	10.7396	0.00270467	0.00343444	-0.00553449	0.0266113	0.415771	-0.923828	0.829735	-0.0146815	0.053396	-0.555404	-0.624134	-0.870575	9.70741	-0.0218316	0.0117154	0.0196661	0.275879	0.532471	-0.896729	0.738468	0.0699054	-0.0628597	-0.667703	0.124653	1.54551	9.4456	-0.00871598	0.0224624	-0.00404787	0.0725098	0.195068	-1.00586	-0.601757	-0.227335	-0.00652777	0.765614	-1.19065	0.850733	13.3896	-0.0250007	0.0329904	0.00478744	0.188965	0.37085	-1.02124	0.477653	-0.429457	-0.74198	-0.19204	8.37871	-1.20711	-4.36543	0.0114181	0.0262536	-0.0152358	-0.786377	0.478516	0.436768	0.72757	-0.178546	0.042899	-0.661001	1.99287	-3.62617	10.2523	-0.00490428	0.0243451	-0.0124028	-0.100342	0.69165	-0.791748	0.278328	-0.555494	-0.774972	-0.115666	5.24213	-1.32206	-7.50746	-0.0058129	0.0184044	-0.0208935	-0.686768	0.442627	0.736328	0.993343	0.0876066	-0.0738375	0.0119812	1.69192	1.91643	10.1424	-0.0224475	0.0290578	0.00549457	-0.215576	0.220947	-1.05811	0.112965	-0.769734	-0.605054	-0.169285	3.93095	0.560905	-8.8261	0.022428	0.017585	0.000823861	-0.317139	0.403809	1.00757	
46	0.537218	-0.438912	-0.454972	-0.558348	9.85496	0.340961	2.01718	-0.00779052	-0.0379857	0.035711	-0.901855	0.369873	-0.199951	0.676087	-0.358267	-0.444383	-0.465912	9.38233	-0.76152	3.58912	-0.0175835	0.00868819	-0.0190253	-0.75293	0.370361	-0.272217	0.755546	-0.0327119	0.0446008	-0.652757	-0.175977	-1.04174	10.9076	0.0731784	0.00851655	-0.0068834	0.0266113	0.413818	-0.923828	0.829265	-0.0138329	0.0528561	-0.556179	-0.569087	-0.566099	9.8343	0.0176684	0.00805346	-0.0390944	0.264893	0.530029	-0.896484	0.738601	0.0705154	-0.0632832	-0.667451	-0.0634451	2.01354	9.78263	-0.00276305	0.0220122	-0.00839823	0.065918	0.197266	-1.0083	-0.601776	-0.228132	-0.00615	0.765365	-1.34357	0.684716	13.2883	0.033021	0.025121	0.00162235	0.191162	0.368652	-1.02319	0.477783	-0.42965	-0.741642	-0.192591	8.4189	-1.39781	-4.45747	-0.00913073	0.0153303	-0.0170359	-0.786621	0.482666	0.43457	0.727762	-0.178078	0.0428894	-0.660916	2.00195	-3.19264	10.3615	-0.00644866	0.0298368	-0.0133813	-0.103027	0.700439	-0.799072	0.278362	-0.555573	-0.77488	-0.11582	5.35853	-1.25078	-7.62461	-0.00519845	0.012081	-0.0090623	-0.682129	0.44043	0.734131	0.993223	0.0885871	-0.0742812	0.011971	1.67945	1.86926	9.92195	0.0633219	-0.00933012	-0.000625932	-0.219727	0.214355	-1.0647	0.112054	-0.769657	-0.605164	-0.169848	3.93914	0.220418	-8.73212	-0.0365228	-0.00736623	-0.0223299	-0.314941	0.401611	1.01904	
47	0.537565	-0.439274	-0.454582	-0.558048	9.76236	0.259564	1.97447	-0.000124001	0.00521848	0.018361	-0.904053	0.37207	-0.206543	0.676445	-0.358156	-0.444063	-0.465784	9.24167	-0.732642	3.4949	0.00465564	0.0340949	-0.00737467	-0.75293	0.370361	-0.279297	0.75513	-0.0328718	0.0443468	-0.653247	-0.195243	-0.867825	10.8566	-0.0449509	-0.00379871	-0.0231226	0.0224609	0.409424	-0.923584	0.829106	-0.0132148	0.0523714	-0.556476	-0.661782	-0.946801	9.72335	0.03268	0.00207716	-0.0112024	0.271729	0.528076	-0.898682	0.738705	0.0712863	-0.0637483	-0.66721	0.00101428	1.92328	9.45028	0.0628521	0.0148396	-0.0060869	0.0700684	0.199707	-1.0083	-0.601783	-0.228024	-0.00644584	0.765389	-1.28157	0.914881	13.4264	-0.0410666	0.0211415	-0.0286499	0.190918	0.375244	-1.02124	0.47901	-0.428988	-0.741229	-0.192612	8.32355	-1.16603	-4.2072	0.0381374	0.0623399	-0.018459	-0.788574	0.480713	0.436768	0.727769	-0.178759	0.0434278	-0.660691	2.06439	-3.6465	10.2719	-0.00802465	0.0158861	-0.00462094	-0.0964355	0.696045	-0.791992	0.278781	-0.555512	-0.774836	-0.115399	5.27676	-1.10547	-7.56687	0.0345176	0.0104292	-0.0287433	-0.682129	0.445068	0.731934	0.993146	0.0890409	-0.0747338	0.0121438	1.79858	1.81682	10.4664	-0.0111843	0.00967452	0.0111476	-0.221924	0.214355	-1.0625	0.111356	-0.769625	-0.605349	-0.169793	4.38991	0.198006	-9.13407	-0.0196323	-0.0086241	-0.0179641	-0.314941	0.403809	1.00513	
48	0.537737	-0.439293	-0.454466	-0.557962	9.73455	0.266564	2.00427	0.00451898	0.00287353	0.0142631	-0.90625	0.369873	-0.199951	0.676461	-0.358399	-0.443906	-0.465723	9.33949	-0.64896	3.49172	-0.0173361	0.0212799	-0.00129355	-0.75293	0.374756	-0.272217	0.755027	-0.0332595	0.045074	-0.653296	-0.385359	-1.15576	10.9026	-0.0118977	0.0180922	-0.0165679	0.0310059	0.40918	-0.919189	0.829018	-0.0137033	0.0530522	-0.556531	-0.642187	-0.953453	9.7079	-0.0632094	0.0251424	0.00494313	0.278564	0.525879	-0.903076	0.738805	0.0711337	-0.0633791	-0.667151	-0.0530134	2.3	9.6221	-0.0293454	0.022117	-0.00763777	0.0725098	0.195312	-1.0105	-0.601804	-0.227956	-0.00684857	0.76539	-1.29967	0.668846	13.377	-0.0226625	0.0300622	-0.0224503	0.191162	0.368652	-1.02124	0.479169	-0.429112	-0.740973	-0.19292	8.41763	-1.24335	-4.25413	-0.0112434	0.0384614	-0.00887797	-0.786621	0.484863	0.428223	0.728066	-0.178232	0.0433398	-0.660511	2.12367	-3.53173	10.3323	0.0425432	0.039334	0.00969479	-0.0983887	0.69165	-0.791748	0.278708	-0.55491	-0.775218	-0.115908	5.27798	-1.3742	-7.57451	0.0040898	0.0174143	-0.0465392	-0.68457	0.444824	0.736328	0.993163	0.0895796	-0.0737043	0.0130248	1.70422	1.83354	10.2575	0.0241451	0.0516389	0.0304204	-0.215332	0.214355	-1.06006	0.111828	-0.769033	-0.605964	-0.16997	3.90575	0.323664	-8.75722	0.0418325	0.0269985	-0.0327211	-0.314941	0.403809	1.0144	
49	0.5381	-0.439153	-0.454523	-0.557675	9.87836	0.30663	2.06559	0.0165695	0.00162586	0.00997637	-0.90625	0.37207	-0.199951	0.676617	-0.358557	-0.443756	-0.465518	9.48414	-0.731694	3.49273	-0.00765096	0.0149916	0.00836453	-0.75293	0.372559	-0.269775	0.755026	-0.0330634	0.0452588	-0.653295	-0.108537	-1.29699	10.9875	-0.00942704	0.0307673	0.0102736	0.0246582	0.409424	-0.923584	0.828979	-0.012888	0.052867	-0.556627	-0.723919	-0.652965	9.78501	0.0309664	0.0111363	-0.00871646	0.276367	0.523682	-0.896484	0.738862	0.0701721	-0.0618872	-0.66733	0.0132607	1.71533	9.5925	-0.0692934	0.021743	-0.013232	0.074707	0.197266	-1.00146	-0.601949	-0.227443	-0.00806173	0.765416	-1.32787	0.858208	13.2738	-0.0696457	0.0211443	-0.0262242	0.191162	0.368652	-1.02319	0.48035	-0.428431	-0.740744	-0.192377	8.50313	-1.20158	-4.28407	0.0874912	0.0458687	-0.0159209	-0.792969	0.482666	0.430176	0.72859	-0.177786	0.043457	-0.660045	2.07256	-3.42222	10.2253	0.0123777	0.0267925	0.0123485	-0.0961914	0.69165	-0.794189	0.278873	-0.554628	-0.775368	-0.115855	5.20772	-1.1062	-7.54379	0.0202945	0.0140539	-0.0401504	-0.688965	0.440186	0.738525	0.993079	0.0902911	-0.0737845	0.0140494	1.82164	1.99712	10.018	0.044765	0.0116868	0.0386457	-0.217285	0.209961	-1.05786	0.111317	-0.768448	-0.606648	-0.170511	3.98869	0.347011	-8.91933	-0.0152205	0.0029435	-0.0489619	-0.317139	0.401611	1.00977	
50	0.538253	-0.439701	-0.454667	-0.556977	9.88283	0.251079	2.07626	0.00689377	-0.0302467	0.0227138	-0.897461	0.374268	-0.197754	0.676761	-0.358671	-0.443098	-0.465848	9.36116	-0.785999	3.52756	-0.017848	0.0387559	-0.0151179	-0.746338	0.372559	-0.276855	0.755118	-0.0331473	0.0446716	-0.653224	-0.263095	-0.67966	10.7446	-0.00393253	-0.0226565	-0.0019916	0.0246582	0.407227	-0.923584	0.828975	-0.013859	0.053311	-0.556566	-0.709616	-1.06709	9.71386	-0.0199216	0.00239027	0.00973707	0.273926	0.530273	-0.90332	0.738674	0.0702282	-0.0622345	-0.6675	-0.11454	1.86863	9.87206	-0.027946	0.00695115	-0.0325579	0.0681152	0.199707	-1.0127	-0.601574	-0.22761	-0.00709155	0.765671	-1.37471	0.792655	13.3397	0.081714	-0.00749786	-0.0300282	0.186768	0.368652	-1.01685	0.48116	-0.42834	-0.740123	-0.192946	8.49104	-1.3533	-4.44878	-0.00863459	0.0600434	-0.00931105	-0.792969	0.482666	0.426025	0.729033	-0.177332	0.0430455	-0.659705	2.04775	-3.28188	10.4299	0.0307434	0.0116523	0.00167524	-0.0964355	0.696045	-0.798828	0.278703	-0.55416	-0.775674	-0.116455	5.50695	-1.34987	-7.72914	-0.00901862	0.0190044	-0.0419895	-0.693604	0.440186	0.736328	0.993032	0.0907936	-0.0737353	0.0144216	1.87826	2.10776	10.337	0.0415104	0.0210156	0.0260534	-0.215088	0.209961	-1.06006	0.11054	-0.768005	-0.607058	-0.171548	4.17527	0.560587	-8.97528	-0.0626264	0.0256006	-0.0461302	-0.318848	0.390381	1.00781	
51	0.538235	-0.440065	-0.454618	-0.556748	9.8256	0.257008	2.07763	-0.00950853	-0.0121985	0.00691551	-0.904053	0.37207	-0.204346	0.677003	-0.358552	-0.442974	-0.465705	9.34478	-0.677647	3.48761	-0.00174957	0.00395068	-0.0103546	-0.755127	0.372559	-0.269775	0.755144	-0.0338106	0.0455487	-0.6531	-0.0888312	-1.05663	10.8181	-0.0864588	0.0243274	0.00631322	0.0266113	0.411621	-0.928223	0.829126	-0.0133533	0.0529786	-0.556386	-0.599892	-0.823711	9.82223	0.0490691	0.00678329	0.021834	0.273926	0.525879	-0.900879	0.738481	0.0703705	-0.0631116	-0.667615	-0.0759151	2.12244	9.71911	0.0454166	-0.0162129	-0.0230015	0.0681152	0.199707	-1.0105	-0.601207	-0.227206	-0.00697307	0.76608	-1.28385	0.656065	13.5059	-0.0166601	-0.00123394	-0.0398027	0.182617	0.366455	-1.02539	0.481782	-0.428216	-0.739753	-0.193089	8.41844	-1.16554	-4.21126	0.00462178	0.0213388	-0.0102936	-0.790771	0.480713	0.426025	0.729123	-0.177843	0.0439243	-0.65941	1.93866	-3.55508	10.293	-0.0471238	0.0226173	-0.0024541	-0.0981445	0.689453	-0.796387	0.279825	-0.553797	-0.775578	-0.11613	5.43526	-1.19638	-7.5989	0.0398703	0.0335479	-0.00969903	-0.693604	0.442627	0.734131	0.992963	0.0918503	-0.0732569	0.0149035	1.66324	2.11212	9.92928	0.0621146	0.0328455	0.008037	-0.214844	0.203369	-1.06226	0.110113	-0.767795	-0.607209	-0.172229	3.97787	0.420702	-8.80271	-0.050608	0.0282028	-0.0370409	-0.319092	0.396973	1.01221	
52	0.537852	-0.440266	-0.454667	-0.55692	9.82595	0.188441	1.99115	-0.00320423	-0.0144655	-0.0206285	-0.904053	0.37207	-0.204346	0.677054	-0.358746	-0.442753	-0.465692	9.31104	-0.743019	3.56729	-0.0173041	0.00783406	-0.00572743	-0.750977	0.37915	-0.2771	0.755254	-0.0332654	0.0448668	-0.653048	-0.237462	-1.00506	10.7751	0.0793193	-0.01564	0.00366291	0.0266113	0.415771	-0.919189	0.829261	-0.0141072	0.0534552	-0.556121	-0.772902	-0.890313	9.75164	-0.033569	0.00352194	0.00417266	0.271484	0.530273	-0.896484	0.738425	0.069182	-0.0621289	-0.667894	0.00143169	1.618	9.52817	-0.0639045	0.000856476	-0.0135181	0.0725098	0.197266	-1.00586	-0.601016	-0.226926	-0.00701218	0.766313	-1.37508	0.799575	13.5591	-0.0211647	0.00788994	-0.02851	0.18457	0.37085	-1.01904	0.482633	-0.428014	-0.739294	-0.193169	8.45973	-1.27391	-4.17469	0.0426353	0.0656762	-0.0111431	-0.786621	0.480713	0.428223	0.729435	-0.177899	0.0432729	-0.659093	1.90403	-3.41109	10.0017	0.0181136	-0.0119325	-0.00231992	-0.0942383	0.698242	-0.791992	0.279903	-0.553125	-0.776031	-0.116119	5.08915	-1.03717	-7.27063	0.0134657	-0.00772133	-0.0653538	-0.684326	0.437988	0.731934	0.992917	0.0920024	-0.073767	0.0145053	1.67009	1.81066	10.1086	-0.0163096	-0.0199209	-0.0174119	-0.217285	0.207764	-1.06006	0.108841	-0.767916	-0.606963	-0.173362	3.93938	0.634901	-8.75395	-0.0998447	0.00291133	-0.0123243	-0.318848	0.388184	1.01001	
53	0.537814	-0.439967	-0.454963	-0.556951	9.73814	0.324748	2.00296	0.0146437	0.00111887	-0.00697813	-0.903809	0.369873	-0.206543	0.677418	-0.358594	-0.442046	-0.465951	9.18364	-0.761494	3.5577	-0.0126301	0.0333491	-0.0135094	-0.744141	0.372559	-0.272217	0.755489	-0.0332388	0.045388	-0.652741	-0.265757	-0.941362	10.8855	-0.0381297	0.0271699	0.00489737	0.0268555	0.411621	-0.926025	0.829345	-0.0134137	0.0535489	-0.556003	-0.693957	-0.771146	9.80592	0.0215174	0.0218999	0.00820003	0.273926	0.528076	-0.896484	0.738172	0.0701421	-0.0623365	-0.668054	0.00635564	1.93112	9.68452	0.0262365	0.0424306	-0.0333719	0.0744629	0.201904	-1.0105	-0.601075	-0.227057	-0.00761367	0.766222	-1.27394	0.62298	13.4285	0.00532181	0.0454084	-0.0145702	0.186523	0.373047	-1.02124	0.483031	-0.428391	-0.73857	-0.194105	8.35383	-1.28023	-4.17531	-0.0175362	0.0418362	-0.00623295	-0.799316	0.478516	0.426025	0.730002	-0.177521	0.0422479	-0.658634	2.12107	-3.34822	10.4488	0.0604439	0.00730444	0.0063522	-0.092041	0.693848	-0.796631	0.279026	-0.552245	-0.776858	-0.116881	5.65768	-1.18916	-7.74423	-0.0100692	-0.00233638	-0.0710665	-0.691162	0.437988	0.73877	0.992825	0.0930829	-0.073743	0.0140168	1.70096	2.36623	10.3076	0.00523085	0.0281063	-0.0278961	-0.217285	0.205566	-1.06445	0.108551	-0.768265	-0.606523	-0.173541	4.17458	0.11055	-8.94844	0.0502855	0.00706651	0.041359	-0.321045	0.388184	1.00781	
54	0.538481	-0.439501	-0.454599	-0.556971	9.75799	0.323053	2.07993	0.0107205	0.0286391	0.0222354	-0.897217	0.369873	-0.202148	0.677468	-0.35845	-0.441965	-0.466066	9.3346	-0.758036	3.45595	0.0103309	0.0210698	-0.0234241	-0.748779	0.376953	-0.27002	0.755388	-0.0338853	0.0467023	-0.652732	-0.209076	-1.40233	10.7124	-0.0495815	0.0395968	0.00789689	0.0288086	0.415771	-0.919189	0.829537	-0.0133148	0.0543585	-0.555641	-0.697866	-0.886196	9.64058	0.00610812	0.0363007	0.00899399	0.282715	0.532471	-0.898926	0.73815	0.0702823	-0.0615932	-0.668133	-0.0966639	1.90397	9.66886	-0.00738632	0.0280699	-0.0205276	0.0725098	0.19751	-1.0105	-0.600866	-0.227605	-0.00842417	0.766214	-1.38118	0.713356	13.3733	-0.0225914	0.0468784	-0.0354669	0.188965	0.368652	-1.01904	0.483547	-0.427913	-0.738611	-0.193719	8.4119	-1.1994	-4.18201	0.0204936	0.0247419	-0.0228258	-0.793213	0.484863	0.419678	0.729992	-0.177376	0.0428502	-0.658645	1.9691	-3.04794	10.4447	-0.0433064	0.0477703	-0.0212984	-0.0961914	0.69165	-0.796631	0.279321	-0.552397	-0.776634	-0.11695	5.39803	-0.982402	-7.60711	0.00768793	0.0209065	0.00847912	-0.688721	0.431152	0.732178	0.992968	0.0919648	-0.0732036	0.0140607	1.62039	1.61836	10.0783	0.000647258	0.0471348	0.0169612	-0.212891	0.207764	-1.05762	0.108868	-0.768346	-0.606369	-0.173516	4.10113	0.178403	-8.87928	-0.00345631	0.00991616	-0.0163304	-0.325684	0.392578	1.00757	
55	0.538671	-0.43927	-0.454631	-0.556943	9.83725	0.257185	2.09077	0.0155838	-0.00494691	-0.0123812	-0.908447	0.37207	-0.204346	0.677621	-0.358424	-0.441834	-0.465987	9.33699	-0.735116	3.61609	-0.00037182	0.0202807	-0.0103852	-0.750732	0.372559	-0.276855	0.755519	-0.0324027	0.0461554	-0.652695	-0.206455	-0.741232	10.9084	0.0718573	0.00921827	-0.00471684	0.0288086	0.417969	-0.923828	0.829343	-0.0125698	0.0544499	-0.555938	-0.761574	-0.830677	9.61566	0.0197668	0.0173422	-0.00527099	0.27832	0.528076	-0.898682	0.738345	0.0702089	-0.0604894	-0.668026	-0.00760139	1.68941	9.49306	-0.0194817	0.0288909	-0.00355051	0.0722656	0.204102	-1.0083	-0.600994	-0.227614	-0.00937105	0.766101	-1.32506	0.611889	13.2923	-0.0228034	0.036612	-0.0114289	0.186523	0.377197	-1.02344	0.483826	-0.427872	-0.738381	-0.193988	8.54674	-1.26467	-4.14772	0.030231	0.0342786	-0.0200828	-0.788574	0.480713	0.424072	0.729657	-0.17778	0.0436105	-0.658857	1.93565	-3.47435	10.0303	-0.0223355	0.0262313	-0.0298312	-0.0939941	0.693848	-0.794189	0.279466	-0.553015	-0.776179	-0.1167	4.96298	-1.16368	-7.36425	0.0115674	-0.000842501	0.0112236	-0.686523	0.437988	0.736328	0.992941	0.092391	-0.0729696	0.0144157	1.6632	2.09983	10.1592	0.0357471	0.0357152	0.0247707	-0.214844	0.203369	-1.07129	0.109597	-0.768131	-0.606756	-0.172657	3.86237	0.633491	-8.78405	0.0599552	-0.0109922	-0.0128404	-0.321289	0.392578	1.01221	
56	0.538809	-0.439315	-0.454655	-0.556755	9.74575	0.243191	1.98903	0.0054797	-0.00893973	0.0131005	-0.910889	0.374023	-0.200195	0.677939	-0.358102	-0.441213	-0.466361	9.22735	-0.712349	3.65195	-0.0190895	0.0465161	-0.0177409	-0.748779	0.376953	-0.272461	0.756001	-0.0319603	0.0462342	-0.652152	-0.286104	-1.26086	10.8256	0.019197	0.0281518	0.0308796	0.0310059	0.415771	-0.928467	0.829352	-0.012738	0.0543939	-0.555927	-0.715696	-0.631888	9.79063	-0.0185666	0.00337939	-0.00155163	0.275879	0.532471	-0.896729	0.738406	0.070635	-0.0608163	-0.667883	-0.0957628	1.9999	9.66541	0.0424104	0.0121474	-0.00379288	0.0722656	0.204102	-1.0105	-0.601322	-0.227859	-0.00934737	0.765771	-1.44176	0.561922	13.3062	0.0124057	0.0355738	0.0197433	0.193115	0.37085	-1.01904	0.484009	-0.427741	-0.73829	-0.194167	8.51318	-1.20263	-4.1986	0.0105507	0.0328953	-0.0249964	-0.792969	0.478516	0.424072	0.729584	-0.177648	0.043302	-0.658994	2.05399	-3.55693	10.2235	0.0267636	0.0114591	-0.0327917	-0.092041	0.696045	-0.796631	0.279186	-0.55339	-0.776076	-0.116282	5.53346	-1.23346	-7.72143	0.00275745	-0.00907889	-0.00243866	-0.688965	0.437988	0.736328	0.992974	0.0920498	-0.0727106	0.015554	1.74706	2.03169	10.1031	0.0789821	0.0217679	0.0272076	-0.215088	0.205566	-1.06689	0.108962	-0.767726	-0.607398	-0.172605	4.14722	0.476266	-8.94771	-0.0116895	-0.0064423	-0.0405991	-0.321289	0.390381	1.01001	
57	0.539179	-0.439026	-0.454659	-0.556622	9.92498	0.312029	2.02426	0.0191513	0.0206085	0.00448798	-0.899658	0.37207	-0.20874	0.678182	-0.357958	-0.441124	-0.466203	9.29545	-0.822041	3.52544	0.0107677	0.024939	-0.0120152	-0.75293	0.370361	-0.281494	0.756181	-0.0308243	0.0459234	-0.652021	-0.168707	-1.26381	10.7569	0.0851824	0.0458032	0.0183991	0.0310059	0.409424	-0.928223	0.828586	-0.0119047	0.054248	-0.5571	-0.725306	-0.926341	9.81503	0.0905742	0.03139	-0.0686986	0.278564	0.525879	-0.900879	0.738427	0.0719455	-0.061235	-0.667682	-0.123425	2.20011	9.57994	0.0458786	0.0142388	-0.0114379	0.0788574	0.201904	-1.0105	-0.601596	-0.228971	-0.0084478	0.765234	-1.36141	0.906449	13.4106	0.0299963	0.029266	-0.0127559	0.187012	0.366455	-1.021	0.483852	-0.427795	-0.738326	-0.194306	8.42886	-1.24512	-4.18676	0.023369	0.00360951	-0.0252439	-0.79541	0.484863	0.421631	0.729608	-0.177546	0.043362	-0.658991	1.97374	-3.59447	10.2102	0.0200197	0.0217871	-0.00691698	-0.0964355	0.696045	-0.796631	0.2791	-0.553389	-0.776119	-0.116206	5.23904	-1.32737	-7.48688	0.00251675	0.00127521	-0.0285835	-0.688965	0.44043	0.734131	0.992909	0.0925198	-0.0729782	0.0157155	1.64889	2.41204	10.0514	0.0370257	-0.00596376	0.0112004	-0.212891	0.209961	-1.0647	0.108466	-0.767964	-0.607349	-0.172028	4.01667	0.63693	-8.79352	-0.00773872	-0.0328913	0.0105236	-0.319336	0.399414	1.0144	
58	0.539649	-0.438744	-0.454253	-0.55672	9.84842	0.298187	2.05759	0.00830018	0.0459242	0.0190002	-0.901855	0.374268	-0.204346	0.678343	-0.357653	-0.44094	-0.466376	9.26735	-0.816729	3.57536	0.00395309	0.0446604	-0.0260656	-0.748779	0.37915	-0.28418	0.756528	-0.028344	0.0448155	-0.651808	-0.323407	-0.875374	10.899	0.103945	0.0334856	0.0175489	0.0332031	0.404785	-0.918945	0.828175	-0.0102018	0.0535804	-0.557809	-0.707846	-0.731542	9.89053	0.146543	0.0410002	-0.0575576	0.276611	0.519287	-0.903076	0.738337	0.0714305	-0.0602975	-0.667923	-0.148663	1.99868	9.67365	-0.0816478	0.0331041	-0.0374925	0.0744629	0.201904	-1.0083	-0.601852	-0.228845	-0.00902855	0.765064	-1.34374	0.864425	13.2951	-0.0418749	0.0394105	-0.00474143	0.193359	0.368652	-1.01904	0.483039	-0.427985	-0.738652	-0.194665	8.38615	-1.31641	-4.23979	-0.0219806	-0.0154089	-0.0252822	-0.794922	0.478516	0.426025	0.729714	-0.177599	0.0432495	-0.658867	1.89509	-3.212	10.3537	0.00736573	0.00880993	-0.00567001	-0.0898438	0.693848	-0.794189	0.279143	-0.553274	-0.776226	-0.115932	5.39578	-1.24818	-7.5436	0.0250556	-0.00420659	-0.0243939	-0.688721	0.43335	0.736572	0.992949	0.09216	-0.0729662	0.0153428	1.71844	1.99949	10.1247	-0.0155825	0.00723522	-0.0122857	-0.217285	0.209961	-1.06226	0.10833	-0.768266	-0.607089	-0.171686	4.18272	0.343027	-8.94215	0.00445427	-0.0240003	0.0285638	-0.314697	0.39502	1.00537	
59	0.540677	-0.437861	-0.453415	-0.557101	9.73249	0.283826	2.17778	0.0109449	0.0576317	0.0031409	-0.906494	0.376465	-0.206543	0.678517	-0.357246	-0.441413	-0.465988	9.36036	-0.631085	3.56133	0.0213169	-0.00584059	-0.0117876	-0.75293	0.372559	-0.276855	0.756362	-0.0287889	0.0464665	-0.651865	-0.351294	-0.997403	10.8364	-0.0882114	0.0534663	-0.00315256	0.0310059	0.413574	-0.921631	0.828215	-0.00900307	0.0540258	-0.557728	-0.721836	-0.610064	9.77639	-0.00240816	0.0524199	0.0263808	0.278564	0.523682	-0.903076	0.738531	0.0712207	-0.0597233	-0.667782	-0.0330364	1.79798	9.59995	0.0157009	0.019775	-0.0013008	0.0786133	0.204102	-1.00586	-0.601738	-0.228861	-0.00950491	0.765143	-1.38563	0.623428	13.3049	0.0267204	0.0214314	-0.03676	0.188965	0.37085	-1.02344	0.48272	-0.427618	-0.739211	-0.194143	8.47243	-1.20482	-4.2488	0.0401534	-0.0262134	-0.02691	-0.795166	0.480469	0.428223	0.729905	-0.177976	0.0439857	-0.658505	2.00735	-3.4157	10.2753	-0.0164973	0.0366033	0.000246987	-0.0942383	0.696045	-0.791992	0.279284	-0.553301	-0.776265	-0.115199	5.19588	-0.968151	-7.51372	0.0296028	-0.00248222	-0.00981313	-0.686523	0.435791	0.73877	0.993123	0.090862	-0.0723312	0.01479	1.58366	1.84533	10.2168	-0.0462691	0.0385696	-0.00972362	-0.210693	0.210205	-1.06006	0.109022	-0.768777	-0.60651	-0.171004	3.97039	0.356427	-8.8938	0.0450605	0.00176281	0.033826	-0.316895	0.392578	1.01465	
60	0.541773	-0.437154	-0.452863	-0.55704	9.68897	0.260269	2.18721	0.0290946	0.0369004	0.0263775	-0.899658	0.37207	-0.212891	0.678416	-0.357918	-0.440699	-0.466295	9.37979	-0.849277	3.62706	-0.0569001	0.0296534	-0.0110554	-0.750732	0.372559	-0.276855	0.756026	-0.0279415	0.0466167	-0.652281	-0.390072	-1.07141	10.86	0.053538	0.0190035	-0.028223	0.0354004	0.406982	-0.923584	0.82818	-0.00897669	0.05507	-0.557677	-0.851226	-0.832035	9.61128	0.0100612	0.036471	-0.0115266	0.280762	0.523682	-0.900879	0.738527	0.0714586	-0.0596673	-0.667766	-0.162232	1.88873	9.61031	0.0106781	0.0233344	-0.0159523	0.0788574	0.199707	-1.0083	-0.602019	-0.227597	-0.011067	0.765278	-1.39439	0.501604	13.3033	-0.11112	0.00766621	-0.016492	0.195068	0.377197	-1.01929	0.482686	-0.427946	-0.738976	-0.194399	8.46417	-1.34369	-4.32166	0.00393547	0.033534	-0.00890603	-0.792969	0.478516	0.426025	0.729512	-0.177719	0.0435907	-0.659035	2.0163	-3.16437	10.39	0.0129155	0.013422	-0.0586577	-0.0898438	0.696045	-0.798828	0.279215	-0.553819	-0.776021	-0.114521	5.35243	-0.980556	-7.63739	0.00595223	-0.0137718	0.0163945	-0.688965	0.442627	0.729736	0.993069	0.0912706	-0.0725745	0.0147466	1.75296	1.7396	10.1006	0.0219759	0.0050852	0.00142331	-0.213135	0.212158	-1.06934	0.108946	-0.768951	-0.606392	-0.170688	3.85816	0.320938	-8.87534	-0.00247677	-0.00631152	-0.010964	-0.314697	0.39502	1.00537	
61	0.542472	-0.436831	-0.452376	-0.557008	9.99243	0.292183	2.21161	0.0038539	0.0339561	0.0105964	-0.897461	0.374268	-0.20874	0.678429	-0.357891	-0.440681	-0.466313	9.23761	-0.763239	3.48264	0.0055974	-0.00390088	-0.0147322	-0.746582	0.374756	-0.2771	0.755833	-0.0281486	0.0471864	-0.652455	-0.436065	-0.89455	10.7639	-0.058293	0.0216926	-0.022527	0.0354004	0.406982	-0.93042	0.827976	-0.00821116	0.0552022	-0.557979	-0.759278	-0.798886	9.47657	0.0108399	0.0293659	-0.00385142	0.281006	0.521484	-0.896484	0.738602	0.0704751	-0.0589615	-0.667851	-0.101843	1.40596	9.49002	0.00497747	0.0217952	-0.010718	0.076416	0.206055	-1.00366	-0.601702	-0.227886	-0.0101372	0.765454	-1.44058	0.890766	13.3618	0.045766	-0.00180598	-0.0290678	0.186768	0.37085	-1.02124	0.482181	-0.428271	-0.73905	-0.194653	8.45317	-1.26419	-4.26659	-0.0304775	-0.00937612	-0.0136853	-0.790527	0.474121	0.428467	0.72847	-0.17886	0.0441615	-0.659841	2.01142	-3.50408	10.3189	-0.0534186	0.0181832	-0.0651671	-0.0964355	0.696045	-0.80127	0.279295	-0.555065	-0.775171	-0.114047	5.39582	-1.31095	-7.60577	0.0121682	0.00895433	0.0507328	-0.688965	0.442627	0.734131	0.993098	0.0909983	-0.0725042	0.0147761	1.71861	2.12724	10.3636	-0.0381831	0.0181732	0.000189047	-0.212646	0.205566	-1.06226	0.109153	-0.769073	-0.606248	-0.170517	4.08259	0.297456	-9.01141	0.0250205	0.00888184	0.0190589	-0.3125	0.397217	1.01221	
62	0.542969	-0.436773	-0.45128	-0.557459	9.63694	0.264078	2.22667	-0.0296082	0.028504	0.0150045	-0.899902	0.376465	-0.215088	0.678372	-0.357933	-0.441101	-0.465967	9.38292	-0.764311	3.48778	0.0189381	-0.0233302	-0.0121458	-0.75293	0.374756	-0.281738	0.755649	-0.0291599	0.0478378	-0.652577	-0.279323	-1.36671	10.7926	-0.0188239	0.0096253	0.00963681	0.0310059	0.411377	-0.921387	0.827975	-0.0087801	0.0554198	-0.55795	-0.808901	-0.782037	9.59374	-0.04833	-0.00612839	0.00136743	0.283203	0.521484	-0.900879	0.73866	0.0710864	-0.0603745	-0.667595	-0.103857	2.34325	10.0341	-0.0015216	-0.0141833	-0.0112264	0.0766602	0.201904	-1.00586	-0.602019	-0.22742	-0.010017	0.765345	-1.38189	0.545566	13.3612	0.020126	-0.000257701	-0.000657114	0.193115	0.373047	-1.01709	0.481795	-0.42856	-0.739124	-0.194692	8.52589	-1.2175	-4.33298	-0.00212154	-0.02173	-0.0136986	-0.791016	0.482666	0.428223	0.727935	-0.178634	0.043774	-0.660519	2.01564	-3.45791	10.2042	0.0523702	0.0156479	-0.0492337	-0.0961914	0.693848	-0.789551	0.279145	-0.555819	-0.774695	-0.113981	5.22976	-1.45404	-7.51241	-0.0137572	-0.00182012	0.00105762	-0.682129	0.442627	0.740967	0.993196	0.0900306	-0.0724204	0.0145652	1.68406	1.85002	10.0367	-0.028126	0.0108296	-0.0106144	-0.215332	0.216553	-1.0625	0.110003	-0.769463	-0.605688	-0.1702	3.92073	0.534096	-8.79835	0.0110971	0.0157392	0.0274836	-0.31665	0.392578	1.00537	
63	0.542652	-0.437148	-0.450637	-0.557994	9.76201	0.221444	2.21364	-0.034863	0.00418296	-0.00172428	-0.901855	0.37207	-0.212891	0.678125	-0.357958	-0.441139	-0.466271	9.26879	-0.736617	3.44134	-0.0418812	0.0129214	-0.0188482	-0.750732	0.372559	-0.279297	0.755818	-0.0287867	0.0461129	-0.652522	-0.355338	-0.813713	10.7599	0.0460837	-0.0508776	-0.00296069	0.0288086	0.413574	-0.928467	0.828327	-0.00815214	0.0542133	-0.557556	-0.901386	-0.772403	9.63217	0.0971558	-0.028072	0.0298088	0.278564	0.521484	-0.898682	0.738564	0.070429	-0.0602757	-0.66778	-0.0495285	1.79504	9.47384	0.0523475	-0.0170356	-0.0248373	0.0766602	0.204102	-1.0083	-0.602139	-0.227147	-0.00962289	0.765337	-1.2861	0.806222	13.4594	-0.0235073	-0.00202651	-0.0103026	0.190918	0.37085	-1.01904	0.481161	-0.429093	-0.739124	-0.195088	8.35765	-1.33388	-4.18266	-0.0012	0.002078	-0.0174194	-0.794922	0.478516	0.43457	0.727533	-0.179229	0.0440344	-0.660783	2.10361	-3.68165	10.2567	-0.0342429	0.0196998	-0.0302784	-0.100586	0.696045	-0.791992	0.279181	-0.556303	-0.774419	-0.1134	5.24086	-1.27612	-7.60504	0.0148252	-0.00447227	0.00232157	-0.682373	0.45166	0.738525	0.993213	0.0898422	-0.0724979	0.0141568	1.65915	1.95114	10.3069	-0.0140212	0.00572331	-0.0142384	-0.210693	0.212402	-1.05566	0.109963	-0.769842	-0.605221	-0.170176	4.07613	0.501898	-8.9748	-0.0112535	0.0010403	0.0169392	-0.316895	0.397217	1.01221	
64	0.542827	-0.437905	-0.449444	-0.558191	9.79922	0.175799	2.18071	-0.0456185	0.0151131	0.0427472	-0.899902	0.378662	-0.215088	0.677587	-0.358421	-0.441485	-0.46637	9.25689	-0.871499	3.60283	-0.0195463	-0.0289957	-0.0298095	-0.75293	0.372559	-0.274658	0.755872	-0.0290901	0.0453604	-0.652498	-0.239418	-0.97943	10.6849	0.0104124	-0.0375762	-0.00738252	0.0354004	0.40918	-0.923584	0.828939	-0.0097777	0.0539704	-0.556644	-0.717218	-0.888861	9.66658	-0.0702817	-0.0374748	0.0383175	0.276123	0.525879	-0.900879	0.738267	0.0704093	-0.0602939	-0.668108	-0.109783	1.54915	9.62555	-0.0252285	0.0105393	-0.0276442	0.0720215	0.208496	-1.00586	-0.602103	-0.227369	-0.00931809	0.765303	-1.31563	0.62695	13.3651	0.0344654	0.0150445	-0.0126412	0.18457	0.373047	-1.02124	0.480825	-0.429137	-0.739379	-0.194855	8.32405	-1.25175	-4.18477	0.0165354	-0.028118	-0.0186612	-0.788574	0.480713	0.43042	0.727666	-0.17873	0.0431609	-0.660829	2.0425	-3.24033	10.2486	0.0453557	0.0107972	-0.0152196	-0.100586	0.69165	-0.796387	0.278983	-0.556245	-0.774528	-0.113429	5.35015	-1.33221	-7.57268	0.00574273	0.00132738	-0.0247604	-0.684326	0.44043	0.731934	0.993247	0.0896429	-0.0723566	0.013753	1.68003	1.89145	10.0881	-0.00943554	0.0119376	-0.0155528	-0.210693	0.210205	-1.06226	0.109946	-0.770222	-0.604724	-0.17023	3.89889	0.130166	-8.76478	0.0271371	0.00178046	0.0274755	-0.312744	0.403809	1.0144	
65	0.542836	-0.438449	-0.448416	-0.558583	9.93564	0.163033	2.17128	-0.0405849	0.0559774	0.0260699	-0.893311	0.380859	-0.215088	0.677557	-0.358032	-0.441704	-0.466505	9.23874	-0.761393	3.63713	0.0267996	0.0294076	-0.0314676	-0.75293	0.374756	-0.2771	0.755994	-0.0296517	0.0449598	-0.65236	-0.290635	-1.09026	10.9488	0.00644088	-0.016141	0.0025696	0.0310059	0.40918	-0.923584	0.829029	-0.00909933	0.0525837	-0.556653	-0.66865	-0.487838	9.87039	0.0477221	-0.0239277	0.00291107	0.27417	0.523682	-0.905273	0.738068	0.0708509	-0.0609074	-0.668226	-0.143329	1.81827	9.5256	0.0593085	-0.00663898	-0.0316204	0.0744629	0.204102	-1.0105	-0.601531	-0.227585	-0.00917876	0.76569	-1.49302	0.795531	13.426	-0.00549436	0.0113534	-0.0484001	0.193359	0.368652	-1.01904	0.479684	-0.429888	-0.739574	-0.195268	8.49326	-1.27013	-4.20459	-0.0344533	-0.0159224	-0.0186902	-0.788574	0.480713	0.43457	0.727781	-0.179067	0.0430909	-0.660616	2.09395	-3.47602	10.3362	0.00840756	0.00570501	-0.008504	-0.0964355	0.698242	-0.794189	0.278778	-0.556034	-0.774792	-0.113166	5.30525	-1.11647	-7.61236	0.0138287	-0.0105097	-0.0331201	-0.680176	0.449463	0.740723	0.99328	0.0891885	-0.0724691	0.0137044	1.72547	1.77005	10.4233	-0.0156413	0.0253156	0.00703645	-0.212891	0.207764	-1.06445	0.110128	-0.770418	-0.604434	-0.170258	4.21182	0.16682	-8.97818	0.00345446	0.00810722	0.0129704	-0.317139	0.403809	1.0144	
66	0.543058	-0.43884	-0.447825	-0.558533	9.55657	0.150595	2.22583	-0.0324111	0.0101699	0.0449773	-0.902344	0.383057	-0.213135	0.677359	-0.358128	-0.442303	-0.466152	9.2327	-0.80797	3.51744	0.01892	-0.0401589	-0.0201062	-0.746338	0.370361	-0.274414	0.75593	-0.0294516	0.0443612	-0.652483	-0.190988	-0.902901	10.8368	0.0441183	-0.0189682	-0.013677	0.0354004	0.402588	-0.923584	0.829159	-0.00994961	0.0526974	-0.556435	-0.666124	-0.745493	9.86389	-0.0607569	-0.0235744	0.0184949	0.276367	0.521484	-0.903076	0.737562	0.069845	-0.060072	-0.668966	-0.0853502	1.69618	9.50158	-0.094543	-0.00429558	-0.051098	0.0766602	0.204102	-1.00586	-0.600796	-0.227925	-0.00899224	0.766168	-1.40076	0.622609	13.3131	0.0270058	0.0185366	-0.0415903	0.190674	0.377197	-1.02344	0.478333	-0.429894	-0.740486	-0.195115	8.34096	-1.28924	-4.46694	-0.0116204	-0.0647743	-0.0377836	-0.794922	0.474121	0.438965	0.727794	-0.179393	0.0429348	-0.660523	2.05945	-3.32785	10.3666	-0.00730574	-0.00764108	-0.0143755	-0.102783	0.696045	-0.794189	0.278493	-0.556027	-0.774871	-0.113359	5.39251	-1.18984	-7.65257	-0.0210399	-0.00383215	-0.0302776	-0.68457	0.447021	0.740723	0.993354	0.0888431	-0.0718477	0.0138702	1.7091	1.97977	10.3522	-0.0285301	0.0657468	0.00680655	-0.20874	0.216797	-1.0647	0.111072	-0.770406	-0.604367	-0.169934	4.21163	-0.00207815	-9.09333	0.0757362	0.0317511	0.0157816	-0.312744	0.403809	1.00757	
67	0.543485	-0.43902	-0.447251	-0.558437	9.76343	0.0283797	2.17713	0.00651268	0.0186094	0.023683	-0.895508	0.380859	-0.217285	0.677046	-0.358323	-0.442747	-0.466035	9.38602	-0.756782	3.58913	0.000278801	-0.00781977	-0.0233527	-0.750977	0.37915	-0.272461	0.756116	-0.0295653	0.0440981	-0.65228	-0.154963	-0.994195	10.9315	0.00721045	-0.0138665	0.00997482	0.0332031	0.413574	-0.919189	0.829056	-0.00966178	0.0519802	-0.55666	-0.616797	-0.648848	9.96694	0.0348528	-0.0101496	-0.0101544	0.281006	0.521484	-0.903076	0.737196	0.0686973	-0.059383	-0.66955	-0.137627	1.95096	9.7925	-0.0651098	0.000570546	-0.0392628	0.0720215	0.206055	-1.00366	-0.601069	-0.228108	-0.00860657	0.765904	-1.37352	0.521763	13.3386	0.0131074	0.0133845	0.0129285	0.195312	0.373047	-1.02563	0.475508	-0.430056	-0.74262	-0.193544	8.35529	-1.24933	-4.37758	0.0178446	-0.194828	-0.0436548	-0.788574	0.476318	0.441162	0.727768	-0.179663	0.0431185	-0.660466	2.09142	-3.31268	10.2642	-0.0226537	0.0161262	-0.0130856	-0.102783	0.698242	-0.791992	0.278458	-0.55609	-0.774861	-0.113207	5.07132	-1.06678	-7.49601	0.000170498	-0.000173979	-0.0134539	-0.682129	0.444824	0.740723	0.993482	0.087705	-0.0714062	0.0142378	1.56153	1.73968	9.85575	-0.0382099	0.0135151	0.015612	-0.213135	0.216553	-1.0647	0.112372	-0.770213	-0.604509	-0.169449	3.64044	0.551752	-8.60302	0.0310417	0.0163	-0.0138364	-0.317139	0.401611	1.01221	
68	0.543817	-0.438919	-0.447971	-0.557615	9.72321	0.221386	2.12084	0.0450334	-0.0388132	0.00286412	-0.893555	0.383057	-0.219482	0.677625	-0.358023	-0.442984	-0.465198	9.27091	-0.793839	3.37084	0.0256561	0.0328076	0.00924204	-0.750732	0.374756	-0.281738	0.756318	-0.0295558	0.0445076	-0.652019	-0.413783	-0.990203	10.9899	-0.0145887	0.00986774	0.0171251	0.0310059	0.407227	-0.923584	0.828948	-0.0104226	0.0525758	-0.556752	-0.699775	-0.949023	9.91428	-0.0223688	0.0221076	-0.00135699	0.276123	0.525879	-0.900879	0.737355	0.0684941	-0.0590903	-0.669421	-0.0461228	1.52884	9.50729	0.0375633	0.00663975	0.000558757	0.0698242	0.206299	-1.01294	-0.601706	-0.227681	-0.00895894	0.765527	-1.40983	0.444746	13.4173	-0.0083771	0.0123554	0.00815574	0.188721	0.373047	-1.02124	0.468871	-0.432507	-0.745798	-0.192047	8.26921	-1.19127	-4.56218	-0.0473903	-0.24829	-0.0189254	-0.777344	0.471924	0.456055	0.727297	-0.179315	0.0427722	-0.661102	1.91355	-3.24078	10.3992	-0.015953	0.00192215	-0.0438321	-0.0986328	0.698242	-0.794189	0.277546	-0.5568	-0.774644	-0.113443	5.32228	-1.26311	-7.50613	-0.0310529	-0.0172408	0.00607127	-0.679932	0.447266	0.738525	0.993496	0.0874421	-0.0715895	0.0139634	1.83491	2.03254	10.3022	-0.0244151	0.0103517	-0.0136691	-0.215332	0.212158	-1.0625	0.113576	-0.770539	-0.604265	-0.168031	4.15837	0.547255	-9.03611	0.0937615	-0.0107271	0.0379198	-0.314941	0.401611	1.00537	
69	0.543931	-0.438721	-0.448338	-0.557365	9.72023	0.197458	2.1745	0.0124688	-0.00735359	-0.0122055	-0.895508	0.378662	-0.212891	0.677176	-0.358529	-0.443974	-0.464518	9.35668	-0.631615	3.42819	-0.00224594	-0.0848518	-0.013621	-0.750977	0.37915	-0.2771	0.756487	-0.0307663	0.0462568	-0.651645	-0.198482	-1.11324	10.8829	-0.107179	0.0535329	0.00736615	0.0332031	0.413574	-0.923828	0.829301	-0.0110126	0.0543316	-0.556045	-0.775268	-0.692733	9.73906	-0.0993163	0.0512624	0.035706	0.276367	0.523682	-0.896484	0.737848	0.068819	-0.0590283	-0.668849	0.105524	1.62541	9.67961	0.000610861	0.0212737	0.0335017	0.0720215	0.206055	-1.00586	-0.602293	-0.228085	-0.00868062	0.764948	-1.2953	0.728122	13.1572	0.00936	0.026953	0.0171624	0.188965	0.37085	-1.02344	0.46769	-0.432843	-0.746557	-0.191221	8.06772	-1.01147	-4.30038	0.0349741	-0.124586	-0.0186135	-0.783936	0.469727	0.458252	0.726728	-0.179949	0.0423895	-0.66158	2.22129	-3.46286	10.4371	-0.00271229	0.00944865	-0.0457227	-0.100586	0.696045	-0.784912	0.277293	-0.557477	-0.774275	-0.113256	5.46902	-1.26494	-7.81169	-0.00248481	0.00136949	0.00954615	-0.675293	0.445068	0.736328	0.99357	0.0867124	-0.0715344	0.0135372	1.68628	1.72184	10.0869	-0.00139419	0.0152375	-0.0131865	-0.217773	0.216553	-1.05786	0.11306	-0.770915	-0.603664	-0.168809	3.82666	0.151632	-8.78064	-0.0428705	0.0186794	0.00285191	-0.315186	0.406006	1.00757	
70	0.543318	-0.439031	-0.448909	-0.557259	9.85103	0.276095	2.14031	-0.0103021	-0.0320853	-0.010665	-0.893311	0.380859	-0.20874	0.677314	-0.35874	-0.443367	-0.464733	9.3956	-0.745191	3.75687	-0.0374435	0.061248	-0.0136349	-0.753174	0.376953	-0.2771	0.756824	-0.0310247	0.0466093	-0.651216	-0.248534	-0.904052	10.6519	0.0199329	-0.00809024	0.0199477	0.0354004	0.411377	-0.919189	0.829601	-0.0109368	0.0547192	-0.555562	-0.747543	-0.821639	9.54149	0.0432102	0.0106406	0.0261436	0.280762	0.525879	-0.898682	0.738642	0.0690758	-0.0601174	-0.667849	-0.0991529	2.13066	9.71838	0.0353571	-0.00995833	0.0296205	0.0678711	0.203857	-1.00586	-0.603131	-0.227719	-0.00787554	0.764405	-1.35942	0.739858	13.2807	0.0294452	-0.0147476	0.0359712	0.186768	0.37085	-1.01904	0.463761	-0.434587	-0.748267	-0.190147	8.36208	-1.27801	-4.67966	-0.0166348	-0.0347649	-0.00596524	-0.775146	0.469727	0.468994	0.726354	-0.180127	0.0427422	-0.66192	2.11249	-3.52667	10.2433	-0.00907194	0.029545	-0.0360711	-0.102783	0.696045	-0.791992	0.27737	-0.557886	-0.773917	-0.113498	5.16324	-1.25548	-7.58298	-0.0132968	0.0203697	-0.00312227	-0.679932	0.444824	0.743164	0.99355	0.086698	-0.0718489	0.0133781	1.61274	1.84687	10.1759	-0.0033921	-0.0105998	-0.0105362	-0.211182	0.220947	-1.05811	0.113232	-0.771099	-0.60338	-0.168871	4.11894	0.316986	-8.96311	0.00641832	0.00859623	0.00646185	-0.312744	0.403809	1.00757	
71	0.542813	-0.439618	-0.448764	-0.557405	9.68086	0.134621	2.07712	-0.0248842	-0.0231913	-0.00817464	-0.897949	0.383057	-0.210938	0.676879	-0.359508	-0.442965	-0.465157	9.23694	-0.920637	3.26861	-0.0266896	0.00605463	-0.0195165	-0.748779	0.37915	-0.267822	0.756948	-0.0300984	0.0459675	-0.651161	-0.345503	-1.06332	10.8212	0.0641439	0.00262525	-0.00249666	0.0332031	0.406982	-0.921387	0.829787	-0.0108068	0.0543857	-0.555319	-0.669278	-0.572421	9.58457	-0.00395199	-0.00340261	0.00299278	0.278564	0.521484	-0.900879	0.739066	0.0693671	-0.061129	-0.667257	-0.0322176	1.66656	9.45926	0.0419131	-0.0222827	0.0154145	0.0703125	0.19751	-1.0127	-0.60374	-0.227277	-0.007663	0.764058	-1.45301	0.957234	13.2788	-0.0146357	-0.0154592	0.0404344	0.190918	0.37085	-1.01904	0.461935	-0.435365	-0.749046	-0.189745	8.06968	-1.18513	-4.69438	-0.00755193	-0.0868584	-0.0196891	-0.770996	0.471924	0.473145	0.726214	-0.180222	0.0425642	-0.662059	2.08855	-3.35556	10.164	-0.0112147	0.0206838	-0.0178719	-0.10498	0.696045	-0.784912	0.277591	-0.558094	-0.773708	-0.113358	5.20356	-1.23153	-7.51541	0.0111804	0.00851646	-0.00799083	-0.682129	0.44043	0.740967	0.99352	0.0869463	-0.071988	0.0132951	1.54353	1.78755	10.2479	-0.0146079	0.0128728	0.00680243	-0.217773	0.216553	-1.05786	0.112755	-0.77106	-0.603333	-0.169538	4.13415	0.0746095	-8.88517	-0.0277929	0.0159304	-0.0144547	-0.315186	0.406006	1.00977	
72	0.542569	-0.440007	-0.448813	-0.557297	9.88411	0.0671337	2.0336	-0.00132772	-0.0117492	0.00420038	-0.893555	0.383057	-0.210938	0.676498	-0.359372	-0.443909	-0.464916	9.30963	-0.721592	3.45556	0.0186976	-0.0277529	-0.0373271	-0.75293	0.374756	-0.27002	0.756575	-0.0309707	0.0462698	-0.651532	-0.149351	-0.944079	10.7467	-0.0911147	0.0084796	-0.0269799	0.0266113	0.413818	-0.923828	0.829842	-0.0109973	0.0542103	-0.55525	-0.729192	-0.789376	9.76387	0.000175284	0.00203543	0.00532618	0.281006	0.521484	-0.896484	0.739113	0.0677375	-0.0605396	-0.667427	-0.122478	2.10019	9.68236	-0.12581	-0.0275399	-0.0375184	0.0678711	0.20166	-1.00586	-0.603697	-0.227958	-0.00599257	0.763904	-1.362	0.83359	13.5255	0.0703013	-0.0104449	0.00921002	0.188965	0.366455	-1.02539	0.461357	-0.435353	-0.749533	-0.189257	8.14641	-1.1454	-4.55379	0.028748	-0.0590171	-0.0247491	-0.773193	0.474121	0.475342	0.726451	-0.179294	0.0424017	-0.662061	2.07499	-3.36659	10.3616	0.0518413	0.0397496	-0.00591137	-0.100586	0.696045	-0.796631	0.277553	-0.557934	-0.773826	-0.113434	5.36534	-1.20003	-7.63962	0.00273493	0.00917305	-0.0338322	-0.672852	0.445068	0.745361	0.993503	0.0874057	-0.0716114	0.0135781	1.57746	1.88507	10.0495	0.0288694	0.0346178	0.00877051	-0.210938	0.216553	-1.0625	0.113211	-0.770942	-0.6034	-0.169529	3.94665	0.404745	-8.73026	0.01974	0.0151889	-0.00253682	-0.314941	0.403809	1.00513	
73	0.543151	-0.439239	-0.448688	-0.557435	9.77732	0.0854126	2.10122	0.0304166	0.0288812	-0.00313004	-0.897949	0.383057	-0.215088	0.676803	-0.358879	-0.443663	-0.465089	9.25179	-0.76713	3.62733	-0.0140802	0.0278452	-0.0182631	-0.750732	0.372559	-0.276855	0.756384	-0.0309347	0.0464617	-0.651742	-0.191297	-1.21811	10.8825	0.0420803	0.0202182	-0.0165961	0.0288086	0.411621	-0.921387	0.829408	-0.0108611	0.0543829	-0.555884	-0.795901	-0.681006	9.86011	-0.0270609	0.0190131	-0.0417413	0.276123	0.525879	-0.896484	0.738892	0.0666266	-0.0593862	-0.667887	0.0165901	1.82134	9.74626	-0.129396	0.0130966	-0.0545317	0.0651855	0.212891	-1.0105	-0.605837	-0.225499	-0.00862286	0.762914	-1.34158	0.580584	13.4976	-0.20908	0.0156155	0.0572951	0.188721	0.375244	-1.01709	0.460444	-0.435305	-0.750144	-0.189168	8.16494	-1.20104	-4.50007	0.0261909	-0.0181607	-0.0349192	-0.770752	0.465332	0.473389	0.726628	-0.178559	0.0430711	-0.662022	2.11019	-3.50859	10.2714	0.00262419	0.0695876	-0.00490724	-0.0983887	0.69165	-0.794189	0.278013	-0.557706	-0.773805	-0.113573	5.28364	-1.18523	-7.62373	-0.00296924	0.033026	-0.0261757	-0.67749	0.445068	0.740967	0.993521	0.0876328	-0.0710499	0.0137011	1.71207	1.98657	10.3111	0.0175553	0.038765	-0.00242175	-0.210938	0.216797	-1.0603	0.113157	-0.770963	-0.603285	-0.169879	4.11543	0.32254	-9.04752	-0.00477545	0.0205863	0.00118602	-0.314941	0.403809	1.00513	
74	0.543151	-0.439239	-0.448688	-0.557435	9.77732	0.0854126	2.10122	0.0304166	0.0288812	-0.00313004	-0.897949	0.383057	-0.215088	0.676747	-0.358944	-0.443641	-0.465141	9.41113	-0.72163	3.46688	-0.0127086	0.0108439	-0.0198672	-0.750977	0.37915	-0.27002	0.756413	-0.0306048	0.0463133	-0.651734	-0.358293	-0.773242	10.8412	0.0281638	0.0146883	0.000977629	0.0373535	0.413574	-0.923828	0.82931	-0.0112834	0.0548627	-0.555975	-0.712494	-1.10849	9.70258	-0.0474359	0.0208015	-0.0100099	0.27832	0.528076	-0.903076	0.738739	0.0675623	-0.059536	-0.667948	0.013827	1.4954	9.62797	0.115171	0.0260719	-0.00495502	0.0742188	0.206299	-1.00586	-0.604865	-0.227845	-0.00732739	0.763002	-1.28511	0.85318	13.4202	0.16015	0.0643331	-0.0584239	0.199707	0.368652	-1.01904	0.460523	-0.434711	-0.7506	-0.188533	8.22704	-1.1352	-4.62734	0.0115869	-0.0154652	-0.028016	-0.772949	0.469727	0.475342	0.726758	-0.178073	0.0432165	-0.662	1.86515	-3.50963	10.1622	0.0253479	0.0537525	-0.00563605	-0.0964355	0.696045	-0.791992	0.277934	-0.55762	-0.773836	-0.113974	5.0199	-1.38844	-7.34494	-0.0223722	0.0197329	-0.0365302	-0.67749	0.444824	0.743164	0.993566	0.0874309	-0.0707259	0.0134579	1.74721	1.90737	10.1331	-0.0181056	0.0398264	-0.0194652	-0.213135	0.216553	-1.06714	0.113407	-0.771025	-0.603164	-0.169864	3.82369	0.31036	-8.82705	0.0174006	0.016958	0.00963774	-0.315186	0.408203	1.00757	
75	0.54401	-0.437838	-0.449128	-0.557347	9.79608	0.235329	2.17792	0.0271307	0.0237314	-0.0105226	-0.9021	0.378662	-0.217285	0.676922	-0.358543	-0.443866	-0.46498	9.3896	-0.708218	3.71457	0.0105903	0.0114361	-0.0320698	-0.75293	0.370361	-0.274414	0.756489	-0.0301555	0.0465326	-0.651651	-0.245026	-1.31116	10.9905	0.019147	0.0300475	0.00150633	0.0288086	0.411621	-0.923828	0.829492	-0.0105054	0.0544016	-0.555763	-0.84945	-0.639375	9.82818	0.0169804	0.00157043	0.0116697	0.280762	0.525879	-0.898682	0.738963	0.069146	-0.0601308	-0.667486	0.0963667	2.23613	9.76111	-0.0111176	0.0242399	-0.00312969	0.0742188	0.208496	-1.00586	-0.60468	-0.228179	-0.00792364	0.763042	-1.29018	0.548251	13.3073	-0.0266348	0.0272742	-0.0132789	0.195312	0.37085	-1.01685	0.460573	-0.434787	-0.750443	-0.188859	8.30155	-1.04736	-4.81248	0.0263157	0.0519051	-0.0205723	-0.772949	0.469727	0.473145	0.727083	-0.178031	0.0428283	-0.661681	2.14093	-3.36892	10.2794	0.000740338	-0.000305447	-0.00396877	-0.0942383	0.698242	-0.796631	0.277635	-0.557458	-0.77407	-0.113909	5.2747	-1.11239	-7.66677	-0.00100765	-0.0100962	-0.0287316	-0.675293	0.445068	0.743164	0.99354	0.0877175	-0.0707416	0.0133866	1.63387	1.7752	10.271	0.0143612	0.0129425	0.00190193	-0.213379	0.220947	-1.05811	0.113337	-0.771026	-0.603146	-0.169965	4.11123	0.490094	-8.88886	-0.0148649	0.00774049	-0.0101034	-0.317383	0.408203	1.00513	
76	0.543785	-0.437675	-0.449107	-0.557711	9.8749	0.251176	2.1697	-0.0175661	0.0013155	-0.0157291	-0.897705	0.380859	-0.213135	0.676815	-0.358385	-0.443634	-0.465478	9.38295	-0.758393	3.46908	-0.0433187	0.0381462	-0.0304529	-0.752686	0.368164	-0.271973	0.756624	-0.0299273	0.0461399	-0.651533	-0.12426	-0.805919	10.8347	-0.0124087	0.00754128	-0.00456067	0.0375977	0.404785	-0.928223	0.8297	-0.0101418	0.0544854	-0.555451	-0.692609	-0.734401	9.82509	0.0386291	0.0229218	0.0202053	0.281006	0.521484	-0.898682	0.738963	0.0701101	-0.0608149	-0.667322	-0.0398205	1.33681	9.43691	0.111985	0.00365617	-0.0158932	0.0766602	0.201904	-1.0127	-0.604207	-0.229743	-0.00592622	0.762966	-1.48652	0.940259	13.3902	0.118354	0.00411534	-0.000750218	0.19165	0.35791	-1.02515	0.461202	-0.434741	-0.749814	-0.189924	8.20031	-1.31086	-4.64561	-0.00235539	0.0667955	-0.0201622	-0.772949	0.467529	0.477539	0.727072	-0.177868	0.0430565	-0.661722	1.99975	-3.32435	10.56	-0.00314047	0.0369598	-0.017323	-0.0964355	0.696045	-0.796631	0.277418	-0.557468	-0.774106	-0.11414	5.58235	-1.11913	-7.80891	-0.0200449	0.00290681	-0.0283855	-0.679688	0.442627	0.738525	0.99344	0.088708	-0.07092	0.0133505	1.67141	2.01624	10.1492	0.0429302	0.00429756	-0.000661945	-0.210938	0.2146	-1.06689	0.112456	-0.770892	-0.603201	-0.170961	4.01933	0.225267	-8.86185	-0.0250721	0.0136859	-0.0162091	-0.317139	0.401611	1.00757	
77	0.543221	-0.437532	-0.449026	-0.558437	9.80882	0.191191	2.19829	-0.0145673	0.00653775	-0.035703	-0.897705	0.378662	-0.212891	0.676447	-0.358736	-0.443698	-0.465682	9.4172	-0.85493	3.44969	-0.00621781	-0.0143217	-0.0196596	-0.75293	0.374756	-0.27002	0.756556	-0.0303572	0.046241	-0.651585	-0.343823	-1.06196	10.8004	0.00541244	-0.0236617	0.00254088	0.0268555	0.411621	-0.923828	0.829866	-0.0110682	0.0548458	-0.555151	-0.750022	-0.851603	9.75291	-0.0332477	-0.00723557	0.00519452	0.280762	0.523682	-0.896484	0.739036	0.0719494	-0.06281	-0.666861	-0.0550407	2.13959	9.56471	0.00514797	-0.00133792	0.00164695	0.0744629	0.201904	-1.00586	-0.604266	-0.229841	-0.00568897	0.762892	-1.49533	0.977173	13.4158	-0.0153923	0.0127502	-0.0206571	0.193604	0.362061	-1.0166	0.462185	-0.434401	-0.749337	-0.190195	8.29912	-1.12858	-4.70705	0.00556016	0.0583017	-0.0120495	-0.766846	0.474121	0.466797	0.72701	-0.17793	0.042952	-0.661779	1.95642	-3.35839	10.1306	0.000162478	0.00600698	-0.0245668	-0.102295	0.685059	-0.789307	0.278359	-0.557461	-0.773733	-0.114414	5.00147	-1.33304	-7.40591	0.0258498	0.0287259	-0.00096497	-0.67749	0.442627	0.736328	0.993266	0.0901437	-0.0714644	0.0137387	1.57123	1.71605	10.0476	0.0867865	-0.0175473	0.017632	-0.215332	0.214355	-1.06006	0.110448	-0.770422	-0.603751	-0.172443	3.87876	0.567489	-8.71064	-0.12349	-0.00541469	-0.075285	-0.316895	0.39502	1.01001	
78	0.543161	-0.437167	-0.449179	-0.558659	9.79102	0.273524	2.1957	0.0136837	0.00688144	-0.0114712	-0.897705	0.376465	-0.210693	0.676859	-0.358164	-0.443124	-0.466071	9.20264	-0.736047	3.69688	0.00397393	0.0307022	-0.0184328	-0.750732	0.374756	-0.2771	0.756599	-0.0306871	0.0463899	-0.651509	-0.345554	-0.920139	10.9375	-0.0166276	-0.00513752	-0.0096425	0.0375977	0.40918	-0.926025	0.829642	-0.0112035	0.0548709	-0.555479	-0.640438	-0.620553	9.88228	-0.0302396	0.00908027	-0.0143157	0.276123	0.525879	-0.898682	0.738998	0.070576	-0.0612907	-0.667191	-0.160271	1.67106	9.63427	-0.093121	0.0345712	-0.0391242	0.0700684	0.201904	-1.0105	-0.604389	-0.229331	-0.00577411	0.762947	-1.3248	0.902449	13.4414	-0.0116543	0.0107263	-0.0205001	0.197754	0.364258	-1.0188	0.463174	-0.434198	-0.74872	-0.190686	8.22124	-1.18336	-4.42341	0.0468939	0.048716	-0.0194309	-0.772949	0.469727	0.473145	0.726819	-0.180042	0.043623	-0.661374	1.99312	-3.38684	10.3747	-0.11159	-0.0192487	0.000743378	-0.102783	0.698242	-0.787354	0.27972	-0.557675	-0.773386	-0.112376	5.49258	-1.62848	-7.65028	0.145353	0.00684707	0.035016	-0.682373	0.449463	0.738525	0.992909	0.0932068	-0.0724046	0.0142164	1.74091	1.9699	10.2602	0.11329	-0.0143372	0.0120507	-0.217285	0.209961	-1.06226	0.106521	-0.769713	-0.604631	-0.174977	4.30143	0.21595	-8.93661	-0.200331	-0.00479751	-0.0898029	-0.318604	0.383789	1.02148	
79	0.543654	-0.436695	-0.449072	-0.558634	9.68271	0.193978	2.22707	0.0219999	0.018394	-0.00109719	-0.897705	0.378662	-0.215088	0.677213	-0.357904	-0.44318	-0.465703	9.31825	-0.64984	3.45902	0.0126379	0.0221701	-0.0101047	-0.75293	0.374756	-0.279297	0.756515	-0.0311626	0.0474487	-0.651508	-0.316151	-1.28722	10.8163	-0.0389797	0.0445012	0.0029986	0.0373535	0.413574	-0.919189	0.829605	-0.0111265	0.0554635	-0.555478	-0.769742	-0.898633	9.75317	-0.00992333	0.0251677	0.00052938	0.276123	0.528076	-0.89209	0.739183	0.0716691	-0.062178	-0.666788	-0.124285	2.15597	9.66325	0.0757068	0.0070758	0.00233036	0.0725098	0.195068	-1.00586	-0.603847	-0.229552	-0.0065087	0.763304	-1.46515	0.556869	13.2962	0.0263505	0.0348608	-0.0521201	0.195312	0.368652	-1.02124	0.464735	-0.433356	-0.748234	-0.19071	8.20647	-1.03747	-4.37966	0.027656	0.081007	-0.0191685	-0.773193	0.471924	0.466797	0.727465	-0.180928	0.0445542	-0.66036	2.08668	-3.84966	10.273	0.0129988	0.0315475	0.0423918	-0.105225	0.700439	-0.791992	0.280962	-0.556894	-0.773642	-0.111386	5.3882	-0.950902	-7.64243	0.0397505	0.0276497	-0.0668874	-0.682617	0.456299	0.729492	0.992902	0.0938179	-0.0717592	0.0139319	1.60263	2.29446	10.2951	-0.0410824	0.0495242	-0.0204898	-0.210449	0.205811	-1.06445	0.106552	-0.769831	-0.604335	-0.175462	4.20085	0.410624	-8.87171	0.0216031	0.0337454	0.0430382	-0.316406	0.385986	1.00781	
80	0.543828	-0.436079	-0.44936	-0.558715	9.6881	0.283756	2.24525	0.0197857	0.000752332	-0.00873797	-0.893066	0.372314	-0.219238	0.677769	-0.357603	-0.442753	-0.465531	9.29752	-0.725272	3.77879	0.0125559	0.0138959	0.00173639	-0.755127	0.372559	-0.279297	0.756565	-0.0300171	0.0468795	-0.651545	-0.291468	-0.727527	10.8506	0.0545045	0.0108876	-0.00677765	0.0354004	0.413574	-0.926025	0.829635	-0.010504	0.0556249	-0.555428	-0.797617	-0.912587	9.65472	0.00945977	0.0197003	0.017028	0.282959	0.523682	-0.898682	0.739247	0.0714822	-0.0609526	-0.66685	0.0169435	1.5972	9.57761	-0.0498919	0.0300602	-0.00919217	0.0722656	0.201904	-1.0105	-0.603925	-0.229892	-0.00637131	0.76314	-1.32157	1.03353	13.2923	-0.0338424	0.0222042	-0.00606645	0.191162	0.366455	-1.02539	0.466261	-0.432712	-0.74765	-0.190737	8.38401	-1.28276	-4.5981	0.0535621	0.103809	-0.0165744	-0.779785	0.474121	0.460205	0.728035	-0.180137	0.0440482	-0.659982	1.81511	-2.91363	10.1224	0.0126593	0.0050467	-0.00829673	-0.0964355	0.700439	-0.796631	0.28097	-0.556267	-0.774055	-0.111631	5.02916	-1.09911	-7.24325	0.0106886	-0.00144561	-0.0303179	-0.680176	0.451904	0.734131	0.993039	0.0924378	-0.0718293	0.0129758	1.60597	1.6	9.83596	-0.0185226	-0.0220863	-0.0295824	-0.210693	0.208008	-1.06445	0.10644	-0.770393	-0.60366	-0.175384	3.76886	0.558575	-8.67435	-0.0311115	-0.0175501	0.0221598	-0.318848	0.385986	1.01465	
81	0.543465	-0.435981	-0.449882	-0.558724	9.84539	0.401254	2.24028	0.00297577	-0.0132213	-0.0245826	-0.899902	0.378662	-0.215088	0.678446	-0.357233	-0.441567	-0.465956	9.15797	-0.752155	3.50207	-0.0324209	0.085281	-0.0142584	-0.750488	0.368164	-0.276855	0.756924	-0.0293664	0.0473236	-0.651126	-0.462694	-1.48358	10.7656	0.0243937	0.0411418	0.0284273	0.0397949	0.404785	-0.923584	0.829712	-0.00871177	0.0546902	-0.555437	-0.848144	-0.713479	9.71812	0.0978975	0.0214844	-0.00661506	0.278809	0.519287	-0.900879	0.739424	0.0724905	-0.061961	-0.666452	-0.203062	2.34215	9.61571	0.0564028	0.0150714	-0.0143261	0.0744629	0.199463	-1.00366	-0.60406	-0.22913	-0.00734885	0.763254	-1.42648	0.687084	13.2985	-0.000606861	0.014199	-0.0204916	0.191162	0.366455	-1.02319	0.468409	-0.432137	-0.746624	-0.190797	8.14263	-0.999527	-4.34717	0.0298617	0.102587	0.00396364	-0.775146	0.467529	0.462646	0.727735	-0.181174	0.0445191	-0.659997	2.12074	-3.46038	10.4797	-0.0214492	0.0292172	-0.0250751	-0.0964355	0.698242	-0.789551	0.280373	-0.556622	-0.774053	-0.111374	5.52948	-1.05911	-7.70455	-0.00576794	-0.017559	-0.00422149	-0.679932	0.447266	0.736328	0.992842	0.0943904	-0.0720235	0.0129651	1.74546	2.07037	10.3723	0.0779381	-0.00173189	-0.00420125	-0.214844	0.201172	-1.06226	0.105851	-0.770462	-0.603663	-0.175427	4.21842	0.242113	-9.04856	-0.00348954	0.00290462	-0.0111942	-0.318604	0.383789	1.01929	
82	0.543426	-0.435942	-0.449722	-0.558921	9.84456	0.397102	2.24568	-0.0121934	0.0105045	-0.00795361	-0.899902	0.378662	-0.215088	0.678173	-0.357365	-0.441548	-0.466268	9.14212	-0.743705	3.59685	-0.0306405	0.00835271	-0.039015	-0.750732	0.374756	-0.279297	0.756992	-0.0285988	0.0466856	-0.651126	-0.5375	-0.970733	10.7559	0.0796412	0.0069751	0.00206696	0.0375977	0.404785	-0.925781	0.829687	-0.00810144	0.0546446	-0.555488	-0.891008	-0.68319	9.66599	0.0439297	0.0316549	-0.000398649	0.279053	0.514893	-0.900635	0.739195	0.0717574	-0.0609485	-0.666879	-0.063598	2.25936	9.59174	-0.0985082	0.024853	-0.0541553	0.0744629	0.201904	-1.0105	-0.604315	-0.229134	-0.00733932	0.763051	-1.27065	1.0129	13.249	0.000881812	0.0194003	0.00800334	0.19751	0.368652	-1.02759	0.469026	-0.432188	-0.746025	-0.191505	8.2051	-1.17327	-4.56252	-0.0152017	0.0930191	-0.0119326	-0.777344	0.469727	0.456055	0.727504	-0.181024	0.0444302	-0.660298	1.95997	-3.42517	10.3962	0.0143534	0.0280812	-0.0478197	-0.10083	0.700439	-0.791992	0.280344	-0.556997	-0.773817	-0.111218	5.39451	-1.14164	-7.60122	0.00230164	-0.000383905	0.0163879	-0.684814	0.449463	0.734131	0.992919	0.0936616	-0.0719107	0.0129581	1.70022	2.0614	10.0932	-0.0593363	0.0253153	0.00303009	-0.217041	0.203369	-1.05298	0.106006	-0.770537	-0.603574	-0.175308	4.00528	0.464071	-8.85744	0.0175272	0.00539703	0.00733057	-0.316406	0.385986	1.00781	
83	0.54356	-0.436405	-0.448558	-0.559365	9.7739	0.236111	2.25398	-0.046603	0.0198531	0.0240404	-0.902344	0.380859	-0.213135	0.678374	-0.356989	-0.440976	-0.466805	9.30057	-0.732139	3.71269	-0.0181977	0.0740204	-0.0195639	-0.750977	0.376953	-0.274658	0.757097	-0.0285019	0.0469312	-0.650991	-0.368618	-0.752688	10.7708	-0.00730345	0.0253296	0.0121205	0.0310059	0.407227	-0.921387	0.829825	-0.00950686	0.0564244	-0.555083	-0.74865	-0.754525	9.51213	-0.0756082	0.023078	0.0153341	0.280762	0.525879	-0.896484	0.738869	0.0705069	-0.0599763	-0.667461	-0.158811	1.38053	9.69377	-0.00537742	0.00783694	-0.0349725	0.0744629	0.203857	-1.00366	-0.604355	-0.228358	-0.00839145	0.763241	-1.43063	0.668648	13.3929	-0.0199123	0.0160698	-0.065734	0.195312	0.37085	-1.01904	0.469533	-0.432171	-0.745811	-0.191134	8.34584	-1.20715	-4.42394	0.0351757	0.00964264	0.00594541	-0.779785	0.476318	0.458252	0.72693	-0.180627	0.0445009	-0.661035	2.0445	-3.39232	10.266	0.00196553	0.0511494	-0.0473206	-0.10498	0.696045	-0.787109	0.279597	-0.557793	-0.773472	-0.111507	5.23505	-1.32292	-7.52057	-0.056819	-0.0108835	-7.43461e-05	-0.677979	0.456299	0.736328	0.992866	0.094289	-0.0718563	0.0127612	1.57155	2.29012	10.0944	0.0476287	0.00965918	-0.0125536	-0.210449	0.203613	-1.06665	0.106317	-0.770818	-0.603308	-0.174802	3.94516	0.46626	-8.74677	0.0403932	-0.0108731	0.022516	-0.318848	0.385986	1.01245	
84	0.543499	-0.436812	-0.447828	-0.559691	9.67005	0.0913641	2.2462	-0.0199684	-0.00596468	0.00557674	-0.897705	0.376465	-0.215088	0.678146	-0.357489	-0.440566	-0.467141	9.28126	-0.775073	3.36743	-0.0195645	0.0254611	-0.0186044	-0.748779	0.374756	-0.281738	0.757281	-0.0291689	0.0478879	-0.650677	-0.294521	-0.879579	10.8036	-0.0156978	-0.0243685	-0.00212283	0.0332031	0.415771	-0.921631	0.829817	-0.00974064	0.0565069	-0.555081	-0.781371	-0.641043	9.66025	-0.0175988	0.00247131	0.000558443	0.280762	0.523682	-0.900879	0.738578	0.0713312	-0.0602853	-0.667668	-0.182639	2.34216	9.65564	-0.0090127	0.0209082	-0.0321533	0.0744629	0.201904	-1.0127	-0.603363	-0.228607	-0.00881869	0.763947	-1.38343	0.623097	13.3689	-0.00194586	0.0332668	-0.0446106	0.188965	0.368652	-1.01685	0.471204	-0.431785	-0.744869	-0.191569	8.26386	-1.16319	-4.29571	0.0478146	0.0895713	-0.0146594	-0.779785	0.476318	0.44751	0.726533	-0.180374	0.0443319	-0.661551	2.01833	-3.66406	10.1736	0.0353506	0.022127	-0.0385475	-0.10083	0.698242	-0.794189	0.278619	-0.558388	-0.773417	-0.11136	5.17383	-1.18247	-7.46188	-0.0223944	-0.0354697	-0.0125539	-0.675537	0.449707	0.731934	0.992996	0.0930566	-0.0717733	0.0121592	1.67399	1.93229	10.292	-0.0514085	0.00956542	-0.0199056	-0.214844	0.203369	-1.05981	0.106447	-0.771266	-0.602831	-0.174395	4.12852	0.495205	-8.98187	-0.00391183	0.00477576	0.0214253	-0.31665	0.390381	1.01685	
85	0.543671	-0.437	-0.447658	-0.559514	9.808	0.116885	2.25487	0.00376545	0.00397802	0.0145773	-0.895264	0.376465	-0.217285	0.678213	-0.357179	-0.44085	-0.467013	9.30902	-0.754136	3.7195	0.00845525	-0.0087906	-0.0229602	-0.755127	0.370361	-0.276855	0.757039	-0.030578	0.0486993	-0.650834	-0.408398	-1.0406	10.7494	-0.0783401	-0.00819535	-0.0268148	0.0373535	0.415771	-0.921631	0.829662	-0.011492	0.0574521	-0.555182	-0.980322	-0.961646	9.54165	-0.0749877	-0.00165855	-0.016079	0.282715	0.530273	-0.89209	0.738304	0.0708439	-0.0593501	-0.668107	0.00681805	1.33415	9.49838	0.0103225	0.00697397	-0.0170737	0.076416	0.206299	-1.0083	-0.603125	-0.228338	-0.0100617	0.764199	-1.47239	0.683545	13.2887	-0.0549591	0.0283465	-0.0526117	0.193115	0.37085	-1.0127	0.47257	-0.431393	-0.74409	-0.192115	8.34792	-1.27487	-4.62131	0.0132265	0.0683528	-0.0124371	-0.783936	0.474121	0.451904	0.726616	-0.17978	0.043359	-0.661686	2.12486	-3.31338	10.3669	0.0297693	0.000191218	-0.0226392	-0.10083	0.698242	-0.796631	0.277246	-0.558471	-0.77378	-0.11184	5.31402	-1.56652	-7.74972	-0.0168173	-0.0218356	-0.0260252	-0.675537	0.454102	0.745117	0.992991	0.0928253	-0.0722988	0.0111739	1.79053	2.09397	10.0582	-0.0226514	-0.0148072	-0.0377571	-0.214844	0.203369	-1.06226	0.107356	-0.771902	-0.602164	-0.173321	3.89089	0.667162	-8.81077	0.0607435	-0.0126599	0.0511822	-0.314453	0.388184	1.01465	
