40	Head	00b4120a												Throax	00b411e8												LUpArm	00b411d9												LFoArm	00b41148												RUpArm	00b411db												RFoArm	00b41204												Waist	00b411f7												Lthigh	00b411f4												Lshank	00b4111b												Rthigh	00b411c8												Rshank	00b411ee												
PacketCount	q0	q1	q2	q3	accX	accY	accZ	gyrX	gyrY	gyrZ	magX	magY	magZ	q0	q1	q2	q3	accX	accY	accZ	gyrX	gyrY	gyrZ	magX	magY	magZ	q0	q1	q2	q3	accX	accY	accZ	gyrX	gyrY	gyrZ	magX	magY	magZ	q0	q1	q2	q3	accX	accY	accZ	gyrX	gyrY	gyrZ	magX	magY	magZ	q0	q1	q2	q3	accX	accY	accZ	gyrX	gyrY	gyrZ	magX	magY	magZ	q0	q1	q2	q3	accX	accY	accZ	gyrX	gyrY	gyrZ	magX	magY	magZ	q0	q1	q2	q3	accX	accY	accZ	gyrX	gyrY	gyrZ	magX	magY	magZ	q0	q1	q2	q3	accX	accY	accZ	gyrX	gyrY	gyrZ	magX	magY	magZ	q0	q1	q2	q3	accX	accY	accZ	gyrX	gyrY	gyrZ	magX	magY	magZ	q0	q1	q2	q3	accX	accY	accZ	gyrX	gyrY	gyrZ	magX	magY	magZ	q0	q1	q2	q3	accX	accY	accZ	gyrX	gyrY	gyrZ	magX	magY	magZ	
0	0.469993	-0.486279	-0.410286	-0.611804	10.2586	0.431481	2.03065	-0.0345166	-0.0475165	-0.000836773	-0.873535	0.374023	-0.133057	0.662312	-0.34779	-0.29695	-0.593468	8.49226	-0.865722	6.08286	0.151096	0.159805	-0.0771057	-0.589111	0.404785	-0.447998	0.75736	-0.105211	-0.198685	-0.613075	5.34331	0.95265	10.0188	0.374062	-0.159695	-0.0709423	-0.417969	0.175049	-0.923096	0.140258	0.172278	-0.0858206	-0.971227	-2.61121	2.26494	9.23594	0.22108	0.109191	0.0508643	-0.0500488	-0.0598145	-1.00952	0.544666	-0.265387	-0.0592546	-0.793346	5.1166	-1.93409	8.64643	-0.0621166	-0.0589518	-0.162738	-0.536865	0.545166	-0.641357	-0.989365	0.0270503	-0.0560159	0.131483	-3.80497	-2.5186	12.4588	-0.183622	-0.0022971	-0.142892	0.726807	0.201172	-0.744629	0.544892	-0.536106	-0.476733	-0.434061	10.0167	-1.2499	-0.113263	-0.036741	0.0838699	-0.0389909	-0.821777	0.53125	0.00317383	0.748463	-0.202613	-0.425452	-0.466628	8.91838	0.470377	5.74308	0.191339	-0.0811158	0.221343	-0.727783	0.257568	-0.721191	-0.0619293	-0.0778616	-0.991786	-0.0803924	-1.94531	0.167551	-8.94595	0.0644772	0.0455629	-0.390587	-0.271729	-0.109863	1.06567	0.476293	-0.556815	-0.52296	-0.435448	9.9073	-0.952762	-2.44005	0.590489	0.11093	-0.0916983	-0.944336	0.506104	0.163086	0.59291	-0.479631	-0.505366	-0.403753	11.0559	-0.403039	0.173846	0.58951	-0.00881423	0.0510879	-0.953125	0.578369	-0.14624	
1	0.468646	-0.486766	-0.411834	-0.611411	9.91041	0.475583	1.85732	0.0248245	-0.0776857	-0.0682328	-0.875732	0.371826	-0.128662	0.662452	-0.345894	-0.29666	-0.594565	8.22545	-0.726863	6.28653	-0.0219971	0.0662374	-0.0512967	-0.588867	0.398193	-0.447754	0.757067	-0.107028	-0.200806	-0.612431	5.08816	1.37276	10.1949	-0.132081	-0.0873862	0.0409914	-0.420166	0.17749	-0.92334	0.140792	0.172322	-0.0901495	-0.97075	-2.9227	2.29154	9.53177	0.13266	-0.0455964	0.0394383	-0.0495605	-0.0664062	-1.00952	0.543381	-0.266622	-0.0596289	-0.793785	4.94429	-2.20273	8.772	-0.0603334	-0.0847746	-0.119798	-0.541016	0.538574	-0.634521	-0.989184	0.0293088	-0.0552709	0.132666	-3.76374	-2.58422	12.6028	-0.162467	-0.0694157	-0.129463	0.720215	0.203125	-0.744629	0.545185	-0.534322	-0.47756	-0.434982	9.98056	-1.69728	-0.298911	0.0759828	0.0565338	-0.0989944	-0.823975	0.53125	-0.00317383	0.749807	-0.205106	-0.428695	-0.460371	8.79433	0.636699	5.84682	0.100249	-0.184002	0.188966	-0.734375	0.261963	-0.721191	-0.062798	-0.0707303	-0.992579	-0.0764213	-1.50853	1.29322	-9.20914	0.0666816	-0.0377757	-0.273754	-0.260498	-0.102783	1.06128	0.480363	-0.55264	-0.525746	-0.432932	9.52909	0.00765024	-1.16644	0.131201	0.0367673	0.0186918	-0.944336	0.510254	0.153809	0.598184	-0.473886	-0.509999	-0.396874	9.99579	-1.57916	-0.240413	0.574588	-0.086724	0.00294914	-0.955078	0.576172	-0.153076	
2	0.467595	-0.486955	-0.412463	-0.61164	9.8523	0.422288	1.88002	-0.0223676	-0.0241505	-0.030619	-0.87793	0.374023	-0.128662	0.661754	-0.34575	-0.294322	-0.596585	7.62389	-1.07471	5.68962	-0.076958	0.0527022	-0.0618148	-0.591064	0.402588	-0.450195	0.757571	-0.110391	-0.198052	-0.612107	5.01816	1.16619	9.38087	-0.125	0.0482739	0.0464782	-0.422363	0.183838	-0.921143	0.140807	0.169951	-0.0888802	-0.971283	-3.18955	2.21362	9.41716	-0.127988	-0.0790474	-0.00982936	-0.0588379	-0.0598145	-1.01392	0.543936	-0.262058	-0.0645104	-0.794542	4.59594	-1.92395	8.48853	0.233486	0.0746144	-0.0313433	-0.53833	0.529785	-0.648193	-0.989388	0.0297915	-0.0492114	0.133422	-3.32994	-2.46578	12.8383	0.116169	-0.16735	0.00538346	0.713623	0.205322	-0.759766	0.544578	-0.534371	-0.47735	-0.435912	9.10437	-1.55517	-0.323536	-0.0296142	-0.0192832	-0.0189797	-0.828125	0.529053	-0.000976562	0.750063	-0.208371	-0.430442	-0.456844	8.87352	0.0381146	5.79828	-0.00348706	-0.100821	0.118981	-0.734863	0.270508	-0.711914	-0.0641499	-0.0659439	-0.993225	-0.0709993	-1.11895	1.38595	-9.02069	0.19947	-0.048161	-0.219426	-0.260742	-0.0959473	1.06104	0.477053	-0.556696	-0.522972	-0.434754	9.306	-0.966837	-2.32675	-0.267306	-0.0481159	0.0508691	-0.942139	0.510498	0.163086	0.593566	-0.479671	-0.506544	-0.401258	9.78246	-1.54781	0.151914	-0.577975	-0.0208716	-0.00738695	-0.948486	0.580566	-0.13501	
3	0.467272	-0.485982	-0.412325	-0.612753	9.46526	0.336654	2.02186	-0.00405074	0.0529027	-0.0447888	-0.871094	0.369629	-0.128662	0.661806	-0.34472	-0.29496	-0.596809	7.78908	-1.07618	5.68988	0.0722142	0.058989	-0.033142	-0.586914	0.402588	-0.452637	0.757844	-0.110334	-0.195333	-0.612653	4.63666	1.29636	8.99507	-0.0555703	0.0870918	-0.0139991	-0.417969	0.183838	-0.916504	0.140306	0.169552	-0.0851484	-0.971759	-3.14729	1.84482	9.04905	-0.132775	0.049437	-0.056318	-0.050293	-0.0510254	-1.00977	0.545343	-0.258495	-0.0664342	-0.794586	4.43396	-1.63644	8.06989	0.108799	0.0613013	-0.00755336	-0.535889	0.518799	-0.645752	-0.989746	0.027088	-0.0469483	0.132152	-3.11708	-2.17122	12.6002	0.0998027	-0.0273947	0.0407628	0.714111	0.198975	-0.759521	0.54469	-0.534009	-0.477681	-0.435853	9.48588	-1.95578	-0.233348	0.0180212	0.0240193	-0.0380686	-0.827881	0.524902	-0.000732422	0.750804	-0.206979	-0.431603	-0.455162	8.76475	0.418191	6.29624	0.130775	0.0260145	-0.0316897	-0.734375	0.261963	-0.71875	-0.0641596	-0.0648831	-0.993315	-0.0707039	-1.0344	1.38248	-8.92645	0.0431442	0.0321633	-0.0188017	-0.260742	-0.0959473	1.07227	0.476961	-0.556369	-0.522406	-0.435951	9.57149	-1.3833	-1.24552	0.137087	0.101315	-0.0457844	-0.944336	0.508301	0.158447	0.594581	-0.478655	-0.507764	-0.399424	9.61038	-1.2362	0.395592	0.292486	-0.0482452	0.00564918	-0.948486	0.580566	-0.141846	
4	0.466406	-0.48544	-0.413034	-0.613365	9.62682	0.360316	2.07598	0.00670655	-0.0342426	-0.0659981	-0.875488	0.365234	-0.124268	0.661978	-0.343214	-0.29701	-0.596468	8.15074	-0.919764	5.92352	0.0779107	-0.0265274	-0.0579377	-0.59082	0.395996	-0.459473	0.757597	-0.106986	-0.195735	-0.613423	4.80647	0.965481	9.08151	0.16824	0.0735717	-0.0709772	-0.407227	0.181396	-0.921143	0.140188	0.170498	-0.0836873	-0.971738	-3.06112	1.78115	8.8285	-0.0972329	0.0968974	-0.033319	-0.050293	-0.0532227	-1.00537	0.546069	-0.257899	-0.0665603	-0.794271	4.89568	-1.60467	8.23525	-0.0121101	0.0119835	0.018605	-0.53833	0.525391	-0.652832	-0.989865	0.026207	-0.0473861	0.131279	-3.14602	-2.21568	12.4447	0.0171876	0.0422689	-0.00588588	0.711914	0.196777	-0.763672	0.545244	-0.532837	-0.479367	-0.434742	9.69061	-1.44245	-0.243803	0.0881122	-0.0109788	-0.0327076	-0.825684	0.524902	-0.000732422	0.75089	-0.206659	-0.430153	-0.456536	9.00578	0.476476	5.86281	-0.0780439	0.098359	-0.06358	-0.739014	0.266357	-0.716553	-0.0628882	-0.0654268	-0.99326	-0.0720984	-1.07022	1.35179	-9.08272	-0.0634129	0.0619041	0.0245645	-0.260254	-0.10498	1.06787	0.479343	-0.553762	-0.524553	-0.434076	9.76444	-0.466998	-1.60887	0.131467	0.000156513	-0.0478374	-0.948975	0.512451	0.151611	0.598333	-0.475055	-0.509956	-0.395304	9.72617	-2.00186	0.213994	0.391171	-0.0070484	0.0272503	-0.950928	0.582764	-0.148682	
5	0.464268	-0.485488	-0.414489	-0.613967	9.99013	0.584317	2.00794	-0.0223758	-0.0582073	-0.096889	-0.873047	0.363037	-0.126465	0.661541	-0.342063	-0.29869	-0.596775	8.29757	-0.918803	6.05329	0.0739754	0.00262831	-0.0744538	-0.592773	0.387207	-0.456787	0.757209	-0.102257	-0.200843	-0.613057	5.01448	1.16299	9.57459	0.279126	-0.0634236	-0.0509007	-0.419922	0.168701	-0.929932	0.141321	0.176177	-0.0836838	-0.97056	-3.03721	2.04336	8.86231	0.10153	0.165036	0.0362575	-0.0390625	-0.0554199	-1.00293	0.545626	-0.258683	-0.0665657	-0.79432	5.00623	-1.59364	8.56777	-0.020259	-0.0262694	-0.0454192	-0.538086	0.523193	-0.652832	-0.989721	0.0275568	-0.0477813	0.131948	-3.17837	-2.44138	12.4577	-0.0714373	0.00114905	-0.06241	0.718262	0.201172	-0.757324	0.544925	-0.531774	-0.480901	-0.43475	10.153	-1.71858	-0.172384	0.11576	0.00608058	-0.0993411	-0.828125	0.529053	-0.00317383	0.751546	-0.206008	-0.427528	-0.458213	8.77224	0.000835786	6.02915	-0.0266606	0.12011	-0.0316511	-0.734619	0.268555	-0.716553	-0.062025	-0.0664523	-0.99302	-0.0751538	-1.32701	0.632891	-9.20335	-0.114356	0.0397576	0.0117893	-0.269531	-0.105225	1.05884	0.481407	-0.551737	-0.525645	-0.433049	9.9042	-0.574118	-1.64678	0.147638	0.0557995	0.00609859	-0.946533	0.508057	0.147217	0.601896	-0.470978	-0.512261	-0.391778	9.58654	-1.48134	0.280199	0.219619	0.0185366	0.0215487	-0.946289	0.580566	-0.157715	
6	0.462154	-0.485794	-0.41565	-0.614534	9.81726	0.700334	1.88344	-0.0236213	-0.0598082	-0.0726616	-0.875	0.356689	-0.124268	0.661795	-0.339684	-0.29982	-0.597286	8.13738	-0.913608	6.08006	0.0754342	0.0595836	-0.0652614	-0.590576	0.387207	-0.459229	0.756891	-0.0999707	-0.20523	-0.612375	5.18339	1.4926	9.63164	0.131386	-0.0845203	-0.0184725	-0.426025	0.153564	-0.929443	0.142301	0.178835	-0.0859543	-0.969732	-3.13362	2.21161	9.06627	0.0966442	0.0893506	0.053975	-0.0319824	-0.0617676	-1.00952	0.545163	-0.258851	-0.0668196	-0.794562	4.96451	-1.65146	8.67389	-0.00413762	-0.0126796	-0.0610998	-0.53833	0.525391	-0.648193	-0.989632	0.0287899	-0.0472449	0.132543	-3.13426	-2.50955	12.5729	-0.0867732	-0.0459614	-0.0768725	0.707275	0.203125	-0.757324	0.545266	-0.53035	-0.481459	-0.435443	9.99528	-1.55544	-0.166068	0.0828071	0.0784661	-0.113776	-0.829834	0.520508	-0.00488281	0.751974	-0.205383	-0.427306	-0.457998	8.80596	0.0665697	5.76415	0.0506926	0.0658468	-0.008314	-0.730225	0.266357	-0.716553	-0.0609826	-0.0666185	-0.993057	-0.075371	-1.63367	0.687373	-9.05624	-0.0241561	0.0412999	-0.0116301	-0.267334	-0.105225	1.06128	0.482979	-0.550806	-0.52571	-0.432405	9.53754	-0.469362	-1.23411	0.135307	0.0791357	0.0391427	-0.946777	0.512451	0.142334	0.599868	-0.473687	-0.511602	-0.392482	9.70842	-0.865789	0.0377498	-0.306343	-0.0589294	0.00912203	-0.958008	0.587158	-0.15332	
7	0.46055	-0.485961	-0.416976	-0.614709	9.63244	0.735592	1.73476	0.00871686	-0.0515345	-0.0680691	-0.877197	0.358643	-0.119873	0.662292	-0.337478	-0.300645	-0.59757	7.95479	-0.682238	5.9284	0.0675171	0.0574188	-0.0434083	-0.592773	0.389404	-0.46167	0.757046	-0.100654	-0.206092	-0.611781	4.99515	1.39695	9.63835	-0.0342262	-0.0111489	0.0288321	-0.419678	0.157959	-0.925049	0.142748	0.17881	-0.0868884	-0.969588	-3.22266	2.23518	9.21566	-0.00960735	-0.012575	0.0171093	-0.0344238	-0.0595703	-1.01392	0.545011	-0.255276	-0.0704549	-0.795509	4.65317	-1.6671	8.5533	0.179896	0.0889649	-0.0527895	-0.540039	0.518799	-0.652832	-0.989621	0.0312238	-0.0441643	0.133138	-3.14053	-2.5644	12.6256	-0.0676385	-0.150368	-0.0413829	0.707031	0.209717	-0.766113	0.544887	-0.529069	-0.48111	-0.437856	9.71603	-1.5454	-0.296135	0.00805063	0.0581535	-0.0824844	-0.829834	0.518311	-0.00708008	0.752619	-0.202784	-0.428048	-0.457403	8.34998	0.575763	5.88815	0.0394898	0.0121528	-0.0464819	-0.72998	0.259766	-0.71875	-0.0604281	-0.0679289	-0.993137	-0.0735673	-1.34257	1.10083	-8.6892	0.0643678	0.0205777	0.0468386	-0.272217	-0.100586	1.06104	0.480336	-0.554135	-0.522382	-0.43512	9.54026	-0.628352	-1.45085	-0.216365	0.0238497	0.0287689	-0.944336	0.510254	0.149414	0.589823	-0.48561	-0.505414	-0.40106	10.4203	-1.32914	-0.0747026	-0.943855	-0.0461554	-0.039542	-0.942139	0.5896	-0.128174	
8	0.459987	-0.485934	-0.417728	-0.614641	9.77503	0.749122	1.77275	0.020479	-0.0512029	-0.0569433	-0.881592	0.354248	-0.119873	0.66285	-0.336261	-0.300658	-0.597631	7.98898	-0.797414	6.18617	0.0296846	0.0497467	-0.0150806	-0.588379	0.38501	-0.466064	0.757204	-0.101012	-0.205419	-0.611754	5.05563	1.41873	9.51893	-0.0537482	0.0309578	0.0184852	-0.42627	0.160156	-0.927246	0.143395	0.177364	-0.0831914	-0.970082	-3.32768	2.11718	9.2536	-0.1986	-0.034293	-0.00360709	-0.0349121	-0.0507812	-1.00757	0.545583	-0.252817	-0.0715801	-0.795801	4.57906	-1.66991	8.47161	0.188566	0.124116	-0.0300242	-0.535645	0.514404	-0.664062	-0.989903	0.0309048	-0.0393418	0.132622	-3.19374	-2.38205	12.6429	0.0732844	-0.186438	0.00783299	0.700684	0.205322	-0.774658	0.545758	-0.526919	-0.48036	-0.440181	9.64082	-1.80055	0.301475	0.0258508	0.152429	-0.0808036	-0.833984	0.518311	-0.0112305	0.751993	-0.202967	-0.428447	-0.457978	8.37456	0.554002	5.88957	-0.0202998	-0.0247511	-0.0764898	-0.72998	0.261963	-0.716553	-0.0605284	-0.0691305	-0.993035	-0.0737431	-1.43595	0.943596	-8.7779	-0.0124681	-0.0074378	0.0766251	-0.267334	-0.102783	1.06348	0.475567	-0.558387	-0.520134	-0.437608	9.49329	-1.32306	-2.16953	-0.274827	-0.117236	-0.0138447	-0.948975	0.514648	0.162842	0.582697	-0.493388	-0.498382	-0.410668	9.60748	-2.93892	0.226466	-0.296223	0.0576656	-0.078756	-0.946533	0.585205	-0.119141	
9	0.45958	-0.48517	-0.418917	-0.61474	10.0753	0.878737	1.80828	0.0359533	0.0160589	-0.0468515	-0.881348	0.352051	-0.119873	0.663106	-0.336066	-0.300305	-0.597635	7.90587	-0.839684	6.27897	-0.00558603	0.0476422	-0.000704094	-0.586182	0.38501	-0.466064	0.758129	-0.101053	-0.202981	-0.611415	4.91143	1.4016	9.65163	-0.0546596	0.0831241	0.0424268	-0.417725	0.162109	-0.92749	0.143555	0.176406	-0.0802977	-0.970477	-3.28369	1.85097	9.21756	-0.238015	-0.0373064	-0.0248309	-0.0307617	-0.0441895	-1.01196	0.547344	-0.248463	-0.071818	-0.795941	4.39568	-1.57788	8.27759	0.0874877	0.14435	0.0331365	-0.53125	0.514404	-0.664062	-0.990369	0.0288142	-0.0347656	0.130885	-2.82732	-2.37264	12.7325	0.129952	-0.1368	0.0567895	0.69458	0.19873	-0.772217	0.547212	-0.525387	-0.479674	-0.440954	9.64314	-1.47557	-0.0177125	0.0404155	0.0712515	0.000924366	-0.827637	0.520508	-0.0178223	0.749256	-0.205702	-0.429029	-0.460691	8.80829	0.19087	6.25169	-0.153749	-0.0873448	-0.128261	-0.734619	0.26416	-0.71875	-0.0608783	-0.0729945	-0.992892	-0.07163	-1.25461	1.19549	-9.11827	0.0954146	-0.0221181	0.14313	-0.260742	-0.0959473	1.05884	0.474642	-0.558867	-0.519939	-0.438231	9.58881	-1.42073	-1.64605	-0.0914478	-0.00796559	-0.0260356	-0.942139	0.512695	0.169922	0.582285	-0.493316	-0.497774	-0.412073	9.54168	-1.42403	0.508384	-0.0879725	0.0752209	-0.0614161	-0.951416	0.593994	-0.112305	
10	0.460409	-0.4837	-0.417463	-0.616265	10.0559	0.8023	2.01419	-0.0355025	0.125734	0.0115572	-0.881348	0.352051	-0.12207	0.663593	-0.33603	-0.299453	-0.597542	7.87582	-0.870561	6.17412	-0.0253937	0.0319363	0.000884144	-0.588379	0.382812	-0.470703	0.758931	-0.100526	-0.201757	-0.610911	4.60644	1.48253	9.6777	-0.00482721	0.0480243	0.0217853	-0.417725	0.164307	-0.934326	0.143406	0.175125	-0.0754428	-0.97112	-3.24941	1.38743	9.13941	-0.14532	-0.0149483	-0.0380346	-0.0332031	-0.0354004	-1.01221	0.548458	-0.246818	-0.0719163	-0.795677	4.57314	-1.63573	8.33276	0.0452594	0.0228624	0.0242176	-0.524414	0.505859	-0.670898	-0.990763	0.0241636	-0.0336478	0.129119	-3.0192	-2.07647	12.6428	0.18751	0.0188204	0.0489611	0.697021	0.190186	-0.776367	0.547514	-0.525393	-0.478982	-0.441325	9.85213	-1.67027	-0.325232	0.00615564	0.0447576	-0.0117878	-0.832031	0.518311	-0.015625	0.746374	-0.207532	-0.429734	-0.463881	9.1807	-0.144662	6.04224	-0.11247	-0.0207014	-0.1348	-0.745117	0.261719	-0.709473	-0.0619003	-0.0773679	-0.992529	-0.0711907	-0.455295	1.05882	-9.40674	0.0179128	-0.0460103	0.140652	-0.270264	-0.0915527	1.06982	0.473691	-0.559656	-0.520024	-0.438152	9.69903	-0.699286	-1.51203	-0.0322165	-0.0271379	-0.0015491	-0.944092	0.503906	0.167725	0.58001	-0.495691	-0.49522	-0.415494	9.8789	-2.43248	0.160886	-0.0663357	0.0689571	-0.0244006	-0.94873	0.585205	-0.114502	
11	0.461332	-0.48251	-0.414939	-0.618209	9.59482	0.579218	2.19768	-0.0518749	0.115791	0.00693801	-0.87915	0.352295	-0.132812	0.663426	-0.33661	-0.299373	-0.597441	8.08776	-0.786879	5.98667	-0.0247563	0.0275957	-0.012715	-0.584229	0.389404	-0.463867	0.75871	-0.101557	-0.200333	-0.611483	4.699	1.43392	9.52099	-0.093518	0.00824067	-0.0157812	-0.415527	0.170898	-0.923096	0.142625	0.175235	-0.0757293	-0.971193	-3.17179	1.48605	9.06939	0.0591677	0.0138752	-0.023474	-0.0378418	-0.0356445	-1.01001	0.548844	-0.247259	-0.0715416	-0.795308	4.7092	-1.58371	8.36574	-0.0352267	-0.010564	0.0344112	-0.524414	0.505859	-0.668701	-0.990821	0.0239292	-0.03536	0.128257	-2.94599	-2.03824	12.8587	-0.0662097	0.0904409	-0.00323102	0.703613	0.190186	-0.77417	0.546851	-0.526023	-0.478804	-0.441588	9.77464	-1.40637	0.00899145	-0.0473051	-0.0411289	-0.0174419	-0.832031	0.518311	-0.0134277	0.745533	-0.208493	-0.428768	-0.465691	9.05581	-0.319041	6.045	-0.0511608	0.0189695	-0.0409485	-0.740967	0.266113	-0.711914	-0.0621901	-0.079863	-0.992311	-0.0712201	-0.463591	0.866702	-9.27727	-0.00407185	0.0111332	0.0606125	-0.27002	-0.09375	1.06323	0.473682	-0.56008	-0.519507	-0.438233	9.58064	-0.600181	-1.43516	-0.0374665	0.0176314	0.0237884	-0.939941	0.510498	0.16748	0.580923	-0.494534	-0.496081	-0.41457	9.75684	-1.03897	0.0214844	-0.0373432	-0.0237427	0.0080028	-0.944092	0.583008	-0.112305	
12	0.461315	-0.482041	-0.413991	-0.619222	9.89756	0.505842	2.10672	-0.0159273	0.0351179	-0.0132658	-0.876953	0.354492	-0.126465	0.662774	-0.337795	-0.299766	-0.597299	8.04932	-0.850966	6.1513	-0.0297059	-0.0542519	-0.023237	-0.588379	0.382812	-0.466064	0.758489	-0.101831	-0.200063	-0.611801	5.04745	1.10031	9.41683	0.0221251	0.0170411	-0.00766539	-0.41333	0.166504	-0.920654	0.142796	0.175691	-0.0772819	-0.970963	-3.20706	1.91765	9.0478	0.0531114	0.0166667	0.0352823	-0.0419922	-0.0400391	-1.01001	0.548205	-0.250988	-0.0696154	-0.794751	4.70881	-1.45075	8.7002	-0.145867	-0.0471115	-0.010136	-0.529297	0.518799	-0.661865	-0.990573	0.025505	-0.0379798	0.129123	-2.94901	-2.26055	12.6709	-0.0559392	0.0982669	-0.0712238	0.70752	0.196777	-0.774414	0.546337	-0.52682	-0.477876	-0.442279	9.80253	-1.7001	-0.171146	-0.101617	0.0327357	0.00460682	-0.836182	0.518311	-0.0112305	0.74605	-0.208839	-0.427265	-0.466091	8.97103	-0.27119	5.84559	0.00482276	0.0783755	0.00703958	-0.734375	0.26416	-0.711914	-0.0612907	-0.0809079	-0.992255	-0.0716025	-0.9756	0.422757	-9.20069	0.0341193	0.0431624	0.0107209	-0.267822	-0.09375	1.06543	0.472161	-0.561989	-0.518088	-0.439111	9.7424	-1.197	-1.9298	-0.0993009	-0.0125187	0.0391412	-0.939941	0.508301	0.172119	0.578922	-0.496119	-0.493958	-0.417996	9.68205	-1.73336	0.350005	-0.169366	0.0731151	-0.0560647	-0.946533	0.583008	-0.109863	
13	0.461943	-0.481297	-0.413868	-0.619416	9.71437	0.591856	2.10245	0.0293388	0.0264532	0.0120836	-0.876953	0.352295	-0.128418	0.662463	-0.338447	-0.299847	-0.597234	8.27479	-0.90927	6.06691	-0.0440068	-0.0314311	-0.0153143	-0.588379	0.38501	-0.458984	0.758775	-0.100583	-0.202124	-0.610974	5.00782	1.34149	9.50306	0.099561	-0.0362821	0.0161542	-0.415527	0.164307	-0.92749	0.143147	0.175572	-0.0785742	-0.970829	-3.19579	1.93789	8.99815	0.0638444	-0.0118582	0.0170305	-0.032959	-0.0419922	-1.01416	0.547345	-0.25295	-0.068605	-0.79481	4.65077	-1.79096	8.6852	-0.0472247	-0.0412103	-0.0436227	-0.533691	0.520996	-0.659668	-0.990335	0.0268409	-0.0393132	0.130269	-3.0013	-2.45786	12.6397	-0.0708112	0.0376705	-0.0555005	0.705566	0.192383	-0.772217	0.547254	-0.526829	-0.475827	-0.443343	9.63734	-1.65155	-0.0207202	-0.0394818	0.117037	0.0168872	-0.833984	0.518311	-0.0178223	0.74647	-0.209955	-0.426846	-0.4653	8.68074	0.135237	5.91157	-0.0337643	-0.0315963	0.0343738	-0.734619	0.268311	-0.709717	-0.0606567	-0.0813169	-0.992409	-0.0695247	-1.30349	0.683817	-8.93547	0.106252	0.0126642	-0.00244966	-0.272705	-0.0869141	1.06079	0.471533	-0.563222	-0.517091	-0.43938	9.43062	-1.06485	-1.37921	-0.0692401	-0.00885886	0.0179027	-0.946533	0.508057	0.174561	0.57834	-0.495693	-0.493964	-0.419298	9.73059	-1.4877	0.190523	-0.082183	0.0233276	-0.0519236	-0.950928	0.582764	-0.114502	
14	0.462423	-0.481052	-0.413966	-0.619182	9.6499	0.482391	2.04321	0.042506	0.0122421	0.0191976	-0.883545	0.354492	-0.13501	0.66258	-0.3391	-0.29938	-0.596967	8.02461	-0.959473	5.86479	-0.00255014	-0.0386429	0.0115122	-0.592773	0.387207	-0.461426	0.758888	-0.101133	-0.202036	-0.610772	4.90736	1.36246	9.58712	-0.0670288	-0.0017417	0.0161436	-0.41333	0.166504	-0.925293	0.143255	0.174781	-0.0798388	-0.970853	-3.04877	2.11679	9.13355	0.0193005	-0.032907	0.0117942	-0.0373535	-0.0444336	-1.00757	0.547076	-0.253044	-0.0689246	-0.794938	4.70275	-1.65401	8.63541	0.00916068	-0.0120833	-0.0462846	-0.533447	0.516602	-0.659668	-0.990314	0.0276767	-0.039354	0.130244	-3.10637	-2.44816	12.6711	-0.0663382	0.00353698	-0.0254452	0.69873	0.200928	-0.774414	0.547565	-0.527362	-0.474679	-0.443555	9.46827	-1.79817	-0.132748	-0.0453692	0.0627995	0.0542634	-0.832031	0.518311	-0.0219727	0.746418	-0.210842	-0.427145	-0.464707	8.73443	-0.0169326	5.76013	-0.0158813	-0.0456455	0.0388716	-0.736816	0.270508	-0.711914	-0.0603577	-0.0813895	-0.992533	-0.0678968	-1.06228	0.899649	-8.91957	0.129316	0.020049	-0.0208136	-0.265869	-0.0822754	1.06519	0.470856	-0.564314	-0.516665	-0.439206	9.47101	-0.663902	-1.72371	-0.0171592	0.0189436	0.018743	-0.939941	0.508301	0.172119	0.576486	-0.497089	-0.493055	-0.421265	9.63238	-1.83838	0.302998	-0.0227333	0.00894259	-0.0280393	-0.953125	0.580566	-0.107666	
15	0.463218	-0.480565	-0.414743	-0.618445	9.61292	0.642025	2.02513	0.0508142	-0.0114262	0.011325	-0.881592	0.356689	-0.137207	0.662735	-0.339429	-0.299097	-0.59675	8.00628	-0.934107	5.85919	-0.0272649	0.0105901	0.0175306	-0.595215	0.395996	-0.461914	0.758793	-0.102444	-0.20119	-0.61095	4.84894	1.19585	9.38501	-0.124731	-0.00669268	0.0103235	-0.413574	0.170654	-0.927734	0.143166	0.173685	-0.0786403	-0.971161	-2.94287	1.90125	9.05067	-0.0624159	-0.0295865	-0.0113457	-0.0463867	-0.0422363	-1.00537	0.547428	-0.251886	-0.0691739	-0.795042	4.71585	-1.79495	8.2518	0.0525687	0.0462156	-0.0100181	-0.526855	0.514404	-0.661865	-0.990366	0.0276119	-0.0388689	0.130005	-3.0785	-2.54727	12.5435	0.0466988	-0.000394147	-0.0127865	0.703125	0.19873	-0.776611	0.549361	-0.527176	-0.474132	-0.44214	9.68035	-1.71347	0.000614242	0.0783125	0.0454585	0.0415665	-0.825684	0.522705	-0.0219727	0.745557	-0.213951	-0.426747	-0.465033	8.81035	0.0611585	5.82496	-0.153143	-0.0473416	-0.00281721	-0.737061	0.274902	-0.700439	-0.0602043	-0.0811965	-0.992637	-0.0667377	-0.911952	1.10027	-8.96954	0.0371659	0.00431166	-0.0157498	-0.270508	-0.0825195	1.06982	0.470318	-0.564685	-0.516346	-0.439681	9.44272	-0.843081	-1.42354	-0.0683556	0.00994117	-0.0050788	-0.939941	0.508301	0.176758	0.576646	-0.496597	-0.494019	-0.420495	9.67766	-1.59453	0.00254788	0.0936895	-0.0459502	-0.0201669	-0.948486	0.580811	-0.107666	
16	0.463659	-0.481085	-0.414183	-0.618085	9.70442	0.499752	1.9601	-0.0227966	0.00610782	0.0238323	-0.875	0.358887	-0.132812	0.662065	-0.341566	-0.299783	-0.59593	8.10285	-1.13359	5.68846	-0.0250549	-0.0384742	-0.0168031	-0.59082	0.393799	-0.457031	0.758737	-0.10312	-0.200125	-0.611256	4.76327	1.1016	9.32075	0.00875662	0.00294835	-0.00835141	-0.415771	0.170898	-0.929932	0.142654	0.172933	-0.0785301	-0.971379	-2.91028	1.8212	9.03276	0.0149465	-0.010183	-0.0165767	-0.0441895	-0.0400391	-1.01221	0.547749	-0.250845	-0.0699458	-0.795082	4.83488	-1.59459	8.3289	0.0154991	0.0222139	-0.0154536	-0.53125	0.516602	-0.666504	-0.990479	0.0262718	-0.0386821	0.129476	-3.1287	-2.34117	12.4717	0.0411649	0.0102824	-0.000129522	0.698975	0.19458	-0.774414	0.550494	-0.527391	-0.473362	-0.441298	9.49961	-1.74811	-0.220963	0.058733	-0.0124472	0.039192	-0.823975	0.531494	-0.0222168	0.746002	-0.213864	-0.426746	-0.464361	9.06997	-0.134233	5.54966	0.0588045	0.0292559	-0.00443635	-0.737061	0.272705	-0.709717	-0.059459	-0.0805745	-0.992733	-0.0667422	-0.900527	0.982753	-9.06077	0.0276847	0.0371308	-0.0368628	-0.277344	-0.0871582	1.06763	0.47158	-0.563457	-0.517894	-0.43808	9.67273	-0.991925	-1.60154	0.148749	0.0433559	-0.0210571	-0.939941	0.512695	0.176758	0.58066	-0.492043	-0.498133	-0.415441	9.51513	-1.57054	0.0814199	0.374101	-0.0424847	0.0168129	-0.95752	0.576172	-0.118896	
17	0.463533	-0.481532	-0.413847	-0.618057	9.65529	0.452918	1.9854	-0.0349543	-0.0183248	0.020882	-0.879395	0.356689	-0.132812	0.661962	-0.341831	-0.30042	-0.595572	8.07682	-1.03238	5.73586	0.0163422	-0.0452498	-0.0143448	-0.594971	0.389404	-0.459229	0.758414	-0.103157	-0.20045	-0.611545	4.92686	1.12488	9.2897	0.00533532	-0.0178489	-0.0373962	-0.415771	0.170898	-0.929932	0.142449	0.172962	-0.0788325	-0.971379	-2.88711	1.9142	8.98667	0.0299597	0.00696242	-0.00977099	-0.0439453	-0.0444336	-1.00977	0.547293	-0.251373	-0.0699624	-0.795228	4.8668	-1.67781	8.24319	0.00222669	-0.0292199	-0.0405881	-0.529053	0.512207	-0.657227	-0.990424	0.0262942	-0.0393921	0.129682	-3.10227	-2.39481	12.4996	-0.0184987	0.0505805	-0.0386766	0.69458	0.200928	-0.770264	0.5512	-0.527311	-0.47378	-0.440061	9.54885	-1.83977	-0.0367181	0.0409964	0.0190567	0.00323809	-0.828125	0.5271	-0.0200195	0.746891	-0.212445	-0.426307	-0.463986	8.82449	0.0717556	5.77096	0.102076	0.11897	-0.00518819	-0.737061	0.272705	-0.709717	-0.0592132	-0.0800718	-0.992749	-0.0673187	-1.13398	0.957409	-8.98472	-0.048688	0.0325891	-0.0555073	-0.272705	-0.0869141	1.06299	0.472722	-0.562196	-0.518596	-0.43764	9.56332	-0.524676	-1.25847	0.143286	0.0575997	-0.0259558	-0.946533	0.508057	0.172119	0.581186	-0.492016	-0.498348	-0.414477	9.8313	-0.626293	0.23955	0.0685329	-0.0201573	0.0501908	-0.955322	0.578369	-0.109863	
18	0.462661	-0.48285	-0.41363	-0.617828	9.73323	0.438144	1.92497	-0.0390944	-0.0632857	0.00188272	-0.881592	0.358643	-0.132812	0.661871	-0.342055	-0.302147	-0.59467	8.27702	-1.0649	5.91107	0.0323023	-0.0437654	-0.020594	-0.59082	0.393799	-0.45459	0.758198	-0.103224	-0.200579	-0.611758	5.10005	1.1487	9.3062	-0.00378976	-0.00653782	-0.0256433	-0.415771	0.172852	-0.925293	0.142855	0.17302	-0.080078	-0.971207	-2.90566	2.0503	9.0044	0.0571276	0.00718338	0.0391984	-0.0419922	-0.0419922	-1.01416	0.547013	-0.251742	-0.0702384	-0.79528	4.92611	-1.55808	8.40004	-0.00541854	-0.0290719	-0.0399329	-0.533447	0.516602	-0.657227	-0.990235	0.027262	-0.0401385	0.130691	-3.06748	-2.4698	12.5424	-0.0374537	0.0355147	-0.069915	0.700928	0.200928	-0.770264	0.55142	-0.526792	-0.476022	-0.437984	9.83285	-1.7989	-0.149319	0.134183	-0.0772245	-0.0327781	-0.823486	0.524902	-0.0200195	0.747646	-0.211367	-0.426403	-0.463174	8.65221	-0.0302466	5.6269	0.114796	0.0633617	0.0182215	-0.736816	0.270508	-0.709717	-0.0589605	-0.0777962	-0.992811	-0.0692613	-1.20109	0.762095	-8.96055	-0.0827477	0.026365	-0.0948001	-0.277344	-0.0893555	1.06543	0.473771	-0.560688	-0.520331	-0.436378	9.56981	-0.483042	-1.75707	0.0705333	0.0253761	-0.0274333	-0.946533	0.510254	0.165283	0.583278	-0.489702	-0.50062	-0.411531	9.69547	-1.25431	0.277781	0.271384	-0.00710673	9.57952e-05	-0.948486	0.576172	-0.121094	
19	0.46178	-0.484287	-0.413862	-0.617206	9.83439	0.317512	1.77637	-0.0160386	-0.0608178	0.00512763	-0.877197	0.358643	-0.124268	0.662164	-0.341578	-0.302812	-0.59428	8.08189	-0.777022	5.72548	0.0289932	0.0231082	-0.0115879	-0.597168	0.391602	-0.45459	0.758081	-0.103575	-0.201971	-0.611387	5.03834	0.996669	9.4511	0.0512793	-0.0208716	0.0262111	-0.417725	0.168701	-0.92749	0.143283	0.172691	-0.0818135	-0.971058	-2.9661	2.19956	9.07712	0.055311	-0.0230448	0.0275468	-0.0439453	-0.0466309	-1.00757	0.545819	-0.252984	-0.0703332	-0.795697	4.83075	-1.68018	8.58391	0.00197403	-0.0168867	-0.051082	-0.533447	0.516602	-0.657227	-0.99009	0.0291524	-0.0401801	0.131365	-3.12189	-2.6335	12.5212	-0.0759504	-0.0143062	-0.0417381	0.69873	0.200928	-0.770264	0.551476	-0.52651	-0.478501	-0.435543	9.56977	-1.47996	-0.129704	0.0671038	-0.0787667	-0.00868736	-0.821533	0.5271	-0.0178223	0.749398	-0.208109	-0.427355	-0.460935	8.70427	0.0264014	5.87297	0.154036	0.00674503	0.00547641	-0.732178	0.261963	-0.714111	-0.0594623	-0.0753715	-0.992951	-0.0695153	-1.21848	0.991224	-8.89904	-0.0221631	-0.00507164	-0.121243	-0.274902	-0.0915527	1.06763	0.475201	-0.558569	-0.522113	-0.435411	9.43117	-1.25739	-1.53126	0.161239	0.0291117	-0.0433356	-0.946533	0.508057	0.160889	0.585408	-0.488055	-0.502605	-0.408029	9.72905	-2.00257	0.258601	0.216378	-0.0346853	0.0400147	-0.953369	0.584961	-0.125977	
20	0.461317	-0.484528	-0.414328	-0.617051	9.77191	0.325199	1.84912	0.00794252	-0.0199608	-0.0254725	-0.876953	0.352295	-0.124268	0.662109	-0.34124	-0.303676	-0.594094	7.90116	-0.814347	5.71621	0.0238444	-0.0120657	-0.034737	-0.593018	0.391602	-0.45459	0.758493	-0.103327	-0.201627	-0.611031	4.76436	1.41706	9.30708	-0.0333953	0.0295654	0.0127534	-0.417725	0.168701	-0.92749	0.143092	0.171924	-0.0821789	-0.971192	-3.0162	2.02648	9.0603	0.0070027	-0.0166475	-0.0117954	-0.0439453	-0.0466309	-1.01196	0.545873	-0.252206	-0.0719257	-0.795765	4.77707	-1.67066	8.49371	0.0909086	0.000448193	-0.0324164	-0.544434	0.516602	-0.657227	-0.990128	0.0297706	-0.0389778	0.131304	-3.07674	-2.46389	12.6985	-0.00246773	-0.0471156	-0.0134134	0.700928	0.200928	-0.772461	0.551432	-0.526714	-0.479119	-0.434672	9.66274	-1.54134	-0.211781	0.0579615	-0.0618981	0.00184799	-0.825928	0.529297	-0.0222168	0.749347	-0.206974	-0.428234	-0.460714	8.90981	0.493119	6.04739	-0.0108978	0.0184107	-0.0566563	-0.734375	0.261963	-0.714111	-0.0599089	-0.073509	-0.992869	-0.0722359	-0.688197	1.55303	-9.22711	-0.16382	0.00888375	-0.0661547	-0.271973	-0.105225	1.05884	0.477081	-0.555963	-0.524556	-0.433751	9.68758	-0.841784	-1.53249	0.172043	0.0122348	-0.0518618	-0.946777	0.512451	0.153809	0.589158	-0.484346	-0.506023	-0.402794	10.2504	-1.63805	-0.147184	0.342242	-0.0311692	0.0165726	-0.950928	0.582764	-0.130371	
21	0.46067	-0.483284	-0.415456	-0.61775	9.78644	0.535343	2.03538	0.0368308	0.00953431	-0.0867387	-0.881348	0.350098	-0.130615	0.66162	-0.341117	-0.306334	-0.593344	8.24632	-1.04006	5.83002	0.0777191	-0.089564	-0.041743	-0.599365	0.387207	-0.449707	0.758165	-0.104149	-0.200243	-0.611752	5.01786	1.18569	9.19326	-0.0487393	0.0176617	-0.0329136	-0.417725	0.173096	-0.923096	0.143105	0.172122	-0.0807031	-0.971279	-3.03857	2.06696	9.02991	-0.0682907	0.0414156	5.7677e-05	-0.0419922	-0.0400391	-1.01001	0.54653	-0.250469	-0.0739908	-0.795673	4.66843	-1.5669	8.48315	0.097614	0.0208881	-0.0136204	-0.541992	0.507812	-0.668701	-0.990205	0.0296851	-0.0380575	0.131012	-3.05258	-2.48206	12.6254	0.0171552	-0.0624649	-0.000960281	0.702881	0.20752	-0.776855	0.551859	-0.526042	-0.480957	-0.43291	9.50672	-1.94693	-0.204093	0.0960014	-0.0525329	-0.0136658	-0.83252	0.529053	-0.0200195	0.750398	-0.204124	-0.42702	-0.461401	8.80721	0.071645	6.26543	0.131582	0.136096	-0.043634	-0.732178	0.259766	-0.716553	-0.0597193	-0.0727603	-0.992627	-0.0763662	-0.874473	0.859528	-9.24589	-0.152704	0.0412412	-0.0288523	-0.276367	-0.112061	1.06787	0.479546	-0.552457	-0.527467	-0.431979	9.77803	-0.424686	-2.00952	0.218147	0.0345549	-0.0635825	-0.944336	0.508057	0.154053	0.592695	-0.480216	-0.508663	-0.39921	9.88391	-1.17829	0.168229	0.202058	0.00940032	0.00341058	-0.953125	0.582764	-0.141846	
22	0.459759	-0.48309	-0.417101	-0.617472	9.98555	0.804088	1.94431	0.0255783	-0.0566199	-0.0357622	-0.881348	0.350098	-0.124268	0.66192	-0.340576	-0.308701	-0.592093	8.46753	-0.940359	5.98521	0.0925033	-0.0225114	-0.0129315	-0.605713	0.38501	-0.454346	0.757944	-0.103331	-0.203141	-0.611209	5.15513	0.95616	9.43082	0.158076	-0.0858697	0.00703626	-0.419922	0.170898	-0.929932	0.143922	0.174059	-0.0807427	-0.970809	-2.95554	1.93384	9.15253	0.0470267	0.0998443	0.0417457	-0.0373535	-0.0441895	-1.01196	0.546713	-0.250022	-0.074986	-0.795594	4.73875	-1.5298	8.43065	0.0851857	-0.00857782	-0.0242928	-0.535156	0.505615	-0.661865	-0.990293	0.0295906	-0.0368738	0.130711	-2.99426	-2.30878	12.7254	-0.0112862	-0.0245191	-0.0166124	0.700928	0.203125	-0.774658	0.552648	-0.525115	-0.484054	-0.429566	9.99423	-1.62191	-0.260452	0.158103	-0.0801523	-0.0172108	-0.827881	0.524902	-0.0178223	0.751509	-0.201371	-0.426399	-0.461375	8.95275	0.317069	5.85573	0.127249	0.101465	-0.0410194	-0.723389	0.255615	-0.728027	-0.0584172	-0.0727223	-0.992679	-0.0767309	-1.22097	1.09689	-9.04487	0.0130975	0.0597059	-0.0132866	-0.281006	-0.112061	1.06128	0.481665	-0.550562	-0.528943	-0.430232	9.60737	-1.05821	-1.35694	0.126759	-0.000982753	0.012994	-0.951172	0.510254	0.146973	0.594797	-0.478558	-0.509672	-0.396778	9.59219	-1.97244	0.282027	0.229108	-0.0176185	0.0330417	-0.94873	0.582764	-0.14624	
23	0.458893	-0.483488	-0.418437	-0.616901	9.7817	0.691727	1.80563	0.0240194	-0.0628387	-0.0371181	-0.87915	0.352295	-0.12207	0.662785	-0.338621	-0.310526	-0.591291	8.27453	-0.563406	5.75306	0.0983907	0.0188632	-0.0218874	-0.603516	0.38501	-0.458984	0.758358	-0.101628	-0.207533	-0.609504	5.1811	1.42239	9.64109	0.14121	-0.0842823	0.0354643	-0.42627	0.162354	-0.929688	0.145478	0.176256	-0.0830216	-0.969988	-2.99961	2.07583	9.21687	0.108942	0.0813834	0.0816926	-0.0371094	-0.048584	-1.01196	0.54641	-0.251526	-0.0771908	-0.795118	4.83899	-1.56277	8.64939	0.0181047	-0.0613011	-0.00555799	-0.541992	0.507812	-0.664062	-0.990244	0.0331456	-0.0361079	0.130441	-3.11606	-2.59149	12.7658	-0.0965456	-0.0332877	-0.00726332	0.694092	0.211914	-0.776855	0.551499	-0.525303	-0.486428	-0.428127	9.85363	-1.72949	-0.120163	0.0656234	-0.0341265	-0.0371917	-0.830078	0.524902	-0.0136719	0.752594	-0.199509	-0.425893	-0.460884	8.5834	0.186411	5.96423	0.0374342	0.0647207	-0.00980798	-0.727783	0.255615	-0.728027	-0.0576257	-0.0715396	-0.992676	-0.078454	-1.27121	0.967184	-8.9955	-0.0999039	0.0349687	-0.0745317	-0.280762	-0.114502	1.06348	0.482752	-0.549448	-0.528848	-0.430555	9.50812	-0.326615	-1.73032	-0.00816819	0.0727302	-0.0146589	-0.948486	0.501465	0.14502	0.594296	-0.478784	-0.509935	-0.396918	9.73951	-1.14373	-0.12168	-0.104437	-0.0138769	-0.0249426	-0.950928	0.582764	-0.144043	
24	0.45747	-0.483826	-0.420233	-0.616473	9.78754	0.849641	1.74482	0.0182238	-0.0804457	-0.0609925	-0.880859	0.343506	-0.124023	0.663277	-0.338346	-0.310888	-0.590707	8.14105	-0.785607	5.85814	0.00705061	-0.00662089	0.0129796	-0.594727	0.380615	-0.456543	0.759171	-0.10237	-0.208608	-0.607999	5.13202	1.29211	9.58215	0.00273503	-0.0284649	0.0751066	-0.421875	0.157959	-0.925049	0.147049	0.177444	-0.0844372	-0.969412	-3.23215	2.23046	9.2459	0.016951	0.0456924	0.0679608	-0.0371094	-0.0507812	-1.00977	0.546953	-0.251184	-0.0779494	-0.794778	4.74833	-1.55101	8.62675	0.0754404	-0.00800406	0.0145784	-0.535156	0.501221	-0.666504	-0.990321	0.0343349	-0.0352736	0.129771	-3.00807	-2.57198	12.8007	-0.0828058	-0.0691521	0.0283913	0.698486	0.209717	-0.779053	0.55191	-0.524687	-0.487204	-0.427471	9.85061	-1.82014	-0.149497	0.110445	-0.0139021	-0.0298618	-0.825928	0.529297	-0.0158691	0.753117	-0.19861	-0.426485	-0.45987	8.44244	0.25984	6.07369	0.0916272	0.00992783	0.00631342	-0.727295	0.249023	-0.725586	-0.0583293	-0.0705709	-0.992704	-0.0784654	-1.14355	0.685957	-8.89568	0.0443304	-0.0295757	-0.0556665	-0.282959	-0.118896	1.05908	0.481294	-0.55049	-0.527778	-0.432166	9.73211	-0.517481	-1.64413	-0.125518	0.0260539	0.00534337	-0.946289	0.503662	0.147217	0.586145	-0.487164	-0.506239	-0.403518	10.1569	-0.453389	-0.227536	-0.843991	-0.0983418	-0.0600862	-0.948486	0.580811	-0.118896	
25	0.45747	-0.483826	-0.420233	-0.616473	9.78754	0.849641	1.74482	0.0182238	-0.0804457	-0.0609925	-0.880859	0.343506	-0.124023	0.663502	-0.33866	-0.310582	-0.590436	8.21598	-0.889279	5.84273	-0.0241412	0.0129634	0.023435	-0.592529	0.378418	-0.456543	0.759729	-0.102243	-0.209074	-0.607162	5.00772	1.30458	9.65339	0.0470904	-0.013656	0.0696753	-0.421875	0.157959	-0.927246	0.147899	0.177512	-0.0836053	-0.969343	-3.31962	2.13835	9.19167	-0.072125	0.031519	0.0563517	-0.0349121	-0.0507812	-1.01196	0.549097	-0.248355	-0.0792007	-0.794065	4.81869	-1.46173	8.38358	0.128523	0.0884466	0.0511246	-0.537354	0.501221	-0.670898	-0.990641	0.0335838	-0.0329805	0.128123	-2.91966	-2.62689	12.6784	0.0919991	-0.0766194	0.042682	0.685791	0.19873	-0.785156	0.551812	-0.52489	-0.487141	-0.42742	9.69614	-1.68957	-0.00948914	-0.017023	-0.0129105	-0.0146411	-0.828125	0.529297	-0.0158691	0.753013	-0.198784	-0.427222	-0.459279	8.47442	0.443591	6.05306	0.0409612	-0.045841	0.00642291	-0.729736	0.251221	-0.728027	-0.0589377	-0.0704078	-0.992778	-0.0772098	-1.09992	0.883485	-8.87654	0.0939173	-0.0480239	-0.0423202	-0.280762	-0.118896	1.06348	0.479347	-0.552532	-0.526326	-0.433493	9.23735	-0.586836	-1.795	-0.269751	-0.0266058	0.0338285	-0.94873	0.505859	0.151611	0.58009	-0.494074	-0.501205	-0.410097	9.77533	-2.68014	0.289417	-0.986483	0.030981	-0.0315384	-0.953125	0.582764	-0.103027	
26	0.457525	-0.48445	-0.421303	-0.615209	9.87726	0.669432	1.77761	0.0183368	-0.018513	0.0489946	-0.883301	0.3479	-0.124268	0.66352	-0.338965	-0.309865	-0.590616	7.95923	-0.77754	5.94128	-0.0248874	0.0590343	-0.0267295	-0.596924	0.38501	-0.454346	0.760628	-0.102015	-0.209481	-0.605934	4.64553	1.53353	9.74416	-0.00229437	0.0128936	0.0506891	-0.426025	0.155762	-0.922607	0.148064	0.177155	-0.0824123	-0.969485	-3.3013	1.74834	9.1963	-0.0167379	-0.00598418	-0.0306873	-0.0351562	-0.0444336	-1.00537	0.550501	-0.246933	-0.0791142	-0.793545	4.9334	-1.23826	8.20145	0.00923007	0.0372545	0.0249747	-0.534912	0.499023	-0.668701	-0.990908	0.0320177	-0.0318754	0.126725	-2.74974	-2.41971	12.709	0.0394945	-0.00126098	0.0287549	0.687988	0.200928	-0.787354	0.55146	-0.524977	-0.486984	-0.427945	9.46414	-1.39178	-0.340136	-0.0134364	-0.000240965	-0.0241859	-0.827881	0.522705	-0.0136719	0.752275	-0.199529	-0.428319	-0.459144	8.75898	0.508546	6.21017	-0.00932835	-0.0340959	-0.0367699	-0.727539	0.253418	-0.723389	-0.0596867	-0.0718442	-0.992853	-0.0742861	-1.08741	1.70715	-8.99941	0.0894294	-0.0312654	0.0473194	-0.28125	-0.105225	1.05664	0.475997	-0.555831	-0.524239	-0.435491	9.50966	-1.90048	-1.45871	-0.126763	-0.0142272	0.0284016	-0.944336	0.508057	0.151611	0.582237	-0.491286	-0.501313	-0.410272	9.01101	-2.06106	0.653688	0.403624	0.0877005	-0.00667366	-0.948486	0.578369	-0.114502	
27	0.45843	-0.48433	-0.420143	-0.615424	9.63206	0.426842	1.94583	-0.018575	0.0482814	0.0259512	-0.881104	0.345703	-0.12207	0.66255	-0.338953	-0.309891	-0.591697	7.85302	-0.692979	5.49638	-0.0293584	-0.0285386	-0.0792369	-0.596924	0.382812	-0.449707	0.760052	-0.102815	-0.206805	-0.607439	4.7982	1.55391	9.26916	-0.12529	0.0830367	-0.0820886	-0.415527	0.157715	-0.929688	0.146563	0.176843	-0.0812094	-0.969872	-3.27562	1.86263	8.92506	-0.0538795	0.00187363	-0.0670854	-0.0349121	-0.0466309	-1.00537	0.54996	-0.247931	-0.0788174	-0.793639	4.75609	-1.38996	8.42223	-0.0488677	-0.0326001	-0.0403624	-0.532959	0.505615	-0.668701	-0.990902	0.0313017	-0.0328612	0.126699	-2.7343	-2.38281	12.6232	0.0466312	0.069435	-0.0379133	0.690186	0.200928	-0.782959	0.550047	-0.526672	-0.486637	-0.428076	9.59194	-2.02254	-0.448444	-0.0671241	-0.018503	-0.000813338	-0.832275	0.524902	-0.0114746	0.750836	-0.200777	-0.42777	-0.461461	8.97606	0.0306315	6.2105	-0.0975987	0.0494366	-0.106947	-0.729492	0.249023	-0.718506	-0.0600493	-0.0727502	-0.992753	-0.0744445	-0.75612	1.87341	-9.0768	-0.0137453	-0.0283725	0.0514642	-0.276367	-0.109863	1.05664	0.477813	-0.554086	-0.524828	-0.435016	9.5979	-0.21678	-1.52035	0.0792959	0.0646744	-0.0451512	-0.94873	0.505859	0.151611	0.58524	-0.488315	-0.502154	-0.408515	9.95517	-1.56642	0.143996	0.118132	0.0853933	0.0158172	-0.950928	0.580566	-0.121338	
28	0.45787	-0.484276	-0.419707	-0.61618	9.63269	0.560355	1.97597	-0.0345544	-0.0054259	-0.037191	-0.883057	0.343506	-0.12207	0.660742	-0.340683	-0.311258	-0.592008	8.26239	-1.0562	5.80445	-0.0511487	-0.0631986	-0.0589916	-0.609863	0.380615	-0.451904	0.75864	-0.103049	-0.205292	-0.609673	4.93442	1.08462	9.01006	-0.0251565	0.0136867	-0.0894288	-0.419922	0.168701	-0.92749	0.145435	0.177567	-0.0802549	-0.969988	-3.13566	1.91384	8.73214	-0.000354298	0.0500308	-0.0455537	-0.0351562	-0.0441895	-1.00757	0.548887	-0.24895	-0.0792865	-0.794015	4.78665	-1.4272	8.46198	-0.0012458	-0.0309318	-0.0745804	-0.539062	0.494629	-0.666504	-0.990664	0.0306547	-0.0344121	0.1283	-2.85308	-2.34369	12.6214	-0.00914996	0.0687885	-0.0879138	0.689941	0.20752	-0.776855	0.548539	-0.528173	-0.486299	-0.428547	9.62615	-1.90427	-0.237145	-0.0658708	-0.0486329	-0.0174065	-0.827637	0.520508	-0.0114746	0.750581	-0.198748	-0.426435	-0.463983	8.94747	0.0530542	6.03148	0.0164582	0.121593	-0.122439	-0.731445	0.244629	-0.720947	-0.0603062	-0.0755038	-0.992126	-0.0796736	-0.595756	1.13984	-9.18865	-0.15755	0.029119	0.0775469	-0.27832	-0.118896	1.05908	0.479705	-0.551645	-0.526447	-0.434078	9.83764	-1.12457	-1.3806	0.184551	0.0486401	-0.017771	-0.946533	0.505859	0.149414	0.591307	-0.481279	-0.50672	-0.402443	10.0109	-0.857223	-0.0424948	0.474349	0.0045763	-0.00512333	-0.946533	0.583008	-0.139404	
29	0.456331	-0.485072	-0.420063	-0.616453	9.70649	0.721179	1.96117	-0.0416025	-0.0695677	-0.0269302	-0.878906	0.3479	-0.117676	0.659945	-0.34052	-0.313327	-0.591899	8.43906	-0.930791	5.8086	0.0645739	-0.0335593	-0.0643893	-0.605469	0.378418	-0.45166	0.757508	-0.100735	-0.208533	-0.610367	5.23729	1.12486	9.28139	0.170105	-0.0512527	-0.0767543	-0.43042	0.158203	-0.927246	0.145072	0.17918	-0.0817178	-0.969624	-2.99356	2.14752	8.89838	0.0932778	0.0650049	0.00822533	-0.026123	-0.0463867	-1.00977	0.547157	-0.24935	-0.0797283	-0.795039	4.83549	-1.33673	8.48454	-0.0319596	-0.0149981	-0.0984978	-0.543701	0.499023	-0.664062	-0.990342	0.0317919	-0.0348575	0.130374	-2.95878	-2.50228	12.5382	-0.0447163	0.0168942	-0.108465	0.692139	0.203125	-0.778809	0.547914	-0.527872	-0.48811	-0.427657	9.96197	-1.62251	-0.400421	0.100802	-0.0429717	-0.0661028	-0.83252	0.53125	-0.000976562	0.751764	-0.195842	-0.424572	-0.46501	8.69983	0.148344	5.88347	0.0677553	0.142073	-0.0406682	-0.727295	0.244629	-0.730225	-0.0589936	-0.0766287	-0.991939	-0.08188	-1.07597	0.789931	-8.99811	-0.0473209	0.0649254	0.0339971	-0.284912	-0.125732	1.05469	0.480825	-0.550683	-0.526696	-0.433759	9.43384	-0.614342	-1.68285	-0.025416	0.0333993	-0.00677095	-0.950928	0.508057	0.151611	0.590478	-0.482671	-0.505697	-0.403279	9.79688	-2.55998	0.390043	-0.0714067	0.0178659	0.00658137	-0.94873	0.583008	-0.128174	
30	0.455447	-0.486131	-0.420384	-0.616053	9.71588	0.617229	1.84085	-0.0413902	-0.112689	-0.00746303	-0.881348	0.349854	-0.111328	0.659948	-0.339722	-0.314172	-0.591906	8.38443	-0.716089	5.8772	0.0761369	0.00684496	-0.0608319	-0.605469	0.378418	-0.454102	0.756919	-0.0996516	-0.211412	-0.610286	5.10532	1.36854	9.48183	0.05271	-0.0522538	-0.0246838	-0.421875	0.153564	-0.929443	0.144788	0.180234	-0.0842876	-0.969251	-3.00619	2.25373	9.06178	0.110758	0.0311776	0.00731581	-0.0324707	-0.0529785	-1.01196	0.54605	-0.250012	-0.0801311	-0.795552	4.91708	-1.5037	8.55903	-0.0292378	-0.0483924	-0.111941	-0.54126	0.492432	-0.664062	-0.990197	0.0329465	-0.0346571	0.131239	-3.08614	-2.61361	12.5249	-0.0856377	-0.0137207	-0.0958295	0.689941	0.20752	-0.783203	0.547863	-0.527348	-0.488838	-0.427535	9.90452	-1.55049	-0.323797	0.0649381	-0.0100383	-0.0645661	-0.825684	0.522705	-0.00292969	0.752394	-0.194335	-0.424185	-0.464977	8.56303	0.178797	6.08594	0.0936997	0.118254	-0.0396708	-0.724854	0.240479	-0.737061	-0.0583129	-0.0771253	-0.991946	-0.0818143	-1.39047	0.870434	-8.94284	0.0113434	0.055528	0.0246307	-0.287598	-0.121338	1.05908	0.480865	-0.550377	-0.526702	-0.434095	9.52915	-0.883383	-1.40468	0.000861918	0.0391917	-0.0230855	-0.953125	0.503662	0.14502	0.594252	-0.478366	-0.508989	-0.398699	9.82406	-0.852925	0.213733	0.257366	-0.0399898	0.0239181	-0.94165	0.574219	-0.137207	
31	0.452694	-0.488369	-0.422428	-0.614913	9.89066	0.581586	1.60478	0.00255856	-0.0935305	-0.0530195	-0.880859	0.341064	-0.104736	0.659634	-0.338532	-0.315766	-0.59209	8.14798	-0.748263	5.81022	0.0100943	-0.0285442	-0.039597	-0.607422	0.369629	-0.456055	0.756496	-0.100318	-0.211954	-0.610512	5.11424	1.43237	9.35217	-0.0188287	-0.0237508	-0.0093008	-0.428223	0.153809	-0.927246	0.14496	0.180669	-0.083926	-0.969176	-3.22332	2.1308	9.071	-0.0281715	0.0301585	0.00362395	-0.0300293	-0.0551758	-1.00732	0.54499	-0.249516	-0.0823951	-0.796203	4.71532	-1.5934	8.58894	0.110478	-0.0104177	-0.0720303	-0.543457	0.492432	-0.668701	-0.990097	0.0345222	-0.0331354	0.131975	-3.00548	-2.70169	12.7546	-0.0147872	-0.0634906	-0.0413237	0.6875	0.213867	-0.78125	0.547827	-0.527139	-0.489458	-0.427131	9.61435	-1.72963	-0.255607	0.040271	-0.0106252	-0.020196	-0.829834	0.522705	-0.00292969	0.752941	-0.193044	-0.424485	-0.464357	8.73615	0.213828	5.88179	0.0285237	0.04086	-0.00519107	-0.722656	0.240479	-0.737061	-0.0581841	-0.0748605	-0.992007	-0.083262	-1.02521	1.16614	-8.95101	-0.078968	-0.00435718	-0.114016	-0.280273	-0.128174	1.06152	0.483607	-0.547011	-0.529345	-0.432085	9.48818	-0.525407	-1.63906	0.0689575	0.0407612	-0.0433398	-0.957764	0.505859	0.142578	0.595549	-0.476826	-0.51076	-0.396336	9.71337	-1.91037	0.105662	0.229477	-0.0242622	-0.000453568	-0.948486	0.580566	-0.144043	
32	0.451513	-0.4886	-0.423808	-0.614649	9.87482	0.689139	1.6429	0.0113446	-0.0552069	-0.0319246	-0.889648	0.338867	-0.104736	0.659269	-0.338411	-0.316131	-0.592371	8.09432	-0.871702	5.94209	0.00568145	0.000866283	-0.0463499	-0.609375	0.369629	-0.453857	0.756391	-0.0999907	-0.21333	-0.610217	4.9475	1.44838	9.38847	0.0786236	-0.0325696	-0.00875189	-0.432373	0.149414	-0.924805	0.144869	0.181873	-0.0835156	-0.969	-3.46364	1.88807	9.09465	0.00202841	0.0681059	-0.00934101	-0.0236816	-0.0529785	-1.01416	0.545871	-0.244832	-0.0859579	-0.796677	4.72531	-1.3202	8.45185	0.122859	0.0829101	-0.0364365	-0.542969	0.481445	-0.670898	-0.990286	0.0330405	-0.0303334	0.131615	-2.93555	-2.44753	12.7824	0.0867083	-0.0972772	0.00115948	0.681152	0.20752	-0.787598	0.54849	-0.525889	-0.490818	-0.42626	9.59987	-1.77362	-0.155321	0.0830386	-0.0049718	-0.0442736	-0.829834	0.518311	-0.00708008	0.753734	-0.191624	-0.425391	-0.462826	8.70244	0.0156277	6.06705	0.159235	0.0026765	0.0124362	-0.722656	0.236084	-0.734863	-0.0588247	-0.0721304	-0.992091	-0.0842186	-1.06388	1.05529	-9.09148	-0.0296341	-0.00594508	-0.135663	-0.275635	-0.130371	1.05713	0.484891	-0.545155	-0.531088	-0.430851	9.51208	-0.740254	-1.49278	0.120754	0.00453752	-0.0303089	-0.950928	0.505859	0.137939	0.596575	-0.475935	-0.511692	-0.394658	9.65918	-1.98783	0.424793	0.0227505	-0.00787941	0.035662	-0.948486	0.580566	-0.14624	
33	0.451635	-0.489213	-0.423262	-0.614448	9.9983	0.320478	1.82872	-0.0273777	0.00437802	0.0411886	-0.883301	0.345459	-0.102539	0.658674	-0.337964	-0.316669	-0.593001	7.94303	-0.665949	5.83712	-0.0122278	0.0125108	-0.0722024	-0.611572	0.369629	-0.451416	0.755394	-0.0975523	-0.215987	-0.610912	4.59093	2.16754	9.48794	0.119465	-0.0135098	-0.110247	-0.436768	0.145264	-0.929199	0.143817	0.184407	-0.0841327	-0.968624	-4.17393	1.5441	8.90699	0.0809646	0.109705	-0.055707	-0.019043	-0.0551758	-1.00732	0.545021	-0.242507	-0.0872626	-0.797827	4.9061	-1.13946	8.81825	0.0682662	0.0681774	-0.120206	-0.547119	0.474854	-0.680176	-0.990455	0.0319115	-0.0277779	0.131182	-2.39108	-2.44537	13.1642	0.0335156	-0.0310201	-0.0355254	0.677002	0.205322	-0.787354	0.54945	-0.523323	-0.495754	-0.422452	9.63517	-1.65291	-0.661092	0.231536	-0.131207	-0.0766031	-0.827881	0.524902	-0.00927734	0.755358	-0.187692	-0.42725	-0.46007	9.14302	0.42875	5.68631	0.207036	0.0817158	-0.0041347	-0.719971	0.225098	-0.739258	-0.0582052	-0.0692261	-0.992414	-0.0832773	-0.980007	1.77914	-9.13635	0.00401972	0.05631	-0.134008	-0.282471	-0.130371	1.05933	0.486595	-0.542597	-0.533526	-0.429143	9.6831	-1.00048	-1.31975	0.183156	0.0211025	-0.0468706	-0.94873	0.505859	0.131104	0.599597	-0.472296	-0.51433	-0.391005	10.0505	-1.08645	0.14268	0.189095	0.0151429	0.00427219	-0.946289	0.578369	-0.153076	
34	0.452313	-0.489511	-0.422437	-0.614279	9.96833	0.00220234	1.94838	-0.0168313	0.0280758	0.0800852	-0.883301	0.343262	-0.111328	0.657456	-0.338808	-0.316232	-0.594103	8.01925	-0.803789	5.957	-0.131631	-0.00457466	-0.0999403	-0.611572	0.369629	-0.451416	0.753736	-0.0953166	-0.218026	-0.612586	4.36126	2.98688	9.06778	0.192256	-0.0218136	-0.238772	-0.436523	0.13208	-0.931152	0.142666	0.18704	-0.0853067	-0.968187	-5.10604	1.52893	9.08822	0.143751	0.197116	-0.0822162	-0.012207	-0.0593262	-1.01172	0.543239	-0.240762	-0.0881709	-0.799469	4.80901	-1.12914	8.96039	0.0861979	0.0989125	-0.229478	-0.547119	0.474854	-0.675537	-0.990387	0.0309359	-0.0277778	0.131928	-2.03529	-2.32005	13.8383	0.0813463	0.0252074	-0.0783116	0.681152	0.21167	-0.789795	0.550843	-0.520966	-0.498831	-0.419922	9.93703	-1.8967	-0.896992	0.379627	-0.0955848	-0.0812044	-0.835938	0.513916	-0.0112305	0.756503	-0.184815	-0.427242	-0.45936	9.07688	0.46622	6.02122	0.220012	0.152099	-0.0327656	-0.72168	0.216553	-0.741455	-0.0576021	-0.0677909	-0.992433	-0.0846379	-1.19089	1.80275	-9.06756	-0.113456	0.0715676	-0.1226	-0.286865	-0.13501	1.05933	0.487864	-0.540589	-0.535578	-0.427678	9.70698	-0.777125	-1.57532	0.266525	-0.00872019	-0.0728906	-0.94873	0.503662	0.131348	0.601029	-0.470676	-0.515383	-0.389369	9.68264	-1.69275	0.31796	0.234338	0.00371416	0.0127957	-0.948486	0.580566	-0.159912	
35	0.452509	-0.489794	-0.422067	-0.614164	9.78762	0.0732208	2.0594	-0.00564793	-0.0229109	-0.00939112	-0.87915	0.349854	-0.109131	0.654278	-0.339622	-0.319065	-0.595629	8.0595	-0.696978	5.88485	0.0529506	-0.149214	-0.195397	-0.615967	0.367676	-0.448975	0.743678	-0.0913901	-0.225664	-0.622629	4.15084	2.76413	8.70739	0.17819	-0.180082	-0.613535	-0.448975	0.11499	-0.932861	0.139808	0.20129	-0.0858005	-0.965699	-4.44469	1.47935	9.25156	0.113809	0.687764	-0.139337	0.0126953	-0.0681152	-1.00708	0.537282	-0.236178	-0.0896506	-0.804681	5.9209	-0.186706	9.34801	0.0206342	0.201365	-0.387848	-0.548828	0.464111	-0.687012	-0.989665	0.0284395	-0.030876	0.13712	-2.27389	-2.75211	14.3655	0.11097	0.188562	-0.29654	0.681152	0.21167	-0.78125	0.553403	-0.516276	-0.504793	-0.415197	9.94934	-1.99472	-0.503782	0.360374	-0.12268	-0.0868844	-0.840332	0.513916	-0.0175781	0.757882	-0.178472	-0.427985	-0.458902	8.87427	0.455288	5.97467	0.240967	0.120649	-0.110404	-0.715088	0.212402	-0.755371	-0.0548723	-0.0665975	-0.992211	-0.0898401	-1.20954	1.0703	-9.09915	-0.173413	0.170332	-0.014346	-0.295654	-0.146484	1.05713	0.49313	-0.534533	-0.540311	-0.423275	9.25362	-1.07045	-1.56372	0.444639	0.0074336	-0.04266	-0.953125	0.505859	0.117432	0.605866	-0.464992	-0.519728	-0.382873	9.55268	-1.65841	0.253305	0.442927	-0.0484774	0.0371977	-0.946045	0.576172	-0.164551	
36	0.450286	-0.490715	-0.422499	-0.614765	9.44848	0.662032	2.0166	-0.0884006	-0.07954	-0.0735922	-0.885498	0.343262	-0.0961914	0.64966	-0.336279	-0.324539	-0.59961	8.03718	-0.185536	5.79742	0.100493	-0.046218	-0.409961	-0.623779	0.3479	-0.443604	0.728816	-0.0812724	-0.242504	-0.635149	4.55192	2.44992	8.8077	0.625281	-0.365334	-0.962878	-0.478271	0.0678711	-0.924805	0.136927	0.226659	-0.0873445	-0.960337	-4.33471	1.50224	8.4286	0.32071	1.06723	-0.174119	0.0688477	-0.0808105	-1.01147	0.525777	-0.231404	-0.0823141	-0.814393	5.41573	-0.713602	9.58408	-0.35769	0.404576	-0.58811	-0.546387	0.459717	-0.689209	-0.988041	0.0235279	-0.0334412	0.148673	-2.97409	-2.25644	13.3924	0.175673	0.110432	-0.528247	0.685059	0.220459	-0.781494	0.55506	-0.512071	-0.510807	-0.410813	9.61153	-1.28702	-0.707701	0.335969	-0.142722	-0.114999	-0.837891	0.509766	-0.0195312	0.758682	-0.172888	-0.428502	-0.459236	8.81186	0.48858	5.80581	0.182227	0.116656	-0.105011	-0.717041	0.208008	-0.75293	-0.0505004	-0.0643694	-0.992123	-0.0948602	-0.945191	1.08411	-9.09443	-0.250795	0.186501	-0.090694	-0.300049	-0.155518	1.05054	0.499587	-0.526212	-0.546102	-0.418672	9.53555	-0.406567	-1.72025	0.391997	0.075785	-0.0887446	-0.95752	0.503662	0.101562	0.609219	-0.460939	-0.522701	-0.37838	9.67965	-1.82197	0.0170941	0.323734	0.0058335	0.014178	-0.950928	0.580566	-0.178223	
37	0.444685	-0.493476	-0.423671	-0.615825	9.81646	0.710272	1.51846	-0.147858	-0.165716	-0.142471	-0.88501	0.334473	-0.0917969	0.641635	-0.332719	-0.332935	-0.605604	8.22225	0.192042	5.63146	0.0227639	-0.148174	-0.549252	-0.646973	0.326172	-0.437988	0.712714	-0.0664851	-0.259598	-0.64825	5.098	2.19324	9.30036	0.640933	-0.181063	-0.962859	-0.494629	0.0205078	-0.925781	0.130572	0.252453	-0.0943382	-0.954106	-3.71413	2.86415	7.91349	0.449185	0.945537	-0.230491	0.121338	-0.104492	-1.00439	0.512762	-0.222232	-0.073789	-0.82598	5.09335	-1.23736	9.02533	-0.243992	0.546124	-0.626996	-0.546143	0.44873	-0.698242	-0.985877	0.0203762	-0.0292489	0.163632	-2.99539	-2.90289	12.138	0.203758	-0.200445	-0.646003	0.673584	0.237793	-0.792725	0.553946	-0.509601	-0.516022	-0.408867	9.45893	-0.685507	-0.432893	0.0870826	-0.121402	-0.151305	-0.8396	0.498779	-0.0151367	0.760166	-0.166416	-0.429424	-0.45831	8.22786	0.856115	6.44477	0.25207	0.10472	-0.0781992	-0.714355	0.192627	-0.755127	-0.0489807	-0.0623478	-0.992058	-0.0976459	-1.04767	1.49707	-9.2016	-0.126147	0.0268229	-0.0990121	-0.302002	-0.164795	1.04395	0.502887	-0.521477	-0.550314	-0.415116	9.41338	0.0693415	-1.8517	0.304649	0.00353417	-0.067773	-0.955322	0.503662	0.0993652	0.611646	-0.458566	-0.524529	-0.374802	9.71286	-1.33159	0.00569717	0.0963788	-0.01113	0.0545476	-0.946289	0.578369	-0.182617	
38	0.440448	-0.496277	-0.422487	-0.61743	9.94663	0.717048	1.60921	-0.213258	-0.06054	-0.0518254	-0.889404	0.332275	-0.0852051	0.630369	-0.333552	-0.337846	-0.614197	8.53252	0.182467	5.30514	-0.204095	-0.151543	-0.555887	-0.655029	0.312988	-0.432861	0.697234	-0.0600266	-0.271531	-0.660706	5.4169	3.10343	9.22232	0.176414	-0.327765	-0.818412	-0.509033	-0.00952148	-0.917969	0.123548	0.270744	-0.0981622	-0.94963	-4.03605	2.78785	8.00641	0.341977	0.638342	-0.294383	0.157471	-0.119629	-0.995361	0.506817	-0.214128	-0.0732326	-0.831819	4.53648	-1.6727	8.62123	0.153673	0.634337	-0.686762	-0.541016	0.43335	-0.709717	-0.984804	0.0174622	-0.0238848	0.17113	-2.74622	-2.98179	11.9706	0.319801	-0.358253	-0.627048	0.6604	0.23999	-0.797119	0.55205	-0.509712	-0.517769	-0.409083	9.64167	-0.356558	-0.538524	-0.0200906	-0.139568	-0.154047	-0.848389	0.498779	-0.0129395	0.760846	-0.164089	-0.43062	-0.456897	8.17844	1.06441	6.44652	0.249512	0.0363184	-0.00524242	-0.71167	0.184082	-0.761963	-0.0512787	-0.0582277	-0.992052	-0.0990624	-0.637167	1.32488	-9.06053	-0.0237186	-0.0539654	-0.208833	-0.301758	-0.171631	1.05078	0.505206	-0.519291	-0.551363	-0.413645	9.47752	-0.114555	-1.5265	0.0890202	0.0695134	0.0228132	-0.959717	0.501465	0.0947266	0.615017	-0.455792	-0.525002	-0.371994	9.70746	-1.19857	0.166238	0.23218	0.0771276	0.0374466	-0.946045	0.576172	-0.187256	
39	0.433403	-0.498957	-0.420507	-0.621593	9.44168	0.853142	1.717	-0.33702	-0.0847172	-0.215186	-0.891602	0.330078	-0.0788574	0.619013	-0.334683	-0.342165	-0.622683	8.6158	0.28072	5.4071	-0.191659	-0.170481	-0.544451	-0.673828	0.29126	-0.422607	0.682962	-0.0622797	-0.27692	-0.673052	5.72017	2.46351	8.98497	-0.100974	-0.334135	-0.645144	-0.528076	-0.0244141	-0.913086	0.116799	0.283788	-0.0993524	-0.946547	-4.56676	2.68924	7.4191	0.170773	0.411054	-0.273697	0.177734	-0.123779	-0.99292	0.496922	-0.194373	-0.0802766	-0.841928	4.11037	-0.568314	8.42521	0.56199	0.535877	-0.666637	-0.537598	0.402832	-0.734863	-0.98249	0.00930956	-0.0105382	0.185786	-2.78734	-2.64598	11.8355	0.449005	-0.465242	-0.618223	0.638916	0.237549	-0.814209	0.546886	-0.511615	-0.519084	-0.411968	9.78241	-0.916314	-0.553423	-0.207588	-0.0564863	-0.158362	-0.8479	0.492188	0	0.762446	-0.162698	-0.431267	-0.454108	8.74104	1.28141	6.53021	0.0550057	0.0382395	0.0677782	-0.70752	0.186279	-0.764404	-0.050797	-0.0559712	-0.992227	-0.0988559	-0.84638	1.58955	-8.84515	-0.0072874	0.0683149	-0.0633036	-0.306152	-0.176025	1.04419	0.505213	-0.52016	-0.5494	-0.415154	9.81142	-0.662655	-1.58712	-0.112821	0.0893198	0.0234749	-0.959961	0.505859	0.0900879	0.616389	-0.4562	-0.523184	-0.371786	9.89291	-2.00959	0.115838	0.048295	0.0805964	0.0549396	-0.9375	0.585205	-0.191895	
40	0.427951	-0.500277	-0.420572	-0.62426	9.53307	1.07135	1.61104	-0.348021	-0.14868	-0.323861	-0.897949	0.323242	-0.0766602	0.614109	-0.333377	-0.344699	-0.626827	8.87231	0.228913	5.26268	-0.0601171	-0.0707569	-0.570893	-0.677734	0.280273	-0.424561	0.678009	-0.0622707	-0.279439	-0.677008	5.67768	2.30709	8.72028	0.0215901	-0.220801	-0.497396	-0.534424	-0.032959	-0.912842	0.108997	0.291162	-0.10442	-0.944691	-3.67257	2.88353	8.18812	0.332734	0.241005	-0.239031	0.198486	-0.141357	-0.981689	0.486867	-0.181264	-0.0870265	-0.850018	3.94292	-0.515732	8.43895	0.343967	0.291277	-0.579993	-0.533936	0.365479	-0.753174	-0.979971	0.00412442	0.00417718	0.199054	-2.30944	-2.19219	12.0731	0.237692	-0.530258	-0.536139	0.608154	0.248291	-0.835938	0.539028	-0.516426	-0.518719	-0.416754	9.94019	-1.25643	-0.668001	-0.362733	-0.121472	-0.136351	-0.852295	0.492188	0.0148926	0.762804	-0.164636	-0.430104	-0.453912	8.43239	1.47218	6.71989	-0.0925615	0.00548335	0.0287024	-0.709717	0.186279	-0.761963	-0.0495248	-0.0564692	-0.992357	-0.0979113	-0.879303	1.3946	-9.10782	0.0830637	0.0982875	0.0257107	-0.299561	-0.169189	1.05078	0.505191	-0.521295	-0.547667	-0.416047	9.41076	-0.575159	-1.48571	-0.143068	0.0803831	0.0863292	-0.955322	0.501465	0.0925293	0.616382	-0.457264	-0.521854	-0.372358	9.62126	-1.01178	0.263363	-0.113826	0.0605523	0.0592923	-0.944092	0.582764	-0.187256	
41	0.414896	-0.502266	-0.423214	-0.629667	9.94633	1.64584	1.23802	-0.292078	-0.203309	-0.46034	-0.905762	0.305664	-0.0634766	0.606658	-0.328674	-0.350768	-0.633167	8.54199	0.4036	5.25077	0.108062	-0.0416786	-0.478376	-0.687744	0.256348	-0.421387	0.671527	-0.060212	-0.286399	-0.680736	6.1379	2.0698	8.59871	0.26997	-0.179676	-0.214426	-0.540527	-0.0480957	-0.900879	0.106537	0.293429	-0.106049	-0.944088	-4.11823	2.94722	7.82101	0.206512	0.158719	-0.159545	0.201172	-0.150146	-0.983643	0.478885	-0.170974	-0.0955621	-0.855748	3.41714	-0.498231	8.27416	0.449088	0.181781	-0.44433	-0.539307	0.336914	-0.769043	-0.977551	0.00559793	0.018402	0.209821	-2.07692	-2.10523	12.0239	0.0506034	-0.548866	-0.441173	0.577881	0.252686	-0.855225	0.532523	-0.52045	-0.515789	-0.423689	9.69578	-1.41095	-0.340285	-0.364339	0.0537809	-0.115666	-0.85376	0.479248	0.027832	0.761473	-0.169784	-0.427757	-0.45646	8.41008	1.02856	6.44664	-0.258271	0.0103426	-0.0396577	-0.712402	0.201416	-0.757568	-0.0477678	-0.0608699	-0.992477	-0.0948862	-1.08186	2.1052	-9.16381	0.0687675	0.0265276	0.202513	-0.304688	-0.157959	1.04834	0.502784	-0.525391	-0.543831	-0.418832	9.65278	-0.789146	-1.69441	-0.239023	0.0443291	0.0687986	-0.955566	0.508057	0.0991211	0.617246	-0.457771	-0.519378	-0.373764	9.47926	-1.14477	0.0351559	-0.0134803	0.0925979	0.0148215	-0.939941	0.587402	-0.191895	
42	0.405817	-0.501258	-0.427058	-0.633778	9.66496	2.50859	1.03509	-0.0927868	-0.0907988	-0.351021	-0.904785	0.281738	-0.0524902	0.603048	-0.324957	-0.353752	-0.636864	8.50077	0.485925	5.26979	0.0344414	0.0665923	-0.209141	-0.693848	0.249756	-0.42334	0.672721	-0.0574361	-0.294349	-0.676392	6.38032	3.6944	9.26148	0.27768	-0.126423	0.180243	-0.551025	-0.060791	-0.909668	0.104471	0.291798	-0.109798	-0.944396	-4.89323	2.89486	7.82571	0.161191	-0.177111	0.0184099	0.192383	-0.150146	-0.992432	0.475898	-0.163107	-0.105083	-0.857831	2.44328	-0.430305	8.18387	0.455361	0.0720589	-0.195223	-0.536133	0.312988	-0.780518	-0.975894	0.00835326	0.0322592	0.215686	-1.94415	-1.60445	11.9559	-0.0460185	-0.554913	-0.188558	0.547119	0.265625	-0.872803	0.526002	-0.524618	-0.512939	-0.430107	9.35301	-1.70972	-0.945923	-0.37583	-0.0735796	-0.116803	-0.855713	0.474854	0.0385742	0.758092	-0.175902	-0.42531	-0.462024	8.17052	0.825697	6.34449	-0.409694	-0.0505425	-0.147095	-0.714844	0.205811	-0.757568	-0.0475518	-0.0685522	-0.992204	-0.0925785	-0.802084	1.78849	-8.65095	0.115803	-0.0239416	0.300071	-0.302734	-0.144287	1.0481	0.499627	-0.531021	-0.53819	-0.422778	9.64168	-0.833337	-1.34235	-0.439541	0.0395724	0.110513	-0.951172	0.510254	0.108398	0.613139	-0.464552	-0.512636	-0.381387	9.7831	-2.0367	0.451329	-0.500451	0.122677	0.0125231	-0.935547	0.593994	-0.182861	
43	0.403178	-0.500275	-0.428897	-0.634997	9.70004	2.53392	1.14594	0.0151237	-0.0165462	-0.0808957	-0.904541	0.279541	-0.0546875	0.603695	-0.3262	-0.352872	-0.636103	8.45992	0.334307	5.29599	-0.0415465	-0.049645	0.122697	-0.685547	0.256348	-0.421387	0.677811	-0.0620458	-0.29354	-0.671236	6.09441	4.23792	9.14903	-0.217768	-0.0228459	0.347705	-0.544922	-0.0456543	-0.90332	0.10572	0.282916	-0.112378	-0.946654	-5.14931	3.15775	9.02974	-0.0367287	-0.376847	0.130932	0.177002	-0.156738	-0.98584	0.477821	-0.159471	-0.113449	-0.856379	2.43154	0.098565	7.83244	0.330762	-0.104992	0.0853105	-0.537598	0.29541	-0.782715	-0.975762	0.0145064	0.0398396	0.21469	-1.32993	-1.90651	12.7735	-0.209544	-0.23983	0.0877645	0.540283	0.27417	-0.877197	0.522999	-0.526634	-0.511428	-0.433094	9.78469	-1.86182	-0.483211	-0.124615	0.0548797	-0.0451736	-0.85376	0.477051	0.0385742	0.754284	-0.180712	-0.423696	-0.467847	8.25066	0.249914	6.3239	-0.301964	-0.0675909	-0.183175	-0.717285	0.214355	-0.750732	-0.0478192	-0.0775362	-0.991583	-0.0920031	-0.785829	1.17261	-8.94738	0.041146	-0.0462871	0.34663	-0.310059	-0.139648	1.0459	0.493003	-0.539635	-0.530657	-0.429121	9.69694	-0.782594	-1.37043	-0.665358	0.00665183	0.0710014	-0.94458	0.512451	0.121826	0.602477	-0.47681	-0.503611	-0.395031	10.3733	0.18586	-0.403484	-1.27108	0.0395299	-0.121793	-0.94458	0.593994	-0.15332	
44	0.403151	-0.500463	-0.429245	-0.63463	10.0303	2.41302	1.18508	0.00220854	-0.0290592	0.0235471	-0.911133	0.277344	-0.0546875	0.608103	-0.329201	-0.351574	-0.631057	8.91212	0.441001	5.74418	-0.00655848	-0.01364	0.308917	-0.692139	0.260742	-0.419189	0.685226	-0.069994	-0.284169	-0.666944	5.94528	3.10457	9.64938	-0.372339	0.187711	0.4734	-0.543213	-0.0197754	-0.90625	0.110215	0.270964	-0.108434	-0.950091	-5.23289	2.73339	8.94959	-0.302362	-0.485639	0.16705	0.154053	-0.141602	-0.988281	0.483029	-0.165032	-0.114436	-0.852263	3.61518	0.596904	8.36491	-0.168992	-0.231931	0.310309	-0.538086	0.303955	-0.773438	-0.976854	0.0175611	0.0378012	0.209806	-1.27641	-2.5627	13.203	-0.0812675	0.170948	0.213221	0.546631	0.27417	-0.873047	0.5216	-0.528583	-0.508118	-0.43629	10.1373	-1.53843	-0.370475	-0.205083	0.0975482	0.0228077	-0.855957	0.481201	0.0407715	0.749218	-0.185871	-0.423042	-0.474511	8.33308	0.341695	6.50272	-0.314465	-0.10578	-0.213759	-0.726318	0.220947	-0.743896	-0.0496833	-0.0871866	-0.991033	-0.0882214	-0.866712	1.14326	-9.24908	0.175903	-0.135607	0.354417	-0.301514	-0.119141	1.05225	0.482699	-0.548669	-0.523384	-0.438216	9.6482	-1.74124	-1.69394	-0.638752	-0.0674857	0.0213738	-0.952881	0.501465	0.140381	0.593241	-0.487324	-0.490737	-0.412017	8.96508	-5.26163	1.68185	-0.348994	0.327902	-0.124477	-0.94458	0.593994	-0.144287	
45	0.405743	-0.501046	-0.428459	-0.633047	9.9975	1.85388	1.32369	0.0631062	0.0275731	0.144644	-0.907227	0.286133	-0.0524902	0.613626	-0.332259	-0.346365	-0.626976	8.57973	0.543214	5.67971	-0.0973805	0.123752	0.329924	-0.684326	0.280273	-0.419922	0.695413	-0.0737838	-0.273919	-0.660246	5.68882	2.88686	9.55501	-0.239779	0.311964	0.546713	-0.526611	0.0102539	-0.914062	0.113286	0.256474	-0.105884	-0.954031	-4.86364	2.54638	8.80265	-0.200138	-0.586803	0.136667	0.11792	-0.130859	-1.00171	0.488458	-0.178119	-0.110261	-0.847068	4.22515	-0.131498	8.98415	-0.354058	-0.392726	0.366779	-0.550049	0.33252	-0.757568	-0.978558	0.0217317	0.028864	0.202776	-1.73321	-2.47526	13.1506	-0.266866	0.34856	0.300958	0.564209	0.267822	-0.85791	0.520616	-0.531179	-0.503011	-0.440213	10.1504	-0.788051	-1.18181	-0.147129	0.0569781	0.0614489	-0.85376	0.481201	0.0471191	0.743623	-0.192478	-0.423485	-0.480248	9.40218	0.583462	6.30095	-0.380576	-0.144105	-0.176797	-0.730713	0.227295	-0.72998	-0.0509667	-0.0960188	-0.990514	-0.0840521	-0.186999	1.47066	-9.26094	0.134799	-0.0748155	0.312023	-0.299561	-0.112305	1.05884	0.479841	-0.554038	-0.518147	-0.440816	9.72315	-1.73074	-0.753598	-0.318315	0.0966364	0.139126	-0.944336	0.506104	0.147217	0.588692	-0.489854	-0.486282	-0.420731	10.0935	-0.0799024	0.758805	-0.904804	0.126379	-0.0964381	-0.944336	0.587402	-0.132812	
46	0.411172	-0.503568	-0.424713	-0.63006	9.50063	0.980717	1.47181	0.00839345	0.0113144	0.345818	-0.903564	0.301514	-0.059082	0.617292	-0.33865	-0.340304	-0.623265	8.5072	0.265993	5.60585	-0.236249	-0.0432363	0.329796	-0.67627	0.300049	-0.415771	0.706065	-0.0780432	-0.261044	-0.653634	5.04071	3.88866	8.86653	-0.486624	0.334208	0.497831	-0.509766	0.0358887	-0.914795	0.116174	0.240411	-0.101402	-0.958344	-4.59732	2.35395	8.67971	-0.292448	-0.594298	0.0992849	0.0949707	-0.115723	-1.00635	0.491407	-0.185044	-0.108168	-0.844143	4.2925	-0.317666	9.09257	-0.345918	-0.395091	0.39082	-0.552734	0.343262	-0.739258	-0.979447	0.0233423	0.0235827	0.198955	-1.6608	-2.66009	13.4593	-0.199367	0.393255	0.304986	0.570557	0.27417	-0.855957	0.520616	-0.531179	-0.503011	-0.440213	10.1504	-0.788051	-1.18181	-0.147129	0.0569781	0.0614489	-0.85376	0.481201	0.0471191	0.73883	-0.199751	-0.421339	-0.48652	8.83669	-0.508318	6.50328	-0.339835	-0.069528	-0.167664	-0.737793	0.240234	-0.723145	-0.0511626	-0.10325	-0.989982	-0.0815967	0.0159259	1.82609	-9.36328	0.0747827	-0.0176843	0.232804	-0.297363	-0.110107	1.05664	0.476255	-0.556905	-0.51567	-0.443984	9.34088	-0.967999	-0.854112	-0.0611089	0.0140044	-0.0216472	-0.948486	0.503662	0.15625	0.5885	-0.488606	-0.485213	-0.423674	8.89379	-2.76401	0.925325	0.475146	0.0928896	-0.0634263	-0.948975	0.5896	-0.139648	
47	0.413581	-0.505162	-0.423287	-0.628164	9.34368	0.443626	1.39534	0.0390285	-0.0313573	0.294246	-0.903809	0.305664	-0.0527344	0.618958	-0.341476	-0.336991	-0.62187	8.40011	0.0911978	5.2158	-0.227613	0.0432983	0.30076	-0.674316	0.306641	-0.413818	0.709679	-0.0832091	-0.252173	-0.652565	4.74283	3.16551	8.4959	-0.711912	0.306011	0.409844	-0.501709	0.0576172	-0.913086	0.117269	0.233885	-0.0993868	-0.960036	-4.46416	2.36945	8.39049	-0.246385	-0.497279	0.0849232	0.0771484	-0.113525	-1.00635	0.498534	-0.195796	-0.105189	-0.837892	4.70952	0.20089	9.37613	-0.219323	-0.267348	0.413118	-0.555664	0.365234	-0.732422	-0.981049	0.0236556	0.0132418	0.191853	-1.57765	-2.81051	13.5777	-0.0434662	0.401586	0.274652	0.592285	0.267822	-0.844971	0.520282	-0.535331	-0.497202	-0.442174	9.28875	-1.77905	-0.148292	-0.213616	0.059112	0.096596	-0.854248	0.487793	0.046875	0.737409	-0.200854	-0.421214	-0.488328	9.06513	-0.547408	6.27839	-0.146156	-0.0368692	-0.14403	-0.741943	0.23584	-0.718262	-0.0511409	-0.105251	-0.989691	-0.0825778	0.411123	1.65344	-9.43445	-0.0715176	0.00269477	0.146605	-0.299805	-0.105469	1.05664	0.477188	-0.556441	-0.51618	-0.442971	10.0527	-1.65482	-0.938928	0.120636	0.00278888	0.0318202	-0.955322	0.505859	0.15625	0.589847	-0.486204	-0.487536	-0.421894	9.81142	-0.345075	0.720295	0.316495	-0.0381823	-0.0582412	-0.946533	0.583008	-0.144043	
48	0.416954	-0.507937	-0.422896	-0.623946	9.72593	0.464533	1.31678	0.0855708	-0.106386	0.190927	-0.901855	0.314453	-0.0507812	0.623161	-0.345345	-0.333776	-0.617252	8.54078	-0.289066	5.26789	0.138221	-0.0286315	0.137326	-0.66626	0.321777	-0.416748	0.717616	-0.0914986	-0.234662	-0.649299	4.64969	1.55989	8.02708	-0.143376	0.180423	0.235571	-0.48291	0.0917969	-0.914062	0.119802	0.222245	-0.0947152	-0.962956	-3.96152	2.00875	7.86601	-0.107626	-0.186047	0.059301	0.0566406	-0.100586	-1.00879	0.503856	-0.203242	-0.100943	-0.833446	4.68447	-0.250764	9.24604	-0.214809	-0.147597	0.293158	-0.556641	0.38501	-0.725586	-0.982403	0.0238102	0.00535449	0.185171	-1.78714	-2.54553	13.1391	-0.0788176	0.276949	0.242539	0.607666	0.261475	-0.829834	0.523301	-0.534701	-0.496286	-0.440399	9.80529	-1.31947	-0.917049	0.216134	0.10666	0.0640082	-0.850098	0.492188	0.0383301	0.738526	-0.199385	-0.419213	-0.488963	8.89447	0.000723921	6.03523	0.0700451	0.186598	0.0242692	-0.739746	0.23584	-0.725342	-0.0480676	-0.10549	-0.989723	-0.0837215	-0.52453	0.93142	-9.05707	0.0516881	0.144521	-0.0435003	-0.304688	-0.10083	1.0498	0.480068	-0.554878	-0.515699	-0.442379	9.42723	-0.798134	-1.48865	0.135189	0.0364162	-0.0206922	-0.94873	0.503662	0.149414	0.592432	-0.483779	-0.490392	-0.417729	9.53	-2.06993	0.325326	0.762579	-0.0801428	0.0271736	-0.947021	0.593994	-0.15332	
49	0.418575	-0.510438	-0.422821	-0.620863	10.1256	0.61024	1.19058	0.0177478	-0.0846616	0.112034	-0.897949	0.321045	-0.0441895	0.625089	-0.344079	-0.33373	-0.616034	8.52472	-0.275034	5.85394	0.139895	0.0953591	0.105498	-0.661865	0.321777	-0.414307	0.719897	-0.0896203	-0.234986	-0.646914	4.47154	1.75602	8.21094	0.184	0.111892	0.215751	-0.474365	0.0874023	-0.920654	0.120588	0.22096	-0.0943161	-0.963192	-4.08576	2.11699	8.03007	-0.0572373	-0.0851325	0.0629062	0.0563965	-0.0961914	-1.00879	0.507437	-0.207077	-0.098588	-0.830607	4.75771	-0.38758	9.25932	-0.0693389	-0.0586103	0.138707	-0.559082	0.393799	-0.71875	-0.983151	0.0239208	0.00186972	0.181213	-1.75995	-2.65647	13.0668	-0.0265027	0.13814	0.154511	0.610107	0.25708	-0.827637	0.526045	-0.533832	-0.494887	-0.439758	9.42728	-1.28655	-0.0803563	-0.00902786	0.0950736	0.0640225	-0.845703	0.48999	0.0361328	0.741387	-0.197233	-0.417506	-0.486964	8.75398	0.516403	5.80469	0.0896441	0.135844	0.0776975	-0.729004	0.236084	-0.732422	-0.0457945	-0.104815	-0.989923	-0.0834775	-0.777732	1.15145	-8.76543	0.0353282	0.189325	-0.0599138	-0.309082	-0.105469	1.0542	0.482924	-0.551937	-0.517847	-0.440437	10.0067	-0.919792	-1.40478	0.397725	0.0656173	-0.0385078	-0.946533	0.508057	0.140381	0.594067	-0.481817	-0.49326	-0.414284	10.1536	-0.135312	0.516763	0.389104	-0.133732	0.0247198	-0.950928	0.582764	-0.150879	
50	0.419363	-0.510844	-0.421947	-0.620591	10.1036	0.894382	1.24284	-0.00856787	0.0338682	0.0371668	-0.893555	0.323242	-0.048584	0.6282	-0.341465	-0.334214	-0.614059	8.38788	-0.302296	5.30235	0.143465	0.0768918	0.0613148	-0.661865	0.31958	-0.423584	0.722225	-0.083564	-0.240749	-0.642999	5.05424	2.50514	9.28887	0.358207	0.00201392	0.0754351	-0.480469	0.0744629	-0.922607	0.122588	0.22065	-0.0943043	-0.963012	-4.20148	2.09208	8.37479	-0.00625537	0.00803119	0.0853826	0.0563965	-0.0983887	-1.00659	0.508499	-0.206941	-0.0994858	-0.829884	4.55094	-0.238765	9.08585	0.0468679	0.0199466	0.0135819	-0.558838	0.389404	-0.71875	-0.983593	0.0237261	0.00212982	0.178823	-1.92507	-2.5152	13.0289	0.0276176	-0.0272321	0.0566145	0.616699	0.254883	-0.831787	0.528463	-0.53192	-0.497285	-0.436459	9.97215	-1.40078	-0.691227	0.31456	-0.0339658	-0.00710089	-0.8479	0.492188	0.0361328	0.744413	-0.196358	-0.415848	-0.484111	8.4669	0.612077	5.66403	0.015697	0.0840433	0.130903	-0.724609	0.236084	-0.737061	-0.0432415	-0.101278	-0.990297	-0.0847687	-1.50973	0.802372	-9.00269	-0.0218687	0.0867848	-0.173881	-0.315674	-0.114746	1.05225	0.485349	-0.550442	-0.519769	-0.437367	9.5239	-0.343236	-1.59594	0.0745067	0.00011621	0.00294529	-0.946777	0.510254	0.144775	0.593863	-0.483039	-0.494576	-0.411576	9.56389	-2.85445	0.169973	0.3244	-0.0959808	0.0436869	-0.939941	0.587402	-0.146484	
51	0.420896	-0.510664	-0.419931	-0.621068	9.81042	0.904506	1.30931	-0.0233181	0.0717575	0.0672231	-0.900391	0.32959	-0.048584	0.630714	-0.339333	-0.334894	-0.61229	8.23142	-0.125409	5.5102	0.11648	0.0248019	0.0485188	-0.657715	0.323975	-0.42627	0.723609	-0.0827465	-0.243626	-0.64046	4.97313	2.60468	9.74631	0.0191148	-0.057947	0.0833798	-0.478271	0.0700684	-0.931641	0.123529	0.219674	-0.0957604	-0.962971	-3.92288	2.15944	9.02342	0.035884	-0.0550319	0.0407725	0.0498047	-0.100586	-1.00439	0.508754	-0.205115	-0.0999522	-0.830124	4.21016	-0.617428	8.71748	0.0585572	0.0697076	-0.0344861	-0.552246	0.389648	-0.734863	-0.983902	0.0250035	0.00421783	0.176901	-2.03346	-2.26588	12.9275	-0.0628524	-0.0847071	0.0621505	0.610107	0.25708	-0.836182	0.530557	-0.529883	-0.498652	-0.434832	9.39001	-1.51224	-0.625463	0.0866842	-0.0052715	-0.0172504	-0.848145	0.494385	0.0275879	0.746315	-0.195385	-0.417034	-0.480543	8.3759	0.174756	6.0305	0.240388	-0.0245436	0.0837964	-0.724854	0.240234	-0.732422	-0.0439874	-0.0965668	-0.990775	-0.084286	-1.49691	1.15519	-8.83647	-0.0319426	-0.0392113	-0.224878	-0.313477	-0.112549	1.05444	0.48639	-0.548411	-0.52172	-0.436438	9.68096	-0.862613	-1.51894	0.159415	-0.0205489	-0.0255936	-0.953125	0.505859	0.137939	0.593885	-0.48288	-0.496574	-0.409319	9.94607	-1.24768	0.655505	-0.284186	-0.0511517	0.0297964	-0.942139	0.585205	-0.144043	
52	0.423175	-0.510324	-0.417779	-0.621251	9.82635	0.601318	1.39193	0.00261992	0.0912486	0.0834729	-0.891602	0.327637	-0.0507812	0.632265	-0.33867	-0.334712	-0.611156	8.3773	0.00455101	5.53186	0.000656558	0.0129145	0.0424535	-0.653564	0.330566	-0.431152	0.724392	-0.0853719	-0.23968	-0.64072	5.10369	2.19383	9.44974	-0.199308	0.0800303	0.0396252	-0.471924	0.076416	-0.925049	0.125133	0.216429	-0.0934888	-0.963722	-3.89242	2.12761	8.98784	-0.164389	-0.118769	0.0593093	0.0427246	-0.0917969	-1.01123	0.50962	-0.204354	-0.10083	-0.829675	4.40439	-0.645774	8.54443	0.036042	-0.0210534	0.0301739	-0.556885	0.393799	-0.728027	-0.984122	0.0237536	0.00523273	0.175821	-2.31893	-2.48664	12.8053	0.107408	0.00790613	0.0126275	0.614746	0.248291	-0.835938	0.531223	-0.529756	-0.499505	-0.433192	9.78857	-0.90827	-0.638851	0.134193	0.015327	0.00596564	-0.84375	0.496582	0.029541	0.747194	-0.192858	-0.421555	-0.476233	8.90464	1.13344	5.94029	0.218869	-0.0697178	0.0368114	-0.722412	0.231689	-0.737061	-0.0454809	-0.0919124	-0.991335	-0.0820941	-0.719166	1.53806	-8.88473	0.0818623	-0.030691	-0.197912	-0.313232	-0.116943	1.05225	0.486781	-0.547603	-0.522885	-0.435622	9.54843	-0.648295	-1.47713	0.00769658	0.0290268	-0.0325081	-0.94873	0.505859	0.140381	0.594891	-0.481706	-0.498737	-0.406602	9.98874	-1.45018	0.063073	0.274353	-0.049025	-0.00427831	-0.942383	0.593994	-0.148926	
53	0.425141	-0.509749	-0.416773	-0.621056	9.6271	0.615728	1.48291	0.032644	0.038098	0.0577543	-0.889404	0.329834	-0.0551758	0.633349	-0.338894	-0.33348	-0.610583	8.23542	-0.127481	5.38127	-0.031588	0.0592076	0.0382693	-0.651123	0.323975	-0.42627	0.725743	-0.0877776	-0.235232	-0.640514	5.04097	1.77392	8.99283	-0.155174	0.0878209	0.106469	-0.472168	0.0895996	-0.923096	0.126434	0.213168	-0.0926071	-0.964364	-3.65494	2.05136	8.70987	-0.0104969	-0.109603	0.048028	0.0427246	-0.092041	-1.00684	0.511083	-0.205976	-0.100936	-0.82836	4.42863	-0.388566	8.66637	-0.022194	-0.0510365	0.0712413	-0.559082	0.395996	-0.721191	-0.98433	0.0239954	0.00392411	0.174651	-2.147	-2.27461	12.9635	-0.0823367	0.0696669	0.0323475	0.610352	0.248291	-0.83374	0.531232	-0.529436	-0.500626	-0.432278	9.45333	-1.19532	-0.851929	0.0337786	-0.0689684	-0.0208663	-0.8479	0.48999	0.0297852	0.747475	-0.19326	-0.4225	-0.474789	8.52272	0.908636	6.46643	-0.0295033	-0.0382284	0.0161653	-0.733398	0.236084	-0.734619	-0.0458921	-0.0904663	-0.99148	-0.0817095	-0.703971	1.61315	-9.04759	0.0223339	-0.0190278	-0.139097	-0.308594	-0.119141	1.04785	0.486672	-0.547036	-0.523915	-0.435218	9.4568	-0.793124	-1.61911	0.0711856	-0.0237083	-0.0102172	-0.951172	0.510254	0.135742	0.596632	-0.480547	-0.49992	-0.403962	9.61332	-2.57586	0.428913	0.22166	-0.00306698	0.0553723	-0.946533	0.585205	-0.15332	
54	0.425465	-0.509532	-0.416623	-0.621114	9.55261	0.460507	1.41568	0.0131293	-0.00339673	-0.0190934	-0.893799	0.332031	-0.0615234	0.63345	-0.339528	-0.333123	-0.610321	8.30507	-0.282625	5.35529	0.00509086	-0.0175249	-0.00251977	-0.651367	0.326172	-0.430908	0.727571	-0.0861863	-0.23357	-0.639263	4.97742	2.15498	8.63426	0.0669304	0.0908585	0.0314889	-0.46582	0.09375	-0.918701	0.128061	0.211944	-0.0926956	-0.964411	-3.73845	2.35919	8.50123	-0.03062	-0.00587859	0.0781831	0.0336914	-0.0876465	-1.00903	0.511547	-0.207327	-0.100214	-0.827824	4.45294	-0.430549	8.77246	-0.0908529	-0.0554873	0.0612177	-0.557129	0.398193	-0.725586	-0.984381	0.0252633	0.00282453	0.174205	-2.20564	-2.5586	12.8852	-0.111564	0.0814516	0.0191394	0.618896	0.250488	-0.82959	0.531046	-0.52976	-0.500721	-0.431999	9.61443	-1.26698	-0.558606	0.00777398	-0.0232491	-0.00114167	-0.843506	0.492188	0.0297852	0.74721	-0.194112	-0.421452	-0.47579	8.9417	0.487828	6.17422	-0.0337428	0.0825511	-0.0412898	-0.724609	0.233643	-0.725342	-0.0456501	-0.0892739	-0.991495	-0.0829668	-0.459444	1.68952	-9.25246	-0.0924387	0.0406575	-0.0164591	-0.310791	-0.119141	1.05225	0.489205	-0.544937	-0.52513	-0.433544	9.4947	-0.783956	-1.25142	0.177244	0.0579834	0.0154274	-0.946777	0.512451	0.124268	0.60072	-0.476604	-0.502608	-0.39921	9.59348	-1.50244	0.613613	0.16602	0.0149777	0.0712292	-0.9375	0.587402	-0.162354	
55	0.425003	-0.508942	-0.417857	-0.621085	9.80306	0.820174	1.47375	0.0244054	-0.0146305	-0.0578642	-0.898193	0.32959	-0.048584	0.634139	-0.33862	-0.334772	-0.609206	8.52791	-0.276448	5.45802	0.0872954	-0.00823526	-0.0142074	-0.657715	0.323975	-0.428467	0.728368	-0.0841247	-0.234862	-0.638156	5.00185	2.22668	8.55492	0.128563	-0.00676322	0.0295299	-0.469971	0.0874023	-0.932129	0.12888	0.212377	-0.0929029	-0.964186	-3.90594	2.33028	8.37423	0.0108701	0.0498296	0.0680929	0.0424805	-0.0852051	-1.01123	0.512964	-0.210039	-0.0991899	-0.826386	4.52396	-0.533495	8.90841	-0.0365198	-0.0551819	0.074888	-0.557129	0.400391	-0.71875	-0.984506	0.0263944	0.00117604	0.17335	-1.88924	-2.58223	12.9799	-0.0496339	0.0555581	0.0197809	0.612305	0.254883	-0.82959	0.531188	-0.528934	-0.502669	-0.430571	9.72307	-1.30179	-0.802048	0.125548	-0.0709782	-0.0539261	-0.852051	0.48999	0.0256348	0.748218	-0.192744	-0.419834	-0.476193	8.82028	0.179648	6.01804	0.0644084	0.1334	-0.0259218	-0.726807	0.233887	-0.741699	-0.0440464	-0.0892632	-0.991442	-0.0844678	-0.740192	1.27318	-9.105	-0.0605966	0.0906509	-0.0213545	-0.313232	-0.114746	1.05225	0.491396	-0.542327	-0.526532	-0.432638	9.96098	-0.492115	-1.33614	0.144391	0.0741957	-0.0410015	-0.955566	0.508057	0.128906	0.606073	-0.470673	-0.506051	-0.393769	10.1822	-0.397566	0.299035	0.332857	0.0385745	0.0137797	-0.939697	0.585205	-0.166992	
56	0.424495	-0.508796	-0.418869	-0.62087	9.65601	0.886262	1.4064	0.0441879	-0.0560007	-0.0652942	-0.891602	0.327637	-0.0507812	0.63519	-0.337086	-0.337371	-0.607526	8.64426	-0.158131	5.51181	0.143597	-0.00311784	0.00452703	-0.651123	0.321777	-0.428467	0.728297	-0.0812953	-0.240049	-0.636672	5.28887	2.1724	9.17759	0.243615	-0.084329	0.00221708	-0.469727	0.076416	-0.92041	0.131998	0.217244	-0.0946146	-0.962512	-3.92359	2.49502	8.55232	0.105795	0.14839	0.0888785	0.0449219	-0.0917969	-1.01123	0.514117	-0.210624	-0.100825	-0.825322	4.68793	-0.248227	8.93248	0.0731031	-0.0518788	0.0307504	-0.555176	0.404785	-0.716553	-0.984654	0.0276841	0.000361026	0.172309	-1.9226	-2.6689	12.9552	-0.0598408	0.0201702	0.0256882	0.621094	0.250488	-0.827393	0.531225	-0.528107	-0.504205	-0.429744	9.89537	-1.49349	-0.607419	0.119584	-0.011793	-0.0536667	-0.8479	0.48999	0.0319824	0.749227	-0.19046	-0.419789	-0.475564	8.65766	0.449422	6.20759	0.178475	0.131149	-0.0208949	-0.717773	0.225342	-0.743896	-0.0433727	-0.0881747	-0.991462	-0.0857158	-1.06822	1.20925	-8.93438	-0.0459424	0.0225537	-0.0621021	-0.315186	-0.123779	1.04785	0.49278	-0.541181	-0.52725	-0.431622	9.69002	-0.922022	-1.27146	0.0795959	0.0240726	0.00246829	-0.953369	0.508057	0.12207	0.607247	-0.470226	-0.506391	-0.392055	9.92184	-1.60415	0.125841	0.16067	-0.0271964	0.0167523	-0.9375	0.587402	-0.173828	
57	0.423454	-0.508891	-0.421048	-0.620029	9.8037	1.15052	1.25637	0.0428535	-0.076371	-0.0611158	-0.897949	0.325439	-0.048584	0.636291	-0.335666	-0.338313	-0.606635	8.58716	-0.0578049	5.52798	0.165689	0.0401269	0.017339	-0.650879	0.317383	-0.430664	0.728477	-0.0805012	-0.242787	-0.635528	5.38707	2.21274	9.29768	0.207026	-0.115327	0.0404597	-0.469727	0.0700684	-0.931641	0.132919	0.218533	-0.0958067	-0.961976	-3.77393	2.55963	8.6967	0.095997	0.111319	0.0898511	0.0517578	-0.0939941	-1.00903	0.514813	-0.209659	-0.10256	-0.824919	4.3105	-0.300839	8.85285	0.089022	0.00471834	-0.0198472	-0.552979	0.402588	-0.721191	-0.984876	0.0303183	0.00133132	0.170584	-1.94479	-2.6873	12.8118	-0.0800074	-0.065186	0.0571711	0.618896	0.252686	-0.82959	0.532179	-0.526248	-0.505576	-0.429233	9.81556	-1.3232	-0.623785	0.0908896	0.0528458	-0.0505042	-0.849854	0.487793	0.027832	0.74998	-0.18882	-0.420214	-0.474655	8.59544	0.642207	5.96524	0.0678566	0.044404	-0.000587005	-0.722168	0.225098	-0.739258	-0.0436934	-0.0873247	-0.991468	-0.0863476	-0.94232	0.973069	-8.95131	-0.0559855	-0.00866717	-0.0860262	-0.31543	-0.121582	1.05005	0.492807	-0.541249	-0.527052	-0.431749	9.74997	-0.980791	-1.29233	-0.0121925	0.0243986	0.00963389	-0.951172	0.512451	0.121826	0.606545	-0.471603	-0.505318	-0.392871	9.92579	-0.85963	0.0648294	-0.157875	0.0174948	0.030503	-0.940186	0.593994	-0.164795	
58	0.423161	-0.508153	-0.423951	-0.618855	9.901	1.47661	1.14097	0.115204	-0.0516599	-0.0541581	-0.88916	0.325439	-0.0507812	0.638676	-0.33376	-0.339748	-0.604375	8.43987	0.0764024	5.58485	0.110095	0.0296598	0.065609	-0.651123	0.31958	-0.437744	0.730382	-0.0803478	-0.244562	-0.632674	5.3119	2.39774	9.73738	0.0229041	-0.00733436	0.152492	-0.476074	0.0700684	-0.927002	0.135322	0.217394	-0.096401	-0.961839	-3.88794	2.39115	8.86509	-0.0377716	-0.0775523	0.112071	0.0429688	-0.0942383	-1.00903	0.516154	-0.207633	-0.10418	-0.824391	4.36813	-0.534093	8.66019	0.119043	0.0792516	0.0370361	-0.54834	0.398193	-0.721191	-0.985242	0.0313572	0.00483549	0.1682	-2.09183	-2.495	12.7426	0.0022483	-0.152966	0.0802764	0.614746	0.246338	-0.835693	0.533451	-0.524347	-0.505562	-0.429997	9.85642	-1.42377	-0.402441	0.0261311	0.101724	-0.0460462	-0.852051	0.487793	0.0212402	0.750447	-0.188715	-0.421386	-0.472917	8.19977	0.473247	6.19231	0.0491008	-0.0402115	0.0325423	-0.721924	0.2229	-0.739258	-0.0445376	-0.0852461	-0.991649	-0.0859153	-0.723017	0.958493	-8.84752	-0.00093775	-0.0283148	-0.10081	-0.312744	-0.128418	1.05005	0.492299	-0.541493	-0.52667	-0.432488	9.77309	-0.402313	-1.65608	-0.0745837	0.0295416	-0.0183406	-0.950928	0.503662	0.124512	0.595045	-0.484795	-0.496073	-0.405964	10.3345	-1.55039	-0.0314944	-1.28881	0.0884906	-0.0662073	-0.947021	0.593994	-0.146484	
59	0.424159	-0.508016	-0.425458	-0.617248	10.1049	1.56413	1.12767	0.0728807	-0.0345753	0.049123	-0.891357	0.323242	-0.0507812	0.640243	-0.33487	-0.33792	-0.603126	8.55555	-0.00599132	5.78971	-0.0679107	0.0676814	0.0947831	-0.64917	0.328369	-0.43335	0.733281	-0.0839172	-0.242034	-0.629822	5.12348	2.41748	9.83197	-0.17899	0.0198576	0.207296	-0.467773	0.0852051	-0.925293	0.137694	0.212496	-0.0958478	-0.962652	-4.10907	2.161	9.06793	-0.0667863	-0.204469	0.0921158	0.0336914	-0.0876465	-1.00684	0.51915	-0.205684	-0.10579	-0.822792	4.48582	-0.313731	8.48457	0.0985169	0.00443235	0.11438	-0.543945	0.395996	-0.723389	-0.985664	0.0319944	0.00737749	0.165494	-2.02859	-2.58684	12.8871	-0.0154851	-0.0699436	0.0863893	0.608154	0.252686	-0.83374	0.534855	-0.523038	-0.504726	-0.430828	9.83406	-1.02705	-0.304737	0.00320183	0.0938457	-0.00135958	-0.856689	0.492188	0.0148926	0.749915	-0.190231	-0.424176	-0.470653	8.58477	0.895885	6.42549	0.0131545	-0.154345	0.0473294	-0.72876	0.227295	-0.734619	-0.0460102	-0.0846729	-0.992033	-0.0811453	-0.949795	1.17993	-9.14348	0.249649	-0.0717959	-0.0407608	-0.308594	-0.116943	1.05444	0.483562	-0.549289	-0.521506	-0.438725	9.77223	-1.59181	-1.61873	-0.394352	-0.0905548	0.0104639	-0.946777	0.510254	0.142578	0.588888	-0.488887	-0.491391	-0.415615	9.69282	-2.07798	0.547298	-0.221248	0.104177	-0.192371	-0.94458	0.5896	-0.139648	
60	0.426562	-0.5083	-0.423848	-0.616465	9.94932	1.04147	1.27574	0.00498135	0.0631218	0.122829	-0.891602	0.329834	-0.0551758	0.641206	-0.336912	-0.333717	-0.603306	8.25402	-0.165451	5.71716	-0.160535	0.0797493	0.0823727	-0.642822	0.33252	-0.440674	0.734787	-0.0860501	-0.239558	-0.628725	4.90718	2.40745	9.74937	-0.219338	0.0653474	0.194925	-0.469971	0.0893555	-0.925293	0.138445	0.206451	-0.0953673	-0.963907	-4.16819	2.16555	9.2514	-0.0611057	-0.223572	0.0254533	0.0202637	-0.0856934	-1.00244	0.521077	-0.208954	-0.104326	-0.820935	4.39164	-0.332576	8.49377	-0.15676	-0.106285	0.112006	-0.554932	0.400391	-0.721191	-0.986083	0.0325831	0.00537474	0.16294	-1.90999	-2.44803	13.1941	-0.03697	0.139366	0.0873442	0.614746	0.248291	-0.827393	0.534409	-0.524474	-0.501712	-0.433151	9.78909	-1.37595	-0.609419	-0.130747	0.0672859	0.0205475	-0.850098	0.494385	0.0148926	0.747826	-0.194593	-0.426351	-0.470228	8.81137	0.640466	6.36481	-0.1297	-0.160199	-0.0126146	-0.730957	0.231689	-0.727539	-0.0480496	-0.0857753	-0.992259	-0.0758685	-0.51469	1.81802	-9.24109	0.197147	-0.0950111	0.0250064	-0.302246	-0.103271	1.0498	0.479114	-0.554475	-0.517794	-0.44147	9.46996	-1.52313	-1.25118	-0.25115	-0.0260614	0.0589935	-0.94873	0.505859	0.149414	0.580252	-0.496803	-0.485256	-0.425466	9.76962	-2.6793	0.706319	-0.660149	0.0446428	-0.0816596	-0.944336	0.585205	-0.116699	
61	0.429129	-0.508433	-0.421342	-0.616291	9.45884	0.551866	1.37878	-0.00564033	0.071979	0.103963	-0.889648	0.336426	-0.0551758	0.641329	-0.33982	-0.32981	-0.603692	8.12274	-0.235709	5.47458	-0.196624	0.0548377	0.0600252	-0.643066	0.337158	-0.433594	0.737312	-0.0912593	-0.229969	-0.628615	4.77012	2.0543	9.1673	-0.26202	0.14923	0.0588076	-0.46167	0.108887	-0.925781	0.137365	0.201853	-0.0940054	-0.965168	-3.86396	2.10593	8.95082	-0.0788738	-0.15786	-0.0563681	0.0136719	-0.0878906	-1.00903	0.522215	-0.214487	-0.10037	-0.819276	4.69448	-0.427414	8.77153	-0.249825	-0.0793841	0.105053	-0.55542	0.413574	-0.711914	-0.986366	0.0328579	-0.000357089	0.161254	-1.90663	-2.69236	13.1991	-0.015916	0.256806	0.0437825	0.618896	0.252686	-0.825195	0.53445	-0.52527	-0.500418	-0.433631	9.79126	-1.36126	-0.769394	-0.082524	0.0604239	0.05074	-0.852539	0.496582	0.0212402	0.745168	-0.198851	-0.426622	-0.472415	8.88246	0.351205	6.39149	-0.1963	-0.080667	-0.0832752	-0.739746	0.23584	-0.720703	-0.0491266	-0.0885083	-0.992119	-0.0738457	0.0770591	2.01457	-9.04656	0.0429043	-0.0234008	0.0955663	-0.297607	-0.10083	1.0564	0.478558	-0.555726	-0.517278	-0.441106	9.47507	-1.16596	-1.15279	0.021989	-0.0149362	0.0266469	-0.946289	0.503662	0.151855	0.581864	-0.494408	-0.486452	-0.424688	9.21807	-1.63117	0.573678	0.288113	0.0121615	-0.0106325	-0.953369	0.587158	-0.125977	
62	0.429951	-0.508288	-0.420424	-0.616465	9.64119	0.469088	1.46835	-0.010962	0.0699146	0.0656721	-0.896484	0.338379	-0.0595703	0.641142	-0.341454	-0.328207	-0.603843	7.99683	-0.478075	5.32342	-0.176412	0.0159512	0.0527612	-0.643066	0.339355	-0.431396	0.737788	-0.0921638	-0.223926	-0.630104	5.05281	1.67299	8.84605	-0.169591	0.166814	-0.0201351	-0.446777	0.11499	-0.923828	0.13629	0.198865	-0.0913759	-0.966193	-3.34369	2.30944	8.53808	-0.119141	-0.0925804	-0.0478713	0.00878906	-0.0769043	-1.00928	0.522368	-0.216525	-0.0985242	-0.818866	4.52747	-0.686637	8.85636	-0.200463	-0.0532358	0.0608959	-0.55127	0.415771	-0.711914	-0.986479	0.0321025	-0.00323114	0.160682	-2.1036	-2.50356	13.0362	0.0283922	0.248426	0.0364952	0.63208	0.246338	-0.825195	0.534048	-0.528007	-0.495995	-0.435879	9.26309	-1.59749	-0.207095	-0.185693	0.0759208	0.0800986	-0.841553	0.494385	0.019043	0.74444	-0.199958	-0.425728	-0.4739	8.85764	0.204247	6.18938	-0.155522	0.0281518	-0.0848109	-0.737549	0.233643	-0.725342	-0.0486198	-0.0897926	-0.991958	-0.0747801	0.31295	1.71789	-9.08927	-0.0672267	0.0455607	0.0916218	-0.299805	-0.103027	1.052	0.479756	-0.554977	-0.517281	-0.440743	9.86105	-1.02432	-1.11051	0.0984314	0.0719499	0.0272992	-0.944336	0.505859	0.144775	0.579595	-0.496773	-0.484314	-0.427465	10.1961	-1.40391	-0.229895	-0.294901	0.0747666	-0.0325802	-0.94873	0.585205	-0.121338	
63	0.431063	-0.507345	-0.420193	-0.616623	9.71155	0.649506	1.48771	0.0454559	0.0247776	0.00333566	-0.889893	0.338623	-0.0615234	0.640946	-0.344238	-0.328106	-0.602523	8.49802	-0.737097	5.59411	-0.0248802	-0.0911935	0.0498117	-0.643311	0.345703	-0.427002	0.73801	-0.0924606	-0.221693	-0.630591	5.09041	1.45889	8.9076	-0.14022	0.130012	0.00144805	-0.446777	0.117188	-0.926025	0.136154	0.197701	-0.0900436	-0.966576	-3.16117	2.27503	8.49147	-0.113661	-0.0748987	-0.0248285	0.00634766	-0.0769043	-1.00488	0.522986	-0.218159	-0.0946127	-0.818499	4.60248	-0.760916	8.91664	-0.156053	0.031364	0.0608907	-0.553711	0.424561	-0.709717	-0.986673	0.0299579	-0.006752	0.159793	-2.37205	-2.57814	12.6815	0.0780535	0.131248	0.0156943	0.632568	0.237549	-0.816162	0.534788	-0.528699	-0.493943	-0.436463	10.1105	-1.49746	-0.395464	0.0155674	0.0709422	0.0257996	-0.841797	0.500977	0.0124512	0.745043	-0.200156	-0.422795	-0.475492	8.6806	0.30363	6.25335	-0.0623737	0.13831	-0.0149574	-0.737793	0.240234	-0.723145	-0.0461018	-0.0922743	-0.991737	-0.0762753	-0.54476	0.572941	-9.09938	-9.02329e-05	0.106157	0.110924	-0.306885	-0.10083	1.04761	0.479205	-0.556074	-0.515197	-0.442398	9.77188	-0.139158	-1.61781	-0.183016	0.0348498	0.0309743	-0.944336	0.510254	0.151611	0.579108	-0.4967	-0.483867	-0.428713	9.71786	-1.52329	0.553302	-0.078135	0.0600613	-0.0627132	-0.94873	0.583008	-0.119141	
64	0.431992	-0.507613	-0.420741	-0.615376	9.91712	0.778224	1.48364	0.050283	-0.0305861	0.0476437	-0.89209	0.338379	-0.0551758	0.642307	-0.344219	-0.327191	-0.601583	8.55921	-0.583976	5.94166	0.00526121	0.08262	0.0502016	-0.641357	0.350098	-0.427002	0.739293	-0.0924942	-0.220862	-0.629373	5.09576	1.35382	9.38367	0.0326384	0.0165693	0.0818529	-0.447021	0.121582	-0.92627	0.136056	0.195421	-0.0893518	-0.967117	-3.2155	2.19836	8.75097	-0.00910435	-0.0920804	0.00347531	-0.000488281	-0.0703125	-1.00928	0.523501	-0.218766	-0.0929926	-0.818194	4.5487	-0.852805	8.72802	-0.0361327	-0.00392059	0.0209866	-0.545166	0.426758	-0.70752	-0.986862	0.0288879	-0.00797132	0.15876	-2.46875	-2.48607	12.5081	0.0118603	0.0468245	0.0297902	0.638916	0.235352	-0.818359	0.535423	-0.52912	-0.492101	-0.437255	9.78986	-1.21782	-0.279692	-0.0371319	0.0680345	0.0369016	-0.843994	0.498779	0.0124512	0.745361	-0.20106	-0.421554	-0.475714	8.61866	0.753529	5.90551	-0.0642092	0.00506818	0.00737654	-0.733398	0.238037	-0.723145	-0.0432757	-0.0956397	-0.991809	-0.0727704	-1.26659	0.922291	-9.02454	0.155731	0.0920587	0.126238	-0.314209	-0.092041	1.05859	0.478238	-0.557909	-0.513946	-0.442589	9.87093	-1.45872	-1.34807	-0.0129063	0.0194492	0.041317	-0.944336	0.510254	0.15625	0.577956	-0.496856	-0.483778	-0.430186	10.1445	-1.52398	0.23033	-0.0551446	0.0114172	-0.0662707	-0.950684	0.578369	-0.109863	
65	0.433278	-0.507972	-0.419973	-0.614701	10.0523	0.790823	1.49536	0.00206068	0.0211999	0.0704255	-0.885742	0.345215	-0.065918	0.642936	-0.344019	-0.326841	-0.601215	8.38935	-0.432182	5.74716	0.0146168	0.0474738	0.0363258	-0.636963	0.352295	-0.429443	0.741147	-0.0936377	-0.220037	-0.627309	4.86873	1.85172	9.59215	-0.0853372	0.00331406	0.130206	-0.444824	0.125732	-0.921875	0.13605	0.191843	-0.0898927	-0.967784	-3.41708	2.12105	8.93115	-0.000932911	-0.149844	0.0160926	-0.00463867	-0.074707	-1.00708	0.52411	-0.220434	-0.0923216	-0.817431	4.51155	-0.995139	8.58803	-0.0354186	-0.0540722	0.0342092	-0.547607	0.431152	-0.70752	-0.986983	0.0295395	-0.00830024	0.157871	-2.32173	-2.46444	12.7904	-0.0262171	0.0209636	0.013075	0.636719	0.241943	-0.814209	0.535986	-0.530216	-0.490671	-0.436843	9.9528	-1.58988	-0.393573	0.0122664	0.0284263	0.062401	-0.842041	0.50293	0.0146484	0.743996	-0.204716	-0.421126	-0.47667	8.98008	0.315779	5.90378	-0.155473	-0.0595069	-0.0329348	-0.733643	0.242432	-0.716064	-0.043447	-0.0969531	-0.991832	-0.0705779	-1.32416	1.53363	-9.10039	0.0783431	-0.0407878	0.0271119	-0.312012	-0.0874023	1.05396	0.476554	-0.560197	-0.512312	-0.443411	9.6457	-0.711374	-1.66134	-0.138095	-0.0220494	0.032315	-0.937744	0.508301	0.154053	0.573606	-0.500911	-0.481007	-0.434391	9.56766	-2.35715	0.632132	-0.244624	-0.025155	-0.0286912	-0.953369	0.584961	-0.107666	
66	0.434724	-0.508213	-0.418057	-0.614787	9.71149	0.508347	1.55614	-0.0226677	0.0425749	0.0715909	-0.888184	0.347168	-0.0551758	0.643523	-0.345996	-0.324064	-0.600955	8.14935	-0.731805	5.5372	-0.100507	-0.0319672	0.0479744	-0.637207	0.356689	-0.425049	0.742189	-0.0979027	-0.216715	-0.626582	4.85253	1.72036	9.41441	-0.235008	0.0109714	0.0795385	-0.449463	0.141113	-0.922119	0.135747	0.187655	-0.090093	-0.968629	-3.41876	1.99439	9.06362	-0.0169947	-0.160943	0.000340674	-0.0158691	-0.0771484	-1.01147	0.524568	-0.222422	-0.0939508	-0.816413	4.4651	-0.843434	8.66277	0.0114308	-0.0925485	0.0146078	-0.553955	0.431152	-0.705078	-0.987111	0.0303872	-0.0095972	0.156829	-2.338	-2.50908	12.869	-0.0274789	0.0688772	0.0257514	0.63916	0.233398	-0.811768	0.535847	-0.532409	-0.489795	-0.435326	9.42086	-1.84037	-0.676054	-0.0216617	-0.0558551	0.0746011	-0.842529	0.513916	0.020752	0.741668	-0.205964	-0.42205	-0.478937	8.83105	0.181282	6.07655	-0.0263964	-0.0514257	-0.137233	-0.744385	0.244385	-0.713867	-0.0452627	-0.0985364	-0.991489	-0.0720473	-0.566981	1.26996	-9.05902	-0.113761	-0.0645387	0.0455018	-0.309814	-0.0895996	1.05859	0.475578	-0.560821	-0.511258	-0.444883	9.36395	-0.842455	-1.4714	-0.112452	0.0226044	-0.00916851	-0.946777	0.512451	0.163086	0.571907	-0.501391	-0.481433	-0.435605	9.91101	-0.843594	0.382154	-0.207302	0.0083219	-0.049532	-0.955078	0.576172	-0.100586	
67	0.436125	-0.50882	-0.416726	-0.614196	9.46064	0.562614	1.38376	-0.00587264	0.00479631	0.0903301	-0.883545	0.347412	-0.0617676	0.643232	-0.348507	-0.323806	-0.599954	8.21943	-0.800572	5.27008	-0.060275	-0.0294369	0.036789	-0.628662	0.363281	-0.425293	0.742826	-0.100974	-0.214331	-0.62616	4.85129	1.45089	9.26833	-0.108996	0.00720308	0.0566063	-0.440918	0.151855	-0.915771	0.135255	0.184123	-0.0902561	-0.96936	-3.30233	1.9566	8.97373	-0.00525651	-0.128891	-0.010263	-0.0224609	-0.0749512	-1.00928	0.524852	-0.224608	-0.0940033	-0.815625	4.78816	-0.899724	8.52469	-0.0494812	-0.0626384	0.00836019	-0.554199	0.437744	-0.700684	-0.987131	0.0313283	-0.0117398	0.156377	-2.41535	-2.44942	12.8897	-0.0688244	0.0943775	-0.00613392	0.642822	0.246338	-0.814453	0.536476	-0.53351	-0.49026	-0.432672	9.38302	-1.20266	-0.610298	0.0574322	-0.0599819	0.062769	-0.831787	0.518311	0.0205078	0.739948	-0.205584	-0.422654	-0.481224	8.62191	0.636344	6.10833	-0.04415	0.0314422	-0.12975	-0.73999	0.240234	-0.720703	-0.045493	-0.101543	-0.991131	-0.0726599	-0.00234722	1.18306	-9.04266	0.0106225	0.0125351	0.123463	-0.309814	-0.0874023	1.05176	0.474763	-0.561226	-0.510623	-0.445971	9.49394	-1.2895	-1.43766	0.0497995	0.0682372	-0.00881016	-0.942139	0.508301	0.160889	0.570931	-0.502825	-0.480522	-0.436237	9.0445	-2.67628	0.674308	-0.157849	-0.0132919	0.0265135	-0.953125	0.582764	-0.105469	
68	0.436508	-0.510132	-0.415214	-0.613859	9.50707	0.38412	1.31912	-0.0476812	-0.0222694	0.0431771	-0.883789	0.351807	-0.0639648	0.643196	-0.349077	-0.323657	-0.599742	8.10366	-0.461532	5.07589	-0.00304166	-0.0272159	-0.0180381	-0.639648	0.363281	-0.422852	0.74306	-0.102325	-0.211783	-0.626529	4.92227	1.39461	8.90078	-0.109951	0.0792875	-0.000701293	-0.445312	0.154053	-0.922607	0.134616	0.182096	-0.0905951	-0.9698	-3.01415	2.29972	8.82818	-0.0124914	-0.0588671	-0.00960415	-0.0268555	-0.0771484	-1.00488	0.524467	-0.226525	-0.09315	-0.815441	4.83423	-0.781396	8.46299	-0.0765922	-0.029642	-0.00193153	-0.556396	0.437744	-0.698242	-0.986976	0.032034	-0.0141302	0.157014	-2.47833	-2.68936	12.6781	-0.00587846	0.102762	-0.057892	0.647217	0.244141	-0.810059	0.535416	-0.535641	-0.489338	-0.432396	9.37241	-1.64493	-0.30734	-0.0925304	-0.0108211	0.0267921	-0.838135	0.511719	0.0251465	0.738982	-0.206874	-0.419775	-0.484662	8.43075	0.203501	5.91334	-0.171739	0.109245	-0.077961	-0.740234	0.248779	-0.713867	-0.0443614	-0.104774	-0.990677	-0.0749181	-0.248213	0.976398	-8.73281	-0.118189	0.0526236	0.111117	-0.314209	-0.0942383	1.05176	0.475648	-0.560581	-0.510621	-0.44584	9.56612	-0.414256	-1.53201	-0.0778359	-0.00395275	-0.0128912	-0.941895	0.506104	0.163086	0.570839	-0.503885	-0.48196	-0.43354	9.93681	-1.97248	0.162896	-0.207133	0.00132687	0.046233	-0.950928	0.580566	-0.0983887	
69	0.435876	-0.511466	-0.414731	-0.613525	9.87442	0.464936	1.23682	-0.0434735	-0.0557001	0.0240481	-0.881836	0.355957	-0.057373	0.641752	-0.351135	-0.325347	-0.599173	8.64481	-0.643305	5.65135	-0.0474963	-0.101167	-0.038013	-0.637451	0.361084	-0.41333	0.742885	-0.102233	-0.209792	-0.627422	5.054	1.1285	8.99998	-0.0312054	0.0445444	-0.0241159	-0.438965	0.1604	-0.92041	0.134722	0.181339	-0.0898079	-0.97	-3.08839	2.28147	8.64062	-0.00288571	-0.00797312	-0.000896311	-0.0270996	-0.0705566	-1.00928	0.524496	-0.228264	-0.0911189	-0.815167	4.81428	-0.888104	8.5007	-0.0871358	-0.000699685	0.0156907	-0.556641	0.444336	-0.693848	-0.986779	0.0314107	-0.0160276	0.158188	-2.40002	-2.82037	12.6191	0.000940025	0.0877965	-0.0602921	0.647217	0.248535	-0.801514	0.535305	-0.535937	-0.489183	-0.432342	10.051	-1.6094	-0.351778	0.00996547	0.00735789	-0.0278847	-0.835938	0.513916	0.0249023	0.739106	-0.207034	-0.418378	-0.485613	8.27353	0.210529	5.93012	-0.0865018	0.11423	-0.0439693	-0.740479	0.250977	-0.71167	-0.0434397	-0.106629	-0.990501	-0.0751792	-1.08305	0.703652	-8.89793	0.0523449	0.0346458	0.0248278	-0.318848	-0.092041	1.05396	0.474769	-0.561065	-0.509563	-0.447376	9.6972	-0.43146	-0.99365	-0.0409123	0.0459026	0.00127076	-0.946533	0.505859	0.15625	0.571475	-0.503121	-0.482014	-0.43353	9.93679	-0.950453	0.646085	-0.159912	0.0360636	0.0106634	-0.944092	0.580811	-0.0939941	
70	0.435389	-0.512144	-0.414641	-0.613367	10.0361	0.409509	1.19029	-0.0409268	-0.0562776	0.00631233	-0.890625	0.35376	-0.0554199	0.641158	-0.351753	-0.325433	-0.599399	8.76615	-0.679009	5.73014	-0.0558254	-0.0296279	-0.0437545	-0.641846	0.363281	-0.413574	0.743254	-0.10077	-0.212125	-0.626436	4.99195	1.37314	9.55694	0.150308	-0.0428803	0.0188429	-0.438965	0.147461	-0.929199	0.133674	0.181298	-0.0912397	-0.970019	-3.25419	2.33773	8.9053	0.073961	-0.0109826	-0.0360979	-0.0249023	-0.0727539	-1.00928	0.524439	-0.229112	-0.0905219	-0.815032	4.831	-0.822363	8.6077	-0.0747038	-0.0248097	0.00380223	-0.556641	0.444336	-0.691406	-0.986686	0.0317111	-0.0168207	0.158624	-2.45138	-2.8844	12.5491	-0.0279436	0.0722402	-0.052361	0.646973	0.250732	-0.805908	0.535213	-0.535974	-0.488719	-0.432935	10.0164	-1.43966	-0.48436	-0.0303674	0.0515302	-0.0235619	-0.838135	0.511719	0.0270996	0.739362	-0.20747	-0.417877	-0.485467	8.63684	0.25684	5.77744	-0.0144129	0.0187227	0.0101697	-0.736328	0.253174	-0.720947	-0.0434352	-0.1063	-0.990619	-0.074082	-1.22434	1.00954	-8.98244	0.0864738	-0.000707836	-0.0503319	-0.316406	-0.0942383	1.04517	0.473974	-0.561731	-0.50938	-0.447592	9.5722	-1.18745	-1.1168	-0.0752602	-0.0276767	0.00091777	-0.946533	0.510254	0.165283	0.571251	-0.504079	-0.481211	-0.433604	9.36353	-2.51774	0.687364	-0.0799555	0.00519959	0.0543951	-0.955566	0.584961	-0.0986328	
71	0.434847	-0.512959	-0.414248	-0.613336	10.1306	0.491735	1.27618	-0.0369944	-0.0138552	0.0156327	-0.881592	0.351562	-0.0551758	0.640443	-0.352037	-0.32417	-0.60068	8.39824	-0.832248	5.49965	-0.0608909	0.0388112	-0.0497309	-0.637451	0.361084	-0.411133	0.742803	-0.10153	-0.213118	-0.626511	5.11126	1.75165	9.68146	-0.0860835	-0.0363283	-0.0166783	-0.445312	0.149658	-0.922363	0.132054	0.180247	-0.0924605	-0.970321	-3.2359	2.17803	9.17411	0.0399803	-0.0641034	-0.0527335	-0.0268555	-0.0771484	-1.00708	0.523193	-0.231466	-0.0901656	-0.815207	4.72339	-1.03549	8.79292	-0.0516395	-0.0657247	-0.0599781	-0.563232	0.441895	-0.691406	-0.986561	0.0326428	-0.0173808	0.159156	-2.37497	-2.63262	12.8146	-0.0336244	0.0142772	-0.0357406	0.64917	0.254883	-0.801758	0.534546	-0.536638	-0.486651	-0.435259	9.75844	-1.88311	-0.416517	-0.0927453	0.0782917	-0.0280901	-0.838135	0.516113	0.0270996	0.739564	-0.206733	-0.420069	-0.483579	8.88225	0.545941	5.94086	0.130841	-0.048026	-0.0116973	-0.740479	0.250977	-0.716309	-0.044822	-0.104502	-0.990872	-0.0724139	-1.16043	1.42934	-9.24636	0.0187312	-0.068103	-0.103435	-0.314453	-0.0852051	1.05615	0.473701	-0.561397	-0.509499	-0.448165	9.72461	-0.852342	-1.21741	0.00557915	0.0354392	-0.0341456	-0.944336	0.510254	0.158447	0.572497	-0.502729	-0.482767	-0.431795	10.1856	-0.996525	0.688354	-0.0341983	0.0211923	0.00871179	-0.950928	0.585205	-0.103027	
72	0.434541	-0.513022	-0.413018	-0.614328	9.76009	0.388373	1.40473	-0.0254166	0.0336077	-0.0171233	-0.881836	0.35376	-0.0532227	0.640646	-0.350186	-0.32453	-0.601352	8.1546	-0.691669	5.24096	0.0532366	0.0493139	-0.0346011	-0.641846	0.363281	-0.418213	0.741942	-0.104494	-0.209733	-0.628184	5.10593	1.35497	9.22818	-0.193822	0.0605016	-0.056854	-0.438965	0.158203	-0.925049	0.130867	0.178021	-0.091304	-0.971002	-3.0749	2.1512	9.2033	-0.0768007	-0.0781336	-0.0374463	-0.0314941	-0.0727539	-1.00708	0.5222	-0.231502	-0.0919726	-0.815632	4.6715	-1.05504	8.8903	0.0793645	-0.0134157	-0.0779248	-0.565186	0.439697	-0.691406	-0.986502	0.0326092	-0.0164981	0.159616	-2.4812	-2.56962	13.0284	0.0404245	-0.0360988	-0.037687	0.64917	0.25293	-0.808105	0.535022	-0.535949	-0.486899	-0.435247	9.7951	-1.87098	-0.447312	0.0738538	0.042663	-0.0369136	-0.83374	0.513916	0.0229492	0.73915	-0.205768	-0.422509	-0.482496	9.00171	0.501396	6.22312	0.0767949	-0.0593153	-0.0421139	-0.744385	0.242188	-0.716064	-0.0471538	-0.101828	-0.991095	-0.0716813	0.192955	1.80035	-9.20749	-0.0881646	0.0104503	-0.100938	-0.30957	-0.092041	1.05859	0.477804	-0.556692	-0.51421	-0.44428	9.76936	-1.48992	-1.30325	0.397156	0.0567154	-0.0435795	-0.94873	0.508057	0.149414	0.584413	-0.491348	-0.492526	-0.417681	10.5917	0.35863	0.208684	0.645791	-0.0493501	0.0543729	-0.953369	0.584961	-0.130371	
73	0.434376	-0.512571	-0.412993	-0.614838	9.7683	0.423107	1.43437	-0.00716446	0.0351395	-0.0410463	-0.881836	0.35376	-0.057373	0.640997	-0.349522	-0.326102	-0.600512	8.28493	-0.678476	5.22307	0.135625	-0.0496112	-0.0188531	-0.641357	0.352295	-0.422607	0.741698	-0.104531	-0.208055	-0.629023	5.24462	1.14477	9.06923	-0.104625	0.106829	-0.0503893	-0.438965	0.1604	-0.922852	0.131104	0.177211	-0.0900767	-0.971233	-2.95223	2.13156	9.09755	-0.10641	-0.0446285	0.00689056	-0.0336914	-0.0749512	-1.00928	0.521958	-0.22924	-0.0934037	-0.816263	4.46439	-1.09366	8.79599	0.0732349	0.066592	-0.0390559	-0.562988	0.439697	-0.693848	-0.98661	0.0314123	-0.0143239	0.159403	-2.74085	-2.37141	12.916	0.0636875	-0.0727185	-0.000628164	0.640869	0.244141	-0.807861	0.537221	-0.533651	-0.489336	-0.432621	9.62491	-1.77549	-0.650426	0.225665	-0.0263477	-0.00576489	-0.832031	0.520508	0.0185547	0.739823	-0.203001	-0.42242	-0.482714	9.20265	0.00064321	5.92389	0.121561	0.146699	-0.0517538	-0.739746	0.233643	-0.716064	-0.0466883	-0.100628	-0.991097	-0.0736309	0.133487	1.26706	-9.23907	-0.155008	0.0658127	-0.104418	-0.311768	-0.0964355	1.0542	0.48002	-0.553831	-0.5169	-0.442342	9.61603	-0.530538	-1.78938	0.38426	0.015598	-0.0829798	-0.946533	0.505859	0.144775	0.586907	-0.489749	-0.493938	-0.41438	9.32974	-1.69071	0.139148	0.350967	-0.0383631	0.116303	-0.94873	0.583008	-0.130371	
74	0.433853	-0.511405	-0.414511	-0.615156	9.77706	0.808284	1.44163	0.0576598	-0.0274675	-0.0695953	-0.881592	0.349609	-0.057373	0.642649	-0.347799	-0.329327	-0.597981	8.86575	-0.654216	5.69788	0.172162	-0.0315212	0.0342554	-0.645752	0.354492	-0.420166	0.742646	-0.101666	-0.209347	-0.627944	5.44513	1.03733	8.93629	0.207225	0.0116058	0.0379593	-0.441162	0.156006	-0.927246	0.133651	0.177744	-0.0887413	-0.970912	-2.74668	2.31346	9.09908	-0.0419533	0.0799201	0.12501	-0.0339355	-0.0683594	-1.00708	0.523652	-0.226938	-0.0938263	-0.815772	4.61462	-1.07829	8.5554	0.0894623	0.0731112	0.0614325	-0.552002	0.435547	-0.691406	-0.986725	0.0309355	-0.0130973	0.158888	-2.74029	-2.48039	12.9322	0.0565535	-0.0785014	0.0207683	0.647217	0.248535	-0.812256	0.539858	-0.530347	-0.493167	-0.429036	10.1203	-1.54612	-0.369773	0.256897	-0.0241601	-0.0543695	-0.837891	0.509521	0.0166016	0.742967	-0.198063	-0.421147	-0.481047	8.73296	0.200782	6.27039	0.206558	0.185468	0.0378933	-0.730957	0.233643	-0.725342	-0.0452732	-0.0975462	-0.991118	-0.0782335	-0.735304	0.543293	-9.37965	-0.193681	0.0695366	-0.141402	-0.313721	-0.105713	1.0564	0.483779	-0.548649	-0.520484	-0.440498	9.60705	0.246898	-1.22894	0.212871	0.0387037	-0.0460666	-0.950928	0.503662	0.135742	0.594165	-0.481086	-0.500603	-0.406104	9.4627	-0.582578	0.54014	0.377126	-0.0015441	0.0293954	-0.943848	0.576416	-0.141602	
75	0.434047	-0.511259	-0.415972	-0.614153	10.1262	0.826362	1.25246	0.061369	-0.0317046	0.0083185	-0.885986	0.351562	-0.0551758	0.645556	-0.345011	-0.3307	-0.595704	8.60633	-0.380817	5.5456	0.169152	0.0618015	0.0547586	-0.639404	0.354492	-0.425049	0.745098	-0.0975668	-0.214934	-0.623789	5.23087	1.3755	9.71055	0.308874	-0.0593315	0.16102	-0.434326	0.136475	-0.922119	0.137572	0.179731	-0.0902717	-0.969857	-2.96134	2.25157	9.04894	0.0797397	0.0805702	0.168429	-0.0273438	-0.0683594	-1.00488	0.526319	-0.226605	-0.0944686	-0.814073	4.68038	-0.879048	8.68206	0.0475182	-0.0195387	0.118487	-0.561035	0.442139	-0.700684	-0.987261	0.0336638	-0.0113393	0.155093	-2.59346	-2.71956	12.5534	-0.13074	-0.0596804	0.126938	0.649414	0.246338	-0.810059	0.542206	-0.527005	-0.496165	-0.426731	9.87684	-1.22677	-0.657038	0.245899	0.0017529	-0.0539242	-0.838135	0.513916	0.00805664	0.746684	-0.194346	-0.422236	-0.475826	8.84383	0.734406	5.83419	0.226583	0.0585342	0.155031	-0.730713	0.2229	-0.729736	-0.0437916	-0.0920231	-0.991822	-0.0768312	-1.00559	0.815784	-8.96903	0.071565	0.0802886	-0.27026	-0.318359	-0.105713	1.0542	0.485658	-0.546988	-0.521635	-0.439133	9.64205	-1.07817	-1.27087	0.06236	0.0805858	0.0187072	-0.94873	0.505859	0.133545	0.593641	-0.481762	-0.501901	-0.404465	9.84792	-1.44115	0.220587	-0.0324445	-0.0623588	0.00424403	-0.942139	0.587402	-0.141846	
76	0.434689	-0.511007	-0.416357	-0.613648	10.0209	0.717262	1.1946	0.0725872	-0.00372461	0.0235056	-0.881592	0.351807	-0.0639648	0.648517	-0.342437	-0.331551	-0.593495	8.36218	-0.134274	5.45333	0.141302	0.0574573	0.0708193	-0.636963	0.3479	-0.429443	0.748418	-0.0965176	-0.216506	-0.619419	5.12236	1.84733	9.80708	0.0385824	0.0189924	0.20669	-0.438721	0.138672	-0.919922	0.141773	0.179265	-0.0907107	-0.969297	-3.3311	2.35749	9.14505	-0.0637319	-0.0255128	0.17142	-0.0270996	-0.0705566	-1.00488	0.530057	-0.227087	-0.0960036	-0.811329	4.55013	-0.905038	8.66089	0.112179	-0.0608201	0.155485	-0.552246	0.439941	-0.696045	-0.98784	0.0359668	-0.00981425	0.150936	-2.27648	-2.70448	12.7994	-0.0459836	-0.074055	0.153556	0.638916	0.237549	-0.814209	0.544137	-0.524828	-0.497586	-0.425298	9.69106	-1.59596	-0.290483	0.0906977	0.032301	-0.0112667	-0.838135	0.511719	0.00366211	0.748941	-0.194518	-0.422875	-0.471621	8.3655	0.862061	6.21066	0.0226612	-0.0180728	0.136579	-0.730713	0.227295	-0.739258	-0.0424895	-0.0868264	-0.992501	-0.0748193	-0.981488	1.23614	-8.79515	0.0909718	0.0632961	-0.192107	-0.320801	-0.103516	1.052	0.484827	-0.547331	-0.521434	-0.439862	9.58148	-0.739631	-1.66593	-0.0366846	-0.000454785	-0.040174	-0.953125	0.501465	0.135742	0.589512	-0.486248	-0.500582	-0.406762	10.0593	-1.27206	0.466453	-0.316064	-0.0694365	-0.0254827	-0.944336	0.587402	-0.13501	
77	0.436632	-0.507899	-0.418025	-0.613715	9.62295	0.862674	1.37876	0.085245	0.0726896	-0.0433057	-0.87915	0.347412	-0.0617676	0.651035	-0.341806	-0.33035	-0.591769	8.07381	-0.567895	5.47467	0.0141059	0.0641367	0.0993966	-0.632568	0.350098	-0.438965	0.751709	-0.0980048	-0.213393	-0.616273	4.83321	1.82219	9.48791	-0.10253	0.0931372	0.184659	-0.430176	0.149414	-0.924805	0.145215	0.176576	-0.0886901	-0.969468	-3.53969	2.03171	9.1815	-0.121726	-0.0789121	0.113276	-0.0344238	-0.0595703	-1.00732	0.534753	-0.225525	-0.0980543	-0.808432	4.58496	-0.588871	8.48191	0.147168	0.0392336	0.182254	-0.552246	0.442139	-0.700684	-0.988591	0.0361713	-0.00805344	0.145993	-2.03289	-2.58871	13.0606	0.0155474	-0.0530882	0.177479	0.641113	0.235596	-0.813965	0.546368	-0.523221	-0.498814	-0.422973	9.27812	-1.54397	-0.307288	0.16745	-0.0177864	0.0153996	-0.827393	0.513916	0.00146484	0.749219	-0.19591	-0.424131	-0.46947	8.6877	0.545356	5.98115	0.0117785	-0.0756436	0.040501	-0.729004	0.233887	-0.72998	-0.042566	-0.084148	-0.992807	-0.073762	-0.592265	1.51049	-9.05052	0.0382704	-0.00158851	-0.118725	-0.318359	-0.10791	1.0542	0.485488	-0.546606	-0.522891	-0.438301	9.60423	-1.10941	-1.5055	0.163511	-0.00853995	-0.0135134	-0.953125	0.505859	0.131104	0.590185	-0.485273	-0.501757	-0.405502	9.83338	-1.44106	-0.155211	0.207239	-0.0387676	-0.0360687	-0.946533	0.587402	-0.137207	
78	0.43718	-0.506724	-0.41834	-0.614081	9.75605	0.897557	1.41243	0.0685939	0.0765225	-0.0392113	-0.885742	0.347412	-0.074707	0.653007	-0.342056	-0.329983	-0.589653	8.24663	-0.576333	5.34844	0.0593167	-0.00430656	0.087626	-0.624268	0.358887	-0.432129	0.754093	-0.0978969	-0.210701	-0.614301	4.68109	1.5695	9.31653	-0.00419371	0.104297	0.101479	-0.426025	0.153564	-0.927246	0.147542	0.174898	-0.0858591	-0.969675	-3.39492	2.03321	9.01796	-0.131548	-0.0141999	0.0682099	-0.034668	-0.0551758	-1.00952	0.53687	-0.224553	-0.0981175	-0.807292	4.62471	-0.490501	8.37313	0.0929552	0.0647717	0.161949	-0.547852	0.439941	-0.705078	-0.988948	0.0356367	-0.0079013	0.143697	-2.00496	-2.62496	12.9359	0.0482012	-0.000908085	0.166523	0.641357	0.229004	-0.818115	0.546622	-0.523251	-0.499421	-0.421889	9.40852	-1.62922	-0.365609	0.0875138	-0.0517778	0.0146307	-0.833984	0.513916	-0.000488281	0.749565	-0.195958	-0.424055	-0.468968	8.73943	0.486506	5.92504	0.0231953	0.0237274	0.0249971	-0.726562	0.229492	-0.72998	-0.0425996	-0.0828233	-0.992933	-0.073548	-0.559797	1.53098	-8.88775	-0.0137468	0.0188571	-0.0511371	-0.313477	-0.110107	1.04761	0.485829	-0.545737	-0.523799	-0.437922	9.51583	-0.340813	-1.48708	0.044766	-0.00100433	-0.026228	-0.953125	0.503662	0.135742	0.589155	-0.486221	-0.500803	-0.40704	9.74621	-2.13658	0.320858	-0.0925974	0.0305311	-0.0195388	-0.946533	0.587402	-0.130371	
79	0.438623	-0.50481	-0.418428	-0.614568	9.73694	0.823804	1.50537	0.0574749	0.0720835	0.00731451	-0.892334	0.347412	-0.074707	0.653943	-0.341901	-0.330484	-0.588424	8.43306	-0.601959	5.60264	0.0841494	-0.0142813	0.073093	-0.628418	0.356689	-0.439209	0.755508	-0.0962115	-0.209738	-0.613157	4.81902	1.45003	9.37971	0.0429092	0.0680669	0.0503157	-0.419678	0.14917	-0.931641	0.149099	0.174612	-0.0846929	-0.969591	-3.12813	1.9633	8.844	-0.0259204	0.0110708	0.0550637	-0.0371094	-0.0507812	-1.00757	0.539274	-0.225522	-0.0963281	-0.805633	4.78487	-0.678642	8.32351	-0.0973257	-0.0196586	0.107566	-0.537354	0.44873	-0.70752	-0.989458	0.0347694	-0.0100871	0.140219	-2.18236	-2.46519	12.7955	-0.000977181	0.126927	0.108652	0.645996	0.224609	-0.815918	0.546973	-0.523276	-0.500648	-0.419945	9.78988	-1.67734	-0.552989	0.0729561	-0.042724	-0.00248619	-0.838135	0.511719	-0.000488281	0.750192	-0.194524	-0.424205	-0.468426	8.72295	0.564101	6.16266	0.0738143	0.0515965	-0.03253	-0.726318	0.225098	-0.727539	-0.0425996	-0.0828233	-0.992933	-0.073548	-0.559797	1.53098	-8.88775	-0.0137468	0.0188571	-0.0511371	-0.313477	-0.110107	1.04761	0.485015	-0.546076	-0.523839	-0.438354	9.85704	-0.810064	-1.29961	-0.030029	0.00459479	-0.00754214	-0.953125	0.503662	0.135742	0.588234	-0.486456	-0.50032	-0.408683	9.86806	-1.24286	0.446892	-0.144482	0.0255253	-0.044485	-0.950928	0.580566	-0.130371	
80	0.441765	-0.503915	-0.417907	-0.613406	9.73546	0.599333	1.47379	0.0506992	0.0270376	0.0843418	-0.885986	0.351807	-0.0810547	0.65567	-0.341807	-0.329745	-0.58697	8.38408	-0.464089	5.474	-0.0452772	0.0545295	0.0248318	-0.62207	0.361084	-0.43457	0.756519	-0.0957112	-0.209841	-0.611952	4.91045	1.4407	9.50696	0.0188796	0.0143517	0.0544435	-0.421875	0.151367	-0.931641	0.150199	0.173838	-0.0848418	-0.969548	-3.09235	2.11999	8.8598	0.00350107	-0.0346489	0.0419783	-0.0390625	-0.0529785	-1.01196	0.540453	-0.228715	-0.0938989	-0.804228	4.90898	-0.789296	8.56936	-0.132875	-0.0544112	0.0777241	-0.541748	0.44873	-0.700684	-0.989628	0.0353873	-0.0135827	0.138564	-2.28827	-2.74266	12.579	-0.0302984	0.145063	0.0289666	0.652344	0.224609	-0.80957	0.54732	-0.52298	-0.501557	-0.418776	9.91933	-1.40457	-0.673787	0.0663564	-0.0219837	-0.00658463	-0.836182	0.518311	0.00366211	0.750347	-0.193399	-0.424981	-0.467941	8.76319	0.648568	5.99298	0.0451937	0.00349552	-0.0311161	-0.726318	0.2229	-0.727539	-0.0428708	-0.0818368	-0.992933	-0.0744945	-0.772657	1.55837	-9.07578	-0.0961287	-0.0153323	-0.0366296	-0.317871	-0.114746	1.05444	0.484706	-0.546097	-0.523632	-0.438917	9.59925	-1.0289	-1.33999	-0.0154269	0.0300387	-0.024026	-0.955322	0.501465	0.138184	0.587713	-0.486569	-0.500518	-0.409054	9.91039	-1.94483	0.335176	0.106601	0.00434543	-0.0118254	-0.953125	0.580566	-0.130371	
81	0.44257	-0.503924	-0.417626	-0.613009	9.73008	0.546798	1.48041	0.0330551	0.0166923	0.0638481	-0.881592	0.354004	-0.0769043	0.65579	-0.34209	-0.329082	-0.587043	8.28414	-0.532184	5.37698	-0.0502833	0.0401892	0.00994889	-0.624268	0.361084	-0.44165	0.756838	-0.0958744	-0.209316	-0.611712	4.87703	1.44177	9.43556	-0.0306737	0.0353541	0.034508	-0.417236	0.144775	-0.931396	0.150199	0.173838	-0.0848418	-0.969548	-3.09235	2.11999	8.8598	0.00350107	-0.0346489	0.0419783	-0.0390625	-0.0529785	-1.01196	0.5407	-0.231084	-0.0934344	-0.803439	4.98817	-0.847545	8.75527	-0.0286571	-0.0482922	0.00776062	-0.541992	0.45752	-0.696045	-0.989608	0.0362754	-0.0153932	0.138284	-2.33363	-2.70443	12.7863	-0.0532299	0.0521712	-0.0116697	0.656738	0.226807	-0.807373	0.547306	-0.523091	-0.501323	-0.418935	9.61553	-1.5828	-0.473334	-0.0103141	0.0271584	-0.0122667	-0.83374	0.511719	-0.00268555	0.749633	-0.193137	-0.425242	-0.468955	8.64102	0.686686	6.28551	-0.0218998	0.00116874	-0.0821382	-0.730713	0.225098	-0.72998	-0.0433841	-0.08174	-0.992824	-0.0757419	-0.662368	1.3493	-9.04435	-0.102651	-0.0263127	-0.0248959	-0.315674	-0.112549	1.0498	0.485366	-0.545063	-0.524278	-0.438701	9.58984	-0.806414	-1.2617	0.10256	0.0420985	-0.0381029	-0.95752	0.501465	0.133545	0.589627	-0.484261	-0.501848	-0.407405	9.84369	-1.69917	0.206996	0.29435	0.031869	-0.00678236	-0.957764	0.582764	-0.13501	
82	0.442995	-0.504218	-0.417438	-0.612589	9.90437	0.595708	1.3908	-0.00212419	-0.0104958	0.0178853	-0.879395	0.351807	-0.0769043	0.655921	-0.342246	-0.328701	-0.587019	8.34886	-0.765568	5.41107	-0.00404612	0.0207756	-0.0118156	-0.626465	0.361084	-0.44165	0.757103	-0.097102	-0.207316	-0.611871	4.88272	1.47137	9.2959	-0.102966	0.0371747	0.00972543	-0.415283	0.153564	-0.931641	0.150527	0.171107	-0.0849806	-0.96997	-3.08456	2.22272	9.02951	-0.0363127	-0.0688506	-0.00199048	-0.0439453	-0.0444336	-1.00977	0.54053	-0.231001	-0.0934715	-0.803572	4.75558	-0.880288	8.66341	0.0140581	0.0152081	-0.0331766	-0.544189	0.45752	-0.700684	-0.989569	0.0358015	-0.0152185	0.138704	-2.36023	-2.78347	12.777	0.0465896	-0.00285306	-0.0377344	0.645752	0.229004	-0.805176	0.547534	-0.522803	-0.500929	-0.419469	9.7193	-1.7359	-0.506147	0.0339848	0.0374957	-0.0312023	-0.836182	0.516113	-0.00268555	0.749333	-0.192051	-0.425863	-0.469316	8.72887	0.468455	6.08892	0.0596754	0.0280244	-0.0542542	-0.730713	0.225098	-0.72998	-0.0443757	-0.0817314	-0.992675	-0.0771196	-0.447822	1.14323	-9.08968	-0.0243213	-0.0231265	-0.0156481	-0.310791	-0.116943	1.04785	0.486175	-0.543582	-0.525465	-0.438222	9.59308	-0.4929	-1.34974	0.0459908	0.0248937	-0.0181438	-0.953125	0.501465	0.128906	0.592032	-0.481279	-0.503191	-0.405792	9.74167	-1.00445	0.340338	0.00283888	0.0399952	0.000971634	-0.946533	0.583008	-0.141846	
83	0.443079	-0.504504	-0.416376	-0.613016	9.99584	0.607179	1.4472	-0.0448635	0.0298584	0.0203664	-0.879395	0.351807	-0.0788574	0.656342	-0.341022	-0.328656	-0.587285	8.42668	-0.516243	5.52003	0.0223093	0.0748899	-0.0338648	-0.628662	0.358887	-0.439209	0.757119	-0.0970482	-0.206172	-0.612246	4.85359	1.29465	9.27666	0.00514637	0.0506873	-0.0163685	-0.41748	0.153564	-0.934082	0.149914	0.169903	-0.083861	-0.970374	-3.13247	2.07074	8.99313	-0.035174	-0.02504	-0.0326046	-0.0461426	-0.0466309	-1.00757	0.53998	-0.23013	-0.093752	-0.804159	4.78344	-0.907191	8.49484	0.0119504	0.0368843	-0.0629918	-0.546143	0.44873	-0.693848	-0.989525	0.0351175	-0.0146845	0.139253	-2.45184	-2.58188	12.8353	0.0278346	0.00533049	-0.0414772	0.6521	0.231201	-0.803223	0.547941	-0.521889	-0.501327	-0.419598	9.60406	-1.40746	-0.476846	-0.0015201	0.0322154	-0.0287225	-0.840332	0.511719	-0.000488281	0.74916	-0.191255	-0.425455	-0.470286	8.84062	0.781866	6.18063	-0.0324733	0.0440357	-0.0673787	-0.732666	0.220703	-0.739014	-0.0442956	-0.0830867	-0.992591	-0.0767959	-0.484679	1.49292	-8.89857	0.0274945	0.0201822	0.0444875	-0.317871	-0.116943	1.05005	0.485998	-0.543897	-0.525397	-0.43811	9.3551	-0.653967	-1.33226	-0.0166095	-0.00863424	0.0159053	-0.95752	0.503662	0.131348	0.595123	-0.477928	-0.505083	-0.402871	10.1046	-1.49892	0.104241	0.402469	0.00817456	-0.0170281	-0.955566	0.582764	-0.148682	
84	0.443062	-0.504855	-0.41488	-0.613752	9.75664	0.594902	1.47384	-0.0588688	0.0233471	0.0228105	-0.883789	0.354004	-0.074707	0.65671	-0.339518	-0.32864	-0.587755	8.43381	-0.489776	5.57563	0.0279725	0.0561121	-0.0385274	-0.626465	0.361084	-0.446289	0.75673	-0.095922	-0.20638	-0.612834	4.94154	1.45821	9.4597	0.0135491	0.024432	-0.0353647	-0.419678	0.153564	-0.927246	0.14889	0.170041	-0.0841622	-0.970482	-2.98227	2.08898	9.12729	0.0277949	0.0127965	-0.0291898	-0.0437012	-0.0510254	-1.01196	0.539055	-0.230912	-0.0938301	-0.804546	4.79287	-0.929601	8.64949	-0.0430689	-0.0212315	-0.0347844	-0.543945	0.453125	-0.691406	-0.98945	0.0352655	-0.0149697	0.139719	-2.50908	-2.64603	12.8258	0.000992783	0.0236639	-0.0367675	0.650146	0.229004	-0.80957	0.548073	-0.521602	-0.50095	-0.420234	9.85497	-1.59907	-0.471568	0.0490613	0.0111575	-0.0365157	-0.838135	0.511719	-0.000488281	0.749278	-0.190524	-0.424465	-0.471289	8.69261	0.539432	6.0877	-0.000977273	0.0530564	-0.0450627	-0.730469	0.220703	-0.736816	-0.043722	-0.0836593	-0.992389	-0.0790805	-0.63311	1.19771	-9.03288	-0.0880367	0.032489	0.00356774	-0.315674	-0.116943	1.04785	0.4879	-0.541725	-0.526552	-0.437299	9.53184	-0.436318	-1.27798	0.104602	0.0346519	-0.00334651	-0.955078	0.494873	0.126953	0.596013	-0.477475	-0.505391	-0.401704	9.63399	-2.14673	0.198807	0.0542065	-0.0154873	0.0270561	-0.946045	0.576172	-0.148438	
85	0.442646	-0.505078	-0.414263	-0.614286	9.71554	0.478553	1.46276	-0.0184234	0.00551528	-0.0152116	-0.881836	0.356201	-0.0810547	0.656749	-0.338988	-0.32745	-0.588681	8.33752	-0.609631	5.66251	-0.0454328	0.0673615	-0.0315476	-0.624268	0.361084	-0.44165	0.756541	-0.0950442	-0.206705	-0.613095	5.02236	1.4312	9.48936	0.0424648	0.0211554	-0.0282723	-0.410889	0.151123	-0.929443	0.148537	0.170717	-0.0838208	-0.970447	-3.10917	2.14019	9.12157	-0.00372383	0.038368	-0.0138077	-0.0480957	-0.0532227	-1.01196	0.538912	-0.230754	-0.0933198	-0.804747	4.63702	-1.00514	8.54632	0.00690019	0.0275781	-0.0178611	-0.550781	0.455322	-0.700684	-0.989425	0.0341389	-0.0152704	0.140142	-2.47614	-2.55563	12.8733	0.0525095	0.0370555	-0.0317255	0.652344	0.229004	-0.811768	0.548393	-0.521085	-0.500377	-0.421139	9.60393	-1.47745	-0.279677	0.00212361	0.0701973	-0.0186616	-0.838135	0.511719	-0.00268555	0.749553	-0.189969	-0.423828	-0.471647	8.57288	0.462446	6.20784	0.0366938	0.0512091	-0.0262039	-0.723877	0.214355	-0.736816	-0.0434117	-0.0836537	-0.99233	-0.0799939	-0.775666	1.11256	-9.06357	-0.0321655	0.0126937	-0.0279282	-0.310547	-0.123779	1.05444	0.488418	-0.541208	-0.526647	-0.437247	9.54674	-0.669372	-1.40263	0.0122453	0.0201031	0.00715683	-0.95752	0.503662	0.119873	0.596846	-0.476864	-0.506293	-0.400054	9.61124	-1.76708	0.4303	-0.00674855	-0.00806361	0.0413643	-0.948486	0.578369	-0.153076	
