40	Head	00b4120a												Throax	00b411e8												LUpArm	00b411d9												LFoArm	00b41148												RUpArm	00b411db												RFoArm	00b41204												Waist	00b411f7												Lthigh	00b411f4												Lshank	00b4111b												Rthigh	00b411c8												Rshank	00b411ee												
PacketCount	q0	q1	q2	q3	accX	accY	accZ	gyrX	gyrY	gyrZ	magX	magY	magZ	q0	q1	q2	q3	accX	accY	accZ	gyrX	gyrY	gyrZ	magX	magY	magZ	q0	q1	q2	q3	accX	accY	accZ	gyrX	gyrY	gyrZ	magX	magY	magZ	q0	q1	q2	q3	accX	accY	accZ	gyrX	gyrY	gyrZ	magX	magY	magZ	q0	q1	q2	q3	accX	accY	accZ	gyrX	gyrY	gyrZ	magX	magY	magZ	q0	q1	q2	q3	accX	accY	accZ	gyrX	gyrY	gyrZ	magX	magY	magZ	q0	q1	q2	q3	accX	accY	accZ	gyrX	gyrY	gyrZ	magX	magY	magZ	q0	q1	q2	q3	accX	accY	accZ	gyrX	gyrY	gyrZ	magX	magY	magZ	q0	q1	q2	q3	accX	accY	accZ	gyrX	gyrY	gyrZ	magX	magY	magZ	q0	q1	q2	q3	accX	accY	accZ	gyrX	gyrY	gyrZ	magX	magY	magZ	q0	q1	q2	q3	accX	accY	accZ	gyrX	gyrY	gyrZ	magX	magY	magZ	
0	0.183554	0.0690172	-0.0198741	-0.980382	-1.46748	0.688761	10.9327	0.00652406	-0.010724	-0.00472714	-0.227539	0.0742188	-1.13208	0.179476	0.298021	0.125094	-0.929152	-5.9872	-1.28436	8.01479	-0.014385	0.0326455	-0.0150117	0.501709	0.190674	-0.939941	0.00373416	0.212907	-0.119435	-0.969738	-4.40852	2.46977	9.48028	-0.0119784	0.00475886	-0.00221759	0.0229492	-0.351074	-1.06787	-0.228873	0.224879	-0.306183	-0.896269	-5.29248	4.38018	7.00557	-0.00345457	0.00436332	0.00577234	0.272949	-0.642334	-0.809814	0.0562499	0.194036	0.28621	-0.936627	-3.84878	-5.00877	7.40343	-0.00212	0.0035008	-0.0114206	0.192139	0.577393	-0.862305	-0.601464	0.00763451	-0.430132	0.673178	-5.84789	-6.70047	7.65763	0.00361123	0.012547	-0.0152949	0.354004	0.917969	-0.41333	0.0914502	-0.171955	0.0118521	-0.980779	3.45342	-0.487453	9.99715	0.0126309	-0.0405784	-0.0138364	-0.653076	0.118164	-0.825439	0.280318	-0.0111385	-0.0425597	-0.958899	0.454432	0.811057	11.1335	-0.00866485	0.0178226	-0.0166254	-0.490723	-0.052002	-1.05298	0.109058	-0.0438606	-0.256769	-0.959298	2.08147	4.56184	9.27747	0.00840016	0.00716922	-0.0205926	-0.639404	-0.419189	-0.892334	0.0298052	0.892461	-0.0903511	-0.440979	-7.06455	1.55358	-5.87625	-0.000777008	0.0144342	0.0018048	0.969238	-0.179688	0.396973	0.0259454	-0.13148	-0.0803014	-0.98772	2.59558	1.46499	9.36426	0.00693665	0.00831883	0.000845768	-0.626465	-0.0134277	-0.904053	
1	0.183385	0.0689717	-0.0198824	-0.980417	-1.35116	0.797668	10.9235	-0.00278697	-0.00162103	-0.00437124	-0.230225	0.0805664	-1.13208	0.179694	0.298207	0.125046	-0.929057	-5.97178	-1.27389	7.84007	-0.00686498	0.0151647	-0.00484831	0.499756	0.188477	-0.9375	0.00395008	0.21291	-0.118887	-0.969804	-4.45922	2.40152	9.45921	-0.0263764	0.00257283	0.00203573	0.020752	-0.35083	-1.06323	-0.228719	0.224846	-0.30594	-0.8964	-5.29624	4.35204	7.00112	-0.0104189	0.00404952	0.006717	0.263916	-0.635986	-0.803223	0.0562307	0.194063	0.286057	-0.936669	-3.84407	-5.02187	7.38243	0.00815169	0.0106995	-0.0184087	0.192383	0.574951	-0.857666	-0.601643	0.00760598	-0.429919	0.673155	-5.80428	-6.63609	7.64757	0.0106909	0.00950967	-0.0110153	0.354004	0.920166	-0.40918	0.0916097	-0.172274	0.0123843	-0.980702	3.48014	-0.511935	9.95489	-0.0070009	0.0132784	-0.00380353	-0.657471	0.118164	-0.825439	0.28045	-0.0111412	-0.0427106	-0.958853	0.478977	0.80039	11.0381	0.0196143	0.0151897	-0.00772015	-0.49292	-0.052002	-1.0481	0.109093	-0.0439622	-0.256909	-0.959252	2.13379	4.54366	9.23383	0.0105032	0.00550827	-0.0182358	-0.636963	-0.421387	-0.894531	0.0297952	0.892512	-0.0903449	-0.440877	-7.07435	1.5396	-5.90929	0.00290348	0.0179237	0.00110905	0.967041	-0.17749	0.392334	0.0260424	-0.131384	-0.0804743	-0.987716	2.58515	1.51497	9.38608	0.00685789	0.0128106	0.000451826	-0.630859	-0.0134277	-0.899414	
2	0.183717	0.0688888	-0.0198504	-0.980361	-1.41934	0.69352	10.9179	-0.00207929	-0.00830883	0.0119292	-0.225586	0.0786133	-1.13208	0.179817	0.298097	0.124672	-0.929118	-5.95566	-1.23992	7.97243	0.00645675	0.00900496	-0.0124905	0.495605	0.184082	-0.939697	0.00399602	0.212982	-0.118429	-0.969844	-4.46013	2.38094	9.45067	-0.00828966	0.0104606	-0.00460515	0.0251465	-0.353271	-1.06787	-0.228704	0.224851	-0.305569	-0.896529	-5.30582	4.30242	6.98759	-0.0125616	0.00190766	-0.000479887	0.263916	-0.635742	-0.807617	0.0564801	0.193935	0.286197	-0.936638	-3.79968	-4.92588	7.45942	-0.0224091	-0.00252665	-0.00689319	0.189941	0.57959	-0.864746	-0.601643	0.00760598	-0.429919	0.673155	-5.80428	-6.63609	7.64757	0.0106909	0.00950967	-0.0110153	0.354004	0.920166	-0.40918	0.0916481	-0.172492	0.0128007	-0.980655	3.48777	-0.518353	9.85882	0.000312836	0.00879657	-0.0114378	-0.655273	0.115967	-0.827393	0.280507	-0.0111011	-0.04284	-0.958831	0.479937	0.836185	11.1301	-0.00469411	0.0186223	-0.0193936	-0.492676	-0.0563965	-1.05981	0.109114	-0.0439879	-0.256871	-0.959258	2.11189	4.56953	9.27377	0.000939851	0.00755063	-0.0203028	-0.634766	-0.416748	-0.898926	0.0295298	0.8925	-0.0903559	-0.440917	-7.08501	1.54077	-5.84541	0.00790155	0.00725477	-0.00200794	0.967041	-0.179688	0.39917	0.026194	-0.131331	-0.0803332	-0.987731	2.5566	1.47418	9.36958	-0.00556572	0.00797307	0.00129917	-0.626465	-0.0112305	-0.897217	
3	0.183645	0.0688911	-0.0197436	-0.980377	-1.40854	0.712154	10.9198	-0.0042067	-0.00159137	-0.00543595	-0.22583	0.0830078	-1.13428	0.179682	0.298423	0.124217	-0.929101	-5.96087	-1.22578	7.90018	0.0134889	0.0227538	-0.0167296	0.495361	0.186279	-0.937256	0.00395864	0.213025	-0.118571	-0.969817	-4.42772	2.48909	9.45114	0.00560578	0.00567748	0.00467809	0.0229492	-0.353027	-1.06787	-0.228765	0.224709	-0.305501	-0.896572	-5.29726	4.39289	7.02276	-0.00150125	0.00162848	0.00254867	0.263916	-0.637939	-0.809814	0.0565261	0.193896	0.286967	-0.936408	-3.82125	-5.09135	7.43365	-0.0209487	0.0135986	-0.0193959	0.185547	0.57959	-0.864746	-0.60134	0.0076251	-0.430062	0.673334	-5.82612	-6.72388	7.68605	0.0183476	0.0109709	-0.0165809	0.349854	0.917969	-0.406982	0.0918345	-0.17394	0.0126808	-0.980383	3.48261	-0.485885	9.93136	0.012637	-0.0514161	-0.00640367	-0.65332	0.122559	-0.823486	0.280529	-0.0112153	-0.0426189	-0.958833	0.468641	0.784763	11.0776	0.00463356	0.0150664	-0.0119302	-0.492676	-0.0541992	-1.05054	0.109107	-0.0440329	-0.256918	-0.959245	2.10992	4.57191	9.25765	0.0102994	0.00587612	-0.0199302	-0.63501	-0.412354	-0.894531	0.0297388	0.89256	-0.0901925	-0.440815	-7.0811	1.57804	-5.87642	-0.00797332	0.0218558	0.00152071	0.97168	-0.181885	0.387939	0.0261558	-0.131386	-0.0804609	-0.987714	2.59473	1.47861	9.37504	0.00651831	0.00744603	-0.00762679	-0.628662	-0.015625	-0.901855	
4	0.183638	0.0688256	-0.0197509	-0.980383	-1.4234	0.700171	10.9084	0.00106482	-0.00910954	-0.000423075	-0.22583	0.0849609	-1.12769	0.179795	0.298286	0.124177	-0.929128	-5.99082	-1.22034	7.93756	-0.00894278	0.00396961	-0.0126882	0.501953	0.186279	-0.939697	0.00403783	0.212992	-0.118174	-0.969873	-4.48064	2.42755	9.47493	-0.0238161	0.00774879	-0.0022357	0.0229492	-0.351074	-1.06787	-0.228554	0.224737	-0.305068	-0.896766	-5.34173	4.3385	7.0274	-0.0243354	0.00455923	0.00781195	0.268799	-0.644531	-0.807617	0.0565263	0.193986	0.286723	-0.936464	-3.85458	-5.1349	7.32381	0.0188613	0.0129534	-0.00858694	0.194336	0.577393	-0.860107	-0.601398	0.00755506	-0.429888	0.673394	-5.84257	-6.64786	7.66309	0.0189795	0.0103809	-0.0155248	0.354004	0.920166	-0.40918	0.0919925	-0.174175	0.0126348	-0.980327	3.48533	-0.480321	9.87947	0.017603	-0.00599444	-0.00466368	-0.655273	0.118164	-0.823242	0.280611	-0.0111483	-0.0429099	-0.958797	0.523036	0.797342	11.1137	0.0274731	0.0166915	-0.00982388	-0.49292	-0.0498047	-1.05518	0.109074	-0.0441111	-0.257014	-0.959219	2.08104	4.56549	9.27378	0.0111557	0.0050174	-0.0216767	-0.637451	-0.412109	-0.901367	0.0296284	0.892595	-0.0902143	-0.440747	-7.08298	1.53836	-5.90105	0.00426057	0.0165985	2.72777e-05	0.971436	-0.179688	0.392334	0.026135	-0.131113	-0.0804768	-0.98775	2.56955	1.5025	9.394	-0.00143346	0.0209783	-0.00161744	-0.628662	-0.0134277	-0.897217	
5	0.183627	0.0687846	-0.0197416	-0.980388	-1.41017	0.723376	10.919	-0.000707125	-0.00768191	-0.00105351	-0.22998	0.0808105	-1.13428	0.17984	0.298184	0.124123	-0.92916	-6.00164	-1.23671	7.91959	-0.00370762	0.00429512	-0.0157249	0.501953	0.186279	-0.9375	0.00402053	0.213069	-0.117948	-0.969883	-4.42172	2.36809	9.413	-0.00052056	0.0087478	-0.00112413	0.0249023	-0.342285	-1.06592	-0.228329	0.224876	-0.304404	-0.897015	-5.27854	4.26384	6.96292	-0.0309313	0.00746212	0.00409536	0.270264	-0.631348	-0.807861	0.0565893	0.194031	0.285861	-0.936714	-3.86975	-4.88787	7.40647	0.0266479	0.00416074	-0.00752975	0.189941	0.57959	-0.860107	-0.601459	0.00752566	-0.429756	0.673424	-5.83891	-6.62544	7.66571	0.0138175	0.0105054	-0.0158784	0.358154	0.922363	-0.411377	0.0922521	-0.174317	0.0128617	-0.980274	3.49042	-0.50449	9.91959	-0.000643741	0.00616059	-0.00359137	-0.657715	0.122559	-0.823486	0.280707	-0.0111229	-0.0429952	-0.958766	0.433321	0.861959	11.0855	-0.00326099	0.0161665	-0.012894	-0.488525	-0.0498047	-1.05054	0.10907	-0.0441598	-0.257035	-0.959211	2.09831	4.57801	9.21899	0.00701856	0.0044738	-0.0195664	-0.632324	-0.419189	-0.892334	0.0296307	0.892603	-0.0901934	-0.440735	-7.05493	1.58312	-5.88503	0.00136078	0.0147056	0.000852667	0.97168	-0.184082	0.394775	0.0261584	-0.130946	-0.0803624	-0.987781	2.58075	1.51314	9.37007	-0.00734431	0.0220855	-0.00108042	-0.624023	-0.015625	-0.901855	
6	0.183613	0.0687612	-0.0196527	-0.980394	-1.42412	0.704691	10.9202	-0.00240387	-0.00565358	-0.00180265	-0.230225	0.0827637	-1.13647	0.179878	0.297906	0.124012	-0.929256	-5.9439	-1.24531	7.91844	-0.0043319	-0.000925946	-0.0189065	0.501953	0.184082	-0.937256	0.0040746	0.213115	-0.117937	-0.969874	-4.43092	2.4159	9.43255	-0.00116413	0.00940638	0.00302707	0.0229492	-0.348877	-1.06104	-0.228125	0.224845	-0.304154	-0.897159	-5.29647	4.29299	7.02466	-0.00889542	0.00490937	0.011205	0.270752	-0.640137	-0.816406	0.0568174	0.193938	0.286773	-0.936441	-3.83096	-4.99115	7.39675	-0.0546331	0.00924544	-0.0136355	0.189941	0.581787	-0.862305	-0.601455	0.00744674	-0.42965	0.673496	-5.81413	-6.66758	7.68761	0.0116035	0.0118454	-0.0120243	0.349854	0.917969	-0.406982	0.0925231	-0.174759	0.0129584	-0.980169	3.50087	-0.516795	9.84132	0.0139361	-0.00489001	-0.0054503	-0.655518	0.120361	-0.821289	0.280796	-0.0112361	-0.0429542	-0.95874	0.522705	0.817869	11.0712	-0.00082217	0.0165119	-0.0123844	-0.499512	-0.0498047	-1.0481	0.109099	-0.044231	-0.256969	-0.959223	2.11226	4.54167	9.23738	0.00172923	0.00826268	-0.0171246	-0.63501	-0.414551	-0.892334	0.0293116	0.892648	-0.090307	-0.440641	-7.07166	1.49015	-5.91081	0.0192565	0.0148306	0.00133909	0.969482	-0.181885	0.394775	0.0261511	-0.130604	-0.0802136	-0.987838	2.51909	1.45979	9.36226	-0.00211061	0.0207913	-0.00633526	-0.633301	-0.0090332	-0.899658	
7	0.18361	0.0686562	-0.0196709	-0.980401	-1.41398	0.698287	10.9098	0.000439292	-0.00783642	0.00260748	-0.227783	0.0808105	-1.13647	0.179914	0.297427	0.12369	-0.929445	-5.97686	-1.22182	7.95516	0.0024918	-0.00734903	-0.01877	0.497559	0.184082	-0.941895	0.0040509	0.213016	-0.117851	-0.969907	-4.45268	2.39291	9.44817	-0.00567262	0.00205272	-0.00319427	0.0205078	-0.344482	-1.07495	-0.227959	0.224847	-0.304027	-0.897244	-5.31326	4.28561	7.03677	-0.0132361	0.00722566	0.0131744	0.270264	-0.631348	-0.814453	0.0571915	0.193853	0.287253	-0.936288	-3.84029	-5.09059	7.39602	-0.00624954	0.000202744	-0.00121082	0.187744	0.581787	-0.864746	-0.601484	0.00743514	-0.429531	0.673547	-5.83463	-6.64257	7.67197	0.0057539	0.0149524	-0.020898	0.354248	0.915771	-0.406982	0.0928438	-0.174415	0.012895	-0.980201	3.54007	-0.504447	9.85979	0.023282	0.0364013	-0.00296631	-0.664062	0.122559	-0.825439	0.280874	-0.0113014	-0.0426318	-0.958731	0.454054	0.827601	11.1491	-0.00970024	0.0175926	-0.0137401	-0.492432	-0.0605469	-1.06445	0.108916	-0.0441265	-0.257097	-0.959214	2.10937	4.57051	9.25287	0.00785149	0.00587255	-0.0182824	-0.632324	-0.421387	-0.89209	0.0290178	0.892562	-0.0906492	-0.440766	-7.117	1.50812	-5.89979	0.0173702	0.00163228	0.0118242	0.969482	-0.181885	0.396973	0.0259104	-0.130569	-0.0801715	-0.987853	2.54901	1.47635	9.39829	-0.00407454	0.00688956	-0.0143016	-0.628662	-0.015625	-0.904053	
8	0.183533	0.0686558	-0.0195466	-0.980418	-1.39088	0.698557	10.9023	-0.00460378	-0.00064226	-0.000476914	-0.225586	0.076416	-1.12988	0.179843	0.296981	0.123405	-0.92964	-5.92222	-1.24575	7.89686	0.00350518	-0.00416328	-0.0211319	0.490967	0.186279	-0.939697	0.00413777	0.212936	-0.117821	-0.969928	-4.4219	2.38832	9.45889	-0.00496809	0.00272077	0.00413552	0.0185547	-0.348633	-1.07471	-0.227554	0.224771	-0.303852	-0.897425	-5.28753	4.29501	7.04597	-0.0118216	0.004971	0.0194971	0.263916	-0.635742	-0.812012	0.0573903	0.193821	0.286783	-0.936427	-3.83797	-5.00731	7.4093	0.0160029	0.00392237	-0.00473729	0.187744	0.579346	-0.860107	-0.6015	0.0074665	-0.429335	0.673657	-5.85936	-6.71418	7.62256	0.0189305	0.0120215	-0.0216403	0.351807	0.920166	-0.413574	0.0931376	-0.174148	0.012795	-0.980222	3.49317	-0.496838	9.90076	0.0208932	0.0216705	-0.00519496	-0.655518	0.120361	-0.825439	0.281063	-0.0113317	-0.0428874	-0.958663	0.551089	0.810906	11.0595	0.0171047	0.0167195	-0.00697905	-0.490723	-0.0498047	-1.05054	0.108946	-0.0442091	-0.257081	-0.959211	2.13338	4.56349	9.223	0.000706625	0.00669113	-0.0168198	-0.639404	-0.419189	-0.890137	0.0289316	0.892466	-0.0910965	-0.440872	-7.1055	1.48499	-5.91582	0.0199777	0.00527298	0.0201536	0.967041	-0.17749	0.392334	0.0254191	-0.13063	-0.0800994	-0.987863	2.53747	1.46248	9.41404	-0.00114446	0.00407432	-0.024145	-0.630859	-0.015625	-0.897217	
9	0.183463	0.0686083	-0.0194506	-0.980437	-1.42138	0.711986	10.9202	-0.0029092	-0.0082408	-0.00253171	-0.227783	0.0786133	-1.13208	0.179815	0.296677	0.123327	-0.929752	-5.9321	-1.26585	7.98101	-0.00496473	0.00656649	-0.0212058	0.491211	0.184082	-0.939697	0.00426986	0.212985	-0.117817	-0.969917	-4.37068	2.35119	9.42793	-3.78954e-05	0.00868543	0.00428503	0.0249023	-0.348877	-1.06567	-0.227298	0.224748	-0.30373	-0.897537	-5.23284	4.2998	7.02142	-0.0148393	0.00754291	0.0206886	0.268066	-0.631348	-0.818848	0.0578958	0.19378	0.28637	-0.936531	-3.85943	-4.95597	7.35862	0.0121011	0.00012159	0.00938734	0.187744	0.577393	-0.866943	-0.6015	0.0074665	-0.429335	0.673657	-5.85936	-6.71418	7.62256	0.0189305	0.0120215	-0.0216403	0.351807	0.920166	-0.413574	0.0933287	-0.174189	0.012844	-0.980195	3.52412	-0.56431	9.95475	0.00595213	0.00036274	-0.00822695	-0.657471	0.120361	-0.825439	0.281091	-0.0112512	-0.0427384	-0.958663	0.395116	0.748282	11.0617	0.00528294	0.0156324	-0.0190048	-0.490723	-0.0498047	-1.05518	0.108946	-0.0442091	-0.257081	-0.959211	2.13338	4.56349	9.223	0.000706625	0.00669113	-0.0168198	-0.639404	-0.419189	-0.890137	0.0291615	0.892292	-0.0913627	-0.441156	-7.05226	1.576	-5.8482	-0.00581675	0.00436165	0.0135703	0.969482	-0.181885	0.390137	0.025128	-0.130873	-0.0801111	-0.987838	2.61575	1.46999	9.33266	0.0019444	-0.00492944	-0.00972249	-0.628662	-0.0112305	-0.897217	
10	0.183521	0.0686058	-0.0193736	-0.980427	-1.40885	0.701033	10.9309	-0.00235856	-0.00484677	0.00628254	-0.223389	0.076416	-1.12769	0.180038	0.296548	0.123122	-0.929778	-5.90891	-1.26342	7.91428	-0.00424239	0.00843469	-0.00330295	0.497803	0.179688	-0.937256	0.00443718	0.213154	-0.118431	-0.969804	-4.40181	2.39437	9.42392	0.0266157	0.0124809	0.011635	0.0249023	-0.348877	-1.07031	-0.226861	0.224719	-0.303704	-0.897663	-5.25847	4.32595	7.02852	0.00156747	0.00593737	0.00940442	0.270508	-0.635742	-0.809814	0.0582187	0.193699	0.287047	-0.93632	-3.83215	-5.00314	7.36383	-0.0449806	0.00745193	-0.0113328	0.187744	0.57959	-0.862305	-0.601135	0.00744096	-0.429127	0.674115	-5.81158	-6.64553	7.68589	0.0214744	0.00842842	-0.0107009	0.354248	0.915771	-0.411133	0.0936292	-0.174383	0.0129601	-0.980131	3.47504	-0.529917	9.83349	0.0142183	0.0109193	0.000978092	-0.659668	0.118164	-0.819092	0.281277	-0.0111104	-0.0430034	-0.958598	0.54101	0.780414	11.1665	0.0146375	0.0338809	-0.0105637	-0.49292	-0.0476074	-1.04834	0.10854	-0.0438343	-0.257354	-0.959201	2.09877	4.57884	9.26942	0.0209676	0.00743825	-0.0209107	-0.634766	-0.416748	-0.890137	0.0292085	0.89228	-0.0915368	-0.441139	-7.05371	1.56418	-5.84801	0.0064818	0.0169022	0.0072673	0.969238	-0.175293	0.394531	0.0251772	-0.131017	-0.0804483	-0.98779	2.6163	1.51734	9.35897	0.0197182	0.00503049	0.000538026	-0.626465	-0.0134277	-0.901855	
11	0.183836	0.0685408	-0.0194186	-0.980372	-1.40844	0.660343	10.9351	0.00226916	-0.00780168	0.0150016	-0.230225	0.0827637	-1.13647	0.180286	0.296393	0.122852	-0.929815	-5.9262	-1.23443	7.94827	0.00166944	0.00428392	-0.00982951	0.5	0.179688	-0.939453	0.00464234	0.213381	-0.118717	-0.969718	-4.45909	2.43156	9.4386	0.00439108	0.0166061	0.0061221	0.0273438	-0.353271	-1.06787	-0.226858	0.224799	-0.303512	-0.897709	-5.30742	4.3368	7.03926	-0.012563	0.00776958	-0.000804238	0.270264	-0.62915	-0.818848	0.0583869	0.193704	0.287158	-0.936274	-3.81001	-5.01261	7.40883	0.00946116	0.00794023	-0.012297	0.187744	0.581787	-0.862305	-0.601155	0.00751654	-0.429012	0.67417	-5.79427	-6.67945	7.70722	0.00431568	0.0037287	-0.011641	0.360596	0.915771	-0.40918	0.0939629	-0.174381	0.0130597	-0.980098	3.5021	-0.512185	9.87966	0.0100169	0.0144962	-0.00286967	-0.659668	0.118164	-0.823242	0.28125	-0.0112021	-0.0432433	-0.958594	0.498059	0.844487	11.1054	0.0160972	0.00368672	-0.0135954	-0.490479	-0.0585938	-1.05273	0.10854	-0.0438343	-0.257354	-0.959201	2.09877	4.57884	9.26942	0.0209676	0.00743825	-0.0209107	-0.634766	-0.416748	-0.890137	0.0292085	0.89228	-0.0915368	-0.441139	-7.05371	1.56418	-5.84801	0.0064818	0.0169022	0.0072673	0.969238	-0.175293	0.394531	0.0254274	-0.130864	-0.0806857	-0.987784	2.59681	1.5136	9.36812	0.0103853	0.0166625	0.00441285	-0.630859	-0.015625	-0.901855	
12	0.184061	0.0686272	-0.0195667	-0.980321	-1.39421	0.651453	10.9133	0.00829331	0.000808498	0.00813832	-0.230225	0.0805664	-1.12769	0.180501	0.296297	0.122594	-0.929838	-5.92415	-1.21366	7.97108	-0.00331208	0.00652152	-0.00616784	0.499756	0.184082	-0.939697	0.0046568	0.213649	-0.1189	-0.969637	-4.4526	2.4237	9.38981	0.01172	0.0152533	0.00049444	0.0229492	-0.35083	-1.07007	-0.226769	0.224869	-0.303313	-0.897781	-5.28882	4.25958	6.96841	-0.00341413	0.0098877	0.00600304	0.261475	-0.631592	-0.807861	0.0582185	0.193733	0.287052	-0.936311	-3.87723	-5.04111	7.42897	0.0043484	0.0126768	-0.0197714	0.187744	0.57959	-0.862305	-0.601388	0.00754778	-0.428672	0.674178	-5.83024	-6.62558	7.71031	0.0123494	0.00319813	-0.0155349	0.349854	0.917969	-0.411377	0.094213	-0.174395	0.0131462	-0.98007	3.56018	-0.491908	9.90981	0.0137623	0.0140428	-0.00388971	-0.662109	0.124756	-0.821289	0.281455	-0.0108341	-0.0438058	-0.958513	0.461021	0.862734	11.0589	0.0283632	0.0259262	-0.0123038	-0.495117	-0.052002	-1.05054	0.108028	-0.043566	-0.258351	-0.959003	2.12144	4.62859	9.20396	0.0216957	0.00755005	-0.0210486	-0.632568	-0.414551	-0.890137	0.0293907	0.892552	-0.0915273	-0.440579	-7.09625	1.52158	-5.92128	0.00937517	0.0130813	0.00484024	0.971436	-0.17749	0.387695	0.0254713	-0.130681	-0.0808565	-0.987793	2.50105	1.50711	9.4095	0.0106225	0.0117776	-0.00320834	-0.631104	-0.0112305	-0.899658	
13	0.184123	0.0687413	-0.0196783	-0.980299	-1.38171	0.647874	10.9322	0.0102857	0.00330816	0.00613004	-0.229736	0.0742188	-1.13623	0.180626	0.296161	0.122446	-0.929876	-5.95709	-1.20047	7.96263	0.000951829	-0.000794746	-0.00796797	0.491211	0.181885	-0.944336	0.004625	0.213659	-0.119196	-0.969598	-4.52302	2.41226	9.38682	0.0236371	0.00673399	0.00244421	0.0229492	-0.351074	-1.06787	-0.226713	0.224809	-0.303499	-0.897747	-5.32733	4.25941	7.00747	0.0130475	0.00674018	0.00520418	0.270752	-0.637939	-0.807617	0.0582185	0.193733	0.287052	-0.936311	-3.87723	-5.04111	7.42897	0.0043484	0.0126768	-0.0197714	0.187744	0.57959	-0.862305	-0.601388	0.00754778	-0.428672	0.674178	-5.83024	-6.62558	7.71031	0.0123494	0.00319813	-0.0155349	0.349854	0.917969	-0.411377	0.0944178	-0.174035	0.0131446	-0.980114	3.54969	-0.496303	9.86267	0.0197583	0.0429551	0.000584137	-0.661865	0.120361	-0.821289	0.281439	-0.0109261	-0.0437584	-0.958519	0.468078	0.925458	11.0978	-0.00196701	0.0119206	-0.0175719	-0.492676	-0.0563965	-1.05518	0.108042	-0.0435763	-0.258301	-0.959014	2.12152	4.65097	9.2326	0.00154946	0.00859001	-0.0188506	-0.643799	-0.421387	-0.896729	0.0293608	0.892537	-0.0916787	-0.440579	-7.07564	1.55536	-5.88793	0.00958328	0.012591	0.0123584	0.969727	-0.188477	0.392578	0.0254136	-0.130849	-0.0812334	-0.987742	2.51539	1.53505	9.37317	0.0189579	-0.00519574	-0.00608462	-0.628418	-0.0178223	-0.904053	
14	0.183977	0.0689316	-0.0199564	-0.980307	-1.45204	0.698231	10.8881	0.0126516	-0.00137218	-0.00731802	-0.230225	0.0827637	-1.12988	0.18064	0.295733	0.121989	-0.93007	-5.95212	-1.18262	7.95417	0.00913172	-0.0105939	-0.0187878	0.491211	0.181885	-0.944336	0.00450053	0.213756	-0.119917	-0.969489	-4.48625	2.42487	9.41867	0.0295037	0.00675935	0.000876966	0.0229492	-0.348877	-1.06323	-0.226752	0.224708	-0.303736	-0.897683	-5.31203	4.32437	7.00745	0.0212278	0.00417398	0.00532959	0.265869	-0.633545	-0.807861	0.0578939	0.193915	0.286786	-0.936375	-3.82275	-4.97046	7.39002	0.00741079	0.0121429	-0.0136183	0.192139	0.57959	-0.862305	-0.601193	0.0076828	-0.428249	0.674619	-5.79079	-6.63671	7.72043	0.0132068	0.0061436	-0.0278243	0.349854	0.913574	-0.408936	0.0945969	-0.173469	0.0133503	-0.980195	3.41488	-0.499778	9.92576	0.00755235	0.026144	-0.0101694	-0.661865	0.120361	-0.821289	0.28146	-0.0110599	-0.0432455	-0.958534	0.438622	0.811461	11.0353	-0.011524	0.019742	-0.0160321	-0.494873	-0.0541992	-1.05273	0.108092	-0.0435623	-0.257843	-0.959133	2.10569	4.5859	9.24734	-0.0130275	0.0133441	-0.0178893	-0.641602	-0.423584	-0.896729	0.0296375	0.8924	-0.0917454	-0.440826	-7.05384	1.56166	-5.87984	-0.00949645	0.00586562	0.00808863	0.967285	-0.186279	0.390381	0.025408	-0.131041	-0.0813927	-0.987703	2.56695	1.54856	9.35618	0.0137102	-0.00799598	-0.00320674	-0.628662	-0.015625	-0.901855	
15	0.183815	0.0689212	-0.0201012	-0.980336	-1.4305	0.7576	10.9284	0.00527709	-0.00722328	-0.00391364	-0.22583	0.0830078	-1.13647	0.180536	0.295482	0.121696	-0.930208	-5.89023	-1.17627	7.96743	0.00219771	0.00399109	-0.0211016	0.493408	0.181885	-0.941895	0.00445831	0.213718	-0.120584	-0.969414	-4.44478	2.53755	9.4486	0.0187934	0.00300559	0.0041597	0.0273438	-0.355469	-1.06763	-0.226796	0.224534	-0.303885	-0.897665	-5.28913	4.37706	7.0005	0.00374764	0.00103139	0.00493628	0.265869	-0.633545	-0.812256	0.0579523	0.193942	0.286637	-0.936412	-3.83916	-4.937	7.3394	0.000904711	0.00501368	-0.0101957	0.192139	0.57959	-0.862305	-0.601159	0.00777575	-0.428066	0.674764	-5.75959	-6.59854	7.7118	0.00361491	0.014104	-0.021518	0.349609	0.920166	-0.40918	0.0948146	-0.17349	0.0134757	-0.980168	3.4631	-0.537254	9.89464	0.00949138	0.0114119	-0.00233072	-0.662109	0.126953	-0.823486	0.281576	-0.0110669	-0.0432877	-0.958498	0.468655	0.748617	11.179	-0.000847324	0.0224759	-0.011332	-0.493164	-0.0476074	-1.05518	0.10813	-0.0436438	-0.257601	-0.95919	2.10803	4.51681	9.27476	0.00532436	0.00603907	-0.0174939	-0.632324	-0.423584	-0.896729	0.0295275	0.892343	-0.0918366	-0.440928	-7.0476	1.55032	-5.87801	0.0100768	0.0117376	0.00061635	0.969482	-0.184082	0.394775	0.0253758	-0.13127	-0.081409	-0.987672	2.59517	1.5449	9.36903	-0.00493987	0.002226	-0.00432967	-0.630859	-0.0134277	-0.89502	
16	0.183817	0.0688084	-0.0200557	-0.980344	-1.39757	0.762436	10.9064	-0.00561173	-0.00794032	0.000354133	-0.221191	0.076416	-1.12769	0.180515	0.295243	0.12167	-0.930292	-5.92319	-1.17677	7.9809	-0.010239	0.00740367	-0.0207596	0.491211	0.181885	-0.944336	0.00443013	0.21367	-0.120523	-0.969433	-4.45278	2.48374	9.41177	-0.00386405	0.0028695	-0.00269118	0.0187988	-0.357422	-1.07007	-0.22664	0.224468	-0.303549	-0.897834	-5.29375	4.35126	7.02041	-0.0161953	0.00201997	0.00791764	0.263916	-0.635742	-0.809814	0.0578908	0.193824	0.286932	-0.93635	-3.85512	-4.9648	7.38497	-0.0119663	0.00147339	-0.0132168	0.192139	0.57959	-0.869141	-0.601237	0.00784438	-0.428211	0.674602	-5.78701	-6.67217	7.72751	-0.00596291	0.0209335	-0.0144405	0.349854	0.913574	-0.415527	0.0951347	-0.173281	0.0137609	-0.98017	3.49372	-0.530417	9.89298	0.00500666	0.0308034	-0.00107557	-0.657471	0.118164	-0.825439	0.281679	-0.0111375	-0.0431127	-0.958475	0.489153	0.82341	11.079	-0.00182002	0.0197278	-0.0127878	-0.490723	-0.0541992	-1.05273	0.108139	-0.0437211	-0.257919	-0.9591	2.11155	4.5694	9.19134	0.0183147	0.00435344	-0.0187874	-0.632324	-0.418945	-0.894531	0.0292268	0.892285	-0.0919309	-0.441046	-7.10037	1.58861	-5.86664	0.0105564	0.00697397	-0.0020332	0.964844	-0.179688	0.390137	0.0252774	-0.131257	-0.0812094	-0.987693	2.58901	1.55747	9.38294	-0.00879536	0.00939955	-0.00687874	-0.628662	-0.015625	-0.899414	
17	0.183857	0.0687943	-0.0197068	-0.980345	-1.38666	0.732165	10.9335	-0.0137547	-0.0001527	0.00142328	-0.230225	0.0805664	-1.12988	0.180498	0.295186	0.121678	-0.930312	-5.90236	-1.21466	7.94651	-0.00765865	0.0127174	-0.0202213	0.489258	0.17749	-0.946533	0.00433804	0.213582	-0.120398	-0.969468	-4.39721	2.45998	9.39661	-0.00517237	0.00257581	-0.003687	0.0251465	-0.351074	-1.06787	-0.226588	0.224415	-0.303301	-0.897944	-5.23031	4.32197	7.00121	-0.00624193	0.00263039	0.00314503	0.263672	-0.633545	-0.810059	0.0581386	0.193711	0.287804	-0.93609	-3.83569	-5.00485	7.4023	-0.0409474	0.00723306	-0.0155117	0.189697	0.58374	-0.855469	-0.601255	0.00786407	-0.428401	0.674465	-5.79837	-6.67712	7.71393	-0.000228928	0.0199838	-0.017003	0.349854	0.915771	-0.411133	0.0954088	-0.173527	0.0141349	-0.980095	3.4634	-0.542255	9.93175	0.00208862	-0.00665181	2.33524e-05	-0.660156	0.126953	-0.827881	0.281819	-0.0110554	-0.0436994	-0.958408	0.499956	0.844631	11.0497	0.0283252	0.0150505	-0.00900057	-0.49292	-0.052002	-1.0459	0.108156	-0.0437724	-0.258001	-0.959073	2.12888	4.57459	9.22275	0.0044874	0.00840622	-0.0204257	-0.636963	-0.421387	-0.898926	0.0290717	0.892275	-0.09176	-0.441112	-7.05976	1.56072	-5.86441	0.00580513	0.0125611	-0.00759775	0.973877	-0.181641	0.390137	0.0252424	-0.131274	-0.0809006	-0.987717	2.59467	1.51044	9.33041	-0.0110148	0.00919791	-0.00224153	-0.631104	-0.0112305	-0.899658	
18	0.183866	0.0686889	-0.0194041	-0.980356	-1.39112	0.680963	10.9292	-0.0102905	-0.00918242	-2.45253e-06	-0.228271	0.0871582	-1.12769	0.180505	0.295153	0.121891	-0.930293	-5.89491	-1.23865	8.05172	-0.0230956	0.015153	-0.0225714	0.495605	0.181885	-0.941895	0.00425981	0.213684	-0.120579	-0.969423	-4.43309	2.4198	9.36865	0.0115895	0.0108162	-0.00480817	0.0273438	-0.353271	-1.06104	-0.226587	0.224389	-0.303125	-0.898011	-5.24495	4.31829	7.02112	-0.00417503	0.00514388	0.000666136	0.268066	-0.631348	-0.810059	0.058065	0.193629	0.287835	-0.936102	-3.90441	-5.11913	7.33462	0.0176774	0.00524808	-0.0173758	0.191895	0.586182	-0.860107	-0.601255	0.00786407	-0.428401	0.674465	-5.79837	-6.67712	7.71393	-0.000228928	0.0199838	-0.017003	0.349854	0.915771	-0.411133	0.0955735	-0.173591	0.014284	-0.980065	3.58568	-0.459188	9.92027	0.00765149	0.0274063	-0.0126008	-0.657715	0.124756	-0.825684	0.28182	-0.0110541	-0.0432504	-0.958428	0.440948	0.852276	11.153	-0.0208972	0.0210313	-0.0181636	-0.495117	-0.0498047	-1.05518	0.107939	-0.0435946	-0.258085	-0.959083	2.11278	4.59648	9.259	0.00629955	0.00861067	-0.0203059	-0.639404	-0.416748	-0.898926	0.0289017	0.892318	-0.0915414	-0.441082	-7.06782	1.58911	-5.85261	-0.0018012	0.0166803	-0.00900409	0.969482	-0.184082	0.387939	0.0254484	-0.131288	-0.0808284	-0.987716	2.57442	1.47134	9.37179	0.00170513	0.00900762	0.00587752	-0.628662	-0.0134277	-0.901855	
19	0.184146	0.06872	-0.0193216	-0.980303	-1.44323	0.647982	10.9267	-0.000346415	-0.00199199	0.0168833	-0.22583	0.0830078	-1.13428	0.180923	0.295267	0.122095	-0.930149	-5.91188	-1.24799	7.98224	-0.00260415	0.0167753	-0.00499841	0.495605	0.179688	-0.939453	0.00406006	0.213849	-0.120781	-0.969363	-4.49675	2.46352	9.43963	-0.000911592	0.0135106	-0.00348906	0.0251465	-0.353271	-1.06543	-0.226494	0.22434	-0.302906	-0.89812	-5.32488	4.27603	7.06892	-0.0089896	0.00272492	0.00362985	0.267822	-0.626953	-0.814453	0.0578795	0.193685	0.28722	-0.936291	-3.73549	-4.98819	7.45278	0.0199055	0.0104887	-0.0136919	0.191895	0.586182	-0.860107	-0.601054	0.00800686	-0.428758	0.674416	-5.78833	-6.71572	7.69604	-0.00177803	0.0149426	-0.0181556	0.355957	0.922363	-0.40918	0.0956015	-0.172719	0.0148714	-0.980208	3.42684	-0.615188	9.85694	0.00185095	0.0570818	-0.00637708	-0.655518	0.122559	-0.823486	0.281972	-0.0111168	-0.0432464	-0.958383	0.521163	0.843195	11.0608	0.00683312	0.023702	-0.00667997	-0.488525	-0.052002	-1.05518	0.107739	-0.0434398	-0.258072	-0.959116	2.12332	4.59221	9.2277	0.0023424	0.00837487	-0.0195303	-0.632324	-0.421387	-0.896729	0.0287872	0.89229	-0.0913912	-0.441178	-7.12896	1.52901	-5.85559	0.00113547	0.00974991	-0.00384749	0.973877	-0.179443	0.392334	0.0257306	-0.13133	-0.0809184	-0.987696	2.57531	1.50919	9.37643	0.00431665	0.00599665	0.00734729	-0.624023	-0.0178223	-0.899414	
20	0.18405	0.0687244	-0.0194034	-0.980319	-1.40572	0.642338	10.9057	0.0056841	-0.00376624	-0.00903801	-0.225586	0.0808105	-1.13428	0.180771	0.29531	0.121924	-0.930188	-5.938	-1.22739	7.96498	0.00748758	0.0106795	-0.0262055	0.495605	0.179688	-0.944092	0.0040133	0.213919	-0.120859	-0.969338	-4.46867	2.44382	9.40549	0.0101948	0.00744134	0.000400589	0.0229492	-0.357422	-1.06763	-0.226616	0.224286	-0.302672	-0.898182	-5.29107	4.29236	7.01848	0.000509377	0.00118326	-0.00226043	0.268066	-0.631348	-0.807861	0.057989	0.193694	0.287625	-0.936158	-3.76284	-4.91084	7.44626	-0.0352107	0.0104527	-0.0124866	0.194336	0.57959	-0.860107	-0.601091	0.00807265	-0.428594	0.674486	-5.76736	-6.74011	7.69697	0.0139846	0.013156	-0.019448	0.354004	0.920166	-0.411377	0.0956341	-0.172711	0.0151907	-0.980201	3.3964	-0.596054	9.89083	0.00923623	-0.0104435	-0.0142796	-0.655762	0.126953	-0.823486	0.282071	-0.0112065	-0.0434408	-0.958344	0.475711	0.806333	11.1229	0.00160565	0.00779479	-0.0149078	-0.495117	-0.052002	-1.05762	0.107713	-0.0434856	-0.257782	-0.959195	2.10148	4.5492	9.24606	-0.0054134	0.00692419	-0.0195993	-0.634766	-0.419189	-0.892334	0.0287031	0.892294	-0.0912679	-0.4412	-7.06994	1.48484	-5.89641	0.00182078	0.0189886	-0.00332197	0.969238	-0.179688	0.394775	0.0257849	-0.131355	-0.0808964	-0.987693	2.604	1.4965	9.36764	0.000122123	0.00617857	0.00254374	-0.626465	-0.0134277	-0.901855	
21	0.183966	0.0687328	-0.0194619	-0.980333	-1.40564	0.723162	10.9131	0.00526478	-0.00509455	-0.00620291	-0.228027	0.0852051	-1.13867	0.180643	0.29528	0.121881	-0.930227	-5.88721	-1.19366	7.95975	0.000350293	0.0112867	-0.0281657	0.493164	0.186279	-0.942139	0.00398554	0.213931	-0.120984	-0.96932	-4.46218	2.48924	9.41324	0.00989909	0.00668305	1.09927e-05	0.0229492	-0.355225	-1.06543	-0.226699	0.224244	-0.302442	-0.898249	-5.28053	4.31933	7.04467	-0.0141565	0.00204691	-0.00160049	0.263672	-0.633545	-0.814453	0.0577375	0.193872	0.288391	-0.935901	-3.85174	-5.09422	7.33565	-0.0297033	0.01728	-0.020254	0.189697	0.583984	-0.866943	-0.601138	0.00794426	-0.428466	0.674526	-5.81271	-6.61943	7.70547	0.0189435	0.0170853	-0.0142649	0.351807	0.922119	-0.411377	0.0956862	-0.172936	0.0150689	-0.980158	3.44763	-0.567157	9.8775	0.0223991	-0.00505618	-0.0127829	-0.651611	0.131348	-0.825684	0.282093	-0.0112064	-0.0430904	-0.958353	0.470606	0.767152	11.1269	-0.0231984	0.0257385	-0.0149858	-0.49292	-0.0498047	-1.04834	0.107708	-0.0435257	-0.257718	-0.959211	2.09891	4.53091	9.2616	-2.10643e-05	0.00624365	-0.0195197	-0.632568	-0.416748	-0.894531	0.0286541	0.892309	-0.0912258	-0.441183	-7.07169	1.52413	-5.8689	0.00437067	0.0148017	-0.00247713	0.97168	-0.181885	0.385498	0.0256038	-0.131147	-0.0808853	-0.987726	2.58066	1.50003	9.3837	-0.000579041	0.0117217	-0.00926563	-0.631104	-0.0112305	-0.890381	
22	0.184011	0.0686781	-0.0196517	-0.980325	-1.42024	0.713027	10.9462	0.00524887	-0.00980034	0.00288244	-0.223389	0.0786133	-1.13208	0.180608	0.295012	0.122023	-0.9303	-5.95816	-1.2145	7.96151	-0.0106814	-0.00025301	-0.0213177	0.486816	0.184082	-0.948975	0.00381362	0.213784	-0.12069	-0.969389	-4.45466	2.40725	9.39269	-0.00741985	0.000946164	-0.00153768	0.0251465	-0.355469	-1.06323	-0.226709	0.224307	-0.302101	-0.898345	-5.25707	4.24687	7.04324	-0.00932158	0.00627852	-0.00143575	0.272461	-0.631348	-0.814453	0.0576783	0.193883	0.287217	-0.936263	-3.90844	-4.89318	7.39329	0.0375769	0.00184704	-0.0086667	0.196289	0.581787	-0.864746	-0.601234	0.00788412	-0.428551	0.674388	-5.82857	-6.64734	7.73112	-0.00160074	0.0198712	-0.00991125	0.352051	0.917969	-0.411377	0.0957984	-0.172872	0.0151249	-0.980158	3.43361	-0.539382	9.93855	0.005557	0.015058	-0.0104593	-0.655762	0.126953	-0.823486	0.282113	-0.0112355	-0.0433586	-0.958335	0.473753	0.815319	11.1233	0.0240073	0.0106487	-0.0135747	-0.49707	-0.0541992	-1.05273	0.107697	-0.0436194	-0.257826	-0.959179	2.09532	4.56164	9.23436	0.00979288	0.00298833	-0.0195855	-0.637207	-0.414551	-0.896729	0.0285406	0.892312	-0.0911923	-0.44119	-7.05831	1.5293	-5.90434	0.0023658	0.0114737	-0.0032286	0.971436	-0.179688	0.392334	0.0254694	-0.130953	-0.0806394	-0.987775	2.554	1.50302	9.38482	-0.00999424	0.0170372	-0.00582549	-0.637939	-0.0090332	-0.901855	
23	0.183888	0.0687179	-0.0196524	-0.980345	-1.43301	0.711838	10.9311	-0.000935745	-0.00361453	-0.00681711	-0.230225	0.0805664	-1.13208	0.180609	0.29451	0.122117	-0.930447	-5.89636	-1.1849	7.98501	-0.0147329	-0.00510739	-0.0235556	0.486816	0.184082	-0.939697	0.0038406	0.213757	-0.120769	-0.969385	-4.41022	2.4304	9.40986	0.00529006	0.00368685	0.0036703	0.0229492	-0.353027	-1.06787	-0.226771	0.224326	-0.302039	-0.898346	-5.24409	4.26328	7.05026	-0.00272946	0.00526797	-0.00374152	0.265869	-0.631348	-0.812256	0.0577959	0.193826	0.288307	-0.935933	-3.81636	-5.01922	7.39684	-0.0639436	0.0108453	-0.0211274	0.1875	0.583984	-0.862305	-0.601395	0.00792871	-0.428501	0.674276	-5.82184	-6.67565	7.6912	0.00654345	0.010171	-0.0162696	0.347412	0.922119	-0.40918	0.095839	-0.173098	0.015165	-0.980113	3.46755	-0.548621	9.8852	0.0198251	0.00222764	-0.0152735	-0.651367	0.124756	-0.825684	0.282217	-0.0112476	-0.0435773	-0.958294	0.501075	0.864088	11.1031	0.0202673	0.0124561	-0.00741545	-0.488525	-0.052002	-1.0459	0.10749	-0.0435013	-0.25807	-0.959142	2.11042	4.57862	9.23895	0.0127676	0.00565766	-0.0196066	-0.641602	-0.419189	-0.894531	0.0285004	0.892344	-0.0910038	-0.441167	-7.04853	1.56622	-5.86957	-0.0025146	0.015481	-0.00579169	0.969482	-0.184082	0.392578	0.0255762	-0.130794	-0.0804512	-0.987809	2.5524	1.47934	9.35185	-0.00288679	0.0142588	0.00293185	-0.628906	-0.0090332	-0.899658	
24	0.183835	0.0686755	-0.019617	-0.980359	-1.40705	0.748502	10.932	-0.00297175	-0.00722418	-0.00396562	-0.225586	0.0808105	-1.13843	0.180681	0.293981	0.122174	-0.930593	-5.86622	-1.21414	7.96779	-0.00898788	-0.00574205	-0.0187996	0.489014	0.184082	-0.941895	0.00396233	0.213817	-0.120924	-0.969352	-4.45038	2.47316	9.39006	0.00736769	0.00650999	0.0051764	0.0273438	-0.353271	-1.07007	-0.226796	0.224318	-0.301861	-0.898402	-5.2473	4.31539	7.06452	-0.00615129	0.00460806	0.0021027	0.268311	-0.635742	-0.81665	0.0579494	0.19374	0.288416	-0.935907	-3.8475	-5.08761	7.34322	0.0206822	0.00175023	-0.00712025	0.194092	0.581787	-0.862305	-0.601524	0.00802944	-0.428429	0.674206	-5.7575	-6.67721	7.68588	-0.00146988	0.00991709	-0.012312	0.352051	0.917969	-0.404785	0.0958696	-0.173092	0.0151186	-0.980112	3.47269	-0.54681	9.89793	0.0134893	0.0203137	-0.0135768	-0.653564	0.126953	-0.827637	0.282135	-0.0109942	-0.0434702	-0.958326	0.475926	0.844278	11.0881	-0.00540893	0.0181866	-0.0143169	-0.49707	-0.0563965	-1.04565	0.1075	-0.0435277	-0.25811	-0.959129	2.11097	4.58217	9.22176	0.00878142	0.00680661	-0.0189675	-0.634521	-0.423584	-0.896729	0.0285327	0.892353	-0.0908983	-0.441168	-7.07614	1.52886	-5.86493	-0.00400757	0.0141507	-0.00463444	0.969482	-0.184082	0.394775	0.0257038	-0.130759	-0.0804965	-0.987807	2.56378	1.46402	9.35852	0.00642646	0.0115675	0.00555823	-0.626465	-0.0112305	-0.901855	
25	0.183709	0.0685027	-0.0194269	-0.980398	-1.35721	0.716026	10.8936	-0.00725821	-0.00384356	-0.0064702	-0.221191	0.0808105	-1.12988	0.180781	0.293552	0.122243	-0.9307	-5.88206	-1.21737	7.95731	-0.015246	-0.00754941	-0.0185513	0.486816	0.184082	-0.941895	0.00412431	0.213843	-0.120905	-0.969348	-4.43902	2.46548	9.42964	-0.00417544	0.00498823	0.00680729	0.0273438	-0.359619	-1.06763	-0.226767	0.224329	-0.30169	-0.898463	-5.25136	4.26843	7.00884	-0.00475194	0.00570353	0.0010723	0.261475	-0.631348	-0.821045	0.057933	0.193731	0.287953	-0.936053	-3.80574	-4.98127	7.37903	0.00578737	0.00716599	-0.0131003	0.187744	0.581787	-0.862305	-0.601735	0.00817522	-0.428313	0.674089	-5.77435	-6.72329	7.69904	0.00310078	0.00674803	-0.0146839	0.352051	0.913574	-0.411133	0.0958878	-0.173072	0.0150829	-0.980114	3.45608	-0.553266	9.9273	0.0168324	0.014955	-0.0146678	-0.64917	0.126953	-0.827637	0.282234	-0.0110133	-0.0435387	-0.958294	0.466028	0.83784	11.1085	0.00713474	0.0173358	-0.0137005	-0.494873	-0.0563965	-1.05518	0.107329	-0.0433839	-0.258029	-0.959176	2.10563	4.58881	9.24271	0.000804382	0.00910261	-0.0176891	-0.634766	-0.418945	-0.896729	0.0285767	0.892426	-0.0908264	-0.441033	-7.09192	1.53103	-5.86849	-0.000152505	0.0146236	0.00119624	0.967041	-0.179688	0.390137	0.0258253	-0.130552	-0.0805289	-0.987828	2.59471	1.5087	9.36364	0.00248284	0.0118215	-0.0012704	-0.631104	-0.0090332	-0.899658	
26	0.183858	0.0684846	-0.0192875	-0.980374	-1.40139	0.676048	10.9336	-0.00431791	-0.00573018	0.00673947	-0.227783	0.0786133	-1.13208	0.180868	0.293436	0.122233	-0.930721	-5.84038	-1.24207	8.02592	-0.0103816	0.0100808	-0.0164324	0.48877	0.186279	-0.942139	0.00418018	0.213919	-0.120757	-0.96935	-4.45309	2.46913	9.41082	-0.0047551	0.00959125	-0.00333385	0.0273438	-0.353271	-1.06787	-0.226812	0.224292	-0.301638	-0.898479	-5.27345	4.34821	7.0502	-0.00388242	0.0038051	-0.000826046	0.268311	-0.635742	-0.81665	0.0580114	0.193707	0.288175	-0.935985	-3.83181	-5.01543	7.36324	-0.00828765	0.00809939	-0.014096	0.189941	0.577393	-0.860107	-0.601886	0.00813277	-0.428236	0.674004	-5.76542	-6.66901	7.69689	0.00704537	0.0139972	-0.0123522	0.354248	0.913574	-0.415527	0.0957307	-0.172821	0.0149927	-0.980175	3.46344	-0.566164	9.88398	0.00373306	0.0193056	-0.0135926	-0.653564	0.124756	-0.827637	0.282297	-0.0110824	-0.0435215	-0.958275	0.532866	0.825426	11.0935	0.000834848	0.0183984	-0.0129176	-0.495117	-0.0498047	-1.05298	0.107366	-0.0434253	-0.257926	-0.959198	2.12801	4.56514	9.23978	6.31788e-05	0.0088331	-0.0189616	-0.63208	-0.426025	-0.89209	0.0285212	0.892454	-0.0908215	-0.44098	-7.08285	1.49069	-5.90491	0.0109687	0.0119889	0.00162024	0.964844	-0.17749	0.394531	0.0258383	-0.130459	-0.0805496	-0.987838	2.57145	1.53128	9.38201	0.00234686	0.0128585	-0.00380487	-0.628662	-0.0134277	-0.901855	
27	0.183932	0.0684966	-0.0193236	-0.980359	-1.40036	0.687975	10.9091	0.00299829	-0.00376985	0.00276447	-0.227783	0.0808105	-1.13428	0.180829	0.293546	0.122456	-0.930664	-5.89522	-1.2134	7.99085	-0.012688	0.0186174	-0.0223711	0.484619	0.181885	-0.937256	0.00413652	0.213987	-0.120798	-0.96933	-4.44724	2.41358	9.39576	0.00657964	0.00952577	0.00119938	0.0229492	-0.355225	-1.06763	-0.22683	0.224263	-0.301332	-0.898584	-5.24898	4.23171	7.02888	-0.00800756	0.000692285	-0.00190433	0.268066	-0.62915	-0.812256	0.0580976	0.193669	0.28859	-0.935859	-3.8586	-5.05912	7.35274	-0.0170515	0.00843714	-0.0154501	0.189697	0.583984	-0.862305	-0.601949	0.00813016	-0.428271	0.673925	-5.79765	-6.64957	7.71009	-0.000662559	0.0174042	-0.0118452	0.356201	0.917969	-0.40918	0.0957581	-0.172923	0.0151146	-0.980153	3.47263	-0.550106	9.91801	0.010848	0.0104203	-0.013875	-0.651367	0.124756	-0.825684	0.282351	-0.0110164	-0.0435401	-0.958259	0.444676	0.814374	11.0926	0.00893108	0.0135798	-0.0144417	-0.490723	-0.0498047	-1.05518	0.107363	-0.0434365	-0.257816	-0.959227	2.10493	4.57634	9.2401	0.00233575	0.00869131	-0.0190158	-0.636963	-0.421387	-0.894531	0.0284672	0.892488	-0.090697	-0.440941	-7.04226	1.56024	-5.869	0.000444633	0.0131534	-0.00193608	0.973633	-0.177246	0.392334	0.0259151	-0.130351	-0.0804399	-0.98786	2.5495	1.46992	9.3758	-0.00106615	0.0130695	0.00187429	-0.635498	-0.0112305	-0.897217	
28	0.184054	0.0685469	-0.0193739	-0.980332	-1.42423	0.658042	10.8961	0.00315948	-0.00469619	0.00480796	-0.228027	0.0805664	-1.12769	0.180924	0.293505	0.122479	-0.930656	-5.90984	-1.22754	7.94615	-0.00670618	0.00985358	-0.0135231	0.489014	0.184082	-0.951416	0.00413325	0.214059	-0.121001	-0.969288	-4.50818	2.48108	9.40591	0.00606291	0.00927427	-0.000501865	0.029541	-0.357666	-1.06763	-0.227005	0.224175	-0.301406	-0.898537	-5.2926	4.29229	7.04266	0.00424581	0.00298578	-0.00255573	0.265869	-0.631348	-0.812256	0.0579283	0.193676	0.288378	-0.935934	-3.84543	-5.04347	7.40372	0.0158549	0.0101733	-0.0194501	0.185547	0.577393	-0.864746	-0.601848	0.00802194	-0.428383	0.673946	-5.80858	-6.67307	7.71439	0.00227939	0.0163209	-0.0110356	0.349854	0.913574	-0.411133	0.0958095	-0.172798	0.0151797	-0.980169	3.44257	-0.562758	9.87827	0.0132886	0.022126	-0.0117357	-0.657959	0.126953	-0.825684	0.282452	-0.011066	-0.0435038	-0.958231	0.480005	0.82525	11.0965	-0.000775687	0.0210919	-0.0137104	-0.49292	-0.052002	-1.05762	0.107376	-0.0434868	-0.257793	-0.95923	2.10538	4.57323	9.25624	0.0053062	0.0062118	-0.0183764	-0.639404	-0.419189	-0.894531	0.0283204	0.892524	-0.0906745	-0.440882	-7.06041	1.50458	-5.89826	0.00594642	0.0133523	-0.000869447	0.969482	-0.181885	0.401611	0.0259957	-0.130302	-0.0805029	-0.987859	2.52678	1.51781	9.37946	0.00432667	0.0107447	-0.000821724	-0.631104	-0.0112305	-0.897217	
29	0.184043	0.0685025	-0.0194591	-0.980335	-1.43376	0.671636	10.9182	0.00619981	-0.00918153	8.93053e-05	-0.225586	0.0786133	-1.13428	0.180907	0.293462	0.122441	-0.930678	-5.89825	-1.23709	7.96361	-0.00316728	0.0100129	-0.019548	0.489014	0.181885	-0.939453	0.00406677	0.214044	-0.121103	-0.969279	-4.48268	2.43962	9.39391	0.00722169	0.00358539	-0.00165991	0.0251465	-0.355225	-1.06763	-0.227084	0.224139	-0.301395	-0.898529	-5.26307	4.21963	7.02681	0.00563889	0.0047476	0.00033011	0.265625	-0.626953	-0.812256	0.0578752	0.193699	0.28826	-0.935969	-3.85228	-4.99943	7.35023	0.0089299	0.00982635	-0.0156128	0.187744	0.57959	-0.864746	-0.60169	0.00796257	-0.42838	0.674089	-5.82333	-6.6528	7.69337	0.00590056	0.0129411	-0.0159378	0.351807	0.922363	-0.407227	0.095822	-0.172735	0.015177	-0.980179	3.44163	-0.5786	9.93921	0.0147879	0.0191584	-0.014127	-0.653564	0.124756	-0.819092	0.282489	-0.0110438	-0.0435373	-0.958218	0.459887	0.825423	11.0631	0.00682698	0.0186888	-0.0139136	-0.49292	-0.0498047	-1.05518	0.107386	-0.0435184	-0.257817	-0.959221	2.10205	4.58577	9.23648	0.00741533	0.00657503	-0.0187369	-0.639404	-0.419189	-0.892334	0.0283103	0.892531	-0.0906088	-0.440883	-7.08376	1.51858	-5.902	0.000567306	0.0132726	-0.0030272	0.969238	-0.179688	0.390137	0.0260478	-0.130354	-0.0804356	-0.987856	2.52337	1.47614	9.3992	-0.00104506	0.00487052	-0.00286855	-0.619873	-0.0090332	-0.897217	
30	0.183965	0.068498	-0.0195297	-0.980349	-1.38834	0.698081	10.9271	0.00581914	-0.00631221	-0.00543909	-0.223633	0.0808105	-1.12549	0.180843	0.293313	0.122374	-0.930746	-5.88658	-1.20862	8.00302	-0.00372827	0.00612004	-0.0208731	0.489014	0.184082	-0.944336	0.00401132	0.21397	-0.121183	-0.969286	-4.45939	2.45936	9.40081	0.0068739	-0.000924242	-0.00233624	0.0229492	-0.357422	-1.06543	-0.227127	0.224099	-0.301575	-0.898469	-5.26416	4.26765	7.04418	0.0168778	0.00725845	0.00208718	0.265869	-0.62915	-0.81665	0.058007	0.193601	0.288353	-0.935952	-3.86956	-5.02861	7.3638	-0.00492232	0.00217379	-0.0114869	0.191895	0.583984	-0.860107	-0.601729	0.00800666	-0.428467	0.673998	-5.80524	-6.64441	7.69108	-0.00446093	0.0185804	-0.0142098	0.354004	0.917969	-0.41333	0.0958217	-0.172664	0.0151529	-0.980192	3.47046	-0.564472	9.88803	0.0153796	0.0222672	-0.01589	-0.657959	0.126953	-0.829834	0.282577	-0.0110788	-0.0435065	-0.958193	0.474721	0.796634	11.0932	0.00203161	0.0167845	-0.0130914	-0.488525	-0.0541992	-1.05518	0.10743	-0.0436171	-0.257746	-0.959231	2.10404	4.56021	9.23106	0.00228881	0.00655389	-0.01767	-0.634521	-0.423584	-0.896729	0.0283413	0.892465	-0.0905737	-0.441022	-7.09425	1.49157	-5.88404	-0.0021067	0.00854663	0.00317694	0.967285	-0.181885	0.396973	0.026029	-0.130446	-0.0804673	-0.987842	2.53973	1.47192	9.37814	0.00369831	9.10395e-05	-0.00469674	-0.621826	-0.0134277	-0.897217	
31	0.183795	0.0684468	-0.01959	-0.980383	-1.41865	0.727704	10.9202	-0.000825169	-0.00564977	-0.00393226	-0.221436	0.0852051	-1.13428	0.18099	0.293141	0.122472	-0.930759	-5.85734	-1.24275	7.99611	-0.0144502	0.00849092	-0.0149751	0.486816	0.181885	-0.939453	0.00407435	0.213923	-0.121293	-0.969282	-4.43966	2.45076	9.43489	-0.00214355	0.00587832	0.00272893	0.0229492	-0.355225	-1.06323	-0.227147	0.224002	-0.301839	-0.898399	-5.25323	4.31647	7.06689	0.00675535	0.00573418	0.00211989	0.261475	-0.633545	-0.810059	0.0578362	0.193548	0.288629	-0.935889	-3.8183	-5.01446	7.38757	-0.0101677	0.00512656	-0.0164634	0.193848	0.588379	-0.860107	-0.601572	0.00809967	-0.428679	0.674003	-5.80305	-6.67259	7.70233	-0.00587965	0.0140507	-0.0153198	0.351807	0.920166	-0.40918	0.0956923	-0.17224	0.0148342	-0.980284	3.46089	-0.560881	9.90582	0.0201834	0.0230727	-0.0149618	-0.64917	0.126953	-0.827637	0.282651	-0.0110732	-0.0435367	-0.95817	0.472538	0.825862	11.0951	0.00331457	0.0180247	-0.0155994	-0.490479	-0.0563965	-1.05273	0.107262	-0.0434579	-0.257778	-0.959248	2.10863	4.57042	9.25238	0.00426209	0.00872519	-0.0180515	-0.639404	-0.419189	-0.894531	0.0284243	0.892387	-0.0904893	-0.44119	-7.0619	1.53003	-5.87355	0.00172886	0.00896751	0.000818802	0.960449	-0.184082	0.390137	0.0260623	-0.130696	-0.0805008	-0.987805	2.60836	1.48764	9.37655	0.00420299	0.00542595	-0.000136461	-0.626465	-0.0112305	-0.901855	
32	0.183816	0.0683899	-0.0195638	-0.980383	-1.3806	0.737501	10.9155	-0.00134274	-0.00802956	0.00354493	-0.227783	0.0808105	-1.13428	0.181061	0.29323	0.122465	-0.930718	-5.87354	-1.23322	7.98456	-0.00375801	0.0196564	-0.0135971	0.48877	0.186279	-0.944336	0.00410011	0.213924	-0.121304	-0.969281	-4.44207	2.4645	9.39171	0.000144255	0.0059844	0.00215179	0.0251465	-0.357422	-1.06763	-0.227203	0.223997	-0.301908	-0.898363	-5.26788	4.32166	7.0559	0.00717829	0.00752171	-0.00120857	0.268311	-0.637939	-0.816406	0.0578918	0.193525	0.288691	-0.935871	-3.8409	-5.05664	7.37271	0.00143128	0.00691273	-0.0136562	0.1875	0.586182	-0.862305	-0.601717	0.008171	-0.428649	0.673891	-5.79068	-6.68479	7.70342	0.00133396	0.0123886	-0.0122803	0.356201	0.920166	-0.40918	0.0956938	-0.172222	0.0147706	-0.980288	3.4651	-0.55958	9.88687	0.0160921	0.0198492	-0.0158784	-0.653564	0.126953	-0.829834	0.28271	-0.011126	-0.0434409	-0.958157	0.503145	0.839607	11.1489	0.00132122	0.0186713	-0.0132513	-0.492676	-0.0563965	-1.05273	0.107274	-0.043469	-0.257765	-0.95925	2.11023	4.57583	9.26108	0.004627	0.00854825	-0.019079	-0.643799	-0.421387	-0.894531	0.0284174	0.892398	-0.0904376	-0.44118	-7.10662	1.51479	-5.87824	0.000811967	0.0145884	-0.00227123	0.97168	-0.181885	0.394775	0.0261123	-0.130687	-0.0805108	-0.987804	2.60688	1.51384	9.3623	0.0027562	0.00889299	0.000570628	-0.626465	-0.0112305	-0.899658	
33	0.18399	0.0684127	-0.0195499	-0.980349	-1.41807	0.677115	10.9284	-0.000470791	-0.00127029	0.00663724	-0.230225	0.0827637	-1.13208	0.181162	0.293319	0.12245	-0.930672	-5.89915	-1.21807	8.0244	-0.00801088	0.021153	-0.0148035	0.48877	0.188477	-0.942139	0.00407723	0.213973	-0.121322	-0.969268	-4.46289	2.45916	9.42023	0.00278086	0.0071458	-0.00174832	0.0273438	-0.353271	-1.06323	-0.22729	0.224042	-0.301942	-0.898318	-5.25905	4.2749	7.06697	0.00660469	0.00808367	-0.000806859	0.268066	-0.62915	-0.818848	0.0578636	0.193506	0.288501	-0.935935	-3.81891	-5.02157	7.38992	0.00674339	0.00632822	-0.0140124	0.187744	0.581787	-0.860107	-0.601876	0.00821975	-0.428727	0.673699	-5.80173	-6.67881	7.69715	0.000916516	0.0168922	-0.0102659	0.354004	0.920166	-0.411377	0.0956662	-0.172099	0.0147072	-0.980313	3.46128	-0.538963	9.92104	0.0174926	0.019325	-0.0182432	-0.65332	0.120361	-0.829834	0.28278	-0.0110851	-0.0436227	-0.958128	0.505592	0.84503	11.0784	0.0127795	0.0175645	-0.0137282	-0.49707	-0.0541992	-1.05737	0.10686	-0.0431791	-0.257926	-0.959266	2.11359	4.58366	9.24424	0.00622384	0.00720235	-0.0195646	-0.639648	-0.414551	-0.894531	0.0284544	0.892467	-0.0904265	-0.44104	-7.09346	1.53169	-5.88563	8.55356e-05	0.0130885	0.00114159	0.967041	-0.179688	0.392334	0.0261504	-0.130668	-0.080524	-0.987805	2.57374	1.49491	9.38056	0.00390481	0.00824742	-0.00347426	-0.626221	-0.015625	-0.904053	
34	0.184022	0.0684765	-0.0196151	-0.980338	-1.38872	0.683098	10.9058	0.00486634	-0.00298025	0.00170878	-0.227783	0.0786133	-1.13428	0.181141	0.293556	0.122413	-0.930606	-5.93537	-1.24425	7.95525	-0.00483562	0.0219595	-0.0196745	0.486816	0.184082	-0.941895	0.00397394	0.213963	-0.121332	-0.969269	-4.44345	2.49457	9.39997	-0.00429972	-0.00042219	-0.00124797	0.0273438	-0.357422	-1.07007	-0.227319	0.224053	-0.302001	-0.898288	-5.28909	4.27625	7.01495	0.00676208	0.00832014	8.33663e-06	0.265869	-0.631348	-0.812256	0.0579159	0.193482	0.288862	-0.935826	-3.83721	-5.01875	7.39079	-0.0214525	0.00906193	-0.0161946	0.189453	0.590576	-0.864746	-0.601986	0.00818866	-0.428763	0.673578	-5.81119	-6.65007	7.69245	0.00498108	0.0183416	-0.0140043	0.349854	0.917969	-0.406982	0.0955939	-0.172196	0.0146559	-0.980304	3.42767	-0.560365	9.92911	0.0168304	0.00582382	-0.0178175	-0.657715	0.124756	-0.827637	0.282855	-0.0110892	-0.043639	-0.958105	0.49763	0.826927	11.0694	0.00442259	0.013582	-0.0133935	-0.494873	-0.0541992	-1.05518	0.106879	-0.043213	-0.25778	-0.959301	2.12548	4.57662	9.22666	-0.00237756	0.00977772	-0.0187103	-0.634521	-0.421387	-0.896729	0.0284567	0.892446	-0.0904098	-0.441085	-7.05851	1.52307	-5.9202	0.00315664	0.00950648	0.00117664	0.971436	-0.179688	0.394775	0.0260715	-0.130716	-0.0804431	-0.987807	2.55221	1.50002	9.35683	-0.00312807	0.00501928	-0.00452841	-0.624268	-0.0090332	-0.904053	
35	0.183859	0.0685126	-0.019752	-0.980363	-1.38083	0.697784	10.911	0.0046357	-0.00286436	-0.00841961	-0.228027	0.0830078	-1.13428	0.181096	0.293739	0.122705	-0.930519	-5.88081	-1.1606	7.90535	-0.0131439	0.0237456	-0.0201029	0.48877	0.186279	-0.944336	0.0039922	0.213921	-0.121395	-0.96927	-4.51036	2.49296	9.39549	-0.00041385	0.000737703	-0.00043886	0.0251465	-0.357422	-1.06763	-0.227524	0.224045	-0.302326	-0.898129	-5.28032	4.30112	7.04018	0.0116816	0.00543783	-0.0023527	0.265869	-0.631348	-0.814453	0.0578641	0.193439	0.288696	-0.935889	-3.88886	-5.08152	7.36293	0.018837	0.0049707	-0.0144621	0.185547	0.581543	-0.860107	-0.601829	0.00813739	-0.428902	0.673631	-5.84492	-6.64893	7.69304	0.000575126	0.0159601	-0.013735	0.356201	0.920166	-0.405029	0.0955359	-0.172125	0.0145505	-0.980323	3.41131	-0.539442	9.93064	0.0161475	0.0211005	-0.0177079	-0.653564	0.124756	-0.825684	0.282844	-0.011054	-0.0434198	-0.958119	0.448677	0.82049	11.1143	-0.0072984	0.0241587	-0.0175729	-0.495117	-0.052002	-1.0459	0.106879	-0.043213	-0.25778	-0.959301	2.12548	4.57662	9.22666	-0.00237756	0.00977772	-0.0187103	-0.634521	-0.421387	-0.896729	0.0284807	0.892434	-0.0903264	-0.441125	-7.04555	1.5492	-5.88011	-0.0038409	0.0100646	-0.00107409	0.968994	-0.173096	0.394531	0.0260515	-0.130825	-0.0804472	-0.987793	2.55097	1.50077	9.40308	0.000801926	0.00378982	-0.00242166	-0.630859	-0.015625	-0.899414	
36	0.183984	0.06869	-0.019785	-0.980326	-1.47876	0.711812	10.9314	0.00388005	0.00107387	0.0163411	-0.228027	0.0849609	-1.12988	0.181251	0.293834	0.122549	-0.930479	-5.84427	-1.22398	8.06197	0.00208342	0.0196759	-0.00943718	0.486816	0.186279	-0.937256	0.00394501	0.21382	-0.12096	-0.969347	-4.43825	2.46355	9.38761	-0.0200448	0.0029252	-0.00370128	0.0273438	-0.355469	-1.06323	-0.227582	0.22399	-0.302527	-0.89806	-5.25944	4.31618	7.06894	0.0117384	0.00694762	0.00130793	0.270508	-0.635742	-0.81665	0.0577906	0.193434	0.288409	-0.935983	-3.77247	-4.99283	7.43138	-0.000746541	0.00621101	-0.0115651	0.1875	0.583984	-0.860107	-0.601943	0.00832427	-0.429094	0.673404	-5.80025	-6.68064	7.70825	-0.0100968	0.0165681	-0.0147695	0.354004	0.920166	-0.40918	0.0953943	-0.172476	0.0147686	-0.980272	3.50689	-0.542756	9.87521	-9.66869e-05	0.00448072	-0.0201687	-0.655762	0.126953	-0.825684	0.283013	-0.0111521	-0.0435301	-0.958063	0.508804	0.834776	11.0543	0.00889099	0.0191149	-0.00831045	-0.488281	-0.0563965	-1.05737	0.106513	-0.0428826	-0.257745	-0.959366	2.11619	4.57126	9.20792	0.00632274	0.0105758	-0.0189865	-0.634521	-0.423584	-0.896729	0.0284377	0.892392	-0.0902407	-0.44123	-7.09057	1.53395	-5.86417	0.00383521	0.00882199	-0.00345714	0.969482	-0.186279	0.392578	0.0261679	-0.130938	-0.0804192	-0.987777	2.58976	1.48756	9.36738	-0.000217328	0.00340036	0.00415824	-0.630859	-0.0134277	-0.897217	
37	0.184017	0.06861	-0.0198271	-0.980325	-1.42594	0.684576	10.922	0.00249953	-0.0112708	0.00292219	-0.223389	0.0808105	-1.12769	0.181353	0.294049	0.1226	-0.930385	-5.88672	-1.20429	8.03564	-0.00948233	0.0319979	-0.00848573	0.489014	0.181885	-0.939453	0.00380864	0.213911	-0.121094	-0.969311	-4.45212	2.43078	9.40362	0.0149174	0.00894532	-0.00319066	0.0229492	-0.357422	-1.07007	-0.227638	0.224038	-0.302608	-0.898007	-5.27004	4.30055	7.0186	0.00685332	0.0103001	-0.0010378	0.266113	-0.635742	-0.814209	0.0577906	0.193434	0.288409	-0.935983	-3.77247	-4.99283	7.43138	-0.000746541	0.00621101	-0.0115651	0.1875	0.583984	-0.860107	-0.601943	0.00832427	-0.429094	0.673404	-5.80025	-6.68064	7.70825	-0.0100968	0.0165681	-0.0147695	0.354004	0.920166	-0.40918	0.0953943	-0.172476	0.0147686	-0.980272	3.50689	-0.542756	9.87521	-9.66869e-05	0.00448072	-0.0201687	-0.655762	0.126953	-0.825684	0.283025	-0.0111408	-0.0436023	-0.958056	0.486058	0.841597	11.0701	0.00917101	0.0166379	-0.0161503	-0.494873	-0.0541992	-1.05273	0.106513	-0.0428826	-0.257745	-0.959366	2.11619	4.57126	9.20792	0.00632274	0.0105758	-0.0189865	-0.634521	-0.423584	-0.896729	0.0284377	0.892392	-0.0902407	-0.44123	-7.09057	1.53395	-5.86417	0.00383521	0.00882199	-0.00345714	0.969482	-0.186279	0.392578	0.0262162	-0.130981	-0.0804252	-0.987769	2.60655	1.46647	9.35065	0.00220037	0.00517483	0.000974087	-0.630859	-0.015625	-0.901855	
38	0.183951	0.068627	-0.0198424	-0.980336	-1.39414	0.714033	10.9034	-0.000781475	-0.0015446	0.004833	-0.228027	0.0808105	-1.12988	0.181061	0.294471	0.122791	-0.930283	-5.91957	-1.22526	7.97883	-0.00765748	0.0188314	-0.0210263	0.490967	0.186279	-0.946777	0.00376914	0.21391	-0.121298	-0.969286	-4.46734	2.5258	9.44768	0.00144919	0.00282528	-0.00084921	0.0273438	-0.353271	-1.07007	-0.227817	0.224154	-0.30271	-0.897898	-5.31427	4.31515	7.04632	0.00676043	0.0116724	-0.00734675	0.263916	-0.635742	-0.812012	0.0573728	0.193553	0.289003	-0.935801	-3.82515	-5.06857	7.37294	-0.0141452	0.0107786	-0.0171631	0.191895	0.581787	-0.860107	-0.601981	0.00839369	-0.4291	0.673366	-5.80158	-6.69379	7.66954	0.00705317	0.0102405	-0.00808043	0.352051	0.917969	-0.411377	0.0951572	-0.17251	0.0145357	-0.980293	3.45636	-0.554566	9.87061	0.025201	0.0129712	-0.0196421	-0.659912	0.124756	-0.825684	0.283102	-0.0112532	-0.0434971	-0.958037	0.529964	0.823137	11.0922	0.0139664	0.0139743	-0.0117381	-0.499023	-0.060791	-1.05029	0.105874	-0.0424397	-0.25783	-0.959434	2.10034	4.57559	9.26052	0.0031143	0.00733603	-0.0197252	-0.641846	-0.416748	-0.898926	0.0285105	0.892588	-0.0900957	-0.440858	-7.09796	1.53274	-5.89305	0.00057157	0.0177998	0.000330671	0.97168	-0.181885	0.390137	0.02623	-0.130794	-0.0804289	-0.987794	2.57402	1.52598	9.40094	0.00223796	0.0173774	-0.00419828	-0.626465	-0.0090332	-0.906494	
39	0.183985	0.0686555	-0.0198302	-0.980328	-1.41176	0.682296	10.9204	-0.000488237	-0.00192794	0.00295626	-0.221191	0.0786133	-1.13208	0.181088	0.294486	0.122947	-0.930252	-5.87016	-1.23253	7.98302	-0.012363	0.0194026	-0.0191692	0.486816	0.186279	-0.946777	0.00367498	0.213934	-0.120977	-0.969321	-4.4443	2.49048	9.43587	-0.0116883	0.00282149	-0.00670224	0.0251465	-0.357422	-1.06763	-0.227963	0.22424	-0.302546	-0.897895	-5.27718	4.31324	7.01495	-0.0110099	0.00584548	-0.00285675	0.268311	-0.633545	-0.814453	0.0573208	0.193627	0.288174	-0.936044	-3.83897	-4.97205	7.36618	0.0277537	0.00757269	-0.0115211	0.194092	0.583984	-0.866943	-0.602149	0.00835603	-0.429122	0.673202	-5.80853	-6.65358	7.7162	-0.000826843	0.0166179	-0.0079793	0.352051	0.917969	-0.411377	0.0949871	-0.172376	0.0143454	-0.980336	3.43828	-0.570553	9.96145	0.0157442	0.010117	-0.0227436	-0.655518	0.124756	-0.827637	0.283117	-0.0111977	-0.0436679	-0.958025	0.460283	0.818402	11.0826	0.0175171	0.0186236	-0.014358	-0.492676	-0.0563965	-1.05273	0.105882	-0.0424543	-0.257843	-0.959429	2.11871	4.55527	9.244	0.00700509	0.00809321	-0.0196872	-0.636963	-0.421387	-0.896729	0.0285536	0.892624	-0.0899514	-0.440814	-7.06014	1.5428	-5.88749	-0.000667726	0.0163942	-0.000496481	0.967041	-0.17749	0.394531	0.026256	-0.130508	-0.0803035	-0.987841	2.5516	1.49186	9.36418	-0.00321717	0.0203411	-0.00127909	-0.630859	-0.0134277	-0.90625	
40	0.183969	0.0687331	-0.0198348	-0.980325	-1.42419	0.706614	10.9175	0.00144562	-0.0033243	0.000381823	-0.22583	0.0808105	-1.12769	0.181085	0.294542	0.123068	-0.930219	-5.88329	-1.20931	7.98535	-0.014107	0.0211261	-0.0203329	0.486816	0.181885	-0.944336	0.00367989	0.213899	-0.12082	-0.969348	-4.42681	2.46624	9.41086	-0.0129335	0.00245914	-0.00194089	0.0251465	-0.353271	-1.07007	-0.227983	0.224289	-0.302477	-0.897901	-5.26544	4.25597	7.03378	-0.0047933	0.00858738	-0.00159582	0.263916	-0.637939	-0.812012	0.0572998	0.193612	0.288469	-0.935958	-3.83147	-5.01655	7.37086	-0.023497	0.00910152	-0.0205476	0.1875	0.583984	-0.860107	-0.602324	0.00827279	-0.429071	0.673079	-5.82238	-6.62411	7.6671	0.00567858	0.0143842	-0.0106124	0.351807	0.922363	-0.405029	0.0948685	-0.172673	0.0143593	-0.980295	3.46933	-0.547167	9.85874	0.0146684	0.00269538	-0.0198198	-0.655518	0.124756	-0.821289	0.28322	-0.01126	-0.0437041	-0.957992	0.489705	0.840142	11.1087	-0.00297358	0.0211472	-0.0129502	-0.494873	-0.0541992	-1.05737	0.105887	-0.0425179	-0.25785	-0.959423	2.10977	4.57886	9.22831	0.00544665	0.00834554	-0.0197632	-0.641846	-0.414551	-0.89917	0.0285322	0.892649	-0.0898749	-0.440778	-7.07717	1.54057	-5.90033	0.00127996	0.0167833	-0.00409402	0.964844	-0.179688	0.390137	0.0262637	-0.130435	-0.0802801	-0.987852	2.52799	1.47826	9.3615	-0.000366754	0.0140394	-0.00245632	-0.628906	-0.0090332	-0.897217	
41	0.183939	0.0687598	-0.0199006	-0.980328	-1.39533	0.71593	10.9272	0.00337935	-0.00472089	-0.00219257	-0.221191	0.0808105	-1.13208	0.181078	0.294493	0.123172	-0.930222	-5.90441	-1.19475	7.95903	-0.00672956	0.0109944	-0.020587	0.495361	0.184082	-0.941895	0.00370099	0.213788	-0.120653	-0.969394	-4.45369	2.40707	9.39947	-0.00144846	0.00368725	0.00016026	0.0251465	-0.353271	-1.07227	-0.228138	0.224243	-0.302548	-0.897849	-5.27509	4.27026	7.03785	0.00850176	0.00451904	-0.00377475	0.270508	-0.633545	-0.814453	0.0573371	0.193556	0.288671	-0.935905	-3.84571	-5.03367	7.3575	5.14927e-05	0.00493087	-0.016227	0.185303	0.588135	-0.860107	-0.602459	0.00831435	-0.429175	0.672892	-5.80682	-6.67781	7.6601	-0.00188396	0.0158786	-0.010564	0.354004	0.917969	-0.406982	0.0947579	-0.17237	0.0142666	-0.98036	3.45668	-0.535861	9.8915	0.0176882	0.0316336	-0.0212104	-0.657715	0.124756	-0.832031	0.283248	-0.0113916	-0.0435981	-0.957988	0.502622	0.846322	11.1081	0.00429002	0.0118867	-0.0129762	-0.49707	-0.052002	-1.05054	0.105936	-0.0425669	-0.257714	-0.959452	2.10686	4.59215	9.25377	-0.00208114	0.00907948	-0.017577	-0.644043	-0.419189	-0.896729	0.0285412	0.89265	-0.0897434	-0.440802	-7.08614	1.48076	-5.88873	0.00171108	0.0116828	-0.00189803	0.969238	-0.175293	0.39917	0.0263117	-0.130384	-0.0802263	-0.987862	2.54385	1.46787	9.36475	-0.00108317	0.00886444	-0.00199927	-0.631104	-0.0090332	-0.906494	
42	0.183754	0.0688059	-0.0199175	-0.980359	-1.3906	0.746431	10.8951	-0.000924	-0.00316928	-0.0113352	-0.221436	0.0830078	-1.12988	0.181093	0.294495	0.123235	-0.93021	-5.90852	-1.21647	7.92026	-0.00941104	0.0120753	-0.0181812	0.489014	0.181885	-0.941895	0.00364653	0.213785	-0.120786	-0.969378	-4.44567	2.50787	9.40256	0.00332332	0.00367131	-0.00186065	0.020752	-0.353027	-1.06323	-0.228208	0.224231	-0.30268	-0.89779	-5.29829	4.29061	7.03111	0.00573158	0.0085414	0.00241485	0.268066	-0.631348	-0.814453	0.0570259	0.193565	0.288563	-0.935955	-3.82653	-5.07602	7.37756	0.0068352	0.00755049	-0.0181776	0.189697	0.583984	-0.860107	-0.602329	0.00833294	-0.429294	0.672931	-5.84962	-6.69462	7.66988	-0.000810431	0.0132445	-0.014042	0.352051	0.917969	-0.411377	0.09467	-0.172518	0.0140703	-0.980345	3.4581	-0.522156	9.97487	0.0179662	-0.00389641	-0.018416	-0.657471	0.120361	-0.829834	0.283339	-0.0113977	-0.0435933	-0.957961	0.494209	0.819885	11.1058	0.00093073	0.0150167	-0.0131486	-0.495117	-0.0498047	-1.05054	0.105779	-0.0424598	-0.257623	-0.959499	2.11065	4.5709	9.258	-0.000910172	0.00762365	-0.0174629	-0.637207	-0.416748	-0.898926	0.0285861	0.892596	-0.0896996	-0.440918	-7.09084	1.50564	-5.90121	-0.00352238	0.00797878	0.00282509	0.969238	-0.17749	0.394531	0.0262696	-0.130433	-0.0800836	-0.987868	2.53823	1.48122	9.42427	-0.00373922	0.00505748	-0.00625978	-0.633301	-0.0090332	-0.901855	
43	0.183759	0.0689076	-0.0198637	-0.980352	-1.43348	0.712107	10.9436	-0.00169165	-0.00288364	0.000140113	-0.225586	0.0808105	-1.13428	0.181114	0.294459	0.12336	-0.930201	-5.88702	-1.24623	7.97678	-0.0131291	0.0142521	-0.0192726	0.491211	0.184082	-0.937256	0.00357617	0.213642	-0.120593	-0.969434	-4.42277	2.41531	9.40713	-0.00502184	-0.00141057	-0.00486987	0.0251465	-0.353271	-1.06543	-0.228228	0.224287	-0.302937	-0.897684	-5.24835	4.29315	7.03023	0.010823	0.0135489	0.00368556	0.270508	-0.633545	-0.81665	0.0571406	0.193571	0.288199	-0.936059	-3.84516	-5.00438	7.38051	0.00747415	0.00260858	-0.00461174	0.194092	0.583984	-0.866943	-0.602349	0.00828516	-0.429319	0.672899	-5.80824	-6.61245	7.68343	-0.000330267	0.0181097	-0.0158849	0.354004	0.920166	-0.411377	0.0945169	-0.172402	0.0140515	-0.980381	3.46933	-0.548397	9.88952	0.0164337	0.0328077	-0.0219165	-0.653564	0.124756	-0.827637	0.283418	-0.0114352	-0.0434173	-0.957945	0.473552	0.804191	11.0433	-0.00267504	0.0203432	-0.0137501	-0.495117	-0.052002	-1.05762	0.105819	-0.042505	-0.25745	-0.959539	2.1056	4.55036	9.21819	-0.00277229	0.00895192	-0.0174645	-0.63916	-0.421387	-0.894531	0.0286838	0.892511	-0.0897287	-0.441079	-7.07693	1.53024	-5.87229	-0.00463294	0.00429665	0.00342807	0.969482	-0.181885	0.390137	0.0261324	-0.130567	-0.0801268	-0.987851	2.56477	1.48607	9.36592	0.00362953	0.000498992	-0.00745427	-0.628662	-0.0134277	-0.901855	
44	0.183724	0.0689212	-0.0197981	-0.980359	-1.38846	0.706281	10.908	-0.00268088	-0.000868001	-7.44495e-05	-0.226074	0.0871582	-1.12988	0.180903	0.294901	0.1238	-0.930044	-5.88793	-1.26728	7.98539	-0.0143188	0.0294313	-0.0189886	0.495361	0.188477	-0.942139	0.00353242	0.213674	-0.120796	-0.969402	-4.42993	2.43574	9.42522	0.00960965	0.00689733	0.00242955	0.0209961	-0.359619	-1.06763	-0.228276	0.224252	-0.303084	-0.897631	-5.26012	4.29774	7.02916	0.00305975	0.006219	0.000836229	0.263672	-0.633545	-0.807861	0.0571421	0.193513	0.288389	-0.936012	-3.81756	-5.01763	7.36227	-0.0137006	0.0113325	-0.0214551	0.196289	0.586182	-0.857666	-0.602495	0.0083996	-0.429348	0.672747	-5.8219	-6.68644	7.68143	-0.00141452	0.0102426	-0.0118131	0.356445	0.915771	-0.406982	0.0943845	-0.17247	0.0139456	-0.980383	3.43231	-0.558882	9.89878	0.017795	0.00162251	-0.0196006	-0.655518	0.124756	-0.823486	0.283491	-0.0114539	-0.0435161	-0.957919	0.504517	0.811887	11.1311	0.00346201	0.0182105	-0.0150039	-0.49292	-0.052002	-1.0481	0.105851	-0.0425019	-0.25728	-0.959581	2.11023	4.55504	9.26105	0.00042681	0.010583	-0.01868	-0.644287	-0.414551	-0.894531	0.0287261	0.892477	-0.0897175	-0.441146	-7.08416	1.53266	-5.88477	-0.000785764	0.0110206	0.00231165	0.971436	-0.179688	0.390137	0.0261495	-0.130694	-0.080106	-0.987835	2.59982	1.47013	9.36355	0.00238283	0.00252795	-0.00144805	-0.626709	-0.00683594	-0.897461	
45	0.183774	0.0689491	-0.0197341	-0.980349	-1.43507	0.713073	10.9229	-0.00412695	-0.00128875	0.00338866	-0.223389	0.0808105	-1.13208	0.180946	0.295049	0.123886	-0.929977	-5.9304	-1.26004	7.93453	-0.0108866	0.0272858	-0.015751	0.493164	0.186279	-0.944336	0.00353635	0.213678	-0.120956	-0.969381	-4.46706	2.42654	9.39763	0.00800049	0.00708652	0.00164538	0.0231934	-0.361816	-1.06982	-0.228449	0.224277	-0.303425	-0.897465	-5.31347	4.27786	7.03515	0.0213217	0.0106375	-0.00377778	0.270508	-0.635742	-0.818848	0.0571227	0.19355	0.288394	-0.936005	-3.8393	-5.10913	7.37707	-0.000150037	0.0114829	-0.0163955	0.189697	0.585938	-0.855469	-0.602585	0.0084337	-0.429354	0.672663	-5.82217	-6.68829	7.6796	-0.000312664	0.0128535	-0.011396	0.354004	0.920166	-0.406982	0.0943541	-0.172633	0.0138666	-0.980359	3.44231	-0.541885	9.89084	0.0184222	0.000424381	-0.018954	-0.655518	0.120361	-0.827637	0.28349	-0.0114629	-0.0433485	-0.957926	0.474492	0.832405	11.135	-0.00942771	0.0209137	-0.0168846	-0.492676	-0.0563965	-1.05518	0.105867	-0.0425142	-0.257302	-0.959573	2.09636	4.57594	9.28557	0.00768416	0.00855643	-0.019275	-0.634766	-0.418945	-0.898926	0.0288334	0.892482	-0.0896442	-0.441145	-7.07349	1.51303	-5.88896	-0.00323131	0.0138725	0.00228395	0.967041	-0.179688	0.392334	0.0261998	-0.130729	-0.0802191	-0.98782	2.57912	1.4683	9.39541	0.00754444	0.00673206	-0.00232868	-0.628662	-0.0134277	-0.901855	
46	0.183952	0.0689539	-0.0197241	-0.980315	-1.41605	0.655902	10.9028	0.000951553	-0.00408385	0.00629848	-0.22583	0.0849609	-1.13208	0.181074	0.295088	0.123936	-0.929933	-5.94412	-1.24601	7.96995	-0.00558651	0.0150808	-0.0146337	0.495361	0.184082	-0.941895	0.00351548	0.213665	-0.121111	-0.969364	-4.47801	2.44396	9.42829	0.011726	0.00474997	0.00151748	0.0273438	-0.355469	-1.07227	-0.228563	0.22432	-0.303536	-0.897388	-5.32051	4.3293	7.03831	0.0123729	0.0105701	-0.0066871	0.27002	-0.626953	-0.805664	0.0571584	0.193502	0.288035	-0.936123	-3.81618	-5.0199	7.38585	0.0108499	0.00422864	-0.0131753	0.194092	0.583984	-0.862305	-0.60273	0.00842645	-0.429453	0.672469	-5.82309	-6.67342	7.65933	-0.000760908	0.0184771	-0.0101727	0.354004	0.917969	-0.40918	0.0942252	-0.17263	0.0138058	-0.980372	3.45445	-0.529235	9.91501	0.0172317	0.0163135	-0.021992	-0.655518	0.124756	-0.825684	0.283607	-0.0114526	-0.0434651	-0.957886	0.502135	0.812969	11.0613	0.0180776	0.0193284	-0.00979755	-0.501465	-0.0541992	-1.0481	0.105874	-0.0425847	-0.25746	-0.959527	2.10908	4.56895	9.23234	0.0121365	0.0060268	-0.0193986	-0.632324	-0.421387	-0.889893	0.0288744	0.892472	-0.0896534	-0.44116	-7.08866	1.50801	-5.91416	-0.000668417	0.0122093	0.00416056	0.962646	-0.179688	0.394775	0.0261763	-0.130743	-0.0802526	-0.987816	2.54735	1.48266	9.4044	0.00371803	0.00669256	-0.00490714	-0.624023	-0.0134277	-0.897217	
47	0.183948	0.0690324	-0.0197747	-0.980309	-1.41682	0.666345	10.9227	0.00304804	0.00108487	-0.0019225	-0.228027	0.0830078	-1.13428	0.181006	0.295216	0.123918	-0.929908	-5.89698	-1.21615	7.94013	-0.00652497	0.0180373	-0.0213341	0.495605	0.181885	-0.939697	0.00336987	0.213646	-0.121453	-0.969326	-4.44192	2.4802	9.39624	0.0151788	0.0034703	-0.00429237	0.0251465	-0.357422	-1.07007	-0.228721	0.224363	-0.303961	-0.897193	-5.27173	4.28677	7.01675	0.0254772	0.0120104	-0.000824279	0.263672	-0.633545	-0.812256	0.057247	0.193441	0.288303	-0.936047	-3.83788	-5.03822	7.39507	-0.0180166	0.00496886	-0.0129311	0.185303	0.583984	-0.869141	-0.602806	0.00845097	-0.429475	0.672387	-5.82841	-6.68809	7.65952	-0.00104518	0.0141699	-0.0112963	0.354248	0.915771	-0.406982	0.0940173	-0.172714	0.0136617	-0.980379	3.47467	-0.523789	9.95064	0.0178896	0.0065629	-0.024459	-0.655762	0.126953	-0.823486	0.283679	-0.0113964	-0.0436526	-0.957858	0.470408	0.847766	11.0857	0.00299763	0.0178863	-0.01476	-0.492676	-0.0541992	-1.05273	0.105885	-0.0426265	-0.257367	-0.959549	2.10485	4.55631	9.22306	-0.00169904	0.0100423	-0.019731	-0.630127	-0.416748	-0.896729	0.0288882	0.892395	-0.0897697	-0.441291	-7.093	1.52549	-5.88713	-0.0034505	0.00773578	0.00658383	0.969482	-0.181885	0.394775	0.0259727	-0.13074	-0.0803067	-0.987817	2.54819	1.48224	9.38488	0.00174113	0.0034029	-0.00971837	-0.631104	-0.0112305	-0.897217	
48	0.183845	0.0690986	-0.019927	-0.980321	-1.43041	0.717323	10.9232	0.00617292	-0.00493078	-0.00447793	-0.232422	0.0827637	-1.13428	0.181055	0.295369	0.124084	-0.929828	-5.888	-1.251	7.95436	-0.0134639	0.0206834	-0.0157087	0.491211	0.184082	-0.941895	0.00329772	0.213593	-0.121684	-0.969309	-4.41324	2.4972	9.44865	0.00271313	0.00685237	0.00195781	0.0251465	-0.355225	-1.07007	-0.228776	0.224356	-0.304384	-0.897038	-5.27982	4.31361	7.02277	0.0160094	0.010003	0.00376338	0.268311	-0.637939	-0.814209	0.0572787	0.193514	0.288	-0.936124	-3.83699	-5.03462	7.41018	0.0189063	0.0101981	-0.0104728	0.191895	0.583984	-0.862305	-0.602692	0.00842752	-0.429693	0.672351	-5.83381	-6.64667	7.66531	0.000128904	0.0161265	-0.0154823	0.354248	0.915771	-0.404785	0.0939083	-0.173029	0.013482	-0.980337	3.47499	-0.519764	9.88237	0.0166396	0.00219102	-0.0208972	-0.65332	0.120361	-0.819092	0.283693	-0.0115024	-0.043362	-0.957865	0.498824	0.824921	11.1166	-0.00908493	0.0210769	-0.0137974	-0.495117	-0.052002	-1.05054	0.105905	-0.0426455	-0.257177	-0.959597	2.10504	4.55433	9.27718	-0.000733004	0.0094929	-0.0186892	-0.639648	-0.414551	-0.892334	0.0289907	0.892325	-0.0898606	-0.441407	-7.04071	1.53509	-5.89115	-0.000319074	0.00841779	0.00553193	0.97168	-0.181885	0.392334	0.0258121	-0.130971	-0.0804453	-0.98778	2.5651	1.47754	9.36037	0.00783711	-0.00152112	-0.0105862	-0.631104	-0.0112305	-0.901855	
49	0.183816	0.0691087	-0.0200321	-0.980324	-1.41196	0.74322	10.9101	0.00234545	-0.00381506	-0.00156652	-0.227783	0.0808105	-1.13428	0.181074	0.29553	0.124274	-0.929747	-5.93865	-1.24772	7.95525	-0.0128716	0.0225558	-0.0206801	0.493408	0.181885	-0.939453	0.00336812	0.213561	-0.121785	-0.969303	-4.46049	2.4728	9.41295	0.0051605	0.00394563	0.00301742	0.0273438	-0.355469	-1.07007	-0.228766	0.224376	-0.304663	-0.89694	-5.31461	4.32448	7.01404	0.00935358	0.0127593	0.00417116	0.270752	-0.640137	-0.809814	0.0572687	0.193477	0.287654	-0.936238	-3.83362	-5.01294	7.36565	0.0119485	0.00621649	-0.0125838	0.189941	0.577393	-0.862305	-0.602832	0.00854168	-0.429674	0.672236	-5.82756	-6.67025	7.68287	-0.00101902	0.0127612	-0.0145307	0.351807	0.924316	-0.405029	0.0938168	-0.172532	0.0133094	-0.980436	3.45173	-0.527261	9.91476	0.0239112	0.0387061	-0.020199	-0.65332	0.120361	-0.829834	0.283607	-0.0113202	-0.0433713	-0.957892	0.477025	0.81582	11.1554	0.00415254	0.0156686	-0.0122201	-0.488525	-0.0498047	-1.05298	0.105941	-0.0426889	-0.257186	-0.959588	2.10475	4.54763	9.25716	0.00826029	0.00673073	-0.0188936	-0.634766	-0.416748	-0.894531	0.0290561	0.892264	-0.089939	-0.44151	-7.0817	1.56935	-5.85302	-0.00213263	0.010231	0.00571461	0.967285	-0.181885	0.394775	0.0257952	-0.131069	-0.0805481	-0.987759	2.57442	1.49705	9.37458	0.00268201	0.00520577	-0.0045599	-0.628662	-0.0112305	-0.901855	
50	0.183886	0.0691913	-0.0199499	-0.980306	-1.39292	0.736204	10.9058	-0.00375245	0.00171734	0.00279172	-0.221436	0.0852051	-1.13428	0.181122	0.29557	0.124384	-0.929711	-5.93698	-1.25593	7.95388	-0.0105808	0.0114052	-0.0159831	0.490967	0.188477	-0.942139	0.00339116	0.213551	-0.121809	-0.969302	-4.43984	2.44395	9.38782	-0.00183912	0.00415104	0.00189767	0.0229492	-0.353027	-1.06543	-0.228896	0.22443	-0.304966	-0.896791	-5.2914	4.31069	6.97207	0.0163847	0.0102534	-0.00321999	0.270508	-0.635742	-0.80542	0.0573032	0.193446	0.287568	-0.936269	-3.81603	-4.99947	7.36604	0.00300665	0.00775581	-0.0124652	0.189941	0.581787	-0.860107	-0.602931	0.00860488	-0.429685	0.67214	-5.78925	-6.65664	7.67979	0.00214945	0.0144165	-0.0148064	0.354004	0.917969	-0.404785	0.0936448	-0.172474	0.0132872	-0.980462	3.44075	-0.515762	9.91917	0.0157242	0.0101142	-0.0221347	-0.65332	0.120361	-0.825439	0.283732	-0.0112532	-0.0435599	-0.957848	0.482276	0.799476	11.0376	0.011682	0.0179554	-0.0117913	-0.494873	-0.0541992	-1.05273	0.105959	-0.0427662	-0.257247	-0.959566	2.11602	4.53783	9.22837	0.00746982	0.006777	-0.0196316	-0.637207	-0.416748	-0.898926	0.0292521	0.892224	-0.0898709	-0.441592	-7.08527	1.5333	-5.87425	-0.00629899	0.0114609	0.000811368	0.969238	-0.179688	0.392334	0.025844	-0.131148	-0.0806099	-0.987742	2.5797	1.51295	9.36032	0.00526068	0.00294059	-0.00134346	-0.628662	-0.0134277	-0.899414	
51	0.183976	0.0692986	-0.0197891	-0.980285	-1.41913	0.720006	10.909	-0.00590146	0.000142261	0.00276605	-0.227783	0.0808105	-1.13208	0.1811	0.295446	0.124557	-0.929731	-5.92932	-1.24993	8.00279	-0.0140779	0.0127736	-0.026567	0.497559	0.186279	-0.939697	0.0033334	0.213471	-0.122255	-0.969264	-4.44839	2.43211	9.40071	0.0270171	0.00242303	0.00135689	0.0209961	-0.359619	-1.06079	-0.229248	0.224403	-0.30541	-0.896557	-5.3172	4.32834	6.99052	0.0261989	0.00734728	-0.0105404	0.270752	-0.637939	-0.814209	0.0572313	0.193492	0.287598	-0.936255	-3.82627	-5.02378	7.38366	-0.00731091	0.0112261	-0.0191807	0.192139	0.577393	-0.862305	-0.603003	0.00865163	-0.429777	0.672015	-5.80721	-6.64631	7.68455	-0.00431509	0.0184964	-0.0143723	0.354248	0.915771	-0.404785	0.0932979	-0.172244	0.0128544	-0.980542	3.47447	-0.525715	9.91153	0.0223636	0.0150683	-0.0244055	-0.655273	0.118164	-0.823242	0.283728	-0.0112162	-0.0435062	-0.957852	0.49697	0.834896	11.1081	-0.00705505	0.0229578	-0.0193238	-0.488525	-0.052002	-1.05054	0.105994	-0.0427631	-0.257107	-0.9596	2.11349	4.57513	9.25143	-0.00132995	0.0116381	-0.0185547	-0.634766	-0.418945	-0.898926	0.0293137	0.892185	-0.089838	-0.441675	-7.09717	1.54831	-5.86996	0.00108157	0.00853938	0.00254916	0.969238	-0.179688	0.396973	0.0258043	-0.131316	-0.0806752	-0.987715	2.59311	1.5254	9.35166	0.00278927	0.000696891	-0.0041615	-0.626465	-0.0090332	-0.897217	
52	0.184019	0.0692865	-0.019725	-0.980279	-1.40542	0.712255	10.9281	-0.00521126	-0.00427758	0.00345943	-0.223389	0.0786133	-1.13208	0.180865	0.295478	0.124521	-0.929771	-5.92358	-1.22537	7.91308	-0.00491289	0.0149555	-0.0259175	0.490967	0.188477	-0.939697	0.00315859	0.213389	-0.12268	-0.969229	-4.4056	2.59008	9.392	0.00876097	-0.00132447	-0.00394281	0.0253906	-0.364014	-1.06519	-0.229697	0.224314	-0.305797	-0.896332	-5.26772	4.36778	6.95228	0.0215169	0.00479251	-0.0112296	0.266113	-0.637939	-0.807617	0.0571059	0.193486	0.287726	-0.936224	-3.83278	-4.99486	7.40568	-0.00563098	0.0112901	-0.0224356	0.189697	0.583984	-0.862305	-0.603036	0.00871391	-0.42989	0.671912	-5.80837	-6.64958	7.68084	-0.00821528	0.0181527	-0.0140039	0.360352	0.922363	-0.40918	0.0931007	-0.172251	0.0130131	-0.980557	3.42531	-0.49327	9.93487	0.011616	0.0056069	-0.0212157	-0.655518	0.120361	-0.819092	0.283768	-0.0113261	-0.0434681	-0.95784	0.491192	0.810442	11.1133	0.00862996	0.0114776	-0.0114265	-0.494873	-0.0541992	-1.0481	0.105996	-0.0427808	-0.257051	-0.959614	2.09771	4.55753	9.26188	0.00114902	0.00808511	-0.0193981	-0.63501	-0.414551	-0.901367	0.0293137	0.892185	-0.089838	-0.441675	-7.09717	1.54831	-5.86996	0.00108157	0.00853938	0.00254916	0.969238	-0.179688	0.396973	0.0258095	-0.131437	-0.0805673	-0.987708	2.60814	1.48596	9.35605	-0.00371784	0.00528444	-0.00326699	-0.626465	-0.0134277	-0.901855	
53	0.183975	0.0693494	-0.01969	-0.980284	-1.38868	0.695731	10.9276	0.00242384	-0.00459386	-0.0128522	-0.230225	0.0849609	-1.13647	0.180919	0.295816	0.125188	-0.929564	-5.9092	-1.1786	7.89635	-0.0252542	0.0303484	-0.0179907	0.497559	0.184082	-0.941895	0.00323187	0.213314	-0.122396	-0.969281	-4.47048	2.57197	9.4312	-0.0241908	0.00417601	0.00125548	0.0209961	-0.359619	-1.06299	-0.229872	0.224322	-0.305896	-0.896251	-5.30146	4.36943	7.0101	-0.000471021	0.00693839	0.000335393	0.270508	-0.635742	-0.809814	0.0569845	0.193446	0.287841	-0.936205	-3.83629	-5.02595	7.39489	-0.00792628	0.00884831	-0.0266181	0.196289	0.581787	-0.860107	-0.603036	0.00871391	-0.42989	0.671912	-5.80837	-6.64958	7.68084	-0.00821528	0.0181527	-0.0140039	0.360352	0.922363	-0.40918	0.0930575	-0.172564	0.012894	-0.980508	3.44139	-0.485899	9.8975	0.0204243	-0.0116958	-0.0200498	-0.662109	0.122559	-0.823486	0.283847	-0.0112652	-0.0435846	-0.957812	0.541468	0.817816	11.1445	0.0139869	0.0202102	-0.0100007	-0.490723	-0.0498047	-1.0459	0.105996	-0.0427808	-0.257051	-0.959614	2.09771	4.55753	9.26188	0.00114902	0.00808511	-0.0193981	-0.63501	-0.414551	-0.901367	0.0293137	0.892185	-0.089838	-0.441675	-7.09717	1.54831	-5.86996	0.00108157	0.00853938	0.00254916	0.969238	-0.179688	0.396973	0.025826	-0.131365	-0.0804981	-0.987723	2.55391	1.47586	9.41846	-0.00170193	0.0122576	-0.00309406	-0.631104	-0.0090332	-0.897217	
54	0.183949	0.0694431	-0.0196825	-0.980282	-1.39265	0.755048	10.9099	0.00145168	0.0032076	-0.00206552	-0.232422	0.0805664	-1.13428	0.181041	0.295862	0.125236	-0.929519	-5.95285	-1.26106	7.88922	-0.0123834	0.0177404	-0.00961192	0.497314	0.190674	-0.9375	0.0032625	0.21322	-0.121876	-0.969367	-4.47329	2.50806	9.43781	-0.0421187	-0.00254426	-0.00546895	0.0273438	-0.357666	-1.06763	-0.229767	0.224373	-0.305876	-0.896272	-5.30846	4.25334	6.98907	0.00344261	0.0105028	0.00451934	0.268311	-0.637939	-0.807617	0.056826	0.193507	0.287574	-0.936284	-3.88722	-5.08715	7.36824	0.017793	0.00756302	-0.0163859	0.194092	0.583984	-0.869141	-0.602857	0.00856026	-0.430184	0.671887	-5.83964	-6.65092	7.62464	-0.00038555	0.0179864	-0.00997126	0.352051	0.913574	-0.404785	0.0929724	-0.173018	0.0131524	-0.980432	3.51624	-0.540296	9.93493	-0.00340508	0.00785065	-0.0185931	-0.657471	0.120361	-0.825439	0.283939	-0.0113356	-0.0434668	-0.957789	0.492562	0.847625	11.0943	-0.00098705	0.00820597	-0.010768	-0.49292	-0.0498047	-1.05762	0.105386	-0.0423215	-0.257336	-0.959625	2.10819	4.5669	9.25198	0.00736177	0.00727535	-0.0193882	-0.641602	-0.419189	-0.896729	0.0292026	0.892469	-0.0897855	-0.441117	-7.07155	1.54406	-5.8927	0.00258412	0.0124573	-0.00123768	0.97168	-0.184082	0.394775	0.0258503	-0.131362	-0.0805189	-0.987721	2.54153	1.51134	9.42125	0.0033004	0.00853285	-0.002193	-0.626465	-0.0134277	-0.899414	
55	0.184039	0.0694692	-0.0197194	-0.980263	-1.44688	0.687544	10.9198	0.00204524	-0.00621885	-0.00108902	-0.225586	0.0808105	-1.13843	0.181127	0.296022	0.125245	-0.92945	-5.92873	-1.26395	7.9829	-0.00447502	0.0267002	-0.0158033	0.495361	0.186279	-0.942139	0.00316059	0.213109	-0.121419	-0.969449	-4.43847	2.3534	9.38024	0.00249522	0.000722234	-0.0095269	0.0229492	-0.359619	-1.06763	-0.229837	0.224381	-0.306109	-0.896172	-5.28733	4.30292	6.98264	0.0211594	0.0119083	-0.000916285	0.270508	-0.635742	-0.803223	0.0568298	0.19349	0.28755	-0.936294	-3.77405	-4.96207	7.43251	0.000473256	0.00316505	-0.00737952	0.191895	0.586182	-0.864746	-0.60265	0.00870433	-0.430489	0.671876	-5.81483	-6.69049	7.66848	-0.00991199	0.0155806	-0.0168499	0.354004	0.917969	-0.406982	0.092745	-0.172586	0.0133789	-0.980527	3.44767	-0.532207	9.912	0.0115296	0.0319664	-0.0229628	-0.655273	0.115967	-0.823242	0.284063	-0.011363	-0.0435221	-0.95775	0.455893	0.838977	11.0469	0.00824226	0.0104377	-0.0143451	-0.497314	-0.052002	-1.05518	0.105386	-0.0423215	-0.257336	-0.959625	2.10819	4.5669	9.25198	0.00736177	0.00727535	-0.0193882	-0.641602	-0.419189	-0.896729	0.0291466	0.892348	-0.089777	-0.441368	-7.05371	1.50092	-5.86353	0.003245	0.00187302	0.000800206	0.967285	-0.186279	0.392578	0.025801	-0.13158	-0.0804183	-0.987701	2.58911	1.46971	9.34401	-0.00302876	-0.00284639	-0.00477857	-0.628662	-0.0112305	-0.897217	
56	0.183797	0.0694216	-0.0196322	-0.980313	-1.41988	0.731319	10.9126	-0.00304701	-0.00385888	-0.00993975	-0.223389	0.0808105	-1.14062	0.180975	0.296389	0.125045	-0.92939	-5.94529	-1.27462	7.913	0.00421702	0.0255909	-0.0190341	0.493164	0.188477	-0.942139	0.00293837	0.213044	-0.121844	-0.969411	-4.43948	2.51584	9.41237	0.0125237	0.00134156	-0.00317988	0.0229492	-0.355225	-1.06763	-0.230022	0.22436	-0.306575	-0.895971	-5.28556	4.36654	7.0094	0.022257	0.011077	-0.00224086	0.275146	-0.640137	-0.80542	0.0568232	0.193446	0.288073	-0.936143	-3.87534	-5.16809	7.34706	-0.00439637	0.00536187	-0.0123955	0.194336	0.577393	-0.864746	-0.602674	0.00867917	-0.430488	0.671855	-5.84109	-6.65954	7.62932	0.00415996	0.0172062	-0.0172741	0.354004	0.917969	-0.406982	0.092699	-0.173252	0.0130975	-0.980418	3.46275	-0.507594	9.88422	0.0183277	-0.0087362	-0.0183383	-0.653076	0.118164	-0.827637	0.284062	-0.0114779	-0.0429901	-0.957773	0.460435	0.736359	11.1636	-0.0258311	0.0229249	-0.0165597	-0.49292	-0.052002	-1.05298	0.105009	-0.0420355	-0.256783	-0.959827	2.09736	4.52024	9.27794	0.00210973	0.00738922	-0.0197557	-0.639404	-0.419189	-0.898926	0.0293354	0.892342	-0.0896878	-0.441385	-7.07111	1.56085	-5.83739	-0.00462781	0.0133057	0.0019289	0.967041	-0.179688	0.392334	0.0256439	-0.131754	-0.0805319	-0.987673	2.59517	1.4845	9.39152	0.0061795	0.00125014	-0.0080916	-0.637695	-0.0134277	-0.897217	
57	0.183823	0.0693753	-0.0194762	-0.980315	-1.41752	0.702581	10.9052	-0.00630433	-0.00631124	-0.00171401	-0.22583	0.0830078	-1.12988	0.181064	0.296458	0.125202	-0.929329	-5.96962	-1.27388	7.93031	-0.0130359	0.0156566	-0.0155241	0.495361	0.188477	-0.9375	0.0028649	0.212933	-0.121475	-0.969482	-4.4623	2.46351	9.47396	-0.0217427	0.00210301	-0.00577608	0.020752	-0.357422	-1.06543	-0.230133	0.224558	-0.306762	-0.895829	-5.33241	4.39259	7.02882	-0.000782847	0.0148591	-0.00377017	0.270752	-0.637939	-0.803223	0.0568225	0.193502	0.287136	-0.936419	-3.8159	-4.97033	7.39174	0.0333515	0.006987	-0.0123343	0.190186	0.575195	-0.864746	-0.602542	0.00859456	-0.430638	0.671878	-5.83701	-6.66208	7.65174	0.000345322	0.0167122	-0.0117951	0.356201	0.920166	-0.402832	0.092619	-0.172803	0.0129428	-0.980507	3.46047	-0.512288	9.91883	0.0149389	0.0321389	-0.0196843	-0.653076	0.118164	-0.825439	0.28417	-0.0115603	-0.0433755	-0.957722	0.522752	0.795326	11.0943	0.0306794	0.0117926	-0.00987731	-0.495117	-0.0476074	-1.05518	0.105009	-0.0420355	-0.256783	-0.959827	2.09736	4.52024	9.27794	0.00210973	0.00738922	-0.0197557	-0.639404	-0.419189	-0.898926	0.0293334	0.892435	-0.0897057	-0.441195	-7.06926	1.52794	-5.88962	0.00214579	0.0150756	0.00145189	0.964844	-0.179688	0.394775	0.0255991	-0.131585	-0.0804063	-0.987707	2.58691	1.49994	9.40541	-0.00938568	0.0196336	-0.00525347	-0.630859	-0.0134277	-0.901855	
58	0.183907	0.0693655	-0.0192928	-0.980303	-1.42717	0.717234	10.9153	-0.00823451	-0.000960022	0.00522247	-0.22583	0.0830078	-1.13647	0.180923	0.296536	0.125233	-0.929328	-5.9429	-1.27547	7.94506	-0.00414795	0.0163859	-0.0244652	0.490967	0.188477	-0.939697	0.00285114	0.212859	-0.121085	-0.969547	-4.43257	2.44235	9.3681	-0.0124196	0.000491952	-0.00364947	0.0251465	-0.359619	-1.07227	-0.230193	0.224721	-0.306594	-0.89583	-5.28847	4.29106	6.94985	-0.000704942	0.00986329	-0.00368389	0.275146	-0.640137	-0.814209	0.0567634	0.19349	0.287182	-0.936411	-3.83571	-4.96625	7.405	-0.00412827	0.00865692	-0.0199552	0.192139	0.57959	-0.869141	-0.602632	0.00852012	-0.43065	0.67179	-5.85024	-6.6355	7.64996	0.00182183	0.0196474	-0.0142259	0.356201	0.917969	-0.404785	0.0925033	-0.172457	0.0128842	-0.980579	3.47821	-0.51712	9.91911	0.0181704	0.0219098	-0.0225424	-0.653076	0.115967	-0.823242	0.284298	-0.0114445	-0.0436555	-0.957673	0.488412	0.848752	11.0788	0.0282769	0.0206107	-0.00692232	-0.497314	-0.052002	-1.05518	0.105009	-0.0420355	-0.256783	-0.959827	2.09736	4.52024	9.27794	0.00210973	0.00738922	-0.0197557	-0.639404	-0.419189	-0.898926	0.0292931	0.892431	-0.08971	-0.441204	-7.1052	1.53799	-5.89612	0.00494762	0.0120915	0.00084294	0.969238	-0.179688	0.39917	0.025598	-0.131363	-0.0801612	-0.987756	2.54486	1.46548	9.36101	-0.00773461	0.014612	-0.00215036	-0.628662	-0.0134277	-0.899414	
59	0.184096	0.0693754	-0.01922	-0.980269	-1.40981	0.643709	10.9113	-0.000713841	-0.00256462	0.00627593	-0.22583	0.0830078	-1.13647	0.18088	0.296509	0.125217	-0.929347	-5.86189	-1.22145	7.91495	-0.00435637	0.0184408	-0.0156251	0.493408	0.184082	-0.941895	0.00272134	0.212707	-0.120974	-0.969595	-4.35519	2.44404	9.44085	-0.00214402	0.000211192	-0.00467046	0.0251465	-0.357422	-1.06543	-0.230302	0.224725	-0.30695	-0.895679	-5.26598	4.33354	6.98242	0.01755	0.00921638	0.000991581	0.272705	-0.635742	-0.809814	0.0565681	0.193441	0.287609	-0.936302	-3.83615	-5.02702	7.39304	-0.0109827	0.00412381	-0.0122017	0.187744	0.57959	-0.864746	-0.602706	0.00859399	-0.430736	0.671668	-5.82342	-6.66996	7.6495	-0.000692683	0.014888	-0.0153176	0.358398	0.920166	-0.400635	0.0923314	-0.172356	0.0126541	-0.980616	3.45508	-0.524124	9.96988	0.0268999	0.0168879	-0.0206958	-0.655273	0.118164	-0.825439	0.284133	-0.0113603	-0.0433254	-0.957738	0.516536	0.815466	11.0946	-0.00933583	0.0196272	-0.0151757	-0.493164	-0.0476074	-1.05054	0.104005	-0.0413142	-0.257365	-0.959812	2.10366	4.55715	9.24593	0.00889396	0.00647612	-0.0190122	-0.644043	-0.419189	-0.894531	0.0294711	0.892455	-0.0896565	-0.441155	-7.09078	1.53397	-5.86193	-0.00643123	0.00923736	0.00421869	0.969482	-0.186279	0.399414	0.0255276	-0.131444	-0.0801853	-0.987746	2.55723	1.45176	9.35156	0.00458003	0.000141783	-0.00496949	-0.628662	-0.0134277	-0.897217	
60	0.183968	0.0694431	-0.0193771	-0.980285	-1.40786	0.702305	10.915	0.00883238	-0.00193475	-0.00669561	-0.228027	0.0827637	-1.13208	0.181027	0.296904	0.125291	-0.929182	-5.93676	-1.25117	7.88822	-0.00616141	0.0368557	-0.0113602	0.499756	0.186279	-0.942139	0.0027502	0.212694	-0.120846	-0.969613	-4.40855	2.47258	9.47625	-0.00945553	0.00531828	0.00120557	0.020752	-0.353027	-1.06787	-0.23028	0.224674	-0.307093	-0.895649	-5.28423	4.34603	7.01748	0.0131322	0.00670312	0.00663115	0.272949	-0.637939	-0.809814	0.0565002	0.19347	0.287292	-0.936398	-3.83148	-5.05643	7.3888	0.0208286	0.00856947	-0.0122727	0.185547	0.581787	-0.862305	-0.602849	0.00874567	-0.430619	0.671613	-5.84557	-6.72797	7.6357	0.00469598	0.00821072	-0.0161536	0.364746	0.920166	-0.406982	0.0924013	-0.173179	0.0123124	-0.980469	3.51135	-0.47263	9.99662	0.0204037	-0.0306909	-0.0120446	-0.655518	0.122559	-0.832031	0.284226	-0.0114254	-0.0433755	-0.957707	0.492244	0.82573	11.1313	0.00313735	0.0139691	-0.0139594	-0.490723	-0.0541992	-1.05518	0.104067	-0.0413227	-0.257138	-0.959866	2.09921	4.55155	9.28703	-0.00253153	0.0108573	-0.0180439	-0.634766	-0.416748	-0.896729	0.0296127	0.89241	-0.0896862	-0.441231	-7.07559	1.5634	-5.86423	-0.00473299	0.0104392	0.00575166	0.971436	-0.17749	0.390137	0.0255086	-0.131669	-0.0803382	-0.987704	2.62219	1.46607	9.38345	0.00768515	0.00149042	-0.00364965	-0.631104	-0.0090332	-0.897217	
61	0.183913	0.0694531	-0.0194798	-0.980292	-1.44172	0.711765	10.9364	0.00880624	-0.00517247	-0.00357182	-0.227783	0.0808105	-1.13208	0.180999	0.297438	0.125169	-0.929033	-5.96465	-1.27813	7.98336	-0.00315312	0.0333296	-0.0117118	0.499756	0.188477	-0.939941	0.00278437	0.212723	-0.12046	-0.969655	-4.39905	2.42103	9.44441	-0.0121296	0.00873147	-0.00117092	0.0229492	-0.357422	-1.06763	-0.230232	0.224808	-0.307127	-0.895616	-5.29966	4.39638	6.99827	-0.00818225	0.00839687	-0.000551983	0.270752	-0.642334	-0.807617	0.0565469	0.193486	0.287027	-0.936473	-3.83492	-5.02949	7.37163	0.0202261	0.00613038	-0.00692606	0.189941	0.57959	-0.862305	-0.602849	0.00874567	-0.430619	0.671613	-5.84557	-6.72797	7.6357	0.00469598	0.00821072	-0.0161536	0.364746	0.920166	-0.406982	0.0924013	-0.173179	0.0123124	-0.980469	3.51135	-0.47263	9.99662	0.0204037	-0.0306909	-0.0120446	-0.655518	0.122559	-0.832031	0.284276	-0.0113747	-0.0433095	-0.957696	0.486221	0.800559	11.0878	-0.000370076	0.0230581	-0.0131212	-0.501465	-0.0541992	-1.0481	0.10408	-0.0413515	-0.257144	-0.959862	2.09268	4.5477	9.27473	0.00607184	0.0068598	-0.0188781	-0.634766	-0.418945	-0.898926	0.0296649	0.892428	-0.0897294	-0.441182	-7.06451	1.54466	-5.86869	0.00197422	0.0178053	0.00204774	0.97168	-0.181885	0.396973	0.0256015	-0.131548	-0.0804116	-0.987711	2.61083	1.51491	9.35923	0.0035221	0.0161946	0.000298268	-0.628662	-0.015625	-0.899414	
62	0.184007	0.0694393	-0.0197373	-0.98027	-1.41294	0.743613	10.9086	0.00373767	-0.00591178	0.00557356	-0.228027	0.0808105	-1.12988	0.181278	0.297913	0.125322	-0.928806	-5.98226	-1.30051	7.91139	-0.0117889	0.032567	-0.00591084	0.499512	0.190674	-0.939941	0.00273956	0.212995	-0.120566	-0.969582	-4.47769	2.42748	9.40703	0.00993164	0.0135104	-0.00436683	0.020752	-0.355225	-1.06763	-0.230173	0.224862	-0.306786	-0.895734	-5.32768	4.3072	6.94275	-0.0117151	0.00397451	0.00320701	0.270752	-0.637939	-0.80542	0.0566252	0.193462	0.287045	-0.936467	-3.85474	-4.9808	7.38161	-0.0100512	0.0063897	-0.0169601	0.194336	0.57959	-0.862305	-0.602903	0.008695	-0.430508	0.671636	-5.84538	-6.65744	7.66573	0.00545216	0.00932668	-0.0104054	0.349609	0.920166	-0.40918	0.0923829	-0.173554	0.0121434	-0.980406	3.45695	-0.506217	9.88828	0.0153556	-0.0101399	-0.00931966	-0.655273	0.118164	-0.827637	0.284386	-0.0112821	-0.0435815	-0.957652	0.490118	0.811573	11.0798	0.00666594	0.0207349	-0.0146497	-0.492676	-0.0541992	-1.05518	0.104115	-0.0413947	-0.257156	-0.959853	2.09105	4.53957	9.28596	0.00764064	0.00907797	-0.0196308	-0.636963	-0.419189	-0.896729	0.0296639	0.892458	-0.0897068	-0.441125	-7.06252	1.54878	-5.88075	0.00163801	0.0184402	6.34318e-05	0.97168	-0.181885	0.394775	0.0257563	-0.131346	-0.0804914	-0.987728	2.53034	1.50857	9.38473	0.00631164	0.0147528	0.00323229	-0.628662	-0.0112305	-0.899658	
63	0.184123	0.0694419	-0.019761	-0.980248	-1.41265	0.712239	10.9088	0.00151791	-0.00413078	0.0100278	-0.228027	0.0849609	-1.12988	0.181288	0.298103	0.125267	-0.92875	-5.9865	-1.25787	7.85094	0.000490161	0.0285676	-0.01376	0.497559	0.188477	-0.932861	0.00263247	0.212996	-0.120624	-0.969575	-4.48792	2.43118	9.41097	0.0060483	0.00486584	-0.00728376	0.0185547	-0.353027	-1.06543	-0.230204	0.224811	-0.306771	-0.895744	-5.33907	4.29381	6.9435	0.00112564	0.00213463	0.000997155	0.270752	-0.637939	-0.809814	0.0565299	0.193445	0.287195	-0.936431	-3.83191	-5.03127	7.38422	-0.000682317	0.00898762	-0.0181883	0.187744	0.57959	-0.862305	-0.60308	0.00871782	-0.43042	0.671533	-5.84803	-6.65335	7.65169	0.0029314	0.0112082	-0.0128	0.354492	0.911377	-0.402588	0.0926258	-0.174563	0.0117061	-0.98021	3.48526	-0.499603	9.9166	0.0268916	-0.0296986	-0.0091136	-0.661621	0.11377	-0.823242	0.28441	-0.0113018	-0.0434616	-0.95765	0.466386	0.815767	11.0954	-0.00610112	0.0189348	-0.0147391	-0.492676	-0.0541992	-1.05518	0.104113	-0.0413982	-0.257222	-0.959835	2.10167	4.54439	9.26669	0.0109225	0.0079507	-0.0205564	-0.637207	-0.416748	-0.896729	0.0296219	0.892554	-0.0896607	-0.440944	-7.09001	1.53774	-5.90921	0.00236509	0.014711	-0.00163846	0.967041	-0.179688	0.392334	0.0258237	-0.131337	-0.0805391	-0.987723	2.54127	1.51086	9.3872	0.00592277	0.00900256	0.00144016	-0.633057	-0.0178223	-0.892578	
64	0.184319	0.0694049	-0.0197927	-0.980213	-1.43117	0.678837	10.9174	0.00211956	-0.00819542	0.00559745	-0.22998	0.0808105	-1.14282	0.18124	0.297898	0.124999	-0.928862	-6.02008	-1.21963	7.93386	0.000928198	-0.0072433	-0.018137	0.501953	0.186279	-0.9375	0.00256017	0.212909	-0.120676	-0.969588	-4.45752	2.47345	9.43631	0.00382925	0.00392719	-0.000157851	0.0187988	-0.355225	-1.06543	-0.230299	0.224664	-0.306839	-0.895733	-5.32039	4.34846	6.98577	0.00532051	0.00139239	0.00137882	0.266113	-0.637939	-0.812012	0.0565397	0.193433	0.287206	-0.936429	-3.84082	-5.01151	7.42332	-0.00358677	0.00728241	-0.013836	0.194092	0.581787	-0.860107	-0.603083	0.00878509	-0.430427	0.671526	-5.83271	-6.66291	7.64332	0.00249409	0.0152258	-0.0222538	0.358398	0.915771	-0.406982	0.0926306	-0.175256	0.0116579	-0.980086	3.52194	-0.486148	9.86781	0.0104865	-0.0036825	-0.015191	-0.657227	0.11377	-0.825195	0.284526	-0.0112605	-0.0435626	-0.957612	0.470433	0.83583	11.0893	0.0130979	0.020981	-0.0107262	-0.494873	-0.0541992	-1.05273	0.104151	-0.0414597	-0.257425	-0.959774	2.09314	4.58478	9.26627	0.0139372	0.00567467	-0.0184909	-0.639404	-0.416748	-0.896729	0.0295229	0.892503	-0.0896576	-0.441054	-7.08089	1.52459	-5.86593	0.00340034	0.0082693	0.000963846	0.969238	-0.179688	0.394775	0.0258779	-0.131506	-0.0806348	-0.987692	2.57103	1.49336	9.37246	0.00493417	3.91921e-05	-0.00121842	-0.633057	-0.0134277	-0.90625	
65	0.184206	0.0693177	-0.0198783	-0.980239	-1.42442	0.689116	10.9142	0.00293308	-0.0106692	-0.00739691	-0.232178	0.0786133	-1.13428	0.18137	0.297616	0.124902	-0.92894	-5.91057	-1.22645	7.93334	-0.00500071	0.00883374	-0.0143911	0.497559	0.188477	-0.932861	0.00259731	0.212895	-0.120686	-0.96959	-4.42186	2.49689	9.44225	-0.000254663	0.00520269	0.00328738	0.0229492	-0.355225	-1.06763	-0.23021	0.224517	-0.306783	-0.895812	-5.27703	4.4043	7.00654	-0.00554173	0.00415197	0.00661583	0.270752	-0.637939	-0.809814	0.0565665	0.193314	0.287287	-0.936427	-3.81541	-5.0009	7.38632	-0.00788537	0.0056349	-0.0169697	0.1875	0.583984	-0.862305	-0.603127	0.00891992	-0.430395	0.671505	-5.8401	-6.71271	7.6607	0.00189773	0.0127027	-0.0169771	0.358154	0.922363	-0.407227	0.0927885	-0.175555	0.0114023	-0.980021	3.51888	-0.463668	9.94721	0.0237486	-0.00841912	-0.00811534	-0.661865	0.120361	-0.823242	0.284613	-0.0112988	-0.0437263	-0.957578	0.534523	0.850063	11.0992	0.00670681	0.0119332	-0.0132973	-0.49292	-0.052002	-1.0481	0.104201	-0.0415361	-0.257408	-0.95977	2.12603	4.56858	9.2592	0.000942251	0.00675554	-0.0178481	-0.637207	-0.416748	-0.896729	0.0294945	0.892488	-0.0896436	-0.441089	-7.08576	1.55334	-5.88783	0.00378202	0.0128429	0.00125504	0.97168	-0.181885	0.390137	0.0259037	-0.131586	-0.0806378	-0.98768	2.58724	1.49032	9.39746	9.0004e-05	0.0085792	-0.00155012	-0.630859	-0.0134277	-0.89502	
66	0.184085	0.0692047	-0.0199886	-0.980267	-1.39784	0.743128	10.9225	0.00321694	-0.00871428	-0.00335339	-0.218994	0.0808105	-1.13843	0.181415	0.297374	0.124637	-0.929044	-5.98398	-1.22393	7.93241	0.00218379	-0.000682134	-0.0159657	0.501953	0.184082	-0.939697	0.0027659	0.213053	-0.12043	-0.969586	-4.44272	2.43279	9.44616	-0.00696818	0.00616243	0.00254032	0.0229492	-0.355225	-1.07007	-0.229972	0.224467	-0.306423	-0.896009	-5.31757	4.33965	6.99248	-0.0130259	0.00268759	0.00975253	0.272949	-0.642334	-0.807617	0.0567715	0.193291	0.287309	-0.936413	-3.83761	-5.01952	7.41957	-0.00152895	0.00511865	-0.00462605	0.189941	0.57959	-0.860107	-0.603208	0.00895264	-0.430274	0.671509	-5.82356	-6.69069	7.65943	0.00623384	0.0110928	-0.0168987	0.36084	0.913574	-0.404785	0.0930354	-0.175829	0.0112495	-0.97995	3.59279	-0.483529	9.88796	0.0216255	0.0159753	-0.00706952	-0.661865	0.118164	-0.827637	0.284668	-0.0113025	-0.0434305	-0.957575	0.47584	0.817388	11.1141	-0.00904863	0.0209121	-0.0140694	-0.49707	-0.052002	-1.05273	0.104239	-0.0415792	-0.257324	-0.959786	2.10739	4.56254	9.25013	0.00297116	0.00732371	-0.0190558	-0.632568	-0.414551	-0.894531	0.0294053	0.89247	-0.0897424	-0.441111	-7.10355	1.54627	-5.85061	0.00173771	0.0106121	0.00340181	0.969482	-0.181885	0.390137	0.0259401	-0.131563	-0.080758	-0.987672	2.59402	1.51735	9.35647	0.00792092	0.00926698	0.00034239	-0.628662	-0.0134277	-0.899414	
67	0.184127	0.0691463	-0.0199266	-0.980265	-1.42419	0.729158	10.9497	-0.00414103	-0.00569248	0.00356406	-0.223389	0.0808105	-1.13208	0.181517	0.297054	0.124496	-0.929145	-5.95374	-1.2556	7.91543	-0.00386404	-0.00191541	-0.0145197	0.497559	0.188477	-0.9375	0.00293388	0.213213	-0.120422	-0.969552	-4.39974	2.44916	9.46884	-0.00237918	0.0157943	0.00907253	0.0229492	-0.355225	-1.07227	-0.229928	0.224342	-0.306102	-0.896162	-5.27921	4.38627	6.97204	-0.0170293	-0.00324407	0.00216812	0.272705	-0.635742	-0.807617	0.0568509	0.19328	0.287356	-0.936396	-3.80259	-4.97424	7.39625	-0.00585558	0.0059312	-0.00994485	0.189941	0.577393	-0.864746	-0.603348	0.00906627	-0.430243	0.671401	-5.80305	-6.68362	7.66595	-4.06075e-05	0.0120517	-0.0127006	0.358398	0.917969	-0.404785	0.0932261	-0.175683	0.0114179	-0.979956	3.47888	-0.507754	9.87723	0.00475857	0.00946633	-0.0058054	-0.663818	0.115967	-0.821045	0.284768	-0.0113286	-0.0436492	-0.957535	0.502744	0.785684	11.0538	0.0185315	0.0131263	-0.0126576	-0.49292	-0.052002	-1.05298	0.104255	-0.0415949	-0.257254	-0.959803	2.11776	4.54037	9.24245	0.00312691	0.00927947	-0.0195754	-0.637451	-0.412109	-0.89917	0.0294064	0.892534	-0.0895919	-0.441012	-7.03912	1.54704	-5.83852	0.00204555	0.0215158	-0.00592816	0.971436	-0.17749	0.394531	0.0261354	-0.131483	-0.0808011	-0.987674	2.62243	1.51712	9.32185	0.00468484	0.0135329	0.00484639	-0.626465	-0.0112305	-0.897217	
68	0.184192	0.0690653	-0.0199515	-0.980258	-1.40755	0.675145	10.9086	0.00242541	-0.00696142	0.00215736	-0.229736	0.0742188	-1.13623	0.181627	0.296644	0.124264	-0.929286	-5.96441	-1.25952	7.95447	0.000709918	-0.00851203	-0.0169087	0.495361	0.186279	-0.942139	0.0034153	0.213394	-0.119886	-0.969576	-4.47685	2.49353	9.43134	-0.0341793	0.0130967	0.0118152	0.0273438	-0.355469	-1.07227	-0.229853	0.224204	-0.305306	-0.896487	-5.33741	4.34137	6.99081	-0.0342232	-0.0067335	0.00352565	0.270752	-0.637939	-0.807617	0.0565623	0.193236	0.287986	-0.936229	-3.84028	-5.06689	7.38568	-0.0166665	0.00870283	-0.0178494	0.1875	0.586182	-0.860107	-0.603526	0.00907189	-0.430116	0.671323	-5.85764	-6.64727	7.62891	0.00703077	0.00968874	-0.0135825	0.354004	0.920166	-0.406982	0.0935528	-0.175791	0.0113529	-0.979906	3.55331	-0.490614	9.88035	0.0188756	0.0145997	-0.00174372	-0.661865	0.120361	-0.825439	0.284816	-0.0112548	-0.0436203	-0.957523	0.511453	0.828644	11.1737	-0.00679466	0.0233071	-0.0181486	-0.495117	-0.052002	-1.05518	0.104235	-0.0416155	-0.257377	-0.959771	2.0993	4.56512	9.26578	0.0130008	0.00607252	-0.0209459	-0.634521	-0.421387	-0.896729	0.029089	0.892622	-0.08957	-0.440859	-7.11063	1.5074	-5.90076	0.0146523	0.0143407	-0.00440767	0.966797	-0.175293	0.394531	0.0263013	-0.131263	-0.0806929	-0.987708	2.552	1.53183	9.41391	-0.00538329	0.0182587	0.00260866	-0.630859	-0.015625	-0.904053	
69	0.184152	0.0690845	-0.0199632	-0.980264	-1.40953	0.690507	10.916	0.00109707	-0.00309464	-0.00214484	-0.22583	0.0830078	-1.13428	0.181662	0.296334	0.124207	-0.929386	-5.95898	-1.23207	7.95865	-0.00599969	-0.0124295	-0.0188072	0.497559	0.184082	-0.937256	0.00358013	0.213436	-0.119385	-0.969629	-4.45794	2.38364	9.38664	-0.0118896	0.00574703	-0.00109608	0.0227051	-0.34668	-1.06787	-0.22965	0.224058	-0.304691	-0.896784	-5.31071	4.25276	6.99328	-0.0222477	-0.00332323	0.00996837	0.272949	-0.637939	-0.807617	0.0565918	0.193198	0.287962	-0.936242	-3.86263	-5.08286	7.37165	0.00121167	0.00457056	-0.0133352	0.187744	0.577393	-0.864746	-0.603585	0.00914153	-0.430199	0.671216	-5.85739	-6.67296	7.65482	-0.00743458	0.0148746	-0.0120832	0.356201	0.917969	-0.400635	0.093617	-0.175672	0.0114831	-0.97992	3.56017	-0.455881	9.91362	0.00533113	0.0242037	-0.00886438	-0.661865	0.118164	-0.821045	0.284839	-0.0112966	-0.0434855	-0.957522	0.448527	0.86062	11.1107	-0.00760453	0.0177039	-0.0147238	-0.488281	-0.0585938	-1.05518	0.104236	-0.0416243	-0.257504	-0.959736	2.09568	4.5795	9.24503	0.015838	0.00675916	-0.0200182	-0.639404	-0.419189	-0.892334	0.0290622	0.89263	-0.0895158	-0.440855	-7.11167	1.51385	-5.89939	0.0021327	0.0136989	-0.00259445	0.973633	-0.177246	0.394531	0.0263626	-0.13119	-0.0805744	-0.987726	2.55234	1.48266	9.41115	-0.00738717	0.0146382	0.00306877	-0.626221	-0.015625	-0.90625	
70	0.184081	0.0691089	-0.0199151	-0.980276	-1.38932	0.721879	10.8992	-0.00288278	0.000566714	-0.00283323	-0.230225	0.0827637	-1.13208	0.181419	0.296173	0.124229	-0.929481	-5.92602	-1.21096	7.91035	-0.00162346	0.00110779	-0.019985	0.495361	0.184082	-0.941895	0.0035595	0.213384	-0.119429	-0.969635	-4.43836	2.38165	9.36336	0.00397231	0.00118587	-0.000699208	0.0270996	-0.34668	-1.06787	-0.229605	0.223978	-0.304592	-0.896849	-5.27263	4.24858	6.98235	-0.00752643	-0.000782913	0.00704938	0.270752	-0.637939	-0.809814	0.0566977	0.193101	0.288255	-0.936166	-3.79871	-4.96258	7.42178	-0.0275533	0.00758275	-0.0143554	0.1875	0.585938	-0.857666	-0.603595	0.00915821	-0.430215	0.671196	-5.8397	-6.67368	7.62556	0.00822798	0.0161291	-0.0209456	0.354004	0.920166	-0.406982	0.0938163	-0.175727	0.0118404	-0.979887	3.47764	-0.481794	9.96548	0.00386611	0.000223666	-0.00278628	-0.659424	0.115967	-0.821045	0.285032	-0.0111997	-0.0439372	-0.957445	0.493362	0.830832	11.0212	0.0266225	0.0203361	-0.00951526	-0.49292	-0.052002	-1.05981	0.104266	-0.0416498	-0.25744	-0.959749	2.11102	4.57974	9.2421	0.000166296	0.00923651	-0.0194363	-0.637207	-0.416748	-0.896729	0.0290083	0.892588	-0.0895192	-0.440944	-7.06417	1.50014	-5.89122	0.00787519	0.00869921	0.00181188	0.973877	-0.181641	0.394775	0.0262917	-0.131216	-0.0804837	-0.987732	2.53948	1.46691	9.38148	-0.00226737	0.00494613	-0.00633754	-0.631104	-0.0112305	-0.899658	
71	0.184062	0.0690169	-0.0198561	-0.980287	-1.42784	0.740056	10.9197	-0.00546706	-0.00953005	-0.00124498	-0.223877	0.0871582	-1.12988	0.181348	0.295739	0.124119	-0.929648	-5.96812	-1.22808	7.97485	-0.00519203	-0.0034551	-0.0225541	0.493408	0.184082	-0.946777	0.00366801	0.213419	-0.119718	-0.969591	-4.4553	2.39748	9.40526	0.0120945	0.00870137	0.00660374	0.0249023	-0.348877	-1.07251	-0.229538	0.223831	-0.304615	-0.896895	-5.27094	4.30397	7.03248	0.00396098	0.00181942	0.0060595	0.268311	-0.637939	-0.816406	0.0568596	0.193036	0.288679	-0.936039	-3.88378	-5.11771	7.33289	-0.00440889	0.00351719	-0.0130215	0.185547	0.581787	-0.862305	-0.603585	0.00922541	-0.430056	0.671306	-5.85317	-6.62552	7.6725	0.00690784	0.0113587	-0.0206361	0.356201	0.920166	-0.411377	0.094071	-0.176015	0.0119652	-0.979809	3.52459	-0.493586	9.80387	0.00938362	0.0226171	-0.00428143	-0.664062	0.122559	-0.821289	0.285032	-0.0112803	-0.0434377	-0.957467	0.444686	0.802611	11.1604	-0.0318788	0.0210808	-0.0206387	-0.492676	-0.0563965	-1.05518	0.104298	-0.0416789	-0.257207	-0.959807	2.09111	4.55132	9.27328	-0.001529	0.00766849	-0.0176057	-0.634521	-0.421387	-0.892334	0.0289663	0.892536	-0.0895788	-0.44104	-7.02024	1.55428	-5.86054	-0.00416335	0.0134033	0.0024077	0.967041	-0.181885	0.392334	0.0262649	-0.131383	-0.0805676	-0.987703	2.58215	1.48235	9.36042	0.00600165	0.000665836	-0.00478521	-0.635498	-0.0090332	-0.897217	
72	0.184217	0.0690242	-0.0197183	-0.980261	-1.41749	0.736711	10.9503	-0.0032567	-0.00195572	0.0179781	-0.22583	0.0830078	-1.13647	0.181579	0.295329	0.123758	-0.929781	-5.87645	-1.29588	7.97282	0.0102644	-0.00669682	-0.00648376	0.495605	0.179688	-0.939453	0.00374492	0.213345	-0.119955	-0.969578	-4.38211	2.43804	9.47579	0.00665407	0.00496786	0.00595999	0.0229492	-0.351074	-1.06323	-0.229584	0.223686	-0.304672	-0.896901	-5.30609	4.3691	7.06513	0.00182808	0.000670078	0.00221456	0.270508	-0.635742	-0.807617	0.0568016	0.192996	0.288025	-0.936252	-3.80151	-5.00283	7.41712	0.0220803	0.0031527	-0.0123007	0.185303	0.583984	-0.862305	-0.603683	0.00933391	-0.430002	0.671251	-5.83299	-6.6555	7.64088	0.00161381	0.0131479	-0.0172741	0.349854	0.917969	-0.404785	0.094311	-0.175897	0.0124077	-0.979802	3.544	-0.505973	9.95051	-0.00545095	0.0119303	-0.00226526	-0.659668	0.118164	-0.823242	0.28519	-0.0113928	-0.0435425	-0.957414	0.562932	0.797695	11.0983	0.022862	0.0161821	-0.00438591	-0.490723	-0.0498047	-1.05298	0.104351	-0.0417305	-0.257239	-0.95979	2.12371	4.52943	9.2311	0.00968456	0.00768221	-0.0180952	-0.634766	-0.419189	-0.894531	0.0288886	0.892509	-0.0896176	-0.441092	-7.11602	1.54552	-5.87241	0.00549996	0.0098255	-0.00075713	0.969238	-0.179688	0.39917	0.0263802	-0.131392	-0.0807909	-0.987681	2.58761	1.51513	9.37256	0.0101563	0.0039202	0.00144365	-0.626465	-0.0090332	-0.906494	
73	0.184364	0.0689191	-0.0198067	-0.980239	-1.40632	0.63429	10.9165	0.00571336	-0.00737326	-0.000812095	-0.231934	0.0742188	-1.13428	0.18148	0.295594	0.123437	-0.929759	-5.96112	-1.21454	7.9326	0.00948646	0.0217652	-0.020582	0.490967	0.188477	-0.94458	0.00386901	0.213484	-0.120021	-0.969538	-4.43952	2.45671	9.42535	-0.00133795	0.00967132	0.00229377	0.0229492	-0.355225	-1.07007	-0.229534	0.223671	-0.304139	-0.897098	-5.25169	4.35259	7.01763	-0.0245946	0.00104141	-7.9269e-06	0.270752	-0.640137	-0.812012	0.0570042	0.192978	0.288644	-0.936053	-3.7936	-4.95905	7.4149	-0.0422952	0.0104275	-0.0171373	0.185303	0.583984	-0.862305	-0.603773	0.009531	-0.429945	0.671204	-5.79315	-6.71161	7.69365	0.00238697	0.00847514	-0.014997	0.354004	0.922363	-0.405029	0.0945156	-0.176216	0.0129416	-0.979718	3.49823	-0.545126	9.85687	-0.000849593	-0.0135437	-0.00248314	-0.661865	0.122559	-0.819092	0.285233	-0.0113169	-0.0438241	-0.957389	0.465117	0.789752	11.0874	0.00620676	0.00977249	-0.0167434	-0.492676	-0.0585938	-1.05737	0.104311	-0.0417587	-0.257326	-0.95977	2.11813	4.55493	9.25929	0.00833646	0.00416486	-0.0217653	-0.632568	-0.416748	-0.890137	0.0288952	0.892518	-0.0893745	-0.441123	-7.04153	1.51177	-5.87495	-0.00286592	0.0184189	-0.00828347	0.969482	-0.181885	0.396973	0.0265693	-0.13136	-0.0806459	-0.987692	2.64216	1.4807	9.35236	-0.00581079	0.0133765	0.00404201	-0.626465	-0.0112305	-0.899658	
74	0.184128	0.0690109	-0.0198755	-0.980275	-1.4133	0.733695	10.9099	0.00357424	-0.000794218	-0.00484508	-0.227783	0.076416	-1.13403	0.18141	0.295453	0.123217	-0.929847	-5.92517	-1.21628	7.97776	-0.00533354	-0.00022316	-0.0188199	0.486572	0.188477	-0.939697	0.00404083	0.213476	-0.120078	-0.969532	-4.47114	2.45549	9.41892	0.00125432	0.00498622	0.00560064	0.0185547	-0.35083	-1.07251	-0.229519	0.223698	-0.303785	-0.897215	-5.33478	4.27651	7.03788	-0.0091091	0.00477514	0.00115241	0.268311	-0.633545	-0.81665	0.0570043	0.192952	0.289148	-0.935903	-3.84436	-5.22035	7.32317	0.000125208	0.00770636	-0.0100115	0.185303	0.588379	-0.864746	-0.60397	0.00942591	-0.429702	0.671184	-5.87458	-6.65598	7.63281	0.0150607	0.0118295	-0.0136587	0.354004	0.922363	-0.40918	0.0948319	-0.176491	0.0128302	-0.979639	3.57425	-0.48056	9.85687	0.0253579	0.0235711	-0.00557288	-0.661865	0.118164	-0.821045	0.285273	-0.0113403	-0.0437399	-0.957381	0.533399	0.791354	11.1045	-0.00370703	0.0178485	-0.0130959	-0.495117	-0.052002	-1.0481	0.104294	-0.0417628	-0.257436	-0.959742	2.10172	4.5623	9.28945	0.0142958	0.00685349	-0.0215048	-0.639648	-0.412354	-0.896729	0.0286247	0.892582	-0.0894537	-0.440995	-7.10436	1.52774	-5.87886	0.0154771	0.0135861	0.00185588	0.969482	-0.181885	0.392334	0.0264727	-0.13105	-0.080605	-0.987739	2.51665	1.48386	9.43054	0.000250053	0.0188013	-0.00892391	-0.628662	-0.0134277	-0.901855	
75	0.184117	0.0691169	-0.0199082	-0.980269	-1.44194	0.736379	10.9203	0.000393452	-0.000291785	-0.00127624	-0.227783	0.0808105	-1.13647	0.18152	0.294796	0.123225	-0.930033	-5.92322	-1.23071	7.9316	-0.00725616	-0.011964	-0.0211172	0.490967	0.186279	-0.944336	0.00389936	0.213415	-0.119794	-0.969581	-4.45468	2.37769	9.42617	-0.012272	0.00207736	-0.00833124	0.020752	-0.353027	-1.06787	-0.229224	0.223748	-0.303384	-0.897414	-5.26294	4.27609	7.00879	-0.0230268	0.00608802	0.0110112	0.265869	-0.633545	-0.810059	0.0571391	0.193017	0.288164	-0.936184	-3.84754	-4.94991	7.40404	0.0325791	0.00318781	-0.00589728	0.189941	0.57959	-0.862305	-0.603957	0.00940771	-0.429574	0.671278	-5.84046	-6.66671	7.66839	0.00876958	0.0148939	-0.0219306	0.35376	0.924316	-0.407227	0.0949746	-0.176158	0.0130027	-0.979683	3.5123	-0.524965	9.96357	0.000561667	0.0208548	-0.00799177	-0.661621	0.115967	-0.825439	0.28523	-0.0111359	-0.0439872	-0.957384	0.468068	0.893388	11.0388	0.0212267	0.00824259	-0.00750731	-0.490723	-0.052002	-1.05298	0.104073	-0.0416769	-0.257645	-0.959714	2.087	4.60645	9.21989	0.000993312	0.00657325	-0.0192821	-0.636963	-0.418945	-0.898926	0.0287309	0.892516	-0.0895149	-0.441108	-7.06027	1.50897	-5.92748	0.00385469	0.00879917	0.0048175	0.973633	-0.177246	0.394531	0.0263138	-0.130953	-0.0804629	-0.987767	2.54272	1.48105	9.39708	-0.00440177	0.00897357	-0.00864535	-0.631104	-0.0112305	-0.906494	
76	0.184069	0.0690504	-0.0198558	-0.980284	-1.42953	0.726363	10.9309	-0.00331831	-0.00795565	-0.00122192	-0.227783	0.0808105	-1.13843	0.18145	0.29449	0.123036	-0.930169	-5.87601	-1.23546	7.97247	-0.00179157	-0.00113104	-0.0196866	0.491211	0.179688	-0.944092	0.00391722	0.213409	-0.12009	-0.969546	-4.40007	2.46397	9.39704	0.0136172	0.00627847	0.00553088	0.0251465	-0.351074	-1.06787	-0.229095	0.223654	-0.303244	-0.897517	-5.23994	4.29973	7.00947	0.00206908	0.00469951	0.00510697	0.265869	-0.633545	-0.812256	0.0573355	0.192926	0.28868	-0.936032	-3.83507	-5.01727	7.35518	-0.034308	0.00616244	-0.00942436	0.1875	0.58374	-0.855469	-0.603944	0.00944474	-0.42927	0.671484	-5.82951	-6.67613	7.64246	0.0144457	0.00600176	-0.0237215	0.356201	0.920166	-0.405029	0.0950254	-0.176121	0.0131261	-0.979683	3.48976	-0.546284	9.90335	0.00507799	0.0174471	-0.00826261	-0.657471	0.120361	-0.823242	0.285293	-0.011128	-0.0439161	-0.957369	0.493595	0.78499	11.0975	-0.00949762	0.0165444	-0.0195929	-0.495117	-0.052002	-1.05518	0.104092	-0.0417225	-0.257475	-0.959756	2.10408	4.57664	9.24487	-0.00879802	0.00696561	-0.0176356	-0.630127	-0.418945	-0.896729	0.0286655	0.892476	-0.0895649	-0.441183	-7.04148	1.51095	-5.87719	0.0112991	0.0100207	0.00197296	0.969238	-0.175293	0.394531	0.0262429	-0.131005	-0.0804891	-0.98776	2.57918	1.47602	9.36852	0.00278727	0.00731646	-0.00437248	-0.628662	-0.015625	-0.899414	
77	0.184084	0.068998	-0.0198188	-0.980285	-1.38713	0.729739	10.9148	-0.00357244	-0.00808043	0.00137725	-0.227783	0.0786133	-1.13428	0.181632	0.294075	0.122949	-0.930276	-5.91496	-1.20747	8.00602	-0.00861465	-0.00173207	-0.0114444	0.489014	0.181885	-0.937256	0.00393069	0.213577	-0.120354	-0.969476	-4.40106	2.48946	9.42435	0.00830639	0.0181109	0.00163795	0.0229492	-0.357422	-1.06763	-0.22882	0.223716	-0.302948	-0.897672	-5.2307	4.35196	7.05673	-0.0214538	0.00855639	0.0100132	0.265869	-0.633545	-0.807861	0.0574358	0.192923	0.28871	-0.936017	-3.86995	-5.11343	7.35246	-0.00452589	0.00610441	-0.00797437	0.1875	0.586182	-0.862305	-0.604029	0.00949853	-0.429078	0.671529	-5.83989	-6.6764	7.6617	0.0139022	0.00199853	-0.0182199	0.354248	0.915771	-0.402588	0.0951178	-0.175927	0.0129325	-0.979712	3.51237	-0.528723	9.84065	0.0158087	0.0138106	-0.00531409	-0.664062	0.122559	-0.821289	0.28524	-0.0112578	-0.0435287	-0.957401	0.499947	0.800083	11.1823	-0.0291092	0.0165025	-0.0207343	-0.492676	-0.0541992	-1.0481	0.103956	-0.04164	-0.257321	-0.959815	2.10045	4.51929	9.23236	0.00650842	0.00586211	-0.0182961	-0.634766	-0.418945	-0.898926	0.0288484	0.89243	-0.0895101	-0.441277	-7.06922	1.57164	-5.861	-0.011408	0.0105786	0.00162684	0.969238	-0.179688	0.390137	0.0263241	-0.131039	-0.0806663	-0.987739	2.59523	1.49275	9.37296	0.0112836	0.00757493	0.00203795	-0.633301	-0.0112305	-0.901855	
78	0.184181	0.0689117	-0.0198325	-0.980273	-1.38189	0.688078	10.8956	-0.000584159	-0.0108951	-0.0011101	-0.22998	0.0783691	-1.12988	0.181837	0.293677	0.12312	-0.930339	-5.93969	-1.22056	7.97787	-0.0286056	-0.0166619	-0.0119549	0.491211	0.184082	-0.937256	0.0041498	0.213762	-0.120361	-0.969434	-4.38104	2.4955	9.47229	-0.00328038	0.0229329	0.015541	0.0273438	-0.353271	-1.06323	-0.228667	0.223719	-0.302745	-0.897779	-5.24802	4.32682	7.04303	-0.0195262	0.00536422	0.0115052	0.266113	-0.635742	-0.809814	0.0572819	0.193071	0.287868	-0.936256	-3.78169	-5.03406	7.48329	0.0433976	0.0199572	-0.0159789	0.1875	0.583984	-0.860107	-0.604242	0.00974158	-0.42854	0.671678	-5.82741	-6.77217	7.70932	0.0227492	-0.0117544	-0.0223541	0.351807	0.920166	-0.405029	0.0954727	-0.175451	0.0129621	-0.979762	3.49696	-0.535791	9.92587	0.0129295	0.0308219	-0.000992771	-0.659912	0.124756	-0.825684	0.28539	-0.0113142	-0.0437838	-0.957344	0.50357	0.767313	11.048	0.0409176	0.00560272	-0.00734336	-0.488525	-0.052002	-1.05298	0.103974	-0.0416737	-0.257429	-0.959783	2.11014	4.53683	9.25355	0.0142036	0.00522783	-0.0181967	-0.636963	-0.418945	-0.898926	0.0290218	0.892461	-0.0893676	-0.44123	-7.03685	1.57828	-5.87387	-0.0151224	0.0194937	-0.00239162	0.971436	-0.179688	0.390137	0.0264911	-0.131036	-0.0808633	-0.987719	2.61094	1.49121	9.35207	0.0187946	0.0089529	0.00769955	-0.633301	-0.0112305	-0.901855	
79	0.184325	0.0689757	-0.01981	-0.980242	-1.41104	0.698094	10.9262	-0.000443941	-0.00243718	0.0036814	-0.225586	0.0808105	-1.13623	0.182196	0.293222	0.123145	-0.930409	-5.83796	-1.25942	8.00561	-0.0139554	0.000959336	-0.00728766	0.486816	0.184082	-0.944336	0.00481627	0.214009	-0.119695	-0.969459	-4.4799	2.43181	9.45369	-0.0366203	0.0142484	0.0144014	0.0251465	-0.353271	-1.07007	-0.228295	0.223727	-0.302193	-0.898057	-5.27735	4.30282	7.02247	-0.0267485	0.00543588	0.0104948	0.265869	-0.631348	-0.81665	0.0567416	0.193589	0.286736	-0.936529	-3.78826	-5.07195	7.34015	0.0592973	0.0241738	-0.0158306	0.189941	0.57959	-0.864746	-0.604317	0.00975794	-0.427972	0.671972	-5.7775	-6.72628	7.66707	0.0444126	-0.0140134	-0.0292813	0.352051	0.915771	-0.40918	0.095737	-0.175263	0.0128062	-0.979772	3.52289	-0.541306	9.83675	0.0170209	0.0304361	-0.00621305	-0.662109	0.122559	-0.827637	0.285546	-0.0109994	-0.0441675	-0.957284	0.476011	0.821254	11.1133	0.000733533	0.0298587	-0.0156276	-0.494873	-0.0541992	-1.05273	0.103791	-0.041485	-0.257783	-0.959716	2.12701	4.55553	9.25005	0.0174459	0.00804294	-0.0194013	-0.636963	-0.418945	-0.90332	0.0291129	0.892634	-0.0891476	-0.440919	-7.08061	1.53403	-5.8697	-0.00489047	0.0215165	-0.0056109	0.976074	-0.179443	0.394775	0.0269277	-0.130835	-0.0812513	-0.987702	2.59424	1.52542	9.36482	0.0155194	0.0198461	0.0119631	-0.630859	-0.0134277	-0.897217	
80	0.184253	0.068868	-0.0198184	-0.980263	-1.3945	0.735901	10.9207	-0.00135499	-0.00824406	-0.00464299	-0.22998	0.0786133	-1.13428	0.182067	0.293017	0.123128	-0.930501	-5.90473	-1.21086	8.01019	0.00255178	0.0043345	-0.030002	0.490967	0.186279	-0.942139	0.00498483	0.214165	-0.119465	-0.969452	-4.46537	2.33151	9.40052	0.00402047	0.0121326	0.00386296	0.0251465	-0.353271	-1.07227	-0.228121	0.223743	-0.301639	-0.898284	-5.28291	4.25556	7.01877	-0.0191751	0.00153483	0.00297699	0.26123	-0.624756	-0.818848	0.0567843	0.193637	0.285758	-0.936815	-3.85059	-4.85277	7.36144	0.0180815	0.00234103	-0.00796024	0.187988	0.575195	-0.866943	-0.604146	0.00957804	-0.427362	0.672516	-5.77362	-6.62465	7.7074	0.00881406	0.017976	-0.0141064	0.349854	0.915771	-0.411133	0.0960132	-0.174992	0.0130177	-0.979791	3.53053	-0.521178	9.95368	0.0105016	0.0226991	-0.00298964	-0.655273	0.118164	-0.821045	0.285551	-0.0111908	-0.0438063	-0.957296	0.516426	0.904897	11.0769	-0.00578037	0.0195806	-0.0127848	-0.49707	-0.0541992	-1.05054	0.103819	-0.0414679	-0.257927	-0.959675	2.09915	4.60939	9.23177	0.00760548	0.00972999	-0.0186117	-0.634521	-0.421387	-0.898926	0.0288541	0.89265	-0.0892095	-0.440891	-7.09802	1.47525	-5.87557	0.01246	0.00988814	0.00120059	0.973633	-0.177246	0.396973	0.0270132	-0.130618	-0.0812057	-0.987732	2.55919	1.50845	9.36705	-0.00108066	0.0147503	-0.0039817	-0.626709	-0.00463867	-0.899658	
81	0.184296	0.0688723	-0.0197649	-0.980256	-1.39726	0.738169	10.8997	-0.00433703	-0.00308954	0.00376595	-0.227783	0.0808105	-1.13428	0.181984	0.292629	0.122872	-0.930673	-5.92632	-1.24662	7.94836	-0.000195199	-0.00730835	-0.0184985	0.484619	0.184082	-0.944336	0.00488881	0.214271	-0.120115	-0.969348	-4.49155	2.44467	9.38884	0.0262135	0.0038682	0.000640022	0.0251465	-0.351074	-1.07007	-0.228146	0.223611	-0.301526	-0.898348	-5.28446	4.23988	7.0177	0.00595325	0.000511346	0.00152543	0.270508	-0.633545	-0.81665	0.0569581	0.193515	0.286939	-0.936469	-3.83423	-4.95575	7.39798	-0.0680173	0.00868272	-0.0208518	0.1875	0.583984	-0.862305	-0.604033	0.00945177	-0.427581	0.672479	-5.80215	-6.63741	7.70363	-0.00150902	0.0189205	-0.00895005	0.360352	0.924316	-0.409424	0.0961122	-0.174599	0.0133088	-0.979847	3.42793	-0.558882	9.85636	0.00310669	0.0301976	-0.00849632	-0.659912	0.122559	-0.825439	0.285696	-0.0111023	-0.0441971	-0.957236	0.480796	0.811168	11.091	0.0181219	0.0157752	-0.0107088	-0.490479	-0.0563965	-1.05054	0.103632	-0.0413545	-0.257831	-0.959726	2.10159	4.60507	9.24856	-0.00136135	0.00713781	-0.0184586	-0.636963	-0.419189	-0.896729	0.0287886	0.892636	-0.0892701	-0.440912	-7.06617	1.52386	-5.91305	0.0103687	0.00831523	0.00292921	0.971436	-0.17749	0.396973	0.026832	-0.130602	-0.0810875	-0.987749	2.51878	1.51739	9.36441	-0.00493985	0.00836392	-0.0106206	-0.633057	-0.0178223	-0.897217	
82	0.184554	0.0688009	-0.0196337	-0.980215	-1.41694	0.630108	10.9213	-0.00213855	-0.00649083	0.000869445	-0.230225	0.0827637	-1.13208	0.181888	0.291975	0.122683	-0.930922	-5.88053	-1.2233	7.9897	0.0027468	-0.0128462	-0.0265166	0.484375	0.190674	-0.939941	0.00492503	0.214165	-0.120499	-0.969324	-4.45263	2.4306	9.41838	0.0139768	0.00177626	0.00570831	0.0249023	-0.348877	-1.06787	-0.228292	0.223479	-0.301626	-0.898311	-5.2575	4.27192	7.05924	0.00735774	0.00160196	0.000505559	0.268066	-0.62915	-0.814453	0.0572791	0.19322	0.288226	-0.936115	-3.86745	-5.13793	7.40753	-0.0376301	-0.00424322	-0.0107488	0.191895	0.583984	-0.860107	-0.604025	0.00951692	-0.427792	0.672352	-5.85517	-6.64863	7.69358	-0.00511841	0.0194093	-0.0194502	0.349609	0.922119	-0.415771	0.0962424	-0.174474	0.0133559	-0.979856	3.48844	-0.52452	9.83169	0.0142559	0.0210543	-0.0106627	-0.657959	0.12915	-0.821533	0.285683	-0.0111342	-0.0438638	-0.957255	0.47168	0.781138	11.0892	-0.0116262	0.017434	-0.0190498	-0.495117	-0.052002	-1.0481	0.103675	-0.0414419	-0.257641	-0.959768	2.08705	4.52797	9.26922	-0.000985387	0.00613813	-0.016702	-0.637207	-0.416748	-0.894531	0.0285825	0.892588	-0.0893474	-0.441006	-7.03109	1.54138	-5.88808	0.00800827	0.00566813	0.000134718	0.966797	-0.173096	0.396729	0.0267132	-0.130684	-0.0809694	-0.987751	2.5555	1.51032	9.3821	-0.00252073	0.00499556	-0.00283096	-0.624023	-0.0134277	-0.892578	
83	0.184324	0.0687969	-0.0196954	-0.980257	-1.41739	0.701379	10.9325	0.0045424	-0.00676974	-0.00899433	-0.232422	0.0849609	-1.13428	0.181818	0.291444	0.122437	-0.931135	-5.84698	-1.20516	7.97687	-0.00071366	-0.0105731	-0.0198868	0.490967	0.188477	-0.946777	0.00499112	0.214143	-0.121121	-0.969251	-4.44332	2.49542	9.40512	0.026894	0.00581631	0.00702321	0.020752	-0.357422	-1.07007	-0.228473	0.223375	-0.301759	-0.898245	-5.25795	4.28015	7.02806	0.0110574	0.00188173	-0.00342406	0.265869	-0.62915	-0.81665	0.0570196	0.193217	0.287579	-0.93633	-3.8373	-5.06587	7.42942	0.0284184	0.00378475	-0.012794	0.187744	0.579346	-0.860107	-0.603778	0.00951347	-0.427734	0.672611	-5.81972	-6.71309	7.7093	0.00775984	0.0111071	-0.0216311	0.351807	0.920166	-0.415527	0.0961286	-0.173652	0.013296	-0.980014	3.46731	-0.513357	9.88932	0.0117403	0.0402093	-0.0131068	-0.657715	0.122559	-0.829834	0.285834	-0.0111742	-0.0440317	-0.957202	0.502372	0.824385	11.0699	0.0132573	0.0159704	-0.00794498	-0.488281	-0.0563965	-1.05054	0.103675	-0.0414419	-0.257641	-0.959768	2.08705	4.52797	9.26922	-0.000985387	0.00613813	-0.016702	-0.637207	-0.416748	-0.894531	0.0285281	0.892582	-0.0892988	-0.441031	-7.0676	1.53212	-5.88218	0.000489632	0.0128697	-0.000770755	0.967041	-0.17749	0.394531	0.0268232	-0.130689	-0.0810448	-0.987741	2.58238	1.49867	9.37456	0.00861044	0.00798974	0.00164024	-0.624512	-0.00683594	-0.899658	
84	0.184152	0.0687348	-0.0198112	-0.980291	-1.36425	0.760563	10.9175	0.00378398	-0.00831529	-0.00415555	-0.223633	0.0852051	-1.12988	0.18195	0.291094	0.122297	-0.931237	-5.81625	-1.22746	7.96034	-0.00219954	0.00341793	-0.0134733	0.482422	0.186279	-0.937256	0.00497839	0.214082	-0.121379	-0.969232	-4.45209	2.51231	9.44087	0.00292946	0.00413078	-0.000113698	0.0251465	-0.355225	-1.06763	-0.228561	0.223263	-0.301865	-0.898215	-5.27535	4.31416	7.06093	0.000886535	0.00430453	0.00224649	0.263672	-0.633545	-0.814453	0.0568384	0.193259	0.287055	-0.936493	-3.82859	-4.98295	7.33331	0.0102006	0.0091123	-0.0168263	0.187744	0.577393	-0.864746	-0.603827	0.0095089	-0.427473	0.672733	-5.77555	-6.64178	7.67774	0.00827776	0.0119699	-0.0173094	0.349854	0.917969	-0.40918	0.0961264	-0.17355	0.0132343	-0.980033	3.48552	-0.550907	9.90614	0.0173685	0.0163181	-0.0152938	-0.655273	0.118164	-0.82959	0.285937	-0.0111796	-0.0440468	-0.95717	0.533111	0.815135	11.1225	-0.00178128	0.0195684	-0.0153059	-0.494873	-0.0541992	-1.05054	0.103313	-0.0411371	-0.258049	-0.959711	2.11752	4.61144	9.25865	0.0120384	0.00745186	-0.0195602	-0.63916	-0.421387	-0.892334	0.0286088	0.892602	-0.0891392	-0.441019	-7.11752	1.47423	-5.87851	0.00167772	0.0120948	-0.00115147	0.971436	-0.17749	0.401367	0.0269573	-0.130728	-0.0811261	-0.987726	2.56964	1.49522	9.39576	0.00138824	0.00714624	-5.36429e-05	-0.626709	-0.00683594	-0.899658	
