40	Head	00b4120a												Throax	00b411e8												LUpArm	00b411d9												LFoArm	00b41148												RUpArm	00b411db												RFoArm	00b41204												Waist	00b411f7												Lthigh	00b411f4												Lshank	00b4111b												Rthigh	00b411c8												Rshank	00b411ee												
PacketCount	q0	q1	q2	q3	accX	accY	accZ	gyrX	gyrY	gyrZ	magX	magY	magZ	q0	q1	q2	q3	accX	accY	accZ	gyrX	gyrY	gyrZ	magX	magY	magZ	q0	q1	q2	q3	accX	accY	accZ	gyrX	gyrY	gyrZ	magX	magY	magZ	q0	q1	q2	q3	accX	accY	accZ	gyrX	gyrY	gyrZ	magX	magY	magZ	q0	q1	q2	q3	accX	accY	accZ	gyrX	gyrY	gyrZ	magX	magY	magZ	q0	q1	q2	q3	accX	accY	accZ	gyrX	gyrY	gyrZ	magX	magY	magZ	q0	q1	q2	q3	accX	accY	accZ	gyrX	gyrY	gyrZ	magX	magY	magZ	q0	q1	q2	q3	accX	accY	accZ	gyrX	gyrY	gyrZ	magX	magY	magZ	q0	q1	q2	q3	accX	accY	accZ	gyrX	gyrY	gyrZ	magX	magY	magZ	q0	q1	q2	q3	accX	accY	accZ	gyrX	gyrY	gyrZ	magX	magY	magZ	q0	q1	q2	q3	accX	accY	accZ	gyrX	gyrY	gyrZ	magX	magY	magZ	
0	0.183015	0.0683381	-0.0184994	-0.980558	-1.39466	0.656163	10.9051	0.0050869	-0.00194442	-0.0124744	-0.230225	0.0849609	-1.13867	0.19118	0.288771	0.125611	-0.929668	-5.88215	-1.2369	7.9878	0.00545368	0.0206536	-0.0183939	0.486816	0.186279	-0.944336	-0.00241381	0.212939	-0.116401	-0.970104	-4.43323	2.32567	9.43646	0.0193822	0.00302486	-0.000799763	0.0229492	-0.353027	-1.07471	-0.24589	0.216686	-0.30128	-0.895442	-5.23841	4.20199	7.06784	0.00293819	0.00864786	0.0066959	0.265869	-0.631348	-0.823242	0.0577823	0.189474	0.295636	-0.934538	-3.81072	-5.25357	7.32943	-0.0111794	0.00788429	-0.0167742	0.182373	0.603516	-0.846436	-0.620326	0.0228024	-0.426576	0.657806	-5.8897	-6.7446	7.56491	0.0113087	0.0122448	-0.0182623	0.366943	0.922363	-0.394287	0.0958501	-0.166592	0.00555887	-0.98134	3.4254	-0.482855	9.91401	0.01417	-0.0358756	0.0068444	-0.657227	0.109619	-0.837891	0.331961	-0.00831241	-0.0494594	-0.941959	0.51183	0.791799	11.1278	-0.0122756	0.0139711	-0.0131505	-0.499512	-0.0498047	-1.05518	0.0751951	-0.0436924	-0.24493	-0.965632	2.091	4.54255	9.263	0.0063714	0.00550805	-0.0203282	-0.641846	-0.416748	-0.901367	0.0313791	0.895827	-0.0921992	-0.4336	-7.08675	1.43263	-5.91823	0.00642281	0.00849551	0.00453503	0.973389	-0.173096	0.39917	0.0260387	-0.129978	-0.0757267	-0.988278	2.58341	1.35833	9.41103	0.00245868	0.00524747	-0.0147643	-0.628906	-0.0090332	-0.908691	
1	0.182919	0.0683778	-0.018552	-0.980572	-1.42752	0.695463	10.9475	0.00220841	-0.00402236	0.000911466	-0.230225	0.0830078	-1.14282	0.191139	0.288686	0.125465	-0.929723	-5.88681	-1.26518	8.01692	-0.00272365	0.00561681	-0.0181061	0.484375	0.188477	-0.949219	-0.00246074	0.212917	-0.116703	-0.970073	-4.43502	2.41788	9.48332	0.00465316	0.00507244	-0.000916591	0.0229492	-0.348877	-1.07251	-0.245763	0.216739	-0.30132	-0.89545	-5.24242	4.30069	7.11997	-0.00507832	0.0122115	0.00659792	0.266113	-0.633545	-0.821045	0.0580367	0.189575	0.295086	-0.934675	-3.79191	-5.21632	7.29514	0.0292658	0.00436172	0.00175742	0.180664	0.594727	-0.855469	-0.620357	0.0227325	-0.426273	0.657975	-5.88708	-6.66594	7.5603	0.0155202	0.00909915	-0.0210331	0.360352	0.926514	-0.398682	0.0961892	-0.16643	0.00530713	-0.981336	3.39036	-0.4592	9.94922	0.0240486	0.0263929	-0.00430754	-0.657471	0.118164	-0.833984	0.331913	-0.00798858	-0.0498007	-0.941961	0.521009	0.78394	11.0751	0.0191794	0.0165201	-0.0106052	-0.503662	-0.052002	-1.05737	0.0752174	-0.0437919	-0.244889	-0.965636	2.10018	4.53673	9.25941	0.00333837	0.00678399	-0.0198563	-0.63916	-0.421387	-0.898926	0.0313931	0.895791	-0.0923277	-0.433646	-7.07381	1.44773	-5.89567	0.000219559	0.0122382	0.00509982	0.973633	-0.175293	0.401367	0.025875	-0.129909	-0.0758416	-0.988282	2.58554	1.44507	9.39203	0.00508742	0.0126457	-0.00498036	-0.633545	-0.00463867	-0.904297	
2	0.182832	0.0683301	-0.0185127	-0.980592	-1.39938	0.684718	10.9368	-0.00218822	-0.00555034	-0.000302626	-0.230225	0.0852051	-1.14062	0.191238	0.288371	0.125372	-0.929813	-5.83381	-1.28555	8.03097	-0.00689246	0.000725987	-0.0154886	0.480225	0.184082	-0.944336	-0.00250104	0.212995	-0.116739	-0.970051	-4.41374	2.33229	9.46604	0.00713133	0.00923972	0.000541264	0.0270996	-0.344482	-1.07251	-0.245656	0.216886	-0.301014	-0.895547	-5.24088	4.22294	7.06159	-0.013085	0.00879963	0.00136702	0.268311	-0.633545	-0.814453	0.0581069	0.189492	0.294675	-0.934817	-3.77409	-5.07538	7.32457	0.000641411	0.00134509	-0.0130693	0.182861	0.592529	-0.853271	-0.620457	0.0227772	-0.426063	0.658016	-5.84333	-6.66572	7.59067	0.00724237	0.0100122	-0.0155689	0.360596	0.920166	-0.39209	0.0964667	-0.166656	0.00547846	-0.98127	3.39808	-0.489172	9.92004	0.010063	0.00642275	-0.00334548	-0.653076	0.118164	-0.82959	0.331947	-0.00807043	-0.0497746	-0.941949	0.53379	0.818269	11.0978	-0.00322952	0.0159078	-0.0149257	-0.503662	-0.0541992	-1.05518	0.0752452	-0.0438933	-0.244913	-0.965624	2.10346	4.5374	9.2666	0.00685823	0.006232	-0.0178994	-0.637207	-0.414551	-0.901367	0.0314398	0.895793	-0.0923035	-0.433643	-7.06169	1.47121	-5.92941	-0.00244207	0.0129115	0.000287268	0.973389	-0.170898	0.401367	0.0259635	-0.129753	-0.0758007	-0.988304	2.59078	1.39919	9.35752	0.00309262	0.0143107	0.00150272	-0.626953	-0.000244141	-0.904297	
3	0.182911	0.0683149	-0.0184254	-0.98058	-1.40817	0.668675	10.9252	-0.003103	-0.00525693	0.00373713	-0.230225	0.0830078	-1.13843	0.191306	0.288128	0.125216	-0.929895	-5.8094	-1.2425	8.00156	-0.00177506	-2.80485e-05	-0.0154765	0.480225	0.183838	-0.953857	-0.00248418	0.212979	-0.116742	-0.970054	-4.42672	2.42786	9.45802	-0.00666077	0.00625168	0.000761231	0.0249023	-0.348877	-1.08154	-0.245645	0.216886	-0.300839	-0.895609	-5.2348	4.25495	7.0968	-0.00781567	0.00533909	0.00432727	0.263672	-0.62915	-0.821045	0.0581367	0.189477	0.295358	-0.934603	-3.74789	-5.13845	7.30976	-0.028717	0.00624558	-0.0109465	0.18042	0.599121	-0.860107	-0.620587	0.0227804	-0.425993	0.657939	-5.82663	-6.69218	7.57046	0.00266179	0.0125343	-0.0121719	0.360352	0.926514	-0.392334	0.0965747	-0.166503	0.00522482	-0.981286	3.43564	-0.474459	9.90301	0.0184603	0.0122547	-0.00532617	-0.650879	0.116211	-0.833984	0.331966	-0.00808454	-0.0497897	-0.941942	0.53863	0.797377	11.1232	0.00889484	0.0160136	-0.0141921	-0.503906	-0.0476074	-1.05762	0.0752452	-0.0438933	-0.244913	-0.965624	2.10346	4.5374	9.2666	0.00685823	0.006232	-0.0178994	-0.637207	-0.414551	-0.901367	0.0314021	0.895898	-0.0922168	-0.433446	-7.09757	1.41157	-5.91103	0.000218052	0.0141554	-0.000754068	0.973389	-0.170898	0.396729	0.0260421	-0.129593	-0.075844	-0.988319	2.56792	1.40964	9.37152	0.00370454	0.0124155	-0.00286722	-0.633545	-0.00463867	-0.904297	
4	0.183042	0.0682758	-0.0183708	-0.980559	-1.39736	0.617338	10.9387	-0.00264777	-0.00708066	0.00140519	-0.22583	0.0852051	-1.13843	0.191476	0.287913	0.125132	-0.929938	-5.85272	-1.23133	8.02592	-0.00833053	0.00284207	-0.013615	0.489014	0.184082	-0.948975	-0.00253079	0.212993	-0.11668	-0.970058	-4.43198	2.35321	9.44585	0.00212135	0.00646561	-0.00075506	0.0229492	-0.35083	-1.07007	-0.245577	0.216871	-0.300662	-0.89569	-5.2287	4.23052	7.099	-0.00380575	0.00374141	0.0027389	0.268066	-0.62915	-0.81665	0.0581212	0.189304	0.29552	-0.934588	-3.74615	-5.19543	7.34162	0.00286873	0.00292687	-0.0177819	0.180664	0.594727	-0.855469	-0.620692	0.0228764	-0.426015	0.657822	-5.85041	-6.71033	7.58087	-0.00253112	0.0108608	-0.013672	0.358154	0.922363	-0.400635	0.0968562	-0.16638	0.00514048	-0.98128	3.39963	-0.452663	9.94875	0.0189408	0.0173952	-0.00418592	-0.652832	0.111816	-0.831543	0.332046	-0.00804817	-0.0499816	-0.941904	0.50964	0.837058	11.0801	0.0146331	0.0144626	-0.0135047	-0.496826	-0.0585938	-1.05518	0.0748446	-0.0436216	-0.245273	-0.965576	2.10282	4.55269	9.25227	0.0118075	0.00672915	-0.0196356	-0.641602	-0.423584	-0.901123	0.0313901	0.895886	-0.0921939	-0.433478	-7.10374	1.44873	-5.90074	0.00181906	0.00989774	-0.000964142	0.973389	-0.170898	0.401367	0.0261007	-0.129569	-0.0757933	-0.988325	2.58679	1.41135	9.37153	-0.000705633	0.0097006	-0.000750182	-0.633545	-0.00463867	-0.901855	
5	0.183063	0.0683638	-0.0184144	-0.980549	-1.41673	0.645317	10.9179	0.0038239	-0.00159252	-0.00190413	-0.228271	0.0871582	-1.13647	0.191552	0.287606	0.124829	-0.930058	-5.79672	-1.24506	8.04962	-0.00115131	0.00031288	-0.0118222	0.47998	0.19043	-0.949219	-0.00253413	0.21307	-0.116875	-0.970018	-4.40864	2.40159	9.45254	0.00779441	0.0108088	-0.00023672	0.0227051	-0.344482	-1.07495	-0.245628	0.216893	-0.300569	-0.895702	-5.22996	4.23772	7.09275	-0.00291288	0.0062499	-0.000786828	0.26123	-0.62915	-0.821045	0.0581065	0.189307	0.29547	-0.934604	-3.75813	-5.15872	7.33571	0.00346216	0.00807751	-0.0145289	0.18042	0.599121	-0.85791	-0.620739	0.0228594	-0.425965	0.657811	-5.86797	-6.74834	7.56624	0.00689965	0.0129654	-0.0137815	0.358398	0.920166	-0.39624	0.0969762	-0.166466	0.00518658	-0.981253	3.4213	-0.463018	9.96508	0.0115444	0.00735793	-0.00453015	-0.655273	0.115967	-0.835938	0.332088	-0.00799209	-0.0500641	-0.941885	0.543909	0.851209	11.102	-0.000783827	0.024233	-0.0153369	-0.501221	-0.0563965	-1.05518	0.0746884	-0.0435206	-0.245214	-0.965607	2.09572	4.56504	9.24846	-0.00271612	0.00932254	-0.0189342	-0.644043	-0.416748	-0.901367	0.0312679	0.89599	-0.0921472	-0.433283	-7.08176	1.43174	-5.90755	0.00733053	0.0119477	-0.00209393	0.973389	-0.168701	0.396729	0.0261741	-0.129421	-0.0758202	-0.98834	2.56598	1.40496	9.39049	0.00413977	0.0159239	-0.000201732	-0.633789	0.00195312	-0.908936	
6	0.183012	0.0682941	-0.0184835	-0.980562	-1.43834	0.665434	10.9251	0.00522777	-0.0111779	-0.0035683	-0.228027	0.0830078	-1.13428	0.19158	0.287632	0.124851	-0.930041	-5.81842	-1.24057	8.05021	-0.00766534	0.0163677	-0.0159446	0.47998	0.188232	-0.953857	-0.00260967	0.213213	-0.116992	-0.969972	-4.4428	2.38154	9.44758	0.00325631	0.0111182	-0.00247689	0.0249023	-0.344482	-1.07715	-0.245546	0.216854	-0.300261	-0.895838	-5.23808	4.24983	7.09744	-0.0136755	0.00220618	0.00338821	0.267822	-0.626953	-0.823242	0.0581342	0.189421	0.29534	-0.93462	-3.76552	-5.19077	7.29521	0.00408506	0.00921504	-0.00856154	0.184814	0.599121	-0.853271	-0.620595	0.0227492	-0.425862	0.658017	-5.84728	-6.66985	7.57371	0.0108874	0.0110116	-0.0158506	0.364746	0.920166	-0.39624	0.0972231	-0.166278	0.00548952	-0.981259	3.42006	-0.480146	9.94138	0.00555001	0.0207188	-0.00202076	-0.655273	0.115967	-0.838135	0.332068	-0.00804721	-0.0498439	-0.941903	0.48365	0.837327	11.1319	-0.0144192	0.0197114	-0.0170394	-0.501465	-0.0541992	-1.05518	0.0746884	-0.0435206	-0.245214	-0.965607	2.09572	4.56504	9.24846	-0.00271612	0.00932254	-0.0189342	-0.644043	-0.416748	-0.901367	0.0312185	0.896008	-0.0921082	-0.433256	-7.07794	1.4299	-5.91257	0.00228852	0.0131772	-0.000393343	0.973389	-0.170898	0.403564	0.0262916	-0.129309	-0.0758394	-0.98835	2.56197	1.41094	9.36872	0.00258723	0.0118344	4.43579e-05	-0.626465	-0.0090332	-0.899658	
7	0.18298	0.0682186	-0.0185142	-0.980572	-1.41349	0.700961	10.9136	-0.00183238	-0.00648987	0.00173801	-0.228027	0.0849609	-1.13647	0.191605	0.287714	0.125014	-0.929989	-5.84092	-1.24626	8.00303	-0.0126299	0.0210272	-0.0190359	0.486816	0.186279	-0.944336	-0.0025996	0.213223	-0.117108	-0.969956	-4.4755	2.37738	9.45817	0.00247505	0.0041684	0.0014553	0.0249023	-0.34668	-1.07715	-0.245515	0.216739	-0.300002	-0.895961	-5.26957	4.2213	7.11039	-0.0043056	-0.00170046	0.00259813	0.263184	-0.622559	-0.821289	0.0579691	0.189416	0.295502	-0.93458	-3.7614	-5.12198	7.3033	-0.00543968	0.00641373	-0.0147106	0.185059	0.592773	-0.862305	-0.620648	0.0227173	-0.425787	0.658017	-5.84458	-6.66192	7.57944	0.00700701	0.0153222	-0.015519	0.362549	0.924561	-0.396484	0.0974779	-0.166349	0.00573425	-0.98122	3.39129	-0.491381	9.92758	0.00664047	0.0115518	-0.00321065	-0.650635	0.111816	-0.83374	0.332149	-0.00812318	-0.0498388	-0.941874	0.535612	0.788971	11.0694	0.00785783	0.0191645	-0.010257	-0.501465	-0.052002	-1.05054	0.074524	-0.0433719	-0.245158	-0.965641	2.09666	4.54411	9.26991	0.000761121	0.00929241	-0.0189575	-0.639404	-0.416748	-0.898926	0.0311532	0.896044	-0.0920401	-0.4332	-7.05551	1.42559	-5.90804	0.00505979	0.0169297	-0.00600642	0.96875	-0.168701	0.401367	0.0263469	-0.129266	-0.0758005	-0.988357	2.56098	1.42901	9.38603	-0.00320554	0.0102965	-0.000568446	-0.629395	0.00195312	-0.904297	
8	0.183176	0.0681264	-0.0184508	-0.980543	-1.42272	0.653628	10.9267	-0.00424321	-0.00740615	0.008323	-0.230225	0.0849609	-1.13428	0.1916	0.287639	0.124924	-0.930025	-5.85357	-1.25785	8.02474	-0.00299151	0.00541514	-0.0175561	0.47998	0.188232	-0.949219	-0.00266393	0.21325	-0.11702	-0.969961	-4.47544	2.39656	9.44872	-0.00579264	0.00690742	-0.00668411	0.020752	-0.346436	-1.07715	-0.245524	0.216709	-0.29982	-0.896026	-5.25962	4.21867	7.11054	-0.0125392	-0.00023467	-2.02654e-05	0.263428	-0.626953	-0.823242	0.0578639	0.189398	0.295787	-0.9345	-3.78652	-5.23769	7.31032	-0.00556327	0.00899537	-0.0186414	0.187012	0.596924	-0.85791	-0.62048	0.0227008	-0.425965	0.65806	-5.86441	-6.68031	7.5724	-0.00150485	0.0157669	-0.0139099	0.364746	0.920166	-0.394287	0.097711	-0.166402	0.0060962	-0.981186	3.40054	-0.480971	9.91341	0.00302894	0.0157462	-0.00357647	-0.655273	0.115967	-0.835938	0.33219	-0.00805693	-0.0499161	-0.941856	0.504559	0.779875	11.1221	0.00344843	0.0173153	-0.0155435	-0.501465	-0.0541992	-1.05518	0.0743669	-0.0433121	-0.245234	-0.965637	2.09641	4.52889	9.25855	0.0100539	0.00655952	-0.0189006	-0.634766	-0.416748	-0.903564	0.0309108	0.896081	-0.0919433	-0.433162	-7.07966	1.40938	-5.91927	0.0132152	0.0124515	-0.00585382	0.977783	-0.170654	0.406006	0.0263801	-0.129231	-0.0756851	-0.98837	2.56141	1.40412	9.42349	-0.00732002	0.011586	-0.000352901	-0.626953	-0.000244141	-0.906494	
9	0.183253	0.0680897	-0.0183809	-0.980533	-1.42281	0.611043	10.9318	-0.000891756	-0.00629449	0.000177309	-0.232422	0.0827637	-1.13208	0.191534	0.287494	0.124957	-0.93008	-5.83014	-1.224	8.02974	-0.00809965	0.00865841	-0.0218343	0.480225	0.184082	-0.944336	-0.0028023	0.213186	-0.117033	-0.969973	-4.41961	2.36495	9.42381	0.00452686	0.00331303	-0.0024909	0.0249023	-0.344482	-1.07495	-0.245584	0.216631	-0.299647	-0.896087	-5.21366	4.19585	7.10511	0.000278628	0.00296723	0.000900167	0.265625	-0.624756	-0.823242	0.0578811	0.189354	0.29582	-0.934497	-3.78335	-5.13193	7.33814	-0.00913063	0.00593525	-0.0162411	0.187012	0.596924	-0.855469	-0.62048	0.0227008	-0.425965	0.65806	-5.86441	-6.68031	7.5724	-0.00150485	0.0157669	-0.0139099	0.364746	0.920166	-0.394287	0.0978878	-0.166385	0.00635155	-0.981169	3.41899	-0.478394	9.92877	0.00279717	0.0118709	-0.00678474	-0.659668	0.120361	-0.833984	0.33226	-0.00808075	-0.0499053	-0.941832	0.500574	0.826704	11.0554	0.00634337	0.0157361	-0.0112558	-0.495117	-0.052002	-1.05273	0.0744254	-0.043397	-0.245322	-0.965606	2.10944	4.55435	9.23995	0.0103828	0.00723762	-0.018444	-0.636963	-0.418945	-0.898926	0.0306471	0.896089	-0.0919022	-0.433173	-7.06765	1.42239	-5.88942	0.00619394	0.0136202	-0.00484971	0.971191	-0.168701	0.403564	0.0264216	-0.129159	-0.075524	-0.988391	2.55902	1.3858	9.39405	-0.00388694	0.0100911	-0.00189541	-0.631592	0.00195312	-0.9021	
10	0.183189	0.0680028	-0.0184391	-0.98055	-1.3977	0.645166	10.8964	0.00348784	-0.00687427	-0.00271327	-0.232666	0.0893555	-1.13647	0.191592	0.287266	0.124927	-0.930142	-5.82756	-1.25369	8.04749	-0.00757499	0.00450832	-0.0159884	0.47583	0.186035	-0.949219	-0.00281305	0.21321	-0.117268	-0.969939	-4.43173	2.42009	9.46928	0.00754261	0.010779	0.00127382	0.0229492	-0.348877	-1.07471	-0.24561	0.216472	-0.299565	-0.896145	-5.21941	4.20546	7.13543	-0.00287318	-0.00125835	0.002824	0.263428	-0.626953	-0.827637	0.057862	0.189348	0.296169	-0.934389	-3.76545	-5.21784	7.30432	-0.0111931	0.0102644	-0.0154204	0.184814	0.599121	-0.848633	-0.62004	0.0225291	-0.426174	0.658345	-5.87064	-6.67155	7.58546	0.00556013	0.012862	-0.0183965	0.360352	0.922363	-0.396484	0.0980942	-0.1662	0.00650611	-0.981179	3.39586	-0.499957	9.89874	0.0150636	0.0269162	-0.00550414	-0.653076	0.116211	-0.835938	0.332339	-0.00809568	-0.0498806	-0.941805	0.52126	0.817131	11.1251	-0.0038213	0.0223976	-0.0136925	-0.503662	-0.0541992	-1.05737	0.0742613	-0.0432845	-0.245369	-0.965612	2.11492	4.56487	9.24607	0.00486912	0.00735177	-0.0183771	-0.639404	-0.416748	-0.898926	0.0305165	0.896098	-0.0917912	-0.433188	-7.09737	1.42033	-5.91917	0.00409326	0.0103901	-0.00550494	0.978027	-0.172852	0.401367	0.0264838	-0.129244	-0.0755363	-0.988377	2.53132	1.38079	9.38297	0.00271977	0.00225291	0.000475375	-0.631592	0.00415039	-0.904297	
11	0.183066	0.067995	-0.0184622	-0.980573	-1.37222	0.675047	10.9206	0.000349365	-0.00466255	-0.00368047	-0.230469	0.0871582	-1.13867	0.191613	0.286936	0.124928	-0.930239	-5.82631	-1.23896	8.01387	-0.00773684	0.000522791	-0.0201213	0.480225	0.186279	-0.946777	-0.00282129	0.213173	-0.117415	-0.969929	-4.44073	2.37021	9.43431	0.00695318	0.00412363	0.00300949	0.0249023	-0.351074	-1.07471	-0.245549	0.216389	-0.299559	-0.896184	-5.22834	4.21577	7.13043	0.00469674	0.00528158	0.00489228	0.263672	-0.62915	-0.818848	0.0578571	0.189283	0.295834	-0.934509	-3.78956	-5.19161	7.30271	0.0147807	-7.3888e-05	-0.0141732	0.184814	0.594727	-0.853271	-0.620065	0.0225797	-0.426187	0.658311	-5.85257	-6.68404	7.56838	0.00150884	0.0159797	-0.0166873	0.360352	0.924316	-0.398682	0.0982036	-0.165892	0.00668266	-0.981219	3.40314	-0.500016	9.88327	0.00767753	0.0304175	-0.0105638	-0.648682	0.116211	-0.831787	0.332375	-0.00820057	-0.0496996	-0.941801	0.536126	0.824666	11.0852	-0.000549733	0.0183639	-0.0128715	-0.495117	-0.0476074	-1.05298	0.074346	-0.0433612	-0.245274	-0.965626	2.09022	4.56322	9.28068	0.00158418	0.00671728	-0.0176558	-0.641846	-0.414551	-0.89917	0.0304243	0.896044	-0.0918087	-0.433302	-7.09409	1.39411	-5.90958	0.0085714	0.00403773	0.00135728	0.970947	-0.166504	0.401123	0.0265656	-0.129365	-0.0755658	-0.988357	2.58191	1.40578	9.41004	0.00481994	0.00328214	-0.00158272	-0.628906	-0.00463867	-0.906494	
12	0.183146	0.0679897	-0.0184782	-0.980558	-1.38815	0.673695	10.9325	0.00102797	-0.00504644	0.00463222	-0.223633	0.0852051	-1.13647	0.191503	0.286731	0.125046	-0.930309	-5.80997	-1.26266	8.02299	-0.00733301	-0.000141909	-0.0160133	0.480225	0.186279	-0.946777	-0.00274919	0.213142	-0.117535	-0.969922	-4.41695	2.39883	9.45085	0.000926934	0.00556774	0.00493426	0.0249023	-0.348877	-1.07031	-0.24556	0.216354	-0.299594	-0.896178	-5.20815	4.2197	7.13565	0.00396851	0.0051235	0.0027267	0.263428	-0.626953	-0.81665	0.0576698	0.189317	0.296141	-0.934416	-3.72556	-5.14189	7.31856	-0.0114699	0.0087686	-0.0159512	0.180176	0.601562	-0.862305	-0.619899	0.0225849	-0.426309	0.658389	-5.8287	-6.71208	7.56597	-0.000121361	0.0138472	-0.0150958	0.362549	0.922363	-0.39209	0.0980571	-0.16533	0.00655642	-0.98133	3.3841	-0.505766	9.9114	0.0133274	0.0293517	-0.0143176	-0.655273	0.115967	-0.835938	0.332457	-0.00820018	-0.0499381	-0.94176	0.549249	0.780232	11.0963	0.0134293	0.0119319	-0.0113106	-0.501465	-0.052002	-1.05518	0.0741854	-0.0432563	-0.245194	-0.965663	2.1077	4.54782	9.24198	-0.000268275	0.00767592	-0.0183702	-0.639404	-0.418945	-0.90332	0.0304243	0.896044	-0.0918087	-0.433302	-7.09409	1.39411	-5.90958	0.0085714	0.00403773	0.00135728	0.970947	-0.166504	0.401123	0.0265832	-0.129414	-0.0755354	-0.988352	2.59731	1.39791	9.36196	0.0014337	0.00754444	-0.00266783	-0.62915	-0.00244141	-0.904297	
13	0.183178	0.0679857	-0.0184907	-0.980552	-1.39316	0.662591	10.9287	0.00115416	-0.00544198	0.00274137	-0.228027	0.0830078	-1.14062	0.191489	0.286634	0.125046	-0.930342	-5.79751	-1.25922	8.0424	-0.00673673	0.00592272	-0.0207261	0.478027	0.186279	-0.949219	-0.00271822	0.213251	-0.117732	-0.969874	-4.42633	2.40163	9.43554	0.00845407	0.0105712	0.00133842	0.0249023	-0.34668	-1.07471	-0.245723	0.216346	-0.299646	-0.896118	-5.21886	4.2271	7.1423	0.00800374	0.00422947	-0.00404639	0.263672	-0.62915	-0.821045	0.0576492	0.189329	0.29635	-0.934349	-3.75018	-5.21556	7.29592	-0.0177534	0.011431	-0.0182284	0.184814	0.599121	-0.85083	-0.619949	0.0225461	-0.42626	0.658375	-5.83407	-6.68243	7.57551	0.00871678	0.0138822	-0.0133639	0.362549	0.924561	-0.396484	0.0980434	-0.165247	0.0064692	-0.981346	3.37836	-0.503682	9.90662	0.0216201	0.020386	-0.0169306	-0.646729	0.116211	-0.838135	0.332479	-0.00816836	-0.0498174	-0.941758	0.540037	0.798431	11.1287	-0.00421566	0.0237449	-0.0140325	-0.501465	-0.052002	-1.05054	0.0742165	-0.0432817	-0.245151	-0.96567	2.11279	4.53199	9.26689	0.00282942	0.00844891	-0.0188216	-0.636963	-0.421387	-0.90332	0.0305118	0.896199	-0.0917366	-0.43299	-7.07295	1.41915	-5.89148	-0.00125303	0.0135564	-0.00031776	0.970947	-0.166504	0.398926	0.0265937	-0.129407	-0.0755311	-0.988353	2.57642	1.39841	9.38486	0.00110472	0.00891305	-0.00226282	-0.631348	-0.000244141	-0.9021	
14	0.183234	0.0680402	-0.0185418	-0.980537	-1.35552	0.658725	10.9099	0.00393255	0.00161259	0.0045352	-0.230469	0.0893555	-1.13428	0.191485	0.286555	0.124926	-0.930383	-5.81447	-1.23945	8.032	-0.00667337	0.0114138	-0.0163434	0.47583	0.186035	-0.951416	-0.00266781	0.213245	-0.117783	-0.969869	-4.43535	2.393	9.45178	0.00164295	0.00687688	0.0048362	0.0249023	-0.348877	-1.07471	-0.245784	0.216306	-0.299668	-0.896103	-5.22547	4.1934	7.14025	0.00334162	0.00603716	0.00113706	0.265625	-0.626953	-0.818848	0.0575631	0.189226	0.296192	-0.934425	-3.7848	-5.21694	7.3107	0.011521	0.00269197	-0.0198985	0.182617	0.596924	-0.85083	-0.620013	0.0225689	-0.426275	0.658304	-5.8758	-6.6563	7.5677	7.29519e-05	0.0132733	-0.0116395	0.358398	0.922363	-0.394287	0.0980037	-0.16506	0.00637568	-0.981382	3.40322	-0.474293	9.98244	0.0211266	0.0191275	-0.0181639	-0.653076	0.114014	-0.835938	0.332461	-0.00822197	-0.0497035	-0.941771	0.540106	0.813862	11.122	0.00633255	0.0156269	-0.0150776	-0.492676	-0.0541992	-1.05518	0.0742483	-0.0433144	-0.245153	-0.965666	2.10761	4.54836	9.27569	0.00632191	0.0074283	-0.0183579	-0.634766	-0.418945	-0.90332	0.0304957	0.896206	-0.091707	-0.432984	-7.10955	1.41731	-5.93287	0.00154744	0.0103967	0.00135895	0.973389	-0.168701	0.405762	0.0266947	-0.129411	-0.0754834	-0.988353	2.57131	1.38243	9.39168	0.00410103	0.00703617	0.000435393	-0.626953	-0.000244141	-0.904297	
15	0.183167	0.0680859	-0.0185784	-0.980545	-1.42245	0.655142	10.9165	0.00231804	-0.00317216	-0.00445833	-0.227783	0.0808105	-1.13647	0.191541	0.286588	0.125246	-0.930318	-5.81619	-1.19991	7.96989	-0.0185399	0.0217514	-0.0203907	0.478027	0.188477	-0.946777	-0.00260864	0.213277	-0.117774	-0.969864	-4.48985	2.38156	9.43665	-0.0018548	0.0087384	0.00423588	0.0251465	-0.351074	-1.07007	-0.245822	0.216278	-0.299702	-0.896088	-5.25671	4.19287	7.13361	0.00462083	0.00487251	0.000500071	0.265869	-0.62915	-0.821045	0.057355	0.189339	0.296088	-0.934448	-3.76167	-5.17132	7.3174	0.00573901	0.0102053	-0.0129672	0.184814	0.596924	-0.855469	-0.619655	0.0224684	-0.426399	0.658564	-5.87873	-6.71112	7.58111	0.00366587	0.0133781	-0.0151882	0.358154	0.922363	-0.400635	0.0979611	-0.165089	0.00626265	-0.981382	3.35822	-0.496566	9.92888	0.0177875	0.0220695	-0.0159568	-0.651123	0.118164	-0.835938	0.332603	-0.00807411	-0.0500317	-0.941704	0.497846	0.857426	11.0612	0.0198697	0.0194536	-0.0104091	-0.497314	-0.052002	-1.05762	0.0738383	-0.0429913	-0.245401	-0.965649	2.09607	4.5619	9.25112	0.00879566	0.00820024	-0.0200564	-0.643799	-0.423584	-0.901123	0.0306505	0.896286	-0.0916753	-0.432813	-7.06602	1.41197	-5.92133	-0.00420071	0.0140104	0.00215903	0.971191	-0.170898	0.398926	0.0267008	-0.129445	-0.0755621	-0.988343	2.54947	1.39579	9.39597	0.00763511	0.00510642	-0.00358643	-0.62915	-0.000244141	-0.906494	
16	0.18329	0.0680912	-0.0185528	-0.980522	-1.42563	0.69976	10.9398	-0.000107375	-0.00185422	0.0165553	-0.228027	0.0852051	-1.13867	0.191557	0.28655	0.124983	-0.930363	-5.76654	-1.26947	8.09033	0.00829564	0.00630922	-0.0147464	0.478027	0.186279	-0.946777	-0.00268678	0.213273	-0.117535	-0.969893	-4.41872	2.37435	9.43389	0.0017839	0.00755555	-0.00743909	0.0227051	-0.344482	-1.07251	-0.245887	0.216274	-0.299706	-0.89607	-5.19755	4.22144	7.12503	-0.00162691	0.0050449	-5.41386e-05	0.26123	-0.624756	-0.825439	0.0573917	0.189393	0.296238	-0.934387	-3.76622	-5.21917	7.29598	-0.00741881	0.00453994	-0.00895718	0.180664	0.594727	-0.85791	-0.619723	0.0224718	-0.426389	0.658507	-5.84986	-6.64533	7.55616	-0.00550329	0.0171737	-0.0145863	0.358154	0.924316	-0.398682	0.0979023	-0.16516	0.00638659	-0.981375	3.42023	-0.48184	9.96983	0.0047978	0.0139757	-0.0167256	-0.648926	0.118164	-0.833984	0.332631	-0.00812609	-0.0497945	-0.941707	0.540714	0.816855	11.0609	-0.0147069	0.0219997	-0.0163617	-0.495117	-0.0498047	-1.06226	0.0738383	-0.0429913	-0.245401	-0.965649	2.09607	4.5619	9.25112	0.00879566	0.00820024	-0.0200564	-0.643799	-0.423584	-0.901123	0.030642	0.896261	-0.0916949	-0.432862	-7.10831	1.42787	-5.89486	0.00106213	0.00972565	0.00111081	0.975586	-0.170654	0.398926	0.0267631	-0.129546	-0.0755511	-0.988329	2.58393	1.38207	9.35718	-0.00223947	0.00401836	-0.000439404	-0.626953	-0.00244141	-0.904297	
17	0.183315	0.0680322	-0.0185366	-0.980522	-1.41023	0.642619	10.9176	0.000389108	-0.00579111	-0.00281919	-0.227783	0.0808105	-1.13843	0.191629	0.286976	0.124995	-0.930215	-5.82613	-1.26817	8.01616	-0.001016	0.0321658	-0.014627	0.482178	0.188232	-0.949219	-0.00270631	0.213312	-0.117671	-0.969868	-4.43835	2.38018	9.43997	0.0112817	0.00895164	0.000353681	0.0249023	-0.348877	-1.07031	-0.245887	0.216274	-0.299706	-0.89607	-5.19755	4.22144	7.12503	-0.00162691	0.0050449	-5.41386e-05	0.26123	-0.624756	-0.825439	0.0574888	0.189315	0.296244	-0.934395	-3.74108	-5.13518	7.35569	-0.00797695	0.00840395	-0.0182045	0.180664	0.592529	-0.853271	-0.619827	0.0225727	-0.426465	0.658356	-5.85992	-6.74398	7.58782	0.00339185	0.0133768	-0.0119989	0.358154	0.924316	-0.402832	0.0978892	-0.165393	0.0066171	-0.981335	3.37316	-0.494185	9.93621	0.0112036	-0.0136885	-0.0126188	-0.655273	0.118164	-0.840332	0.332618	-0.00826881	-0.049703	-0.941715	0.522477	0.790612	11.1376	0.00571214	0.0104663	-0.0143476	-0.49707	-0.052002	-1.05054	0.0734927	-0.0426884	-0.245133	-0.965757	2.08489	4.52715	9.29862	-0.000615522	0.00948389	-0.0193244	-0.637207	-0.414551	-0.901367	0.0306621	0.896246	-0.0916489	-0.432902	-7.07536	1.41896	-5.94578	-0.00401851	0.0171348	0.000500406	0.973389	-0.168701	0.398926	0.026777	-0.129573	-0.0755883	-0.988322	2.60334	1.39934	9.38762	0.00436161	0.00592175	-0.00224995	-0.62915	-0.000244141	-0.9021	
18	0.18326	0.0680259	-0.018541	-0.980533	-1.4075	0.666303	10.9215	0.000513153	-0.00420138	0.00200504	-0.22998	0.0808105	-1.13843	0.191567	0.28708	0.125025	-0.930191	-5.84464	-1.23564	8.04918	-0.011334	0.0145132	-0.0188093	0.478027	0.188477	-0.946777	-0.0026582	0.213298	-0.117617	-0.969878	-4.47245	2.44075	9.45671	-0.0113295	0.000704711	-0.000913944	0.0227051	-0.34668	-1.06787	-0.246021	0.216341	-0.299765	-0.895997	-5.2631	4.26334	7.14137	0.00192502	0.006338	-0.00564333	0.26123	-0.62915	-0.827637	0.0574273	0.189452	0.296271	-0.934363	-3.79529	-5.26363	7.28622	0.00802295	0.0122835	-0.0114303	0.186768	0.603516	-0.855469	-0.619937	0.0224888	-0.426274	0.658379	-5.86073	-6.66584	7.58052	0.0103665	0.0112591	-0.0130455	0.358154	0.926514	-0.403076	0.0978955	-0.165255	0.00633499	-0.98136	3.38591	-0.480746	9.91176	0.0226707	0.029876	-0.0201448	-0.644531	0.116211	-0.835938	0.332701	-0.00820792	-0.0498845	-0.941676	0.513162	0.792848	11.104	0.013306	0.0159474	-0.0124605	-0.499268	-0.0563965	-1.05273	0.0735257	-0.0428313	-0.245323	-0.9657	2.0914	4.5494	9.2518	0.0182803	0.00428483	-0.0202031	-0.637207	-0.414551	-0.903564	0.0307834	0.896372	-0.0915213	-0.432659	-7.0738	1.43979	-5.89701	-0.00444041	0.0177142	-0.00203556	0.975342	-0.164062	0.398926	0.0268098	-0.129445	-0.0756531	-0.988333	2.56983	1.43248	9.41602	0.00276229	0.015533	-0.00285534	-0.624512	-0.00244141	-0.904297	
19	0.183254	0.0680542	-0.0185197	-0.980532	-1.3953	0.647512	10.9104	0.00125143	-0.00297233	-0.00100661	-0.234375	0.0786133	-1.13843	0.191679	0.287101	0.125191	-0.93014	-5.81138	-1.25107	8.02619	-0.0134381	0.0185442	-0.016156	0.482422	0.184082	-0.951416	-0.0027108	0.213267	-0.117215	-0.969933	-4.45166	2.35939	9.42843	-0.00949153	0.00438183	-0.00293796	0.0292969	-0.34668	-1.07251	-0.24606	0.216481	-0.299509	-0.896038	-5.23652	4.2124	7.10754	-0.0130668	0.00946342	-0.00246021	0.267822	-0.624756	-0.825439	0.0574454	0.189477	0.295948	-0.934459	-3.7878	-5.2147	7.276	0.0259817	0.00641805	-0.00839778	0.187012	0.594727	-0.855469	-0.620075	0.0224436	-0.426291	0.65824	-5.84496	-6.69231	7.581	-0.000232564	0.0138383	-0.00917622	0.364746	0.924561	-0.398682	0.0978541	-0.16531	0.00636673	-0.981354	3.37911	-0.481439	9.96362	0.0108179	0.00459381	-0.0153703	-0.65332	0.120361	-0.838135	0.33275	-0.00817703	-0.0502188	-0.941642	0.512618	0.856088	11.0471	0.0160959	0.0132906	-0.0130483	-0.492676	-0.0541992	-1.05518	0.0735758	-0.042942	-0.245424	-0.965665	2.09859	4.5765	9.26403	0.00576381	0.00659088	-0.0178212	-0.641846	-0.416748	-0.898926	0.0308084	0.896462	-0.0913334	-0.43251	-7.07103	1.43579	-5.89646	0.00106336	0.0220361	-0.00508539	0.970947	-0.164307	0.405762	0.0269394	-0.129116	-0.0754876	-0.988385	2.55622	1.40991	9.3895	-0.00642111	0.0235711	0.000979308	-0.626953	-0.00244141	-0.901855	
20	0.183162	0.0680861	-0.0185294	-0.980547	-1.39232	0.657058	10.9304	7.70364e-05	-0.00262378	-0.00337427	-0.22998	0.0808105	-1.14062	0.191605	0.287115	0.125302	-0.930135	-5.8325	-1.21712	8.03765	-0.00864145	0.0142651	-0.0226962	0.480225	0.181885	-0.946533	-0.00278661	0.213202	-0.116913	-0.969984	-4.45538	2.37625	9.43637	-0.0155126	0.000523797	-0.00331558	0.0185547	-0.346436	-1.07471	-0.246038	0.216562	-0.299306	-0.896093	-5.23459	4.17228	7.10684	-0.0020901	0.00748063	0.00195764	0.265625	-0.626953	-0.825439	0.0572357	0.189551	0.296317	-0.93434	-3.75857	-5.21473	7.30184	-0.0304288	0.011261	-0.0127021	0.18042	0.596924	-0.853271	-0.620142	0.022361	-0.426298	0.658175	-5.85658	-6.67538	7.596	0.00163154	0.0185892	-0.0155394	0.358154	0.924561	-0.39209	0.0977871	-0.165303	0.00630616	-0.981363	3.42938	-0.465461	9.89013	0.0144892	0.0251937	-0.0181063	-0.651123	0.118164	-0.840332	0.332771	-0.0082333	-0.0499351	-0.941649	0.512597	0.853539	11.1217	-0.0162058	0.0185424	-0.0173893	-0.497314	-0.052002	-1.06445	0.0736025	-0.0429716	-0.245363	-0.965677	2.09603	4.56395	9.25515	0.00120347	0.0085127	-0.0196299	-0.639404	-0.418945	-0.901123	0.0308182	0.896474	-0.0912731	-0.432498	-7.09895	1.40324	-5.9295	-0.00633343	0.011766	0.000199856	0.971191	-0.168701	0.403564	0.0269186	-0.128924	-0.0753478	-0.988421	2.50916	1.37911	9.40267	-0.00290261	0.011965	-0.00589078	-0.624756	-0.000244141	-0.911133	
21	0.183044	0.0681235	-0.0185199	-0.980567	-1.42844	0.667344	10.9136	0.000777276	-0.00325439	-0.00277344	-0.230225	0.0849609	-1.13647	0.19159	0.287094	0.125305	-0.930145	-5.81743	-1.24927	8.02174	-0.00660671	0.0121505	-0.0194004	0.478027	0.188232	-0.95166	-0.00283994	0.21307	-0.116909	-0.970013	-4.42359	2.35057	9.42395	0.00544452	0.0012949	-4.73741e-05	0.0185547	-0.348633	-1.07471	-0.246083	0.216507	-0.299449	-0.896046	-5.22543	4.1785	7.11138	0.00763963	0.00732355	0.00319521	0.263428	-0.624756	-0.821045	0.0572644	0.189501	0.296326	-0.934345	-3.76488	-5.18195	7.31871	0.00558603	0.00501763	-0.0167237	0.180664	0.594727	-0.860107	-0.620125	0.022356	-0.42636	0.65815	-5.90069	-6.66853	7.55774	0.00461481	0.0163024	-0.0185375	0.364746	0.924561	-0.396484	0.0977551	-0.164912	0.00618082	-0.981433	3.36072	-0.491732	9.98307	0.0224766	0.0206479	-0.0174754	-0.653076	0.114014	-0.838135	0.332885	-0.00830557	-0.0498718	-0.941611	0.565098	0.807568	11.0939	0.0101275	0.0191583	-0.00826117	-0.497314	-0.052002	-1.05762	0.0734747	-0.0429109	-0.245113	-0.965753	2.10301	4.55675	9.26354	-0.00538743	0.00720571	-0.0181808	-0.639404	-0.419189	-0.896729	0.0308735	0.896415	-0.0913148	-0.432607	-7.07506	1.41726	-5.89514	0.00216755	0.00546859	0.00520036	0.97583	-0.172852	0.401367	0.0267678	-0.129042	-0.0752645	-0.988416	2.54162	1.37822	9.39539	-0.00113489	0.000901223	-0.00897337	-0.622559	0.00219727	-0.906494	
22	0.18295	0.0681348	-0.0184608	-0.980585	-1.37002	0.690482	10.9186	-0.00358524	-0.00292182	-0.00758914	-0.228027	0.0852051	-1.13867	0.191324	0.287183	0.125584	-0.930134	-5.82361	-1.26223	8.00536	-0.00968724	0.0139138	-0.0214752	0.480225	0.186035	-0.951416	-0.00291801	0.212941	-0.116948	-0.970036	-4.41048	2.38262	9.4617	-0.00295302	0.00166816	-0.00295286	0.0227051	-0.34668	-1.07471	-0.246154	0.216493	-0.299782	-0.895918	-5.22703	4.2603	7.11493	0.0127317	0.01009	-0.000217775	0.263428	-0.626953	-0.825439	0.0572189	0.18948	0.296243	-0.934379	-3.79192	-5.1868	7.29049	0.00626415	0.00642679	-0.0167184	0.184814	0.594727	-0.855469	-0.620168	0.022441	-0.426385	0.658091	-5.88212	-6.67972	7.56379	-0.00314106	0.011283	-0.0156408	0.360352	0.922363	-0.398682	0.0977286	-0.165035	0.00608054	-0.981415	3.39959	-0.476795	9.9809	0.0207754	0.00342772	-0.0179061	-0.650879	0.114014	-0.840332	0.332914	-0.00822048	-0.0499249	-0.941599	0.495688	0.786393	11.1069	0.0102864	0.0226656	-0.0140784	-0.499268	-0.052002	-1.05518	0.073521	-0.0429582	-0.24499	-0.965779	2.09748	4.52587	9.22783	-0.00422554	0.00786216	-0.0173414	-0.637207	-0.414551	-0.898926	0.0309657	0.896393	-0.0913007	-0.43265	-7.05842	1.42802	-5.90838	-0.00568774	0.00942084	0.00271408	0.977783	-0.170654	0.406006	0.0267229	-0.129095	-0.0752532	-0.988412	2.58963	1.41031	9.39152	0.0032613	0.00894386	-0.00552075	-0.62915	-0.00244141	-0.904297	
23	0.182996	0.0681886	-0.0183772	-0.980574	-1.43576	0.645425	10.938	-0.00307033	-0.00513749	0.0011304	-0.228027	0.0830078	-1.13843	0.191412	0.28719	0.125568	-0.930116	-5.78071	-1.26696	8.05714	-0.0123003	0.0146316	-0.013857	0.47998	0.19043	-0.947021	-0.00294306	0.212983	-0.116868	-0.970037	-4.38152	2.38115	9.45582	-0.00591748	0.00863776	-0.00361347	0.0249023	-0.342285	-1.07275	-0.246206	0.216537	-0.299743	-0.895906	-5.21218	4.28617	7.15273	-0.00134903	0.00842485	-0.00380216	0.265625	-0.624756	-0.818848	0.0572777	0.189481	0.295851	-0.934499	-3.7244	-5.13225	7.30903	0.0133369	0.00310991	-0.00868044	0.182617	0.599121	-0.855469	-0.620231	0.0224446	-0.426435	0.657999	-5.8357	-6.68782	7.56647	0.00268002	0.0168558	-0.0131745	0.360352	0.926514	-0.396484	0.0976326	-0.164892	0.00609312	-0.981449	3.37772	-0.505134	9.9239	0.012803	0.028565	-0.019047	-0.651123	0.118164	-0.838135	0.33295	-0.0083553	-0.0497664	-0.941593	0.546346	0.794015	11.0735	-0.0105896	0.0201548	-0.013973	-0.49707	-0.0541992	-1.06445	0.0733515	-0.0428056	-0.244885	-0.965825	2.10389	4.51733	9.26726	-0.00114278	0.00941156	-0.0190343	-0.63916	-0.421387	-0.905518	0.0309175	0.896451	-0.0913567	-0.432521	-7.06363	1.43349	-5.90103	0.00429298	0.0114259	0.00164618	0.973389	-0.168701	0.396729	0.0267868	-0.129071	-0.0752225	-0.988415	2.58714	1.38195	9.35785	-0.000423099	0.0107216	0.00225465	-0.626709	-0.00463867	-0.91333	
24	0.182951	0.068117	-0.0183887	-0.980587	-1.3792	0.689453	10.9389	0.00119131	-0.00693921	-0.00149401	-0.232422	0.0830078	-1.14062	0.191488	0.28755	0.125932	-0.92994	-5.85752	-1.2712	8.01133	-0.0109049	0.0220646	-0.0153585	0.47998	0.188477	-0.94458	-0.00283545	0.213041	-0.116732	-0.970041	-4.45423	2.36815	9.43056	-0.00255864	0.00440964	0.00224103	0.0249023	-0.344482	-1.07031	-0.246305	0.216543	-0.299554	-0.895941	-5.234	4.16261	7.12789	0.00460997	0.00491467	-0.000860871	0.263428	-0.626953	-0.823242	0.0572483	0.189492	0.296375	-0.934333	-3.78721	-5.19101	7.30112	-0.0256214	0.0109111	-0.0224991	0.186768	0.601318	-0.855469	-0.620379	0.0224479	-0.426415	0.657873	-5.87035	-6.6695	7.57796	0.00127929	0.0114941	-0.0103347	0.358154	0.926514	-0.394287	0.0976272	-0.164959	0.00608419	-0.981438	3.40227	-0.488002	9.91377	0.0134786	0.0116446	-0.0144226	-0.650879	0.114014	-0.838135	0.332986	-0.00832909	-0.0497144	-0.941584	0.529604	0.785689	11.1542	0.0106229	0.0175112	-0.0145485	-0.499268	-0.0541992	-1.05518	0.0734143	-0.0428401	-0.244987	-0.965793	2.10953	4.54909	9.27031	0.012107	0.00726975	-0.0197717	-0.639404	-0.416992	-0.892334	0.030976	0.896517	-0.0911966	-0.432413	-7.09555	1.37425	-5.92974	-0.000399395	0.015502	-0.000302624	0.96875	-0.168701	0.401367	0.0268813	-0.128831	-0.0752135	-0.988445	2.53101	1.37594	9.41399	0.000340432	0.0109201	-0.000678495	-0.624756	-0.000244141	-0.911133	
25	0.183078	0.0682027	-0.0183864	-0.980557	-1.4067	0.649883	10.9112	0.000452301	0.000160551	0.00438249	-0.230225	0.0849609	-1.13428	0.191496	0.287531	0.125942	-0.929943	-5.86964	-1.27273	7.99856	-0.00693553	0.0125298	-0.0179746	0.480469	0.179688	-0.953613	-0.00283179	0.213028	-0.116659	-0.970052	-4.48013	2.36775	9.44856	-0.00587671	0.00428283	-0.00076872	0.0227051	-0.342285	-1.07275	-0.246329	0.216532	-0.299593	-0.895924	-5.28958	4.2009	7.12346	0.00478759	0.00676918	0.000831429	0.263672	-0.631348	-0.818848	0.0570356	0.189507	0.296284	-0.934371	-3.74516	-5.26967	7.30372	0.0052643	0.00648904	-0.0145223	0.187012	0.599365	-0.862305	-0.620272	0.0224479	-0.426573	0.657872	-5.88069	-6.69818	7.54401	-0.00206701	0.0137154	-0.0112113	0.364746	0.922363	-0.396484	0.0976185	-0.164848	0.00601554	-0.981458	3.38175	-0.451071	9.96669	0.0205869	0.0188982	-0.0162203	-0.648438	0.107422	-0.837891	0.333064	-0.00827558	-0.0498582	-0.941549	0.546773	0.836292	11.0933	0.0102317	0.018025	-0.0109856	-0.497314	-0.052002	-1.05762	0.0732079	-0.0427273	-0.245264	-0.965743	2.10352	4.57336	9.27168	0.0140727	0.00640476	-0.020583	-0.634521	-0.421387	-0.90332	0.0309067	0.896482	-0.0912707	-0.432475	-7.13032	1.35149	-5.95727	0.00926039	0.00587632	0.00422514	0.970947	-0.166504	0.403564	0.0268263	-0.128865	-0.0751747	-0.988445	2.49647	1.38559	9.44168	-0.0024324	0.00478189	-0.00728726	-0.633545	-0.00244141	-0.904297	
26	0.183108	0.068284	-0.0183666	-0.980546	-1.40308	0.644436	10.9234	-0.000498011	-0.000403268	0.000849116	-0.230225	0.0830078	-1.13843	0.191346	0.287431	0.125906	-0.93001	-5.8231	-1.23792	8.01909	-0.00465244	0.0115427	-0.0230892	0.478027	0.186279	-0.944336	-0.00300705	0.212914	-0.116732	-0.970068	-4.43292	2.34614	9.42067	0.00845862	-0.000500203	-0.00579972	0.0227051	-0.34668	-1.07251	-0.246241	0.21652	-0.299861	-0.895862	-5.21944	4.15963	7.11284	0.0151272	0.0129175	0.00963925	0.265625	-0.626953	-0.821045	0.0571856	0.189497	0.296028	-0.934445	-3.79841	-5.16226	7.30207	0.00108014	0.00434772	-0.00685637	0.184814	0.596924	-0.853271	-0.620204	0.0224165	-0.426595	0.657922	-5.89475	-6.70432	7.54328	0.00774801	0.0175528	-0.0214295	0.362793	0.920166	-0.39209	0.0974896	-0.164644	0.00596689	-0.981505	3.35728	-0.45626	9.94746	0.0126416	0.0235209	-0.0190524	-0.650635	0.111816	-0.838135	0.333102	-0.00818811	-0.0499063	-0.941534	0.497397	0.858584	11.0564	0.00999282	0.0230195	-0.013288	-0.499268	-0.0541992	-1.05737	0.0732375	-0.0428063	-0.245145	-0.965768	2.10267	4.56357	9.24499	-0.00292556	0.00710593	-0.0190809	-0.63916	-0.423584	-0.898926	0.0309365	0.896352	-0.0915003	-0.432693	-7.05631	1.38996	-5.92275	0.00676491	0.00129622	0.0133439	0.973145	-0.166504	0.398926	0.0264557	-0.129078	-0.0751646	-0.988428	2.53051	1.35315	9.3863	-7.87961e-05	-0.00196028	-0.0197858	-0.626953	-0.00244141	-0.899658	
27	0.183014	0.0683298	-0.0184341	-0.98056	-1.42883	0.647186	10.9389	0.00441528	-0.00506436	-0.00265883	-0.228027	0.0830078	-1.14282	0.191319	0.287342	0.125861	-0.930049	-5.83176	-1.26446	8.02529	-0.00501717	0.00643863	-0.0188228	0.480225	0.186279	-0.946777	-0.00303409	0.212826	-0.117068	-0.970047	-4.40576	2.33768	9.46781	0.0139839	0.00544345	0.00720743	0.0270996	-0.344482	-1.07495	-0.246172	0.216544	-0.300257	-0.895742	-5.20278	4.23306	7.11846	0.0130361	0.0131807	0.00562185	0.270264	-0.62915	-0.81665	0.0573184	0.189479	0.295933	-0.934471	-3.7852	-5.18799	7.29254	0.00222163	0.00313409	-0.00785282	0.182617	0.599121	-0.85791	-0.61997	0.0223943	-0.426582	0.658152	-5.87999	-6.65927	7.56875	0.00682451	0.0124894	-0.0204654	0.368896	0.924561	-0.400879	0.0973948	-0.16427	0.00574902	-0.981579	3.37361	-0.494338	9.92796	0.0238797	0.0320313	-0.0197591	-0.650879	0.116211	-0.833984	0.332988	-0.00809877	-0.0494832	-0.941597	0.507761	0.799211	11.1207	-0.0175882	0.0237923	-0.0167076	-0.499512	-0.0498047	-1.05762	0.073299	-0.0428318	-0.244974	-0.965806	2.09996	4.54259	9.25813	-0.00821228	0.0100404	-0.0162547	-0.637207	-0.416748	-0.898926	0.0310061	0.896238	-0.0918002	-0.432862	-7.04258	1.49983	-5.88551	-0.00405424	0.00646677	0.00995815	0.973389	-0.168701	0.396729	0.0261503	-0.129299	-0.0752577	-0.9884	2.5795	1.37931	9.35539	0.00483616	-0.00277668	-0.010608	-0.624756	0.00219727	-0.904297	
28	0.18287	0.0683067	-0.0184515	-0.980588	-1.38775	0.707599	10.9189	0.000614668	-0.00670532	-0.00398441	-0.232422	0.0830078	-1.14062	0.191434	0.287243	0.125872	-0.930054	-5.78895	-1.27146	8.00081	-0.00814667	0.015269	-0.0109758	0.478271	0.181885	-0.944336	-0.00295189	0.212917	-0.117449	-0.969981	-4.39241	2.40002	9.46989	0.013235	0.00896603	0.00701669	0.0229492	-0.348877	-1.07251	-0.246273	0.216535	-0.300593	-0.895603	-5.21331	4.27216	7.0918	0.0188378	0.00859288	-0.0010424	0.263672	-0.631348	-0.818848	0.0574016	0.189441	0.295625	-0.934571	-3.76714	-5.11369	7.34319	0.00892553	0.00710506	-0.013397	0.187012	0.596924	-0.85083	-0.61991	0.0224553	-0.426629	0.658176	-5.8458	-6.66898	7.5744	-0.000404863	0.00872198	-0.0123866	0.364746	0.922363	-0.39209	0.097343	-0.164156	0.00570437	-0.981603	3.35337	-0.482852	9.94377	0.0180772	0.023264	-0.0199068	-0.650635	0.109619	-0.840088	0.333031	-0.0081644	-0.0495438	-0.941578	0.550287	0.74738	11.1107	0.013391	0.0170009	-0.0113042	-0.503418	-0.0563965	-1.05518	0.0731513	-0.0426919	-0.244814	-0.965864	2.09081	4.52405	9.2725	-0.00346217	0.00929346	-0.0179744	-0.632324	-0.418945	-0.896729	0.031147	0.896198	-0.0918057	-0.432933	-7.0486	1.49518	-5.86981	-0.00837159	0.00722643	0.00665718	0.973633	-0.175293	0.401367	0.0263149	-0.129427	-0.0754801	-0.988362	2.62944	1.41982	9.36366	0.0103906	0.00571475	0.00402974	-0.62915	-0.00244141	-0.904297	
29	0.183038	0.068287	-0.0184938	-0.980557	-1.38725	0.666951	10.9001	0.00236217	-0.00368418	0.00920733	-0.230469	0.0871582	-1.13867	0.19168	0.287347	0.125905	-0.929967	-5.82066	-1.26754	8.04011	-0.00903301	0.0160228	-0.00900142	0.482422	0.186279	-0.944336	-0.00276158	0.212981	-0.1174	-0.969974	-4.4583	2.45171	9.46986	-0.0100008	0.00780887	0.004738	0.0270996	-0.348877	-1.07251	-0.24635	0.216603	-0.300625	-0.895555	-5.25811	4.25806	7.0939	-0.00116815	0.0102378	-0.000752827	0.272461	-0.631348	-0.821045	0.0573809	0.189418	0.295906	-0.934488	-3.72312	-5.21592	7.30647	-0.0135732	0.00711212	-0.0154712	0.184814	0.594971	-0.864746	-0.620027	0.0225193	-0.426599	0.658083	-5.84661	-6.72029	7.55848	5.20623e-05	0.00699432	-0.00960894	0.366943	0.920166	-0.39624	0.0970967	-0.16395	0.00534132	-0.981664	3.39657	-0.451416	9.94191	0.0185974	0.0136776	-0.0168121	-0.648926	0.118408	-0.840332	0.333106	-0.00803771	-0.0498767	-0.941535	0.536803	0.837928	11.1245	0.0153193	0.0160826	-0.0136058	-0.494873	-0.0541992	-1.05273	0.0727376	-0.0424409	-0.245384	-0.965761	2.10891	4.52889	9.27479	0.0173826	0.00564326	-0.0199244	-0.639404	-0.416748	-0.901123	0.0312487	0.89635	-0.0917291	-0.432628	-7.1091	1.40668	-5.91163	0.00101991	0.0159146	0.000483668	0.973145	-0.166504	0.405762	0.0265284	-0.129359	-0.0755674	-0.988358	2.57624	1.40392	9.4081	0.0042005	0.012524	0.00223147	-0.631104	-0.00683594	-0.904297	
30	0.183082	0.0683176	-0.0185082	-0.980546	-1.3671	0.655471	10.9286	0.00192126	-0.00210683	0.00382817	-0.227783	0.0808105	-1.13647	0.191651	0.287467	0.125943	-0.929931	-5.83911	-1.22339	8.06887	-0.00513199	0.0181747	-0.0212022	0.482178	0.19043	-0.947021	-0.00278808	0.213018	-0.117354	-0.969971	-4.45546	2.34857	9.41753	0.00612188	0.00695814	-0.00299071	0.0185547	-0.346436	-1.07471	-0.246452	0.216632	-0.300708	-0.895493	-5.26538	4.2209	7.10479	0.00968153	0.00734514	-0.00235725	0.265869	-0.62915	-0.821045	0.0574411	0.189407	0.295892	-0.934491	-3.73222	-5.21004	7.29968	-0.00132505	0.00521467	-0.00961797	0.189453	0.592773	-0.860107	-0.619948	0.0224623	-0.426707	0.658089	-5.84292	-6.71748	7.56918	0.000690001	0.0136603	-0.0104257	0.366943	0.922363	-0.39209	0.0970487	-0.163813	0.00529556	-0.981692	3.40576	-0.450567	9.95985	0.0183611	0.0247196	-0.0202754	-0.644287	0.114014	-0.842285	0.333123	-0.00803329	-0.0498993	-0.941528	0.521368	0.875084	11.0696	0.00566846	0.0174165	-0.0145154	-0.497314	-0.052002	-1.05762	0.0727884	-0.0424757	-0.24543	-0.965744	2.11246	4.60101	9.22059	0.00161719	0.0092202	-0.0192508	-0.636963	-0.418945	-0.898926	0.0313696	0.896352	-0.0917489	-0.432609	-7.09623	1.41846	-5.897	-0.00632021	0.0124216	0.00474332	0.973145	-0.166504	0.396729	0.0264146	-0.12936	-0.0755883	-0.98836	2.5538	1.42219	9.38977	-0.000907009	0.00593877	-0.00966933	-0.626953	-0.000244141	-0.899658	
31	0.183076	0.0684304	-0.0185046	-0.98054	-1.38298	0.662559	10.9123	0.0010396	-0.000321575	-0.000837821	-0.22998	0.0808105	-1.13843	0.191605	0.287562	0.126013	-0.929901	-5.82264	-1.2259	7.96195	-0.00871887	0.0229831	-0.0217638	0.47998	0.192627	-0.949463	-0.00287898	0.212972	-0.117487	-0.969965	-4.41498	2.41459	9.42521	0.00134327	0.00542194	-0.00135834	0.0229492	-0.348877	-1.07251	-0.246526	0.216645	-0.300935	-0.895393	-5.21632	4.19519	7.06328	0.0114346	0.0112134	0.00179511	0.27002	-0.626953	-0.821045	0.0571505	0.189485	0.295731	-0.934544	-3.75116	-5.16825	7.33042	0.00834514	0.00925273	-0.0160506	0.18042	0.596924	-0.860107	-0.619948	0.0224623	-0.426707	0.658089	-5.84292	-6.71748	7.56918	0.000690001	0.0136603	-0.0104257	0.366943	0.922363	-0.39209	0.096859	-0.163566	0.00522591	-0.981752	3.33687	-0.432378	9.99098	0.0152573	0.0148703	-0.0227009	-0.644287	0.114014	-0.840088	0.333185	-0.00801464	-0.0499686	-0.941502	0.534153	0.856382	11.0671	0.00862027	0.0175961	-0.0131346	-0.501465	-0.052002	-1.05054	0.072802	-0.0425017	-0.245235	-0.965791	2.12067	4.59205	9.25997	-0.00986725	0.0090958	-0.0200817	-0.636963	-0.419189	-0.896729	0.0313661	0.896347	-0.0917862	-0.432612	-7.07034	1.41975	-5.89986	0.00390026	0.01216	0.00432061	0.970947	-0.164307	0.398926	0.0262557	-0.129469	-0.0754832	-0.988358	2.53195	1.39311	9.37863	-0.00289164	0.00144674	-0.00519129	-0.62915	-0.000244141	-0.904297	
32	0.182996	0.0685723	-0.0185598	-0.980544	-1.44958	0.667814	10.9147	0.00140942	-0.00150999	-0.00651054	-0.228027	0.0830078	-1.13843	0.191621	0.287626	0.126328	-0.929835	-5.84135	-1.23287	7.90685	-0.013031	0.0175476	-0.0137836	0.480225	0.184082	-0.948975	-0.00283149	0.212886	-0.117552	-0.969976	-4.44869	2.41278	9.45321	-0.00292578	0.00261606	0.00218101	0.020752	-0.348633	-1.07715	-0.246626	0.21656	-0.301233	-0.895286	-5.24378	4.23127	7.06582	0.0129911	0.00534488	0.0021149	0.26123	-0.62915	-0.821045	0.0571956	0.189471	0.295624	-0.934578	-3.79546	-5.21484	7.28656	0.00717667	0.00503284	-0.00751208	0.182617	0.596924	-0.853271	-0.619543	0.0222929	-0.426899	0.658351	-5.88618	-6.65124	7.58568	0.00319962	0.0167861	-0.0163124	0.362549	0.924316	-0.400879	0.0967652	-0.163818	0.00505763	-0.98172	3.37017	-0.46219	9.88351	0.0182698	0.0129928	-0.0210447	-0.650879	0.116211	-0.842285	0.333183	-0.00807698	-0.0495434	-0.941525	0.493818	0.810116	11.1456	-0.015745	0.0211179	-0.0161092	-0.499268	-0.0563965	-1.05273	0.0728762	-0.042529	-0.244864	-0.965879	2.06685	4.5424	9.29931	-0.00340832	0.00829235	-0.0175239	-0.637451	-0.412109	-0.89917	0.0315398	0.896238	-0.0918705	-0.432808	-7.07977	1.45722	-5.94125	-0.00592151	0.00632982	0.00599566	0.973389	-0.168701	0.398926	0.0262537	-0.129718	-0.0757165	-0.988307	2.55469	1.43869	9.39288	0.012364	-0.00165897	-0.00194271	-0.626709	-0.00463867	-0.899658	
33	0.182957	0.0686802	-0.0185014	-0.980544	-1.41688	0.724805	10.9343	-0.000515209	0.00146394	0.0101794	-0.223633	0.0830078	-1.13623	0.191699	0.287533	0.126254	-0.929858	-5.80286	-1.30507	8.00242	-0.00415396	0.00449364	-0.011474	0.482178	0.188477	-0.946777	-0.00283778	0.212796	-0.117377	-0.970017	-4.43173	2.4223	9.46098	-0.0139911	-0.00195045	-0.00255379	0.0227051	-0.34668	-1.07251	-0.246679	0.216521	-0.301414	-0.895219	-5.2682	4.25934	7.098	0.0173726	0.00782348	0.000646559	0.267822	-0.626953	-0.821045	0.0570693	0.189442	0.295331	-0.934684	-3.74355	-5.13226	7.34302	0.00557672	0.00660888	-0.0198443	0.182617	0.596924	-0.860107	-0.619628	0.0224178	-0.426988	0.65821	-5.8403	-6.67487	7.56247	-0.00877986	0.015997	-0.0143042	0.364502	0.926514	-0.396484	0.0965561	-0.163774	0.00522517	-0.981747	3.36282	-0.45613	10.0036	0.00424665	0.0144534	-0.0215647	-0.646729	0.116211	-0.835938	0.33332	-0.0081636	-0.0496679	-0.941469	0.570445	0.757671	11.0404	0.0190323	0.0147613	-0.00764243	-0.499268	-0.052002	-1.05518	0.0729664	-0.0426249	-0.244741	-0.965899	2.11302	4.49835	9.23235	0.00597988	0.0082321	-0.0184033	-0.637207	-0.414551	-0.898926	0.0315921	0.896224	-0.0918214	-0.432843	-7.07708	1.44983	-5.89972	-0.00343171	0.00995108	-0.000190542	0.973389	-0.170898	0.398926	0.0263463	-0.129822	-0.0757479	-0.988289	2.57566	1.43304	9.4017	0.00462141	0.000377828	0.00482018	-0.628906	-0.00463867	-0.904297	
34	0.1831	0.0685776	-0.0185223	-0.980525	-1.38838	0.620611	10.9331	0.0014369	-0.00910246	0.000818739	-0.230225	0.0852051	-1.14062	0.191719	0.287756	0.12632	-0.929776	-5.82282	-1.23508	8.02074	-0.00670297	0.0289127	-0.0183287	0.47998	0.188232	-0.949219	-0.00295102	0.212774	-0.117297	-0.970031	-4.40952	2.3814	9.43743	0.00599386	0.00472262	-0.00712913	0.020752	-0.35083	-1.0769	-0.246881	0.216549	-0.301527	-0.895119	-5.23184	4.27315	7.07962	0.00402512	0.00647196	-0.00627347	0.265869	-0.62915	-0.821045	0.0571538	0.189432	0.295777	-0.93454	-3.72909	-5.17078	7.33681	-0.0234151	0.0102897	-0.0163743	0.180664	0.594727	-0.860107	-0.619646	0.0224941	-0.427066	0.658139	-5.82763	-6.69413	7.57142	-0.00606402	0.0152045	-0.0158807	0.362549	0.922363	-0.398682	0.0963862	-0.163803	0.00544009	-0.981758	3.34349	-0.487433	9.93396	0.0142597	0.00543997	-0.0194675	-0.650635	0.111816	-0.840088	0.333319	-0.00817486	-0.0496408	-0.941471	0.49068	0.789921	11.1378	-0.00612261	0.0167766	-0.0199451	-0.499268	-0.052002	-1.05981	0.0730176	-0.0426873	-0.244684	-0.965907	2.10454	4.54724	9.27782	0.00580386	0.00663536	-0.0199127	-0.641602	-0.418945	-0.905762	0.0315406	0.896193	-0.091696	-0.432937	-7.06251	1.4103	-5.90172	-0.000940332	0.0135714	-0.00637583	0.973389	-0.168701	0.398926	0.0264543	-0.129892	-0.0756279	-0.988286	2.62272	1.38986	9.37122	-0.00494357	0.00689487	-0.000147266	-0.626709	-0.00463867	-0.901855	
35	0.182966	0.0686358	-0.0184689	-0.980546	-1.40587	0.679818	10.912	-0.00178874	-0.0012768	-0.00124479	-0.230225	0.0830078	-1.13843	0.191651	0.288211	0.126459	-0.92963	-5.845	-1.25675	7.99751	-0.0147326	0.034518	-0.0176972	0.484619	0.186279	-0.946777	-0.00306626	0.212662	-0.117082	-0.970081	-4.45124	2.45671	9.47416	-0.0183759	-0.00109054	-0.00769674	0.020752	-0.348633	-1.07715	-0.246963	0.216608	-0.301538	-0.895078	-5.25391	4.26252	7.11083	-0.00129581	0.00887632	-0.000798964	0.263672	-0.62915	-0.821045	0.057003	0.189443	0.295621	-0.934596	-3.75291	-5.25929	7.30187	0.0210903	0.00719238	-0.0123798	0.184814	0.594971	-0.860107	-0.619559	0.0224153	-0.427226	0.65812	-5.86977	-6.686	7.5174	0.00485272	0.0186832	-0.0104802	0.364746	0.922363	-0.396484	0.0963358	-0.164486	0.00491393	-0.981652	3.39837	-0.40991	9.976	0.035297	-0.00610133	-0.0212141	-0.648926	0.118164	-0.833984	0.333353	-0.00823321	-0.0496061	-0.94146	0.541206	0.824689	11.1077	0.0135665	0.0188013	-0.0130501	-0.495117	-0.052002	-1.05273	0.0730366	-0.0427211	-0.244738	-0.96589	2.10226	4.53586	9.2684	0.010654	0.00694821	-0.0201197	-0.637207	-0.416748	-0.894531	0.0315855	0.896244	-0.0915743	-0.432854	-7.08998	1.44675	-5.89441	0.00242103	0.0147065	-0.000336726	0.971191	-0.170898	0.394531	0.0263589	-0.129797	-0.0755137	-0.988309	2.56333	1.39329	9.41627	-0.00534674	0.013733	-0.00828695	-0.624756	0.00219727	-0.899658	
36	0.182939	0.0686429	-0.0184709	-0.980551	-1.40762	0.662529	10.9204	-0.000313062	-0.00516314	-0.00341757	-0.230469	0.0871582	-1.14087	0.191599	0.288405	0.126856	-0.929527	-5.87371	-1.26694	8.03396	-0.0199892	0.0199977	-0.0220291	0.48877	0.190674	-0.942139	-0.0030246	0.212574	-0.116246	-0.970201	-4.4355	2.2891	9.43125	-0.0293711	0.00490319	-0.00393526	0.0270996	-0.34668	-1.07471	-0.246885	0.216764	-0.301317	-0.895136	-5.25532	4.2241	7.07396	-0.0101963	0.0102689	0.00067443	0.270264	-0.62915	-0.814453	0.0570272	0.189489	0.295139	-0.934738	-3.78868	-5.10987	7.32797	0.00920652	0.00847575	-0.0119723	0.187012	0.599365	-0.864746	-0.619668	0.0223543	-0.427187	0.658046	-5.88619	-6.67674	7.55856	0.00790423	0.014667	-0.0113179	0.362305	0.926514	-0.392334	0.0962284	-0.16469	0.00477675	-0.981629	3.39296	-0.457166	9.94942	0.0141617	0.0105998	-0.018961	-0.650635	0.111816	-0.840088	0.333469	-0.00819208	-0.049985	-0.941399	0.513829	0.868412	11.0635	0.0134274	0.0141573	-0.011066	-0.49707	-0.052002	-1.05054	0.0728435	-0.0426545	-0.244931	-0.965859	2.09629	4.57608	9.26133	0.0052899	0.00733487	-0.0198459	-0.634766	-0.418945	-0.901123	0.0316338	0.896264	-0.0915228	-0.432822	-7.07856	1.44555	-5.93126	-0.00495251	0.0141502	-0.00160648	0.975586	-0.168457	0.403564	0.0263579	-0.129569	-0.0753423	-0.988353	2.54649	1.40149	9.41569	-0.00377046	0.0161712	-0.00141047	-0.628906	-0.00683594	-0.906494	
37	0.182886	0.0686752	-0.0183547	-0.980561	-1.41927	0.684969	10.9201	-0.00375713	-0.00276887	-0.000462	-0.230225	0.0830078	-1.14282	0.191576	0.288462	0.127089	-0.929482	-5.83399	-1.29065	8.01154	-0.0153489	0.0178614	-0.0201816	0.486328	0.192871	-0.942383	-0.00306512	0.212552	-0.116256	-0.970205	-4.39766	2.36089	9.47892	0.0023078	0.00495446	-0.000593212	0.0183105	-0.342285	-1.07495	-0.246946	0.21686	-0.301233	-0.895125	-5.22369	4.19788	7.05887	0.000748025	0.00848771	-0.00170603	0.27002	-0.624756	-0.821045	0.0570475	0.18948	0.295396	-0.934657	-3.74937	-5.1698	7.27598	-0.0119788	0.00776258	-0.0139514	0.182617	0.599121	-0.85791	-0.619785	0.0224026	-0.427208	0.657919	-5.85375	-6.68294	7.54593	-0.0023011	0.0115568	-0.011502	0.358398	0.922363	-0.394287	0.0961122	-0.164628	0.00468214	-0.981651	3.33949	-0.448421	9.94932	0.0211206	0.00870527	-0.0201629	-0.650635	0.111816	-0.835938	0.333466	-0.00833668	-0.0497411	-0.941412	0.543355	0.793124	11.0676	-0.0099846	0.0118272	-0.0160705	-0.501465	-0.0541992	-1.05737	0.0729054	-0.0427709	-0.244602	-0.965932	2.1044	4.52972	9.24436	-0.0111677	0.00827165	-0.0179358	-0.63501	-0.409912	-0.903564	0.0316965	0.896295	-0.0914363	-0.432771	-7.06819	1.38427	-5.89101	0.00284568	0.0137889	-6.02447e-05	0.971191	-0.168701	0.398926	0.0264267	-0.1294	-0.0752846	-0.988377	2.54264	1.38499	9.38652	0.000751974	0.0154566	-0.00107589	-0.631348	-0.00244141	-0.904297	
38	0.182878	0.0686651	-0.0183438	-0.980563	-1.40363	0.645559	10.9372	-0.000773791	-0.00507623	-8.85967e-05	-0.230225	0.0827637	-1.13647	0.191591	0.288435	0.127104	-0.929485	-5.83028	-1.28216	7.96912	-0.00739732	0.0115793	-0.0178026	0.48877	0.19043	-0.949219	-0.00304463	0.21254	-0.116158	-0.970219	-4.43311	2.37966	9.46245	-0.00801007	0.0049263	-9.48978e-05	0.0205078	-0.342285	-1.07495	-0.246986	0.216965	-0.301345	-0.895051	-5.25583	4.21906	7.08358	0.00490146	0.00833216	-0.00145565	0.268311	-0.633545	-0.818848	0.0570619	0.189451	0.295484	-0.934634	-3.74779	-5.18144	7.33118	-0.00811777	0.00619277	-0.0152741	0.184814	0.596924	-0.855469	-0.619841	0.0224319	-0.427227	0.657853	-5.86472	-6.68228	7.53542	-0.000458219	0.0133978	-0.0121368	0.364746	0.922363	-0.396484	0.0960828	-0.164853	0.00457983	-0.981616	3.39859	-0.444323	9.96917	0.0201784	-0.00481797	-0.0184919	-0.650635	0.107422	-0.842285	0.33345	-0.0083781	-0.0495151	-0.941429	0.548417	0.78521	11.1257	-0.0144007	0.0208134	-0.0169421	-0.499268	-0.052002	-1.05054	0.0729054	-0.0427709	-0.244602	-0.965932	2.1044	4.52972	9.24436	-0.0111677	0.00827165	-0.0179358	-0.63501	-0.409912	-0.903564	0.0316915	0.896285	-0.0914336	-0.432791	-7.09157	1.41238	-5.92691	0.00231232	0.010554	0.00098662	0.975586	-0.168457	0.408203	0.0264545	-0.129376	-0.0752632	-0.988381	2.54017	1.39363	9.4136	-3.95358e-05	0.0105378	-0.000709963	-0.631592	0.00415039	-0.908936	
39	0.182794	0.0687489	-0.0182419	-0.980575	-1.3941	0.655118	10.9176	-0.00183039	0.00320788	-0.00148335	-0.230225	0.0830078	-1.14062	0.191599	0.288621	0.127099	-0.929426	-5.83814	-1.27691	7.96416	8.54046e-05	0.016449	-0.0157074	0.482178	0.188477	-0.946777	-0.00304261	0.21235	-0.115862	-0.970296	-4.42779	2.34222	9.44671	-0.0114936	-0.000325572	-0.000632822	0.0183105	-0.340088	-1.08179	-0.246998	0.216976	-0.30147	-0.895002	-5.24238	4.24116	7.07533	0.00503483	0.00970152	0.00309717	0.265869	-0.631348	-0.818848	0.0571057	0.189445	0.295521	-0.934621	-3.77106	-5.1964	7.32067	0.00492084	0.00801404	-0.0122921	0.182861	0.594727	-0.853271	-0.619916	0.022465	-0.427216	0.657789	-5.8938	-6.70799	7.54954	0.00350753	0.0126513	-0.0145116	0.369141	0.922363	-0.394287	0.0959853	-0.164907	0.00425081	-0.981618	3.38527	-0.419914	9.94151	0.0273376	0.0142581	-0.0196323	-0.655273	0.114014	-0.840332	0.333513	-0.00844668	-0.0495909	-0.941403	0.543776	0.78047	11.1382	0.015585	0.010216	-0.011131	-0.503662	-0.052002	-1.05518	0.0728202	-0.042724	-0.244664	-0.965925	2.11464	4.54355	9.23785	0.0138855	0.00580787	-0.0186124	-0.634766	-0.416748	-0.896729	0.031852	0.896268	-0.0914254	-0.432816	-7.08255	1.43764	-5.93269	-0.00485549	0.0127894	0.00390262	0.971191	-0.168701	0.398926	0.026333	-0.129383	-0.0752374	-0.988386	2.56461	1.38927	9.37266	-0.000903321	0.00890321	-0.00753527	-0.62915	-0.000244141	-0.897461	
40	0.182775	0.0687842	-0.0182337	-0.980576	-1.4359	0.648351	10.9328	0.000167408	-0.00152384	-0.00103011	-0.228027	0.0830078	-1.13843	0.191611	0.288622	0.127072	-0.929427	-5.81143	-1.28378	8.00083	-0.00453368	0.0134804	-0.0162671	0.484375	0.190674	-0.94458	-0.00306067	0.212337	-0.115743	-0.970313	-4.39414	2.32013	9.46315	-0.0086361	0.00443895	-0.00357331	0.0268555	-0.340088	-1.07739	-0.247026	0.217022	-0.301535	-0.894962	-5.2338	4.22737	7.10506	0.00589146	0.0116665	-0.000714096	0.266113	-0.633545	-0.825439	0.0571223	0.189458	0.295146	-0.934736	-3.75129	-5.13627	7.30712	0.017454	0.0053084	-0.00721846	0.187012	0.599365	-0.864746	-0.619992	0.0224665	-0.427225	0.657712	-5.85996	-6.66585	7.55096	-0.000758304	0.0130508	-0.0140213	0.368896	0.926514	-0.398682	0.0959078	-0.164893	0.00418203	-0.981629	3.38836	-0.451013	9.91084	0.0144322	0.0206974	-0.0169892	-0.648682	0.111816	-0.840088	0.333605	-0.00825823	-0.0498643	-0.941357	0.505219	0.798572	11.0341	0.0149576	0.0214342	-0.0129073	-0.501709	-0.0498047	-1.05981	0.0728202	-0.042724	-0.244664	-0.965925	2.11464	4.54355	9.23785	0.0138855	0.00580787	-0.0186124	-0.634766	-0.416748	-0.896729	0.031852	0.896268	-0.0914254	-0.432816	-7.08255	1.43764	-5.93269	-0.00485549	0.0127894	0.00390262	0.971191	-0.168701	0.398926	0.0263133	-0.129378	-0.0751944	-0.98839	2.56648	1.38202	9.36829	-0.00219782	0.0089922	-0.00442993	-0.62915	-0.000244141	-0.906494	
41	0.182735	0.068757	-0.01829	-0.980584	-1.39647	0.676567	10.9134	0.00271934	-0.00524137	-0.00156261	-0.230225	0.0830078	-1.14282	0.191666	0.288818	0.127244	-0.929331	-5.85378	-1.30959	8.03079	-0.0113559	0.0225599	-0.0140462	0.484375	0.190674	-0.942139	-0.00303403	0.212424	-0.115817	-0.970285	-4.39549	2.34917	9.47454	0.00680756	0.00947523	0.00139126	0.0185547	-0.346436	-1.07935	-0.24708	0.217031	-0.301627	-0.894914	-5.23924	4.22665	7.07986	0.00407652	0.00674103	0.00359794	0.263672	-0.633545	-0.821045	0.0571501	0.189406	0.295301	-0.934696	-3.77646	-5.15795	7.34231	-0.0144862	0.0113526	-0.0170988	0.184814	0.597168	-0.862305	-0.620129	0.0225352	-0.427234	0.657573	-5.87889	-6.69436	7.55121	0.00104276	0.0108114	-0.010765	0.362305	0.926514	-0.394287	0.0958507	-0.164994	0.00408744	-0.981618	3.41733	-0.429136	9.94603	0.0169057	0.00993029	-0.0177932	-0.650635	0.109619	-0.835938	0.333619	-0.00833932	-0.0496496	-0.941363	0.522497	0.845887	11.1097	-0.00933609	0.019974	-0.0157734	-0.505859	-0.0541992	-1.05518	0.0726909	-0.0425636	-0.244602	-0.965958	2.09137	4.54732	9.25046	0.00106945	0.0104021	-0.0197308	-0.637207	-0.416748	-0.901123	0.0318998	0.896309	-0.0914832	-0.432716	-7.09228	1.45729	-5.90372	0.000956104	0.0107558	0.00312402	0.973389	-0.168701	0.403564	0.0263704	-0.129425	-0.0752095	-0.988381	2.55702	1.36916	9.40266	0.00440304	0.00569812	4.81361e-05	-0.633545	-0.00463867	-0.901855	
42	0.182824	0.0688288	-0.0182868	-0.980563	-1.42183	0.678838	10.929	0.000706641	-0.00200046	0.00669251	-0.232178	0.0808105	-1.13843	0.191726	0.289096	0.127346	-0.929219	-5.88129	-1.27582	7.96475	-0.00699463	0.0236684	-0.0165117	0.484375	0.192627	-0.94458	-0.00300961	0.2124	-0.115877	-0.970283	-4.47336	2.35338	9.47451	-0.00120563	0.00271889	0.000960084	0.0205078	-0.344482	-1.07935	-0.247194	0.216972	-0.301779	-0.894845	-5.27445	4.25577	7.11211	0.0103349	0.00700934	-0.00182851	0.266113	-0.633545	-0.821045	0.05714	0.189456	0.295408	-0.934653	-3.73717	-5.22542	7.29651	0.00229403	0.00933906	-0.0125413	0.184814	0.596924	-0.85791	-0.620257	0.022569	-0.427207	0.65747	-5.84814	-6.68799	7.53483	0.00502019	0.013014	-0.0134384	0.364746	0.924561	-0.398682	0.0957973	-0.16507	0.00394152	-0.981611	3.37073	-0.425003	9.95139	0.0155106	0.00796091	-0.0176992	-0.652832	0.109619	-0.837891	0.333662	-0.00840116	-0.0495889	-0.94135	0.538611	0.771207	11.0965	0.00479758	0.0174607	-0.0121516	-0.503662	-0.0541992	-1.05273	0.0727511	-0.0426084	-0.244484	-0.965981	2.07806	4.54156	9.25314	0.00207911	0.00745881	-0.0194082	-0.639404	-0.418945	-0.907959	0.032033	0.896315	-0.0914577	-0.4327	-7.07575	1.42075	-5.90731	0.000300412	0.0121407	0.00354084	0.971191	-0.173096	0.403564	0.0264215	-0.129472	-0.0753687	-0.988361	2.56854	1.40446	9.40683	0.00785984	0.00639767	-0.00282327	-0.633789	-0.000244141	-0.9021	
43	0.183002	0.068801	-0.0182851	-0.980532	-1.40212	0.625	10.9147	0.000161169	-0.00463341	0.00605994	-0.228027	0.0849609	-1.13208	0.191638	0.289113	0.127336	-0.929233	-5.87565	-1.26045	8.0121	-0.00638009	0.013593	-0.0207691	0.482178	0.19043	-0.947021	-0.00304638	0.212494	-0.115913	-0.970258	-4.44826	2.35652	9.45816	0.00177731	0.00659412	-0.00155428	0.0185547	-0.344238	-1.07715	-0.247276	0.21699	-0.301879	-0.894784	-5.28491	4.21223	7.09272	0.00569394	0.0094448	0.00087369	0.270508	-0.633545	-0.823242	0.0571182	0.189448	0.295118	-0.934747	-3.79015	-5.18264	7.3361	0.0140498	0.00734466	-0.0131946	0.180664	0.594727	-0.855469	-0.620301	0.0225401	-0.427158	0.65746	-5.87625	-6.66402	7.56392	0.00830317	0.0148904	-0.0159127	0.360596	0.917969	-0.394043	0.0957028	-0.165053	0.00394232	-0.981623	3.40568	-0.419458	9.92425	0.016301	0.0236123	-0.0194083	-0.652588	0.105225	-0.835693	0.333764	-0.0083222	-0.0497554	-0.941306	0.532581	0.801803	11.1111	0.0129989	0.0175411	-0.0113992	-0.49707	-0.0541992	-1.05518	0.0728029	-0.0427124	-0.244509	-0.965966	2.09633	4.54719	9.26671	0.00780906	0.0057702	-0.018247	-0.637207	-0.414551	-0.898926	0.0319801	0.896294	-0.0915936	-0.432717	-7.08404	1.38679	-5.93164	0.0091932	0.00848892	0.00624715	0.977783	-0.168457	0.398926	0.0263439	-0.129481	-0.0753293	-0.988365	2.54171	1.38862	9.41381	-0.0018506	0.00685889	-0.00832152	-0.631348	-0.00244141	-0.906494	
44	0.18293	0.0689031	-0.018355	-0.980537	-1.43286	0.648891	10.9257	0.00583879	-0.00285011	-0.00345746	-0.230225	0.0849609	-1.13867	0.19161	0.289054	0.127447	-0.929242	-5.86607	-1.27046	8.00489	-0.0104078	0.0121902	-0.0197845	0.48877	0.190674	-0.947021	-0.00311431	0.212382	-0.11607	-0.970264	-4.42201	2.35527	9.44842	0.00748145	0.0016473	0.000486501	0.0227051	-0.34668	-1.07471	-0.247311	0.216962	-0.302163	-0.894685	-5.24926	4.22192	7.06612	0.0167308	0.00862299	0.00318962	0.266113	-0.633545	-0.823242	0.0571864	0.189439	0.294991	-0.934785	-3.78228	-5.13538	7.32512	0.000514952	0.00526438	-0.00972625	0.187256	0.592773	-0.862305	-0.620308	0.0225449	-0.427179	0.657441	-5.89511	-6.67315	7.54955	0.0020508	0.016655	-0.0165744	0.366943	0.922363	-0.396484	0.0955757	-0.164934	0.00385207	-0.981655	3.3801	-0.41628	9.94439	0.0162263	0.0129468	-0.0211671	-0.652588	0.107422	-0.840088	0.333773	-0.00834749	-0.0496951	-0.941306	0.507027	0.813073	11.0418	0.0034173	0.0167336	-0.0161243	-0.501465	-0.052002	-1.06226	0.0728344	-0.0427665	-0.244518	-0.965959	2.10085	4.52962	9.24655	0.00697229	0.00578505	-0.0186328	-0.641602	-0.419189	-0.901123	0.0320089	0.896242	-0.091637	-0.432813	-7.09939	1.43409	-5.93198	0.000788975	0.00404166	0.00574116	0.96875	-0.166504	0.401123	0.0262099	-0.129712	-0.0753861	-0.988334	2.56305	1.3989	9.38147	0.00559616	-0.00281618	-0.00697964	-0.62915	-0.000244141	-0.904297	
45	0.182821	0.0689164	-0.0184002	-0.980555	-1.42801	0.692049	10.9451	0.00164185	-0.00541126	-0.00320314	-0.22583	0.0830078	-1.13647	0.191655	0.288909	0.127429	-0.92928	-5.85422	-1.29176	8.00427	-0.00806636	0.00515923	-0.0157076	0.484375	0.188477	-0.949219	-0.00305473	0.212361	-0.11632	-0.970239	-4.39669	2.37885	9.47223	0.0108758	0.00836493	0.00479218	0.0249023	-0.34668	-1.07251	-0.247448	0.216877	-0.302491	-0.894557	-5.24027	4.28961	7.10073	0.015062	0.00557011	-0.00121423	0.268066	-0.62915	-0.818848	0.0570069	0.189413	0.295285	-0.934708	-3.753	-5.14841	7.3203	-0.0112221	0.00614963	-0.0162252	0.182861	0.592529	-0.855469	-0.619931	0.0225639	-0.427426	0.657635	-5.86965	-6.67193	7.55649	-0.00130413	0.0135559	-0.0159495	0.366943	0.922363	-0.396484	0.0955139	-0.16485	0.00374811	-0.981676	3.37827	-0.419438	9.91467	0.0166366	0.0183206	-0.018378	-0.648193	0.105225	-0.840088	0.333862	-0.00833595	-0.0497155	-0.941273	0.545748	0.779011	11.1501	7.38167e-05	0.0209308	-0.0130825	-0.49707	-0.0541992	-1.05273	0.0724858	-0.0424499	-0.244514	-0.966	2.10693	4.53113	9.2706	0.00182301	0.00914432	-0.018532	-0.639648	-0.414551	-0.903564	0.0321727	0.89625	-0.0916306	-0.432787	-7.04703	1.47386	-5.89874	0.00327304	0.0112492	-0.00139435	0.973389	-0.170898	0.401367	0.0262224	-0.129905	-0.0754514	-0.988304	2.59474	1.40852	9.37807	0.00372011	0.00330081	6.71946e-05	-0.631348	-0.000244141	-0.9021	
46	0.182813	0.068909	-0.0183957	-0.980557	-1.41964	0.703285	10.9252	-0.000174305	-0.00519071	-0.000211991	-0.228027	0.0830078	-1.13428	0.191701	0.288885	0.127472	-0.929272	-5.85286	-1.29738	7.98103	-0.0111403	0.0124725	-0.0153645	0.484375	0.19043	-0.949219	-0.00301357	0.212405	-0.116382	-0.970222	-4.43613	2.40335	9.471	0.00391386	0.00954405	0.00404418	0.0227051	-0.34668	-1.07251	-0.24749	0.216889	-0.302563	-0.894519	-5.26927	4.30078	7.10883	0.00771184	0.00880467	-0.000863202	0.268066	-0.631348	-0.814453	0.0570026	0.18938	0.295334	-0.9347	-3.77322	-5.222	7.33038	-0.00499326	0.0057707	-0.0161158	0.185059	0.590576	-0.860107	-0.619931	0.0225639	-0.427426	0.657635	-5.86965	-6.67193	7.55649	-0.00130413	0.0135559	-0.0159495	0.366943	0.922363	-0.396484	0.0954681	-0.164724	0.00368837	-0.981702	3.39692	-0.393863	9.9202	0.0191405	0.0234557	-0.0190702	-0.654785	0.105225	-0.840088	0.333854	-0.00836462	-0.0495753	-0.941283	0.521168	0.798063	11.1816	-0.00759787	0.0193309	-0.0162741	-0.497314	-0.0498047	-1.05518	0.0724858	-0.0424499	-0.244514	-0.966	2.10693	4.53113	9.2706	0.00182301	0.00914432	-0.018532	-0.639648	-0.414551	-0.903564	0.0322017	0.896253	-0.0916134	-0.432783	-7.07718	1.4505	-5.91369	-0.000383768	0.0128987	0.00104273	0.96875	-0.168701	0.405762	0.0263037	-0.129918	-0.0754949	-0.988297	2.60243	1.40352	9.39455	0.00570929	0.00772898	0.00263702	-0.62915	-0.00244141	-0.906494	
47	0.182862	0.0688977	-0.0183306	-0.98055	-1.40692	0.660454	10.9106	-0.00376864	-0.00450821	0.00053888	-0.232422	0.0827637	-1.13647	0.191816	0.288764	0.127423	-0.929293	-5.86725	-1.27158	7.98744	-0.00350181	0.0077937	-0.0136295	0.48877	0.190674	-0.947021	-0.00291308	0.212366	-0.116123	-0.970262	-4.42461	2.37303	9.44309	-0.0154328	0.00349156	0.00266097	0.0229492	-0.348877	-1.07251	-0.247593	0.216901	-0.302514	-0.894504	-5.26262	4.253	7.05426	0.000481424	0.00555047	-0.00397719	0.267822	-0.626953	-0.825439	0.0569636	0.189378	0.295043	-0.934794	-3.70647	-5.15168	7.37565	0.00975458	0.00841883	-0.0166701	0.187256	0.590576	-0.862305	-0.619806	0.0225943	-0.427595	0.657642	-5.84355	-6.73305	7.54742	0.00342312	0.0164157	-0.0159018	0.366699	0.924561	-0.394287	0.0953308	-0.164366	0.00368283	-0.981775	3.37252	-0.397548	9.94768	0.0152882	0.0292757	-0.0208825	-0.650635	0.109619	-0.842285	0.333943	-0.00839731	-0.0498228	-0.941238	0.533378	0.815967	11.0107	0.0239186	0.0132331	-0.0082939	-0.499268	-0.0541992	-1.06226	0.0720974	-0.0422075	-0.24482	-0.965963	2.10193	4.55202	9.26325	0.010305	0.00623959	-0.0192964	-0.636963	-0.418945	-0.907959	0.0322463	0.896294	-0.0915281	-0.432713	-7.08019	1.43155	-5.89565	0.00201586	0.0165851	-0.00186274	0.973389	-0.168701	0.398926	0.0264137	-0.129881	-0.0754877	-0.988299	2.5893	1.41059	9.37926	0.00139942	0.0105368	-0.000534826	-0.631348	-0.00244141	-0.904297	
48	0.182875	0.0689071	-0.0182404	-0.980549	-1.42527	0.648201	10.9267	-0.00350668	-0.0049313	0.00185236	-0.223877	0.0874023	-1.13647	0.191786	0.288632	0.12739	-0.929345	-5.80696	-1.2697	7.97857	-0.00220861	0.00841581	-0.0207251	0.484375	0.192627	-0.947021	-0.00284479	0.212334	-0.116097	-0.970272	-4.41455	2.38169	9.43764	0.00378276	0.00502586	-0.000294855	0.0249023	-0.34668	-1.07935	-0.247803	0.216852	-0.302586	-0.894433	-5.26945	4.2765	7.08488	0.00592819	0.00438977	-0.00529816	0.270264	-0.631348	-0.81665	0.0568914	0.189416	0.295047	-0.93479	-3.71591	-5.1485	7.32763	-0.000579412	0.0120427	-0.0187758	0.180664	0.592529	-0.85083	-0.619789	0.0225248	-0.427683	0.657603	-5.8674	-6.6043	7.55506	-0.0025375	0.0235132	-0.0142327	0.366943	0.922363	-0.396484	0.0951768	-0.163993	0.00365946	-0.981853	3.38138	-0.412377	9.97243	0.0116881	0.0266663	-0.0199642	-0.64624	0.107422	-0.844238	0.333995	-0.00829645	-0.0499366	-0.941215	0.493263	0.811821	11.0904	-0.00454194	0.0203151	-0.0177209	-0.501465	-0.052002	-1.05273	0.0721457	-0.0422123	-0.244683	-0.965993	2.1094	4.55309	9.26551	0.00018506	0.010878	-0.0206614	-0.641602	-0.419189	-0.903564	0.0322449	0.89634	-0.0914415	-0.432636	-7.06313	1.44056	-5.86839	0.0033133	0.0190133	-0.00202496	0.971191	-0.168701	0.403564	0.0264123	-0.12989	-0.075433	-0.988302	2.56877	1.41584	9.37919	-0.00625951	0.00706559	-0.00410461	-0.635986	-0.000244141	-0.899658	
49	0.182866	0.0690239	-0.0182468	-0.980542	-1.44833	0.643904	10.9544	0.00387425	-0.000984561	-0.0020539	-0.22583	0.0830078	-1.13843	0.191753	0.288846	0.127404	-0.929283	-5.87078	-1.31119	8.04252	-0.00619642	0.0164631	-0.0184118	0.47998	0.19043	-0.949219	-0.0029619	0.212251	-0.115871	-0.970317	-4.41603	2.37824	9.49029	-0.0135687	0.00368638	-0.00401693	0.0185547	-0.348633	-1.07251	-0.247857	0.216768	-0.302534	-0.894456	-5.2528	4.24767	7.11199	-0.00659173	0.00390171	0.0041717	0.268066	-0.62915	-0.818848	0.0566732	0.189309	0.295228	-0.934768	-3.7783	-5.13407	7.31871	-0.00596234	0.003153	-0.0179364	0.184814	0.594727	-0.85791	-0.619799	0.0225244	-0.427768	0.657538	-5.88274	-6.68973	7.55442	-0.00266742	0.0199666	-0.0143318	0.364746	0.924561	-0.396484	0.0951905	-0.164486	0.00361767	-0.981769	3.37545	-0.384229	10.0228	0.014607	-0.0245724	-0.0143264	-0.648193	0.103027	-0.837891	0.333995	-0.00845439	-0.0494088	-0.941241	0.533174	0.815689	11.1205	-0.0174307	0.0237643	-0.0145516	-0.501465	-0.0541992	-1.05273	0.0721706	-0.0422271	-0.244594	-0.966013	2.10899	4.55629	9.28503	-0.00116233	0.00956962	-0.0199739	-0.636719	-0.428223	-0.898926	0.0321995	0.896331	-0.0914233	-0.432661	-7.10251	1.42671	-5.95292	0.00484358	0.00961041	-0.00126938	0.975586	-0.168457	0.403564	0.0263905	-0.129953	-0.0752353	-0.988309	2.56495	1.38052	9.42736	-0.00450992	0.00509884	-0.00304652	-0.626953	-0.00244141	-0.901855	
50	0.182721	0.0690898	-0.0181368	-0.980567	-1.39251	0.719346	10.9302	-0.00436155	0.00207189	-0.00580442	-0.230225	0.0827637	-1.13647	0.191733	0.288956	0.127534	-0.929235	-5.87339	-1.26649	7.91388	-0.00988215	0.0134414	-0.016754	0.486572	0.190674	-0.94458	-0.00297434	0.212121	-0.115478	-0.970392	-4.42915	2.37636	9.45909	-0.0198997	-0.00223047	-0.00378779	0.0205078	-0.344482	-1.07495	-0.247798	0.216652	-0.302365	-0.894558	-5.21434	4.25509	7.07743	-0.00473839	0.0012915	0.00485843	0.265869	-0.631348	-0.821045	0.0563074	0.189276	0.295153	-0.93482	-3.75791	-5.16257	7.33595	0.0128506	0.0138446	-0.01629	0.180664	0.590332	-0.85791	-0.61964	0.0224885	-0.427926	0.657586	-5.88552	-6.69572	7.52496	0.0043982	0.012298	-0.0172051	0.358398	0.917969	-0.400635	0.0951521	-0.165049	0.00373545	-0.981678	3.3479	-0.420822	10.0595	0.00205171	-0.0116764	-0.012192	-0.654785	0.105225	-0.837891	0.334116	-0.00842235	-0.0497223	-0.941182	0.469773	0.78958	11.0708	0.023917	0.0132806	-0.00823539	-0.495117	-0.052002	-1.05054	0.0717702	-0.0419661	-0.244569	-0.966061	2.08363	4.54742	9.26411	0.000819314	0.00736609	-0.019274	-0.639404	-0.416748	-0.901123	0.0321355	0.896378	-0.0914699	-0.43256	-7.07358	1.4494	-5.90491	0.00470938	0.0101763	0.00134704	0.971191	-0.173096	0.403564	0.0264081	-0.129909	-0.0752783	-0.988311	2.57103	1.39043	9.39191	0.00247593	0.00578703	-0.00119846	-0.626953	-0.000244141	-0.9021	
51	0.183095	0.0689836	-0.0181127	-0.980505	-1.48406	0.596455	10.9351	-0.00154677	-0.013018	0.0146267	-0.230469	0.0871582	-1.13208	0.191841	0.289091	0.127274	-0.929207	-5.80005	-1.27763	8.0918	0.000589393	0.0184584	-0.00844592	0.484375	0.188477	-0.94458	-0.0030335	0.21223	-0.115026	-0.970422	-4.39411	2.28501	9.44659	-0.0113601	0.0132713	-0.00814471	0.0249023	-0.344482	-1.07715	-0.247696	0.216631	-0.30203	-0.894704	-5.23562	4.23107	7.09678	-0.0177737	0.00303927	0.0037247	0.266113	-0.635742	-0.821045	0.0562503	0.189286	0.295113	-0.934834	-3.73225	-5.17696	7.32284	-0.000148303	0.00676258	-0.0151657	0.182373	0.601562	-0.864746	-0.619628	0.0224766	-0.427843	0.657653	-5.87663	-6.67053	7.53345	0.0104067	0.0133996	-0.0212326	0.360352	0.926514	-0.396484	0.0951839	-0.166015	0.00464888	-0.981508	3.45988	-0.45522	9.86359	-0.0297164	-0.0064176	-0.00245494	-0.650879	0.114014	-0.840332	0.334161	-0.00840555	-0.0495332	-0.941176	0.502859	0.800743	11.0776	-0.0158093	0.023076	-0.0209923	-0.499512	-0.0498047	-1.05762	0.0718291	-0.042	-0.244481	-0.966077	2.11164	4.52752	9.23588	-0.000838716	0.00872511	-0.0170074	-0.634766	-0.418945	-0.90332	0.031928	0.896467	-0.091394	-0.432406	-7.08868	1.40031	-5.90167	0.00750078	0.0102165	-0.00517965	0.973389	-0.170898	0.394531	0.0265714	-0.129907	-0.0751688	-0.988316	2.573	1.37925	9.38567	-0.00359631	0.00867619	0.00470814	-0.62915	-0.00244141	-0.901855	
52	0.182996	0.0687741	-0.018213	-0.980536	-1.37519	0.660147	10.9247	0.00302512	-0.00866101	-0.00872071	-0.230225	0.0830078	-1.14062	0.191999	0.289387	0.126775	-0.92915	-5.93665	-1.2798	7.97305	0.0154045	0.015133	-0.003905	0.48877	0.190674	-0.947021	-0.00328736	0.212321	-0.115354	-0.970362	-4.4509	2.38918	9.49161	0.0150192	0.0066665	-0.00305724	0.0183105	-0.340088	-1.07495	-0.247697	0.216553	-0.301963	-0.894745	-5.26555	4.22541	7.10511	0.00459068	0.00483654	0.00188545	0.263672	-0.631348	-0.823242	0.056053	0.189286	0.294835	-0.934934	-3.80935	-5.20613	7.31548	0.0134671	0.00986099	-0.0191893	0.182861	0.594727	-0.85791	-0.619537	0.0225987	-0.427568	0.657912	-5.91529	-6.7337	7.51658	0.0105264	0.0040596	-0.016321	0.364502	0.926514	-0.390137	0.0954592	-0.166844	0.00484759	-0.98134	3.39543	-0.438637	9.93873	0.0123263	-0.020363	-0.0049613	-0.652832	0.109619	-0.837891	0.333995	-0.00840269	-0.0492633	-0.941249	0.521142	0.786934	11.1429	-0.0082874	0.0122866	-0.0151766	-0.495117	-0.052002	-1.0481	0.071675	-0.0418821	-0.244424	-0.966108	2.09942	4.53639	9.27734	0.000725837	0.00788908	-0.0180029	-0.634766	-0.418945	-0.901123	0.0319835	0.8965	-0.0912786	-0.432358	-7.10523	1.43465	-5.9125	0.000253424	0.0150905	-0.000323732	0.973389	-0.173096	0.39917	0.0266536	-0.129928	-0.075327	-0.988299	2.56361	1.37196	9.433	0.0118719	0.00775277	-0.00186638	-0.631348	-0.000244141	-0.904297	
53	0.18295	0.0687923	-0.0182401	-0.980543	-1.41195	0.662949	10.9124	0.000207667	-0.00601088	-0.000789661	-0.228271	0.0871582	-1.13647	0.192154	0.289074	0.126505	-0.929252	-5.85989	-1.24545	8.0064	-0.004321	-0.00571298	-0.013202	0.482178	0.188477	-0.946777	-0.00319997	0.212267	-0.115043	-0.970411	-4.42827	2.37672	9.50394	-0.0225538	0.00773519	3.44576e-05	0.0227051	-0.344482	-1.07495	-0.247516	0.216581	-0.301802	-0.894843	-5.24705	4.27011	7.1542	-0.0152133	0.00848158	0.00870876	0.266113	-0.633545	-0.823242	0.0562306	0.189301	0.294655	-0.934977	-3.75261	-5.16637	7.30798	-0.00223605	0.00429877	-0.00709007	0.180664	0.594971	-0.862305	-0.619658	0.0226754	-0.427372	0.657923	-5.87272	-6.66636	7.523	0.00415667	0.00726823	-0.0166387	0.360107	0.928711	-0.394531	0.0956371	-0.167166	0.00482946	-0.981267	3.41371	-0.431041	9.9711	0.0100917	-0.00547341	-0.00756843	-0.652832	0.111816	-0.835938	0.33409	-0.00828331	-0.0497309	-0.941192	0.519479	0.771681	11.0833	0.0256062	0.0135689	-0.0136127	-0.501709	-0.0456543	-1.05054	0.0712325	-0.0416876	-0.24486	-0.966039	2.09968	4.53688	9.2745	0.013595	0.00433	-0.0203225	-0.639404	-0.418945	-0.90332	0.0321592	0.896477	-0.0912733	-0.432393	-7.08083	1.4011	-5.91091	-0.00483331	0.0101702	0.0035756	0.973389	-0.170898	0.396729	0.02665	-0.129846	-0.0754412	-0.988301	2.57791	1.37661	9.41151	0.00100481	0.0143654	-0.00376883	-0.626465	-0.0090332	-0.899658	
54	0.182921	0.0687929	-0.018224	-0.980548	-1.41756	0.675405	10.9361	-0.000540451	-0.00425158	-0.00225	-0.232666	0.0871582	-1.13647	0.192227	0.288946	0.126409	-0.92929	-5.8292	-1.28634	8.01727	-0.00235771	0.00148303	-0.0118617	0.484375	0.188477	-0.942139	-0.00314289	0.21235	-0.114996	-0.970399	-4.38136	2.26967	9.45501	0.0103629	0.00963608	0.00291317	0.0229492	-0.348877	-1.07031	-0.247299	0.2167	-0.301419	-0.895003	-5.20672	4.18257	7.07373	-0.0104053	0.00797702	0.00496733	0.268066	-0.62915	-0.821045	0.0562864	0.18929	0.294658	-0.934975	-3.73892	-5.19208	7.29845	-0.00224848	0.00584351	-0.0102393	0.18042	0.596924	-0.85791	-0.619715	0.0227337	-0.427305	0.657911	-5.85357	-6.75759	7.50773	0.00463705	0.00759809	-0.0157981	0.364746	0.920166	-0.39624	0.0956371	-0.167166	0.00482946	-0.981267	3.41371	-0.431041	9.9711	0.0100917	-0.00547341	-0.00756843	-0.652832	0.111816	-0.835938	0.334124	-0.00828973	-0.0497548	-0.941179	0.526384	0.820769	11.0617	0.00614792	0.0172556	-0.0128676	-0.49707	-0.052002	-1.05273	0.0712703	-0.0417598	-0.244905	-0.966022	2.09472	4.5466	9.25137	0.00984777	0.00444777	-0.0181002	-0.637207	-0.416748	-0.898926	0.0322013	0.896486	-0.0913389	-0.432358	-7.065	1.44871	-5.9021	-0.000425476	0.0145322	0.00431296	0.96875	-0.168701	0.396729	0.02666	-0.129597	-0.0754019	-0.988336	2.58406	1.37546	9.37037	0.00300104	0.0180395	-0.0046824	-0.624512	-0.00244141	-0.904297	
55	0.182915	0.0687428	-0.0181994	-0.980554	-1.40457	0.68012	10.9286	-0.000287792	-0.0064145	6.08915e-05	-0.232422	0.0849609	-1.14062	0.192216	0.28883	0.126223	-0.929354	-5.84162	-1.26299	7.99459	-0.000333951	0.00545209	-0.0177169	0.486572	0.188477	-0.946777	-0.00306906	0.212472	-0.115375	-0.970327	-4.43062	2.39011	9.48125	0.0110821	0.0114145	0.00538756	0.0227051	-0.344482	-1.07715	-0.247264	0.216694	-0.301279	-0.895062	-5.22778	4.24418	7.0941	-0.00728968	0.0039483	0.00419856	0.268066	-0.631348	-0.823242	0.0563963	0.18932	0.294856	-0.9349	-3.72941	-5.13641	7.33315	-0.00937627	0.00485445	-0.00404954	0.182861	0.594971	-0.862305	-0.619621	0.0225874	-0.427151	0.658105	-5.85301	-6.687	7.55757	0.0128683	0.00994077	-0.0140393	0.360352	0.924561	-0.396484	0.0956324	-0.167847	0.00469968	-0.981152	3.45026	-0.454643	9.92354	0.00635517	-0.0140693	-0.00552609	-0.65918	0.109619	-0.835938	0.334132	-0.00834204	-0.0497095	-0.941178	0.547602	0.814042	11.0928	0.00492424	0.0135039	-0.0157037	-0.503662	-0.052002	-1.05737	0.0712963	-0.041807	-0.244889	-0.966022	2.1063	4.54484	9.21779	0.00486079	0.00654901	-0.0193916	-0.634766	-0.416748	-0.896729	0.0322123	0.896504	-0.0913724	-0.432312	-7.07753	1.42303	-5.86531	0.00308384	0.0165414	0.00418933	0.975586	-0.170654	0.398926	0.0266379	-0.129381	-0.0755602	-0.988353	2.57816	1.41259	9.38303	0.00722689	0.0141398	-0.00599156	-0.633789	-0.000244141	-0.908936	
56	0.183048	0.0686446	-0.0182457	-0.980535	-1.41431	0.648788	10.9016	0.000145228	-0.00649605	0.00967466	-0.228271	0.0871582	-1.13647	0.192296	0.288638	0.125961	-0.929432	-5.83662	-1.25513	8.02018	-0.00141886	0.0060216	-0.0118261	0.482178	0.188232	-0.95166	-0.00302453	0.212549	-0.115337	-0.970315	-4.41764	2.38359	9.44341	-0.00387168	0.0122225	0.00221544	0.0183105	-0.340088	-1.07715	-0.2472	0.216678	-0.301156	-0.895125	-5.25694	4.23646	7.11562	-0.0100795	0.00381153	0.00620933	0.270264	-0.631348	-0.821045	0.0564445	0.189389	0.295135	-0.934795	-3.73036	-5.20679	7.33786	-0.00710137	0.00991167	-0.0144351	0.178223	0.599121	-0.855469	-0.619777	0.0225629	-0.426856	0.65815	-5.87793	-6.66576	7.58277	0.0114538	0.0076387	-0.0149531	0.362305	0.926514	-0.392334	0.0958913	-0.168115	0.00469365	-0.981081	3.46414	-0.444588	9.93227	0.0193253	0.00285799	-0.0046245	-0.656982	0.109619	-0.829346	0.334204	-0.00831827	-0.04966	-0.941155	0.550512	0.798266	11.1526	0.00435127	0.0209065	-0.0124213	-0.503662	-0.052002	-1.06226	0.071151	-0.0417336	-0.24496	-0.966018	2.09009	4.54588	9.27941	0.0118495	0.00666044	-0.0194013	-0.639404	-0.416748	-0.896729	0.032221	0.896543	-0.0914762	-0.432209	-7.09691	1.45183	-5.9057	0.00221442	0.0148104	0.00624786	0.971191	-0.170898	0.398926	0.0266162	-0.129327	-0.0756065	-0.988357	2.57504	1.41868	9.3968	0.00492881	0.0124314	-0.00595615	-0.631348	-0.000244141	-0.906494	
57	0.183045	0.0686779	-0.0181913	-0.980534	-1.39931	0.64796	10.9301	-0.000567451	-0.00113591	0.00360317	-0.234619	0.0827637	-1.13867	0.192279	0.288525	0.125683	-0.929508	-5.82232	-1.23135	7.992	0.00882246	0.00491165	-0.0164334	0.482178	0.188477	-0.946777	-0.00291477	0.21256	-0.115349	-0.970311	-4.44424	2.36159	9.45235	-0.00108894	0.00723368	0.00529732	0.0249023	-0.342285	-1.07495	-0.24718	0.216619	-0.30095	-0.895214	-5.2635	4.26573	7.1088	-0.0116946	0.00126176	0.0034551	0.274902	-0.631348	-0.821045	0.0565454	0.189386	0.294879	-0.93487	-3.78312	-5.14358	7.31746	0.0141566	0.00318787	-0.00959988	0.180664	0.590332	-0.860107	-0.619635	0.0224487	-0.42678	0.658337	-5.85238	-6.6899	7.57377	0.0102123	0.0116829	-0.0153449	0.362549	0.924561	-0.39209	0.0961587	-0.168589	0.00484878	-0.980973	3.44915	-0.437132	9.9287	0.00517207	-0.00354002	-0.00421157	-0.659424	0.114014	-0.83374	0.334256	-0.00820542	-0.0500759	-0.941115	0.523863	0.795879	11.045	0.0276774	0.0155783	-0.0138412	-0.49707	-0.0541992	-1.05518	0.0711931	-0.0418707	-0.245129	-0.965966	2.10902	4.54595	9.25211	0.0108346	0.00554864	-0.0197754	-0.637207	-0.416748	-0.903564	0.0322833	0.89659	-0.0914502	-0.432112	-7.05622	1.45904	-5.91522	-0.00013258	0.017601	0.00104809	0.97583	-0.175049	0.39917	0.0266696	-0.129219	-0.0757371	-0.98836	2.57547	1.43962	9.37757	0.00803898	0.0144369	-0.00137295	-0.626953	-0.00244141	-0.906494	
58	0.183128	0.0685722	-0.0182357	-0.980525	-1.42562	0.656005	10.9339	0.00135961	-0.0115809	0.0045678	-0.232422	0.0827637	-1.13867	0.192318	0.288505	0.125525	-0.929528	-5.85627	-1.26618	8.00974	-0.00482484	0.0166163	-0.0158544	0.486816	0.184082	-0.948975	-0.00287838	0.212715	-0.115267	-0.970287	-4.43768	2.34486	9.46124	-0.0020872	0.0143541	0.00188206	0.0229492	-0.348877	-1.07471	-0.247118	0.216557	-0.300424	-0.895422	-5.26103	4.21635	7.08236	-0.0245799	-0.00304221	0.00323458	0.265625	-0.626953	-0.825439	0.0566065	0.189388	0.295104	-0.934795	-3.74691	-5.11799	7.31273	-0.0218764	0.00740928	-0.0147624	0.183105	0.588135	-0.85791	-0.619742	0.0224759	-0.426715	0.658277	-5.85305	-6.65292	7.59058	0.00130188	0.0115533	-0.013967	0.355957	0.924316	-0.400879	0.0964012	-0.168641	0.00516881	-0.980938	3.45262	-0.44695	9.94342	0.0048163	0.00933639	-0.00188775	-0.654785	0.107422	-0.827393	0.334298	-0.00813294	-0.0501059	-0.941099	0.518488	0.862198	11.1409	-0.00669816	0.0194878	-0.0183987	-0.499268	-0.0541992	-1.05737	0.0712342	-0.0418588	-0.245068	-0.965979	2.10916	4.56135	9.26869	0.00276801	0.0113617	-0.0180777	-0.639404	-0.418945	-0.901123	0.0320925	0.896631	-0.0914839	-0.432034	-7.06332	1.45052	-5.91804	0.00917012	0.0143526	-0.00307548	0.973389	-0.170898	0.396729	0.0267704	-0.129063	-0.075627	-0.988386	2.54562	1.42284	9.38539	-0.0059666	0.0145808	0.00187156	-0.622559	0.00219727	-0.906494	
59	0.183102	0.0684438	-0.0182086	-0.980539	-1.40035	0.674918	10.9144	-0.00186334	-0.00698678	-0.000726504	-0.228271	0.0871582	-1.13867	0.192002	0.288594	0.125641	-0.92955	-5.87693	-1.22822	8.02358	-0.00308173	0.0123203	-0.0217404	0.477783	0.19043	-0.949219	-0.00279239	0.212787	-0.115222	-0.970277	-4.48863	2.35257	9.44801	-0.0036968	0.00431916	0.00434502	0.0249023	-0.34668	-1.07471	-0.247005	0.216411	-0.299949	-0.895648	-5.26534	4.16215	7.08518	-0.0140156	-0.00135701	0.00483312	0.265869	-0.631348	-0.834229	0.0567358	0.189294	0.295614	-0.934645	-3.78055	-5.22704	7.32632	-0.0162946	0.00379991	-0.014164	0.184814	0.596924	-0.855469	-0.619776	0.0224806	-0.426681	0.658267	-5.89515	-6.67911	7.5659	0.00452937	0.0142834	-0.0175154	0.364502	0.926514	-0.396484	0.096546	-0.168759	0.00507803	-0.980905	3.4545	-0.444472	9.94088	0.0111564	0.00181794	-0.00188503	-0.657471	0.120361	-0.829834	0.334327	-0.0082903	-0.0497978	-0.941104	0.524557	0.821005	11.1068	-0.00476114	0.0178115	-0.0119331	-0.499512	-0.052002	-1.06445	0.0712502	-0.0419085	-0.245081	-0.965972	2.08795	4.56202	9.2717	0.00703049	0.00631269	-0.0192321	-0.634766	-0.416748	-0.901123	0.0319282	0.896704	-0.0915624	-0.431878	-7.07048	1.4359	-5.93769	0.00888131	0.0125757	0.000365235	0.973389	-0.170898	0.398926	0.0267897	-0.129028	-0.0756143	-0.988391	2.51779	1.41381	9.41911	0.00143809	0.00818629	-0.0039488	-0.629395	0.00195312	-0.904297	
60	0.183138	0.0684031	-0.0181236	-0.980537	-1.40969	0.626764	10.9276	-0.0026835	-0.00595977	0.000566187	-0.230225	0.0849609	-1.12988	0.191996	0.288178	0.125528	-0.929695	-5.84893	-1.25036	8.02211	-0.00587903	-0.0073242	-0.0203836	0.484375	0.188477	-0.949219	-0.00283014	0.212727	-0.115104	-0.970304	-4.46921	2.34288	9.42429	-0.00218155	0.00225493	-0.00494924	0.0270996	-0.344482	-1.07935	-0.246867	0.216249	-0.29973	-0.895798	-5.25351	4.21672	7.11961	-0.00845786	-0.00135825	0.0103907	0.267822	-0.626953	-0.823242	0.0567537	0.189304	0.29542	-0.934703	-3.74121	-5.18729	7.32106	0.0115317	0.00799659	-0.00996332	0.182617	0.596924	-0.848633	-0.619723	0.0225422	-0.426661	0.658328	-5.86772	-6.69733	7.54952	0.00449369	0.0162351	-0.0221954	0.360352	0.922363	-0.396484	0.0968775	-0.168713	0.00527114	-0.980879	3.43927	-0.467186	9.90734	0.0110203	0.017989	-0.000888412	-0.655273	0.115967	-0.827393	0.334487	-0.00821319	-0.0500299	-0.941036	0.50108	0.816067	11.062	0.0176802	0.0163027	-0.0102329	-0.499268	-0.052002	-1.05518	0.0712897	-0.0420063	-0.245019	-0.965981	2.10437	4.55096	9.25786	2.91638e-05	0.0066782	-0.0177157	-0.637207	-0.416748	-0.896729	0.0317321	0.896637	-0.0916253	-0.432019	-7.05666	1.40066	-5.92211	0.0120949	0.00438975	-0.00023057	0.96875	-0.166504	0.396729	0.026714	-0.12912	-0.0755042	-0.988389	2.53953	1.3946	9.41128	-0.00519365	0.00353759	-0.00660481	-0.631348	-0.000244141	-0.9021	
61	0.183057	0.0683244	-0.0180617	-0.980559	-1.42068	0.640183	10.9078	-0.00168482	-0.00839022	-0.00437286	-0.22583	0.0830078	-1.13647	0.19194	0.287779	0.125451	-0.929841	-5.82435	-1.24885	8.0251	-0.00307788	-0.00317335	-0.021594	0.48877	0.188477	-0.946777	-0.00292967	0.212679	-0.115285	-0.970293	-4.40394	2.31157	9.44847	0.0123169	0.00292472	-0.000416166	0.0183105	-0.342285	-1.07495	-0.246763	0.216131	-0.299574	-0.895908	-5.19534	4.19233	7.12751	-0.00255437	0.00254205	0.00345123	0.267822	-0.624756	-0.823242	0.0568635	0.189251	0.295439	-0.934701	-3.77818	-5.11857	7.3181	-0.00827847	0.00415374	-0.0132128	0.18457	0.601318	-0.85791	-0.61966	0.0225173	-0.426659	0.65839	-5.85679	-6.65315	7.57035	0.00743407	0.0195885	-0.0232623	0.366943	0.922363	-0.400635	0.0971118	-0.168765	0.00547534	-0.980845	3.46502	-0.464064	9.91682	0.00620287	0.00827231	-0.00249384	-0.655273	0.115967	-0.833984	0.334505	-0.00830345	-0.0498263	-0.941039	0.510536	0.781813	11.0731	-0.0132306	0.0159405	-0.0168105	-0.501465	-0.052002	-1.05518	0.0713094	-0.0420411	-0.244938	-0.965998	2.09192	4.53484	9.26231	-0.000913798	0.00713039	-0.0185938	-0.636963	-0.418945	-0.898926	0.0315783	0.89659	-0.0916481	-0.432123	-7.06291	1.45149	-5.88296	0.0066553	0.0110659	-0.00275911	0.96875	-0.166504	0.398926	0.0266371	-0.129218	-0.0753912	-0.988387	2.58446	1.38329	9.37119	-0.00460528	0.00477102	-0.00406765	-0.628906	-0.00463867	-0.901855	
62	0.182941	0.0681522	-0.0181523	-0.980591	-1.38266	0.648058	10.9385	0.00266265	-0.00996456	-0.0041701	-0.228027	0.0852051	-1.13867	0.192053	0.287384	0.125333	-0.929956	-5.82232	-1.27206	8.0226	-0.00673825	-0.00227766	-0.015762	0.478027	0.184082	-0.948975	-0.002959	0.212732	-0.115638	-0.970239	-4.40975	2.37344	9.48229	0.0123361	0.00978145	0.000180078	0.0229492	-0.348877	-1.07251	-0.246753	0.216028	-0.299461	-0.895973	-5.1954	4.25269	7.14698	-0.00620262	0.000596006	0.00379523	0.26123	-0.624756	-0.81665	0.0568787	0.189186	0.295648	-0.934647	-3.78446	-5.15668	7.31269	-0.0178676	0.00449922	-0.0179749	0.178223	0.596924	-0.855469	-0.61947	0.02253	-0.426766	0.658498	-5.85513	-6.67114	7.56737	0.000482798	0.0137736	-0.0170171	0.358398	0.920166	-0.400635	0.0972758	-0.168799	0.00558185	-0.980823	3.44761	-0.470669	9.87531	0.0078095	0.0116405	-0.000795278	-0.659424	0.111816	-0.835938	0.33456	-0.00839012	-0.0496008	-0.941031	0.533828	0.78921	11.1424	-0.00132404	0.0223853	-0.012108	-0.495117	-0.0498047	-1.05518	0.0712151	-0.0419443	-0.244988	-0.965997	2.104	4.54011	9.26732	0.0125094	0.00807323	-0.0185132	-0.639648	-0.414551	-0.898926	0.0313876	0.896591	-0.0915932	-0.432146	-7.08019	1.45111	-5.89516	0.00548443	0.013756	-0.00519543	0.975586	-0.168457	0.403564	0.0267422	-0.129266	-0.0753651	-0.98838	2.57884	1.38265	9.40843	0.00168501	0.0077573	0.00390304	-0.631348	-0.00463867	-0.899658	
63	0.182908	0.068134	-0.0181955	-0.980598	-1.39057	0.670219	10.9324	0.00363967	-0.00679047	-0.00213676	-0.228027	0.0852051	-1.13867	0.192108	0.287271	0.125301	-0.929984	-5.80146	-1.25278	8.01906	-0.00676802	0.00391624	-0.0143715	0.482178	0.188477	-0.946777	-0.00294054	0.212777	-0.115753	-0.970216	-4.41329	2.33401	9.48115	0.00490518	0.00787324	0.000355526	0.0249023	-0.34668	-1.07471	-0.246728	0.21599	-0.299341	-0.896029	-5.23523	4.24099	7.16133	-0.00889322	0.00161054	0.00364543	0.265869	-0.62915	-0.823242	0.0569343	0.18916	0.295967	-0.934548	-3.739	-5.23413	7.33629	-0.00693031	0.00681134	-0.012328	0.186768	0.601562	-0.85791	-0.619536	0.0225988	-0.426763	0.658436	-5.85848	-6.71448	7.56238	0.00203263	0.0133028	-0.0148548	0.364746	0.924561	-0.396484	0.0975979	-0.168671	0.00581608	-0.980811	3.46482	-0.489591	9.91441	0.00764064	0.019421	-0.00115109	-0.659424	0.114014	-0.83374	0.334631	-0.0083792	-0.049743	-0.940998	0.529313	0.789398	11.1257	0.0152307	0.0147395	-0.0102073	-0.49707	-0.052002	-1.05273	0.0712382	-0.0420041	-0.2451	-0.965964	2.10268	4.56722	9.27277	0.0155785	0.00484672	-0.0199872	-0.641846	-0.414551	-0.905762	0.0313591	0.896601	-0.0915218	-0.432143	-7.07391	1.41661	-5.88644	0.00189105	0.0127723	-0.00474135	0.973389	-0.168701	0.396729	0.0269387	-0.129198	-0.0753463	-0.988385	2.58471	1.38894	9.37126	0.00105684	0.012451	0.00563062	-0.626953	-0.00244141	-0.906494	
64	0.182986	0.0680875	-0.0182938	-0.980584	-1.3981	0.634209	10.9173	0.00425782	-0.0066576	0.00544841	-0.230225	0.0849609	-1.13208	0.19226	0.287066	0.125057	-0.930048	-5.80636	-1.26678	8.06675	-0.0013128	0.00323728	-0.00995358	0.482422	0.184082	-0.948975	-0.00291608	0.212917	-0.115878	-0.97017	-4.44606	2.36624	9.44401	0.0080656	0.0110689	0.00152568	0.0227051	-0.342285	-1.07495	-0.2467	0.215965	-0.298787	-0.896228	-5.22028	4.21859	7.12624	-0.0161135	-0.00137688	0.00134394	0.263428	-0.626953	-0.823242	0.0569094	0.189141	0.29608	-0.934518	-3.73973	-5.14644	7.33587	-0.00935043	0.00924082	-0.0182287	0.182617	0.596924	-0.85791	-0.619563	0.0226119	-0.426752	0.658418	-5.84273	-6.72783	7.56059	0.00359847	0.013937	-0.0162897	0.364746	0.920166	-0.400635	0.0978878	-0.168551	0.00612436	-0.980801	3.44363	-0.478271	9.91806	0.00403297	0.0167927	-0.000209543	-0.657227	0.114014	-0.82959	0.334732	-0.00829048	-0.0500669	-0.940946	0.538691	0.823065	11.0385	0.0160852	0.0168312	-0.012444	-0.501221	-0.0563965	-1.05273	0.0712805	-0.0420648	-0.245157	-0.965944	2.09741	4.56076	9.22288	0.0114186	0.00538774	-0.0183734	-0.63916	-0.421387	-0.901123	0.0312114	0.896677	-0.0914232	-0.432017	-7.07346	1.39398	-5.91415	0.00835451	0.018754	-0.00326404	0.975342	-0.16626	0.405762	0.0270043	-0.129125	-0.0753463	-0.988393	2.57833	1.37601	9.3691	0.00206229	0.0143295	0.00165208	-0.624512	-0.00244141	-0.904297	
65	0.182952	0.0681032	-0.0184385	-0.980587	-1.3851	0.642559	10.9096	0.00717973	-0.0047279	-0.00213959	-0.22998	0.0808105	-1.13647	0.192375	0.286987	0.1249	-0.93007	-5.81328	-1.23675	8.03975	-0.000651827	0.0101295	-0.0136357	0.482422	0.181885	-0.948975	-0.00291919	0.212966	-0.115998	-0.970145	-4.46197	2.35421	9.41852	0.00968826	0.00988428	0.00131203	0.0227051	-0.34668	-1.07715	-0.246629	0.215938	-0.298577	-0.896324	-5.25233	4.11944	7.13756	-0.0172926	0.00102669	0.0061147	0.265625	-0.626953	-0.827637	0.0569169	0.189186	0.296144	-0.934488	-3.75346	-5.23109	7.29049	0.00366106	0.0082243	-0.00977402	0.18042	0.599121	-0.853271	-0.619519	0.022478	-0.426631	0.658541	-5.88474	-6.68731	7.53387	0.00747331	0.0127169	-0.0135992	0.358154	0.924316	-0.396484	0.0981654	-0.168755	0.00647609	-0.980736	3.45811	-0.474617	9.93944	0.00266089	0.00723011	-0.00347858	-0.651123	0.118164	-0.831787	0.334714	-0.00830785	-0.0498833	-0.940962	0.523791	0.843504	11.1332	-0.00715653	0.0171066	-0.0157735	-0.503662	-0.0498047	-1.05518	0.0711183	-0.0419507	-0.245137	-0.965966	2.09983	4.56016	9.27045	0.00184041	0.00978471	-0.0200289	-0.637207	-0.416748	-0.901123	0.0310895	0.896734	-0.0914322	-0.431904	-7.10421	1.377	-5.93211	0.0125041	0.015473	0.00302119	0.973145	-0.166504	0.403564	0.0270337	-0.12896	-0.0753226	-0.988415	2.52421	1.3952	9.43804	0.00211626	0.0128011	-0.00531874	-0.631348	-0.000244141	-0.9021	
66	0.182866	0.0682131	-0.0185789	-0.980593	-1.44888	0.682431	10.9359	0.00577022	-0.00184605	-0.00171789	-0.234619	0.0827637	-1.14282	0.192329	0.286874	0.12485	-0.930121	-5.86372	-1.29534	8.04679	-0.00498718	0.00277338	-0.0232129	0.482422	0.181885	-0.946533	-0.00301521	0.212937	-0.116229	-0.970124	-4.45307	2.32693	9.41223	0.0098726	0.00379576	0.00108626	0.0227051	-0.34668	-1.07031	-0.246572	0.215877	-0.298578	-0.896354	-5.22762	4.17051	7.11172	0.00268475	0.00673824	0.00641162	0.263428	-0.624756	-0.827637	0.0570549	0.189121	0.296114	-0.934502	-3.78337	-5.18008	7.33659	-0.00724665	0.00280215	-0.00913607	0.184814	0.594971	-0.862305	-0.619523	0.0224637	-0.426604	0.658555	-5.89765	-6.69125	7.55805	0.00189573	0.0158409	-0.0181071	0.358154	0.922363	-0.398438	0.09841	-0.169138	0.00674325	-0.980644	3.44234	-0.503748	9.89078	0.00291845	-0.00463156	-0.004689	-0.655518	0.120361	-0.831787	0.334761	-0.0083545	-0.049748	-0.940952	0.493044	0.789931	11.0704	0.00643357	0.0180763	-0.0134698	-0.501465	-0.052002	-1.05518	0.0711428	-0.0420316	-0.244992	-0.965997	2.10448	4.55076	9.24971	0.00246881	0.00661119	-0.0206421	-0.63916	-0.421387	-0.898926	0.0309774	0.896736	-0.0915222	-0.43189	-7.08247	1.40694	-5.93579	0.00679332	0.00609657	0.00208738	0.971191	-0.168701	0.396729	0.0269469	-0.129023	-0.0752535	-0.988415	2.51969	1.38267	9.3997	-0.00179409	0.00442535	-0.00470217	-0.620361	0.00219727	-0.9021	
67	0.182771	0.0681904	-0.0185423	-0.980613	-1.38388	0.708747	10.9245	-0.002336	-0.00553195	-0.00348391	-0.228027	0.0830078	-1.13843	0.192398	0.286805	0.124825	-0.930131	-5.80835	-1.24411	7.94186	-0.00331708	0.0130196	-0.0107348	0.482422	0.186279	-0.944336	-0.00305693	0.212949	-0.116533	-0.970084	-4.43308	2.39715	9.45008	0.00951636	0.00428482	0.00122899	0.0249023	-0.348877	-1.07935	-0.246534	0.215792	-0.298614	-0.896373	-5.18429	4.19939	7.12054	0.00518857	0.00362102	0.00403853	0.261475	-0.633545	-0.827637	0.0571233	0.189117	0.296408	-0.934406	-3.80624	-5.20841	7.28895	-0.0100346	0.00997295	-0.0160475	0.184814	0.596924	-0.85083	-0.619516	0.0224344	-0.426585	0.658576	-5.87956	-6.66866	7.5741	0.00706817	0.016991	-0.0179632	0.364746	0.920166	-0.39624	0.0986687	-0.169052	0.00705872	-0.98063	3.43598	-0.534239	9.96483	0.00416584	0.0116298	-0.000698297	-0.655273	0.118164	-0.836182	0.334854	-0.00824531	-0.0499904	-0.940907	0.505244	0.777523	11.0853	0.0124547	0.0212282	-0.0124895	-0.499268	-0.0541992	-1.05273	0.0711728	-0.0420606	-0.24494	-0.966007	2.07701	4.54572	9.26589	0.00155138	0.0075746	-0.0179726	-0.630127	-0.416748	-0.898926	0.0309779	0.896714	-0.0915732	-0.431924	-7.04701	1.41955	-5.93137	0.000637064	0.0115943	0.00125593	0.970947	-0.166504	0.396729	0.0269369	-0.129137	-0.0753889	-0.98839	2.54741	1.42888	9.39982	0.00665256	0.00389011	-0.000820757	-0.62915	-0.00244141	-0.906494	
68	0.183071	0.0680634	-0.0185224	-0.980566	-1.43585	0.64638	10.9335	-0.00317327	-0.0129554	0.0105139	-0.232422	0.0849609	-1.13428	0.192496	0.286887	0.124535	-0.930125	-5.79968	-1.22485	8.11128	-0.000613201	0.0243084	-0.0111813	0.480225	0.181885	-0.948975	-0.00306328	0.212977	-0.116492	-0.970083	-4.40629	2.39413	9.46754	-0.00338357	0.00772717	-0.00124252	0.0249023	-0.344482	-1.07935	-0.24652	0.215769	-0.298485	-0.896425	-5.22598	4.24127	7.15822	-0.0112906	0.00596555	0.0011207	0.265869	-0.631348	-0.827637	0.0572672	0.189089	0.296278	-0.934444	-3.7201	-5.13595	7.33496	0.00185691	0.00295138	-0.00554836	0.18042	0.596924	-0.860107	-0.61937	0.0224859	-0.426649	0.65867	-5.84186	-6.70661	7.56052	-0.00226456	0.0115608	-0.0151776	0.35791	0.928711	-0.398682	0.0988837	-0.169049	0.00762049	-0.980605	3.47334	-0.511947	9.84394	-0.0122291	0.0216277	-0.00272156	-0.657471	0.120361	-0.829834	0.334896	-0.00833388	-0.0498494	-0.940898	0.540535	0.831298	11.0993	-0.00245748	0.0156802	-0.0148255	-0.501709	-0.0498047	-1.05762	0.071037	-0.0419453	-0.245082	-0.965986	2.09318	4.56224	9.26768	0.00687124	0.00773092	-0.0187507	-0.63916	-0.421387	-0.90332	0.0309356	0.896706	-0.0915276	-0.431953	-7.09734	1.42721	-5.93115	0.0034772	0.0101464	-0.00331846	0.971191	-0.168701	0.401367	0.0271124	-0.129192	-0.0753769	-0.988379	2.5739	1.39956	9.37363	-3.96606e-05	0.00812707	0.00291014	-0.626953	0.00195312	-0.9021	
69	0.183056	0.0680078	-0.0184918	-0.980573	-1.3731	0.630321	10.903	-0.00273559	-0.00819225	-0.000908232	-0.227783	0.0808105	-1.14282	0.192502	0.287107	0.12441	-0.930073	-5.84133	-1.22026	8.0423	-0.000135927	0.0185645	-0.0170819	0.47583	0.186279	-0.944336	-0.0031177	0.213173	-0.116462	-0.970043	-4.44797	2.37557	9.4428	0.00362997	0.00857275	0.000412553	0.020752	-0.346436	-1.07471	-0.246434	0.215798	-0.298222	-0.89653	-5.23678	4.19005	7.12138	-0.00851083	0.00597958	0.00321697	0.256836	-0.626953	-0.825439	0.0573142	0.189051	0.296642	-0.934333	-3.76021	-5.13329	7.32725	-0.0318031	0.0072676	-0.0164207	0.18457	0.603516	-0.85791	-0.619406	0.0225355	-0.426641	0.658639	-5.85959	-6.7177	7.58923	0.00106321	0.0117274	-0.0154811	0.366699	0.926514	-0.400879	0.0990274	-0.16935	0.00780016	-0.980537	3.44773	-0.510346	9.90602	-0.000295884	-0.00908183	-0.000847228	-0.657471	0.120361	-0.825439	0.334914	-0.00837213	-0.0498319	-0.940893	0.524654	0.825061	11.1337	0.00183036	0.0155838	-0.0142412	-0.501221	-0.0563965	-1.05029	0.0710303	-0.0419901	-0.245134	-0.965971	2.09133	4.54476	9.27932	0.00984561	0.00495665	-0.020712	-0.644287	-0.414551	-0.901367	0.0307661	0.89682	-0.091439	-0.431747	-7.07601	1.43179	-5.89223	-0.00258624	0.0204367	-0.000906424	0.973389	-0.170898	0.401367	0.0271763	-0.129127	-0.0753726	-0.988386	2.58258	1.39513	9.41258	0.00334821	0.0128991	-0.0036545	-0.624756	0.00219727	-0.9021	
70	0.182995	0.067944	-0.0184595	-0.980589	-1.40309	0.65937	10.9184	-0.00157997	-0.00474152	-0.00221342	-0.228027	0.0830078	-1.14282	0.192501	0.287071	0.124357	-0.930091	-5.85895	-1.22688	8.03397	-0.00227088	0.0101518	-0.0172248	0.480225	0.184082	-0.948975	-0.00309942	0.213151	-0.116478	-0.970046	-4.45351	2.39517	9.47293	0.000669013	0.00432911	0.00198514	0.0227051	-0.342285	-1.06812	-0.246409	0.215783	-0.298135	-0.896569	-5.24169	4.21157	7.15463	-0.00655887	0.00447578	0.0031034	0.26123	-0.626953	-0.829834	0.0571999	0.189164	0.296904	-0.934234	-3.75418	-5.27296	7.30401	-0.0100996	0.0108613	-0.0119933	0.18457	0.601318	-0.855469	-0.619304	0.0223823	-0.426525	0.658816	-5.8683	-6.73058	7.56901	0.0117696	0.0111605	-0.0137027	0.360352	0.924316	-0.398682	0.0991453	-0.169024	0.00768257	-0.980583	3.46449	-0.508518	9.86377	0.0138762	0.0197578	-0.00365543	-0.657715	0.122559	-0.833984	0.334822	-0.00805306	-0.0500336	-0.940918	0.51904	0.79824	11.1147	0.0136105	0.0182477	-0.0119548	-0.503662	-0.052002	-1.05518	0.0707979	-0.0419038	-0.24543	-0.965917	2.09177	4.56614	9.2592	0.0146829	0.00457227	-0.0206562	-0.634766	-0.418945	-0.90332	0.0307707	0.896828	-0.0914252	-0.431734	-7.08559	1.42976	-5.91331	0.00128188	0.013785	-0.000110018	0.973389	-0.168701	0.408203	0.0271681	-0.129045	-0.07541	-0.988394	2.57055	1.40659	9.41006	0.00440494	0.0145245	-0.0053502	-0.62915	-0.00244141	-0.904297	
71	0.182964	0.0679595	-0.0184591	-0.980594	-1.3777	0.647461	10.9153	0.000764629	-0.00325932	-0.00277429	-0.228027	0.0827637	-1.13208	0.192624	0.286911	0.124384	-0.930111	-5.81332	-1.24831	8.06043	-0.00859861	0.00798335	-0.0147491	0.47998	0.188477	-0.946777	-0.00306685	0.213231	-0.116267	-0.970054	-4.45459	2.32705	9.4135	-0.00485453	0.00994317	-0.00135417	0.0290527	-0.342285	-1.07495	-0.246285	0.215955	-0.297657	-0.89672	-5.21689	4.13297	7.13935	-0.00846267	0.00655668	0.00213879	0.263428	-0.626953	-0.821045	0.0570141	0.189284	0.296487	-0.934353	-3.7734	-5.16749	7.31195	0.0183491	0.00877094	-0.00991369	0.18457	0.601562	-0.860107	-0.619417	0.0222833	-0.426327	0.65884	-5.86984	-6.65019	7.57746	0.0116321	0.0120772	-0.0115445	0.360596	0.920166	-0.402832	0.0993309	-0.168876	0.00794839	-0.980587	3.43729	-0.525144	9.92877	0.00398751	0.0129242	-0.00552901	-0.653076	0.118164	-0.827637	0.334848	-0.00805884	-0.0502575	-0.940896	0.533892	0.85727	11.0877	0.00635302	0.0152611	-0.0153907	-0.503662	-0.052002	-1.0481	0.0707979	-0.0419038	-0.24543	-0.965917	2.09177	4.56614	9.2592	0.0146829	0.00457227	-0.0206562	-0.634766	-0.418945	-0.90332	0.0307659	0.896871	-0.0913639	-0.431658	-7.06117	1.42218	-5.94723	0.00381804	0.0144609	-0.000741404	0.971191	-0.168701	0.401367	0.0271701	-0.128766	-0.0753315	-0.988436	2.53662	1.41747	9.3947	-0.00167928	0.0192359	-0.00257153	-0.622559	0.00219727	-0.899658	
72	0.182924	0.068036	-0.018456	-0.980596	-1.39163	0.663267	10.919	0.00130471	-0.00236534	-0.00114689	-0.228027	0.0830078	-1.14062	0.192617	0.286662	0.124356	-0.930193	-5.83893	-1.221	8.00446	-0.00431162	0.000524025	-0.0225017	0.482422	0.184082	-0.948975	-0.00313997	0.213214	-0.116408	-0.970041	-4.45301	2.34494	9.43912	0.00661817	0.00341043	-0.00125457	0.0229492	-0.348877	-1.07251	-0.246321	0.21596	-0.297651	-0.896711	-5.21709	4.15144	7.11463	0.000584325	0.00655304	-0.000635937	0.267822	-0.624756	-0.825439	0.0570337	0.189259	0.296756	-0.934272	-3.76185	-5.22365	7.28948	-0.0138852	0.00782499	-0.0137775	0.187012	0.599121	-0.855469	-0.619507	0.0222445	-0.426247	0.65881	-5.87277	-6.67077	7.56296	0.0055263	0.0146074	-0.0143873	0.360596	0.917969	-0.39624	0.0993792	-0.168701	0.00812284	-0.980611	3.42464	-0.526904	9.81151	0.00928674	0.0284872	-0.0135916	-0.655273	0.118164	-0.831787	0.334842	-0.00822076	-0.0500444	-0.940908	0.520177	0.81477	11.1155	-0.00721841	0.0104328	-0.0137734	-0.494873	-0.0585938	-1.05737	0.07044	-0.0416753	-0.24533	-0.965979	2.10308	4.54167	9.27184	-0.00106994	0.00851285	-0.0181386	-0.636963	-0.418945	-0.90332	0.030627	0.896903	-0.0913662	-0.431601	-7.06432	1.38058	-5.9382	0.007753	0.0129584	-0.000904375	0.973145	-0.164307	0.403564	0.0271738	-0.128565	-0.075252	-0.988468	2.50969	1.39218	9.39797	-0.000204592	0.0162675	-0.00451357	-0.622559	0	-0.906494	
73	0.182929	0.0680525	-0.0184468	-0.980594	-1.40812	0.661628	10.931	-7.07351e-05	-0.00409281	0.00213402	-0.230225	0.0849609	-1.13208	0.192402	0.286482	0.124506	-0.930273	-5.81376	-1.21777	8.02207	-0.00717405	0.00139294	-0.0201985	0.482422	0.184082	-0.948975	-0.0031635	0.213178	-0.116552	-0.970031	-4.4581	2.39378	9.39977	0.00443411	0.0043156	-0.00127018	0.0227051	-0.34668	-1.07031	-0.246363	0.215948	-0.297701	-0.896686	-5.21461	4.17666	7.13119	0.00257905	0.00554196	0.000907832	0.263428	-0.624756	-0.827637	0.0568918	0.18929	0.296916	-0.934223	-3.75136	-5.18642	7.2963	-0.00578005	0.00740777	-0.0133455	0.182617	0.596924	-0.853271	-0.619296	0.0221689	-0.426299	0.658977	-5.85738	-6.66006	7.57861	0.00520179	0.0150966	-0.0173556	0.362305	0.928711	-0.398682	0.0993497	-0.168283	0.0079786	-0.980687	3.41201	-0.521687	9.91192	0.0243059	0.021426	-0.01879	-0.655518	0.124756	-0.825684	0.334922	-0.00823295	-0.049875	-0.940889	0.504948	0.778005	11.0914	0.00329967	0.0201025	-0.0120822	-0.495117	-0.0476074	-1.05054	0.0704662	-0.0417179	-0.245296	-0.965983	2.10145	4.55027	9.26059	0.00377273	0.0068692	-0.0193496	-0.634766	-0.416748	-0.901123	0.0307955	0.896871	-0.091284	-0.431672	-7.05331	1.42018	-5.89875	-0.00819377	0.0096841	0.00201773	0.96875	-0.164307	0.394287	0.0271075	-0.128572	-0.0751817	-0.988475	2.54034	1.39224	9.39184	-0.00424974	0.00560171	-0.00583467	-0.626953	-0.00244141	-0.908691	
74	0.182825	0.0680814	-0.0183584	-0.980614	-1.39333	0.683172	10.939	-0.00152697	-0.00170094	7.68313e-05	-0.234619	0.0849609	-1.13867	0.19239	0.286239	0.124467	-0.930356	-5.78526	-1.23334	8.02219	0.000525605	0.00121186	-0.0181844	0.480225	0.184082	-0.948975	-0.00315712	0.213016	-0.116497	-0.970073	-4.41695	2.37814	9.45797	-0.00767779	0.000341082	0.00188247	0.0249023	-0.34668	-1.07715	-0.246458	0.21589	-0.297946	-0.896593	-5.21063	4.20961	7.15454	0.0118139	0.00767934	-0.000708257	0.265625	-0.624756	-0.829834	0.05687	0.189235	0.296874	-0.934249	-3.76478	-5.19283	7.31907	0.00202134	0.00589983	-0.0151534	0.182861	0.594727	-0.853271	-0.619358	0.0222078	-0.426374	0.658868	-5.84763	-6.67543	7.56906	0.000604713	0.0158573	-0.0119018	0.364746	0.922363	-0.400635	0.09932	-0.168345	0.00777771	-0.980681	3.45107	-0.526958	9.94148	0.0191752	0.0117137	-0.0176154	-0.657715	0.122559	-0.832031	0.335002	-0.00815998	-0.0502143	-0.940843	0.557363	0.804184	11.0703	0.0115123	0.0192875	-0.0111823	-0.499512	-0.0498047	-1.05762	0.0703632	-0.0416578	-0.245281	-0.965997	2.1163	4.52677	9.23834	0.00114544	0.00985	-0.0184716	-0.641602	-0.421387	-0.901123	0.0308445	0.896855	-0.0912861	-0.431702	-7.06339	1.387	-5.92035	-0.00139175	0.0105869	0.00345694	0.971191	-0.168701	0.403564	0.0270621	-0.128639	-0.0751392	-0.98847	2.57333	1.39199	9.38514	-0.000379828	0.00603538	-0.00459182	-0.62915	-0.000244141	-0.906494	
75	0.182826	0.0680592	-0.0182877	-0.980616	-1.39633	0.655518	10.9277	-0.00311468	-0.00737409	-0.000328668	-0.230225	0.0849609	-1.13647	0.192423	0.286387	0.124645	-0.930279	-5.78868	-1.25284	8.09778	-0.0164413	0.0276808	-0.0180896	0.478027	0.184082	-0.951416	-0.00319105	0.213063	-0.11639	-0.970076	-4.39365	2.38472	9.46144	-0.00373362	0.0100317	-0.00348072	0.0249023	-0.344482	-1.07031	-0.246467	0.215936	-0.29783	-0.896617	-5.20336	4.21956	7.13289	-0.00837022	0.00762879	0.00270996	0.263184	-0.622559	-0.827881	0.0566899	0.189288	0.296945	-0.934227	-3.74435	-5.18857	7.30952	-0.00197571	0.00832644	-0.0137391	0.182617	0.596924	-0.853271	-0.619212	0.0221631	-0.426499	0.658927	-5.86666	-6.7029	7.56994	0.000625608	0.0149321	-0.0135453	0.360352	0.922363	-0.398682	0.0992745	-0.16818	0.00784809	-0.980713	3.44965	-0.506347	9.93577	0.0130983	0.0115704	-0.0147706	-0.655273	0.115967	-0.831787	0.334999	-0.00827666	-0.0499947	-0.940855	0.545887	0.828253	11.1419	-0.0102567	0.0151962	-0.0153267	-0.49707	-0.052002	-1.05273	0.0703632	-0.0416578	-0.245281	-0.965997	2.1163	4.52677	9.23834	0.00114544	0.00985	-0.0184716	-0.641602	-0.421387	-0.901123	0.0308298	0.89694	-0.0912422	-0.431536	-7.07778	1.39796	-5.92034	0.00514314	0.0132981	7.89379e-05	0.966553	-0.166504	0.403564	0.0270843	-0.128618	-0.075059	-0.988479	2.58004	1.38559	9.40218	-0.0047541	0.0103802	-0.000824273	-0.624756	0.00219727	-0.904297	
76	0.182826	0.0680889	-0.0181975	-0.980616	-1.40219	0.656852	10.908	-0.00398617	-0.00197801	0.00333915	-0.232422	0.0827637	-1.13867	0.192445	0.286601	0.124895	-0.930175	-5.8614	-1.26359	8.01447	-0.0122435	0.0234368	-0.0186334	0.477783	0.19043	-0.947021	-0.00314583	0.213074	-0.11639	-0.970074	-4.46671	2.31798	9.43872	0.000665952	0.00432952	0.00198397	0.0270996	-0.34668	-1.07251	-0.246422	0.215972	-0.297793	-0.896634	-5.23415	4.14918	7.14626	0.00210034	0.00802089	0.00154965	0.26123	-0.624756	-0.829834	0.0567093	0.189285	0.297111	-0.934174	-3.75912	-5.22123	7.30868	-0.0148272	0.00860947	-0.0152769	0.180664	0.594727	-0.85791	-0.619212	0.0221631	-0.426499	0.658927	-5.86666	-6.7029	7.56994	0.000625608	0.0149321	-0.0135453	0.360352	0.922363	-0.398682	0.0992703	-0.168199	0.00779453	-0.980711	3.46016	-0.542112	9.89162	0.0181455	0.0120669	-0.0152169	-0.655518	0.122559	-0.823486	0.334904	-0.00803866	-0.0498533	-0.940898	0.505411	0.813005	11.1163	-0.000259707	0.0195433	-0.0125259	-0.505859	-0.0541992	-1.05273	0.0700073	-0.0413108	-0.245375	-0.966014	2.09719	4.55099	9.27162	0.00459027	0.00973377	-0.0191447	-0.639404	-0.416748	-0.898926	0.030894	0.896944	-0.0911984	-0.431531	-7.06212	1.40398	-5.92822	-0.00377618	0.0150109	0.00150177	0.975586	-0.168457	0.398926	0.0270895	-0.128443	-0.075015	-0.988505	2.54861	1.38365	9.40491	0.00261709	0.00855939	-0.00455901	-0.629395	0.00195312	-0.911133	
77	0.182988	0.0680807	-0.0181249	-0.980588	-1.42504	0.618374	10.9128	-0.00171271	-0.0037792	0.0057195	-0.230225	0.0849609	-1.13208	0.192395	0.286626	0.124853	-0.930184	-5.8245	-1.25832	8.04941	-0.00316996	0.0126247	-0.0189484	0.478027	0.184082	-0.944336	-0.00315114	0.213143	-0.11642	-0.970055	-4.44913	2.35351	9.41219	0.00296889	0.00881795	-0.00118433	0.0249023	-0.34668	-1.07031	-0.246578	0.21596	-0.297902	-0.896557	-5.23344	4.18019	7.13529	0.00967707	0.00708308	-0.00311477	0.263184	-0.620361	-0.827881	0.0564561	0.189354	0.297024	-0.934203	-3.76239	-5.20285	7.31318	0.00303848	0.0109774	-0.016596	0.18457	0.601318	-0.85083	-0.618686	0.0219671	-0.426756	0.65926	-5.87429	-6.68307	7.56478	0.00263134	0.0144418	-0.0137143	0.358398	0.920166	-0.398438	0.0989812	-0.167863	0.00753384	-0.9808	3.40968	-0.527441	9.96166	0.0184354	0.00701569	-0.0200282	-0.653076	0.115967	-0.831787	0.334942	-0.00803155	-0.0501022	-0.940871	0.528762	0.779328	11.0402	0.0229589	0.01258	-0.0114226	-0.499512	-0.0498047	-1.05518	0.0699063	-0.0412439	-0.245287	-0.966047	2.09548	4.53973	9.25781	0.000132967	0.00973782	-0.016821	-0.641602	-0.421387	-0.896729	0.0309611	0.896939	-0.0911811	-0.431542	-7.0738	1.38731	-5.9362	-0.00065857	0.0117516	0.00175792	0.973145	-0.166504	0.394287	0.0270768	-0.128496	-0.0749756	-0.988501	2.50924	1.38018	9.40004	-0.000559557	0.0045255	-0.00303942	-0.626953	-0.00244141	-0.901855	
78	0.183009	0.0681007	-0.0181608	-0.980581	-1.38429	0.616497	10.9014	0.00335812	-0.00325299	0.00239866	-0.230225	0.0849609	-1.13208	0.192411	0.286632	0.124874	-0.930175	-5.79902	-1.24528	8.04566	-0.00802775	0.014577	-0.0169575	0.482422	0.184082	-0.951416	-0.00325897	0.213054	-0.116745	-0.970035	-4.44	2.36904	9.45737	0.0118413	-0.000160854	0.000548858	0.0292969	-0.348877	-1.07251	-0.246708	0.215931	-0.298252	-0.896412	-5.21972	4.15794	7.14489	0.0189078	0.00934149	0.000210642	0.258301	-0.61377	-0.823486	0.0564744	0.189343	0.296989	-0.934215	-3.77254	-5.23248	7.28838	0.0022031	0.00626397	-0.0131696	0.180664	0.594727	-0.848633	-0.618703	0.0219866	-0.426758	0.659242	-5.89038	-6.67494	7.57372	0.0021952	0.0146257	-0.0166262	0.355957	0.924316	-0.394287	0.0988884	-0.167991	0.00747444	-0.980788	3.43573	-0.520775	9.91723	0.0165423	0.00327368	-0.0224468	-0.65332	0.120361	-0.831787	0.334762	-0.00775664	-0.0499676	-0.940945	0.519015	0.802344	11.1062	0.000512979	0.0207477	-0.0162593	-0.501465	-0.052002	-1.05518	0.0699247	-0.0412898	-0.245237	-0.966056	2.08737	4.5323	9.26015	0.00156615	0.00602696	-0.0185537	-0.63501	-0.414551	-0.896729	0.0309653	0.896911	-0.0912202	-0.431591	-7.0803	1.39711	-5.94951	0.00270972	0.00864803	0.004252	0.970947	-0.168701	0.394531	0.0269907	-0.128631	-0.0750373	-0.988481	2.51709	1.35964	9.42199	0.00522962	0.00178753	-0.00668815	-0.62915	-0.000244141	-0.908936	
79	0.182975	0.0681308	-0.0182895	-0.980583	-1.39389	0.65255	10.9207	0.00674018	-0.00452222	-0.00143321	-0.22998	0.0808105	-1.13843	0.192365	0.286583	0.124852	-0.930203	-5.83253	-1.22811	8.03597	-0.00297385	0.00822033	-0.0206726	0.478027	0.188477	-0.946777	-0.00323467	0.213022	-0.11685	-0.970029	-4.45269	2.41923	9.47505	0.00736596	0.00311736	0.00428092	0.0227051	-0.348633	-1.07715	-0.246735	0.215897	-0.298362	-0.896376	-5.21823	4.18227	7.13957	0.0116995	0.00652509	0.00145783	0.265381	-0.620361	-0.825684	0.0565244	0.189301	0.296936	-0.934237	-3.77853	-5.17132	7.3426	-0.00434391	0.0057853	-0.0128827	0.178223	0.601318	-0.855469	-0.618481	0.0219262	-0.426899	0.659362	-5.88934	-6.69259	7.57048	0.00181121	0.0169507	-0.0163137	0.360352	0.924316	-0.398682	0.0986769	-0.167537	0.00711404	-0.980889	3.44177	-0.512387	9.90377	0.0216699	0.0241252	-0.0185229	-0.657471	0.118164	-0.833984	0.334843	-0.00785931	-0.0497732	-0.940926	0.550785	0.811124	11.103	-0.00185214	0.0181461	-0.0103901	-0.501709	-0.0476074	-1.05981	0.069975	-0.0413387	-0.245217	-0.966056	2.09903	4.54964	9.2643	0.00690977	0.00775007	-0.0198381	-0.639404	-0.416748	-0.901123	0.0310183	0.896857	-0.0912995	-0.431683	-7.0895	1.42005	-5.92617	-0.00211739	0.00681923	0.00482937	0.975586	-0.170654	0.403564	0.026944	-0.128744	-0.0751528	-0.988459	2.53101	1.38952	9.41265	0.00987681	-0.00155491	-0.00744019	-0.626953	0.00195312	-0.904297	
80	0.182893	0.0681747	-0.0184001	-0.980594	-1.39527	0.685323	10.9362	0.00450807	-0.00397158	-0.000335173	-0.223877	0.0874023	-1.13647	0.192456	0.28657	0.124947	-0.930176	-5.81086	-1.25277	8.02949	-0.0105479	0.0106897	-0.0163595	0.482422	0.184082	-0.948975	-0.00308526	0.213044	-0.11689	-0.97002	-4.40731	2.35786	9.44748	0.00162972	0.00890728	0.00569981	0.0249023	-0.34668	-1.07471	-0.246795	0.215912	-0.298652	-0.896259	-5.20097	4.20989	7.11533	0.0063216	0.00859884	-0.000220028	0.263428	-0.626953	-0.829834	0.0566056	0.189311	0.29701	-0.934207	-3.72808	-5.18104	7.29364	-0.00202603	0.00883216	-0.0119189	0.180664	0.594727	-0.848633	-0.618545	0.0219644	-0.426861	0.659324	-5.83353	-6.68628	7.56229	0.00214888	0.0123118	-0.0148665	0.362549	0.922363	-0.394287	0.098582	-0.167409	0.00701857	-0.980921	3.4087	-0.505281	9.92635	0.0215156	0.0238834	-0.023606	-0.655273	0.118164	-0.823242	0.33492	-0.00785447	-0.0499772	-0.940887	0.520604	0.788034	11.1107	0.0161592	0.0140716	-0.0120957	-0.499268	-0.0541992	-1.05273	0.0700232	-0.0413941	-0.245249	-0.966041	2.10405	4.55894	9.26022	0.00677331	0.00613937	-0.0182958	-0.637207	-0.416748	-0.898926	0.0312591	0.896809	-0.0912876	-0.431768	-7.0768	1.43069	-5.88952	-0.0013911	0.0125422	0.00088456	0.971191	-0.170898	0.4104	0.0269611	-0.128969	-0.0752123	-0.988425	2.5777	1.3876	9.38494	-0.00121659	0.00566815	-0.00217057	-0.629395	0.00195312	-0.899658	
81	0.182931	0.0681774	-0.0184578	-0.980585	-1.38598	0.698263	10.9163	0.00209976	-0.00537674	0.00379001	-0.232422	0.0849609	-1.14062	0.192468	0.286566	0.124974	-0.930171	-5.80841	-1.26224	8.05039	-0.00868708	0.0136087	-0.0176646	0.480225	0.186279	-0.946777	-0.00307557	0.213068	-0.117039	-0.969997	-4.44773	2.372	9.47669	0.0114427	0.00792076	0.00315323	0.020752	-0.34668	-1.07251	-0.246848	0.21591	-0.298726	-0.896221	-5.22202	4.20288	7.13376	0.0083281	0.00767112	-0.00140866	0.263184	-0.622559	-0.825684	0.0565974	0.189285	0.296843	-0.934266	-3.76638	-5.19503	7.31019	0.00610556	0.00805508	-0.0137097	0.189209	0.599121	-0.855469	-0.61869	0.0220382	-0.426932	0.659141	-5.85723	-6.72238	7.56639	-0.0032598	0.0142164	-0.00886756	0.358154	0.924316	-0.400879	0.0982862	-0.167089	0.00663633	-0.981008	3.44705	-0.488531	9.91286	0.021345	0.0264105	-0.0201444	-0.655273	0.115967	-0.833984	0.334928	-0.00781406	-0.0499554	-0.940886	0.535367	0.83224	11.0739	0.00269955	0.0177868	-0.0163488	-0.494873	-0.0541992	-1.05054	0.0700541	-0.0414214	-0.245215	-0.966047	2.12811	4.53774	9.26661	0.00474241	0.00846252	-0.0195427	-0.639404	-0.418945	-0.90332	0.0312793	0.896805	-0.091329	-0.431766	-7.07078	1.41444	-5.9083	0.00214088	0.0115951	0.00466852	0.96875	-0.168701	0.396729	0.0269647	-0.128994	-0.0752376	-0.988419	2.58053	1.38507	9.39351	0.00348607	0.00647508	-0.00334768	-0.62915	-0.000244141	-0.9021	
82	0.183011	0.0682782	-0.0184398	-0.980564	-1.39763	0.65218	10.9052	0.000159863	0.00333452	0.00382247	-0.230225	0.0849609	-1.13428	0.192473	0.286679	0.124984	-0.930133	-5.82904	-1.24892	8.00635	-0.0117174	0.0161274	-0.0175588	0.478027	0.184082	-0.946777	-0.00309655	0.213088	-0.117099	-0.969985	-4.43851	2.4393	9.43674	-0.00705016	0.00398932	-0.00196735	0.0249023	-0.348877	-1.07251	-0.246952	0.215946	-0.298879	-0.896133	-5.21695	4.20953	7.10209	0.00919099	0.00955935	-0.00247498	0.263428	-0.624756	-0.821045	0.056623	0.189284	0.296896	-0.934247	-3.727	-5.17911	7.33523	-0.00558361	0.00739759	-0.0135912	0.182617	0.596924	-0.85083	-0.61876	0.0220467	-0.426933	0.659074	-5.86129	-6.69489	7.56451	0.00108051	0.0132365	-0.0107507	0.356201	0.920166	-0.398438	0.0982092	-0.166966	0.00652794	-0.981038	3.4375	-0.484741	9.95754	0.0227052	0.0233762	-0.0222938	-0.655273	0.118164	-0.833984	0.334984	-0.00781991	-0.049909	-0.940869	0.518581	0.812428	11.0934	0.00319923	0.0183215	-0.0139872	-0.49707	-0.0563965	-1.05054	0.0700823	-0.0414302	-0.245208	-0.966046	2.10709	4.55504	9.24791	0.00528626	0.00879544	-0.018606	-0.639404	-0.419189	-0.896729	0.0313359	0.896799	-0.0913543	-0.431768	-7.09675	1.41567	-5.92363	-0.00121477	0.0127339	0.00475692	0.971191	-0.168701	0.401367	0.0269296	-0.129048	-0.075257	-0.988412	2.53918	1.41484	9.37795	0.000316966	0.0046405	-0.0031822	-0.631348	-0.00244141	-0.901855	
83	0.182945	0.0683181	-0.0183673	-0.980575	-1.39576	0.660545	10.9251	-0.00261006	-0.00348925	-0.00317524	-0.226074	0.0874023	-1.13867	0.19243	0.286821	0.125336	-0.930051	-5.81227	-1.2071	7.98166	-0.0148534	0.0218787	-0.0208806	0.480225	0.186035	-0.951416	-0.00301268	0.213061	-0.117141	-0.969987	-4.45049	2.35335	9.41334	-0.000505607	0.00679334	0.00360392	0.0185547	-0.35083	-1.07471	-0.247056	0.215892	-0.299043	-0.896062	-5.2488	4.20558	7.11932	0.0109418	0.00583081	-0.000998577	0.267822	-0.624756	-0.825439	0.0564263	0.189306	0.296987	-0.934226	-3.78983	-5.19435	7.27539	0.00952747	0.008423	-0.0184569	0.182617	0.596924	-0.855469	-0.618607	0.0220148	-0.427084	0.659121	-5.8876	-6.63451	7.57208	-0.000855191	0.013923	-0.0133802	0.360352	0.922363	-0.398682	0.0978358	-0.166938	0.00611745	-0.981082	3.40936	-0.484799	9.89843	0.0151684	0.0229872	-0.0250498	-0.655273	0.115967	-0.833984	0.335029	-0.00778378	-0.0499662	-0.94085	0.490946	0.793272	11.078	0.00786265	0.0217695	-0.0169606	-0.495117	-0.052002	-1.05518	0.0696808	-0.0411178	-0.245257	-0.966076	2.0908	4.5617	9.25932	0.00313237	0.00832565	-0.019492	-0.636963	-0.418945	-0.901123	0.0315437	0.896925	-0.0913319	-0.431496	-7.05043	1.43237	-5.92067	-0.00375716	0.0126195	0.00214758	0.973145	-0.164307	0.403564	0.0269008	-0.129217	-0.0753204	-0.988386	2.55725	1.42085	9.36933	0.00461318	0.00047455	-0.00218004	-0.622314	-0.00219727	-0.906494	
84	0.18311	0.068452	-0.0183421	-0.980535	-1.43047	0.64164	10.9411	0.00088424	0.00108966	0.0157469	-0.227783	0.0808105	-1.13428	0.192464	0.286803	0.125233	-0.930064	-5.81471	-1.27562	8.09993	-0.00238862	0.0108598	-0.0163975	0.480225	0.186279	-0.949219	-0.00296372	0.21302	-0.116965	-0.970017	-4.42901	2.39936	9.43907	-0.0111725	0.0067827	0.00161458	0.0249023	-0.34668	-1.07471	-0.247322	0.215869	-0.299282	-0.895914	-5.25838	4.22891	7.1264	0.0138539	0.00715847	-0.00652997	0.268066	-0.62915	-0.825439	0.0562734	0.189304	0.296615	-0.934354	-3.73074	-5.17419	7.34205	0.0110267	0.00812663	-0.0163488	0.182861	0.594727	-0.85083	-0.618483	0.0220873	-0.42734	0.659068	-5.85113	-6.68707	7.5651	-0.00762773	0.0145973	-0.0119077	0.362549	0.922363	-0.396484	0.0976933	-0.1671	0.00616606	-0.981069	3.44699	-0.484318	9.93779	0.00791599	0.0042687	-0.0217161	-0.655518	0.120361	-0.833984	0.335082	-0.00783863	-0.0499572	-0.940831	0.568406	0.821549	11.1043	-0.000918549	0.0173015	-0.0124898	-0.497314	-0.0498047	-1.05298	0.0695144	-0.0409457	-0.24518	-0.966115	2.10851	4.54734	9.2514	-0.000254809	0.00973673	-0.0185944	-0.639404	-0.416748	-0.894531	0.0315193	0.896978	-0.0912673	-0.431401	-7.07449	1.42222	-5.91889	0.00151694	0.010403	-0.00173876	0.970947	-0.164307	0.398926	0.0270583	-0.129296	-0.0753011	-0.988372	2.58497	1.40839	9.39568	0.000455121	0.00607474	0.0023104	-0.62915	-0.00244141	-0.904297	
