40	Head	00b4120a												Throax	00b411e8												LUpArm	00b411d9												LFoArm	00b41148												RUpArm	00b411db												RFoArm	00b41204												Waist	00b411f7												Lthigh	00b411f4												Lshank	00b4111b												Rthigh	00b411c8												Rshank	00b411ee												
PacketCount	q0	q1	q2	q3	accX	accY	accZ	gyrX	gyrY	gyrZ	magX	magY	magZ	q0	q1	q2	q3	accX	accY	accZ	gyrX	gyrY	gyrZ	magX	magY	magZ	q0	q1	q2	q3	accX	accY	accZ	gyrX	gyrY	gyrZ	magX	magY	magZ	q0	q1	q2	q3	accX	accY	accZ	gyrX	gyrY	gyrZ	magX	magY	magZ	q0	q1	q2	q3	accX	accY	accZ	gyrX	gyrY	gyrZ	magX	magY	magZ	q0	q1	q2	q3	accX	accY	accZ	gyrX	gyrY	gyrZ	magX	magY	magZ	q0	q1	q2	q3	accX	accY	accZ	gyrX	gyrY	gyrZ	magX	magY	magZ	q0	q1	q2	q3	accX	accY	accZ	gyrX	gyrY	gyrZ	magX	magY	magZ	q0	q1	q2	q3	accX	accY	accZ	gyrX	gyrY	gyrZ	magX	magY	magZ	q0	q1	q2	q3	accX	accY	accZ	gyrX	gyrY	gyrZ	magX	magY	magZ	q0	q1	q2	q3	accX	accY	accZ	gyrX	gyrY	gyrZ	magX	magY	magZ	
0	0.160668	0.151436	-0.975317	0.00320562	2.56954	0.451419	-8.13335	0.00956442	0.0023137	-0.0051818	-0.417725	-0.362061	1.17773	0.218457	0.107621	-0.968977	0.042164	4.19953	-0.30008	-8.64969	-0.0132662	0.0239719	-0.0171538	-0.588623	-0.128418	0.880371	0.989874	-0.00506926	-0.139434	0.0261037	3.34849	-0.0465889	10.4223	-0.0319068	0.0186178	-0.0172246	-0.241943	-0.104736	-1.21753	0.912276	0.406567	-0.000331363	0.0495498	0.398558	7.4153	6.52707	-0.0120374	0.0192875	0.00661027	0.501465	-1.00195	-0.889404	0.93401	0.191471	-0.150606	0.261309	3.71032	2.67778	8.72462	-0.133014	-0.0210408	0.0169485	-0.11377	-0.575195	-0.993896	-0.90555	0.419174	0.0443414	-0.0480302	0.816771	-8.85077	7.59761	0.00808095	-0.00508863	-0.0104701	0.209229	0.88208	-0.922607	-0.432814	0.0755834	-0.898251	-0.0101986	-7.66502	-0.0454634	-5.48462	0.0336587	0.0652126	-0.0190677	0.581299	0.000244141	0.956299	0.849597	0.107642	-0.455791	0.242596	8.83183	-0.796821	5.73336	-0.00157175	0.0284023	-0.00460363	-0.714844	0.101562	-0.783691	0.106858	-0.0951423	0.986548	-0.0790725	-2.13789	-1.11505	-8.83861	0.0139726	0.00812493	-0.021734	-0.187256	0.0942383	1.07202	0.892871	0.0661585	-0.442488	0.0510851	8.25903	0.837875	6.10309	-0.014931	0.0385282	-0.00205035	-0.626465	-0.139648	-0.934082	-0.0727144	-0.0683642	-0.994473	0.0326025	-1.48011	0.113465	-9.63164	0.00307745	0.00604304	-0.00329652	-0.296631	0.125732	1.14185	
1	0.160763	0.151555	-0.975282	0.00323996	2.6046	0.465452	-8.15974	0.00464919	0.00774907	-0.00888704	-0.41333	-0.359863	1.18188	0.219134	0.107306	-0.96887	0.0419195	4.15184	-0.306391	-8.50933	-0.0439303	0.0501278	-0.0185719	-0.590576	-0.130615	0.885254	0.989909	-0.00438335	-0.139276	0.0257611	3.23312	-0.411358	10.064	0.0511982	0.0180077	-0.0371472	-0.241699	-0.115479	-1.21484	0.912276	0.406567	-0.000331363	0.0495498	0.398558	7.4153	6.52707	-0.0120374	0.0192875	0.00661027	0.501465	-1.00195	-0.889404	0.934004	0.190916	-0.150899	0.261565	3.84946	2.42814	8.86223	-0.0493465	-0.000618461	0.00769589	-0.113525	-0.581787	-0.987061	-0.905446	0.419404	0.0442973	-0.048011	0.763241	-9.14418	7.38586	0.0149662	0.0191594	-0.0151823	0.211426	0.88208	-0.920654	-0.432814	0.0755834	-0.898251	-0.0101986	-7.66502	-0.0454634	-5.48462	0.0336587	0.0652126	-0.0190677	0.581299	0.000244141	0.956299	0.849653	0.107368	-0.455645	0.242796	8.83686	-0.83233	5.70983	-0.00276039	0.0369399	0.00290476	-0.710205	0.0993652	-0.776855	0.107009	-0.0951616	0.986536	-0.0789906	-2.11299	-1.11332	-8.82238	-0.000799132	-0.00631568	-0.0220074	-0.184814	0.092041	1.06982	0.892871	0.0661585	-0.442488	0.0510851	8.25903	0.837875	6.10309	-0.014931	0.0385282	-0.00205035	-0.626465	-0.139648	-0.934082	-0.0727144	-0.0683642	-0.994473	0.0326025	-1.48011	0.113465	-9.63164	0.00307745	0.00604304	-0.00329652	-0.296631	0.125732	1.14185	
2	0.161563	0.151941	-0.975092	0.0026563	2.55789	0.418231	-8.27056	-0.0443624	0.0534311	-0.016082	-0.415527	-0.362061	1.18188	0.219028	0.107211	-0.968939	0.0411112	4.31168	-0.13474	-8.62417	-0.0546588	0.0290375	-0.0283332	-0.586426	-0.126221	0.88501	0.989991	-0.0013798	-0.138868	0.0251242	3.13038	-0.322081	10.2677	0.108538	0.028305	-0.0704937	-0.243896	-0.117676	-1.21704	0.913693	0.40332	-0.000160175	0.0499781	0.317041	7.17088	6.66702	-0.0471712	0.0179676	0.0177612	0.496826	-0.997559	-0.891602	0.934193	0.187677	-0.151849	0.262684	3.76427	2.57713	8.73092	-0.129788	-0.00208842	0.048006	-0.116455	-0.564209	-0.996338	-0.905928	0.418363	0.0443108	-0.0480026	0.721595	-8.98467	7.53978	0.0529105	0.00959127	-0.018717	0.209229	0.88208	-0.918457	-0.430734	0.0756914	-0.899244	-0.00991435	-7.4444	-0.0677126	-5.43371	0.0146114	0.0477088	-0.0171259	0.577393	-0.00830078	0.956543	0.850033	0.106594	-0.454884	0.243231	8.86766	-0.778787	5.63095	-0.0199079	0.0386902	0.0019066	-0.712646	0.10376	-0.781494	0.10675	-0.0955755	0.986508	-0.0791925	-2.13502	-1.11663	-8.83038	0.00515499	0.00861157	-0.0193706	-0.189453	0.0895996	1.06982	0.893613	0.0659043	-0.441035	0.0509988	8.2404	0.798347	6.06226	0.00696546	0.060694	-0.00769334	-0.624023	-0.141846	-0.940918	-0.0727617	-0.0683711	-0.994462	0.0328089	-1.48453	0.113079	-9.60963	0.00965352	0.00104288	-0.00476753	-0.298828	0.125732	1.13721	
3	0.163009	0.152118	-0.974827	0.00119972	2.592	0.531475	-8.06231	-0.0527703	0.0481023	-0.0176642	-0.417725	-0.362061	1.17554	0.219263	0.106592	-0.968943	0.0413649	4.29295	-0.305063	-9.0045	0.0261257	0.0294459	0.00539379	-0.588623	-0.126221	0.882812	0.990074	0.00029706	-0.138465	0.0241048	3.41141	0.227719	10.5354	-0.00813928	0.0274341	-0.0176664	-0.241699	-0.124268	-1.2124	0.914189	0.402198	-0.00025076	0.0499469	0.428099	7.13417	6.64586	-0.0321849	0.00247274	-0.010401	0.500977	-0.990967	-0.891602	0.934723	0.182771	-0.153656	0.263206	3.75782	2.43243	8.78122	-0.214191	0.000133087	0.00852287	-0.112305	-0.559814	-0.998535	-0.905709	0.418802	0.0443548	-0.0482607	0.804591	-8.91207	7.54221	-0.0420464	0.0140553	0.00410391	0.209229	0.88208	-0.918457	-0.430171	0.0753832	-0.899542	-0.00975612	-7.5698	-0.11257	-5.48674	0.0310477	0.0652535	-0.00903341	0.577148	-0.00415039	0.960693	0.850313	0.106102	-0.454093	0.243948	8.78396	-0.86983	5.83935	0.010677	0.0601263	0.00362183	-0.710205	0.097168	-0.779053	0.106628	-0.0956316	0.986492	-0.0794933	-2.13106	-1.12236	-8.82702	0.0191586	0.0102663	-0.0262301	-0.187012	0.0852051	1.06982	0.894229	0.065947	-0.439787	0.0509116	8.13669	0.849272	6.26165	-0.00780975	0.0678138	-0.00169394	-0.619629	-0.144043	-0.940674	-0.0728789	-0.0684633	-0.994447	0.0328128	-1.47342	0.119961	-9.61289	0.00226366	-0.00217324	0.000511829	-0.30127	0.125732	1.13501	
4	0.165282	0.152305	-0.974414	0.0013855	2.64113	0.511195	-8.11048	0.0107544	0.10522	-0.003148	-0.424072	-0.366455	1.17554	0.220219	0.106628	-0.968687	0.0421745	4.19134	-0.150876	-8.61483	0.00373042	0.0412401	-0.0255419	-0.59082	-0.128418	0.885254	0.990153	-0.00447017	-0.1379	0.0236929	3.34654	-0.0921765	10.3775	-0.219741	0.0315573	0.0243922	-0.239746	-0.113281	-1.21484	0.914111	0.402475	0.000337409	0.049144	0.409434	7.18468	6.64314	0.0209083	0.0181578	-0.0464371	0.503418	-0.995361	-0.898193	0.934731	0.182985	-0.153144	0.263327	3.74916	2.29215	8.78286	0.0772937	0.0299436	-0.0348279	-0.118896	-0.557617	-0.998535	-0.905808	0.418556	0.0440252	-0.0488369	0.765001	-9.0651	7.42449	0.0473494	0.0165784	0.0135546	0.21582	0.88208	-0.924805	-0.429976	0.0754877	-0.899629	-0.00946168	-7.65728	-0.0767914	-5.46792	0.0382123	0.0254377	-0.0268464	0.574707	0.000244141	0.952148	0.850753	0.105207	-0.453415	0.244063	8.84549	-0.839966	5.82897	-0.0176462	0.0538819	-0.0088659	-0.710693	0.108154	-0.788574	0.106628	-0.0956316	0.986492	-0.0794933	-2.13106	-1.12236	-8.82702	0.0191586	0.0102663	-0.0262301	-0.187012	0.0852051	1.06982	0.894773	0.0661006	-0.438628	0.0511656	8.2193	0.726882	6.17701	0.0188465	0.0597967	0.00972731	-0.619629	-0.141846	-0.940918	-0.0730833	-0.0685206	-0.994427	0.0328445	-1.49741	0.110741	-9.61409	0.00218655	0.00195817	-0.00315553	-0.296875	0.130127	1.14404	
5	0.167107	0.151934	-0.974158	0.00273076	2.70939	0.501714	-8.10645	0.0500929	0.0646704	0.0309675	-0.433105	-0.364502	1.17114	0.220534	0.106365	-0.968626	0.0425919	4.36776	-0.234423	-8.53328	-0.00149616	0.0272468	-0.00552174	-0.59082	-0.128418	0.882812	0.990149	-0.00559831	-0.137779	0.0242825	3.16895	-0.475509	10.09	0.0631648	-0.00719919	0.027415	-0.235352	-0.109131	-1.21509	0.913882	0.403045	0.00108257	0.0487192	0.332567	7.2131	6.63066	0.0268749	0.0235395	-0.0184269	0.503418	-0.995361	-0.895996	0.933949	0.187681	-0.150963	0.264057	3.62949	2.62693	8.71343	0.196024	0.0418204	-0.0300093	-0.116211	-0.568604	-0.996338	-0.906464	0.417134	0.0436906	-0.0491362	0.776045	-8.91053	7.57566	0.0664246	0.0205768	-0.00812659	0.213867	0.877686	-0.924805	-0.429891	0.0753302	-0.899679	-0.00981626	-7.52706	-0.0477341	-5.41228	-0.0104075	-0.0044562	-0.0130622	0.576904	0.000244141	0.956299	0.85096	0.104374	-0.45331	0.243892	8.77325	-0.879852	5.83147	-0.0236388	0.0259842	-0.014191	-0.703857	0.101562	-0.783936	0.10598	-0.0961346	0.986444	-0.0803378	-2.10583	-1.14492	-8.80643	0.0202293	0.0272344	-0.0246554	-0.187256	0.0942383	1.06738	0.895011	0.0663667	-0.438048	0.051624	8.11971	0.813375	6.23106	0.0182524	0.0349166	0.00652943	-0.61499	-0.143799	-0.940674	-0.072799	-0.0685568	-0.994447	0.0327901	-1.47118	0.115876	-9.62715	0.000704916	0.020505	-0.0034738	-0.296631	0.125732	1.13721	
6	0.167666	0.151569	-0.974114	0.00401883	2.74114	0.473109	-8.04237	0.0439927	0.0194982	0.0192501	-0.433105	-0.362305	1.17114	0.22033	0.106478	-0.968662	0.0425509	4.273	-0.292724	-8.47843	-0.0112765	0.00661623	-0.0382502	-0.59082	-0.128418	0.887451	0.990112	-0.00537547	-0.137881	0.0252774	3.26441	-0.0162732	10.4916	-0.0679677	0.0164044	0.0263692	-0.237549	-0.111328	-1.21045	0.913615	0.403682	0.00158131	0.048435	0.35941	7.25796	6.6265	0.0379158	0.0194945	-0.0140042	0.505859	-0.999756	-0.889404	0.93347	0.191036	-0.149538	0.264156	3.62445	2.67653	8.78635	0.115377	0.0193815	-0.0470782	-0.111572	-0.577393	-0.993896	-0.906811	0.416364	0.0436081	-0.0493242	0.733438	-9.02397	7.5641	0.0313711	0.00615564	-0.0116042	0.213623	0.88208	-0.922852	-0.429921	0.0749366	-0.899702	-0.00942839	-7.55418	-0.0794014	-5.75844	0.0528788	0.0148008	-0.0129587	0.579102	-0.00195312	0.960693	0.851065	0.103809	-0.453286	0.243813	8.74407	-0.940703	5.91093	-0.0113234	0.0275144	-0.0127651	-0.708496	0.108154	-0.788574	0.105925	-0.09609	0.98646	-0.0802685	-2.09718	-1.14078	-8.85625	-0.000846378	0.0109308	-0.0180289	-0.189453	0.0917969	1.07422	0.895076	0.0665581	-0.437875	0.0517135	8.10968	0.81918	6.2827	0.0073942	0.0206502	0.00564235	-0.61499	-0.148193	-0.945312	-0.0727081	-0.0685271	-0.994454	0.0328516	-1.46581	0.113858	-9.61025	0.00397462	0.00682878	-0.00396049	-0.299072	0.130127	1.14624	
7	0.167505	0.151544	-0.974144	0.00438045	2.73185	0.430995	-8.12299	0.031398	-0.00915293	0.00769914	-0.431152	-0.35791	1.17114	0.220022	0.106411	-0.968732	0.0427312	4.41993	-0.232213	-8.74911	0.0104612	-0.0110929	-0.0137916	-0.593018	-0.124023	0.88501	0.990073	-0.00673985	-0.137976	0.0259368	3.1812	-0.387458	10.3298	-0.00997936	-0.00105967	0.0230372	-0.235596	-0.106934	-1.21509	0.913642	0.403649	0.00167256	0.0482024	0.287589	7.23648	6.62592	-0.0103704	-0.00408121	-0.00496109	0.503418	-0.999756	-0.895996	0.933346	0.192533	-0.148875	0.263879	3.70002	2.60816	8.79107	0.119181	0.0174588	-0.0691613	-0.115723	-0.581787	-0.989258	-0.907169	0.415594	0.0436201	-0.0492205	0.727905	-8.96032	7.55603	0.069243	0.0151065	-0.0256617	0.213867	0.875732	-0.92041	-0.430421	0.0750512	-0.899448	-0.0098598	-7.57965	-0.0533958	-5.50754	-0.0102949	-0.0166175	-0.0116849	0.579346	-0.00415039	0.956299	0.851072	0.103689	-0.453336	0.243744	8.82145	-0.892654	5.85198	-0.00536312	0.0165983	-0.0185293	-0.706299	0.105957	-0.786133	0.106391	-0.0962754	0.986404	-0.0801174	-2.12392	-1.12597	-8.84951	-0.00219456	-0.0165789	-0.0162319	-0.189453	0.0874023	1.06763	0.895023	0.0667409	-0.437948	0.0517695	8.13763	0.783703	6.23839	0.0137057	0.00436355	-0.000982687	-0.61499	-0.145996	-0.943115	-0.072915	-0.0685617	-0.994444	0.0326117	-1.49543	0.127949	-9.62257	-0.0104519	4.28389e-05	-0.00237917	-0.294678	0.130127	1.1394	
8	0.166536	0.151814	-0.974271	0.00372385	2.69872	0.472029	-8.1516	-0.014646	-0.0312127	-0.0122818	-0.433105	-0.362305	1.17749	0.219119	0.106172	-0.968936	0.0433214	4.3383	-0.223177	-8.8446	0.00474038	-0.0181651	-0.017199	-0.588867	-0.121826	0.889648	0.990032	-0.00845866	-0.138082	0.0264141	3.22297	-0.13501	10.367	-0.10598	0.00618918	0.0220539	-0.239746	-0.106934	-1.21509	0.913259	0.404522	0.00154346	0.0481378	0.322423	7.30528	6.58255	0.0611826	0.0011149	0.00399518	0.503662	-1.00195	-0.891602	0.933478	0.192743	-0.148589	0.263421	3.64277	2.77919	8.76141	-0.0605603	-0.00274153	-0.0474476	-0.113525	-0.581787	-0.989258	-0.907356	0.415225	0.04365	-0.048877	0.711318	-8.91856	7.59268	-0.00304344	0.0152159	-0.0251692	0.214111	0.869141	-0.922363	-0.432055	0.0746901	-0.898695	-0.00983051	-7.6169	-0.0834279	-5.56238	0.0273181	-0.0583433	-0.0168322	0.587891	-0.00195312	0.962646	0.850752	0.103903	-0.454032	0.243476	8.86984	-0.888089	5.8114	0.0114313	-0.00933002	-0.0267979	-0.706299	0.10376	-0.783936	0.106888	-0.0962703	0.986335	-0.0803075	-2.11716	-1.1317	-8.82806	0.0162172	-0.00543711	-0.0219029	-0.185059	0.0942383	1.07642	0.894652	0.0668979	-0.438663	0.0519395	8.17615	0.851457	6.27373	-0.00476219	-0.0247241	0.0135223	-0.617432	-0.143799	-0.940674	-0.0729109	-0.0685664	-0.994449	0.0324695	-1.46628	0.129257	-9.63579	-0.00156534	0.00534207	-0.00539533	-0.296875	0.130127	1.14185	
9	0.166255	0.151863	-0.974311	0.00378354	2.6968	0.50018	-8.18714	0.0103201	-0.0223546	-0.00198283	-0.430908	-0.360107	1.17114	0.219047	0.106203	-0.968942	0.043493	4.35451	-0.235954	-8.76637	0.00965852	0.00802275	-0.0232093	-0.588379	-0.130615	0.882812	0.990001	-0.0091728	-0.138252	0.0264555	3.21685	-0.407877	10.2148	-0.0564749	-0.00557319	0.00857655	-0.23999	-0.100342	-1.21289	0.913273	0.404487	0.00145388	0.048166	0.324286	7.41223	6.53711	-0.00129894	0.000563647	0.00599545	0.505859	-1.00415	-0.891357	0.933388	0.193498	-0.148582	0.263188	3.65868	2.68294	8.77509	0.0688298	0.00412153	-0.0148704	-0.10498	-0.57959	-0.991699	-0.907296	0.415372	0.0437946	-0.04861	0.639236	-9.02492	7.49491	0.00169067	0.0109848	-0.0318753	0.213867	0.873535	-0.926758	-0.432868	0.0745825	-0.898306	-0.0104065	-7.6383	-0.0171155	-5.56679	0.00765936	-0.0328765	-0.0177093	0.581543	-0.00415039	0.958496	0.850654	0.104181	-0.454196	0.243391	8.86867	-0.8295	5.78315	0.019507	-0.00278432	-0.0310232	-0.712402	0.0993652	-0.786133	0.107006	-0.0962017	0.986328	-0.0803249	-2.13807	-1.13293	-8.80932	0.00777422	-0.00197406	-0.0158409	-0.184814	0.092041	1.06519	0.894444	0.0666414	-0.439124	0.0519503	8.17894	0.85974	6.17556	-0.0171137	-0.0256791	0.0163988	-0.621582	-0.148438	-0.936035	-0.0730144	-0.0685463	-0.994444	0.0324106	-1.46963	0.122772	-9.60598	-0.0029552	-0.00122584	-0.00606841	-0.30127	0.130127	1.13257	
10	0.165384	0.15198	-0.974442	0.00371122	2.65808	0.463388	-8.20466	0.00365902	-0.0363914	-0.00560198	-0.428711	-0.364502	1.17969	0.218997	0.106319	-0.968943	0.0434262	4.31765	-0.236484	-8.66312	0.00249752	0.00420922	-0.027745	-0.586426	-0.126221	0.887451	0.989899	-0.00930292	-0.1389	0.0268357	3.29865	-0.19557	10.4707	-0.0340944	-0.0149028	0.0109437	-0.23999	-0.102539	-1.21753	0.913222	0.40458	0.00127202	0.0483606	0.330883	7.11802	6.64267	0.0373975	0.00540596	0.0153017	0.508057	-1.00195	-0.893799	0.933195	0.193671	-0.14926	0.263362	3.77403	2.6264	8.79442	-0.00780854	-0.0292528	-0.0199268	-0.111328	-0.583984	-0.982422	-0.907534	0.414824	0.0442488	-0.0484265	0.761292	-8.8773	7.63596	0.0202936	0.00521995	-0.0259124	0.209473	0.879883	-0.924805	-0.434361	0.0743309	-0.897601	-0.0108048	-7.6372	-0.0332041	-5.32718	-0.0126069	-0.0636583	-0.013376	0.587646	0.000244141	0.962646	0.850471	0.105102	-0.454242	0.243553	8.81345	-0.862236	5.75613	0.0420931	0.00919088	-0.0261435	-0.710449	0.0993652	-0.793213	0.107028	-0.0961376	0.986335	-0.0802833	-2.1317	-1.1236	-8.8149	0.00239564	0.00506831	-0.0160389	-0.187256	0.0942383	1.06958	0.894238	0.0662114	-0.439616	0.0518785	8.16356	0.827581	6.16448	-0.0331239	-0.0269219	0.0170698	-0.613037	-0.139404	-0.943115	-0.0732655	-0.0685364	-0.99443	0.0323115	-1.47078	0.123632	-9.6058	-0.00209211	-0.00545511	-0.00483362	-0.30127	0.12793	1.13721	
11	0.165083	0.152112	-0.974472	0.00371694	2.67141	0.453173	-8.10823	0.00459404	-0.00579691	-0.00610573	-0.426514	-0.362305	1.17334	0.219199	0.106253	-0.968903	0.0434751	4.1605	-0.290229	-8.62421	-0.0112576	0.0233485	-0.0206836	-0.588623	-0.124023	0.88501	0.989867	-0.00930128	-0.139122	0.0268747	3.35613	-0.266381	10.2735	0.0234979	-0.00302241	0.00833169	-0.244141	-0.106689	-1.21509	0.913145	0.404753	0.00116201	0.048368	0.382984	7.33901	6.56568	-0.0165638	0.00218189	-0.00556583	0.503418	-0.997559	-0.891602	0.932785	0.19516	-0.148988	0.26387	3.68905	2.82806	8.58898	0.0454115	-0.000179251	-0.0129498	-0.113525	-0.583984	-0.984863	-0.907545	0.414809	0.0444309	-0.048181	0.773198	-9.01812	7.49793	0.0120096	0.00843171	-0.0204151	0.213867	0.875732	-0.924805	-0.435482	0.074148	-0.897068	-0.0112693	-7.64125	-0.0256654	-5.28064	0.008675	-0.0302374	-0.0171809	0.58374	-0.00610352	0.950195	0.850432	0.105529	-0.454098	0.24377	8.83086	-0.776018	5.77454	0.0179902	0.0198552	-0.0192093	-0.708252	0.0993652	-0.783691	0.107196	-0.0966561	0.98623	-0.0807325	-2.13594	-1.12593	-8.82761	0.0125729	-0.00256584	-0.0220957	-0.182617	0.092041	1.06763	0.894041	0.0650596	-0.440194	0.0518419	8.1834	0.765457	6.09781	-0.00847333	0.00398711	0.0136667	-0.617432	-0.141602	-0.940918	-0.0734093	-0.068464	-0.994428	0.0321911	-1.47531	0.128201	-9.6052	-0.00417183	-0.00230781	-0.00478029	-0.298828	0.125732	1.13721	
12	0.165438	0.152265	-0.974388	0.00370987	2.67141	0.46751	-8.17551	0.000609339	0.0184593	-0.00508456	-0.428955	-0.360107	1.17969	0.218814	0.106299	-0.968972	0.0437566	4.25781	-0.230271	-8.68012	0.0148006	-0.00814247	-0.022055	-0.59082	-0.124023	0.88501	0.989871	-0.0104788	-0.138958	0.0271375	3.29294	-0.318871	10.3153	-0.0682801	0.0250266	0.0125614	-0.237793	-0.0959473	-1.21533	0.913145	0.404753	0.00116201	0.048368	0.382984	7.33901	6.56568	-0.0165638	0.00218189	-0.00556583	0.503418	-0.997559	-0.891602	0.932867	0.195217	-0.148853	0.263612	3.79915	2.67326	8.73696	-0.00107044	0.00569566	-0.0233848	-0.113281	-0.590576	-0.993896	-0.907865	0.414097	0.0444166	-0.0482911	0.773742	-8.9592	7.59284	0.0322753	0.0156348	-0.0110033	0.216064	0.875732	-0.926758	-0.435971	0.0741509	-0.896832	-0.0110948	-7.68201	-0.0423394	-5.34633	0.0132681	-0.0141874	-0.0180922	0.590332	-0.00830078	0.954346	0.850591	0.105526	-0.453972	0.243451	8.83885	-0.80768	5.79227	-0.00232642	0.014935	-0.0220415	-0.712402	0.0993652	-0.783691	0.107196	-0.0966561	0.98623	-0.0807325	-2.13594	-1.12593	-8.82761	0.0125729	-0.00256584	-0.0220957	-0.182617	0.092041	1.06763	0.893993	0.0650244	-0.440284	0.0519515	8.19766	0.795447	6.14249	0.00320867	0.0111938	0.00843679	-0.626221	-0.144043	-0.945312	-0.073287	-0.068469	-0.994439	0.032112	-1.48869	0.131567	-9.58806	0.000335758	0.0152568	-0.00511777	-0.30127	0.130127	1.14404	
13	0.165919	0.152316	-0.974297	0.00388934	2.68201	0.4536	-8.12968	0.0052227	0.0201043	-0.00120707	-0.424561	-0.35791	1.17529	0.218624	0.106095	-0.969034	0.0438177	4.26612	-0.28591	-8.59372	0.00364411	-0.00622858	-0.0153771	-0.586426	-0.128418	0.882812	0.9899	-0.0097196	-0.138743	0.0274695	3.25549	-0.25455	10.3845	0.056721	0.00920261	0.0135374	-0.23999	-0.100342	-1.21289	0.913197	0.404672	0.00172874	0.0480565	0.343504	7.18604	6.61309	-0.0106074	0.00824861	-0.0160901	0.505615	-0.997559	-0.887207	0.932817	0.19578	-0.148123	0.263785	3.63458	2.79237	8.63243	0.00395801	0.0200525	-0.0299909	-0.117676	-0.590576	-0.989258	-0.908276	0.413188	0.0442808	-0.0484752	0.74149	-8.90083	7.64339	0.0455273	0.0127744	-0.0053165	0.213867	0.873535	-0.931152	-0.436939	0.0738938	-0.896377	-0.0114916	-7.65626	0.0127055	-5.37437	0.00415598	-0.030422	-0.0140129	0.594482	-0.00610352	0.952148	0.850597	0.105357	-0.454037	0.243382	8.80914	-0.854207	5.78298	0.000318672	0.0189863	-0.0163412	-0.708252	0.0993652	-0.786133	0.107196	-0.0966561	0.98623	-0.0807325	-2.13594	-1.12593	-8.82761	0.0125729	-0.00256584	-0.0220957	-0.182617	0.092041	1.06763	0.893968	0.0650106	-0.440323	0.0520543	8.16422	0.796324	6.16772	0.00570656	0.011223	0.0061664	-0.62207	-0.139648	-0.943115	-0.072971	-0.0684935	-0.994464	0.0320345	-1.46476	0.137182	-9.60767	-0.00103017	0.0160732	-0.00177269	-0.296631	0.12793	1.13721	
14	0.16628	0.152432	-0.974218	0.00383286	2.69646	0.465154	-8.17982	-0.00338612	0.00721493	-0.00731833	-0.430908	-0.360107	1.17114	0.218288	0.106099	-0.969112	0.0437706	4.2729	-0.257156	-8.65412	-0.00561115	-0.0155977	-0.0227804	-0.588623	-0.124023	0.887451	0.989893	-0.00981068	-0.138748	0.0276606	3.29096	-0.236315	10.4637	-0.00496384	0.00649904	0.0137483	-0.241943	-0.102539	-1.21289	0.913162	0.404765	0.00194	0.0479281	0.289189	7.34256	6.57708	-0.000275093	0.00925074	-0.00302628	0.508057	-0.999756	-0.893799	0.93282	0.195786	-0.147967	0.263856	3.74333	2.70898	8.84601	0.00842586	0.0200721	-0.0175179	-0.108643	-0.592773	-0.980225	-0.908357	0.412994	0.0442417	-0.0486525	0.760752	-8.84654	7.67101	0.0196292	0.0111531	-0.000712694	0.21167	0.875732	-0.924561	-0.437543	0.0737558	-0.896093	-0.0115686	-7.6754	-0.0070282	-5.3474	0.01407	-0.0396256	-0.0177329	0.589844	0.00244141	0.951904	0.850596	0.10537	-0.453986	0.243474	8.81858	-0.788443	5.80639	0.00586778	0.0211134	-0.0146711	-0.712646	0.10376	-0.786133	0.107196	-0.0966561	0.98623	-0.0807325	-2.13594	-1.12593	-8.82761	0.0125729	-0.00256584	-0.0220957	-0.182617	0.092041	1.06763	0.893979	0.0650493	-0.440295	0.0520588	8.16976	0.761063	6.16418	0.0046822	0.0156038	0.00209488	-0.619629	-0.144043	-0.945312	-0.072971	-0.0684935	-0.994464	0.0320345	-1.46476	0.137182	-9.60767	-0.00103017	0.0160732	-0.00177269	-0.296631	0.12793	1.13721	
15	0.16627	0.152517	-0.974207	0.00361453	2.68465	0.464632	-8.08262	-0.00707199	-0.0020223	-0.00458975	-0.426758	-0.35791	1.16675	0.218049	0.106272	-0.969167	0.0433056	4.26846	-0.29293	-8.66831	-0.0180994	-0.0100282	-0.0197742	-0.588623	-0.124023	0.887451	0.989912	-0.00928503	-0.138597	0.0278988	3.25031	-0.201283	10.4008	0.0299845	-0.000547704	0.00781273	-0.241943	-0.104736	-1.21069	0.913278	0.40451	0.001902	0.0478719	0.317559	7.20868	6.60739	-0.0204369	0.00245711	-0.00221761	0.505859	-0.999756	-0.893799	0.932849	0.195562	-0.147923	0.263947	3.6428	2.79388	8.67098	-0.0218927	0.0143153	-0.0166853	-0.109131	-0.583984	-0.982422	-0.908515	0.412652	0.0441611	-0.0486673	0.72637	-8.94573	7.61855	0.0251927	0.0135592	-0.0134254	0.209717	0.871338	-0.933105	-0.438137	0.0734469	-0.895823	-0.0119034	-7.6839	-0.0487825	-5.40054	0.00113898	-0.0107668	-0.00982886	0.594482	-0.00830078	0.954346	0.850669	0.105563	-0.453854	0.243384	8.84083	-0.808702	5.81152	0.00909366	0.012676	-0.0171092	-0.703857	0.0993652	-0.788574	0.107196	-0.0966561	0.98623	-0.0807325	-2.13594	-1.12593	-8.82761	0.0125729	-0.00256584	-0.0220957	-0.182617	0.092041	1.06763	0.89404	0.0650206	-0.440149	0.0522825	8.19154	0.833338	6.18345	-0.00244488	0.00592722	0.00655051	-0.62207	-0.139648	-0.940918	-0.0728609	-0.0684205	-0.994476	0.0320421	-1.47585	0.13949	-9.61221	0.00106773	0.00512251	-0.00374848	-0.301025	0.123535	1.14185	
16	0.166251	0.152603	-0.974198	0.00346493	2.71521	0.475773	-8.1585	-0.0086436	-0.00394251	-0.00836872	-0.428955	-0.35791	1.17334	0.217853	0.106277	-0.969214	0.043235	4.32885	-0.274256	-8.67493	-0.00547494	0.0185872	-0.0252609	-0.588623	-0.126221	0.887451	0.989874	-0.0109545	-0.138749	0.0279125	3.20843	-0.360093	10.3229	-0.0753121	0.00234592	0.00324786	-0.246582	-0.09375	-1.22241	0.913138	0.404822	0.00202553	0.0478969	0.327448	7.20731	6.59787	0.0149112	0.00737162	-0.000241184	0.508057	-1.00195	-0.891602	0.932948	0.194896	-0.148377	0.263831	3.71484	2.67539	8.82603	-0.0194901	-0.00288181	-0.0187747	-0.111084	-0.590576	-0.984863	-0.90852	0.412633	0.0441965	-0.0487073	0.738628	-8.91089	7.65273	-0.00482581	0.014133	-0.0161273	0.211914	0.871338	-0.933105	-0.438878	0.0730929	-0.895487	-0.012115	-7.70249	0.00957077	-5.45298	0.0144788	-0.0208006	-0.0150522	0.587891	-0.00610352	0.947998	0.850649	0.10562	-0.453864	0.243409	8.84093	-0.827668	5.76389	0.0109652	0.015614	-0.0182832	-0.703857	0.101562	-0.788574	0.107196	-0.0966561	0.98623	-0.0807325	-2.13594	-1.12593	-8.82761	0.0125729	-0.00256584	-0.0220957	-0.182617	0.092041	1.06763	0.893827	0.0643937	-0.440705	0.0520109	8.1501	0.764925	6.16057	-0.028119	-0.00872786	0.00621091	-0.626465	-0.137451	-0.940918	-0.0727242	-0.0684062	-0.994489	0.0319983	-1.47365	0.140976	-9.59833	0.000682739	0.00560154	-0.0031388	-0.301025	0.123535	1.14185	
17	0.166251	0.152603	-0.974198	0.00346493	2.71521	0.475773	-8.1585	-0.0086436	-0.00394251	-0.00836872	-0.428955	-0.35791	1.17334	0.217853	0.106277	-0.969214	0.043235	4.32885	-0.274256	-8.67493	-0.00547494	0.0185872	-0.0252609	-0.588623	-0.126221	0.887451	0.989809	-0.0106898	-0.139173	0.028187	3.27177	-0.331315	10.2962	0.0116461	-0.0139212	0.00812736	-0.23999	-0.0959473	-1.2085	0.913198	0.40467	0.00200077	0.0480385	0.315921	7.23017	6.60156	-0.00369143	0.00313721	0.00400026	0.505859	-1.00415	-0.891357	0.932834	0.195355	-0.148288	0.263948	3.66758	2.73878	8.71275	0.0164963	0.00115609	-0.0101232	-0.117676	-0.588379	-0.991699	-0.908675	0.412289	0.0444363	-0.0484958	0.75719	-8.90361	7.62257	0.0268406	0.00655309	-0.0260514	0.209717	0.873535	-0.935303	-0.439479	0.0732114	-0.895182	-0.0121575	-7.66056	-0.0340518	-5.30667	0.00355142	-0.0201081	-0.0187138	0.592285	-0.00830078	0.952148	0.850689	0.106034	-0.453728	0.243344	8.80072	-0.807993	5.79038	0.0172057	0.00997409	-0.0199837	-0.710693	0.105957	-0.788574	0.107196	-0.0966561	0.98623	-0.0807325	-2.13594	-1.12593	-8.82761	0.0125729	-0.00256584	-0.0220957	-0.182617	0.092041	1.06763	0.893827	0.0643937	-0.440705	0.0520109	8.1501	0.764925	6.16057	-0.028119	-0.00872786	0.00621091	-0.626465	-0.137451	-0.940918	-0.0727242	-0.0684062	-0.994489	0.0319983	-1.47365	0.140976	-9.59833	0.000682739	0.00560154	-0.0031388	-0.301025	0.123535	1.14185	
18	0.165381	0.152888	-0.974301	0.00332237	2.68191	0.480881	-8.16435	0.00447373	-0.0131923	-0.00382366	-0.428467	-0.368652	1.17334	0.217891	0.10633	-0.969194	0.0433718	4.25264	-0.23484	-8.6587	-0.00376084	0.000300313	-0.0181429	-0.586426	-0.128418	0.887451	0.989789	-0.0106468	-0.139319	0.0282033	3.27181	-0.339421	10.309	0.0034427	-0.00484093	-0.00155559	-0.239746	-0.102539	-1.21289	0.913203	0.404657	0.00196355	0.0480493	0.346109	7.38373	6.54931	0.000716056	0.00372107	0.00304316	0.503418	-0.999756	-0.893799	0.932721	0.19553	-0.148763	0.26395	3.7475	2.78311	8.75882	-0.00305167	-0.0116263	-0.0211252	-0.111328	-0.581787	-0.987061	-0.908626	0.412369	0.0445883	-0.0485997	0.748781	-8.96471	7.59296	-0.00474883	0.00733596	-0.0106559	0.214111	0.869141	-0.928711	-0.440104	0.0729645	-0.894891	-0.0124311	-7.72292	-0.0170019	-5.32697	-0.00288279	-0.0157689	-0.0147292	0.594727	-0.010498	0.950195	0.850623	0.106392	-0.453649	0.243564	8.83996	-0.817929	5.76223	0.0231849	0.0151782	-0.0175096	-0.705811	0.097168	-0.78833	0.107196	-0.0966561	0.98623	-0.0807325	-2.13594	-1.12593	-8.82761	0.0125729	-0.00256584	-0.0220957	-0.182617	0.092041	1.06763	0.893762	0.0640562	-0.440894	0.051954	8.1915	0.759715	6.13556	-0.0124155	-0.000455868	0.00617616	-0.626465	-0.139648	-0.943115	-0.0727242	-0.0684062	-0.994489	0.0319983	-1.47365	0.140976	-9.59833	0.000682739	0.00560154	-0.0031388	-0.301025	0.123535	1.14185	
19	0.165135	0.153065	-0.974316	0.0032081	2.67154	0.460996	-8.14769	-0.00393154	-0.00503905	-0.00576764	-0.424072	-0.366455	1.17773	0.21772	0.106284	-0.969233	0.043476	4.19882	-0.25844	-8.66472	0.00815547	0.00072242	-0.0202332	-0.59082	-0.126221	0.896729	0.989756	-0.0103839	-0.139515	0.0284932	3.28727	-0.29283	10.3623	0.00390566	-0.000664017	0.00825849	-0.244141	-0.0981445	-1.21533	0.913438	0.404159	0.00196028	0.0477862	0.347663	7.15289	6.63388	-0.00344561	0.00444423	-0.0102352	0.507812	-0.997559	-0.895996	0.9328	0.194912	-0.149297	0.263827	3.76094	2.64007	8.71279	-0.0353559	-0.0142184	-0.0204683	-0.115967	-0.57959	-0.989258	-0.908552	0.41248	0.0448093	-0.0488397	0.756207	-8.8852	7.63727	-0.00689233	0.00136247	-0.00612977	0.209473	0.875488	-0.931152	-0.44065	0.0730307	-0.894616	-0.0125128	-7.73311	-0.0242827	-5.27951	0.0031459	-0.017716	-0.0160511	0.601318	-0.0126953	0.948242	0.850532	0.106672	-0.453683	0.243699	8.83815	-0.770132	5.79207	0.0161149	0.0166759	-0.018401	-0.710205	0.0949707	-0.783691	0.107196	-0.0966561	0.98623	-0.0807325	-2.13594	-1.12593	-8.82761	0.0125729	-0.00256584	-0.0220957	-0.182617	0.092041	1.06763	0.893666	0.0635768	-0.441159	0.051949	8.21586	0.743604	6.13682	-0.00655096	0.00298436	0.00902873	-0.624512	-0.133057	-0.941162	-0.0726086	-0.0682309	-0.994511	0.0319525	-1.47135	0.138768	-9.61259	0.00160752	0.00603556	-0.00588293	-0.30127	0.125732	1.14185	
20	0.165251	0.153121	-0.974287	0.00324057	2.6639	0.463461	-8.1676	0.00234997	0.00533332	-0.00102593	-0.424072	-0.368652	1.17554	0.217579	0.106221	-0.969269	0.0435125	4.23333	-0.267555	-8.6459	-0.00553923	0.0193155	-0.0218209	-0.582031	-0.126221	0.88501	0.98973	-0.0102073	-0.139669	0.0286798	3.28666	-0.353907	10.2415	0.015834	-0.0058861	0.010336	-0.237793	-0.0981445	-1.21533	0.913508	0.404024	0.00210495	0.0475642	0.314634	7.21202	6.60564	-0.0156726	0.00828678	-0.0082806	0.505615	-0.995361	-0.893799	0.932522	0.196038	-0.148795	0.264257	3.72854	2.75607	8.73909	0.0723161	0.0195158	-0.00909209	-0.113525	-0.583984	-0.980225	-0.90863	0.412318	0.0447835	-0.0487878	0.742286	-9.04312	7.53478	0.0277904	0.0135924	-0.0184711	0.214355	0.864746	-0.930908	-0.441051	0.0729327	-0.894424	-0.0126717	-7.71563	-0.00834999	-5.31524	0.00611682	-0.0223548	-0.0170295	0.598877	-0.00830078	0.950195	0.8505	0.106735	-0.453722	0.24371	8.80632	-0.803766	5.7729	0.00642743	0.0178803	-0.0168722	-0.709961	0.0905762	-0.783691	0.107196	-0.0966561	0.98623	-0.0807325	-2.13594	-1.12593	-8.82761	0.0125729	-0.00256584	-0.0220957	-0.182617	0.092041	1.06763	0.893586	0.0633642	-0.44135	0.0519542	8.17978	0.783782	6.14529	-0.00469562	0.00535849	0.00670281	-0.624268	-0.137451	-0.938721	-0.0726317	-0.0682473	-0.994509	0.0319239	-1.47006	0.138367	-9.61279	0.000307686	0.00486459	-0.00339906	-0.296631	0.125732	1.13965	
21	0.165396	0.15328	-0.974237	0.0033047	2.68331	0.467373	-8.12154	0.00349153	0.00595424	-0.00587893	-0.430664	-0.366699	1.17334	0.217366	0.106256	-0.969307	0.0436538	4.24476	-0.222346	-8.67811	0.0119429	-0.0105106	-0.0185997	-0.59082	-0.128418	0.887451	0.989765	-0.0103761	-0.139386	0.0288044	3.28672	-0.314205	10.2994	-0.00370016	0.0100608	0.0032159	-0.242188	-0.0981445	-1.21533	0.913353	0.404369	0.00236217	0.0475998	0.305107	7.19628	6.61726	0.0166401	0.0123813	-0.00197298	0.514648	-1.00195	-0.889404	0.932568	0.195653	-0.148906	0.264318	3.76015	2.70467	8.67708	-0.0222839	0.00845772	-0.0203979	-0.106934	-0.581787	-0.984863	-0.908984	0.411525	0.0447935	-0.0488655	0.764718	-8.82049	7.72581	0.026161	0.0122171	-0.0122652	0.214111	0.869141	-0.94165	-0.442296	0.0728324	-0.893814	-0.0128801	-7.78149	-0.0141977	-5.19654	-0.0116067	-0.0569715	-0.0140402	0.607422	-0.00610352	0.950195	0.850597	0.106826	-0.453544	0.243662	8.8171	-0.806366	5.79718	0.00657676	0.0159911	-0.0140179	-0.712402	0.097168	-0.786133	0.107196	-0.0966561	0.98623	-0.0807325	-2.13594	-1.12593	-8.82761	0.0125729	-0.00256584	-0.0220957	-0.182617	0.092041	1.06763	0.893566	0.0633291	-0.441404	0.0518759	8.20354	0.768122	6.11995	0.00425887	0.0170708	0.00268413	-0.626709	-0.135254	-0.940918	-0.0725461	-0.0681996	-0.994519	0.0319002	-1.46589	0.138824	-9.60418	0.000301856	0.0045773	-0.0029948	-0.296387	0.121338	1.13745	
22	0.165562	0.15333	-0.974202	0.00323004	2.70555	0.456027	-8.15406	-0.00554465	0.0116404	-0.00483573	-0.428711	-0.364502	1.17334	0.217366	0.106256	-0.969307	0.0436538	4.24476	-0.222346	-8.67811	0.0119429	-0.0105106	-0.0185997	-0.59082	-0.128418	0.887451	0.989796	-0.00960407	-0.139191	0.0289274	3.32256	-0.330047	10.3331	0.0631373	0.0211847	-0.00114671	-0.241943	-0.100342	-1.2085	0.913362	0.404357	0.00242427	0.0475315	0.34934	7.31735	6.56669	0.00111674	0.00840288	-0.00587971	0.512207	-0.99292	-0.895996	0.932621	0.19533	-0.148563	0.264561	3.7073	2.77423	8.70421	-0.0194983	0.0227834	-0.0157119	-0.111328	-0.586182	-0.987061	-0.908869	0.411792	0.0447073	-0.0488387	0.765242	-8.9119	7.68537	-0.0208742	0.0230209	-0.0119989	0.209717	0.869141	-0.928711	-0.443001	0.0725396	-0.89349	-0.0128261	-7.73443	-0.0552755	-5.3315	0.0290032	-0.047567	-0.0117296	0.603027	-0.00610352	0.94165	0.850539	0.10686	-0.45362	0.243707	8.83924	-0.787439	5.80267	0.01517	0.0134518	-0.0188537	-0.708008	0.097168	-0.786133	0.107196	-0.0966561	0.98623	-0.0807325	-2.13594	-1.12593	-8.82761	0.0125729	-0.00256584	-0.0220957	-0.182617	0.092041	1.06763	0.893552	0.0634761	-0.441399	0.0519952	8.21822	0.767201	6.10607	0.0165604	0.0135391	0.00668867	-0.624268	-0.135254	-0.938721	-0.0725461	-0.0681996	-0.994519	0.0319002	-1.46589	0.138824	-9.60418	0.000301856	0.0045773	-0.0029948	-0.296387	0.121338	1.13745	
23	0.165832	0.153521	-0.974125	0.00328956	2.69245	0.468051	-8.12428	0.00183994	0.00730586	-0.00488226	-0.432861	-0.366699	1.17969	0.216985	0.107004	-0.969343	0.0429121	4.26477	-0.274794	-8.70828	-0.0114634	-0.00676869	-0.0232394	-0.59082	-0.128418	0.89209	0.989874	-0.0101784	-0.138586	0.0289865	3.22397	-0.342143	10.3847	-0.0513532	0.0139985	-0.00415216	-0.244141	-0.100342	-1.21289	0.91345	0.404163	0.0027756	0.047478	0.308156	7.24337	6.62106	0.00490957	0.0094063	0.0014757	0.508057	-0.999756	-0.893799	0.932729	0.195379	-0.148135	0.264387	3.67809	2.68773	8.77755	0.0020419	0.0172696	-0.0227979	-0.106934	-0.586182	-0.991699	-0.90904	0.411397	0.0446297	-0.0490619	0.726017	-8.88946	7.70004	0.0161461	0.0128273	-0.0158599	0.214111	0.871338	-0.930908	-0.443609	0.0724209	-0.893194	-0.01309	-7.73154	0.00767683	-5.24845	0.000588168	-0.0171921	-0.0130566	0.607666	-0.0126953	0.948242	0.850641	0.10664	-0.453625	0.243439	8.813	-0.781014	5.7651	-0.00966109	0.0118369	-0.0154265	-0.712158	0.0927734	-0.78833	0.107196	-0.0966561	0.98623	-0.0807325	-2.13594	-1.12593	-8.82761	0.0125729	-0.00256584	-0.0220957	-0.182617	0.092041	1.06763	0.893644	0.0635529	-0.441179	0.0521679	8.1822	0.782955	6.13299	0.00458916	0.0110459	0.00381989	-0.626709	-0.135254	-0.940918	-0.0724346	-0.0680073	-0.994537	0.0319967	-1.46959	0.13698	-9.60378	0.00251412	0.00371486	-0.00528731	-0.303467	0.125732	1.13965	
24	0.165748	0.153572	-0.974132	0.00319139	2.67003	0.454532	-8.15551	-0.00429049	-0.00871433	-0.00463833	-0.430664	-0.368896	1.17773	0.217163	0.106977	-0.969301	0.0430412	4.26281	-0.314908	-8.59747	0.00365675	0.0278315	-0.020494	-0.584473	-0.119629	0.884766	0.989828	-0.0100698	-0.138867	0.0292549	3.2971	-0.208494	10.3857	0.00785977	-0.00625284	0.00793172	-0.242188	-0.0981445	-1.21313	0.913273	0.404575	0.00282633	0.0473644	0.303652	7.19587	6.58308	0.0287323	0.00553699	-0.00255161	0.508057	-0.999756	-0.893799	0.932701	0.195412	-0.148044	0.264512	3.70604	2.73559	8.75749	0.00168605	0.0122502	-0.0144235	-0.115479	-0.588379	-0.991699	-0.909038	0.411401	0.0446578	-0.049031	0.754001	-8.92269	7.65026	0.00189593	0.0136106	-0.0168724	0.211914	0.869141	-0.935303	-0.444285	0.0723454	-0.89286	-0.0133319	-7.72929	-0.0272806	-5.20024	0.00061262	-0.0475672	-0.016833	0.607666	-0.0124512	0.94165	0.850625	0.106574	-0.453613	0.243546	8.8366	-0.815233	5.7667	0.00623476	0.0209339	-0.00832145	-0.703613	0.0949707	-0.783691	0.107196	-0.0966561	0.98623	-0.0807325	-2.13594	-1.12593	-8.82761	0.0125729	-0.00256584	-0.0220957	-0.182617	0.092041	1.06763	0.893603	0.0636624	-0.441257	0.0520913	8.17411	0.751933	6.11754	0.00679817	0.00590636	-0.00547323	-0.622314	-0.133057	-0.941162	-0.0724698	-0.0680165	-0.994534	0.0319983	-1.46904	0.147507	-9.61027	0.00129565	0.00177847	-0.00204756	-0.294434	0.12793	1.13501	
25	0.16592	0.153678	-0.974086	0.00321514	2.68592	0.491606	-8.14305	0.00685217	0.0135829	-0.00374825	-0.433105	-0.362305	1.17114	0.216987	0.106911	-0.969338	0.0432504	4.25567	-0.192205	-8.7651	0.0119997	-0.00373158	-0.0193548	-0.586426	-0.124023	0.889648	0.989831	-0.0105418	-0.138856	0.0290383	3.30177	-0.376322	10.2612	0.00173853	0.00709462	-0.00912791	-0.237793	-0.0981445	-1.21753	0.913416	0.404243	0.00284846	0.0474375	0.329417	7.30236	6.58732	-0.0330042	0.00842223	0.000973908	0.508057	-1.00195	-0.893799	0.932587	0.195656	-0.148087	0.26471	3.73501	2.71825	8.76379	0.00950213	0.00235956	-0.0124961	-0.109131	-0.583984	-0.991699	-0.909041	0.411396	0.0446764	-0.0490031	0.730912	-8.97854	7.60979	0.00393061	0.0174145	-0.0172224	0.209961	0.866943	-0.928711	-0.444443	0.0721191	-0.892798	-0.0134202	-7.84068	0.023813	-5.31742	0.0151069	-0.00377881	-0.0182726	0.605469	-0.0126953	0.943848	0.850664	0.106759	-0.453422	0.243683	8.86753	-0.778691	5.76702	0.0148772	0.028742	-0.0192699	-0.712402	0.0949707	-0.790771	0.107196	-0.0966561	0.98623	-0.0807325	-2.13594	-1.12593	-8.82761	0.0125729	-0.00256584	-0.0220957	-0.182617	0.092041	1.06763	0.893625	0.0634029	-0.441256	0.0520415	8.23649	0.805618	6.15062	-0.0186286	0.0113743	0.0117384	-0.620117	-0.128662	-0.938965	-0.0724698	-0.0680165	-0.994534	0.0319983	-1.46904	0.147507	-9.61027	0.00129565	0.00177847	-0.00204756	-0.294434	0.12793	1.13501	
26	0.166223	0.153771	-0.974019	0.00331291	2.67463	0.462084	-8.12422	0.00312979	0.0132884	-0.00327155	-0.431152	-0.35791	1.16895	0.21706	0.106806	-0.969342	0.043044	4.21871	-0.253129	-8.61641	-0.0123977	0.00920303	-0.0214322	-0.582031	-0.126221	0.887451	0.989828	-0.0102967	-0.138865	0.0291578	3.27451	-0.287652	10.3345	0.0208549	0.00590719	0.00443636	-0.237793	-0.0981445	-1.21313	0.913508	0.404042	0.00291978	0.0473806	0.318363	7.09157	6.63607	-0.0153078	0.0101692	-0.00580635	0.505615	-0.997559	-0.891602	0.932427	0.195971	-0.148005	0.265086	3.68346	2.74523	8.68166	0.00444004	0.00167153	-0.00977348	-0.113281	-0.586182	-0.984863	-0.909196	0.411057	0.0447037	-0.0489557	0.745027	-8.89074	7.70401	0.0123199	0.011452	-0.0122932	0.216309	0.864746	-0.932861	-0.445217	0.0719166	-0.892424	-0.0137639	-7.74337	0.0121024	-5.19683	0.00722549	-0.0208048	-0.0170635	0.603271	-0.0126953	0.939697	0.850705	0.107103	-0.453195	0.243814	8.81033	-0.771942	5.78956	0.0200631	0.024878	-0.0211793	-0.708008	0.097168	-0.783691	0.105694	-0.102539	0.985558	-0.0836001	-2.14378	-1.14165	-8.82649	0.00643086	0.00384532	-0.0194541	-0.19165	0.0895996	1.07861	0.893684	0.062954	-0.441197	0.0520646	8.17545	0.774912	6.11922	-0.0136335	0.020834	0.0128666	-0.619873	-0.137451	-0.934082	-0.0724698	-0.0680165	-0.994534	0.0319983	-1.46904	0.147507	-9.61027	0.00129565	0.00177847	-0.00204756	-0.294434	0.12793	1.13501	
27	0.166533	0.153895	-0.973946	0.00341615	2.73176	0.46283	-8.14801	0.00275722	0.00903095	-0.00337996	-0.430908	-0.362305	1.17529	0.216939	0.106753	-0.969367	0.0432183	4.19832	-0.268791	-8.62297	0.00244274	0.0141886	-0.0199431	-0.584229	-0.126221	0.889648	0.98985	-0.010826	-0.138717	0.0289455	3.24671	-0.468661	10.1944	-0.00550879	0.0138298	-0.0148001	-0.244385	-0.0893555	-1.21558	0.913359	0.404368	0.00295943	0.0474686	0.294632	7.36908	6.5642	0.00336432	0.00342553	0.0055055	0.51001	-0.997559	-0.887207	0.932361	0.195897	-0.148034	0.265356	3.73869	2.72921	8.75717	-0.0054718	0.012213	-0.00889495	-0.113281	-0.588379	-0.987061	-0.909108	0.411247	0.0447201	-0.0489748	0.72486	-8.97355	7.62714	-0.000651074	0.0158081	-0.0160431	0.216064	0.871338	-0.935303	-0.445734	0.0716649	-0.892183	-0.0139918	-7.73603	0.00469771	-5.17866	0.00925254	-0.00500318	-0.0161508	0.607666	-0.0126953	0.943848	0.850906	0.107109	-0.452846	0.243754	8.79196	-0.767122	5.80276	0.00479173	0.0244135	-0.0149824	-0.708252	0.101562	-0.786133	0.105554	-0.102962	0.985509	-0.0838428	-2.14564	-1.14912	-8.83207	0.00689339	0.00542786	-0.0194166	-0.187256	0.0917969	1.07642	0.893728	0.0626	-0.441157	0.052075	8.19654	0.768135	6.11206	0.000619517	0.0223633	0.00748847	-0.626709	-0.133057	-0.941162	-0.0726133	-0.0678704	-0.994526	0.0322273	-1.47838	0.141803	-9.62603	0.00803984	0.00294965	-0.00528118	-0.296631	0.125732	1.13965	
28	0.166805	0.154016	-0.973881	0.00329635	2.71954	0.496026	-8.12715	-0.00231034	0.0126296	-0.00715814	-0.428467	-0.366455	1.16895	0.216917	0.106679	-0.969385	0.0431202	4.2048	-0.267156	-8.65654	-0.0112568	0.0073379	-0.0201431	-0.586426	-0.128418	0.88501	0.989873	-0.0102518	-0.138552	0.0291551	3.29094	-0.207835	10.4098	0.00513587	0.0143801	0.00638009	-0.23999	-0.0981445	-1.21069	0.913462	0.404146	0.00308712	0.0473708	0.333822	7.0903	6.63188	0.0144213	0.0137886	-0.00570277	0.509766	-0.990967	-0.891602	0.932414	0.195201	-0.148178	0.265602	3.72791	2.66078	8.7494	-0.0253406	0.00521322	-0.015886	-0.113281	-0.586182	-0.989258	-0.909118	0.411212	0.0447823	-0.0490256	0.740873	-8.91108	7.64588	-0.00298487	0.0116738	-0.0109246	0.205566	0.869141	-0.933105	-0.446108	0.0713892	-0.892016	-0.0140679	-7.82156	-0.0122215	-5.24601	0.0165508	-0.00601208	-0.0202987	0.607422	-0.00830078	0.935303	0.850894	0.106916	-0.452903	0.243776	8.84385	-0.797976	5.8124	0.00325155	0.0161393	-0.0184824	-0.705811	0.097168	-0.781494	0.105554	-0.102962	0.985509	-0.0838428	-2.14564	-1.14912	-8.83207	0.00689339	0.00542786	-0.0194166	-0.187256	0.0917969	1.07642	0.893798	0.0625975	-0.441011	0.0521211	8.21208	0.742368	6.16159	0.00169585	0.0224506	0.00469409	-0.622314	-0.130859	-0.936523	-0.072681	-0.0678939	-0.994519	0.032243	-1.48351	0.131112	-9.6099	0.00170345	0.00484311	-0.00377462	-0.303467	0.125732	1.14185	
29	0.167127	0.154095	-0.973812	0.00357569	2.72851	0.462247	-8.10667	0.0129806	0.00864012	0.00127375	-0.433105	-0.364502	1.17334	0.216698	0.106709	-0.969427	0.0432103	4.22665	-0.262052	-8.72488	0.00481273	-0.00498127	-0.0234467	-0.586426	-0.124023	0.889648	0.989897	-0.0111439	-0.138326	0.0290694	3.19741	-0.477471	10.2096	-0.0152397	0.0129514	-0.00563166	-0.237793	-0.0981445	-1.21069	0.913388	0.404304	0.00326957	0.0474248	0.294609	7.31377	6.56008	-0.0106442	0.00971007	0.000442344	0.508057	-1.00195	-0.893799	0.932302	0.195494	-0.147816	0.26598	3.68067	2.74878	8.69015	0.0139617	0.0191738	-0.0147347	-0.111328	-0.586182	-0.991699	-0.909291	0.410814	0.0447883	-0.0491567	0.74618	-8.93519	7.65335	0.0329956	0.0116107	-0.0101254	0.212158	0.866943	-0.928711	-0.446607	0.0713249	-0.891773	-0.0139744	-7.78142	-0.00681309	-5.23876	0.0111748	-0.0146737	-0.0143781	0.610107	-0.019043	0.941895	0.850894	0.106817	-0.452909	0.24381	8.79469	-0.837236	5.76491	0.00802822	0.018719	-0.0132755	-0.706055	0.101562	-0.786133	0.105554	-0.102962	0.985509	-0.0838428	-2.14564	-1.14912	-8.83207	0.00689339	0.00542786	-0.0194166	-0.187256	0.0917969	1.07642	0.893813	0.0624627	-0.440989	0.0522049	8.17489	0.745885	6.15273	-0.000335487	0.0133345	0.00912365	-0.626709	-0.133057	-0.941162	-0.0725626	-0.0678557	-0.994532	0.0321842	-1.48077	0.132273	-9.62112	-0.000816647	0.00802084	-0.0039991	-0.30127	0.125732	1.14648	
30	0.167018	0.154176	-0.973818	0.00365901	2.72345	0.472053	-8.14597	0.00661322	-0.00971409	-0.00304253	-0.432861	-0.366699	1.17114	0.216684	0.106894	-0.969421	0.0429428	4.29456	-0.262497	-8.66188	0.00898173	0.00150234	-0.0251428	-0.588623	-0.128418	0.885254	0.989862	-0.0105714	-0.138534	0.0294768	3.25782	-0.198659	10.4918	-0.0103751	0.000440894	0.0110291	-0.242188	-0.0981445	-1.21753	0.913366	0.404346	0.00335985	0.0474914	0.269346	7.18035	6.59799	0.028485	0.0114215	0.0057034	0.512451	-1.00171	-0.893799	0.932175	0.195933	-0.147681	0.266177	3.70567	2.70011	8.81407	0.0281082	0.00455021	-0.0210083	-0.113281	-0.588379	-0.984863	-0.909308	0.41077	0.0448095	-0.0491884	0.729881	-8.83797	7.74957	0.00646648	0.0118031	-0.0121683	0.212158	0.864746	-0.937256	-0.446888	0.0711767	-0.891642	-0.0141023	-7.74314	-0.016636	-5.18401	0.00973003	-0.0115893	-0.0140212	0.612061	-0.0146484	0.941895	0.850805	0.106953	-0.452959	0.243969	8.78895	-0.766906	5.81466	0.0121644	0.0149873	-0.0154546	-0.703613	0.0949707	-0.781494	0.104996	-0.104034	0.985404	-0.0844524	-2.15315	-1.14345	-8.83175	0.00679373	0.00801368	-0.0193363	-0.1875	0.0964355	1.07642	0.893725	0.0625381	-0.441158	0.0521977	8.20088	0.727804	6.16336	0.00546634	0.00619605	0.000351394	-0.62207	-0.135254	-0.938721	-0.0725424	-0.0678619	-0.994536	0.0321091	-1.48924	0.14531	-9.60955	0.00159357	0.0051707	-0.0046676	-0.301025	0.123535	1.13501	
31	0.166712	0.154268	-0.973856	0.00362803	2.72236	0.457305	-8.09902	-0.00152287	-0.0114571	-0.00275889	-0.4375	-0.364502	1.17749	0.216861	0.106759	-0.9694	0.0428666	4.23681	-0.280486	-8.69375	-0.0167282	0.0198871	-0.0192847	-0.588623	-0.126221	0.887451	0.989832	-0.0106241	-0.138755	0.0294515	3.27275	-0.352908	10.2582	0.0260418	-0.00727103	-0.000154925	-0.244385	-0.0959473	-1.21777	0.91356	0.403898	0.00323545	0.047586	0.325247	7.22854	6.61138	-0.0326505	0.00244324	0.00171378	0.510254	-0.999756	-0.893799	0.931961	0.196658	-0.147451	0.266518	3.68657	2.76658	8.68663	0.00735242	0.00365027	-0.0161534	-0.108643	-0.594971	-0.984863	-0.909302	0.41083	0.0448119	-0.0487879	0.743221	-8.96756	7.61781	0.0108469	0.0140416	-0.0195774	0.211914	0.871338	-0.94165	-0.447018	0.0708998	-0.891596	-0.0143117	-7.81791	0.00487568	-5.24264	0.00164606	0.00204052	-0.0130453	0.607422	-0.00830078	0.94165	0.850773	0.106941	-0.453012	0.243984	8.8458	-0.803041	5.7967	0.0113338	0.0145395	-0.0189116	-0.708008	0.097168	-0.790771	0.104996	-0.104034	0.985404	-0.0844524	-2.15315	-1.14345	-8.83175	0.00679373	0.00801368	-0.0193363	-0.1875	0.0964355	1.07642	0.893597	0.062342	-0.441444	0.0522077	8.21337	0.758802	6.14122	-0.0114137	-0.00366538	0.00801814	-0.628906	-0.135254	-0.947754	-0.0726071	-0.0678414	-0.994534	0.032063	-1.47104	0.146236	-9.61358	-0.00382244	0.0054185	-0.00556554	-0.296631	0.125732	1.14648	
32	0.166643	0.154332	-0.973858	0.00350863	2.7127	0.452297	-8.14943	-0.00600598	-0.00792724	-0.00590736	-0.430908	-0.362305	1.16455	0.216768	0.106737	-0.96942	0.0429333	4.23369	-0.24183	-8.65395	-0.00155331	0.00915517	-0.0225405	-0.584229	-0.126221	0.88501	0.989792	-0.0109606	-0.13898	0.0295931	3.27961	-0.264285	10.4294	-0.0388465	0.00340934	0.00294166	-0.23999	-0.09375	-1.21094	0.913453	0.404146	0.00326658	0.04754	0.279495	7.23645	6.612	0.0296358	0.00816063	0.00214393	0.508301	-1.00415	-0.891357	0.931935	0.196583	-0.147596	0.266585	3.71133	2.74976	8.74838	-0.0132511	-0.00431656	-0.0155181	-0.111084	-0.588379	-0.989258	-0.909266	0.410903	0.0448603	-0.0487945	0.738887	-8.86163	7.71639	-0.0042336	0.011736	-0.0147658	0.20752	0.869141	-0.933105	-0.447367	0.0706459	-0.891438	-0.0145405	-7.82101	0.005391	-5.24793	0.0135124	-0.00264372	-0.0182285	0.605469	-0.0124512	0.939697	0.850744	0.107148	-0.452995	0.244026	8.84743	-0.792887	5.79163	0.0229617	0.014818	-0.0229873	-0.708008	0.0949707	-0.786133	0.104996	-0.104034	0.985404	-0.0844524	-2.15315	-1.14345	-8.83175	0.00679373	0.00801368	-0.0193363	-0.1875	0.0964355	1.07642	0.89347	0.0620437	-0.441747	0.0521649	8.19305	0.734166	6.12754	-0.0102639	0.00247015	0.00859649	-0.626709	-0.135254	-0.945557	-0.0726088	-0.0678569	-0.994541	0.0317985	-1.47767	0.140001	-9.61104	-0.00635533	0.009811	-0.00491973	-0.30127	0.125732	1.13965	
33	0.166364	0.154525	-0.973876	0.0031532	2.71127	0.485115	-8.12991	-0.00732364	-0.0175356	-0.00984597	-0.433105	-0.364502	1.16895	0.216744	0.106728	-0.969425	0.0429668	4.24632	-0.235334	-8.66904	-0.00189036	0.0105391	-0.0223744	-0.582031	-0.128418	0.887451	0.989791	-0.0113794	-0.138986	0.0294624	3.22013	-0.381939	10.2256	-0.0343821	0.00814819	-0.0077457	-0.23999	-0.0915527	-1.21313	0.913471	0.404099	0.00319774	0.0475783	0.277351	7.3144	6.58809	-0.00227067	0.00237296	0.00589542	0.510254	-0.999756	-0.889404	0.931934	0.196278	-0.147879	0.266656	3.70729	2.71515	8.72315	-0.0124058	-0.00100486	-0.0174734	-0.113281	-0.590576	-0.987061	-0.90927	0.410891	0.0449828	-0.0487205	0.75963	-9.0097	7.60271	0.016834	0.01059	-0.020735	0.211914	0.869141	-0.933105	-0.447734	0.0703382	-0.891275	-0.0146758	-7.77097	0.01762	-5.15871	0.00810948	-0.00411659	-0.0127857	0.609863	-0.0124512	0.933105	0.850664	0.10737	-0.453086	0.244041	8.80689	-0.769747	5.78648	0.00859198	0.0105838	-0.0188432	-0.707764	0.0908203	-0.78833	0.104996	-0.104034	0.985404	-0.0844524	-2.15315	-1.14345	-8.83175	0.00679373	0.00801368	-0.0193363	-0.1875	0.0964355	1.07642	0.893383	0.0618839	-0.441945	0.0521659	8.20358	0.71199	6.12279	-0.0102403	-0.00322277	0.0106541	-0.619873	-0.137451	-0.938721	-0.0725822	-0.0678382	-0.994545	0.0317877	-1.46917	0.145646	-9.60613	0.00175433	0.00863962	-0.00653343	-0.30127	0.125732	1.13721	
34	0.166289	0.154667	-0.973867	0.00305355	2.7023	0.473938	-8.14637	-0.00167486	-0.00401285	-0.00597365	-0.430664	-0.366699	1.17334	0.216701	0.106648	-0.969449	0.0428371	4.17879	-0.256882	-8.63765	-0.0100453	0.00104164	-0.0236069	-0.584473	-0.124023	0.88501	0.989782	-0.0110017	-0.139052	0.029575	3.29165	-0.253819	10.3983	0.0151798	0.00515505	0.000307575	-0.237793	-0.0959473	-1.21313	0.91349	0.404051	0.00310518	0.0476279	0.315075	7.19424	6.60248	0.0126914	0.00540631	0.00407353	0.510254	-0.999756	-0.893799	0.931882	0.196276	-0.147976	0.266785	3.73149	2.72621	8.74422	0.000878215	0.00467405	-0.0168831	-0.111328	-0.586182	-0.987061	-0.909302	0.410817	0.0450395	-0.0486937	0.764023	-8.9201	7.66962	-0.00737165	0.0137421	-0.0141412	0.211914	0.871338	-0.935303	-0.447966	0.0699583	-0.891186	-0.014846	-7.82727	0.0374182	-5.24704	0.0195192	0.00408639	-0.0120339	0.611816	-0.010498	0.94165	0.850602	0.107446	-0.453152	0.244099	8.83487	-0.779132	5.80888	0.010755	0.0160394	-0.018512	-0.709961	0.0905762	-0.78125	0.104996	-0.104034	0.985404	-0.0844524	-2.15315	-1.14345	-8.83175	0.00679373	0.00801368	-0.0193363	-0.1875	0.0964355	1.07642	0.893312	0.0619635	-0.442068	0.0522524	8.20835	0.752329	6.14922	0.00715511	0.0112012	0.00579765	-0.626709	-0.130859	-0.943359	-0.0726301	-0.0678312	-0.994545	0.0316718	-1.47925	0.147426	-9.61106	-0.00447171	0.00483204	-0.00432411	-0.303467	0.12793	1.14185	
35	0.166359	0.154769	-0.973839	0.00311577	2.71371	0.474485	-8.10157	0.00603434	0.00503824	-0.0021292	-0.432861	-0.366699	1.17114	0.216516	0.106493	-0.96951	0.0427884	4.22917	-0.260644	-8.70302	-0.00587411	0.00971367	-0.0156292	-0.580078	-0.124023	0.889648	0.989806	-0.0113527	-0.138877	0.0294715	3.26254	-0.401564	10.2041	0.00588222	0.0120448	-0.00227704	-0.23999	-0.0981445	-1.21533	0.913609	0.403775	0.0031031	0.0476965	0.31288	7.29625	6.59737	-0.0300795	0.00634291	0.000904344	0.507812	-0.995361	-0.889404	0.931848	0.196446	-0.147655	0.266958	3.70761	2.72328	8.70489	0.00354337	0.015837	-0.0208896	-0.113525	-0.583984	-0.987061	-0.909278	0.410876	0.0449758	-0.0487044	0.765869	-8.92461	7.65292	0.00369115	0.0158578	-0.0107656	0.211914	0.871338	-0.930908	-0.448394	0.0696823	-0.890986	-0.0151784	-7.81191	0.00720543	-5.13187	0.00129472	-0.00992709	-0.0128553	0.607666	-0.0124512	0.94165	0.850553	0.107398	-0.453264	0.244084	8.83818	-0.768888	5.78557	0.00378025	0.0138084	-0.0169168	-0.703613	0.0949707	-0.786133	0.104996	-0.104034	0.985404	-0.0844524	-2.15315	-1.14345	-8.83175	0.00679373	0.00801368	-0.0193363	-0.1875	0.0964355	1.07642	0.893283	0.0618865	-0.442132	0.0522953	8.17897	0.73505	6.11655	0.000302641	0.0128821	0.00849763	-0.620117	-0.130859	-0.936523	-0.0725402	-0.0677931	-0.994559	0.0315438	-1.47715	0.154869	-9.60839	-0.00378415	0.00707698	-0.00381138	-0.303467	0.12793	1.13501	
36	0.166567	0.154864	-0.973788	0.00305542	2.72717	0.464718	-8.13944	-0.00296985	0.00590035	-0.0054926	-0.433105	-0.364502	1.17114	0.216277	0.106391	-0.969572	0.0428272	4.2424	-0.231497	-8.68935	-0.00560216	0.00161692	-0.0223291	-0.582031	-0.130615	0.892334	0.989804	-0.0110013	-0.138894	0.0295901	3.27159	-0.306713	10.4084	0.0290934	0.00530186	0.00301149	-0.235596	-0.0983887	-1.21069	0.913729	0.403509	0.00312395	0.0476408	0.302557	7.11921	6.63297	-0.0211709	0.00677744	-0.00421546	0.512207	-0.997314	-0.893799	0.931874	0.196259	-0.147512	0.267082	3.71725	2.76286	8.76259	-0.0111266	0.0170217	-0.0194544	-0.111084	-0.588379	-0.993896	-0.909313	0.410803	0.0448564	-0.0487734	0.75369	-8.96414	7.61709	0.015273	0.0185801	-0.0106021	0.211914	0.869141	-0.933105	-0.448688	0.0692729	-0.890872	-0.0150944	-7.80698	0.0219046	-5.21914	0.0191288	0.00903166	-0.0150356	0.611816	-0.010498	0.94165	0.850531	0.107254	-0.453336	0.244091	8.82141	-0.784061	5.80162	0.00230781	0.0194494	-0.0155024	-0.708008	0.0927734	-0.785889	0.104996	-0.104034	0.985404	-0.0844524	-2.15315	-1.14345	-8.83175	0.00679373	0.00801368	-0.0193363	-0.1875	0.0964355	1.07642	0.893256	0.0619564	-0.44217	0.052359	8.21056	0.747258	6.1	0.00902097	0.00965786	0.00576573	-0.626465	-0.137451	-0.940918	-0.0725048	-0.0677889	-0.994563	0.0314869	-1.47794	0.157959	-9.5976	-0.00205466	0.00942795	-0.00514506	-0.301025	0.123535	1.13721	
37	0.166669	0.154978	-0.973753	0.0030354	2.71483	0.472845	-8.13972	0.000155056	0.00345946	-0.00451666	-0.428467	-0.366455	1.16895	0.216122	0.106326	-0.96961	0.0429261	4.22834	-0.247787	-8.65652	-0.00523606	0.00342515	-0.0218987	-0.582031	-0.126221	0.887451	0.989842	-0.0113545	-0.138615	0.0294974	3.23385	-0.307124	10.3565	-0.00543052	0.0125044	-0.00427606	-0.233398	-0.0983887	-1.21313	0.913678	0.403617	0.00322551	0.0476919	0.324661	7.23615	6.62103	-0.00557173	0.00641716	0.00133081	0.514648	-0.997314	-0.893799	0.931799	0.196462	-0.147302	0.267312	3.66296	2.76377	8.70376	0.00546652	0.00810792	-0.0144684	-0.113525	-0.586182	-0.991699	-0.909447	0.410515	0.0448162	-0.0487379	0.729396	-8.91987	7.65331	0.0108974	0.0147057	-0.0151081	0.218506	0.864746	-0.930908	-0.448998	0.0689158	-0.890741	-0.0152088	-7.80987	0.0294023	-5.19673	0.0183684	-0.00410541	-0.0139969	0.605469	-0.010498	0.9375	0.850669	0.107141	-0.453176	0.243956	8.83054	-0.773897	5.78697	-0.00210447	0.01778	-0.0139366	-0.710205	0.0949707	-0.790771	0.104996	-0.104034	0.985404	-0.0844524	-2.15315	-1.14345	-8.83175	0.00679373	0.00801368	-0.0193363	-0.1875	0.0964355	1.07642	0.893357	0.0620387	-0.441933	0.0525247	8.19914	0.726855	6.15676	0.00291584	0.0191786	0.00777245	-0.624268	-0.135254	-0.938721	-0.0724425	-0.067727	-0.994572	0.0314956	-1.46601	0.152173	-9.62075	0.0031266	0.00568608	-0.00535041	-0.30127	0.125732	1.13965	
38	0.166664	0.155075	-0.973738	0.00308749	2.73016	0.474081	-8.12853	0.00508865	-0.0059092	-0.00240357	-0.430908	-0.364502	1.17554	0.215988	0.106328	-0.969644	0.0428183	4.24511	-0.221617	-8.71182	-0.0118629	0.000433854	-0.0248489	-0.58667	-0.121826	0.889648	0.989822	-0.0110849	-0.138754	0.0296171	3.25032	-0.305002	10.3718	0.00876544	-0.000898481	0.00351106	-0.237793	-0.0917969	-1.21094	0.913757	0.403435	0.00328679	0.0477158	0.305929	7.1865	6.63	-0.00421767	0.010002	0.00303817	0.512207	-0.995117	-0.893799	0.931707	0.196416	-0.147404	0.267608	3.68098	2.68858	8.75316	-0.00216104	0.00594313	-0.00850463	-0.111084	-0.590576	-0.993896	-0.909506	0.410375	0.0448815	-0.0487524	0.722756	-8.94342	7.65854	0.00323984	0.0121374	-0.0171221	0.211914	0.866943	-0.94165	-0.448933	0.0686071	-0.890796	-0.0153177	-7.82216	0.00658753	-5.19466	0.0123047	0.0129019	-0.0150372	0.614014	-0.00830078	0.94165	0.85062	0.107152	-0.453146	0.244178	8.80775	-0.802662	5.81643	0.0125359	0.0209469	-0.0119431	-0.7146	0.0993652	-0.790771	0.104996	-0.104034	0.985404	-0.0844524	-2.15315	-1.14345	-8.83175	0.00679373	0.00801368	-0.0193363	-0.1875	0.0964355	1.07642	0.893363	0.0619427	-0.441937	0.0525188	8.20351	0.742204	6.14831	-0.00563062	0.01385	0.00662859	-0.62207	-0.135254	-0.936523	-0.0724723	-0.0677188	-0.994571	0.0314789	-1.46805	0.162655	-9.6284	0.000982297	0.00422932	-0.00550196	-0.301025	0.121338	1.14429	
39	0.166669	0.155226	-0.973713	0.0031589	2.71854	0.464842	-8.13985	0.00406042	0.00221644	-0.00532637	-0.433105	-0.362305	1.17334	0.216119	0.106484	-0.969601	0.0427423	4.19306	-0.330015	-8.70386	-0.00778624	0.00611994	-0.022068	-0.575439	-0.128418	0.88501	0.98982	-0.0111686	-0.138754	0.0296606	3.29087	-0.326354	10.3386	-0.00353978	0.00601293	-0.000330028	-0.237793	-0.0961914	-1.2085	0.913644	0.403687	0.00337901	0.0477392	0.313514	7.26045	6.60092	0.0128214	0.00820538	-0.000882779	0.514648	-0.999512	-0.893799	0.931639	0.196544	-0.147436	0.267735	3.6894	2.71521	8.71146	0.00717121	0.000916866	-0.0125624	-0.113281	-0.590576	-0.987061	-0.909494	0.410389	0.0449692	-0.0487745	0.749188	-8.94653	7.63444	0.00085557	0.00841576	-0.0154086	0.214111	0.866943	-0.935059	-0.448933	0.0686071	-0.890796	-0.0153177	-7.82216	0.00658753	-5.19466	0.0123047	0.0129019	-0.0150372	0.614014	-0.00830078	0.94165	0.850603	0.107052	-0.453147	0.244278	8.83867	-0.764046	5.82849	0.00436174	0.01922	-0.0165452	-0.705811	0.097168	-0.786133	0.104996	-0.104034	0.985404	-0.0844524	-2.15315	-1.14345	-8.83175	0.00679373	0.00801368	-0.0193363	-0.1875	0.0964355	1.07642	0.893393	0.0616586	-0.44191	0.0525558	8.21974	0.69761	6.14529	0.00361633	0.0152887	0.00579114	-0.624512	-0.130859	-0.941162	-0.0724472	-0.0676548	-0.994576	0.0315101	-1.47028	0.156191	-9.60961	0.00255495	0.00415067	-0.0051384	-0.296631	0.123535	1.13721	
40	0.166644	0.155328	-0.9737	0.00330122	2.71779	0.470764	-8.10042	0.00914203	-0.00812975	-0.00108043	-0.437256	-0.366699	1.16895	0.21557	0.106402	-0.969739	0.0426053	4.32275	-0.213286	-8.77242	0.00254769	-0.0116098	-0.00874477	-0.584229	-0.128418	0.894531	0.989836	-0.0109616	-0.138645	0.0296891	3.15091	-0.415473	10.2469	0.0279894	0.00857518	-0.00619151	-0.237793	-0.0959473	-1.21533	0.913733	0.403485	0.00339786	0.0477586	0.260371	7.2585	6.59462	-0.0129812	0.00461833	0.0053685	0.507812	-0.997559	-0.889404	0.93159	0.196542	-0.14734	0.267959	3.72907	2.74543	8.73853	-0.00880432	0.0165039	-0.0161266	-0.106934	-0.586182	-0.989258	-0.909601	0.410146	0.044986	-0.0488131	0.764145	-8.91535	7.65223	0.0140836	0.01441	-0.0101899	0.211914	0.869141	-0.933105	-0.448984	0.0683206	-0.890797	-0.0150683	-7.83964	-0.000296616	-5.27782	0.0135693	0.0405203	-0.0171413	0.607666	-0.010498	0.939453	0.850593	0.107084	-0.453156	0.244284	8.83027	-0.775721	5.8244	0.0088979	0.0169341	-0.0195913	-0.718994	0.097168	-0.78833	0.103909	-0.108094	0.984857	-0.0870344	-2.15125	-1.15249	-8.83246	0.00890484	0.00433935	-0.0197773	-0.189697	0.0964355	1.08081	0.893322	0.0615571	-0.442062	0.0526181	8.17267	0.739573	6.11561	0.00198566	0.0103989	0.00759906	-0.622314	-0.133057	-0.943359	-0.072303	-0.0675406	-0.994597	0.0314373	-1.46921	0.15833	-9.61347	-0.00100804	0.00619946	-0.00473816	-0.30127	0.12793	1.14185	
41	0.166536	0.155351	-0.973715	0.0032646	2.71449	0.442867	-8.15121	0.00037059	-0.0104249	-0.00144037	-0.433105	-0.362305	1.16675	0.21575	0.106241	-0.969721	0.0424956	4.21293	-0.32289	-8.62159	-0.0173	0.0262193	-0.0135726	-0.58667	-0.121826	0.889648	0.989823	-0.0104147	-0.138756	0.0298101	3.31729	-0.276917	10.4089	0.0445171	-0.00264848	0.00129161	-0.235596	-0.102539	-1.21753	0.913824	0.403283	0.00335445	0.0477166	0.330462	7.15411	6.63998	-0.0158648	0.00221531	-0.0011341	0.51001	-0.995361	-0.893799	0.931684	0.196373	-0.14718	0.267843	3.65613	2.75087	8.70813	-0.00785593	0.00971406	-0.0164681	-0.109131	-0.586182	-0.989258	-0.909589	0.410194	0.0449332	-0.0486848	0.720956	-8.89287	7.70986	-0.00057426	0.0114614	-0.0104711	0.209717	0.869141	-0.937256	-0.449142	0.0680079	-0.890736	-0.0153306	-7.7269	0.0381733	-5.12793	0.0143636	0.0187662	-0.0137046	0.614502	-0.019043	0.937744	0.85063	0.10696	-0.453215	0.244101	8.79532	-0.78962	5.78662	-0.00472478	0.00867072	-0.013538	-0.703613	0.0908203	-0.790771	0.103909	-0.108094	0.984857	-0.0870344	-2.15125	-1.15249	-8.83246	0.00890484	0.00433935	-0.0197773	-0.189697	0.0964355	1.08081	0.893273	0.0616475	-0.442152	0.0525794	8.16823	0.686905	6.13591	0.00656602	0.00438407	-0.00173361	-0.622314	-0.130859	-0.936523	-0.0722975	-0.0675706	-0.994597	0.0313692	-1.47343	0.147923	-9.61846	-0.00286002	0.00744645	-0.00237905	-0.296631	0.125732	1.13965	
42	0.166201	0.155468	-0.973753	0.00350077	2.70474	0.470295	-8.1523	0.02094	-0.0128663	0.000455458	-0.43335	-0.360107	1.17529	0.21572	0.10616	-0.969731	0.0426254	4.23622	-0.224504	-8.78697	-0.00176583	0.017734	-0.0183257	-0.584473	-0.121826	0.887207	0.989787	-0.010043	-0.139015	0.0299256	3.23738	-0.380053	10.2554	0.0258978	-0.00626706	-0.00419811	-0.237549	-0.104736	-1.21069	0.913689	0.403577	0.00343281	0.0478205	0.280572	7.32563	6.56319	0.00425529	0.00966217	0.00672832	0.51001	-0.995117	-0.898193	0.931577	0.196718	-0.147189	0.26796	3.74312	2.67819	8.79725	0.0372749	0.00740556	-0.0191504	-0.108887	-0.588379	-0.980225	-0.909491	0.410399	0.0450854	-0.0486474	0.749115	-8.98563	7.61307	0.00327298	0.0130309	-0.021799	0.209961	0.866943	-0.933105	-0.449256	0.067751	-0.890698	-0.0153732	-7.8804	0.000273715	-5.38835	0.0166296	0.0390845	-0.0161773	0.607666	-0.0124512	0.94165	0.850518	0.106759	-0.45345	0.244142	8.84545	-0.799761	5.81815	-0.000145206	0.0112411	-0.0176931	-0.710205	0.097168	-0.783691	0.103836	-0.10831	0.984822	-0.0872456	-2.14967	-1.17025	-8.82039	0.0100192	0.00662877	-0.0209	-0.185059	0.098877	1.06519	0.893219	0.0619769	-0.442204	0.0526731	8.25725	0.748681	6.15355	0.0112582	0.0081673	0.00722678	-0.628906	-0.135254	-0.934082	-0.0723543	-0.0675039	-0.994593	0.0315136	-1.46456	0.159972	-9.61449	0.00666975	0.000722012	-0.00558592	-0.296631	0.125732	1.14185	
43	0.166016	0.155547	-0.973772	0.00347883	2.7144	0.443173	-8.12432	-0.00480945	-0.0080547	-0.005244	-0.428711	-0.364258	1.16895	0.215616	0.106	-0.969782	0.0423949	4.21372	-0.237158	-8.67708	-0.022246	0.00150463	-0.0194473	-0.582031	-0.130615	0.889893	0.989753	-0.00927497	-0.139264	0.0301395	3.29748	-0.217072	10.4496	0.00659775	-0.00540671	0.00754866	-0.241943	-0.104736	-1.21509	0.913853	0.403197	0.0033784	0.0478894	0.29812	7.15461	6.62269	-0.00179272	0.00706387	0.00342276	0.510254	-0.999756	-0.893799	0.931394	0.197389	-0.146954	0.268232	3.68001	2.84073	8.72519	-0.00254953	0.00188434	-0.0148917	-0.109131	-0.586182	-0.987061	-0.909462	0.410475	0.04507	-0.0485479	0.721456	-8.91146	7.68552	-0.00485424	0.0164359	-0.0148077	0.209961	0.866943	-0.937256	-0.449263	0.067406	-0.890717	-0.0155602	-7.82721	0.00879505	-5.23137	0.0131535	0.0124799	-0.0139778	0.609863	-0.0124512	0.94165	0.850437	0.106884	-0.45353	0.244219	8.83432	-0.797168	5.79676	0.0254177	0.0132588	-0.0202608	-0.699463	0.0952148	-0.792969	0.103915	-0.108512	0.984781	-0.087367	-2.15873	-1.16704	-8.82962	0.00696765	0.000448059	-0.0195383	-0.18042	0.098877	1.07861	0.893062	0.0618923	-0.442533	0.0526778	8.2175	0.724051	6.09871	-0.00833538	-0.000489319	0.00557813	-0.62207	-0.135254	-0.938721	-0.0724659	-0.0674773	-0.994585	0.0315467	-1.4795	0.171997	-9.58446	0.00111146	0.00268379	-0.00547543	-0.30127	0.125732	1.13037	
44	0.165842	0.155747	-0.973771	0.00309418	2.70214	0.45069	-8.1455	-0.00986061	-0.0117974	-0.0104044	-0.430908	-0.364502	1.17554	0.215636	0.105808	-0.969789	0.0425915	4.24893	-0.258549	-8.67344	0.00182578	0.026053	-0.0111962	-0.584229	-0.128418	0.89209	0.989738	-0.0105727	-0.139325	0.0299237	3.24533	-0.367754	10.2795	-0.0410134	0.0047066	-0.00679166	-0.242188	-0.0981445	-1.21997	0.913837	0.403236	0.00327749	0.0478656	0.298262	7.25498	6.60324	-0.000495251	-0.000786394	0.0023493	0.507812	-0.997559	-0.895996	0.931474	0.196717	-0.147405	0.268199	3.72365	2.68554	8.76291	-0.0280962	-0.0016677	-0.0161879	-0.111328	-0.583984	-0.989258	-0.909417	0.410574	0.0451278	-0.048501	0.747137	-8.9562	7.61139	0.000392429	0.0166043	-0.0191685	0.211914	0.866943	-0.933105	-0.449367	0.0670247	-0.890695	-0.015477	-7.7601	0.0443233	-5.1243	0.0215998	0.0147126	-0.0159382	0.609619	-0.00830078	0.939453	0.850439	0.106982	-0.453462	0.244297	8.80056	-0.756409	5.74823	0.00612885	0.021575	-0.0170354	-0.709961	0.088623	-0.783691	0.103915	-0.108512	0.984781	-0.087367	-2.15873	-1.16704	-8.82962	0.00696765	0.000448059	-0.0195383	-0.18042	0.098877	1.07861	0.893032	0.0618048	-0.442611	0.0526321	8.212	0.756708	6.0948	-0.00366509	0.0109887	0.00270981	-0.626709	-0.133057	-0.931885	-0.0724796	-0.0674941	-0.994585	0.0314961	-1.48064	0.145743	-9.61005	-0.00158105	0.0056803	-0.0033069	-0.30127	0.125732	1.13721	
45	0.165722	0.155862	-0.973773	0.00294106	2.69948	0.472063	-8.11645	0.00169475	-0.00313235	-0.00368859	-0.431152	-0.360107	1.17529	0.21551	0.10575	-0.969824	0.0425847	4.18428	-0.214509	-8.70703	-0.00127498	-4.54213e-05	-0.0228105	-0.584473	-0.124023	0.88501	0.989704	-0.010356	-0.139553	0.030059	3.29347	-0.289929	10.3129	0.0208854	-0.00306822	0.00281774	-0.241943	-0.100342	-1.2085	0.913927	0.403038	0.00325372	0.0478304	0.306117	7.15662	6.62449	-0.00325242	0.0079027	-0.000185605	0.512451	-0.999512	-0.895996	0.9314	0.196644	-0.147533	0.268438	3.70512	2.72505	8.66153	-0.00131819	-0.000237473	-0.0102857	-0.113281	-0.586182	-0.987061	-0.909451	0.410498	0.045187	-0.0484647	0.740732	-8.93117	7.67148	0.00742603	0.0111186	-0.0150551	0.211914	0.871338	-0.930908	-0.448869	0.0666209	-0.89098	-0.0152475	-7.82631	0.0209071	-5.21325	0.028535	0.0410586	-0.0180191	0.607666	-0.010498	0.943848	0.850443	0.106802	-0.453494	0.244301	8.84868	-0.778268	5.80101	-0.0019013	0.0194352	-0.0157584	-0.710205	0.0949707	-0.790771	0.103915	-0.108512	0.984781	-0.087367	-2.15873	-1.16704	-8.82962	0.00696765	0.000448059	-0.0195383	-0.18042	0.098877	1.07861	0.893094	0.0619356	-0.442469	0.0526101	8.22262	0.736167	6.11986	0.00466954	0.0228244	0.0011481	-0.620117	-0.133057	-0.938721	-0.0725666	-0.0674557	-0.994581	0.0315029	-1.47898	0.157123	-9.60439	0.00326719	0.000850211	-0.00585046	-0.298828	0.123535	1.13501	
46	0.165984	0.155881	-0.973725	0.00303972	2.71507	0.470959	-8.16373	0.00402903	0.0112928	0.000382485	-0.430664	-0.366699	1.17114	0.215782	0.105445	-0.969798	0.042551	4.15161	-0.290042	-8.63041	-0.0217175	0.0299538	-0.0133532	-0.582275	-0.124023	0.896729	0.989705	-0.0104104	-0.13956	0.0299634	3.3283	-0.31984	10.3002	-0.000907839	0.00916292	-0.00912886	-0.237793	-0.0981445	-1.21313	0.913959	0.402958	0.00324327	0.0478885	0.307473	7.31923	6.58728	-0.0150127	0.00495761	0.000958277	0.514648	-0.999512	-0.891602	0.931253	0.196929	-0.147277	0.26888	3.74609	2.73487	8.73672	0.0156874	0.0214831	-0.00623704	-0.113281	-0.590576	-0.989258	-0.90946	0.410484	0.0451497	-0.0484485	0.755587	-8.98032	7.61869	0.0039928	0.0185664	-0.0140874	0.214111	0.866943	-0.935059	-0.448688	0.0662336	-0.8911	-0.0152847	-7.80161	0.0258771	-5.19627	0.0148753	0.0168998	-0.0112609	0.612061	-0.0146484	0.939697	0.850452	0.106602	-0.453495	0.244354	8.8354	-0.778452	5.78266	0.00280851	0.0204176	-0.0122033	-0.712402	0.0993652	-0.793213	0.103915	-0.108512	0.984781	-0.087367	-2.15873	-1.16704	-8.82962	0.00696765	0.000448059	-0.0195383	-0.18042	0.098877	1.07861	0.893164	0.061904	-0.442331	0.0526331	8.19478	0.733429	6.12889	0.00130466	0.0201625	0.00565849	-0.622314	-0.133057	-0.941162	-0.0725669	-0.0674736	-0.994581	0.0314701	-1.47663	0.155954	-9.60477	0.00121823	0.00772235	-0.00439097	-0.303223	0.121338	1.14185	
47	0.166147	0.155931	-0.973689	0.00313148	2.7147	0.468437	-8.12404	0.007335	0.0129093	-0.00253411	-0.435547	-0.360107	1.1731	0.215623	0.10537	-0.969843	0.0425331	4.1873	-0.275722	-8.62935	-0.00623698	-0.000499251	-0.0169366	-0.586426	-0.128418	0.887451	0.989742	-0.0103478	-0.139311	0.0299422	3.28084	-0.270993	10.3878	-0.00412272	0.0205235	-0.00153276	-0.237793	-0.100342	-1.21069	0.914107	0.402622	0.00334679	0.0478874	0.298636	7.08543	6.67081	0.00876365	0.0133153	0.00134968	0.51001	-0.997559	-0.891602	0.931253	0.196802	-0.147171	0.269029	3.68134	2.79833	8.6772	-0.00952692	0.0180985	-0.0114796	-0.115479	-0.590576	-0.993896	-0.909505	0.410383	0.0451008	-0.0484929	0.73059	-8.94122	7.6488	0.0121282	0.0170485	-0.00977841	0.213867	0.871338	-0.939453	-0.448581	0.0660147	-0.891172	-0.0151493	-7.78656	0.0199853	-5.17379	0.0283114	0.024959	-0.016411	0.612061	-0.0124512	0.943848	0.850462	0.106511	-0.453481	0.244389	8.83177	-0.764597	5.81291	0.00270127	0.0220736	-0.0137735	-0.714355	0.0949707	-0.786133	0.103915	-0.108512	0.984781	-0.087367	-2.15873	-1.16704	-8.82962	0.00696765	0.000448059	-0.0195383	-0.18042	0.098877	1.07861	0.893202	0.0619499	-0.442244	0.05266	8.19267	0.716905	6.11838	0.00607846	0.0207383	0.00327907	-0.626709	-0.135254	-0.936523	-0.072569	-0.0674787	-0.994579	0.0314977	-1.45901	0.169742	-9.60271	0.00501166	0.00607836	-0.00455922	-0.301025	0.121338	1.13965	
48	0.166461	0.156043	-0.973617	0.0032393	2.72505	0.478319	-8.17061	0.00580675	0.00936577	-0.0026622	-0.433105	-0.362305	1.17114	0.215579	0.105289	-0.969857	0.0426261	4.22062	-0.233367	-8.61116	0.00112696	0.0167308	-0.0203615	-0.582275	-0.124023	0.88501	0.989767	-0.0106139	-0.139133	0.0298274	3.2306	-0.341448	10.3267	-0.0219368	0.0228255	-0.00841715	-0.233398	-0.0961914	-1.2085	0.914009	0.40284	0.00341968	0.0479194	0.293715	7.27347	6.61222	0.0213205	0.01153	0.0013644	0.514648	-0.999512	-0.898193	0.931247	0.196431	-0.147137	0.269341	3.73996	2.74432	8.77041	-0.0118726	0.0132582	-0.0116052	-0.109131	-0.581787	-0.987061	-0.909479	0.410418	0.0451627	-0.0486227	0.752853	-8.93855	7.64305	-0.00187308	0.0120295	-0.0106198	0.214355	0.860352	-0.930664	-0.448036	0.065562	-0.891485	-0.0148357	-7.72134	0.0190734	-5.19835	0.0239101	0.0519048	-0.0134448	0.605469	-0.0124512	0.935303	0.85042	0.106046	-0.453633	0.244452	8.80564	-0.785827	5.81534	-0.0114607	0.0177764	-0.00317534	-0.708008	0.097168	-0.783691	0.103915	-0.108512	0.984781	-0.087367	-2.15873	-1.16704	-8.82962	0.00696765	0.000448059	-0.0195383	-0.18042	0.098877	1.07861	0.893291	0.0622792	-0.442011	0.0527082	8.19553	0.754062	6.11685	0.0146174	0.0222475	-0.00235443	-0.626709	-0.133057	-0.938721	-0.0726502	-0.0674766	-0.994571	0.0315932	-1.46964	0.170964	-9.62921	0.00504645	0.00364525	-0.00629771	-0.298828	0.121338	1.13965	
49	0.166536	0.156145	-0.973587	0.0034386	2.70943	0.455116	-8.11347	0.00605045	0.00505437	-0.00274655	-0.433105	-0.364502	1.17969	0.215613	0.105125	-0.969875	0.0424428	4.23603	-0.259494	-8.72978	-0.0131469	0.0121406	-0.0183739	-0.584473	-0.124023	0.889648	0.989799	-0.0096457	-0.13895	0.0299518	3.24659	-0.25162	10.3786	-0.016892	0.0191885	-0.00829674	-0.233398	-0.100586	-1.21069	0.914148	0.402519	0.00360068	0.0479358	0.27995	7.22361	6.64409	0.00901627	0.0118157	0.00219218	0.51001	-0.997314	-0.895996	0.93129	0.196099	-0.14708	0.269464	3.67727	2.68845	8.73486	-0.012683	0.00812875	-0.0151046	-0.111084	-0.588379	-0.984863	-0.909564	0.410224	0.0451148	-0.0487248	0.70019	-8.89641	7.6711	0.00772149	0.015043	-0.011537	0.214111	0.871338	-0.930908	-0.447303	0.0651181	-0.891889	-0.0146438	-7.81566	0.00551503	-5.28259	0.0330204	0.0498249	-0.0148655	0.605225	-0.00830078	0.947998	0.850353	0.105484	-0.453862	0.244503	8.83104	-0.801636	5.80637	-0.0155998	0.016534	-0.00445992	-0.708008	0.097168	-0.779053	0.103915	-0.108512	0.984781	-0.087367	-2.15873	-1.16704	-8.82962	0.00696765	0.000448059	-0.0195383	-0.18042	0.098877	1.07861	0.893326	0.062592	-0.441892	0.0527433	8.21689	0.748369	6.12473	0.01118	0.0173552	-0.00257242	-0.626709	-0.133057	-0.938721	-0.0727551	-0.0674933	-0.994561	0.0316107	-1.48159	0.155329	-9.6183	0.00321913	0.00449757	-0.00324024	-0.294189	0.121338	1.13281	
50	0.166734	0.156295	-0.97353	0.00348039	2.73535	0.461597	-8.13998	0.00350128	0.00287676	-0.00533403	-0.430908	-0.362305	1.17114	0.215693	0.105089	-0.969866	0.042347	4.22315	-0.266543	-8.68359	-0.0169176	0.0232781	-0.0232204	-0.582031	-0.128418	0.882812	0.989813	-0.00958212	-0.138873	0.0298643	3.27081	-0.378541	10.2599	0.0043185	0.0138188	-0.00972624	-0.233398	-0.0983887	-1.2085	0.914197	0.402412	0.00363654	0.0479139	0.294863	7.2401	6.62913	-0.00722401	0.00841316	-0.0019432	0.509766	-0.990967	-0.893799	0.931216	0.196004	-0.147001	0.269832	3.68825	2.77886	8.72961	-0.0124952	0.0117315	-0.00756147	-0.109131	-0.583984	-0.991699	-0.909649	0.410043	0.0451255	-0.0486607	0.730288	-8.93108	7.66066	0.0154654	0.0155862	-0.0180079	0.211914	0.871338	-0.935303	-0.446651	0.0647348	-0.892246	-0.0144349	-7.75351	-0.0221633	-5.24477	0.0209009	0.0417089	-0.0161546	0.603271	-0.010498	0.939453	0.850305	0.10519	-0.454008	0.244526	8.80525	-0.818275	5.82028	-0.00535685	0.0146321	-0.0148819	-0.705811	0.0949707	-0.783691	0.103915	-0.108512	0.984781	-0.087367	-2.15873	-1.16704	-8.82962	0.00696765	0.000448059	-0.0195383	-0.18042	0.098877	1.07861	0.893352	0.0627473	-0.441824	0.0526922	8.20062	0.73079	6.12679	0.00578474	0.0192112	-0.00119838	-0.626709	-0.135254	-0.938721	-0.0728146	-0.0674953	-0.994557	0.0315943	-1.46159	0.158205	-9.60864	0.00122484	0.00235431	-0.00457936	-0.301025	0.121338	1.13501	
51	0.166797	0.156448	-0.973494	0.00351214	2.72758	0.472376	-8.14013	0.00427106	0.00523563	-0.00403102	-0.435547	-0.355713	1.1731	0.215666	0.104997	-0.969881	0.0423629	4.20833	-0.250065	-8.704	-0.0091142	0.0160076	-0.019878	-0.584473	-0.124023	0.887207	0.989835	-0.00939226	-0.13874	0.0298229	3.24788	-0.245617	10.3956	0.00755686	0.00900813	-0.00359138	-0.237793	-0.0981445	-1.21533	0.914142	0.402525	0.00375535	0.0480092	0.281038	7.18134	6.62737	0.00629806	0.00876042	0.00226324	0.507812	-0.997559	-0.895996	0.93123	0.195622	-0.147177	0.269966	3.71466	2.69222	8.76765	-0.00498568	0.00468345	-0.0105626	-0.111084	-0.590576	-0.989258	-0.909594	0.410162	0.0451305	-0.0486688	0.726489	-8.91088	7.65173	-0.00848989	0.0159289	-0.0137842	0.216064	0.871338	-0.935303	-0.445894	0.0643414	-0.892655	-0.0143301	-7.7638	-0.00147758	-5.27699	0.0177862	0.0550295	-0.013304	0.601074	-0.010498	0.946045	0.850323	0.104804	-0.454042	0.244566	8.81933	-0.815013	5.79216	-0.00424314	0.0230939	-0.00885337	-0.710205	0.0949707	-0.78833	0.102771	-0.111889	0.984374	-0.0890335	-2.15224	-1.16436	-8.82466	0.00633708	0.00537898	-0.0196052	-0.185059	0.0964355	1.07642	0.893449	0.0630234	-0.441584	0.0527286	8.20175	0.752068	6.14123	0.0115959	0.0166974	-0.00257056	-0.62207	-0.137451	-0.943115	-0.0728121	-0.0674197	-0.994566	0.0314819	-1.47885	0.159602	-9.61212	-0.00220866	0.00237313	-0.0034055	-0.298828	0.123535	1.15088	
52	0.16693	0.15651	-0.973461	0.00367675	2.72575	0.459267	-8.11087	0.0071525	0.00489584	0.000355365	-0.435303	-0.360107	1.16895	0.215776	0.104958	-0.969864	0.0423	4.18041	-0.241114	-8.65191	-0.0104576	0.0161322	-0.0221875	-0.579834	-0.128418	0.889893	0.989844	-0.0090124	-0.138735	0.0296785	3.27836	-0.324383	10.2734	0.0446378	0.00504952	-0.00536392	-0.229004	-0.10498	-1.21069	0.914294	0.402173	0.00381481	0.0480448	0.305468	7.18695	6.64261	-0.0182066	0.00849023	-0.0018535	0.514404	-0.995117	-0.891602	0.93107	0.196054	-0.146921	0.270344	3.72466	2.71444	8.70534	0.0213831	0.0116071	-0.0111644	-0.111084	-0.588379	-0.982422	-0.909671	0.410009	0.0450841	-0.0485724	0.750444	-8.91198	7.68203	0.0163385	0.0186438	-0.0153466	0.220459	0.869141	-0.935303	-0.44484	0.0639632	-0.893208	-0.0143323	-7.74811	-0.00631702	-5.27859	0.0176378	0.0616493	-0.0113778	0.592529	-0.0126953	0.950195	0.850311	0.10437	-0.454155	0.244584	8.84253	-0.816741	5.81129	-0.0122455	0.0160133	-0.0110101	-0.710205	0.0949707	-0.786133	0.102705	-0.1121	0.984339	-0.0892313	-2.15574	-1.16632	-8.81537	0.00956098	0.00641725	-0.0205664	-0.191895	0.0942383	1.06958	0.893433	0.0633303	-0.441574	0.0527209	8.20529	0.72063	6.12073	0.0179999	0.0135149	-0.00272885	-0.624268	-0.135254	-0.936523	-0.0728724	-0.067468	-0.994564	0.0313061	-1.467	0.154217	-9.62787	-0.00258566	0.00521293	-0.00354198	-0.294434	0.125732	1.13501	
53	0.167214	0.15656	-0.973403	0.00380088	2.73338	0.467405	-8.13847	0.00152692	0.00972431	-0.00219601	-0.435547	-0.35791	1.1731	0.215641	0.104817	-0.969918	0.0420949	4.23183	-0.251881	-8.67214	-0.0119936	0.00542036	-0.0193268	-0.586426	-0.128418	0.889893	0.989859	-0.00837446	-0.138634	0.0298156	3.24111	-0.26505	10.3561	0.00404552	0.0134444	-0.00619356	-0.233398	-0.104736	-1.21509	0.914234	0.402304	0.0039623	0.0480764	0.298831	7.26869	6.61247	0.00517196	0.0115758	0.000859725	0.507568	-0.993164	-0.893799	0.931024	0.196143	-0.146828	0.270488	3.6884	2.74028	8.72675	0.00675165	0.0115791	-0.0136016	-0.111084	-0.588379	-0.993896	-0.909643	0.410076	0.0449998	-0.0486056	0.731254	-8.95181	7.65775	-0.00393981	0.0169281	-0.0109268	0.212158	0.864746	-0.935059	-0.444224	0.063744	-0.893532	-0.014187	-7.74073	-0.0140226	-5.3264	0.0264078	0.0694845	-0.0146965	0.599121	-0.0126953	0.950195	0.850302	0.103969	-0.45427	0.244571	8.79322	-0.812646	5.82407	-0.00839752	0.0181905	-0.0108501	-0.705811	0.097168	-0.786133	0.102687	-0.11211	0.984332	-0.0893145	-2.14354	-1.17545	-8.81532	0.0119939	0.00835423	-0.0235792	-0.185059	0.098877	1.07642	0.893441	0.0638097	-0.441469	0.0528809	8.16033	0.775757	6.10885	0.0225709	0.0168138	0.00171365	-0.62207	-0.137451	-0.940918	-0.0727557	-0.0674317	-0.994579	0.03118	-1.4795	0.159766	-9.61489	-0.00359096	0.00846903	-0.00385196	-0.303223	0.123535	1.13965	
54	0.167339	0.156609	-0.973374	0.00377257	2.72392	0.459693	-8.13898	-0.00159937	0.00819478	-0.00417857	-0.435547	-0.360107	1.17114	0.215736	0.104626	-0.969926	0.0418865	4.23579	-0.23607	-8.65733	-0.0150952	0.0157909	-0.0175185	-0.583984	-0.130615	0.889893	0.989886	-0.00800844	-0.138462	0.0298303	3.20455	-0.29374	10.3135	0.0164213	0.0164312	-0.0120775	-0.235596	-0.100342	-1.21313	0.914367	0.402008	0.00405987	0.0480172	0.290685	7.18202	6.63622	-0.0117064	0.0062101	-0.00355219	0.512207	-0.995117	-0.898193	0.931146	0.195691	-0.146504	0.27057	3.67672	2.71711	8.73922	-0.0252161	0.0136283	-0.0124388	-0.106934	-0.581787	-0.989258	-0.909705	0.409946	0.0449251	-0.0486132	0.721626	-8.91674	7.67444	0.0126709	0.0179215	-0.0136467	0.216553	0.862549	-0.937256	-0.44294	0.0635944	-0.894186	-0.0138274	-7.69897	0.00521336	-5.31726	0.0182628	0.0653478	-0.0124006	0.590332	-0.00830078	0.954346	0.850251	0.103589	-0.45444	0.244594	8.79528	-0.79902	5.82645	-0.00846702	0.0161843	-0.0114985	-0.710693	0.105957	-0.783936	0.102687	-0.11211	0.984332	-0.0893145	-2.14354	-1.17545	-8.81532	0.0119939	0.00835423	-0.0235792	-0.185059	0.098877	1.07642	0.893441	0.0638097	-0.441469	0.0528809	8.16033	0.775757	6.10885	0.0225709	0.0168138	0.00171365	-0.62207	-0.137451	-0.940918	-0.0727557	-0.0674317	-0.994579	0.03118	-1.4795	0.159766	-9.61489	-0.00359096	0.00846903	-0.00385196	-0.303223	0.123535	1.13965	
55	0.167625	0.156727	-0.973307	0.00350801	2.75663	0.468324	-8.11554	-0.00262064	0.00338112	-0.00431482	-0.4375	-0.364502	1.17114	0.215798	0.104469	-0.969939	0.0416621	4.24944	-0.233739	-8.73512	-0.0165562	0.020022	-0.020398	-0.586182	-0.134766	0.892334	0.989896	-0.00826368	-0.138396	0.0297261	3.23514	-0.254352	10.3705	-0.0347888	0.0100427	-0.00807174	-0.237793	-0.102539	-1.21533	0.91428	0.402206	0.00405034	0.0480225	0.288969	7.27834	6.63199	0.00801329	0.00615488	0.00115462	0.516602	-0.99292	-0.893799	0.931132	0.195566	-0.146435	0.270745	3.69166	2.70691	8.78282	-0.00843017	0.0154029	-0.00709804	-0.109131	-0.586182	-0.984863	-0.909705	0.409954	0.0449	-0.0485728	0.719294	-8.87724	7.69592	0.00236475	0.0187282	-0.0166195	0.216309	0.869141	-0.935303	-0.441714	0.063359	-0.894819	-0.0131489	-7.71865	-0.0120507	-5.38805	0.0309843	0.063465	-0.0151073	0.594482	-0.00830078	0.950195	0.850221	0.103178	-0.454624	0.244531	8.80702	-0.828337	5.79475	-0.0125291	0.0152961	-0.0138347	-0.706055	0.101562	-0.788574	0.102532	-0.112752	0.984245	-0.0896414	-2.15082	-1.17806	-8.82522	-0.000808595	-0.000381304	-0.0169561	-0.185059	0.098877	1.07861	0.893712	0.0645548	-0.440814	0.0528695	8.20878	0.805221	6.15697	0.00856717	0.0186805	-0.00559221	-0.619629	-0.139648	-0.938721	-0.0726419	-0.0673411	-0.994592	0.0312402	-1.46862	0.168645	-9.61435	0.00198642	0.00797812	-0.00472927	-0.298828	0.121338	1.13965	
56	0.167671	0.156791	-0.973289	0.00342611	2.7425	0.442228	-8.11741	-0.00460482	0.00112708	-0.00565986	-0.435303	-0.362305	1.16895	0.21593	0.104377	-0.969926	0.0415014	4.22315	-0.186152	-8.68478	-0.0107697	0.0109357	-0.0186104	-0.581787	-0.132812	0.889893	0.989875	-0.00793336	-0.138535	0.0298896	3.23686	-0.276184	10.3302	0.0244952	-0.00109691	-0.0019571	-0.235596	-0.102539	-1.21289	0.914383	0.401977	0.00406311	0.0479842	0.292015	7.23331	6.62752	-0.0179217	0.00675705	-0.00238786	0.51416	-0.988525	-0.894043	0.931061	0.195542	-0.146308	0.271076	3.67167	2.73601	8.77938	-0.0102813	0.00715911	-0.0139798	-0.109131	-0.581787	-0.987061	-0.90977	0.409816	0.0449572	-0.0484681	0.753638	-8.90007	7.66987	0.0136598	0.0137804	-0.0190791	0.210205	0.860352	-0.941406	-0.440751	0.0629413	-0.895325	-0.0130653	-7.66639	0.0134913	-5.31665	0.0168679	0.064271	-0.0128495	0.588135	-0.010498	0.954346	0.850214	0.102955	-0.454695	0.244515	8.82681	-0.813653	5.77855	-0.0101119	0.0177929	-0.0114007	-0.706055	0.101562	-0.788574	0.102575	-0.112679	0.98426	-0.0895173	-2.16811	-1.17525	-8.81665	0.00167719	0.00633815	-0.01735	-0.185059	0.0942383	1.07202	0.893723	0.0649086	-0.440742	0.0528388	8.17718	0.759067	6.14642	0.0189724	0.0167596	-0.00236434	-0.617432	-0.143799	-0.940674	-0.0726158	-0.0673318	-0.994597	0.0311507	-1.46767	0.151516	-9.61276	-0.00305835	0.00687373	-0.00503862	-0.30127	0.125732	1.13501	
57	0.16756	0.156887	-0.973293	0.00325276	2.753	0.481951	-8.12038	-0.00466174	-0.00624796	-0.00459145	-0.437744	-0.360107	1.1731	0.215835	0.104304	-0.969952	0.0415838	4.24754	-0.200144	-8.78097	0.00114449	0.0056516	-0.0138155	-0.583984	-0.132812	0.892334	0.989863	-0.00814683	-0.138595	0.0299333	3.20057	-0.169072	10.4564	-0.0205681	0.00403255	-0.00044823	-0.239746	-0.102539	-1.21533	0.914396	0.401939	0.00412403	0.0480467	0.265871	7.14327	6.64561	-0.000421253	0.00644717	0.00193744	0.51001	-0.99292	-0.898193	0.931032	0.195608	-0.146274	0.271149	3.69002	2.71252	8.73852	0.00402531	0.0071953	-0.016262	-0.111084	-0.590576	-0.991699	-0.909749	0.409867	0.0449435	-0.0484253	0.684938	-8.8624	7.71566	-0.00173126	0.0185039	-0.0170007	0.214111	0.866943	-0.935059	-0.439739	0.062523	-0.895854	-0.0128835	-7.71818	-0.0110633	-5.35714	0.0213652	0.0522865	-0.0137508	0.588135	-0.010498	0.954346	0.850342	0.102811	-0.454556	0.244391	8.82771	-0.838985	5.80345	-0.00285818	0.0172823	-0.0129984	-0.712646	0.10376	-0.783936	0.102568	-0.112687	0.984258	-0.0895462	-2.15411	-1.17521	-8.83502	0.00754036	0.00684283	-0.022505	-0.189697	0.0986328	1.07397	0.893744	0.0651436	-0.440659	0.0528883	8.21155	0.785378	6.13995	0.0201474	0.0191939	-0.00134335	-0.624268	-0.137451	-0.936279	-0.0726158	-0.0673318	-0.994597	0.0311507	-1.46767	0.151516	-9.61276	-0.00305835	0.00687373	-0.00503862	-0.30127	0.125732	1.13501	
58	0.167495	0.157	-0.973286	0.0033129	2.75386	0.471949	-8.12627	0.00666919	-0.00233541	-0.00348975	-0.435303	-0.362305	1.16675	0.215882	0.104269	-0.969957	0.0413079	4.18188	-0.221388	-8.51048	-0.0216478	-0.00333163	-0.0262105	-0.583984	-0.132812	0.887695	0.989856	-0.00900139	-0.138624	0.0297814	3.20466	-0.369991	10.2597	-0.0225326	0.0107927	-0.00291024	-0.235596	-0.0981445	-1.21533	0.914471	0.401757	0.00407437	0.0481405	0.290121	7.23125	6.62984	-0.0193061	0.00743356	0.00104311	0.51001	-0.99292	-0.898193	0.930985	0.195653	-0.146245	0.271291	3.65404	2.74385	8.72615	-0.00405182	0.00606716	-0.0193438	-0.106934	-0.583984	-0.987061	-0.909777	0.409851	0.0448266	-0.0481529	0.731932	-8.88717	7.69025	0.00777229	0.0166048	-0.0117453	0.218506	0.866943	-0.933105	-0.438285	0.0620967	-0.8966	-0.012587	-7.62045	0.0140184	-5.40739	0.0182723	0.0916194	-0.0161476	0.588135	-0.00830078	0.956543	0.850288	0.102648	-0.454685	0.244408	8.80213	-0.800159	5.82095	0.000437605	0.0142309	-0.01536	-0.699463	0.0993652	-0.788574	0.102535	-0.112632	0.98426	-0.0896234	-2.15797	-1.17477	-8.81381	0.00826164	0.0079819	-0.0191124	-0.191895	0.0942383	1.07178	0.893736	0.0654679	-0.440616	0.0529847	8.19497	0.822077	6.13556	0.0102387	0.0162237	0.00168406	-0.624023	-0.144043	-0.940918	-0.0725494	-0.0672375	-0.994606	0.0312241	-1.47025	0.156428	-9.61271	0.00541559	0.00767475	-0.00549369	-0.298584	0.119141	1.13965	
59	0.167224	0.156997	-0.973333	0.00332673	2.74816	0.460422	-8.10823	0.00593029	-0.0232241	0.00156105	-0.433105	-0.362305	1.16455	0.215978	0.10407	-0.969948	0.0415199	4.19613	-0.270741	-8.6356	0.00621101	0.0366218	-0.0131318	-0.588379	-0.130615	0.889893	0.989784	-0.0085569	-0.139106	0.0300702	3.29686	-0.119878	10.5093	-0.0186405	-0.0100861	0.00224883	-0.239746	-0.106934	-1.21289	0.914529	0.401604	0.0038465	0.0483407	0.287044	7.17226	6.65751	0.00566616	0.00134268	0.0158637	0.510254	-1.00195	-0.893799	0.930961	0.195434	-0.146358	0.271471	3.66198	2.69389	8.79719	-0.0191235	0.00205219	-0.00865621	-0.104736	-0.586182	-0.991699	-0.909598	0.410252	0.0449074	-0.048048	0.725337	-8.91734	7.68792	-0.0246645	0.0125041	-0.020414	0.211914	0.871338	-0.939453	-0.43706	0.0617498	-0.897224	-0.0124299	-7.59818	0.0330782	-5.38371	0.0222232	0.0695684	-0.0177796	0.581543	-0.00610352	0.952148	0.850173	0.102102	-0.455059	0.244341	8.81225	-0.804573	5.80576	-0.0199436	0.00882991	-0.00511894	-0.712646	0.10376	-0.786133	0.102457	-0.112801	0.984249	-0.089624	-2.1406	-1.16966	-8.83516	0.00167323	0.00524881	-0.0177456	-0.185059	0.098877	1.07397	0.89376	0.0658118	-0.44053	0.0528805	8.16159	0.802128	6.14695	0.0113122	0.00934351	-0.00812905	-0.628662	-0.141846	-0.940918	-0.0724506	-0.0672262	-0.994614	0.0312079	-1.45983	0.168899	-9.60897	0.00106952	0.00736517	-0.0030299	-0.301025	0.123535	1.13965	
60	0.166474	0.157163	-0.973435	0.00324746	2.7304	0.481519	-8.15177	0.00525727	-0.012006	-0.00435976	-0.433105	-0.364502	1.17334	0.216136	0.1039	-0.969928	0.0415795	4.17157	-0.192787	-8.74199	-0.00934295	0.0147623	-0.0128673	-0.582031	-0.130615	0.889893	0.989771	-0.00918673	-0.139176	0.0299704	3.26689	-0.326296	10.2542	-0.0555095	0.00443724	-0.0081651	-0.237793	-0.100342	-1.22217	0.91451	0.401632	0.00374974	0.0484658	0.296942	7.25171	6.63618	0.00415195	0.00259012	0.0130187	0.51001	-0.995361	-0.891602	0.930898	0.195486	-0.146436	0.271607	3.7187	2.73595	8.74877	0.000600748	0.00406323	-0.0151076	-0.100586	-0.581787	-0.984863	-0.909602	0.410249	0.0449748	-0.0479222	0.72924	-8.94301	7.63846	0.0144766	0.0162277	-0.0209147	0.216553	0.864746	-0.926514	-0.436163	0.0614164	-0.897687	-0.0121804	-7.74015	0.00185511	-5.61087	0.0232832	0.0631074	-0.0169499	0.574951	-0.00415039	0.958496	0.850045	0.101719	-0.455348	0.244406	8.86647	-0.865947	5.82234	-0.000833246	0.00960411	-0.0132594	-0.710449	0.10376	-0.788574	0.102516	-0.112738	0.98425	-0.0896275	-2.15375	-1.16341	-8.8296	0.00997108	0.00410972	-0.0202743	-0.189941	0.101074	1.06519	0.893755	0.0660637	-0.44051	0.0528104	8.22484	0.779525	6.14408	0.017378	0.0138435	-0.0103207	-0.617432	-0.143799	-0.938477	-0.0724715	-0.0672274	-0.994611	0.031276	-1.47864	0.168083	-9.6121	0.00794181	0.00450776	-0.00526065	-0.303223	0.121338	1.14429	
61	0.166474	0.157163	-0.973435	0.00324746	2.7304	0.481519	-8.15177	0.00525727	-0.012006	-0.00435976	-0.433105	-0.364502	1.17334	0.216181	0.103739	-0.969934	0.0416201	4.25143	-0.233504	-8.6667	-0.00777105	0.0172173	-0.0139568	-0.588379	-0.130615	0.889893	0.989736	-0.00892495	-0.139401	0.0301565	3.26172	-0.281401	10.3592	-0.0191233	0.00384731	-0.00205584	-0.23999	-0.100342	-1.21289	0.914536	0.401549	0.00370627	0.0486621	0.301475	7.24293	6.63201	0.00880467	0.00538012	0.00415513	0.507568	-0.993164	-0.895996	0.930744	0.195894	-0.146374	0.271875	3.70043	2.68054	8.75586	0.0316827	0.00223952	-0.0128717	-0.113525	-0.583984	-0.987061	-0.909467	0.410545	0.0450694	-0.0478616	0.738333	-8.93818	7.64355	-0.0159777	0.0122609	-0.0148034	0.220703	0.866943	-0.933105	-0.435685	0.0610875	-0.897943	-0.0120348	-7.58616	0.0113334	-5.48911	0.0149296	0.0384258	-0.015801	0.575195	-0.00634766	0.962891	0.850045	0.101719	-0.455348	0.244406	8.86647	-0.865947	5.82234	-0.000833246	0.00960411	-0.0132594	-0.710449	0.10376	-0.788574	0.102463	-0.112697	0.984258	-0.0896518	-2.16563	-1.17386	-8.82416	0.00664786	0.0104455	-0.019164	-0.182617	0.0942383	1.06519	0.893826	0.0660718	-0.440352	0.0529168	8.21125	0.807293	6.13651	-0.0105668	0.0107885	0.00594923	-0.619629	-0.139648	-0.940918	-0.0724558	-0.0671983	-0.994611	0.0313675	-1.46567	0.160623	-9.6215	0.000700175	0.00766321	-0.0034638	-0.30127	0.125732	1.13721	
62	0.166257	0.157291	-0.97345	0.00356699	2.7149	0.466544	-8.14116	0.0102608	-0.00492944	-0.0015864	-0.433105	-0.364502	1.16675	0.216383	0.103619	-0.969902	0.0416075	4.19023	-0.248949	-8.65474	-0.00404169	0.0219588	-0.0160092	-0.584229	-0.128418	0.887451	0.989692	-0.00897906	-0.139673	0.0303247	3.25333	-0.329836	10.2925	0.00511099	-0.00390571	-0.0013749	-0.231201	-0.102783	-1.21533	0.914632	0.401317	0.00363904	0.0487821	0.294007	7.13126	6.64587	-0.00454023	0.00421186	0.00709456	0.507568	-0.98877	-0.89624	0.930573	0.196148	-0.14637	0.272277	3.69917	2.71895	8.75409	0.00105443	0.00631381	-0.006077	-0.106934	-0.583984	-0.984863	-0.909525	0.410405	0.0452184	-0.0478221	0.72967	-8.94714	7.63329	0.0142003	0.0116701	-0.0203852	0.211914	0.869141	-0.935303	-0.435565	0.0608106	-0.898018	-0.0121935	-7.58354	-0.0105977	-5.46509	0.0149415	0.0132312	-0.0150367	0.572998	-0.00854492	0.954346	0.850236	0.101673	-0.455092	0.24424	8.82016	-0.863806	5.79297	0.00176413	0.0201047	-0.011507	-0.703857	0.101562	-0.786133	0.102254	-0.112882	0.984247	-0.0897724	-2.14533	-1.16563	-8.82868	0.00570626	0.0111082	-0.0192738	-0.189453	0.0917969	1.07861	0.893822	0.0659684	-0.440375	0.0529239	8.175	0.79495	6.12093	-0.00529646	0.0121126	0.00774694	-0.621826	-0.144043	-0.940674	-0.0724987	-0.0671887	-0.994603	0.0315298	-1.46335	0.169505	-9.61601	0.00986295	0.00247137	-0.00620679	-0.298828	0.123535	1.13501	
63	0.166145	0.157424	-0.973447	0.00373957	2.71978	0.461531	-8.12586	0.00601348	0.00446051	-0.00338156	-0.439697	-0.362305	1.17529	0.216456	0.103556	-0.969889	0.0416916	4.16514	-0.231889	-8.66972	-0.00246929	0.0106676	-0.0177663	-0.588623	-0.126221	0.88501	0.989685	-0.00908074	-0.139694	0.0304528	3.27621	-0.288547	10.2991	-0.0193051	0.010544	-0.000281791	-0.23999	-0.0981445	-1.21753	0.914507	0.40159	0.00367382	0.0488795	0.291798	7.24172	6.62936	0.0100587	0.00941931	0.00213763	0.507812	-0.995117	-0.900391	0.930514	0.196017	-0.146436	0.272538	3.73099	2.70318	8.71386	-0.00743522	0.00460574	-0.0141347	-0.111084	-0.590576	-0.989258	-0.909534	0.410368	0.0453842	-0.0478208	0.763731	-8.89059	7.67612	-0.00110369	0.0110313	-0.0151155	0.207764	0.866943	-0.930908	-0.43575	0.0605249	-0.897947	-0.0121951	-7.65357	-0.0229633	-5.4843	0.0103667	-0.00197141	-0.0164917	0.579346	-0.00634766	0.960693	0.850171	0.101552	-0.455149	0.244407	8.83556	-0.857817	5.80942	0.0074831	0.0177408	-0.01095	-0.710449	0.10376	-0.786133	0.10211	-0.11331	0.984198	-0.089942	-2.1374	-1.17375	-8.8298	0.00478074	0.00505945	-0.0192275	-0.185059	0.0964355	1.07422	0.893929	0.0661142	-0.440126	0.0530033	8.19488	0.794637	6.15295	-0.00210703	0.0155552	0.00256693	-0.62207	-0.139648	-0.945557	-0.0725621	-0.0672042	-0.994596	0.031578	-1.46937	0.146836	-9.6057	0.0062764	0.00138394	-0.00391849	-0.296631	0.125732	1.13281	
64	0.166259	0.157463	-0.973421	0.00376636	2.72169	0.461182	-8.13523	0.00257872	0.00779453	-0.00220612	-0.435303	-0.362305	1.17749	0.216428	0.103511	-0.969898	0.041734	4.20551	-0.237343	-8.70549	-0.00224185	0.0103555	-0.0164426	-0.588379	-0.130615	0.887451	0.98969	-0.0086304	-0.139628	0.0307038	3.28534	-0.277285	10.3424	0.0215294	0.0121527	0.00466221	-0.23999	-0.0981445	-1.2063	0.914614	0.401352	0.00372706	0.0488214	0.329934	7.13456	6.66338	-0.0061471	0.00971149	-0.00351155	0.505371	-0.990967	-0.891602	0.930452	0.19619	-0.146268	0.272715	3.74002	2.65604	8.76978	0.0155032	0.0155193	-0.0126579	-0.106934	-0.586182	-0.991699	-0.90948	0.410491	0.0453742	-0.0477971	0.726032	-8.94482	7.64718	-0.00733679	0.0165176	-0.0140989	0.214111	0.871338	-0.9375	-0.43615	0.0603614	-0.897763	-0.0122811	-7.64164	-0.0106473	-5.51605	0.0124404	-0.0215353	-0.0138542	0.57959	-0.00830078	0.960693	0.850145	0.101535	-0.455197	0.244418	8.82309	-0.839543	5.79193	0.00554632	0.0153811	-0.0170122	-0.706299	0.10376	-0.788574	0.102069	-0.113287	0.984203	-0.0899529	-2.15056	-1.16036	-8.83755	0.00582546	0.00951918	-0.0199648	-0.192139	0.0964355	1.07178	0.893946	0.0660142	-0.440107	0.052989	8.20469	0.807394	6.16753	-0.00569437	0.0156735	0.00574356	-0.624023	-0.141846	-0.938477	-0.0725621	-0.0672042	-0.994596	0.031578	-1.46937	0.146836	-9.6057	0.0062764	0.00138394	-0.00391849	-0.296631	0.125732	1.13281	
65	0.16645	0.157559	-0.973373	0.00374305	2.73564	0.478309	-8.11338	0.000667044	0.00615733	-0.00414396	-0.433105	-0.362305	1.16895	0.216292	0.103448	-0.969942	0.0415734	4.24584	-0.212942	-8.65153	-0.00539973	-0.000550388	-0.0174126	-0.577637	-0.126221	0.889648	0.989697	-0.00880035	-0.139557	0.0307632	3.23144	-0.267958	10.3315	-0.0156846	0.0144551	0.00122148	-0.237793	-0.0981445	-1.21753	0.914558	0.401481	0.00381262	0.0488113	0.289932	7.19404	6.64653	0.0135831	0.0113834	-0.00244635	0.512207	-0.995361	-0.891602	0.93049	0.196299	-0.145894	0.272708	3.68834	2.75772	8.7264	0.00618941	0.0152493	-0.0148065	-0.108887	-0.590576	-0.984863	-0.909613	0.410183	0.0453904	-0.0479029	0.720231	-8.92959	7.6472	0.0282653	0.0131809	-0.0106894	0.214111	0.869141	-0.935303	-0.436809	0.060335	-0.897445	-0.0122411	-7.5845	-0.0098017	-5.45799	0.00901879	-0.0221297	-0.0144876	0.577148	-0.00634766	0.954346	0.850252	0.101621	-0.455046	0.244292	8.80738	-0.841247	5.78878	0.00521158	0.0151341	-0.0171313	-0.701904	0.101562	-0.788574	0.102001	-0.113478	0.984176	-0.0900876	-2.14453	-1.16905	-8.82854	0.00690948	0.00526639	-0.0191732	-0.184814	0.092041	1.06982	0.893925	0.0659669	-0.440151	0.0530453	8.17855	0.798913	6.14473	0.00282604	0.00752196	0.00550038	-0.619629	-0.143799	-0.936279	-0.0724441	-0.0671038	-0.994609	0.0316596	-1.47506	0.160762	-9.61322	-0.00103887	0.00986714	-0.00490976	-0.301025	0.121338	1.13745	
66	0.166412	0.157677	-0.973361	0.00365092	2.71837	0.483449	-8.14387	-0.00177826	-0.00834013	-0.0045212	-0.428711	-0.362305	1.17114	0.216089	0.103513	-0.969978	0.0416326	4.26846	-0.236494	-8.6567	0.0016153	0.00638059	-0.0247663	-0.588623	-0.126221	0.887451	0.9897	-0.00815542	-0.139523	0.0310055	3.21288	-0.254493	10.4167	0.0291447	0.00612179	0.000383856	-0.239746	-0.104736	-1.21509	0.914551	0.401496	0.00379854	0.0488133	0.289005	7.22471	6.63955	0.00181383	0.00471902	0.00463485	0.507812	-0.995117	-0.900391	0.930482	0.196073	-0.145774	0.272961	3.69923	2.78415	8.75409	-0.0097357	0.0104715	-0.0125752	-0.109131	-0.583984	-0.987061	-0.909615	0.410185	0.0454184	-0.0478164	0.748493	-8.9217	7.6213	-0.00423528	0.0143004	-0.0140923	0.212158	0.864746	-0.937256	-0.437346	0.060007	-0.897204	-0.0123531	-7.56757	-0.0261281	-5.4597	0.0175856	-0.00264145	-0.0141306	0.583496	-0.00415039	0.960693	0.850154	0.101523	-0.455231	0.244329	8.7946	-0.841682	5.76661	0.00142879	0.0117338	-0.0130591	-0.710449	0.101562	-0.788574	0.102001	-0.113478	0.984176	-0.0900876	-2.14453	-1.16905	-8.82854	0.00690948	0.00526639	-0.0191732	-0.184814	0.092041	1.06982	0.893901	0.0660107	-0.440196	0.0530155	8.14753	0.782954	6.12234	0.00357118	0.00940473	0.000527943	-0.621826	-0.141846	-0.943115	-0.0723955	-0.0670596	-0.994615	0.031675	-1.46426	0.155077	-9.61838	0.00205126	0.00512722	-0.00437347	-0.298828	0.121338	1.14185	
67	0.166185	0.15777	-0.973385	0.00354338	2.71989	0.4626	-8.12077	-0.00137153	-0.010532	-0.00393823	-0.430908	-0.360107	1.16895	0.216248	0.103644	-0.969942	0.0413207	4.25398	-0.238877	-8.7353	-0.0140852	0.0110951	-0.0184606	-0.586182	-0.132812	0.887695	0.989691	-0.00819759	-0.13956	0.0310994	3.26079	-0.246922	10.3799	-0.00305096	0.00278255	0.000571377	-0.23999	-0.100342	-1.21069	0.914586	0.401402	0.00381493	0.0489357	0.299913	7.18813	6.64469	-0.00289315	0.0058601	0.00467265	0.507812	-0.995361	-0.895996	0.930596	0.195716	-0.145895	0.272764	3.66973	2.69123	8.74661	-0.0180794	0.0011185	-0.0160275	-0.109131	-0.583984	-0.991699	-0.909673	0.410088	0.0453983	-0.0475597	0.714363	-8.9161	7.6653	0.00564061	0.0126743	-0.0164778	0.214111	0.869141	-0.930908	-0.437928	0.0597157	-0.896936	-0.0126223	-7.66384	-0.00506734	-5.47365	0.0115393	-0.0161498	-0.0138971	0.577148	-0.00634766	0.952148	0.850211	0.101641	-0.455112	0.244301	8.83317	-0.852248	5.79849	0.00801555	0.013401	-0.0136744	-0.704102	0.10376	-0.783936	0.101896	-0.114126	0.984082	-0.0904175	-2.13783	-1.17076	-8.83146	0.00643853	0.00298017	-0.019121	-0.189697	0.0942383	1.06958	0.89397	0.0660006	-0.44005	0.0530907	8.1892	0.800896	6.15944	0.00131749	0.00895737	0.00276744	-0.621826	-0.141846	-0.938477	-0.0724154	-0.0670036	-0.994619	0.0316299	-1.46657	0.169009	-9.60154	-0.000530599	0.00266212	-0.00463879	-0.298828	0.125732	1.14185	
68	0.166179	0.157869	-0.97337	0.00348548	2.72895	0.463043	-8.15516	-0.000724977	-0.0023396	-0.00252417	-0.433105	-0.364502	1.17749	0.216247	0.103589	-0.96994	0.0415034	4.21074	-0.234329	-8.60367	-0.0084463	0.0117903	-0.0191299	-0.586182	-0.130615	0.885254	0.989679	-0.00840254	-0.139633	0.031114	3.24031	-0.354928	10.2738	-0.0193771	0.00302242	-0.00227332	-0.233398	-0.100586	-1.21533	0.914654	0.401243	0.00375891	0.0489651	0.298142	7.15472	6.65602	-0.00268483	0.00456008	0.0026687	0.505615	-0.995117	-0.902588	0.930497	0.196015	-0.145745	0.27297	3.68957	2.78599	8.71587	-0.00107121	0.00577738	-0.0151931	-0.111328	-0.586182	-0.993896	-0.909735	0.409961	0.0454284	-0.0474477	0.74151	-8.91325	7.65371	0.0115101	0.0157546	-0.0168491	0.211914	0.869141	-0.939453	-0.438619	0.0594054	-0.896619	-0.0126228	-7.62373	-0.0203313	-5.42959	0.0156898	-0.0173889	-0.0156227	0.583984	-0.010498	0.95874	0.850184	0.10195	-0.455046	0.24439	8.81636	-0.852935	5.78076	0.0199443	0.0176755	-0.0217075	-0.710449	0.0993652	-0.783691	0.10193	-0.114058	0.984088	-0.0903937	-2.14025	-1.18256	-8.82872	0.00433847	0.00656276	-0.0184834	-0.184814	0.092041	1.07422	0.893924	0.0657797	-0.44018	0.053051	8.2	0.803453	6.12157	-0.00817655	0.00836015	0.00896123	-0.62207	-0.139648	-0.940918	-0.072456	-0.0669975	-0.994618	0.0315826	-1.45986	0.141251	-9.60723	-0.00139996	0.00376483	-0.00536096	-0.298828	0.121338	1.13965	
69	0.166134	0.157916	-0.97337	0.00346283	2.72859	0.481118	-8.11559	0.000865302	-0.00552683	-0.00314725	-0.430908	-0.362305	1.17529	0.216063	0.103578	-0.969988	0.0413804	4.24543	-0.186587	-8.66541	-0.0130649	-0.00378715	-0.0214144	-0.583984	-0.130615	0.887451	0.989671	-0.0079476	-0.139695	0.0312075	3.25093	-0.262669	10.3563	0.0167736	0.000924616	-0.00196925	-0.237793	-0.0981445	-1.21533	0.914617	0.401323	0.00375481	0.0490007	0.295606	7.19699	6.64747	0.00920714	0.00680058	0.00394411	0.507812	-0.995361	-0.898193	0.930516	0.195819	-0.145903	0.272959	3.65865	2.73777	8.75882	-0.0213217	-0.00211265	-0.0172576	-0.106934	-0.583984	-0.991699	-0.909698	0.410039	0.0454761	-0.047429	0.736412	-8.93339	7.64845	-0.00273442	0.0139448	-0.0195745	0.214111	0.866943	-0.933105	-0.4392	0.0591795	-0.896345	-0.0129252	-7.61903	0.00891519	-5.39983	0.00937323	-0.00935627	-0.0172568	0.585938	-0.010498	0.950195	0.850138	0.102048	-0.455057	0.244487	8.81197	-0.830763	5.77836	0.0169713	0.0159343	-0.0151617	-0.708496	0.105957	-0.786133	0.101972	-0.114058	0.984078	-0.0904565	-2.139	-1.16152	-8.8314	0.0107834	0.00319288	-0.0213324	-0.187256	0.092041	1.06982	0.893885	0.0656886	-0.440274	0.0530348	8.18238	0.796216	6.1468	-0.00539502	0.0058786	0.00625573	-0.617432	-0.143799	-0.938477	-0.0723161	-0.0669557	-0.994636	0.0314117	-1.46732	0.166847	-9.61147	-0.00510282	0.00940108	-0.00395008	-0.303467	0.125732	1.13965	
70	0.166097	0.158079	-0.97335	0.00361092	2.70592	0.463225	-8.1379	0.00259147	0.000453185	-0.00296767	-0.432861	-0.368896	1.17114	0.216299	0.103692	-0.969922	0.041404	4.18013	-0.262967	-8.62491	-0.0107596	0.00776095	-0.0192085	-0.590576	-0.132812	0.892334	0.989689	-0.00799869	-0.139552	0.0312547	3.25934	-0.287452	10.3107	-0.00199624	0.00666018	-0.000300559	-0.231201	-0.104736	-1.21753	0.914678	0.401168	0.00390473	0.0491292	0.297155	7.19781	6.64799	-0.00356864	0.00726641	0.00176175	0.509766	-0.990967	-0.893799	0.930436	0.19633	-0.145597	0.273031	3.673	2.77711	8.69559	-0.00329472	0.00851061	-0.0142356	-0.113281	-0.586182	-0.982422	-0.909728	0.40997	0.0455044	-0.0474145	0.738625	-8.91798	7.68864	0.00765626	0.0130137	-0.0137344	0.20752	0.869141	-0.935303	-0.439875	0.0588999	-0.896031	-0.0130193	-7.6714	0.0181877	-5.39553	0.00773091	-0.018199	-0.0138088	0.58374	-0.00830078	0.956543	0.850238	0.102284	-0.45478	0.244558	8.82833	-0.834628	5.79331	0.00992154	0.020934	-0.015525	-0.708496	0.105957	-0.788574	0.101883	-0.114255	0.984054	-0.0905774	-2.13969	-1.17295	-8.82399	0.00631733	0.00616006	-0.0192209	-0.182617	0.0942383	1.06958	0.893947	0.0656076	-0.440152	0.0531065	8.20316	0.841014	6.14209	-0.00336105	0.00901348	0.00568434	-0.617676	-0.137207	-0.940918	-0.0723995	-0.0668761	-0.994638	0.0313337	-1.46395	0.160981	-9.61492	-0.00484972	0.00527972	-0.0037303	-0.298828	0.125732	1.13965	
71	0.16631	0.158201	-0.973293	0.00370633	2.72142	0.464212	-8.11674	0.00390556	0.00833163	-0.00399128	-0.435059	-0.366699	1.17114	0.215982	0.103729	-0.96998	0.0415934	4.22114	-0.19787	-8.70173	0.00566433	0.00118456	-0.0200573	-0.586426	-0.128418	0.889893	0.989691	-0.00772927	-0.139493	0.0315157	3.25706	-0.300263	10.3276	0.00286014	0.013573	-0.000996602	-0.23999	-0.100342	-1.21533	0.914657	0.401223	0.00400404	0.0490511	0.286705	7.21299	6.62284	0.00279717	0.00640844	-0.0026031	0.505371	-0.993164	-0.895996	0.930504	0.196237	-0.145445	0.272945	3.70609	2.69984	8.76958	-0.0044187	0.00920323	-0.015379	-0.111328	-0.583984	-0.984863	-0.909711	0.410007	0.0454725	-0.0474551	0.736569	-8.91906	7.66167	0.00190136	0.0171476	-0.0123529	0.207764	0.866943	-0.937256	-0.440591	0.0586851	-0.895689	-0.0132829	-7.67334	-0.00368749	-5.43918	0.00987299	-0.0197828	-0.0154992	0.583984	-0.0126953	0.952393	0.850218	0.102288	-0.454779	0.244627	8.84431	-0.829785	5.79779	0.0117413	0.0200315	-0.0177069	-0.706055	0.101562	-0.776855	0.101899	-0.114423	0.984017	-0.0907396	-2.14226	-1.17364	-8.8225	0.0100103	0.00869437	-0.0198592	-0.1875	0.0964355	1.06738	0.893931	0.0654079	-0.440218	0.0530882	8.20716	0.755695	6.13971	-0.00450006	0.0125638	0.00794915	-0.621826	-0.144043	-0.938477	-0.0723385	-0.0669026	-0.994644	0.0312258	-1.47259	0.179024	-9.63581	0.00138973	0.00910021	-0.00590214	-0.298828	0.123535	1.13501	
72	0.166454	0.158268	-0.973258	0.00371244	2.74135	0.467076	-8.14393	0.000989432	0.00981759	-0.00467451	-0.433105	-0.364502	1.16895	0.215921	0.103673	-0.970004	0.0415079	4.23115	-0.223825	-8.655	-0.0117525	0.00664631	-0.0190256	-0.582031	-0.128418	0.89209	0.989699	-0.0077797	-0.139425	0.0315652	3.2511	-0.250896	10.3905	-0.00616321	0.0140832	-0.000991081	-0.235596	-0.104736	-1.21289	0.914681	0.401168	0.00402885	0.0490498	0.320741	7.1959	6.63123	-0.00262346	0.00800357	-0.000172902	0.505127	-0.98877	-0.900635	0.930504	0.196237	-0.145445	0.272945	3.70609	2.69984	8.76958	-0.0044187	0.00920323	-0.015379	-0.111328	-0.583984	-0.984863	-0.909752	0.409923	0.0454309	-0.0474347	0.745069	-8.95026	7.64975	0.0109022	0.0190049	-0.014493	0.211914	0.871338	-0.935303	-0.440997	0.0585337	-0.895498	-0.0133688	-7.63896	0.00795485	-5.40164	0.012519	-0.022635	-0.0144131	0.583984	-0.010498	0.956543	0.850218	0.102288	-0.454779	0.244627	8.84431	-0.829785	5.79779	0.0117413	0.0200315	-0.0177069	-0.706055	0.101562	-0.776855	0.101899	-0.114423	0.984017	-0.0907396	-2.14226	-1.17364	-8.8225	0.0100103	0.00869437	-0.0198592	-0.1875	0.0964355	1.06738	0.893931	0.0653382	-0.440214	0.0531941	8.17407	0.805876	6.12678	0.000209996	0.014896	0.0139528	-0.621826	-0.141846	-0.945312	-0.0723385	-0.0669026	-0.994644	0.0312258	-1.47259	0.179024	-9.63581	0.00138973	0.00910021	-0.00590214	-0.298828	0.123535	1.13501	
73	0.166526	0.158391	-0.973225	0.00368733	2.74117	0.46688	-8.12402	0.00263626	0.000474202	-0.00419077	-0.433105	-0.364502	1.17334	0.215748	0.103694	-0.970042	0.0414689	4.25714	-0.224167	-8.68725	-0.00616021	-0.00186507	-0.023156	-0.582275	-0.121826	0.889648	0.989687	-0.00780841	-0.139464	0.0317665	3.23041	-0.292527	10.3296	0.00324987	0.0071046	0.00237271	-0.237793	-0.102539	-1.21289	0.914672	0.401195	0.00410278	0.0490021	0.280864	7.17116	6.66592	0.00940241	0.00552891	-0.000303351	0.51001	-0.995117	-0.895996	0.93051	0.196403	-0.145177	0.272948	3.68863	2.70557	8.74806	-0.00397136	0.00325423	-0.0191288	-0.104736	-0.586182	-0.982422	-0.909811	0.409791	0.0454286	-0.0474545	0.716721	-8.88735	7.70056	0.0021118	0.0140054	-0.0133663	0.212158	0.862549	-0.937256	-0.44131	0.0584067	-0.895351	-0.0134796	-7.6495	0.0280561	-5.38088	0.00907574	-0.0146513	-0.0149877	0.588379	-0.0126953	0.95459	0.850299	0.102582	-0.454501	0.244739	8.81702	-0.81385	5.80258	0.01578	0.0189261	-0.0143756	-0.708252	0.101562	-0.781494	0.101831	-0.114626	0.983972	-0.0910508	-2.15563	-1.17969	-8.81387	0.00923084	0.00525977	-0.0203821	-0.189697	0.0964355	1.06738	0.893935	0.0651042	-0.44024	0.0532001	8.19276	0.796233	6.13937	-0.0117422	0.0141994	0.00906643	-0.624023	-0.141846	-0.940918	-0.0723385	-0.0669026	-0.994644	0.0312258	-1.47259	0.179024	-9.63581	0.00138973	0.00910021	-0.00590214	-0.298828	0.123535	1.13501	
74	0.1664	0.158493	-0.97323	0.00380562	2.73723	0.454729	-8.1154	0.00733092	-0.00853959	-0.00236882	-0.433105	-0.364502	1.17114	0.215789	0.10395	-0.97	0.0415958	4.21803	-0.228639	-8.63291	-0.00674199	0.010004	-0.0223068	-0.577393	-0.132568	0.894775	0.989663	-0.00768587	-0.139582	0.0320245	3.25909	-0.236635	10.3821	-0.00125775	0.00280351	0.00590508	-0.233398	-0.100586	-1.21533	0.914641	0.401263	0.00409772	0.0490249	0.286031	7.19214	6.63967	0.00111119	0.0088742	0.00330159	0.512451	-0.997314	-0.898193	0.930372	0.196794	-0.145017	0.273223	3.65823	2.78355	8.70616	0.0045769	0.00453261	-0.0132554	-0.111328	-0.586182	-0.984863	-0.909789	0.409834	0.0454856	-0.0474472	0.732841	-8.96144	7.65192	0.00761865	0.0117306	-0.0141881	0.216309	0.866943	-0.94165	-0.442346	0.0582941	-0.894848	-0.0133661	-7.66333	0.0235769	-5.40199	0.0163082	-0.0150872	-0.0187416	0.590332	-0.00830078	0.956543	0.85025	0.102731	-0.454491	0.244867	8.82763	-0.823883	5.79878	0.0152208	0.0155043	-0.0190024	-0.712402	0.097168	-0.786133	0.101844	-0.114585	0.983975	-0.0910527	-2.15091	-1.17636	-8.83226	0.00574623	0.00505201	-0.0178934	-0.185303	0.103516	1.06519	0.893974	0.0645281	-0.440254	0.0531297	8.18738	0.800064	6.13133	-0.0297409	0.0160524	0.0124333	-0.624023	-0.144043	-0.943115	-0.0722765	-0.066747	-0.994658	0.0312361	-1.47495	0.181085	-9.61429	0.00100382	0.002143	-0.00514797	-0.30127	0.125732	1.13721	
75	0.166311	0.158602	-0.973227	0.00392483	2.74738	0.46085	-8.13477	0.00837394	-0.0031251	-0.00161359	-0.431152	-0.35791	1.1731	0.215515	0.103874	-0.970056	0.0418902	4.23048	-0.236844	-8.77232	0.0091576	0.00327798	-0.0114382	-0.582275	-0.121826	0.889648	0.989641	-0.00788	-0.139678	0.032221	3.22421	-0.326421	10.31	-0.00260818	0.00807906	-0.000619894	-0.242188	-0.0981445	-1.21997	0.914601	0.401343	0.00411084	0.0491085	0.266831	7.18198	6.64529	0.0125321	0.00618816	0.00569517	0.512207	-0.99292	-0.895996	0.930267	0.197033	-0.144977	0.273428	3.71291	2.75018	8.74725	0.0172168	0.0070439	-0.013963	-0.106934	-0.583984	-0.984863	-0.909812	0.409778	0.0455924	-0.0473773	0.731466	-8.89313	7.68509	0.0032162	0.0124516	-0.0179133	0.216309	0.866943	-0.930908	-0.443375	0.0580263	-0.894354	-0.0135204	-7.71924	-0.0433996	-5.32429	0.00686204	-0.0424761	-0.0137984	0.594482	-0.00830078	0.952393	0.85018	0.102899	-0.454519	0.244986	8.81638	-0.841558	5.82586	0.0146524	0.0170045	-0.0169782	-0.703857	0.097168	-0.783691	0.101856	-0.114781	0.983919	-0.0913984	-2.14478	-1.18385	-8.84115	0.0120668	0.00343381	-0.0205935	-0.1875	0.098877	1.07178	0.893873	0.0638461	-0.440582	0.0529375	8.20322	0.742974	6.14624	-0.0242006	-0.0020328	0.0119837	-0.617676	-0.132812	-0.934082	-0.0722164	-0.0667932	-0.994664	0.031082	-1.47089	0.169611	-9.62079	-0.00195561	0.0102877	-0.00337827	-0.296631	0.123535	1.13501	
76	0.166168	0.15867	-0.97324	0.00402473	2.73893	0.458815	-8.10652	0.00599236	-0.00598687	-0.00175073	-0.435303	-0.364502	1.17334	0.215369	0.104196	-0.970067	0.0415871	4.17078	-0.270142	-8.57003	-0.0107291	-0.00138371	-0.02659	-0.582031	-0.130615	0.892334	0.98965	-0.00751587	-0.139608	0.032347	3.25063	-0.295453	10.3161	0.0139451	0.00662331	0.000452458	-0.235596	-0.100342	-1.21533	0.914654	0.401217	0.00417645	0.0491505	0.304883	7.20713	6.63907	-0.00429238	0.00641636	0.000963458	0.507812	-0.995361	-0.893799	0.930234	0.197246	-0.144792	0.273483	3.68277	2.75296	8.73394	0.00287594	0.00842257	-0.0252244	-0.106934	-0.586182	-0.984863	-0.909764	0.409883	0.045557	-0.0474422	0.706126	-8.91949	7.67031	-0.00176615	0.0146704	-0.00768647	0.216309	0.866943	-0.937256	-0.443942	0.0577381	-0.894088	-0.0137133	-7.68813	-0.00911233	-5.31501	0.00608284	-0.0049214	-0.0147708	0.596924	-0.010498	0.954346	0.850252	0.1033	-0.454339	0.244902	8.8038	-0.805572	5.80836	0.0167749	0.0127048	-0.0213494	-0.710205	0.097168	-0.783691	0.101856	-0.114781	0.983919	-0.0913984	-2.14478	-1.18385	-8.84115	0.0120668	0.00343381	-0.0205935	-0.1875	0.098877	1.07178	0.893799	0.0636474	-0.44074	0.0531014	8.19769	0.751164	6.12686	-0.00336819	0.000724435	0.0115649	-0.626465	-0.137451	-0.938721	-0.0722164	-0.0667932	-0.994664	0.031082	-1.47089	0.169611	-9.62079	-0.00195561	0.0102877	-0.00337827	-0.296631	0.123535	1.13501	
77	0.166085	0.158698	-0.973249	0.00401123	2.72148	0.450746	-8.11841	0.00176529	-0.00870425	-0.00133418	-0.431152	-0.360107	1.17749	0.215292	0.10402	-0.970095	0.0417794	4.19929	-0.309227	-8.63617	0.000939018	0.0302962	-0.0175766	-0.578125	-0.119629	0.887207	0.989622	-0.00794654	-0.139761	0.0324255	3.27275	-0.280579	10.4174	-0.039933	0.00227023	-0.00114775	-0.237793	-0.100342	-1.21753	0.914583	0.40136	0.00405506	0.0493112	0.312902	7.19758	6.64839	0.0141603	0.00418777	0.00896681	0.512207	-0.993164	-0.891602	0.930284	0.196922	-0.144769	0.27356	3.70155	2.76588	8.75711	-0.0303836	0.0076158	-0.013948	-0.104736	-0.583984	-0.987061	-0.909647	0.410138	0.045633	-0.0473982	0.735645	-8.96239	7.6247	-0.00977648	0.0148677	-0.0189353	0.209717	0.869141	-0.939453	-0.444431	0.0575902	-0.893852	-0.0138752	-7.65089	-0.00636864	-5.30749	0.00709966	-0.0302178	-0.0120034	0.59668	-0.00830078	0.947998	0.8502	0.103302	-0.45445	0.244875	8.79073	-0.841509	5.79721	0.00404901	0.00993535	-0.0194415	-0.712646	0.101562	-0.786133	0.101856	-0.114781	0.983919	-0.0913984	-2.14478	-1.18385	-8.84115	0.0120668	0.00343381	-0.0205935	-0.1875	0.098877	1.07178	0.893747	0.0636799	-0.440839	0.0531215	8.17645	0.787181	6.11829	0.0045196	0.00503942	0.00466355	-0.626221	-0.141846	-0.936279	-0.0722164	-0.0667932	-0.994664	0.031082	-1.47089	0.169611	-9.62079	-0.00195561	0.0102877	-0.00337827	-0.296631	0.123535	1.13501	
78	0.165823	0.158835	-0.973273	0.00358323	2.71747	0.475753	-8.11964	-0.0017306	0.000783063	-0.00126861	-0.430908	-0.362305	1.17114	0.215288	0.103864	-0.970109	0.0418576	4.19218	-0.202697	-8.7228	-0.00216539	0.00794857	-0.0142074	-0.584229	-0.128418	0.89209	0.989604	-0.00800656	-0.13988	0.0324615	3.2629	-0.26356	10.3534	0.0116285	0.00443038	-0.00468678	-0.235596	-0.104736	-1.21289	0.914539	0.401456	0.00401789	0.0493472	0.291113	7.20666	6.64159	0.0103007	0.00406768	0.00506734	0.509766	-0.990723	-0.898193	0.930291	0.196777	-0.144673	0.273693	3.69825	2.7464	8.71949	-0.00360822	0.0105174	-0.0140992	-0.109131	-0.581787	-0.987061	-0.9097	0.410028	0.0456419	-0.0473305	0.722406	-8.90254	7.67447	0.00741777	0.016846	-0.0168304	0.216064	0.871338	-0.939453	-0.445545	0.0574798	-0.893304	-0.0139002	-7.81836	0.0154794	-5.46228	0.0221204	-0.0079315	-0.0173364	0.603271	-0.0126953	0.952393	0.850218	0.103443	-0.454433	0.244784	8.848	-0.807879	5.8158	0.0090293	0.0127355	-0.024298	-0.706055	0.0993652	-0.783691	0.101801	-0.115617	0.983791	-0.0917861	-2.15188	-1.17762	-8.79454	0.00235504	-0.000865978	-0.0181206	-0.187256	0.0942383	1.07642	0.893775	0.0642156	-0.440685	0.0532914	8.25424	0.800731	6.13611	0.0148474	0.0158831	0.00573811	-0.626465	-0.137451	-0.938721	-0.0720779	-0.0664984	-0.994696	0.0310359	-1.4754	0.184355	-9.60693	0.00360533	0.00691315	-0.00834019	-0.296631	0.125732	1.14404	
79	0.166042	0.15891	-0.973224	0.0036099	2.73744	0.462855	-8.11804	0.00172793	0.00481578	-0.00291222	-0.430664	-0.366699	1.17334	0.215074	0.103763	-0.970174	0.0417004	4.2481	-0.216772	-8.67977	-0.0176965	0.00451948	-0.0210196	-0.579834	-0.128418	0.882812	0.989595	-0.00823427	-0.139918	0.0324982	3.26298	-0.350099	10.2806	-0.00200189	0.00659423	-0.00468398	-0.235596	-0.0981445	-1.21533	0.914491	0.401546	0.00408327	0.0494986	0.294334	7.23619	6.61957	-0.00478841	0.00938851	-0.00170093	0.507568	-0.990967	-0.898193	0.930258	0.196845	-0.144572	0.273809	3.66896	2.74417	8.7629	0.00302381	0.00869155	-0.017706	-0.106689	-0.592773	-0.987061	-0.90975	0.409917	0.0456197	-0.0473416	0.716847	-8.92069	7.67164	0.00704665	0.0152175	-0.0124636	0.209717	0.869141	-0.930908	-0.446564	0.057234	-0.892806	-0.0142195	-7.69943	0.0284661	-5.27998	-0.000580907	-0.0307709	-0.0134828	0.60083	-0.00610352	0.943604	0.850195	0.1037	-0.454398	0.24482	8.81867	-0.811515	5.76209	0.01996	0.0172128	-0.0224019	-0.708008	0.097168	-0.786133	0.101829	-0.115549	0.983802	-0.0917253	-2.14295	-1.19239	-8.82864	0.00540361	0.00674557	-0.0193999	-0.189453	0.0874023	1.06543	0.893714	0.0639685	-0.440849	0.0532488	8.19232	0.76986	6.1206	-0.015712	0.00648939	0.00722177	-0.621826	-0.144043	-0.938477	-0.0720015	-0.0664423	-0.994704	0.0310633	-1.463	0.172401	-9.60831	0.00239116	0.00645546	-0.00514926	-0.300781	0.119141	1.13281	
80	0.166092	0.158989	-0.973202	0.00365698	2.7468	0.451126	-8.12741	0.00426992	-0.000937331	-0.0017131	-0.430908	-0.362305	1.17114	0.215092	0.103658	-0.970179	0.0417587	4.19863	-0.24321	-8.66283	-0.00175603	0.0148117	-0.0193417	-0.582031	-0.128418	0.889893	0.989582	-0.0076853	-0.139999	0.0326777	3.22834	-0.27365	10.3383	0.014261	0.00370298	-0.00432172	-0.237793	-0.104736	-1.21509	0.914513	0.401494	0.00404585	0.0495219	0.288133	7.17502	6.65241	0.00428985	0.00527764	0.00415122	0.514404	-0.995117	-0.902588	0.930157	0.196948	-0.144577	0.274075	3.68248	2.74103	8.73565	-0.00419788	0.00528892	-0.0109116	-0.106689	-0.588379	-0.991699	-0.909707	0.410012	0.0456629	-0.0473067	0.733368	-8.94701	7.66496	-0.00164103	0.0147341	-0.0140968	0.214111	0.869141	-0.933105	-0.44735	0.0572288	-0.892413	-0.0141825	-7.7222	0.00924708	-5.29592	0.00838618	-0.027811	-0.0151253	0.601074	-0.010498	0.946045	0.85018	0.103863	-0.454309	0.244971	8.81024	-0.776981	5.82246	0.0153328	0.0210805	-0.0177676	-0.710205	0.0949707	-0.786133	0.101822	-0.11554	0.983806	-0.0917016	-2.14801	-1.18519	-8.8166	0.00365435	0.00630854	-0.0197738	-0.1875	0.098877	1.06958	0.893741	0.0638149	-0.440818	0.0532353	8.18075	0.754473	6.13074	-0.000780473	0.0168442	0.00602576	-0.624268	-0.137451	-0.938721	-0.0720354	-0.0664482	-0.994703	0.031017	-1.46087	0.179265	-9.61648	-0.000913874	0.00417353	-0.00419938	-0.298584	0.119141	1.13745	
81	0.166136	0.159017	-0.97319	0.0036668	2.71597	0.454541	-8.10007	0.00204004	0.00170179	-0.00173685	-0.435303	-0.364502	1.16675	0.215074	0.103599	-0.97019	0.0417377	4.18455	-0.260903	-8.65446	-0.00685365	0.010687	-0.0188785	-0.582031	-0.130615	0.889893	0.989573	-0.00762817	-0.140051	0.0327462	3.28564	-0.284156	10.3468	0.00195803	0.00386239	-0.00202509	-0.231201	-0.102783	-1.21533	0.914488	0.401548	0.00405792	0.0495446	0.33609	7.188	6.64222	0.00705921	0.00800877	0.00302796	0.507812	-0.997314	-0.898193	0.930119	0.196991	-0.14453	0.274196	3.6733	2.75185	8.70182	0.0033408	0.00904363	-0.0121613	-0.104492	-0.590576	-0.993896	-0.909707	0.410011	0.0456893	-0.0472953	0.720149	-8.91274	7.66605	0.00365051	0.013256	-0.015413	0.212158	0.864746	-0.939453	-0.447688	0.0571176	-0.89225	-0.0142687	-7.73156	0.0216375	-5.24829	0.0104502	-0.0163687	-0.0167047	0.598877	-0.00830078	0.945801	0.850182	0.103839	-0.454305	0.244978	8.81552	-0.770693	5.79741	0.00557875	0.0204799	-0.0181084	-0.708008	0.0927734	-0.783691	0.101841	-0.11574	0.983778	-0.0917234	-2.14713	-1.19049	-8.82296	0.00278114	0.00138919	-0.0186096	-0.187256	0.0942383	1.06738	0.893768	0.0638507	-0.440753	0.0532881	8.18698	0.800125	6.10938	0.00619184	0.0194483	0.00559328	-0.62207	-0.137451	-0.943115	-0.0721037	-0.0663778	-0.994698	0.0311611	-1.45551	0.182166	-9.61803	0.00684005	0.000229217	-0.00568857	-0.298584	0.116943	1.14209	
82	0.166247	0.159134	-0.973152	0.00372476	2.74007	0.461045	-8.12724	0.00443573	0.000310106	-0.0035216	-0.435547	-0.360107	1.17114	0.214996	0.103554	-0.970212	0.0417434	4.18697	-0.239963	-8.70859	-0.0039867	0.00605375	-0.0190236	-0.586426	-0.126221	0.887451	0.989569	-0.00774418	-0.140051	0.0328494	3.2477	-0.27746	10.3625	-0.0110743	0.00801538	0.00281745	-0.229248	-0.0983887	-1.21069	0.914487	0.401551	0.0040992	0.0495353	0.303397	7.21448	6.66003	-0.000891405	0.00537027	0.00096015	0.507812	-0.997559	-0.889404	0.930081	0.196929	-0.144457	0.274408	3.67635	2.80343	8.70989	-0.0145022	0.011186	-0.0106141	-0.108887	-0.588379	-0.989258	-0.909763	0.409881	0.0457285	-0.0472931	0.735495	-8.92651	7.67059	0.0124334	0.0142174	-0.015035	0.214355	0.864746	-0.932861	-0.448314	0.0568576	-0.891951	-0.0143634	-7.76319	0.0187952	-5.3159	0.010919	-0.0137667	-0.0148086	0.601318	-0.0148926	0.950195	0.85015	0.103849	-0.454326	0.245049	8.81918	-0.788619	5.8107	0.00962751	0.0177646	-0.0164206	-0.708008	0.0927734	-0.783691	0.101846	-0.115648	0.983793	-0.0916748	-2.15195	-1.18811	-8.8172	0.00444115	0.00823805	-0.0167975	-0.189697	0.0942383	1.06519	0.893762	0.0638093	-0.44077	0.0532891	8.19742	0.807057	6.1313	-0.0013203	0.0121087	0.00510118	-0.626221	-0.144043	-0.940918	-0.0721634	-0.0663898	-0.994691	0.0312043	-1.4797	0.183491	-9.62065	0.00642161	0.00192377	-0.00421487	-0.298828	0.123535	1.13281	
83	0.166317	0.159232	-0.973123	0.0038224	2.73007	0.460916	-8.11811	0.0076343	0.00246787	-0.00214562	-0.435303	-0.362305	1.17334	0.214935	0.103676	-0.970216	0.0416658	4.22611	-0.2068	-8.66517	0.00496583	-0.00755206	-0.0179931	-0.582031	-0.128418	0.894531	0.989578	-0.00756214	-0.139959	0.0330036	3.21515	-0.268441	10.3539	-0.0117039	0.00887359	0.000896832	-0.237793	-0.100342	-1.21533	0.914418	0.401708	0.00418279	0.0495264	0.283082	7.24467	6.64295	0.0107214	0.00921532	-0.00113133	0.505615	-0.995361	-0.898193	0.930106	0.196654	-0.1445	0.274498	3.67406	2.70167	8.76242	-0.005557	0.00618612	-0.017362	-0.104492	-0.590576	-0.987061	-0.909831	0.40976	0.0456887	-0.0470881	0.719218	-8.91911	7.65471	0.00702776	0.0122231	-0.0142018	0.216309	0.864746	-0.935059	-0.449038	0.0566082	-0.8916	-0.0144986	-7.72335	0.0354413	-5.26829	0.016554	-0.0122363	-0.0174752	0.607422	-0.00830078	0.950195	0.850263	0.103968	-0.454145	0.24494	8.82647	-0.795869	5.79332	0.00655864	0.0163883	-0.0174269	-0.712402	0.0949707	-0.78833	0.101743	-0.11589	0.983751	-0.0919379	-2.15476	-1.16994	-8.82653	0.0116683	0.00707867	-0.0216603	-0.191895	0.0942383	1.07178	0.893811	0.0636041	-0.440686	0.0534123	8.18493	0.784649	6.15085	-0.00099327	0.0120573	0.00749876	-0.626465	-0.139648	-0.940918	-0.0720887	-0.0662951	-0.9947	0.0313035	-1.46665	0.172154	-9.60113	0.00343417	0.00398925	-0.0045065	-0.301025	0.121338	1.14185	
84	0.166182	0.159344	-0.973128	0.00390665	2.73964	0.457441	-8.13757	0.00462241	-0.0119719	-0.00313747	-0.435059	-0.366699	1.17114	0.214953	0.10361	-0.97022	0.0416468	4.20912	-0.246498	-8.62977	-0.00557913	0.0123535	-0.0221578	-0.579834	-0.130615	0.892334	0.98955	-0.00725057	-0.140109	0.0332783	3.24047	-0.215065	10.4498	0.00395612	0.00117517	0.00441134	-0.235596	-0.100342	-1.21753	0.914409	0.401718	0.00418851	0.0496078	0.277103	7.12227	6.65774	0.0147415	0.00836321	0.00828695	0.505371	-0.990967	-0.895996	0.930028	0.196641	-0.144486	0.27478	3.66821	2.80887	8.7216	-0.0210309	0.00448324	-0.0125135	-0.106934	-0.586182	-0.991699	-0.909818	0.409776	0.0457868	-0.0470951	0.737568	-8.87607	7.68945	-0.00265965	0.0120367	-0.0138438	0.218506	0.866943	-0.933105	-0.449485	0.0563544	-0.891389	-0.0145901	-7.71546	0.00265112	-5.23322	0.0168967	-0.000214371	-0.0151449	0.607666	-0.0126953	0.948242	0.85017	0.104007	-0.454222	0.245102	8.80574	-0.786131	5.8173	0.007136	0.0161802	-0.0118559	-0.705811	0.0949707	-0.786133	0.101736	-0.115893	0.983743	-0.0920184	-2.15092	-1.18616	-8.81436	0.0115965	0.00687569	-0.0219674	-0.1875	0.098877	1.06958	0.893807	0.0636049	-0.440693	0.0534205	8.18975	0.754625	6.14035	0.00177804	0.0132194	0.00430622	-0.624268	-0.135254	-0.940918	-0.0721429	-0.0662957	-0.994696	0.0313045	-1.47367	0.180586	-9.60777	0.00264822	0.00233544	-0.00493037	-0.301025	0.121338	1.13965	
