40	Head	00b4120a												Throax	00b411e8												LUpArm	00b411d9												LFoArm	00b41148												RUpArm	00b411db												RFoArm	00b41204												Waist	00b411f7												Lthigh	00b411f4												Lshank	00b4111b												Rthigh	00b411c8												Rshank	00b411ee												
PacketCount	q0	q1	q2	q3	accX	accY	accZ	gyrX	gyrY	gyrZ	magX	magY	magZ	q0	q1	q2	q3	accX	accY	accZ	gyrX	gyrY	gyrZ	magX	magY	magZ	q0	q1	q2	q3	accX	accY	accZ	gyrX	gyrY	gyrZ	magX	magY	magZ	q0	q1	q2	q3	accX	accY	accZ	gyrX	gyrY	gyrZ	magX	magY	magZ	q0	q1	q2	q3	accX	accY	accZ	gyrX	gyrY	gyrZ	magX	magY	magZ	q0	q1	q2	q3	accX	accY	accZ	gyrX	gyrY	gyrZ	magX	magY	magZ	q0	q1	q2	q3	accX	accY	accZ	gyrX	gyrY	gyrZ	magX	magY	magZ	q0	q1	q2	q3	accX	accY	accZ	gyrX	gyrY	gyrZ	magX	magY	magZ	q0	q1	q2	q3	accX	accY	accZ	gyrX	gyrY	gyrZ	magX	magY	magZ	q0	q1	q2	q3	accX	accY	accZ	gyrX	gyrY	gyrZ	magX	magY	magZ	q0	q1	q2	q3	accX	accY	accZ	gyrX	gyrY	gyrZ	magX	magY	magZ	
0	0.694473	-0.589809	0.0825902	-0.403746	4.24536	-9.00707	2.78828	0.0313926	0.188679	-0.0359676	0.00341797	1.02051	0.0322266	-0.615482	0.603002	-0.0254901	0.506873	5.75255	-7.60996	2.75461	-0.0132946	-0.0230111	-0.0391608	-0.188965	0.871582	0.111328	-0.323805	0.0858943	-0.723556	0.603523	-3.69265	-9.04767	-0.742098	-0.0202268	0.0110287	0.0208214	-0.0695801	0.868408	0.333252	0.0673316	-0.010014	0.134105	-0.988626	0.063353	-2.95147	9.73913	0.0177835	0.0755774	-0.0122891	-0.388916	0.33374	-0.877686	0.290514	0.0157829	0.641282	-0.710007	-3.70508	-8.46881	1.61679	0.0633197	0.0151948	0.00327596	0.0446777	1.00244	0.00268555	0.453242	-0.117485	0.82525	-0.315804	-5.07075	-5.31832	-2.67226	0.0773649	-0.0745094	0.0256638	0.156982	0.577393	0.789795	-0.678736	0.555662	0.28919	0.383309	8.2962	-5.2421	2.3509	0.0241622	-0.0194081	-0.0162382	-0.50415	0.843018	-0.180664	0.393687	-0.477918	-0.607769	-0.497214	9.09876	1.93677	-1.89682	-0.00736055	0.000661805	-0.0412725	-1.04126	0.177246	0.190186	0.446128	-0.444275	-0.599767	-0.493831	9.58406	1.74913	-1.22896	0.0879407	-0.00120716	-0.0342365	-1.06445	0.20459	0.0891113	0.393165	-0.556416	-0.545736	-0.487847	9.39855	0.777911	-2.09784	-0.0214174	-0.0452314	-0.00222773	-0.99585	0.358398	0.257812	0.408548	-0.56086	-0.465801	-0.549139	9.86058	0.561594	-0.713091	0.0164555	0.00970218	-0.022257	-1.05591	0.394531	0.177734	
1	0.694029	-0.583728	0.0880311	-0.412112	4.62172	-9.13446	2.94111	0.126018	0.548273	-0.102363	-0.00537109	1.02051	0.0300293	-0.615023	0.603718	-0.0247514	0.506615	5.70016	-7.57184	2.76827	-0.0327132	-0.0233271	-0.0366503	-0.195557	0.873535	0.102051	-0.323941	0.08483	-0.724309	0.602696	-3.55357	-8.91393	-0.558037	-0.0455196	0.0544288	0.0502646	-0.0673828	0.859619	0.324219	0.0674282	-0.00770862	0.134363	-0.988605	0.00492427	-2.76959	9.15717	-0.0426754	0.0946539	0.0424556	-0.386719	0.331543	-0.88208	0.29136	0.0177733	0.639944	-0.71082	-4.05157	-8.94312	1.77879	0.102202	0.0220631	0.0740359	0.0471191	0.998047	-0.00170898	0.454506	-0.116607	0.824035	-0.317479	-5.20252	-5.51577	-2.69292	0.0929886	-0.00792505	-0.00981971	0.156982	0.577393	0.787598	-0.678977	0.555386	0.289146	0.383316	8.15288	-5.21757	2.12317	0.0423834	0.0291806	-0.0125812	-0.501465	0.834229	-0.174072	0.393361	-0.477808	-0.609061	-0.495995	9.23946	2.03627	-1.98988	0.0758651	-0.0461828	-0.0285622	-1.04346	0.179199	0.190186	0.44577	-0.444649	-0.598882	-0.494891	9.67258	1.66657	-1.16384	-0.0980671	0.0313078	-0.0202099	-1.07373	0.20459	0.0888672	0.39333	-0.555972	-0.546348	-0.487534	9.36026	0.891662	-2.11131	0.0338626	0.00581876	-0.0196102	-1.00244	0.354004	0.255615	0.408129	-0.560787	-0.465602	-0.549695	9.873	0.416495	-0.635811	-0.00444881	0.0153498	-0.02302	-1.05786	0.390137	0.177734	
2	0.694346	-0.574623	0.0959407	-0.422479	3.56017	-8.96783	3.09739	0.177982	0.595578	-0.0612477	-0.00976562	1.02051	0.0170898	-0.615409	0.603957	-0.0242827	0.505883	5.7585	-7.71387	2.5729	0.023082	-0.0199848	0.0041158	-0.188965	0.871582	0.11377	-0.324152	0.0850813	-0.724159	0.602727	-3.62845	-8.9901	-0.651841	0.00375073	-0.00949997	-0.00261095	-0.0610352	0.865967	0.328613	0.0674324	-0.00597784	0.13338	-0.98875	-0.0256739	-2.74055	9.03247	0.046191	0.0677019	0.0126966	-0.384277	0.329346	-0.884277	0.292075	0.0202804	0.638493	-0.711763	-3.98146	-8.32736	1.70526	0.0682145	0.0657445	0.0479327	0.0539551	0.989258	-0.00170898	0.455689	-0.116002	0.823864	-0.316449	-5.22929	-5.3376	-2.5865	-0.0533783	-0.0295191	0.0623169	0.158936	0.57959	0.789551	-0.679516	0.555506	0.289674	0.381786	8.19764	-5.43239	1.99184	0.0442937	0.00822569	0.01479	-0.499756	0.84082	-0.17627	0.393253	-0.477447	-0.610164	-0.495072	9.17161	2.37339	-1.72293	0.0459978	-0.0096561	-0.043944	-1.04565	0.181396	0.197266	0.446365	-0.443621	-0.599697	-0.49429	9.45718	2.15608	-0.924743	0.0537985	0.00538257	-0.0337345	-1.08301	0.199951	0.0913086	0.393237	-0.555684	-0.547344	-0.486821	9.5008	0.910676	-2.04993	0.0531003	-0.0110954	-0.0114184	-1.0022	0.354004	0.26001	0.407911	-0.560437	-0.465868	-0.549987	9.79712	0.520267	-0.537202	-0.00987458	0.00924511	-0.0262134	-1.05566	0.392334	0.175537	
3	0.694269	-0.565885	0.103802	-0.432423	3.17017	-8.48234	3.6481	0.122313	0.571309	-0.0520725	-0.00756836	1.02051	0.00854492	-0.615971	0.603927	-0.0234607	0.505273	5.99179	-7.4605	2.5205	0.00287507	-0.0187132	-0.0167864	-0.193359	0.867188	0.104492	-0.323512	0.0854176	-0.724396	0.602739	-3.49589	-9.22365	-0.64996	0.0370944	0.0437279	-0.0308891	-0.0651855	0.859619	0.333496	0.0677207	-0.0053578	0.133331	-0.988741	0.144279	-2.65	9.24311	0.0198859	0.0251487	0.020767	-0.380127	0.33374	-0.877686	0.292454	0.0207329	0.640846	-0.709477	-3.5175	-8.7849	1.70565	-0.142686	-0.00932742	0.0289706	0.0559082	0.99585	0.000488281	0.456325	-0.115537	0.823663	-0.316224	-4.99104	-5.13598	-2.61507	0.0163144	-0.0206456	0.043679	0.15918	0.577393	0.7854	-0.679607	0.555746	0.29077	0.380438	8.36587	-5.17974	2.24253	0.0348331	-0.0601123	-0.0046424	-0.499756	0.843018	-0.176514	0.393025	-0.477118	-0.61076	-0.494836	9.13258	2.16761	-1.91896	0.0399623	-0.00039666	-0.0318605	-1.04761	0.174805	0.199707	0.446075	-0.443516	-0.600148	-0.494098	9.56748	1.81064	-0.993816	0.0248867	-0.0172305	-0.0354024	-1.07837	0.20459	0.0888672	0.393333	-0.5553	-0.547876	-0.486583	9.47858	1.08159	-2.09917	0.0175164	0.00011007	-0.0183016	-1.00244	0.356201	0.246338	0.407533	-0.560354	-0.466158	-0.550106	9.92091	0.650019	-0.594677	0.0020574	-0.00139569	-0.0219476	-1.06226	0.387939	0.175537	
4	0.693473	-0.560714	0.109645	-0.438945	3.06578	-8.70612	3.76209	0.0519529	0.331022	-0.0485241	-0.0141602	1.02271	0.00634766	-0.615164	0.604531	-0.0236054	0.505527	5.78092	-7.59249	2.68852	-0.028042	0.0021129	-0.0391988	-0.186768	0.867188	0.109131	-0.323532	0.0857455	-0.723437	0.603832	-3.31532	-9.01799	-0.358486	0.0167757	0.0123306	-0.0127661	-0.0673828	0.861816	0.32666	0.0679826	-0.00544721	0.133272	-0.98873	0.117703	-2.57967	9.43651	-0.0509406	-0.00896825	0.0313307	-0.382324	0.33374	-0.886719	0.294062	0.0190689	0.641136	-0.708596	-4.04512	-9.10901	1.65006	0.0133308	-0.0622202	0.00365633	0.0534668	1.00024	0.00268555	0.456432	-0.116893	0.823363	-0.316353	-4.97856	-5.64899	-2.7201	0.0622604	0.0055736	-0.0636164	0.15918	0.577393	0.789795	-0.679089	0.555965	0.290069	0.381578	7.95891	-5.16568	1.89992	-0.00852356	0.0309697	-0.0309428	-0.503906	0.84082	-0.174316	0.392954	-0.476884	-0.610891	-0.494955	9.07593	2.4371	-1.79549	-0.0122768	0.00346509	-0.0382223	-1.03467	0.177246	0.194824	0.445736	-0.44342	-0.600792	-0.493707	9.57795	2.02734	-1.18486	0.0031298	-0.0173713	-0.0255646	-1.07129	0.202393	0.0913086	0.392688	-0.5554	-0.547853	-0.487015	9.33052	1.02363	-2.16904	-0.0285431	0.00316784	-0.00697308	-1.00024	0.356201	0.255371	0.406913	-0.560515	-0.466326	-0.550259	9.78797	0.529473	-0.707306	-0.0100494	-0.0134813	-0.020518	-1.06006	0.387939	0.177734	
5	0.692987	-0.559029	0.11161	-0.441361	3.25737	-8.47338	3.86253	0.0256025	0.27394	-0.0471	-0.0161133	1.01611	0.00415039	-0.614518	0.604663	-0.0240539	0.506133	5.84037	-7.64822	2.70203	-0.0345191	0.0485643	-0.0370914	-0.191162	0.867188	0.111572	-0.323082	0.0856664	-0.72262	0.605062	-3.47238	-9.17929	-0.581038	0.0840349	8.15862e-05	-0.0216781	-0.0695801	0.868408	0.326416	0.0689577	-0.00563307	0.134298	-0.988523	0.120461	-2.55036	9.50213	-0.0399834	-0.00788468	0.0421415	-0.384521	0.33374	-0.886719	0.294598	0.0197802	0.6387	-0.710551	-3.89092	-8.04557	2.03848	0.0476606	0.026335	-0.0401565	0.0600586	1.00024	-0.00415039	0.457446	-0.117652	0.822295	-0.317384	-5.24676	-5.92356	-2.45297	0.0559682	-0.0577353	-0.0367285	0.161133	0.57959	0.789551	-0.677636	0.557235	0.289549	0.382701	8.40103	-5.32548	2.07226	-0.0502226	0.0497315	-0.0453785	-0.501709	0.84082	-0.169922	0.391779	-0.478099	-0.610484	-0.495217	9.04703	2.04911	-1.85232	-0.066453	-0.0253084	0.00166479	-1.04565	0.179199	0.197266	0.445246	-0.44396	-0.60033	-0.494226	9.59815	1.97081	-1.18042	-0.0741328	-0.00687434	-0.0144692	-1.07373	0.202148	0.0935059	0.392688	-0.5554	-0.547853	-0.487015	9.33052	1.02363	-2.16904	-0.0285431	0.00316784	-0.00697308	-1.00024	0.356201	0.255371	0.406446	-0.560631	-0.466388	-0.550434	9.85999	0.561264	-0.620034	-0.00905317	0.00119796	-0.0150234	-1.06665	0.383301	0.17334	
6	0.691131	-0.557813	0.114868	-0.444959	3.48757	-8.61883	3.88514	-0.0497979	0.0687563	-0.0339575	-0.0209961	1.02466	0.00830078	-0.613658	0.604883	-0.0235716	0.506937	5.69721	-7.53535	2.82207	-0.0357665	0.00405866	-0.0727979	-0.195312	0.867188	0.111572	-0.321417	0.084282	-0.72303	0.605652	-3.35888	-9.10038	-0.652089	0.00668679	0.134681	-0.0110981	-0.0759277	0.868408	0.326416	0.0696008	-0.00535959	0.136884	-0.988124	0.00291146	-2.37579	9.97182	-0.203304	0.0326521	0.0650398	-0.376221	0.346924	-0.87793	0.294626	0.0203026	0.639523	-0.709784	-3.99237	-9.12648	1.93534	-0.0368033	0.0289263	0.0154546	0.0600586	0.998047	-0.00415039	0.457562	-0.116313	0.821165	-0.320618	-5.19705	-5.89774	-2.47249	0.147557	0.01726	-0.023683	0.154541	0.586182	0.782959	-0.677331	0.557253	0.289085	0.383564	8.00169	-5.17331	1.98018	-0.0282802	0.0677047	-0.0496631	-0.506104	0.84082	-0.172119	0.390813	-0.478887	-0.610884	-0.494726	9.25859	1.99427	-1.95288	0.00675474	-0.0288007	-0.0199532	-1.04126	0.177002	0.199463	0.445119	-0.443714	-0.600847	-0.493933	9.50906	2.0529	-1.1359	0.0478414	-0.010691	-0.0352142	-1.07373	0.202148	0.0979004	0.392372	-0.555442	-0.548018	-0.487036	9.34881	0.945249	-2.05437	0.0150938	-0.00448091	-0.00901971	-1.00464	0.354004	0.257812	0.406415	-0.560407	-0.466669	-0.550446	9.83561	0.455537	-0.647355	0.0202105	0.00635215	-0.0148977	-1.06006	0.390137	0.177734	
7	0.689609	-0.558121	0.116219	-0.44658	3.52582	-8.634	3.83518	-0.0610331	0.0742067	-0.0432872	-0.0227051	1.01831	0.00634766	-0.613339	0.604858	-0.0228142	0.507387	5.80742	-7.6444	2.63252	0.0242209	-0.00933938	-0.0449898	-0.193115	0.86499	0.106934	-0.318866	0.0819326	-0.72232	0.608165	-3.60224	-8.55409	-0.121995	0.0559255	0.154043	-0.0303983	-0.078125	0.866211	0.324219	0.0696241	-0.00186756	0.140199	-0.987671	-0.258116	-2.64842	9.88686	-0.0399334	0.195181	0.000797712	-0.371582	0.344727	-0.880127	0.29496	0.0246706	0.635743	-0.712896	-4.2875	-8.88547	1.63749	0.24914	0.103612	0.0965852	0.0644531	0.996094	-0.0153809	0.457313	-0.115293	0.821164	-0.321345	-5.44087	-5.85955	-2.64196	0.086238	0.0677531	0.0248804	0.167236	0.588379	0.785156	-0.675699	0.558875	0.288613	0.384437	8.18274	-5.4309	2.14118	-0.0850292	-0.0265864	-0.0299194	-0.505859	0.836426	-0.169922	0.390802	-0.478843	-0.611304	-0.494258	9.22668	2.10258	-1.8905	0.0456372	-0.0156123	-0.021999	-1.04126	0.177002	0.199463	0.445335	-0.442959	-0.60179	-0.493267	9.58454	1.87644	-1.05884	0.0840573	-0.0104792	-0.0399186	-1.07373	0.20459	0.0935059	0.391825	-0.555509	-0.548574	-0.486775	9.46519	0.742469	-2.05552	0.00424008	-0.0184601	-0.01921	-1	0.354004	0.255615	0.406647	-0.559922	-0.467271	-0.550257	9.84275	0.642554	-0.636858	0.038178	0.00481039	-0.0208995	-1.06909	0.387695	0.177734	
8	0.688205	-0.558949	0.116517	-0.447631	3.15842	-8.78483	3.77585	-0.0351614	-0.019627	-0.0565588	-0.0273438	1.02026	0.010498	-0.613428	0.604813	-0.02224	0.507359	5.92539	-7.39445	2.58587	0.020097	-0.012669	-0.0400095	-0.197754	0.871582	0.11377	-0.318866	0.0819326	-0.72232	0.608165	-3.60224	-8.55409	-0.121995	0.0559255	0.154043	-0.0303983	-0.078125	0.866211	0.324219	0.0688583	0.00691588	0.138438	-0.98795	-0.278398	-2.79659	9.21078	0.106112	0.380701	0.0459762	-0.358643	0.349365	-0.891357	0.296032	0.0269064	0.634974	-0.713056	-3.91078	-8.57493	1.87154	0.102578	0.0633355	0.158639	0.0688477	1.00049	-0.0200195	0.455685	-0.113693	0.82308	-0.319318	-5.14238	-5.03855	-3.09193	-0.122129	0.134808	0.0661999	0.163086	0.583984	0.789551	-0.676272	0.558063	0.289366	0.384044	8.23612	-5.22648	2.27117	0.0539745	0.0133306	-0.0190938	-0.508057	0.838623	-0.169922	0.390029	-0.479167	-0.611784	-0.49396	9.15878	2.32	-1.97378	-0.0227201	-0.014461	-0.0293321	-1.04541	0.174805	0.199707	0.445168	-0.442864	-0.602108	-0.493115	9.51903	2.15447	-0.931688	0.0230988	-0.0177789	-0.036198	-1.07373	0.202393	0.0913086	0.392161	-0.555058	-0.549163	-0.486354	9.39334	1.20332	-2.25402	0.0233412	0.0209595	-0.00443855	-1.00464	0.358398	0.253174	0.405569	-0.560105	-0.467047	-0.551057	9.83652	0.560282	-0.662371	-0.0487125	0.00446823	-0.0292268	-1.06445	0.385498	0.180176	
9	0.687926	-0.559802	0.115491	-0.447261	3.18318	-8.65571	3.65144	-0.0247439	-0.107822	-0.0416425	-0.0273438	1.02026	0.00830078	-0.612175	0.605684	-0.0231617	0.507792	6.01016	-7.59149	2.52093	-0.0838696	0.0438058	-0.0267313	-0.199951	0.869385	0.118652	-0.31328	0.079152	-0.720877	0.613128	-3.49322	-9.09702	-0.526096	0.164798	0.135115	-0.071026	-0.0825195	0.866455	0.317383	0.0693303	0.0152035	0.136321	-0.988119	-0.307299	-2.91724	9.17136	0.0877723	0.302992	0.0886528	-0.342529	0.338623	-0.897705	0.299157	0.0283448	0.636831	-0.710034	-4.13475	-8.70254	2.17561	-0.0855654	-0.0291152	0.145301	0.0776367	0.993896	-0.00854492	0.456078	-0.112985	0.823359	-0.318287	-5.53375	-5.70173	-3.16334	0.121606	-0.0344492	0.0240773	0.16333	0.577393	0.787598	-0.675733	0.558614	0.288509	0.384835	8.23357	-5.29644	2.11283	-0.0599329	0.0356106	-0.0215232	-0.503906	0.84082	-0.169922	0.389579	-0.479274	-0.611335	-0.494767	8.9548	2.13597	-2.22545	-0.0217643	0.0131997	-0.029362	-1.03882	0.172607	0.199707	0.443721	-0.443177	-0.602294	-0.493911	9.6256	2.05324	-1.30577	0.0493754	-0.0174759	-0.0401957	-1.07397	0.206787	0.0957031	0.390791	-0.555794	-0.54879	-0.487037	9.32919	1.01244	-2.17407	-0.0809047	-0.0222011	-0.00944634	-1	0.354004	0.257812	0.405343	-0.559963	-0.467157	-0.551274	9.84426	0.652769	-0.729481	-0.00595814	0.00987418	-0.031355	-1.05786	0.387939	0.182373	
10	0.688108	-0.562213	0.113191	-0.444535	3.74593	-8.71573	3.70098	-0.0332727	-0.169232	0.0285637	-0.0251465	1.02026	0.0170898	-0.611427	0.605518	-0.0235444	0.508872	5.80352	-7.64959	2.56264	-0.0273349	0.0418823	-0.0660617	-0.19751	0.867188	0.121094	-0.311098	0.0776482	-0.719436	0.616118	-3.55139	-9.25906	-0.677904	0.145318	0.10269	-0.0402236	-0.0825195	0.87085	0.30127	0.0700825	0.0178099	0.136746	-0.987963	-0.13378	-2.61803	8.86466	-0.0181189	0.204221	0.0955247	-0.335938	0.34082	-0.893311	0.3018	0.0338474	0.628433	-0.71613	-4.00112	-8.80586	1.78365	0.667086	-0.00285813	0.106704	0.088623	0.996338	-0.0383301	0.459647	-0.110519	0.819618	-0.32363	-5.46448	-5.47515	-2.3979	0.277257	-0.126355	0.0170576	0.166992	0.592529	0.77002	-0.673118	0.561019	0.286869	0.387139	8.2115	-5.14042	1.73709	-0.209343	0.0532742	-0.075284	-0.508301	0.842773	-0.157227	0.388759	-0.479781	-0.611963	-0.494144	9.23482	2.30062	-1.89682	0.0183094	-0.0382083	-0.018944	-1.04517	0.172607	0.204346	0.443228	-0.443274	-0.601836	-0.494823	9.53402	1.90496	-1.00869	-0.0347046	0.0121445	-0.036178	-1.07837	0.204346	0.0979004	0.3899	-0.556158	-0.548864	-0.487252	9.55262	0.749571	-2.09717	-0.00115848	-0.000768147	-0.0144153	-1.00684	0.35376	0.26001	0.404601	-0.560013	-0.466962	-0.551932	9.86812	0.45936	-0.559654	-0.029741	0.00765332	-0.0233425	-1.06201	0.381104	0.180176	
11	0.687702	-0.565062	0.111417	-0.441991	3.58805	-9.00592	3.62785	-0.0612274	-0.175621	-0.00569768	-0.0273438	1.02246	0.019043	-0.609815	0.606468	-0.0228956	0.509704	6.01541	-7.55025	2.73261	-0.0768189	0.00101229	-0.0899139	-0.204346	0.871338	0.111328	-0.309258	0.0772374	-0.719633	0.616865	-3.68745	-9.1423	-0.57666	0.0145924	0.0759678	-0.0538928	-0.0910645	0.873047	0.310303	0.0707529	0.0221405	0.139828	-0.987397	-0.654338	-3.42211	9.31563	-6.84578e-05	0.149794	0.0358699	-0.32959	0.349609	-0.902344	0.301081	0.0375282	0.623387	-0.720646	-4.17835	-7.97933	2.29895	0.303236	0.0609102	0.0170561	0.0864258	0.991943	-0.0498047	0.463423	-0.106138	0.815468	-0.330131	-5.1034	-5.61425	-2.06737	0.420656	-0.0545346	0.0337122	0.172607	0.612061	0.765137	-0.670363	0.563638	0.286374	0.388478	8.40613	-5.35418	2.10484	-0.102332	-0.016029	-0.0388804	-0.510498	0.842773	-0.155273	0.388371	-0.480198	-0.610741	-0.495553	9.20261	2.33023	-2.09928	-0.0875457	0.0748496	-0.0146985	-1.04102	0.172607	0.206543	0.442345	-0.443491	-0.601727	-0.495552	9.57586	2.07441	-1.1685	-0.0139778	-0.0122933	-0.0426057	-1.07349	0.195312	0.0957031	0.390627	-0.555222	-0.549063	-0.487512	9.30653	1.31045	-2.21504	0.0274609	0.0540538	-0.0123774	-1.00439	0.351807	0.255615	0.403997	-0.560012	-0.467027	-0.552322	9.83502	0.670214	-0.643784	-0.030091	-0.00106637	-0.0240025	-1.05981	0.385742	0.177979	
12	0.686916	-0.567949	0.108489	-0.440239	3.82257	-8.85943	3.48702	-0.0535336	-0.163038	-0.0409708	-0.0251465	1.02026	0.019043	-0.608931	0.607052	-0.0225562	0.51008	5.81385	-7.64602	2.55701	0.00704637	-0.00685184	-0.0417937	-0.199707	0.86499	0.118652	-0.308348	0.0780623	-0.71705	0.620215	-2.87893	-9.19897	-0.315652	0.141423	-0.00998927	-0.076388	-0.095459	0.873291	0.298828	0.0712664	0.0252882	0.134585	-0.988012	-0.234268	-2.39747	9.26378	0.174984	0.0709533	0.0707565	-0.324463	0.334473	-0.906494	0.300699	0.0386047	0.625205	-0.719172	-4.34223	-8.5753	1.70131	-0.0670334	0.0602925	-0.000166193	0.079834	0.994141	-0.0473633	0.464573	-0.104237	0.81521	-0.329756	-5.12664	-4.96814	-1.96345	-0.1373	0.028323	0.107512	0.177246	0.603516	0.756836	-0.669022	0.565188	0.286119	0.388726	8.27684	-5.1988	1.78633	-0.0378613	-0.0118077	-0.023065	-0.508301	0.842773	-0.155273	0.387173	-0.481011	-0.610423	-0.496094	8.98365	2.31409	-2.25676	-0.0420133	-0.0494361	-0.0168846	-1.04736	0.172607	0.211426	0.442603	-0.442792	-0.601903	-0.495733	9.61183	1.77269	-1.4359	0.0358862	0.0333784	-0.0347691	-1.07568	0.195312	0.0957031	0.390273	-0.555392	-0.548782	-0.487919	9.35592	1.14503	-2.29151	-0.0460183	0.0150716	-0.00467173	-1.00244	0.354004	0.253174	0.403495	-0.559934	-0.466669	-0.55307	9.7854	0.723182	-0.769831	-0.0446268	0.0274579	-0.0173846	-1.05957	0.376709	0.180176	
13	0.686842	-0.569595	0.107265	-0.438524	3.8531	-8.85859	3.46619	-0.0267535	-0.0926726	0.0341263	-0.0273438	1.02026	0.0212402	-0.608798	0.60651	-0.0215452	0.510926	5.96736	-7.41273	2.66162	0.0174958	0.0273899	-0.0675643	-0.201904	0.867188	0.116211	-0.308642	0.0789852	-0.716675	0.620386	-3.57044	-9.44122	-0.762961	0.0160515	-0.0481517	0.0127902	-0.0976562	0.873291	0.291992	0.0724468	0.0247566	0.137236	-0.987575	-0.674627	-2.6517	9.28248	-0.216324	-0.034901	0.0922162	-0.324951	0.347656	-0.908936	0.298167	0.0398814	0.627243	-0.718382	-4.29146	-8.13122	2.11817	-0.0546635	0.16029	-0.107369	0.0842285	0.994141	-0.045166	0.465656	-0.103526	0.815797	-0.32699	-5.35361	-5.57015	-2.52471	0.0920846	-0.0333661	0.0589306	0.179443	0.603516	0.760986	-0.667677	0.566654	0.287416	0.387947	8.29505	-5.26808	1.93475	-0.0334892	-0.0981916	-0.00298126	-0.512451	0.838379	-0.144287	0.386103	-0.482342	-0.608873	-0.497538	9.00826	2.27481	-1.90724	-0.0878953	0.0389409	-0.00957843	-1.04297	0.17041	0.206787	0.442619	-0.442607	-0.601715	-0.496111	9.26777	2.10292	-0.998986	-0.0126744	0.0314401	-0.0339638	-1.07349	0.197754	0.0935059	0.390739	-0.555066	-0.54847	-0.488268	9.25836	0.840359	-2.27682	0.0033866	0.0343431	0.00422803	-1.00439	0.351807	0.262451	0.403505	-0.559736	-0.466355	-0.553527	9.90048	0.689776	-0.611932	0.0176745	0.026426	-0.00592138	-1.06641	0.378906	0.175781	
14	0.687104	-0.570815	0.106843	-0.436627	3.61581	-8.75254	3.39586	-0.0391373	-0.0916673	0.0381875	-0.0251465	1.01807	0.027832	-0.607711	0.606801	-0.0205289	0.511917	6.09107	-7.42983	2.53706	-0.011311	0.00176378	-0.08896	-0.201904	0.869385	0.116211	-0.309527	0.0791924	-0.716317	0.620332	-3.43729	-9.10442	-0.514075	0.0189071	-0.0613278	0.0318824	-0.0976562	0.877686	0.303467	0.072903	0.0220814	0.139587	-0.987275	-0.359626	-3.14261	9.73507	-0.028915	-0.0781516	-0.0108474	-0.322998	0.351807	-0.900146	0.296223	0.0398897	0.627149	-0.719267	-4.02431	-8.47648	2.20832	0.0557653	0.101813	-0.145749	0.0842285	0.996338	-0.0405273	0.467167	-0.102721	0.814502	-0.328314	-5.29867	-4.74573	-2.25065	0.166087	-0.0954807	0.0223339	0.181396	0.609863	0.760742	-0.666884	0.567674	0.287954	0.387421	8.2761	-5.22447	1.80214	-0.041307	-0.0906652	-0.0114833	-0.512451	0.838379	-0.148682	0.385692	-0.482517	-0.608519	-0.49812	9.07162	2.31681	-2.21731	-0.0585569	0.0206016	-0.0297814	-1.04321	0.172607	0.204346	0.442882	-0.441675	-0.602219	-0.496095	9.60038	1.97274	-1.28368	0.079918	0.0186462	-0.0491088	-1.07104	0.193115	0.0913086	0.392089	-0.553674	-0.548922	-0.488258	9.42142	1.20075	-2.18589	0.0521041	0.0783265	-0.0127738	-1.0022	0.351807	0.250977	0.403664	-0.559583	-0.466032	-0.553838	9.7678	0.530115	-0.573876	-0.00549755	0.0234483	0.000333203	-1.05981	0.381348	0.177979	
15	0.686409	-0.573469	0.104519	-0.4348	3.90575	-8.85831	3.45573	-0.0529883	-0.16814	-0.0393547	-0.020752	1.01807	0.0300293	-0.607598	0.606678	-0.0194976	0.512237	6.0231	-7.55906	2.68447	0.0428316	-0.0134346	-0.0375599	-0.208252	0.862793	0.114014	-0.311837	0.0803751	-0.713629	0.622118	-3.27628	-9.14843	0.0391274	0.106121	-0.0696069	-0.00661554	-0.0957031	0.881836	0.296387	0.0741804	0.0219876	0.137013	-0.987543	-0.544272	-2.44324	9.81465	0.0396571	-0.0143748	0.0602634	-0.322754	0.343018	-0.9021	0.293133	0.041199	0.621686	-0.725178	-4.63018	-8.42275	2.09468	0.237325	0.0249092	-0.0598399	0.0778809	0.987549	-0.0566406	0.467205	-0.102948	0.813615	-0.330382	-5.50246	-5.73499	-2.66982	0.115638	0.0589815	-0.0546006	0.185791	0.605713	0.765137	-0.66735	0.566832	0.290649	0.385836	8.45298	-5.31585	1.80767	0.114248	-0.0544032	-0.0136107	-0.512451	0.836426	-0.148682	0.385531	-0.482538	-0.608164	-0.498657	9.17748	2.43994	-1.82866	0.00050549	0.0378271	-0.0175842	-1.03638	0.168213	0.208984	0.444526	-0.439035	-0.603076	-0.495928	9.26562	2.19262	-0.821794	0.0354707	0.04986	-0.0500418	-1.07349	0.197754	0.0847168	0.393614	-0.552325	-0.549033	-0.488435	9.55204	0.698666	-2.17553	0.144391	0.109339	-0.00485704	-1.00659	0.351562	0.246338	0.40428	-0.559314	-0.466317	-0.55342	9.78002	0.51092	-0.51128	0.0336155	0.00641271	0.00683449	-1.06201	0.381104	0.182373	
16	0.686066	-0.574601	0.102908	-0.434231	3.93191	-8.94327	3.40482	-0.024811	-0.157719	-0.0632267	-0.0229492	1.02246	0.0234375	-0.608018	0.606339	-0.0185186	0.512176	6.06415	-7.32964	2.68475	0.0676698	-0.0225403	-0.0438842	-0.210205	0.858398	0.118896	-0.312211	0.0811123	-0.714575	0.620748	-3.60499	-9.13597	-0.250559	-0.136653	-0.033973	0.0174673	-0.0869141	0.873047	0.30127	0.0752114	0.0218483	0.138369	-0.987279	-0.677026	-2.52791	9.55865	-0.10903	-0.0101929	0.085591	-0.325195	0.349609	-0.895752	0.293529	0.0402291	0.622854	-0.724068	-3.89186	-8.27153	2.12865	-0.146521	-0.036007	-0.0174001	0.0756836	0.991943	-0.0541992	0.466491	-0.103442	0.814202	-0.32979	-5.35791	-4.95482	-2.70276	-0.0735924	0.0706607	-0.0341282	0.181641	0.603516	0.760986	-0.667997	0.566122	0.291687	0.384973	8.21849	-5.12695	1.7745	0.137446	-0.0449403	-0.0122051	-0.514648	0.840576	-0.148682	0.386074	-0.482021	-0.607581	-0.499448	9.1633	2.3494	-2.01834	-0.0195542	0.110082	-0.0229724	-1.04517	0.172607	0.206787	0.444422	-0.43895	-0.60271	-0.496541	9.50948	2.14083	-1.01535	-0.0393253	0.035801	-0.0366219	-1.07324	0.193115	0.0869141	0.395239	-0.55082	-0.549639	-0.488141	9.32792	1.16544	-1.88331	0.159549	0.108495	-0.0182357	-1.00903	0.35376	0.246338	0.40477	-0.559012	-0.466882	-0.552891	10.0406	0.688668	-0.667985	0.0798289	-0.00400947	-0.00194627	-1.06201	0.381104	0.171143	
17	0.685916	-0.575366	0.101186	-0.433861	3.9588	-8.78851	3.31474	0.00826645	-0.143021	-0.0697149	-0.0297852	1.02222	0.0319824	-0.608842	0.605993	-0.0180719	0.511622	6.02817	-7.53248	2.61349	0.0523435	-0.0121286	0.0176627	-0.210449	0.860596	0.111816	-0.31338	0.0816371	-0.714463	0.620218	-3.4539	-9.43174	-0.173473	-0.0251942	-0.0891623	0.0404872	-0.0935059	0.875488	0.294189	0.0765597	0.0216539	0.139555	-0.987013	-0.480017	-2.68651	9.63175	-0.0363166	0.00569819	0.06419	-0.322998	0.349609	-0.900146	0.29423	0.0392425	0.625432	-0.721612	-3.98907	-8.1219	2.36791	-0.296827	-0.0146923	0.0269157	0.0754395	0.994141	-0.045166	0.466249	-0.105839	0.81494	-0.327541	-5.2301	-5.69517	-2.22813	-0.0160889	-0.0207993	-0.0420626	0.179443	0.60791	0.767334	-0.669419	0.56485	0.293233	0.383194	8.39881	-5.33488	1.79493	0.140922	-0.0137261	-0.00126906	-0.518799	0.836426	-0.150635	0.387012	-0.480447	-0.608277	-0.499391	9.10137	2.03111	-2.13882	0.105106	0.0397072	-0.0493966	-1.04297	0.17041	0.202148	0.445936	-0.436892	-0.604186	-0.495202	9.59751	2.11137	-1.20282	0.130552	0.0322705	-0.0338489	-1.07568	0.195557	0.0847168	0.395951	-0.54984	-0.550551	-0.487639	9.35696	1.15496	-1.92067	0.0486109	0.00556846	-0.0160338	-1.00684	0.355957	0.241699	0.405569	-0.558459	-0.467712	-0.552162	9.79335	0.545808	-0.514103	0.0477877	0.00199001	-0.00250202	-1.05957	0.378906	0.175781	
18	0.68777	-0.575493	0.0962547	-0.431875	3.89323	-8.72315	3.31511	0.122575	-0.127358	0.00777615	-0.0273438	1.02026	0.0212402	-0.610794	0.604832	-0.0177632	0.510679	5.91068	-7.26712	2.62228	0.0296644	0.0211529	0.0438619	-0.204102	0.867188	0.111572	-0.3158	0.0826865	-0.715826	0.617273	-3.58539	-9.20253	-0.332047	-0.0306485	-0.0332087	0.049655	-0.0825195	0.868652	0.305908	0.0789103	0.0224315	0.141606	-0.986518	-0.842041	-2.67554	9.18613	-0.084968	0.0205871	0.0990147	-0.325684	0.358398	-0.897949	0.294548	0.0392734	0.623659	-0.723013	-3.9777	-8.22106	2.34755	0.169377	0.0139463	0.00500181	0.0732422	0.994141	-0.052002	0.466462	-0.106688	0.814703	-0.32755	-5.57633	-5.07518	-2.43774	-0.0867251	-0.000414121	-0.0469361	0.181641	0.605713	0.769531	-0.670712	0.563759	0.29412	0.381857	8.28675	-5.02617	1.86169	0.0567928	-0.00972943	0.0184018	-0.508057	0.838623	-0.159424	0.388589	-0.478457	-0.609424	-0.498678	9.06082	2.53237	-1.77459	0.0916435	0.057487	-0.0497427	-1.04053	0.164062	0.19751	0.446758	-0.43608	-0.604509	-0.494783	9.42302	2.09691	-1.09936	0.0370197	0.02192	-0.0181297	-1.07788	0.190918	0.0803223	0.39696	-0.548684	-0.551071	-0.487533	9.40803	0.888629	-2.32489	0.077407	0.072754	-0.0127096	-1.00879	0.349365	0.235107	0.406223	-0.558083	-0.468399	-0.551479	9.83396	0.839461	-0.646246	0.0159718	0.000426517	0.000573712	-1.06201	0.381104	0.17334	
19	0.68994	-0.574413	0.09456	-0.430222	3.9082	-8.55693	3.44136	0.0772309	-0.0652141	0.0550426	-0.0185547	1.02246	0.019043	-0.61209	0.604509	-0.0174543	0.50952	6.11084	-7.50277	2.80639	0.0635476	-0.0137222	0.0238137	-0.206299	0.866943	0.104492	-0.317629	0.0839334	-0.716486	0.615398	-3.5255	-9.01874	-0.244096	-0.107293	-0.0949538	0.022139	-0.0803223	0.87085	0.308105	0.0795653	0.022612	0.141861	-0.986425	-0.680197	-2.72462	9.28861	-0.0173589	0.0125113	0.0608356	-0.325684	0.358398	-0.902344	0.296039	0.0355393	0.628593	-0.71831	-4.15713	-8.97697	1.91721	-0.370402	-0.109529	-0.000211078	0.0817871	1.00049	-0.0336914	0.465315	-0.108472	0.81501	-0.327833	-5.22126	-5.47845	-2.25198	0.0286709	0.0759346	-0.0950622	0.175293	0.603516	0.767578	-0.671757	0.562646	0.29526	0.38078	8.56777	-5.1721	1.96808	0.131507	0.0156819	-0.0168532	-0.510498	0.84082	-0.159424	0.389387	-0.477729	-0.610203	-0.497801	9.2017	2.48393	-2.00093	0.0638624	0.0300615	-0.00693658	-1.0498	0.174805	0.197266	0.447506	-0.435174	-0.605182	-0.494081	9.55533	2.17668	-0.99589	0.0623347	0.0132388	-0.0157586	-1.07788	0.188721	0.0759277	0.398336	-0.547557	-0.552149	-0.486457	9.31579	1.16205	-2.02596	0.0587638	-0.00891301	-0.00103664	-1.00684	0.355957	0.239502	0.407038	-0.557758	-0.4688	-0.550865	9.79796	0.702493	-0.695746	0.073158	0.00888395	0.0101633	-1.06445	0.385498	0.17334	
20	0.691022	-0.574214	0.0928873	-0.429115	3.95529	-8.63688	3.42673	0.0561691	-0.0738349	-0.00112669	-0.0229492	1.02246	0.019043	-0.61359	0.603914	-0.0171288	0.50843	5.97382	-7.43041	2.7934	0.0520731	-0.0158791	0.041362	-0.19751	0.864746	0.102295	-0.318478	0.0846716	-0.717346	0.613854	-3.54588	-9.06019	-0.402553	-0.0601165	0.00221035	0.0221287	-0.0825195	0.873047	0.310303	0.0817687	0.0220668	0.144192	-0.985919	-0.739132	-2.65077	9.26053	-0.166345	-0.0397342	0.0749612	-0.321777	0.369385	-0.891602	0.29792	0.0348145	0.628273	-0.717848	-4.54471	-8.15971	2.1559	0.0715642	-0.0389239	0.00682793	0.0795898	0.998291	-0.0361328	0.462825	-0.110259	0.815892	-0.328568	-5.39089	-5.47468	-2.47432	-0.0650329	0.0790232	-0.100546	0.170898	0.605713	0.765381	-0.673103	0.56132	0.295876	0.379882	8.40916	-5.05908	2.02175	0.122904	-0.0279243	-0.00204655	-0.510498	0.840576	-0.157227	0.390303	-0.4768	-0.61079	-0.497253	9.11485	2.17523	-1.95861	0.0951257	0.0208362	-0.0323547	-1.04517	0.172607	0.206787	0.447384	-0.435874	-0.604184	-0.494795	9.54938	1.81855	-1.22969	-0.0110155	0.0108909	0.00175922	-1.08008	0.190918	0.0756836	0.398276	-0.547624	-0.552213	-0.486358	9.52007	1.13102	-2.09446	0.022885	0.0241303	-0.00133643	-1.01147	0.355957	0.241699	0.407375	-0.557919	-0.468508	-0.550702	9.93962	0.673123	-0.534612	-0.0155854	0.00819633	0.0146694	-1.0647	0.390137	0.17334	
21	0.691527	-0.574647	0.092102	-0.427889	3.92363	-8.67837	3.3581	9.28393e-05	-0.0660556	0.0308156	-0.0229492	1.02026	0.0148926	-0.614538	0.603493	-0.0165443	0.507805	5.88275	-7.49804	2.70697	0.0262424	-0.0144023	-0.00589524	-0.199707	0.86499	0.104492	-0.319214	0.0856366	-0.71767	0.612959	-3.60189	-9.03798	-0.484725	-0.0350043	-0.0362973	0.00379909	-0.0847168	0.87085	0.312744	0.0822007	0.0209968	0.14544	-0.985723	-0.67255	-2.85456	9.43871	-0.0097292	-0.0258462	-0.00288553	-0.325928	0.36499	-0.895996	0.298717	0.0332622	0.628863	-0.717073	-4.1067	-7.88264	2.23152	-0.111718	-0.104074	-0.029483	0.0800781	0.991699	-0.0361328	0.462654	-0.11299	0.816014	-0.327574	-5.58205	-5.85875	-2.35069	-0.0615584	-0.0584034	-0.0812269	0.169189	0.594727	0.771973	-0.67444	0.559495	0.296924	0.379384	8.28271	-5.19292	2.05001	0.0990446	0.012769	-0.0230443	-0.519043	0.840576	-0.163574	0.39144	-0.475443	-0.612489	-0.495566	9.1033	2.34107	-2.00128	0.110041	0.00515157	-0.0341713	-1.04077	0.170654	0.197266	0.448356	-0.435495	-0.604323	-0.49408	9.66463	2.18497	-1.15538	0.0102286	0.0316272	0.00828495	-1.07544	0.190918	0.0825195	0.398416	-0.547738	-0.552123	-0.486218	9.34278	0.909044	-2.13489	-0.0104628	0.00558379	0.0105855	-1.00928	0.360352	0.237061	0.40748	-0.558152	-0.468061	-0.550769	9.91166	0.775705	-0.722514	-0.0303692	0.0106171	0.0093226	-1.06226	0.385742	0.17334	
22	0.69169	-0.574793	0.0918414	-0.427484	3.8798	-8.80787	3.42001	0.0134369	-0.00951368	-0.00107611	-0.0227051	1.01807	0.0148926	-0.615593	0.602945	-0.0159206	0.507197	5.94589	-7.35237	2.77754	0.0295966	0.00162391	0.00921221	-0.193359	0.871338	0.104248	-0.319502	0.0862598	-0.718454	0.611802	-3.57893	-9.17062	-0.489328	-0.0362832	0.00496863	0.0108202	-0.078125	0.866455	0.314941	0.0821617	0.0205999	0.145433	-0.985735	-0.676655	-2.95731	9.19664	0.00170471	-0.0271757	-0.000944649	-0.323975	0.369385	-0.893799	0.297836	0.0271176	0.632199	-0.714761	-3.61834	-9.3169	1.76504	0.130128	-0.0372861	-0.093581	0.0751953	1.00049	-0.0246582	0.46409	-0.112585	0.81403	-0.330606	-5.07996	-5.57955	-2.34461	0.131509	-0.0193414	-0.0262924	0.172852	0.60791	0.765137	-0.675806	0.557939	0.297333	0.378925	8.22638	-5.00947	2.28799	0.0749086	0.00571584	-0.00573274	-0.520996	0.836426	-0.172119	0.391354	-0.475606	-0.613678	-0.494005	9.14592	2.22044	-1.84566	0.0616601	-0.0508494	-0.00990068	-1.04321	0.172852	0.192627	0.448735	-0.435579	-0.603924	-0.494149	9.5555	1.81167	-1.15105	-0.0028799	0.0351742	0.0117317	-1.07788	0.193115	0.0778809	0.398284	-0.54789	-0.5521	-0.48618	9.3954	0.986128	-2.09444	-0.0063556	-0.00228245	0.00516924	-1.00684	0.35376	0.239502	0.407698	-0.558416	-0.467284	-0.550999	9.85254	0.506225	-0.570112	-0.0194801	0.0189529	0.021273	-1.06445	0.383301	0.17334	
23	0.692288	-0.574342	0.0912236	-0.427256	3.72257	-8.65394	3.45948	0.0429832	-0.0242541	0.0110628	-0.0227051	1.01831	0.0126953	-0.61556	0.603463	-0.0161488	0.506614	5.95871	-7.41192	2.82582	-0.0545795	0.00847895	-0.00581561	-0.197754	0.871338	0.0949707	-0.31977	0.0868307	-0.719806	0.60999	-3.58595	-9.12697	-0.596755	-0.0943397	0.00486457	0.0137687	-0.0803223	0.868652	0.31958	0.0824477	0.0191622	0.147504	-0.985433	-0.792039	-3.04185	9.49305	-0.125688	-0.0469999	0.0187127	-0.330811	0.373779	-0.893799	0.298101	0.0265016	0.631791	-0.715034	-4.35207	-8.09143	2.40721	-0.12942	-0.051092	-0.00144821	0.0732422	0.996094	-0.0224609	0.463605	-0.112865	0.814375	-0.330342	-5.21388	-5.47118	-2.54846	-0.0379288	0.0537214	-0.0282979	0.168701	0.603516	0.765381	-0.675982	0.557798	0.297488	0.378695	8.4611	-5.09299	1.96766	0.0438096	0.00257702	-0.00634516	-0.512207	0.834229	-0.171875	0.39129	-0.475761	-0.614431	-0.492969	9.20868	2.49858	-1.72564	0.0783493	-0.0583765	-0.00898619	-1.04517	0.168213	0.206787	0.449831	-0.435219	-0.603906	-0.493492	9.48121	2.3082	-0.713653	0.0225507	0.0207209	0.00694308	-1.07568	0.193115	0.0825195	0.399318	-0.547376	-0.552538	-0.485413	9.46207	1.08916	-2.07198	0.0762662	0.0310334	0.0151431	-1.01562	0.35376	0.237305	0.40754	-0.558948	-0.466104	-0.551575	9.91946	0.734836	-0.649472	-0.0859065	0.0229919	0.01659	-1.0647	0.390137	0.17334	
24	0.692617	-0.574308	0.0911589	-0.426781	3.79925	-8.50454	3.48958	0.0168367	-0.0328647	0.036089	-0.0209961	1.02686	0.00830078	-0.615364	0.603616	-0.0163539	0.506664	5.93545	-7.56397	2.61472	-0.0356553	0.0222414	-0.0182018	-0.197754	0.871338	0.102051	-0.319796	0.0867237	-0.719487	0.610367	-3.36445	-9.20814	-0.728467	0.0445559	0.00719143	-0.00374355	-0.0803223	0.868652	0.31958	0.0825381	0.0186638	0.148082	-0.985348	-0.326669	-3.01258	9.24644	0.0503379	-0.00234375	-0.0111728	-0.326416	0.373779	-0.898438	0.298594	0.024485	0.634277	-0.712696	-4.06919	-8.1925	2.05969	-0.309226	-0.0669699	-0.0378595	0.0712891	0.993896	-0.0153809	0.462899	-0.114708	0.815137	-0.328813	-5.3964	-6.02805	-2.46256	-0.0357698	-0.00514834	-0.0452049	0.168945	0.601318	0.769775	-0.676446	0.557496	0.29653	0.379063	8.09708	-5.11407	2.03741	0.0239045	0.047328	0.00280162	-0.51001	0.834229	-0.169922	0.391542	-0.475801	-0.614543	-0.492591	9.35954	2.41845	-1.89661	0.0367492	0.0077705	0.00206259	-1.04736	0.172607	0.204346	0.44882	-0.437139	-0.601742	-0.495356	9.57067	1.80024	-0.919582	-0.122678	0.00535744	0.00993694	-1.07324	0.193115	0.0847168	0.398111	-0.548705	-0.551507	-0.486076	9.4357	1.09884	-2.08335	-0.123774	-0.0317068	0.0220066	-1.00269	0.360596	0.239502	0.4071	-0.559368	-0.465296	-0.552157	9.86293	0.484376	-0.602685	-0.0878173	0.0232044	0.00909414	-1.06445	0.385498	0.171143	
25	0.692815	-0.57481	0.0918458	-0.425635	3.60607	-8.84169	3.36437	-0.0235548	-0.02809	0.0479332	-0.013916	1.01831	0.0126953	-0.615696	0.603266	-0.0163539	0.506677	5.96186	-7.42576	2.68195	-0.00490404	0.0317672	-0.00446765	-0.195312	0.86499	0.104492	-0.320454	0.0875956	-0.719595	0.609769	-3.45892	-9.20067	-0.250798	-0.0885731	-0.0236551	0.00886838	-0.0759277	0.857666	0.319824	0.0824171	0.0186377	0.147397	-0.985461	-0.683695	-2.73764	9.52835	-0.0261495	-0.0132384	0.0201764	-0.323975	0.371582	-0.889404	0.298309	0.0233614	0.635444	-0.711813	-3.83166	-9.17851	1.55711	-0.137495	-0.0109264	-0.0689796	0.0710449	0.996094	-0.0153809	0.463712	-0.114525	0.814412	-0.329527	-5.16348	-5.24051	-2.59349	-0.0232877	-0.0183002	-0.00176156	0.170898	0.603516	0.765381	-0.676298	0.557724	0.296503	0.379011	8.42691	-5.18382	2.06585	0.0247341	0.0386393	-0.0153857	-0.512451	0.836426	-0.174072	0.39201	-0.476129	-0.613549	-0.49314	9.04958	2.3693	-1.78057	-0.00647192	0.0292768	0.0129813	-1.04297	0.17041	0.199707	0.44827	-0.438205	-0.601436	-0.495282	9.43258	2.15038	-0.924116	-0.0326231	-0.0347016	0.0017179	-1.07837	0.199951	0.0800781	0.396909	-0.550321	-0.549871	-0.487086	9.39211	1.01992	-1.82413	-0.0951985	0.00869068	0.0359629	-1.00464	0.354004	0.239502	0.405782	-0.560515	-0.463193	-0.55373	9.84067	0.736879	-0.582382	-0.14534	0.023235	0.00882187	-1.06006	0.387939	0.177734	
26	0.69282	-0.575187	0.091636	-0.425162	3.98752	-8.44548	3.4603	-0.0177649	-0.00877485	-0.00266503	-0.00976562	1.02051	0.0170898	-0.61535	0.603557	-0.0172298	0.506721	6.02025	-7.55724	2.46078	-0.0408059	0.0275734	-0.00127194	-0.195557	0.869141	0.102051	-0.320738	0.0868009	-0.719747	0.609554	-3.39976	-9.14519	-0.576206	0.021376	0.00669669	0.0238009	-0.0803223	0.868652	0.317383	0.0831097	0.0183272	0.149763	-0.985052	-0.289795	-3.14875	9.29722	-0.0156881	0.0160624	0.0231289	-0.330811	0.373779	-0.88501	0.297442	0.0230724	0.632975	-0.71438	-4.03322	-8.31616	1.85174	-0.0886219	-0.045357	-0.0699592	0.0666504	0.996094	-0.0246582	0.465147	-0.115803	0.813555	-0.329176	-5.34746	-5.67381	-2.4997	0.0541876	-0.0695503	-0.0373929	0.171143	0.599121	0.769775	-0.676578	0.556935	0.295583	0.38039	8.23876	-5.29578	2.12881	0.0129987	0.0944188	-0.0421544	-0.508301	0.84082	-0.169922	0.392592	-0.476442	-0.612181	-0.494074	9.18463	2.17246	-2.07098	-0.063496	0.0427434	0.0153596	-1.04126	0.177002	0.201904	0.447132	-0.440136	-0.600089	-0.496232	9.82466	1.7639	-1.37502	-0.115011	-0.0139988	0.0139009	-1.07373	0.199951	0.0844727	0.394981	-0.552127	-0.548383	-0.488284	9.45924	0.709706	-2.10732	-0.111634	-0.010224	0.0139589	-1.00684	0.355957	0.250977	0.404576	-0.561668	-0.461475	-0.554877	9.86928	0.303083	-0.551839	-0.037355	0.00715703	0.0111811	-1.06226	0.390137	0.168701	
27	0.6928	-0.575179	0.0938248	-0.424728	3.50982	-8.94486	3.32143	-0.0178304	0.0399451	0.0751273	-0.0119629	1.02051	0.0170898	-0.616471	0.602127	-0.0182253	0.507024	5.85655	-7.62625	2.91804	0.0563177	0.0842551	0.031251	-0.191162	0.871338	0.097168	-0.3223	0.0876624	-0.719261	0.609181	-3.34349	-9.29832	-0.0894952	-0.0440385	-0.0457347	0.0382381	-0.0739746	0.868408	0.314941	0.0832128	0.0187096	0.148975	-0.985156	-0.67232	-2.47933	9.64176	-0.0563089	-0.00498794	0.0241075	-0.333252	0.378174	-0.894043	0.297912	0.0218602	0.634043	-0.713275	-3.87558	-9.09744	1.63147	-0.0171695	-0.0086255	0.0134936	0.0666504	0.998291	-0.0224609	0.465661	-0.117098	0.813362	-0.328467	-4.9659	-5.58803	-2.46799	-0.107282	0.0106737	-0.0328479	0.173096	0.601318	0.769775	-0.677841	0.554436	0.2943	0.382779	8.46164	-5.30897	2.3058	0.0581602	0.146785	-0.0537493	-0.512451	0.838623	-0.17627	0.391699	-0.478164	-0.611137	-0.494411	9.13892	2.20845	-2.13966	-0.059388	-0.0174979	0.0297103	-1.04541	0.177002	0.199707	0.447881	-0.439981	-0.600902	-0.494708	9.47203	2.36423	-0.85662	0.0377657	-0.0158544	0.00600978	-1.07837	0.199951	0.0822754	0.395339	-0.552575	-0.548661	-0.487174	9.23386	0.908016	-1.96189	0.055565	-0.0189451	0.0304207	-1.00684	0.355957	0.248535	0.404544	-0.56223	-0.460671	-0.554999	9.63751	0.479123	-0.564921	-0.0556305	0.00493625	0.0241883	-1.06445	0.385498	0.177979	
28	0.69407	-0.575033	0.0942475	-0.422755	3.50509	-8.78897	3.38085	0.0157279	-0.0712094	0.0913588	-0.00537109	1.02271	0.0170898	-0.617971	0.60043	-0.0200207	0.507144	5.63542	-7.51387	2.84763	0.0242481	0.0661831	0.0481657	-0.191162	0.871338	0.097168	-0.322759	0.0856212	-0.721296	0.606818	-3.82298	-8.81266	-0.878122	-0.11823	0.0733979	0.110861	-0.0739746	0.868408	0.328613	0.0835819	0.0180848	0.153338	-0.984467	-0.514725	-2.75431	9.57666	-0.176401	-0.00978563	0.0132971	-0.329102	0.384766	-0.889648	0.298599	0.0227143	0.633277	-0.713641	-3.65126	-8.60778	1.77606	0.0804732	0.00371596	0.06086	0.0666504	0.998291	-0.0153809	0.465203	-0.118213	0.814922	-0.324828	-5.36554	-5.72786	-2.32576	-0.150502	0.0154363	0.0462169	0.17334	0.596924	0.776367	-0.679087	0.55311	0.29293	0.383539	8.32754	-5.2854	2.08171	0.0444171	0.0502695	-0.00183965	-0.512451	0.838623	-0.178467	0.391756	-0.479048	-0.610001	-0.494913	9.17038	2.12428	-1.94075	0.0050469	0.0117288	0.00802939	-1.04126	0.177002	0.201904	0.447582	-0.441031	-0.600281	-0.494798	9.53887	2.0304	-0.933494	0.00310672	-0.016008	0.00441308	-1.07593	0.202393	0.0844727	0.395304	-0.553087	-0.548261	-0.487073	9.49493	1.00262	-2.05416	-0.0148853	-0.000593707	0.0249408	-1.00244	0.356201	0.250977	0.404473	-0.562816	-0.460504	-0.554594	9.9813	0.562494	-0.570324	0.0141111	-0.0160869	0.0146422	-1.06006	0.387939	0.18457	
29	0.694658	-0.575721	0.0945322	-0.420784	3.77638	-8.86109	3.41235	-0.0266384	-0.0402617	0.0580152	-0.00537109	1.02271	0.0148926	-0.617768	0.600137	-0.0214588	0.507679	5.76842	-7.44933	2.74609	-0.0637117	0.0599921	-0.00766549	-0.191162	0.866943	0.0949707	-0.322802	0.0843091	-0.722243	0.605852	-3.71149	-8.74143	-0.585635	0.0230663	0.062512	0.0311536	-0.0737305	0.866211	0.321777	0.080692	0.0204433	0.151168	-0.984997	-0.795383	-3.28294	8.93776	0.181314	0.136124	-0.102142	-0.326416	0.375977	-0.89624	0.297333	0.0208647	0.640566	-0.707696	-3.53057	-9.26452	1.79415	-0.217945	0.0692511	-0.0573241	0.0622559	0.998047	-0.00170898	0.465857	-0.117953	0.814866	-0.324127	-5.05693	-5.63103	-2.25207	-0.0125117	-0.0129739	0.0247769	0.173828	0.588379	0.778564	-0.67942	0.552902	0.291618	0.38425	8.17606	-5.17138	2.40458	-0.0318203	0.0433464	0.0083633	-0.505859	0.834229	-0.186768	0.391992	-0.479034	-0.60995	-0.494803	9.31469	2.07134	-1.95394	0.00186857	0.0178159	-0.0170675	-1.04565	0.179199	0.197266	0.446922	-0.442506	-0.59925	-0.495327	9.67157	1.56617	-1.12565	-0.0184192	-0.0167775	0.00934474	-1.07593	0.202393	0.0822754	0.394009	-0.55416	-0.547882	-0.487329	9.47484	0.729223	-2.20061	-0.0510734	-0.027711	0.000977352	-0.998047	0.358398	0.250977	0.40453	-0.563015	-0.460376	-0.554458	9.85778	0.57045	-0.627631	-0.0255903	0.00469367	0.00501288	-1.06226	0.390137	0.17334	
30	0.693971	-0.577	0.0951542	-0.420025	3.47412	-8.92591	3.3539	-0.0820996	-0.0342636	0.00688083	-0.000732422	1.01831	0.0192871	-0.616463	0.600826	-0.0234263	0.508362	5.77097	-7.56788	2.86571	-0.0810938	0.0704815	-0.0212452	-0.189209	0.87793	0.106445	-0.321312	0.0830529	-0.721494	0.607707	-3.33375	-9.14451	-0.60827	0.105504	0.0773319	-0.0160435	-0.0737305	0.866211	0.321777	0.078146	0.0220683	0.147392	-0.985739	-0.587709	-2.58948	8.82526	0.0700198	0.0193486	-0.0810171	-0.328125	0.367188	-0.902588	0.295684	0.023152	0.635175	-0.713153	-4.3175	-8.83652	1.85578	0.413992	0.063732	-0.0525575	0.0666504	1.00049	-0.0178223	0.46573	-0.11652	0.814445	-0.32588	-5.28443	-5.44049	-2.39269	0.0980688	0.0633095	-0.00727895	0.17334	0.594727	0.77417	-0.679483	0.553137	0.290301	0.384796	7.99214	-5.02429	2.23019	-0.0350185	0.085403	9.54877e-05	-0.506104	0.838623	-0.191162	0.391892	-0.479613	-0.609557	-0.494805	8.86858	2.18335	-1.83869	-0.0351207	-0.0194196	-0.00142193	-1.03931	0.183594	0.199463	0.447009	-0.442913	-0.599225	-0.494914	9.46058	2.21252	-1.27437	-0.0759657	-0.000177483	0.0057555	-1.07837	0.202148	0.0891113	0.394488	-0.554521	-0.54771	-0.486723	9.294	0.967051	-2.21539	0.00651779	0.00497457	0.0326197	-1.00488	0.362793	0.25293	0.404312	-0.563473	-0.46001	-0.554455	9.91855	0.587501	-0.675548	-0.00356358	-0.00378036	0.0061275	-1.05762	0.385742	0.182373	
31	0.693327	-0.577991	0.0948413	-0.419796	3.57424	-8.83554	3.36599	-0.0750729	-0.062324	-0.0306206	-0.00976562	1.02271	0.0214844	-0.615225	0.601274	-0.0250863	0.509253	5.88705	-7.66385	2.60257	-0.094947	0.079164	-0.0199346	-0.193359	0.871338	0.102051	-0.320414	0.0824872	-0.722368	0.60722	-3.50843	-9.03028	-0.581719	-0.0599823	0.0374539	-0.00654387	-0.0717773	0.870605	0.321777	0.0771885	0.0209668	0.149124	-0.985578	-0.509889	-2.95626	9.05024	-0.14034	-0.0606507	-0.083705	-0.326172	0.369385	-0.893799	0.294935	0.0243069	0.634137	-0.714348	-3.94045	-7.80958	2.01942	-0.139362	0.0303817	-0.0227232	0.0622559	0.996094	-0.0178223	0.464767	-0.115866	0.814809	-0.326579	-5.24543	-5.26229	-2.35144	0.0555396	0.118867	-0.015093	0.173584	0.592529	0.771973	-0.679148	0.553721	0.289991	0.38478	8.17266	-5.02685	2.30561	-0.0398585	0.00365869	0.00238138	-0.506104	0.843018	-0.182861	0.391446	-0.4804	-0.609409	-0.494578	9.12356	2.21978	-1.94127	-0.0314586	-0.0425969	0.0154085	-1.0437	0.185791	0.204102	0.446803	-0.443574	-0.598472	-0.49542	9.60532	1.6125	-1.17305	-0.0789178	0.0121653	0.0134147	-1.06934	0.207031	0.0844727	0.394195	-0.554736	-0.54752	-0.48693	9.35259	1.10342	-2.28334	-0.0322677	0.00471977	0.00137978	-1.00244	0.358398	0.253174	0.404245	-0.563818	-0.459058	-0.554942	9.73991	0.534428	-0.647457	-0.0293627	0.027321	0.0151279	-1.0603	0.392334	0.175537	
32	0.691627	-0.581287	0.0922822	-0.41862	3.67658	-9.03963	3.36746	-0.0333591	-0.136555	-0.0578462	-0.0078125	1.0249	0.0256348	-0.614818	0.601295	-0.0257368	0.509687	5.72834	-7.68701	2.70181	-0.0557883	0.0678423	-0.023875	-0.191162	0.871582	0.111328	-0.319879	0.0822661	-0.721925	0.608057	-3.57306	-9.13396	-0.656597	0.0759027	0.0440837	-0.0370755	-0.0695801	0.870605	0.321777	0.0754626	0.0185068	0.150418	-0.985564	-0.625391	-3.16505	9.23846	-0.0151443	-0.0778629	-0.0788673	-0.337402	0.371582	-0.893799	0.294508	0.0226939	0.637518	-0.711562	-4.08332	-8.4625	1.75328	-0.371696	0.0237873	-0.0611475	0.0603027	0.99585	-0.0109863	0.462828	-0.115503	0.816065	-0.326324	-5.24089	-5.46067	-2.57843	-0.0114501	0.100894	-0.0100909	0.164795	0.596924	0.77832	-0.678281	0.554812	0.28867	0.385729	8.13534	-5.36723	2.03079	-0.0295298	0.0582108	-0.0108425	-0.510254	0.838623	-0.178467	0.390945	-0.481764	-0.608281	-0.495034	9.07263	2.22868	-1.63224	-0.0728328	-0.00334864	0.00640771	-1.03467	0.174805	0.204346	0.446916	-0.443877	-0.598368	-0.495171	9.48646	2.15473	-1.0753	-0.0370764	-0.00566196	0.000586233	-1.07837	0.202393	0.0866699	0.393346	-0.556021	-0.546707	-0.487064	9.41399	0.8678	-1.95819	-0.0629263	-0.0238249	0.0393127	-1.00024	0.358398	0.255371	0.404139	-0.564244	-0.458444	-0.555094	9.93849	0.366034	-0.521149	-0.0195186	0.00140598	0.00850697	-1.06006	0.390137	0.18457	
33	0.691156	-0.582359	0.090689	-0.418254	3.56417	-9.00124	3.39677	-0.0296754	-0.143709	-0.0768393	-0.00976562	1.02246	0.0300293	-0.613819	0.601404	-0.0276205	0.510663	5.90499	-7.62979	2.55866	-0.0760235	0.0879687	-0.0102082	-0.191162	0.871582	0.109131	-0.319201	0.0824686	-0.72115	0.609305	-3.49771	-9.04358	-0.517182	0.052098	0.0130043	-0.0407341	-0.0759277	0.866211	0.317383	0.0736285	0.0172905	0.148478	-0.986019	-0.187966	-3.07292	9.42449	0.117405	-0.0299797	-0.0659737	-0.335205	0.371338	-0.887207	0.29417	0.0217993	0.639046	-0.710358	-4.13439	-9.19584	1.84218	-0.0846174	0.00671472	-0.026588	0.0581055	0.99585	-0.00170898	0.461132	-0.115395	0.816889	-0.326702	-5.45292	-5.40123	-2.8432	-0.0224213	0.0807438	-0.0429747	0.164795	0.596924	0.77417	-0.677452	0.556087	0.287094	0.386528	8.65452	-5.42651	2.21568	-0.0836735	0.0824781	-0.00650301	-0.508301	0.84082	-0.172119	0.390463	-0.482782	-0.608107	-0.494637	9.21597	1.94361	-2.15594	0.041657	-0.0148834	0.0107209	-1.0415	0.183594	0.20874	0.446601	-0.444712	-0.597709	-0.495503	9.61309	1.91128	-0.962597	-0.0138335	-0.00501855	-0.00443303	-1.07373	0.20459	0.0913086	0.393005	-0.556721	-0.546205	-0.487103	9.49362	0.855599	-1.99037	-0.0247456	0.00895709	0.00984933	-0.998047	0.358398	0.257812	0.404163	-0.5643	-0.458345	-0.555102	9.90648	0.561995	-0.567722	-0.00196068	0.00816811	0.00334875	-1.0625	0.392334	0.179932	
34	0.690717	-0.58463	0.0847014	-0.417066	3.44323	-8.81813	3.15405	0.0480059	-0.271376	-0.136739	-0.0185547	1.01807	0.0300293	-0.614446	0.599849	-0.0288138	0.51167	5.69132	-7.53669	2.76041	0.0202705	0.10359	0.0107606	-0.199951	0.873535	0.106689	-0.319586	0.0826813	-0.721562	0.608586	-3.48369	-9.04459	-0.463312	-0.0834261	0.00168623	0.0457756	-0.0761719	0.870605	0.31958	0.0729492	0.0158335	0.148913	-0.986029	-0.348755	-2.98192	9.74953	-0.0691074	-0.0488612	-0.013512	-0.336914	0.364746	-0.887207	0.295865	0.0217559	0.637625	-0.710932	-3.61009	-8.2141	1.64972	0.0088152	-0.0598531	0.0403824	0.0622559	0.998291	-0.0109863	0.460428	-0.116323	0.817712	-0.325303	-5.22075	-5.62215	-2.7788	-0.0841457	0.0198472	0.00125491	0.162842	0.590576	0.776367	-0.679337	0.553648	0.285888	0.387612	8.04204	-5.39533	2.24154	0.0863199	0.0862569	-0.000851191	-0.506104	0.84082	-0.184814	0.390282	-0.48298	-0.608364	-0.494271	9.12208	2.17146	-2.10852	0.0110056	0.0143036	-0.0202724	-1.04346	0.183594	0.20874	0.445894	-0.44551	-0.597007	-0.496269	9.52116	1.87579	-1.08983	-0.0560324	-0.00482672	-0.00552447	-1.07397	0.209229	0.0866699	0.392687	-0.557222	-0.545979	-0.48704	9.32357	0.808925	-2.05791	-0.00764019	-0.00864158	0.0149248	-1.00244	0.358398	0.253174	0.403886	-0.564555	-0.45816	-0.555196	9.84237	0.442235	-0.592324	0.000962164	-9.80693e-05	-0.00385876	-1.06226	0.387939	0.182373	
35	0.69048	-0.587464	0.0780213	-0.414772	3.95077	-8.41516	3.01211	-0.00289548	-0.284979	-0.0854369	-0.0187988	1.02246	0.0300293	-0.615969	0.598317	-0.0301671	0.511556	5.69833	-7.77267	2.75169	0.0660727	0.0548661	0.0555398	-0.186768	0.871338	0.102051	-0.320226	0.0836118	-0.723344	0.606002	-3.62538	-9.22533	-0.883009	-0.0558723	-0.024012	0.0193691	-0.0759277	0.866211	0.324219	0.0730053	0.0161087	0.149816	-0.985883	-0.435924	-3.28958	9.27027	0.0329224	0.0330317	0.00101919	-0.337158	0.369141	-0.887207	0.295385	0.0212274	0.6402	-0.70883	-4.02979	-8.62747	1.6592	-0.163991	0.0486366	-0.0312738	0.0600586	0.998047	-0.00170898	0.462072	-0.116122	0.817441	-0.323721	-5.20654	-5.20049	-2.71856	-0.0280509	-0.0582474	0.0493145	0.164795	0.596924	0.77417	-0.681658	0.551318	0.285983	0.386787	8.34913	-5.50213	2.31775	0.157666	0.0583424	0.00825405	-0.501709	0.836426	-0.184814	0.391088	-0.482332	-0.608946	-0.493549	9.0937	2.10413	-1.92997	0.0466832	0.0131735	-0.0222764	-1.03931	0.183594	0.199463	0.446123	-0.445396	-0.597175	-0.495962	9.49104	1.88065	-1.07341	0.0210955	0.00706025	-0.0165095	-1.07373	0.202393	0.0891113	0.392377	-0.557375	-0.546372	-0.486673	9.49743	0.957562	-2.15589	0.0275035	-0.00476546	-0.00773656	-1.00488	0.362793	0.255371	0.403627	-0.564674	-0.457989	-0.555405	9.88594	0.575684	-0.488475	-0.0350215	0.0050584	-0.00713653	-1.05786	0.390137	0.175537	
36	0.69027	-0.589897	0.0742591	-0.412352	4.27238	-8.68976	2.99293	-0.0134756	-0.168767	-0.00956703	-0.0163574	1.02026	0.0234375	-0.617289	0.597768	-0.0306883	0.510574	5.71446	-7.53641	2.75299	-0.00355244	-0.0157419	0.047822	-0.187012	0.873535	0.0996094	-0.321059	0.0836722	-0.723236	0.605682	-3.63326	-8.87622	-0.639762	-0.0306483	-0.0214808	0.0104879	-0.078125	0.868408	0.328613	0.0728508	0.017138	0.148571	-0.986066	-0.580382	-3.2253	9.14287	0.0552365	0.0397332	0.00348896	-0.33252	0.362793	-0.889404	0.295901	0.0204358	0.64188	-0.707117	-4.08245	-9.1371	1.6872	-0.0440255	-0.0214602	0.00870275	0.0666504	0.998047	0.000488281	0.462749	-0.11692	0.817478	-0.322369	-5.30842	-5.01301	-2.7181	-0.0544104	-0.00389003	-0.027854	0.162842	0.590576	0.780762	-0.683494	0.549565	0.286049	0.385993	8.26828	-5.15251	2.35827	0.0784703	0.0374149	0.0119784	-0.503906	0.836426	-0.195557	0.391745	-0.481516	-0.608971	-0.493794	9.21232	2.17798	-2.02575	0.0148124	0.0670796	-0.0237724	-1.04346	0.181396	0.201904	0.446174	-0.445335	-0.597718	-0.495317	9.56105	2.01164	-0.942709	0.0286462	-0.0187323	-0.0185385	-1.07397	0.206787	0.0979004	0.392261	-0.557248	-0.546582	-0.486677	9.33166	0.863194	-2.11448	-0.0189497	0.00934925	-0.0088246	-1.00464	0.358398	0.255371	0.403506	-0.564665	-0.458193	-0.555333	9.79064	0.526717	-0.592729	0.0218977	-0.00510566	-0.0098442	-1.06006	0.387939	0.175537	
37	0.690848	-0.590599	0.0737665	-0.410462	3.92388	-9.04939	2.94496	0.0154124	-0.0714429	0.0547915	-0.013916	1.01831	0.0214844	-0.617894	0.597886	-0.0310911	0.509679	5.54449	-7.71044	2.8524	0.00926084	-0.012392	0.0187825	-0.180176	0.869141	0.0949707	-0.321701	0.084218	-0.721893	0.606866	-3.47228	-9.0027	-0.724662	0.109242	-0.035343	-0.0201091	-0.0717773	0.868408	0.324219	0.0737089	0.0168248	0.147527	-0.986164	-0.389738	-3.06607	8.97693	0.0257752	-0.0373189	0.0411822	-0.336914	0.36499	-0.893799	0.296763	0.0194912	0.640887	-0.707684	-3.9867	-8.6153	1.71219	0.0304773	-0.0566816	-0.0130041	0.0688477	0.998047	0.00268555	0.462955	-0.118597	0.816812	-0.323148	-5.2791	-5.36036	-2.6015	0.036587	-0.0275352	-0.0830183	0.173584	0.592773	0.784912	-0.683873	0.54972	0.286473	0.384785	8.17082	-5.21258	2.4096	0.0523449	-0.0444674	0.013402	-0.501709	0.838623	-0.195557	0.392615	-0.480564	-0.609056	-0.493926	8.98192	2.10727	-1.99926	0.0442794	0.0324426	-0.0313239	-1.04541	0.177002	0.197266	0.446193	-0.445282	-0.598088	-0.4949	9.60357	1.75143	-1.31592	0.0746567	-0.00545313	-0.0236122	-1.06934	0.209229	0.0866699	0.392269	-0.557071	-0.546778	-0.486653	9.45945	0.800786	-2.22059	0.0250519	0.0205092	-0.00649394	-1.00708	0.360352	0.26001	0.403502	-0.564589	-0.458731	-0.55497	9.92258	0.514121	-0.644228	0.0256819	-0.0085349	-0.0111422	-1.0603	0.392334	0.179932	
38	0.69187	-0.590341	0.0735439	-0.409151	4.01956	-8.74224	3.04009	0.0180762	-0.0220243	0.0529397	-0.012207	1.02686	0.027832	-0.618049	0.598653	-0.0308777	0.508602	5.7986	-7.64247	2.80547	-0.0364236	-0.0407537	0.00728257	-0.182861	0.87793	0.0969238	-0.322589	0.0855428	-0.721037	0.607227	-3.75498	-9.22026	-0.597579	0.0179467	-0.0656769	-0.0319017	-0.0761719	0.870605	0.321777	0.0745023	0.016064	0.147935	-0.986056	-0.447415	-3.03892	8.94846	-0.0352526	-0.062976	0.0601765	-0.339111	0.360352	-0.88916	0.297034	0.0182873	0.640535	-0.707921	-4.04055	-8.81277	1.75397	-0.0280273	-0.0241992	-0.0442543	0.0556641	1.00024	0.000488281	0.463757	-0.119866	0.815705	-0.324326	-5.31227	-5.41648	-2.55166	0.0352121	-0.0302245	-0.0710221	0.171387	0.592529	0.776367	-0.683121	0.550832	0.286659	0.384391	8.15471	-5.41041	2.45047	-0.10435	-0.0300843	0.00598207	-0.505859	0.836426	-0.191162	0.392854	-0.480388	-0.609198	-0.493732	9.13703	2.18844	-1.88319	-0.00713738	0.00501941	-0.0162271	-1.03931	0.183594	0.206543	0.446426	-0.445009	-0.598334	-0.494638	9.61265	1.84733	-1.16854	0.0459648	0.00677797	-0.0224968	-1.07178	0.209229	0.0888672	0.392581	-0.556773	-0.546923	-0.486579	9.35156	0.902093	-2.25604	0.0363699	0.0282058	-0.00316969	-1.00488	0.360596	0.257568	0.403563	-0.564487	-0.458913	-0.554879	9.73826	0.489245	-0.684412	0.0224591	0.0058134	-0.00378923	-1.05591	0.396729	0.177734	
39	0.692244	-0.590123	0.0736736	-0.408809	3.87917	-8.9075	3.02579	0.0246375	-0.0100504	0.0385584	-0.0119629	1.01831	0.0322266	-0.617942	0.599105	-0.0312664	0.508177	5.56149	-7.79471	2.94148	-0.0545252	-0.0036016	0.0164578	-0.18042	0.875977	0.111328	-0.322807	0.0857325	-0.720141	0.608147	-3.56029	-8.88932	-0.533266	0.0972329	-0.0306885	-0.0292922	-0.0737305	0.866211	0.324219	0.0765062	0.0135464	0.149743	-0.985667	-0.457891	-3.05403	9.25485	-0.0770908	-0.10488	0.0727505	-0.339844	0.375732	-0.889648	0.297478	0.0176463	0.640558	-0.707729	-4.05972	-8.85438	1.76976	-0.0273636	-0.0494276	-0.0163534	0.0600586	0.998047	0.00268555	0.463712	-0.120972	0.815582	-0.324289	-5.30884	-5.36478	-2.49686	-0.037307	-0.0120699	-0.0835419	0.167236	0.588379	0.778564	-0.682074	0.552727	0.285478	0.384409	8.38347	-5.52753	2.31602	-0.167632	-0.00452617	0.0483102	-0.499756	0.845215	-0.189209	0.392833	-0.480493	-0.609163	-0.49369	9.22784	2.20163	-1.94373	0.00185702	0.00921752	-0.0109473	-1.0415	0.183594	0.199463	0.446604	-0.444753	-0.598458	-0.494557	9.57141	1.9449	-1.01444	0.0114901	0.00846472	-0.0214008	-1.07642	0.209229	0.0888672	0.392905	-0.556588	-0.547182	-0.486238	9.29651	0.994733	-2.17086	0.0246236	0.00434924	0.00272053	-1.00464	0.358398	0.255371	0.403998	-0.564216	-0.459263	-0.554549	9.86054	0.489819	-0.671642	0.0583395	0.00733894	-0.000511079	-1.06226	0.390137	0.182373	
40	0.692543	-0.589876	0.074808	-0.408453	3.8102	-8.71901	3.10789	-0.0223948	0.0276645	0.0512781	-0.00732422	1.01831	0.0300293	-0.618627	0.599154	-0.0308238	0.507312	5.68887	-7.72635	2.79416	0.0498899	-0.0160332	0.000416955	-0.18042	0.871582	0.104248	-0.322804	0.0874088	-0.718967	0.609298	-3.43007	-9.16396	-0.596168	0.0454434	-0.0610709	-0.0656466	-0.0759277	0.868408	0.317139	0.0777413	0.0112407	0.149287	-0.985669	-0.262434	-2.72601	9.437	0.03407	-0.0989849	0.0221808	-0.341797	0.373535	-0.887207	0.298451	0.0157495	0.641017	-0.706949	-3.90302	-8.67609	1.80809	-0.0680665	-0.0546038	-0.0261501	0.0600586	1.00024	0.00512695	0.46262	-0.123409	0.816634	-0.322277	-5.27455	-5.28571	-2.523	-0.132554	0.0441362	-0.0565068	0.169678	0.583984	0.782959	-0.681484	0.553997	0.285185	0.383844	8.25929	-5.40041	2.09506	0.0151329	-0.0235322	0.000447153	-0.501953	0.843018	-0.180664	0.393744	-0.479526	-0.609312	-0.49372	8.97269	1.78454	-2.21291	0.0780619	0.0533129	-0.0430505	-1.0437	0.185791	0.197021	0.447032	-0.444222	-0.59865	-0.494416	9.58045	1.71912	-1.37091	0.0753245	0.0247676	-0.0282528	-1.07617	0.206787	0.0888672	0.393159	-0.556232	-0.547367	-0.486232	9.53828	0.827525	-2.0095	0.0311259	0.0286778	-0.0102952	-1.00244	0.358398	0.253174	0.404494	-0.563842	-0.459779	-0.554139	9.93311	0.461789	-0.486479	0.0474465	0.00163113	-0.00765647	-1.0647	0.394531	0.177734	
41	0.692576	-0.590111	0.075933	-0.407849	3.76352	-8.87394	3.10121	-0.0261187	-0.00198512	0.0390147	-0.00561523	1.0249	0.0300293	-0.619886	0.598483	-0.0291962	0.506663	5.64323	-7.64168	2.75622	0.0971843	-0.0278538	-0.00685709	-0.178223	0.871338	0.102051	-0.322994	0.0895748	-0.719904	0.607774	-3.51448	-9.08408	-0.378079	-0.0919796	-0.0475789	-0.0343635	-0.078125	0.866211	0.326416	0.0784907	0.00846196	0.150733	-0.985417	-0.290185	-3.06543	9.60129	-0.0823389	-0.0990125	0.0290851	-0.348877	0.37793	-0.883057	0.298536	0.0121495	0.64395	-0.704314	-4.04961	-8.77578	1.6876	-0.203959	-0.0624594	-0.094643	0.0622559	1.00024	0.0141602	0.462776	-0.124793	0.815731	-0.323802	-5.21857	-5.7565	-2.58598	0.153913	-0.0240608	-0.0952532	0.162842	0.590576	0.782959	-0.682603	0.552492	0.285825	0.38355	8.03708	-5.59173	1.97083	0.125847	0.0824193	0.00109862	-0.497559	0.843018	-0.187012	0.39454	-0.47786	-0.611469	-0.49203	9.145	2.13119	-1.85402	0.127322	-0.0150466	-0.0560515	-1.03906	0.179199	0.201904	0.44924	-0.441611	-0.600304	-0.492745	9.56614	2.06395	-1.06003	0.134653	0.0560247	-0.0390834	-1.07397	0.207031	0.0844727	0.394724	-0.554932	-0.548564	-0.485099	9.28189	0.789355	-2.04537	0.132743	0.0195014	-0.00457657	-1.00513	0.364746	0.248291	0.405477	-0.563113	-0.46092	-0.553213	9.85569	0.542679	-0.681899	0.0903746	0.00477886	-0.00354419	-1.06689	0.389893	0.182373	
42	0.693058	-0.589709	0.0758694	-0.407625	3.74794	-8.74687	3.1204	0.035573	-0.00751459	0.0182111	-0.00756836	1.02271	0.0256348	-0.622309	0.597602	-0.0271979	0.50484	5.82194	-7.6776	2.82148	0.101931	-0.0526879	0.0413443	-0.176025	0.871338	0.097168	-0.323776	0.0918623	-0.720493	0.606317	-3.51861	-9.12199	-0.46703	-0.075356	-0.0988333	-0.029702	-0.0737305	0.861816	0.324219	0.0798035	0.00729093	0.150463	-0.985362	-0.215598	-3.15476	9.52075	0.0278752	-0.0397422	0.057495	-0.357666	0.380127	-0.887451	0.299074	0.0136277	0.638714	-0.708812	-3.94323	-8.53979	1.63625	0.357016	-0.0137414	0.00410647	0.0578613	1.00024	0.00268555	0.462193	-0.12629	0.816502	-0.322108	-5.2393	-5.08889	-2.68489	-0.224977	0.0373939	-0.0158264	0.16748	0.586182	0.782959	-0.685339	0.549367	0.287631	0.381804	8.35087	-5.33636	2.57057	0.1995	0.0136159	-0.019495	-0.497314	0.838623	-0.201904	0.39506	-0.477401	-0.611965	-0.491441	9.44374	2.55106	-1.63696	-0.0160224	0.0596385	-0.00933913	-1.04126	0.181396	0.201904	0.449564	-0.441166	-0.599884	-0.49336	9.37019	2.08583	-0.5221	-0.0311601	0.0234858	-0.030407	-1.07397	0.211426	0.0822754	0.396034	-0.553448	-0.550096	-0.48399	9.34533	1.2376	-2.11598	0.0904946	0.019655	-0.0201509	-1.00684	0.355957	0.248535	0.405976	-0.562718	-0.461224	-0.552995	9.80337	0.551563	-0.57814	0.010074	0.0164143	-0.00211407	-1.05786	0.387939	0.175537	
43	0.694918	-0.589307	0.0758018	-0.405044	3.59569	-9.0186	3.11515	0.052159	-0.092827	0.125425	-0.000976562	1.02271	0.0236816	-0.624761	0.59647	-0.0256942	0.503225	5.86369	-7.53454	2.89424	0.114607	-0.0307396	0.0269848	-0.176025	0.873535	0.097168	-0.324808	0.0941278	-0.721768	0.603897	-3.47058	-9.24195	-0.547667	-0.0766069	-0.0542826	0.00766807	-0.0715332	0.861816	0.337891	0.0809828	0.00665034	0.151203	-0.985158	-0.463646	-2.98518	9.53896	-0.0613437	-0.0557047	0.0930665	-0.351074	0.37793	-0.880859	0.299978	0.00963564	0.644433	-0.703297	-4.18697	-8.04543	1.98256	-0.351166	-0.0603808	-0.0205314	0.0644531	0.998047	0.0256348	0.461551	-0.129469	0.817312	-0.319701	-5.22083	-5.42889	-2.91193	-0.0890411	-0.0148662	-0.0980492	0.161133	0.581787	0.789551	-0.688228	0.546379	0.287985	0.380628	8.36349	-5.16859	2.43189	0.154943	0.0805709	0.0189761	-0.497314	0.836426	-0.201904	0.395906	-0.476465	-0.611006	-0.49286	9.10292	1.81542	-1.91793	0.000469157	0.0991317	-0.0307388	-1.04126	0.181396	0.194824	0.448182	-0.442567	-0.598547	-0.494984	9.56913	1.78082	-1.21809	-0.125651	-0.00497429	-0.0151431	-1.07617	0.20459	0.0866699	0.395053	-0.554452	-0.54935	-0.48449	9.33541	1.1035	-2.10756	-0.0995456	-0.0194599	0.0219278	-1.00464	0.356201	0.250977	0.405265	-0.562969	-0.460572	-0.553805	9.92153	0.709248	-0.62452	-0.0931557	0.0214565	-0.0173102	-1.0625	0.394531	0.179932	
44	0.697245	-0.588938	0.0742788	-0.401852	3.86635	-8.98021	3.12419	0.0822181	-0.116894	0.0787578	0.00341797	1.02271	0.0192871	-0.626424	0.595704	-0.0245992	0.502121	5.44299	-7.80608	2.88459	0.0584126	-0.0490281	0.0174342	-0.174072	0.87793	0.0922852	-0.326121	0.095941	-0.722017	0.602604	-3.47779	-9.0764	-0.668473	-0.0677811	-0.0738112	-0.00629818	-0.0715332	0.866211	0.335449	0.0847455	0.00508655	0.15395	-0.984425	-0.381195	-2.7774	9.47733	-0.0370346	-0.02804	0.085911	-0.351562	0.388672	-0.874268	0.302185	0.00672457	0.646132	-0.700823	-3.8029	-9.46329	1.46475	0.122857	-0.0678414	-0.0130814	0.0603027	0.995605	0.027832	0.461819	-0.132345	0.816793	-0.319464	-5.30512	-5.77163	-2.76098	-0.03506	-0.0513123	-0.0863844	0.161377	0.577393	0.791748	-0.689682	0.544794	0.287931	0.380307	8.15779	-5.502	2.03046	0.115327	0.0218197	-0.0166205	-0.495361	0.84082	-0.210449	0.397328	-0.475	-0.611617	-0.492372	8.99148	2.46811	-1.91722	0.0627679	0.056692	-0.0221511	-1.0459	0.183594	0.190186	0.447998	-0.442587	-0.598838	-0.494781	9.39891	1.96186	-1.02885	0.0466088	-0.010044	-0.0304412	-1.07617	0.20459	0.0822754	0.393731	-0.555505	-0.548211	-0.485649	9.43898	0.795193	-2.12264	-0.0719338	0.0179646	0.00498988	-1.00049	0.362793	0.250732	0.403757	-0.563711	-0.459063	-0.555402	9.78776	0.452515	-0.479462	-0.0841276	0.0172836	-0.0118794	-1.0625	0.392334	0.182373	
45	0.69856	-0.588505	0.0738765	-0.400272	3.68803	-8.9743	3.06419	0.0348829	-0.0408659	0.0577706	0.00561523	1.0249	0.0214844	-0.627022	0.595825	-0.0231168	0.501299	5.59948	-7.63537	2.99065	0.0719693	-0.105312	-0.0226381	-0.171875	0.87793	0.078125	-0.326323	0.096173	-0.72263	0.601723	-3.79614	-9.13114	-1.11067	0.0146473	0.00964683	0.00937304	-0.0759277	0.864014	0.335693	0.0852215	0.00485227	0.155031	-0.984215	-0.401531	-2.85642	9.495	-0.085113	-0.0129528	0.0414753	-0.355957	0.386475	-0.874268	0.302594	0.00729037	0.641412	-0.704964	-3.92963	-8.57732	2.17718	0.149872	-0.0423065	-0.0279475	0.0600586	1.00024	0.0163574	0.46361	-0.133415	0.814443	-0.322411	-5.44079	-5.87159	-2.69356	0.160984	-0.0864266	-0.102882	0.165283	0.586182	0.782959	-0.690925	0.542691	0.289164	0.380123	8.00694	-4.96804	2.32668	0.0824091	-0.0176022	-0.0479935	-0.499512	0.834473	-0.212402	0.39745	-0.474815	-0.61019	-0.494219	9.21565	2.22612	-1.95234	-0.0892527	0.0775002	-0.0273523	-1.04541	0.177246	0.185547	0.447691	-0.442595	-0.599558	-0.494179	9.6285	1.82427	-1.15819	0.0500088	-0.0294157	-0.0273751	-1.07617	0.20459	0.0866699	0.394165	-0.554817	-0.548494	-0.485764	9.37239	0.785168	-2.14713	0.0471356	0.0251374	-0.0204834	-1.00488	0.362549	0.248535	0.403966	-0.563912	-0.458449	-0.555553	9.73562	0.289579	-0.586056	0.0440561	0.0157116	0.0229889	-1.06226	0.387939	0.175537	
46	0.699059	-0.588534	0.0738953	-0.399354	3.70016	-8.76539	3.13544	-0.0108589	-0.0132651	0.0181706	0.0141602	1.02734	0.0236816	-0.625058	0.598475	-0.0170312	0.500838	5.92756	-7.58556	2.84261	-0.00865528	-0.138927	-0.163437	-0.180664	0.880127	0.0876465	-0.326459	0.0955599	-0.719953	0.604947	-3.5169	-9.11045	-0.603813	0.18799	-0.0218512	-0.0533222	-0.0759277	0.866211	0.328613	0.0838763	0.005944	0.152374	-0.984739	-0.285385	-3.34196	9.18661	0.113753	0.0441873	-0.0441449	-0.348877	0.37793	-0.880859	0.304033	0.00596728	0.64	-0.705641	-3.94821	-9.21107	1.91963	0.0410404	-0.0869562	-0.00843567	0.0537109	0.993652	0.00512695	0.46433	-0.133615	0.812913	-0.325141	-5.3503	-5.96141	-2.59697	0.220676	-0.0616993	-0.122522	0.165283	0.586182	0.782959	-0.69102	0.542264	0.289375	0.380399	8.1549	-5.21531	2.12259	0.0463387	0.0279715	-0.0456982	-0.503662	0.834473	-0.216797	0.396995	-0.475239	-0.609676	-0.494811	9.22396	1.82285	-2.04276	-0.0202771	0.00865845	-0.00680544	-1.04565	0.179199	0.194824	0.448094	-0.441949	-0.600656	-0.493057	9.72533	1.64557	-1.33736	0.140572	-0.0310161	-0.0326123	-1.07373	0.202393	0.0891113	0.394639	-0.554402	-0.548731	-0.485585	9.36193	0.75286	-2.19806	0.0545365	0.0317079	-0.00307519	-1.00488	0.362549	0.250732	0.405199	-0.56342	-0.458812	-0.554853	10.0125	0.896376	-0.705334	0.0273646	0.0205348	0.0101588	-1.06006	0.387939	0.175537	
47	0.697837	-0.590061	0.0727787	-0.399442	3.85587	-8.81255	3.088	-0.0681613	-0.0776479	-0.063698	0.0078125	1.02295	0.0236816	-0.624076	0.599249	-0.0141648	0.501227	5.76429	-7.71345	2.89396	0.00488508	-0.0573612	-0.103307	-0.189209	0.873535	0.0900879	-0.32605	0.0959044	-0.718877	0.60639	-3.35778	-9.24474	-0.585916	0.0476287	0.0239691	-0.0372611	-0.078125	0.866211	0.328613	0.0830951	0.00673625	0.148029	-0.985463	-0.15348	-2.9734	9.13166	-0.0192782	-0.0435824	0.0299278	-0.353027	0.375732	-0.883057	0.30471	0.0101801	0.633077	-0.711521	-4.04213	-8.71872	1.97269	0.419929	0.0648269	0.0521055	0.0600586	1.00049	-0.0131836	0.465785	-0.131955	0.81005	-0.330835	-5.24753	-6.14016	-2.46169	0.154582	0.0155515	0.0106087	0.1604	0.599121	0.771973	-0.69124	0.541446	0.291163	0.3798	8.29004	-5.23226	2.81893	0.0387399	-0.0628924	-0.0154049	-0.495117	0.834473	-0.216797	0.397376	-0.475104	-0.609771	-0.494517	9.10856	2.17137	-1.9889	0.00239533	0.00984992	-0.00850167	-1.04541	0.177246	0.185547	0.44845	-0.441501	-0.601557	-0.492034	9.72537	1.72806	-1.26414	0.0402055	-0.00804912	-0.0155432	-1.07617	0.20459	0.0800781	0.394664	-0.554679	-0.548095	-0.485967	9.32018	0.820537	-2.28973	-0.0515776	-0.00840608	0.0228903	-1.00464	0.356201	0.250977	0.404941	-0.563671	-0.458177	-0.555313	9.84615	0.658089	-0.661311	-0.0621372	0.0263769	0.00777413	-1.0625	0.394531	0.179932	
48	0.695573	-0.59204	0.0717498	-0.400648	3.75886	-9.08071	2.97649	-0.0774927	-0.0173927	-0.118339	0.0012207	1.02271	0.0256348	-0.62396	0.598853	-0.0116503	0.50191	5.72691	-7.60017	2.81273	0.0583191	-0.00533093	-0.0990208	-0.193604	0.873535	0.0854492	-0.32605	0.0959044	-0.718877	0.60639	-3.35778	-9.24474	-0.585916	0.0476287	0.0239691	-0.0372611	-0.078125	0.866211	0.328613	0.0834669	0.00573991	0.148367	-0.985387	-0.023044	-3.03878	9.43445	-0.0302805	-0.0766232	0.0241638	-0.355469	0.377686	-0.876465	0.305088	0.0125193	0.631265	-0.71293	-4.01531	-8.37902	2.13753	0.2306	0.0775423	0.0930939	0.0622559	0.998291	-0.0131836	0.466031	-0.130559	0.809634	-0.332058	-5.1788	-5.91288	-2.52053	0.148556	0.0362981	0.0368619	0.168945	0.599121	0.771973	-0.691249	0.541245	0.291931	0.37948	8.33872	-5.32521	2.50214	0.0599196	-0.0373367	-0.0351272	-0.494873	0.830078	-0.214355	0.397082	-0.475387	-0.609993	-0.494208	9.07367	2.09853	-1.91593	0.00885657	-0.0300718	-0.0138529	-1.05005	0.181396	0.185547	0.449766	-0.439947	-0.603186	-0.490228	9.55896	2.09161	-1.17013	0.121	0.0131544	-0.0242092	-1.07397	0.206787	0.0866699	0.394592	-0.554852	-0.547978	-0.48596	9.44628	0.692364	-2.01306	-0.00879043	0.00409375	0.0123684	-1.00708	0.358154	0.248535	0.405374	-0.563389	-0.457923	-0.555492	9.84467	0.573019	-0.46223	0.00341417	0.0176086	0.00231574	-1.06006	0.390137	0.177734	
49	0.69468	-0.592546	0.0707999	-0.401617	3.72346	-8.98876	2.94851	-0.0334424	-0.0238746	-0.130456	0.000976562	1.0249	0.027832	-0.624021	0.598571	-0.0103667	0.502199	5.74114	-7.57154	2.66941	0.0599299	-0.0245923	-0.0900289	-0.193359	0.871338	0.0808105	-0.327378	0.0971392	-0.717545	0.607056	-3.39888	-9.25166	-0.473346	0.0234285	-0.025897	-0.0107366	-0.0695801	0.868408	0.331055	0.0837535	0.00584291	0.147662	-0.985468	-0.110161	-2.87746	9.94993	0.063113	0.0400238	0.0181434	-0.357422	0.373291	-0.876221	0.30571	0.0138735	0.631315	-0.712594	-3.66606	-8.3121	1.96506	0.0129935	0.056463	0.0979497	0.0666504	0.998291	-0.0153809	0.466726	-0.128436	0.808942	-0.333592	-5.01425	-5.43012	-2.27322	0.120498	0.0122584	0.0364542	0.164307	0.607666	0.765137	-0.690739	0.541385	0.293585	0.378932	7.98094	-5.33002	2.57925	0.00551969	-0.0738836	-0.0377429	-0.503662	0.834473	-0.212402	0.39683	-0.475462	-0.610596	-0.493593	9.24695	2.20168	-1.69379	0.0318523	-0.00436583	-0.0297007	-1.04785	0.179199	0.192627	0.450161	-0.439621	-0.602714	-0.490739	9.4638	2.0767	-0.889453	-0.0226117	0.0341077	-0.0185597	-1.07837	0.20459	0.0866699	0.3955	-0.554143	-0.548314	-0.485651	9.42499	0.963649	-1.96763	0.0651691	0.0362592	-0.00294567	-1.00269	0.360596	0.250732	0.40567	-0.56318	-0.458112	-0.555332	9.91179	0.517421	-0.468297	0.0375105	0.0127623	-0.00178976	-1.05786	0.390137	0.180176	
50	0.693711	-0.593074	0.0700089	-0.40265	3.8887	-9.01995	3.0586	-0.0167571	0.000911582	-0.0385471	-0.00561523	1.0271	0.027832	-0.624402	0.598203	-0.00785639	0.502209	6.0125	-7.55467	2.77209	0.0614158	-0.0413125	-0.0759515	-0.191162	0.869141	0.0856934	-0.328578	0.0968695	-0.716637	0.607524	-3.42111	-9.14428	-0.426708	0.0501003	-0.0411342	0.0388297	-0.078125	0.866211	0.324219	0.0829422	0.00763598	0.144742	-0.985957	-0.191084	-2.82268	9.50429	0.125023	0.0671502	-0.0223652	-0.353027	0.371338	-0.882812	0.305231	0.0169012	0.629255	-0.714553	-4.06836	-8.55645	2.09099	0.15527	0.0484832	-0.0215652	0.0690918	0.993896	-0.0224609	0.467747	-0.126392	0.807971	-0.335292	-5.25267	-5.09239	-2.57058	0.0952687	-0.000255962	0.0158217	0.164307	0.607666	0.767334	-0.690824	0.540211	0.295503	0.378962	8.47311	-5.18751	2.3059	0.0883434	0.0207	-0.0997832	-0.508057	0.832275	-0.21875	0.396826	-0.475117	-0.61041	-0.494158	9.2859	2.29932	-1.67839	-0.00942272	0.0277011	-0.0227115	-1.05249	0.185791	0.190186	0.450708	-0.439089	-0.60323	-0.490079	9.45679	2.08326	-0.816786	0.0454118	-0.00424049	-0.0224893	-1.07642	0.209229	0.0800781	0.395361	-0.554036	-0.548349	-0.485846	9.5272	1.06368	-2.02304	-0.0339184	0.0222417	-0.00237502	-0.998047	0.356201	0.248535	0.406169	-0.56282	-0.458666	-0.554874	9.90192	0.487913	-0.481381	0.0192872	0.000790665	-0.00578608	-1.06274	0.396729	0.173096	
51	0.694223	-0.592574	0.0686911	-0.40273	3.62289	-8.89254	2.92806	0.0670845	-0.0549116	-0.0232638	-0.00317383	1.02271	0.027832	-0.624135	0.597939	-0.0057976	0.502883	5.96456	-7.35384	2.83521	0.0253019	0.00490878	-0.0754183	-0.193359	0.869141	0.0808105	-0.329781	0.0968475	-0.716946	0.60651	-3.48637	-9.27162	-0.43552	0.00333551	-0.00943311	0.0455365	-0.0759277	0.861816	0.331055	0.0839266	0.00845206	0.145762	-0.985717	-0.398217	-2.98891	9.13497	-0.0850119	0.0142594	0.0724976	-0.346436	0.375732	-0.883057	0.305734	0.0156636	0.629129	-0.714477	-3.68524	-8.48247	1.89725	-0.055205	-0.057797	-0.0350579	0.0666504	0.996094	-0.0246582	0.469077	-0.126448	0.805789	-0.338647	-4.91179	-5.72195	-2.26231	0.172412	-0.0624875	-0.0828893	0.170166	0.618652	0.758545	-0.689697	0.540824	0.295069	0.380477	8.16201	-5.06574	2.65825	-0.0728851	0.0242753	-0.04159	-0.503418	0.830078	-0.210205	0.396942	-0.474866	-0.610001	-0.494811	9.07843	2.00338	-1.87755	-0.00832106	0.0363396	-0.0245929	-1.04346	0.181396	0.185547	0.449748	-0.440364	-0.601967	-0.491367	9.56607	1.41985	-1.33712	-0.0382192	-0.00432253	-0.0140845	-1.07617	0.207031	0.0800781	0.394889	-0.554439	-0.547303	-0.486949	9.35481	0.883682	-2.29709	-0.0598022	0.0353287	0.0057278	-0.997803	0.354004	0.246338	0.405659	-0.563006	-0.458332	-0.555335	9.82537	0.525074	-0.641127	-0.0324182	0.012944	-0.0114444	-1.06006	0.390137	0.17334	
52	0.694725	-0.592493	0.0667771	-0.402307	4.0547	-8.54083	2.9599	0.0143395	-0.0537215	-0.0170714	-0.00341797	1.0249	0.0214844	-0.62348	0.598074	-0.00487243	0.503543	5.79765	-7.52884	2.75478	-0.0183293	-0.0138134	-0.0769187	-0.199951	0.869141	0.0761719	-0.331125	0.0961211	-0.715623	0.607454	-3.55832	-8.96291	-0.674166	0.100404	-0.0510001	0.024334	-0.0673828	0.866211	0.324219	0.084783	0.00870423	0.146209	-0.985576	-0.306115	-2.95708	9.22235	0.05214	0.0266383	0.0213216	-0.353027	0.373535	-0.88501	0.305734	0.0156636	0.629129	-0.714477	-3.68524	-8.48247	1.89725	-0.055205	-0.057797	-0.0350579	0.0666504	0.996094	-0.0246582	0.470557	-0.126133	0.804039	-0.340862	-5.32719	-5.57177	-2.15863	0.0796914	-0.0361554	-0.0207817	0.172363	0.62085	0.758301	-0.689066	0.541306	0.295393	0.380682	8.07565	-5.24032	2.44689	-0.0291776	-0.0265205	-0.0476569	-0.503418	0.830078	-0.21875	0.396086	-0.476146	-0.609282	-0.495153	9.01675	2.33441	-1.66366	-0.0726311	-0.026703	0.0116069	-1.04321	0.175049	0.190186	0.449891	-0.440329	-0.602032	-0.491189	9.35535	2.27566	-0.949906	-0.0578367	0.00937252	-0.012991	-1.07397	0.207031	0.0844727	0.394094	-0.555434	-0.546211	-0.487685	9.36357	0.977592	-2.12505	-0.0685958	0.00511474	0.025843	-1.00684	0.35376	0.253174	0.405005	-0.563428	-0.45724	-0.556284	9.87352	0.581577	-0.55883	-0.0717489	0.0279323	0.00172566	-1.0647	0.390137	0.180176	
53	0.693982	-0.593003	0.0674891	-0.402718	3.98055	-8.74731	2.97532	-0.0542164	0.0418517	-0.00786645	-0.00317383	1.02271	0.0256348	-0.620948	0.599699	-0.0039219	0.504747	5.91161	-7.33001	2.89081	-0.122277	0.00528983	-0.129909	-0.202148	0.869141	0.0808105	-0.331954	0.0949108	-0.712968	0.610307	-3.44935	-9.12007	-0.437177	0.197193	0.0102832	0.00980881	-0.0739746	0.866211	0.314941	0.0845546	0.00931136	0.14487	-0.985787	-0.600378	-2.81439	9.25066	0.11624	0.0456502	-0.00466193	-0.348389	0.369141	-0.882812	0.305686	0.0154073	0.626148	-0.717117	-3.64446	-8.49319	2.33674	-0.128361	-0.0765396	-0.0187446	0.0644531	0.996094	-0.0314941	0.470838	-0.126967	0.803048	-0.342499	-5.12567	-6.0893	-2.13602	0.0674385	-0.0139352	-0.0794353	0.169922	0.625	0.753906	-0.686837	0.541852	0.293215	0.385587	8.18393	-5.1915	2.33862	-0.125825	0.152907	-0.0812377	-0.507812	0.827881	-0.205811	0.395176	-0.477098	-0.608325	-0.496139	9.22467	1.95341	-2.05638	-0.0733354	0.0174161	-0.0233538	-1.04102	0.175049	0.192627	0.448762	-0.441758	-0.600373	-0.492966	9.46022	1.9971	-1.0289	-0.236167	0.0149922	-0.000112987	-1.07397	0.209229	0.0844727	0.393811	-0.555629	-0.545847	-0.488099	9.53256	1.02392	-2.15059	-0.0465692	0.0206028	0.00298666	-1.00024	0.358398	0.248535	0.405071	-0.56371	-0.455593	-0.5573	9.81785	-0.106084	-0.346468	-0.0132929	0.0602977	0.0345061	-1.05811	0.394531	0.177734	
54	0.692231	-0.593746	0.0683998	-0.404479	3.8153	-8.83984	2.98213	-0.0710217	0.0485314	-0.0822057	-0.00952148	1.01611	0.0322266	-0.6188	0.601106	-0.00228564	0.50572	5.95983	-7.53065	2.67902	-0.0284522	-0.0442627	-0.116087	-0.210693	0.866943	0.090332	-0.332314	0.0936224	-0.710626	0.613035	-3.55416	-8.83616	-0.174588	0.112989	-0.00392421	0.00024366	-0.067627	0.876953	0.307861	0.0835643	0.00942606	0.143174	-0.986118	-0.312229	-2.66175	9.25318	0.0672253	0.00145403	-0.0457049	-0.343994	0.371338	-0.882812	0.304647	0.0155905	0.623392	-0.719951	-4.11987	-9.07966	2.02903	0.307797	0.0433999	-0.0811987	0.0600586	0.996094	-0.0405273	0.471329	-0.126437	0.801913	-0.344672	-5.16483	-6.30898	-1.97499	0.199161	-0.0195814	-0.0566146	0.16748	0.631592	0.745117	-0.686169	0.54167	0.29212	0.387855	8.03819	-5.37594	2.23761	-0.0585764	0.0412803	-0.0532213	-0.514404	0.830078	-0.212402	0.394446	-0.477429	-0.608737	-0.495897	9.17656	1.96406	-2.03825	0.0295142	-0.032428	-0.0220757	-1.04126	0.179199	0.190186	0.449639	-0.440739	-0.600846	-0.492502	9.72979	1.70108	-1.28051	0.13918	0.0294736	-0.0359647	-1.07593	0.202393	0.0800781	0.393774	-0.555554	-0.545736	-0.488338	9.58871	0.337175	-1.91756	0.0322336	0.0183761	0.00515275	-1.00464	0.358398	0.248535	0.40633	-0.563037	-0.455471	-0.557164	9.87893	0.746744	-0.481098	-0.0236221	0.0321873	0.0100925	-1.06006	0.390137	0.170898	
55	0.691089	-0.594365	0.0684064	-0.405521	3.87456	-8.6376	3.00096	-0.0817573	0.0304514	-0.0979495	-0.0141602	1.02026	0.027832	-0.618305	0.601471	-0.00125345	0.505895	6.17322	-7.48676	2.74209	-0.00816425	-0.0433948	-0.0949714	-0.210449	0.862549	0.0881348	-0.332374	0.0938374	-0.710002	0.613693	-3.40268	-9.25871	-0.0589635	0.0671786	-0.0177682	-0.0310983	-0.0717773	0.868408	0.303467	0.0820878	0.0101486	0.140218	-0.98666	-0.221469	-2.84301	9.39295	0.160761	0.037874	-0.0429111	-0.348145	0.364746	-0.891602	0.304037	0.0179006	0.619355	-0.72363	-4.03127	-8.66249	2.09481	0.472632	0.0693389	-0.0183648	0.0644531	0.996338	-0.0498047	0.471358	-0.124496	0.800622	-0.348319	-5.21214	-5.73061	-1.9965	0.17289	0.028796	-0.0178614	0.169434	0.635986	0.740723	-0.686001	0.541532	0.292186	0.388294	8.47818	-5.19764	2.63348	0.00981217	0.0285038	-0.0500906	-0.51416	0.825684	-0.205811	0.394719	-0.477436	-0.608807	-0.495587	9.19857	2.08405	-1.79365	0.0332201	0.013302	0.000474797	-1.04346	0.179199	0.194824	0.450373	-0.439847	-0.60091	-0.492551	9.48405	1.65188	-0.983217	0.0118247	0.0378391	-0.028947	-1.07617	0.207031	0.0778809	0.395314	-0.554276	-0.546216	-0.488009	9.35689	1.25735	-2.08826	0.0594855	0.0403865	-0.00681685	-1.00269	0.362793	0.250732	0.40799	-0.562192	-0.456213	-0.556196	9.81541	0.330978	-0.516724	0.185545	0.00851352	0.0180298	-1.06494	0.396729	0.170898	
56	0.689114	-0.595758	0.0678333	-0.406931	3.90081	-8.81954	2.95414	-0.0551186	-0.0185639	-0.0888357	-0.0187988	1.02246	0.0319824	-0.618447	0.600923	0.000476283	0.506373	6.11546	-7.16792	2.65493	0.0579812	-0.0150248	-0.0628179	-0.212646	0.864746	0.0905762	-0.332606	0.0940752	-0.709989	0.613546	-3.51434	-9.12454	-0.131111	-0.0721716	0.00661906	0.0248136	-0.0673828	0.870605	0.3125	0.0819981	0.00966298	0.140857	-0.986581	-0.280137	-2.71439	9.50971	-0.107172	-0.0333186	0.0115094	-0.350098	0.360352	-0.88916	0.303734	0.0174297	0.620199	-0.723046	-3.98118	-7.89096	2.19686	-0.249263	-0.00120001	-0.0369672	0.0622559	0.998535	-0.0498047	0.47036	-0.12483	0.801729	-0.347	-5.09782	-5.75914	-2.27334	-0.0830352	0.0510804	-0.00178689	0.171875	0.633789	0.753662	-0.685504	0.541362	0.29175	0.389735	8.25841	-4.97034	2.43388	-0.0127308	0.0314217	-0.0520098	-0.509766	0.823486	-0.205811	0.394478	-0.477725	-0.608608	-0.495745	9.28618	2.51058	-1.94489	-0.0402796	0.00656175	-0.0209411	-1.04541	0.177246	0.187988	0.450738	-0.438977	-0.60172	-0.492004	9.63237	2.44429	-0.800923	-0.00363411	0.00565819	-0.0331441	-1.07861	0.206787	0.0800781	0.396523	-0.553209	-0.546847	-0.487532	9.38172	0.69488	-2.05228	0.0797593	0.0352826	0.000999642	-1.00488	0.360596	0.246338	0.409123	-0.561509	-0.457166	-0.555271	10.0201	0.822853	-0.635869	-0.0130646	0.011501	-0.00271294	-1.06494	0.396729	0.173096	
57	0.688474	-0.59632	0.0670443	-0.407321	3.93938	-8.7236	2.93473	-0.0333877	-0.044932	-0.0832192	-0.0209961	1.02246	0.0300293	-0.618726	0.600212	0.000551876	0.506876	6.02007	-7.45607	2.70327	0.0170315	0.0407077	-0.0156599	-0.214844	0.862549	0.0859375	-0.333628	0.0949898	-0.711541	0.611047	-3.50564	-8.9611	-0.0854477	-0.116227	-0.0281051	0.0372841	-0.0673828	0.864014	0.310547	0.0823711	0.00918976	0.142359	-0.986339	-0.362288	-2.76985	9.64669	-0.0343165	0.0118424	0.031759	-0.350586	0.369141	-0.889404	0.303861	0.0157331	0.62403	-0.719727	-3.98877	-8.88187	2.08483	-0.0980496	0.0196666	-0.0242806	0.0581055	0.996094	-0.0361328	0.470231	-0.125092	0.801899	-0.346689	-5.27597	-5.6479	-2.33176	0.00758783	0.00591262	-0.0180532	0.16748	0.631592	0.749512	-0.684989	0.541548	0.291565	0.390521	8.37109	-5.23429	2.54296	-0.0106582	0.0211202	-0.0247654	-0.516357	0.825684	-0.210205	0.394269	-0.477539	-0.607982	-0.496857	9.11232	2.12154	-1.87312	-0.0248866	0.0294263	-0.0333454	-1.0437	0.183594	0.190186	0.450313	-0.438935	-0.601748	-0.492396	9.53616	1.92419	-1.05529	0.0460035	-0.0106119	-0.0401854	-1.07153	0.20459	0.0822754	0.396728	-0.55292	-0.547115	-0.487393	9.38812	1.27422	-2.05779	-0.011455	0.00848971	-0.00400689	-1.00488	0.360596	0.243896	0.408912	-0.561603	-0.456983	-0.555482	9.80281	0.617464	-0.544964	-0.0249336	0.00976795	-0.00860952	-1.06274	0.398926	0.168457	
58	0.688317	-0.596975	0.065068	-0.406948	4.2853	-8.65029	2.99004	0.00461052	-0.018091	0.0206102	-0.0163574	1.02246	0.0300293	-0.618865	0.599692	0.000559067	0.507322	6.10215	-7.19922	2.60725	-0.0143128	0.0303104	-0.0295023	-0.214844	0.862549	0.0881348	-0.334271	0.094582	-0.712091	0.610118	-3.62981	-9.13019	-0.463382	0.0208224	0.00139666	0.0526037	-0.0651855	0.866211	0.317383	0.0824813	0.0101184	0.143131	-0.986209	-0.355737	-2.7931	9.31984	-0.010361	0.043633	-0.00385797	-0.350586	0.371338	-0.887207	0.303751	0.0163473	0.622423	-0.72115	-3.98411	-8.93793	1.98046	0.178676	0.00895162	-0.0219394	0.0620117	1.00269	-0.0429688	0.470588	-0.125649	0.801835	-0.34615	-5.21834	-5.80597	-2.35853	-0.0282486	-0.0045535	-0.0145546	0.167725	0.627197	0.747559	-0.684474	0.541934	0.292385	0.390274	8.3167	-4.92402	2.48089	-0.0363514	-0.0569957	-0.0240308	-0.511963	0.823486	-0.208008	0.394041	-0.477567	-0.607431	-0.497684	9.13571	2.19998	-1.83826	-0.0214538	0.0227028	-0.0218661	-1.04541	0.172852	0.192627	0.448885	-0.440018	-0.60063	-0.494095	9.51676	1.75149	-1.21095	-0.114704	-0.00434675	-0.0320182	-1.08057	0.202393	0.0822754	0.395609	-0.553627	-0.546486	-0.488205	9.50427	0.862567	-2.25503	-0.0595379	0.00173458	-0.00942102	-1.00708	0.360352	0.248535	0.408952	-0.561328	-0.45766	-0.555173	9.9354	0.757334	-0.632463	0.0376994	-0.00999183	-0.0219365	-1.0603	0.394531	0.168701	
59	0.688753	-0.596337	0.0659555	-0.407004	3.86374	-8.72521	2.88473	0.0205583	0.0301576	0.0204741	-0.020752	1.02026	0.036377	-0.617712	0.600259	2.84617e-05	0.508056	6.07572	-7.31936	2.79661	-0.0679217	0.0309613	-0.0463367	-0.214844	0.864746	0.0834961	-0.335266	0.0939917	-0.712387	0.609317	-3.62472	-8.87674	-0.22673	-0.0177735	-0.000777906	0.0404732	-0.059082	0.878906	0.316895	0.0817208	0.0110907	0.142914	-0.986293	-0.575806	-3.05229	9.11856	0.0148239	0.0529451	-0.00338331	-0.345703	0.362549	-0.882812	0.304238	0.0152354	0.622708	-0.720723	-3.76833	-8.36974	2.34718	-0.196539	-0.0330668	-0.0212582	0.0603027	0.991699	-0.0361328	0.471309	-0.126969	0.801256	-0.34603	-5.13812	-5.99862	-2.13955	-0.00862762	-0.0513304	-0.0452856	0.171875	0.629395	0.751709	-0.682558	0.543383	0.291655	0.392156	8.23531	-5.00568	2.38629	-0.10232	0.0560837	-0.0642769	-0.516357	0.827881	-0.203857	0.393543	-0.477971	-0.606721	-0.498555	9.08585	2.30561	-1.95675	-0.052559	0.000424794	-0.031745	-1.04565	0.181396	0.197266	0.448749	-0.439782	-0.601138	-0.493811	9.48365	1.62687	-1.20405	0.0432434	-0.0222509	-0.0432855	-1.07812	0.197754	0.0800781	0.394883	-0.553949	-0.545585	-0.489434	9.36194	1.07032	-1.98274	-0.0774114	0.0211503	-0.00519106	-1.00708	0.358154	0.246338	0.408098	-0.561705	-0.456802	-0.556125	9.83133	0.135408	-0.430958	-0.0488944	0.0351008	-0.0019164	-1.05786	0.392334	0.164062	
60	0.688639	-0.596504	0.0658711	-0.406965	4.14898	-8.66254	2.93361	-0.0057266	-0.0157096	-0.019594	-0.0185547	1.02026	0.0322266	-0.615909	0.600863	-0.00239909	0.509523	5.9914	-7.40304	2.73798	-0.123781	0.109625	-0.0269713	-0.221436	0.864746	0.0927734	-0.335399	0.0931584	-0.711079	0.610897	-3.57566	-8.98191	-0.264023	0.121774	-0.00280358	-0.00296742	-0.0612793	0.876953	0.310059	0.0818069	0.011811	0.142882	-0.986282	-0.409497	-2.66998	9.08065	0.0043677	0.0158425	0.00557408	-0.346191	0.369141	-0.887207	0.30403	0.0146667	0.622471	-0.721028	-3.57368	-8.84206	2.15216	0.106055	0.0176389	-0.0326689	0.0581055	0.993896	-0.0405273	0.472723	-0.12778	0.800126	-0.346417	-5.02004	-6.11848	-1.93166	0.0100439	-0.0530138	-0.0246414	0.172119	0.627197	0.749512	-0.679479	0.547069	0.29043	0.393287	8.25198	-5.33474	2.37694	-0.230888	-0.0328823	-0.0173099	-0.523193	0.834229	-0.193359	0.392235	-0.47892	-0.606274	-0.499218	9.23408	2.00512	-1.82594	-0.0516729	-0.0226995	-0.0182851	-1.04346	0.179199	0.197266	0.448304	-0.43945	-0.601281	-0.494336	9.55616	1.62404	-1.19277	-0.0274098	0.0224054	-0.026717	-1.07593	0.197754	0.0800781	0.394492	-0.554429	-0.545184	-0.489653	9.51554	0.614794	-2.12017	0.00815856	0.0153596	0.0109259	-1.00903	0.355957	0.248535	0.408156	-0.56161	-0.456353	-0.556547	9.92611	0.450382	-0.459964	-0.0139066	0.0254933	-0.00101723	-1.05811	0.396729	0.177734	
61	0.687304	-0.596768	0.0663451	-0.408753	4.03977	-8.97368	2.92752	-0.0467565	0.0688779	-0.0699131	-0.0253906	1.02246	0.036377	-0.614492	0.601309	-0.00430751	0.510694	5.94997	-7.34429	2.79753	-0.0775419	0.0697875	-0.0387182	-0.219238	0.864746	0.0927734	-0.335484	0.0933596	-0.71159	0.610225	-3.55429	-9.09461	-0.392748	-0.0492323	0.0217659	0.00328717	-0.0610352	0.872559	0.310303	0.0817621	0.0115959	0.143524	-0.986195	-0.416151	-2.5943	9.20009	-0.0486746	-0.0077688	-0.000163963	-0.343506	0.360352	-0.891602	0.303222	0.0155736	0.620522	-0.723026	-4.15868	-8.18144	2.32447	-0.00500449	0.0233888	-0.0411905	0.0600586	0.998291	-0.045166	0.47289	-0.12868	0.800903	-0.344052	-5.29124	-5.74552	-1.82856	-0.148664	0.0273085	0.0185214	0.172119	0.625	0.753906	-0.678435	0.548236	0.290896	0.393119	8.02622	-5.09092	2.07553	0.0227857	-0.0493482	-0.0300706	-0.520752	0.832031	-0.193115	0.391983	-0.479084	-0.60639	-0.499119	9.02483	1.96457	-1.76036	0.0079186	0.00310018	-0.0297778	-1.04346	0.177002	0.194824	0.448128	-0.439304	-0.601103	-0.494842	9.41555	1.95092	-0.974727	-0.0306424	0.0122344	-0.0345116	-1.07837	0.202393	0.0822754	0.394902	-0.553823	-0.545732	-0.489396	9.41442	0.939312	-1.79122	0.0251995	-0.000909955	-0.0166811	-1.00708	0.358154	0.246338	0.408433	-0.561231	-0.456376	-0.556707	9.87167	0.47437	-0.393477	0.0102163	0.0223646	-0.0130257	-1.05835	0.398926	0.164062	
62	0.686485	-0.59626	0.0658697	-0.410941	3.97498	-8.68327	2.96173	0.0168194	0.0277502	-0.0756449	-0.0341797	1.02222	0.0341797	-0.61374	0.601838	-0.00489547	0.510969	6.28811	-7.42019	2.70952	-0.0502527	0.0360089	-0.0130186	-0.215088	0.869141	0.0949707	-0.335498	0.0929365	-0.710507	0.611543	-3.59911	-9.17434	-0.169349	0.0872057	-0.0153098	-0.0169079	-0.0610352	0.872559	0.305664	0.0805479	0.0114597	0.143619	-0.986283	-0.417774	-2.75263	9.35137	-0.00153267	0.00389808	-0.0462488	-0.343994	0.369141	-0.88501	0.30328	0.0139974	0.624325	-0.719752	-3.92628	-8.69795	2.07495	-0.222569	-0.00878421	-0.0122981	0.0622559	0.998291	-0.0383301	0.470911	-0.129386	0.803125	-0.341309	-5.23871	-5.42478	-2.30257	-0.152354	0.109431	0.00159403	0.168213	0.618652	0.758545	-0.67697	0.550114	0.291239	0.392767	8.57337	-5.03809	2.34524	-0.0294654	-0.0562054	-0.0185502	-0.518555	0.829834	-0.186768	0.392186	-0.478402	-0.607304	-0.498501	9.39068	2.24307	-1.94849	0.0490753	0.0306707	-0.0316782	-1.04517	0.170654	0.192627	0.448179	-0.439167	-0.600987	-0.495057	9.63144	2.04021	-1.07699	-0.00235313	0.0228453	-0.0273726	-1.07593	0.202393	0.0822754	0.394771	-0.553499	-0.546031	-0.489535	9.62952	0.869071	-1.94131	0.0139996	0.0142978	-0.0351042	-1.00928	0.360352	0.248535	0.408626	-0.560826	-0.456511	-0.556863	9.86831	0.430911	-0.314648	0.0230804	0.0104974	-0.0161727	-1.05811	0.396729	0.16626	
63	0.685989	-0.596238	0.0655284	-0.411856	4.01962	-8.59149	2.96519	-0.0111768	0.00231929	-0.0272083	-0.0297852	1.02441	0.0341797	-0.613735	0.601621	-0.00466237	0.511233	6.14834	-7.33456	2.74072	0.00992893	0.0158085	-0.0343214	-0.212646	0.864746	0.0998535	-0.335306	0.0926584	-0.710695	0.61147	-3.59272	-9.3344	-0.391844	-0.0340362	0.0469748	0.0101807	-0.0673828	0.868408	0.303467	0.0787558	0.0113481	0.140713	-0.986848	-0.397715	-2.61619	9.43036	0.0816889	-0.0149268	-0.0429052	-0.341064	0.358154	-0.891357	0.302689	0.0129101	0.625375	-0.71911	-4.10299	-8.8002	2.19262	0.00768777	0.0115543	-0.0682921	0.0581055	0.993896	-0.0314941	0.469499	-0.129939	0.803986	-0.341017	-5.3968	-5.69714	-2.5364	0.0537129	0.0518869	-0.0519343	0.163818	0.616455	0.762695	-0.675921	0.550876	0.292169	0.392815	8.125	-4.87299	2.45455	-0.012334	-0.0625972	-0.0324748	-0.525146	0.832031	-0.18042	0.39211	-0.478136	-0.607262	-0.498868	9.12253	2.2969	-1.70668	-0.0163723	0.023638	-0.0241073	-1.04102	0.172852	0.190186	0.448221	-0.438918	-0.600954	-0.495281	9.45298	1.82984	-0.90733	0.0326697	0.00499978	-0.0314702	-1.07104	0.195557	0.0778809	0.39534	-0.55266	-0.546377	-0.489639	9.40607	0.904326	-2.03584	0.0456972	0.0328454	-0.00606115	-1.00928	0.360352	0.241699	0.40902	-0.560375	-0.457138	-0.556513	9.79689	0.519397	-0.605049	0.045864	0.0120861	-0.00715463	-1.0625	0.394531	0.164062	
64	0.685781	-0.596652	0.0654244	-0.411619	4.05437	-8.83591	2.8817	-0.00171473	-0.0228634	-0.00335308	-0.0253906	1.02246	0.0319824	-0.613229	0.601517	-0.00544297	0.511956	5.93948	-7.36786	2.87394	-0.0271827	0.0490209	-0.026445	-0.217041	0.862549	0.0905762	-0.335387	0.0925196	-0.710546	0.61162	-3.67244	-9.17905	-0.47888	0.0239759	0.00603003	0.00766195	-0.059082	0.876953	0.305664	0.0782352	0.00992194	0.142883	-0.986593	-0.178727	-3.21617	9.54109	-0.0558453	-0.0389751	-0.0321024	-0.348145	0.362549	-0.891602	0.302576	0.0125582	0.624433	-0.719981	-3.92197	-8.83688	2.14339	0.0894738	-0.0293167	-0.0587332	0.0534668	1.00269	-0.0383301	0.469184	-0.130162	0.803704	-0.342031	-5.24097	-5.65675	-2.48471	0.0658253	0.032085	-0.0746053	0.166016	0.618652	0.760498	-0.674671	0.552327	0.29277	0.392479	8.45748	-5.07005	2.37724	-0.0862975	-0.110275	-0.0276219	-0.522949	0.829834	-0.178223	0.391978	-0.478294	-0.607174	-0.498927	9.02016	2.3821	-1.93953	-0.0112372	0.00653803	-0.0137112	-1.04541	0.174805	0.195068	0.448361	-0.438527	-0.601367	-0.494999	9.58481	2.04987	-1.09798	0.019449	0.00504868	-0.0246503	-1.07593	0.197754	0.0800781	0.395945	-0.552062	-0.546639	-0.489531	9.28224	1.07635	-2.23859	0.0641835	0.0470252	-0.00902955	-1.00244	0.354004	0.244141	0.409686	-0.559843	-0.457817	-0.556001	9.97275	0.677897	-0.456261	0.0562725	0.00578478	-0.00952953	-1.05786	0.392334	0.168701	
65	0.685727	-0.596521	0.0650399	-0.41196	4.20328	-8.63307	2.93028	0.0192605	-0.00547377	-0.0390007	-0.0273438	1.02026	0.0341797	-0.613032	0.601513	-0.00558376	0.512194	6.02586	-7.21194	2.83564	-0.0244402	0.0335716	-0.0302367	-0.217041	0.862549	0.100098	-0.335429	0.0920589	-0.710774	0.611402	-3.6727	-8.9717	-0.2565	-0.0311813	0.0414154	0.0204753	-0.0546875	0.868164	0.308105	0.0780584	0.00994286	0.143122	-0.986572	-0.406887	-2.94267	9.45581	-0.0325823	0.0218847	0.0183069	-0.3479	0.358154	-0.886963	0.30252	0.012475	0.623372	-0.720926	-3.6986	-8.5406	2.16182	0.105865	-0.0197882	-0.0430177	0.0559082	0.993896	-0.0336914	0.469045	-0.130704	0.803439	-0.342635	-5.3119	-6.30398	-2.33997	0.0350445	0.00720277	-0.0265133	0.165771	0.62085	0.756348	-0.672816	0.554255	0.292967	0.392797	8.11673	-4.8096	2.12055	-0.0479302	-0.0672668	-0.0365595	-0.518555	0.827637	-0.174072	0.391443	-0.478658	-0.607035	-0.499167	9.17159	2.09835	-1.80731	-0.0236811	0.0132706	-0.0254998	-1.04541	0.172852	0.19043	0.448213	-0.438554	-0.600664	-0.495962	9.57361	1.81943	-1.08964	-0.0266535	0.0308559	-0.0262581	-1.07812	0.197754	0.0756836	0.396451	-0.551172	-0.546791	-0.489955	9.41944	1.05148	-2.0403	0.00459623	0.039683	-0.0131654	-1.01123	0.35376	0.241699	0.409838	-0.559672	-0.458058	-0.555862	9.81136	0.503117	-0.446423	0.0316481	0.0053527	-0.00980407	-1.0603	0.396729	0.161865	
66	0.685103	-0.59677	0.0654419	-0.412573	4.15886	-8.61455	2.90669	-0.0403155	0.0204981	-0.00440731	-0.0341797	1.02222	0.0319824	-0.612325	0.60171	-0.00646391	0.512797	6.08843	-7.4979	2.7855	-0.0303292	0.0374835	-0.0272159	-0.219238	0.864746	0.0976562	-0.335236	0.0917906	-0.71067	0.61167	-3.73959	-9.17763	-0.413759	0.030423	0.0303812	-0.0022899	-0.0651855	0.866211	0.314941	0.0776711	0.0107949	0.142311	-0.986711	-0.407341	-2.87671	9.47358	0.0626235	0.0418733	-0.0166416	-0.352295	0.358154	-0.886963	0.300974	0.0118235	0.625258	-0.719949	-3.9599	-8.78967	2.23658	-0.0876471	0.0564902	-0.053053	0.0537109	0.993896	-0.0314941	0.470482	-0.130045	0.802521	-0.343067	-5.36026	-5.93818	-2.24646	0.0296583	-0.0416419	0.0294199	0.169922	0.625	0.753906	-0.670426	0.557298	0.29339	0.392263	8.58106	-5.2932	1.91598	-0.0820318	-0.0517104	-0.00642157	-0.522949	0.829834	-0.167725	0.390957	-0.47872	-0.607278	-0.499193	9.29176	2.26368	-2.02083	0.0287184	0.00385106	-0.0265847	-1.052	0.177002	0.197266	0.448959	-0.437294	-0.601726	-0.495111	9.62147	2.15113	-0.966435	0.0635481	0.0104477	-0.0325881	-1.07593	0.200195	0.0778809	0.397101	-0.550537	-0.547013	-0.489894	9.4855	0.796535	-2.05625	0.0410821	0.0400344	-0.00121009	-1.00464	0.354004	0.237305	0.410661	-0.559054	-0.459165	-0.554963	9.8662	0.552776	-0.50268	0.0726495	-0.0061813	-0.00757086	-1.06689	0.39209	0.164062	
67	0.684424	-0.596847	0.0663668	-0.413441	4.17639	-8.707	2.98868	-0.0286003	0.0549883	-0.0220167	-0.0339355	1.01562	0.0385742	-0.612314	0.601438	-0.00591408	0.513136	6.05116	-7.23708	2.74772	-0.003218	0.0125663	-0.0369788	-0.223389	0.860352	0.095459	-0.335158	0.0909053	-0.70994	0.612692	-3.59472	-9.10321	-0.218848	0.0278107	0.0319502	0.0154473	-0.0568848	0.874756	0.307861	0.0772293	0.0115276	0.141977	-0.986785	-0.377881	-2.73068	9.37141	-0.00890458	0.0338677	-0.00670074	-0.341309	0.362549	-0.891602	0.300677	0.0132932	0.623346	-0.721703	-3.97985	-8.96926	2.0629	0.200227	0.037065	0.0213776	0.0556641	0.998291	-0.0383301	0.470652	-0.129284	0.802505	-0.34316	-5.3284	-5.6952	-2.26997	0.0453791	0.0533843	0.00344879	0.165771	0.625	0.749756	-0.670022	0.557551	0.295071	0.391331	8.31915	-4.96398	2.14685	-0.00202651	-0.0870891	-0.0303292	-0.526855	0.823242	-0.16333	0.390903	-0.478658	-0.607214	-0.499373	9.17888	2.47525	-1.73728	-0.0251047	0.0191266	-0.0202663	-1.04297	0.170654	0.195068	0.448476	-0.437663	-0.600906	-0.496218	9.43682	2.01055	-0.842298	-0.0480789	0.0148732	-0.0285183	-1.07104	0.195557	0.0756836	0.397494	-0.550135	-0.546959	-0.490087	9.41518	0.997589	-1.95905	0.0109777	0.0198563	0.00420758	-1.00684	0.35376	0.237305	0.410842	-0.558754	-0.459992	-0.554446	9.86111	0.668679	-0.596454	0.0377498	-0.00386959	-0.0170019	-1.0603	0.394531	0.161865	
68	0.683966	-0.596737	0.0665034	-0.414336	3.89338	-8.68064	2.92075	0.00572912	0.00195595	-0.0292241	-0.0317383	1.01782	0.0341797	-0.612012	0.601603	-0.00597381	0.513302	6.16499	-7.34053	2.75827	-0.0167098	0.0300639	-0.0269275	-0.221191	0.860352	0.100098	-0.335252	0.0905269	-0.709655	0.613026	-3.58473	-8.97004	-0.0669157	0.002084	0.00849624	0.009973	-0.0568848	0.872559	0.303467	0.0768163	0.0119871	0.14127	-0.986914	-0.425925	-2.67454	9.24553	0.0297759	0.0168776	-0.00397587	-0.345703	0.360352	-0.886963	0.300843	0.0141071	0.622245	-0.722569	-3.98388	-8.10623	2.22737	0.126269	0.0203525	0.0158506	0.0534668	0.998291	-0.0429688	0.470647	-0.129305	0.802623	-0.342881	-5.2604	-5.84964	-2.30652	0.0013603	-0.00308694	-0.0139264	0.170166	0.623047	0.751953	-0.669354	0.558199	0.295274	0.391398	8.492	-5.11575	2.22334	0.00542184	0.00886282	-0.0286648	-0.5271	0.827637	-0.165527	0.39102	-0.478367	-0.60662	-0.500281	9.02717	2.11081	-2.01106	-0.00472679	0.0559146	-0.0364577	-1.04321	0.172852	0.192627	0.447706	-0.438151	-0.600425	-0.497065	9.61842	1.92351	-1.31533	-0.00612275	-0.00558498	-0.0301503	-1.08301	0.199951	0.0800781	0.396861	-0.550318	-0.546686	-0.4907	9.40452	1.22203	-1.97883	-0.0493268	0.00940429	-0.0190944	-1.00659	0.349365	0.241943	0.410285	-0.558887	-0.46007	-0.55466	9.84699	0.479929	-0.392226	-0.0189786	-0.0062572	-0.0205261	-1.0647	0.394531	0.161865	
69	0.683898	-0.597085	0.0659483	-0.414034	4.23806	-8.51581	2.97677	-0.0128888	-0.0347841	0.00324306	-0.0339355	1.01782	0.0405273	-0.612541	0.600736	-0.00659204	0.513679	6.04246	-7.45085	2.71145	0.0246595	0.0486388	0.0106441	-0.214844	0.860352	0.0930176	-0.335125	0.0908775	-0.710619	0.611925	-3.61167	-9.18987	-0.306156	-0.0378507	0.0149868	0.00453958	-0.0632324	0.868164	0.305908	0.0773989	0.0114802	0.143302	-0.986581	-0.35693	-2.73712	9.41393	-0.0834282	-0.021354	0.0192545	-0.345947	0.364746	-0.88501	0.300494	0.0132754	0.624495	-0.720786	-3.71865	-8.35194	2.21151	-0.119251	0.0171928	-0.0177083	0.0537109	0.993896	-0.0314941	0.471438	-0.12848	0.801696	-0.34427	-5.16827	-5.51463	-2.04437	0.0541384	0.0097495	0.00547313	0.176514	0.625	0.756104	-0.669455	0.558172	0.29661	0.390252	8.38347	-5.12102	2.08435	0.0676055	-0.0905673	-0.0138897	-0.529053	0.823242	-0.161133	0.390572	-0.478554	-0.606973	-0.500023	9.18301	2.42884	-1.5704	-0.0142319	-0.0167956	-0.00762821	-1.04736	0.17041	0.204346	0.448244	-0.437333	-0.601085	-0.496501	9.48773	2.01556	-0.848815	0.0545525	0.00947596	-0.0275762	-1.07129	0.200195	0.0778809	0.396812	-0.550123	-0.547029	-0.490576	9.52227	0.739813	-1.84911	0.0479531	0.0189721	-0.00670179	-1.01123	0.35376	0.234863	0.410675	-0.558406	-0.461288	-0.553843	9.85188	0.543926	-0.496822	0.0537567	-0.0121149	-0.0142097	-1.05615	0.401123	0.159424	
70	0.683961	-0.597345	0.0665038	-0.413467	4.24241	-8.84478	2.98492	-0.0114356	0.00462965	0.0339624	-0.029541	1.02002	0.0385742	-0.613023	0.600305	-0.00712947	0.513601	6.08295	-7.19276	2.84948	-0.00130194	0.0301732	-0.000580081	-0.217041	0.860352	0.0883789	-0.335216	0.0913308	-0.711838	0.610389	-3.74463	-9.02423	-0.329705	-0.0796613	0.0096348	0.0128473	-0.0546875	0.868164	0.312744	0.0769864	0.0113584	0.144062	-0.986504	-0.467701	-2.92667	9.47675	-0.0140115	0.0187239	-0.0104349	-0.350098	0.360352	-0.886963	0.29985	0.0143802	0.623229	-0.722128	-4.07252	-8.07462	2.46035	-0.0666614	0.0154448	-0.017408	0.0515137	0.996094	-0.0361328	0.470642	-0.129045	0.802666	-0.342885	-5.48625	-5.80043	-2.27446	-0.0738514	0.0504894	-0.0222643	0.163574	0.622803	0.756104	-0.669716	0.557794	0.296895	0.390128	8.35497	-4.89958	1.86335	0.0658301	0.0313988	-0.0144244	-0.525146	0.832031	-0.16333	0.390489	-0.478833	-0.606499	-0.500397	9.21291	2.27697	-1.74896	-0.0368264	0.0531492	-0.0140173	-1.04492	0.16626	0.19751	0.44676	-0.438956	-0.599554	-0.498255	9.50459	1.8528	-1.00331	-0.130776	-0.0112035	-0.0138195	-1.07593	0.197754	0.0822754	0.397029	-0.549783	-0.546966	-0.490851	9.48328	1.21173	-1.97571	-0.0150919	0.0219822	-0.00224432	-1.00684	0.35376	0.241943	0.410306	-0.558588	-0.461538	-0.553724	9.99811	0.475887	-0.471697	0.0162021	-0.013711	-0.0147658	-1.06006	0.390137	0.159668	
71	0.684366	-0.596728	0.0669137	-0.41362	3.97983	-8.83447	2.92163	0.0305766	0.0115695	0.00349877	-0.0317383	1.01562	0.0407715	-0.613062	0.599887	-0.00781396	0.514033	6.04773	-7.32807	2.83376	-0.00762858	0.043339	-0.00193957	-0.212646	0.862549	0.0952148	-0.335288	0.0907948	-0.711906	0.610351	-3.62358	-8.93516	-0.307934	0.00497084	0.00862028	0.0207148	-0.0566406	0.868164	0.312744	0.076624	0.0116875	0.144322	-0.98649	-0.408103	-2.97667	9.213	0.0100111	0.017552	-0.00828761	-0.345947	0.364746	-0.887207	0.300251	0.0123952	0.626571	-0.719099	-3.61999	-9.14563	1.99702	-0.110949	-0.00233538	-0.0110795	0.0490723	0.998291	-0.0314941	0.470503	-0.129033	0.802527	-0.343406	-5.16681	-6.03707	-2.30059	0.0509439	0.0165102	-0.0141603	0.167969	0.622803	0.751953	-0.67005	0.557297	0.296885	0.390271	8.26732	-4.9878	2.24669	0.0510166	0.0172858	-0.0128612	-0.524658	0.823242	-0.165283	0.390324	-0.478701	-0.606931	-0.500128	9.08732	2.19316	-2.11551	0.0457074	-0.0244703	-0.0224382	-1.04956	0.170654	0.192627	0.446866	-0.438695	-0.600236	-0.497568	9.6424	1.77465	-1.24058	0.0790683	-0.029593	-0.0268821	-1.08032	0.195557	0.0825195	0.396673	-0.549998	-0.546798	-0.491085	9.41782	0.96462	-2.04921	-0.0348091	0.00265982	-0.00294054	-1.00439	0.351807	0.244141	0.410003	-0.558513	-0.461811	-0.553797	9.82749	0.584834	-0.59562	-0.0330298	0.0035911	-0.0182953	-1.0647	0.389893	0.161865	
72	0.684692	-0.596415	0.0665273	-0.413594	4.10168	-8.71228	2.91956	0.046189	-0.0189315	-0.00476294	-0.0317383	1.02002	0.0341797	-0.613095	0.599648	-0.00850185	0.514261	5.99437	-7.42593	2.86187	-0.0236995	0.0691807	0.00590795	-0.216797	0.858154	0.0883789	-0.335288	0.0908168	-0.71216	0.610051	-3.7625	-8.9491	-0.317423	-0.0254943	0.0107342	0.00877628	-0.0568848	0.872559	0.310303	0.076649	0.0117669	0.144627	-0.986443	-0.569883	-2.82225	9.27122	-0.0201582	0.0123745	0.00756032	-0.341309	0.362549	-0.893799	0.299955	0.0136199	0.625195	-0.720398	-3.81111	-9.06421	2.10828	0.173701	0.0598657	0.000797327	0.0559082	0.996094	-0.0405273	0.470639	-0.128782	0.802558	-0.343242	-5.26731	-5.9159	-2.29109	0.00306928	0.015613	0.0153068	0.165771	0.622803	0.751953	-0.669616	0.557948	0.297142	0.389891	8.31781	-5.13198	2.15903	-0.0187479	-0.0487008	-0.00353654	-0.5271	0.827637	-0.165527	0.39031	-0.478812	-0.607066	-0.499868	9.1797	2.1651	-1.85041	0.0191943	-0.00514738	-0.00977622	-1.04712	0.16626	0.199707	0.446701	-0.438954	-0.600141	-0.497603	9.55496	1.92019	-0.987875	-0.064403	0.00600997	-0.0100143	-1.07324	0.193115	0.0869141	0.395642	-0.550763	-0.546429	-0.49147	9.39642	0.904094	-2.03195	-0.0440021	-0.012451	0.00100446	-1.00879	0.349365	0.239746	0.409673	-0.558696	-0.461467	-0.554143	9.74408	0.327295	-0.498856	-0.0463511	0.0119326	-0.00756621	-1.0625	0.392334	0.164062	
73	0.684875	-0.59598	0.0671737	-0.413814	4.15867	-8.6719	3.04972	-0.00902415	0.0456736	0.0147371	-0.0319824	1.02441	0.0383301	-0.612668	0.599816	-0.00923207	0.514562	6.03879	-7.23959	2.87119	-0.0585108	0.0273594	-0.0300626	-0.215088	0.866943	0.0881348	-0.334983	0.0898742	-0.712269	0.610231	-3.81913	-9.01326	-0.608221	0.0384574	0.0410916	0.0183843	-0.0610352	0.865967	0.310547	0.0758952	0.0116328	0.145627	-0.986356	-0.387208	-3.04509	9.41513	-0.00799234	0.0164973	-0.0475516	-0.346191	0.369141	-0.88501	0.299572	0.0146684	0.624625	-0.72103	-3.94576	-8.36086	2.30293	-0.0847311	0.0171919	-0.0085495	0.0581055	0.996094	-0.0361328	0.470931	-0.12814	0.802534	-0.343137	-5.31745	-5.89619	-2.29785	0.0472429	0.0176154	0.0112729	0.167725	0.625	0.756104	-0.669785	0.55806	0.297188	0.389404	8.29404	-4.9382	1.85604	0.0119959	-0.000849503	-0.0133543	-0.522949	0.829834	-0.165527	0.390043	-0.479528	-0.606333	-0.500279	9.13211	2.32183	-1.91422	-0.0511596	0.0190085	0.000735497	-1.04297	0.170654	0.19043	0.445928	-0.439804	-0.599298	-0.49856	9.42288	2.1543	-0.969619	-0.0894344	-0.00133253	-0.0159546	-1.07812	0.197754	0.0847168	0.395881	-0.550675	-0.546296	-0.491524	9.46184	0.977325	-1.98992	0.00472114	0.0241476	0.0074667	-1.0022	0.349609	0.241943	0.409599	-0.558734	-0.461329	-0.554275	9.83801	0.543524	-0.462577	-0.0129342	0.0116165	-0.00417163	-1.0625	0.394531	0.16626	
74	0.684348	-0.596436	0.0670109	-0.414055	3.90204	-8.73075	2.98876	-0.0216213	-0.0459021	-0.0364358	-0.0317383	1.02002	0.0405273	-0.611405	0.600561	-0.0105067	0.51517	6.02234	-7.50146	2.6499	-0.079023	0.0502203	-0.0176048	-0.218994	0.860352	0.0976562	-0.335091	0.0900547	-0.711925	0.610546	-3.4615	-9.03708	-0.114263	-0.00229934	-0.019957	-0.0107795	-0.0610352	0.870361	0.3125	0.0744645	0.0127177	0.143159	-0.986812	-0.243507	-2.84563	9.37265	0.089678	0.0441095	-0.0276148	-0.345703	0.358154	-0.886963	0.299491	0.0150088	0.625764	-0.720069	-3.77145	-8.86534	1.98296	0.0395073	0.0505425	0.00560915	0.0559082	0.993896	-0.0336914	0.470971	-0.12742	0.802718	-0.34292	-5.19048	-5.94124	-2.21988	-0.00226217	0.0323184	0.025096	0.169922	0.625	0.758301	-0.668428	0.559923	0.296727	0.389414	8.47854	-5.27561	2.38099	-0.0569025	0.0250072	0.00600966	-0.524658	0.823242	-0.154785	0.390136	-0.479389	-0.606568	-0.500056	9.12779	2.07787	-2.13159	0.0465273	0.00492596	-0.0280027	-1.04761	0.177002	0.197266	0.446466	-0.439168	-0.600185	-0.497571	9.6672	1.91503	-1.18685	0.121566	-0.00263226	-0.0242073	-1.07812	0.197754	0.0822754	0.395544	-0.550896	-0.546456	-0.491369	9.43427	1.08442	-1.93132	-0.00669484	-0.0113658	0.00361595	-1.00879	0.349365	0.241943	0.409594	-0.558611	-0.461251	-0.554467	9.79229	0.543098	-0.429677	0.00527252	0.00757784	-0.00511501	-1.06689	0.389893	0.161865	
75	0.683551	-0.597068	0.0661129	-0.414605	4.15832	-8.82006	2.96173	-0.0191052	-0.00921601	-0.042959	-0.0339355	1.01782	0.0385742	-0.611274	0.60058	-0.0119782	0.515271	6.0971	-7.47481	2.66402	-0.0293841	0.0666958	0.013548	-0.214844	0.864746	0.0976562	-0.335462	0.0902916	-0.712905	0.609162	-3.5544	-9.19889	-0.538262	-0.0716858	-0.00471473	0.0372927	-0.0588379	0.868164	0.310303	0.0742127	0.0130532	0.143792	-0.986735	-0.152178	-2.96368	9.80207	-0.0281165	0.0280307	-0.00535228	-0.341309	0.362549	-0.889404	0.298326	0.0171425	0.623888	-0.722129	-4.11024	-8.36952	2.19801	0.0852726	0.0741285	-0.0335218	0.0556641	0.998291	-0.0429688	0.471519	-0.125797	0.802564	-0.343127	-5.46648	-5.49766	-2.43437	0.0566351	0.012225	0.0447579	0.174561	0.62085	0.75415	-0.667506	0.561046	0.296324	0.389686	8.3274	-5.09542	1.7473	-0.0533204	-0.0207502	-0.0118275	-0.525146	0.832031	-0.154785	0.390175	-0.479665	-0.606626	-0.49969	9.20465	2.49011	-1.71067	-0.00711974	0.0120816	0.00761582	-1.04102	0.172852	0.195068	0.446078	-0.43992	-0.599132	-0.498524	9.40482	2.13736	-0.831619	-0.127935	0.012384	-0.00234445	-1.07788	0.190918	0.0803223	0.395294	-0.551418	-0.546179	-0.491294	9.39931	0.933511	-2.04113	-0.00667639	-0.00176307	0.0143653	-1.00439	0.351807	0.241943	0.409417	-0.558819	-0.460914	-0.554669	9.88235	0.652248	-0.556902	-0.0274841	0.0116904	0.00232302	-1.06226	0.390137	0.164062	
76	0.683977	-0.597048	0.0656816	-0.413999	3.94023	-8.76824	2.92466	0.0226844	-0.0516952	0.0286531	-0.029541	1.02002	0.0341797	-0.610878	0.600033	-0.013412	0.516341	6.18449	-7.18678	2.88042	-0.0437281	0.119017	-0.0190307	-0.216797	0.860352	0.095459	-0.336088	0.0893566	-0.712418	0.609526	-3.7873	-9.12045	-0.303786	0.0421754	0.00630152	0.0434765	-0.0588379	0.870361	0.308105	0.073518	0.014023	0.142832	-0.986913	-0.521879	-3.12444	9.40335	0.0510002	0.0465467	-0.00893651	-0.341064	0.354004	-0.893555	0.298682	0.0164195	0.625132	-0.720923	-3.65176	-8.88697	2.18336	-0.0415908	-0.030263	0.0111255	0.0581055	0.993896	-0.0383301	0.471668	-0.125598	0.802251	-0.343727	-5.16203	-5.86063	-2.49133	0.0411885	0.0126393	-0.0278333	0.174072	0.629395	0.749512	-0.665774	0.563138	0.296139	0.389772	8.4343	-5.00941	2.18573	-0.0876183	-0.0393326	-0.00254868	-0.525391	0.836182	-0.150635	0.39024	-0.479565	-0.606317	-0.50011	9.17869	2.27698	-1.9224	-0.0109884	0.0236139	-0.0106188	-1.03687	0.175049	0.192627	0.44588	-0.440255	-0.59896	-0.498611	9.68236	1.96481	-1.08824	0.048235	-0.00589222	-0.0155122	-1.07568	0.195557	0.0800781	0.395123	-0.551332	-0.546323	-0.491367	9.49977	1.07715	-1.90609	-0.00111679	0.00390745	-0.00910291	-1.00464	0.356201	0.241699	0.409428	-0.558879	-0.460751	-0.554735	9.98472	0.613538	-0.475376	0.010418	0.0100003	-0.00334803	-1.0603	0.392334	0.164062	
77	0.684937	-0.597352	0.0640978	-0.412217	4.16585	-8.76067	2.94199	0.033482	-0.0984451	0.019601	-0.0339355	1.01562	0.0319824	-0.610426	0.599515	-0.0156881	0.517413	5.89348	-7.51243	2.7125	-0.0317777	0.072713	0.00752494	-0.212646	0.862549	0.0976562	-0.336552	0.0880915	-0.711427	0.61061	-3.71065	-8.81795	-0.341547	0.054182	0.0150066	0.0262561	-0.0568848	0.874756	0.305664	0.0737101	0.0145874	0.142562	-0.98693	-0.528089	-2.89371	9.1772	0.0280294	0.0451666	0.0258476	-0.345703	0.360352	-0.891602	0.298389	0.0175269	0.622566	-0.723235	-4.11914	-8.54172	2.21928	0.219181	0.0466655	-0.0337351	0.0490723	0.998291	-0.045166	0.473395	-0.124563	0.800496	-0.345814	-5.51228	-6.01452	-2.24915	0.158961	-0.0663948	0.0165288	0.171875	0.631592	0.747314	-0.665053	0.564038	0.296193	0.389661	8.47902	-5.24109	1.65471	0.0401078	0.0134814	-0.0174614	-0.529297	0.832031	-0.146484	0.390152	-0.47936	-0.606825	-0.499758	9.10213	2.20409	-1.86067	0.0350096	-0.00895055	-0.0228775	-1.04541	0.174805	0.199707	0.446136	-0.440009	-0.599268	-0.498229	9.66992	1.86253	-1.18154	0.0540157	0.000581207	-0.0177332	-1.07788	0.190918	0.0803223	0.394712	-0.551704	-0.546153	-0.491469	9.45377	0.989549	-2.03051	-0.0372269	-0.012045	0.0057681	-1.00684	0.35376	0.239502	0.408573	-0.55929	-0.460233	-0.555381	9.82651	0.635669	-0.581437	-0.0705082	-0.00228287	-0.0175782	-1.0625	0.392334	0.16626	
78	0.685117	-0.5976	0.0626333	-0.411784	4.00102	-8.77295	2.88681	0.0205213	-0.0549509	-0.0311503	-0.0273438	1.01807	0.0385742	-0.610536	0.598967	-0.0162392	0.5179	5.94356	-7.3786	2.87954	-0.0137415	0.0507547	-0.0188753	-0.216797	0.860352	0.100098	-0.337465	0.0878711	-0.710962	0.61068	-3.62657	-8.99406	-0.282212	0.0245589	-0.0197191	0.0270704	-0.0568848	0.872559	0.307861	0.0741485	0.01632	0.141502	-0.987022	-0.508892	-2.73896	9.19374	0.0540047	0.0491887	0.0108369	-0.334473	0.356201	-0.891357	0.298026	0.0191586	0.621325	-0.72441	-3.86924	-8.56571	2.19035	0.0118973	0.03122	0.0212286	0.0559082	0.993896	-0.052002	0.474998	-0.124135	0.799596	-0.345853	-5.24785	-5.56779	-2.12896	-0.0149181	-0.0261858	0.0132582	0.173828	0.633789	0.740723	-0.665219	0.563306	0.295689	0.390818	8.29085	-5.05716	1.83709	0.01174	0.0588834	-0.0324292	-0.525146	0.834229	-0.150635	0.390201	-0.479907	-0.606329	-0.499798	9.26834	2.39981	-1.71708	-0.0307346	0.0184707	0.00458586	-1.04321	0.172607	0.201904	0.445937	-0.440348	-0.598987	-0.498446	9.4653	1.96371	-0.866874	-0.0479168	-0.000743467	-0.0152502	-1.07373	0.202393	0.0822754	0.393656	-0.552645	-0.545162	-0.492359	9.4018	0.969075	-2.11222	-0.0578685	0.00722494	-0.000575635	-1.00464	0.354004	0.241943	0.407482	-0.559902	-0.459239	-0.556388	9.88466	0.430404	-0.524135	-0.0607945	0.0188239	-0.00906025	-1.06714	0.396729	0.173096	
79	0.685225	-0.597694	0.0617149	-0.411606	3.94119	-8.60944	2.86571	0.030046	-0.0672015	-0.0322265	-0.0361328	1.02002	0.0297852	-0.610248	0.598916	-0.0169209	0.518276	6.00558	-7.4953	2.77954	-0.0476405	0.0681492	-0.0145526	-0.214844	0.864746	0.0998535	-0.337776	0.0877977	-0.71037	0.611206	-3.63799	-8.94912	-0.199621	0.0673329	-0.0198965	0.00168079	-0.059082	0.874756	0.303467	0.0742024	0.0170391	0.140311	-0.987176	-0.419012	-2.82496	9.23432	0.103899	0.0534341	0.0164022	-0.338867	0.358398	-0.891357	0.298543	0.01871	0.622139	-0.723509	-3.81293	-8.50175	2.16083	-0.104069	-0.0221547	0.0135953	0.0600586	1.00049	-0.0429688	0.475189	-0.124365	0.799601	-0.345496	-5.13204	-5.77148	-2.10125	-0.0268769	-0.0044677	-0.0066541	0.178467	0.629395	0.747314	-0.665041	0.563404	0.295613	0.391038	8.42749	-5.15896	2.03732	-0.00160496	0.018911	-0.0262084	-0.527344	0.832031	-0.144287	0.390258	-0.480052	-0.605827	-0.500223	9.18419	2.16342	-2.04716	-0.0375956	0.0437646	-0.00222835	-1.04541	0.174805	0.195068	0.445446	-0.440962	-0.598828	-0.498533	9.52855	2.03907	-1.02755	-0.0135454	-0.0207454	-0.0133113	-1.07373	0.200195	0.0800781	0.392966	-0.553232	-0.544747	-0.492711	9.44131	0.965273	-1.90747	-0.0770463	-0.0141946	0.00730617	-1.01123	0.351562	0.246338	0.407243	-0.560031	-0.458911	-0.556705	9.80852	0.500897	-0.437794	-0.0378296	0.0166364	-0.0061165	-1.06445	0.385498	0.166504	
80	0.685063	-0.598591	0.0597614	-0.41086	4.14308	-8.56357	2.87312	-0.0028397	-0.0964505	-0.0330102	-0.0341797	1.02441	0.0341797	-0.610093	0.598649	-0.0176735	0.518742	5.87903	-7.43743	2.755	-0.0180444	0.0482323	-0.0136572	-0.218994	0.860352	0.102539	-0.337904	0.0876784	-0.709423	0.612251	-3.62481	-8.97939	-0.352866	0.0605472	0.0052416	0.00111193	-0.0524902	0.872314	0.298828	0.0739808	0.0178406	0.138686	-0.987408	-0.409508	-2.54331	9.30234	0.0546268	0.0250468	-0.0109955	-0.332031	0.354004	-0.893555	0.298148	0.0188186	0.622442	-0.723408	-3.90296	-8.51525	2.27312	0.03169	0.0446981	-0.0395723	0.0534668	1.00049	-0.0405273	0.475416	-0.124338	0.799423	-0.345604	-5.16193	-5.83781	-2.11833	0.0190683	-0.00145216	-0.00916696	0.178467	0.629395	0.743164	-0.664345	0.564103	0.296213	0.390757	8.33275	-5.17513	1.87961	-0.0108453	-0.0636386	-0.0185357	-0.5271	0.829834	-0.14624	0.390036	-0.480147	-0.605992	-0.500105	9.17395	2.13919	-1.96162	0.0223634	-0.021593	-0.0212962	-1.04102	0.170654	0.195068	0.445651	-0.440958	-0.598919	-0.498245	9.59538	1.81697	-1.12885	0.0186167	0.00909087	-0.0102907	-1.07812	0.195557	0.0800781	0.392441	-0.553664	-0.544091	-0.493368	9.47301	0.775733	-2.04914	-0.00682628	0.0420687	0.00362951	-1.00879	0.349365	0.244141	0.406453	-0.560492	-0.458502	-0.557154	9.78441	0.437197	-0.400217	-0.0349369	-0.0125764	-0.0102707	-1.06445	0.385498	0.166504	
81	0.684676	-0.599656	0.0592957	-0.410019	4.08762	-8.74026	2.78191	-0.0388926	-0.0398952	0.0134485	-0.0361328	1.02002	0.0341797	-0.609689	0.598599	-0.017756	0.519272	5.93366	-7.37009	2.8283	-0.00813068	0.0379648	-0.0389747	-0.214844	0.862549	0.102295	-0.338143	0.0879398	-0.709454	0.612046	-3.7462	-8.93611	-0.218637	-0.0161323	-0.00907689	-0.00260689	-0.0524902	0.872314	0.303467	0.0733126	0.0181641	0.137556	-0.98761	-0.608986	-2.82075	9.44882	0.0346425	0.0209382	-0.0163869	-0.32959	0.347412	-0.897949	0.297316	0.0184737	0.622113	-0.724042	-4.02162	-8.53965	2.23689	0.0148034	-0.0063924	-0.0521859	0.0556641	1.00073	-0.052002	0.475991	-0.124879	0.799174	-0.345193	-5.39849	-5.68506	-2.08782	-0.0873379	0.00037192	-0.0154208	0.176025	0.631592	0.740967	-0.664135	0.563871	0.296463	0.391259	8.22953	-5.1112	1.54428	0.03352	0.0405104	-0.0390016	-0.529297	0.827637	-0.14624	0.389883	-0.48036	-0.60577	-0.500289	9.14422	2.32479	-1.74103	-0.0103038	0.0241198	-0.0130598	-1.04541	0.172607	0.199707	0.445269	-0.441413	-0.598468	-0.498725	9.54256	2.01177	-1.03065	-0.0561718	-0.00123657	-0.0163278	-1.07104	0.195557	0.0891113	0.392847	-0.553221	-0.54405	-0.493586	9.3261	1.07951	-2.09393	0.00177544	0.0234666	-0.00913031	-1.00903	0.351562	0.244141	0.406645	-0.56037	-0.458901	-0.556808	9.87517	0.702438	-0.612524	0.0207986	0.00412886	-0.0044856	-1.06909	0.389893	0.166504	
82	0.684908	-0.600079	0.0588569	-0.409075	4.24776	-8.54628	2.80049	0.00376132	-0.0384058	0.0159683	-0.0339355	1.01782	0.0341797	-0.609287	0.59845	-0.0178529	0.519912	5.95754	-7.46231	2.85627	-0.0154156	0.032812	-0.0307964	-0.214844	0.860352	0.095459	-0.338065	0.0871031	-0.708124	0.613747	-3.80755	-8.89695	-0.310421	0.110203	-0.00985184	-0.00693435	-0.0524902	0.872314	0.301025	0.0725674	0.0188838	0.135525	-0.987932	-0.576066	-2.89132	9.02594	0.141313	0.0269271	-0.0277015	-0.338623	0.349609	-0.893555	0.296939	0.0184767	0.62152	-0.724706	-3.83664	-8.56311	2.19525	0.0537741	0.0285578	-0.0318642	0.0559082	0.996094	-0.0498047	0.475843	-0.125477	0.799141	-0.345256	-5.32684	-5.80298	-2.19023	0.025247	0.0135166	-0.0315993	0.180664	0.625	0.747559	-0.663453	0.564984	0.298377	0.389351	8.36582	-5.11963	1.81979	-0.0123792	-0.127218	0.0123901	-0.527344	0.832031	-0.144287	0.389147	-0.481119	-0.605483	-0.50048	9.2744	2.00211	-1.83432	-0.0388723	-0.0285154	-0.00908314	-1.04321	0.172607	0.199707	0.445222	-0.441399	-0.598524	-0.49871	9.64321	2.18935	-0.953226	-0.037875	0.00384208	-0.0167206	-1.08057	0.199951	0.0844727	0.391966	-0.553865	-0.543843	-0.493792	9.52651	0.909725	-1.90114	-0.0414938	-0.0166481	0.00144864	-1.00439	0.347412	0.246582	0.40635	-0.560479	-0.458609	-0.557154	9.91598	0.466871	-0.446046	-0.00518536	0.0103476	-0.0122325	-1.06201	0.383301	0.168701	
83	0.684122	-0.600943	0.0603151	-0.40891	4.28002	-8.45675	2.97958	-0.0669886	0.0215531	0.0242753	-0.029541	1.01782	0.0427246	-0.609394	0.597941	-0.0162733	0.520423	6.06423	-7.32363	2.80104	0.0437156	-0.0274453	-0.097123	-0.223389	0.860352	0.0905762	-0.337669	0.0873296	-0.70769	0.614433	-3.6455	-9.16874	-0.467141	0.0691289	0.0379509	-0.0406417	-0.0524902	0.874512	0.296387	0.0721237	0.0183442	0.135051	-0.98804	-0.346172	-2.9477	9.15184	-0.0003647	-0.016739	-0.0175414	-0.331543	0.345215	-0.899902	0.295375	0.0173233	0.622261	-0.724738	-3.94706	-8.92036	2.26136	-0.0426102	0.0142366	-0.109213	0.0495605	0.991699	-0.0429688	0.47621	-0.12552	0.798307	-0.346662	-5.34893	-5.63535	-2.21504	0.101507	0.00279061	-0.0505315	0.18042	0.633789	0.745117	-0.663859	0.5643	0.302981	0.386082	8.34043	-4.70193	1.92221	0.225042	-0.185092	-0.0915524	-0.533447	0.825439	-0.137695	0.388955	-0.481406	-0.605081	-0.500838	9.25365	2.33518	-1.62236	-0.0233155	0.0354783	-0.0176841	-1.04102	0.172607	0.206543	0.444685	-0.441814	-0.598533	-0.498812	9.33674	2.008	-0.72745	0.0498338	-0.0381383	-0.0319895	-1.07593	0.199951	0.0891113	0.391649	-0.554091	-0.54351	-0.494157	9.52165	0.851966	-1.86574	-0.00494992	0.0242598	0.00915838	-1.00439	0.351807	0.248779	0.405684	-0.560975	-0.458408	-0.557305	9.79782	0.20755	-0.356152	-0.0141497	-0.0197415	-0.00607237	-1.06006	0.390137	0.170898	
84	0.682051	-0.603285	0.0619013	-0.408684	3.64308	-9.05205	2.75178	-0.124658	-0.0423153	-0.0132446	-0.0273438	1.01782	0.0515137	-0.607362	0.599063	-0.01521	0.52154	6.05225	-7.31512	2.79263	-0.091603	0.0109687	-0.102786	-0.219238	0.862549	0.100098	-0.338404	0.0885961	-0.705279	0.616616	-3.68113	-9.06141	0.0103125	0.116342	-0.0961886	-0.0403806	-0.0527344	0.874512	0.291992	0.0713375	0.0176906	0.131073	-0.988645	-0.470813	-2.95576	9.4231	0.166918	-0.0409376	-0.0148957	-0.335938	0.34082	-0.895508	0.294902	0.015858	0.620366	-0.726586	-3.57205	-8.77013	2.26209	0.140054	-0.0602156	-0.0712584	0.0493164	0.993896	-0.0544434	0.475899	-0.126493	0.797016	-0.349694	-5.02494	-6.32133	-2.14881	0.121957	0.00480557	-0.122815	0.173584	0.642334	0.74707	-0.661269	0.566361	0.303743	0.38691	8.4451	-5.23654	2.06838	-0.120492	0.0389283	-0.0437601	-0.533691	0.831787	-0.14209	0.389701	-0.480908	-0.604581	-0.501341	8.94669	2.13932	-2.2621	-0.00182508	0.0626407	-0.00915199	-1.04321	0.174805	0.195068	0.443254	-0.443179	-0.597835	-0.499712	9.51616	1.6578	-1.4913	-0.0310208	-0.0233472	-0.0189738	-1.07812	0.195312	0.0891113	0.39206	-0.553916	-0.542862	-0.494738	9.23736	1.30612	-2.25767	-0.0266209	0.0341417	0.00632258	-1.00439	0.349609	0.244141	0.405821	-0.560828	-0.459019	-0.556851	9.9742	0.947771	-0.734193	-0.000130419	0.00239553	-0.00536798	-1.05762	0.383545	0.17334	
85	0.680555	-0.605635	0.0598718	-0.408002	4.16347	-8.85926	2.76128	-0.0579162	-0.111578	-0.0639684	-0.0407715	1.01978	0.0512695	-0.606836	0.599248	-0.0151531	0.521941	6.07047	-7.70797	2.84556	0.0081183	0.0159309	-0.0210235	-0.229736	0.855957	0.095459	-0.338858	0.090203	-0.704149	0.617425	-3.4767	-9.32047	0.056203	0.0178444	-0.0687204	-0.0601682	-0.0612793	0.87915	0.291748	0.073317	0.0170371	0.130567	-0.988578	-0.331572	-2.14537	9.61121	0.0161612	-0.0377156	0.0856269	-0.342529	0.338623	-0.904297	0.293925	0.0178479	0.614075	-0.732258	-4.11422	-8.20838	2.17731	0.320654	0.051734	-0.0590592	0.0429688	0.991943	-0.0681152	0.476705	-0.125442	0.794837	-0.353907	-5.40027	-5.86318	-2.24005	0.157954	-0.0311887	-0.0291804	0.175537	0.646729	0.734131	-0.660342	0.56739	0.305272	0.385779	8.63216	-5.3337	2.09851	-0.03336	-0.0682634	-0.0144677	-0.531494	0.831787	-0.131592	0.389244	-0.481411	-0.604836	-0.500905	9.04571	2.32592	-1.92416	0.00270202	-0.0428648	-0.0153154	-1.04541	0.172607	0.197266	0.443254	-0.443179	-0.597835	-0.499712	9.51616	1.6578	-1.4913	-0.0310208	-0.0233472	-0.0189738	-1.07812	0.195312	0.0891113	0.391541	-0.554391	-0.542699	-0.494797	9.22978	1.1782	-2.09788	-0.0430103	-0.0230848	0.00735428	-1.01123	0.351562	0.244141	0.405839	-0.560844	-0.458582	-0.557182	9.82734	0.506058	-0.4807	0.0119328	0.0234692	0.00539453	-1.06226	0.385742	0.17334	
86	0.680437	-0.606709	0.0586757	-0.406776	4.44817	-8.86645	2.72842	-0.00947842	-0.0709304	0.0312268	-0.0339355	1.01782	0.0515137	-0.607498	0.598618	-0.0149893	0.521898	6.09636	-7.26681	2.88298	0.0174924	0.0268422	-0.0128792	-0.223389	0.855957	0.095459	-0.339088	0.0905567	-0.704401	0.616959	-3.65273	-9.13907	-0.077305	-0.0306283	0.0204159	0.0141194	-0.0546875	0.872559	0.294189	0.0740904	0.0163047	0.132086	-0.988331	-0.433965	-2.091	10.1003	-0.0845215	-0.00765134	0.00983656	-0.338135	0.34082	-0.895508	0.293475	0.0169306	0.616365	-0.730534	-3.86111	-8.6232	2.44452	-0.263495	-0.0207531	-0.0217684	0.0407715	0.989746	-0.0634766	0.477179	-0.125714	0.794538	-0.353845	-5.51553	-5.47471	-2.11277	-0.0417151	0.00890349	-0.0300762	0.175293	0.648926	0.733887	-0.66029	0.56785	0.306141	0.384501	8.61272	-4.96767	1.63169	0.0466491	-0.0381473	-0.00438507	-0.535645	0.827637	-0.139893	0.389032	-0.481594	-0.604895	-0.500823	9.39831	2.06611	-1.8664	-0.000810125	0.0221002	-0.0288958	-1.04517	0.170654	0.195068	0.443444	-0.442543	-0.597681	-0.50029	9.51874	1.92394	-0.928939	-0.0957251	0.0341807	-0.0165162	-1.07568	0.193115	0.0847168	0.391203	-0.554329	-0.542846	-0.494973	9.55598	0.930138	-1.79824	0.0125253	0.0209256	-0.0169182	-1.00659	0.347412	0.246582	0.40663	-0.560267	-0.459082	-0.556774	9.95699	0.405993	-0.331059	0.056389	0.0116088	-0.00846681	-1.06006	0.390137	0.166504	
