40	Head	00b4120a												Throax	00b411e8												LUpArm	00b411d9												LFoArm	00b41148												RUpArm	00b411db												RFoArm	00b41204												Waist	00b411f7												Lthigh	00b411f4												Lshank	00b4111b												Rthigh	00b411c8												Rshank	00b411ee												
PacketCount	q0	q1	q2	q3	accX	accY	accZ	gyrX	gyrY	gyrZ	magX	magY	magZ	q0	q1	q2	q3	accX	accY	accZ	gyrX	gyrY	gyrZ	magX	magY	magZ	q0	q1	q2	q3	accX	accY	accZ	gyrX	gyrY	gyrZ	magX	magY	magZ	q0	q1	q2	q3	accX	accY	accZ	gyrX	gyrY	gyrZ	magX	magY	magZ	q0	q1	q2	q3	accX	accY	accZ	gyrX	gyrY	gyrZ	magX	magY	magZ	q0	q1	q2	q3	accX	accY	accZ	gyrX	gyrY	gyrZ	magX	magY	magZ	q0	q1	q2	q3	accX	accY	accZ	gyrX	gyrY	gyrZ	magX	magY	magZ	q0	q1	q2	q3	accX	accY	accZ	gyrX	gyrY	gyrZ	magX	magY	magZ	q0	q1	q2	q3	accX	accY	accZ	gyrX	gyrY	gyrZ	magX	magY	magZ	q0	q1	q2	q3	accX	accY	accZ	gyrX	gyrY	gyrZ	magX	magY	magZ	q0	q1	q2	q3	accX	accY	accZ	gyrX	gyrY	gyrZ	magX	magY	magZ	
0	0.111099	0.240016	-0.154372	-0.951955	-4.13317	4.26201	9.27277	0.0912358	0.0397912	0.105043	0.123779	-0.26123	-1.0332	0.145224	-0.023863	-0.712635	-0.685925	2.5908	9.44308	0.0162438	0.116253	0.0741981	0.0452674	-0.445557	-0.97998	-0.0598145	0.653201	-0.0892658	-0.737521	-0.146366	9.59531	0.840297	-0.374002	0.240805	-0.0810513	0.0471562	-1.13379	-0.130127	-0.235596	0.542469	0.422547	-0.562856	0.458666	9.44112	-0.52952	-0.438438	0.0572432	0.0235992	0.0314094	-1.12305	-0.262939	-0.00634766	0.150655	0.71869	0.157747	-0.66023	-9.56092	0.0804849	-0.82199	-0.429704	0.0205722	0.0998896	1.00195	0.151367	-0.237793	0.34196	0.692573	0.41014	-0.484965	-9.08357	1.3343	1.50783	-0.542501	0.0210308	0.169577	0.985107	0.217773	-0.0803223	0.130717	-0.228311	-0.743279	-0.615081	4.18917	8.16883	-1.62619	0.0763236	-0.0131161	-0.031985	-0.752686	-0.701416	0.222656	0.981172	-0.0445123	-0.15849	-0.101002	3.70593	-1.13113	10.4195	-0.0906306	0.0656314	0.0351065	-0.0422363	0.124023	-1.06226	0.564346	-0.015624	-0.825239	-0.0158018	9.66621	0.247515	-2.81267	0.170449	-0.020624	0.0279738	-1.14893	0.000244141	0.118408	0.268954	-0.278827	-0.648941	-0.654824	6.83735	6.82532	0.0877056	0.0559705	-0.0792018	-0.023314	-0.994873	-0.409424	0.00415039	0.276948	-0.322868	-0.571352	-0.701864	7.66313	5.97883	1.47212	0.0801364	-0.0515511	-0.00969921	-1.05981	-0.319092	-0.0773926	
1	0.112466	0.239418	-0.1563	-0.951631	-3.83834	4.28789	9.14367	0.127486	-0.0405236	0.142699	0.126709	-0.27417	-1.0354	0.148138	-0.0223315	-0.71482	-0.683073	2.3015	9.5805	-0.219625	0.135789	0.115678	0.0231695	-0.449951	-0.97998	-0.0576172	0.653232	-0.0858216	-0.738754	-0.142004	9.50391	1.12065	-0.482291	0.206675	-0.0162631	0.00957752	-1.12915	-0.143311	-0.235107	0.541144	0.42094	-0.564284	0.459953	9.82129	-0.814709	-0.176107	0.0612917	0.0559152	0.102038	-1.11914	-0.251709	-0.00634766	0.151799	0.718751	0.155888	-0.660343	-9.72132	-0.339534	-1.17586	0.215323	-0.0275248	0.0399034	0.999756	0.151367	-0.23999	0.344639	0.691062	0.407199	-0.487695	-9.44026	1.86211	1.15243	0.17358	-0.063353	0.0413887	0.978516	0.217773	-0.0803223	0.13249	-0.225874	-0.746933	-0.611162	4.49619	8.5522	-2.20299	0.218703	0.0826876	-0.0275949	-0.752686	-0.699219	0.224854	0.981113	-0.046177	-0.158328	-0.101081	3.65172	-1.2552	10.584	-0.0271927	0.0269271	-0.0295235	-0.029541	0.126221	-1.06934	0.564832	-0.021779	-0.824675	-0.020028	9.64979	0.0702427	-2.86515	-0.113566	0.0327264	0.106056	-1.14917	0.00268555	0.114014	0.26709	-0.280026	-0.653226	-0.650803	7.54462	6.94475	0.48003	0.207707	-0.0942593	-0.0102787	-0.994629	-0.416016	0.0202637	0.27773	-0.32207	-0.577763	-0.696654	7.83091	6.15296	1.66828	0.32451	-0.113828	-0.0280647	-1.05786	-0.312256	-0.0615234	
2	0.116147	0.23866	-0.160824	-0.950625	-3.57586	4.31145	9.10696	0.142958	-0.0169862	0.188374	0.120117	-0.278564	-1.02881	0.148902	-0.0215268	-0.715763	-0.681944	2.28741	9.84613	-0.198026	0.117751	0.0886216	-0.0106052	-0.452148	-0.977783	-0.0576172	0.653098	-0.0835501	-0.739756	-0.138718	9.65696	1.11619	-0.462994	0.32872	-0.0592863	0.0268128	-1.12915	-0.143311	-0.230713	0.54069	0.420021	-0.563691	0.462048	10.0027	-0.736323	0.0708242	0.0953897	0.114371	0.128354	-1.12573	-0.249756	-0.00878906	0.1499	0.719039	0.152719	-0.661204	-9.74853	0.724362	-0.681975	0.294265	-0.039628	0.0667966	1.00684	0.140381	-0.242432	0.347835	0.689018	0.40748	-0.488082	-9.33143	1.69794	1.30208	-0.227571	-0.0935181	0.0281458	0.98291	0.217773	-0.0825195	0.133269	-0.225001	-0.748553	-0.60933	4.47384	8.60756	-2.26069	0.229677	0.0503326	-0.0384177	-0.752686	-0.701416	0.231201	0.981107	-0.0465005	-0.158075	-0.10139	3.5681	-1.35593	10.4924	-0.022195	0.0331641	-0.0394921	-0.0380859	0.128418	-1.06714	0.565345	-0.0240253	-0.82423	-0.0212986	8.96695	-0.517369	-3.28796	-0.181307	0.0538669	0.0706334	-1.15356	0.000244141	0.111816	0.266294	-0.280568	-0.654304	-0.649811	7.27172	7.16223	-0.0819399	0.0826746	-0.103764	-0.0138414	-0.996826	-0.413818	0.0112305	0.278155	-0.32141	-0.581752	-0.693462	7.90682	6.08193	1.59029	0.39805	-0.108317	-0.0428818	-1.05762	-0.321045	-0.0568848	
3	0.118134	0.239753	-0.163072	-0.949721	-3.68768	4.68791	9.0333	0.0525468	0.0593474	0.0444281	0.118164	-0.280762	-1.02881	0.149035	-0.0201964	-0.716828	-0.680836	2.43989	9.66954	-0.290129	0.0361073	0.0431074	-0.0550224	-0.445557	-0.97998	-0.0505371	0.652431	-0.0836291	-0.740891	-0.135722	9.58634	0.900404	-0.766303	-0.0521815	-0.06458	0.103215	-1.13354	-0.136719	-0.233154	0.539937	0.419342	-0.56252	0.464965	9.57885	-0.1757	-0.139207	0.0727319	0.0376548	0.0409911	-1.12354	-0.251709	-0.0129395	0.155479	0.716482	0.155074	-0.662142	-9.77475	0.120802	-0.643506	-0.30002	-0.11713	0.0200101	0.997803	0.146973	-0.249268	0.349572	0.68627	0.406872	-0.491211	-9.47059	0.916511	1.48922	-0.0236496	-0.120866	-0.040017	0.98291	0.217773	-0.0869141	0.131963	-0.225432	-0.750613	-0.606916	4.49275	8.24836	-2.41931	0.110905	-0.105104	-0.0352437	-0.748291	-0.699219	0.231201	0.981139	-0.0474738	-0.158024	-0.100697	3.86003	-1.50737	10.2869	-0.030175	0.0166404	0.0170382	-0.0380859	0.128418	-1.06934	0.565724	-0.027488	-0.823787	-0.024008	9.06552	-0.0485421	-3.30637	-0.290268	0.0365939	0.0185561	-1.15137	0.00268555	0.111816	0.26583	-0.28026	-0.656597	-0.647819	6.86255	6.79912	-0.185969	0.0841532	-0.0552553	-0.00827713	-0.999268	-0.413818	0.0227051	0.27908	-0.319919	-0.589667	-0.687065	7.72552	6.7228	0.908977	0.334922	-0.0906705	-0.0297599	-1.06201	-0.323486	-0.0454102	
4	0.11698	0.241333	-0.162614	-0.949542	-3.84296	4.43739	8.95865	0.00943949	0.0522362	-0.094565	0.125	-0.285156	-1.03516	0.149232	-0.0185872	-0.717611	-0.680014	2.30349	9.26204	-0.463008	0.0599533	0.0549046	-0.0511829	-0.445557	-0.982178	-0.0480957	0.652798	-0.0836849	-0.740905	-0.133834	9.64896	0.25301	-0.492195	0.143476	0.0204231	0.0402611	-1.13794	-0.132324	-0.228516	0.540061	0.417546	-0.561776	0.467331	9.97072	-1.1605	0.835319	0.0279396	0.0944729	0.0765917	-1.12622	-0.238525	-0.0175781	0.154477	0.715994	0.151614	-0.663704	-9.50582	0.619892	-0.618468	0.220078	-0.0317058	0.0616733	1.0022	0.144775	-0.249268	0.350169	0.683844	0.404956	-0.495731	-9.18945	0.954801	2.19697	-0.00542389	-0.0787075	-0.0331502	0.98291	0.213379	-0.0974121	0.131309	-0.225423	-0.752565	-0.604639	4.27494	7.91336	-2.43203	0.134413	0.000607061	-0.0341512	-0.748779	-0.690674	0.243652	0.981194	-0.0483886	-0.158069	-0.0996578	3.7817	-1.70062	10.2358	-0.0284276	0.0224759	0.0386016	-0.0385742	0.13501	-1.07178	0.565624	-0.0289966	-0.823751	-0.0257292	8.83194	-1.4454	-3.62823	-0.178323	-0.00275784	-5.20619e-05	-1.15161	0.00708008	0.116211	0.264398	-0.281274	-0.6575	-0.647049	6.9922	6.54833	-0.0562565	0.0460558	-0.0666009	-0.00996333	-0.999023	-0.418213	0.0249023	0.277856	-0.321645	-0.589061	-0.687276	7.38812	5.42757	0.892724	-0.0377266	-0.0639833	0.0100752	-1.05518	-0.321045	-0.0432129	
5	0.115233	0.243175	-0.16233	-0.949335	-4.08611	4.54877	9.08052	0.025229	0.0479538	-0.0722328	0.135986	-0.284912	-1.03076	0.149326	-0.0180945	-0.719115	-0.678415	2.36946	9.41122	-0.545597	0.0734998	0.00967455	-0.0130977	-0.447754	-0.977783	-0.0458984	0.652221	-0.0815006	-0.743153	-0.125256	9.65054	0.393828	-0.983868	0.403782	-0.112939	0.139732	-1.13379	-0.12793	-0.215088	0.538537	0.417726	-0.56066	0.470259	9.57458	-0.798242	0.248458	0.1177	0.0377347	0.0687998	-1.12622	-0.238525	-0.0175781	0.153461	0.716056	0.150146	-0.664207	-9.64741	0.267137	-0.708859	0.110193	0.00603473	-0.0118799	1.00244	0.140381	-0.253906	0.349184	0.683962	0.401697	-0.498905	-9.38383	1.14752	1.99316	0.20353	0.01203	0.0412147	0.987305	0.215576	-0.0952148	0.130746	-0.224756	-0.754082	-0.603117	4.28705	8.06719	-2.53136	0.0973752	-0.0216404	-0.0598926	-0.742188	-0.692627	0.252197	0.981379	-0.0483168	-0.15846	-0.0972164	3.74632	-1.79069	10.2337	0.0752902	-0.00086037	0.0953235	-0.0339355	0.130615	-1.06714	0.566435	-0.0268975	-0.823316	-0.0240524	9.18744	0.355226	-3.02502	-0.0402392	0.0359392	-0.0884757	-1.15356	0.000488281	0.109619	0.26481	-0.281136	-0.659562	-0.644839	7.01243	7.14492	-0.243931	0.132169	0.00559333	0.000362776	-0.999268	-0.413818	0.0270996	0.278741	-0.320538	-0.594587	-0.682661	7.61489	7.10013	1.17563	0.269425	-0.0532835	-0.0283843	-1.05518	-0.321045	-0.029541	
6	0.113827	0.24232	-0.164763	-0.949304	-3.94858	4.69792	8.9404	0.132584	-0.0856998	-0.0265682	0.129395	-0.287354	-1.02661	0.149171	-0.01763	-0.720835	-0.676634	2.47805	9.53075	-0.701541	0.0906947	0.0180961	-0.0368138	-0.445557	-0.97998	-0.0480957	0.65127	-0.0804257	-0.744793	-0.121088	9.62949	1.23176	-0.75443	0.0345588	-0.0972548	0.0535428	-1.13599	-0.123535	-0.212891	0.539373	0.415086	-0.562967	0.46888	9.85513	-1.30994	0.254297	-0.286943	-0.00401857	0.104019	-1.12427	-0.234131	-0.0244141	0.152611	0.716664	0.147622	-0.664312	-9.45055	0.792049	-0.290356	0.0405485	0.00236489	0.0685063	1.00464	0.140381	-0.258301	0.353013	0.681894	0.40158	-0.499136	-9.33736	1.18601	1.76845	-0.207247	-0.00147925	0.0200519	0.98291	0.215576	-0.0974121	0.130402	-0.223391	-0.754651	-0.602987	4.28532	8.29453	-2.5283	0.0173344	0.0343578	-0.0730502	-0.744141	-0.697021	0.241699	0.981623	-0.0471532	-0.158161	-0.0958051	3.59132	-1.09058	10.5301	0.0479783	0.0298065	-0.0123429	-0.0314941	0.124268	-1.07178	0.567013	-0.0288337	-0.822669	-0.0296755	9.44317	-1.42253	-3.41451	-0.129446	0.0141127	-0.024055	-1.1582	0.000244141	0.107178	0.264038	-0.280441	-0.659806	-0.645207	6.99338	6.7413	-0.742497	-0.0331331	0.0176326	-0.0507549	-0.994873	-0.411621	0.0270996	0.278007	-0.321496	-0.593693	-0.683287	7.56296	5.61641	0.418661	-0.026752	-0.00933035	0.00129989	-1.05981	-0.321045	-0.0385742	
7	0.112684	0.240661	-0.167414	-0.949398	-3.44473	5.14335	8.7594	0.0807662	-0.0679543	-0.012661	0.12085	-0.291748	-1.02881	0.147661	-0.0172082	-0.722307	-0.675405	2.28566	9.74142	-0.515832	0.0485789	-0.0517362	-0.0729096	-0.44751	-0.986572	-0.0407715	0.650623	-0.0815306	-0.745654	-0.118501	9.69906	0.632307	-0.627304	0.136912	-0.0581278	0.0847556	-1.13794	-0.125732	-0.212891	0.538768	0.413104	-0.564264	0.469766	9.9605	-0.621445	0.433687	-0.187212	-0.00436407	0.0718254	-1.13354	-0.225586	-0.0178223	0.154812	0.7159	0.149682	-0.664166	-9.81101	0.211535	-0.927347	-0.0757109	-0.000940118	-0.0496644	1.00464	0.135986	-0.251465	0.352994	0.681162	0.398995	-0.502212	-9.53137	1.32988	2.09959	0.198367	-0.00838441	0.00599986	0.984863	0.219971	-0.0910645	0.12941	-0.222218	-0.753608	-0.604936	4.07514	8.29761	-2.41291	-0.086195	-0.00280495	-0.0721428	-0.746094	-0.703613	0.244141	0.981521	-0.0462516	-0.158286	-0.0970672	3.39013	-1.33301	10.0988	0.0495682	0.0133297	-0.0871508	-0.0358887	0.128418	-1.06006	0.567272	-0.0283179	-0.822569	-0.0279388	8.56039	-0.59435	-3.25935	-0.0108697	0.00267543	-0.0148858	-1.16064	0.00268555	0.107178	0.263673	-0.280896	-0.658991	-0.645991	7.0834	6.76846	-0.629172	-0.0325966	0.0192884	0.0140205	-0.994873	-0.411621	0.0270996	0.27858	-0.321148	-0.594397	-0.682605	7.66446	6.14354	0.491442	-0.0180511	0.0188548	0.00972808	-1.05762	-0.318848	-0.036377	
8	0.111852	0.242477	-0.167919	-0.948945	-3.45534	5.09792	8.89701	0.0441507	0.114886	-0.0740533	0.132324	-0.300293	-1.02417	0.145424	-0.0179609	-0.722504	-0.675661	2.43507	10.0204	-0.632455	-0.0314723	-0.0733517	-0.049983	-0.445068	-0.990967	-0.0429688	0.651051	-0.0822086	-0.745006	-0.119751	9.97094	0.588525	-0.686603	-0.103602	0.0376641	-0.0123323	-1.13379	-0.123535	-0.217529	0.539038	0.412235	-0.564339	0.47013	9.90214	-0.483338	-0.155058	-0.0345023	0.0234651	0.00891558	-1.12695	-0.225342	-0.0222168	0.150227	0.718037	0.144165	-0.664131	-9.87487	1.23696	-0.547553	0.279688	0.064815	0.0463021	1.00049	0.133789	-0.253906	0.352835	0.681074	0.397799	-0.50339	-9.62173	1.41424	2.00418	0.017071	0.0751876	0.00804915	0.980957	0.213379	-0.0930176	0.127794	-0.223278	-0.752516	-0.606247	4.30751	8.23083	-2.22357	-0.126996	-0.0249128	-0.00368722	-0.743896	-0.703613	0.237549	0.981166	-0.0461813	-0.158791	-0.0998346	3.54464	-1.22577	10.3215	-0.0251581	0.00276228	-0.147543	-0.0334473	0.121826	-1.0647	0.567335	-0.0282098	-0.822598	-0.0258528	8.76071	-0.193443	-3.1407	0.146075	-0.000567448	0.0655242	-1.15137	0.00268555	0.10498	0.263734	-0.28123	-0.658275	-0.646551	6.79964	6.80267	-0.615611	-0.0676897	0.0239074	0.0261443	-0.99707	-0.411621	0.0270996	0.279133	-0.32145	-0.592983	-0.683466	7.40093	6.10136	0.507883	-0.0488773	0.0517186	0.0317564	-1.06006	-0.31665	-0.0432129	
9	0.110505	0.246088	-0.166113	-0.948491	-4.28084	5.44836	8.98823	-0.0693415	0.112449	-0.0909361	0.136475	-0.293701	-1.02637	0.144765	-0.0190205	-0.720708	-0.677689	2.35213	9.27518	-0.583215	-0.123191	-0.0129053	-0.00889011	-0.443359	-0.982178	-0.0432129	0.651602	-0.0825472	-0.744301	-0.120897	9.64546	0.644922	-0.650922	-0.0841573	0.0715523	-0.0314533	-1.13379	-0.125732	-0.217285	0.539343	0.411736	-0.564339	0.470217	10.0437	-0.710429	0.758288	-0.0241503	0.0403775	0.0145053	-1.13135	-0.227539	-0.0266113	0.149841	0.718168	0.144418	-0.664022	-9.75548	1.32859	-0.404424	0.0124078	0.0300598	-0.0423763	1.00293	0.129395	-0.249268	0.35205	0.681543	0.396589	-0.504259	-9.52955	1.25379	2.04201	0.144595	0.0710447	0.016509	0.987305	0.215576	-0.0974121	0.126786	-0.224619	-0.751464	-0.607267	4.29363	7.94185	-2.14404	-0.126696	-0.0852508	0.0259681	-0.74585	-0.707764	0.233398	0.980994	-0.0467133	-0.158783	-0.101279	3.77699	-1.84034	10.5472	-0.0522218	0.0158666	-0.128908	-0.0380859	0.126221	-1.0647	0.566776	-0.0302266	-0.82302	-0.0221382	10.1374	-0.0733056	-2.62159	0.172169	-0.0577807	0.161876	-1.15161	0.00732422	0.109375	0.263206	-0.282677	-0.656074	-0.64837	6.56383	6.38783	-0.290086	-0.123853	-0.00243736	0.0305961	-0.992432	-0.411621	0.0249023	0.27921	-0.321574	-0.589611	-0.686288	7.22331	6.30005	1.11809	-0.201293	0.0731166	0.00190642	-1.06445	-0.319092	-0.0454102	
10	0.110707	0.246246	-0.162667	-0.949024	-4.10864	4.94932	9.02419	-0.139775	-0.00786032	-0.0255492	0.140381	-0.287109	-1.03076	0.144636	-0.0202876	-0.719625	-0.678829	2.50898	9.27482	-0.607701	-0.0770355	-0.0173272	0.0187416	-0.440918	-0.984375	-0.0478516	0.652246	-0.0849534	-0.743089	-0.123199	9.51639	0.0360959	-0.687202	-0.173206	0.040825	0.0412256	-1.13599	-0.119141	-0.222168	0.540433	0.411259	-0.563662	0.470196	9.54176	-0.848106	0.116516	-0.0292056	0.0208227	-0.0396246	-1.1333	-0.234131	-0.0332031	0.148983	0.719804	0.145425	-0.662222	-9.54258	0.493492	-0.974952	0.0629937	0.119925	-0.056435	1.00464	0.138184	-0.244629	0.349567	0.683206	0.393564	-0.506103	-9.22447	1.74992	1.89669	0.1337	0.114932	0.0203293	0.980957	0.211426	-0.0952148	0.126573	-0.226763	-0.750453	-0.607764	4.32083	7.8601	-2.4195	-0.000462637	-0.00451065	0.0503992	-0.743896	-0.701416	0.239746	0.9812	-0.0455526	-0.157337	-0.102061	3.6673	-1.62318	9.98242	0.0800604	0.0784957	-0.0396281	-0.0336914	0.126221	-1.0647	0.565618	-0.0313614	-0.823702	-0.0246441	8.68214	-1.30749	-3.56383	0.0492457	-0.0674364	-0.0405272	-1.15137	0.00488281	0.114014	0.262795	-0.283707	-0.654832	-0.649341	6.91202	6.90171	0.107547	-0.0455635	0.0203714	0.00999816	-0.996826	-0.416016	0.0202637	0.278502	-0.321345	-0.588511	-0.687625	7.63892	6.4401	1.14639	-0.0196071	0.0133885	-0.0328576	-1.06445	-0.319092	-0.0476074	
11	0.110927	0.245328	-0.161252	-0.949477	-3.95002	4.60108	8.94377	-0.120386	-0.0639132	-0.014287	0.13623	-0.289307	-1.02856	0.144814	-0.0208831	-0.719056	-0.679375	2.62861	9.59245	-0.563528	-0.0785244	-0.000443486	0.0204326	-0.44751	-0.982178	-0.0456543	0.652484	-0.0852366	-0.74264	-0.124437	9.46063	0.358859	-0.892819	-0.0864274	0.0409174	-0.0444443	-1.13159	-0.125732	-0.224121	0.540059	0.412054	-0.563529	0.470089	9.75487	-1.42788	0.0849127	0.0840678	-0.014125	-0.00367887	-1.1311	-0.22998	-0.0178223	0.14445	0.721238	0.144586	-0.661849	-9.65625	0.91244	-0.573984	0.138013	0.0660627	-0.100653	1.00244	0.140381	-0.23999	0.347024	0.684761	0.393344	-0.505922	-9.31483	1.69983	1.53866	0.0998824	0.12828	-0.0227656	0.987549	0.211426	-0.0866699	0.127188	-0.226859	-0.74825	-0.610312	4.49302	8.46257	-2.46742	-0.151912	0.0734845	-0.0100283	-0.746094	-0.701416	0.233398	0.981282	-0.0460578	-0.156392	-0.102501	3.92603	-1.71079	10.4914	-0.0093589	0.0383363	-0.0223461	-0.0339355	0.132812	-1.06714	0.566022	-0.0309393	-0.823475	-0.0234837	9.37001	-0.8059	-3.59169	0.0911089	0.0253473	-0.0230145	-1.15405	0.00952148	0.109375	0.26293	-0.283054	-0.654042	-0.650367	7.24761	7.185	-0.123368	-0.0658538	0.0532842	-0.011889	-1.00146	-0.411621	0.0202637	0.277655	-0.32188	-0.587291	-0.68876	7.70639	6.20365	0.969864	-0.151747	-0.00718728	-0.0193858	-1.05957	-0.323486	-0.0454102	
12	0.110308	0.243268	-0.15941	-0.95039	-3.27352	4.64079	8.72742	-0.0669371	-0.0655149	-0.0525089	0.135986	-0.282715	-1.03296	0.145207	-0.0199459	-0.718324	-0.680094	2.40002	9.76422	-0.464162	-0.0302304	0.0675671	-0.0507546	-0.443359	-0.97998	-0.0505371	0.652104	-0.0843653	-0.742331	-0.128795	9.75651	0.362296	-0.911054	-0.133784	0.00419012	-0.0841115	-1.13159	-0.125977	-0.217285	0.539344	0.41295	-0.564344	0.469143	9.76866	-0.816087	0.276296	-0.0778368	-0.0878844	-0.0243319	-1.12646	-0.236328	-0.0244141	0.144547	0.720766	0.1482	-0.661543	-9.81531	0.467759	-0.64175	-0.164486	0.0178295	-0.112686	1.00659	0.142578	-0.246826	0.347261	0.682622	0.394871	-0.507458	-9.58051	1.58655	1.49654	-0.0730916	0.0306662	-0.125236	0.983154	0.211426	-0.0866699	0.127134	-0.226112	-0.746711	-0.612481	4.39958	8.486	-2.11176	-0.0316203	0.0605054	-0.0327496	-0.748291	-0.703613	0.222656	0.981285	-0.0437062	-0.156799	-0.102877	3.65885	-1.16094	10.4536	0.0902615	-0.00255414	-0.0622092	-0.03125	0.117432	-1.05981	0.5659	-0.0274262	-0.823797	-0.0190496	9.03191	-0.199608	-3.018	0.218553	-0.0295585	-0.0249106	-1.15137	0.00488281	0.109375	0.263364	-0.282704	-0.652686	-0.651705	7.09384	6.72848	-0.224274	-0.02694	0.0848211	0.00946274	-0.992676	-0.409424	0.0202637	0.276513	-0.322749	-0.585902	-0.689995	7.88	6.05118	1.07611	-0.0591957	-0.0100118	-0.0139408	-1.05518	-0.325439	-0.0476074	
13	0.110483	0.245081	-0.157568	-0.950211	-3.60246	4.72282	8.8367	-0.0562621	0.11703	-0.0240967	0.142334	-0.27832	-1.03296	0.145563	-0.01912	-0.717818	-0.680576	2.38365	9.67851	-0.180211	-0.0364971	0.0524379	-0.0326832	-0.44751	-0.986572	-0.0524902	0.653263	-0.0825362	-0.740956	-0.131987	9.78435	0.711458	-0.554921	-0.0210112	0.105348	-0.137744	-1.12939	-0.134521	-0.226318	0.53891	0.413842	-0.564603	0.468545	10.0062	-0.913972	0.644439	0.00977274	-0.0395591	-0.0207734	-1.12671	-0.232178	-0.015625	0.14545	0.720238	0.151143	-0.661254	-9.96711	0.17194	-1.11851	-0.214468	0.0220091	-0.137969	1.00439	0.146973	-0.242432	0.346664	0.679819	0.398616	-0.508699	-9.42582	1.0721	1.46486	-0.0406391	0.11276	-0.199894	0.978516	0.219971	-0.0761719	0.127989	-0.224921	-0.744689	-0.615198	4.25586	8.43099	-2.12529	-0.111339	0.0758386	-0.0291134	-0.743896	-0.705566	0.220703	0.981176	-0.0437177	-0.157049	-0.10353	3.88256	-1.31258	10.399	0.032475	0.0165319	-0.0493903	-0.03125	0.115479	-1.06909	0.566402	-0.0284723	-0.82338	-0.0205813	9.72624	-0.731447	-3.40389	-0.118077	0.0284522	-0.0339454	-1.14917	0.00732422	0.114014	0.264676	-0.282374	-0.65286	-0.651142	6.84896	7.1114	0.0178029	0.0297735	0.0371274	0.0322315	-0.994629	-0.418213	0.0112305	0.276587	-0.322299	-0.586954	-0.689281	7.50909	6.55672	1.02641	0.0566416	-0.00517502	-0.0161252	-1.05029	-0.329834	-0.0498047	
14	0.112763	0.248326	-0.155308	-0.949473	-4.03276	4.83337	9.11842	-0.107501	0.164039	0.0691729	0.150879	-0.276123	-1.02856	0.145857	-0.0186077	-0.716521	-0.681892	2.17295	9.63	-0.196478	-0.0932841	0.0203011	-0.0281699	-0.445312	-0.986572	-0.057373	0.654537	-0.08231	-0.739797	-0.13231	9.49095	0.952038	-0.477182	0.000821573	0.0565147	0.0155306	-1.13159	-0.132324	-0.228516	0.539688	0.414154	-0.565239	0.466603	9.68383	-0.752125	0.0367068	-0.118041	-0.0457845	-0.0591729	-1.1333	-0.232178	-0.015625	0.143514	0.719773	0.155684	-0.66113	-9.48512	0.263579	-0.630537	-0.0313447	0.0403939	-0.193521	0.997314	0.160156	-0.237793	0.34513	0.67796	0.40204	-0.509528	-9.42755	0.825753	1.5723	0.00459351	0.123358	-0.170146	0.978271	0.22876	-0.0742188	0.128271	-0.224365	-0.742691	-0.617751	4.31425	8.27467	-1.89669	-0.0759037	0.0628042	-0.012313	-0.752441	-0.705811	0.214355	0.981233	-0.0418605	-0.15694	-0.103922	3.62056	-1.33813	10.0782	0.0850181	0.0281397	-0.0317719	-0.0310059	0.115479	-1.06226	0.566227	-0.0263975	-0.823631	-0.0179646	8.54504	0.034188	-3.20942	0.149698	-0.0214676	-0.0512526	-1.15161	0.00952148	0.111572	0.26498	-0.281986	-0.651722	-0.652325	7.01348	6.9559	-0.127536	-0.0493532	0.0713972	-0.00922307	-0.992432	-0.416016	0.0090332	0.276803	-0.321923	-0.587052	-0.689287	7.61344	6.14592	1.02097	0.0248398	0.0213702	-0.00685149	-1.05298	-0.321045	-0.0454102	
15	0.116216	0.250665	-0.152656	-0.948871	-4.28368	4.41624	9.09848	-0.111928	0.102664	0.0651884	0.153076	-0.273926	-1.02856	0.145723	-0.0185116	-0.715787	-0.682694	2.45181	9.53761	-0.138755	-0.0946199	0.0215252	-0.0392193	-0.443359	-0.982178	-0.0622559	0.656013	-0.0805044	-0.738449	-0.133635	9.60649	0.963684	-0.681501	0.0195632	0.0999032	-0.108238	-1.12939	-0.136719	-0.233154	0.540227	0.414495	-0.565108	0.465835	9.71168	-0.752051	-0.199396	0.0237523	0.013839	-0.0332865	-1.13306	-0.23877	-0.0175781	0.141301	0.720298	0.157688	-0.66056	-9.67293	-0.0502629	-0.966175	0.0471974	0.0785105	-0.0936087	1.00366	0.160156	-0.235596	0.339516	0.677832	0.403441	-0.512356	-9.31263	0.47319	1.28791	0.237557	0.152621	-0.202412	0.977783	0.239502	-0.0725098	0.127745	-0.223845	-0.740755	-0.620369	4.27003	8.4935	-1.78527	-0.110717	0.0448784	-0.0577192	-0.743652	-0.707764	0.208008	0.981053	-0.0418221	-0.157462	-0.104844	3.74783	-1.07666	10.5359	-0.0149929	-0.026092	-0.0738446	-0.0378418	0.119629	-1.06689	0.566995	-0.0260708	-0.823128	-0.0172408	9.09674	-0.56269	-3.52928	0.0746113	0.0234237	-0.00380229	-1.15625	0.00952148	0.111572	0.265862	-0.282071	-0.650219	-0.653428	6.9988	6.93087	-0.287449	-0.0564626	0.0573792	0.0471649	-0.994629	-0.413818	0.0134277	0.276959	-0.322426	-0.584781	-0.690917	7.76351	6.36514	0.773036	-0.161981	0.0581003	0.0435558	-1.05762	-0.31665	-0.0432129	
16	0.118199	0.251832	-0.149448	-0.948828	-3.92857	4.064	9.00404	-0.132514	0.0817277	0.0129751	0.15918	-0.262939	-1.03101	0.146847	-0.0155803	-0.714143	-0.684246	2.39852	9.57146	-0.0382495	-0.0301911	0.107161	-0.0652686	-0.438721	-0.98877	-0.0666504	0.657512	-0.0776522	-0.737282	-0.134396	9.63084	0.602211	-0.57286	0.0947534	0.0949754	-0.122552	-1.12695	-0.147461	-0.239746	0.53939	0.416815	-0.565106	0.464735	9.7848	-0.898162	0.0344933	0.0399091	-0.100867	-0.0617694	-1.12183	-0.23877	-0.0065918	0.140177	0.720131	0.162141	-0.659903	-9.87661	-0.19243	-0.759206	-0.164976	0.0481524	-0.177169	0.999023	0.171143	-0.226318	0.338115	0.676473	0.406151	-0.512937	-9.48476	0.779051	1.32559	-0.144832	0.128397	-0.132356	0.973389	0.241699	-0.0661621	0.125786	-0.224081	-0.7388	-0.623009	4.39625	8.35263	-1.73718	-0.126536	-0.0190356	-0.0556772	-0.741699	-0.707764	0.205811	0.980655	-0.0424838	-0.159191	-0.10568	3.67397	-1.17063	10.0638	-0.0173443	-0.0737406	-0.0511402	-0.0378418	0.119629	-1.06226	0.566204	-0.0225312	-0.823883	-0.0110229	8.63228	-0.614204	-3.3521	0.369889	-0.0840597	-0.0051325	-1.14941	0.00952148	0.109375	0.266377	-0.28318	-0.649331	-0.653622	6.66971	6.61977	-0.347599	-0.0268357	-0.00894231	0.0551707	-1.00195	-0.402832	0.0109863	0.278555	-0.322111	-0.579207	-0.695105	7.54492	6.029	0.603154	-0.262305	0.21138	0.0614764	-1.06006	-0.31665	-0.065918	
17	0.119941	0.254367	-0.147279	-0.948272	-4.19356	4.09282	8.99939	-0.0638392	0.124723	0.0299128	0.163574	-0.262939	-1.03076	0.148123	-0.0135871	-0.713716	-0.68446	1.84475	9.46672	0.0244738	-0.0184382	0.0829363	-0.0317815	-0.438721	-0.98877	-0.0595703	0.659651	-0.0724178	-0.736091	-0.133363	9.66199	1.24656	-0.444552	0.132518	0.107276	-0.0561801	-1.12695	-0.151855	-0.244141	0.538877	0.417888	-0.564951	0.464556	10.04	-0.799718	0.96065	0.0645934	-0.057244	-0.0426916	-1.13281	-0.240967	-0.0109863	0.142583	0.720561	0.16703	-0.657695	-9.29227	-0.246923	-1.16685	-0.214564	0.0912827	-0.0795497	1.00122	0.171143	-0.226318	0.339581	0.674748	0.409299	-0.511736	-9.23725	0.0947559	1.01928	-0.255791	0.140054	-0.140805	0.973145	0.250244	-0.0556641	0.124696	-0.224622	-0.738613	-0.623255	4.20188	8.07067	-1.68072	-0.0315655	-0.0733617	-0.0356824	-0.743164	-0.71875	0.212402	0.980342	-0.0452289	-0.15968	-0.10671	3.54551	-1.42703	10.6038	-0.146082	0.00873544	-0.0279968	-0.0378418	0.121826	-1.0647	0.565668	-0.0213419	-0.824316	-0.00823137	9.61227	-0.352072	-2.90174	0.240333	-0.0578519	0.0252399	-1.14722	0.0163574	0.118164	0.266208	-0.284894	-0.649231	-0.653045	6.71553	6.43195	0.188321	-0.0113781	-0.098744	0.0957023	-0.997314	-0.405029	0.00878906	0.278362	-0.323663	-0.570312	-0.701784	7.20612	6.06624	1.65538	-0.434781	0.120457	0.0611954	-1.06006	-0.31665	-0.0705566	
18	0.121667	0.255698	-0.146564	-0.947805	-4.20697	4.07536	9.1817	-0.067956	0.138038	0.0930263	0.172119	-0.258301	-1.03735	0.148059	-0.0138199	-0.713428	-0.684769	2.15067	9.44892	0.132886	-0.0457212	0.00147649	-0.0117401	-0.438965	-0.984375	-0.0690918	0.660088	-0.0741267	-0.735485	-0.133608	9.47898	0.944476	-0.233459	-0.103734	0.0388014	0.0938763	-1.12476	-0.151855	-0.239502	0.539195	0.418847	-0.563651	0.464901	9.60443	-1.03864	-0.0965254	0.0619804	0.025222	-0.040156	-1.12622	-0.23877	-0.0109863	0.142347	0.720619	0.168829	-0.657224	-9.43037	-0.600016	-1.42717	-0.0844258	0.061152	-0.125943	0.998779	0.17334	-0.230957	0.338544	0.674151	0.411283	-0.51162	-9.17534	0.265675	0.692351	0.0509235	0.144632	-0.0725243	0.970947	0.250244	-0.0534668	0.124994	-0.224892	-0.737658	-0.624229	4.24869	8.13722	-1.92134	-0.054387	0.0446489	0.0065049	-0.743408	-0.714355	0.203857	0.980437	-0.0445718	-0.159445	-0.106457	3.6877	-1.65845	10.1546	0.0624134	0.0413981	-0.00838489	-0.0419922	0.119629	-1.06445	0.56546	-0.0201487	-0.824509	-0.00583208	9.27941	-0.527523	-3.26857	0.168295	-0.0450871	-0.0277748	-1.14941	0.0141602	0.11377	0.266159	-0.285979	-0.650723	-0.651103	7.08689	7.02474	0.433688	0.121517	-0.0043354	-0.00089316	-1.00195	-0.402832	0.0178223	0.278219	-0.323695	-0.569527	-0.702464	7.54302	6.0159	1.97614	-0.038663	0.0165185	-0.00242708	-1.05786	-0.312256	-0.0727539	
19	0.126117	0.256557	-0.146388	-0.947018	-4.4738	3.81709	9.22131	-0.0251705	0.0272393	0.157167	0.174316	-0.258301	-1.03296	0.148077	-0.0147025	-0.713145	-0.685041	2.38683	9.32839	-0.00938603	-0.0106563	-0.00475826	0.00823601	-0.445312	-0.986572	-0.0715332	0.658873	-0.0746117	-0.736518	-0.133642	9.39806	1.42611	-0.472183	0.059059	-0.0782244	-0.0511153	-1.12915	-0.149658	-0.239502	0.539075	0.418589	-0.564209	0.464596	9.66978	-0.396754	-0.44023	-0.0264611	-0.00863531	0.0248726	-1.13062	-0.243164	-0.0109863	0.137234	0.721665	0.166875	-0.657662	-9.45633	-0.556418	-0.937931	0.265265	0.037654	-0.0854937	1.00073	0.177734	-0.230957	0.338363	0.673249	0.41247	-0.511971	-9.17979	0.442085	0.475051	0.0160446	0.0676881	-0.0717179	0.970947	0.250244	-0.0534668	0.124244	-0.225232	-0.736445	-0.625685	4.45711	8.36965	-1.60362	-0.0354401	0.00261257	-0.025591	-0.739014	-0.716553	0.203857	0.980486	-0.0450415	-0.158966	-0.106524	3.4826	-1.27998	10.3324	-0.0779296	0.019542	-0.00981807	-0.0378418	0.121826	-1.06689	0.565893	-0.02063	-0.824199	-0.00596173	9.07359	-0.54261	-2.87658	-0.0667624	0.0406281	-0.0220093	-1.1499	0.0209961	0.11377	0.265731	-0.285897	-0.649807	-0.652227	7.38274	6.905	0.166853	-0.101692	0.0410661	-0.0243269	-0.999268	-0.409424	0.015625	0.276564	-0.325578	-0.566905	-0.704364	7.87965	6.29449	1.65529	-0.316197	-0.0673602	0.0147619	-1.06494	-0.305664	-0.072998	
20	0.128177	0.255024	-0.14776	-0.946943	-3.83158	3.84085	9.14376	0.0430475	-0.0594464	0.0623061	0.165771	-0.260742	-1.03076	0.147244	-0.0145978	-0.713614	-0.684734	2.53841	9.67434	-0.095513	0.0144767	-0.0176815	-0.0583742	-0.443359	-0.97998	-0.0646973	0.657778	-0.0776871	-0.736628	-0.136643	9.76727	0.70481	-0.102983	-0.217259	-0.0469654	0.0296114	-1.12915	-0.145264	-0.239746	0.539162	0.417883	-0.565435	0.463639	9.99691	-0.751809	0.457119	-0.0321371	-0.0119232	0.0196898	-1.12842	-0.240967	-0.00878906	0.136542	0.720316	0.1678	-0.659048	-9.88637	-0.268861	-0.774137	-0.144135	-0.0830556	-0.0630358	1.00073	0.179932	-0.22876	0.337849	0.6704	0.413328	-0.515347	-9.52419	0.611466	0.780587	0.0228347	-0.0372356	-0.144845	0.970703	0.254639	-0.0471191	0.12297	-0.225709	-0.735649	-0.626701	4.65397	8.44317	-1.85639	-0.0303769	-0.0258817	-0.0351911	-0.745605	-0.714355	0.199707	0.980615	-0.0451807	-0.158466	-0.106028	3.58821	-1.443	10.6561	0.00109921	0.0552586	0.0220335	-0.0358887	0.126221	-1.06226	0.567426	-0.0230843	-0.82302	-0.0115351	9.06448	-0.733428	-3.48617	-0.290603	0.0592997	-0.0653909	-1.14722	0.0141602	0.111572	0.265187	-0.285933	-0.649758	-0.652482	7.34212	6.80469	-0.0656163	0.023432	0.0118622	-0.00254771	-0.999512	-0.407227	0.0178223	0.277396	-0.324197	-0.575393	-0.697761	7.84727	6.42523	1.37786	0.509414	-0.0899958	-0.0568707	-1.05786	-0.312256	-0.065918	
21	0.128107	0.255233	-0.149197	-0.946671	-4.24445	4.27163	9.11388	0.072157	0.0182448	-0.0136443	0.167969	-0.260742	-1.03076	0.146482	-0.0145758	-0.713968	-0.684529	2.42518	9.57328	-0.0836865	-0.00184566	-0.0048044	-0.0245518	-0.443115	-0.984375	-0.0620117	0.65755	-0.0773047	-0.736891	-0.136546	9.89094	0.41277	-0.403754	0.0657398	-0.000820244	-0.00815352	-1.12695	-0.145508	-0.237305	0.538717	0.417617	-0.564994	0.464932	9.87294	-0.384388	0.329409	0.0240498	0.0262499	0.0338633	-1.12183	-0.240967	-0.00439453	0.139145	0.718141	0.170078	-0.660292	-9.72751	-0.127678	-1.0076	-0.133484	-0.088019	-0.020247	0.998291	0.184326	-0.235596	0.343764	0.664237	0.417566	-0.515998	-9.26443	-0.0569527	1.06408	-0.318933	-0.0763574	-0.108511	0.970459	0.26123	-0.0559082	0.120325	-0.225858	-0.733332	-0.629869	4.48469	8.50709	-1.60302	-0.225467	-0.0337922	-0.0897091	-0.740967	-0.7229	0.195557	0.980655	-0.0426919	-0.15837	-0.106827	3.74793	-1.18813	10.5168	0.000187708	0.0019379	-0.0576854	-0.0375977	0.117432	-1.06445	0.56812	-0.025539	-0.822438	-0.0135139	9.05393	-0.115866	-2.75823	-0.21079	0.0399224	0.0188055	-1.15405	0.0141602	0.109375	0.265309	-0.285475	-0.649713	-0.652678	7.14314	6.99224	0.124958	-0.0178761	0.0112694	-0.00761412	-0.999268	-0.409424	0.0109863	0.27758	-0.324217	-0.577071	-0.696291	7.81756	6.61558	1.4998	0.168219	-0.0621446	-0.00370419	-1.06006	-0.31665	-0.0615234	
22	0.128303	0.254035	-0.151168	-0.946653	-4.64039	4.76158	9.23916	0.0713285	-0.0901495	0.036778	0.166016	-0.269287	-1.03076	0.146732	-0.0149518	-0.713984	-0.684451	2.09049	9.57641	-0.291156	0.00509627	-0.00393938	-0.00323201	-0.440918	-0.986572	-0.0620117	0.657951	-0.076657	-0.736855	-0.135162	9.6192	1.07931	-0.609558	0.0382944	0.00318746	0.0226562	-1.13135	-0.147461	-0.239746	0.539363	0.416532	-0.565664	0.464341	9.92684	-0.97073	0.229823	-0.0434282	0.0270749	0.00754971	-1.12622	-0.240967	-0.00878906	0.139145	0.716871	0.169188	-0.661898	-9.66805	-0.39254	-0.840989	0.155381	-0.086074	-0.0262483	0.996338	0.182129	-0.237793	0.342816	0.662124	0.416322	-0.520331	-9.39931	-0.0449511	1.23393	0.262856	-0.0496443	-0.058669	0.96582	0.267578	-0.0625	0.118384	-0.226128	-0.731635	-0.632109	4.01309	8.2513	-1.57987	-0.237141	-0.0590848	-0.0868194	-0.73877	-0.720703	0.19751	0.980771	-0.0404846	-0.158158	-0.106936	3.55104	-1.35324	9.95566	0.152753	0.0433771	-0.0514681	-0.0310059	0.113281	-1.06689	0.569009	-0.028811	-0.821612	-0.0187636	8.53664	-0.470537	-3.25748	-0.162675	0.0172333	-0.0582706	-1.15186	0.0141602	0.10498	0.264977	-0.285309	-0.647898	-0.654686	6.82428	6.6494	0.122909	-0.0896324	0.0699351	-0.02225	-0.997314	-0.407227	0.0178223	0.277085	-0.325442	-0.57654	-0.696357	7.25354	5.88803	1.27357	-0.0200062	-0.0332193	0.0130023	-1.05591	-0.305664	-0.0593262	
23	0.128378	0.249518	-0.154394	-0.947324	-4.22194	4.83839	9.06604	0.100262	-0.216756	0.0458523	0.150879	-0.273926	-1.03296	0.146146	-0.0160606	-0.713857	-0.684683	2.25126	9.81567	-0.219371	-0.0394451	-0.0352616	0.00442176	-0.436523	-0.986572	-0.0620117	0.658533	-0.0761243	-0.736477	-0.134692	9.48159	1.15765	-0.75656	0.00215661	0.0308338	-0.0228583	-1.12915	-0.147461	-0.235107	0.540169	0.415815	-0.566111	0.463502	9.72828	-0.869899	-0.254809	-0.0808469	-0.00854858	-0.0186839	-1.12646	-0.236572	-0.0112305	0.134113	0.717634	0.163649	-0.663502	-9.69299	0.245493	-0.921315	0.276175	0.00675627	0.0499541	0.996582	0.177734	-0.244629	0.342129	0.662016	0.412396	-0.524034	-9.28551	0.30648	1.4709	0.108226	-0.0230645	0.0491678	0.976807	0.263428	-0.0625	0.115413	-0.225702	-0.727006	-0.638123	4.20911	8.58384	-1.54992	-0.237612	0.106688	-0.0500373	-0.734131	-0.729248	0.180908	0.980859	-0.0387301	-0.158058	-0.106925	3.81375	-1.12919	10.2806	0.00942467	0.0237393	-0.0325147	-0.0354004	0.111084	-1.07373	0.568962	-0.0288458	-0.821641	-0.0188632	8.79919	-1.64542	-3.66215	0.217189	-0.0127966	-0.00568757	-1.15405	0.0117188	0.10498	0.265541	-0.283523	-0.647651	-0.655477	6.67208	6.64001	-0.22118	0.0474257	0.0839079	-0.0230279	-0.999512	-0.405029	0.0109863	0.279203	-0.323494	-0.581541	-0.692248	7.44274	5.91807	0.654711	0.326332	0.0398631	-0.00361839	-1.06006	-0.31665	-0.0546875	
24	0.12787	0.243793	-0.156376	-0.948557	-3.71533	4.83921	8.82761	0.0238514	-0.246377	0.00922271	0.144287	-0.276123	-1.03076	0.14661	-0.0167317	-0.713096	-0.685361	2.37536	9.45871	-0.045463	-0.0397265	0.024429	0.00409517	-0.440918	-0.984375	-0.0644531	0.659016	-0.0767111	-0.735639	-0.136558	9.84311	0.364246	-0.4963	-0.0795759	0.039389	-0.011352	-1.12695	-0.147461	-0.244141	0.540287	0.415772	-0.566292	0.463182	9.92694	-0.985452	0.518749	-0.0235401	-0.00648616	-0.0104238	-1.12842	-0.243164	-0.0131836	0.134552	0.717649	0.163235	-0.663498	-9.72996	-0.0399704	-0.640371	-0.0457597	-0.00674951	-0.0298406	0.994385	0.177734	-0.240234	0.344362	0.66183	0.408985	-0.525478	-9.47419	0.965789	1.34312	0.00541677	-0.0165973	0.11423	0.968506	0.256836	-0.0600586	0.112037	-0.227492	-0.724107	-0.641376	4.31496	8.55669	-1.53098	-0.154712	-0.133343	-0.04595	-0.736328	-0.731445	0.178711	0.980821	-0.0393346	-0.158456	-0.106461	3.60043	-1.01357	10.6287	-0.0398384	-0.0217498	0.00588316	-0.0351562	0.106689	-1.06665	0.568913	-0.025589	-0.821879	-0.014092	9.32623	-0.905495	-3.48369	0.144564	-0.000908826	-0.0182564	-1.14941	0.0117188	0.111572	0.266431	-0.284117	-0.647068	-0.655435	6.77173	6.69562	-0.18575	-0.0433216	0.00653971	0.0634724	-0.999512	-0.407227	0.00415039	0.278594	-0.324288	-0.577671	-0.695355	7.54671	6.55893	0.793421	-0.4035	0.0627732	0.026843	-1.0647	-0.3125	-0.0615234	
25	0.128024	0.240839	-0.156393	-0.949288	-3.11081	4.50826	8.91193	-0.0162617	-0.0520745	0.00231662	0.135254	-0.269775	-1.0354	0.14749	-0.0163763	-0.713315	-0.684953	2.32509	9.63883	-0.0602578	0.00935655	0.0511545	0.00437589	-0.443115	-0.984375	-0.0644531	0.660293	-0.075618	-0.735048	-0.134165	9.68351	0.921634	-0.541694	0.17198	0.0458254	0.0390724	-1.12695	-0.149658	-0.244141	0.540678	0.41591	-0.565524	0.463539	9.84812	-0.84381	0.676919	0.0205572	0.0312668	-0.0155078	-1.12158	-0.24292	-0.0131836	0.137456	0.717743	0.164212	-0.662559	-9.76184	-0.283192	-0.953324	-0.133374	0.0213027	0.0493151	1.00293	0.179932	-0.244629	0.344362	0.66183	0.408985	-0.525478	-9.47419	0.965789	1.34312	0.00541677	-0.0165973	0.11423	0.968506	0.256836	-0.0600586	0.110318	-0.228351	-0.723218	-0.642372	4.35839	8.4274	-1.42554	-0.124933	-0.105984	-0.0452264	-0.729492	-0.73584	0.178711	0.980684	-0.0408126	-0.15888	-0.106536	3.73382	-1.14944	10.3731	-0.104794	-0.0299473	-0.0117422	-0.0373535	0.108887	-1.06445	0.568801	-0.0242377	-0.822045	-0.0109104	9.46537	-0.271702	-2.79659	0.273099	-0.018387	0.0337098	-1.14966	0.0163574	0.104736	0.26646	-0.284712	-0.647031	-0.655201	6.94927	6.71102	-0.104701	0.00266	-0.0240122	0.0398665	-1.00171	-0.407227	0.0065918	0.278383	-0.324675	-0.575581	-0.69699	7.51442	5.84629	1.40959	0.130222	0.00708808	-0.0104534	-1.06445	-0.314697	-0.0637207	
26	0.12934	0.241328	-0.155919	-0.949064	-3.42117	4.58451	8.73559	-0.0312361	0.0495514	0.0463851	0.137451	-0.269775	-1.03735	0.148178	-0.0162682	-0.713415	-0.684702	2.24809	9.35463	0.00412011	0.00944701	0.0381131	-0.0100386	-0.44751	-0.984619	-0.0690918	0.660771	-0.0753281	-0.73475	-0.133607	9.40072	1.18854	-0.344858	-0.0428267	0.0214773	0.00738761	-1.12476	-0.149658	-0.244141	0.541323	0.415753	-0.565502	0.462954	9.74795	-0.56513	-0.0267864	-0.00154542	0.0167199	-0.0192516	-1.12183	-0.240723	-0.0131836	0.13551	0.717739	0.161762	-0.663567	-9.37051	-0.210068	-0.752922	0.24889	-0.0104322	0.00696217	0.996826	0.166748	-0.242432	0.347761	0.659193	0.407857	-0.527427	-9.15973	1.17698	1.31604	-0.0723732	-0.0145877	-0.0310437	0.972656	0.259033	-0.0708008	0.107502	-0.230413	-0.721406	-0.644148	4.203	8.55496	-1.38768	-0.0753923	-0.0224205	-0.0278666	-0.732178	-0.727051	0.174316	0.980707	-0.042202	-0.158793	-0.105912	3.66613	-1.16679	10.3995	0.00664101	0.030439	0.0118075	-0.0375977	0.115479	-1.06909	0.569053	-0.0253395	-0.821823	-0.0119829	9.16097	-1.11692	-3.46393	0.02264	0.0175184	-0.0193032	-1.14941	0.0141602	0.109375	0.266502	-0.285259	-0.648979	-0.653016	7.31687	7.117	0.319416	0.0995812	-0.0369545	0.00817291	-1.00195	-0.402832	0.0109863	0.277116	-0.326212	-0.575479	-0.696862	7.59242	6.10392	1.30805	-0.154058	-0.0860045	0.00538097	-1.06226	-0.314453	-0.059082	
27	0.12934	0.241328	-0.155919	-0.949064	-3.42117	4.58451	8.73559	-0.0312361	0.0495514	0.0463851	0.137451	-0.269775	-1.03735	0.148335	-0.0157884	-0.713728	-0.684353	2.29545	9.54755	-0.0807831	0.0337194	0.0452812	-0.0334846	-0.438965	-0.982178	-0.0668945	0.660823	-0.0758145	-0.734584	-0.133987	9.4614	0.902798	-0.413038	-0.0442448	0.00709146	0.00847494	-1.13354	-0.145264	-0.241943	0.541817	0.4158	-0.565591	0.462224	9.56525	-0.708855	-0.316733	-0.0236196	-0.00135604	-0.0246171	-1.12622	-0.243164	-0.0131836	0.135933	0.71759	0.161693	-0.663658	-9.50257	0.504639	-0.534219	-0.0204139	-0.0117322	0.0058729	1.00293	0.177734	-0.237793	0.349673	0.657198	0.409088	-0.527699	-9.24558	0.502511	1.26977	-0.181899	-0.019045	-0.0648023	0.972656	0.259033	-0.0666504	0.10633	-0.231009	-0.720897	-0.644698	4.02353	8.70016	-1.31603	-0.0671476	-0.0724071	-0.0356666	-0.729492	-0.73584	0.176758	0.980734	-0.0421386	-0.158985	-0.105396	3.72316	-0.990301	10.2884	0.0230681	0.00168837	0.017329	-0.0288086	0.111084	-1.06909	0.56952	-0.0237016	-0.821584	-0.00919303	9.21658	-0.526048	-3.08432	0.0710815	0.00620864	-0.0105086	-1.14966	0.0163574	0.104736	0.266459	-0.285267	-0.648869	-0.653139	6.90185	6.60517	0.0112135	-0.0210576	0.00241679	0.0176848	-0.999512	-0.407227	0.015625	0.275426	-0.328026	-0.573707	-0.698141	7.67122	6.08828	1.22167	-0.239544	-0.100224	0.00352679	-1.06006	-0.312256	-0.0637207	
28	0.132752	0.245713	-0.153493	-0.947862	-3.63499	4.39509	8.96323	-0.0586089	0.163035	0.0292656	0.145996	-0.265137	-1.03735	0.148655	-0.0145758	-0.714055	-0.68397	2.57674	9.37621	0.0687784	0.00905805	0.0638713	-0.0378776	-0.438965	-0.984375	-0.0644531	0.660747	-0.074506	-0.7349	-0.133359	9.53449	1.05415	-0.391467	0.0484339	-0.0173559	-0.0292843	-1.12695	-0.151855	-0.239502	0.541341	0.416419	-0.565542	0.462285	9.72818	-0.871831	0.0301301	0.00427086	-0.0182758	0.0074217	-1.12598	-0.247559	-0.0109863	0.140309	0.716059	0.165464	-0.663472	-9.55597	-0.474035	-0.817387	-0.144553	-0.0388696	-0.0348934	0.991943	0.182129	-0.242432	0.351115	0.654852	0.408726	-0.529934	-9.29813	0.429043	1.48196	0.052185	-0.0400053	-0.018452	0.974854	0.259033	-0.0708008	0.103388	-0.232791	-0.720527	-0.64495	4.37482	8.36228	-0.942184	0.00768538	-0.0756076	-0.0393632	-0.736084	-0.73584	0.185303	0.980706	-0.0427632	-0.159279	-0.104959	3.5659	-1.07647	10.3589	-0.0186875	-0.00623126	0.00515855	-0.0375977	0.113281	-1.06665	0.569919	-0.0245636	-0.821282	-0.00918794	8.9	-0.510996	-3.01919	-0.0462933	0.0085984	-0.000143111	-1.1543	0.0185547	0.106934	0.266211	-0.286158	-0.649965	-0.65176	7.00533	6.7992	-0.0948305	0.0787596	-0.0360211	0.00366596	-1.00391	-0.407227	0.015625	0.273545	-0.329764	-0.572567	-0.698996	7.71503	5.85605	1.29993	0.00686424	-0.0446945	-0.0174643	-1.06006	-0.312256	-0.0500488	
29	0.135216	0.248645	-0.151708	-0.947036	-3.85989	4.32585	9.09308	-0.0658375	0.140737	0.0577437	0.152832	-0.269531	-1.03076	0.149457	-0.0126439	-0.713981	-0.683911	2.25161	9.68952	-0.0679502	-0.00800953	0.0731655	-0.0612214	-0.440918	-0.984375	-0.0690918	0.660011	-0.0744274	-0.735423	-0.134161	9.70801	0.695677	-0.324251	0.0155371	-0.0319725	-0.0301333	-1.1311	-0.151855	-0.239502	0.540918	0.416617	-0.565721	0.462382	9.76052	-0.880215	0.316507	0.0239965	-0.0257889	0.0165831	-1.12598	-0.247559	-0.0109863	0.140309	0.716059	0.165464	-0.663472	-9.55597	-0.474035	-0.817387	-0.144553	-0.0388696	-0.0348934	0.991943	0.182129	-0.242432	0.350922	0.654048	0.407894	-0.531692	-9.32622	0.38251	1.67179	0.0511958	-0.0158337	-0.0247975	0.968262	0.26123	-0.072998	0.100867	-0.233686	-0.720926	-0.644579	4.30726	8.84751	-1.40852	-0.000205046	-0.114406	-0.0531536	-0.729492	-0.73584	0.185303	0.980718	-0.04419	-0.159107	-0.104522	3.70275	-1.11642	10.4083	-0.0661766	0.0158943	-0.0131289	-0.0400391	0.119629	-1.06445	0.570711	-0.0269717	-0.820642	-0.0103789	9.00988	-0.46809	-3.30703	-0.0881028	0.0366947	0.0281203	-1.1499	0.0209961	0.100342	0.26551	-0.286849	-0.650919	-0.65079	7.40467	7.16549	0.0760942	0.013494	-0.0517816	0.00483094	-0.997314	-0.402832	0.0178223	0.274358	-0.328748	-0.575646	-0.696623	7.69484	6.38048	1.44324	0.138725	-0.0243314	-0.0111419	-1.06689	-0.314697	-0.0568848	
30	0.137996	0.252305	-0.151005	-0.945778	-4.16385	4.30303	9.12497	-0.0103867	0.187218	0.0743688	0.164062	-0.271484	-1.03076	0.148216	-0.0118173	-0.71364	-0.684552	2.21344	9.79595	-0.0777614	-0.0428892	-0.0110113	-0.0829356	-0.436523	-0.986572	-0.0715332	0.659761	-0.072952	-0.736253	-0.131629	9.76181	1.23381	-0.557835	0.102858	-0.038349	0.0370419	-1.12915	-0.151855	-0.237305	0.540218	0.41623	-0.564862	0.464594	9.90834	-0.282496	0.147592	-0.0145006	0.0378877	0.0200037	-1.12378	-0.24292	-0.0131836	0.138354	0.716306	0.164923	-0.663751	-9.94489	0.0488872	-0.65087	-0.224765	0.035102	-0.0476182	0.996338	0.182129	-0.240234	0.352441	0.652392	0.408561	-0.53221	-9.54377	0.280048	1.80847	-0.0588071	0.052642	-0.0333663	0.970703	0.254639	-0.0708008	0.0973397	-0.234372	-0.719201	-0.646796	4.11722	8.57426	-1.39748	-0.149579	-0.12621	-0.0635366	-0.724854	-0.744385	0.185547	0.980691	-0.043315	-0.159328	-0.104798	3.59197	-1.40631	10.3943	0.0523221	0.011546	-0.0412276	-0.0400391	0.119629	-1.06445	0.570882	-0.0298428	-0.820403	-0.0119276	9.20613	-0.45704	-3.05939	-0.114875	0.0120204	0.0482459	-1.15698	0.0253906	0.104736	0.264903	-0.287326	-0.651301	-0.650444	7.0945	6.65624	-0.0051437	0.0265942	-0.0186899	-0.00657945	-0.999512	-0.402832	0.0178223	0.275268	-0.328417	-0.577898	-0.694553	7.64443	5.90576	1.22691	0.214968	-0.00997307	0.00279486	-1.06006	-0.314453	-0.0454102	
31	0.139379	0.254848	-0.151278	-0.94485	-4.32698	4.376	9.28095	0.0306278	0.0706342	0.00422082	0.167969	-0.262939	-1.02856	0.1474	-0.0107766	-0.71301	-0.685401	2.4616	9.49088	-0.136711	-0.0362142	0.0471433	-0.0719841	-0.438721	-0.990967	-0.064209	0.659285	-0.0754803	-0.736223	-0.132746	9.71511	0.324123	-0.37087	-0.12906	-0.023273	0.0353498	-1.12915	-0.147461	-0.237305	0.540769	0.415286	-0.56485	0.464813	9.86429	-0.773432	0.400934	0.0118431	0.0415049	0.0200355	-1.13306	-0.238525	-0.0219727	0.138773	0.717647	0.166392	-0.661845	-9.63913	-0.184724	-0.751084	0.0618994	0.117235	-0.0548937	0.996094	0.184326	-0.242432	0.353332	0.652334	0.408484	-0.53175	-9.43462	0.456365	1.5829	0.0316224	0.105186	0.048844	0.974854	0.259033	-0.0622559	0.0922895	-0.238428	-0.718819	-0.646478	3.85882	8.67102	-1.33	-0.0393095	-0.261358	-0.0182477	-0.724854	-0.744385	0.189697	0.980806	-0.0428235	-0.159237	-0.104066	3.66954	-1.23692	10.4067	0.00732687	0.0260089	0.00667742	-0.03125	0.119873	-1.06934	0.570966	-0.0302734	-0.820331	-0.0117603	9.06066	-0.464528	-3.09488	0.00816922	0.0113311	-0.0110232	-1.1521	0.0187988	0.100342	0.264431	-0.287285	-0.652085	-0.649869	6.80141	6.4704	-0.186728	0.0182759	-0.0130696	-0.0100862	-0.999512	-0.402832	0.0224609	0.276321	-0.327127	-0.582461	-0.690922	7.54207	6.23507	0.990031	0.174957	-0.0353684	-0.0257636	-1.0603	-0.305664	-0.0478516	
32	0.138423	0.254405	-0.15145	-0.945082	-4.35272	4.70173	9.17853	0.00695282	-0.0600284	-0.0573234	0.166016	-0.26709	-1.03076	0.148332	-0.0080866	-0.712911	-0.68534	2.60942	9.54268	-0.141175	0.0188758	0.154889	-0.0761945	-0.432129	-0.990967	-0.0712891	0.659735	-0.0733201	-0.736456	-0.130408	9.63915	0.594286	-0.571424	0.209986	0.0252813	-0.0020786	-1.12695	-0.154053	-0.237305	0.540769	0.415128	-0.564364	0.465544	9.79766	-0.805276	0.402148	0.0239396	0.0280232	0.0112375	-1.12817	-0.245361	-0.0131836	0.135549	0.719571	0.166142	-0.660485	-9.69687	-0.106105	-0.616244	0.0387762	0.129714	-0.0337516	1.00073	0.177734	-0.237793	0.354737	0.652347	0.408209	-0.531009	-9.36491	0.779377	1.51274	-0.0963343	0.125287	-0.0230273	0.966309	0.256836	-0.0578613	0.0871622	-0.241582	-0.720728	-0.643888	4.43198	8.40016	-1.21796	0.138956	-0.164276	-0.0763037	-0.718506	-0.742432	0.200195	0.980675	-0.0443519	-0.1596	-0.104099	3.61563	-1.17142	10.3259	-0.0619419	-0.0183379	-0.0133215	-0.0378418	0.119873	-1.06934	0.571026	-0.0319489	-0.820228	-0.0116371	9.02472	-0.639165	-3.07939	0.00239523	-0.0106148	0.0380537	-1.15234	0.027832	0.0957031	0.264697	-0.287476	-0.651954	-0.649807	7.008	6.79615	-0.284029	-0.0072931	-0.00254414	0.0232953	-0.999512	-0.407227	0.0270996	0.275447	-0.328104	-0.5813	-0.691785	7.67872	6.11563	0.699061	-0.117123	-0.00917437	0.00836973	-1.06226	-0.314453	-0.0410156	
33	0.137625	0.252476	-0.15028	-0.945902	-3.90873	4.92534	9.06339	-0.0802159	-0.0730493	-0.0239424	0.163574	-0.260742	-1.03296	0.149911	-0.00474321	-0.712575	-0.685377	2.16931	9.61948	0.128122	0.00199628	0.151274	-0.0648418	-0.429932	-0.98877	-0.0737305	0.659816	-0.0713308	-0.736921	-0.128462	9.50643	1.41675	-0.472531	0.0428688	-0.0181866	-0.0175195	-1.12915	-0.149658	-0.237305	0.54064	0.414992	-0.564466	0.465691	9.72263	-0.863597	-0.108294	0.0252004	-0.0030381	0.0122306	-1.13062	-0.243164	-0.0153809	0.139984	0.720255	0.172191	-0.657257	-9.5868	0.302623	-1.22759	-0.339665	0.113037	-0.069954	0.993896	0.186523	-0.226562	0.356783	0.651737	0.410372	-0.528715	-9.30085	0.720705	1.05928	-0.196466	0.167463	-0.0140123	0.972656	0.259033	-0.0385742	0.0847294	-0.243256	-0.723281	-0.640713	3.92869	8.38136	-1.59037	0.165932	-0.15532	-0.0367453	-0.716309	-0.740234	0.215088	0.980594	-0.0462884	-0.159819	-0.103683	3.66433	-1.46798	10.4202	-0.048268	0.00784758	0.0130847	-0.0378418	0.121826	-1.06226	0.570677	-0.0326428	-0.820452	-0.0110298	9.2784	-0.544234	-3.03945	0.0103912	-0.0169734	0.013059	-1.15454	0.0253906	0.104736	0.263923	-0.288119	-0.653063	-0.648722	7.03105	6.58406	-0.0586142	0.0929076	-0.0495083	-0.0110482	-0.999512	-0.405029	0.0268555	0.275262	-0.328426	-0.580949	-0.692001	7.49452	5.92576	1.18759	0.017362	-0.00331708	-0.00345342	-1.06006	-0.312256	-0.0388184	
34	0.138433	0.251411	-0.149043	-0.946264	-3.86829	4.68236	8.84762	-0.122227	-0.0646513	0.0306256	0.161377	-0.260742	-1.03296	0.150905	-0.00297714	-0.712465	-0.685283	2.17922	9.55442	0.0381032	0.0117425	0.168887	-0.0636788	-0.42334	-0.993164	-0.0805664	0.659233	-0.0717532	-0.737304	-0.129025	9.48131	0.942833	-0.456553	-0.0501081	-0.0576675	-0.0144122	-1.12915	-0.151855	-0.239502	0.540107	0.415434	-0.564132	0.466319	9.74018	-0.768593	0.197056	0.0812148	-0.000170142	0.015802	-1.12842	-0.243164	-0.0131836	0.141546	0.720609	0.175138	-0.655755	-9.56385	-0.294423	-1.05896	-0.25782	0.12579	-0.0789102	0.996094	0.186279	-0.221924	0.357792	0.651894	0.410535	-0.527712	-9.21886	0.479384	0.875088	-0.123646	0.147677	0.0199114	0.977051	0.256836	-0.045166	0.0829782	-0.244943	-0.725662	-0.637599	3.9571	8.71429	-1.58117	0.27399	-0.252637	-0.0315858	-0.714355	-0.738037	0.22583	0.980595	-0.0472898	-0.159701	-0.103408	3.69124	-1.11821	10.3927	-0.0663981	0.0172627	0.0125617	-0.0356445	0.121826	-1.06934	0.57053	-0.0331719	-0.820533	-0.01103	9.09566	-0.620734	-3.18895	-0.0220799	-0.012697	0.012735	-1.14795	0.0302734	0.102539	0.263883	-0.288012	-0.653703	-0.648142	6.93358	6.76026	0.0452965	0.0693007	-0.0130461	-0.00844883	-1.00171	-0.407227	0.0270996	0.275326	-0.328216	-0.58212	-0.69109	7.48564	5.9297	1.20466	0.115923	-0.0287267	-0.0208205	-1.05786	-0.314453	-0.0385742	
35	0.141599	0.250963	-0.146527	-0.946307	-3.5313	4.06131	8.72009	-0.11584	0.0581403	0.101973	0.160889	-0.25415	-1.03101	0.152329	-0.000693089	-0.7119	-0.685561	2.05579	9.50279	-0.347235	-0.0201144	0.0784948	-0.0357407	-0.42334	-0.995361	-0.078125	0.658809	-0.0717695	-0.737817	-0.128241	9.77528	0.787895	-0.49895	0.0809665	-0.0164935	0.0153992	-1.12915	-0.151855	-0.234863	0.539304	0.415786	-0.563831	0.467298	9.84746	-0.522313	0.150245	0.0353563	0.00516222	0.0263723	-1.12866	-0.234375	-0.0112305	0.138124	0.72244	0.174948	-0.654519	-9.74771	-0.567231	-1.26723	0.246209	0.111639	-0.0775308	1.00049	0.186279	-0.217285	0.356092	0.652745	0.409605	-0.528532	-9.3384	0.939809	0.815362	0.0451857	0.13089	-0.0698697	0.970703	0.256836	-0.036377	0.0798082	-0.247964	-0.728674	-0.633386	3.92613	8.53956	-1.84812	0.170145	-0.172635	-0.0175877	-0.705566	-0.738037	0.234375	0.980584	-0.0486281	-0.159386	-0.103371	3.72779	-1.30656	10.3268	-0.00410382	0.0265724	-0.0140904	-0.0380859	0.124023	-1.0647	0.569917	-0.0352297	-0.820859	-0.0120286	9.3233	-0.513485	-3.22293	-0.133681	-0.0143578	0.0239685	-1.15479	0.0300293	0.106934	0.263615	-0.28831	-0.653448	-0.648375	7.08825	6.82338	-0.138958	-0.0166934	-0.0042478	0.00219317	-1.00391	-0.409424	0.0246582	0.274455	-0.328824	-0.581649	-0.691544	7.79466	6.23847	1.02026	-0.100835	-0.00416078	-0.008174	-1.06006	-0.314453	-0.0432129	
36	0.144745	0.253529	-0.146661	-0.945126	-3.82591	4.10178	8.9373	0.034369	0.14	0.0816925	0.160889	-0.25415	-1.03101	0.152275	0.000557703	-0.711681	-0.6858	2.22906	9.62084	-0.175009	-0.0201025	0.0537581	-0.062662	-0.42749	-0.995361	-0.0830078	0.658923	-0.0707648	-0.737949	-0.127455	9.60767	0.713183	-0.506209	0.0197991	0.00681271	-0.00523671	-1.13135	-0.149658	-0.235107	0.539264	0.415312	-0.5638	0.467802	9.79907	-0.870585	0.507447	-0.00277444	0.0256913	0.0222218	-1.12866	-0.23877	-0.0131836	0.140385	0.722853	0.177765	-0.652821	-9.60207	0.165373	-0.994921	-0.341578	0.051048	-0.00563691	1.00439	0.197266	-0.210449	0.357881	0.651168	0.411771	-0.527585	-9.18676	-0.0735342	0.563291	-0.11202	0.0712494	-0.0435656	0.972656	0.263428	-0.0344238	0.0787331	-0.248902	-0.730672	-0.630847	3.93499	8.61546	-1.95042	0.114555	-0.0749963	-0.031329	-0.709961	-0.738037	0.238525	0.98062	-0.0484656	-0.159169	-0.103446	3.76427	-1.30932	10.4168	0.0149466	0.030076	-0.0101092	-0.0336914	0.124023	-1.0647	0.569252	-0.0359195	-0.821305	-0.0109756	9.11977	-0.404506	-3.09346	-0.00284671	-0.0312889	0.0220194	-1.14795	0.0324707	0.109131	0.262848	-0.288718	-0.65406	-0.647888	6.9672	6.67622	-0.149231	0.0205503	-0.0448352	-0.010948	-1.00171	-0.405029	0.0292969	0.274386	-0.328471	-0.582816	-0.690756	7.57849	6.15829	1.04152	0.0975701	-0.0143676	-0.0209307	-1.06445	-0.316895	-0.0410156	
37	0.146392	0.256246	-0.147305	-0.944038	-4.20367	4.484	8.97951	0.02194	0.10121	0.0327287	0.172119	-0.256348	-1.03076	0.152512	0.00167622	-0.710985	-0.686468	2.10099	9.38573	-0.189193	-0.0340784	0.0543545	-0.0428832	-0.416992	-0.990967	-0.0854492	0.658566	-0.0704282	-0.738477	-0.126421	9.50962	0.762704	-0.678035	0.0434514	-0.0266859	0.0133162	-1.12915	-0.151855	-0.232666	0.538892	0.415086	-0.563612	0.468658	9.59674	-1.02057	-0.186094	0.0612984	0.00999099	0.0301237	-1.13086	-0.236572	-0.0178223	0.142166	0.722949	0.179436	-0.651871	-9.66085	-1.0235	-1.22353	0.0809175	0.0407327	-0.0201252	1.00244	0.195068	-0.208252	0.358906	0.651001	0.409156	-0.529127	-9.31146	0.141437	0.899065	0.0797861	-0.00781345	0.0613115	0.974854	0.259033	-0.0322266	0.0782279	-0.249202	-0.732034	-0.62921	3.8668	8.53885	-1.89731	0.123111	-0.00517479	-0.0306661	-0.709961	-0.73584	0.244873	0.980663	-0.0487163	-0.159271	-0.102762	3.7833	-1.63938	10.3222	0.0319653	-0.00183333	0.016426	-0.0314941	0.124023	-1.0647	0.569154	-0.0365219	-0.821353	-0.0104271	9.39399	-0.796397	-3.1742	0.0368152	-0.0100238	0.001341	-1.14795	0.034668	0.104492	0.26233	-0.289255	-0.654734	-0.647177	7.11213	6.79094	-0.098102	0.0523698	-0.0202734	0.00642344	-1.00415	-0.402832	0.0361328	0.274077	-0.32866	-0.58359	-0.690136	7.71243	6.06259	1.14607	0.0531538	-0.0241791	-0.0126685	-1.06226	-0.31665	-0.0410156	
38	0.147519	0.258031	-0.14739	-0.943364	-4.19416	4.28906	9.02176	0.0216485	0.0773888	0.0144227	0.174316	-0.256104	-1.03516	0.152076	0.00243279	-0.712195	-0.685306	2.19839	9.74017	-0.128107	0.076953	0.00717625	-0.0466038	-0.418945	-0.995361	-0.078125	0.657512	-0.069954	-0.73956	-0.125839	9.70928	0.896778	-0.876481	0.0171677	-0.0536684	-0.0107363	-1.1333	-0.154053	-0.228027	0.538503	0.414872	-0.564046	0.468772	9.90286	-0.940639	0.629218	-0.0422513	-0.00505926	0.0117042	-1.13086	-0.23877	-0.0153809	0.138227	0.725218	0.173709	-0.651749	-9.77395	0.110323	-1.11875	0.214115	0.0582861	0.0823389	1.00684	0.190674	-0.208252	0.360387	0.651159	0.406492	-0.529978	-9.4475	0.682701	0.904014	0.000917994	0.03021	0.0701436	0.977295	0.254639	-0.0341797	0.0776098	-0.249425	-0.733812	-0.627123	4.03424	8.56068	-1.93225	0.0812261	-0.0391464	-0.0289207	-0.705811	-0.73584	0.24707	0.980762	-0.0497903	-0.158978	-0.10175	3.64701	-1.57671	10.2152	-0.0221148	0.0232183	0.0253501	-0.0317383	0.128418	-1.0625	0.568841	-0.036436	-0.821558	-0.0116065	8.6626	-0.754494	-3.30681	-0.0252171	-0.0284102	-0.0676234	-1.15015	0.027832	0.109131	0.26205	-0.289107	-0.65603	-0.646043	7.17151	6.98121	-0.273034	0.0683034	-0.0103423	-0.0265185	-0.999512	-0.402832	0.0361328	0.275129	-0.327402	-0.586602	-0.687758	7.67326	6.20496	0.972612	0.167215	-0.00503551	-0.0177796	-1.05762	-0.318848	-0.0339355	
39	0.14771	0.259675	-0.148668	-0.942681	-4.2515	4.5378	9.05466	0.0758692	0.0627712	-0.00285139	0.177002	-0.264893	-1.03711	0.151628	0.00300757	-0.713114	-0.684447	2.1157	9.68812	-0.195178	0.0368313	0.00926732	-0.0352655	-0.418945	-0.993164	-0.0759277	0.656444	-0.0719627	-0.74019	-0.126574	9.85033	0.374895	-0.719395	-0.0134176	-0.0806439	0.0283139	-1.1333	-0.149658	-0.232666	0.53835	0.414303	-0.564592	0.468794	10.0552	-0.958485	0.695955	-0.00552892	0.00932892	0.0349437	-1.12891	-0.22998	-0.0178223	0.143429	0.725229	0.175223	-0.650206	-9.77519	-0.0801462	-1.01553	-0.199089	0.020659	0.0940239	1.00513	0.179688	-0.208252	0.364141	0.649668	0.40645	-0.529274	-9.2079	0.296798	0.879989	-0.0660018	0.0154704	0.0461229	0.970947	0.250488	-0.0341797	0.0776106	-0.248365	-0.734253	-0.627028	3.75925	8.6307	-1.78465	-0.00545118	0.0540768	-0.0523743	-0.707764	-0.740234	0.255615	0.980933	-0.0498081	-0.158884	-0.10023	3.72941	-1.09621	10.5217	-0.00729795	0.014743	0.0251647	-0.0380859	0.126221	-1.06689	0.569262	-0.0368844	-0.821223	-0.0131595	9.27754	-0.817008	-3.32082	-0.064606	0.0451431	-0.0367966	-1.15479	0.0300293	0.104736	0.262094	-0.28903	-0.656789	-0.645288	6.92678	6.87678	-0.426113	0.0250532	-0.00150019	0.0120242	-0.997314	-0.405029	0.0405273	0.275602	-0.326997	-0.588728	-0.685941	7.61046	6.33424	0.88818	0.101209	-0.0183911	-0.00603089	-1.05981	-0.318848	-0.0339355	
40	0.147439	0.260778	-0.149976	-0.942212	-4.21549	4.79738	9.02063	0.0529371	0.0298404	-0.0183875	0.177002	-0.264893	-1.02856	0.151632	0.00313594	-0.713736	-0.683797	2.25197	9.80995	-0.198812	0.0133878	0.0269264	-0.0200735	-0.418945	-0.993164	-0.0805664	0.656492	-0.0725671	-0.740248	-0.125639	9.69051	0.682908	-0.55133	-0.0185216	0.0188083	0.0662219	-1.13354	-0.145264	-0.230469	0.53837	0.413811	-0.563912	0.470024	9.75799	-0.575027	0.0657679	0.0575692	0.0450102	0.0145336	-1.1333	-0.22998	-0.015625	0.145093	0.725979	0.172963	-0.649604	-10.0868	-0.032985	-1.27299	0.0805853	0.0103768	0.0919491	1.00513	0.17749	-0.212646	0.369465	0.648514	0.404839	-0.528233	-9.63575	0.72274	0.561235	-0.13898	-0.0418128	0.164933	0.973389	0.246094	-0.0339355	0.0768542	-0.248	-0.733442	-0.628214	3.86981	8.6519	-1.76978	-0.0562448	-0.0432319	-0.0356821	-0.705811	-0.733643	0.253418	0.980863	-0.0504346	-0.159532	-0.0995677	3.57725	-1.34269	10.2626	-0.0197021	-0.0137582	0.00698183	-0.0402832	0.126221	-1.0647	0.569144	-0.0349663	-0.821415	-0.0113973	9.06405	-0.333434	-2.9284	0.0747855	-0.0137275	-0.0283526	-1.15479	0.0300293	0.104736	0.26215	-0.288685	-0.657292	-0.644907	6.95434	6.64893	-0.377535	0.0311685	0.0137105	-0.0141192	-0.997314	-0.402832	0.0383301	0.276078	-0.326782	-0.589626	-0.685081	7.53287	6.30451	0.759233	0.0491775	0.0115174	0.00381791	-1.05981	-0.318848	-0.0317383	
41	0.147511	0.261282	-0.15031	-0.942008	-4.32394	4.81517	8.93961	0.0137439	0.00702721	-0.00436956	0.181396	-0.26709	-1.03076	0.151983	0.00313908	-0.713767	-0.683687	2.15582	9.62272	-0.217573	-0.00112396	0.0341708	0.00175205	-0.416748	-0.995361	-0.0783691	0.65735	-0.0717038	-0.739729	-0.124701	9.63413	0.870431	-0.404241	0.098477	0.0431462	-0.0233442	-1.12915	-0.145508	-0.226074	0.538767	0.413364	-0.564087	0.469752	9.78057	-0.554101	0.193295	-0.0598189	0.0123519	0.00224475	-1.12891	-0.22998	-0.0090332	0.14442	0.726962	0.167415	-0.650109	-9.20803	0.135057	-1.25286	0.233446	-0.0260665	0.149908	1.00562	0.168701	-0.210449	0.372262	0.647974	0.400952	-0.529894	-8.99913	1.00975	0.68824	0.0959288	-0.0829102	0.0900271	0.977783	0.239502	-0.0402832	0.0767697	-0.246888	-0.732305	-0.629985	3.65227	8.36095	-1.65136	-0.038443	0.106005	-0.050651	-0.70752	-0.746826	0.247314	0.980944	-0.0501557	-0.15908	-0.0996315	3.55213	-1.47476	10.3458	0.0460746	0.0509344	-0.0428391	-0.0405273	0.132812	-1.06006	0.56945	-0.0363369	-0.821127	-0.0125279	9.02469	-0.84193	-3.15658	-0.0115047	-0.00441061	-0.0108519	-1.15259	0.034668	0.109131	0.261814	-0.288761	-0.657184	-0.64512	7.06135	6.67473	-0.411446	-0.011041	0.0108038	-0.000506394	-1.00171	-0.407227	0.0383301	0.275809	-0.327145	-0.58858	-0.685915	7.62437	5.90765	0.866279	-0.0339599	0.0131008	-0.00345487	-1.06226	-0.31665	-0.0317383	
42	0.148359	0.259892	-0.150251	-0.942269	-3.98361	4.58834	8.81883	-0.0327481	-0.0650786	0.0314218	0.179199	-0.264893	-1.03076	0.152934	0.00193798	-0.714244	-0.68298	2.18787	9.76084	-0.212109	0.0274739	0.00657965	0.0171197	-0.421143	-0.993164	-0.0783691	0.657983	-0.0711464	-0.739352	-0.123913	9.55724	0.85884	-0.765838	0.0115091	0.0342334	0.0110153	-1.1355	-0.149658	-0.235107	0.538909	0.413432	-0.563783	0.469894	9.74614	-0.924004	-0.0980492	0.0483176	0.013126	-0.0136044	-1.12891	-0.229736	-0.0200195	0.148817	0.725856	0.16582	-0.650762	-9.85497	0.338223	-1.11546	-0.140886	-0.0891803	0.12375	1.00806	0.164307	-0.208252	0.376827	0.645806	0.39816	-0.531418	-9.50221	1.36547	0.825163	-0.105126	-0.148426	0.109152	0.982422	0.230957	-0.0441895	0.0779939	-0.245334	-0.732739	-0.629938	3.81613	8.83001	-2.43784	0.0671982	0.090699	-0.02651	-0.701172	-0.744629	0.247314	0.980899	-0.0510898	-0.158855	-0.0999615	3.64955	-1.44074	10.1035	-0.0468865	0.0209921	-0.043091	-0.0361328	0.132812	-1.0647	0.569438	-0.0360461	-0.821155	-0.0120264	8.78844	-0.59151	-3.25867	0.0170706	0.00691044	-0.0183933	-1.14795	0.0324707	0.109131	0.26188	-0.288992	-0.656807	-0.645374	7.00009	6.91378	-0.297753	-0.034846	0.00657313	0.00707356	-0.999512	-0.405029	0.0336914	0.275929	-0.327029	-0.588289	-0.686171	7.46735	6.24942	0.894289	-0.0359677	0.021213	-0.00172859	-1.06226	-0.314453	-0.0341797	
43	0.148725	0.259512	-0.150323	-0.942304	-3.75876	4.36451	8.85106	-0.00408865	-0.0257094	0.0176925	0.179199	-0.264893	-1.02856	0.15324	0.00193187	-0.714387	-0.682763	2.24685	9.72809	-0.291127	0.0108702	0.0296438	0.00110813	-0.420898	-1.00195	-0.0803223	0.658512	-0.0700732	-0.739031	-0.123631	9.57541	0.710661	-0.824619	0.078925	0.055254	-0.0429779	-1.1311	-0.151855	-0.228027	0.538562	0.414026	-0.563397	0.470231	9.75886	-1.0817	-0.0502401	0.070303	-0.00518772	-0.0119946	-1.1311	-0.234375	-0.0112305	0.151066	0.725035	0.16467	-0.65145	-9.64349	-0.215507	-0.928872	-0.0668789	-0.120421	0.15172	1.0105	0.15332	-0.210449	0.379829	0.643653	0.397385	-0.532472	-9.27723	1.21846	1.17892	-0.115349	-0.184225	0.0563999	0.980225	0.235107	-0.0466309	0.0772057	-0.245936	-0.733071	-0.629414	3.90685	8.63415	-1.94891	0.0455284	-0.0767987	-0.0210305	-0.709717	-0.742432	0.24707	0.98084	-0.0510809	-0.159086	-0.100175	3.69166	-1.51266	10.2902	0.00983811	-0.000610819	-0.0406831	-0.0336914	0.126221	-1.06689	0.569557	-0.0365652	-0.821048	-0.0121969	9.05734	-0.629507	-3.12869	-0.0325425	0.0139071	0.00492486	-1.15503	0.0322266	0.104492	0.261709	-0.288881	-0.656556	-0.645748	6.97448	6.76715	-0.421913	-0.0296945	0.0207295	-0.0151513	-1.00391	-0.405029	0.0336914	0.276037	-0.326992	-0.58823	-0.686196	7.63883	6.10528	0.839254	0.00166515	0.0149599	0.00109459	-1.06226	-0.31665	-0.0341797	
44	0.148991	0.260292	-0.150735	-0.941981	-4.13278	4.68314	8.78773	0.0215796	0.027834	-0.00841501	0.185547	-0.262695	-1.03296	0.154084	0.0012301	-0.714217	-0.682752	2.20017	9.55476	-0.287432	-0.0161493	0.0269781	0.028349	-0.425293	-0.995361	-0.0734863	0.658873	-0.0686172	-0.738886	-0.123389	9.66781	0.670233	-0.622906	0.00806712	0.019107	-0.0153039	-1.13135	-0.149658	-0.232666	0.538482	0.414506	-0.563655	0.46959	9.79526	-0.821858	0.775926	-0.0409049	-0.0222083	-0.0240668	-1.12427	-0.236328	-0.015625	0.153846	0.723889	0.160897	-0.653014	-9.65903	1.02757	-1.05354	-0.00741735	-0.125223	0.147694	1.00879	0.146729	-0.217285	0.382516	0.64098	0.39465	-0.535797	-9.35191	1.07177	1.48063	0.0745027	-0.149063	0.0403374	0.984619	0.233154	-0.0529785	0.0774596	-0.245722	-0.734365	-0.627955	3.89632	8.66893	-1.64556	0.1194	0.00487368	-0.0265948	-0.701416	-0.738037	0.251221	0.980923	-0.050279	-0.158869	-0.100113	3.66042	-1.45875	10.3028	0.0490262	0.0402908	-0.0308993	-0.0339355	0.128418	-1.0647	0.569792	-0.0365348	-0.820884	-0.0123342	8.895	-0.756924	-3.24176	0.0811159	-0.0173303	-0.0504779	-1.15234	0.027832	0.106934	0.261391	-0.288896	-0.656714	-0.645709	6.92438	6.74679	-0.249562	0.000724043	-0.0230428	0.000314692	-0.995117	-0.405029	0.0405273	0.276628	-0.326435	-0.588108	-0.686328	7.56921	6.19575	0.810481	0.00866531	0.0352134	0.00131891	-1.0625	-0.312256	-0.0388184	
45	0.149297	0.261095	-0.150854	-0.941691	-3.94728	4.77534	8.88359	0.00955202	0.0509447	-0.0019122	0.183594	-0.264893	-1.02856	0.155102	0.00114988	-0.714017	-0.682731	2.18275	9.70397	-0.281558	-0.0210942	0.0424396	0.0139252	-0.425537	-0.993164	-0.0712891	0.6595	-0.0682995	-0.738367	-0.123324	9.61472	0.698883	-0.770756	0.0669204	0.0289556	-0.0114302	-1.1333	-0.151855	-0.230469	0.538366	0.415157	-0.563158	0.469744	9.81732	-0.869013	-0.128291	0.0973188	0.0086169	-0.0186888	-1.12866	-0.234375	-0.015625	0.155959	0.722826	0.158545	-0.654265	-9.67742	0.236261	-0.873602	0.0457715	-0.0640398	0.0739326	1.01099	0.142334	-0.221924	0.385259	0.639655	0.390277	-0.53861	-9.41876	1.3307	1.88994	0.0900241	-0.129302	0.0977143	0.982666	0.224365	-0.0656738	0.0778574	-0.245289	-0.735633	-0.62659	3.95449	8.49101	-1.93878	0.0794521	0.0182202	-0.0171907	-0.70752	-0.744629	0.249268	0.980917	-0.050931	-0.158563	-0.100328	3.69349	-1.51339	10.1075	-0.029253	0.0214374	-0.0305113	-0.0314941	0.126221	-1.06934	0.570288	-0.0362634	-0.820555	-0.0121162	8.72334	-1.07436	-3.4057	0.036703	0.0304029	-0.0268413	-1.15234	0.027832	0.102539	0.261398	-0.288788	-0.656345	-0.64613	6.97652	6.77479	-0.255264	-0.0153164	0.0470457	-0.0018177	-0.997314	-0.405029	0.0336914	0.276837	-0.32638	-0.587136	-0.687102	7.60318	6.12694	0.990358	-0.0497984	0.0378258	0.00630293	-1.06006	-0.312256	-0.036377	
46	0.150716	0.26251	-0.150527	-0.941124	-4.3864	4.73048	8.87308	-0.0172909	0.0533499	0.0339118	0.185547	-0.262695	-1.02856	0.155624	0.000383031	-0.71317	-0.683498	2.27792	9.59154	-0.194921	-0.059504	0.0161122	0.00445437	-0.423584	-0.98877	-0.0783691	0.659615	-0.0667513	-0.738531	-0.122573	9.58455	1.23522	-0.582871	-0.00867125	-0.0124931	-0.0159693	-1.1311	-0.15625	-0.234863	0.53895	0.415368	-0.56391	0.467982	9.78529	-0.606634	0.4261	-0.143043	-0.0425472	-0.0493753	-1.12622	-0.238525	-0.0153809	0.156437	0.722609	0.155743	-0.655063	-9.56254	0.948504	-0.762603	-0.0104535	-0.0448422	0.0836096	1.01123	0.138184	-0.233154	0.388778	0.637551	0.389159	-0.539384	-9.19556	1.40091	1.74979	-0.0787255	-0.0525465	0.0374724	0.980713	0.219971	-0.0739746	0.0805158	-0.243482	-0.736603	-0.625819	3.96143	8.47509	-1.95676	0.10531	0.132569	-0.00181508	-0.705811	-0.73584	0.249023	0.981208	-0.0501781	-0.157811	-0.0990426	3.77111	-1.70958	10.4136	0.0398201	0.040126	0.036949	-0.0314941	0.126221	-1.0647	0.570829	-0.034466	-0.820262	-0.0117133	9.22935	-0.466174	-3.07864	0.0010531	0.0225178	-0.0913378	-1.14771	0.0256348	0.104736	0.261316	-0.288611	-0.656724	-0.645857	6.90667	6.50666	-0.205461	0.0223331	-0.0151249	-0.010567	-0.99707	-0.411621	0.0339355	0.277202	-0.326079	-0.586863	-0.687331	7.39212	6.26732	1.01005	-0.000522735	0.0243885	-0.00551462	-1.06226	-0.314453	-0.0385742	
47	0.152131	0.262306	-0.14957	-0.941106	-4.10787	4.54072	9.00309	-0.0614568	0.00752327	0.0343298	0.183105	-0.258301	-1.02856	0.156141	-0.000240448	-0.712333	-0.684252	2.43619	9.44545	-0.210999	-0.0396246	0.00798055	0.0217695	-0.425293	-0.995361	-0.0805664	0.658744	-0.0701344	-0.738419	-0.125998	9.61965	0.188792	-0.600416	-0.159341	-0.0378557	-0.000198473	-1.1333	-0.151855	-0.230469	0.538636	0.41632	-0.563683	0.467771	9.84228	-0.99669	0.196331	0.126517	-0.0114099	-0.0134034	-1.13062	-0.243164	-0.0131836	0.159712	0.721305	0.157936	-0.655185	-9.80664	0.128231	-0.833099	-0.13426	-0.0272287	-0.0306699	1.01099	0.142578	-0.230957	0.390972	0.635681	0.388466	-0.540504	-9.57847	1.52729	1.74631	0.00158106	-0.0413377	-0.00258384	0.982666	0.222168	-0.0761719	0.0839094	-0.241791	-0.738671	-0.623588	4.21998	8.30618	-2.16248	0.224644	0.162724	0.00681131	-0.709961	-0.73584	0.249023	0.981452	-0.0511421	-0.157358	-0.0968284	3.75262	-1.37774	10.2619	-0.0297987	0.0260814	0.0768535	-0.0383301	0.130615	-1.06714	0.571298	-0.0329761	-0.819967	-0.0135854	9.07891	-0.652931	-3.27617	-0.00659565	0.0417116	-0.101984	-1.15454	0.0209961	0.104736	0.261658	-0.287556	-0.657708	-0.645187	7.1589	6.85212	-0.12694	0.0796688	0.0356937	-0.00898403	-1.00171	-0.407227	0.0339355	0.277246	-0.325844	-0.587063	-0.687254	7.60738	5.89684	0.919626	0.0234669	0.0145818	-0.0160456	-1.06006	-0.314453	-0.0385742	
48	0.153293	0.262218	-0.149273	-0.940989	-4.10681	4.56976	9.02547	-0.00912659	0.00302404	0.0200613	0.183594	-0.264893	-1.02637	0.157179	-0.00048139	-0.712445	-0.683898	2.36069	9.81655	-0.0454022	0.00780817	0.0506559	0.0168416	-0.430176	-0.982422	-0.0834961	0.658864	-0.0676152	-0.738762	-0.124729	9.84489	1.03912	-0.607239	0.129146	0.0198738	-0.0476126	-1.1311	-0.15625	-0.22583	0.53874	0.416527	-0.56444	0.466553	9.94292	-0.394796	0.315975	-0.102072	-0.0419399	-0.0301443	-1.13086	-0.236572	-0.0112305	0.160192	0.721126	0.157602	-0.655345	-9.70613	0.677235	-0.765242	-0.0365215	-0.00647236	0.0100863	1.00244	0.138184	-0.235596	0.392635	0.633137	0.38998	-0.541194	-9.37622	0.910899	1.72075	-0.0511484	0.00783023	-0.0779494	0.98291	0.219971	-0.0783691	0.0872655	-0.239573	-0.739327	-0.623206	4.26778	8.51994	-2.00743	0.152871	0.308652	0.0121648	-0.712158	-0.738037	0.249268	0.98166	-0.0514442	-0.157127	-0.0949091	3.50762	-1.38091	10.3169	0.0292807	0.0115651	0.0590373	-0.0273438	0.128418	-1.06714	0.572331	-0.0302273	-0.819354	-0.0135355	8.8512	-0.457215	-3.28968	0.107357	0.0347707	-0.125977	-1.1543	0.0187988	0.0981445	0.261989	-0.287273	-0.658666	-0.644201	7.10533	7.05522	-0.352146	0.0590711	0.00331951	-0.0177268	-0.997314	-0.405029	0.0361328	0.277113	-0.325981	-0.586113	-0.688053	7.68813	6.07078	1.01835	-0.0177891	0.0224077	0.000543871	-1.05566	-0.314453	-0.036377	
49	0.154479	0.26191	-0.15007	-0.940754	-4.2465	4.66814	8.92891	0.0318134	-0.00292782	0.0548703	0.18335	-0.262695	-1.03491	0.159493	0.000277271	-0.711695	-0.684143	2.38968	9.45365	-0.167451	-0.044376	0.117189	0.0328254	-0.434326	-0.989014	-0.0854492	0.659342	-0.0697386	-0.737514	-0.128364	9.6978	0.697255	-0.164499	-0.254744	0.0578232	-0.0273989	-1.12891	-0.158447	-0.241699	0.537912	0.418352	-0.563399	0.467133	9.90813	-0.796727	0.416807	0.171742	-0.00289896	-0.0181174	-1.12842	-0.240967	-0.00878906	0.163342	0.720159	0.160476	-0.654934	-9.62254	0.469544	-0.751498	-0.18426	0.0155738	-0.0206658	1.01099	0.142578	-0.233154	0.393134	0.632163	0.390111	-0.541876	-9.42416	1.06658	1.6701	0.0230235	0.0218826	0.00436753	0.978516	0.219971	-0.0761719	0.0957679	-0.234502	-0.742396	-0.62023	4.16933	8.01229	-1.86119	0.253895	0.307594	0.0221541	-0.721191	-0.729492	0.242676	0.981694	-0.0521788	-0.15756	-0.0934271	3.71505	-1.32514	10.4533	-0.0392769	-0.0116386	0.019636	-0.0339355	0.132812	-1.06714	0.573129	-0.0273828	-0.818921	-0.0118697	9.21988	-0.201278	-2.87488	0.114942	0.0402688	-0.0512668	-1.15405	0.0141602	0.0959473	0.262177	-0.286199	-0.65941	-0.643841	7.0818	6.66022	-0.150468	0.0490061	0.0183561	-0.0133206	-0.994873	-0.407227	0.0361328	0.277649	-0.325731	-0.586731	-0.687428	7.57013	6.33819	1.0816	-0.0101929	0.00483428	0.00890504	-1.06226	-0.31665	-0.0385742	
50	0.157514	0.261504	-0.151785	-0.940088	-4.30917	4.95241	9.0047	0.0334779	-0.00272341	0.140471	0.181396	-0.26709	-1.02856	0.16169	-0.000201575	-0.711106	-0.68424	2.18182	9.82511	-0.0825408	-0.0319039	0.0408917	0.0445029	-0.432373	-0.982422	-0.090332	0.659541	-0.0697191	-0.737276	-0.128717	9.81034	0.288546	-0.679464	-0.0148901	0.0249361	-0.0178051	-1.1311	-0.158447	-0.228027	0.537684	0.418832	-0.563096	0.467332	9.8745	-0.0563943	0.331571	0.0520885	-0.00370037	-0.0147149	-1.12842	-0.243164	-0.00878906	0.163559	0.720409	0.16121	-0.654425	-9.70995	-0.264106	-0.838982	-0.0509742	0.0579668	-0.0361054	1.00903	0.140381	-0.226318	0.394084	0.631382	0.390814	-0.54159	-9.39357	0.982686	1.6727	-0.0491228	0.0335196	-0.0157649	0.980713	0.222168	-0.0698242	0.100562	-0.231615	-0.743095	-0.619719	3.89516	8.63691	-2.36901	0.194944	0.424366	0.042819	-0.721191	-0.729492	0.242676	0.981794	-0.0518533	-0.157507	-0.0926418	3.65902	-1.38998	10.3699	0.0458464	0.0220762	0.0358112	-0.0292969	0.124023	-1.06226	0.573738	-0.0268598	-0.818507	-0.0122335	9.32763	-0.363048	-3.07953	0.00344604	0.060972	-0.0713104	-1.1543	0.0163574	0.0981445	0.262284	-0.286241	-0.660088	-0.643084	6.78771	6.73521	-0.183315	0.0809151	-0.0177771	0.00970203	-0.994873	-0.407227	0.0383301	0.277928	-0.325616	-0.587337	-0.686851	7.49675	6.20852	1.05721	0.0923511	0.00191538	-0.00950995	-1.06226	-0.314453	-0.036377	
51	0.159515	0.260785	-0.152206	-0.939883	-4.15009	4.86009	8.94721	-0.0138669	-0.0307274	0.153893	0.183594	-0.266846	-1.03491	0.162188	-0.000532807	-0.710531	-0.684719	2.30106	9.94378	0.0177347	-0.0722867	0.0318668	0.0211217	-0.429932	-0.989014	-0.0949707	0.661101	-0.0691618	-0.73607	-0.127923	9.62038	1.44099	-0.442477	-0.0289402	0.0848975	0.0363093	-1.12915	-0.154053	-0.239502	0.539147	0.418534	-0.563542	0.465371	9.90029	-1.1848	-0.012224	-0.00748295	0.0104769	-0.0642449	-1.12402	-0.243164	-0.0109863	0.162847	0.721271	0.159409	-0.654093	-9.72018	1.10484	-0.8336	0.0223204	0.029763	0.0308611	1.00684	0.138184	-0.22876	0.393475	0.631282	0.392582	-0.54087	-9.44259	1.04697	1.42441	-0.00992731	0.0830111	-0.0522472	0.980469	0.224365	-0.067627	0.108307	-0.228263	-0.743614	-0.619035	4.21492	8.50827	-2.11278	0.131799	0.301689	0.0997221	-0.72583	-0.7229	0.231689	0.982054	-0.0516616	-0.157165	-0.0905583	3.48413	-1.39517	10.3141	0.0147131	0.0400671	0.0717643	-0.0292969	0.124023	-1.05762	0.573906	-0.024612	-0.818455	-0.0125731	9.15534	-0.0780507	-2.9214	-0.0265562	0.0189896	-0.111681	-1.15625	0.00732422	0.0983887	0.26213	-0.28521	-0.66144	-0.642215	7.04981	6.67987	-0.17562	0.0645472	0.0165292	-0.044704	-0.99707	-0.411621	0.0476074	0.278144	-0.325141	-0.588247	-0.686211	7.68782	6.0133	1.0788	0.0988605	0.0056739	-0.0238117	-1.05786	-0.314453	-0.0385742	
52	0.162909	0.259633	-0.151735	-0.939695	-4.09993	4.61374	9.03706	-0.0681907	-0.0240242	0.0937294	0.179443	-0.269287	-1.02856	0.164187	-0.0011917	-0.708821	-0.686013	2.83247	9.27704	-0.0125357	-0.0850614	0.0868367	0.0553499	-0.43457	-0.984619	-0.0998535	0.661837	-0.0703499	-0.735053	-0.129305	9.53755	0.399704	-0.370427	-0.0213463	0.0300563	-0.0203141	-1.12891	-0.15625	-0.246338	0.53812	0.420538	-0.561437	0.467294	9.73054	-0.865391	0.0659434	0.171437	0.0171145	-0.000393467	-1.12378	-0.247314	-0.0175781	0.165168	0.720804	0.162991	-0.653142	-9.62444	-0.0720456	-0.819658	-0.133888	0.0310506	-0.0612185	1.01074	0.146973	-0.226318	0.396344	0.629572	0.393998	-0.539738	-9.31267	1.17493	1.48294	-0.0823303	0.0163087	-0.00533119	0.982666	0.224365	-0.067627	0.111739	-0.228525	-0.745067	-0.616576	4.29649	8.55083	-1.99129	0.193362	0.0550034	0.0576992	-0.732422	-0.720947	0.240234	0.982265	-0.051271	-0.157126	-0.0885307	3.50776	-0.986502	10.6074	0.0374056	0.00383339	0.0474389	-0.0270996	0.121826	-1.0647	0.574327	-0.0229175	-0.818199	-0.0132178	9.18903	-0.248196	-3.00039	0.0705059	0.0196396	-0.0759253	-1.15137	0.00292969	0.0961914	0.262519	-0.284371	-0.661535	-0.642331	7.01278	7.13187	-0.600247	-0.00868492	0.0709309	-0.00919827	-0.996826	-0.413818	0.0407715	0.27794	-0.324979	-0.589162	-0.685584	7.7899	6.42218	0.888821	0.0192609	-0.00932642	-0.0122932	-1.05786	-0.314453	-0.0341797	
53	0.16457	0.257446	-0.150808	-0.940157	-3.74398	4.21975	8.8444	-0.0592084	-0.062255	0.0360674	0.178955	-0.262695	-1.02856	0.166406	-0.000664319	-0.707861	-0.68647	2.21532	9.68652	-0.107712	-0.0426454	0.0651041	0.0108764	-0.438965	-0.982422	-0.0998535	0.662863	-0.0670157	-0.734589	-0.128457	9.76982	0.598437	-0.777201	0.108592	0.0666459	-0.0626849	-1.12891	-0.158447	-0.234863	0.536214	0.423515	-0.5591	0.469593	9.79415	-0.639929	0.483955	0.183099	-0.0214049	-0.0389881	-1.12134	-0.249756	0.000244141	0.165849	0.720548	0.164363	-0.652908	-9.76718	0.514744	-0.793389	-0.108631	-0.0138816	-0.0513787	1.01074	0.146729	-0.221924	0.397133	0.62737	0.396338	-0.540008	-9.38323	0.959467	1.51531	-0.0495083	0.0408695	-0.0978211	0.973877	0.230957	-0.0634766	0.116431	-0.226934	-0.745947	-0.61523	4.53889	8.19194	-2.19851	0.105008	0.237088	0.0554542	-0.736816	-0.716553	0.231689	0.982248	-0.0522942	-0.15705	-0.0882623	3.56883	-1.60328	10.1011	-0.00812105	0.0255928	-0.0328695	-0.0314941	0.126221	-1.06226	0.5744	-0.0228599	-0.818123	-0.0147412	9.03804	-0.249673	-3.14283	-0.088251	0.00590813	-0.0572517	-1.15137	0.000488281	0.0893555	0.262335	-0.283877	-0.661485	-0.642676	7.2509	6.64057	-0.531616	0.0136692	0.000115741	-0.00942014	-0.99707	-0.409424	0.0385742	0.278158	-0.324794	-0.588843	-0.685858	7.65237	5.66089	0.642541	0.0537192	0.032674	-0.00113845	-1.05786	-0.312256	-0.0341797	
54	0.165563	0.257507	-0.15101	-0.939934	-4.16982	4.52662	8.77612	0.0221954	0.0133629	0.0181833	0.178955	-0.262695	-1.02856	0.167872	-0.000702608	-0.706927	-0.687076	2.31923	9.40033	-0.0488032	-0.0710395	0.0726573	0.0192999	-0.443359	-0.980225	-0.102295	0.663584	-0.0649169	-0.734451	-0.126586	9.44505	0.720005	-0.530102	0.147689	0.0100566	-0.0230122	-1.12695	-0.15625	-0.243896	0.534491	0.426398	-0.55749	0.47086	9.75242	-1.06249	0.0982181	0.149319	-0.0247016	-0.0197662	-1.12573	-0.25415	-0.00195312	0.16771	0.720434	0.166469	-0.652024	-9.34597	0.50249	-0.742428	-0.112266	0.0350273	-0.00109113	1.00659	0.146729	-0.219482	0.398049	0.625867	0.399556	-0.538704	-9.15972	0.780467	1.53503	-0.113988	0.0611742	-0.0669797	0.976074	0.22876	-0.0612793	0.121016	-0.225007	-0.74545	-0.615655	4.0251	8.33195	-1.82559	0.0582908	0.153071	0.0430421	-0.739258	-0.712158	0.220947	0.982336	-0.0504183	-0.157242	-0.0880286	3.58511	-0.904277	10.6482	0.0247264	0.0132286	-0.0229496	-0.0314941	0.124023	-1.0647	0.574684	-0.0223618	-0.817941	-0.0145448	9.3554	-0.548108	-3.04336	0.0463764	0.0340788	-0.0145647	-1.1582	-0.00170898	0.0917969	0.26281	-0.283677	-0.661753	-0.642294	6.55614	6.85644	-0.226239	0.0136974	0.0319548	0.00149498	-0.994873	-0.411621	0.0407715	0.278639	-0.324503	-0.588812	-0.685827	7.41739	6.56084	0.977104	-0.0709695	0.0243764	0.00705684	-1.06006	-0.31665	-0.036377	
55	0.166404	0.256287	-0.151155	-0.940095	-4.00696	4.56416	8.82847	-0.019475	-0.0530406	0.0295242	0.174805	-0.264893	-1.03296	0.169083	-6.08141e-05	-0.706044	-0.687687	2.26485	9.56564	0.0848593	-0.0317174	0.0563141	-0.0127206	-0.435059	-0.973877	-0.10498	0.663762	-0.0611453	-0.734808	-0.125453	9.54595	1.44171	-0.715681	0.0744871	0.0225328	-0.0847949	-1.12891	-0.169189	-0.24585	0.531625	0.430464	-0.555038	0.473296	9.636	-0.795734	-0.462773	0.273853	-0.0529526	-0.0351336	-1.11914	-0.251953	0.00463867	0.166918	0.720706	0.167739	-0.651602	-9.6464	0.0945679	-1.05649	0.0388603	0.0398211	-0.0701712	1.0061	0.155518	-0.219482	0.399063	0.625396	0.400126	-0.538077	-9.33368	1.29	1.38145	-0.00565946	0.0496588	0.00744857	0.980225	0.230957	-0.0593262	0.126413	-0.222061	-0.744448	-0.616851	4.21255	8.40394	-2.20452	0.020904	0.268793	0.0361434	-0.739258	-0.712158	0.220947	0.982328	-0.0512998	-0.157153	-0.0877625	3.71326	-1.55902	10.1831	0.025444	0.0237137	-0.00479787	-0.0314941	0.124023	-1.0647	0.574789	-0.0216468	-0.817899	-0.0137853	8.92515	-0.456394	-3.19126	0.0852679	0.00892697	-0.0334228	-1.15112	-0.00170898	0.0939941	0.262731	-0.283364	-0.660957	-0.643283	6.94407	6.78645	-0.268297	-0.0582645	0.0363069	-0.00521331	-0.996826	-0.416016	0.0339355	0.278418	-0.324695	-0.587523	-0.68693	7.50216	6.20297	1.04801	-0.0446726	0.0196044	-0.00513229	-1.06226	-0.31665	-0.0341797	
56	0.167804	0.255703	-0.152121	-0.939849	-3.80533	4.53567	8.93899	0.0346505	-0.00313517	0.0599602	0.17041	-0.264893	-1.03296	0.169337	-0.000228192	-0.705251	-0.688437	2.41523	9.43354	-0.0403147	-0.0505385	0.0163583	-0.0109238	-0.441162	-0.980469	-0.109375	0.664343	-0.0574512	-0.73439	-0.126567	9.6206	1.03794	-0.294823	0.0934731	0.0407049	-0.161828	-1.12646	-0.175781	-0.241211	0.527591	0.435978	-0.551822	0.476512	9.93534	-1.00763	0.0831419	0.368407	-0.0515152	-0.0218628	-1.12329	-0.25415	0.0112305	0.167364	0.721284	0.168728	-0.650592	-9.54025	0.696617	-0.930615	-0.167226	0.0479251	-0.0128009	1.01294	0.14917	-0.221924	0.401135	0.623061	0.403624	-0.536632	-9.08251	0.70243	1.26051	-0.114145	0.074523	-0.0838566	0.976074	0.22876	-0.0527344	0.131168	-0.21932	-0.743798	-0.617623	4.44722	8.19852	-1.50499	0.0190759	0.253703	0.0208373	-0.748047	-0.709961	0.208008	0.982461	-0.0500976	-0.156824	-0.0875569	3.6462	-1.21073	10.4471	0.0538265	0.0294098	-0.00434268	-0.0246582	0.113281	-1.06445	0.57489	-0.0187644	-0.817942	-0.0109552	9.16164	-0.63721	-3.19739	0.182428	0.00945787	-0.0270103	-1.14648	-0.00170898	0.0961914	0.263463	-0.282862	-0.66021	-0.643971	6.81883	6.8755	-0.415104	-0.000649161	0.0704702	0.00788457	-0.996826	-0.416016	0.0317383	0.277675	-0.325497	-0.583733	-0.690076	7.57578	6.26242	0.830868	-0.209702	0.0449642	0.00322074	-1.06006	-0.31665	-0.0500488	
57	0.170921	0.25511	-0.15482	-0.939008	-4.03473	4.59484	8.99599	0.083694	-0.0221014	0.175849	0.17041	-0.269287	-1.03076	0.171553	-0.000568714	-0.70477	-0.688381	2.59926	8.98394	0.336116	-0.00279284	0.0880224	0.081219	-0.439209	-0.976074	-0.104736	0.664352	-0.0509426	-0.735066	-0.125377	9.47086	0.311102	-0.404555	0.271483	-0.00984108	-0.158553	-1.12842	-0.190918	-0.245361	0.524674	0.438898	-0.549323	0.479927	9.90625	-1.05443	0.423	0.474716	-0.0104243	0.0391891	-1.12134	-0.249756	0.015625	0.17015	0.720639	0.173005	-0.64946	-9.52884	-0.601841	-1.37686	-0.0602007	0.0259211	-0.0844681	1.0105	0.157715	-0.208252	0.40092	0.622874	0.40453	-0.536327	-9.17604	0.63921	1.00263	0.0239554	0.0971655	-0.0570459	0.980225	0.233154	-0.0551758	0.133718	-0.217032	-0.742938	-0.618919	4.41645	7.62324	-1.3046	-0.0329663	0.307937	-0.022439	-0.75	-0.709961	0.205811	0.982324	-0.0515528	-0.157267	-0.0874527	3.45471	-1.5702	10.1374	-0.0621717	-0.0287376	-0.024034	-0.0290527	0.119873	-1.06934	0.575119	-0.0170002	-0.817847	-0.00865523	9.2088	-0.337628	-3.23796	0.233372	0.0186574	-0.0306987	-1.15356	0.000488281	0.0893555	0.263552	-0.282889	-0.659799	-0.644344	7.13821	6.95309	-0.321411	-0.0348642	0.0306156	0.00938694	-0.992188	-0.418213	0.0317383	0.27773	-0.325876	-0.579315	-0.693589	7.4613	5.87101	1.22207	-0.13285	0.130943	0.0328945	-1.05566	-0.312256	-0.0500488	
58	0.176825	0.252698	-0.158917	-0.937882	-3.76032	4.54746	8.82312	0.0856982	-0.0738591	0.288541	0.16626	-0.273682	-1.02637	0.173826	-0.000607301	-0.705686	-0.686871	2.30579	9.61876	0.226927	0.0604103	0.0715938	0.0331269	-0.445557	-0.980469	-0.111572	0.664524	-0.0442011	-0.736004	-0.121459	9.57537	1.38732	-0.548335	0.256651	0.0291308	-0.0679545	-1.12402	-0.199707	-0.240479	0.518009	0.445691	-0.543688	0.487268	9.58616	-0.270694	0.598325	0.530843	-0.0271723	0.0337287	-1.11938	-0.247803	0.0310059	0.167143	0.721215	0.171195	-0.65008	-9.46435	-0.534302	-0.789478	0.286804	0.017375	-0.0674502	1.0105	0.15332	-0.212646	0.401741	0.621567	0.406295	-0.535895	-9.23845	1.57819	0.923974	-0.128596	0.0318337	-0.0676994	0.980225	0.233154	-0.0463867	0.141243	-0.211365	-0.743213	-0.618878	4.29572	8.61152	-2.13697	0.0738716	0.369925	-0.000288239	-0.750488	-0.703369	0.197266	0.982329	-0.0522037	-0.157052	-0.0874011	3.62073	-1.44541	10.6493	-0.0433504	0.0294647	-0.0104257	-0.029541	0.128418	-1.06714	0.575037	-0.0133386	-0.81801	-0.00386568	9.63189	0.0634877	-2.37826	0.199165	0.00380765	-0.0202668	-1.15332	-0.00390625	0.0917969	0.262717	-0.283072	-0.66023	-0.644162	6.67711	6.35242	-0.15257	0.0336534	-0.0268126	-0.0310765	-0.992432	-0.416016	0.0385742	0.279323	-0.324588	-0.577631	-0.694956	7.79354	6.05945	1.24575	-0.112551	0.11124	0.0131944	-1.05786	-0.312256	-0.0615234	
59	0.180139	0.251893	-0.160883	-0.937132	-3.50301	4.50247	8.79246	0.0815229	-0.0327682	0.292555	0.157471	-0.271729	-1.02856	0.174815	-0.00033089	-0.706305	-0.685984	2.34278	9.60159	0.177582	0.0788032	0.0765898	0.0321369	-0.445801	-0.973877	-0.109619	0.665	-0.0427892	-0.735883	-0.120085	9.46764	1.22852	-0.541428	0.162452	0.0423082	-0.00612307	-1.11963	-0.19751	-0.24292	0.514359	0.450011	-0.540017	0.491229	9.69485	-1.01108	-0.0805131	0.337367	-0.00399643	-0.014495	-1.12158	-0.245605	0.0310059	0.171907	0.719181	0.176279	-0.649733	-9.61857	0.752815	-0.969988	-0.284665	-0.0379106	-0.0424549	1.00806	0.159912	-0.215088	0.40464	0.616291	0.412114	-0.535363	-9.2856	0.384847	0.697112	-0.151368	0.00368554	-0.170491	0.975586	0.239502	-0.0444336	0.146333	-0.207827	-0.744753	-0.617039	4.20286	8.62108	-2.09422	0.205066	0.16624	0.00983003	-0.754883	-0.701416	0.190674	0.982474	-0.052718	-0.156656	-0.0861614	3.62741	-1.47475	10.2764	0.0302214	0.019565	0.0362002	-0.0314941	0.126221	-1.0647	0.575633	-0.0123525	-0.817603	-0.00440135	9.6623	-0.586799	-3.07008	0.0433512	0.0255495	-0.0642165	-1.15576	-0.00170898	0.0895996	0.263428	-0.282188	-0.662029	-0.642412	7.25997	7.16254	-0.084339	0.139252	0.0222077	0.0205308	-0.99707	-0.409424	0.0385742	0.279428	-0.324491	-0.57645	-0.695939	7.70745	6.03727	1.30083	-0.10376	0.0680851	0.00627506	-1.05786	-0.314453	-0.0568848	
60	0.1854	0.252246	-0.163435	-0.935568	-3.51837	4.56896	8.82988	0.0492385	0.0692512	0.179506	0.162354	-0.284668	-1.02856	0.175889	-0.000118677	-0.707185	-0.684801	2.70071	9.76396	0.235385	0.0136623	0.0532606	0.00698357	-0.441406	-0.973877	-0.109619	0.665141	-0.0405673	-0.736195	-0.118143	9.71694	1.49658	-0.654607	0.0791801	-0.0093759	-0.0132344	-1.12402	-0.19751	-0.24292	0.511154	0.453576	-0.535809	0.495881	9.946	-0.415904	0.146583	0.15491	0.0320617	0.0219145	-1.11938	-0.245605	0.0332031	0.173617	0.716574	0.177556	-0.651807	-9.73756	-0.549104	-1.01225	0.235339	-0.12242	-0.00617464	1.00391	0.155518	-0.219482	0.406303	0.612345	0.414673	-0.536654	-9.44752	0.832323	0.838768	-0.0866715	-0.0764938	-0.110355	0.977539	0.246094	-0.0490723	0.147404	-0.207	-0.746072	-0.615467	4.65137	8.21332	-1.47549	0.068906	0.0186176	-0.0140967	-0.752686	-0.699219	0.188477	0.982511	-0.0524955	-0.156412	-0.0863228	3.387	-1.21972	10.37	0.00866884	0.0338492	-0.0406082	-0.0314941	0.126221	-1.06714	0.575538	-0.0120252	-0.817676	-0.00424015	8.76818	-0.391414	-2.96797	0.00161688	-0.0195835	-0.018767	-1.15112	-0.00634766	0.0917969	0.2635	-0.282469	-0.662065	-0.642222	6.99219	7.32391	-0.115094	0.0120177	-0.00523559	0.0230381	-0.994629	-0.416016	0.0432129	0.278356	-0.325578	-0.573001	-0.698703	7.58022	6.04123	1.45596	-0.22537	0.041733	0.00654679	-1.06494	-0.307861	-0.0637207	
61	0.187805	0.253407	-0.163623	-0.934742	-3.96494	4.6749	8.85079	-0.0255212	0.0397799	0.0448603	0.162354	-0.282471	-1.02856	0.177212	0.000214207	-0.706265	-0.685409	2.38812	9.23135	0.0190881	-0.0356517	0.0590684	-0.00693393	-0.443848	-0.97168	-0.109619	0.664026	-0.0421723	-0.737011	-0.118762	9.19804	1.28649	-0.373014	-0.0637509	-0.0738587	0.0167688	-1.12183	-0.19751	-0.238281	0.510176	0.452997	-0.536215	0.496978	9.52562	-1.53564	-0.263436	0.177072	0.0139713	0.0728589	-1.11743	-0.239014	0.0285645	0.172001	0.714995	0.175289	-0.654577	-9.30841	0.958918	-0.704392	-0.055397	-0.131635	-0.0472467	1.00146	0.164551	-0.226318	0.408348	0.607971	0.414683	-0.540056	-9.06837	0.790508	1.46428	0.0216582	-0.169353	-0.0766515	0.975098	0.250244	-0.0598145	0.147807	-0.206496	-0.74591	-0.615736	4.54162	8.49488	-2.01756	0.00466634	0.0791784	-0.0293648	-0.754639	-0.705566	0.186523	0.982661	-0.0520472	-0.155745	-0.0860949	3.50428	-1.20906	10.4641	0.0211506	0.0433547	-0.0206185	-0.0270996	0.119873	-1.0647	0.57592	-0.0132001	-0.817385	-0.00482944	9.1855	-0.374805	-3.14644	-0.0558137	0.0206612	-0.00382853	-1.15112	-0.00390625	0.0917969	0.26315	-0.282021	-0.661963	-0.642668	6.92733	6.61529	-0.251105	0.0160456	-0.0197406	0.0125585	-0.994385	-0.418213	0.0341797	0.277554	-0.325947	-0.571881	-0.699767	7.65136	6.05026	1.34982	-0.0571943	-0.00846619	-0.0171654	-1.0603	-0.305664	-0.0683594	
62	0.188012	0.254256	-0.162611	-0.934646	-3.67018	4.49235	8.83589	-0.0169484	0.0620198	-0.0446058	0.162109	-0.278076	-1.02637	0.177331	0.000885951	-0.706813	-0.684813	2.42881	9.72058	0.24017	0.0265597	0.0109663	-0.0306678	-0.446045	-0.97168	-0.109619	0.663495	-0.0419773	-0.737411	-0.119321	9.45119	1.11073	-0.618962	-0.0153909	-0.0497506	-0.0484195	-1.12183	-0.195312	-0.236084	0.508318	0.453074	-0.534507	0.500639	9.9269	0.354016	0.808862	-0.0455708	0.0408245	0.0557382	-1.12695	-0.228027	0.0305176	0.17611	0.71147	0.17908	-0.656298	-9.83725	-0.500778	-0.662284	-0.182376	-0.131991	-0.0434745	1.00562	0.166748	-0.230957	0.411165	0.602995	0.416248	-0.542289	-9.45017	0.638626	1.91907	-0.109286	-0.100309	-0.123019	0.975098	0.252441	-0.064209	0.148106	-0.20435	-0.743828	-0.61889	4.58541	8.33203	-1.75208	-0.157358	0.149832	-0.0900044	-0.756836	-0.705566	0.176025	0.982664	-0.0514305	-0.155708	-0.0865008	3.65127	-1.06191	10.3496	0.0238004	0.028227	-0.0572972	-0.0249023	0.124268	-1.06689	0.575549	-0.0146726	-0.817617	-0.00548806	9.06744	-0.0205921	-3.07414	-0.13631	0.00015295	0.0275168	-1.14917	0.00292969	0.0939941	0.263102	-0.282478	-0.661658	-0.642801	7.38131	7.44204	-0.0387436	-0.0256718	0.00238924	0.0156379	-0.99707	-0.411621	0.0361328	0.277646	-0.325596	-0.574986	-0.697346	7.65662	6.49117	1.59655	0.170964	-0.0612625	-0.0144977	-1.0625	-0.310059	-0.0637207	
63	0.187248	0.256302	-0.161268	-0.934473	-4.0839	4.7124	8.91037	-0.0287206	0.0720162	-0.0764112	0.166504	-0.280273	-1.02637	0.176083	0.00114374	-0.705831	-0.686146	2.42361	9.73357	0.114766	-0.105994	0.00026501	-0.0862903	-0.439209	-0.973877	-0.107178	0.664104	-0.0468229	-0.736559	-0.119389	9.50291	0.881978	-0.151549	-0.0239051	0.0604118	0.138179	-1.13257	-0.190674	-0.243164	0.511558	0.448907	-0.538055	0.49728	9.8	-1.02771	-0.284622	-0.173911	0.040738	0.0223572	-1.12891	-0.234619	0.0241699	0.174813	0.710408	0.177624	-0.658187	-9.43449	0.593844	-0.390534	0.120793	-0.0568238	-0.0301401	0.994629	0.166748	-0.237793	0.411513	0.599771	0.417641	-0.544526	-9.23536	0.0935465	2.06327	0.0587305	-0.0369445	-0.103505	0.972656	0.256836	-0.0686035	0.14651	-0.203375	-0.741013	-0.622955	4.25204	8.57167	-1.68331	-0.225678	-0.0149153	-0.088699	-0.750244	-0.707764	0.169678	0.982601	-0.0495025	-0.156107	-0.0876111	3.8486	-1.2498	10.4619	0.0732419	0.00962183	-0.091657	-0.0270996	0.121826	-1.0647	0.575782	-0.0185011	-0.817364	-0.00696968	9.26301	-0.153062	-3.13144	-0.132735	0.0172149	0.0664774	-1.15112	-0.00170898	0.0939941	0.262383	-0.28286	-0.660179	-0.644446	6.68455	6.63973	-0.495793	-0.0770017	0.0229803	-0.00756416	-0.996826	-0.416016	0.0339355	0.27699	-0.326428	-0.578756	-0.694091	7.61217	5.97546	1.04207	0.216151	-0.12242	-0.0189488	-1.05786	-0.312256	-0.0522461	
64	0.186068	0.256908	-0.160253	-0.934717	-4.24144	4.88183	8.88129	-0.0122229	0.00482093	-0.0704973	0.17334	-0.280273	-1.02637	0.176154	0.00224064	-0.705248	-0.686724	2.28252	9.25834	0.343518	-0.00809738	0.0499381	-0.040912	-0.438965	-0.980469	-0.109375	0.665913	-0.0446767	-0.735712	-0.115295	9.48945	1.66182	-0.46612	0.14918	0.0791571	0.0733292	-1.12183	-0.188965	-0.233887	0.513461	0.446961	-0.538078	0.497048	9.51865	-0.292944	-0.140407	-0.212476	0.0478272	-0.0124729	-1.12427	-0.236816	0.0219727	0.174311	0.710225	0.178109	-0.658387	-9.56608	0.423564	-0.703901	0.00584906	0.00170422	-0.0741358	1.00122	0.166748	-0.240234	0.409229	0.601166	0.414891	-0.546806	-9.3352	0.841627	1.93081	0.250722	0.043706	0.0181376	0.970703	0.254639	-0.0727539	0.143554	-0.202866	-0.738922	-0.626285	4.26859	8.01216	-1.68798	-0.130501	-0.00597724	-0.0975286	-0.747559	-0.720703	0.167725	0.98243	-0.0487817	-0.156652	-0.0889493	3.63496	-1.66913	10.1858	0.0201937	-0.0071067	-0.0588563	-0.0268555	0.117676	-1.06445	0.575098	-0.0197572	-0.817819	-0.0066273	8.87371	-0.740625	-3.12924	0.0490747	-0.0483513	0.0141467	-1.15137	0.00512695	0.09375	0.263025	-0.283413	-0.659965	-0.644159	6.84238	6.73836	-0.189094	0.0277666	0.00959482	0.0448409	-0.994629	-0.413818	0.036377	0.279076	-0.325262	-0.579631	-0.693073	7.25447	6.16781	1.19263	0.0373284	0.102909	0.0299795	-1.06006	-0.31665	-0.0522461	
65	0.186363	0.255863	-0.159513	-0.935071	-4.13208	4.50386	8.9009	-0.0378499	-0.0567411	0.00339866	0.173096	-0.278076	-1.02417	0.175267	0.00270421	-0.705259	-0.686938	2.28096	9.3836	0.0799001	-0.0106527	-0.0111251	-0.062633	-0.437012	-0.976074	-0.111816	0.666288	-0.0459819	-0.735336	-0.115013	9.06978	0.82628	-0.45512	-0.050108	0.0285324	0.0959624	-1.12646	-0.180176	-0.243408	0.514956	0.445316	-0.539469	0.495467	9.4847	-1.47882	0.0990861	-0.240777	0.0211203	-0.00354526	-1.12427	-0.236816	0.0219727	0.168343	0.711679	0.175356	-0.659109	-9.52134	-0.155873	-0.704158	0.258386	0.0455601	-0.0813577	0.996826	0.171143	-0.235596	0.409553	0.600998	0.415465	-0.546312	-9.10155	1.00839	1.94731	0.00932616	0.0798647	-0.00893492	0.966309	0.256836	-0.0664062	0.141983	-0.203257	-0.738149	-0.627426	4.3176	8.38281	-1.79095	-0.118274	-0.0737232	-0.0696578	-0.745361	-0.718506	0.167725	0.982447	-0.0487188	-0.156661	-0.0887808	3.6816	-1.3735	10.6174	0.0162878	0.0163413	-0.010721	-0.0288086	0.113281	-1.06909	0.57551	-0.0204917	-0.817511	-0.00664824	9.66304	-0.981863	-3.05315	-0.0326569	0.0416004	0.0263415	-1.14917	0.00512695	0.0939941	0.263096	-0.283534	-0.659983	-0.644058	6.67198	6.74231	-0.0180115	0.00971541	0.00529549	0.0136115	-1.00391	-0.407227	0.0314941	0.278388	-0.326192	-0.577946	-0.694318	7.53664	6.04355	0.951867	-0.135209	-0.0258703	-0.00188268	-1.0625	-0.307861	-0.0568848	
66	0.186637	0.254629	-0.160638	-0.935161	-3.74963	4.35647	8.97495	0.0588102	-0.038725	0.0219562	0.166748	-0.282471	-1.03052	0.17442	0.00382681	-0.706854	-0.685508	2.67302	9.42055	0.230664	0.11623	-0.000713012	-0.0591164	-0.432617	-0.976074	-0.109619	0.66484	-0.0452199	-0.736842	-0.114042	9.61009	0.954353	-0.729925	-0.0224165	-0.0594457	-0.0114948	-1.12427	-0.182373	-0.236328	0.51357	0.446417	-0.537674	0.497861	9.85208	-1.10761	0.354808	0.183161	0.0196437	0.0357179	-1.12646	-0.239014	0.0197754	0.169419	0.712101	0.180231	-0.657059	-10.0154	-0.532513	-1.06999	-0.0684486	0.0540983	-0.0669158	0.996582	0.175537	-0.233398	0.408698	0.601043	0.41947	-0.543837	-9.60484	1.00624	0.923024	-0.0448782	0.1398	-0.0468598	0.9729	0.256836	-0.0578613	0.138489	-0.203353	-0.736259	-0.630389	4.67056	8.16338	-1.79053	-0.0989902	-0.0568477	-0.0755893	-0.747314	-0.725098	0.163574	0.982509	-0.0504446	-0.156391	-0.0875999	3.52694	-1.41664	10.6006	-0.0258735	0.00897801	-0.00518071	-0.0246582	0.117676	-1.06934	0.575259	-0.0182993	-0.817758	-0.00370664	9.06939	-0.381119	-3.2547	0.168131	-0.0216201	-0.0368988	-1.15625	0.00732422	0.0959473	0.262907	-0.282807	-0.660019	-0.644418	7.0091	6.56225	-0.392239	0.0291135	0.0193132	-0.0175028	-0.992676	-0.409424	0.0385742	0.277604	-0.326803	-0.577335	-0.694853	7.80264	6.22292	1.26194	-0.10366	-0.00221231	-0.00222313	-1.06494	-0.307861	-0.0615234	
67	0.18682	0.254171	-0.162023	-0.93501	-3.82449	4.53025	9.00071	0.0976383	-0.0500669	0.0328214	0.168945	-0.282471	-1.02856	0.17442	0.00382681	-0.706854	-0.685508	2.67302	9.42055	0.230664	0.11623	-0.000713012	-0.0591164	-0.432617	-0.976074	-0.109619	0.66407	-0.0473443	-0.737382	-0.11418	9.78546	0.727996	-0.25977	-0.114895	-0.0938318	0.108045	-1.12842	-0.186523	-0.236328	0.514452	0.443764	-0.539237	0.497631	10.0419	-1.4019	0.774986	-0.0878852	0.0628919	0.0677209	-1.1333	-0.234619	0.0131836	0.167187	0.712598	0.179038	-0.657418	-9.76267	-0.530153	-0.531588	0.204931	0.0304276	-0.0613548	1.00098	0.17334	-0.237793	0.410435	0.599191	0.422022	-0.542597	-9.60016	0.904433	0.777637	-0.228292	0.0597447	-0.0762831	0.968018	0.267578	-0.0583496	0.137204	-0.203514	-0.735886	-0.631054	4.51904	8.60905	-1.5606	-0.062821	-0.0575935	-0.0707245	-0.747314	-0.7229	0.165771	0.982497	-0.0500675	-0.156708	-0.0873846	3.33159	-1.17754	10.3836	0.0432017	-0.00654761	-0.0125898	-0.0268555	0.115479	-1.06445	0.575509	-0.0160816	-0.817637	2.26661e-05	9.12981	-0.625533	-3.149	0.181519	0.00454983	-0.0167551	-1.15845	0.00732422	0.09375	0.263362	-0.28371	-0.661106	-0.642719	7.14243	6.92935	-0.342113	0.0774735	-0.00985131	0.0378356	-0.990479	-0.409424	0.0361328	0.276996	-0.327415	-0.5755	-0.696328	7.61401	5.86825	1.31961	-0.197	0.0229001	0.00558858	-1.06445	-0.314697	-0.059082	
68	0.186233	0.25401	-0.165205	-0.934614	-3.99402	5.02666	8.99967	0.0566489	0.000242722	-0.0114286	0.168945	-0.284668	-1.02832	0.172707	0.00418879	-0.708623	-0.684112	2.32965	9.6075	-0.03015	0.0161502	-0.0122914	0.0013632	-0.434814	-0.980225	-0.0998535	0.663051	-0.0493351	-0.738535	-0.111788	9.9095	1.01925	-0.344684	0.0645045	-0.0643017	0.095646	-1.13306	-0.173584	-0.229736	0.512925	0.443173	-0.535637	0.503586	9.91836	0.101417	-0.00753558	0.248228	0.186798	0.101399	-1.125	-0.218994	0.00830078	0.169531	0.711423	0.181389	-0.657446	-9.85834	0.61761	-1.13624	-0.312931	-0.0458822	-0.026111	0.994385	0.177734	-0.233398	0.410876	0.596146	0.424587	-0.543615	-9.52241	-0.112753	0.888741	0.0877333	-0.0133063	-0.114936	0.972656	0.26123	-0.0537109	0.133315	-0.205229	-0.734947	-0.632425	4.49239	8.35708	-1.19393	-0.0738051	-0.102822	-0.052851	-0.740723	-0.727295	0.165771	0.982464	-0.0502228	-0.156182	-0.0885976	3.53192	-0.975639	10.5621	-0.0202931	0.0632435	-0.0880567	-0.0266113	0.113281	-1.05981	0.575497	-0.017385	-0.817619	0.000381745	9.26076	0.126807	-3.02292	-0.216877	0.00829501	0.0296524	-1.14941	0.0144043	0.0915527	0.262877	-0.284094	-0.661239	-0.642611	7.15873	6.83534	-0.310644	-0.0494346	-0.0388067	-0.00873847	-0.99707	-0.411621	0.0407715	0.27709	-0.327461	-0.57806	-0.694144	7.80765	5.62495	1.29037	0.292391	-0.03596	-0.0200146	-1.0625	-0.312256	-0.0500488	
69	0.186568	0.254011	-0.165807	-0.93444	-4.18569	4.89303	9.09744	0.0441905	-0.00283161	0.0233068	0.168945	-0.284668	-1.02197	0.172303	0.00321144	-0.709066	-0.683759	2.19047	9.6869	-0.0438899	0.0217969	-0.0683333	0.019424	-0.43457	-0.982422	-0.0998535	0.664188	-0.0492861	-0.738041	-0.108261	9.67346	0.748961	-0.318894	0.126235	0.0525421	0.0963752	-1.13086	-0.171387	-0.22998	0.513752	0.441399	-0.535931	0.503988	9.87525	-0.0564824	0.0977733	-0.134365	0.0145377	0.0139982	-1.12939	-0.218994	0.00390625	0.170911	0.710508	0.182871	-0.657667	-9.98094	-0.572271	-1.34714	-0.162609	-0.0520041	-0.0424116	1.00073	0.182129	-0.22876	0.410577	0.595872	0.422292	-0.545924	-9.28996	0.487303	1.17866	0.121228	-0.0448472	0.0236584	0.972412	0.267578	-0.0561523	0.13244	-0.205561	-0.73247	-0.635368	4.27406	8.65898	-1.8392	-0.177779	0.00505342	-0.000751706	-0.74292	-0.727295	0.161621	0.982568	-0.0482649	-0.155725	-0.0893285	3.71066	-1.38272	10.4856	0.109552	0.051483	-0.0474237	-0.0270996	0.119873	-1.0647	0.575118	-0.0229119	-0.817736	-0.00468014	9.27782	-0.205757	-3.21752	-0.359318	0.0177406	0.0373177	-1.14941	0.0141602	0.0959473	0.262258	-0.28536	-0.661258	-0.642284	7.09764	6.99077	-0.107319	-0.0165286	-0.0158411	0.0300704	-0.99707	-0.409424	0.0385742	0.27709	-0.327461	-0.57806	-0.694144	7.80765	5.62495	1.29037	0.292391	-0.03596	-0.0200146	-1.0625	-0.312256	-0.0500488	
70	0.186551	0.251922	-0.16734	-0.934736	-3.963	4.94377	8.89064	0.0336151	-0.127186	-0.000148711	0.1604	-0.289062	-1.02637	0.170524	0.00150162	-0.710065	-0.683175	2.49221	9.80571	0.00524257	0.0181767	-0.0711317	-0.0283117	-0.436523	-0.986816	-0.0925293	0.665733	-0.0489007	-0.737181	-0.104745	9.77786	0.922572	-0.341282	0.00479578	0.062148	0.133089	-1.12451	-0.169189	-0.234619	0.515878	0.439745	-0.535664	0.503546	10.2033	-1.39621	1.14937	-0.0510978	0.110972	-0.00275005	-1.12695	-0.225586	-0.000244141	0.162255	0.711712	0.173718	-0.661031	-9.76382	0.904657	-0.321437	0.179849	-0.0571127	0.0216183	0.999023	0.171143	-0.240234	0.410381	0.595582	0.419713	-0.548372	-9.52888	0.6896	1.44689	0.137826	-0.0648483	-0.00335716	0.966064	0.263428	-0.0688477	0.128579	-0.20835	-0.73034	-0.6377	4.31453	8.7256	-1.49052	-0.152949	-0.188791	-0.0339253	-0.738525	-0.729248	0.163818	0.982463	-0.0473052	-0.155812	-0.0908394	3.65841	-1.145	10.362	0.0124925	0.026329	-0.0898357	-0.0224609	0.113281	-1.06909	0.575012	-0.0245496	-0.817747	-0.00692915	9.10597	-0.323418	-3.07319	-0.131637	0.00156912	-0.026434	-1.15186	0.0119629	0.0959473	0.261578	-0.285807	-0.659213	-0.64446	6.95495	7.004	-0.717093	-0.142659	0.0284038	-0.00915382	-0.99707	-0.411621	0.0361328	0.275448	-0.32922	-0.581135	-0.691393	7.89127	5.96519	0.863084	-0.122881	-0.10418	0.00600806	-1.0647	-0.310059	-0.0478516	
71	0.185576	0.250477	-0.16769	-0.935256	-3.66338	5.02665	8.8497	0.0048826	-0.0342026	-0.0564405	0.158203	-0.29126	-1.02417	0.168725	-0.00132715	-0.709633	-0.68407	2.24418	9.49442	-0.148447	-0.0866035	-0.135226	0.0247625	-0.439209	-0.97583	-0.0976562	0.66621	-0.0478494	-0.737574	-0.0992992	9.52711	0.30938	-1.19777	0.288317	-0.0421106	0.112658	-1.13306	-0.164795	-0.234619	0.517601	0.436966	-0.53456	0.505367	9.56419	-1.11203	0.330559	-0.030035	0.134384	0.0376192	-1.13159	-0.221191	-0.00927734	0.164406	0.710935	0.17515	-0.660957	-9.83477	-0.446029	-1.22177	0.0172626	-0.011514	-0.00755611	0.998779	0.17334	-0.24707	0.410728	0.595466	0.417461	-0.549955	-9.33019	0.672394	1.60431	0.129804	-0.0151891	0.0345471	0.968018	0.265381	-0.0688477	0.125187	-0.210731	-0.727579	-0.640742	4.30957	8.43192	-1.91864	-0.210454	-0.0584677	-0.00995123	-0.740479	-0.731445	0.155273	0.982456	-0.0469123	-0.155379	-0.0918542	3.60607	-1.49379	10.4214	0.0239035	0.0573	-0.106239	-0.0246582	0.115479	-1.06689	0.574792	-0.0261592	-0.817855	-0.00651599	8.92757	-0.579774	-3.16601	0.00653929	0.00317791	0.0415627	-1.14966	0.0187988	0.0981445	0.260737	-0.286844	-0.658401	-0.645171	6.87838	6.68789	-0.497682	-0.0302756	-0.0339469	0.0092752	-0.992432	-0.413818	0.0385742	0.276381	-0.328425	-0.584131	-0.68887	7.56942	6.28819	0.85375	0.225752	0.00774601	-0.0163121	-1.06006	-0.314453	-0.0385742	
72	0.183595	0.249329	-0.167517	-0.935984	-3.89621	4.82231	8.77293	0.0182236	-0.098012	-0.109589	0.153809	-0.289062	-1.02417	0.166486	-0.00401038	-0.710233	-0.683985	2.55364	9.56423	-0.467704	-0.00215926	-0.0930687	-0.0263235	-0.449951	-0.978027	-0.0930176	0.666076	-0.0499818	-0.737926	-0.0964845	9.4699	1.32854	-0.745783	-0.113756	-0.021098	0.108716	-1.1333	-0.154053	-0.230225	0.520216	0.434291	-0.535621	0.503862	9.75332	-1.18839	0.257398	-0.157628	0.0620471	-0.00979107	-1.13599	-0.223389	-0.0112305	0.161497	0.711576	0.171676	-0.661896	-9.60819	-0.0487844	-0.694335	0.374946	-0.0155022	0.0267045	0.992676	0.164551	-0.244629	0.411804	0.595344	0.415762	-0.550567	-9.52816	0.468171	1.53566	0.108036	-0.027276	0.0425641	0.970459	0.26123	-0.0708008	0.120452	-0.215325	-0.726618	-0.641212	4.16093	8.60768	-1.21113	-0.0347382	-0.364795	0.00594325	-0.729736	-0.731445	0.163818	0.98232	-0.0463723	-0.155366	-0.0935878	3.44877	-1.41765	10.2855	-0.0486234	0.0019853	-0.0500601	-0.0244141	0.111084	-1.06445	0.574699	-0.0267666	-0.817893	-0.00746897	8.83056	-0.833473	-3.22611	-0.0889233	-0.00517677	-0.0257287	-1.14941	0.0144043	0.0915527	0.260185	-0.287289	-0.657429	-0.646185	6.88929	6.53064	-0.382446	-0.0599289	0.0188618	0.00261904	-0.996826	-0.418213	0.0341797	0.276764	-0.328305	-0.583524	-0.689287	7.61233	5.97179	1.03879	-0.0658866	0.0348303	0.0112479	-1.0647	-0.312256	-0.0478516	
73	0.179288	0.247556	-0.168451	-0.937121	-3.60088	5.12159	8.75108	0.0648377	-0.110429	-0.178553	0.151367	-0.287109	-1.02197	0.16448	-0.00565423	-0.710547	-0.684132	2.5259	9.47655	-0.375538	-0.0147786	-0.0952461	-0.022846	-0.443604	-0.97583	-0.0859375	0.665182	-0.05605	-0.737621	-0.10152	9.71495	0.167541	-0.69653	-0.301947	-0.030441	0.026741	-1.12915	-0.149658	-0.230469	0.521851	0.43253	-0.536141	0.503133	9.79565	-0.930191	0.402385	-0.0797071	0.0433567	0.00158776	-1.12744	-0.214355	-0.0202637	0.159351	0.712183	0.167386	-0.662861	-9.5894	0.0457668	-0.844591	0.148372	-0.00922438	0.048344	1.00366	0.162354	-0.249268	0.411509	0.596056	0.412023	-0.552825	-9.34947	1.16359	1.66797	0.138215	-0.0509317	0.0552437	0.9729	0.250244	-0.0812988	0.118374	-0.217944	-0.725053	-0.642484	4.14989	8.65218	-1.89488	-0.0992612	-0.0479184	0.0247694	-0.73877	-0.725098	0.163574	0.982279	-0.0465637	-0.154984	-0.094554	3.56554	-1.54614	10.184	0.0379506	0.0263445	-0.0794218	-0.0266113	0.108887	-1.06909	0.574675	-0.0274595	-0.817885	-0.00769762	8.7711	-1.15843	-3.34729	0.235433	-0.0091502	0.010094	-1.15186	0.0166016	0.09375	0.260927	-0.287069	-0.656902	-0.64652	7.0532	6.82282	-0.24153	-0.00815966	0.0502839	0.0289236	-0.99707	-0.407227	0.0361328	0.277779	-0.327518	-0.582749	-0.689909	7.46912	6.12886	1.03112	-0.0464732	0.0754853	0.0143501	-1.0625	-0.312256	-0.0432129	
74	0.174349	0.245953	-0.168308	-0.9385	-3.56963	5.52249	8.6866	0.00184439	-0.108734	-0.199549	0.151855	-0.293457	-1.02856	0.163072	-0.00670116	-0.710981	-0.68401	2.55414	9.54156	-0.24962	-0.00409334	-0.0316934	-0.0239723	-0.443359	-0.980225	-0.0881348	0.665036	-0.05784	-0.737202	-0.104472	9.71322	0.214333	-0.629402	-0.137944	0.0315612	-0.0445597	-1.13135	-0.147461	-0.235107	0.522426	0.432026	-0.536634	0.502443	9.67794	-0.626867	0.589996	-0.08698	0.00548081	-0.0138107	-1.12939	-0.218994	-0.0158691	0.159091	0.712541	0.163984	-0.663389	-9.50316	0.946978	-0.49163	0.029964	-0.0204737	0.0812633	0.997559	0.153564	-0.249268	0.413103	0.595318	0.411587	-0.552755	-9.36843	0.835788	1.65795	-0.00856894	-0.0422768	0.0602112	0.972656	0.256836	-0.0837402	0.118374	-0.217944	-0.725053	-0.642484	4.14989	8.65218	-1.89488	-0.0992612	-0.0479184	0.0247694	-0.73877	-0.725098	0.163574	0.98211	-0.0454838	-0.155993	-0.0951721	3.77039	-1.01186	10.2896	0.00790089	-0.0193623	-0.0583155	-0.0219727	0.104492	-1.06445	0.574489	-0.0263425	-0.818069	-0.00564317	8.57806	-0.354159	-3.30653	0.187536	-0.0236435	-0.000711332	-1.1521	0.0209961	0.0913086	0.261505	-0.28695	-0.656157	-0.647095	6.76541	6.93152	-0.259264	-0.0486549	0.0757584	0.0301831	-0.990479	-0.409424	0.0339355	0.278385	-0.327472	-0.580184	-0.691846	7.28179	6.09842	0.91727	-0.0762511	0.0638016	0.0172832	-1.0647	-0.310059	-0.0500488	
75	0.172506	0.245137	-0.167724	-0.939158	-3.53684	5.41413	8.7032	-0.0254544	-0.0927299	-0.165319	0.147217	-0.289062	-1.02856	0.163087	-0.00681825	-0.710905	-0.684084	2.51969	9.44193	-0.26083	-0.019178	0.00957427	-0.0124242	-0.443604	-0.978027	-0.0905762	0.665477	-0.0576083	-0.73663	-0.105818	9.57729	0.405245	-0.676569	-0.0654881	0.0639486	-0.0799656	-1.12915	-0.149658	-0.235107	0.523354	0.431933	-0.537845	0.500258	9.73216	-0.946261	0.697594	-0.0762538	-0.0341499	-0.0440664	-1.13574	-0.227783	-0.0178223	0.160678	0.712518	0.164081	-0.663006	-9.65992	0.614733	-0.558236	-0.0953472	0.00844504	0.0688421	0.999512	0.155762	-0.249268	0.414754	0.595384	0.409039	-0.553338	-9.40611	0.946075	1.78105	0.0574795	-0.0569394	0.0854552	0.975342	0.246094	-0.0791016	0.111997	-0.22358	-0.722831	-0.644193	4.35614	8.14661	-1.32253	-0.0738237	-0.168	0.00760848	-0.736084	-0.733643	0.170166	0.981997	-0.0464206	-0.156112	-0.0956924	3.56439	-1.31581	10.2894	-0.0717503	0.000797462	-0.054566	-0.0310059	0.113281	-1.06689	0.574783	-0.024494	-0.81794	2.01004e-05	9.19123	-0.297376	-2.66183	0.259392	-0.0113147	0.0563102	-1.15698	0.0231934	0.0935059	0.262553	-0.286323	-0.654708	-0.648415	6.5922	6.33549	-0.175084	-0.038538	0.0760031	0.0128221	-0.999268	-0.409424	0.0270996	0.278178	-0.327551	-0.579019	-0.692867	7.29348	6.32219	0.799629	-0.116564	0.0448238	-0.00389058	-1.07397	-0.303711	-0.050293	
76	0.172649	0.242907	-0.165301	-0.94014	-3.7134	5.1939	9.04523	-0.100511	-0.0538897	0.0661404	0.146973	-0.282715	-1.02441	0.163413	-0.00727039	-0.711014	-0.683888	2.41558	9.2904	-0.075605	0.00159858	0.0137867	0.0127079	-0.445557	-0.978027	-0.0859375	0.66513	-0.0586271	-0.736575	-0.10781	9.54523	0.82115	-0.602495	-0.126688	-0.030544	-0.0196977	-1.1355	-0.153809	-0.234863	0.523779	0.431784	-0.53899	0.498707	9.65979	-1.00712	0.274446	-0.0415012	-0.0389663	-0.0140542	-1.13574	-0.227783	-0.0134277	0.161407	0.713372	0.162551	-0.662288	-9.44812	0.300665	-0.729744	0.0563575	0.0452192	0.0501896	0.993408	0.146973	-0.249268	0.416753	0.594666	0.408418	-0.553068	-9.25822	1.05676	1.91302	-0.0358003	-0.0556251	0.090649	0.973145	0.243896	-0.0854492	0.110333	-0.226476	-0.722684	-0.643633	4.3874	8.29928	-1.29805	-0.0248512	-0.0588664	0.0342369	-0.734131	-0.729248	0.174316	0.982225	-0.0467829	-0.15518	-0.0946838	3.56749	-1.22562	10.5424	0.0181123	0.0413958	0.033694	-0.0244141	0.111084	-1.06689	0.57466	-0.0233923	-0.818057	-0.000573333	9.2179	-1.25983	-3.32622	0.0814746	0.00658579	-0.0865236	-1.1521	0.0187988	0.09375	0.263399	-0.285876	-0.655388	-0.647582	7.0017	6.57235	0.127966	0.0958992	0.033449	0.0160385	-0.995117	-0.405029	0.0292969	0.276251	-0.32899	-0.574037	-0.697089	7.80002	6.31429	1.47698	-0.101368	0.0254122	-0.00436012	-1.0625	-0.312256	-0.0568848	
77	0.174405	0.241321	-0.164684	-0.940333	-3.55614	5.0206	9.15896	-0.102679	-0.0937488	0.120853	0.146729	-0.280518	-1.03296	0.164083	-0.00780422	-0.711813	-0.68289	2.71305	9.58274	0.00165506	0.0504518	0.0271205	0.0133606	-0.445801	-0.973633	-0.0837402	0.664327	-0.0610099	-0.736384	-0.112632	9.67131	0.588453	-0.468858	-0.175814	-0.0178993	-0.0724265	-1.12915	-0.151855	-0.228027	0.523289	0.43219	-0.540729	0.496984	9.88691	-0.854946	0.543686	-0.0635946	-0.0814474	0.00688657	-1.1272	-0.221191	-0.00708008	0.161607	0.713914	0.161797	-0.66184	-9.79684	0.460088	-0.425906	-0.00355025	0.0318201	0.028722	0.993164	0.14917	-0.249268	0.418531	0.594358	0.408753	-0.551807	-9.47179	1.20862	1.76619	-0.0600897	0.0613781	-0.0109866	0.973389	0.241699	-0.0810547	0.109321	-0.228276	-0.722869	-0.642961	4.43437	8.70632	-1.27335	0.0488492	-0.124571	0.00465111	-0.736084	-0.733643	0.176758	0.982422	-0.046733	-0.154753	-0.0933553	3.57028	-1.1	10.3735	0.0438033	0.0428314	0.0276144	-0.0244141	0.108887	-1.07153	0.575223	-0.0199164	-0.817748	0.00312355	9.17556	-0.142233	-2.69376	0.134731	-0.0124493	-0.0503238	-1.15894	0.0187988	0.0935059	0.264273	-0.285686	-0.656118	-0.64657	7.24224	7.29221	-0.118935	0.04993	0.00198761	0.0149768	-1.00171	-0.407227	0.0270996	0.275498	-0.329618	-0.572613	-0.69826	7.85209	6.34559	1.73675	-0.164575	-0.00133306	-0.00519299	-1.06494	-0.303467	-0.0571289	
78	0.178621	0.237778	-0.163456	-0.940658	-3.34933	4.48448	8.99718	-0.112248	-0.0988628	0.158104	0.135498	-0.276367	-1.02881	0.164983	-0.00655438	-0.711725	-0.682777	2.76118	9.57217	-0.134972	-0.00996361	0.0860021	-0.0363263	-0.443359	-0.982422	-0.083252	0.663454	-0.0615829	-0.736796	-0.114753	9.69101	0.336524	-0.295028	-0.033881	-0.0298362	-0.0313964	-1.1355	-0.151855	-0.234863	0.521984	0.432936	-0.541715	0.496632	9.75853	-0.595316	0.0346311	0.0665205	-0.0732356	0.0184494	-1.12695	-0.227783	-0.00463867	0.163734	0.713199	0.164978	-0.661303	-9.9363	0.244772	-0.602548	-0.169371	0.0157386	-0.0857877	1.00171	0.157959	-0.244629	0.41997	0.592714	0.410372	-0.55128	-9.6847	0.968558	1.72753	-0.036738	0.0216399	-0.0429088	0.973145	0.248047	-0.0812988	0.107718	-0.229154	-0.722617	-0.643204	4.83213	8.38924	-1.54138	-0.0097393	0.0152691	-0.0429383	-0.734131	-0.731445	0.178711	0.982782	-0.0440254	-0.154157	-0.0918554	3.48376	-0.931576	10.6822	0.128866	0.049967	-0.00657443	-0.0175781	0.102295	-1.06421	0.57541	-0.022404	-0.817554	-0.00243306	9.50341	-0.878925	-3.28354	-0.296328	0.0323713	-0.0530261	-1.1521	0.0212402	0.0891113	0.264094	-0.285127	-0.656136	-0.646872	7.60137	6.97253	-0.168024	0.00594674	0.0209464	-0.0202492	-1.00171	-0.407227	0.0314941	0.27539	-0.32953	-0.574481	-0.696808	8.00632	5.93481	1.37015	0.16145	-0.0383808	-0.020154	-1.06006	-0.312256	-0.059082	
79	0.181312	0.236559	-0.163167	-0.940501	-3.32147	4.36557	8.92994	-0.0430201	-0.0257455	0.0988104	0.133301	-0.27417	-1.02881	0.165838	-0.00485542	-0.712024	-0.682272	2.44654	9.91242	-0.0302378	0.0334897	0.0722878	-0.044402	-0.443604	-0.97583	-0.0859375	0.663866	-0.0578835	-0.736721	-0.114777	9.87098	1.16802	-0.547166	0.0605345	0.0572837	-0.114879	-1.1311	-0.164795	-0.239258	0.521532	0.43325	-0.543248	0.495157	9.88065	-0.460735	0.797594	-0.0794736	-0.0574601	-0.0194971	-1.13599	-0.221191	-0.00268555	0.165423	0.712855	0.166757	-0.660806	-9.76919	0.405639	-0.760905	-0.0780976	0.0221094	-0.0116722	0.999756	0.151367	-0.244629	0.421008	0.591405	0.41203	-0.550657	-9.37531	0.806183	1.78182	-0.128346	0.038852	-0.0640423	0.975586	0.241699	-0.0788574	0.107171	-0.228899	-0.722444	-0.643579	4.14324	8.92286	-1.46731	-0.0595513	-0.0495533	-0.0199806	-0.734375	-0.727295	0.176514	0.982823	-0.0415043	-0.154648	-0.0917635	3.4132	-1.09221	10.4332	0.119072	-0.0071577	-0.0190592	-0.0195312	0.0981445	-1.07129	0.575455	-0.0202529	-0.817583	0.000551893	8.82163	-0.584475	-3.0277	0.186334	-0.0202301	-0.0471052	-1.14941	0.0144043	0.0915527	0.264374	-0.284841	-0.656919	-0.646088	6.84429	6.56888	-0.270757	0.0576733	0.019256	-0.00237732	-0.999512	-0.407227	0.0246582	0.275441	-0.329478	-0.577315	-0.694467	7.64604	5.95986	1.2419	0.125421	-0.0502828	-0.0173798	-1.0603	-0.307861	-0.0500488	
80	0.182264	0.237827	-0.161982	-0.940202	-3.65777	4.66962	8.83379	-0.0471199	0.084323	-0.0100561	0.14209	-0.273926	-1.03101	0.167234	-0.00238087	-0.710945	-0.683069	2.29918	9.572	-0.0223965	-0.0667968	0.137333	-0.055452	-0.434814	-0.978027	-0.0881348	0.665375	-0.0569992	-0.735215	-0.116132	9.7222	0.436185	-0.772949	0.0767771	0.0927414	-0.0562079	-1.12451	-0.167236	-0.236816	0.521461	0.434335	-0.543307	0.494217	9.89842	-0.909411	0.494392	0.00724994	-0.0206814	-0.0385289	-1.12891	-0.22998	0.00195312	0.165864	0.712577	0.167827	-0.660725	-9.94921	0.545987	-0.542649	-0.0826649	0.00627572	-0.0557472	0.999512	0.155762	-0.244629	0.420908	0.591059	0.413795	-0.549782	-9.43594	1.00077	1.73793	0.0184283	0.0534541	-0.00458056	0.971191	0.243896	-0.074707	0.104793	-0.230632	-0.723208	-0.642493	4.40973	8.20664	-1.48915	0.0894491	-0.0868365	-0.0301066	-0.731934	-0.731445	0.189453	0.982859	-0.040576	-0.155075	-0.0910707	3.60457	-1.13284	10.4067	0.0245114	0.018454	-0.0080054	-0.0197754	0.100098	-1.06421	0.575492	-0.0197582	-0.817568	0.000509898	9.38063	-0.667064	-3.00063	-0.0900674	0.0235055	-0.0322888	-1.15186	0.0119629	0.0871582	0.265433	-0.284402	-0.6569	-0.645867	6.80354	6.73141	-0.0590943	-0.00680975	0.0240422	0.0274678	-0.997559	-0.398438	0.0244141	0.275927	-0.328963	-0.578259	-0.693732	7.38372	6.5193	1.07244	0.00589235	0.0035157	-0.00862597	-1.05811	-0.310059	-0.0478516	
81	0.183595	0.240301	-0.16009	-0.939638	-3.90536	4.67582	9.09607	-0.061873	0.11691	0.00655369	0.139893	-0.271729	-1.03735	0.167749	-0.00115141	-0.710499	-0.683411	2.30051	9.48951	0.0250967	-0.0144718	0.0459943	-0.0467946	-0.438965	-0.982422	-0.0927734	0.666709	-0.0550287	-0.734273	-0.115387	9.41962	1.25717	-0.497884	-0.0273793	0.0538142	-0.000751536	-1.13086	-0.169189	-0.239014	0.521855	0.434479	-0.543438	0.493529	9.71329	-1.12247	0.307903	-0.0391674	-0.0126666	-0.0456301	-1.12915	-0.227783	-0.00244141	0.163875	0.714198	0.169043	-0.659159	-9.51937	0.617969	-0.920826	0.00155624	0.0729517	-0.0430767	0.997314	0.157959	-0.240234	0.421199	0.590787	0.415857	-0.548293	-9.10036	0.516127	1.3722	0.0246689	0.122853	-0.0343056	0.975342	0.248047	-0.0683594	0.103601	-0.232384	-0.723804	-0.641383	4.01173	8.70866	-1.36682	0.0248175	-0.124356	0.00985221	-0.727783	-0.729248	0.191406	0.9829	-0.0400466	-0.155404	-0.0902961	3.61478	-0.849701	10.4188	0.0404218	-0.000362728	0.00669054	-0.0217285	0.0959473	-1.07129	0.575492	-0.0197582	-0.817568	0.000509898	9.38063	-0.667064	-3.00063	-0.0900674	0.0235055	-0.0322888	-1.15186	0.0119629	0.0871582	0.265615	-0.284436	-0.656649	-0.646031	6.83859	6.71929	-0.31413	-0.0136256	0.0270369	0.0146395	-0.997314	-0.407227	0.0246582	0.274586	-0.330147	-0.576509	-0.695157	7.60569	5.80159	0.99343	-0.0222255	-0.0151005	-0.00851401	-1.05347	-0.312256	-0.0500488	
82	0.185369	0.240702	-0.158893	-0.93939	-3.77887	4.51741	9.05065	-0.0535545	0.0215589	0.0589716	0.14624	-0.267334	-1.03101	0.168629	0.000534621	-0.710196	-0.68351	2.42475	9.3235	0.0962446	-0.00665858	0.0847161	-0.036608	-0.437012	-0.978027	-0.0930176	0.666819	-0.0553225	-0.733998	-0.116358	9.46184	0.833944	-0.561015	-0.0695518	0.0225879	-0.0333272	-1.12451	-0.165039	-0.236816	0.521734	0.435174	-0.543213	0.493292	9.72386	-1.28782	0.0984661	0.0464677	-0.004381	-0.00843038	-1.12866	-0.234375	-0.00683594	0.162635	0.714626	0.171463	-0.658377	-9.67373	-0.506322	-0.760387	0.0738201	0.0677776	-0.111079	1.00146	0.162354	-0.237793	0.420341	0.591689	0.415802	-0.54802	-9.38537	0.841042	1.27941	0.125154	0.126289	-0.00674743	0.9729	0.250244	-0.0749512	0.10253	-0.233457	-0.724155	-0.640769	4.28617	8.29805	-1.04878	0.0420241	-0.119542	-0.00823517	-0.731934	-0.729492	0.193604	0.982875	-0.0400071	-0.155647	-0.0901729	3.62422	-0.97275	10.3291	0.0150305	-0.0026808	-0.0154178	-0.026123	0.0981445	-1.06885	0.575304	-0.0162048	-0.817764	0.00499353	8.88528	-0.422498	-3.03579	0.135511	-0.0233527	-0.0183141	-1.14941	0.0141602	0.0959473	0.266209	-0.284004	-0.657427	-0.645185	6.96897	6.88991	-0.431119	0.0673671	-0.000559109	0.0133143	-0.99707	-0.409424	0.0292969	0.274951	-0.329617	-0.577245	-0.694653	7.61352	6.52138	0.954334	-0.0145769	0.00809806	-0.00391562	-1.05566	-0.314453	-0.0478516	
83	0.186922	0.24107	-0.158605	-0.939037	-3.70576	4.38057	9.07911	-0.0391814	0.0561945	0.0942169	0.144043	-0.269531	-1.03516	0.168762	0.00102716	-0.71034	-0.683327	2.32985	9.52956	0.172025	0.0157103	0.0465871	-0.037319	-0.436768	-0.982422	-0.090332	0.666618	-0.0536188	-0.734282	-0.116512	9.63525	1.14665	-0.556004	0.0884665	-0.0155392	-0.0452374	-1.12866	-0.173584	-0.239014	0.521037	0.435771	-0.542765	0.493994	9.71867	-0.948956	0.0259575	0.10137	-0.00594006	0.0154985	-1.12891	-0.232178	0.00195312	0.161251	0.715267	0.171473	-0.658019	-9.53363	-0.0950525	-0.742689	0.0878298	0.0813746	-0.0742266	0.99707	0.164551	-0.233154	0.420545	0.590547	0.418843	-0.546779	-9.17892	0.87494	1.20361	-0.0971961	0.0976833	-0.112564	0.968506	0.256836	-0.0664062	0.102479	-0.233124	-0.725394	-0.639496	4.10583	8.67022	-1.3901	0.0348662	0.0236828	-0.0239145	-0.729736	-0.731445	0.195801	0.98281	-0.0413578	-0.1559	-0.0898283	3.58628	-1.14386	10.5835	-0.0408665	0.016937	0.0165865	-0.0239258	0.0981445	-1.06665	0.575186	-0.015742	-0.81784	0.00710486	9.56775	-0.30457	-2.607	0.051483	0.004457	0.00803467	-1.15649	0.0163574	0.0981445	0.266137	-0.284343	-0.657632	-0.644857	6.93171	6.6982	-0.339723	0.00264396	-0.0122845	0.000922743	-0.999512	-0.402832	0.0246582	0.274263	-0.330392	-0.575463	-0.696034	7.60485	6.24353	1.01313	-0.195704	0.00673111	0.01067	-1.06006	-0.312256	-0.0478516	
84	0.189036	0.241727	-0.158716	-0.938426	-3.54212	4.48471	8.98347	0.00229673	0.0394143	0.048636	0.145996	-0.265137	-1.03735	0.168929	0.00343145	-0.71026	-0.683361	2.44008	9.48464	0.0850751	-0.00806865	0.0996409	-0.0884939	-0.432373	-0.982422	-0.0952148	0.66664	-0.0557406	-0.733976	-0.117314	9.65362	0.633359	-0.257539	-0.0959886	0.00560225	0.0416235	-1.12671	-0.169189	-0.241455	0.520703	0.436165	-0.542547	0.494238	9.82011	-0.834606	0.0903828	0.0382401	0.0140524	0.00216171	-1.1333	-0.232178	0.00415039	0.166225	0.713242	0.177925	-0.657266	-9.70439	0.226777	-0.796803	-0.49211	-0.0371847	-0.0936741	0.992432	0.171143	-0.233398	0.421551	0.58693	0.424096	-0.545849	-9.4401	0.511989	1.08987	-0.159045	0.0420411	-0.150806	0.9729	0.254639	-0.0600586	0.10016	-0.234255	-0.726339	-0.638376	4.51556	8.22959	-1.25675	0.0483484	-0.0730905	-0.0563695	-0.727783	-0.729492	0.202148	0.982852	-0.0429248	-0.155336	-0.0896136	3.50949	-1.02957	10.6997	-0.070647	0.0404295	-0.0182492	-0.0239258	0.100342	-1.07129	0.575596	-0.0197021	-0.817494	0.0021859	9.49156	-0.238837	-3.02318	-0.298288	0.0393389	0.012804	-1.1499	0.0234375	0.0935059	0.265319	-0.285309	-0.658257	-0.644129	7.18613	6.55865	-0.158303	0.0280121	-0.066858	0.00887055	-0.99292	-0.400635	0.0383301	0.273596	-0.331332	-0.573686	-0.697316	7.87251	5.90162	1.18796	-0.0574906	-0.000193097	0.00390475	-1.06006	-0.312256	-0.0500488	
85	0.191465	0.24349	-0.15821	-0.937562	-3.72551	4.31161	9.03285	-0.0195051	0.0994688	0.0682649	0.148438	-0.267334	-1.03101	0.169044	0.00335328	-0.710465	-0.683119	2.47194	9.40941	0.00499336	0.0159943	-0.0132686	0.00389931	-0.436768	-0.984619	-0.0927734	0.666274	-0.0541716	-0.734638	-0.115977	9.64326	0.973125	-0.423233	0.138802	-0.0276752	-0.0165466	-1.12646	-0.171387	-0.239014	0.519578	0.436913	-0.542213	0.495126	9.92126	-0.385963	0.765217	0.0178235	-0.00308131	0.0248326	-1.12915	-0.225586	0.00854492	0.166593	0.712456	0.180968	-0.657194	-9.80496	-0.881858	-1.09087	0.128258	-0.00445341	-0.0757931	0.998535	0.177734	-0.237793	0.421013	0.584546	0.427442	-0.546211	-9.35458	0.213203	1.09466	0.00298915	0.0594702	-0.1562	0.974854	0.256836	-0.0556641	0.101818	-0.231353	-0.72655	-0.638932	4.13119	8.55949	-1.41897	-0.0208879	0.134695	-0.0531597	-0.723145	-0.73584	0.195801	0.9828	-0.0433265	-0.155483	-0.0897289	3.52355	-1.13384	10.354	0.0236534	0.0135139	-0.00693289	-0.0217285	0.100342	-1.06665	0.575498	-0.0221011	-0.817504	0.000432676	9.18566	-0.378739	-2.9415	-0.061438	-0.00629954	0.00887418	-1.15454	0.0209961	0.0913086	0.265158	-0.285977	-0.658877	-0.643264	7.28002	7.19932	0.0604221	0.0281262	0.00813367	0.0135484	-0.999268	-0.409424	0.0314941	0.273133	-0.331525	-0.5751	-0.69624	7.64004	6.26856	1.6222	0.0658118	-0.0559068	-0.0201443	-1.06494	-0.307861	-0.0500488	
