40	Head	00b4120a												Throax	00b411e8												LUpArm	00b411d9												LFoArm	00b41148												RUpArm	00b411db												RFoArm	00b41204												Waist	00b411f7												Lthigh	00b411f4												Lshank	00b4111b												Rthigh	00b411c8												Rshank	00b411ee												
PacketCount	q0	q1	q2	q3	accX	accY	accZ	gyrX	gyrY	gyrZ	magX	magY	magZ	q0	q1	q2	q3	accX	accY	accZ	gyrX	gyrY	gyrZ	magX	magY	magZ	q0	q1	q2	q3	accX	accY	accZ	gyrX	gyrY	gyrZ	magX	magY	magZ	q0	q1	q2	q3	accX	accY	accZ	gyrX	gyrY	gyrZ	magX	magY	magZ	q0	q1	q2	q3	accX	accY	accZ	gyrX	gyrY	gyrZ	magX	magY	magZ	q0	q1	q2	q3	accX	accY	accZ	gyrX	gyrY	gyrZ	magX	magY	magZ	q0	q1	q2	q3	accX	accY	accZ	gyrX	gyrY	gyrZ	magX	magY	magZ	q0	q1	q2	q3	accX	accY	accZ	gyrX	gyrY	gyrZ	magX	magY	magZ	q0	q1	q2	q3	accX	accY	accZ	gyrX	gyrY	gyrZ	magX	magY	magZ	q0	q1	q2	q3	accX	accY	accZ	gyrX	gyrY	gyrZ	magX	magY	magZ	q0	q1	q2	q3	accX	accY	accZ	gyrX	gyrY	gyrZ	magX	magY	magZ	
0	0.965752	-0.011543	0.25566	0.0427468	-5.07703	-0.166415	9.68444	0.00285064	0.0408072	0.0381987	0.883545	-0.0371094	-0.653076	0.791605	-0.00862671	-0.609527	0.0419878	9.61623	-0.797621	2.58351	-0.0064201	0.0390154	-0.0200553	-0.77832	-0.102295	-0.533203	0.835935	0.192177	-0.454552	0.240129	8.80488	1.09534	5.35756	0.0532375	0.0166716	0.00176677	-0.853516	-0.393799	-0.713135	0.851281	0.028474	-0.520326	0.0614062	8.73765	-0.117233	4.51031	0.00383747	0.0138714	-0.00693176	-0.946045	-0.0761719	-0.976318	0.816351	-0.22967	-0.52118	-0.0958937	8.88621	-2.68584	3.53713	0.0110229	0.00389145	-0.0125779	-0.697754	0.371338	-0.70752	0.909586	0.12692	-0.314865	0.239592	8.33851	0.127123	8.94792	-0.000173463	0.014869	-0.0155441	-0.633301	-0.17627	-0.971436	0.450877	0.156557	-0.874773	0.0835008	7.85375	-0.282889	-5.28859	-0.020416	-0.0209437	-0.0156417	-1.03174	-0.152832	0.40918	0.016864	0.0399876	-0.998394	0.036415	0.141762	-0.576708	-8.42754	0.002184	0.0139296	-0.0161158	-0.38501	0.110352	0.997314	-0.196193	0.254263	-0.864373	0.386935	-1.33525	-7.21702	-5.74826	0.00184089	0.00175606	-0.0142844	-0.247314	0.876221	0.569092	0.0361858	0.0272207	-0.998945	-0.00764647	0.698797	0.343053	-9.046	0.00458553	0.0103311	0.001258	-0.550781	-0.0500488	1.02515	-0.0928769	0.0895083	-0.988011	-0.0848312	-1.85177	1.34968	-9.48267	0.00347449	0.00181886	-0.00334094	-0.254395	-0.1875	1.20166	
1	0.965482	-0.0112406	0.25666	0.0429312	-5.09593	-0.0839261	9.62716	0.00836165	0.0394563	0.00284445	0.883545	-0.0371094	-0.655273	0.792172	-0.00862819	-0.608784	0.0420924	9.5539	-0.765726	2.60922	-0.0119275	0.0521849	-0.0150106	-0.77832	-0.100098	-0.540283	0.835899	0.192812	-0.454201	0.240411	8.78724	0.829439	5.31809	0.0341671	0.0129931	-0.00760696	-0.855713	-0.391602	-0.710938	0.85135	0.0283729	-0.520206	0.0615092	8.74256	-0.169436	4.51055	-0.0014002	0.0119979	0.00438613	-0.943848	-0.0761719	-0.965332	0.816393	-0.229548	-0.52123	-0.0955452	8.83713	-2.75786	3.39536	0.0297388	0.00862091	-0.00192711	-0.706543	0.373535	-0.702881	0.909576	0.127231	-0.314888	0.239437	8.35265	0.0685503	8.92613	0.016303	0.0105194	-0.0300652	-0.635498	-0.17627	-0.97583	0.450163	0.156481	-0.875193	0.0830918	7.81818	-0.276511	-5.16694	0.0154671	-0.0240687	-0.0126769	-1.03174	-0.150879	0.415527	0.0167109	0.0399577	-0.998398	0.0364119	0.145251	-0.56767	-8.43554	0.00643143	0.012473	-0.0163499	-0.387207	0.110352	0.995117	-0.196333	0.254341	-0.864164	0.38728	-1.37284	-7.20906	-5.83357	0.0367413	-0.00383314	-0.020857	-0.242432	0.874023	0.566895	0.0361099	0.02718	-0.998948	-0.00772213	0.706214	0.349787	-9.04872	-0.00121825	0.00515556	0.000693856	-0.548096	-0.0588379	1.02759	-0.0928137	0.0894588	-0.988015	-0.0849118	-1.81096	1.36874	-9.4922	-0.00193661	0.0107228	-0.00694816	-0.249756	-0.187256	1.19238	
2	0.965281	-0.0116379	0.257493	0.0423597	-5.0765	-0.0175306	9.58038	-0.0121116	0.0374816	-0.0281438	0.883545	-0.0371094	-0.651123	0.792607	-0.00842958	-0.608211	0.0422215	9.54538	-0.779702	2.62352	-0.00390473	0.0376135	-0.0217993	-0.77417	-0.0959473	-0.542725	0.835785	0.193643	-0.453591	0.241291	8.73255	1.13642	5.34691	0.040023	0.0244456	0.0125336	-0.846924	-0.406982	-0.710449	0.851427	0.0283916	-0.520095	0.0613812	8.7077	-0.192604	4.47908	-0.000327738	0.01618	-0.00990001	-0.939453	-0.0739746	-0.971924	0.816303	-0.229899	-0.521157	-0.09587	8.7838	-2.63352	3.49189	-0.0473291	0.00732334	-0.0196402	-0.693359	0.371338	-0.702881	0.909568	0.127252	-0.314853	0.239501	8.28866	0.119502	8.93445	-0.00425822	0.0190856	-0.0097515	-0.639893	-0.174072	-0.97583	0.44921	0.156709	-0.875647	0.0830375	7.79675	-0.280894	-5.27543	0.0223687	-0.0320591	-0.0190648	-1.03345	-0.159424	0.417969	0.0165944	0.0399556	-0.998398	0.036464	0.151515	-0.579074	-8.3996	0.00589315	0.0138984	-0.0167697	-0.38501	0.108154	0.997559	-0.196579	0.254333	-0.863941	0.387656	-1.33751	-7.16455	-5.77206	0.0447074	-0.00756782	-0.0209951	-0.242432	0.874023	0.5625	0.036062	0.0271771	-0.998949	-0.00786208	0.709388	0.349825	-9.04847	4.03487e-05	0.0100614	0.002268	-0.550537	-0.0544434	1.02515	-0.0927704	0.0892244	-0.98793	-0.0861769	-1.88276	1.20728	-9.54785	-0.0507139	-0.002878	0.00893834	-0.251709	-0.198486	1.19482	
3	0.965083	-0.0124771	0.258253	0.0419928	-5.11822	-0.0896667	9.67424	-0.0227051	0.0312854	-0.0206683	0.890137	-0.0371094	-0.650879	0.793192	-0.00853149	-0.607451	0.0421679	9.62413	-0.789207	2.58697	-0.0174588	0.0622206	-0.0196554	-0.771973	-0.0981445	-0.545166	0.835731	0.193929	-0.453388	0.241629	8.80705	0.955069	5.31999	0.00359799	0.00363263	-0.00492854	-0.853271	-0.404785	-0.715088	0.851544	0.0283111	-0.519923	0.0612551	8.78393	-0.170233	4.50677	-0.0170766	0.00629188	0.0048669	-0.941406	-0.0783691	-0.969727	0.816284	-0.23035	-0.520955	-0.0960482	8.86072	-2.83754	3.37846	-0.00810376	0.0128654	-0.00246569	-0.699951	0.371338	-0.702881	0.909673	0.126952	-0.314785	0.23935	8.34376	0.0441527	8.95488	-0.0156913	0.0209542	-0.0271542	-0.637695	-0.171875	-0.978027	0.447988	0.156685	-0.876297	0.0828239	7.8464	-0.291577	-5.31703	0.00324401	-0.058097	-0.00861643	-1.03174	-0.148682	0.417725	0.0164368	0.0399495	-0.998401	0.0364685	0.154885	-0.570585	-8.40756	0.00649134	0.0118382	-0.017702	-0.387207	0.105957	0.999756	-0.196862	0.254616	-0.863609	0.388065	-1.29606	-7.14685	-5.68133	0.00239538	0.00272556	-0.0209035	-0.244873	0.874023	0.569092	0.0359676	0.027146	-0.998952	-0.00797008	0.695862	0.338639	-9.0349	0.00159652	0.00717354	0.00109427	-0.54834	-0.0500488	1.02734	-0.0928821	0.0888426	-0.987865	-0.0871924	-1.85523	1.4377	-9.38346	-0.045934	-0.00318536	0.00950028	-0.251709	-0.198486	1.19727	
4	0.965044	-0.013525	0.258388	0.0417574	-5.17044	-0.0281188	9.59519	-0.0506095	0.00270979	-0.0132119	0.883545	-0.0349121	-0.655273	0.793764	-0.00905489	-0.606701	0.0420739	9.53333	-0.774018	2.64963	-0.0437152	0.0510292	-0.00784857	-0.776367	-0.0959473	-0.545166	0.835513	0.194372	-0.453221	0.24234	8.6705	0.883732	5.30372	0.0541937	0.00578852	0.0153043	-0.851074	-0.404785	-0.708252	0.851702	0.0283498	-0.519694	0.0609721	8.6558	-0.15029	4.47109	0.00578352	0.018213	-0.0128368	-0.939209	-0.0783691	-0.974121	0.816213	-0.231194	-0.520696	-0.0960263	8.85597	-2.61788	3.51846	-0.0704569	0.0130902	0.00100412	-0.699951	0.375732	-0.705322	0.90984	0.126658	-0.314567	0.239158	8.3404	0.149068	8.9595	-0.0210413	0.0297077	-0.0170539	-0.637695	-0.17627	-0.980225	0.446809	0.156429	-0.876983	0.0824141	7.73408	-0.254445	-5.24372	0.0148588	-0.0418663	-0.00340089	-1.03394	-0.150879	0.42627	0.0163143	0.0399489	-0.998404	0.0364207	0.138854	-0.575321	-8.41601	0.00376875	0.0129708	-0.0167023	-0.384766	0.10376	0.99292	-0.196668	0.25465	-0.864013	0.387242	-1.39264	-7.25356	-5.77938	-0.030521	0.00609213	-0.0132884	-0.240479	0.878662	0.569092	0.0359479	0.0271474	-0.998953	-0.00802419	0.702553	0.352942	-9.01926	0.00693849	0.00774697	0.00154502	-0.550537	-0.0522461	1.02515	-0.0929658	0.088795	-0.987902	-0.0867341	-1.82517	1.46696	-9.40677	0.034853	0.0104719	-0.0103613	-0.251953	-0.191895	1.19946	
5	0.964965	-0.0147732	0.25857	0.0420092	-5.09134	-0.142507	9.65696	-0.0545547	0.0177808	0.00328345	0.878906	-0.0307617	-0.644531	0.793788	-0.00948231	-0.606676	0.0418887	9.53444	-0.760868	2.59022	-0.0473097	0.0186082	-0.0103133	-0.767822	-0.09375	-0.545166	0.835406	0.194654	-0.45316	0.242594	8.76393	1.25159	5.36364	0.0291003	0.00217356	0.00346279	-0.851318	-0.402588	-0.710449	0.851751	0.0283631	-0.519619	0.0609285	8.73446	-0.0838411	4.54355	0.00267757	0.0123672	-0.00362704	-0.939209	-0.0783691	-0.976318	0.816213	-0.231478	-0.520562	-0.0960646	8.77406	-2.86858	3.33798	-0.0236197	0.016531	-0.00274395	-0.693604	0.375732	-0.702881	0.90984	0.126658	-0.314567	0.239158	8.3404	0.149068	8.9595	-0.0210413	0.0297077	-0.0170539	-0.637695	-0.17627	-0.980225	0.446383	0.156335	-0.877225	0.082326	7.72056	-0.262491	-5.28512	0.0120495	-0.0284511	-0.00592765	-1.03149	-0.152832	0.424072	0.0163143	0.0399489	-0.998404	0.0364207	0.138854	-0.575321	-8.41601	0.00376875	0.0129708	-0.0167023	-0.384766	0.10376	0.99292	-0.196605	0.254577	-0.864102	0.387124	-1.33688	-7.21935	-5.75975	-0.00491833	0.00853975	-0.0141237	-0.240479	0.878662	0.571289	0.0359479	0.0271474	-0.998953	-0.00802419	0.702553	0.352942	-9.01926	0.00693849	0.00774697	0.00154502	-0.550537	-0.0522461	1.02515	-0.0927825	0.0890972	-0.987979	-0.0857313	-1.83239	1.33524	-9.47028	0.0400069	0.0207489	-0.0243032	-0.25415	-0.191895	1.19946	
6	0.964928	-0.0152261	0.258623	0.0423837	-5.13873	-0.239177	9.54867	-0.00780879	-0.00516702	0.00981794	0.885498	-0.0327148	-0.655273	0.794245	-0.00959606	-0.606058	0.0421461	9.54946	-0.851036	2.69356	-0.000499585	0.0536437	-0.0137381	-0.77417	-0.0959473	-0.547607	0.835449	0.194705	-0.453043	0.242625	8.7841	0.917256	5.30219	0.0563064	0.0140782	-0.0063703	-0.851318	-0.402588	-0.710449	0.851844	0.0284234	-0.519466	0.0608986	8.76415	-0.194476	4.4815	0.0106171	0.0165589	-0.00536041	-0.94165	-0.0739746	-0.974121	0.816115	-0.232507	-0.520233	-0.0962017	8.75501	-2.89697	3.4691	-0.0252079	0.0172381	-0.000347145	-0.70459	0.380127	-0.698486	0.910271	0.126058	-0.313901	0.238711	8.27663	0.0811624	8.96655	0.00290188	0.0182042	-0.0252819	-0.637695	-0.174072	-0.980225	0.444537	0.156353	-0.878195	0.081939	7.75887	-0.31587	-5.34916	0.044102	-0.0869155	-0.0165194	-1.02954	-0.148682	0.42627	0.0162449	0.0401501	-0.998397	0.0364247	0.160847	-0.57242	-8.42219	0.00504928	0.0114447	-0.0178541	-0.382812	0.108154	0.992676	-0.19654	0.254511	-0.864331	0.386689	-1.30764	-7.16188	-5.80179	-0.0148737	0.00333341	-0.0145933	-0.244873	0.874023	0.569092	0.0358234	0.0271344	-0.998958	-0.00794977	0.697763	0.345188	-9.03919	0.00490438	0.00131587	0.000345532	-0.552734	-0.0544434	1.02979	-0.0926645	0.0891139	-0.988034	-0.0852075	-1.85132	1.37294	-9.51432	0.0108806	0.00867334	-0.00578328	-0.249756	-0.19165	1.19702	
7	0.964936	-0.0153628	0.258544	0.0426266	-5.0019	-0.195604	9.51693	-0.0148348	-0.0046155	0.0165474	0.885498	-0.0327148	-0.653076	0.794489	-0.00941613	-0.60573	0.0423069	9.5	-0.785778	2.65753	0.00913691	0.0461707	-0.0182616	-0.77832	-0.0981445	-0.549805	0.835449	0.194705	-0.453043	0.242625	8.7841	0.917256	5.30219	0.0563064	0.0140782	-0.0063703	-0.851318	-0.402588	-0.710449	0.852003	0.0287882	-0.519186	0.0608999	8.67693	-0.135489	4.48618	0.0165369	0.0202931	-0.00679149	-0.939209	-0.0783691	-0.978516	0.816094	-0.232596	-0.520219	-0.0962416	8.80397	-2.79447	3.52932	-0.00875396	0.00946076	-0.0127599	-0.695801	0.37793	-0.702881	0.91029	0.126119	-0.313869	0.238647	8.28253	0.0865121	8.93629	0.0056086	0.0161466	-0.0244987	-0.631104	-0.174072	-0.97583	0.444147	0.156429	-0.878391	0.0818109	7.71305	-0.154608	-5.23774	0.0151084	-0.0260695	-0.020042	-1.02734	-0.150879	0.424072	0.0161631	0.0401507	-0.998399	0.0364277	0.15772	-0.5719	-8.42973	0.0061207	0.0118707	-0.0169024	-0.38501	0.105957	0.995117	-0.196526	0.254509	-0.864345	0.386667	-1.31115	-7.22841	-5.82179	0.0044733	0.00552604	-0.0184376	-0.245117	0.878662	0.571289	0.0357766	0.0271128	-0.99896	-0.00793194	0.693704	0.352202	-9.05299	0.00717996	0.00646656	0.00230552	-0.548584	-0.0478516	1.02515	-0.092625	0.0890494	-0.988012	-0.0855757	-1.83924	1.37295	-9.49527	-0.0278809	0.00587323	0.0022977	-0.256348	-0.191895	1.19482	
8	0.964718	-0.0154376	0.259271	0.0431267	-5.12959	-0.229463	9.5987	0.00147962	0.0400085	0.0207518	0.883301	-0.0305176	-0.651123	0.794791	-0.0087755	-0.605321	0.0426274	9.58567	-0.816005	2.69252	0.0202549	0.0338364	-0.0235845	-0.771729	-0.100342	-0.549805	0.835373	0.196086	-0.452113	0.243508	8.82091	0.963567	5.38598	0.0350119	0.0156951	0.0013934	-0.853271	-0.402588	-0.710449	0.852264	0.0291126	-0.518729	0.0609783	8.74995	-0.143046	4.55252	0.0144135	0.024586	-0.00570877	-0.934814	-0.0761719	-0.974121	0.816351	-0.231808	-0.520242	-0.095836	8.76458	-2.8565	3.47283	0.0514228	0.013102	-0.0169664	-0.698242	0.382324	-0.702881	0.910255	0.126519	-0.31395	0.238463	8.26623	0.0544294	8.99455	0.0125278	0.0034861	-0.0316075	-0.637451	-0.178467	-0.97583	0.443774	0.156427	-0.878665	0.080886	7.76364	-0.293317	-5.43306	-0.00757047	-0.0166706	-0.0297866	-1.02515	-0.152832	0.428467	0.0160268	0.0401447	-0.998401	0.0364403	0.146133	-0.577836	-8.41681	0.00490125	0.0127561	-0.0171013	-0.387207	0.108154	0.992676	-0.196405	0.254648	-0.864182	0.387	-1.33663	-7.11984	-5.77348	-0.00665277	0.00450008	-0.015406	-0.240234	0.874023	0.566895	0.0358814	0.0270686	-0.998958	-0.0079296	0.699222	0.352709	-9.04349	0.00396786	0.00992874	0.00138339	-0.550293	-0.0566406	1.02539	-0.092651	0.0888199	-0.988003	-0.0858893	-1.85972	1.39635	-9.43075	-0.000308321	0.00348214	0.00121126	-0.251953	-0.191895	1.19482	
9	0.964524	-0.0151574	0.259935	0.0435676	-5.15064	-0.0711311	9.63659	0.00569333	0.0264379	0.0233876	0.887695	-0.0327148	-0.646729	0.795195	-0.00849226	-0.604778	0.0428549	9.57829	-0.825267	2.67145	0.00185661	0.0409407	-0.0217736	-0.771973	-0.0959473	-0.545166	0.83538	0.196835	-0.451524	0.243974	8.76787	0.996191	5.29612	0.0330806	0.0154729	-0.00846933	-0.849121	-0.402588	-0.710449	0.852437	0.0293243	-0.518448	0.0608579	8.74796	-0.133708	4.52606	0.0111742	0.0189757	-0.00879538	-0.937012	-0.0783691	-0.980713	0.816596	-0.231255	-0.520185	-0.0953908	8.84747	-2.61957	3.41089	0.01065	0.0157982	-0.0151044	-0.700195	0.380127	-0.70752	0.910261	0.126941	-0.313929	0.238244	8.37978	0.138639	8.95991	0.00517245	0.0152854	-0.0262214	-0.635254	-0.178467	-0.97583	0.442765	0.156613	-0.879184	0.0804174	7.72779	-0.270031	-5.44411	0.0217488	-0.0376676	-0.0241567	-1.02295	-0.152832	0.437012	0.0158801	0.0401213	-0.998404	0.0364305	0.15054	-0.578614	-8.40288	0.00566418	0.0125985	-0.016715	-0.391602	0.108154	0.997559	-0.196308	0.254594	-0.864337	0.386739	-1.33929	-7.19526	-5.75436	0.00315176	0.00633446	-0.0168746	-0.244873	0.876221	0.573486	0.0360336	0.0270281	-0.998954	-0.00782464	0.692349	0.347842	-9.04811	0.00690153	0.0113048	0.00216535	-0.552734	-0.0522461	1.03198	-0.0926542	0.0887217	-0.988011	-0.0858947	-1.82773	1.39294	-9.43784	0.00507501	0.00798643	-0.00505337	-0.256104	-0.198486	1.19727	
10	0.964331	-0.0158456	0.260524	0.0440698	-5.21311	-0.0671663	9.59172	-0.0458059	0.0227097	0.0101313	0.890137	-0.0349121	-0.644531	0.795578	-0.00834811	-0.604257	0.0431073	9.55741	-0.731546	2.74493	0.0034639	0.0383955	-0.0132965	-0.765381	-0.100342	-0.552002	0.835312	0.197671	-0.451133	0.244252	8.76059	1.04376	5.39551	0.0352101	0.0105287	-0.0172459	-0.844727	-0.404785	-0.712891	0.852622	0.0295758	-0.518128	0.0608596	8.69711	-0.12335	4.57036	0.0111149	0.0177534	-0.00472754	-0.934326	-0.0849609	-0.976318	0.816475	-0.231747	-0.520076	-0.0958218	8.80963	-2.71686	3.45311	-0.0276661	0.0077409	-0.0106488	-0.699951	0.373535	-0.702881	0.910473	0.126887	-0.313576	0.237925	8.30567	0.111396	8.95994	-0.00283002	0.0219396	-0.0237729	-0.628906	-0.178467	-0.973633	0.441259	0.156934	-0.879911	0.0801125	7.73182	-0.236164	-5.34899	0.0307027	-0.0554262	-0.019363	-1.02515	-0.155029	0.439209	0.0159735	0.0403207	-0.998393	0.0364872	0.145564	-0.573049	-8.42518	0.00508632	0.012726	-0.017492	-0.389404	0.108154	0.997559	-0.196258	0.254545	-0.864459	0.386524	-1.35236	-7.18309	-5.81358	-0.00354746	0.00503732	-0.0154391	-0.247314	0.876221	0.571289	0.0359851	0.0270435	-0.998955	-0.00786179	0.695303	0.345423	-9.03261	0.00244157	0.00689766	-0.000537634	-0.550537	-0.0544434	1.02759	-0.0926626	0.0887065	-0.988055	-0.0853957	-1.83633	1.35635	-9.50611	0.0233089	0.00820485	-0.0094402	-0.256592	-0.1875	1.19922	
11	0.964223	-0.0167808	0.260817	0.0443476	-5.20358	-0.195279	9.50865	-0.0331317	0.0162053	0.00138719	0.887695	-0.0327148	-0.651123	0.795781	-0.00817727	-0.603979	0.0433057	9.48453	-0.773533	2.70836	0.00339368	0.0219535	-0.0160026	-0.765381	-0.100342	-0.549805	0.835267	0.198149	-0.450733	0.244755	8.74295	1.14187	5.37049	0.0153666	0.0104077	0.00946141	-0.848877	-0.40918	-0.708008	0.852784	0.029942	-0.517844	0.0608351	8.66643	-0.117927	4.5214	0.0244079	0.0193904	-0.0100939	-0.939209	-0.0783691	-0.980713	0.816751	-0.231182	-0.519965	-0.0954359	8.7559	-2.65177	3.51353	0.0462588	0.0222217	-0.0199087	-0.695801	0.375732	-0.709717	0.910504	0.127087	-0.313451	0.237866	8.29342	0.141676	8.92844	0.0154473	0.0175912	-0.0192779	-0.631348	-0.171875	-0.982422	0.440207	0.15713	-0.880427	0.079848	7.6689	-0.25565	-5.39937	0.0192207	-0.034091	-0.0180427	-1.02515	-0.153076	0.441162	0.0158464	0.0403065	-0.998394	0.0365129	0.148351	-0.569382	-8.42596	0.0058401	0.0125985	-0.0180856	-0.389648	0.112305	0.999756	-0.196348	0.254543	-0.864449	0.3865	-1.33471	-7.19934	-5.79669	0.0103133	-0.00169055	-0.0197547	-0.242432	0.874023	0.566895	0.0359734	0.0270309	-0.998956	-0.00789817	0.699939	0.340141	-9.04151	0.00291703	0.0102745	0.00140478	-0.54834	-0.0500488	1.02515	-0.0927675	0.0884935	-0.988031	-0.0857753	-1.85509	1.32683	-9.46362	-0.0153893	-0.00034473	0.00124713	-0.249756	-0.19165	1.20166	
12	0.964034	-0.0171729	0.261471	0.0444602	-5.20367	-0.276008	9.60539	0.000337727	0.0327703	-0.002727	0.889893	-0.0327148	-0.646729	0.796104	-0.00837338	-0.603577	0.0429357	9.58799	-0.731053	2.75933	-0.0200543	0.0281602	-0.0170025	-0.77002	-0.0893555	-0.547852	0.835294	0.198083	-0.450659	0.244854	8.87342	1.0018	5.37723	0.00465206	0.0074036	-0.00453934	-0.853271	-0.411133	-0.710205	0.852858	0.0298106	-0.517742	0.0607352	8.78091	-0.127406	4.56957	-0.00569089	0.00915842	-0.000224805	-0.936768	-0.0805664	-0.976318	0.816791	-0.231217	-0.519883	-0.0954582	8.87704	-2.88281	3.38873	-0.00262343	0.0134531	-0.00182023	-0.695801	0.375732	-0.702881	0.91068	0.126918	-0.313179	0.237641	8.32449	0.122043	8.98274	-0.00521517	0.0200025	-0.0169948	-0.635254	-0.178467	-0.977783	0.439524	0.15701	-0.880826	0.0794478	7.75459	-0.260583	-5.48379	0.00763856	-0.0299905	-0.0117772	-1.02515	-0.153076	0.445557	0.0157163	0.0402635	-0.998398	0.0365006	0.150963	-0.580686	-8.42512	0.00577338	0.0132227	-0.0167279	-0.38501	0.108154	0.992676	-0.196293	0.25471	-0.864321	0.386705	-1.31265	-7.16684	-5.74948	0.0105562	0.00282635	-0.0189098	-0.240234	0.874023	0.569092	0.0360347	0.0270143	-0.998954	-0.00785529	0.702768	0.343903	-9.05888	0.00435357	0.00771765	0.000982382	-0.550537	-0.0522461	1.02515	-0.0927833	0.0883411	-0.988022	-0.0860197	-1.83373	1.42543	-9.43457	-0.00825871	0.00458225	-0.00159624	-0.256348	-0.191895	1.19702	
13	0.963963	-0.017157	0.261788	0.044141	-5.17868	-0.158245	9.59844	0.000961173	0.0125623	-0.0126637	0.89209	-0.0327148	-0.650879	0.796264	-0.00858231	-0.603368	0.0428535	9.57627	-0.782601	2.72976	-0.0271658	0.0362419	-0.0150999	-0.769775	-0.0959473	-0.549805	0.835213	0.198342	-0.450505	0.245204	8.76972	1.00691	5.41086	0.0328745	0.01137	0.00896155	-0.851074	-0.411377	-0.710205	0.852874	0.0298195	-0.51772	0.0606959	8.74503	-0.138159	4.5324	0.00246107	0.00761524	-0.0029585	-0.930176	-0.0783691	-0.978516	0.816863	-0.231209	-0.519824	-0.0951838	8.8169	-2.74354	3.5161	0.0103652	0.0111782	0.00468896	-0.695801	0.37793	-0.702881	0.910719	0.126796	-0.31318	0.237553	8.33592	0.123335	8.97998	-0.00970503	0.0174683	-0.0221242	-0.631104	-0.174072	-0.978027	0.439219	0.156996	-0.880977	0.0794883	7.70347	-0.25241	-5.49069	0.0230902	-0.0156959	-0.00889235	-1.02515	-0.155029	0.439209	0.0156595	0.0402458	-0.998401	0.0364713	0.170248	-0.576936	-8.4239	0.00350156	0.0136147	-0.0159206	-0.38501	0.105957	0.99292	-0.196284	0.254718	-0.864352	0.386636	-1.32328	-7.20199	-5.74748	0.000609086	0.00371404	-0.0186312	-0.24707	0.871582	0.571289	0.0360205	0.0270122	-0.998955	-0.00788857	0.70564	0.337456	-9.04117	0.00296699	0.00907732	0.000571654	-0.557373	-0.0478516	1.02954	-0.092834	0.0882686	-0.988049	-0.085734	-1.83979	1.38931	-9.45441	0.020413	0.00482835	-0.00690338	-0.25415	-0.194092	1.19946	
14	0.963863	-0.0175613	0.262215	0.0436148	-5.25657	-0.18718	9.57777	-0.00661612	0.0166516	-0.0287578	0.894287	-0.0305176	-0.644531	0.796467	-0.00881152	-0.603104	0.0427558	9.52873	-0.768871	2.7086	-0.018568	0.0258953	-0.0195816	-0.765137	-0.102539	-0.552002	0.835297	0.197863	-0.450712	0.244923	8.71817	1.06818	5.29452	-0.0492341	0.000885847	-0.0096404	-0.849121	-0.404785	-0.712891	0.852819	0.0295756	-0.517811	0.0607974	8.69172	-0.0972533	4.55655	-0.00492507	0.000268566	0.0121652	-0.941406	-0.0761719	-0.978516	0.816821	-0.231368	-0.51983	-0.0951272	8.81433	-2.82804	3.3997	-0.0120518	0.00499722	-0.0126391	-0.697998	0.37793	-0.712158	0.910759	0.126654	-0.313077	0.237613	8.33043	0.070584	8.93958	-0.0044509	0.0232198	-0.0118727	-0.637695	-0.17627	-0.984375	0.438727	0.156927	-0.881234	0.0794891	7.63447	-0.215648	-5.42661	0.0203601	-0.0206355	-0.0117216	-1.01636	-0.157227	0.441406	0.0157609	0.0404272	-0.99839	0.036527	0.145306	-0.567791	-8.42411	0.00506143	0.0129941	-0.0158262	-0.389404	0.108154	0.992676	-0.196226	0.254612	-0.864528	0.386341	-1.33907	-7.18508	-5.82083	-0.00775845	0.00597832	-0.0116274	-0.242676	0.876221	0.571289	0.0359636	0.0269909	-0.998958	-0.00784837	0.704519	0.343261	-9.05482	0.00857352	0.00777114	0.00137731	-0.555176	-0.0478516	1.02734	-0.0927496	0.0883677	-0.98807	-0.0854784	-1.85685	1.36366	-9.45227	0.00990167	0.00767418	-0.00854942	-0.25415	-0.189697	1.19263	
15	0.963872	-0.0178375	0.262241	0.0431477	-5.25959	-0.0690549	9.55289	-0.0108021	0.00441486	-0.0405486	0.887451	-0.0285645	-0.644531	0.796628	-0.00876005	-0.602888	0.042825	9.52761	-0.788571	2.70027	-0.00671452	0.024368	-0.0172919	-0.765381	-0.0981445	-0.552246	0.83515	0.198207	-0.450701	0.24517	8.8202	0.924804	5.37569	0.0402883	0.00183532	0.00282203	-0.851074	-0.406982	-0.703613	0.852908	0.0300112	-0.517641	0.0607864	8.73879	-0.157014	4.54633	0.0241955	0.0156543	-0.0186007	-0.936768	-0.0827637	-0.98291	0.816932	-0.231019	-0.51989	-0.0946918	8.83675	-2.83405	3.461	0.0307702	0.00697691	-0.006178	-0.695312	0.369141	-0.70752	0.910771	0.126602	-0.313106	0.237557	8.30636	0.0770449	8.97312	0.0117135	0.0110396	-0.0222538	-0.633301	-0.17627	-0.97583	0.438096	0.156934	-0.881558	0.079371	7.65777	-0.273874	-5.39757	0.0141579	-0.0243045	-0.0110436	-1.0188	-0.148682	0.445312	0.0156428	0.0404001	-0.998393	0.0365352	0.147246	-0.579844	-8.43388	0.00522926	0.0146372	-0.0171471	-0.385254	0.112549	0.988037	-0.196269	0.254571	-0.864554	0.386287	-1.34253	-7.16087	-5.79668	0.00646602	-0.000829794	-0.018456	-0.240234	0.871826	0.571289	0.0359584	0.0269514	-0.998959	-0.00782925	0.707612	0.347257	-9.03631	0.00849162	0.00956119	0.00262166	-0.552734	-0.0522461	1.02734	-0.0927698	0.0883394	-0.988086	-0.0853017	-1.81788	1.34789	-9.48948	0.0154221	0.00547253	-0.00609083	-0.256348	-0.191895	1.19702	
16	0.963921	-0.0189719	0.26206	0.0426666	-5.16818	-0.115682	9.5605	-0.044246	0.000215522	-0.0194087	0.891846	-0.0239258	-0.646729	0.796726	-0.00840561	-0.602737	0.043197	9.52278	-0.82162	2.75729	0.0117614	0.0221054	-0.0148937	-0.769775	-0.0981445	-0.556885	0.835202	0.198057	-0.450713	0.245089	8.69208	1.11951	5.28	-0.0300345	-0.002734	-0.0057396	-0.848877	-0.40918	-0.714844	0.853014	0.0300913	-0.517465	0.0607534	8.69979	-0.0869655	4.56176	0.00342727	0.0135671	0.00497628	-0.932373	-0.0825195	-0.98291	0.817108	-0.230544	-0.519877	-0.0944026	8.78022	-2.81463	3.44418	-0.00117818	0.00738682	-0.0211432	-0.693604	0.375732	-0.705322	0.910742	0.126668	-0.313171	0.237547	8.29733	0.0584514	8.97726	0.00646866	0.0130799	-0.0184523	-0.631104	-0.174072	-0.978027	0.437426	0.157162	-0.881848	0.0793856	7.65476	-0.285633	-5.49172	0.030631	-0.0163706	-0.0214015	-1.02075	-0.152832	0.445557	0.015757	0.0406123	-0.998379	0.0366418	0.15457	-0.571921	-8.42741	0.00705309	0.0133352	-0.0178192	-0.391602	0.110352	0.992676	-0.196271	0.254753	-0.864452	0.386395	-1.32116	-7.18181	-5.79568	0.00736395	-0.000160778	-0.0176799	-0.240234	0.876221	0.571289	0.0360127	0.0269446	-0.998958	-0.00780095	0.705236	0.350375	-9.02791	0.00385285	0.00729102	0.000576096	-0.550537	-0.0544434	1.02759	-0.0927889	0.088214	-0.988076	-0.0855193	-1.8572	1.34232	-9.4431	-0.0125671	0.00430973	-0.00502246	-0.256348	-0.194092	1.19946	
17	0.96381	-0.0201398	0.262295	0.043205	-5.22514	-0.280482	9.52798	-0.0488732	0.0138517	0.0179271	0.891846	-0.0283203	-0.642334	0.796829	-0.00815462	-0.602581	0.0435132	9.52975	-0.768017	2.79231	0.00178411	0.0207289	-0.0159735	-0.769775	-0.0959473	-0.552246	0.835213	0.198268	-0.450479	0.245312	8.76949	0.856769	5.32311	0.0378666	0.0168687	0.00188149	-0.855469	-0.408936	-0.710449	0.853116	0.0301908	-0.51729	0.0607652	8.71959	-0.150503	4.54065	0.0131414	0.0161381	-0.00733797	-0.934326	-0.0849609	-0.980713	0.817384	-0.229649	-0.519968	-0.0936904	8.79993	-2.78107	3.45231	0.0499929	0.0127439	-0.00604354	-0.695312	0.369141	-0.705322	0.910734	0.126959	-0.313217	0.237363	8.30115	0.090804	8.98955	0.0124447	0.00806608	-0.0313452	-0.631104	-0.17627	-0.97583	0.436714	0.157296	-0.882191	0.07923	7.66778	-0.234198	-5.50163	0.0143861	-0.0206919	-0.0163662	-1.021	-0.150879	0.445312	0.0158671	0.0407965	-0.998367	0.0367137	0.149666	-0.576044	-8.43155	0.00567474	0.0132309	-0.0170117	-0.385254	0.110352	0.992676	-0.196323	0.25474	-0.86455	0.386158	-1.33068	-7.17089	-5.74421	-0.00698505	0.00267828	-0.0157167	-0.240234	0.876221	0.573486	0.0359512	0.0269212	-0.99896	-0.00781509	0.706206	0.34262	-9.04683	0.00567823	0.00754527	0.00221849	-0.55957	-0.0500488	1.03198	-0.0928711	0.0880134	-0.988084	-0.085549	-1.85078	1.42249	-9.44318	-0.000701364	0.00378923	-0.00242346	-0.251953	-0.189453	1.19946	
18	0.963642	-0.0205592	0.262773	0.0438441	-5.09632	-0.35357	9.53272	-0.0120299	0.028167	0.0228173	0.89624	-0.0239258	-0.640381	0.796921	-0.007883	-0.602444	0.0437745	9.53622	-0.75002	2.72366	0.0034904	0.0178158	-0.0178766	-0.763184	-0.0981445	-0.554443	0.83515	0.198815	-0.450121	0.245742	8.74455	1.28826	5.3902	0.000931563	0.00838473	-0.00662835	-0.848877	-0.40918	-0.710449	0.85321	0.0303127	-0.517121	0.0608215	8.69911	-0.0753843	4.56929	0.00409615	0.00896562	0.00458885	-0.941406	-0.0805664	-0.980713	0.817441	-0.22923	-0.5201	-0.0934939	8.83992	-2.65901	3.51129	0.00257065	0.00447789	-0.0232049	-0.695312	0.369141	-0.70752	0.910713	0.127135	-0.313233	0.237327	8.32318	0.195689	8.9456	0.0142772	0.00953657	-0.0236814	-0.635254	-0.178467	-0.97998	0.436327	0.157315	-0.882388	0.07913	7.61345	-0.249494	-5.52704	0.0150552	-0.0251431	-0.0150413	-1.02075	-0.153076	0.44751	0.0158671	0.0407965	-0.998367	0.0367137	0.149666	-0.576044	-8.43155	0.00567474	0.0132309	-0.0170117	-0.385254	0.110352	0.992676	-0.195874	0.254902	-0.864851	0.385606	-1.31564	-7.1749	-5.77192	-0.0263694	0.0111437	-0.0155861	-0.242432	0.871826	0.573486	0.0359245	0.0269346	-0.99896	-0.00787842	0.691267	0.350845	-9.041	0.00378783	0.00939624	-0.000643145	-0.552734	-0.0566406	1.02759	-0.0928812	0.0880497	-0.988099	-0.0853223	-1.79697	1.35792	-9.43836	0.0177913	0.00756427	-0.0118467	-0.251953	-0.189453	1.19702	
19	0.963303	-0.0202844	0.263992	0.0440829	-5.14919	-0.383043	9.50677	0.017188	0.0539559	0.00949385	0.89624	-0.0239258	-0.638184	0.797106	-0.00794222	-0.602195	0.0438102	9.54841	-0.742821	2.80286	-0.0163245	0.0294147	-0.0167201	-0.765625	-0.09375	-0.561768	0.835143	0.198759	-0.450089	0.245866	8.72496	0.936772	5.32805	0.0294666	0.0061275	0.00248529	-0.848877	-0.40918	-0.710449	0.853246	0.0302302	-0.517059	0.0608847	8.70562	-0.112208	4.55108	0.00212789	0.00941519	0.00183159	-0.932129	-0.0847168	-0.987305	0.817603	-0.228659	-0.520173	-0.0930604	8.81396	-2.83436	3.38629	0.048855	0.00617189	-0.00554053	-0.697754	0.373535	-0.705322	0.910765	0.127345	-0.313057	0.237246	8.32536	0.091115	8.96762	0.00953123	0.0130553	-0.0241528	-0.637695	-0.174072	-0.97583	0.435231	0.157816	-0.88285	0.0790167	7.64304	-0.236413	-5.51623	0.0127482	-0.02922	-0.0138621	-1.0166	-0.153076	0.454102	0.0160912	0.0411499	-0.998345	0.0368214	0.15571	-0.593521	-8.43396	0.00566303	0.0125593	-0.016693	-0.387207	0.105957	0.999756	-0.195797	0.254897	-0.865118	0.385047	-1.30824	-7.04004	-5.78252	-0.0242347	0.000491759	-0.010885	-0.244873	0.874023	0.575684	0.0358533	0.0269379	-0.998963	-0.0078631	0.707746	0.353466	-9.042	0.00539933	0.0047005	-0.000379221	-0.550781	-0.0478516	1.02515	-0.0929114	0.08805	-0.988143	-0.0847868	-1.84653	1.44042	-9.46291	0.0171119	0.00975029	-0.00883188	-0.254395	-0.1875	1.19482	
20	0.962988	-0.0195535	0.26531	0.0433962	-5.29026	-0.282106	9.48179	0.038313	0.0516809	-0.0201604	0.900635	-0.026123	-0.640137	0.797282	-0.00800433	-0.601962	0.0438112	9.52061	-0.767967	2.73236	-0.0127268	0.0246435	-0.0161372	-0.765381	-0.0981445	-0.554443	0.835171	0.198669	-0.450012	0.245986	8.72224	1.09432	5.34766	-0.0180896	0.0133717	-0.00259452	-0.846924	-0.40918	-0.710449	0.853264	0.0301613	-0.517033	0.0608897	8.71669	-0.0829823	4.57045	-0.00105921	0.00802794	0.00338496	-0.930176	-0.0805664	-0.978516	0.817679	-0.228736	-0.520016	-0.0930861	8.79252	-2.47386	3.62076	-0.0512781	0.0174525	-0.0200427	-0.69751	0.366943	-0.705322	0.910768	0.127349	-0.313044	0.237251	8.34332	0.192935	8.95239	0.00320158	0.0164501	-0.0176319	-0.635254	-0.178467	-0.97998	0.434943	0.157677	-0.883044	0.0787203	7.59842	-0.226588	-5.4797	-0.00554469	-0.0193457	-0.011338	-1.0166	-0.153076	0.454102	0.016212	0.0413439	-0.998331	0.0369166	0.149245	-0.580413	-8.42241	0.00659992	0.0140242	-0.0166473	-0.387207	0.110352	0.992676	-0.195578	0.254881	-0.865366	0.384612	-1.35142	-7.25813	-5.90545	-0.0354507	0.0140265	-0.0138214	-0.240234	0.874023	0.575684	0.0358533	0.0269379	-0.998963	-0.0078631	0.707746	0.353466	-9.042	0.00539933	0.0047005	-0.000379221	-0.550781	-0.0478516	1.02515	-0.0930086	0.0879757	-0.988153	-0.0846396	-1.86676	1.31251	-9.45907	0.0170782	0.000173313	-0.00508092	-0.256592	-0.1875	1.19702	
21	0.962762	-0.0189284	0.266307	0.042567	-5.30723	-0.182412	9.54638	0.0325844	0.0398356	-0.0242892	0.898438	-0.026123	-0.631592	0.797365	-0.00826779	-0.601856	0.0436964	9.57058	-0.784084	2.78484	-0.0266847	0.0214532	-0.0172234	-0.760986	-0.0981445	-0.554443	0.835032	0.198824	-0.449937	0.24647	8.78563	1.07929	5.39401	0.0252319	0.00586165	0.0144871	-0.851074	-0.406982	-0.708252	0.853254	0.0299361	-0.517055	0.0609476	8.71373	-0.164604	4.51575	-0.0024407	0.00669381	0.00382312	-0.934814	-0.0761719	-0.985107	0.817643	-0.229091	-0.519907	-0.0931408	8.83331	-2.91425	3.40636	0.0368657	0.0156412	0.000341432	-0.697754	0.373535	-0.712158	0.910741	0.127186	-0.313017	0.237476	8.30194	0.219229	8.93904	-0.00317532	0.0216906	0.00320871	-0.633545	-0.171875	-0.97583	0.434151	0.157668	-0.883441	0.0786519	7.59351	-0.226165	-5.51934	0.0144064	-0.0237415	-0.0087418	-1.01196	-0.155029	0.458252	0.0161493	0.0413271	-0.998333	0.0369155	0.157174	-0.573116	-8.42279	0.00577145	0.0131892	-0.0167095	-0.393555	0.105957	0.99292	-0.195746	0.254762	-0.865123	0.385152	-1.32679	-7.07403	-5.80149	0.0224337	0.00142329	-0.0186588	-0.242432	0.874023	0.571289	0.0359375	0.0268887	-0.998962	-0.00772331	0.700985	0.34356	-9.04053	0.00935501	0.00806821	0.00283501	-0.54834	-0.0500488	1.02295	-0.0930697	0.0877857	-0.988139	-0.0849272	-1.85145	1.34972	-9.46844	-0.0140357	0.0016347	-0.000177341	-0.256592	-0.189697	1.19702	
22	0.962672	-0.0187499	0.266713	0.0421426	-5.3689	-0.186761	9.51789	0.024312	0.0337191	-0.0263184	0.898438	-0.0283203	-0.631592	0.797479	-0.00843826	-0.60171	0.0435983	9.54307	-0.821877	2.80431	-0.0263294	0.0296651	-0.0174785	-0.765381	-0.100342	-0.552002	0.835093	0.198702	-0.44989	0.246446	8.76693	1.24492	5.36409	-0.00948291	0.0111421	-0.00323881	-0.842529	-0.411377	-0.714844	0.853234	0.0297149	-0.517098	0.0609742	8.7179	-0.0689132	4.61032	-0.0126953	-0.00128505	0.0108541	-0.936768	-0.0805664	-0.974121	0.817751	-0.228955	-0.519846	-0.0928642	8.84636	-2.63458	3.53995	0.0188596	0.0137364	-0.000398411	-0.697754	0.375732	-0.70752	0.910893	0.126894	-0.312758	0.237393	8.31813	0.138473	8.96775	-0.000976937	0.0181614	-0.0202036	-0.637695	-0.17627	-0.986572	0.433453	0.157411	-0.883841	0.0785221	7.60793	-0.312081	-5.62489	0.0145995	-0.0236243	-0.00410576	-1.01001	-0.152832	0.456055	0.0160866	0.0413259	-0.998334	0.0369241	0.161585	-0.575728	-8.43632	0.00671473	0.0130439	-0.0176947	-0.389648	0.114746	0.992676	-0.195657	0.254749	-0.865169	0.385102	-1.28487	-7.12096	-5.77539	-3.47497e-05	0.0100808	-0.0198358	-0.237793	0.874023	0.571289	0.0359171	0.0268878	-0.998963	-0.00774213	0.693229	0.348604	-9.0331	0.00399965	0.0087132	0.000532891	-0.550781	-0.0478516	1.01831	-0.0932194	0.0876105	-0.988154	-0.0847701	-1.85198	1.39226	-9.46401	0.012778	0.000197158	0.000478602	-0.252197	-0.187256	1.19922	
23	0.96257	-0.0185882	0.267194	0.0414883	-5.41629	-0.156043	9.48595	0.00957648	0.0174126	-0.0167023	0.893799	-0.0241699	-0.631592	0.797451	-0.00864184	-0.601743	0.0436077	9.50159	-0.78834	2.73051	-0.0257323	0.0156349	-0.0128973	-0.763184	-0.100342	-0.559082	0.835112	0.198132	-0.450164	0.24634	8.74318	0.739477	5.31144	0.00416161	-0.00480709	0.00935112	-0.853271	-0.411133	-0.712646	0.85322	0.0295173	-0.517142	0.0608991	8.69723	-0.204222	4.5144	0.0018055	0.010417	-0.00591101	-0.936768	-0.0805664	-0.980713	0.817606	-0.229497	-0.51979	-0.093112	8.82551	-2.92675	3.3885	-0.0321641	0.00495802	-0.014589	-0.695801	0.375732	-0.712158	0.91092	0.126482	-0.312733	0.237539	8.31254	0.0696119	8.99008	-0.0125391	0.0202964	-0.00772492	-0.628906	-0.17627	-0.978027	0.432909	0.157133	-0.884191	0.0781345	7.56581	-0.245753	-5.43835	-0.000259429	-0.0218467	-0.00663626	-1.01636	-0.155029	0.454102	0.0160915	0.0414716	-0.998326	0.036971	0.155794	-0.573039	-8.42405	0.00571446	0.0105894	-0.0174123	-0.387207	0.110352	0.990479	-0.195629	0.254877	-0.865167	0.385036	-1.3294	-7.20226	-5.84265	-0.000283119	-1.08289e-05	-0.0145924	-0.240234	0.871582	0.580322	0.0359574	0.02686	-0.998962	-0.00772032	0.704077	0.343887	-9.06315	0.00215267	0.00814104	0.00134775	-0.552979	-0.0478516	1.02271	-0.0932674	0.0875542	-0.988153	-0.0847935	-1.84339	1.38056	-9.44988	-0.00030138	0.00158118	-0.00232393	-0.256592	-0.189697	1.19263	
24	0.962611	-0.0185873	0.267073	0.0413072	-5.44722	-0.164553	9.54287	0.00202157	-0.00456924	-0.00635963	0.900635	-0.026123	-0.633789	0.797082	-0.00892811	-0.602233	0.0435421	9.559	-0.858751	2.69924	0.00376268	-0.0171413	-0.0129215	-0.767578	-0.0959473	-0.559326	0.835134	0.197757	-0.450218	0.24647	8.76857	1.30646	5.36349	-0.0590217	0.0100154	-0.00593112	-0.849121	-0.406982	-0.715088	0.853183	0.0296064	-0.517201	0.0608801	8.66756	-0.0977632	4.59639	-0.00298773	-0.00533471	0.00387706	-0.93457	-0.0805664	-0.978516	0.818067	-0.228169	-0.519824	-0.0921303	8.81694	-2.60724	3.53762	0.0868438	0.0182415	-0.00983924	-0.691162	0.371338	-0.709717	0.910979	0.126485	-0.312665	0.2374	8.36065	0.158064	8.96184	0.0031184	0.0190502	-0.0271413	-0.639648	-0.178467	-0.982178	0.432596	0.156763	-0.884436	0.0778418	7.61127	-0.312561	-5.44959	-0.00950669	0.00250244	-0.00374674	-1.01611	-0.159424	0.460449	0.0159561	0.041466	-0.998328	0.0369641	0.160017	-0.573968	-8.41012	0.00516702	0.0120056	-0.0178374	-0.38916	0.105957	0.995117	-0.195476	0.255179	-0.865083	0.385103	-1.32028	-7.13113	-5.83294	0.00203426	0.00150151	-0.0163444	-0.240234	0.871582	0.580322	0.0360104	0.0268442	-0.998961	-0.00768348	0.703617	0.345227	-9.04326	0.00404863	0.00720929	0.000829821	-0.552734	-0.0522461	1.02734	-0.0934357	0.087301	-0.988121	-0.0852363	-1.86004	1.34167	-9.48453	-0.0128009	-0.00403442	0.00316027	-0.251709	-0.196289	1.19727	
25	0.96296	-0.0185767	0.265768	0.0416052	-5.27381	-0.248234	9.50655	0.00319548	-0.0608612	0.0130503	0.898682	-0.0305176	-0.635986	0.797006	-0.00860702	-0.602317	0.0438226	9.57058	-0.784978	2.76464	0.00318749	0.0180811	-0.0173156	-0.765381	-0.0981445	-0.554443	0.835138	0.197144	-0.450632	0.246191	8.83468	0.674182	5.27934	0.0176506	-0.00380909	0.00720875	-0.846924	-0.40918	-0.705811	0.853267	0.0297436	-0.517051	0.0609034	8.72541	-0.208918	4.54614	0.0161342	0.0171129	-0.00969699	-0.934814	-0.0761719	-0.980713	0.817933	-0.2287	-0.519749	-0.0924286	8.78749	-2.86663	3.45141	-0.0289457	0.00961021	-0.0139437	-0.693604	0.375732	-0.70752	0.910963	0.126454	-0.312677	0.237462	8.3022	0.102554	8.97719	0.0125324	0.0125923	-0.0150909	-0.631104	-0.174072	-0.982422	0.432665	0.156459	-0.884522	0.0770876	7.57391	-0.302165	-5.61278	-0.0113774	-0.0282852	-0.0163502	-1.01636	-0.155029	0.454102	0.0160063	0.0416934	-0.998317	0.0369969	0.142726	-0.579306	-8.42573	0.00428626	0.0108518	-0.0178906	-0.38501	0.108154	0.995117	-0.195776	0.255131	-0.864906	0.385379	-1.31775	-7.16026	-5.80372	0.0107512	-0.00290255	-0.0168294	-0.242432	0.871826	0.573486	0.0359497	0.0268393	-0.998963	-0.00769759	0.70996	0.34705	-9.04448	0.00638244	0.00553563	0.000422693	-0.548584	-0.0478516	1.02734	-0.0935318	0.087101	-0.988094	-0.0856472	-1.81664	1.34982	-9.44233	-0.00832355	0.00296357	0.00132174	-0.25415	-0.189697	1.19482	
26	0.963299	-0.0182836	0.26442	0.0424513	-5.11783	-0.23861	9.4503	0.00393708	-0.0509501	0.040251	0.898438	-0.026123	-0.635986	0.797042	-0.00810725	-0.602255	0.0441238	9.47845	-0.847313	2.72109	0.0124566	0.0118653	-0.0231252	-0.763184	-0.0981445	-0.556885	0.835165	0.19786	-0.450061	0.246569	8.69036	1.27899	5.37162	0.00325213	0.0125224	-0.0156644	-0.849121	-0.404785	-0.712891	0.853339	0.0300063	-0.516915	0.0609157	8.7079	-0.0823492	4.58719	0.0109701	0.00915571	0.00159077	-0.932373	-0.0825195	-0.98291	0.818029	-0.227958	-0.519996	-0.0920159	8.83308	-2.82521	3.48945	0.0405612	0.000672599	-0.0139023	-0.697754	0.371338	-0.70752	0.91093	0.126694	-0.312769	0.237341	8.2998	0.0945814	9.00233	0.0141495	0.00463277	-0.0278541	-0.628906	-0.17627	-0.978027	0.432246	0.156632	-0.884711	0.0769201	7.48502	-0.229102	-5.48151	-0.000355257	0.0109504	-0.0241075	-1.01416	-0.155029	0.458252	0.0160682	0.0419202	-0.998306	0.0370087	0.155279	-0.577687	-8.4181	0.00338906	0.011336	-0.0178935	-0.387207	0.108154	0.992676	-0.195776	0.255131	-0.864906	0.385379	-1.31775	-7.16026	-5.80372	0.0107512	-0.00290255	-0.0168294	-0.242432	0.871826	0.573486	0.0360412	0.0268532	-0.99896	-0.00767775	0.702985	0.332576	-9.04535	0.00337837	0.00892314	-0.000258505	-0.552979	-0.0478516	1.02954	-0.093356	0.0870761	-0.98813	-0.0854445	-1.88461	1.39164	-9.44962	0.0144115	0.0127668	-0.00730918	-0.256348	-0.194092	1.19946	
27	0.963401	-0.017757	0.263907	0.0435456	-5.15889	-0.207397	9.47269	0.0106178	-0.0141482	0.0486515	0.89209	-0.0305176	-0.635986	0.797053	-0.00773149	-0.602226	0.0443924	9.54006	-0.756124	2.75954	-0.0019568	0.0165699	-0.0166602	-0.765381	-0.0959473	-0.559326	0.835155	0.197648	-0.450202	0.246516	8.76697	0.746027	5.35793	0.0186181	0.00245642	0.00346433	-0.844727	-0.40918	-0.714844	0.85345	0.0302411	-0.516716	0.0609369	8.68486	-0.164852	4.54451	0.0163678	0.0157273	-0.0122109	-0.929932	-0.0847168	-0.98291	0.818218	-0.227066	-0.52016	-0.0916178	8.7971	-2.62512	3.5122	0.0354411	0.00709705	-0.0274359	-0.693359	0.371338	-0.709717	0.910872	0.127018	-0.312887	0.237235	8.3201	0.139064	8.95138	0.00818532	0.00840551	-0.0201016	-0.628906	-0.17627	-0.978027	0.431205	0.156979	-0.885179	0.0766741	7.56053	-0.23068	-5.59932	0.015765	-0.0281456	-0.0206145	-1.00781	-0.155029	0.458252	0.0159157	0.0419444	-0.998308	0.0370064	0.145571	-0.570311	-8.43449	0.00602382	0.0125382	-0.0194215	-0.389404	0.108154	0.990479	-0.195576	0.255352	-0.864716	0.38576	-1.31928	-7.1639	-5.82895	0.00178961	0.00794632	-0.0166989	-0.242432	0.871826	0.569092	0.0359922	0.0268082	-0.998963	-0.00761128	0.705268	0.333318	-9.05206	0.00846456	0.00954008	0.00261025	-0.552979	-0.0478516	1.02051	-0.0933897	0.0870743	-0.988178	-0.0848555	-1.8376	1.30821	-9.46264	0.0299544	0.00710862	-0.0123771	-0.249756	-0.189453	1.19702	
28	0.963412	-0.0172762	0.263773	0.0443119	-5.1588	-0.172332	9.56597	0.0108818	-0.00423095	0.0279493	0.896484	-0.0327148	-0.635986	0.797165	-0.00749577	-0.602062	0.044642	9.59547	-0.779152	2.77929	0.00628532	0.0216572	-0.016833	-0.767578	-0.0959473	-0.549805	0.835122	0.198377	-0.449725	0.246913	8.7634	1.23806	5.34371	0.0226143	0.0133447	-0.0125937	-0.846924	-0.404785	-0.715088	0.853522	0.0305252	-0.516586	0.0608887	8.74037	-0.0409164	4.58479	0.00965388	0.00875389	-0.00102157	-0.932129	-0.0849609	-0.980713	0.818211	-0.226901	-0.520235	-0.0916626	8.83018	-2.79188	3.47548	-0.0167869	0.00260761	-0.0128357	-0.702148	0.371338	-0.709717	0.910886	0.127125	-0.312925	0.237074	8.31847	0.100592	8.9977	4.07357e-05	0.0119	-0.0290267	-0.633301	-0.17627	-0.97583	0.429942	0.157228	-0.885785	0.0762503	7.59066	-0.213738	-5.60671	0.0159806	-0.0585553	-0.0242314	-1.01392	-0.159424	0.460449	0.015751	0.0419125	-0.998311	0.0370132	0.14381	-0.570132	-8.4283	0.00430555	0.0114455	-0.0162383	-0.385254	0.110352	0.995117	-0.195601	0.255221	-0.864783	0.385685	-1.32696	-7.17315	-5.84277	0.0074587	0.00118698	-0.0143396	-0.244873	0.874023	0.578125	0.0359945	0.0267709	-0.998965	-0.00758606	0.716534	0.351019	-9.0486	0.00864764	0.00945859	0.00420534	-0.559814	-0.0478516	1.02515	-0.0934093	0.0870603	-0.988229	-0.0842549	-1.81784	1.34921	-9.48887	0.0159286	0.00585786	-0.00590192	-0.25415	-0.189697	1.19482	
29	0.963277	-0.0173337	0.264208	0.0446263	-5.16477	-0.202549	9.48693	-0.00701073	0.0279048	0.00685118	0.896729	-0.0349121	-0.631592	0.797219	-0.00734116	-0.601979	0.0448181	9.60439	-0.731803	2.75606	0.00837612	0.0217669	-0.0154402	-0.765381	-0.100342	-0.554443	0.835085	0.198572	-0.449715	0.246899	8.73937	0.931445	5.36711	0.013223	-0.00152281	-0.011099	-0.846924	-0.406982	-0.710449	0.853571	0.0305791	-0.5165	0.0609025	8.70881	-0.122264	4.57412	0.0078745	0.0130774	-0.00141634	-0.929932	-0.0847168	-0.985107	0.818285	-0.226883	-0.520166	-0.0914389	8.85732	-2.7331	3.47907	0.00966644	0.0130004	0.00140133	-0.69751	0.369141	-0.712158	0.910902	0.127332	-0.312897	0.236937	8.35543	0.13365	8.98354	0.0143539	0.0121133	-0.0331964	-0.631104	-0.178467	-0.977783	0.42969	0.157232	-0.885922	0.0760736	7.56454	-0.22365	-5.62977	0.00811266	-0.0143907	-0.0181146	-1.00757	-0.161621	0.467041	0.0156561	0.0419038	-0.998313	0.0370027	0.147503	-0.580385	-8.40619	0.00514504	0.0106651	-0.0172012	-0.383057	0.110352	0.995117	-0.195601	0.255221	-0.864783	0.385685	-1.32696	-7.17315	-5.84277	0.0074587	0.00118698	-0.0143396	-0.244873	0.874023	0.578125	0.0359521	0.0267575	-0.998967	-0.00756099	0.715374	0.337161	-9.05469	0.00736428	0.00637176	0.00122415	-0.561768	-0.0500488	1.02295	-0.0934923	0.0868456	-0.988218	-0.0845078	-1.87733	1.26119	-9.48966	-0.010447	-5.76314e-05	0.000926537	-0.249756	-0.187256	1.19482	
30	0.963006	-0.0180323	0.265188	0.0443862	-5.2886	-0.156981	9.47859	-0.0323287	0.0426972	-0.0187496	0.892334	-0.0349121	-0.635986	0.797323	-0.00741274	-0.601836	0.044885	9.51095	-0.748361	2.77677	-0.0199632	0.0230913	-0.0168679	-0.765381	-0.100342	-0.549805	0.835003	0.198953	-0.449612	0.247056	8.74763	1.31657	5.42446	0.00479035	0.00766895	-0.00791192	-0.844727	-0.413574	-0.712646	0.853655	0.0307247	-0.516374	0.060719	8.65781	-0.0377526	4.61903	0.000945917	0.00679624	-0.00640029	-0.932129	-0.0849609	-0.980713	0.818173	-0.226815	-0.520366	-0.0914745	8.82884	-2.8937	3.31994	-0.0305409	0.00851813	-0.00974649	-0.695312	0.369141	-0.705322	0.910848	0.12759	-0.312783	0.237157	8.30281	0.194755	8.94364	0.0125243	0.0196441	-0.00570242	-0.630859	-0.180664	-0.975586	0.429287	0.157354	-0.886091	0.0761292	7.52705	-0.251681	-5.62553	0.023262	0.00243511	-0.012831	-1.01416	-0.157227	0.468994	0.0155285	0.041923	-0.998315	0.0369969	0.154821	-0.57208	-8.39286	0.00501809	0.0146237	-0.0177073	-0.387207	0.105957	0.995117	-0.195844	0.255268	-0.864351	0.386497	-1.34344	-7.14154	-5.75239	0.0202222	0.000270836	-0.0177827	-0.242676	0.876221	0.575684	0.0358755	0.0267563	-0.998969	-0.00764724	0.70387	0.35042	-9.06112	0.00159598	0.00655141	0.000645966	-0.550781	-0.0478516	1.02051	-0.0935555	0.0866627	-0.988192	-0.0849376	-1.86343	1.42028	-9.40178	-0.0256752	0.0021175	0.00477736	-0.25415	-0.191895	1.20386	
31	0.962882	-0.0184949	0.265651	0.0441116	-5.33071	-0.200524	9.49961	-0.0270207	0.0410361	-0.0302398	0.896484	-0.0327148	-0.640137	0.797422	-0.00765047	-0.601713	0.0447257	9.53797	-0.749298	2.77085	-0.0330536	0.0280938	-0.0179023	-0.765381	-0.100342	-0.554443	0.835046	0.198521	-0.449813	0.246894	8.76265	0.903298	5.41591	-0.0051858	-0.00165712	0.00535619	-0.84668	-0.411377	-0.714844	0.85364	0.0305599	-0.516419	0.0606327	8.71335	-0.107874	4.58584	0.00114473	0.00467539	-0.000731667	-0.932373	-0.0827637	-0.980713	0.818292	-0.226731	-0.520282	-0.0910884	8.80694	-2.75086	3.50763	0.0216743	0.0132109	0.00990728	-0.693359	0.371338	-0.712158	0.910999	0.127353	-0.312593	0.236954	8.3132	0.12922	9.00375	-0.0120899	0.025871	-0.0293513	-0.633301	-0.17627	-0.980225	0.429247	0.157215	-0.886122	0.0762792	7.52013	-0.199429	-5.65652	0.0253416	0.00460334	-0.00587093	-1.00977	-0.159424	0.464844	0.0154334	0.0419102	-0.998319	0.0369522	0.160213	-0.564331	-8.41464	0.0053159	0.0152066	-0.0171374	-0.38501	0.110352	0.999756	-0.195948	0.255218	-0.864397	0.386376	-1.3401	-7.21671	-5.77941	-0.000410333	-0.00516508	-0.0118193	-0.240479	0.880859	0.573486	0.0358755	0.0267563	-0.998969	-0.00764724	0.70387	0.35042	-9.06112	0.00159598	0.00655141	0.000645966	-0.550781	-0.0478516	1.02051	-0.0935468	0.0865944	-0.988178	-0.085176	-1.85189	1.38235	-9.49082	-0.0179826	0.00456245	-0.00190618	-0.251709	-0.194092	1.19727	
32	0.96271	-0.0194592	0.266327	0.0433687	-5.30698	-0.198223	9.51513	-0.0296959	0.0297191	-0.0357178	0.903076	-0.0305176	-0.633789	0.797661	-0.00804729	-0.601418	0.0443686	9.54529	-0.81168	2.79557	-0.0261421	0.0231809	-0.0116389	-0.769775	-0.09375	-0.559326	0.835087	0.198105	-0.449961	0.246818	8.71241	1.10289	5.34268	-0.0329261	-0.00316768	-0.00130879	-0.846924	-0.40918	-0.712646	0.853607	0.0303904	-0.516504	0.0604641	8.69825	-0.0792122	4.56995	-0.00638534	-0.000546758	-0.000734472	-0.932373	-0.0827637	-0.980713	0.818267	-0.227382	-0.519951	-0.0915823	8.80253	-2.62319	3.56795	-0.0343077	0.0169805	-0.00711509	-0.697754	0.371338	-0.709717	0.911136	0.126874	-0.312417	0.236916	8.31312	0.131734	8.96739	-0.0253095	0.0301637	-0.0103211	-0.628906	-0.178467	-0.978027	0.42872	0.156924	-0.886443	0.0761064	7.51148	-0.246971	-5.70685	0.0206142	-0.00604097	-0.00568074	-1.01196	-0.157227	0.466797	0.015338	0.0418691	-0.998324	0.0368866	0.144432	-0.55912	-8.42416	0.000676423	0.0107343	-0.0150062	-0.385254	0.110352	0.992676	-0.196022	0.255164	-0.864489	0.386167	-1.3007	-7.16472	-5.71657	-0.00450872	-0.00276883	-0.00579007	-0.242432	0.871826	0.573486	0.0360721	0.026715	-0.998964	-0.00753715	0.702353	0.339509	-9.05086	0.00452376	0.00870704	0.00135785	-0.552734	-0.0522461	1.02295	-0.0936034	0.0866277	-0.988197	-0.0848531	-1.8351	1.35147	-9.46744	0.024971	0.00456621	-0.0138744	-0.251709	-0.194092	1.19946	
33	0.962575	-0.0201034	0.266794	0.0431915	-5.43749	-0.331932	9.47264	-0.0137535	0.01178	-0.00445485	0.907227	-0.026123	-0.633789	0.797689	-0.00816113	-0.601377	0.0443923	9.52964	-0.809332	2.77465	-0.0072782	0.0138756	-0.018102	-0.765381	-0.100342	-0.559082	0.835078	0.198026	-0.450055	0.246742	8.75588	0.929179	5.31348	-0.0053893	-0.0014504	-0.00217987	-0.851074	-0.40918	-0.703613	0.853604	0.0303468	-0.516505	0.0605045	8.70452	-0.148308	4.5626	0.00556911	0.00749541	0.000579002	-0.93457	-0.0827637	-0.980713	0.818303	-0.227279	-0.519998	-0.0912569	8.78505	-2.83602	3.59887	0.0539955	0.0141555	-0.00640274	-0.693359	0.369141	-0.70752	0.911238	0.126584	-0.312422	0.236673	8.27938	0.124284	8.99484	-0.000463884	0.0132318	-0.02741	-0.631104	-0.17627	-0.982178	0.428353	0.1569	-0.886622	0.0761364	7.5335	-0.21225	-5.64269	0.0182574	-0.0110446	-0.013618	-1.0166	-0.148682	0.470947	0.0154168	0.0420394	-0.998319	0.0368069	0.143336	-0.566108	-8.41747	0.003457	0.0122593	-0.0172242	-0.382812	0.105957	0.995117	-0.195793	0.255195	-0.864866	0.385418	-1.33157	-7.15224	-5.9274	-0.00265847	0.00168739	-0.0160851	-0.242432	0.871826	0.569092	0.0361813	0.026716	-0.99896	-0.0074951	0.708028	0.343229	-9.04243	0.00291414	0.00630403	0.000219267	-0.548584	-0.0478516	1.02734	-0.0937337	0.0864722	-0.988189	-0.0849607	-1.86013	1.33451	-9.4756	-0.0151664	-0.00068929	-0.000179762	-0.256104	-0.196289	1.19043	
34	0.962586	-0.0198031	0.266731	0.0434781	-5.3724	-0.274011	9.45227	0.0132596	-0.00484677	0.0238128	0.898438	-0.0283203	-0.631592	0.797674	-0.00800392	-0.601391	0.0445112	9.51357	-0.795668	2.73365	-0.00190062	0.0118924	-0.0207653	-0.763184	-0.0981445	-0.556885	0.83502	0.198195	-0.449937	0.247017	8.72012	1.17987	5.31801	-0.00166766	0.011425	0.000866524	-0.851074	-0.406982	-0.708252	0.853627	0.0305661	-0.516456	0.0604958	8.69945	-0.0564403	4.5877	0.00983413	0.00674689	-0.00149475	-0.930176	-0.0783691	-0.980713	0.818398	-0.226826	-0.520065	-0.0911383	8.80713	-2.7519	3.50504	0.0114552	0.010747	-0.0262008	-0.699707	0.369141	-0.70752	0.911157	0.12683	-0.312484	0.236772	8.3229	0.170601	8.97675	0.0111403	0.00982792	-0.0118955	-0.631104	-0.17627	-0.980225	0.428149	0.156895	-0.886747	0.0758444	7.48902	-0.220622	-5.58996	0.0110526	0.00110593	-0.0221265	-1.01416	-0.155273	0.471191	0.0154971	0.0422595	-0.998304	0.0369181	0.151949	-0.570041	-8.42705	0.00736566	0.0122243	-0.0172523	-0.387207	0.110352	0.992676	-0.196111	0.255243	-0.864686	0.385629	-1.33483	-7.13226	-5.84102	0.0257959	-0.00790056	-0.0224283	-0.242676	0.876221	0.575684	0.0361446	0.0267201	-0.998961	-0.00755421	0.710793	0.343293	-9.0392	0.000744804	0.00743272	5.71019e-06	-0.557373	-0.0522461	1.02051	-0.093963	0.0860328	-0.988149	-0.0856156	-1.85712	1.36029	-9.50474	-0.032447	-0.0114421	0.0137958	-0.245117	-0.19165	1.19946	
35	0.962652	-0.0191256	0.266463	0.0439507	-5.34158	-0.174662	9.54551	0.0216682	-0.0156406	0.0234548	0.900879	-0.0305176	-0.629395	0.797597	-0.00783551	-0.601488	0.0445974	9.55689	-0.74986	2.7994	0.00297864	0.00361396	-0.0215116	-0.762939	-0.104736	-0.552002	0.835009	0.198008	-0.450047	0.247002	8.82064	0.914395	5.40478	0.00934646	0.000629984	0.000200285	-0.844727	-0.404785	-0.717285	0.853685	0.0307646	-0.516336	0.0605984	8.72586	-0.111155	4.58293	0.0148024	0.0116558	-0.00260674	-0.940918	-0.0871582	-0.980469	0.818452	-0.226324	-0.520218	-0.0910339	8.80607	-2.88074	3.42068	0.0372182	0.00348386	-0.0306809	-0.706543	0.371338	-0.712158	0.911113	0.126888	-0.312652	0.236689	8.28957	0.123267	8.99756	0.00315001	0.00564208	-0.0261606	-0.628662	-0.180664	-0.977783	0.428529	0.15711	-0.886511	0.0760155	7.54892	-0.233493	-5.74649	0.0294236	0.031039	-0.0205656	-1.01416	-0.157227	0.468994	0.0153588	0.042246	-0.998305	0.0369591	0.143314	-0.568972	-8.43242	0.00630681	0.0117738	-0.0182071	-0.391602	0.108154	0.990479	-0.196447	0.255184	-0.864467	0.385986	-1.34708	-7.15529	-5.75978	0.0274919	-0.00500677	-0.0174355	-0.240234	0.876221	0.573486	0.036275	0.0266562	-0.998959	-0.00735393	0.705108	0.339455	-9.03221	0.00705084	0.00685433	0.00203741	-0.546143	-0.0498047	1.02295	-0.0947088	0.0849927	-0.988022	-0.087291	-1.92932	1.38652	-9.59494	-0.0765279	-0.0446992	0.0508821	-0.251709	-0.194092	1.20166	
36	0.962709	-0.0188539	0.266235	0.0442121	-5.29899	-0.160048	9.50567	0.0053809	-0.00468605	0.00770791	0.894043	-0.0285645	-0.629395	0.79748	-0.00747973	-0.601651	0.0445762	9.55325	-0.777977	2.75434	0.000757221	0.000246547	-0.017688	-0.769531	-0.100342	-0.556885	0.835071	0.197749	-0.450177	0.246763	8.72461	1.10353	5.37041	-0.0350031	-0.00392196	-0.0147686	-0.846924	-0.406982	-0.708252	0.853621	0.030855	-0.516429	0.0606641	8.72443	-0.0626105	4.58938	0.00173238	-0.00310629	0.00577125	-0.932129	-0.0871582	-0.978271	0.818689	-0.225282	-0.520378	-0.0905773	8.81104	-2.55019	3.53642	-0.00482693	0.000164379	-0.0238842	-0.695312	0.366943	-0.712158	0.911076	0.126984	-0.312745	0.236658	8.34705	0.188611	8.94509	-0.004829	0.0143255	-0.0107152	-0.628906	-0.178467	-0.978027	0.428579	0.157706	-0.886335	0.0765451	7.55831	-0.254368	-5.65149	0.0519666	0.0177091	-0.0308759	-1.00757	-0.157227	0.471191	0.0152444	0.0422314	-0.998303	0.0370964	0.155069	-0.574429	-8.42427	0.0128149	0.01322	-0.0171198	-0.389648	0.112305	0.997314	-0.196248	0.255301	-0.864502	0.385934	-1.32916	-7.13796	-5.76142	-0.0020733	0.00607562	-0.016895	-0.245117	0.880859	0.573486	0.0362181	0.0265251	-0.998967	-0.00705455	0.701415	0.337113	-9.03573	0.0146056	0.00326919	0.0059924	-0.555176	-0.0522461	1.02515	-0.0980473	0.0829041	-0.987663	-0.0896437	-2.10458	1.25524	-9.89785	-0.0513848	-0.173567	0.0676179	-0.242432	-0.202637	1.19507	
37	0.962779	-0.0191488	0.265913	0.0444991	-5.35846	-0.195106	9.49251	-0.0203921	-0.0184327	0.0078121	0.905029	-0.026123	-0.629395	0.797382	-0.00739978	-0.601775	0.0446573	9.54071	-0.773481	2.78086	-0.00436775	0.00156533	-0.0177183	-0.763184	-0.100342	-0.559082	0.835083	0.197501	-0.450394	0.246526	8.75567	0.899122	5.32463	-0.0304176	-0.00932689	-0.0076086	-0.851318	-0.402588	-0.710449	0.853595	0.030857	-0.516467	0.0606996	8.7006	-0.122804	4.55439	0.00471333	0.00193435	0.00291053	-0.934326	-0.0871582	-0.980469	0.818569	-0.225226	-0.520597	-0.0905384	8.77957	-2.87293	3.4509	0.013349	0.0051769	-0.00682781	-0.69751	0.366943	-0.709717	0.911074	0.126736	-0.312854	0.236655	8.29556	0.123932	9.0047	-0.0178756	0.0113364	-0.00986872	-0.631104	-0.17627	-0.980225	0.428783	0.157958	-0.886161	0.0768965	7.52488	-0.231583	-5.61106	0.0499897	0.0340068	-0.0241951	-1.01416	-0.155029	0.468994	0.0151828	0.0422012	-0.998304	0.0371274	0.149763	-0.564499	-8.44022	0.0083356	0.0133398	-0.0168964	-0.38501	0.110352	0.997314	-0.196248	0.255301	-0.864502	0.385934	-1.32916	-7.13796	-5.76142	-0.0020733	0.00607562	-0.016895	-0.245117	0.880859	0.573486	0.0360586	0.0264232	-0.998976	-0.00700602	0.694112	0.348444	-9.04765	0.00964288	-0.00276271	0.00874491	-0.554932	-0.0522461	1.02979	-0.103694	0.0806603	-0.986936	-0.0932666	-1.99942	1.99765	-9.44474	-0.201281	-0.249914	0.0550091	-0.224365	-0.202637	1.2019	
38	0.96297	-0.0196463	0.26516	0.0446351	-5.21646	-0.222043	9.47293	-0.0236415	-0.0315684	0.000991169	0.900879	-0.0327148	-0.633789	0.797523	-0.00747309	-0.601608	0.0443756	9.51131	-0.798543	2.72929	-0.00999069	0.0162308	-0.0159593	-0.763184	-0.0981445	-0.561523	0.835052	0.197253	-0.450469	0.246693	8.69407	1.0209	5.35305	-0.0277379	0.0103833	0.00546882	-0.846924	-0.404785	-0.715088	0.853571	0.0309507	-0.516511	0.0606121	8.68728	-0.0587785	4.61256	-0.00169156	0.00148075	-0.00397692	-0.934326	-0.0849609	-0.980713	0.818659	-0.224777	-0.520667	-0.0904397	8.83262	-2.48786	3.61009	-0.00857011	0.0109606	-0.0300826	-0.701904	0.366943	-0.714355	0.911069	0.126849	-0.312889	0.236564	8.32483	0.21229	8.9402	0.00329924	0.0176036	-0.0125674	-0.630859	-0.180664	-0.973633	0.429396	0.158438	-0.885689	0.0779198	7.53924	-0.276844	-5.5111	0.048007	0.0433092	-0.0161145	-1.01416	-0.155029	0.4646	0.015161	0.0424096	-0.998292	0.0372163	0.155871	-0.571309	-8.41828	0.00659331	0.00809683	-0.0174094	-0.38501	0.105957	0.99292	-0.196298	0.255531	-0.864341	0.386116	-1.33461	-7.16009	-5.87284	0.0105363	-0.004108	-0.0211877	-0.24707	0.874023	0.573486	0.0356302	0.0263699	-0.998993	-0.00693901	0.693218	0.323779	-9.04022	0.00718061	-0.00540648	0.00152615	-0.553223	-0.0456543	1.02051	-0.109126	0.0798709	-0.986185	-0.0956612	-1.92535	1.33782	-9.00193	0.0384064	-0.192767	-0.025119	-0.212891	-0.209229	1.19507	
39	0.963043	-0.0198694	0.264858	0.0447536	-5.16886	-0.287096	9.44358	-0.0198331	-0.02396	0.00394031	0.898682	-0.0305176	-0.635986	0.797498	-0.00759869	-0.601642	0.0443459	9.53373	-0.797315	2.7652	-0.0230785	0.0110194	-0.0153509	-0.763184	-0.0981445	-0.547363	0.835008	0.197176	-0.450503	0.246841	8.77434	0.80508	5.34501	-0.000198456	0.00328384	0.0105105	-0.849121	-0.402588	-0.710449	0.853494	0.0309131	-0.516667	0.0603995	8.72921	-0.114476	4.55514	-0.00173169	0.00127375	-0.00910792	-0.932129	-0.0869141	-0.982666	0.818535	-0.225179	-0.520591	-0.0909949	8.82405	-2.77558	3.48204	-0.0560367	0.0166186	-0.0340554	-0.69751	0.366943	-0.709717	0.911082	0.126615	-0.312906	0.23662	8.30053	0.155349	9.00398	-0.0150203	0.0189105	-0.00837354	-0.633301	-0.17627	-0.984375	0.430043	0.158517	-0.88532	0.0783857	7.5502	-0.317518	-5.67509	0.0478111	0.0743384	-0.0133262	-1.00952	-0.166016	0.467041	0.0151374	0.0426411	-0.998284	0.0371762	0.147463	-0.56935	-8.42684	0.00153333	0.007672	-0.0176565	-0.387207	0.108154	0.992676	-0.196211	0.256369	-0.864218	0.385879	-1.35731	-7.22552	-5.79112	0.0105387	-0.011078	-0.0338902	-0.240234	0.876221	0.575684	0.0352163	0.0264512	-0.999006	-0.00684654	0.681726	0.33297	-9.07756	0.0104494	-0.00764203	-0.00469994	-0.550781	-0.0478516	1.02954	-0.11081	0.0798507	-0.986178	-0.0937992	-1.95007	1.65791	-8.85649	0.154831	-0.112331	-0.0515692	-0.208496	-0.20459	1.19727	
40	0.963009	-0.0201534	0.264949	0.04483	-5.12593	-0.33253	9.5123	-0.00823147	0.0175793	-0.00255315	0.898682	-0.0305176	-0.629395	0.797437	-0.00776224	-0.60171	0.0444841	9.57209	-0.910477	2.657	-0.00490905	0.00557953	-0.0107211	-0.763184	-0.0981445	-0.554443	0.834862	0.19726	-0.45052	0.247235	8.76789	1.16947	5.36679	-0.0088491	0.000805081	0.00297354	-0.848877	-0.40918	-0.712646	0.853496	0.0311734	-0.516687	0.0600545	8.72934	-0.0903488	4.58281	0.00107038	0.00243562	-0.0143324	-0.931885	-0.0893555	-0.978271	0.818556	-0.225675	-0.520297	-0.0912574	8.84199	-2.67597	3.53181	-0.0284099	0.017446	-0.00825324	-0.69751	0.366943	-0.712158	0.911216	0.126346	-0.312885	0.236273	8.34963	0.12303	8.96209	-0.00552181	0.0195316	-0.0313949	-0.631104	-0.174072	-0.982422	0.431116	0.158958	-0.884611	0.0795911	7.53569	-0.295582	-5.64041	0.0586033	0.0591815	-0.0230885	-1.01221	-0.153076	0.462646	0.0150482	0.0426243	-0.998287	0.0371522	0.145622	-0.563284	-8.428	0.00419862	0.0107668	-0.0162007	-0.38501	0.110352	0.997314	-0.196219	0.25667	-0.864176	0.385769	-1.34491	-7.11473	-5.75146	-0.0022504	-0.005491	-0.0207937	-0.244873	0.874023	0.569092	0.0350185	0.0266286	-0.999009	-0.00674868	0.68155	0.326388	-9.03955	0.00709986	-0.00264536	-0.00675738	-0.555176	-0.0522461	1.02515	-0.110975	0.0805198	-0.986265	-0.0920953	-2.00547	1.69386	-8.88346	0.0636346	0.00618113	-0.0461303	-0.213135	-0.200195	1.19946	
41	0.962833	-0.0204425	0.26555	0.0449145	-5.36068	-0.349178	9.52499	-0.0113361	0.0169706	0.00546095	0.905029	-0.0239258	-0.631592	0.797288	-0.00771612	-0.601903	0.0445467	9.49614	-0.769553	2.74352	-0.0228356	0.0061565	-0.0231168	-0.760986	-0.100342	-0.556885	0.834929	0.196919	-0.450809	0.246753	8.66778	0.762436	5.22078	-0.0117758	-0.00197468	-0.0145325	-0.855469	-0.404785	-0.710449	0.853499	0.0314719	-0.516687	0.0598583	8.71967	-0.110004	4.53159	0.0110679	0.0109476	-0.0157822	-0.929688	-0.0891113	-0.980469	0.818328	-0.225991	-0.520418	-0.0918296	8.84258	-2.99617	3.49499	-0.00724187	-0.000193084	-0.0298301	-0.701904	0.369141	-0.709717	0.911263	0.126459	-0.312844	0.236086	8.29317	0.110407	9.0052	0.00339395	0.0120828	-0.0278686	-0.637695	-0.17627	-0.982178	0.432255	0.159496	-0.883913	0.0800889	7.54075	-0.152313	-5.51092	0.042283	0.0541889	-0.0370689	-1.0166	-0.150879	0.456055	0.0150779	0.0428426	-0.998273	0.0372514	0.126454	-0.569074	-8.44454	0.00787506	0.0153785	-0.0173382	-0.383057	0.110352	0.992676	-0.196132	0.256625	-0.864346	0.385464	-1.38018	-7.25531	-5.84711	0.00533823	0.00189524	-0.0167484	-0.242676	0.876221	0.573486	0.035007	0.0267	-0.999008	-0.00663627	0.688514	0.339624	-9.03036	0.0103267	0.0100956	-0.000900809	-0.552979	-0.0500488	1.03418	-0.108527	0.0812138	-0.986504	-0.0918533	-2.20124	1.27166	-9.38487	0.0452452	0.116793	-0.0246666	-0.217529	-0.204834	1.19727	
42	0.962771	-0.0201702	0.265742	0.0452294	-5.38058	-0.325322	9.56459	0.00654429	0.0032626	0.0274543	0.900879	-0.0327148	-0.631592	0.796948	-0.0067199	-0.602329	0.0450407	9.61035	-0.825629	2.76332	0.0441777	-0.00166649	-0.0283766	-0.765381	-0.0981445	-0.556885	0.834881	0.197501	-0.450578	0.246875	8.72678	1.05588	5.23808	0.0207865	0.0070447	-0.0150932	-0.849121	-0.402588	-0.708252	0.853761	0.0322887	-0.516252	0.059447	8.7045	-0.0450614	4.57948	0.0286413	0.0255623	-0.0315508	-0.929932	-0.0871582	-0.976074	0.818559	-0.224835	-0.520649	-0.0913007	8.83415	-2.43867	3.69199	0.0194327	0.004107	-0.0258598	-0.697266	0.362549	-0.712158	0.911293	0.127101	-0.312753	0.235745	8.31724	0.219974	8.9579	0.0187967	0.0119806	-0.0364805	-0.633057	-0.182861	-0.97998	0.434686	0.159428	-0.882804	0.0792922	7.69561	-0.152755	-5.34305	-0.0196561	0.110654	-0.0493872	-1.0144	-0.152832	0.451904	0.0150779	0.0428426	-0.998273	0.0372514	0.126454	-0.569074	-8.44454	0.00787506	0.0153785	-0.0173382	-0.383057	0.110352	0.992676	-0.19626	0.256476	-0.864284	0.385637	-1.32634	-7.0846	-5.8047	-0.00233726	0.00346618	-0.0140926	-0.242432	0.874023	0.573486	0.0349298	0.026712	-0.999011	-0.00652074	0.681383	0.319063	-9.05644	0.00919101	0.00692047	0.000389241	-0.550781	-0.0456543	1.02515	-0.107277	0.0814245	-0.986747	-0.0905084	-2.27793	1.45326	-9.85022	0.0331509	0.0303362	-0.0149536	-0.217773	-0.200439	1.19043	
43	0.962835	-0.0189609	0.265401	0.0463846	-5.23325	-0.200408	9.44312	0.0390724	-0.0174003	0.0698976	0.903076	-0.0327148	-0.633789	0.796972	-0.00547722	-0.602261	0.0456946	9.53682	-0.747879	2.80581	0.0425782	0.0171872	-0.0263347	-0.765381	-0.100342	-0.552002	0.834965	0.198433	-0.450119	0.24668	8.71729	0.906949	5.36134	0.0328385	0.0108405	-0.0324465	-0.853271	-0.411133	-0.710205	0.853963	0.0328957	-0.515898	0.0592716	8.67049	-0.0968183	4.55858	0.0227098	0.0194615	-0.0201701	-0.932129	-0.0871582	-0.976074	0.81818	-0.225234	-0.52094	-0.0920475	8.78386	-2.92505	3.39883	-0.000859858	0.00486542	-0.0371388	-0.699951	0.371338	-0.714355	0.911242	0.127745	-0.312845	0.235474	8.28889	0.166872	8.98497	0.0245109	-0.000191551	-0.0379015	-0.635254	-0.182861	-0.97998	0.438037	0.15955	-0.881205	0.0783898	7.66886	-0.233696	-5.43144	-0.000194585	0.131431	-0.0550886	-1.0271	-0.157227	0.439209	0.0152663	0.0433031	-0.998239	0.0375487	0.157202	-0.582174	-8.43408	0.00517721	0.0132436	-0.0184301	-0.383057	0.110352	0.997314	-0.196499	0.256512	-0.864146	0.385799	-1.29747	-7.17726	-5.81606	0.0264003	-0.0110128	-0.0205339	-0.240479	0.883057	0.573486	0.0347667	0.0266956	-0.999019	-0.00631063	0.682893	0.316806	-9.04737	0.015081	0.00313535	0.00116507	-0.550781	-0.0456543	1.02954	-0.109191	0.080971	-0.986592	-0.0903175	-2.27411	1.26905	-9.69165	0.0309605	-0.103543	0.0116571	-0.218018	-0.195801	1.19946	
44	0.962759	-0.0174996	0.26548	0.0480459	-5.27633	-0.0900457	9.43533	0.0364711	0.00365803	0.0800762	0.896729	-0.0393066	-0.631592	0.796941	-0.00448387	-0.602274	0.0461517	9.4974	-0.726092	2.76506	0.0278834	0.0113723	-0.0289716	-0.765137	-0.102539	-0.549561	0.834733	0.20004	-0.449438	0.247409	8.73314	1.1771	5.36067	0.0782437	0.0131824	-0.00977415	-0.844482	-0.413574	-0.710205	0.854195	0.0338441	-0.515495	0.0589066	8.68026	0.0179563	4.64595	0.0299298	0.0211739	-0.0315175	-0.929443	-0.0957031	-0.978271	0.818138	-0.224422	-0.521357	-0.0920443	8.77935	-2.52798	3.55454	0.0178085	0.00156916	-0.0315458	-0.699707	0.364746	-0.709717	0.911205	0.128637	-0.312925	0.235025	8.29744	0.254852	8.95843	0.0320082	0.00144041	-0.0450606	-0.63501	-0.184814	-0.977783	0.441825	0.159341	-0.879418	0.077618	7.67239	-0.250278	-5.41652	-0.0319139	0.151046	-0.0427845	-1.01807	-0.166016	0.439453	0.0151043	0.0432759	-0.998243	0.0375434	0.133727	-0.573215	-8.41046	0.00572077	0.0105102	-0.0173677	-0.385254	0.112549	0.990479	-0.196637	0.256489	-0.863988	0.386099	-1.33925	-7.09265	-5.72876	0.0159625	0.00400695	-0.0204448	-0.242676	0.876221	0.573486	0.0344804	0.026647	-0.99903	-0.00625415	0.674569	0.311625	-9.0585	0.00438134	-0.00209074	0.00109797	-0.543945	-0.0498047	1.02515	-0.112695	0.0801913	-0.986246	-0.0904837	-2.22857	1.73698	-9.39502	-0.0379791	-0.142711	0.0165062	-0.199707	-0.200195	1.19507	
45	0.96268	-0.016525	0.265664	0.048948	-5.33237	-0.0836823	9.49678	0.0275036	0.00560209	0.0325627	0.89917	-0.0415039	-0.631348	0.796911	-0.00399247	-0.602298	0.0464098	9.52142	-0.67986	2.6746	0.00538138	0.00917001	-0.0196636	-0.769287	-0.106934	-0.554199	0.834668	0.200524	-0.449219	0.247631	8.79145	1.25332	5.40329	0.0445839	0.00963083	-0.00849654	-0.851074	-0.40918	-0.712646	0.854249	0.0340772	-0.515409	0.0587375	8.71349	-0.00823538	4.61927	0.0124795	0.0121524	-0.0213402	-0.931641	-0.0979004	-0.982666	0.817919	-0.22492	-0.521386	-0.0926061	8.84785	-2.64115	3.47865	-0.0300474	0.0143867	-0.026005	-0.699951	0.373535	-0.70752	0.911192	0.128947	-0.312989	0.234819	8.30945	0.199083	8.96672	0.017756	0.00199843	-0.0400526	-0.637451	-0.180664	-0.97998	0.443236	0.159358	-0.878721	0.0774362	7.69639	-0.234471	-5.43874	-0.00777764	0.132258	-0.0402668	-1.0271	-0.159424	0.428711	0.0151043	0.0432759	-0.998243	0.0375434	0.133727	-0.573215	-8.41046	0.00572077	0.0105102	-0.0173677	-0.385254	0.112549	0.990479	-0.196551	0.256547	-0.8641	0.385853	-1.37043	-7.15196	-5.75436	-0.0164042	0.00320188	-0.0215136	-0.24707	0.874023	0.575684	0.0343673	0.026641	-0.999034	-0.00634874	0.664118	0.321423	-9.04217	-0.00170538	0.00116351	0.000979509	-0.541992	-0.0432129	1.02734	-0.115464	0.0796213	-0.985782	-0.0925363	-2.10134	1.42923	-9.06333	-0.0409248	-0.0923586	0.00139706	-0.192627	-0.206787	1.2019	
46	0.962672	-0.0162528	0.265722	0.0488958	-5.38126	-0.047802	9.57897	0.00437166	0.000626844	-0.0053248	0.89917	-0.0415039	-0.633545	0.796776	-0.00386973	-0.602469	0.0465165	9.54136	-0.693419	2.72156	-0.000889285	-0.00338844	-0.0179759	-0.76709	-0.106934	-0.558838	0.834674	0.200498	-0.449204	0.247661	8.74719	1.11933	5.35613	-0.0181648	-0.000580191	-0.00223026	-0.851318	-0.404785	-0.710449	0.854234	0.0342126	-0.515461	0.0584255	8.7055	0.0219764	4.60386	0.000608388	0.00280992	-0.0106077	-0.929443	-0.0935059	-0.982666	0.817913	-0.225002	-0.521313	-0.0928721	8.82142	-2.62755	3.45778	-0.0190386	0.0180217	-0.0275542	-0.699707	0.366943	-0.712158	0.91119	0.129064	-0.313141	0.234559	8.3033	0.225948	8.94757	-0.00455479	0.00955725	-0.0251774	-0.628662	-0.182861	-0.977783	0.445567	0.159776	-0.877409	0.0780734	7.73536	-0.199073	-5.41342	0.0567908	0.11943	-0.0328478	-1.02466	-0.166016	0.430908	0.0154002	0.0437046	-0.99822	0.03754	0.143149	-0.565442	-8.41545	0.00168262	0.0133859	-0.0178941	-0.38501	0.108154	0.995117	-0.196629	0.256568	-0.864109	0.385778	-1.3225	-7.14918	-5.80464	0.0109787	-0.00362424	-0.0181765	-0.237793	0.874023	0.575928	0.0341791	0.0266264	-0.999039	-0.00654976	0.678411	0.324159	-9.05232	-0.00444039	0.00328608	-0.00027622	-0.546387	-0.043457	1.02954	-0.115284	0.0800837	-0.98576	-0.0925905	-2.08698	1.52689	-8.87053	0.00476189	0.0487445	-0.0266177	-0.19751	-0.202393	1.19727	
47	0.96275	-0.016344	0.265455	0.0487742	-5.50717	-0.133488	9.49078	-0.00478603	-0.0213847	-0.0109206	0.89917	-0.0437012	-0.631348	0.796558	-0.00379541	-0.60275	0.0466221	9.5784	-0.74787	2.74184	-0.0141911	0.00919848	-0.0187133	-0.767334	-0.104736	-0.552002	0.834693	0.200048	-0.449513	0.247399	8.76274	1.06288	5.30564	-0.0129812	-0.00268923	-0.00377525	-0.853271	-0.406982	-0.715088	0.854221	0.0341704	-0.51552	0.058119	8.68758	-0.0107977	4.614	-0.00576319	0.00242695	-0.00623081	-0.927002	-0.0979004	-0.980469	0.817803	-0.225311	-0.52137	-0.0927713	8.90514	-2.70342	3.52331	0.00262232	0.00680935	-0.00449381	-0.70166	0.362549	-0.709717	0.911333	0.12887	-0.313157	0.23409	8.33987	0.238555	9.00721	-0.00564519	0.0134396	-0.0320198	-0.628662	-0.182861	-0.97998	0.447307	0.160241	-0.876354	0.0790093	7.80868	-0.130378	-5.32405	0.0446602	0.0866289	-0.0258033	-1.0376	-0.166016	0.424561	0.0155079	0.0439209	-0.998211	0.0374889	0.147448	-0.570883	-8.42798	0.000836171	0.012975	-0.0176149	-0.391602	0.110107	0.999756	-0.19666	0.256543	-0.864177	0.385627	-1.33728	-7.04383	-5.77779	-0.00458669	-0.00119494	-0.0150825	-0.240234	0.871826	0.573486	0.0341422	0.0267215	-0.999036	-0.00683035	0.658495	0.331546	-9.0345	-0.00420186	0.00913925	-0.00364539	-0.546143	-0.0498047	1.02515	-0.11416	0.0803987	-0.985896	-0.0922649	-2.16102	1.54182	-8.96754	0.017997	0.100341	-0.0238532	-0.197266	-0.20459	1.19507	
48	0.963115	-0.0164469	0.264133	0.0487064	-5.32182	-0.12876	9.47079	-0.0114846	-0.0574523	0.00491869	0.896973	-0.0415039	-0.633545	0.796486	-0.0035617	-0.602838	0.0467333	9.48999	-0.717419	2.69507	0.00025293	0.0112443	-0.0229012	-0.769531	-0.102539	-0.554443	0.834705	0.199972	-0.449534	0.247384	8.65626	1.08183	5.27937	-0.011085	0.00929696	0.000933941	-0.844727	-0.40918	-0.705811	0.854206	0.0341941	-0.515565	0.057922	8.65316	-0.00343912	4.6021	-0.000119345	0.00274632	-0.00770642	-0.929688	-0.0913086	-0.982666	0.817661	-0.225396	-0.521491	-0.0931383	8.77749	-2.74612	3.54682	-0.0233336	-0.000935924	-0.0291046	-0.704102	0.369141	-0.705322	0.911286	0.128957	-0.313329	0.233994	8.28738	0.22443	8.98432	0.00502763	0.00524457	-0.0176464	-0.628662	-0.182861	-0.973389	0.448653	0.160722	-0.875525	0.0795921	7.73238	-0.150023	-5.22946	0.0403285	0.0639446	-0.0324134	-1.02881	-0.166016	0.420166	0.0155988	0.0441105	-0.998197	0.0375859	0.145493	-0.564973	-8.43298	0.00674375	0.012612	-0.0173288	-0.389404	0.108154	0.988037	-0.196559	0.256634	-0.864144	0.385693	-1.31608	-7.12056	-5.8084	0.024214	0.0087762	-0.0193581	-0.235596	0.876465	0.571289	0.0342944	0.0267698	-0.99903	-0.00677816	0.673645	0.340215	-9.05828	0.0119325	0.0160293	-0.000694484	-0.550537	-0.0522461	1.02515	-0.111319	0.0809604	-0.986214	-0.0918462	-2.25637	1.53083	-9.49022	0.00704044	0.123186	-0.019323	-0.206543	-0.200195	1.19946	
49	0.963408	-0.0157849	0.263029	0.0491048	-5.25478	-0.112839	9.56275	0.0301885	-0.0449229	0.0241468	0.89917	-0.0415039	-0.637939	0.796606	-0.00333922	-0.602684	0.0466817	9.59063	-0.760542	2.77152	-0.00140791	0.0326533	-0.0260277	-0.769531	-0.102539	-0.552002	0.834558	0.199981	-0.449754	0.247473	8.82215	1.01661	5.3333	0.0177387	-0.00568197	-0.000840547	-0.848877	-0.40918	-0.712646	0.854248	0.0343289	-0.51551	0.0577072	8.72268	0.0110193	4.60063	0.00524021	0.00804105	-0.0112843	-0.927246	-0.0957031	-0.978271	0.817775	-0.224484	-0.5218	-0.0925983	8.81019	-2.66899	3.52551	0.0562973	-0.00159348	-0.0184802	-0.701904	0.364746	-0.709717	0.911221	0.12923	-0.313614	0.233716	8.31496	0.214387	8.96023	0.0160506	-0.00268533	-0.0322238	-0.630615	-0.184814	-0.973389	0.449178	0.160761	-0.875321	0.0787971	7.88449	-0.200944	-5.22333	-0.0208583	0.00662378	-0.0333802	-1.0332	-0.166016	0.420166	0.0157023	0.0443573	-0.998179	0.0377429	0.144039	-0.565433	-8.42684	0.00922499	0.0128711	-0.0188088	-0.38501	0.108154	0.995117	-0.196417	0.25634	-0.864104	0.386049	-1.32045	-7.15261	-5.80632	0.0223635	0.0108362	-0.0128933	-0.242188	0.864746	0.578125	0.0342734	0.0268157	-0.999031	-0.00661002	0.685363	0.315901	-9.07145	0.0115811	0.00965718	-0.0020029	-0.548584	-0.0478516	1.02734	-0.109348	0.0819465	-0.986516	-0.0900724	-2.19723	1.38586	-9.56022	0.0868304	0.0790072	-0.0506171	-0.217773	-0.197998	1.2019	
50	0.963538	-0.0150916	0.262435	0.0499392	-5.23158	-0.0147476	9.48148	0.0115315	-0.0172891	0.0437558	0.901611	-0.043457	-0.640137	0.796779	-0.00263605	-0.602433	0.0470207	9.52314	-0.759307	2.71739	0.023107	0.0215648	-0.02701	-0.760742	-0.104736	-0.561279	0.834524	0.200156	-0.449789	0.24738	8.72946	1.03309	5.2902	0.00171449	-0.00657649	-0.0112608	-0.848877	-0.40918	-0.705811	0.854327	0.0347273	-0.515342	0.0578093	8.67762	-0.00432027	4.58344	0.0223971	0.0136197	-0.00411039	-0.929199	-0.100098	-0.987061	0.817713	-0.223946	-0.522162	-0.0924134	8.84638	-2.64671	3.50509	0.0222362	-0.000499527	-0.0219835	-0.697266	0.358154	-0.70752	0.911101	0.129697	-0.313933	0.233495	8.32576	0.252623	8.95272	0.0107986	-0.00308108	-0.025362	-0.628174	-0.193604	-0.979492	0.449584	0.161409	-0.874991	0.0788196	7.75843	-0.17055	-5.36175	0.0371562	0.0427987	-0.0426367	-1.02856	-0.170166	0.418213	0.0156588	0.0443602	-0.998178	0.0377971	0.151197	-0.57051	-8.44702	0.0103383	0.0149338	-0.0175061	-0.389404	0.110352	0.995117	-0.196526	0.256346	-0.864055	0.3861	-1.37746	-7.18854	-5.82408	0.0153062	-0.00187397	-0.0170242	-0.238037	0.878662	0.580322	0.034103	0.0268984	-0.999037	-0.00628543	0.684292	0.299869	-9.0685	0.0200971	0.00142828	-0.000531113	-0.546143	-0.0498047	1.02979	-0.108963	0.0827581	-0.986697	-0.0877865	-2.18967	1.39126	-9.56466	0.0558471	0.0223043	-0.040641	-0.21582	-0.193604	1.19727	
51	0.963569	-0.0148716	0.262082	0.0512479	-5.31324	-0.0330374	9.50935	-0.0135251	-0.019432	0.0578559	0.890625	-0.0480957	-0.642334	0.796554	-0.00146877	-0.60269	0.0475842	9.52144	-0.738544	2.77423	0.038534	-0.00473675	-0.0291526	-0.769287	-0.106689	-0.551758	0.8345	0.199825	-0.449952	0.247434	8.71694	1.09489	5.4029	-0.0127822	0.00704279	0.00916141	-0.851074	-0.40918	-0.708008	0.85451	0.0352733	-0.515023	0.0576174	8.65264	0.0121867	4.61737	0.01437	0.0147238	-0.0211398	-0.929443	-0.0957031	-0.987061	0.817749	-0.222695	-0.522678	-0.0922046	8.80854	-2.75741	3.44489	0.0575331	-0.00210787	-0.0403375	-0.703857	0.360352	-0.712158	0.910952	0.130182	-0.314262	0.233363	8.3062	0.192927	8.94821	0.0146678	-0.00457214	-0.0281225	-0.63501	-0.184814	-0.973389	0.450932	0.162137	-0.874141	0.0790507	7.79859	-0.1745	-5.27411	0.0121762	0.0654909	-0.0422939	-1.03296	-0.170166	0.414062	0.0157238	0.0445616	-0.998162	0.0379509	0.154449	-0.581941	-8.41862	0.00880383	0.0138852	-0.0176609	-0.387451	0.112305	0.997314	-0.196939	0.256336	-0.863451	0.387245	-1.31882	-7.15927	-5.79936	0.0565367	-0.00725281	-0.0203218	-0.24707	0.871582	0.569092	0.0340038	0.0269681	-0.999039	-0.00617345	0.670464	0.315927	-9.05714	0.00890195	0.00877403	1.23522e-05	-0.550537	-0.0522461	1.03198	-0.109232	0.0832552	-0.986649	-0.0875204	-2.22768	1.19809	-9.36022	-0.0128682	-0.00548776	-0.0234039	-0.215576	-0.200195	1.19946	
52	0.96372	-0.0147891	0.261234	0.0527471	-5.13239	-0.1616	9.52071	-0.00901987	-0.0320078	0.0552372	0.897217	-0.0456543	-0.644287	0.796312	-0.000502487	-0.60297	0.0481036	9.57967	-0.666023	2.73604	0.0296177	-0.00196321	-0.02458	-0.773682	-0.108887	-0.549316	0.834554	0.199743	-0.449845	0.247512	8.75974	1.13263	5.38026	-0.000599908	0.0123691	-0.000886964	-0.844727	-0.411377	-0.703369	0.8546	0.0358001	-0.514843	0.0575703	8.67363	0.0377799	4.63175	0.0205498	0.0109335	-0.00942112	-0.927002	-0.0979004	-0.984863	0.817915	-0.221387	-0.523023	-0.0919236	8.90082	-2.60281	3.47902	0.0367669	0.0037735	-0.0383348	-0.703857	0.360352	-0.70752	0.91081	0.130983	-0.314468	0.233193	8.37273	0.26042	8.96088	0.0204033	-0.00160799	-0.0295995	-0.634766	-0.189209	-0.975342	0.451572	0.162584	-0.873749	0.0788214	7.86348	-0.187644	-5.22595	0.014252	0.0378622	-0.0378929	-1.03296	-0.172363	0.41626	0.015854	0.0447452	-0.998148	0.0380517	0.143562	-0.569521	-8.42886	0.00680316	0.0142046	-0.0169813	-0.391602	0.108154	0.997559	-0.196891	0.256536	-0.86348	0.387072	-1.31948	-7.19276	-5.75539	0.0111165	-0.00100464	-0.0131707	-0.238037	0.876465	0.569092	0.0341932	0.0269167	-0.999034	-0.006187	0.677826	0.318073	-9.04231	0.00202929	0.01257	0.00250381	-0.550537	-0.0522461	1.02051	-0.108722	0.0832589	-0.986733	-0.0872106	-2.05675	1.23824	-9.24507	0.0229776	0.0398904	0.000500676	-0.218018	-0.193604	1.19727	
53	0.963743	-0.014374	0.261025	0.0534716	-5.12268	-0.164624	9.51683	0.0159525	-0.000437772	0.0252228	0.892822	-0.0480957	-0.640137	0.79606	0.000174266	-0.603278	0.0484078	9.60041	-0.66047	2.77085	0.0116705	-0.0035356	-0.0229413	-0.769287	-0.106934	-0.554199	0.83456	0.199472	-0.450039	0.247356	8.80669	1.0057	5.35608	-0.0137875	-0.00630819	0.000701495	-0.851318	-0.402588	-0.708252	0.854602	0.035877	-0.51484	0.0575132	8.68815	0.0284632	4.59	0.00644295	0.005104	-0.00690884	-0.924805	-0.100098	-0.978027	0.817991	-0.220555	-0.523288	-0.0917399	8.88726	-2.52681	3.44446	0.0293503	0.00771089	-0.0233982	-0.70166	0.362549	-0.709717	0.910697	0.131382	-0.314678	0.233124	8.37539	0.27726	8.93335	0.0208044	0.00414592	-0.0218295	-0.634766	-0.191406	-0.977539	0.452236	0.16302	-0.873315	0.0789206	7.89343	-0.13148	-5.3373	0.0265533	0.0474997	-0.0311552	-1.03101	-0.167969	0.409668	0.015854	0.0447452	-0.998148	0.0380517	0.143562	-0.569521	-8.42886	0.00680316	0.0142046	-0.0169813	-0.391602	0.108154	0.997559	-0.196815	0.256455	-0.863606	0.386884	-1.28719	-7.08596	-5.74476	-0.0101737	0.00806043	-0.0124459	-0.245117	0.878662	0.569092	0.034227	0.0268842	-0.999033	-0.00629647	0.68695	0.31458	-9.0456	-0.00321084	0.0122829	0.00303815	-0.550781	-0.0478516	1.02271	-0.107173	0.0828662	-0.986832	-0.0883712	-2.1019	1.42939	-9.37247	-0.075429	0.064242	0.0201282	-0.215576	-0.200195	1.19727	
54	0.963709	-0.0138309	0.261238	0.053183	-5.22193	-0.108919	9.48657	0.0256925	0.00612312	-0.0127805	0.892822	-0.0480957	-0.635742	0.795925	0.000235944	-0.60346	0.0483602	9.51389	-0.635075	2.70016	-0.0158562	0.00334292	-0.0215647	-0.773682	-0.109131	-0.554199	0.834543	0.199383	-0.450011	0.247538	8.71502	1.12088	5.33816	-0.00539368	0.00665988	0.00480259	-0.851074	-0.41333	-0.712646	0.854554	0.0361766	-0.514913	0.0573855	8.66504	0.0387539	4.61335	0.00192525	-0.0030348	-0.00671948	-0.933838	-0.0979004	-0.989258	0.817787	-0.220764	-0.523427	-0.0922624	8.80483	-2.56351	3.4389	-0.0424319	0.00316795	-0.0292334	-0.703613	0.355957	-0.70752	0.910653	0.131197	-0.314781	0.233261	8.29242	0.233816	8.9078	-0.0159778	0.0145775	-0.00691325	-0.639404	-0.184814	-0.975586	0.452538	0.163014	-0.873171	0.0787911	7.83924	-0.133278	-5.12007	0.0215749	0.0150796	-0.0167009	-1.02637	-0.172363	0.411865	0.0161251	0.0451501	-0.998122	0.038129	0.130343	-0.564234	-8.4188	0.00528295	0.0151051	-0.0171002	-0.385254	0.112549	0.990479	-0.196507	0.256417	-0.863866	0.386485	-1.34411	-7.21994	-5.81485	-0.00300379	0.0124239	-0.0200099	-0.238037	0.876221	0.573486	0.0343411	0.0268512	-0.999028	-0.00659062	0.674412	0.327081	-9.03974	-0.00470994	0.0145733	0.00109223	-0.550781	-0.0456543	1.02954	-0.106106	0.0827261	-0.986891	-0.0891298	-2.09377	1.5467	-9.51169	-0.0119719	0.0414061	4.16999e-05	-0.220215	-0.198242	1.19507	
55	0.963696	-0.0135406	0.261395	0.0527276	-5.24358	-0.0881395	9.50968	0.0326048	0.0113691	-0.0267029	0.897461	-0.0522461	-0.637939	0.795808	0.000183732	-0.603619	0.0483084	9.53528	-0.698794	2.71863	-0.0177371	-0.00128255	-0.0195038	-0.769287	-0.111084	-0.551758	0.834535	0.199073	-0.450122	0.247612	8.76988	1.12787	5.35251	-0.0211775	0.00329804	0.0143972	-0.853271	-0.404785	-0.717285	0.854495	0.0361685	-0.515015	0.0573621	8.70361	0.0407393	4.59502	0.00182592	-0.00401174	-0.000593569	-0.931396	-0.100098	-0.980225	0.817748	-0.221185	-0.523269	-0.0924955	8.88691	-2.66658	3.46261	-0.0411778	0.0189904	-0.00944311	-0.701416	0.358154	-0.70752	0.910671	0.130973	-0.314812	0.233275	8.35729	0.245407	8.93299	-0.0139285	0.0177738	-0.010762	-0.636963	-0.189209	-0.979736	0.452591	0.163288	-0.873054	0.0792213	7.84188	-0.21735	-5.21312	0.0579189	0.0225724	-0.0205019	-1.03101	-0.167969	0.409668	0.0160833	0.0451302	-0.998123	0.0381475	0.13514	-0.586818	-8.42322	0.00737661	0.0147407	-0.0165027	-0.387451	0.112305	0.997314	-0.196434	0.256379	-0.863847	0.38659	-1.35359	-7.17168	-5.82674	0.0139631	0.00963782	-0.0236026	-0.242432	0.871826	0.566895	0.0343305	0.026823	-0.999029	-0.00662458	0.681829	0.319072	-9.02552	0.00246432	0.00916808	0.00264398	-0.550537	-0.0544434	1.02759	-0.106011	0.0827873	-0.986926	-0.0887915	-2.16142	1.39757	-9.58693	0.027243	0.0164915	-0.012005	-0.215576	-0.200195	1.19727	
56	0.963724	-0.0130256	0.261554	0.0515277	-5.29004	0.0537859	9.55853	0.0291869	-0.000248625	-0.039329	0.890625	-0.0480957	-0.635742	0.795784	-5.23723e-06	-0.603681	0.0479192	9.55866	-0.689638	2.73055	-0.0212713	0.00489188	-0.0173245	-0.773682	-0.108887	-0.551758	0.834524	0.1982	-0.450518	0.247627	8.79643	0.994863	5.29924	-0.038427	-0.000205774	0.0169359	-0.849121	-0.404785	-0.715088	0.85435	0.0358636	-0.515298	0.0571728	8.71687	0.00649959	4.57971	-0.0132782	-0.00678187	-0.000620834	-0.927002	-0.0979004	-0.984863	0.817706	-0.221545	-0.52313	-0.0927898	8.88913	-2.60526	3.48712	-0.0262467	0.0115495	-0.0182133	-0.708252	0.360352	-0.714355	0.910703	0.130664	-0.314815	0.23332	8.36367	0.254333	8.9423	-0.00710084	0.0188476	-0.0108324	-0.632568	-0.191406	-0.975342	0.45318	0.163487	-0.872641	0.0799835	7.88113	-0.0965325	-5.32012	0.0385682	0.0443155	-0.00979563	-1.04175	-0.168213	0.407471	0.016155	0.0453533	-0.99811	0.0381813	0.152017	-0.571857	-8.42322	0.00426398	0.0117126	-0.0184549	-0.383057	0.110352	0.992676	-0.196318	0.256633	-0.863973	0.386199	-1.35194	-7.25644	-5.85931	-0.00159693	-0.00439266	-0.0164246	-0.242432	0.874023	0.573486	0.0343305	0.026823	-0.999029	-0.00662458	0.681829	0.319072	-9.02552	0.00246432	0.00916808	0.00264398	-0.550537	-0.0544434	1.02759	-0.106092	0.0832236	-0.986866	-0.0889591	-2.04916	1.55981	-9.30659	-0.0394404	0.00228611	-0.0248838	-0.219971	-0.202637	1.19971	
57	0.963803	-0.0129704	0.261393	0.0508768	-5.21252	-0.00868027	9.53696	0.00354009	-0.00644238	-0.016249	0.892822	-0.0480957	-0.637939	0.795579	-0.000123356	-0.603961	0.0477954	9.55941	-0.772789	2.70869	-0.018332	-0.0145564	-0.0183478	-0.773682	-0.108887	-0.544678	0.834448	0.197856	-0.450658	0.247906	8.77835	1.07666	5.33081	0.00159874	0.000964849	0.00933846	-0.846924	-0.406982	-0.703613	0.854261	0.035789	-0.515465	0.0570462	8.68452	0.0276142	4.5908	-0.00169838	-0.000774712	-0.000150741	-0.933838	-0.0959473	-0.980469	0.817623	-0.221939	-0.52304	-0.093088	8.78201	-2.61734	3.55068	-0.02465	0.00544622	-0.0144763	-0.706055	0.360352	-0.705322	0.910709	0.130378	-0.314879	0.23337	8.29536	0.241965	8.92129	-0.0102826	0.0153575	-0.0125462	-0.637207	-0.184814	-0.971191	0.453505	0.163742	-0.872364	0.0806428	7.8906	-0.233603	-5.28433	0.041148	0.0416643	-0.0195699	-1.0376	-0.166016	0.405273	0.016017	0.0453421	-0.998112	0.0382004	0.140493	-0.577877	-8.40393	0.00641199	0.0123212	-0.0181794	-0.383057	0.110352	0.995117	-0.196617	0.256595	-0.863842	0.386365	-1.33385	-7.10626	-5.76098	0.0106615	-0.00615029	-0.0171664	-0.244873	0.876221	0.569092	0.0345809	0.0268373	-0.999021	-0.00633809	0.680083	0.309789	-9.07735	0.010946	0.00865034	0.000386781	-0.551025	-0.043457	1.0249	-0.106162	0.0837528	-0.986919	-0.0877853	-2.09827	1.37314	-9.40325	0.0712279	0.0123933	-0.035538	-0.222412	-0.193848	1.19946	
58	0.963808	-0.012822	0.261392	0.0508284	-5.15248	-0.00618835	9.54957	0.00544209	0.000471902	0.00618335	0.89502	-0.0478516	-0.640137	0.79504	-0.000290298	-0.604672	0.0477782	9.62863	-0.730034	2.64954	-0.00317264	-0.0364526	-0.0149416	-0.76709	-0.108887	-0.544678	0.834408	0.197813	-0.450664	0.248062	8.7308	1.06136	5.33869	0.00236802	0.00546903	0.00922537	-0.849121	-0.406982	-0.712646	0.854184	0.0357217	-0.515601	0.0570085	8.71686	-0.0270191	4.56899	0.00113555	0.0025585	-0.00305616	-0.929199	-0.102295	-0.978027	0.817701	-0.221582	-0.523093	-0.0929566	8.81627	-2.68716	3.49167	0.0416957	0.0106847	-0.0231736	-0.705811	0.358154	-0.709717	0.910641	0.130292	-0.315032	0.233476	8.32806	0.241873	8.89595	0.00307986	0.00745339	-0.0118834	-0.635254	-0.182861	-0.975586	0.454135	0.164006	-0.871907	0.0814914	7.89829	-0.167427	-5.23468	0.0507349	0.0397753	-0.0178735	-1.03955	-0.170166	0.407471	0.0158745	0.0453371	-0.998115	0.038199	0.149805	-0.58321	-8.43091	0.00621505	0.0110463	-0.0181363	-0.389648	0.114746	0.992676	-0.196694	0.256607	-0.863864	0.386269	-1.31709	-7.22105	-5.81408	0.00683324	0.00338277	-0.0188725	-0.242432	0.869385	0.571289	0.0345608	0.0268522	-0.999022	-0.00636734	0.681362	0.321297	-9.04077	0.0055692	0.00929745	0.000731982	-0.548584	-0.0478516	1.02051	-0.105677	0.0842046	-0.986953	-0.0875554	-2.00183	1.32903	-9.29369	-0.0141917	0.0330973	-0.0153404	-0.222412	-0.198242	1.2019	
59	0.963753	-0.0127678	0.261523	0.0512183	-5.25786	-0.111992	9.48735	0.00377545	-0.00140644	0.0168158	0.895264	-0.0500488	-0.637939	0.794726	-4.9021e-05	-0.605062	0.0480635	9.51136	-0.736126	2.66991	-0.00423994	0.00394994	-0.017455	-0.771484	-0.108887	-0.542236	0.834207	0.19788	-0.450722	0.24858	8.73222	1.0224	5.31059	0.0571745	0.00962881	0.00705116	-0.846924	-0.404785	-0.708252	0.854237	0.0359701	-0.515513	0.0568406	8.6861	0.0357997	4.57999	0.00986247	0.0110534	-0.00813334	-0.929199	-0.102295	-0.980225	0.817625	-0.221671	-0.523139	-0.093148	8.8409	-2.59839	3.50903	-0.0329669	0.0127395	-0.0123739	-0.701416	0.358154	-0.70752	0.910561	0.130425	-0.315118	0.2336	8.30013	0.231767	8.96668	0.0109021	0.00898952	-0.0136541	-0.636963	-0.189209	-0.975342	0.454829	0.164097	-0.871476	0.0820477	7.86434	-0.184209	-5.26924	0.0229729	0.0584442	-0.0133437	-1.03076	-0.170166	0.405518	0.0158335	0.0453128	-0.998115	0.03823	0.14537	-0.581945	-8.42499	0.00832725	0.0145887	-0.0174668	-0.387207	0.105957	0.99292	-0.196727	0.256592	-0.863754	0.386507	-1.27601	-7.17364	-5.72315	0.028544	0.00607452	-0.0225911	-0.240234	0.874023	0.573486	0.0345608	0.0268522	-0.999022	-0.00636734	0.681362	0.321297	-9.04077	0.0055692	0.00929745	0.000731982	-0.548584	-0.0478516	1.02051	-0.10403	0.0842737	-0.987044	-0.0884247	-1.97373	1.39057	-9.18369	-0.0589359	0.0864877	0.00356079	-0.227051	-0.196045	1.19946	
60	0.963733	-0.012491	0.261565	0.0514489	-5.16249	-0.0982903	9.49733	0.0102458	0.00713069	0.0140153	0.892822	-0.0480957	-0.637939	0.794592	0.000492912	-0.605203	0.0485028	9.58797	-0.696568	2.6926	0.0133884	0.00468416	-0.0198646	-0.773438	-0.113281	-0.546875	0.834191	0.198327	-0.450383	0.248891	8.72052	0.954477	5.34008	0.0200998	0.0112535	-0.00369262	-0.849121	-0.402588	-0.706055	0.854258	0.0361263	-0.515458	0.056935	8.71118	-0.0049023	4.59293	0.00814821	0.00823797	0.000678264	-0.929443	-0.0979004	-0.987061	0.817535	-0.221719	-0.523242	-0.0932468	8.90857	-2.70101	3.43819	0.0197882	0.00276058	-0.0203784	-0.705811	0.355957	-0.712158	0.910463	0.130818	-0.31517	0.233691	8.34887	0.250592	8.94142	0.0216168	0.00869593	-0.0210417	-0.63501	-0.187012	-0.977539	0.455349	0.16463	-0.871028	0.0828501	7.89294	-0.17123	-5.21358	0.039177	0.0511237	-0.0231001	-1.03735	-0.167969	0.40332	0.015904	0.0454938	-0.998105	0.0382702	0.142786	-0.590421	-8.4046	0.00488473	0.0125385	-0.0170091	-0.387207	0.110352	0.995117	-0.196241	0.256833	-0.863794	0.386505	-1.33754	-7.14157	-5.79458	-0.00258148	0.00973132	-0.0172268	-0.240234	0.876221	0.571289	0.0350228	0.0268504	-0.999006	-0.00627456	0.676088	0.318509	-9.04883	0.00295603	0.011808	0.000300147	-0.544189	-0.0454102	1.02954	-0.101599	0.0843453	-0.987274	-0.0886228	-2.17485	1.47471	-9.59363	0.00863069	0.0948768	-0.00831676	-0.229004	-0.202637	1.2019	
61	0.963681	-0.0121793	0.26181	0.05125	-5.26609	-0.113053	9.50024	0.01688	0.0093148	-0.0101761	0.893066	-0.050293	-0.635742	0.794517	0.000703893	-0.60529	0.0486437	9.58236	-0.70617	2.66578	0.00747552	0.00445796	-0.020101	-0.777832	-0.113281	-0.544434	0.834069	0.198632	-0.450325	0.249161	8.81215	0.91885	5.34666	0.0332917	0.00166385	0.00510963	-0.853271	-0.406982	-0.710449	0.854308	0.0362122	-0.51538	0.0568395	8.71002	-0.00304461	4.59513	0.00578676	0.0119928	-0.0103908	-0.933594	-0.100098	-0.982422	0.817535	-0.221719	-0.523242	-0.0932468	8.90857	-2.70101	3.43819	0.0197882	0.00276058	-0.0203784	-0.705811	0.355957	-0.712158	0.910385	0.131102	-0.315194	0.233805	8.36143	0.248725	8.93068	0.0265769	0.00696502	-0.0141117	-0.63501	-0.187012	-0.971191	0.455759	0.164604	-0.870809	0.0829486	7.90452	-0.228352	-5.21928	0.0199014	0.048574	-0.0154478	-1.03516	-0.167969	0.401123	0.015904	0.0454938	-0.998105	0.0382702	0.142786	-0.590421	-8.4046	0.00488473	0.0125385	-0.0170091	-0.387207	0.110352	0.995117	-0.196241	0.256833	-0.863794	0.386505	-1.33754	-7.14157	-5.79458	-0.00258148	0.00973132	-0.0172268	-0.240234	0.876221	0.571289	0.0350228	0.0268504	-0.999006	-0.00627456	0.676088	0.318509	-9.04883	0.00295603	0.011808	0.000300147	-0.544189	-0.0454102	1.02954	-0.100996	0.0846257	-0.98739	-0.0877513	-2.06599	1.5369	-9.7449	0.0493929	0.00775034	-0.0243695	-0.233398	-0.200439	1.19727	
62	0.96383	-0.011675	0.261502	0.0501237	-5.28708	-0.0968341	9.57012	0.0339762	-0.0251338	-0.0493923	0.89502	-0.0480957	-0.633545	0.794628	0.000880399	-0.605119	0.0489508	9.5696	-0.685744	2.60749	-0.00394435	0.0200085	-0.0133975	-0.773682	-0.108887	-0.549316	0.833877	0.199831	-0.449615	0.250126	8.71967	1.02932	5.37495	0.0333159	0.01338	-6.63555e-05	-0.851074	-0.40918	-0.712646	0.854348	0.0363022	-0.515304	0.0568706	8.66612	0.0730594	4.59402	0.0092018	0.00793775	0.00349491	-0.931396	-0.102295	-0.982422	0.817608	-0.221971	-0.522953	-0.0936275	8.82868	-2.6214	3.42271	-0.0109149	0.0186583	-0.0037053	-0.706055	0.362549	-0.702881	0.91031	0.131216	-0.315217	0.234	8.29988	0.205857	8.90057	0.00863771	0.0154901	-0.0145642	-0.637207	-0.184814	-0.975586	0.456243	0.16464	-0.87052	0.0832514	7.88685	-0.194709	-5.10592	0.0242604	0.0336206	-0.0109736	-1.03955	-0.168213	0.401123	0.0159608	0.0456949	-0.998091	0.0383515	0.145856	-0.583051	-8.42651	0.00621379	0.0110172	-0.0171522	-0.382812	0.108154	0.992676	-0.196115	0.256847	-0.863681	0.386813	-1.32102	-7.15346	-5.83153	0.0363102	0.00992713	-0.0266927	-0.240234	0.874023	0.573486	0.0352543	0.0267995	-0.999001	-0.0059975	0.677094	0.322788	-9.05142	0.00893864	0.00989927	0.00189596	-0.550781	-0.0478516	1.02734	-0.101381	0.085029	-0.987428	-0.0864722	-1.93868	1.18995	-9.30964	0.0945016	0.00437937	-0.0365676	-0.233643	-0.196045	1.19946	
63	0.963924	-0.0113741	0.261367	0.0490752	-5.35692	-0.0995935	9.59772	0.0447056	-0.0130324	-0.073002	0.894775	-0.0437012	-0.637939	0.794628	0.000880399	-0.605119	0.0489508	9.5696	-0.685744	2.60749	-0.00394435	0.0200085	-0.0133975	-0.773682	-0.108887	-0.549316	0.833735	0.200234	-0.449517	0.250454	8.82551	0.956068	5.33798	0.042607	0.00231233	0.00529853	-0.851074	-0.406982	-0.710449	0.854389	0.0363928	-0.515231	0.0568569	8.73837	0.0261417	4.59391	0.00907155	0.0123161	-0.00601639	-0.925049	-0.0957031	-0.987061	0.817602	-0.222117	-0.522891	-0.0936778	8.90617	-2.44871	3.55299	-0.0136112	0.0130475	-0.0104063	-0.70166	0.362549	-0.709717	0.910297	0.131249	-0.315138	0.234139	8.37744	0.335741	8.92467	-0.0017693	0.0208392	-0.0094774	-0.637207	-0.184814	-0.975586	0.456505	0.164729	-0.870315	0.0837758	7.95268	-0.16995	-5.13847	0.0342655	0.0258827	-0.00835288	-1.03516	-0.167969	0.40332	0.0159608	0.0456949	-0.998091	0.0383515	0.145856	-0.583051	-8.42651	0.00621379	0.0110172	-0.0171522	-0.382812	0.108154	0.992676	-0.196251	0.256854	-0.863456	0.387241	-1.29859	-7.15122	-5.84634	0.0465628	-0.00222642	-0.0288899	-0.244873	0.876221	0.575684	0.0351964	0.0268252	-0.999002	-0.00597116	0.67411	0.316926	-9.05458	0.00780691	0.0055939	-0.00135177	-0.550537	-0.0544434	1.02515	-0.101508	0.0850498	-0.987517	-0.0852797	-2.00128	1.31309	-9.34488	0.0963222	0.0047975	-0.0199417	-0.229248	-0.193848	1.19727	
64	0.964411	-0.0105017	0.260066	0.0465395	-5.30076	-0.145038	9.57622	0.0644011	-0.0652088	-0.0880659	0.899658	-0.0500488	-0.639893	0.794997	0.000754145	-0.604662	0.0486055	9.58175	-0.663029	2.68696	-0.011535	0.0205341	-0.012194	-0.771484	-0.108887	-0.547119	0.833432	0.20139	-0.449028	0.251412	8.71822	1.12228	5.32916	0.0631891	0.00883555	0.00858597	-0.844727	-0.40918	-0.710449	0.854463	0.0363142	-0.51513	0.0567054	8.65837	0.0628739	4.60682	-0.00377852	0.00744917	-0.00384855	-0.929443	-0.0979004	-0.980469	0.817335	-0.223479	-0.522638	-0.0941756	8.83625	-2.75948	3.41661	-0.0557258	0.0131945	0.0053973	-0.699707	0.369141	-0.70752	0.910257	0.130953	-0.315132	0.234466	8.32164	0.221816	8.94839	-0.00371647	0.0171347	-0.00339218	-0.630615	-0.187012	-0.977539	0.456606	0.164559	-0.870262	0.0841121	7.88609	-0.184626	-5.11245	0.0266711	0.00548968	-0.00482834	-1.03979	-0.163818	0.401123	0.0164935	0.04659	-0.998026	0.0387606	0.145684	-0.580946	-8.42523	0.00759243	0.0118389	-0.0179158	-0.382812	0.108154	0.995117	-0.196613	0.25701	-0.862946	0.388089	-1.32268	-7.14174	-5.66932	0.0303364	0.0059873	-0.0245885	-0.24292	0.880859	0.56665	0.0353072	0.0268427	-0.998999	-0.00583711	0.686869	0.332069	-9.05125	0.00347396	0.00999651	0.000757113	-0.548584	-0.0478516	1.02954	-0.10083	0.0850433	-0.987573	-0.0854388	-1.97617	1.39843	-9.35167	-0.00771075	0.0293975	0.000285058	-0.236084	-0.19165	1.19702	
65	0.964926	-0.00868122	0.258579	0.0444981	-5.17211	-0.0139783	9.58159	0.096219	-0.0657276	-0.0488892	0.89502	-0.043457	-0.646484	0.795263	-0.00016452	-0.60435	0.0481427	9.60255	-0.677974	2.74457	-0.059939	0.0372105	-0.0121136	-0.775879	-0.108887	-0.547119	0.833178	0.201894	-0.449034	0.251838	8.77091	1.12049	5.42805	0.0179231	-0.00593757	-0.0022326	-0.846924	-0.40918	-0.712646	0.854374	0.0360276	-0.515267	0.0569783	8.6706	0.0365511	4.62471	-0.0038261	-0.00567075	0.0190716	-0.929443	-0.0979004	-0.987061	0.817314	-0.224107	-0.522478	-0.093756	8.8624	-2.5072	3.50314	-0.025177	0.000884633	0.0115874	-0.699463	0.362549	-0.700684	0.910301	0.13054	-0.315035	0.234657	8.35529	0.276926	8.9279	-0.0121543	0.0265333	0.000629649	-0.63501	-0.187012	-0.975586	0.456522	0.164084	-0.870391	0.0841605	7.95078	-0.190292	-5.295	0.00443056	0.00727736	0.00669658	-1.03516	-0.167969	0.405273	0.0163738	0.0465825	-0.99803	0.0386988	0.140075	-0.573081	-8.40312	0.00173379	0.0123738	-0.016616	-0.389404	0.110352	0.990479	-0.196409	0.25686	-0.863185	0.387761	-1.3098	-7.19967	-5.80092	-0.0178027	0.00794258	-0.0132906	-0.240234	0.876465	0.569092	0.0353266	0.0268104	-0.998999	-0.00592208	0.675172	0.316952	-9.04687	0.00129005	0.0124958	0.00201417	-0.548828	-0.043457	1.02954	-0.100072	0.0849559	-0.987605	-0.0860444	-2.02955	1.39101	-9.50304	-0.0153707	0.0253674	-0.000804423	-0.236328	-0.187256	1.19482	
66	0.965252	-0.00677098	0.257663	0.0430483	-5.02368	0.223944	9.59503	0.0782346	-0.0257289	-0.03094	0.888672	-0.050293	-0.640137	0.795404	-0.000402306	-0.604174	0.0480249	9.61847	-0.718305	2.6959	-0.0326486	0.0336904	-0.0159009	-0.771484	-0.106689	-0.540039	0.833076	0.201717	-0.449458	0.251561	8.71612	1.06496	5.28789	-0.0107548	-0.0135681	-0.00574348	-0.851074	-0.411377	-0.705811	0.854202	0.0356498	-0.515565	0.0571052	8.65778	0.0570033	4.60387	-0.00484215	-0.00719836	0.0129297	-0.931641	-0.0979004	-0.980469	0.816843	-0.225723	-0.522461	-0.0940805	8.84219	-2.81878	3.424	-0.0716355	-0.00313613	0.0101656	-0.703857	0.362549	-0.705322	0.910372	0.129583	-0.315021	0.234933	8.30315	0.159458	8.96244	-0.0287593	0.0230756	0.00126122	-0.637207	-0.184814	-0.979736	0.455725	0.163739	-0.870874	0.0841544	7.94046	-0.254738	-5.06067	0.0178888	-0.0463991	-9.66653e-05	-1.03979	-0.166016	0.40332	0.0164846	0.0467498	-0.998019	0.0387362	0.137257	-0.579108	-8.43491	0.00435235	0.0129063	-0.0158437	-0.387695	0.116699	0.994873	-0.19638	0.256735	-0.863311	0.387577	-1.31893	-7.14527	-5.7719	0.00800108	0.00379813	-0.016403	-0.237793	0.874023	0.569092	0.0352857	0.0267764	-0.999001	-0.00589892	0.679009	0.318337	-9.03752	0.00812081	0.00604134	0.00225049	-0.550781	-0.0478516	1.02515	-0.100053	0.0850508	-0.987577	-0.0863024	-1.94361	1.44797	-9.44811	-0.0185515	0.00350795	-0.00936736	-0.23584	-0.196045	1.19727	
67	0.965262	-0.00638366	0.257721	0.0425349	-4.97742	0.216616	9.58672	0.00202829	0.0101745	-0.00783564	0.890869	-0.0500488	-0.644287	0.795994	-0.000708565	-0.603399	0.0479871	9.53451	-0.719523	2.66701	-0.00503156	0.0373141	-0.00818085	-0.769531	-0.104736	-0.552002	0.832684	0.20299	-0.449645	0.251498	8.77338	0.747434	5.24278	0.0736321	-0.0137833	-0.0200217	-0.84668	-0.413574	-0.703369	0.854257	0.0355014	-0.515461	0.0573078	8.71915	-0.0267241	4.58532	0.00516144	0.0175618	0.00433029	-0.933838	-0.0957031	-0.982666	0.816643	-0.226215	-0.522714	-0.0932278	8.91928	-2.72375	3.44439	0.0222919	-0.0125119	0.0167854	-0.699707	0.366943	-0.702881	0.910376	0.129662	-0.314904	0.235031	8.38601	0.232452	8.95456	0.0219684	0.0186672	-0.017209	-0.630859	-0.182861	-0.975586	0.454125	0.163579	-0.871771	0.0838269	7.90833	-0.141585	-5.15686	0.0184766	-0.0629442	-0.00472774	-1.03564	-0.159424	0.403076	0.0163943	0.0467026	-0.998022	0.0387573	0.134184	-0.584116	-8.43931	0.00698163	0.0134701	-0.0170236	-0.378906	0.116699	0.997314	-0.196371	0.256671	-0.863341	0.387557	-1.32807	-7.15666	-5.84186	0.00834366	0.00447603	-0.0203028	-0.244873	0.876221	0.571289	0.0352431	0.0267959	-0.999002	-0.00589225	0.677999	0.323668	-9.0514	0.00662708	0.00832833	0.000295381	-0.553223	-0.0456543	1.02515	-0.0999724	0.0851544	-0.987548	-0.0866248	-1.94118	1.37894	-9.35485	-0.00359613	0.0132193	-0.0120658	-0.23584	-0.198242	1.19263	
68	0.964944	-0.00653183	0.258812	0.0430846	-5.04985	0.159056	9.40934	-0.0136363	0.0510281	0.0326254	0.890869	-0.0500488	-0.644287	0.796242	-0.000695605	-0.603031	0.048505	9.52727	-0.797897	2.64912	0.00231771	0.0274822	-0.0015952	-0.769287	-0.106689	-0.547119	0.832044	0.205498	-0.449213	0.252352	8.86842	1.21533	5.23069	0.102537	-0.00892001	-0.0132573	-0.85083	-0.417725	-0.700928	0.854559	0.0356011	-0.514968	0.0571756	8.75436	0.0274272	4.61794	0.0112543	0.0306164	-0.00726542	-0.927246	-0.0957031	-0.982666	0.816476	-0.226263	-0.523021	-0.0928468	8.90652	-2.75335	3.35413	-0.0155807	-0.00654611	-0.000312473	-0.701904	0.366943	-0.705322	0.910287	0.130151	-0.314676	0.235409	8.35782	0.221206	8.98756	0.0267302	0.020151	-0.0105923	-0.63501	-0.187012	-0.973389	0.452478	0.163465	-0.872692	0.0833772	7.81492	-0.282031	-5.10165	0.00825846	-0.0531787	-0.0097302	-1.03101	-0.167969	0.411865	0.0162699	0.0467069	-0.998024	0.0387473	0.141064	-0.575856	-8.42605	0.00546284	0.0111369	-0.0185124	-0.389404	0.110352	0.997314	-0.196616	0.256675	-0.863181	0.387787	-1.32907	-7.19796	-5.80153	0.03287	-0.00803275	-0.0180685	-0.237793	0.874023	0.571289	0.035163	0.0267881	-0.999006	-0.00582442	0.672958	0.31929	-9.06235	0.00418138	0.00738901	0.00124288	-0.551025	-0.043457	1.0249	-0.0993911	0.0852464	-0.987576	-0.0868752	-1.96482	1.33927	-9.40661	-0.00437772	0.0313325	-0.00814814	-0.23584	-0.196045	1.19727	
69	0.964392	-0.00723791	0.260578	0.0446605	-5.21862	0.00449263	9.36463	-0.0464441	0.080835	0.0605189	0.899414	-0.0478516	-0.639893	0.796384	-0.000745836	-0.602818	0.0488084	9.40408	-0.696031	2.7267	-3.4205e-05	0.035329	0.00181631	-0.771729	-0.104736	-0.552002	0.831827	0.207127	-0.448453	0.253084	8.53856	1.11085	5.32645	0.0654797	0.0258679	-0.00918884	-0.853027	-0.417725	-0.696533	0.854686	0.0356054	-0.51475	0.0572471	8.64423	0.0366381	4.6317	0.00751603	0.0256776	0.00362402	-0.924805	-0.100098	-0.984863	0.816654	-0.226589	-0.522634	-0.0926688	8.68456	-2.59374	3.49596	-0.0194956	0.022283	-0.00496239	-0.703857	0.364746	-0.700684	0.910264	0.130376	-0.31457	0.235514	8.30303	0.224666	8.94347	0.0228511	0.0190635	-0.0170466	-0.637207	-0.187012	-0.975586	0.451854	0.163638	-0.872952	0.0836943	7.73595	-0.199641	-4.99534	0.0530709	-0.0392337	-0.00817296	-1.02905	-0.161621	0.415771	0.0162699	0.0467069	-0.998024	0.0387473	0.141064	-0.575856	-8.42605	0.00546284	0.0111369	-0.0185124	-0.389404	0.110352	0.997314	-0.196696	0.256586	-0.863178	0.387811	-1.34666	-7.10002	-5.72273	0.0121804	-9.44528e-05	-0.0131816	-0.244873	0.876221	0.571289	0.0351713	0.0267878	-0.999005	-0.00583106	0.691579	0.318995	-9.04014	0.00467174	0.0107558	0.000477553	-0.546387	-0.0478516	1.03198	-0.0989602	0.0851795	-0.98766	-0.0864841	-2.00268	1.34331	-9.58606	0.0249586	0.0177929	-0.00382557	-0.238037	-0.198242	1.19507	
70	0.964073	-0.00750763	0.261616	0.0454261	-5.25913	-0.136305	9.473	-0.0333463	0.086976	0.057522	0.897461	-0.0500488	-0.637939	0.796674	-0.000628768	-0.602416	0.049049	9.46685	-0.698794	2.75418	0.00418775	0.0268178	-0.00545245	-0.76709	-0.106689	-0.547119	0.831708	0.207647	-0.448134	0.253613	8.80703	1.08317	5.31382	0.0620943	0.0194187	0.010187	-0.844482	-0.415771	-0.705566	0.854914	0.0359335	-0.514339	0.0573235	8.69974	-0.00853121	4.62132	0.0197754	0.0241988	-0.00777722	-0.924805	-0.102295	-0.978027	0.816633	-0.22694	-0.522467	-0.0929379	8.89547	-2.67423	3.43824	-0.0378059	0.0217463	-0.0140238	-0.701904	0.366943	-0.702881	0.910317	0.130011	-0.314405	0.235733	8.36216	0.243138	8.96217	-0.0102853	0.0287661	-0.00229152	-0.630859	-0.184814	-0.975586	0.450976	0.163792	-0.873337	0.0841079	7.84686	-0.184214	-5.22719	0.0268366	-0.0257367	-0.008909	-1.02661	-0.166016	0.413818	0.0162888	0.0469243	-0.998009	0.0388619	0.150168	-0.589438	-8.40346	0.00344818	0.0107714	-0.0165538	-0.384766	0.101562	0.990479	-0.196673	0.256546	-0.863241	0.38771	-1.28041	-7.25027	-5.81577	0.0113104	0.000186049	-0.01962	-0.242432	0.874023	0.573486	0.0351713	0.0267386	-0.999007	-0.00571918	0.682349	0.316725	-9.0207	0.0102246	0.00883401	0.00359067	-0.553223	-0.0456543	1.02734	-0.0989602	0.0851795	-0.98766	-0.0864841	-2.00268	1.34331	-9.58606	0.0249586	0.0177929	-0.00382557	-0.238037	-0.198242	1.19507	
71	0.963447	-0.00722683	0.26378	0.0462307	-5.38754	-0.169761	9.6109	0.0232443	0.0862403	0.0280067	0.897461	-0.0522461	-0.62915	0.796894	-0.000697629	-0.602101	0.0493318	9.59834	-0.722409	2.79371	-0.0148939	0.0391893	-0.00790586	-0.771729	-0.104492	-0.547119	0.831203	0.20916	-0.447382	0.25535	8.74731	1.24312	5.34175	0.112435	0.0196241	0.0241338	-0.853027	-0.422119	-0.703125	0.855134	0.0362806	-0.513959	0.0572371	8.6984	0.114517	4.66063	0.0135065	0.020952	-0.00698625	-0.927002	-0.102295	-0.991211	0.816513	-0.228141	-0.522021	-0.0935576	8.87485	-2.78613	3.47224	-0.0751048	0.0142199	-0.00151648	-0.699951	0.373535	-0.700684	0.910314	0.129411	-0.314422	0.23605	8.32337	0.159919	8.97579	-0.0117995	0.017783	0.00165896	-0.635254	-0.182861	-0.975586	0.450078	0.16356	-0.873846	0.084088	7.91157	-0.243146	-5.31393	0.0194138	-0.0337015	-0.000333749	-1.03125	-0.159424	0.415771	0.0161662	0.0468904	-0.998013	0.0388572	0.15009	-0.570566	-8.42028	0.00611919	0.0116408	-0.0167648	-0.383057	0.110352	0.995117	-0.196719	0.256415	-0.863324	0.387589	-1.31809	-7.12101	-5.72645	-0.00180607	0.00855903	-0.0146229	-0.242676	0.878662	0.573486	0.0351256	0.0267001	-0.99901	-0.0057448	0.682318	0.318584	-9.04366	0.00373872	0.00812382	0.00111912	-0.544189	-0.0454102	1.02954	-0.0993645	0.0849372	-0.987682	-0.086005	-1.90195	1.31739	-9.41971	0.0230434	-0.0107811	0.0012037	-0.238281	-0.193848	1.20166	
72	0.963042	-0.00651844	0.265324	0.0459478	-5.52013	0.0786705	9.52364	0.0278709	0.0545187	-0.00985429	0.901855	-0.0522461	-0.626953	0.797148	-0.000861391	-0.601749	0.0495213	9.53762	-0.767686	2.74132	-0.0128938	0.0262871	-0.0104187	-0.765381	-0.0981445	-0.556885	0.831032	0.209752	-0.447226	0.255693	8.787	1.28738	5.37538	-0.0139249	0.00316476	-0.00707492	-0.846436	-0.424316	-0.696289	0.8551	0.0358918	-0.513997	0.0576435	8.68321	0.0469203	4.66138	-0.0105654	-0.000863274	0.0264202	-0.929199	-0.100098	-0.989258	0.816409	-0.2288	-0.521911	-0.0934674	8.85756	-2.80326	3.38158	-0.0196186	-0.000718578	0.00122673	-0.700195	0.37793	-0.70752	0.910331	0.128883	-0.314432	0.236261	8.35463	0.171732	8.9545	-0.0187309	0.0232215	-0.00544795	-0.633057	-0.182861	-0.975586	0.449066	0.16353	-0.874338	0.0844436	7.80736	-0.246747	-5.34914	0.0348736	-0.0316896	-0.00136051	-1.02905	-0.161621	0.415771	0.0161295	0.0468562	-0.998016	0.0388445	0.148053	-0.580954	-8.42729	0.00582522	0.0162197	-0.0159413	-0.391357	0.101562	0.995361	-0.196339	0.256268	-0.863513	0.387457	-1.32197	-7.19975	-5.84175	-0.00014272	0.0156997	-0.0187526	-0.242432	0.874023	0.571289	0.0350767	0.0266536	-0.999012	-0.00578784	0.686073	0.316756	-9.04344	0.00306721	0.00893291	0.00206773	-0.548828	-0.043457	1.02954	-0.0994796	0.0845362	-0.987654	-0.0865797	-2.01989	1.37053	-9.42113	-0.0344915	-0.00160765	0.0103018	-0.233643	-0.196045	1.19727	
73	0.962944	-0.0065297	0.265798	0.0452416	-5.58763	0.113993	9.45092	0.00130538	0.00146535	-0.030456	0.904053	-0.0522461	-0.631348	0.797089	-0.00172229	-0.601855	0.0491553	9.4496	-0.733493	2.71603	-0.0564208	-0.00502226	-0.0102487	-0.76709	-0.106689	-0.547119	0.830888	0.209555	-0.447388	0.256039	8.74764	1.19456	5.30207	0.0100167	0.00171326	0.0217406	-0.853027	-0.415527	-0.708008	0.85503	0.0357173	-0.514108	0.0578038	8.67321	0.0419838	4.63082	0.00552764	0.00126142	0.00493179	-0.929199	-0.102295	-0.986816	0.816662	-0.228685	-0.521708	-0.0926627	8.74744	-2.67436	3.38824	0.0348713	0.0160873	0.0172969	-0.699951	0.373535	-0.705322	0.910476	0.128451	-0.314279	0.236141	8.27794	0.179863	8.94143	-0.015446	0.0183915	-0.0100921	-0.630859	-0.182861	-0.97998	0.448049	0.16295	-0.874992	0.084189	7.7519	-0.227748	-5.29263	0.00436268	-0.0204638	0.00941518	-1.03149	-0.157227	0.422119	0.0160131	0.0468158	-0.998019	0.0388677	0.14283	-0.581059	-8.44284	0.00992316	0.0123018	-0.0153957	-0.389404	0.110352	0.997314	-0.196333	0.256246	-0.863514	0.387473	-1.37203	-7.24607	-5.88043	0.00885984	0.00433842	-0.0193033	-0.242676	0.876221	0.569092	0.0350206	0.0265885	-0.999016	-0.00580365	0.668291	0.312393	-9.04418	0.00415051	0.00678687	0.00349747	-0.551025	-0.043457	1.0249	-0.0997338	0.0842573	-0.987667	-0.0864185	-1.93326	1.36681	-9.46388	0.0197233	-0.00240435	-0.000133373	-0.23584	-0.196045	1.20166	
74	0.963229	-0.00704686	0.264845	0.0446984	-5.49212	-0.098087	9.53533	-0.0129546	-0.0547175	-0.0205943	0.903809	-0.0478516	-0.626953	0.796821	-0.00193599	-0.60221	0.0491545	9.56683	-0.737455	2.73098	-0.0208433	0.0113339	-0.0163714	-0.762939	-0.104736	-0.559082	0.831093	0.208285	-0.447674	0.255912	8.7101	0.984316	5.16866	-0.0525022	0.00439897	0.0157906	-0.85083	-0.422119	-0.700928	0.854908	0.0354872	-0.51431	0.0579557	8.71553	0.0270006	4.59982	-0.00360914	-0.00102956	0.0132314	-0.931641	-0.0957031	-0.980469	0.816599	-0.229595	-0.521343	-0.0930208	8.84764	-2.83037	3.48811	-0.072311	0.0161151	-0.00457808	-0.704346	0.375732	-0.705322	0.910641	0.127475	-0.314121	0.236243	8.29927	0.131121	8.99865	-0.029129	0.0313124	-0.00310103	-0.628906	-0.178467	-0.978027	0.447286	0.162034	-0.87564	0.0832674	7.83447	-0.136931	-5.21429	-0.0366047	-0.0400959	0.00250563	-1.02905	-0.161621	0.424316	0.0159399	0.0468141	-0.998017	0.0389531	0.145335	-0.582232	-8.41524	0.00716807	0.0147127	-0.0170529	-0.384766	0.10376	0.995117	-0.196093	0.256349	-0.863535	0.387478	-1.30775	-7.22311	-5.7922	-0.0111788	0.00598395	-0.0229488	-0.242432	0.874023	0.571289	0.0350519	0.0265669	-0.999015	-0.00581016	0.667627	0.321919	-9.04892	0.00563688	0.0115819	0.00126664	-0.548584	-0.0456543	1.02954	-0.0999989	0.0841534	-0.987731	-0.0854716	-1.891	1.46581	-9.34505	0.0384872	0.00349628	-0.00922668	-0.240723	-0.189453	1.19702	
75	0.963855	-0.00661916	0.262666	0.0441186	-5.29359	-0.0193289	9.45981	0.0187974	-0.0915194	-0.0182806	0.895264	-0.0522461	-0.633545	0.796774	-0.00202937	-0.602262	0.0492587	9.55697	-0.793035	2.78583	-0.00673092	0.011532	-0.0126138	-0.771729	-0.104736	-0.556641	0.831029	0.208284	-0.447437	0.25653	8.71849	1.11843	5.2893	0.024516	0.0221608	0.00944309	-0.85083	-0.422119	-0.703125	0.854909	0.0353754	-0.514293	0.0581534	8.6516	0.0234645	4.60994	0.00395382	0.00624466	0.0104471	-0.929443	-0.0979004	-0.982666	0.816779	-0.229945	-0.520942	-0.0928214	8.80275	-2.80417	3.48795	0.00528864	0.0260953	-0.00341614	-0.699951	0.375732	-0.705322	0.91067	0.127179	-0.314081	0.236345	8.29398	0.128849	8.96749	-0.00180439	0.0167316	-0.0108779	-0.628906	-0.17627	-0.982178	0.445835	0.161945	-0.876395	0.08329	7.81384	-0.253334	-5.28732	0.0642928	-0.0539748	-0.00696749	-1.0271	-0.155029	0.424316	0.0160628	0.0470172	-0.998001	0.039061	0.153801	-0.585754	-8.41785	0.00725795	0.0133816	-0.0161273	-0.38501	0.105957	0.995117	-0.196036	0.256286	-0.863593	0.387421	-1.32798	-7.06353	-5.7501	-0.00423422	0.00887993	-0.013783	-0.244873	0.874023	0.571289	0.0349706	0.0265937	-0.999018	-0.00571927	0.687839	0.33169	-9.05283	0.00554041	0.00635156	-0.0029233	-0.544189	-0.0432129	1.02954	-0.0994514	0.0843477	-0.98785	-0.084538	-1.96898	1.41186	-9.41514	0.032735	0.0401981	-0.0216457	-0.240479	-0.196045	1.19727	
76	0.964181	-0.00625953	0.261519	0.0438585	-5.12411	0.0420876	9.46095	0.0126753	-0.030224	-0.00350168	0.897217	-0.0478516	-0.633545	0.796625	-0.0020209	-0.602445	0.0494419	9.54805	-0.784183	2.79155	-0.00985211	0.00614082	-0.0143528	-0.767334	-0.102539	-0.552002	0.830858	0.208458	-0.447386	0.257034	8.81043	1.09465	5.36185	0.0227827	0.00306958	0.0168556	-0.844482	-0.417969	-0.69873	0.85492	0.0353443	-0.51426	0.0583087	8.70372	-0.00532152	4.61831	0.00282629	0.00734449	0.00273393	-0.924805	-0.100098	-0.989258	0.816684	-0.230082	-0.521034	-0.0927996	8.90025	-2.96343	3.43836	-0.0155797	0.0024301	-0.0115181	-0.700195	0.37793	-0.705322	0.910619	0.127006	-0.314189	0.236492	8.31837	0.148688	9.01276	-0.00715953	0.00915362	-0.00968622	-0.631104	-0.178467	-0.97583	0.444175	0.161982	-0.877227	0.0833269	7.76495	-0.262502	-5.36537	0.0271003	-0.0739127	-0.00438896	-1.02515	-0.155029	0.434814	0.0159874	0.0470101	-0.998003	0.0390472	0.146741	-0.585316	-8.43049	0.00449814	0.0138267	-0.0168409	-0.391602	0.108154	0.988037	-0.195782	0.256284	-0.863884	0.386901	-1.3341	-7.14247	-5.7968	-0.0425161	0.014634	-0.0135489	-0.242432	0.871826	0.573486	0.0348733	0.0266303	-0.999021	-0.00565041	0.691426	0.325001	-9.06179	0.0103387	0.00762498	0.000105682	-0.552979	-0.0478516	1.02051	-0.0991016	0.0844834	-0.987936	-0.0838041	-2.03652	1.28972	-9.52509	0.0251659	0.0121566	-0.0119846	-0.238281	-0.19165	1.19946	
77	0.964282	-0.00618498	0.261142	0.0438973	-5.28545	0.030238	9.53492	-0.00566042	-0.0183587	0.00791306	0.895508	-0.0544434	-0.639893	0.796556	-0.00231281	-0.602539	0.0494025	9.52968	-0.7669	2.72734	-0.0290903	0.0131803	-0.0119181	-0.769287	-0.111084	-0.546875	0.830814	0.208404	-0.447346	0.25729	8.75046	1.16918	5.36132	0.00735823	0.0101709	0.0161256	-0.85083	-0.417725	-0.703369	0.854894	0.0352318	-0.514308	0.0583276	8.68837	0.0225692	4.64492	-0.00371808	0.0014052	0.00653442	-0.92749	-0.0913086	-0.982666	0.816865	-0.2296	-0.521057	-0.0922722	8.77019	-2.98427	3.3953	0.05459	0.00922792	0.000772002	-0.699951	0.375732	-0.702881	0.910575	0.127108	-0.314338	0.236406	8.24379	0.100191	8.95493	0.00513061	0.00034449	-0.0245349	-0.630859	-0.182861	-0.975586	0.443305	0.161939	-0.87768	0.0832766	7.74667	-0.254608	-5.37721	0.0207624	-0.0667222	-0.00217309	-1.02075	-0.155029	0.432861	0.0159481	0.0470142	-0.998004	0.0390306	0.165741	-0.580713	-8.42875	0.00479226	0.01314	-0.0175955	-0.385254	0.112549	0.990479	-0.195782	0.256284	-0.863884	0.386901	-1.3341	-7.14247	-5.7968	-0.0425161	0.014634	-0.0135489	-0.242432	0.871826	0.573486	0.0348733	0.0266303	-0.999021	-0.00565041	0.691426	0.325001	-9.06179	0.0103387	0.00762498	0.000105682	-0.552979	-0.0478516	1.02051	-0.0995991	0.0841755	-0.987945	-0.0834159	-1.9915	1.28613	-9.49657	0.0130201	-0.0156478	0.00472488	-0.236084	-0.19165	1.19702	
78	0.964353	-0.00628333	0.260851	0.0440443	-5.30411	-0.0553458	9.52136	-0.0107534	-0.0238308	0.00904477	0.895264	-0.0522461	-0.633545	0.796588	-0.00246511	-0.602503	0.0493233	9.54249	-0.773437	2.71567	-0.0265324	0.0194415	-0.0168367	-0.767578	-0.100342	-0.554443	0.83075	0.2083	-0.447278	0.2577	8.74047	0.946826	5.21304	0.0136737	0.00606767	0.0107625	-0.85083	-0.419922	-0.709961	0.854838	0.0351989	-0.514383	0.0585114	8.68746	-0.0129774	4.5934	0.00658831	0.00505882	0.00723996	-0.931396	-0.100098	-0.987061	0.817203	-0.228674	-0.521062	-0.0915492	8.83907	-2.43254	3.50274	0.0103373	0.0169916	-0.0179684	-0.697754	0.371338	-0.702881	0.910548	0.127311	-0.314332	0.236411	8.35003	0.243305	8.94584	-0.000392386	0.0180345	-0.0108795	-0.630859	-0.180664	-0.986328	0.442084	0.161758	-0.878326	0.0832962	7.7262	-0.252092	-5.31279	0.0254904	-0.0464629	-0.0028211	-1.0249	-0.159424	0.432861	0.0158383	0.0470184	-0.998005	0.039055	0.142669	-0.585105	-8.43235	0.0063267	0.0116015	-0.0181165	-0.389648	0.112549	0.988037	-0.195555	0.256543	-0.863786	0.387064	-1.27136	-7.14252	-5.81283	0.0042146	0.00304814	-0.0186024	-0.24292	0.883057	0.571289	0.0349648	0.0265532	-0.99902	-0.00562469	0.69011	0.304126	-9.05542	0.00279017	0.00959477	0.00353296	-0.548584	-0.0478516	1.02051	-0.0997744	0.0840003	-0.98791	-0.0838036	-1.9385	1.28584	-9.41166	-0.0270724	-0.0119646	0.00825697	-0.236084	-0.19165	1.19946	
79	0.964491	-0.00625517	0.260345	0.0440259	-5.18441	-0.117122	9.45236	0.00655884	-0.0179217	-0.00219012	0.890869	-0.050293	-0.637939	0.796513	-0.00264993	-0.602613	0.0491719	9.53646	-0.763219	2.73261	-0.030023	0.0103418	-0.0218245	-0.767334	-0.104736	-0.552002	0.830648	0.208694	-0.446653	0.25879	8.68405	1.1065	5.34674	0.040581	0.0372431	0.0267003	-0.853027	-0.417725	-0.700928	0.85489	0.0355188	-0.514266	0.0585854	8.60012	0.0261477	4.63071	0.0172876	0.00830367	-0.00375672	-0.929443	-0.0935059	-0.987061	0.817003	-0.229784	-0.520743	-0.0923665	8.81031	-2.97158	3.39569	-0.058834	0.0181413	-0.0104075	-0.699951	0.375732	-0.702881	0.910573	0.126628	-0.314328	0.236686	8.30219	0.0831537	8.98441	-0.0163847	0.0207027	-0.00130389	-0.633057	-0.180664	-0.975586	0.441225	0.161754	-0.878747	0.0834255	7.70728	-0.248344	-5.31442	0.0320845	-0.0178691	-0.00660282	-1.02734	-0.153076	0.441162	0.0157255	0.0470014	-0.998008	0.0390263	0.148155	-0.587334	-8.4321	0.00393744	0.0113148	-0.0173415	-0.38501	0.108154	0.992676	-0.195572	0.256458	-0.863779	0.387125	-1.28738	-7.21264	-5.81204	0.0126397	0.00213933	-0.017998	-0.245117	0.878662	0.571289	0.0349843	0.0264779	-0.999021	-0.00568942	0.693524	0.310164	-9.03694	0.00587582	0.00912015	0.00389694	-0.552979	-0.0500488	1.02515	-0.0999114	0.0835582	-0.987863	-0.0846305	-1.9351	1.41011	-9.40287	-0.0268084	-0.00366099	0.0157956	-0.24292	-0.193848	1.19946	
80	0.964484	-0.00579653	0.260503	0.0432938	-5.13608	0.0616861	9.52693	0.0270396	0.0136027	-0.0281706	0.895264	-0.0522461	-0.635742	0.796457	-0.00276002	-0.602697	0.0490511	9.56697	-0.779688	2.72647	-0.0237954	0.014871	-0.0192129	-0.762939	-0.104492	-0.547119	0.830515	0.208453	-0.446632	0.259446	8.77828	1.08961	5.35205	-0.0117148	0.0105586	0.0305317	-0.85083	-0.422119	-0.705566	0.854904	0.0356062	-0.514244	0.0585178	8.68857	0.00696737	4.62515	0.00351258	0.00344591	-0.00415184	-0.929443	-0.0979004	-0.980469	0.817274	-0.229274	-0.520577	-0.092169	8.78655	-2.7363	3.51335	0.0294247	0.015834	-0.019509	-0.693604	0.380127	-0.702881	0.910517	0.126688	-0.314302	0.236904	8.26592	0.128555	8.96735	0.0113179	0.0130667	-0.0121957	-0.633301	-0.178467	-0.97998	0.440597	0.161637	-0.879085	0.0834134	7.73556	-0.332464	-5.43967	0.0222344	-0.0244254	-0.0071471	-1.02515	-0.152832	0.437012	0.0158408	0.0472041	-0.997995	0.0390796	0.143493	-0.590737	-8.42596	0.00502258	0.012754	-0.0166984	-0.387451	0.112305	1.00195	-0.195519	0.25657	-0.86367	0.387322	-1.30873	-7.13255	-5.77481	0.0106042	0.00196817	-0.0181261	-0.240234	0.874023	0.575684	0.0349773	0.0264735	-0.999021	-0.00581006	0.700654	0.321127	-9.03062	-0.000606625	0.00960596	-0.00043594	-0.557617	-0.0456543	1.02734	-0.100141	0.0831971	-0.987862	-0.0847308	-1.95881	1.34949	-9.47485	0.0241718	-0.00715352	-2.41786e-05	-0.236328	-0.189453	1.19482	
81	0.964344	-0.00567295	0.261157	0.0424805	-5.23718	0.173922	9.56886	0.00846776	0.0275052	-0.028501	0.895264	-0.0500488	-0.637939	0.79662	-0.00338713	-0.602503	0.0487365	9.57578	-0.838589	2.71543	-0.0337817	0.0256454	-0.0164223	-0.767334	-0.104736	-0.554199	0.830349	0.208198	-0.446705	0.260056	8.77699	1.02866	5.266	0.0157907	0.00497405	0.0161222	-0.85083	-0.419922	-0.705566	0.854863	0.0355607	-0.51434	0.0582963	8.69759	0.0131916	4.60023	-0.0015335	0.000754319	-0.00524816	-0.927002	-0.102295	-0.984619	0.817219	-0.229685	-0.520446	-0.0923823	8.85325	-2.75107	3.41691	-0.0425559	0.00951446	-0.0141983	-0.702148	0.373535	-0.698486	0.910506	0.126488	-0.314281	0.23708	8.35107	0.165718	8.98007	-0.0113042	0.0206769	-0.00941545	-0.635254	-0.180664	-0.977783	0.439875	0.161443	-0.879476	0.0834776	7.70344	-0.252931	-5.49013	0.00480238	-0.0129133	-0.00419546	-1.02075	-0.155029	0.439209	0.0157708	0.0471682	-0.997999	0.0390474	0.163797	-0.590787	-8.41008	0.00373626	0.0139322	-0.017235	-0.389404	0.110352	0.997314	-0.195385	0.256701	-0.863774	0.387072	-1.30249	-7.1553	-5.86139	0.0172608	-0.00371965	-0.0201258	-0.249512	0.876221	0.575684	0.0348837	0.0264897	-0.999024	-0.0057706	0.683765	0.309466	-9.0496	0.0064801	0.00658595	0.00013347	-0.550781	-0.0456543	1.02734	-0.100351	0.0831068	-0.98785	-0.0847114	-1.96258	1.34379	-9.39477	-0.0151295	-0.000137063	-0.00614023	-0.233887	-0.193848	1.20166	
82	0.964234	-0.00628389	0.261617	0.0420655	-5.33663	0.034394	9.50323	-0.0236737	0.0105895	-0.0161628	0.89502	-0.0458984	-0.633545	0.796818	-0.00359462	-0.602243	0.0487056	9.53221	-0.762683	2.7478	-0.0172154	0.0289598	-0.0146259	-0.767334	-0.102539	-0.552002	0.830388	0.207969	-0.446783	0.259981	8.79639	1.05397	5.29129	-0.0212168	0.00273128	-0.00708091	-0.848877	-0.415771	-0.703369	0.854825	0.0354654	-0.514397	0.0584102	8.69471	0.0253078	4.61853	-0.000872562	0.00280886	0.00645395	-0.931396	-0.102295	-0.984619	0.817149	-0.23031	-0.520268	-0.0924409	8.83973	-2.91558	3.43489	-0.0140585	0.0087753	0.00118269	-0.702393	0.380127	-0.702881	0.91057	0.126345	-0.314209	0.237007	8.33285	0.130656	8.98018	0.00611471	0.0180935	-0.0249052	-0.633301	-0.178467	-0.982178	0.439445	0.161255	-0.879751	0.0832011	7.68108	-0.292877	-5.44713	0.0139473	-0.0087602	-0.0104727	-1.01855	-0.152832	0.441162	0.0156685	0.0471541	-0.998001	0.0390424	0.140789	-0.574789	-8.42303	0.00725391	0.0127075	-0.0157955	-0.38501	0.108154	0.992676	-0.195476	0.256644	-0.863762	0.38709	-1.32711	-7.14886	-5.81957	0.0060247	0.00062787	-0.0165091	-0.247314	0.876221	0.571289	0.0349628	0.0265216	-0.99902	-0.00573153	0.687164	0.304246	-9.05852	0.00417449	0.00826156	-0.00082989	-0.555176	-0.0478516	1.02734	-0.10048	0.0830563	-0.98787	-0.084372	-1.99005	1.36168	-9.44335	0.0194431	0.00435391	-0.00737409	-0.236084	-0.19165	1.20166	
83	0.964223	-0.00643188	0.261631	0.0422007	-5.27996	-0.0321047	9.49648	0.00167098	0.00109458	0.0106959	0.903809	-0.0456543	-0.633545	0.796975	-0.00341648	-0.602024	0.0488442	9.54357	-0.789898	2.71569	-0.00391659	0.0222814	-0.0182623	-0.765137	-0.102539	-0.554443	0.830239	0.208428	-0.446617	0.260372	8.75073	1.08808	5.25708	0.0479055	0.00329201	-0.000376252	-0.851074	-0.415527	-0.708008	0.854904	0.0355736	-0.514267	0.0583317	8.66622	0.00874827	4.60449	0.0121854	0.0157988	-0.00705679	-0.927002	-0.102295	-0.984619	0.817332	-0.229654	-0.520334	-0.0920841	8.77907	-2.62404	3.57947	0.0269492	0.00906366	-0.0163976	-0.700195	0.380127	-0.702881	0.910587	0.126395	-0.314174	0.236962	8.29951	0.188419	8.97309	0.00533016	0.0167162	-0.0233037	-0.637695	-0.171875	-0.982422	0.438878	0.161096	-0.880112	0.0826852	7.67511	-0.30167	-5.44613	-0.019386	-0.021934	-0.0139524	-1.021	-0.150879	0.441162	0.0156165	0.0471667	-0.998002	0.0390315	0.138105	-0.594726	-8.42162	0.0052736	0.0123942	-0.0177524	-0.387207	0.105957	0.995117	-0.195632	0.256605	-0.863706	0.387161	-1.28378	-7.20843	-5.79354	0.0150711	-0.00271431	-0.0170086	-0.244873	0.871582	0.573486	0.0350637	0.0265306	-0.999017	-0.00564292	0.685378	0.308836	-9.04573	0.00616569	0.00903804	0.000157197	-0.550781	-0.0456543	1.02734	-0.100423	0.0829411	-0.987847	-0.0848217	-1.987	1.34275	-9.44564	-0.0213711	0.00671768	-0.00139901	-0.233887	-0.19165	1.20166	
84	0.964216	-0.0058309	0.261617	0.0425473	-5.3969	0.0859666	9.53281	0.0214022	-0.00613033	0.0255064	0.89502	-0.0480957	-0.631348	0.797124	-0.00344996	-0.601811	0.0490412	9.55654	-0.71989	2.75768	-0.0121367	0.0298123	-0.0119962	-0.763184	-0.100342	-0.556885	0.830201	0.208999	-0.446357	0.260483	8.76354	1.16961	5.36686	0.0111371	0.0143707	-0.0134201	-0.85083	-0.422119	-0.69873	0.854938	0.035414	-0.514229	0.0582681	8.67173	0.0374188	4.66157	-0.0159069	0.000935035	0.00330197	-0.927246	-0.0957031	-0.989258	0.817287	-0.229738	-0.52042	-0.09179	8.8546	-2.785	3.43088	0.0223688	0.00899826	0.000787576	-0.702393	0.37793	-0.705322	0.910604	0.126758	-0.314007	0.236924	8.32921	0.173826	8.98618	0.0110489	0.0104557	-0.0176126	-0.626709	-0.17627	-0.980225	0.438672	0.160768	-0.880325	0.0821454	7.67148	-0.206551	-5.43663	-0.00729904	0.00288992	-0.00993195	-1.01831	-0.159424	0.445557	0.015667	0.0473836	-0.997986	0.039155	0.147329	-0.587742	-8.40826	0.0103089	0.0135347	-0.0167682	-0.387207	0.110352	0.992676	-0.195632	0.256605	-0.863706	0.387161	-1.28378	-7.20843	-5.79354	0.0150711	-0.00271431	-0.0170086	-0.244873	0.871582	0.573486	0.0350474	0.0265404	-0.999017	-0.00566641	0.67983	0.30188	-9.03902	0.00351673	0.00877185	-8.86325e-05	-0.548584	-0.0478516	1.02954	-0.100347	0.0828881	-0.987853	-0.0848942	-1.98853	1.35133	-9.41288	0.00138142	0.0093862	-0.0045103	-0.23584	-0.196045	1.19946	
