40	Head	00b4120a												Throax	00b411e8												LUpArm	00b411d9												LFoArm	00b41148												RUpArm	00b411db												RFoArm	00b41204												Waist	00b411f7												Lthigh	00b411f4												Lshank	00b4111b												Rthigh	00b411c8												Rshank	00b411ee												
PacketCount	q0	q1	q2	q3	accX	accY	accZ	gyrX	gyrY	gyrZ	magX	magY	magZ	q0	q1	q2	q3	accX	accY	accZ	gyrX	gyrY	gyrZ	magX	magY	magZ	q0	q1	q2	q3	accX	accY	accZ	gyrX	gyrY	gyrZ	magX	magY	magZ	q0	q1	q2	q3	accX	accY	accZ	gyrX	gyrY	gyrZ	magX	magY	magZ	q0	q1	q2	q3	accX	accY	accZ	gyrX	gyrY	gyrZ	magX	magY	magZ	q0	q1	q2	q3	accX	accY	accZ	gyrX	gyrY	gyrZ	magX	magY	magZ	q0	q1	q2	q3	accX	accY	accZ	gyrX	gyrY	gyrZ	magX	magY	magZ	q0	q1	q2	q3	accX	accY	accZ	gyrX	gyrY	gyrZ	magX	magY	magZ	q0	q1	q2	q3	accX	accY	accZ	gyrX	gyrY	gyrZ	magX	magY	magZ	q0	q1	q2	q3	accX	accY	accZ	gyrX	gyrY	gyrZ	magX	magY	magZ	q0	q1	q2	q3	accX	accY	accZ	gyrX	gyrY	gyrZ	magX	magY	magZ	
0	0.857364	0.0955615	-0.480595	0.157555	8.96238	0.374459	5.58317	0.0519049	-0.0176293	-0.000279771	-0.714355	-0.158203	-0.803223	0.509899	-0.0455896	-0.85885	-0.0173228	8.66979	0.134362	-4.52994	-0.0264351	0.0314027	-0.0272941	-1.05103	-0.331787	0.250488	0.303793	-0.183245	-0.435205	0.827483	-0.39974	-8.37412	5.71271	-0.11267	-0.00149975	-0.0492158	-0.230469	0.773682	-0.766113	0.468486	-0.0661633	-0.100019	0.875294	-0.172021	-2.29855	9.47199	-0.0417	-0.0375161	-0.0582204	-0.046875	0.0634766	-1.05347	0.702729	0.182412	-0.169826	-0.666376	-0.0899777	4.65139	8.6586	-0.0374981	2.83022e-05	-0.00797059	0.0634766	-0.114502	-1.05811	0.761138	0.0371268	0.0159549	-0.64733	-1.05953	1.38161	13.6179	0.0871541	0.00234933	-0.018632	0.0998535	0.335938	-1.03711	-0.0238639	-0.0132301	-0.99927	-0.0267267	-0.459771	0.312564	-9.05803	0.0208465	0.00744334	-0.0171621	-0.181152	-0.298096	1.10327	-0.048569	-0.13002	-0.946866	0.290137	-1.8388	-5.10628	-6.72863	-0.00972889	0.014526	-0.023073	-0.172119	0.621338	0.859131	-0.218945	0.91298	-0.325446	-0.112319	-3.08351	-3.01192	-7.87007	-0.00926925	0.0299286	0.00069622	-0.0310059	0.52832	0.976807	-0.0351207	0.0236091	-0.998849	-0.0225927	-0.779989	0.647646	-9.02682	0.102418	0.0706938	-0.0193804	-0.391113	-0.0720215	1.11499	-0.167065	-0.0201578	-0.978301	-0.120871	-3.06251	2.48842	-8.97472	-0.0520471	0.0769314	-0.0331601	-0.0915527	-0.307373	1.14453	
1	0.857624	0.095887	-0.480678	0.155678	8.77559	0.352428	5.46048	-0.0268107	-0.00905472	-0.073104	-0.711914	-0.164551	-0.802979	0.510284	-0.0455319	-0.85862	-0.0175687	8.57316	0.0894871	-4.4808	-0.0217895	0.0502978	-0.0332283	-1.04248	-0.32959	0.257568	0.303699	-0.183304	-0.436516	0.826813	-0.405341	-8.83256	5.77425	-0.108016	-0.0147132	-0.0274645	-0.228516	0.773682	-0.763672	0.469291	-0.0655297	-0.101302	0.874763	-0.151879	-2.69685	9.39541	0.00219673	-0.0347414	-0.0297099	-0.0444336	0.0612793	-1.04907	0.702645	0.182599	-0.169737	-0.666436	-0.0310975	4.93468	8.6083	0.00515409	0.0215485	-0.0246573	0.0698242	-0.112305	-1.05371	0.761286	0.0372479	0.0159383	-0.647149	-0.976361	1.24623	13.7095	0.00983938	0.0201522	0.00338544	0.0998535	0.33374	-1.0415	-0.0238985	-0.0132722	-0.999266	-0.0268434	-0.459949	0.314593	-9.07375	0.0206552	0.0132146	-0.0175619	-0.177246	-0.291504	1.10547	-0.0466523	-0.130262	-0.946983	0.289963	-1.87055	-5.10684	-6.87149	0.00641593	0.0868972	-0.0204279	-0.172119	0.621338	0.861328	-0.218432	0.913039	-0.325625	-0.112319	-3.07422	-2.95356	-8.24104	0.0105743	0.0249268	-0.0184463	-0.0285645	0.525879	0.983643	-0.0343886	0.0245874	-0.998915	-0.0195434	-0.742493	0.552451	-9.0395	0.121999	0.0381354	-0.0419865	-0.397949	-0.067627	1.11255	-0.166307	-0.0195586	-0.978266	-0.122287	-3.08007	2.3808	-8.97269	-0.116395	0.0723531	-0.0260533	-0.0866699	-0.316162	1.13086	
2	0.858063	0.0957603	-0.481009	0.152278	8.84121	0.200585	5.3869	-0.0788559	-0.0125227	-0.112632	-0.705322	-0.164551	-0.805176	0.511133	-0.0455325	-0.858096	-0.0184694	8.55301	0.0376559	-4.49457	-0.0465083	0.0608915	-0.0364258	-1.04639	-0.340576	0.243652	0.304568	-0.181801	-0.434799	0.82773	-0.390353	-8.4501	5.60701	0.126504	-0.0135066	-0.031888	-0.232666	0.765137	-0.770508	0.469102	-0.0647395	-0.100808	0.87498	-0.155329	-2.50366	9.43706	0.0686967	-0.0343496	0.0178887	-0.0510254	0.0612793	-1.05786	0.701751	0.184595	-0.16999	-0.666763	-0.130994	4.73548	8.53577	0.0894327	0.0510116	-0.0575303	0.0700684	-0.114746	-1.04688	0.761595	0.039169	0.0158075	-0.646675	-1.00987	1.5072	13.3306	0.0623635	0.0711419	0.00291291	0.101807	0.338135	-1.0415	-0.0237905	-0.0133604	-0.999265	-0.0269364	-0.452013	0.303636	-9.03793	0.0204369	0.0173626	-0.0143572	-0.181152	-0.298096	1.11401	-0.0472997	-0.129676	-0.947585	0.288147	-1.94814	-4.63973	-6.86016	-0.0762585	-0.0102917	-0.0216052	-0.169678	0.619141	0.866211	-0.218155	0.913162	-0.325722	-0.111573	-3.13083	-2.89607	-8.15808	0.00407148	0.0664889	-0.0251952	-0.0356445	0.525879	0.98584	-0.0343886	0.0245874	-0.998915	-0.0195434	-0.742493	0.552451	-9.0395	0.121999	0.0381354	-0.0419865	-0.397949	-0.067627	1.11255	-0.165115	-0.0188309	-0.978314	-0.123632	-3.05258	1.92106	-9.09789	0.00100075	0.05011	-0.0190105	-0.0957031	-0.316406	1.1377	
3	0.858687	0.0953291	-0.480831	0.149567	8.83902	0.131572	5.40752	-0.0598437	0.010819	-0.0834075	-0.709717	-0.164551	-0.802979	0.511746	-0.0455391	-0.857704	-0.0196339	8.55633	-0.206469	-4.51874	-0.040045	0.0371683	-0.0415971	-1.04688	-0.331787	0.250488	0.30432	-0.181765	-0.436769	0.826791	-0.406397	-8.5951	5.83749	-0.140185	-0.00613464	-0.0257709	-0.234863	0.771484	-0.763672	0.468784	-0.0640139	-0.101867	0.875081	-0.331468	-2.29354	9.57972	-0.0743086	-0.0252781	-0.0164937	-0.0488281	0.0612793	-1.05347	0.700863	0.186056	-0.1696	-0.66739	0.041544	4.81875	8.55538	-0.0144158	0.0422471	-0.0859021	0.0722656	-0.116699	-1.05371	0.760918	0.0405128	0.0166806	-0.647367	-1.10044	1.42205	13.234	0.0353566	0.0767198	-0.0816147	0.101807	0.335938	-1.03711	-0.0236912	-0.0134541	-0.999262	-0.0270888	-0.457262	0.301778	-9.07986	0.0186498	0.0188134	-0.0145459	-0.185547	-0.298096	1.11182	-0.0469508	-0.128679	-0.947793	0.287967	-1.85042	-5.35463	-6.86358	-0.0053413	0.013523	-0.0497917	-0.169434	0.610596	0.859131	-0.216452	0.913801	-0.325175	-0.111256	-3.16319	-2.78538	-8.22255	-0.0632151	0.0324706	-0.0332309	-0.032959	0.516846	0.981445	-0.0335171	0.0249014	-0.998967	-0.0179057	-0.741262	0.481286	-9.03778	0.00462971	0.00699795	0.0108113	-0.400391	-0.0654297	1.1123	-0.164298	-0.0192871	-0.978541	-0.122849	-3.15483	2.39618	-9.13818	0.0133079	0.0325076	0.0237984	-0.0979004	-0.320801	1.14014	
4	0.859138	0.0949085	-0.480391	0.148655	8.72354	-0.0020204	5.40516	-0.0163958	0.0168775	-0.0187322	-0.707275	-0.166748	-0.802979	0.512429	-0.0449515	-0.857318	-0.0200595	8.56697	0.20181	-4.36712	-0.0246144	0.0564687	-0.0502299	-1.04858	-0.340576	0.243652	0.30419	-0.18208	-0.436924	0.826688	-0.388631	-8.69934	5.79778	0.0618045	0.0219891	0.0158613	-0.232666	0.773682	-0.766113	0.468697	-0.0643018	-0.101958	0.875096	-0.148344	-2.29633	9.64804	0.0180092	0.0293153	0.019571	-0.0510254	0.0612793	-1.05786	0.700287	0.185809	-0.168325	-0.668386	-0.078443	4.99776	8.52436	-0.0436906	0.0144823	-0.0586827	0.0742188	-0.114502	-1.05591	0.759638	0.0412357	0.0177706	-0.648794	-1.03875	1.22463	13.2074	-0.021946	0.0510105	-0.0723349	0.108398	0.33374	-1.03491	-0.0234226	-0.0135343	-0.999262	-0.0272695	-0.449457	0.288784	-9.02065	0.0163382	0.0214502	-0.0156516	-0.18335	-0.298096	1.10547	-0.0477297	-0.128353	-0.947475	0.289032	-1.97793	-4.89988	-6.9849	0.0434428	-0.0287832	-0.0109908	-0.171631	0.612793	0.861572	-0.217522	0.913889	-0.324037	-0.111765	-3.1965	-3.22949	-8.39509	0.020157	-0.0271337	-0.0342884	-0.0310059	0.525879	0.98584	-0.0330389	0.0247207	-0.998979	-0.0184061	-0.732057	0.482645	-9.02787	-0.0179189	0.0232339	0.00883965	-0.398193	-0.0632324	1.11694	-0.164134	-0.0201834	-0.97821	-0.12553	-3.08265	2.37535	-9.14642	-0.112931	-0.00119366	0.0497621	-0.0910645	-0.318604	1.13794	
5	0.859505	0.0960074	-0.479443	0.148891	8.96722	0.137136	5.4918	0.0571089	0.0499868	-0.0227051	-0.702881	-0.168701	-0.802979	0.512914	-0.0448066	-0.857016	-0.0208563	8.5807	0.122317	-4.46761	-0.0219807	0.0349571	-0.0438335	-1.05078	-0.340576	0.246094	0.303945	-0.182819	-0.437208	0.826465	-0.199167	-8.43793	5.81662	-0.094654	0.0134907	0.0261525	-0.228516	0.773682	-0.763672	0.468477	-0.0649313	-0.102047	0.875157	-0.0869556	-2.13264	9.6514	-0.026768	0.0438164	0.0233512	-0.0446777	0.0634766	-1.05347	0.699428	0.186461	-0.167888	-0.669214	-0.256531	4.38488	8.39391	0.0765002	0.0205472	-0.0457402	0.0744629	-0.116943	-1.04688	0.758765	0.0422214	0.0181015	-0.649743	-0.974227	1.17775	13.133	0.0293072	0.048565	-0.0716423	0.106201	0.33374	-1.03711	-0.0233382	-0.0135979	-0.999257	-0.027482	-0.441773	0.317403	-9.05679	0.0164947	0.0166563	-0.0158366	-0.181152	-0.295898	1.10547	-0.0494149	-0.127827	-0.947731	0.28814	-1.8154	-5.17151	-6.76008	-0.0423357	-0.0542814	-0.00709341	-0.169678	0.619141	0.866211	-0.216004	0.914025	-0.32407	-0.113484	-3.14113	-3.19633	-8.13925	-0.109337	-0.0553172	0.0114936	-0.026123	0.519043	0.983643	-0.0330623	0.0243007	-0.998961	-0.0198221	-0.727506	0.511927	-9.052	-0.0538564	0.0022932	0.0191072	-0.398193	-0.0632324	1.1123	-0.165044	-0.0209413	-0.978221	-0.12412	-3.09368	2.72403	-9.14078	0.0992611	-0.0440267	-0.00386083	-0.0866699	-0.320801	1.14233	
6	0.860444	0.0981522	-0.477114	0.149547	8.79348	0.244694	5.5296	0.107499	0.0885324	-0.0355269	-0.707031	-0.170898	-0.809326	0.513032	-0.0448848	-0.856928	-0.0214092	8.6923	0.0278354	-4.40806	-0.0303755	0.0319804	-0.0218034	-1.05298	-0.340576	0.241455	0.303516	-0.183747	-0.439545	0.825176	-0.352178	-8.81413	5.65625	-0.0397326	0.0225181	-0.00627324	-0.23291	0.780273	-0.759277	0.468879	-0.0664923	-0.103551	0.874648	-0.130766	-2.32897	9.39253	-0.0360677	0.00966178	-0.00579344	-0.0493164	0.0700684	-1.05151	0.698377	0.187818	-0.168816	-0.669697	-0.34436	4.81942	8.50119	0.042613	-0.00734251	-0.0454953	0.0744629	-0.119141	-1.04907	0.758005	0.0434477	0.0177612	-0.650557	-1.29222	0.909807	12.9785	0.0866802	0.0249216	-0.0564536	0.106445	0.32959	-1.04126	-0.0233382	-0.0135979	-0.999257	-0.027482	-0.441773	0.317403	-9.05679	0.0164947	0.0166563	-0.0158366	-0.181152	-0.295898	1.10547	-0.0494149	-0.127827	-0.947731	0.28814	-1.8154	-5.17151	-6.76008	-0.0423357	-0.0542814	-0.00709341	-0.169678	0.619141	0.866211	-0.216712	0.913585	-0.324242	-0.115174	-3.15872	-3.32352	-8.01232	0.070358	-0.064251	0.00565401	-0.0236816	0.519043	0.983643	-0.0330623	0.0243007	-0.998961	-0.0198221	-0.727506	0.511927	-9.052	-0.0538564	0.0022932	0.0191072	-0.398193	-0.0632324	1.1123	-0.166204	-0.0208863	-0.977977	-0.124504	-3.06989	2.77258	-9.02957	-0.0576155	-0.0380753	-0.0103467	-0.0910645	-0.320801	1.1355	
7	0.861062	0.100584	-0.475167	0.150573	8.87289	0.38498	5.58511	0.109987	0.0638277	-0.0182293	-0.70459	-0.175293	-0.804932	0.512593	-0.0450235	-0.857177	-0.0216459	8.71645	0.126699	-4.53917	-0.0247611	-0.00809743	-0.0210651	-1.05298	-0.340576	0.243652	0.30359	-0.183239	-0.439076	0.825511	-0.375606	-8.35488	5.73048	-0.00729006	-0.0182347	-0.01332	-0.230713	0.782227	-0.754883	0.468893	-0.0666813	-0.103906	0.874584	-0.166238	-2.33929	9.33134	-0.0283578	0.00593292	-0.00356767	-0.0449219	0.0700684	-1.05591	0.698058	0.187718	-0.169316	-0.669932	-0.0563035	4.61478	8.60976	0.00371419	-0.0152096	-0.0192939	0.0744629	-0.116943	-1.04907	0.757851	0.043919	0.0172034	-0.650721	-1.0506	1.19959	13.1421	0.0604316	0.00498555	-0.0304471	0.108887	0.325195	-1.03906	-0.0228822	-0.0132199	-0.999281	-0.0271762	-0.438945	0.308955	-9.06081	0.0162667	0.0165829	-0.0162841	-0.185303	-0.300293	1.10547	-0.0494149	-0.127827	-0.947731	0.28814	-1.8154	-5.17151	-6.76008	-0.0423357	-0.0542814	-0.00709341	-0.169678	0.619141	0.866211	-0.217477	0.913216	-0.324631	-0.115563	-3.12117	-3.08788	-7.85638	0.0623404	-0.0425803	0.0202565	-0.032959	0.516846	0.983643	-0.0330623	0.0243007	-0.998961	-0.0198221	-0.727506	0.511927	-9.052	-0.0538564	0.0022932	0.0191072	-0.398193	-0.0632324	1.1123	-0.168101	-0.0204175	-0.97767	-0.124448	-3.01747	2.39269	-8.85852	0.0512	-0.0794596	-0.0413117	-0.0844727	-0.316162	1.1355	
8	0.861873	0.102749	-0.472775	0.151988	8.90729	0.351038	5.6562	0.11835	0.0919157	-0.00444231	-0.701904	-0.186035	-0.813477	0.512988	-0.0448568	-0.856965	-0.0210092	8.79438	0.04612	-4.76831	0.0481713	0.055826	-0.00530675	-1.05078	-0.338379	0.243652	0.303844	-0.183551	-0.441647	0.823975	-0.392798	-9.35544	5.76268	-0.0669633	6.10916e-06	-0.0490364	-0.237305	0.791016	-0.755127	0.46921	-0.0667105	-0.105142	0.874263	-0.263367	-2.36521	9.32971	-0.0486598	-0.027463	-0.0211475	-0.0493164	0.0678711	-1.05371	0.697757	0.187338	-0.170367	-0.670086	-0.204109	4.7162	8.64993	0.000316118	-0.0339839	-0.0228446	0.0725098	-0.121094	-1.05371	0.75785	0.042587	0.0169623	-0.650816	-1.08903	0.854743	13.2745	0.00946238	-0.0368248	-0.0270054	0.104004	0.33374	-1.0415	-0.0228426	-0.013285	-0.999275	-0.0274071	-0.443326	0.31223	-9.05491	0.0147976	0.012583	-0.016432	-0.18335	-0.295898	1.10962	-0.0508736	-0.128852	-0.947063	0.28962	-1.89384	-5.03327	-6.74518	0.0311441	-0.0209438	0.0245521	-0.158691	0.61499	0.859131	-0.216142	0.912979	-0.325696	-0.116937	-3.03707	-3.07583	-8.00239	-0.0838829	-0.0134221	0.047401	-0.0166016	0.516846	0.983887	-0.0330623	0.0243007	-0.998961	-0.0198221	-0.727506	0.511927	-9.052	-0.0538564	0.0022932	0.0191072	-0.398193	-0.0632324	1.1123	-0.169921	-0.0198175	-0.977503	-0.123377	-2.97231	2.66782	-8.68541	-0.0231243	-0.0486588	-0.0361653	-0.0800781	-0.316162	1.1377	
9	0.862199	0.10368	-0.471622	0.153088	8.94959	0.423995	5.73851	0.115572	0.0858015	0.0251335	-0.699707	-0.188232	-0.813477	0.513941	-0.0448733	-0.856395	-0.020966	8.91631	0.202886	-4.71097	-0.00362056	0.102195	-0.0140126	-1.04639	-0.340576	0.236572	0.304118	-0.182777	-0.440864	0.824466	-0.280801	-9.02548	5.49309	0.0968563	-0.0225705	-0.0221706	-0.239258	0.784668	-0.75708	0.469564	-0.0655734	-0.105982	0.874058	-0.0986823	-2.72316	9.77415	-0.0266686	-0.0466975	-0.0141172	-0.0517578	0.0722656	-1.05151	0.697739	0.187615	-0.171714	-0.669683	-0.292871	4.88955	8.74546	0.0926056	-0.0465471	0.0244741	0.0700684	-0.119141	-1.05127	0.757757	0.0429844	0.0150246	-0.650947	-1.22393	1.42538	13.5396	0.00663229	-0.0373319	-0.00272352	0.106445	0.32959	-1.03491	-0.0229202	-0.0133813	-0.999265	-0.0276507	-0.438851	0.305406	-9.05536	0.0156685	0.00972502	-0.0156369	-0.187744	-0.298096	1.10327	-0.0515758	-0.129192	-0.94708	0.28929	-1.93192	-5.07884	-6.87128	-0.0116875	-0.0102601	0.0142943	-0.158936	0.617188	0.868408	-0.21651	0.912543	-0.326654	-0.116984	-3.25076	-2.72472	-7.89602	0.0404094	-0.00155299	0.0173937	-0.0236816	0.516846	0.990479	-0.0377216	0.0248331	-0.998765	-0.0206863	-0.766385	0.55562	-9.04518	-0.00959648	-0.0606335	-0.00791834	-0.393555	-0.067627	1.11475	-0.170142	-0.0194343	-0.977294	-0.124783	-3.00889	2.34766	-8.68245	-0.115725	-0.00846041	-0.0177878	-0.0751953	-0.322754	1.14258	
10	0.8624	0.105347	-0.46995	0.155933	8.84639	0.339527	5.82084	0.123439	0.048914	0.0712436	-0.693115	-0.186035	-0.811279	0.516133	-0.0453997	-0.855049	-0.0208753	8.92628	-0.100737	-4.60285	0.00766262	0.106126	0.0137684	-1.04834	-0.344971	0.236816	0.304171	-0.182236	-0.440849	0.824574	-0.388855	-8.75389	5.80524	0.0237301	-0.0281733	-0.019769	-0.234863	0.782471	-0.752686	0.469103	-0.0642538	-0.105866	0.874418	-0.186742	-2.89266	9.91511	0.0761846	-0.0392184	0.0253205	-0.0539551	0.0744629	-1.05371	0.697018	0.187773	-0.171904	-0.67034	-0.296737	4.87775	8.81696	-0.0525372	0.0072736	-0.0619554	0.0681152	-0.121094	-1.05591	0.758234	0.0412868	0.0149663	-0.650502	-1.29378	1.27397	13.8715	-0.0298474	-0.0102104	-0.0241089	0.102295	0.327393	-1.04126	-0.0229897	-0.0134402	-0.999258	-0.0278105	-0.418905	0.316195	-9.07131	0.0188441	0.0121516	-0.0166945	-0.181152	-0.298096	1.10547	-0.0517793	-0.129467	-0.947123	0.288991	-1.94985	-4.88391	-6.62086	-0.00826607	0.00782006	0.00606845	-0.158691	0.61499	0.868408	-0.215666	0.912593	-0.326682	-0.118071	-3.29105	-2.69586	-7.99809	-0.0422197	-0.0274459	0.00418005	-0.0141602	0.514648	0.986084	-0.0377216	0.0248331	-0.998765	-0.0206863	-0.766385	0.55562	-9.04518	-0.00959648	-0.0606335	-0.00791834	-0.393555	-0.067627	1.11475	-0.170409	-0.0190709	-0.977201	-0.125203	-3.16052	2.08336	-8.57565	0.034514	-0.00559621	-0.0181456	-0.0776367	-0.320557	1.13794	
11	0.861683	0.106703	-0.469825	0.159316	8.54897	0.396703	5.6352	0.105805	-0.0365533	0.0881217	-0.692871	-0.19043	-0.813477	0.51825	-0.0455716	-0.853764	-0.0206714	8.66649	0.0605397	-4.41806	-0.0265662	0.115612	-0.00835906	-1.05298	-0.342773	0.229736	0.30399	-0.181003	-0.439611	0.825573	-0.572831	-8.98388	5.67324	0.110341	-0.0188236	0.0292853	-0.23291	0.784424	-0.76416	0.468581	-0.0632442	-0.104121	0.87498	-0.393678	-2.6534	9.86872	0.106086	0.0130774	0.0242963	-0.0559082	0.0656738	-1.05371	0.698803	0.184379	-0.168882	-0.670192	0.151108	5.51239	8.76007	-0.266396	0.0260874	0.00756245	0.0720215	-0.110107	-1.05591	0.758468	0.0401388	0.0163609	-0.650268	-1.13099	0.99504	13.7903	-0.0644684	0.0352953	0.0407415	0.101807	0.335938	-1.03711	-0.0230171	-0.01351	-0.999252	-0.0279793	-0.436373	0.318327	-9.04505	0.0174753	0.012634	-0.0168015	-0.185303	-0.30249	1.10571	-0.0517729	-0.129211	-0.947099	0.289184	-2.1049	-4.97616	-6.86467	0.0111761	0.00699447	-0.0170705	-0.160889	0.61499	0.866211	-0.216073	0.912629	-0.32638	-0.117884	-3.28193	-2.78986	-7.92399	0.0263118	0.00887648	-0.0389307	-0.0187988	0.512451	0.981689	-0.0410966	0.0250895	-0.998623	-0.020837	-0.857765	0.53697	-8.9906	-0.00050342	-0.065163	-0.00641944	-0.37793	-0.0651855	1.11938	-0.170276	-0.0193466	-0.977332	-0.124313	-3.16861	2.4334	-8.67983	0.0119152	0.022663	0.0065002	-0.0800781	-0.313965	1.1377	
12	0.859853	0.108411	-0.472032	0.161514	8.78306	0.529509	5.55115	0.0807252	-0.130988	0.0588758	-0.699463	-0.19043	-0.806885	0.519686	-0.0455752	-0.852901	-0.0202099	8.72166	0.0713123	-4.38505	0.0321891	0.0744029	-0.0144698	-1.05078	-0.340576	0.224854	0.303189	-0.180899	-0.437464	0.827029	-0.389476	-8.6435	5.78017	0.0845062	0.00666726	0.0680573	-0.237061	0.773682	-0.766113	0.467701	-0.0633274	-0.102127	0.87568	-0.172445	-2.25147	9.76356	0.0408536	0.0475344	0.06273	-0.0510254	0.0612793	-1.05347	0.699049	0.183861	-0.167846	-0.670338	-0.180542	4.1859	8.30395	-0.0906647	0.0391764	-0.0166616	0.0695801	-0.108154	-1.05127	0.759497	0.0419346	0.0164135	-0.64895	-0.879273	1.7609	13.3479	0.0187948	0.0684032	0.0432968	0.104248	0.331543	-1.03711	-0.0231168	-0.0135891	-0.999243	-0.0281816	-0.432137	0.310362	-9.04553	0.0160083	0.0080753	-0.015749	-0.185303	-0.300293	1.10767	-0.0515202	-0.128362	-0.947012	0.289891	-2.00344	-4.87462	-6.63565	0.020939	0.00442565	-0.028729	-0.161133	0.619385	0.861328	-0.215824	0.912826	-0.325895	-0.11816	-3.30556	-2.79282	-7.90011	-0.041118	-0.0165661	-0.0295377	-0.0209961	0.512207	0.986084	-0.0385775	0.0249179	-0.99874	-0.0202136	-0.854506	0.554556	-9.00655	0.016463	0.0854507	0.0126843	-0.388672	-0.0742188	1.11719	-0.169111	-0.0199981	-0.977319	-0.125889	-3.2309	2.36731	-8.84449	-0.0489444	0.0501064	0.0395831	-0.0795898	-0.322754	1.13574	
13	0.858098	0.108895	-0.474694	0.162715	8.93884	0.401586	5.41665	0.0185337	-0.117421	0.0510284	-0.708496	-0.188477	-0.804932	0.520438	-0.0456013	-0.852444	-0.0200777	8.70158	-0.0591178	-4.23303	0.0136552	0.0291757	-0.00812411	-1.04883	-0.336426	0.222412	0.301963	-0.181806	-0.436635	0.827717	-0.432768	-8.52741	5.80932	-0.00617988	0.0289131	0.0758244	-0.230469	0.771484	-0.763672	0.46689	-0.0648763	-0.10101	0.876129	-0.255098	-2.17126	9.49991	0.0201745	0.0794148	0.0340165	-0.0422363	0.0634766	-1.05566	0.698858	0.188729	-0.169108	-0.668866	-0.230562	5.48096	8.49917	-0.190884	0.040251	-0.0225947	0.0722656	-0.114502	-1.05127	0.759594	0.0425409	0.0173469	-0.648772	-1.13094	1.41047	13.2209	0.0430149	0.060432	-0.0264652	0.106445	0.32959	-1.03271	-0.0231172	-0.013416	-0.999248	-0.0280947	-0.429353	0.315565	-9.04428	0.0155331	0.00649491	-0.0168675	-0.181152	-0.295898	1.10962	-0.0514098	-0.127915	-0.947146	0.289672	-2.01598	-5.2281	-7.03915	-0.012614	-0.00038147	-0.0402959	-0.158691	0.61499	0.861572	-0.215683	0.912919	-0.325613	-0.118471	-3.27073	-3.09678	-8.05158	-0.0157001	-0.0209637	-0.033828	-0.0209961	0.507812	0.988281	-0.0359497	0.0247476	-0.998853	-0.0196751	-0.79699	0.537156	-9.03915	0.0151556	0.108837	0.00913265	-0.388916	-0.0720215	1.11499	-0.16844	-0.0207112	-0.977573	-0.124699	-3.09373	2.65651	-9.08777	0.0808855	0.0242009	0.00782976	-0.0866699	-0.318359	1.14233	
14	0.857372	0.108671	-0.475638	0.163924	8.99022	0.272744	5.45159	0.0126657	-0.0192681	0.0527829	-0.710449	-0.192871	-0.800537	0.520769	-0.0454844	-0.852253	-0.0198711	8.7557	0.0347419	-4.20501	0.0113674	0.0435858	-0.0185847	-1.05518	-0.338379	0.224854	0.30082	-0.182627	-0.43528	0.828665	-0.299684	-8.46357	5.84411	0.0840112	0.0211989	0.0669383	-0.230469	0.771484	-0.761475	0.466565	-0.0657393	-0.0988367	0.876485	-0.132563	-2.19943	9.21459	0.0709572	0.0687651	0.0319035	-0.0466309	0.0612793	-1.05566	0.699458	0.185527	-0.165892	-0.669939	-0.0140302	3.97536	8.37321	-0.0864727	0.0114093	-0.0318777	0.0695801	-0.10791	-1.05591	0.759646	0.0417629	0.0190887	-0.648713	-1.20291	1.16479	12.907	-0.0702013	0.039234	-0.0250985	0.106201	0.338135	-1.03931	-0.0230784	-0.01321	-0.999254	-0.0280235	-0.430982	0.326396	-9.06117	0.014791	0.00816837	-0.0178318	-0.181152	-0.300293	1.10547	-0.0515693	-0.127805	-0.947082	0.289899	-1.80868	-4.92606	-6.56282	0.0140548	0.0196581	-0.0224854	-0.158936	0.617188	0.859131	-0.216673	0.913092	-0.325037	-0.116907	-3.14054	-3.05029	-7.97417	0.0304072	0.0288309	-0.037933	-0.0214844	0.519043	0.990479	-0.0349317	0.0248839	-0.998895	-0.0192173	-0.767462	0.518165	-9.08609	0.0191551	0.0312649	-0.00851783	-0.38916	-0.067627	1.11255	-0.16785	-0.0205212	-0.977676	-0.124718	-3.06337	2.64841	-9.06897	-0.0180141	0.0329893	-0.0140727	-0.0864258	-0.322998	1.1333	
15	0.85744	0.108557	-0.475101	0.165201	8.85032	0.259771	5.49047	0.0211189	0.0316625	0.0393493	-0.706055	-0.190674	-0.79834	0.521022	-0.0456591	-0.852085	-0.0200769	8.71492	0.0539102	-4.18305	-0.0146601	0.0192238	-0.00798184	-1.05103	-0.336426	0.222412	0.300427	-0.182656	-0.434637	0.829138	-0.355344	-8.3113	5.88063	0.057688	0.00358022	0.0477004	-0.226318	0.775635	-0.766113	0.466256	-0.0656807	-0.0974917	0.876805	-0.174616	-2.1614	9.03742	0.101502	0.0474506	0.0405385	-0.0463867	0.0524902	-1.05786	0.698938	0.187365	-0.167515	-0.669567	-0.243998	4.36904	8.43921	0.201845	0.0152063	-0.0200447	0.076416	-0.110107	-1.05371	0.759132	0.0421313	0.018594	-0.649306	-1.15048	1.20176	12.9226	0.0532587	0.00251308	-0.0748665	0.112793	0.335938	-1.03296	-0.0230784	-0.01321	-0.999254	-0.0280235	-0.430982	0.326396	-9.06117	0.014791	0.00816837	-0.0178318	-0.181152	-0.300293	1.10547	-0.051505	-0.127473	-0.947256	0.289488	-1.87784	-5.03737	-6.69791	-0.0280564	0.0231889	-0.0414913	-0.165283	0.61499	0.86377	-0.216663	0.913147	-0.324898	-0.116879	-3.19704	-3.08179	-8.05788	0.00378895	0.00210804	-0.0312827	-0.0239258	0.52124	0.990479	-0.0349768	0.0249094	-0.998894	-0.0191723	-0.765166	0.516967	-9.03887	0.00823602	0.00676627	-0.000504529	-0.395752	-0.0654297	1.11255	-0.167696	-0.0198194	-0.977782	-0.124209	-3.06491	2.48513	-8.90295	0.0317547	0.00406763	-0.0403016	-0.0888672	-0.320801	1.14014	
16	0.857938	0.108449	-0.473839	0.16631	8.75962	0.161283	5.53939	0.0270476	0.064557	0.0227886	-0.708496	-0.186279	-0.802734	0.520149	-0.0462	-0.852586	-0.0201791	8.657	0.199484	-4.26694	-0.020584	-0.024309	-0.0207987	-1.05518	-0.338379	0.224854	0.300464	-0.181717	-0.432612	0.83039	-0.414972	-8.26124	5.789	0.0762243	-0.0184185	-0.0140143	-0.226318	0.773682	-0.775146	0.465135	-0.0649353	-0.0955935	0.877664	-0.205405	-1.79277	9.21281	0.0594248	-0.000478704	0.0653937	-0.0439453	0.0524902	-1.05347	0.698586	0.186147	-0.168131	-0.670119	-0.192101	4.35358	8.5568	-0.0576755	-0.0417941	0.0123458	0.076416	-0.112305	-1.05591	0.758751	0.0426951	0.0163445	-0.649774	-1.10231	0.945123	13.2746	0.124154	-0.0258851	-0.0210495	0.104248	0.331543	-1.04126	-0.023002	-0.0130174	-0.999261	-0.0279232	-0.426639	0.326343	-9.03818	0.0203872	0.0112613	-0.0181118	-0.18335	-0.295898	1.10962	-0.0511159	-0.127437	-0.947313	0.289387	-1.98163	-5.10055	-7.1016	0.0203688	0.0269552	-0.0112307	-0.158936	0.619385	0.859131	-0.217076	0.913071	-0.325035	-0.116328	-3.12215	-3.19554	-8.26771	0.0535779	0.0323614	-0.0188582	-0.0280762	0.514404	0.983887	-0.035371	0.0253199	-0.99889	-0.0180757	-0.785895	0.510919	-9.0409	0.0594434	-0.000989206	-0.0231977	-0.395752	-0.0654297	1.11475	-0.167979	-0.0189377	-0.977748	-0.124229	-3.02691	2.54447	-8.80931	-0.046954	0.00492484	-0.0339763	-0.0866699	-0.318604	1.13794	
17	0.858324	0.108717	-0.472902	0.166804	8.69904	0.208804	5.54177	0.0452063	0.0761212	0.00833359	-0.701904	-0.186279	-0.800537	0.519501	-0.0467397	-0.852942	-0.0205981	8.62573	0.0438476	-4.32179	-0.0615711	-0.0446751	-0.00322166	-1.05103	-0.336182	0.224854	0.300625	-0.181501	-0.43344	0.829947	-0.357529	-8.38948	5.74291	-0.0580062	-0.0158601	-0.0410836	-0.228271	0.771484	-0.766113	0.465075	-0.0642936	-0.0958999	0.87771	-0.286635	-1.74289	9.30926	0.00652069	-0.0298838	-0.0324297	-0.048584	0.0568848	-1.05566	0.698318	0.186519	-0.168928	-0.670094	-0.075283	4.27431	8.6235	0.0671769	-0.0200398	-0.0195611	0.0769043	-0.121338	-1.04907	0.758848	0.0428038	0.0155704	-0.649673	-0.992301	1.21966	13.4228	0.0488374	-0.0265481	-0.000909666	0.104248	0.33374	-1.03491	-0.023002	-0.0130174	-0.999261	-0.0279232	-0.426639	0.326343	-9.03818	0.0203872	0.0112613	-0.0181118	-0.18335	-0.295898	1.10962	-0.0515889	-0.126983	-0.947213	0.28983	-1.93086	-4.96189	-6.70653	0.0184176	-0.0152505	-0.0197477	-0.163086	0.616943	0.868408	-0.217703	0.912978	-0.325198	-0.115422	-3.25382	-2.99622	-8.14885	0.0397298	0.0268053	-0.012398	-0.026123	0.519043	0.98584	-0.0358592	0.0259243	-0.998883	-0.0165571	-0.773372	0.462243	-9.03694	0.0555897	-0.0166617	-0.0222743	-0.38916	-0.0654297	1.11475	-0.167979	-0.0189377	-0.977748	-0.124229	-3.02691	2.54447	-8.80931	-0.046954	0.00492484	-0.0339763	-0.0866699	-0.318604	1.13794	
18	0.858998	0.10933	-0.471214	0.167714	8.66099	0.289937	5.67973	0.0430149	0.0579086	0.00748771	-0.704102	-0.186279	-0.809326	0.517695	-0.0469884	-0.85403	-0.0204259	8.74095	0.175129	-4.35268	0.00528517	-0.0718925	-0.0254272	-1.05518	-0.340576	0.234375	0.301417	-0.181528	-0.435453	0.828599	-0.394856	-8.51231	5.8768	-0.0793205	0.0105205	-0.0589981	-0.228516	0.775879	-0.766113	0.466285	-0.0643355	-0.0987804	0.876745	-0.173306	-2.06262	9.55737	-0.111657	-0.0365773	-0.0758577	-0.0463867	0.0568848	-1.05127	0.698052	0.188372	-0.171522	-0.669193	-0.191575	5.00101	8.65768	0.111839	-0.0133173	0.041991	0.0725098	-0.123291	-1.05591	0.758853	0.0440386	0.0137755	-0.649625	-0.945128	0.995774	13.4063	0.122576	-0.00455759	-0.00761808	0.104492	0.327393	-1.03906	-0.023002	-0.0130174	-0.999261	-0.0279232	-0.426639	0.326343	-9.03818	0.0203872	0.0112613	-0.0181118	-0.18335	-0.295898	1.10962	-0.0515889	-0.126983	-0.947213	0.28983	-1.93086	-4.96189	-6.70653	0.0184176	-0.0152505	-0.0197477	-0.163086	0.616943	0.868408	-0.217278	0.912862	-0.325317	-0.116797	-3.27538	-2.98565	-8.20047	-0.041467	-0.051101	0.00339494	-0.0166016	0.514648	0.981689	-0.0364513	0.0260449	-0.998872	-0.0157432	-0.79044	0.471334	-9.01677	0.0353495	-0.0177591	-0.0053539	-0.384766	-0.0610352	1.11475	-0.166743	-0.0182717	-0.977955	-0.124368	-3.13469	2.36488	-8.82335	0.0445122	0.0342011	-0.011628	-0.0888672	-0.320801	1.13794	
19	0.859088	0.110074	-0.470655	0.168332	8.69292	0.344866	5.72937	0.0369752	0.000695674	-4.54437e-05	-0.699707	-0.188232	-0.809082	0.516145	-0.0473858	-0.854935	-0.0208472	8.75499	-0.0567473	-4.48373	-0.0346472	-0.0582356	-0.0150924	-1.05078	-0.342773	0.243896	0.302357	-0.182112	-0.438256	0.826649	-0.395294	-8.71147	5.81958	-0.122516	0.0250223	-0.0615132	-0.237061	0.775879	-0.763916	0.468404	-0.0646563	-0.101564	0.875272	-0.284953	-2.27725	9.6769	-0.128837	-0.0227593	-0.106093	-0.0510254	0.0612793	-1.05347	0.698676	0.188268	-0.171764	-0.668509	-0.153294	4.68364	8.61227	-0.0060833	0.00742817	0.029104	0.0683594	-0.125732	-1.05127	0.76015	0.044354	0.0127798	-0.648106	-1.13665	1.01909	13.4558	0.048055	-0.00188679	0.0717479	0.102295	0.322998	-1.04102	-0.0224957	-0.0122716	-0.9993	-0.0272652	-0.428041	0.318672	-9.06005	0.0141321	0.00884213	-0.0161468	-0.187744	-0.295898	1.10767	-0.0515889	-0.126983	-0.947213	0.28983	-1.93086	-4.96189	-6.70653	0.0184176	-0.0152505	-0.0197477	-0.163086	0.616943	0.868408	-0.217627	0.912586	-0.325492	-0.117813	-3.22304	-3.06706	-8.04762	0.0312196	-0.031296	-0.000354589	-0.0168457	0.521484	0.98584	-0.0359479	0.0261265	-0.998903	-0.0147391	-0.793378	0.434932	-9.02307	0.0417865	0.0264059	-0.00339057	-0.389404	-0.0610352	1.1145	-0.166525	-0.0184113	-0.977974	-0.124488	-3.12573	2.43592	-9.07725	-0.0113148	0.0103401	0.00506845	-0.088623	-0.325195	1.14258	
20	0.858664	0.110449	-0.47129	0.168472	8.68617	0.303721	5.6333	0.010028	-0.0501958	-0.00103582	-0.706055	-0.190674	-0.800537	0.51496	-0.0473734	-0.855649	-0.0208958	8.75816	0.0294125	-4.49659	-0.022253	-0.0307319	-0.0229348	-1.04663	-0.336182	0.23877	0.303272	-0.182872	-0.440089	0.82517	-0.29669	-9.00414	5.68858	-0.049767	0.0349258	-0.0422883	-0.230713	0.777832	-0.754883	0.469816	-0.0649348	-0.103883	0.874222	-0.108212	-2.87025	9.72033	-0.0256605	-0.0129483	-0.0632509	-0.046875	0.0678711	-1.05811	0.699401	0.190281	-0.173559	-0.666714	0.0419198	5.11524	8.57387	0.130914	0.0375682	0.0525961	0.0727539	-0.13208	-1.05371	0.761471	0.0454906	0.0117952	-0.646494	-1.06086	1.49669	13.4468	0.0387184	0.0201637	0.0799566	0.106689	0.320801	-1.04321	-0.0225504	-0.0123272	-0.999292	-0.0274712	-0.435843	0.330425	-9.06785	0.0155208	0.0100748	-0.0164143	-0.180908	-0.304688	1.10571	-0.0518701	-0.126938	-0.94664	0.291666	-2.00226	-5.0202	-6.76382	0.0262677	-0.00371301	-0.00215015	-0.156982	0.621338	0.868408	-0.21765	0.912388	-0.325679	-0.118784	-3.25301	-2.89419	-7.87129	-0.0256263	-0.0374965	0.000224245	-0.0166016	0.516846	0.988281	-0.0359479	0.0261265	-0.998903	-0.0147391	-0.793378	0.434932	-9.02307	0.0417865	0.0264059	-0.00339057	-0.389404	-0.0610352	1.1145	-0.166694	-0.0186908	-0.97796	-0.124333	-3.13007	2.35364	-9.19203	0.0523222	-0.00753252	0.000529494	-0.0844727	-0.316162	1.1377	
21	0.857761	0.11101	-0.472743	0.168636	8.86566	0.358927	5.70742	0.0131947	-0.0747111	0.0132996	-0.710449	-0.195068	-0.802734	0.513516	-0.0478419	-0.856487	-0.021043	8.78276	0.0764422	-4.4751	-0.0244397	-0.0445253	-0.00541726	-1.04639	-0.340576	0.236572	0.30365	-0.183139	-0.439396	0.825341	-0.47772	-8.74246	5.83514	0.0267857	0.0358655	0.0134582	-0.228516	0.775635	-0.75708	0.469433	-0.0652243	-0.103877	0.874407	-0.140992	-2.92924	9.77371	0.00746535	0.0217218	0.0511286	-0.0515137	0.0700684	-1.04712	0.699668	0.192081	-0.174986	-0.665544	-0.200625	5.0244	8.63079	0.0641364	0.0227631	0.0288171	0.0749512	-0.132324	-1.04688	0.762682	0.0461139	0.0111487	-0.645031	-1.05469	1.8113	13.3493	0.013691	0.0121875	0.0450963	0.106934	0.316406	-1.03882	-0.0226085	-0.0123917	-0.999284	-0.0276863	-0.435353	0.320544	-9.08136	0.0169082	0.0113094	-0.0166815	-0.181152	-0.300293	1.10767	-0.0519275	-0.127092	-0.946535	0.29193	-1.99646	-5.11784	-6.76077	0.0153648	0.00870208	-0.000806596	-0.1521	0.612793	0.866211	-0.21784	0.912178	-0.32598	-0.119224	-3.14485	-3.03321	-7.8601	0.0373896	-0.00444709	-0.00543848	-0.0166016	0.516846	0.986084	-0.0365273	0.025884	-0.998886	-0.0149118	-0.794913	0.433103	-9.04909	-0.00179277	-0.00926625	0.00528879	-0.387207	-0.0566406	1.11914	-0.167064	-0.0188401	-0.977942	-0.123956	-3.10811	2.67216	-9.14088	0.0323085	-0.0253194	-0.00230415	-0.0844727	-0.318359	1.1355	
22	0.85657	0.110939	-0.474779	0.169013	8.86112	0.286465	5.58294	-0.00480559	-0.102004	0.0293257	-0.710693	-0.190674	-0.796387	0.512763	-0.0481091	-0.856922	-0.0210627	8.73122	-0.0893846	-4.4681	0.0041656	-0.0162466	-0.0114363	-1.05078	-0.340576	0.241455	0.303506	-0.183284	-0.437465	0.826387	-0.393121	-9.04298	5.75454	0.132987	0.00665597	0.0439324	-0.232666	0.775879	-0.761475	0.467754	-0.0644844	-0.100054	0.875807	-0.244016	-2.50583	9.64845	0.203486	0.0433421	0.0956053	-0.046875	0.0634766	-1.05127	0.700234	0.191252	-0.174425	-0.665335	-0.0523551	5.1487	8.44765	-0.0714333	-0.00709614	-0.00769076	0.0749512	-0.132324	-1.04907	0.762676	0.0452662	0.0115673	-0.645091	-1.062	1.45454	13.2842	-0.00617161	0.0051179	-0.0395852	0.108887	0.322998	-1.03906	-0.0225285	-0.0122005	-0.999293	-0.027529	-0.422789	0.327127	-9.05034	0.0183627	0.00976618	-0.0171412	-0.185059	-0.306885	1.10352	-0.0518863	-0.127114	-0.946746	0.291242	-1.93024	-5.00212	-6.66238	-0.0239767	0.0165717	-0.00668147	-0.156982	0.621582	0.858887	-0.217637	0.912152	-0.326218	-0.119145	-3.27167	-2.99723	-7.92635	-0.0123323	0.00862676	-0.0036436	-0.0166016	0.514648	0.988281	-0.037226	0.0255834	-0.998856	-0.0157084	-0.798643	0.437994	-9.02455	-0.028509	-0.0238811	0.0133999	-0.384766	-0.0610352	1.12158	-0.169046	-0.0187286	-0.977718	-0.123047	-3.09278	2.50772	-8.82205	0.0665257	-0.0613928	-0.0304333	-0.0820312	-0.320557	1.13794	
23	0.855273	0.110883	-0.476932	0.169553	8.83399	0.298146	5.44547	-0.00253997	-0.0998437	0.0395705	-0.715088	-0.190674	-0.794189	0.512418	-0.0482645	-0.857133	-0.0205322	8.56361	-0.0182881	-4.52027	-0.00491524	-0.00211974	0.000438955	-1.05078	-0.338379	0.250732	0.303488	-0.182758	-0.435167	0.827722	-0.484888	-8.7123	5.8314	0.216061	0.00741174	0.0487992	-0.224121	0.775635	-0.768311	0.466124	-0.0645124	-0.0974131	0.87697	-0.247752	-1.89405	9.66159	0.0585375	0.0508234	0.0841029	-0.0510254	0.059082	-1.05347	0.700266	0.190686	-0.174181	-0.665528	-0.149518	4.71238	8.38561	0.0143087	0.00529049	-0.0309773	0.0727539	-0.130127	-1.04688	0.76261	0.0461494	0.0107256	-0.645121	-1.0539	1.50137	13.3406	0.0607486	0.0181015	-0.00682245	0.106934	0.316406	-1.03882	-0.0225214	-0.012237	-0.99929	-0.0276152	-0.431868	0.304677	-9.05864	0.0179735	0.0132851	-0.0162161	-0.185303	-0.300293	1.10767	-0.0518863	-0.127114	-0.946746	0.291242	-1.93024	-5.00212	-6.66238	-0.0239767	0.0165717	-0.00668147	-0.156982	0.621582	0.858887	-0.217751	0.912022	-0.326496	-0.119165	-3.32857	-3.27559	-8.01669	0.019464	0.00107785	0.00480229	-0.0168457	0.521484	0.98584	-0.037226	0.0255834	-0.998856	-0.0157084	-0.798643	0.437994	-9.02455	-0.028509	-0.0238811	0.0133999	-0.384766	-0.0610352	1.12158	-0.169911	-0.0187457	-0.977676	-0.122182	-3.07347	2.4015	-8.78025	0.0684184	-0.0642251	-0.0234219	-0.0820312	-0.318359	1.13794	
24	0.854125	0.110382	-0.479	0.169838	8.86603	0.264698	5.42355	-0.029443	-0.0921419	0.0277664	-0.712891	-0.190674	-0.794189	0.511288	-0.048386	-0.857806	-0.0203144	8.66612	0.19987	-4.54392	-0.00834557	-0.0394798	-0.0215283	-1.05078	-0.338379	0.253174	0.302874	-0.184246	-0.433416	0.828535	-0.40922	-8.36704	6.04289	-0.140977	0.0462094	0.0493793	-0.222168	0.777832	-0.775391	0.465521	-0.0661365	-0.0966692	0.877252	-0.258447	-2.20062	9.41413	-0.0268104	0.0717	0.0366632	-0.0466309	0.059082	-1.05347	0.699303	0.193986	-0.176537	-0.664966	-0.121135	5.35535	8.6952	0.135836	0.0368155	-0.0295958	0.0795898	-0.138916	-1.04224	0.762019	0.0472978	0.0103666	-0.645741	-1.11462	1.57185	13.5005	0.0469643	0.0249557	-0.0408027	0.107178	0.312256	-1.03857	-0.0224642	-0.0120431	-0.999298	-0.0274658	-0.43783	0.322479	-9.03896	0.0180135	0.00880691	-0.0176167	-0.185303	-0.30249	1.10571	-0.0518863	-0.127114	-0.946746	0.291242	-1.93024	-5.00212	-6.66238	-0.0239767	0.0165717	-0.00668147	-0.156982	0.621582	0.858887	-0.219271	0.911398	-0.327458	-0.118512	-3.29066	-3.00507	-8.20964	0.0113219	0.0111613	0.00923982	-0.0144043	0.51709	0.983887	-0.0382539	0.0257517	-0.998827	-0.0147589	-0.830147	0.457436	-9.03632	0.0204964	-0.0174618	-0.00393775	-0.382812	-0.0544434	1.12134	-0.17083	-0.0186888	-0.977603	-0.121491	-3.08837	2.54676	-8.65106	0.0266793	-0.0339584	-0.0136547	-0.0822754	-0.316162	1.14014	
25	0.853595	0.110259	-0.480028	0.169681	8.93319	0.231741	5.44807	-0.025296	-0.0945311	0.00850666	-0.717529	-0.182129	-0.792236	0.510837	-0.0485462	-0.858066	-0.0203016	8.74963	0.0122656	-4.59549	-0.015933	-0.0281477	-0.0102304	-1.05103	-0.336182	0.25293	0.302666	-0.185194	-0.434021	0.828084	-0.382006	-9.06565	5.7412	-0.0769696	0.0538323	0.0265508	-0.224121	0.775635	-0.770752	0.46515	-0.0664508	-0.0957682	0.877524	-0.219314	-2.38399	9.39347	0.0558324	0.0571657	0.0432785	-0.0422363	0.059082	-1.05566	0.69921	0.19357	-0.175624	-0.665426	-0.271138	5.1996	8.60337	-0.0776681	0.0277241	-0.0528151	0.0754395	-0.138916	-1.04663	0.761677	0.0476842	0.0106243	-0.646112	-1.14945	1.46705	13.5278	0.0142402	0.048889	-0.0566162	0.10498	0.310059	-1.04297	-0.0224642	-0.0120431	-0.999298	-0.0274658	-0.43783	0.322479	-9.03896	0.0180135	0.00880691	-0.0176167	-0.185303	-0.30249	1.10571	-0.0518863	-0.127114	-0.946746	0.291242	-1.93024	-5.00212	-6.66238	-0.0239767	0.0165717	-0.00668147	-0.156982	0.621582	0.858887	-0.219271	0.911398	-0.327458	-0.118512	-3.29066	-3.00507	-8.20964	0.0113219	0.0111613	0.00923982	-0.0144043	0.51709	0.983887	-0.0382539	0.0257517	-0.998827	-0.0147589	-0.830147	0.457436	-9.03632	0.0204964	-0.0174618	-0.00393775	-0.382812	-0.0544434	1.12134	-0.170478	-0.0182007	-0.977593	-0.122136	-3.14789	2.37167	-8.76943	-0.0272979	0.0191531	-0.0153235	-0.0776367	-0.318359	1.14233	
26	0.853054	0.110135	-0.481094	0.169461	8.98058	0.285516	5.42032	-0.0271313	-0.0977349	0.00448074	-0.717529	-0.184326	-0.790039	0.510065	-0.0487764	-0.858526	-0.0197132	8.79307	0.0469355	-4.52488	0.0185518	-0.0264606	-0.00131017	-1.05078	-0.340576	0.253174	0.302825	-0.185144	-0.432174	0.829002	-0.558363	-8.4333	5.72678	0.0672925	0.00693301	0.0139439	-0.221924	0.773438	-0.770752	0.465438	-0.0670636	-0.0950169	0.877406	-0.412962	-2.16482	9.4005	-0.0226174	0.0342466	-0.0272863	-0.0373535	0.050293	-1.05566	0.699453	0.192573	-0.173992	-0.665889	-0.213334	4.75462	8.4591	-0.0286858	0.0329845	-0.024073	0.081543	-0.130127	-1.04663	0.761095	0.0491172	0.0110548	-0.646683	-1.22155	1.01961	13.281	0.110959	0.0658174	-0.0477531	0.107422	0.307861	-1.04077	-0.022178	-0.0114467	-0.999328	-0.0268342	-0.425162	0.327254	-9.05978	0.0185735	0.00909052	-0.0169216	-0.181152	-0.300293	1.10986	-0.0518863	-0.127114	-0.946746	0.291242	-1.93024	-5.00212	-6.66238	-0.0239767	0.0165717	-0.00668147	-0.156982	0.621582	0.858887	-0.219359	0.911124	-0.327639	-0.119947	-3.27095	-2.89885	-8.12006	-0.0119529	-0.0516164	0.00417226	-0.012207	0.521729	0.977051	-0.0383401	0.0262028	-0.998819	-0.0142531	-0.841706	0.447524	-9.03175	0.0217011	0.0024579	-0.0182815	-0.387207	-0.0566406	1.12134	-0.170367	-0.0178482	-0.977616	-0.122163	-3.1345	2.29148	-8.92529	0.00909462	-0.00120322	-0.0147768	-0.0822754	-0.313965	1.14014	
27	0.851487	0.108769	-0.48443	0.168721	9.13605	0.358472	5.36007	-0.0670187	-0.0848339	0.0254198	-0.730713	-0.18457	-0.785645	0.509518	-0.0489078	-0.858857	-0.0190995	8.6973	-0.00902437	-4.59465	0.0217982	-0.0179337	0.000750946	-1.05103	-0.336182	0.255371	0.302735	-0.186161	-0.433938	0.827885	-0.512691	-8.89673	5.74616	-0.0641354	0.0299107	-0.0157711	-0.224121	0.773438	-0.770752	0.465508	-0.0672906	-0.0952658	0.877325	-0.368286	-2.32333	9.36601	0.0423454	0.00303762	0.00533333	-0.0375977	0.0568848	-1.05566	0.698453	0.196377	-0.176309	-0.665218	0.0358672	5.04583	8.66481	0.198136	0.0367074	-0.0364342	0.0776367	-0.141113	-1.04907	0.761435	0.0500675	0.0111507	-0.646209	-1.00695	1.51182	13.1988	-0.0412349	0.0320327	0.021668	0.109375	0.310059	-1.03857	-0.0223055	-0.0115299	-0.999321	-0.0269667	-0.432053	0.321105	-9.04404	0.0188861	0.00952062	-0.0147786	-0.181152	-0.300293	1.10767	-0.0503061	-0.128812	-0.946181	0.292606	-2.04586	-5.02597	-6.81115	0.0184178	0.0204867	0.0095921	-0.156982	0.623779	0.858887	-0.219624	0.910887	-0.327809	-0.120797	-3.28125	-2.94548	-7.9358	0.0240468	-0.0246231	-0.00686677	-0.012207	0.519287	0.986084	-0.0376487	0.0262363	-0.99885	-0.0139112	-0.836139	0.418274	-9.01591	0.015112	0.0329246	-0.000840767	-0.382812	-0.0566406	1.12598	-0.170882	-0.0179301	-0.977565	-0.12184	-3.22036	2.26346	-9.07192	0.0285602	-0.0106031	-0.00465635	-0.0754395	-0.318359	1.14233	
28	0.850609	0.10669	-0.486613	0.168196	9.04965	0.11219	5.2931	-0.0887005	-0.0835254	0.032563	-0.730957	-0.180176	-0.774902	0.5092	-0.0485534	-0.859096	-0.0176617	8.75611	0.0164732	-4.58271	0.0560705	0.00658915	-0.00455347	-1.05078	-0.342773	0.255615	0.303569	-0.185196	-0.43246	0.828569	-0.664224	-8.42113	5.74579	0.0639452	-0.00107822	-0.0256122	-0.224121	0.771484	-0.770508	0.466539	-0.0670795	-0.0959029	0.876723	-0.486418	-2.04529	9.40295	-0.0795846	-0.0168799	-0.0735505	-0.0375977	0.0568848	-1.05347	0.698935	0.194903	-0.175695	-0.665307	-0.257364	5.31403	8.44366	-0.134712	-0.0315989	0.0188404	0.0754395	-0.138916	-1.04907	0.761303	0.0512438	0.00954839	-0.646298	-1.04951	1.14343	13.0021	0.123126	-0.0178517	-0.00820959	0.111816	0.305664	-1.04492	-0.0222623	-0.0113414	-0.999329	-0.0267827	-0.435424	0.32388	-9.04816	0.0194162	0.00829217	-0.017058	-0.180908	-0.304688	1.10791	-0.0506322	-0.128723	-0.946075	0.292931	-1.99912	-5.00242	-6.70922	0.0156235	-0.00469856	-0.0071545	-0.148193	0.621582	0.856689	-0.219624	0.910887	-0.327809	-0.120797	-3.28125	-2.94548	-7.9358	0.0240468	-0.0246231	-0.00686677	-0.012207	0.519287	0.986084	-0.0376487	0.0262363	-0.99885	-0.0139112	-0.836139	0.418274	-9.01591	0.015112	0.0329246	-0.000840767	-0.382812	-0.0566406	1.12598	-0.17074	-0.0182949	-0.977575	-0.121902	-3.17065	2.37742	-8.95335	-0.0187318	0.00780532	0.0152909	-0.0822754	-0.316162	1.14014	
29	0.849631	0.104891	-0.488904	0.167625	9.00294	0.281597	5.30875	-0.0959201	-0.0911715	0.0353188	-0.735596	-0.177979	-0.779297	0.508907	-0.0476377	-0.85937	-0.0150529	8.64841	-0.0980835	-4.69396	0.0985337	-0.0103972	-0.00149997	-1.04858	-0.338379	0.253174	0.30386	-0.185384	-0.434772	0.827209	-0.423213	-8.74897	5.76842	-0.0850649	0.00528125	-0.0470221	-0.228516	0.778076	-0.772949	0.467636	-0.0666933	-0.0979223	0.875945	-0.316272	-2.41905	9.4553	-0.0309532	-0.0391804	-0.0361437	-0.0441895	0.0568848	-1.05566	0.69867	0.194841	-0.177419	-0.665146	0.0285449	4.07985	8.29118	0.189052	-0.0433299	0.0197415	0.0732422	-0.141113	-1.04663	0.762967	0.0518963	0.00643452	-0.644319	-0.98656	1.08871	12.909	0.0828061	-0.0712455	0.103322	0.109863	0.299072	-1.04688	-0.0222897	-0.0114169	-0.999327	-0.0268193	-0.440722	0.331882	-9.06813	0.0243571	0.0137469	-0.0160705	-0.181152	-0.298096	1.10986	-0.0504739	-0.128277	-0.945994	0.293416	-2.03384	-4.88948	-6.68007	0.0231884	0.00872488	-0.0271773	-0.156982	0.621582	0.861328	-0.219626	0.911028	-0.3275	-0.120567	-3.26299	-2.93009	-7.81717	0.0141965	0.03906	-0.0350553	-0.00976562	0.519287	0.986084	-0.0377052	0.0258335	-0.998854	-0.0141938	-0.840377	0.425464	-9.04261	-0.00420252	0.00120995	0.00870782	-0.38501	-0.0566406	1.11914	-0.17165	-0.018862	-0.977393	-0.121994	-3.22432	2.41265	-8.80049	-0.00385345	-0.0451069	0.0108667	-0.0800781	-0.311768	1.13989	
30	0.848712	0.10216	-0.491132	0.167455	8.765	0.167699	5.24312	-0.111063	-0.0834964	0.072837	-0.738037	-0.173828	-0.785889	0.508562	-0.0469627	-0.859648	-0.0128117	8.46293	-0.34498	-4.47486	0.0683042	-0.0146361	0.00582123	-1.05542	-0.333984	0.262451	0.304997	-0.183487	-0.432971	0.828158	-0.348317	-8.56774	5.81306	0.144745	-0.0314971	-0.0398465	-0.230469	0.769287	-0.775146	0.468799	-0.0650513	-0.0981551	0.87542	-0.245408	-2.1742	9.48883	-0.00653045	-0.0610151	-0.0678494	-0.048584	0.0568848	-1.05786	0.699083	0.197905	-0.182574	-0.662407	-0.0175844	5.49002	8.52791	0.143706	-0.029702	0.0857983	0.0715332	-0.1521	-1.04443	0.764399	0.0518936	0.003037	-0.642644	-0.976998	1.64593	13.2206	0.00858319	-0.0901154	0.0911351	0.101318	0.296875	-1.04883	-0.0222077	-0.0114986	-0.999329	-0.0267663	-0.446676	0.316883	-9.04269	0.0261208	0.0149998	-0.0168431	-0.183105	-0.300293	1.10986	-0.0511401	-0.126902	-0.946619	0.291878	-1.98196	-5.26345	-6.6288	-0.013454	0.000201637	-0.0450322	-0.152588	0.619385	0.861328	-0.219464	0.911441	-0.327084	-0.118855	-3.34999	-2.9739	-7.84398	0.0236623	0.0632448	-0.0556046	-0.0192871	0.521484	0.981445	-0.0361607	0.0257043	-0.998907	-0.0147239	-0.830981	0.443307	-9.02892	-0.0135427	0.044134	0.00513242	-0.387207	-0.0588379	1.1123	-0.172237	-0.0190402	-0.977206	-0.122643	-3.10638	2.44373	-8.63106	-0.0304406	4.44668e-05	0.00194941	-0.0732422	-0.316162	1.1377	
31	0.847256	0.0986489	-0.493995	0.168506	8.86549	-0.115548	5.24714	-0.111574	-0.108057	0.137795	-0.745117	-0.160889	-0.779541	0.507443	-0.0466866	-0.860351	-0.0108715	8.56033	0.0866479	-4.48949	0.0529241	-0.0460982	0.00824475	-1.05542	-0.32959	0.264648	0.304911	-0.183033	-0.43452	0.827479	-0.441265	-8.5439	5.86829	-0.104514	-0.0201334	-0.0235368	-0.234863	0.775879	-0.772949	0.468988	-0.0653772	-0.102199	0.874832	-0.152996	-2.50402	9.57349	-0.147625	-0.0593794	-0.026537	-0.0488281	0.0612793	-1.05566	0.70164	0.193807	-0.182302	-0.660989	-0.0372776	4.74985	8.40637	-0.123959	-0.0620847	0.135306	0.0734863	-0.149902	-1.04663	0.766145	0.051359	0.000354878	-0.640612	-0.963677	1.58852	13.3415	0.117306	-0.0742225	0.0936585	0.103516	0.296875	-1.05103	-0.0222271	-0.0115067	-0.999328	-0.0267715	-0.415685	0.310955	-9.05113	0.0238838	0.0113022	-0.0185763	-0.185303	-0.300293	1.10547	-0.0511401	-0.126902	-0.946619	0.291878	-1.98196	-5.26345	-6.6288	-0.013454	0.000201637	-0.0450322	-0.152588	0.619385	0.861328	-0.220105	0.911502	-0.326821	-0.11792	-3.2802	-3.08731	-7.73971	0.0742768	0.0490259	-0.0612366	-0.0168457	0.519287	0.979248	-0.0357449	0.0256523	-0.998917	-0.015109	-0.802542	0.452	-9.0047	-0.0268565	0.042479	0.00769179	-0.391602	-0.0588379	1.11694	-0.171384	-0.0194366	-0.977346	-0.122656	-3.1102	2.4275	-8.68383	0.0277932	0.0451633	0.0129494	-0.0732422	-0.318359	1.14014	
32	0.845354	0.095709	-0.497338	0.169917	9.14625	-0.256132	5.26755	-0.0826499	-0.132498	0.123818	-0.748291	-0.145752	-0.766846	0.506498	-0.0468338	-0.860912	-0.00985683	8.77321	-0.0615004	-4.65478	0.0297142	-0.03526	-0.00322856	-1.04907	-0.32959	0.271729	0.30505	-0.182811	-0.434965	0.827243	-0.426751	-9.05774	5.73119	-0.0254474	-0.0104892	-0.0291309	-0.232666	0.771484	-0.770508	0.469362	-0.0648613	-0.101892	0.874706	-0.226644	-2.3756	9.76673	0.0449918	-0.0198362	-0.0154884	-0.046875	0.0634766	-1.05566	0.702202	0.194091	-0.183965	-0.659847	0.0121093	4.58451	8.42602	0.11101	-0.0453751	0.101557	0.0646973	-0.145508	-1.05127	0.766988	0.0509799	-0.000776832	-0.639633	-0.961366	2.03387	13.4468	0.0341841	-0.0705496	0.0922796	0.103516	0.294678	-1.05518	-0.0221839	-0.0113272	-0.999338	-0.0265096	-0.428476	0.319087	-9.03563	0.0225824	0.00817232	-0.0170739	-0.181152	-0.298096	1.11401	-0.0485287	-0.126225	-0.946682	0.292412	-1.9752	-5.02512	-6.72925	0.0235921	0.0659565	-0.0434179	-0.154785	0.623779	0.861328	-0.220487	0.911865	-0.326042	-0.116556	-3.17415	-3.05423	-7.97251	0.028535	0.0407369	-0.0553686	-0.0146484	0.521729	0.974854	-0.0346445	0.0254479	-0.998964	-0.0149637	-0.779427	0.464491	-9.02425	0.00724213	0.0489856	0.0094105	-0.395996	-0.0610352	1.11694	-0.170239	-0.0196845	-0.977489	-0.123073	-3.16801	2.51847	-8.86762	-0.0300145	0.0528427	0.0138934	-0.0866699	-0.320801	1.14014	
33	0.844391	0.0947646	-0.498995	0.170376	9.1951	-0.407345	5.12882	-0.0618456	-0.137433	0.0923221	-0.75	-0.152344	-0.766846	0.506437	-0.0464196	-0.860977	-0.00920831	8.78954	-0.0212423	-4.61914	0.0521403	0.00481922	-0.0223262	-1.04468	-0.327393	0.264404	0.305068	-0.18242	-0.434206	0.827721	-0.306372	-8.60991	5.95388	0.0281601	0.00315551	0.0142416	-0.230713	0.775879	-0.766113	0.470005	-0.0649929	-0.102925	0.87423	-0.150526	-2.4345	9.8373	-0.0795547	-0.000413536	-0.0298397	-0.0534668	0.0656738	-1.05151	0.702555	0.196443	-0.188358	-0.657532	-0.00919167	6.10621	8.80932	0.0780951	-0.0419511	0.0729937	0.0695801	-0.160889	-1.04663	0.768205	0.0495321	-0.00284919	-0.638278	-1.0777	1.93264	13.7746	0.0210641	-0.0832614	0.0504733	0.0993652	0.290527	-1.05298	-0.0222893	-0.0113852	-0.999334	-0.0265608	-0.424673	0.319626	-9.03883	0.0225764	0.00819267	-0.0170652	-0.185303	-0.300293	1.10547	-0.0474955	-0.125717	-0.946965	0.291885	-1.97166	-4.97883	-6.83074	-0.0151014	0.0468621	-0.0395447	-0.156982	0.625977	0.858887	-0.220267	0.91205	-0.326123	-0.115285	-3.24645	-3.24248	-8.15287	0.00535717	0.0519243	-0.0223408	-0.0214844	0.519287	0.981445	-0.0346445	0.0254479	-0.998964	-0.0149637	-0.779427	0.464491	-9.02425	0.00724213	0.0489856	0.0094105	-0.395996	-0.0610352	1.11694	-0.169632	-0.0197006	-0.977608	-0.12296	-3.16943	2.43625	-8.99208	0.0135035	0.0537486	0.000957706	-0.0820312	-0.318359	1.14014	
34	0.842622	0.0949727	-0.501765	0.17088	9.20634	-0.213018	4.85689	0.0182957	-0.126568	0.017786	-0.759033	-0.147949	-0.77124	0.507196	-0.0464392	-0.860538	-0.008315	8.61593	-0.123032	-4.71878	0.0119638	0.0646781	0.0115414	-1.05322	-0.331787	0.269287	0.304947	-0.183156	-0.434759	0.827312	-0.30645	-9.05408	5.88398	-0.0118159	0.0278846	0.01586	-0.234863	0.773682	-0.766113	0.469933	-0.0650927	-0.101835	0.874389	-0.113864	-2.68504	9.75983	0.103174	0.0345324	0.0172665	-0.0512695	0.0656738	-1.05591	0.703989	0.192548	-0.186459	-0.657692	0.0639658	5.07577	8.45586	-0.139087	-0.0175635	0.0109998	0.0583496	-0.1521	-1.05127	0.769271	0.0476462	-0.00316846	-0.637136	-0.8643	2.29461	13.9759	-0.109564	-0.0252275	0.045807	0.0991211	0.299072	-1.04688	-0.0223489	-0.0114542	-0.999331	-0.0265895	-0.420037	0.330467	-9.07326	0.0223727	0.0104036	-0.0159049	-0.185547	-0.298096	1.10986	-0.0463064	-0.125405	-0.947118	0.291712	-1.98237	-5.26021	-6.87114	0.00104579	0.0529348	-0.0333571	-0.165283	0.616943	0.866211	-0.219777	0.912138	-0.326369	-0.114827	-3.2891	-3.20436	-8.29538	-0.0151818	0.0185551	-0.00984286	-0.0236816	0.519043	0.981445	-0.0330283	0.0255105	-0.999042	-0.0131605	-0.770977	0.443503	-9.04719	0.0363537	0.0356895	-0.00154449	-0.391846	-0.0566406	1.11914	-0.16863	-0.0195572	-0.977814	-0.122721	-3.18245	2.40171	-9.0782	-0.00207384	0.0428907	-0.00608134	-0.0820312	-0.318359	1.14014	
35	0.84174	0.0952503	-0.503238	0.17074	9.44449	-0.0924393	4.92236	-0.00838096	-0.0440656	-0.00290759	-0.754883	-0.145752	-0.762695	0.507164	-0.0465426	-0.860561	-0.00729783	8.69038	-0.142044	-4.59862	0.0348627	0.0202641	0.00194091	-1.05127	-0.325195	0.269043	0.304591	-0.182633	-0.430928	0.82956	-0.526257	-8.43916	5.78494	0.202489	0.0127729	0.0598085	-0.226318	0.769287	-0.781982	0.469752	-0.0650486	-0.0991056	0.874803	-0.263799	-2.21038	9.66864	0.0622802	0.0621109	0.0280814	-0.0488281	0.0612793	-1.05127	0.704047	0.192974	-0.18542	-0.657798	-0.0205904	5.48195	8.54755	-0.0186614	0.0586427	-0.0273925	0.0627441	-0.1521	-1.04907	0.768984	0.0455162	-0.00063613	-0.637645	-0.811639	1.86458	13.6785	-0.100523	0.060805	-0.0763221	0.0966797	0.303467	-1.04688	-0.0224685	-0.0115304	-0.999326	-0.0266388	-0.436704	0.312069	-9.07366	0.024039	0.00755751	-0.0160934	-0.181152	-0.295898	1.10547	-0.0463064	-0.125405	-0.947118	0.291712	-1.98237	-5.26021	-6.87114	0.00104579	0.0529348	-0.0333571	-0.165283	0.616943	0.866211	-0.220869	0.911877	-0.32658	-0.114206	-3.21596	-2.93077	-8.09529	0.0488414	0.00937834	-0.016766	-0.0239258	0.526123	0.979248	-0.0326136	0.0253336	-0.99906	-0.0131688	-0.756015	0.425039	-9.03099	0.0017988	0.0217114	0.00848617	-0.394043	-0.0566406	1.1123	-0.168563	-0.019748	-0.97796	-0.121618	-3.09605	2.38309	-9.07299	0.0603697	-0.00346182	-0.00435616	-0.0844727	-0.316162	1.14233	
36	0.842178	0.09491	-0.502642	0.17053	9.14882	-0.0896301	4.91608	-0.0192859	0.0382169	-0.00659231	-0.754639	-0.147949	-0.764648	0.507676	-0.0466763	-0.860253	-0.00714873	8.53139	-0.196005	-4.63755	-0.0103299	0.0327031	-0.0159559	-1.04932	-0.322998	0.264404	0.303733	-0.183589	-0.430263	0.830009	-0.413097	-8.35418	5.92722	0.0142462	0.0248139	0.0552579	-0.223877	0.762695	-0.7771	0.469602	-0.0653096	-0.0963057	0.875177	-0.289168	-2.17387	9.24334	0.119607	0.0605068	0.0233004	-0.0463867	0.0524902	-1.05786	0.704043	0.190997	-0.181882	-0.659365	0.156267	4.93418	8.44461	-0.189757	0.0486743	-0.09336	0.0712891	-0.145508	-1.05127	0.76811	0.0439548	0.00297549	-0.638801	-0.959043	1.56522	13.5189	-0.144312	0.0894743	-0.0875235	0.10083	0.305664	-1.04492	-0.0224432	-0.0113394	-0.999336	-0.0263783	-0.425796	0.306609	-9.04409	0.0225022	0.00750593	-0.01726	-0.183105	-0.304688	1.10571	-0.0452738	-0.125223	-0.946942	0.292523	-1.95249	-4.9827	-6.77533	0.0208029	0.021475	-0.0134187	-0.161133	0.621582	0.861328	-0.220149	0.911965	-0.326634	-0.114735	-3.24613	-3.14185	-8.01837	-0.0299897	-0.0138733	-0.00938854	-0.019043	0.519287	0.977051	-0.0322049	0.0254817	-0.999073	-0.0128778	-0.750342	0.430743	-9.04268	0.0133714	0.0218185	-0.0049238	-0.391602	-0.0588379	1.11694	-0.168941	-0.0198384	-0.977923	-0.121372	-3.19492	2.54125	-9.01604	0.0216189	-0.0259393	-0.00457582	-0.0825195	-0.311768	1.13989	
37	0.842837	0.0944833	-0.501744	0.170152	9.07975	-0.173597	5.02845	-0.0173308	0.0406731	-0.020603	-0.752686	-0.145752	-0.769043	0.507871	-0.0469907	-0.860116	-0.0077274	8.63251	-0.0729922	-4.59553	-0.0515131	0.0278799	-0.0216798	-1.05566	-0.327393	0.266846	0.303804	-0.18309	-0.427895	0.831317	-0.677859	-8.36731	5.69769	0.128106	0.000615953	0.007254	-0.228271	0.760742	-0.786377	0.469314	-0.0652195	-0.0946362	0.87552	-0.452603	-1.81712	9.0936	0.0404664	0.0233837	0.0106541	-0.041748	0.0524902	-1.05786	0.703951	0.190961	-0.179955	-0.660003	0.020058	5.29557	8.41845	-0.0517005	0.057906	-0.0525087	0.0622559	-0.141113	-1.04688	0.767708	0.0373834	0.0107534	-0.639618	-0.848061	1.52184	13.2581	-0.544593	0.079646	-0.0271907	0.102051	0.33374	-1.03931	-0.0224245	-0.0111672	-0.999343	-0.0261775	-0.429766	0.319612	-9.0693	0.0203027	0.00723344	-0.0165792	-0.180908	-0.30249	1.10767	-0.0452738	-0.125223	-0.946942	0.292523	-1.95249	-4.9827	-6.77533	0.0208029	0.021475	-0.0134187	-0.161133	0.621582	0.861328	-0.221008	0.911742	-0.326746	-0.114536	-3.20961	-3.12162	-7.89498	0.0621583	0.00369874	-0.0137074	-0.0241699	0.52832	0.979004	-0.0319985	0.0255512	-0.999078	-0.0128633	-0.736307	0.410496	-9.04426	0.00270048	0.0135802	-0.00118971	-0.398438	-0.0566406	1.11914	-0.169523	-0.0198756	-0.977671	-0.122584	-3.10562	2.56298	-8.82894	-0.0237806	0.0049944	0.00381299	-0.0776367	-0.316162	1.1377	
38	0.843489	0.0939092	-0.501077	0.169202	8.99026	-0.171965	5.0817	-0.044621	0.0295892	-0.0305929	-0.752441	-0.147949	-0.766846	0.508083	-0.0468791	-0.859993	-0.00815423	8.61664	-0.0959898	-4.60219	-0.0106543	0.0228761	-0.0377078	-1.05151	-0.322998	0.264404	0.304319	-0.183007	-0.429405	0.830367	-0.393697	-8.36975	5.89945	-0.104181	-0.00311671	-0.0480667	-0.223877	0.762695	-0.772705	0.470075	-0.0646545	-0.0958882	0.875017	-0.288475	-2.11992	9.05551	-0.0318345	-0.0501139	-0.0489055	-0.0461426	0.050293	-1.05786	0.703275	0.19105	-0.179135	-0.66092	0.0861762	4.69484	8.47724	-0.0209853	0.0178512	-0.0570524	0.0620117	-0.132324	-1.04688	0.767752	0.0336943	0.0151398	-0.639681	-0.837411	0.526964	12.8151	-0.00801931	0.0400219	-0.0476936	0.104004	0.335938	-1.03516	-0.0224245	-0.0111672	-0.999343	-0.0261775	-0.429766	0.319612	-9.0693	0.0203027	0.00723344	-0.0165792	-0.180908	-0.30249	1.10767	-0.0452738	-0.125223	-0.946942	0.292523	-1.95249	-4.9827	-6.77533	0.0208029	0.021475	-0.0134187	-0.161133	0.621582	0.861328	-0.221649	0.91157	-0.32689	-0.114257	-3.15157	-3.0919	-7.86042	0.0648818	0.0063389	-0.0139323	-0.0214844	0.519287	0.974854	-0.0319985	0.0255512	-0.999078	-0.0128633	-0.736307	0.410496	-9.04426	0.00270048	0.0135802	-0.00118971	-0.398438	-0.0566406	1.11914	-0.169468	-0.0198724	-0.977634	-0.122952	-3.17421	2.2878	-8.79106	-0.0271735	0.0102327	0.000473776	-0.0844727	-0.318359	1.14014	
39	0.843941	0.0939473	-0.500676	0.168108	9.06877	-0.237137	5.02902	-0.0103432	0.0143024	-0.0450589	-0.752686	-0.145752	-0.766846	0.508006	-0.0467783	-0.860034	-0.00906994	8.56877	-0.158136	-4.42794	-0.042875	0.00837852	-0.0462626	-1.05127	-0.325195	0.257324	0.306078	-0.181322	-0.429246	0.830173	-0.429447	-8.54136	5.82494	0.101017	-0.0148634	-0.0932648	-0.234619	0.762939	-0.783936	0.470588	-0.0628151	-0.0967915	0.874776	-0.216471	-1.97567	9.3932	0.00794459	-0.0792737	-0.0314237	-0.0505371	0.0480957	-1.04883	0.703654	0.189585	-0.177973	-0.661252	-0.0771941	5.25992	8.40528	-0.126907	-0.0171601	-0.00770562	0.0686035	-0.136719	-1.04688	0.767243	0.033216	0.0153892	-0.640311	-0.96475	0.811855	13.1758	-0.0703803	0.000748971	-0.0332835	0.0998535	0.335938	-1.03076	-0.0221972	-0.0106239	-0.999374	-0.0254325	-0.436855	0.308394	-9.06735	0.0208892	0.00789236	-0.0157774	-0.185303	-0.300293	1.11206	-0.0428207	-0.125802	-0.947323	0.291408	-1.9226	-5.04866	-6.72	-0.0097942	0.0387716	-0.00464624	-0.161133	0.621338	0.86377	-0.220187	0.911854	-0.327372	-0.113438	-3.1842	-3.27601	-7.94202	-0.0057799	0.0582105	-0.00688161	-0.0263672	0.52832	0.974609	-0.0304042	0.0258519	-0.999126	-0.0124201	-0.726966	0.419301	-9.02528	0.00901878	0.0346955	-0.00533146	-0.402832	-0.0568848	1.11914	-0.169621	-0.0196716	-0.97743	-0.124386	-3.06305	2.26466	-8.7476	-0.0818019	0.00994222	0.00450118	-0.079834	-0.320557	1.14233	
40	0.844714	0.0943902	-0.499536	0.167368	9.12645	-0.197731	5.04491	0.0104238	0.05902	-0.0456504	-0.748047	-0.150146	-0.769043	0.50786	-0.0466468	-0.860123	-0.00950778	8.61449	-0.110013	-4.60056	-0.0342153	0.00150402	-0.0472379	-1.05127	-0.327393	0.264404	0.307503	-0.179891	-0.430783	0.829161	-0.331185	-8.42052	6.11204	-0.106451	-0.0290784	-0.0972913	-0.232422	0.760742	-0.7771	0.471095	-0.062087	-0.0980474	0.874415	-0.226003	-1.99101	9.47163	-0.0571828	-0.0868122	-0.0606076	-0.0532227	0.0568848	-1.05566	0.704029	0.188099	-0.177235	-0.661476	0.164186	4.42137	8.46055	0.0155613	0.0053423	-0.00869814	0.064209	-0.13208	-1.05811	0.767335	0.0337389	0.0145511	-0.640192	-0.86582	0.773817	13.2238	0.0767343	-0.00995001	-0.000603271	0.106445	0.331543	-1.03271	-0.0222726	-0.0106505	-0.99937	-0.0254866	-0.439708	0.310413	-9.06533	0.0201257	0.00675978	-0.0176046	-0.185547	-0.298096	1.10327	-0.0428207	-0.125802	-0.947323	0.291408	-1.9226	-5.04866	-6.72	-0.0097942	0.0387716	-0.00464624	-0.161133	0.621338	0.86377	-0.220187	0.911854	-0.327372	-0.113438	-3.1842	-3.27601	-7.94202	-0.0057799	0.0582105	-0.00688161	-0.0263672	0.52832	0.974609	-0.0304042	0.0258519	-0.999126	-0.0124201	-0.726966	0.419301	-9.02528	0.00901878	0.0346955	-0.00533146	-0.402832	-0.0568848	1.11914	-0.168709	-0.0197948	-0.977602	-0.124253	-3.1037	2.45224	-8.88342	0.00825101	0.0546775	0.00842188	-0.0795898	-0.324951	1.14014	
41	0.845767	0.094779	-0.497669	0.167393	9.13233	-0.103581	5.16662	0.0214511	0.0826424	-0.0156418	-0.748047	-0.149902	-0.775391	0.507427	-0.0462781	-0.860385	-0.0106384	8.60016	-0.176931	-4.66385	-0.0366081	-0.0110918	-0.0462575	-1.05127	-0.325195	0.264404	0.308063	-0.179598	-0.432145	0.828307	-0.37256	-8.74123	5.95411	-0.0996878	-0.0152155	-0.0880352	-0.236816	0.765137	-0.777344	0.472301	-0.0603715	-0.100199	0.87364	-0.148679	-2.4661	9.64721	-0.00263377	-0.0829407	-0.0582264	-0.0510254	0.0568848	-1.05566	0.703469	0.189357	-0.178683	-0.661323	0.0688245	4.78685	8.56773	0.157378	-0.0123463	-0.0301716	0.0622559	-0.138916	-1.04907	0.767711	0.0330805	0.0141358	-0.639785	-0.898633	1.4427	13.4357	-0.0719851	-0.0133789	-0.0098362	0.0998535	0.335938	-1.03711	-0.0222584	-0.0104929	-0.999376	-0.0253359	-0.433866	0.30647	-9.05264	0.0182871	0.00698762	-0.0161416	-0.183105	-0.300293	1.10986	-0.0428207	-0.125802	-0.947323	0.291408	-1.9226	-5.04866	-6.72	-0.0097942	0.0387716	-0.00464624	-0.161133	0.621338	0.86377	-0.222141	0.911475	-0.327781	-0.11147	-3.14418	-3.11762	-8.05075	0.105565	0.0490622	-0.0149921	-0.03125	0.530518	0.972412	-0.0298106	0.025833	-0.999147	-0.0122241	-0.705152	0.418643	-9.04567	0.00960044	0.0289222	0.00192175	-0.398438	-0.0544434	1.1145	-0.167539	-0.0198366	-0.977745	-0.124705	-3.09102	2.46376	-8.91165	-0.0146148	0.0497201	0.00815382	-0.0861816	-0.327393	1.14014	
42	0.845767	0.094779	-0.497669	0.167393	9.13233	-0.103581	5.16662	0.0214511	0.0826424	-0.0156418	-0.748047	-0.149902	-0.775391	0.50719	-0.0459814	-0.860536	-0.0110407	8.7328	-0.0260291	-4.50692	-0.0249863	-0.00704619	-0.0577929	-1.04907	-0.32959	0.259766	0.308853	-0.178788	-0.431936	0.828297	-0.40493	-8.8455	5.8298	0.0495652	-0.0148161	-0.0777489	-0.240967	0.758789	-0.7771	0.472687	-0.0592163	-0.0999471	0.873539	-0.14612	-2.39284	9.66963	0.0662886	-0.0627454	-0.0381938	-0.057373	0.0524902	-1.05566	0.703528	0.189463	-0.179022	-0.661138	-0.146176	5.40137	8.69398	0.0246916	-0.00132049	0.00402569	0.0688477	-0.138916	-1.05371	0.767332	0.0327277	0.0139728	-0.640262	-1.04932	0.790461	13.3017	-0.0096607	-0.0144539	-0.0642412	0.10376	0.340332	-1.03735	-0.0222584	-0.0104929	-0.999376	-0.0253359	-0.433866	0.30647	-9.05264	0.0182871	0.00698762	-0.0161416	-0.183105	-0.300293	1.10986	-0.0428207	-0.125802	-0.947323	0.291408	-1.9226	-5.04866	-6.72	-0.0097942	0.0387716	-0.00464624	-0.161133	0.621338	0.86377	-0.222141	0.911475	-0.327781	-0.11147	-3.14418	-3.11762	-8.05075	0.105565	0.0490622	-0.0149921	-0.03125	0.530518	0.972412	-0.0298106	0.025833	-0.999147	-0.0122241	-0.705152	0.418643	-9.04567	0.00960044	0.0289222	0.00192175	-0.398438	-0.0544434	1.1145	-0.167539	-0.0198366	-0.977745	-0.124705	-3.09102	2.46376	-8.91165	-0.0146148	0.0497201	0.00815382	-0.0861816	-0.327393	1.14014	
43	0.848818	0.0960769	-0.492644	0.166066	8.89487	-0.0444082	5.11486	0.00641217	0.0897202	-0.0458874	-0.73877	-0.156494	-0.779541	0.508169	-0.046217	-0.859905	-0.0138842	8.5245	-0.28707	-4.54574	-0.00983314	0.0366685	-0.02408	-1.04443	-0.333984	0.26001	0.312385	-0.175171	-0.427978	0.829798	-0.234038	-8.50784	5.91879	0.10323	-0.00703555	-0.052564	-0.245361	0.754395	-0.786133	0.475483	-0.053839	-0.0969344	0.872709	-0.0287667	-2.11244	9.65772	-0.02687	-0.0385973	-0.0567739	-0.059082	0.0393066	-1.05762	0.703881	0.190038	-0.178942	-0.660619	0.184407	5.31697	8.73354	0.0649449	0.0469697	-0.0527196	0.0710449	-0.138916	-1.05371	0.767673	0.0389157	0.00850584	-0.639602	-0.900916	1.56207	13.5203	0.0142415	0.0415133	-0.00144551	0.0981445	0.322998	-1.04321	-0.0224378	-0.010525	-0.999376	-0.0251788	-0.437852	0.297599	-9.06182	0.021365	0.00665862	-0.0150738	-0.185547	-0.298096	1.10767	-0.0384046	-0.125893	-0.947661	0.290887	-1.91233	-5.05594	-6.87158	0.0259954	0.0390028	-0.0214777	-0.172119	0.621582	0.854492	-0.223308	0.911373	-0.327763	-0.110017	-3.10925	-3.02057	-8.08575	0.0253091	-0.019977	-0.034273	-0.0288086	0.530518	0.976807	-0.0285479	0.0255211	-0.99918	-0.013182	-0.699063	0.422698	-9.04613	-0.012304	0.0181956	0.00515104	-0.398438	-0.0588379	1.1123	-0.1667	-0.0199413	-0.978123	-0.122838	-3.14568	2.48043	-8.95344	0.0873363	-0.00357667	-0.0103773	-0.0847168	-0.311768	1.1377	
44	0.849461	0.0961876	-0.491499	0.166113	8.93292	-0.0510048	5.18379	0.0179983	0.0983215	-0.0202939	-0.739014	-0.1521	-0.779541	0.508603	-0.0458753	-0.859661	-0.0142029	8.47127	0.0241632	-4.51674	-0.0153028	0.0389288	-0.0385401	-1.05347	-0.32959	0.259766	0.312711	-0.175495	-0.429905	0.82861	-0.276093	-8.56983	5.91065	-0.129524	0.0106745	-0.0295554	-0.245361	0.754395	-0.786133	0.476536	-0.0535029	-0.0978338	0.872055	0.0188894	-2.45904	9.55866	0.0141922	-0.0121729	-0.0458634	-0.0612793	0.0412598	-1.04883	0.704747	0.187201	-0.175356	-0.661466	0.0686386	5.04658	8.44193	-0.210504	0.0484943	-0.0264655	0.0703125	-0.125488	-1.05591	0.767387	0.0378719	0.0110415	-0.63997	-0.797215	1.42584	13.47	-0.117009	0.0654744	-0.0256856	0.102295	0.327393	-1.04126	-0.0223687	-0.0103962	-0.999381	-0.0250825	-0.442923	0.310762	-9.06532	0.0180604	0.013052	-0.017706	-0.179199	-0.293701	1.10962	-0.0389246	-0.124717	-0.948028	0.290128	-1.88116	-4.91696	-6.86506	-0.0223722	-0.0124643	-0.0310432	-0.171875	0.616943	0.87085	-0.222406	0.911628	-0.327497	-0.110525	-3.15716	-3.08105	-8.07148	-0.0529055	-0.00217234	-0.0218306	-0.0241699	0.530518	0.979004	-0.0278648	0.0255275	-0.999197	-0.0132925	-0.674462	0.458844	-9.06029	0.0338085	0.0274753	-0.00530128	-0.409668	-0.0568848	1.11914	-0.167161	-0.0200594	-0.978084	-0.122499	-3.07718	2.67715	-8.8891	0.0285549	-0.032328	-0.00503479	-0.0866699	-0.316162	1.14453	
45	0.85175	0.0969792	-0.486932	0.167372	8.95775	-0.0627743	5.26366	0.0610719	0.150695	-0.0139882	-0.727539	-0.160645	-0.785889	0.508979	-0.0454872	-0.859451	-0.0146789	8.60709	0.266799	-4.51309	-0.0169852	0.0325019	-0.0494801	-1.04883	-0.336182	0.255371	0.312822	-0.175467	-0.429157	0.828962	-0.236755	-8.36001	5.87004	0.0745818	0.0149959	0.0231213	-0.245361	0.752441	-0.785889	0.476432	-0.0537716	-0.0979732	0.872079	0.0758223	-2.38678	9.63156	-0.0201276	0.0226658	0.0242001	-0.0615234	0.0458984	-1.05542	0.703969	0.18908	-0.17531	-0.661772	-0.224814	4.52723	8.16294	0.196429	0.0510981	-0.0317411	0.072998	-0.136719	-1.05371	0.767845	0.0308291	0.0191329	-0.639608	-0.935503	1.42962	13.3916	-0.575974	0.0936917	-0.00505749	0.107666	0.353271	-1.02905	-0.0223027	-0.010417	-0.99938	-0.0251547	-0.447505	0.314523	-9.05784	0.018847	0.0181964	-0.016735	-0.181152	-0.298096	1.10547	-0.0394044	-0.124678	-0.947744	0.291006	-1.87271	-4.87136	-6.78029	0.0490974	0.00152981	-0.00630284	-0.169678	0.619141	0.861328	-0.222575	0.911636	-0.327212	-0.11096	-3.18941	-3.26561	-8.11035	0.00260419	-0.0194311	-0.0164039	-0.0288086	0.52832	0.979004	-0.0279159	0.0257204	-0.9992	-0.0125954	-0.667145	0.437864	-9.04915	0.0336348	0.00221396	-0.00699609	-0.405029	-0.059082	1.1123	-0.167718	-0.0200172	-0.977829	-0.123773	-3.02207	2.49199	-8.96066	-0.0305539	0.00813816	-0.00495316	-0.0864258	-0.325195	1.14258	
46	0.853938	0.0985317	-0.482629	0.167782	8.87176	0.00247079	5.41855	0.0847426	0.185872	-0.0555284	-0.725098	-0.164795	-0.792236	0.509236	-0.0455496	-0.859283	-0.0153982	8.61287	-0.199524	-4.62892	-0.030219	0.015815	-0.0256602	-1.04663	-0.338379	0.253174	0.312122	-0.17593	-0.42966	0.828867	-0.0634233	-8.57356	6.07444	-0.0267145	0.00072641	0.0264573	-0.243164	0.756592	-0.7771	0.475872	-0.0541314	-0.0974672	0.872419	0.192228	-2.07263	9.70484	-0.010092	0.0171289	0.0278928	-0.0639648	0.0500488	-1.04883	0.702868	0.19121	-0.174305	-0.662596	-0.0382497	5.1268	8.65378	0.0353434	0.0745941	-0.0816328	0.0795898	-0.134521	-1.04907	0.767896	0.0299687	0.0225179	-0.639477	-1.06591	0.45122	13.0063	0.155783	0.0949487	-0.0403619	0.112061	0.353271	-1.02905	-0.0217179	-0.0100612	-0.999408	-0.0247098	-0.43574	0.305322	-9.04728	0.0201234	0.0199807	-0.0156215	-0.189941	-0.295898	1.10767	-0.0394044	-0.124678	-0.947744	0.291006	-1.87271	-4.87136	-6.78029	0.0490974	0.00152981	-0.00630284	-0.169678	0.619141	0.861328	-0.224056	0.911268	-0.327013	-0.111589	-3.0956	-3.0123	-8.05347	0.0230429	-0.036916	-0.0179617	-0.0197754	0.535156	0.974609	-0.0284177	0.0260188	-0.999187	-0.0118273	-0.666635	0.425189	-9.01761	0.0407729	-0.00827416	-0.010738	-0.398438	-0.0544434	1.1145	-0.168226	-0.0196824	-0.977791	-0.123441	-3.09244	2.55826	-8.9517	0.0183327	-0.0300094	-0.0251238	-0.0820312	-0.318359	1.14233	
47	0.856376	0.100295	-0.477828	0.168051	8.80453	0.0820856	5.5908	0.0918168	0.196157	-0.0687359	-0.713867	-0.168945	-0.800781	0.5094	-0.0457628	-0.859163	-0.0160112	8.61231	0.00851391	-4.48817	-0.0287298	0.0227744	-0.0131921	-1.04883	-0.336182	0.257812	0.311063	-0.176083	-0.429558	0.829285	-0.439074	-8.77866	6.00614	-0.00120105	-0.00596109	0.0310645	-0.249756	0.758789	-0.783936	0.475463	-0.0545829	-0.097778	0.87258	0.0895537	-2.16166	9.58228	-0.0349024	0.0215418	0.0361602	-0.0615234	0.0437012	-1.05542	0.702389	0.191839	-0.173119	-0.663233	0.11861	5.01726	8.59573	-0.0107769	0.0627084	-0.0922209	0.0771484	-0.132324	-1.04907	0.767264	0.0319101	0.0228438	-0.64013	-0.965337	1.41982	13.4489	-0.088468	0.0698309	-0.0326646	0.114014	0.353271	-1.03125	-0.0216163	-0.0101105	-0.999408	-0.0247939	-0.430852	0.309481	-9.06205	0.018133	0.020651	-0.0159046	-0.185547	-0.295898	1.10547	-0.0405445	-0.12416	-0.94738	0.292251	-1.80885	-4.96056	-6.7158	0.0343789	-0.0293279	-0.00135985	-0.163574	0.623535	0.86377	-0.223072	0.911451	-0.327003	-0.112094	-3.21104	-3.22882	-8.10682	-0.0815524	-0.0071111	-0.00541773	-0.0239258	0.526123	0.976807	-0.0286234	0.0261581	-0.999184	-0.0113442	-0.693929	0.413842	-9.07146	0.0432669	-0.00463464	-0.00963777	-0.400879	-0.0546875	1.1145	-0.169588	-0.0192644	-0.977517	-0.123809	-3.09072	2.30808	-9.03269	0.00161354	-0.0485186	-0.0296067	-0.0820312	-0.322754	1.13794	
48	0.857421	0.101137	-0.475698	0.168264	8.85077	0.1753	5.68567	0.0848449	0.172666	-0.050675	-0.71582	-0.171143	-0.805176	0.509907	-0.0456579	-0.858873	-0.015719	8.81504	-0.110647	-4.57526	0.0171129	0.0594366	-0.0137175	-1.05737	-0.340576	0.250732	0.31109	-0.176016	-0.428032	0.830079	-0.375462	-9.19548	5.78236	0.135502	0.0300307	0.037247	-0.247559	0.756592	-0.786133	0.475288	-0.0531733	-0.0939894	0.873178	0.00511237	-2.30465	9.90053	0.220714	0.0266348	0.00565614	-0.0610352	0.0371094	-1.05322	0.701819	0.192187	-0.172928	-0.663785	-0.419934	4.78405	8.3724	0.00968696	0.0207913	-0.0823941	0.0817871	-0.134277	-1.05371	0.766719	0.0320909	0.0235223	-0.640749	-1.35798	0.819932	13.0089	-0.0184759	0.0644327	-0.0831525	0.116211	0.355469	-1.03125	-0.0213715	-0.0099447	-0.999418	-0.0246777	-0.433043	0.311449	-9.05478	0.0170197	0.0162529	-0.0161472	-0.179199	-0.295898	1.10767	-0.0406899	-0.124226	-0.947386	0.292184	-1.80942	-5.06253	-6.72597	0.00161845	0.0113677	-0.00672623	-0.169678	0.616943	0.86377	-0.223094	0.911403	-0.326996	-0.112459	-3.10722	-3.46366	-8.09599	0.000385973	-0.0253739	-0.0101212	-0.03125	0.535156	0.974609	-0.029568	0.0264289	-0.999155	-0.0107874	-0.677639	0.383974	-9.04905	0.0231872	-0.0392552	-0.00931405	-0.400635	-0.0566406	1.1123	-0.170226	-0.0190769	-0.977536	-0.122811	-3.08237	2.37645	-9.06597	0.0769103	-0.0440044	-0.0391083	-0.0820312	-0.318359	1.14233	
49	0.859013	0.102647	-0.47219	0.169108	8.70398	0.185579	5.66453	0.0882667	0.122956	-0.021513	-0.70459	-0.175293	-0.807129	0.510744	-0.045544	-0.858388	-0.015389	8.66715	-0.238603	-4.54172	0.00454195	0.0396654	-0.00120167	-1.05322	-0.336182	0.25293	0.311055	-0.174247	-0.421998	0.833547	-0.31166	-8.15912	6.18507	0.269729	-0.0117682	0.0399593	-0.240967	0.741455	-0.803955	0.475752	-0.0523622	-0.0904468	0.873348	-0.411082	-1.96627	9.86883	0.112162	0.0502716	0.0258504	-0.0517578	0.0283203	-1.05298	0.701113	0.191454	-0.171004	-0.66524	-0.102965	4.88425	8.512	-0.144814	0.0197218	-0.11963	0.0793457	-0.127686	-1.05591	0.765505	0.032172	0.024991	-0.642139	-1.12607	1.15904	13.4696	-0.0308676	0.0534613	-0.0835779	0.112061	0.351074	-1.02686	-0.021088	-0.0097575	-0.99943	-0.0244925	-0.417255	0.305488	-9.06199	0.0197565	0.0179391	-0.0164767	-0.189697	-0.298096	1.10767	-0.0417087	-0.124286	-0.947134	0.292833	-1.9828	-4.976	-6.81836	0.0278025	-0.0201184	0.007769	-0.16748	0.617188	0.861572	-0.223638	0.910988	-0.32718	-0.114193	-3.20001	-3.11103	-7.97021	-0.0433096	-0.0351273	0.0112561	-0.0195312	0.52832	0.979248	-0.0309784	0.0266826	-0.999107	-0.0106124	-0.722471	0.379836	-9.05382	0.0105894	-0.0510921	-0.00944975	-0.402832	-0.059082	1.11914	-0.171379	-0.0187573	-0.97735	-0.122735	-3.15904	2.42906	-8.7967	-0.0363121	-0.0374098	-0.0190012	-0.0776367	-0.320557	1.13794	
50	0.859907	0.104262	-0.469915	0.169909	8.54683	0.325912	5.56978	0.0729522	0.0709676	-0.0245382	-0.699951	-0.179688	-0.813477	0.511385	-0.0454719	-0.858019	-0.0148635	8.43883	0.139777	-4.49477	-0.0019622	0.0496055	-0.0201	-1.05298	-0.338379	0.250732	0.310306	-0.176685	-0.423208	0.832699	-0.450551	-8.22103	6.01096	-0.08805	0.0624737	0.0472185	-0.236816	0.752197	-0.797363	0.475253	-0.0541046	-0.0893962	0.873622	-0.0549078	-1.74562	9.44462	0.0354819	0.0814824	-0.00275887	-0.0539551	0.026123	-1.05737	0.701384	0.191676	-0.170765	-0.664951	0.232126	5.14251	8.77406	0.01745	0.0388451	-0.0177764	0.0793457	-0.13208	-1.05811	0.764504	0.0333946	0.0253636	-0.643254	-0.825682	1.13244	13.4028	0.0170766	0.033232	-0.010117	0.111816	0.357666	-1.03149	-0.0210237	-0.00979378	-0.999429	-0.0245806	-0.437992	0.317587	-9.04837	0.0178931	0.0177562	-0.0167293	-0.189941	-0.295898	1.11182	-0.0425597	-0.124436	-0.947159	0.292564	-1.9313	-4.95487	-6.61818	-0.0103149	-0.0190031	0.00851541	-0.165527	0.621582	0.859131	-0.223102	0.910803	-0.327699	-0.115222	-3.34579	-3.07747	-7.86323	0.00344084	-0.0316692	0.0101835	-0.017334	0.532959	0.981201	-0.0318749	0.0267951	-0.999075	-0.0107591	-0.749219	0.398841	-9.04168	0.00444091	-0.0123414	-0.000354039	-0.391846	-0.0544434	1.1167	-0.172917	-0.018623	-0.977197	-0.121816	-3.29377	2.25666	-8.76192	0.0680506	-0.0611058	-0.0261878	-0.0710449	-0.316162	1.1377	
51	0.860264	0.105222	-0.469045	0.169917	8.70876	0.282004	5.6354	0.0370446	0.0282362	-0.0247609	-0.695312	-0.183838	-0.813477	0.511552	-0.0451929	-0.857944	-0.0142878	8.77382	0.217197	-4.54195	0.0195793	0.0189546	-0.0214235	-1.05298	-0.338379	0.248291	0.309796	-0.177852	-0.421979	0.833264	-0.675332	-7.9739	5.9566	0.0715086	0.0666691	0.0399929	-0.232422	0.752197	-0.792969	0.47537	-0.0567414	-0.0907661	0.87325	-0.0448791	-1.88539	9.45521	-0.144726	0.0796334	0.0191221	-0.0522461	0.0349121	-1.05518	0.700743	0.193476	-0.172269	-0.664718	-0.716995	4.76496	8.27355	0.158101	-0.000779976	0.0538683	0.081543	-0.130127	-1.04663	0.76417	0.0350049	0.0244835	-0.643599	-0.927574	1.02069	13.0359	0.140069	0.0223442	-0.0490623	0.116211	0.353271	-1.03125	-0.0207472	-0.00967101	-0.999438	-0.0245005	-0.408213	0.304159	-9.09106	0.017715	0.0138843	-0.0169376	-0.189941	-0.293701	1.10327	-0.0425107	-0.125068	-0.94679	0.293494	-1.99101	-5.15616	-6.8404	0.0938598	0.0372686	0.0182071	-0.161377	0.623535	0.861328	-0.223542	0.910474	-0.328047	-0.115979	-3.24122	-3.02862	-7.89036	0.0129423	-0.022863	0.00326395	-0.017334	0.530762	0.981445	-0.0319713	0.0271166	-0.999066	-0.0105007	-0.749339	0.391574	-9.04745	0.0123269	0.0017829	-0.0117232	-0.391846	-0.0566406	1.1167	-0.173594	-0.0184332	-0.977105	-0.12162	-3.18524	2.50685	-8.66639	-0.0455103	-0.00471638	-0.0061335	-0.0686035	-0.318359	1.14233	
52	0.860841	0.10612	-0.467962	0.16942	8.79833	0.324702	5.66667	0.0105504	0.033531	-0.0373836	-0.702148	-0.181885	-0.813477	0.511172	-0.045236	-0.858175	-0.0138798	8.69493	-0.152197	-4.48734	0.017016	-0.02963	-0.0132079	-1.05957	-0.338379	0.255371	0.309618	-0.179735	-0.423078	0.832369	-0.0358849	-8.63463	6.00684	-0.0591921	0.0358437	0.0232946	-0.230225	0.75415	-0.792969	0.476298	-0.0581481	-0.0903075	0.872699	-0.156257	-1.72032	9.56672	-0.0365458	0.0527909	-0.0537097	-0.0478516	0.0393066	-1.05762	0.70074	0.192254	-0.171101	-0.665376	-0.257736	4.58618	8.21489	-0.0897644	-0.030883	-0.0377718	0.0834961	-0.127686	-1.05591	0.764477	0.0354931	0.0238562	-0.64323	-1.44232	0.6484	13.0348	0.101121	0.00857176	-0.0168433	0.114258	0.348877	-1.0376	-0.0206531	-0.00976691	-0.999434	-0.0246973	-0.419504	0.318278	-9.04764	0.0185875	0.0136866	-0.017112	-0.185303	-0.300293	1.10352	-0.0431135	-0.125392	-0.946733	0.293453	-1.93969	-4.97674	-6.77911	-0.0285509	0.0041636	-0.0110849	-0.156982	0.625732	0.861328	-0.224064	0.910271	-0.328349	-0.115707	-3.19565	-3.01846	-7.89386	0.0393875	0.0109107	-0.00747836	-0.0126953	0.530762	0.976807	-0.0318465	0.0273327	-0.999066	-0.010248	-0.74699	0.389404	-9.01862	0.0198887	0.022517	-0.00246021	-0.39624	-0.0566406	1.1123	-0.173763	-0.0183633	-0.976916	-0.122901	-3.12377	2.24858	-8.80521	-0.0230363	-0.00414802	-0.0020631	-0.0710449	-0.316162	1.14014	
53	0.861682	0.106711	-0.466544	0.168683	8.84593	0.278029	5.69158	0.0169616	0.0574723	-0.0573807	-0.695312	-0.186035	-0.817871	0.510674	-0.0454384	-0.858462	-0.0138002	8.54813	-0.175165	-4.55046	-0.0379271	-0.0166288	-0.00410945	-1.05078	-0.338379	0.253174	0.310261	-0.181113	-0.423453	0.831639	-0.482467	-8.49963	6.08572	-0.0446361	0.0789843	-0.0268285	-0.228271	0.756348	-0.78833	0.4771	-0.0601335	-0.0927274	0.871872	-0.225914	-2.27697	9.38607	-0.0449929	0.0331381	-0.0402054	-0.0437012	0.0458984	-1.05762	0.70078	0.193077	-0.172188	-0.664816	0.0069013	4.88957	8.6994	-0.00579392	0.0139569	-0.0339564	0.0771484	-0.129883	-1.05591	0.76496	0.0366277	0.0217912	-0.642667	-1.38313	1.21546	13.42	0.0244288	-0.0215253	0.030956	0.108154	0.340332	-1.02881	-0.0207071	-0.0098255	-0.999426	-0.0249578	-0.40502	0.31084	-9.05071	0.0140348	0.0091722	-0.016004	-0.1875	-0.300293	1.11182	-0.0429715	-0.125749	-0.946616	0.293698	-1.93269	-5.22357	-6.75277	0.0598902	0.0227765	-0.000693592	-0.159424	0.628174	0.854248	-0.224106	0.910195	-0.328544	-0.115675	-3.2387	-3.09396	-8.02978	0.0141546	0.00629079	-0.00250318	-0.017334	0.532959	0.976807	-0.0314119	0.0275172	-0.999078	-0.00997827	-0.729494	0.371142	-9.07905	0.0130846	0.0203334	-0.00033415	-0.39624	-0.0566406	1.11914	-0.173941	-0.0184898	-0.976889	-0.122844	-3.14752	2.43372	-8.86718	0.00372491	-0.00505686	0.00115052	-0.0666504	-0.313965	1.14453	
54	0.863111	0.106939	-0.464009	0.168221	8.80551	0.235594	5.71586	0.0144442	0.125008	-0.0407693	-0.690918	-0.183838	-0.819824	0.510007	-0.0456761	-0.858844	-0.0139143	8.70141	-0.0117379	-4.52337	-0.0493172	-0.000166139	-0.0143817	-1.05322	-0.336182	0.255371	0.310607	-0.181744	-0.423532	0.831332	-0.440559	-8.60568	6.00466	-0.00116046	0.0271427	-0.0191162	-0.223877	0.75415	-0.797607	0.4778	-0.0603974	-0.0926643	0.871477	-0.035931	-2.14785	9.51573	-0.000895585	0.0329828	-0.0612777	-0.0456543	0.0415039	-1.05762	0.70095	0.19323	-0.172744	-0.664448	0.0444834	5.46098	8.90189	-0.050943	0.0220443	-0.0151843	0.0859375	-0.129883	-1.04907	0.765189	0.0374423	0.0201237	-0.642401	-0.955458	1.26059	13.6502	0.0524309	-0.015875	0.0252904	0.112305	0.342529	-1.03516	-0.0207071	-0.0098255	-0.999426	-0.0249578	-0.40502	0.31084	-9.05071	0.0140348	0.0091722	-0.016004	-0.1875	-0.300293	1.11182	-0.0430096	-0.125999	-0.946412	0.294243	-1.97222	-4.75585	-6.74546	-0.00964457	0.0163774	-0.0058413	-0.156982	0.625732	0.861328	-0.224106	0.910195	-0.328544	-0.115675	-3.2387	-3.09396	-8.02978	0.0141546	0.00629079	-0.00250318	-0.017334	0.532959	0.976807	-0.0314119	0.0275172	-0.999078	-0.00997827	-0.729494	0.371142	-9.07905	0.0130846	0.0203334	-0.00033415	-0.39624	-0.0566406	1.11914	-0.173627	-0.0183718	-0.976832	-0.123755	-3.29969	2.36071	-8.93138	-0.0347418	0.0217032	-0.0104579	-0.0705566	-0.324951	1.14014	
55	0.864544	0.106995	-0.461175	0.168624	8.69045	0.356628	5.75512	0.0127804	0.118104	-0.00137614	-0.684326	-0.185791	-0.822021	0.509316	-0.0461261	-0.859229	-0.0139552	8.65885	0.245491	-4.50588	-0.0126862	-0.0107002	-0.0201616	-1.05078	-0.340576	0.255615	0.311087	-0.182936	-0.424228	0.830536	-0.382654	-8.47069	6.02481	-0.0801504	0.0510236	0.00647273	-0.232422	0.758545	-0.781738	0.478668	-0.0615379	-0.0941272	0.870764	-0.0720334	-2.2362	9.60588	-0.0836208	0.0211942	-0.0381576	-0.0458984	0.0437012	-1.05762	0.701708	0.190985	-0.171284	-0.664675	-0.255116	4.62929	8.5257	-0.00844241	-0.00966724	0.0415665	0.0834961	-0.123291	-1.05127	0.765787	0.0368435	0.0196763	-0.641736	-0.92254	1.06566	13.4656	0.0345128	-0.0252948	0.00970031	0.110596	0.331787	-1.03271	-0.0206102	-0.00968264	-0.999428	-0.0250214	-0.397423	0.32196	-9.04913	0.013436	0.00962241	-0.0171505	-0.189697	-0.300293	1.11182	-0.043752	-0.12591	-0.946626	0.293482	-1.9748	-5.18406	-6.79093	-0.0235499	-0.00429511	-0.00373966	-0.161621	0.630127	0.861084	-0.225813	0.909852	-0.328524	-0.115111	-3.2569	-3.11704	-8.01847	0.0382267	0.00132838	-0.0184126	-0.0151367	0.535156	0.981201	-0.032184	0.0275309	-0.999054	-0.00985021	-0.750634	0.371604	-9.0455	0.00556025	-0.0171273	0.000394266	-0.39209	-0.0500488	1.1189	-0.174336	-0.0183052	-0.97689	-0.122301	-3.26418	2.43205	-8.97691	0.0794116	-0.0368393	-0.0208496	-0.0664062	-0.316162	1.1377	
56	0.865065	0.106835	-0.460116	0.168944	8.53978	0.257913	5.78017	0.00998077	0.0940103	0.00991978	-0.686279	-0.187988	-0.824219	0.508952	-0.0464908	-0.859421	-0.0142385	8.55555	-0.109135	-4.58745	-0.04507	-0.0185775	-0.00691949	-1.05078	-0.338379	0.253174	0.311299	-0.183386	-0.424633	0.83015	-0.44389	-8.75522	5.98131	-0.0424297	0.0398522	-0.0144236	-0.226074	0.75415	-0.795166	0.479509	-0.0623795	-0.0943961	0.870212	-0.252115	-2.26476	9.49666	-0.0235883	0.0313563	-0.0369109	-0.0505371	0.0480957	-1.05542	0.701689	0.191288	-0.17069	-0.66476	0.150599	4.86919	8.74996	-0.0158664	0.0552535	-0.0326153	0.083252	-0.121094	-1.05591	0.765794	0.0385601	0.0178139	-0.641682	-1.03973	1.05038	13.4222	0.202037	-0.0113526	-0.00394035	0.106201	0.335938	-1.0415	-0.0207329	-0.00976098	-0.999419	-0.0252463	-0.399457	0.317022	-9.07049	0.0157243	0.00634839	-0.0161492	-0.19165	-0.30249	1.10986	-0.0436409	-0.126117	-0.946392	0.294164	-1.94043	-5.13574	-6.75685	0.0670845	0.0248884	-0.00302305	-0.163574	0.623779	0.858887	-0.22553	0.909759	-0.328757	-0.115732	-3.31	-3.29398	-8.08276	-0.00814944	-0.0231116	0.00126311	-0.0126953	0.5354	0.972412	-0.0327723	0.0273563	-0.99904	-0.00985414	-0.771648	0.389442	-9.06529	0.0170959	-0.0120413	0.00537132	-0.391846	-0.0566406	1.1167	-0.174336	-0.0183052	-0.97689	-0.122301	-3.26418	2.43205	-8.97691	0.0794116	-0.0368393	-0.0208496	-0.0664062	-0.316162	1.1377	
57	0.8655	0.106509	-0.4588	0.170494	8.64857	0.0890915	5.85541	0.036414	0.0483829	0.0591095	-0.679688	-0.185791	-0.830566	0.508186	-0.0464459	-0.859885	-0.0136921	8.66793	0.161902	-4.5985	0.0107428	-0.0137324	-0.01859	-1.05737	-0.340576	0.257812	0.312073	-0.183608	-0.424047	0.83011	-0.433946	-8.53637	5.84204	0.0100769	0.0277432	-0.0201043	-0.221924	0.758301	-0.792969	0.480225	-0.0625495	-0.0941099	0.869836	-0.204651	-2.20752	9.2615	0.00592329	0.0140964	-0.0342928	-0.0419922	0.0549316	-1.06445	0.702099	0.1916	-0.170779	-0.664215	-0.285085	5.16363	8.53885	0.0311663	0.0178521	0.0322395	0.0859375	-0.129883	-1.05127	0.764788	0.0432997	0.0141335	-0.64267	-0.914958	1.62018	13.4167	0.175477	0.0246241	-0.051159	0.115234	0.327393	-1.04126	-0.0207687	-0.00981159	-0.999414	-0.0253721	-0.42122	0.324305	-9.04489	0.0149546	0.00972952	-0.0159637	-0.189453	-0.304688	1.10767	-0.0436618	-0.126343	-0.946143	0.294862	-2.04648	-5.05069	-6.84812	0.0676571	0.0153257	0.00194861	-0.163574	0.62793	0.858887	-0.226808	0.909209	-0.32934	-0.115897	-3.30656	-3.03689	-8.05382	0.0615135	-0.0109288	0.00232036	-0.00585938	0.5354	0.979004	-0.0340682	0.0274969	-0.998993	-0.00981937	-0.777826	0.366408	-9.04262	0.00107384	-0.0507083	-0.00155509	-0.391846	-0.0522461	1.12134	-0.175342	-0.0182019	-0.976697	-0.122419	-3.26824	2.36751	-8.89692	-0.0449443	-0.000323739	-0.00257051	-0.0617676	-0.320557	1.14014	
58	0.865142	0.107349	-0.458016	0.173857	8.72641	0.109941	5.88789	0.115548	0.0196581	0.112716	-0.688721	-0.185791	-0.826416	0.507288	-0.0467927	-0.860394	-0.0138573	8.71098	-0.107836	-4.62264	-0.0178623	-0.0362413	-0.0136888	-1.05298	-0.338379	0.257812	0.312499	-0.183368	-0.424562	0.829739	-0.449856	-8.32179	5.91476	-0.0167105	-0.00122154	-0.0271928	-0.226074	0.760742	-0.790771	0.480841	-0.0625905	-0.0954358	0.869348	-0.292767	-2.31367	9.53065	-0.0811079	-0.0205468	-0.0247427	-0.0480957	0.0437012	-1.05542	0.702078	0.191427	-0.17089	-0.664259	-0.184984	4.34847	8.37502	0.0585113	-0.0126948	0.00103145	0.0834961	-0.125732	-1.04688	0.765444	0.0420325	0.0151419	-0.64195	-1.16619	0.989344	13.1258	-0.0175545	0.012552	0.00816166	0.115234	0.322998	-1.03906	-0.0206612	-0.00942305	-0.999427	-0.0251161	-0.407689	0.315306	-9.05739	0.015032	0.00728764	-0.0169894	-0.185303	-0.30249	1.10571	-0.044823	-0.126682	-0.946098	0.294687	-1.95931	-5.04318	-6.63284	-0.00497676	-0.00812408	0.00266192	-0.155029	0.625977	0.858887	-0.226058	0.909131	-0.329763	-0.116769	-3.25873	-3.06902	-7.94084	-0.0572606	-0.0240896	0.0107304	-0.0148926	0.530762	0.972412	-0.0340682	0.0274969	-0.998993	-0.00981937	-0.777826	0.366408	-9.04262	0.00107384	-0.0507083	-0.00155509	-0.391846	-0.0522461	1.12134	-0.176136	-0.018214	-0.976766	-0.120719	-3.29117	2.33789	-8.83483	0.109856	-0.0441837	-0.0248606	-0.0666504	-0.313965	1.1377	
59	0.864216	0.108955	-0.457505	0.178742	8.66549	0.0689518	5.81917	0.16659	-0.00106058	0.150692	-0.683838	-0.192383	-0.822021	0.50664	-0.0469809	-0.860763	-0.0139594	8.61999	-0.299307	-4.63226	-0.0179076	-0.0179507	-0.0124436	-1.05713	-0.342529	0.260254	0.312625	-0.183724	-0.426604	0.828565	-0.396594	-8.98632	5.92234	-0.063311	0.000347786	-0.0378352	-0.228271	0.762939	-0.79541	0.481059	-0.0624362	-0.0964194	0.86913	-0.252536	-2.33125	9.62156	-0.00261684	-0.0220894	-0.0227533	-0.0441895	0.0568848	-1.05786	0.701783	0.193764	-0.173153	-0.663306	0.0441935	5.22384	8.58323	0.0607608	0.00369563	-0.0200055	0.0859375	-0.13208	-1.05371	0.765673	0.042167	0.0145764	-0.641681	-1.11992	1.38193	13.4339	-0.030731	0.00226819	0.00333082	0.113037	0.327393	-1.04346	-0.0206001	-0.00924966	-0.999432	-0.0250115	-0.402936	0.315875	-9.06156	0.0166709	0.00896747	-0.0164183	-0.185547	-0.295898	1.10962	-0.0449271	-0.126768	-0.945989	0.294986	-1.98841	-5.15336	-6.79391	0.0164255	0.00510404	-0.00359775	-0.159424	0.62793	0.863525	-0.226192	0.90893	-0.329867	-0.117775	-3.29963	-3.13798	-7.96552	0.0274691	-0.0334778	-0.00564101	-0.00561523	0.533203	0.976807	-0.0354301	0.0272832	-0.998939	-0.0110051	-0.822553	0.402072	-9.05373	0.00383081	-0.0122475	-0.00351639	-0.386963	-0.0610352	1.12598	-0.177475	-0.0183342	-0.976606	-0.120027	-3.25601	2.47229	-8.76621	-0.0152444	-0.0405037	-0.00474032	-0.0646973	-0.307373	1.13989	
60	0.863131	0.110612	-0.456811	0.184645	8.917	0.23777	5.94588	0.168316	0.035742	0.179733	-0.684082	-0.187988	-0.826416	0.506461	-0.0469216	-0.860873	-0.013893	8.58014	-0.0376605	-4.71123	-0.0228263	0.0186199	-0.0212352	-1.05078	-0.340332	0.267334	0.312579	-0.183382	-0.426446	0.828739	-0.341722	-8.66065	5.98533	0.0289269	-0.0168204	-0.00181035	-0.232666	0.762939	-0.790771	0.481129	-0.0625569	-0.097687	0.868941	-0.297131	-2.37298	9.8992	-0.0315297	-0.00766881	0.00137001	-0.041748	0.050293	-1.05786	0.702013	0.193135	-0.173243	-0.663222	-0.10508	5.01766	8.49705	-0.0267837	-0.000194316	-0.00904021	0.0795898	-0.134277	-1.05127	0.76563	0.0428018	0.0139583	-0.641703	-1.00325	1.46066	13.3683	0.0254007	0.0149871	-0.00610248	0.111084	0.322998	-1.03687	-0.0205222	-0.0090753	-0.999437	-0.024924	-0.415806	0.319972	-9.06756	0.0157651	0.00966608	-0.0165458	-0.1875	-0.30249	1.10767	-0.0456921	-0.127081	-0.945694	0.295679	-1.957	-4.73523	-6.59921	0.0114246	-0.00134408	0.00517423	-0.156982	0.625977	0.856689	-0.226569	0.908741	-0.330059	-0.117973	-3.30856	-3.02508	-7.85164	0.00852498	-0.00907332	-0.00968698	-0.00805664	0.533203	0.972412	-0.0367748	0.0272657	-0.998882	-0.0118112	-0.833203	0.411611	-9.04376	-0.0302242	-0.0509412	0.0102895	-0.382812	-0.0566406	1.12134	-0.177648	-0.0184423	-0.976445	-0.121065	-3.25844	2.20102	-8.765	-0.0275732	0.00563439	0.00585361	-0.0664062	-0.318359	1.14014	
61	0.863451	0.110035	-0.454348	0.189507	8.86641	0.462862	5.96116	0.0447865	0.142114	0.155857	-0.681885	-0.187988	-0.832764	0.50564	-0.046957	-0.861359	-0.0135635	8.58872	0.0534007	-4.64649	0.02174	-0.0182076	-0.0104441	-1.05518	-0.338135	0.267334	0.312639	-0.184541	-0.425737	0.828824	-0.285472	-8.66521	6.06463	0.0383528	0.0360701	0.0612003	-0.230469	0.762939	-0.793213	0.48164	-0.062814	-0.0960656	0.86882	-0.192793	-2.1174	10.0026	0.0178043	0.0625032	-0.00914456	-0.0441895	0.0546875	-1.05786	0.70127	0.19511	-0.175319	-0.662884	-0.00614396	5.0333	8.68119	0.158526	0.00879451	-0.0164163	0.0817871	-0.138916	-1.04907	0.765579	0.0434555	0.0129399	-0.641742	-0.896017	1.39739	13.491	0.0709674	-0.00665602	-0.0224324	0.108887	0.325195	-1.04126	-0.0203495	-0.00888879	-0.999445	-0.0248463	-0.409579	0.320774	-9.06299	0.0155914	0.0134308	-0.0170154	-0.181152	-0.298096	1.11182	-0.0457573	-0.12691	-0.945881	0.295144	-1.95613	-5.12862	-6.58823	-0.0377442	0.0165437	-0.0272843	-0.163574	0.623779	0.854248	-0.226146	0.908752	-0.3301	-0.118581	-3.34545	-3.113	-7.90702	-0.0227706	-0.00974158	-0.00870689	-0.00805664	0.530762	0.976807	-0.0374757	0.0271356	-0.998854	-0.0122677	-0.862765	0.434666	-9.01156	0.00138316	0.00340671	0.00565262	-0.38501	-0.0566406	1.12354	-0.177999	-0.0186986	-0.976541	-0.119731	-3.27917	2.54115	-8.73978	0.0491943	-0.0210289	-0.00616345	-0.0600586	-0.304932	1.14673	
62	0.864841	0.107731	-0.451324	0.191703	8.51425	0.0909504	5.9812	-0.0295272	0.147203	0.0660731	-0.679932	-0.183594	-0.830566	0.505253	-0.0469683	-0.861589	-0.013328	8.63623	-0.156093	-4.62024	0.00474339	0.00879085	-0.0165748	-1.04883	-0.335938	0.264893	0.312129	-0.185983	-0.425024	0.82906	-0.453488	-8.56316	6.04609	-0.00912579	0.0563162	0.051295	-0.226074	0.762695	-0.786377	0.481864	-0.0644074	-0.0945976	0.868741	-0.129916	-2.24202	9.63174	0.0586467	0.0975304	-0.00377745	-0.0373535	0.050293	-1.05566	0.701021	0.195235	-0.175617	-0.663031	0.0285251	5.22148	8.65702	0.0239873	-0.00826642	-0.0320659	0.0817871	-0.134521	-1.04907	0.765213	0.0424646	0.0135291	-0.642232	-1.02505	0.956097	13.3168	-0.0384632	0.0147438	-0.0526828	0.113281	0.322998	-1.03467	-0.0203281	-0.00892028	-0.999442	-0.0249456	-0.412616	0.32733	-9.05327	0.0169421	0.0147522	-0.0156804	-0.189697	-0.298096	1.10547	-0.0455902	-0.127071	-0.945671	0.295771	-1.95098	-4.95045	-6.59387	0.0015011	0.0258817	-0.0122589	-0.155029	0.62793	0.858887	-0.227597	0.908512	-0.33006	-0.117752	-3.24145	-2.98831	-7.75138	0.0856324	0.0165734	-0.0355416	-0.0129395	0.537598	0.979004	-0.0374924	0.0271741	-0.998857	-0.0118377	-0.852141	0.404324	-9.04671	0.0173671	-0.0021913	0.000159307	-0.380371	-0.0585938	1.12378	-0.178492	-0.0185631	-0.976363	-0.12046	-3.25591	2.32839	-8.80612	-0.0276144	-0.00385553	-0.0112969	-0.064209	-0.313965	1.14233	
63	0.866046	0.106606	-0.449092	0.192134	8.48665	0.0816481	6.03672	-0.0159908	0.0929918	0.0065347	-0.671143	-0.178955	-0.839355	0.50488	-0.0471703	-0.861798	-0.0132717	8.58682	-0.0338593	-4.65796	-0.0241128	-0.00987998	-0.00570226	-1.05298	-0.338379	0.262451	0.311125	-0.187585	-0.425524	0.82882	-0.418465	-8.48934	5.91124	-0.0564134	0.0444526	0.0383724	-0.221924	0.764893	-0.786377	0.481725	-0.065701	-0.0948941	0.868688	-0.254257	-2.01816	9.43957	-0.0674878	0.0829016	0.0163394	-0.0373535	0.0527344	-1.06226	0.701223	0.193799	-0.174504	-0.663534	-0.0138784	4.52095	8.49299	0.0793068	0.0132325	-0.0379617	0.0795898	-0.136719	-1.04907	0.765312	0.0444605	0.0120309	-0.642009	-1.10525	1.50399	13.3232	0.0656793	0.015882	0.0211128	0.108887	0.320801	-1.03882	-0.0202147	-0.00875737	-0.999449	-0.0248379	-0.410879	0.326577	-9.06162	0.0167364	0.0109648	-0.0162961	-0.185547	-0.298096	1.10767	-0.0455418	-0.126872	-0.945778	0.295524	-2.00354	-4.99063	-6.63531	-0.0129595	0.0212218	-0.0324853	-0.155273	0.632324	0.854248	-0.227693	0.908535	-0.330024	-0.117492	-3.33244	-2.97331	-7.81358	0.0196379	0.0171766	-0.0279083	-0.010498	0.5354	0.974609	-0.037863	0.027219	-0.998844	-0.0116986	-0.850841	0.414106	-9.06332	0.0163576	-0.019149	-0.00126854	-0.382812	-0.0585938	1.12378	-0.17803	-0.0183928	-0.976525	-0.119861	-3.34913	2.43594	-8.82722	0.0247287	0.0228623	-0.0102858	-0.0595703	-0.318359	1.14014	
64	0.866461	0.106064	-0.448395	0.192193	8.48361	0.0513431	6.09348	-0.0285355	0.0687283	0.00912869	-0.669189	-0.176758	-0.839355	0.504622	-0.0472563	-0.861944	-0.013279	8.6416	0.0615678	-4.63738	-0.0132751	-0.0100235	-0.0155343	-1.05518	-0.335938	0.269531	0.311025	-0.188286	-0.42563	0.828644	-0.510867	-8.53644	5.74351	-0.0268323	0.0497385	0.0245498	-0.215576	0.766846	-0.793213	0.481806	-0.067416	-0.0951206	0.868487	-0.310978	-2.17627	9.2431	-0.0040095	0.0595328	-0.00827517	-0.0310059	0.0571289	-1.05566	0.7007	0.19577	-0.176373	-0.663013	-0.160903	4.77409	8.44859	0.224372	0.00831701	-0.0105957	0.0778809	-0.145508	-1.04663	0.765396	0.0440919	0.0121944	-0.641931	-1.10822	1.4234	13.2059	-0.0285781	0.00566463	-0.00732413	0.111084	0.320801	-1.04541	-0.0201578	-0.0085627	-0.999455	-0.024694	-0.4136	0.323459	-9.06881	0.0181131	0.00882566	-0.0173253	-0.189697	-0.298096	1.11401	-0.0455418	-0.126872	-0.945778	0.295524	-2.00354	-4.99063	-6.63531	-0.0129595	0.0212218	-0.0324853	-0.155273	0.632324	0.854248	-0.227283	0.908664	-0.329936	-0.117532	-3.29058	-3.14099	-8.07362	-0.0047185	0.00197391	-0.0195107	-0.0102539	0.533203	0.972412	-0.0380713	0.0272888	-0.998839	-0.0112296	-0.865995	0.41858	-9.02268	0.0211551	-0.00286258	-0.00211841	-0.378662	-0.052002	1.1189	-0.178031	-0.0182727	-0.976473	-0.120301	-3.35389	2.45418	-8.79722	-0.034016	0.00635328	-0.00731332	-0.0598145	-0.316162	1.14233	
65	0.866675	0.10596	-0.448082	0.192014	8.45897	-0.0738455	6.04679	0.011135	-0.0067182	-0.0193727	-0.670898	-0.185547	-0.843506	0.504397	-0.0471492	-0.862078	-0.0135146	8.5798	-0.046293	-4.67693	-0.010554	-0.00309829	-0.0189885	-1.05273	-0.342529	0.267334	0.311038	-0.188614	-0.425228	0.828771	-0.359499	-8.48386	5.99894	0.0141482	0.0105788	-0.000144851	-0.217773	0.76709	-0.793213	0.482407	-0.0680417	-0.0952507	0.868091	-0.235804	-2.3481	9.18596	-0.0157565	0.0113854	-0.0272636	-0.0375977	0.0593262	-1.06445	0.700912	0.195081	-0.176317	-0.663007	-0.0986964	5.34773	8.51859	-0.155565	-0.0197445	-0.0197438	0.0795898	-0.138672	-1.05127	0.765232	0.0440945	0.0113242	-0.642143	-1.09235	1.32351	13.3418	0.0123324	-0.0133562	-0.0160568	0.106934	0.318604	-1.03882	-0.0203092	-0.00863231	-0.999447	-0.0248727	-0.40857	0.332486	-9.04501	0.0183845	0.00656412	-0.016428	-0.189697	-0.298096	1.10767	-0.0448096	-0.126183	-0.94599	0.295249	-2.08392	-5.18463	-6.85997	0.035896	-0.015544	-0.0177099	-0.161621	0.62793	0.858887	-0.227493	0.908718	-0.329908	-0.116787	-3.35221	-3.25221	-8.1375	0.053082	0.0279719	-0.0294314	-0.0107422	0.540039	0.972412	-0.0376966	0.0278587	-0.998849	-0.0101497	-0.881187	0.359566	-9.03723	0.0419426	0.0197313	-0.0209934	-0.378662	-0.052002	1.1189	-0.178301	-0.0181288	-0.976186	-0.122233	-3.33339	2.30175	-8.91774	-0.0941535	-0.00169264	0.00865958	-0.0595703	-0.320557	1.14014	
66	0.86641	0.107172	-0.448435	0.191712	8.55233	0.0129453	6.04526	0.0422639	-0.0337373	-0.0348651	-0.67334	-0.181152	-0.843506	0.504026	-0.0471903	-0.862297	-0.0132289	8.58907	0.0529947	-4.63849	-0.00818699	-0.00533535	-0.00836444	-1.05298	-0.340332	0.267334	0.311172	-0.188103	-0.425695	0.828597	-0.473904	-8.63748	5.83003	0.00415213	-0.0230075	-0.0261626	-0.213379	0.766846	-0.791016	0.482296	-0.066755	-0.0943869	0.868347	-0.269323	-2.36474	9.20188	0.117194	-0.0305054	0.0130667	-0.0305176	0.0505371	-1.05322	0.701481	0.193477	-0.175793	-0.663014	-0.135345	4.75449	8.55486	0.00892389	0.00209854	0.0111168	0.0751953	-0.136719	-1.05127	0.765347	0.0442486	0.0106581	-0.642006	-1.03474	1.20215	13.4413	0.0474524	0.000610438	0.00178525	0.108887	0.320801	-1.04102	-0.0204188	-0.00870048	-0.999441	-0.0250208	-0.418107	0.320324	-9.05596	0.0188165	0.00732184	-0.0167197	-0.1875	-0.300293	1.10986	-0.0452732	-0.126055	-0.946073	0.294968	-1.92875	-4.96257	-6.61738	-0.0123701	0.00699995	-0.0255761	-0.152832	0.628174	0.854248	-0.228175	0.908611	-0.329708	-0.116854	-3.31433	-3.03071	-8.03691	-0.00300733	-0.0268848	-0.0246202	-0.00805664	0.5354	0.972412	-0.0376637	0.0278633	-0.998846	-0.0105616	-0.861627	0.369636	-9.00204	-0.0248438	0.00923156	0.00992121	-0.380615	-0.0563965	1.12598	-0.178101	-0.018094	-0.976206	-0.122374	-3.35028	2.12411	-8.97751	-0.00881275	0.0218737	-0.00336579	-0.057373	-0.318115	1.14233	
67	0.866244	0.108909	-0.4485	0.191331	8.59053	0.207937	6.01784	0.051788	-0.0157937	-0.0442975	-0.670898	-0.185547	-0.841309	0.503912	-0.0474819	-0.862345	-0.0134253	8.56256	-0.050465	-4.62475	-0.0341634	0.0043796	-0.00842381	-1.04639	-0.338379	0.260254	0.311452	-0.185779	-0.424203	0.82978	-0.330579	-8.4108	6.01514	0.106232	-0.0669505	-0.0232906	-0.226318	0.764893	-0.79541	0.482348	-0.0645534	-0.0936187	0.868567	-0.173048	-1.8988	9.24001	0.0309286	-0.0740538	-0.0146757	-0.0373535	0.0505371	-1.06445	0.700993	0.196567	-0.178463	-0.661907	0.0494037	5.0249	8.58512	0.191748	0.028208	-0.000427667	0.0756836	-0.145264	-1.05591	0.765322	0.0446895	0.0101282	-0.642014	-0.935192	1.58965	13.4861	-0.00115068	0.01556	-0.0302495	0.107178	0.314209	-1.04517	-0.0205643	-0.00876356	-0.999432	-0.025234	-0.412753	0.328821	-9.04634	0.0165759	0.00626105	-0.0162712	-0.187744	-0.298096	1.10547	-0.0452606	-0.125529	-0.945949	0.295591	-2.06021	-5.11417	-6.88608	0.0282517	0.000488127	-0.0289129	-0.159424	0.630127	0.856445	-0.227779	0.908719	-0.329276	-0.117998	-3.30498	-3.14409	-8.07182	-0.0194141	-0.0330066	-0.028505	-0.00341797	0.533203	0.974609	-0.0376068	0.0278297	-0.998847	-0.0107499	-0.860308	0.40459	-9.06443	0.00604978	0.0158778	0.0017262	-0.382568	-0.0629883	1.12378	-0.17805	-0.0182973	-0.976324	-0.121469	-3.29816	2.40083	-8.92185	0.0383816	0.00404165	-0.000790945	-0.0644531	-0.311768	1.14233	
68	0.866481	0.110044	-0.448156	0.19041	8.56821	0.282159	6.04759	0.015183	0.00288952	-0.0704022	-0.668457	-0.189697	-0.847656	0.503678	-0.0477789	-0.862454	-0.0141382	8.57344	0.0400567	-4.55715	-0.0520822	0.0145523	-0.0208701	-1.05298	-0.340332	0.276611	0.312144	-0.183439	-0.423546	0.830376	-0.475257	-8.38555	5.89325	0.077403	-0.0373049	-0.0627312	-0.224121	0.764893	-0.793213	0.482832	-0.0615019	-0.0933571	0.868548	-0.464818	-1.64242	9.72585	0.0536591	-0.0899627	-0.0178952	-0.0478516	0.0393066	-1.05981	0.702518	0.195208	-0.177493	-0.660953	-0.0662985	5.20535	8.60552	-0.1673	0.0275273	0.0741734	0.0800781	-0.145508	-1.05127	0.763433	0.0472764	0.00869732	-0.644096	-1.04781	0.919157	13.4444	0.22752	0.0411004	-0.142453	0.106934	0.318604	-1.04321	-0.0207267	-0.00881399	-0.999422	-0.0254567	-0.414605	0.331523	-9.06271	0.0171908	0.00576503	-0.0183065	-0.1875	-0.300293	1.10352	-0.045884	-0.125254	-0.946056	0.295269	-2.046	-4.92915	-6.74885	-0.0258368	-0.0310038	-0.0222401	-0.155273	0.632324	0.856445	-0.228124	0.908787	-0.328865	-0.117951	-3.30721	-3.07998	-7.89118	0.0218881	-0.00188326	-0.0359094	-0.010498	0.537598	0.974609	-0.0382511	0.0278389	-0.998818	-0.0111947	-0.854064	0.39461	-9.05503	-0.0264082	-0.0367428	0.00916308	-0.380615	-0.0541992	1.12354	-0.178674	-0.0184531	-0.976118	-0.122181	-3.30827	2.43728	-8.9507	-0.0273436	-0.0234141	0.00568329	-0.0549316	-0.320312	1.14233	
69	0.866895	0.110462	-0.448154	0.188279	8.60459	0.275211	6.06954	-0.0461378	-0.00997132	-0.0817136	-0.668457	-0.192139	-0.836914	0.503186	-0.0483626	-0.862695	-0.0149359	8.52029	-0.0910857	-4.69395	-0.0353925	-0.00497626	-0.0253399	-1.04858	-0.340332	0.269775	0.31356	-0.183353	-0.425089	0.829073	-0.423914	-8.52402	6.09013	-0.126932	0.0265905	-0.0494483	-0.232666	0.767334	-0.791016	0.484067	-0.0616929	-0.0966282	0.867488	-0.19791	-1.82579	10.0376	-0.170039	-0.027906	-0.105722	-0.0463867	0.0524902	-1.06226	0.70345	0.194683	-0.17624	-0.660451	-0.0442006	4.93301	8.2832	0.0379615	0.0413907	0.00463273	0.0795898	-0.136719	-1.04907	0.762024	0.0540413	0.00431604	-0.645275	-1.00181	1.97493	13.5552	0.211414	0.0572945	-0.028423	0.112305	0.292725	-1.04663	-0.0208627	-0.0088878	-0.999413	-0.0256603	-0.414004	0.328624	-9.07113	0.0175426	0.00755809	-0.0160283	-0.185303	-0.300293	1.10986	-0.0467372	-0.124655	-0.945984	0.29562	-1.96185	-5.08061	-6.68493	0.0128194	-0.0317644	-0.0211999	-0.152832	0.628174	0.856445	-0.227475	0.909012	-0.328325	-0.118972	-3.26167	-3.0965	-7.93423	-0.053796	-0.0393205	-0.0244199	-0.00805664	0.533203	0.972412	-0.0401862	0.0276816	-0.998742	-0.0115451	-0.900599	0.423873	-8.98636	0.000680076	-0.0571177	0.00445912	-0.375977	-0.0585938	1.12598	-0.179262	-0.0188699	-0.975864	-0.123283	-3.35873	2.45543	-8.70191	-0.0475797	-0.0244039	0.00839805	-0.057373	-0.320557	1.1355	
70	0.867406	0.109477	-0.448277	0.186197	8.51867	0.100447	6.06577	-0.0748665	0.00224139	-0.0590929	-0.674805	-0.194336	-0.836914	0.502411	-0.048187	-0.863151	-0.0152029	8.66563	-0.0699931	-4.71593	-0.0247269	-0.0216123	-0.0259778	-1.05493	-0.342529	0.267334	0.314161	-0.185398	-0.428988	0.826377	-0.314037	-8.7856	6.24146	-0.177004	0.0815698	-0.0579709	-0.228516	0.769287	-0.78418	0.486058	-0.0635772	-0.100388	0.865811	-0.0282875	-2.56401	9.83369	-0.0982595	0.0177146	-0.0627199	-0.0444336	0.059082	-1.05786	0.702625	0.199352	-0.179399	-0.659084	-0.0219535	4.83707	8.60382	0.259383	0.0503618	0.0026208	0.0825195	-0.1521	-1.04224	0.762427	0.0550996	0.00470878	-0.644707	-1.00476	1.66509	13.1982	0.0771861	0.0519355	-0.0089556	0.114258	0.296875	-1.04688	-0.0209694	-0.00890725	-0.999408	-0.0257678	-0.413844	0.338052	-9.07432	0.016318	0.00429039	-0.0177043	-0.189453	-0.304688	1.11206	-0.0465797	-0.123756	-0.946025	0.295891	-2.00293	-5.095	-6.73441	0.0130242	0.00363389	-0.0448702	-0.152832	0.62793	0.863525	-0.227211	0.909144	-0.327899	-0.119648	-3.38233	-3.32785	-7.92055	0.0227696	-0.011969	-0.027726	-0.0012207	0.537842	0.968018	-0.0408347	0.0275929	-0.998716	-0.0117112	-0.920125	0.417222	-9.04918	-0.00895301	-0.020079	0.0144706	-0.369141	-0.0629883	1.11914	-0.180143	-0.0190543	-0.975773	-0.122689	-3.31483	2.40025	-8.73868	0.0447885	-0.025274	-0.00925693	-0.057373	-0.315918	1.14014	
71	0.867509	0.109364	-0.448939	0.184179	8.62428	0.251693	6.11179	-0.0454531	-0.0421263	-0.065661	-0.670654	-0.192139	-0.841309	0.501643	-0.0484094	-0.863585	-0.0152311	8.5935	-0.0706566	-4.72137	-0.00393718	-0.0217136	-0.0185774	-1.05298	-0.338135	0.279053	0.315467	-0.186124	-0.427025	0.826733	-0.482978	-8.85497	5.69709	0.14309	0.0529819	0.00553667	-0.234863	0.769531	-0.791016	0.487628	-0.0641591	-0.0997297	0.864961	-0.286522	-2.32025	9.95022	-0.0291737	0.0524536	-0.0720059	-0.0490723	0.0634766	-1.0603	0.703226	0.198573	-0.178133	-0.659023	-0.221913	5.79578	8.58797	-0.188239	-0.0061044	-3.8943e-06	0.0844727	-0.147705	-1.04443	0.762283	0.0543661	0.0059341	-0.64493	-1.22143	1.33523	13.1036	-0.0614459	0.0244957	-0.0214586	0.112061	0.299072	-1.04688	-0.0211249	-0.00875298	-0.99941	-0.0256116	-0.411372	0.324132	-9.07494	0.0226945	0.00489221	-0.0174785	-0.1875	-0.30249	1.10767	-0.0468308	-0.123237	-0.945957	0.296285	-2.00171	-5.10684	-6.64864	0.0118462	-0.00536508	-0.0167862	-0.154785	0.623779	0.856689	-0.2271	0.9092	-0.327771	-0.119779	-3.29729	-3.09545	-7.75103	-0.027198	-0.00753383	-0.0203169	-0.00561523	0.533203	0.979248	-0.0418757	0.0274369	-0.998674	-0.0119687	-0.922863	0.418122	-9.01891	0.00265302	-0.0233549	0.00637075	-0.375977	-0.0585938	1.12817	-0.180195	-0.0190976	-0.975878	-0.121765	-3.30714	2.50069	-8.67412	0.0318968	0.0122861	-0.0099457	-0.0529785	-0.315918	1.14014	
72	0.867447	0.109074	-0.449563	0.183116	8.64729	0.220044	6.11317	-0.0676948	-0.0539194	-0.0589634	-0.675293	-0.187744	-0.841309	0.501209	-0.0483502	-0.863843	-0.0150883	8.62493	-0.025228	-4.78513	0.00240384	-0.0270735	-0.0202018	-1.05493	-0.342529	0.274414	0.315561	-0.186905	-0.426908	0.826582	-0.537212	-8.31051	5.92111	-0.0106265	0.067076	0.01867	-0.226318	0.769287	-0.788818	0.488238	-0.0654537	-0.100683	0.864409	-0.258685	-2.72944	9.59081	-0.113273	0.0660923	-0.0585473	-0.0422363	0.0634766	-1.0603	0.704095	0.196003	-0.176323	-0.65935	-0.00383013	4.77478	8.26616	-0.259029	-0.0189036	0.0216684	0.0795898	-0.138916	-1.04663	0.762386	0.0550721	0.00522721	-0.644753	-0.986575	1.57043	13.2288	0.0817786	0.00821871	0.0038067	0.10791	0.292725	-1.04443	-0.0211249	-0.00875298	-0.99941	-0.0256116	-0.411372	0.324132	-9.07494	0.0226945	0.00489221	-0.0174785	-0.1875	-0.30249	1.10767	-0.0468402	-0.123091	-0.946053	0.296039	-2.00122	-5.01854	-6.61631	-0.0130105	0.0179997	-0.0269442	-0.148438	0.628174	0.858887	-0.226673	0.909286	-0.3277	-0.120132	-3.34401	-3.24181	-7.82868	-0.0356495	-0.0131688	-0.0155535	-0.00341797	0.5354	0.974609	-0.0420922	0.0274746	-0.998665	-0.0119046	-0.946585	0.428609	-8.9963	0.00994768	-0.00756709	-0.000752308	-0.371582	-0.060791	1.12378	-0.180097	-0.019001	-0.975902	-0.121738	-3.38346	2.49855	-8.68718	0.00302433	0.0145199	-0.0118911	-0.057373	-0.318115	1.13794	
73	0.866685	0.108947	-0.451705	0.181519	8.6769	0.130681	5.96354	-0.0339638	-0.113012	-0.0313905	-0.670654	-0.192139	-0.834717	0.500856	-0.0481936	-0.864065	-0.014563	8.64454	0.0298042	-4.76504	0.0150127	-0.00640365	-0.0236358	-1.05273	-0.342529	0.276855	0.315561	-0.186905	-0.426908	0.826582	-0.537212	-8.31051	5.92111	-0.0106265	0.067076	0.01867	-0.226318	0.769287	-0.788818	0.488716	-0.066498	-0.0996239	0.864181	-0.204978	-2.7979	9.4153	0.0399425	0.0602353	-0.000568657	-0.0422363	0.0612793	-1.05786	0.703325	0.199438	-0.179629	-0.658249	-0.198411	5.28686	8.36838	0.292558	0.00396599	0.00752965	0.0825195	-0.151855	-1.05347	0.762841	0.0544488	0.00515355	-0.644269	-1.13379	1.67599	13.1063	-0.0162987	-0.00927565	-0.00302592	0.116455	0.296875	-1.05103	-0.0211249	-0.00875298	-0.99941	-0.0256116	-0.411372	0.324132	-9.07494	0.0226945	0.00489221	-0.0174785	-0.1875	-0.30249	1.10767	-0.0468402	-0.123091	-0.946053	0.296039	-2.00122	-5.01854	-6.61631	-0.0130105	0.0179997	-0.0269442	-0.148438	0.628174	0.858887	-0.226861	0.909248	-0.3278	-0.119788	-3.36787	-3.17477	-7.81927	0.0155299	0.0117895	-0.0089428	-0.00317383	0.528564	0.981445	-0.0415526	0.0277234	-0.998691	-0.011026	-0.941154	0.406945	-9.0185	0.0364319	0.0275908	-0.00952185	-0.376221	-0.0563965	1.11914	-0.180097	-0.019001	-0.975902	-0.121738	-3.38346	2.49855	-8.68718	0.00302433	0.0145199	-0.0118911	-0.057373	-0.318115	1.13794	
74	0.865446	0.108986	-0.454137	0.181342	8.84876	0.105508	5.83625	-0.00183381	-0.101022	0.0234431	-0.679688	-0.187988	-0.830566	0.501143	-0.0482429	-0.863901	-0.0142468	8.63538	-0.16153	-4.90617	0.00531927	0.037362	-0.00801297	-1.05298	-0.335938	0.28125	0.315366	-0.188617	-0.425815	0.826831	-0.509856	-8.39229	5.86444	0.111822	0.0085788	0.0229721	-0.226318	0.773682	-0.788818	0.488502	-0.0673062	-0.0997301	0.864228	-0.2259	-2.60599	9.35278	-0.0167168	0.0246902	0.0173622	-0.0378418	0.0637207	-1.0603	0.703305	0.197892	-0.17933	-0.658818	-0.0393316	5.35036	8.48506	-0.19844	-0.0520481	-0.030368	0.0800781	-0.147705	-1.05127	0.762846	0.0544931	0.00417982	-0.644266	-1.07186	1.96017	13.2042	0.0554965	-0.0433857	-0.0117173	0.112061	0.294922	-1.04663	-0.0209336	-0.00818839	-0.999437	-0.0249025	-0.426719	0.331679	-9.04878	0.0205837	0.00776037	-0.0168306	-0.1875	-0.300293	1.10547	-0.0456484	-0.12344	-0.94615	0.29577	-1.95416	-5.04055	-6.61105	0.00169183	0.0619492	-0.0207882	-0.156982	0.625732	0.861328	-0.226326	0.90925	-0.32831	-0.119388	-3.38309	-3.1513	-7.80508	-0.00509696	0.0205143	0.00374403	-0.00585938	0.5354	0.976807	-0.0406181	0.0278338	-0.998733	-0.0103782	-0.919072	0.376038	-9.04275	0.026328	0.0522898	0.000701884	-0.371582	-0.0585938	1.12378	-0.179765	-0.0187716	-0.976104	-0.120633	-3.40637	2.22217	-8.97316	0.0348276	0.00405712	-0.00318242	-0.0554199	-0.313721	1.14014	
75	0.864125	0.108531	-0.456358	0.182336	8.9238	0.511159	5.75585	-0.0260792	-0.0956127	0.0730521	-0.681885	-0.187988	-0.832764	0.501084	-0.047982	-0.863962	-0.0135153	8.65329	0.0930165	-4.61638	0.0175114	0.0182729	-0.00521261	-1.04858	-0.340332	0.279053	0.314761	-0.188316	-0.426001	0.827034	-0.214803	-8.98372	5.99382	0.0263001	-0.0370603	0.0141042	-0.221924	0.760498	-0.783936	0.488149	-0.0662408	-0.0980079	0.864706	-0.0836461	-2.28758	9.38236	0.112319	-0.013449	0.0225803	-0.0397949	0.0568848	-1.05566	0.703872	0.194795	-0.178056	-0.659481	0.0928411	5.08119	8.70327	-0.0798479	-0.0263722	-0.019973	0.079834	-0.143311	-1.04907	0.762448	0.053329	0.00202261	-0.644844	-1.04755	1.47852	13.3802	0.031263	-0.0616972	-0.0111264	0.103516	0.292725	-1.05737	-0.0209336	-0.00818839	-0.999437	-0.0249025	-0.426719	0.331679	-9.04878	0.0205837	0.00776037	-0.0168306	-0.1875	-0.300293	1.10547	-0.0456484	-0.12344	-0.94615	0.29577	-1.95416	-5.04055	-6.61105	0.00169183	0.0619492	-0.0207882	-0.156982	0.625732	0.861328	-0.226571	0.909103	-0.328614	-0.119206	-3.3217	-2.9668	-7.89997	0.0347901	0.0126853	0.00184136	-0.00805664	0.5354	0.979004	-0.0406181	0.0278338	-0.998733	-0.0103782	-0.919072	0.376038	-9.04275	0.026328	0.0522898	0.000701884	-0.371582	-0.0585938	1.12378	-0.179848	-0.0190669	-0.976127	-0.12028	-3.44342	2.3368	-9.05469	0.03389	-0.00401649	0.0123243	-0.057373	-0.315918	1.14014	
76	0.863595	0.105105	-0.458259	0.182086	9.20255	0.391413	5.81466	-0.158646	-0.0293831	0.047019	-0.684326	-0.181396	-0.828613	0.501677	-0.0482952	-0.8636	-0.0135541	8.71079	-0.118526	-4.88983	-0.0207253	0.0557413	-0.013532	-1.04858	-0.338135	0.271973	0.314947	-0.187075	-0.424292	0.828123	-0.333142	-8.71386	5.9767	0.189435	-0.0427933	-0.00133017	-0.226074	0.756348	-0.795166	0.487729	-0.0641776	-0.0968092	0.865234	-0.38807	-1.99953	9.38387	0.102416	-0.0543898	0.0127446	-0.041748	0.050293	-1.06006	0.703761	0.194944	-0.179915	-0.659051	-0.103272	5.28988	8.55988	0.097074	-0.0187036	0.0152036	0.0734863	-0.145508	-1.04907	0.761778	0.0533534	-0.000175104	-0.645638	-0.939266	1.81149	13.4558	0.0498775	-0.0513388	-0.060715	0.101562	0.290527	-1.04883	-0.0209567	-0.00755783	-0.999456	-0.024307	-0.417788	0.33179	-9.05019	0.0179529	0.00291301	-0.017739	-0.185303	-0.300293	1.11401	-0.0428274	-0.123351	-0.945847	0.297192	-1.97819	-4.92838	-6.68029	0.0109495	0.0483071	-0.0599811	-0.161621	0.632568	0.849365	-0.229154	0.908901	-0.328317	-0.116602	-3.24864	-2.71835	-7.80954	0.135041	0.0419964	-0.0664306	-0.0107422	0.542236	0.974609	-0.0410259	0.0270967	-0.998715	-0.0122886	-0.904407	0.402236	-9.04727	-0.10004	-0.0691778	0.0397923	-0.375977	-0.0585938	1.12817	-0.180139	-0.019881	-0.976123	-0.119742	-3.4383	2.30129	-8.89257	0.0334361	-0.0213892	0.0159065	-0.0532227	-0.309326	1.14453	
77	0.864098	0.100841	-0.458928	0.180419	8.81162	0.103077	5.69678	-0.185368	0.00841529	0.0188422	-0.684814	-0.170654	-0.833008	0.503149	-0.0481988	-0.862759	-0.0128718	8.55767	0.0165484	-4.62583	0.0254234	0.0912456	-0.00323824	-1.05737	-0.338135	0.267334	0.317039	-0.184258	-0.421886	0.829185	-0.270649	-8.49498	5.82024	0.0999158	0.00827647	-0.0695615	-0.230225	0.75415	-0.797607	0.48874	-0.0617365	-0.0961493	0.864915	-0.235528	-1.80703	9.80787	0.0227566	-0.0581236	-0.0637102	-0.0461426	0.050293	-1.05786	0.704545	0.190609	-0.177621	-0.660102	-0.222851	4.98823	8.37185	-0.240768	-0.0633787	-0.00553299	0.0727539	-0.130127	-1.04688	0.761792	0.0519098	-0.000278423	-0.645739	-1.09607	1.44591	13.4494	-0.00674355	-0.014032	-0.00569732	0.0969238	0.296875	-1.04883	-0.0209116	-0.0073673	-0.999466	-0.0240238	-0.425458	0.325212	-9.061	0.0236514	0.00832398	-0.0175369	-0.189697	-0.300293	1.10547	-0.042408	-0.122283	-0.946581	0.295353	-1.95061	-4.98047	-6.63078	-0.110447	0.0360796	-0.0614829	-0.15918	0.625732	0.858887	-0.227075	0.909844	-0.327559	-0.115437	-3.31882	-3.0091	-7.92893	-0.108058	0.0723053	-0.0618133	-0.0175781	0.537598	0.974609	-0.0411667	0.026515	-0.998698	-0.0142816	-0.935369	0.482082	-9.01583	-0.0615822	0.038495	0.020494	-0.373535	-0.0651855	1.11694	-0.180701	-0.0203792	-0.976018	-0.119668	-3.46641	2.37958	-8.77422	0.0127925	-0.0445681	0.0276155	-0.0532227	-0.311523	1.1377	
78	0.864956	0.0983047	-0.458443	0.178934	8.74968	-0.146821	5.80259	-0.095657	0.0663425	-0.0182045	-0.682861	-0.16626	-0.835205	0.504565	-0.0489053	-0.861889	-0.0130131	8.41528	-0.0308281	-4.68755	-0.0332106	0.070533	-0.0020173	-1.05542	-0.333984	0.26709	0.318688	-0.184102	-0.421425	0.828822	-0.302718	-8.4261	6.08326	0.000512973	0.0530228	-0.0578411	-0.234619	0.752197	-0.795166	0.490443	-0.0610695	-0.0962915	0.863982	-0.0292459	-2.18127	9.52347	0.0517523	0.00173907	-0.085084	-0.0483398	0.0480957	-1.06421	0.704452	0.191693	-0.17856	-0.659635	-0.0764961	4.96569	8.41313	0.161202	0.0238905	-0.015982	0.0754395	-0.138916	-1.04907	0.761956	0.0502941	0.000919858	-0.645672	-1.08924	1.69681	13.2086	-0.112377	0.00994571	-0.020889	0.0969238	0.30127	-1.04688	-0.0209676	-0.0074084	-0.999463	-0.0240548	-0.425133	0.343814	-9.06761	0.0228534	0.00794947	-0.0166313	-0.187744	-0.295898	1.10767	-0.0417517	-0.121375	-0.947155	0.293976	-1.92918	-5.27575	-6.88477	-0.0279768	0.0353698	-0.052008	-0.161377	0.625732	0.858887	-0.225678	0.910398	-0.327119	-0.115053	-3.38312	-3.34018	-8.0376	-0.098969	0.0632856	-0.0590206	-0.0195312	0.532959	0.972412	-0.0393666	0.026233	-0.998759	-0.0155786	-0.880493	0.49756	-9.00786	-0.0472234	0.091148	0.02355	-0.378174	-0.0629883	1.12842	-0.182153	-0.0212268	-0.975538	-0.121222	-3.33195	2.29184	-8.47481	0.0213938	-0.0177888	0.0118382	-0.0488281	-0.309326	1.14233	
79	0.866419	0.0970263	-0.45611	0.178514	8.58404	-0.299844	5.91858	-0.0128527	0.118595	-0.0149724	-0.674316	-0.163818	-0.833008	0.505414	-0.0490304	-0.861382	-0.01317	8.57678	-0.0219107	-4.57389	-0.0188638	0.0549976	-0.0149014	-1.04688	-0.32959	0.259766	0.320332	-0.183921	-0.420543	0.828676	-0.414834	-8.47133	5.91673	0.0559311	0.0271124	-0.0489901	-0.236572	0.741455	-0.806152	0.49213	-0.060648	-0.0962034	0.863061	-0.0781393	-2.28334	9.40861	-0.00971146	-0.00168904	-0.0755773	-0.0439453	0.0480957	-1.05981	0.704073	0.189893	-0.177739	-0.660781	-0.0404735	5.09009	8.47254	-0.197011	-0.0416955	-0.0458607	0.0664062	-0.134521	-1.05371	0.761847	0.0494167	0.000764021	-0.645869	-1.01125	1.73244	13.1255	-0.0400194	-0.0198883	-0.0219886	0.0947266	0.299072	-1.05103	-0.0209676	-0.0074084	-0.999463	-0.0240548	-0.425133	0.343814	-9.06761	0.0228534	0.00794947	-0.0166313	-0.187744	-0.295898	1.10767	-0.041358	-0.121328	-0.947201	0.293904	-1.90901	-5.20124	-6.83121	0.00544516	0.048796	-0.0296039	-0.163574	0.625732	0.861328	-0.226603	0.910828	-0.326098	-0.112713	-3.25644	-3.42337	-8.17831	0.0395247	0.0445488	-0.0513329	-0.0266113	0.530518	0.979004	-0.0368334	0.0261354	-0.99886	-0.0154636	-0.848013	0.498571	-9.03668	0.0223374	0.115688	-0.00284089	-0.386719	-0.0720215	1.11719	-0.181483	-0.0215274	-0.975711	-0.120779	-3.26271	2.62047	-8.51337	-0.0141799	0.049758	0.0104686	-0.057373	-0.315918	1.14014	
80	0.867057	0.0973211	-0.454792	0.178621	8.55537	-0.167897	5.95789	0.037474	0.10792	-0.0246122	-0.674072	-0.166016	-0.841553	0.50568	-0.0491957	-0.861215	-0.0132707	8.60183	0.0422111	-4.5708	-0.0212367	0.0390643	-0.0120283	-1.04883	-0.333984	0.262451	0.320918	-0.183823	-0.420515	0.828485	-0.375659	-8.33089	5.99451	0.0108958	0.0232606	-0.0460376	-0.232422	0.75	-0.802002	0.492901	-0.0602877	-0.0961349	0.862654	-0.151564	-2.4055	9.27355	0.023646	-0.0091025	-0.0709537	-0.0437012	0.0458984	-1.05762	0.704279	0.188295	-0.177117	-0.661185	-0.114056	4.51079	8.35311	-0.132391	-0.0443558	-0.0117416	0.0708008	-0.132324	-1.05127	0.761692	0.0484285	0.000933412	-0.646126	-1.00566	1.45218	13.0602	-0.0659343	-0.0273874	-0.0394252	0.10083	0.305664	-1.04492	-0.020837	-0.00684041	-0.999489	-0.0232446	-0.432689	0.322791	-9.05244	0.0222404	0.00592258	-0.0165535	-0.18335	-0.298096	1.10767	-0.0408154	-0.121376	-0.947105	0.29427	-1.93236	-5.068	-6.90444	0.0218467	0.0287917	-0.0129549	-0.16333	0.621582	0.859131	-0.226707	0.910719	-0.326506	-0.112197	-3.1824	-3.26506	-8.09575	0.0278645	0.0368783	-0.0112287	-0.0222168	0.539795	0.976807	-0.0356661	0.026218	-0.998908	-0.0149128	-0.818715	0.49834	-9.04359	0.046323	0.104128	-0.0031054	-0.386963	-0.0632324	1.11914	-0.180745	-0.0215074	-0.975808	-0.121106	-3.20111	2.4463	-8.69734	-0.0212692	0.0648478	0.00566325	-0.0505371	-0.318115	1.14478	
81	0.868073	0.0986126	-0.452539	0.1787	8.66126	0.10248	6.08179	0.0590359	0.0769035	-0.0432299	-0.669434	-0.168213	-0.84375	0.505975	-0.0496759	-0.861012	-0.0134146	8.70159	-0.184793	-4.6533	-0.0159406	0.0208536	-0.000946841	-1.05322	-0.336182	0.26001	0.321866	-0.183255	-0.421476	0.827754	-0.246654	-8.7305	6.05469	-0.0258914	-0.025562	-0.0558769	-0.234375	0.745605	-0.799561	0.493348	-0.0598243	-0.0962977	0.862413	-0.0409111	-2.47144	9.27727	0.0113433	-0.0286879	-0.0438038	-0.0480957	0.0458984	-1.05762	0.703655	0.187799	-0.178316	-0.661668	0.085583	4.94009	8.50312	0.0200668	-0.0478032	-0.0278744	0.0617676	-0.130127	-1.04907	0.761042	0.0471251	0.000190397	-0.646988	-0.851299	1.29503	13.208	-0.0145097	-0.0485054	-0.0593295	0.0925293	0.30127	-1.04688	-0.0211047	-0.00690048	-0.99948	-0.0234021	-0.438605	0.325174	-9.10366	0.0190796	0.00264295	-0.0167112	-0.18335	-0.300293	1.10132	-0.0402501	-0.121574	-0.947263	0.293755	-1.84998	-5.15181	-6.80208	-0.0140763	0.0361979	-0.00726129	-0.167969	0.62793	0.863525	-0.226247	0.910669	-0.326911	-0.112352	-3.18329	-3.29744	-8.1117	-0.0132183	0.0046192	0.00938974	-0.0197754	0.537598	0.969971	-0.0343076	0.0261969	-0.998972	-0.0138376	-0.789863	0.447291	-9.03855	0.0328244	0.0529174	0.003678	-0.391602	-0.0588379	1.11694	-0.178922	-0.0214724	-0.976226	-0.120448	-3.3501	2.42888	-8.94926	0.0371795	0.0803492	-0.00344513	-0.0598145	-0.311523	1.14233	
82	0.869163	0.0993664	-0.450265	0.178727	8.49326	0.153359	6.03205	0.0330244	0.0904883	-0.0288988	-0.673828	-0.172607	-0.845703	0.506683	-0.0497329	-0.860596	-0.0131546	8.57447	-0.0388025	-4.52827	-0.0101698	0.0685834	-0.0101959	-1.04907	-0.327393	0.259766	0.322574	-0.181409	-0.420368	0.828449	-0.38678	-8.45023	5.91664	0.0961482	-0.0215446	-0.0319144	-0.24292	0.741455	-0.801758	0.493099	-0.0572154	-0.0964357	0.862716	-0.0640732	-2.37651	9.78259	0.0429174	-0.0505123	0.0303708	-0.050293	0.0437012	-1.05322	0.703589	0.186346	-0.179516	-0.661825	0.15796	4.75757	8.57906	-0.019122	-0.0590739	0.0059241	0.0598145	-0.134521	-1.04688	0.760668	0.0472354	-0.00215747	-0.647417	-0.825367	1.42779	13.533	0.0571077	-0.0558634	-0.0184425	0.0861816	0.299072	-1.04468	-0.0211096	-0.00673922	-0.999486	-0.0231807	-0.43593	0.320942	-9.06099	0.0215119	0.00623649	-0.0160313	-0.187256	-0.306885	1.11206	-0.0394323	-0.122294	-0.946735	0.295266	-1.94198	-4.99409	-6.78658	0.0809128	0.0414256	0.00750232	-0.163574	0.623779	0.854248	-0.226691	0.910346	-0.3275	-0.112362	-3.19284	-3.14921	-7.85255	0.039486	0.00809603	0.00598665	-0.0175781	0.541992	0.974365	-0.0332866	0.0264082	-0.999012	-0.0130468	-0.764471	0.453297	-9.04651	0.0390324	0.0511337	-0.00839581	-0.393799	-0.0610352	1.11694	-0.177956	-0.0213278	-0.976424	-0.120302	-3.34332	2.34912	-9.02257	0.00142059	0.0337522	-0.0047404	-0.0620117	-0.313965	1.14233	
83	0.870268	0.0993299	-0.44822	0.178512	8.50368	0.182113	6.05836	-0.00769428	0.0938387	-0.0232427	-0.660645	-0.170166	-0.8479	0.507251	-0.0500651	-0.860242	-0.0131723	8.51695	-0.149821	-4.50537	-0.0103225	0.0402556	-0.0112215	-1.04883	-0.333984	0.257568	0.322257	-0.180515	-0.420337	0.828783	-0.176917	-8.46482	6.24923	0.00977048	-0.0319437	0.0107062	-0.23877	0.74585	-0.804199	0.492652	-0.0564489	-0.0959297	0.863079	-0.0177539	-2.05371	9.71337	0.0113349	-0.00888662	0.0250888	-0.0544434	0.0393066	-1.05762	0.703786	0.185673	-0.179913	-0.661696	0.159926	4.81672	8.58384	-0.0394929	-0.010806	0.00295784	0.0554199	-0.130127	-1.05591	0.760809	0.0457271	-0.00227991	-0.647359	-0.759097	1.23655	13.5318	-0.0276751	-0.0110306	-0.0193412	0.0817871	0.30127	-1.04688	-0.0213146	-0.00680272	-0.999479	-0.0232753	-0.437336	0.333369	-9.07439	0.0213435	0.00451051	-0.0169409	-0.181152	-0.300293	1.11401	-0.0384119	-0.122649	-0.946604	0.295674	-1.81977	-4.89516	-6.56174	0.0147842	0.0688439	-0.0227076	-0.165771	0.625732	0.858887	-0.226137	0.910404	-0.328041	-0.111424	-3.10356	-2.86613	-7.66666	-0.0388635	0.0649353	-0.00934007	-0.0219727	0.535156	0.976807	-0.0328047	0.0264952	-0.999031	-0.0125946	-0.757257	0.430726	-9.03128	0.0394681	0.0492449	-0.00484976	-0.395996	-0.0610352	1.11694	-0.177839	-0.0213	-0.976367	-0.120943	-3.32289	2.32802	-8.9512	-0.0238676	0.00682272	-0.00207091	-0.0620117	-0.316162	1.15137	
84	0.871693	0.0983229	-0.445666	0.17851	8.43317	0.125197	6.16533	-0.0259053	0.12053	0.00289768	-0.660645	-0.170166	-0.852295	0.507554	-0.0501532	-0.860063	-0.0128354	8.5718	-0.0976881	-4.60058	-0.00316485	0.0244138	-0.00803056	-1.04907	-0.327393	0.257324	0.322036	-0.179866	-0.419657	0.829355	-0.102859	-8.68155	6.25247	0.0726503	-0.0199264	0.0137511	-0.243164	0.74585	-0.806396	0.492163	-0.0555458	-0.094516	0.863572	0.0876939	-1.92084	9.62179	0.0960665	9.57541e-06	0.0187903	-0.0544434	0.0393066	-1.05981	0.704516	0.185402	-0.179204	-0.661188	0.212378	4.90273	8.59697	-0.0148867	0.0461985	0.0143531	0.0595703	-0.125732	-1.04907	0.760754	0.0458559	-0.00202574	-0.647415	-0.863543	1.29298	13.6293	-0.0128529	0.0357657	-0.0103185	0.090332	0.30127	-1.04688	-0.0213986	-0.00660906	-0.999482	-0.0231095	-0.43924	0.31185	-9.02973	0.0189878	0.00326215	-0.0174261	-0.185547	-0.295898	1.11401	-0.0368747	-0.122599	-0.946918	0.294883	-1.78907	-4.99166	-6.71232	-0.0252523	0.0954896	-0.0346819	-0.174316	0.625732	0.856689	-0.225577	0.910738	-0.328184	-0.109395	-3.12241	-3.05476	-7.78749	0.0375093	0.0871275	-0.0449625	-0.0314941	0.537354	0.972168	-0.0313681	0.026628	-0.999075	-0.0124725	-0.745382	0.432327	-9.03626	-0.00567168	0.0432102	0.00180891	-0.398438	-0.0566406	1.1145	-0.177682	-0.0213455	-0.976324	-0.121513	-3.24668	2.3677	-8.75959	-0.0224619	0.0121114	0.00722949	-0.0620117	-0.316162	1.14014	
