40	Head	00b4120a												Throax	00b411e8												LUpArm	00b411d9												LFoArm	00b41148												RUpArm	00b411db												RFoArm	00b41204												Waist	00b411f7												Lthigh	00b411f4												Lshank	00b4111b												Rthigh	00b411c8												Rshank	00b411ee												
PacketCount	q0	q1	q2	q3	accX	accY	accZ	gyrX	gyrY	gyrZ	magX	magY	magZ	q0	q1	q2	q3	accX	accY	accZ	gyrX	gyrY	gyrZ	magX	magY	magZ	q0	q1	q2	q3	accX	accY	accZ	gyrX	gyrY	gyrZ	magX	magY	magZ	q0	q1	q2	q3	accX	accY	accZ	gyrX	gyrY	gyrZ	magX	magY	magZ	q0	q1	q2	q3	accX	accY	accZ	gyrX	gyrY	gyrZ	magX	magY	magZ	q0	q1	q2	q3	accX	accY	accZ	gyrX	gyrY	gyrZ	magX	magY	magZ	q0	q1	q2	q3	accX	accY	accZ	gyrX	gyrY	gyrZ	magX	magY	magZ	q0	q1	q2	q3	accX	accY	accZ	gyrX	gyrY	gyrZ	magX	magY	magZ	q0	q1	q2	q3	accX	accY	accZ	gyrX	gyrY	gyrZ	magX	magY	magZ	q0	q1	q2	q3	accX	accY	accZ	gyrX	gyrY	gyrZ	magX	magY	magZ	q0	q1	q2	q3	accX	accY	accZ	gyrX	gyrY	gyrZ	magX	magY	magZ	
0	0.856702	0.117901	-0.448395	0.226061	8.70662	0.114889	6.00991	0.103791	-0.0780248	0.0417828	-0.686279	-0.190186	-0.824219	0.486219	-0.0517431	-0.872266	-0.00817034	8.52394	0.0165729	-5.11568	-0.0131738	0.0946497	-0.0248575	-1.04272	-0.324951	0.304443	0.297188	-0.171238	-0.501496	0.794266	0.255862	-9.35994	4.49519	0.0540502	0.0364441	0.0469767	-0.313721	0.874512	-0.645264	0.542151	-0.0278455	-0.070936	0.836819	0.340545	-1.26202	9.20737	0.050244	0.0345937	0.00722149	-0.0822754	-0.0334473	-1.05615	0.697562	0.190432	-0.235604	-0.649333	0.945914	5.60086	8.03853	-0.275217	-0.00516022	-0.0377052	-0.0280762	-0.2229	-1.0354	0.744689	0.0406494	-0.0432012	-0.664771	-0.26351	1.76578	13.1299	-0.0257894	0.020169	-0.061738	0.00170898	0.257812	-1.0498	-0.0162145	0.0352322	-0.999111	-0.0164947	-0.450816	0.323091	-9.01954	0.0162408	-0.00599633	-0.0184781	-0.185303	-0.304688	1.10767	-0.031062	-0.0497915	-0.974792	0.215261	-0.863768	-3.41968	-7.74169	-0.0414482	0.0282101	-0.0195505	-0.272705	0.457275	0.934814	-0.219749	0.909383	-0.340848	-0.0924961	-2.81121	-3.06613	-8.11764	-0.000564694	0.0114394	-0.0146522	-0.0571289	0.539551	0.963135	-0.0320551	0.0204036	-0.999218	-0.0109733	-0.623066	0.337942	-9.05329	-0.00238128	0.00833246	0.00421399	-0.412109	-0.0524902	1.10742	-0.176188	-0.0364308	-0.964992	-0.190842	-3.0924	3.66547	-8.50143	-0.00450891	0.0185615	0.0123141	-0.0849609	-0.466553	1.09912	
1	0.855434	0.119387	-0.450019	0.226852	8.80823	0.160989	6.06544	0.0428257	-0.0912379	0.00762481	-0.681641	-0.192383	-0.824219	0.488567	-0.0520371	-0.870936	-0.00808369	8.54923	-0.140441	-5.06035	-0.00610409	0.143738	0.00253955	-1.04053	-0.324951	0.299805	0.298575	-0.170524	-0.498538	0.79576	0.216431	-9.14919	4.70074	-0.0140838	0.0290348	-0.0510613	-0.311279	0.86792	-0.654297	0.541984	-0.0272668	-0.0710004	0.83694	0.319966	-1.15875	9.62552	0.0362979	-0.0267714	-0.00450659	-0.0822754	-0.0356445	-1.05396	0.696783	0.19073	-0.236397	-0.649793	0.715871	5.80438	8.26121	0.124115	-0.0105262	-0.0523903	-0.0280762	-0.2229	-1.03296	0.744316	0.0393613	-0.0430833	-0.665273	-0.316477	1.84097	13.3844	-0.10221	-0.0336456	-0.0115915	-0.00292969	0.262207	-1.0498	-0.0164644	0.0351629	-0.999106	-0.0167511	-0.433492	0.327288	-9.101	0.0198217	0.00752098	-0.0163492	-0.185303	-0.300293	1.10986	-0.0308223	-0.0496662	-0.97493	0.214699	-0.863312	-3.38825	-7.80832	0.00178699	0.0330763	-0.0298636	-0.275146	0.459473	0.927734	-0.220716	0.90935	-0.340509	-0.0917589	-2.868	-2.78707	-8.00729	0.0392641	0.0154578	-0.0496333	-0.0593262	0.539307	0.969971	-0.0321562	0.020319	-0.999216	-0.0110034	-0.628882	0.327265	-9.05856	0.00318617	0.00386753	0.00644186	-0.407959	-0.0458984	1.10522	-0.175701	-0.0367412	-0.964931	-0.19154	-3.25026	3.7461	-8.47029	-0.0316564	0.0194959	0.0188411	-0.0852051	-0.464355	1.10156	
2	0.853969	0.120509	-0.453001	0.225842	8.59366	0.183042	5.79661	0.000305264	-0.145068	-0.0275102	-0.688477	-0.187988	-0.819824	0.49228	-0.0518744	-0.868861	-0.00708571	8.33983	-0.106888	-4.85285	0.0382675	0.198108	0.0118596	-1.04492	-0.324951	0.297363	0.300004	-0.170343	-0.498339	0.795386	-0.0393955	-9.13507	4.43003	0.0538054	0.0406	-0.0426862	-0.317871	0.86377	-0.658691	0.543701	-0.0258191	-0.0701548	0.835943	0.119507	-1.14316	9.95128	0.0291118	-0.00803792	-0.0953451	-0.079834	-0.0400391	-1.05176	0.698087	0.186896	-0.233847	-0.650431	0.668543	5.36725	7.75103	-0.30907	-0.0177895	0.047987	-0.0241699	-0.209717	-1.03076	0.745224	0.0361646	-0.0418853	-0.664514	-0.313359	1.68878	13.2567	-0.0565512	-0.0161743	0.0266773	-0.00512695	0.266357	-1.04565	-0.016485	0.0351139	-0.999106	-0.0168209	-0.425856	0.317964	-9.07127	0.01912	0.0106318	-0.0156292	-0.185303	-0.300293	1.10986	-0.030455	-0.0495126	-0.974957	0.214664	-0.860173	-3.39385	-7.70684	0.00399022	0.044808	-0.0387834	-0.274902	0.455078	0.937256	-0.220038	0.909636	-0.340244	-0.0915368	-2.9617	-2.92044	-8.12553	-0.0436513	0.0328159	-0.04689	-0.0661621	0.536865	0.972168	-0.0318871	0.0203728	-0.999217	-0.0115241	-0.620729	0.348002	-9.05342	-0.0196684	0.0232224	-0.000824826	-0.407471	-0.0524902	1.10986	-0.174932	-0.036745	-0.965012	-0.191833	-3.14763	3.58494	-8.43142	0.0140909	0.0395559	-0.00303406	-0.092041	-0.462158	1.09912	
3	0.853324	0.120599	-0.454591	0.225037	8.64997	0.0541685	5.49517	-0.0444272	-0.144618	-0.032151	-0.695068	-0.188232	-0.815674	0.493946	-0.0519692	-0.867911	-0.00687108	8.07074	-0.154412	-4.7263	-0.00400419	0.165995	0.00939185	-1.04272	-0.324951	0.287842	0.300574	-0.170847	-0.49761	0.795519	0.205733	-9.00035	4.48716	0.0516105	0.0759963	-0.00147326	-0.313477	0.865967	-0.658691	0.544772	-0.0264253	-0.0710696	0.83515	0.371146	-1.45315	9.89793	-0.0858236	0.0137142	-0.102055	-0.0820312	-0.0400391	-1.05396	0.698784	0.185806	-0.233224	-0.650218	0.664742	5.32029	7.6269	-0.100233	0.00229726	0.0460801	-0.0285645	-0.209717	-1.03076	0.745725	0.0351211	-0.0411531	-0.664054	-0.216403	2.02709	13.2428	-0.098053	0.00529189	0.0415746	-0.00292969	0.266357	-1.04785	-0.016485	0.0351139	-0.999106	-0.0168209	-0.425856	0.317964	-9.07127	0.01912	0.0106318	-0.0156292	-0.185303	-0.300293	1.10986	-0.0287409	-0.0489631	-0.975327	0.213338	-0.821438	-3.40528	-7.73411	-0.0486792	0.075089	-0.0446936	-0.274414	0.444092	0.939697	-0.219965	0.909961	-0.339644	-0.0907125	-2.86035	-3.13584	-8.15129	0.00670405	0.0268522	-0.0440289	-0.0661621	0.537109	0.960938	-0.0317519	0.0203953	-0.999218	-0.0118116	-0.617298	0.365552	-9.05709	-0.0180991	0.0200914	0.000592883	-0.409668	-0.0546875	1.10767	-0.174609	-0.0368123	-0.96501	-0.192124	-3.09296	3.71751	-8.35243	-0.0190956	0.0292137	0.00939919	-0.0942383	-0.462158	1.09448	
4	0.853678	0.119504	-0.454842	0.223766	8.64761	-0.135832	5.75581	-0.0346838	0.0532478	-0.0138473	-0.695068	-0.192627	-0.813477	0.495432	-0.0521734	-0.867057	-0.00611897	8.49568	-0.165382	-4.62129	-0.0111237	0.0275804	-0.00507821	-1.04517	-0.316406	0.285156	0.30112	-0.173542	-0.498503	0.794169	0.374862	-9.35072	4.52331	-0.0022387	0.059399	0.00738858	-0.307129	0.870117	-0.654297	0.546085	-0.028117	-0.0715882	0.834191	0.710734	-1.73665	9.69195	-0.00715425	0.0696004	-0.0473928	-0.0800781	-0.03125	-1.052	0.698414	0.187155	-0.234045	-0.649934	0.733803	5.46307	7.99327	0.0202527	-0.00748561	0.00230955	-0.0219727	-0.21167	-1.03296	0.745397	0.0351968	-0.0406686	-0.664448	-0.166938	2.05331	13.029	-0.0615843	0.0307425	-0.0991972	-0.000976562	0.270752	-1.05005	-0.0164265	0.0354373	-0.9991	-0.0165399	-0.437067	0.334497	-9.08584	0.0189841	0.00911951	-0.0168713	-0.187744	-0.298096	1.10547	-0.0272497	-0.0483776	-0.97585	0.211268	-0.76746	-3.35407	-7.81234	-0.0304477	0.0433008	-0.0328042	-0.283203	0.446289	0.932617	-0.220281	0.910012	-0.33943	-0.0902299	-2.74368	-3.19787	-8.22632	0.039392	0.0230606	-0.0498603	-0.0617676	0.539307	0.960938	-0.0315432	0.0203787	-0.999222	-0.0120324	-0.586927	0.350045	-9.05866	0.000414068	0.0155992	0.00108082	-0.407471	-0.0524902	1.10522	-0.173662	-0.0371563	-0.965037	-0.19278	-3.09997	3.85943	-8.53527	-0.0460972	0.047916	0.0103266	-0.0915527	-0.470947	1.09937	
5	0.853974	0.119518	-0.454376	0.223578	8.45576	-0.0178473	5.6928	-0.000576635	0.038109	-0.0238267	-0.688477	-0.190186	-0.817627	0.495868	-0.052346	-0.866798	-0.00597125	8.4042	-0.2185	-4.50102	-0.00153299	0.0525941	-0.000858627	-1.04932	-0.320557	0.287842	0.300958	-0.173685	-0.497788	0.794647	0.151965	-9.28877	4.25231	0.0635238	0.0188816	0.0380917	-0.302734	0.865723	-0.661133	0.546677	-0.0277828	-0.0688262	0.834048	0.278819	-1.83244	9.49787	0.112192	0.0470723	-0.0170038	-0.0795898	-0.0422363	-1.04956	0.698546	0.186022	-0.233195	-0.650423	0.783701	6.10896	8.02273	-0.119253	-0.00858086	-0.0251422	-0.0285645	-0.21167	-1.0376	0.744979	0.0347602	-0.0404079	-0.664955	-0.28941	1.38158	12.9247	-0.0373526	0.00326261	-0.0655579	-0.00512695	0.266357	-1.04785	-0.0163361	0.0353518	-0.999103	-0.0166047	-0.425451	0.319658	-9.05649	0.0213331	0.0181973	-0.0157689	-0.183105	-0.300293	1.10986	-0.0270921	-0.0482999	-0.975829	0.2114	-0.759405	-3.33657	-7.89463	0.01798	0.029701	-0.0280942	-0.281006	0.446289	0.932617	-0.220261	0.910329	-0.338835	-0.0893134	-2.76772	-3.18769	-8.2957	0.00656263	0.0199296	-0.029749	-0.0637207	0.534912	0.963135	-0.0312261	0.020392	-0.99923	-0.012146	-0.620446	0.351015	-9.06802	-0.00226663	0.017432	0.000509646	-0.411865	-0.0546875	1.10522	-0.172947	-0.0370465	-0.965098	-0.19314	-3.04135	3.68452	-8.52717	-0.0241369	0.063498	0.0030356	-0.0917969	-0.464355	1.09692	
6	0.854511	0.118946	-0.453766	0.223068	8.59142	0.170797	5.76347	-0.0400978	0.0418387	-0.015085	-0.688232	-0.192383	-0.817627	0.496529	-0.0524815	-0.866415	-0.0054767	8.27949	-0.137296	-4.76756	0.00978429	0.0290689	-0.00405113	-1.04736	-0.316406	0.27832	0.300175	-0.173228	-0.495641	0.796384	0.0592487	-8.5145	4.59452	0.0828638	-0.0267934	0.0542005	-0.304932	0.861328	-0.660889	0.546802	-0.0271795	-0.0667736	0.834152	0.342534	-1.68889	9.44151	0.167914	0.0560817	-0.000251075	-0.072998	-0.0397949	-1.04956	0.698574	0.184702	-0.23279	-0.650914	0.835552	4.4792	7.77904	0.0790101	-0.0108212	-0.0180926	-0.0244141	-0.20752	-1.03076	0.745192	0.0349048	-0.0412577	-0.664656	-0.169984	1.94516	12.9562	-0.00762169	-0.00250257	0.000723346	-0.0012207	0.275146	-1.0481	-0.0162461	0.0353165	-0.999106	-0.0166095	-0.42126	0.314355	-9.05687	0.0240071	0.0199505	-0.0164319	-0.18335	-0.300293	1.10352	-0.0272829	-0.0483663	-0.975819	0.211407	-0.760874	-3.36546	-7.84125	-0.0209275	0.00712312	-0.0101739	-0.280762	0.444092	0.939697	-0.220484	0.910215	-0.338926	-0.0895841	-2.79681	-3.2905	-8.35741	0.00930096	-0.0117949	-0.00343076	-0.0593262	0.539551	0.960938	-0.0311776	0.0204179	-0.999231	-0.0122005	-0.600807	0.363014	-9.05454	0.00642422	0.00806366	0.00294313	-0.414062	-0.0568848	1.1123	-0.172452	-0.0368545	-0.965417	-0.19202	-3.05057	3.71124	-8.62936	0.0706829	0.00613672	-0.0179436	-0.0917969	-0.464355	1.09692	
7	0.855915	0.117677	-0.451905	0.222136	8.5026	-0.0408631	6.0437	-0.0465412	0.100607	-0.0351479	-0.684082	-0.187988	-0.819824	0.496237	-0.0528516	-0.866558	-0.00570058	8.49012	-0.310168	-4.69613	-0.019407	-0.00471212	-0.0123125	-1.04932	-0.322754	0.283203	0.297089	-0.172742	-0.498853	0.79564	0.433023	-9.3403	4.57874	-0.129783	-0.122676	0.0437959	-0.307129	0.872314	-0.649902	0.544344	-0.025664	-0.0618113	0.836188	0.317497	-1.54977	8.9274	0.15145	-0.00959227	0.126627	-0.0742188	-0.0617676	-1.05127	0.697612	0.186611	-0.235452	-0.650443	0.839914	5.97949	8.03319	0.0512448	-0.0405655	-0.0274458	-0.0305176	-0.213867	-1.0376	0.745085	0.0353264	-0.042832	-0.664655	-0.15666	1.5169	12.9093	0.108228	-0.0351628	-0.00060543	-0.00952148	0.264404	-1.04346	-0.0162461	0.0353165	-0.999106	-0.0166095	-0.42126	0.314355	-9.05687	0.0240071	0.0199505	-0.0164319	-0.18335	-0.300293	1.10352	-0.0275838	-0.0484617	-0.975685	0.211967	-0.766882	-3.364	-7.88052	0.0524979	-0.00402449	-0.00623758	-0.2854	0.448486	0.932617	-0.22112	0.909892	-0.339227	-0.090152	-2.77733	-3.13114	-8.28043	0.0226528	-0.0270509	0.0078967	-0.0639648	0.539307	0.95874	-0.0313607	0.0204037	-0.999229	-0.0119167	-0.610428	0.344489	-9.06895	0.0172761	0.000864772	0.00143887	-0.412109	-0.050293	1.10522	-0.172808	-0.0368675	-0.965239	-0.192594	-3.18417	3.7099	-8.72385	-0.0536777	-0.00715178	-0.00222175	-0.0939941	-0.466553	1.09692	
8	0.856269	0.117686	-0.451467	0.221655	8.44658	-0.0812344	5.97107	0.00430728	-0.021186	-0.0135246	-0.686279	-0.187988	-0.822021	0.496326	-0.0534378	-0.866471	-0.00578823	8.53599	0.0981056	-4.90152	-0.0346249	0.0198951	-0.00271713	-1.04736	-0.314209	0.285156	0.295164	-0.169168	-0.498651	0.79725	0.00650774	-8.80493	4.26106	0.0782815	-0.162227	0.00976764	-0.313477	0.865967	-0.654297	0.541679	-0.0236437	-0.0617048	0.837984	0.249299	-1.04297	9.32928	-0.0150525	-0.0788555	0.12434	-0.0766602	-0.0576172	-1.04932	0.697606	0.186845	-0.237925	-0.649481	0.620521	5.36571	8.05028	0.157264	-0.0368346	0.0472972	-0.0327148	-0.216309	-1.03296	0.745766	0.0339435	-0.0442838	-0.663868	-0.281741	2.07485	13.23	-0.0783729	-0.073303	0.0299172	-0.0114746	0.264404	-1.04785	-0.0158003	0.0359037	-0.999102	-0.0160177	-0.431936	0.322795	-9.05191	0.0178395	0.00639518	-0.017548	-0.1875	-0.30249	1.10571	-0.0287427	-0.0486377	-0.974916	0.215282	-0.792278	-3.39856	-7.75443	0.0998566	-0.0224224	-0.00429653	-0.279297	0.459473	0.930176	-0.221311	0.909588	-0.339647	-0.0911682	-2.77743	-3.03905	-8.12993	0.00474242	-0.0402687	0.00607417	-0.0549316	0.541748	0.963135	-0.0313746	0.0204562	-0.999227	-0.011903	-0.601389	0.346729	-9.07321	-0.000527879	0.00798831	-0.00107518	-0.412109	-0.050293	1.11206	-0.173477	-0.0368449	-0.965219	-0.192093	-2.97942	3.43635	-8.63272	0.0501493	-0.0303631	-0.0193593	-0.0830078	-0.461914	1.09692	
9	0.855547	0.118394	-0.452492	0.221976	8.48056	-0.0695311	5.84622	0.0302894	-0.0620295	0.0151456	-0.681641	-0.192383	-0.822021	0.49598	-0.053564	-0.866656	-0.00652016	8.38394	-0.285258	-4.62503	-0.0287907	-0.0120568	-0.0363841	-1.04956	-0.316406	0.282959	0.293496	-0.167088	-0.503573	0.795208	0.578701	-9.15049	4.69276	-0.242516	-0.129851	-0.059398	-0.309326	0.872314	-0.645264	0.53912	-0.0222952	-0.064793	0.839437	0.339849	-1.14401	9.78188	-0.056936	-0.121748	0.11303	-0.081543	-0.0488281	-1.04272	0.69872	0.183875	-0.237861	-0.649155	1.2318	5.789	8.13232	-0.216735	-0.0719903	0.0558146	-0.0393066	-0.216309	-1.03979	0.746238	0.031115	-0.0453357	-0.663404	-0.0334964	1.72882	13.6208	0.00546378	-0.0871913	0.0099197	-0.0161133	0.268555	-1.0437	-0.0155766	0.0358027	-0.999108	-0.0160673	-0.427999	0.324126	-9.03437	0.0226966	0.0237666	-0.0153291	-0.187744	-0.298096	1.10547	-0.0299642	-0.048994	-0.974655	0.216218	-0.840829	-3.42772	-7.80048	0.031162	-0.0274906	0.00512869	-0.274902	0.457275	0.930176	-0.221492	0.909461	-0.339698	-0.0918034	-2.84132	-2.99409	-8.09775	0.00500444	-0.0496893	-0.00340039	-0.0546875	0.537354	0.95874	-0.0313746	0.0204562	-0.999227	-0.011903	-0.601389	0.346729	-9.07321	-0.000527879	0.00798831	-0.00107518	-0.412109	-0.050293	1.11206	-0.175197	-0.0368314	-0.965364	-0.189792	-3.20189	3.88041	-8.38056	0.0421839	-0.0745583	-0.0291037	-0.0898438	-0.459961	1.09448	
10	0.8544	0.119334	-0.454197	0.222408	8.80204	-0.0417275	5.80988	0.0308066	-0.0884703	0.00977011	-0.692871	-0.19043	-0.815674	0.495666	-0.0533976	-0.866844	-0.00670377	8.49922	-0.168983	-4.94644	-0.027739	-0.00238566	-0.029036	-1.04492	-0.322754	0.280762	0.292416	-0.164753	-0.505329	0.794979	0.272304	-9.54079	4.64503	0.0540199	-0.109405	-0.0171662	-0.313477	0.874512	-0.633789	0.537978	-0.0215815	-0.0659231	0.8401	0.3233	-1.00717	10.0983	-0.039383	-0.0981481	0.100332	-0.0905762	-0.0488281	-1.04932	0.698969	0.184152	-0.239272	-0.648289	0.881306	5.61144	8.19902	0.176889	0.0186698	0.00365357	-0.0368652	-0.218506	-1.02856	0.746935	0.0293557	-0.0452633	-0.662705	-0.0104841	2.07373	13.7743	-0.0781331	-0.0132075	0.0363804	-0.0183105	0.270752	-1.03931	-0.0155898	0.0357252	-0.999109	-0.0162113	-0.418547	0.300336	-9.07257	0.0174446	0.0102738	-0.0155714	-0.185303	-0.300293	1.10547	-0.0306949	-0.0491719	-0.973799	0.2199	-0.829425	-3.46088	-7.76847	0.210902	-0.0152599	-0.0116269	-0.275146	0.463867	0.929932	-0.222017	0.909324	-0.339628	-0.0921468	-2.88778	-3.05543	-8.09414	0.0187615	-0.0199649	-0.00951729	-0.0544434	0.534912	0.963379	-0.0311533	0.0204729	-0.999232	-0.0120537	-0.6044	0.358484	-9.05674	-0.00251924	0.00898588	0.000175346	-0.409668	-0.0546875	1.10986	-0.176303	-0.0369868	-0.964947	-0.190856	-3.03641	3.50073	-8.4065	-0.0306574	-0.0188444	0.00530084	-0.0808105	-0.45752	1.10132	
11	0.853977	0.119963	-0.454746	0.222574	8.73475	0.107921	5.82245	0.014769	-0.0285751	-6.32268e-05	-0.69043	-0.192383	-0.81543	0.495428	-0.0531319	-0.866992	-0.00725035	8.60411	-0.208028	-4.7647	-0.0177437	0.010924	-0.0385054	-1.04736	-0.318604	0.282959	0.292416	-0.164753	-0.505329	0.794979	0.272304	-9.54079	4.64503	0.0540199	-0.109405	-0.0171662	-0.313477	0.874512	-0.633789	0.536249	-0.0215876	-0.0686084	0.84099	0.442372	-1.12716	10.3196	-0.0988154	-0.0440417	0.0792606	-0.0932617	-0.0378418	-1.05176	0.698517	0.185757	-0.240445	-0.647884	1.05704	5.87223	8.12044	0.0274831	0.0135754	-0.0183204	-0.0368652	-0.218506	-1.02856	0.746991	0.030085	-0.0458792	-0.662566	-0.017386	1.83811	13.7711	0.0795878	0.0165315	-0.00346803	-0.0158691	0.266357	-1.0415	-0.0155204	0.0356864	-0.99911	-0.0162692	-0.406908	0.321862	-9.07696	0.0200289	0.018012	-0.0161911	-0.185303	-0.300293	1.10767	-0.0312183	-0.049131	-0.973486	0.221214	-0.850341	-3.52718	-7.54517	0.112718	-0.0280366	-0.0151671	-0.275391	0.470215	0.932129	-0.221558	0.909281	-0.33985	-0.0928515	-2.88475	-2.87156	-8.01637	-0.0648852	-0.0201884	-0.00335033	-0.0478516	0.539551	0.960938	-0.0312224	0.0205359	-0.99923	-0.0119485	-0.608157	0.338994	-9.03507	0.00665589	0.00507915	0.000224994	-0.416504	-0.0546875	1.10767	-0.176328	-0.0371118	-0.964997	-0.190558	-3.07985	3.65854	-8.287	0.0162618	0.00508303	-0.00214044	-0.0854492	-0.45752	1.10132	
12	0.853365	0.119766	-0.456073	0.222309	8.87017	0.0228917	5.78542	-0.0265644	-0.0561463	0.00277968	-0.695312	-0.186035	-0.809082	0.495994	-0.0529784	-0.866668	-0.00829182	8.44074	-0.0651942	-4.82327	-0.043924	0.0358736	-0.0478393	-1.04688	-0.327148	0.276367	0.288972	-0.164086	-0.50889	0.794104	0.347416	-9.6588	4.38195	0.0104057	-0.0339154	0.0537438	-0.320068	0.883301	-0.636475	0.534395	-0.0225903	-0.0691045	0.842102	0.332601	-1.21623	10.2024	-0.0343152	0.0201537	0.0883145	-0.0905762	-0.0444336	-1.04736	0.698201	0.186422	-0.239388	-0.648426	0.951376	6.03739	8.23904	-0.0846618	0.0466256	-0.0558535	-0.0302734	-0.220703	-1.03296	0.746616	0.0314584	-0.0454822	-0.662953	-0.115885	2.29099	13.6887	-0.0749761	0.0675641	-0.0292955	-0.0136719	0.262207	-1.03906	-0.0154281	0.0356445	-0.999112	-0.0163143	-0.428225	0.328475	-9.05824	0.0209116	0.0199557	-0.0159134	-0.189697	-0.298096	1.10327	-0.0314737	-0.0489472	-0.972739	0.224483	-0.858497	-3.55784	-7.69261	0.091044	-0.00624274	-0.0115704	-0.271729	0.481201	0.925049	-0.221558	0.909281	-0.33985	-0.0928515	-2.88475	-2.87156	-8.01637	-0.0648852	-0.0201884	-0.00335033	-0.0478516	0.539551	0.960938	-0.0313251	0.0204753	-0.999227	-0.0120248	-0.602414	0.366401	-9.03981	-0.000257253	0.000278459	0.00326534	-0.412109	-0.0524902	1.10522	-0.176371	-0.03705	-0.965178	-0.189611	-3.06715	3.69519	-8.36345	0.0380838	0.00108604	-0.0120791	-0.0761719	-0.459717	1.09448	
13	0.853307	0.119503	-0.456436	0.221928	8.82155	-0.0419721	5.73342	-0.0370098	-0.0282566	-0.0129986	-0.699463	-0.19043	-0.817871	0.496037	-0.0528116	-0.86665	-0.00867984	8.45224	-0.161434	-4.72787	-0.0293343	0.0178084	-0.0443548	-1.04932	-0.322998	0.280762	0.288383	-0.163609	-0.508215	0.794849	0.520865	-9.18306	4.56362	0.0809398	-0.0433088	0.0445381	-0.32666	0.887695	-0.636475	0.533661	-0.0229667	-0.0679701	0.842649	0.345872	-1.19288	9.51196	0.0324633	0.0285714	0.0379036	-0.0839844	-0.0444336	-1.04956	0.698201	0.186422	-0.239388	-0.648426	0.951376	6.03739	8.23904	-0.0846618	0.0466256	-0.0558535	-0.0302734	-0.220703	-1.03296	0.746046	0.0322429	-0.044006	-0.663655	-0.0936697	1.66768	13.4058	0.0567468	0.0849426	-0.0678824	-0.00952148	0.266357	-1.04346	-0.0150903	0.0358079	-0.999115	-0.0160856	-0.406468	0.311803	-9.06296	0.0208765	0.0200391	-0.0163677	-0.185303	-0.300293	1.10547	-0.0315579	-0.0489165	-0.97266	0.224821	-0.878475	-3.57327	-7.69949	0.0333356	0.0102537	-0.0223182	-0.269043	0.472412	0.92749	-0.221013	0.909589	-0.339285	-0.0931987	-2.90726	-2.95139	-8.02076	-0.0288328	-0.00929427	-0.0235704	-0.0568848	0.532471	0.965576	-0.0316556	0.0204588	-0.999219	-0.0118595	-0.623344	0.348934	-9.05626	0.0130304	0.000121805	0.00154181	-0.407471	-0.0546875	1.10522	-0.176435	-0.0369108	-0.965139	-0.189774	-3.19234	3.75515	-8.46514	-0.0134581	0.00245277	-0.0134732	-0.0786133	-0.459717	1.09448	
14	0.853301	0.120024	-0.456801	0.220919	8.88205	-0.0684562	5.66453	0.0117721	-0.0166762	-0.0502555	-0.692871	-0.192627	-0.81543	0.496306	-0.0527503	-0.866494	-0.00931582	8.55607	0.046058	-4.95796	-0.0301955	0.0327464	-0.0342159	-1.04468	-0.331543	0.285889	0.287746	-0.163318	-0.508489	0.794964	0.37009	-9.08896	4.35908	-0.0170031	-0.0274719	0.00504033	-0.318115	0.883301	-0.631836	0.533035	-0.0226925	-0.0671519	0.843119	0.389357	-1.17656	9.39695	0.0472871	0.0103018	0.0263471	-0.0927734	-0.0466309	-1.04932	0.697411	0.189173	-0.238098	-0.648953	0.871539	5.60599	8.31927	0.17951	0.0928317	-0.0626907	-0.0258789	-0.2229	-1.02856	0.745981	0.0335202	-0.0424365	-0.663768	-0.269098	1.94848	13.3821	-0.0919	0.0872894	-0.00600872	-0.00952148	0.266357	-1.04346	-0.0146259	0.0361845	-0.999117	-0.0155825	-0.416922	0.31501	-9.04726	0.0210862	0.0172889	-0.0164906	-0.191895	-0.298096	1.10132	-0.0310899	-0.0486892	-0.972866	0.224041	-0.850114	-3.60968	-7.62345	-0.0279803	0.0280317	-0.0219195	-0.269287	0.476807	0.92041	-0.219908	0.909921	-0.338946	-0.0938073	-2.84099	-3.16015	-8.20912	-0.0366101	-0.0022435	-0.0269175	-0.0541992	0.528076	0.961182	-0.0317678	0.0204629	-0.999216	-0.0118496	-0.596955	0.347388	-9.06481	0.00628518	0.000691695	0.00113805	-0.409668	-0.0568848	1.10303	-0.176318	-0.0362152	-0.96533	-0.189047	-3.13935	3.68481	-8.53561	0.0370616	0.0153856	-0.0433376	-0.0786133	-0.45752	1.09448	
15	0.854064	0.120991	-0.455549	0.220023	8.85035	-0.037139	5.77667	0.0226238	0.0584993	-0.0666383	-0.69043	-0.196777	-0.809082	0.496165	-0.0527116	-0.86656	-0.0107364	8.51046	-0.163753	-4.79231	-0.0569585	0.0126294	-0.0461204	-1.04907	-0.329346	0.278809	0.287214	-0.163027	-0.510704	0.793796	0.230404	-9.21354	4.47891	-0.114931	-0.0201471	-0.0335557	-0.331055	0.889893	-0.627441	0.532257	-0.0226409	-0.0683495	0.843515	0.277875	-1.28083	9.32711	-0.0105947	-0.0344029	0.0365369	-0.0908203	-0.0400391	-1.05176	0.697997	0.187917	-0.235419	-0.649666	0.812634	5.70724	7.88318	-0.216814	0.0348026	-0.0220178	-0.0283203	-0.218506	-1.03296	0.745757	0.0335459	-0.0402581	-0.664154	-0.133938	1.71797	13.1213	-0.00648834	0.078283	-0.0404415	-0.00317383	0.270752	-1.0437	-0.0145311	0.0361031	-0.999119	-0.0156878	-0.404637	0.325845	-9.0554	0.0197192	0.0137391	-0.0163503	-0.1875	-0.300293	1.10986	-0.0310836	-0.0485831	-0.972675	0.224894	-0.866389	-3.57113	-7.80156	0.0378505	0.007026	-0.0151869	-0.273682	0.474609	0.922852	-0.219887	0.909909	-0.339035	-0.0936477	-2.87389	-3.10398	-8.20069	0.0226818	0.0112371	-0.0164368	-0.0522461	0.537109	0.967773	-0.0319902	0.0205555	-0.999212	-0.0114163	-0.633266	0.342447	-9.06527	0.0272549	0.00449784	-0.00164702	-0.409668	-0.0546875	1.11206	-0.177332	-0.0354737	-0.96564	-0.186641	-3.23105	3.65317	-8.58173	0.0967777	-0.0438788	-0.0581366	-0.0810547	-0.450928	1.10132	
16	0.855264	0.122643	-0.453559	0.218556	8.72131	-0.049214	5.67521	0.0515315	0.0646374	-0.110147	-0.690186	-0.198975	-0.817627	0.496077	-0.0518855	-0.866654	-0.0112661	8.42436	-0.09885	-4.70312	-0.00647819	0.00285082	-0.0483984	-1.04443	-0.33374	0.278809	0.287884	-0.161406	-0.510203	0.794206	0.458108	-9.25112	4.43725	0.100935	-0.0409101	-0.0362437	-0.330811	0.885498	-0.622803	0.531916	-0.0215994	-0.0695328	0.843661	0.327223	-1.10207	9.96008	-0.0733045	-0.0595088	0.0116164	-0.0910645	-0.0378418	-1.04956	0.697636	0.188989	-0.235093	-0.64986	0.886501	5.42802	7.87095	0.105647	0.0425778	-0.0458992	-0.0217285	-0.218506	-1.03076	0.745731	0.0338096	-0.0393385	-0.664225	-0.229555	1.98984	12.9781	-0.0342921	0.0383224	-0.0163923	-0.00317383	0.270752	-1.0415	-0.0144801	0.0360368	-0.99912	-0.0158468	-0.401848	0.329637	-9.0282	0.0161489	0.013672	-0.0171154	-0.189453	-0.306885	1.10156	-0.0313394	-0.0486262	-0.972143	0.227139	-0.85851	-3.63692	-7.59071	0.0716278	0.0155201	-0.0191138	-0.269531	0.479004	0.922607	-0.220239	0.909658	-0.339365	-0.0940633	-2.83568	-2.95814	-8.1108	0.0146346	-0.0294682	-0.00126233	-0.0522461	0.532715	0.963379	-0.0321029	0.0207163	-0.999216	-0.0104101	-0.622128	0.335329	-9.08284	0.051524	0.00759103	-0.00647295	-0.409668	-0.0546875	1.10522	-0.178127	-0.0349809	-0.965466	-0.186874	-3.09371	3.6213	-8.53253	-0.0590877	-0.00893303	-0.0137894	-0.083252	-0.455322	1.10132	
17	0.856739	0.125125	-0.450671	0.217342	8.77896	0.0920014	5.82849	0.0938453	0.104147	-0.11673	-0.6875	-0.209717	-0.817383	0.495819	-0.0514573	-0.866821	-0.0117195	8.4992	-0.193643	-4.83837	-0.0111284	0.000894314	-0.0383583	-1.04858	-0.338135	0.286133	0.288004	-0.161142	-0.512007	0.793054	0.547258	-9.3845	4.66227	-0.12905	-0.00487339	-0.032294	-0.331055	0.887695	-0.627441	0.531697	-0.0209322	-0.0701446	0.843765	0.531596	-1.31791	9.98105	0.0277422	-0.0240937	0.0107627	-0.0908203	-0.0400391	-1.04736	0.697112	0.189524	-0.235433	-0.650144	0.731811	5.818	7.8696	-0.0505887	0.00212499	-0.0417147	-0.0217285	-0.216064	-1.0376	0.744951	0.0350487	-0.0401286	-0.664988	-0.200728	1.95389	13.2817	0.111235	0.0250637	-0.0691361	0.0012207	0.268555	-1.04785	-0.0144924	0.0359931	-0.999119	-0.0159594	-0.378675	0.320036	-9.06782	0.0167984	0.0111236	-0.0160691	-0.19165	-0.304688	1.10767	-0.0315292	-0.0485955	-0.972123	0.227201	-0.843415	-3.6521	-7.67882	0.011199	0.00413766	-0.0186448	-0.273926	0.481201	0.925049	-0.219647	0.909587	-0.339693	-0.0949468	-2.89264	-3.06964	-8.2296	-0.0186809	-0.0058729	-0.00303674	-0.0546875	0.537109	0.967773	-0.0321988	0.0208206	-0.999217	-0.00979448	-0.605271	0.324862	-9.05684	0.0546963	0.00276059	-0.00814241	-0.407715	-0.050293	1.10986	-0.178452	-0.0346218	-0.965239	-0.187804	-3.16376	3.39013	-8.44164	-0.016484	-0.0120963	-0.0149433	-0.0761719	-0.459717	1.10132	
18	0.858012	0.127908	-0.447757	0.216725	8.79108	0.392059	5.95518	0.0992433	0.0845702	-0.0910807	-0.678223	-0.220459	-0.821533	0.495833	-0.0511282	-0.866824	-0.0122849	8.64377	-0.00164777	-4.9013	-0.0387773	0.0227073	-0.0400675	-1.04663	-0.335938	0.269531	0.288472	-0.16034	-0.511295	0.793506	0.221833	-9.31922	4.47251	0.104969	-0.00285055	-0.0263254	-0.324463	0.887695	-0.627441	0.531583	-0.0206422	-0.0702141	0.843838	0.290504	-0.920707	9.72275	0.0223157	-0.000848387	-0.00805902	-0.0976562	-0.0400391	-1.04956	0.696499	0.189709	-0.235919	-0.65057	0.882191	5.5451	8.18611	0.0430184	-0.0181972	-0.0313603	-0.0236816	-0.220703	-1.03296	0.744482	0.0345727	-0.0396327	-0.665568	-0.195551	1.763	13.1027	-0.0428926	0.00261695	-0.0463641	-0.00976562	0.270752	-1.0437	-0.0143941	0.0361783	-0.999116	-0.0158565	-0.398668	0.321258	-9.0487	0.016486	0.0103895	-0.0173446	-0.191895	-0.300293	1.10352	-0.0322195	-0.0484429	-0.97131	0.230591	-0.884186	-3.66693	-7.74149	0.141047	-0.0263198	-0.0123284	-0.265381	0.485596	0.915527	-0.220195	0.909458	-0.339785	-0.0945852	-2.89689	-3.05649	-8.10257	0.0466222	-0.00314498	-0.0249624	-0.0522461	0.532715	0.965576	-0.0327144	0.0208928	-0.999206	-0.00898909	-0.643714	0.292426	-9.05393	0.00956544	-0.00797895	-0.000699794	-0.407959	-0.0458984	1.10522	-0.179026	-0.0343924	-0.965287	-0.187052	-3.18301	3.52792	-8.4687	0.0279052	-0.01872	-0.0207975	-0.0786133	-0.459717	1.09912	
19	0.859017	0.129703	-0.445772	0.215763	8.80232	0.559203	6.08339	0.0298404	0.0562847	-0.0827417	-0.677979	-0.224854	-0.819336	0.495998	-0.0510626	-0.866716	-0.0135039	8.65721	-0.0317101	-5.01439	-0.0437279	0.0229188	-0.0487481	-1.04858	-0.338135	0.283691	0.288885	-0.160798	-0.514267	0.79134	0.450002	-9.10142	4.493	-0.232595	0.0176408	-0.0573364	-0.331055	0.89209	-0.620605	0.533268	-0.0214406	-0.0741318	0.842419	0.299651	-1.1986	9.52111	-0.194541	-0.0628342	-0.102459	-0.0957031	-0.03125	-1.052	0.697222	0.186787	-0.234949	-0.650993	0.838334	6.09236	8.14735	-0.2015	-0.0539442	0.0273372	-0.0263672	-0.211914	-1.03296	0.743937	0.0311551	-0.0386405	-0.666404	-0.25158	1.74677	13.1471	-0.185787	-0.0641946	-0.036393	-0.00976562	0.275146	-1.0437	-0.014552	0.036353	-0.999106	-0.0159134	-0.389565	0.334166	-9.0831	0.015231	0.00646845	-0.0165821	-0.1875	-0.300293	1.11401	-0.0337247	-0.0482413	-0.970932	0.232007	-0.900032	-3.73653	-7.65027	-0.0436582	-0.0291484	0.000499527	-0.267822	0.492188	0.922363	-0.22054	0.909403	-0.339631	-0.0948677	-2.92064	-2.95036	-8.1305	0.0241638	-0.0317809	-0.0273445	-0.0546875	0.539551	0.963135	-0.0328962	0.0208953	-0.9992	-0.00898691	-0.630702	0.307007	-9.0528	0.00556494	-0.00518689	0.000997844	-0.405762	-0.0415039	1.10718	-0.179501	-0.0341268	-0.965109	-0.187563	-3.24096	3.48057	-8.42847	-0.024168	-0.0164292	-0.0128557	-0.0742188	-0.45752	1.09229	
20	0.859742	0.130116	-0.445398	0.213387	8.6539	0.353566	5.81818	-0.0385278	-0.0101911	-0.105526	-0.675781	-0.224854	-0.825928	0.496907	-0.0506983	-0.866207	-0.0140745	8.48416	-0.0100169	-4.74639	-0.00771311	0.0660263	-0.036822	-1.04639	-0.338135	0.271973	0.290922	-0.161057	-0.516479	0.789097	0.414099	-9.84935	4.08585	0.0282981	0.0341311	-0.108053	-0.3396	0.887939	-0.620361	0.534273	-0.0210292	-0.0755635	0.841665	0.373325	-1.63484	9.40167	-0.0772694	-0.0763517	-0.102751	-0.09375	-0.0290527	-1.04761	0.699239	0.180486	-0.232026	-0.651654	0.757421	5.37274	8.14648	-0.22478	-0.0617151	0.070609	-0.0334473	-0.196289	-1.04688	0.744191	0.028126	-0.0376098	-0.666314	-0.210263	1.64824	13.2386	-0.232996	-0.0848706	0.0117507	-0.00390625	0.285889	-1.0376	-0.0145963	0.036321	-0.999106	-0.0159958	-0.404964	0.322924	-9.07176	0.0181415	0.0091287	-0.0168774	-0.185547	-0.298096	1.10327	-0.0342107	-0.0483957	-0.970777	0.232549	-0.943631	-3.69869	-7.72413	0.0500796	-0.0182531	-0.000123493	-0.265625	0.48999	0.917725	-0.220576	0.909374	-0.339565	-0.0952941	-2.96853	-3.14742	-8.10527	0.0117234	-0.00386001	-0.0181208	-0.0522461	0.534912	0.969971	-0.0329451	0.0208598	-0.9992	-0.00893253	-0.651744	0.303558	-9.05097	0.00461823	0.00287189	0.00180123	-0.405518	-0.0458984	1.10962	-0.180146	-0.0342263	-0.964856	-0.188228	-3.25512	3.55573	-8.4584	-0.0372669	-0.0182441	0.00360051	-0.0742188	-0.45752	1.09668	
21	0.859985	0.130225	-0.445615	0.211883	8.66723	0.292175	5.71143	-0.0522039	-0.0266811	-0.109879	-0.678223	-0.220459	-0.821533	0.497422	-0.0504938	-0.865923	-0.0141332	8.43176	0.0419054	-4.74379	-0.00340443	0.0597922	-0.0324284	-1.05054	-0.344727	0.274414	0.292421	-0.159763	-0.514605	0.79003	0.469997	-9.43078	4.09174	0.210627	0.0172268	-0.101302	-0.337402	0.892334	-0.622803	0.536067	-0.0185702	-0.0761777	0.840527	0.468702	-1.59725	9.79305	-0.0104347	-0.0904736	-0.0786659	-0.102051	-0.0400391	-1.05176	0.699784	0.179604	-0.232619	-0.651101	0.931181	5.01968	7.96553	-0.0163202	-0.0528303	0.0710698	-0.0354004	-0.200684	-1.04004	0.744849	0.0260992	-0.0390416	-0.665578	-0.0869766	1.70658	13.5605	0.0890479	-0.0736585	0.03198	-0.0144043	0.283691	-1.03979	-0.01467	0.0362462	-0.999104	-0.0161625	-0.418618	0.327076	-9.07365	0.0171765	0.00956695	-0.0159894	-0.189453	-0.304688	1.10767	-0.0342107	-0.0483957	-0.970777	0.232549	-0.943631	-3.69869	-7.72413	0.0500796	-0.0182531	-0.000123493	-0.265625	0.48999	0.917725	-0.220481	0.90933	-0.339679	-0.0955228	-2.92084	-2.84389	-7.96908	-0.0375821	-0.00977943	-0.00877339	-0.0544434	0.532715	0.967773	-0.0327736	0.020913	-0.999201	-0.00930764	-0.643405	0.30103	-9.06687	-0.017304	0.0167148	0.00153741	-0.409912	-0.0524902	1.11206	-0.180228	-0.0343065	-0.964717	-0.188844	-3.18925	3.52652	-8.41789	-0.0469718	-0.00311864	0.00968966	-0.0739746	-0.461914	1.09009	
22	0.861017	0.130599	-0.444542	0.209704	8.69405	0.192585	5.69023	-0.00941168	0.0706794	-0.0879258	-0.67334	-0.227051	-0.827881	0.49801	-0.0499092	-0.865615	-0.014364	8.29006	0.0103686	-4.63866	0.00893803	0.0274088	-0.049755	-1.05078	-0.340332	0.271973	0.293414	-0.159565	-0.514541	0.789744	0.59903	-9.31272	4.52515	-0.057958	0.0242531	-0.00607882	-0.335205	0.887939	-0.622803	0.536715	-0.018065	-0.0782549	0.839933	0.735921	-2.04246	10.4262	-0.00632475	-0.0210546	-0.0139236	-0.102295	-0.0336914	-1.04297	0.698977	0.183194	-0.236393	-0.649608	0.926284	5.72041	8.28233	0.203374	0.00864921	-0.00255698	-0.0305176	-0.214111	-1.03296	0.745319	0.0263578	-0.0404614	-0.664957	-0.12799	1.70964	13.7824	0.0691344	0.00135192	-0.00477759	-0.0078125	0.277344	-1.03735	-0.0148056	0.0361656	-0.999102	-0.0163673	-0.406184	0.326227	-9.05576	0.016743	0.0077027	-0.0158423	-0.1875	-0.300293	1.10352	-0.0326216	-0.0478629	-0.970884	0.23244	-0.892495	-3.76298	-7.61052	-0.152058	0.0646469	-0.0182503	-0.269531	0.483398	0.922607	-0.219289	0.90954	-0.339584	-0.0966075	-2.86738	-3.18207	-8.12441	-0.0288634	-0.0203363	-0.018909	-0.0498047	0.532715	0.963379	-0.0326447	0.0209572	-0.9992	-0.00974889	-0.642824	0.30048	-9.0632	-0.0115936	0.0167168	0.000528488	-0.414307	-0.050293	1.10986	-0.180219	-0.0345506	-0.964696	-0.188915	-3.26228	3.73725	-8.38046	0.00196906	0.000389563	0.00320447	-0.0737305	-0.464111	1.09473	
23	0.862877	0.1318	-0.440673	0.209476	8.56991	0.471817	5.96186	0.0759381	0.166578	-0.0586162	-0.662109	-0.233398	-0.825684	0.497954	-0.0495807	-0.865656	-0.0149315	8.5269	0.0552501	-4.70552	-0.0486432	0.00772895	-0.0339966	-1.04639	-0.342529	0.276855	0.29316	-0.159851	-0.512842	0.790885	0.641357	-9.48724	4.26653	0.119095	0.032241	0.0528865	-0.3396	0.887939	-0.627441	0.536162	-0.0194798	-0.0768297	0.840386	0.69404	-1.15488	10.2231	-0.0401306	0.0957408	0.0426032	-0.0979004	-0.0336914	-1.04297	0.699353	0.182723	-0.23488	-0.649884	0.936776	5.64498	8.21483	-0.126809	0.0415109	-0.0267803	-0.0288086	-0.207275	-1.0376	0.74519	0.0280408	-0.0402131	-0.665048	-0.0624575	1.57263	13.5319	0.00866759	0.0801898	-0.0131265	-0.0102539	0.283691	-1.04199	-0.0147994	0.0363593	-0.999097	-0.016241	-0.412773	0.314993	-9.05994	0.0173277	0.00688543	-0.017587	-0.187256	-0.306885	1.10352	-0.0324241	-0.0479234	-0.971111	0.231508	-0.899631	-3.69555	-7.69701	0.0378594	0.0209735	-0.0226061	-0.271973	0.487793	0.924805	-0.220474	0.909308	-0.339657	-0.0958281	-2.84283	-2.92253	-8.06682	0.0631686	0.0218832	-0.0244808	-0.0522461	0.537109	0.965576	-0.0324306	0.0210444	-0.999201	-0.0101265	-0.617305	0.324635	-9.05353	-0.00655471	0.0137086	-0.00263163	-0.409912	-0.050293	1.10986	-0.18022	-0.0345213	-0.964424	-0.190303	-3.07385	3.54717	-8.46503	-0.0432433	0.00552303	0.00302848	-0.0693359	-0.461914	1.09009	
24	0.864772	0.132494	-0.436487	0.209984	8.55295	0.643939	6.29555	0.0494608	0.169852	-0.0284896	-0.655518	-0.230957	-0.836426	0.497608	-0.0494899	-0.865846	-0.0157231	8.60708	-0.0737423	-4.85536	-0.0143859	0.000567047	-0.0410602	-1.05078	-0.342529	0.276855	0.291543	-0.162148	-0.513024	0.790896	0.563535	-9.05593	4.81327	-0.0968138	0.0460736	0.1022	-0.333252	0.889893	-0.627441	0.536534	-0.0238916	-0.0792007	0.839814	0.585107	-1.22878	9.94416	-0.173833	0.10144	-0.0114478	-0.0983887	-0.0246582	-1.0542	0.698919	0.18478	-0.235053	-0.649707	0.995337	5.09025	8.03092	0.177799	0.0636667	-0.0339986	-0.0307617	-0.209717	-1.03076	0.745371	0.0301225	-0.0401076	-0.66476	-0.125164	1.71799	13.1723	0.0528349	0.0672974	-0.00815798	-0.012207	0.279541	-1.04395	-0.0148701	0.0363056	-0.999095	-0.0164314	-0.404655	0.315397	-9.07713	0.0179299	0.0100025	-0.0169529	-0.1875	-0.30249	1.11401	-0.0324563	-0.0478675	-0.971151	0.231348	-0.848538	-3.72268	-7.53924	-0.00641247	0.0165781	-0.0230353	-0.267578	0.487793	0.917725	-0.219265	0.909522	-0.33975	-0.0962441	-2.85683	-3.22426	-8.331	-0.0421151	-0.0068962	-0.010792	-0.045166	0.532715	0.965576	-0.0326582	0.0209725	-0.999193	-0.0103846	-0.634177	0.322708	-9.08904	-0.00427968	0.000370691	0.00551091	-0.405273	-0.0524902	1.10767	-0.180204	-0.0345159	-0.964608	-0.189384	-3.20375	3.74295	-8.47561	0.0400195	0.00902419	-0.0102249	-0.0761719	-0.464111	1.09229	
25	0.866066	0.1329	-0.43403	0.20949	8.37722	0.813289	6.28287	0.00390347	0.0670542	-0.0555328	-0.653076	-0.233154	-0.842773	0.497744	-0.0494626	-0.865752	-0.0166808	8.65526	0.194414	-4.73309	-0.0568804	0.0229555	-0.0318902	-1.05273	-0.344727	0.276855	0.290943	-0.165021	-0.512808	0.790663	0.42076	-9.68671	4.26791	0.0588803	0.0934721	0.0617735	-0.324463	0.889893	-0.622803	0.536463	-0.0265045	-0.0775992	0.83993	0.358763	-1.32385	9.60757	0.0396971	0.123825	0.0227178	-0.0915527	-0.0246582	-1.0498	0.699273	0.185305	-0.234865	-0.649244	0.731309	6.07309	8.33563	-0.161111	0.0121021	0.0142622	-0.0285645	-0.211914	-1.03296	0.74614	0.0293623	-0.0391686	-0.663987	-0.258836	1.54088	13.1023	-0.0457243	0.0171756	0.0364697	-0.00805664	0.283691	-1.04199	-0.0149535	0.0362623	-0.999092	-0.0166202	-0.408758	0.305681	-9.05735	0.0180641	0.00933767	-0.0178034	-0.1875	-0.300293	1.10986	-0.0339943	-0.0480821	-0.971466	0.229753	-0.933511	-3.61983	-7.84414	0.0822163	-0.0385654	0.00337424	-0.267578	0.487793	0.922607	-0.220315	0.909103	-0.340185	-0.0962637	-2.96756	-2.98698	-8.26153	0.0588581	-0.00951137	-0.000309299	-0.0476074	0.532715	0.963379	-0.0329959	0.0210168	-0.999186	-0.00981739	-0.629725	0.318667	-9.04958	0.0360825	-0.00501194	-0.00191406	-0.409912	-0.0480957	1.10742	-0.179837	-0.0345161	-0.964464	-0.190464	-3.16117	3.77589	-8.47778	-0.0818229	0.0210392	0.0130182	-0.0737305	-0.464111	1.09473	
26	0.866627	0.131957	-0.434045	0.207728	8.36864	0.565287	6.10515	-0.0773913	-0.00664507	-0.0514034	-0.652832	-0.237549	-0.838623	0.497936	-0.0500701	-0.865588	-0.0176387	8.44393	0.0252218	-4.75121	-0.032118	0.0161908	-0.0139092	-1.04614	-0.344727	0.276855	0.290946	-0.166331	-0.508673	0.793055	0.332279	-9.0371	4.4251	0.147992	0.071744	0.0957488	-0.30957	0.885254	-0.634277	0.537937	-0.0286086	-0.0763938	0.839029	0.260257	-1.4484	9.74156	-0.0536669	0.109424	-0.0722233	-0.0827637	-0.0224609	-1.0542	0.701123	0.181684	-0.232504	-0.649122	0.886103	5.12853	8.009	-0.0779423	0.00608971	0.0467987	-0.0246582	-0.200684	-1.0376	0.747008	0.0274466	-0.0386383	-0.663123	-0.207552	1.6266	13.2484	-0.0848674	-0.0210907	0.0345703	-0.0078125	0.279541	-1.03101	-0.0149962	0.0362404	-0.999091	-0.0167134	-0.398815	0.325959	-9.07159	0.017237	0.00908339	-0.0177584	-0.189941	-0.295898	1.10327	-0.0346518	-0.0480768	-0.971008	0.231583	-0.934446	-3.6881	-7.58845	0.154645	-0.0405199	-0.0120764	-0.265381	0.485596	0.920166	-0.219107	0.90914	-0.340513	-0.0975044	-2.96445	-2.96318	-8.13082	-0.090972	-0.0299384	0.00809841	-0.0473633	0.532715	0.965576	-0.0333555	0.0209913	-0.999179	-0.00940951	-0.654028	0.296704	-9.05064	0.0158439	-0.0029336	0.000990017	-0.40332	-0.0458984	1.11206	-0.180149	-0.0343283	-0.964208	-0.191495	-3.26215	3.45942	-8.48203	-0.0137144	-0.0168395	-0.0132697	-0.0693359	-0.461914	1.09692	
27	0.866838	0.131677	-0.434166	0.206768	8.35531	0.521206	6.05432	-0.0570862	-0.00907374	-0.0598278	-0.655518	-0.230957	-0.843018	0.497809	-0.0501092	-0.865664	-0.0173407	8.42007	0.0234636	-4.67494	0.0113475	-4.71671e-06	-0.00473927	-1.04395	-0.344727	0.269775	0.290659	-0.16947	-0.510564	0.791279	0.440365	-9.36878	4.084	-0.15834	0.0984748	0.0358872	-0.30957	0.891846	-0.629883	0.539068	-0.0309997	-0.0757527	0.838276	0.383356	-1.86588	9.48044	0.0274977	0.0950753	-0.0467297	-0.0759277	-0.0244141	-1.06079	0.701506	0.183128	-0.234171	-0.647702	0.803393	5.51552	7.79569	0.133985	0.012954	0.0346115	-0.0244141	-0.205078	-1.0354	0.747726	0.028047	-0.0395934	-0.662232	-0.0649622	1.94902	13.1124	0.0720067	0.0141192	0.0361154	-0.0100098	0.281738	-1.03101	-0.014952	0.0364038	-0.999088	-0.01659	-0.40572	0.318225	-9.06297	0.0211597	0.0112365	-0.0180615	-0.189697	-0.298096	1.10547	-0.0363366	-0.0485977	-0.970864	0.23182	-0.947105	-3.71271	-7.75296	-0.00745214	-0.0234446	0.0380003	-0.260986	0.485596	0.917969	-0.220281	0.908804	-0.340552	-0.0978547	-2.91792	-3.00261	-8.07904	0.101485	-0.0220856	-0.0238112	-0.045166	0.532715	0.967773	-0.0335263	0.0209819	-0.999173	-0.00944973	-0.654997	0.306769	-9.05441	0.00125469	0.00405654	0.00141047	-0.409912	-0.0524902	1.10742	-0.180737	-0.0342625	-0.964429	-0.189833	-3.27689	3.74327	-8.44606	0.03651	-0.0127618	-0.018189	-0.0742188	-0.455322	1.09229	
28	0.86726	0.130605	-0.433982	0.206062	8.23784	0.492432	6.04162	-0.0220821	0.0218304	0.017029	-0.652832	-0.237549	-0.838623	0.49647	-0.0498567	-0.866472	-0.0160597	8.37009	0.118828	-4.87468	3.25973e-05	-0.0515525	-0.0161602	-1.04614	-0.344727	0.279297	0.288327	-0.172666	-0.510614	0.791408	-0.0805966	-8.54709	4.32604	-0.10474	0.0590362	0.157683	-0.303223	0.898193	-0.627686	0.53911	-0.0337857	-0.0776103	0.837971	0.0578699	-1.52247	10.0008	-0.242607	0.111953	0.00226773	-0.083252	-0.0136719	-1.05664	0.701104	0.184495	-0.236254	-0.646992	0.861188	6.03997	8.41425	0.00198251	-0.0189588	-0.00386965	-0.0239258	-0.218506	-1.03296	0.747772	0.027727	-0.0404287	-0.662143	-0.0945373	2.39625	13.8442	-0.00539366	-0.0268594	-0.0430391	-0.012207	0.279541	-1.0376	-0.0149449	0.0363844	-0.999088	-0.0166364	-0.40739	0.323405	-9.05487	0.0207579	0.012866	-0.0181751	-0.187256	-0.304688	1.10352	-0.0377744	-0.0489292	-0.970247	0.234094	-1.00022	-3.71548	-7.51625	0.0952662	-0.0340759	-0.00711915	-0.257324	0.496582	0.922363	-0.22103	0.908634	-0.340577	-0.0976568	-2.88747	-2.88714	-7.99532	0.0697766	-0.00579576	-0.0232811	-0.045166	0.530518	0.963379	-0.0335679	0.0210037	-0.999171	-0.00950231	-0.6701	0.302202	-9.03744	0.00138642	0.00563153	0.000134425	-0.407471	-0.0524902	1.10986	-0.181234	-0.0342781	-0.964387	-0.189569	-3.26268	3.58186	-8.43208	0.0149862	-0.0204418	-0.00481001	-0.0693359	-0.464111	1.09473	
29	0.867374	0.130263	-0.433819	0.206143	8.37517	0.441997	6.15971	-0.0199455	0.0194708	0.0131214	-0.650635	-0.237549	-0.842773	0.49579	-0.0493914	-0.866899	-0.0154221	8.33567	-0.140743	-4.91288	0.0524039	-0.053192	-0.0276721	-1.04834	-0.346924	0.281738	0.286754	-0.175609	-0.514216	0.788997	0.687042	-9.16419	4.84617	-0.411266	0.0778359	0.114463	-0.299072	0.902344	-0.611816	0.538462	-0.0404882	-0.0805617	0.837812	0.574587	-2.20093	9.34979	-0.101783	0.170166	0.0458644	-0.0681152	-0.00463867	-1.05688	0.701675	0.182222	-0.233956	-0.647851	0.931431	6.12062	7.808	-0.272729	0.0164604	-0.0227372	-0.0290527	-0.200928	-1.03296	0.747238	0.0268504	-0.0392149	-0.662855	0.08933	2.26923	13.7629	-0.114861	0.0371107	-0.084895	-0.0119629	0.277344	-1.03735	-0.0148834	0.0363043	-0.999089	-0.0167927	-0.401944	0.334286	-9.06858	0.0165754	0.0156187	-0.0164688	-0.185303	-0.300293	1.10132	-0.0377744	-0.0489292	-0.970247	0.234094	-1.00022	-3.71548	-7.51625	0.0952662	-0.0340759	-0.00711915	-0.257324	0.496582	0.922363	-0.22103	0.908634	-0.340577	-0.0976568	-2.88747	-2.88714	-7.99532	0.0697766	-0.00579576	-0.0232811	-0.045166	0.530518	0.963379	-0.0335679	0.0210037	-0.999171	-0.00950231	-0.6701	0.302202	-9.03744	0.00138642	0.00563153	0.000134425	-0.407471	-0.0524902	1.10986	-0.181524	-0.0345149	-0.964374	-0.189315	-3.23336	3.54913	-8.50007	0.0240469	-0.0219658	0.00589892	-0.0671387	-0.461914	1.09692	
30	0.867353	0.130106	-0.433811	0.206347	8.55493	0.358591	6.33079	0.0145277	-0.00954462	0.00196071	-0.646729	-0.22876	-0.844971	0.494525	-0.0487367	-0.867674	-0.0145428	8.75992	0.212464	-4.81766	-0.000688918	-0.0439414	-0.014467	-1.04834	-0.346924	0.288818	0.284858	-0.178229	-0.514598	0.788847	-0.346951	-10.1737	3.80092	0.184803	0.033655	0.120285	-0.294678	0.904297	-0.616455	0.536643	-0.0423373	-0.0772643	0.839198	-0.0890583	-1.67422	9.64719	0.105238	0.12824	0.110401	-0.059082	-0.0090332	-1.05444	0.701013	0.180609	-0.232535	-0.649529	0.763278	5.4156	8.06793	0.0394978	0.00639568	-0.0877039	-0.0334473	-0.200928	-1.03296	0.746342	0.0279782	-0.0382202	-0.663875	-0.585458	2.06134	13.509	0.0930005	0.0662249	-0.0675514	-0.00805664	0.283936	-1.03345	-0.0147302	0.0362364	-0.999091	-0.0169453	-0.407727	0.328272	-9.07918	0.0183658	0.0194204	-0.0150445	-0.187744	-0.293701	1.10742	-0.0390334	-0.0489377	-0.969639	0.236392	-1.00315	-3.78683	-7.65816	0.0835864	-0.041675	-0.00399147	-0.261475	0.496582	0.919922	-0.22105	0.908723	-0.34041	-0.097365	-2.91925	-3.03197	-8.12707	0.00341589	0.00494475	-0.00987498	-0.0476074	0.537109	0.972168	-0.0334091	0.0209134	-0.999183	-0.00895295	-0.642652	0.30118	-9.06826	0.0282729	-0.000955104	0.00132302	-0.410156	-0.0458984	1.11426	-0.18189	-0.0349537	-0.964098	-0.190287	-3.09702	3.83937	-8.4503	-0.0834128	-0.00509499	0.0225263	-0.0644531	-0.470703	1.09937	
31	0.866793	0.130565	-0.434605	0.206739	8.6596	0.582964	6.26391	0.0148021	-0.0543247	0.0199203	-0.655273	-0.233154	-0.847168	0.493982	-0.049154	-0.867957	-0.0146653	8.55843	-0.092271	-4.97588	-0.00864947	-0.0145221	-0.00631456	-1.04858	-0.342529	0.286133	0.284192	-0.177523	-0.511151	0.791483	0.514154	-8.55794	4.58516	0.00650359	-0.00618932	0.043112	-0.294678	0.897949	-0.618652	0.536874	-0.0423638	-0.0729274	0.839437	0.183785	-1.37453	9.18222	0.0884819	0.0703058	-0.00978594	-0.0563965	-0.015625	-1.05444	0.698088	0.186281	-0.235616	-0.649968	0.952944	5.9586	8.21208	0.207646	0.0342551	-0.132038	-0.0283203	-0.216309	-1.03296	0.744928	0.0292484	-0.0376875	-0.665437	-0.0906525	2.05057	13.2519	-0.0311926	0.0635831	-0.122748	-0.00756836	0.275146	-1.03296	-0.0147121	0.0362109	-0.999092	-0.0169647	-0.389169	0.30572	-9.0275	0.0222628	0.0141344	-0.0174398	-0.185303	-0.304688	1.10352	-0.0411877	-0.0490714	-0.968971	0.238727	-1.0593	-3.81049	-7.42531	0.0817326	-0.0599683	-9.11842e-05	-0.250977	0.498779	0.910645	-0.221369	0.90856	-0.340571	-0.0975949	-3.09452	-2.97355	-8.14113	-0.00191658	-0.0223875	-0.0140497	-0.0473633	0.530518	0.965576	-0.0336522	0.0208909	-0.999178	-0.00865512	-0.646912	0.290696	-9.05552	0.0293714	-0.00970042	0.00207085	-0.409912	-0.050293	1.11206	-0.18233	-0.0350069	-0.963786	-0.191434	-3.34125	3.47631	-8.51699	0.00936903	-0.018683	-0.0103349	-0.0693359	-0.466309	1.09009	
32	0.86593	0.130613	-0.436226	0.206912	8.49263	0.563124	5.98656	-0.00795127	-0.0876804	0.0160983	-0.655273	-0.235352	-0.84082	0.493594	-0.0498204	-0.868132	-0.0151327	8.443	0.0551058	-4.73667	-0.0519398	0.000479877	-0.00303933	-1.05273	-0.342529	0.286133	0.282934	-0.178728	-0.515272	0.788986	-0.333045	-9.5171	3.85207	-0.141779	-0.0243185	0.00092711	-0.292725	0.908691	-0.612061	0.536792	-0.0415902	-0.0718147	0.839623	-0.0571517	-1.57022	9.13833	0.0561984	-0.000144872	0.00852723	-0.0585938	-0.0178223	-1.05444	0.697681	0.182005	-0.232349	-0.652786	0.787386	5.31923	8.06831	-0.283855	-0.0567578	-0.0741216	-0.0266113	-0.205322	-1.03296	0.742619	0.0303393	-0.0375566	-0.667971	-0.213876	1.32473	13.1483	0.0712196	0.0277501	-0.147988	-0.00976562	0.275146	-1.0437	-0.0145031	0.0363911	-0.999093	-0.0167132	-0.389815	0.312519	-9.05993	0.0222099	0.015338	-0.0168678	-0.193848	-0.30249	1.10767	-0.0419005	-0.0493954	-0.969038	0.238265	-1.06192	-3.83131	-7.59685	-0.022595	-0.00607641	0.00776635	-0.253174	0.500977	0.922119	-0.221036	0.908612	-0.340349	-0.0986406	-2.97622	-3.12116	-8.16722	-0.0171861	-0.0298542	-0.0193315	-0.0407715	0.539551	0.969971	-0.0342069	0.0207063	-0.999158	-0.00923535	-0.670919	0.303941	-9.06334	-0.0152316	-0.00415033	0.00463664	-0.405518	-0.0480957	1.11426	-0.183145	-0.0352205	-0.963871	-0.190184	-3.29182	3.67033	-8.50865	0.0431364	-0.0281001	-0.00924433	-0.0646973	-0.464111	1.09692	
33	0.86496	0.129555	-0.438591	0.206633	8.69131	0.480732	5.98239	-0.0783031	-0.0877314	0.03438	-0.664551	-0.226807	-0.83667	0.493538	-0.0503164	-0.868128	-0.0155938	8.36444	0.0627836	-4.82415	-0.0314766	0.00761374	-0.012654	-1.04639	-0.340332	0.288574	0.28422	-0.17658	-0.513267	0.790313	0.238327	-9.17185	4.19496	0.126547	-0.0252481	-0.0553302	-0.296875	0.900146	-0.616455	0.537739	-0.0374941	-0.0672839	0.839586	0.0702313	-1.17802	9.53667	0.237995	-0.0410932	-0.0322608	-0.0646973	-0.0310059	-1.0564	0.696616	0.183664	-0.233912	-0.652901	0.990117	5.24611	8.31243	0.1947	-0.00421351	-0.0464026	-0.0288086	-0.207275	-1.03979	0.741903	0.0294551	-0.0373296	-0.668819	-0.0473297	1.07177	13.1293	-0.0569064	-0.016158	-0.0324325	-0.0078125	0.277344	-1.0354	-0.0143652	0.0365298	-0.999093	-0.0165174	-0.393874	0.329451	-9.0763	0.0201837	0.0117659	-0.0171996	-0.191895	-0.300293	1.10986	-0.0428639	-0.0495698	-0.968522	0.240145	-1.12315	-3.79783	-7.60289	0.134399	-0.0126979	-0.0204981	-0.253174	0.503174	0.912842	-0.221961	0.908381	-0.340448	-0.0983482	-2.99745	-2.8698	-7.95198	0.0439015	0.00528636	-0.0199593	-0.0429688	0.537354	0.969971	-0.0343937	0.0206391	-0.999147	-0.0097901	-0.671205	0.280175	-9.04294	-0.0247961	0.00383678	0.00531875	-0.40332	-0.050293	1.10742	-0.183935	-0.0354818	-0.96359	-0.190794	-3.3792	3.50407	-8.4357	-0.0285959	-0.0280261	0.00973674	-0.0671387	-0.464111	1.09473	
34	0.864524	0.12867	-0.439973	0.206072	8.66698	0.221449	5.95003	-0.0260371	-0.0422104	-0.00515344	-0.662354	-0.226807	-0.834473	0.493083	-0.0504328	-0.868381	-0.0155225	8.45854	-0.0774067	-4.80306	-0.00441244	-0.00236039	-0.0103825	-1.05078	-0.342529	0.286133	0.284867	-0.176629	-0.516268	0.788112	0.0230779	-9.44697	3.93644	-0.179156	0.0125678	-0.0644677	-0.299072	0.910889	-0.609863	0.538312	-0.0367735	-0.0690854	0.839104	0.175371	-1.37989	9.86377	-0.133348	-0.0572384	-0.0344547	-0.0646973	-0.0288086	-1.0564	0.697217	0.181942	-0.2336	-0.652853	0.769847	5.54481	8.20194	-0.138449	-0.0294922	0.0316215	-0.0356445	-0.198486	-1.0376	0.741962	0.0288236	-0.037983	-0.668744	-0.177351	1.22698	13.4459	-0.0210992	-0.0228845	0.0163969	-0.0144043	0.281738	-1.03979	-0.0144291	0.0364518	-0.999091	-0.0167115	-0.384518	0.31558	-9.05621	0.0160593	0.0104381	-0.016966	-0.191895	-0.300293	1.10352	-0.0423831	-0.0494608	-0.968479	0.240428	-1.03508	-3.88146	-7.40862	-0.0587189	0.052162	-0.0221555	-0.255615	0.507568	0.91748	-0.220937	0.90859	-0.340414	-0.0988366	-2.91204	-3.09846	-8.03099	-0.0456173	-0.0100654	-0.0178256	-0.0380859	0.532715	0.967773	-0.0343175	0.020614	-0.999143	-0.0105577	-0.680903	0.305139	-9.0333	-0.056039	0.0142709	0.00566588	-0.405518	-0.050293	1.10986	-0.184601	-0.0359805	-0.963561	-0.190205	-3.1779	3.59525	-8.23273	0.032835	-0.0263403	0.00441267	-0.0671387	-0.461914	1.10132	
35	0.864522	0.128307	-0.440084	0.206068	8.7027	0.28126	6.00021	-0.00789713	0.00785541	0.00996369	-0.660156	-0.224609	-0.832275	0.492395	-0.0505028	-0.868774	-0.015136	8.48823	0.0120272	-4.7938	0.00377017	-0.0251442	-0.00556868	-1.04639	-0.338135	0.290771	0.28482	-0.177389	-0.518936	0.786203	0.103761	-9.565	4.18908	-0.129944	0.00900398	-0.0233733	-0.299072	0.908691	-0.607422	0.53863	-0.0383916	-0.0732417	0.838475	0.104438	-1.94639	10.1726	-0.15057	-0.0093773	-0.00862011	-0.0649414	-0.0222168	-1.052	0.698197	0.181347	-0.233613	-0.651966	1.01277	5.2824	8.20582	0.0810468	0.0238091	0.0482591	-0.0244141	-0.207275	-1.0376	0.742762	0.0281655	-0.0380794	-0.667878	-0.0638616	1.81699	13.4991	-0.0126123	1.67282e-05	0.0351126	-0.0144043	0.283936	-1.03125	-0.0144834	0.0364131	-0.999091	-0.0167918	-0.39557	0.317168	-9.04718	0.0185153	0.00774516	-0.0168304	-0.189697	-0.298096	1.10767	-0.0423831	-0.0494608	-0.968479	0.240428	-1.03508	-3.88146	-7.40862	-0.0587189	0.052162	-0.0221555	-0.255615	0.507568	0.91748	-0.220937	0.90859	-0.340414	-0.0988366	-2.91204	-3.09846	-8.03099	-0.0456173	-0.0100654	-0.0178256	-0.0380859	0.532715	0.967773	-0.0340513	0.0205458	-0.999142	-0.0115755	-0.653361	0.35326	-9.03968	-0.0381942	0.0144537	0.00490659	-0.403076	-0.0524902	1.10986	-0.185437	-0.0365649	-0.963449	-0.189849	-3.20496	3.73865	-8.19783	-0.00252799	-0.0305321	0.0133507	-0.0649414	-0.461914	1.09448	
36	0.864625	0.128097	-0.439648	0.206699	8.63213	0.322952	6.10268	0.00648844	0.0178114	0.0268637	-0.669189	-0.222412	-0.843018	0.491981	-0.0503625	-0.869027	-0.0144934	8.49228	-0.0531244	-4.91754	0.0334362	-0.00597821	-0.0146542	-1.04395	-0.34668	0.293457	0.28482	-0.177389	-0.518936	0.786203	0.103761	-9.565	4.18908	-0.129944	0.00900398	-0.0233733	-0.299072	0.908691	-0.607422	0.539017	-0.0397684	-0.0741712	0.83808	0.145989	-2.04799	9.91747	-0.0441454	0.0392223	-0.00293105	-0.0654297	-0.015625	-1.05884	0.698728	0.181521	-0.233577	-0.651361	0.812353	5.82907	8.17151	-0.0598461	0.0253991	0.0055314	-0.0290527	-0.198486	-1.04224	0.743333	0.0278283	-0.0378323	-0.667271	-0.0813563	1.91754	13.5301	0.00539466	0.0252975	0.00790273	-0.00805664	0.283936	-1.0376	-0.0144763	0.0365462	-0.999086	-0.0167814	-0.399483	0.32073	-9.06013	0.0172461	0.00742666	-0.0172155	-0.1875	-0.300293	1.10132	-0.0428444	-0.0492397	-0.968722	0.239411	-1.05744	-3.85556	-7.46968	-0.0309325	-0.00738689	-0.0151676	-0.246582	0.500977	0.919922	-0.221827	0.908463	-0.340519	-0.0976449	-2.91957	-2.97208	-8.06009	0.0349605	0.0351462	-0.0140424	-0.0407715	0.537354	0.963379	-0.0339921	0.0203983	-0.99914	-0.0121252	-0.649528	0.341477	-9.04126	-0.0193743	0.010109	0.00920599	-0.403076	-0.0546875	1.11206	-0.184926	-0.0368635	-0.963433	-0.190369	-3.16849	3.66961	-8.25854	0.00958766	0.0389643	0.01044	-0.0649414	-0.461914	1.09009	
37	0.864563	0.128181	-0.439508	0.207206	8.61006	0.326944	6.10257	0.0274618	0.00873701	0.0305539	-0.662354	-0.224609	-0.838623	0.491896	-0.0500417	-0.869103	-0.0139022	8.52128	0.0145959	-4.89234	0.0452912	0.00207783	-0.0170546	-1.04639	-0.338135	0.28833	0.28333	-0.178184	-0.518875	0.786602	0.124349	-9.65915	4.14177	-0.00479411	-0.00361491	0.0456673	-0.296875	0.910889	-0.605225	0.53849	-0.040385	-0.074181	0.838388	0.151452	-2.14034	9.74223	-0.0232593	0.0419554	0.0572569	-0.0654297	-0.0134277	-1.05664	0.69947	0.180329	-0.232694	-0.651212	0.910881	5.63071	8.01861	-0.120792	0.0107285	0.043082	-0.03125	-0.200684	-1.0376	0.743455	0.0275805	-0.0371031	-0.667186	-0.118391	1.99587	13.2551	-0.0506285	0.0444349	-0.00380105	-0.012207	0.283691	-1.0354	-0.0145361	0.0365184	-0.999085	-0.0168679	-0.397907	0.316559	-9.06035	0.0180685	0.00770541	-0.0172663	-0.189697	-0.298096	1.10327	-0.0432954	-0.0494056	-0.968999	0.238173	-1.06967	-3.84773	-7.54631	-0.0952003	-0.00609265	0.00532617	-0.250977	0.503174	0.922119	-0.221144	0.908524	-0.340811	-0.0976041	-2.98892	-3.13189	-8.17659	-0.0127796	0.00918281	-0.00863434	-0.0498047	0.532715	0.963379	-0.0344254	0.0201536	-0.999125	-0.012585	-0.656419	0.373009	-9.05699	-0.00313446	-0.00929834	0.0111219	-0.405273	-0.0546875	1.10986	-0.184395	-0.0369917	-0.963519	-0.190424	-3.30026	3.76248	-8.25321	0.00234032	0.0451057	0.0140391	-0.0693359	-0.464111	1.09229	
38	0.864092	0.127962	-0.440047	0.208154	8.53458	0.504239	6.06686	-0.0104213	-0.0318692	0.0464675	-0.662598	-0.222412	-0.834473	0.491712	-0.0495108	-0.869249	-0.0131938	8.44303	-0.0718231	-4.92695	0.0258358	0.00799079	-0.0257925	-1.04639	-0.340332	0.293213	0.282016	-0.177444	-0.517061	0.788434	0.106867	-9.32731	4.18824	0.103498	-0.0463234	0.0617403	-0.292725	0.910889	-0.609863	0.537611	-0.039469	-0.0702642	0.839333	0.0472533	-1.42223	9.65755	0.17921	0.0587811	0.0496248	-0.0627441	-0.0244141	-1.052	0.699483	0.180487	-0.233997	-0.650687	0.876412	5.69343	7.86571	0.152329	-0.016185	-0.025383	-0.0332031	-0.205322	-1.0354	0.743778	0.0288767	-0.0385134	-0.666692	-0.308391	2.41925	13.1924	0.121118	-0.0109185	0.0210908	-0.012207	0.281738	-1.0376	-0.0144919	0.0366984	-0.999082	-0.016694	-0.390915	0.313017	-9.05635	0.0190094	0.00843035	-0.0171353	-0.1875	-0.300293	1.10986	-0.0437457	-0.0497281	-0.969233	0.237069	-1.09929	-3.81675	-7.64267	-0.0837579	-0.00479049	0.016301	-0.246338	0.494385	0.917725	-0.222003	0.908213	-0.341209	-0.0971649	-3.03281	-2.98912	-8.15263	0.0607195	0.00648567	-0.0088495	-0.0473633	0.532715	0.965576	-0.0345921	0.0200582	-0.999129	-0.0119676	-0.659817	0.360701	-9.04446	0.0429687	0.00608991	0.000844926	-0.400879	-0.0524902	1.1167	-0.183958	-0.0370826	-0.963353	-0.191666	-3.26728	3.7355	-8.35064	-0.0528134	0.0185139	0.0110295	-0.0646973	-0.464111	1.09473	
39	0.863618	0.12754	-0.441013	0.208339	8.48716	0.275429	6.00666	-0.00923219	-0.0442043	0.00916011	-0.662354	-0.224609	-0.834473	0.491901	-0.0486794	-0.869195	-0.0127624	8.45338	0.149024	-4.88329	0.0142244	0.017423	-0.0388856	-1.05078	-0.340332	0.293213	0.281032	-0.176846	-0.516378	0.789367	0.340693	-9.24416	4.18625	0.0486349	-0.0268769	0.017742	-0.294678	0.906494	-0.607422	0.536766	-0.0385969	-0.0675207	0.840139	0.128659	-1.20351	9.34409	0.0822543	0.0203563	0.0548891	-0.0625	-0.0266113	-1.05859	0.698305	0.182724	-0.236197	-0.650533	0.754513	5.55478	7.88262	0.258373	-0.0185202	-0.0758609	-0.0285645	-0.21167	-1.0376	0.742994	0.0291995	-0.0399148	-0.667469	-0.225951	2.20444	13.1028	0.0164339	-0.0211894	-0.102584	-0.0141602	0.275146	-1.04175	-0.0146005	0.036635	-0.99908	-0.0168699	-0.399921	0.318048	-9.05434	0.018649	0.00712724	-0.0176914	-0.189697	-0.30249	1.10767	-0.0437537	-0.0501464	-0.969446	0.236106	-1.12842	-3.76226	-7.58746	-0.034992	0.0156692	0.00787791	-0.244141	0.496582	0.922363	-0.222353	0.90805	-0.341505	-0.0968401	-3.02123	-2.88101	-8.05989	0.0177831	0.0108907	-0.0148354	-0.0476074	0.534912	0.967773	-0.0346405	0.0201031	-0.999136	-0.0110923	-0.681264	0.328756	-9.05526	0.0319272	0.0119204	-0.00258419	-0.407471	-0.0524902	1.11206	-0.183134	-0.0368639	-0.963341	-0.192554	-3.29346	3.78075	-8.44206	-0.0317357	0.0475527	-0.00408224	-0.0671387	-0.464111	1.09009	
40	0.863219	0.127939	-0.441961	0.207736	8.63589	0.436131	5.98665	-0.00929832	-0.0462777	-0.0247897	-0.671387	-0.222412	-0.834473	0.492073	-0.0484611	-0.869109	-0.0128628	8.40509	-0.0715689	-4.8872	-0.0133639	0.0232077	-0.0272309	-1.04858	-0.342529	0.291016	0.28055	-0.175923	-0.517355	0.789105	0.283826	-9.10534	4.3766	-0.0958884	-0.0475164	-0.0258369	-0.299072	0.915283	-0.605225	0.536318	-0.0375657	-0.0671667	0.8405	0.184309	-1.36093	9.22397	0.0565261	-0.0404709	0.00852597	-0.0625	-0.0266113	-1.0542	0.697439	0.178218	-0.234438	-0.653343	0.964462	5.31711	8.04197	-0.309165	-0.065849	-0.0624245	-0.0419922	-0.200928	-1.03296	0.740947	0.0288987	-0.0412316	-0.669674	-0.117231	1.22484	13.6235	0.0492727	-0.0356116	-0.113903	-0.0141602	0.272949	-1.03955	-0.0147429	0.03655	-0.999077	-0.017056	-0.39326	0.322748	-9.05706	0.017297	0.00735321	-0.0163326	-0.191895	-0.298096	1.10132	-0.0421101	-0.0501182	-0.969842	0.234781	-1.10424	-3.75481	-7.56058	-0.048289	0.0766856	-0.0249176	-0.25293	0.498779	0.91748	-0.221708	0.9083	-0.341227	-0.0969533	-2.96027	-3.09583	-8.19349	-0.0135041	-0.00235259	-0.0361744	-0.045166	0.530518	0.963379	-0.0344502	0.0203399	-0.999143	-0.0105783	-0.66585	0.326042	-9.05116	0.0274488	0.0208558	-0.00868522	-0.400879	-0.050293	1.10986	-0.182586	-0.0361616	-0.963415	-0.192836	-3.27152	3.66345	-8.48124	-0.00160128	0.0222029	-0.0302706	-0.0690918	-0.468506	1.09253	
41	0.862944	0.128435	-0.442567	0.207284	8.63123	0.487294	5.99105	0.0148534	-0.0370998	-0.0174185	-0.671143	-0.229004	-0.834473	0.492192	-0.0483249	-0.869047	-0.0129822	8.45247	0.0289761	-4.83358	-0.0120728	0.0239604	-0.0311096	-1.05054	-0.346924	0.291016	0.281378	-0.174074	-0.517349	0.789224	0.0978734	-9.33264	4.03308	0.0877683	-0.038583	-0.0709197	-0.303223	0.906738	-0.60498	0.535856	-0.0354216	-0.0669338	0.840906	0.184761	-1.09837	9.55531	0.0526749	-0.0665085	0.0157457	-0.0668945	-0.0310059	-1.0542	0.696419	0.180197	-0.236667	-0.653084	1.06657	5.0352	8.34456	0.249656	-0.00778069	-0.0190844	-0.032959	-0.20752	-1.0354	0.740898	0.0296237	-0.0420799	-0.669643	0.0158475	1.06506	13.4414	0.0764943	0.0156957	0.00909727	-0.0205078	0.272949	-1.03296	-0.0147761	0.0365232	-0.999076	-0.0171487	-0.387893	0.328363	-9.07885	0.0172091	0.00930694	-0.0178338	-0.189697	-0.30249	1.10352	-0.0397482	-0.0497533	-0.970593	0.232151	-1.04708	-3.73326	-7.66867	-0.067846	0.0692231	-0.0293157	-0.254883	0.494385	0.922363	-0.222527	0.908259	-0.340942	-0.0964681	-2.8979	-3.00683	-8.19801	0.0411335	0.0143633	-0.0306823	-0.0476074	0.537354	0.960938	-0.0343225	0.0204385	-0.999149	-0.0102909	-0.662597	0.303656	-9.05702	0.0277623	0.0205601	-0.00723404	-0.403076	-0.050293	1.10986	-0.182729	-0.0356691	-0.96337	-0.193017	-3.24153	3.57728	-8.5742	-0.0237383	0.00505007	-0.0155933	-0.0668945	-0.470703	1.09253	
42	0.862856	0.127571	-0.442913	0.207447	8.65703	0.323285	5.99606	-0.0383587	0.00573456	0.0321932	-0.671387	-0.220459	-0.830078	0.491253	-0.0481147	-0.869582	-0.0135026	8.45396	-0.082881	-4.93424	0.00205288	-0.0316771	-0.0344783	-1.04614	-0.346924	0.291016	0.282014	-0.173154	-0.518785	0.788256	0.20332	-9.05169	4.56955	-0.124265	-0.00644405	-0.0594509	-0.309814	0.908936	-0.607422	0.535954	-0.0356649	-0.071063	0.840494	0.0610985	-1.14538	10.112	-0.217952	-0.0716996	-0.0175477	-0.0671387	-0.0222168	-1.052	0.695913	0.183618	-0.239068	-0.651795	0.922634	5.70023	8.35851	0.0884216	0.0335263	0.00262148	-0.0327148	-0.218506	-1.0354	0.741511	0.0305009	-0.042803	-0.668878	-0.0427553	1.73824	13.6237	-0.0211554	0.0223258	0.0257756	-0.0158691	0.266357	-1.03711	-0.0146408	0.03664	-0.999075	-0.017125	-0.381015	0.339261	-9.07371	0.0155385	0.0127265	-0.0153951	-0.193848	-0.304688	1.10986	-0.0396238	-0.0496874	-0.970239	0.233662	-0.998985	-3.74012	-7.63451	0.0901688	-0.00146201	-0.0258608	-0.255127	0.496582	0.917725	-0.222439	0.908305	-0.340938	-0.0962508	-2.80899	-3.02749	-8.19413	0.00514581	0.0191961	-0.0256148	-0.0476074	0.537354	0.963379	-0.0341944	0.0205609	-0.999155	-0.00990879	-0.668063	0.300102	-9.06629	0.0176521	0.0102891	-0.00467102	-0.407471	-0.0524902	1.10767	-0.182617	-0.0356338	-0.963277	-0.193597	-3.25293	3.5679	-8.47719	-0.0265459	0.00212557	0.00647116	-0.0646973	-0.468506	1.09009	
43	0.863065	0.127322	-0.442635	0.207322	8.3765	0.473149	5.98678	-0.00807932	0.00775069	-0.0126421	-0.666748	-0.224609	-0.830078	0.489891	-0.0475911	-0.870378	-0.0135888	8.31246	0.0571167	-4.77245	-0.0140525	-0.0530795	-0.0367942	-1.04639	-0.342285	0.298096	0.281377	-0.174416	-0.522446	0.785784	0.379874	-9.67548	4.04459	-0.158886	0.0157125	-0.0062103	-0.307861	0.91748	-0.596191	0.536104	-0.039441	-0.0779786	0.839617	0.412842	-1.66433	10.1073	-0.286891	0.00291711	-0.0382545	-0.0678711	-0.0112305	-1.05664	0.697333	0.181236	-0.235654	-0.652187	1.06125	5.58158	8.0465	-0.201066	0.0590378	0.014407	-0.03125	-0.200928	-1.02856	0.741858	0.0278228	-0.0391388	-0.668835	0.0338224	2.01133	13.371	-0.233911	0.0562595	-0.00940226	-0.0102539	0.285889	-1.03564	-0.0144817	0.0368077	-0.999072	-0.0170185	-0.395979	0.318832	-9.06622	0.0163723	0.0127982	-0.0167699	-0.189697	-0.30249	1.10352	-0.0404135	-0.0493216	-0.96981	0.235376	-1.0441	-3.74878	-7.63793	0.0716252	-0.0288387	-0.0192339	-0.248535	0.496582	0.917725	-0.221765	0.908399	-0.340987	-0.096743	-2.96333	-3.19257	-8.27325	-0.0201953	-0.0169958	-0.00723783	-0.0473633	0.532715	0.965576	-0.0343347	0.0204854	-0.999152	-0.00981287	-0.657045	0.31491	-9.04366	0.0131541	-0.000999602	0.00559572	-0.403076	-0.050293	1.11426	-0.182985	-0.0359364	-0.963233	-0.193409	-3.21162	3.61894	-8.53634	0.0188454	-0.0291698	0.010554	-0.0668945	-0.468506	1.09009	
44	0.863143	0.126909	-0.442894	0.206695	8.42684	0.382518	6.03163	-0.0199092	-0.0195486	-0.0132062	-0.667236	-0.218262	-0.832275	0.488914	-0.0469203	-0.870973	-0.0129342	8.40876	-0.03008	-4.92072	0.0430769	-0.0348274	-0.0277385	-1.05054	-0.344482	0.298096	0.280507	-0.176244	-0.524795	0.78412	0.176918	-9.38803	4.1584	-0.124606	0.0325429	0.0466853	-0.297119	0.923828	-0.5896	0.536812	-0.0410355	-0.0800116	0.838896	0.249875	-1.7889	10.0528	-0.203716	0.0313375	-0.0700516	-0.0703125	-0.00488281	-1.05005	0.697699	0.179807	-0.232435	-0.653344	0.662231	5.16666	7.78141	-0.0512307	0.0474409	-0.0618003	-0.0332031	-0.202881	-1.04224	0.741802	0.0281922	-0.0373433	-0.668984	-0.280202	1.98984	13.2083	0.0694042	0.0896196	-0.0420012	-0.0119629	0.277344	-1.0332	-0.0145026	0.0367371	-0.999073	-0.017139	-0.391336	0.330382	-9.0262	0.0190844	0.010801	-0.0175834	-0.189697	-0.300293	1.10767	-0.0417752	-0.0493609	-0.969105	0.23802	-1.06658	-3.80444	-7.47471	0.0900923	-0.0476319	-0.00990315	-0.250977	0.503174	0.91748	-0.222242	0.908265	-0.341087	-0.0965519	-2.99672	-3.13574	-8.21401	0.025106	0.00142423	-0.00795193	-0.0476074	0.534912	0.961182	-0.0346358	0.0204564	-0.999146	-0.00941369	-0.676586	0.301493	-9.0794	0.0204236	0.00145439	-0.0012296	-0.405518	-0.0480957	1.11206	-0.184385	-0.0362598	-0.962555	-0.195384	-3.23366	3.60032	-8.46891	-0.0412596	-0.0255555	-0.00482294	-0.0620117	-0.475098	1.09033	
45	0.862951	0.126767	-0.443296	0.206723	8.56025	0.476979	6.14372	-0.0128659	-0.0346776	0.0132668	-0.669189	-0.220459	-0.828125	0.488319	-0.046669	-0.871323	-0.0127394	8.42967	0.271526	-5.00736	0.0108348	-0.0431875	-0.0285037	-1.0459	-0.351074	0.30542	0.279432	-0.177868	-0.526148	0.78323	0.173993	-9.3546	3.94899	-0.168739	0.044594	0.0960832	-0.295166	0.93042	-0.587402	0.536506	-0.0463251	-0.0856214	0.838262	0.422698	-2.59086	9.7972	-0.248407	0.0811528	0.0274403	-0.0644531	0.0107422	-1.06372	0.697046	0.182204	-0.233767	-0.652902	0.718263	5.59942	8.10484	0.219831	0.0530955	-0.0479558	-0.0222168	-0.205078	-1.0376	0.741552	0.0286565	-0.0366852	-0.669278	-0.298853	2.26944	13.2728	-0.00563208	0.0766483	-0.048075	-0.0119629	0.277344	-1.0354	-0.0145129	0.0367065	-0.999073	-0.0172044	-0.398188	0.314557	-9.06398	0.019318	0.0116956	-0.0172226	-0.192139	-0.295898	1.10547	-0.0421798	-0.0493123	-0.969119	0.237904	-1.0502	-3.80507	-7.42631	-0.00425488	-0.012897	-0.0163552	-0.250977	0.503174	0.919922	-0.222328	0.908153	-0.341182	-0.0970675	-2.92176	-3.00049	-8.05845	-0.0134266	-0.0337782	-0.0104402	-0.0476074	0.537354	0.963379	-0.0347543	0.0204769	-0.99914	-0.00962114	-0.660153	0.281055	-9.0518	-0.00558698	-0.000226722	8.76079e-05	-0.40332	-0.0480957	1.11646	-0.184684	-0.0362124	-0.962662	-0.194582	-3.22788	3.72615	-8.36624	0.0637532	-0.0180572	-0.0248247	-0.064209	-0.477295	1.08789	
46	0.861968	0.126228	-0.444989	0.207515	8.71451	0.299632	6.10327	-0.00675378	-0.0856987	0.0651179	-0.676025	-0.218262	-0.830322	0.486826	-0.0464943	-0.872174	-0.0122787	8.51098	-0.131364	-5.04433	0.0346697	-0.0730847	-0.0140988	-1.0459	-0.355469	0.30542	0.278132	-0.179618	-0.5261	0.783326	0.0288113	-9.94856	3.82485	0.0961632	0.0416972	0.0795383	-0.290771	0.925781	-0.585205	0.535591	-0.048064	-0.0832415	0.838989	0.0805025	-1.98402	9.77158	0.0284562	0.10645	0.0799849	-0.0578613	0.0151367	-1.05713	0.695397	0.183602	-0.234147	-0.654132	0.707415	5.58839	7.97879	-0.00359002	-0.0171569	-0.109999	-0.0241699	-0.214111	-1.03296	0.740586	0.0312137	-0.0379988	-0.670159	-0.468673	2.2411	13.2858	0.138183	0.0366614	-0.0854581	-0.0078125	0.277344	-1.0332	-0.0144869	0.0366421	-0.999074	-0.0172973	-0.388312	0.321328	-9.0477	0.0205475	0.0138902	-0.0174536	-0.187256	-0.306885	1.09937	-0.0425187	-0.0495045	-0.969312	0.237016	-1.05087	-3.84919	-7.62875	-0.0663982	0.000468013	0.00308794	-0.246582	0.498779	0.912842	-0.221795	0.908151	-0.341256	-0.0980433	-2.94837	-3.19871	-8.11416	-0.00340275	-0.0142403	-0.00802633	-0.0476074	0.534912	0.963379	-0.0350928	0.0205831	-0.999125	-0.00970978	-0.671478	0.321995	-9.03436	0.0069942	-0.00250113	-0.00390151	-0.401123	-0.0480957	1.10742	-0.185299	-0.0358589	-0.962666	-0.194042	-3.19825	3.71419	-8.15787	-0.00974318	-0.0158281	-0.0227703	-0.0646973	-0.468506	1.09253	
47	0.860186	0.126917	-0.447875	0.208277	8.68499	0.254585	5.86088	0.0389635	-0.152539	0.0219253	-0.680176	-0.220459	-0.828125	0.486101	-0.0462784	-0.872599	-0.0116766	8.43559	0.0633576	-5.11098	-0.00595706	-0.0107724	-0.00852076	-1.04614	-0.34668	0.309814	0.276522	-0.179621	-0.52407	0.785253	0.226182	-8.9761	4.10074	0.0209873	-0.0221408	0.0807319	-0.290771	0.923828	-0.582764	0.534633	-0.0492278	-0.0811957	0.839733	-0.000180459	-2.19142	9.29354	0.0529545	0.0737893	0.0694578	-0.0554199	0.00854492	-1.05249	0.694207	0.184735	-0.235246	-0.654682	0.937972	6.03441	8.37393	0.00122676	-0.0117021	-0.0697775	-0.0288086	-0.20752	-1.03296	0.739119	0.0312321	-0.0378663	-0.671784	-0.292625	1.63091	13.3014	-0.016152	0.00161539	-0.0953424	-0.012207	0.279541	-1.0332	-0.0144805	0.0365648	-0.999075	-0.0174155	-0.387335	0.320271	-9.04972	0.0206915	0.0132262	-0.0183001	-0.189453	-0.306885	1.10571	-0.0444498	-0.0501266	-0.969261	0.236739	-1.13939	-3.71807	-7.48009	0.0681879	-0.00167079	-0.0147989	-0.244385	0.500977	0.922119	-0.22225	0.907991	-0.341432	-0.0978898	-2.96495	-3.04347	-7.99129	0.0476612	0.000882626	-0.0104527	-0.0429688	0.534912	0.967773	-0.0353453	0.0206076	-0.999117	-0.00958581	-0.689873	0.296862	-9.02269	0.00497741	0.000657048	0.00318023	-0.40332	-0.0458984	1.11206	-0.185647	-0.0357084	-0.962566	-0.194231	-3.301	3.56065	-8.16292	-0.009886	-0.00238439	-0.00477562	-0.0644531	-0.470703	1.08789	
48	0.857343	0.128218	-0.453122	0.207856	8.96554	0.482994	5.71446	-0.0232219	-0.0855511	0.012012	-0.686768	-0.2229	-0.817383	0.486002	-0.046771	-0.872639	-0.0107496	8.37563	-0.098449	-4.9926	-0.0101572	0.0176327	-0.00268605	-1.04834	-0.34668	0.316895	0.276219	-0.176157	-0.520824	0.788298	0.0480945	-8.71844	4.37771	0.0551581	-0.05031	-0.0425203	-0.294922	0.917236	-0.596191	0.532934	-0.0437908	-0.073778	0.841796	0.0261605	-1.33714	9.23169	0.071456	-0.0728467	0.0466337	-0.0588379	-0.0112305	-1.05444	0.693166	0.183646	-0.235398	-0.656036	0.683209	5.54978	8.09158	0.0613529	-0.00809181	-0.0200604	-0.0263672	-0.211914	-1.03076	0.738157	0.03109	-0.038883	-0.672789	-0.281873	1.42637	13.3297	0.0647495	-0.00812924	-0.0151352	-0.0119629	0.275146	-1.03735	-0.0144548	0.0366556	-0.999074	-0.0172904	-0.392579	0.325949	-9.05515	0.0201852	0.0119248	-0.0163974	-0.1875	-0.300293	1.10767	-0.0432653	-0.0505067	-0.97027	0.232709	-1.12513	-3.69378	-7.63816	-0.0130416	0.0399892	-0.021662	-0.248291	0.48999	0.927002	-0.221279	0.908059	-0.341792	-0.0981988	-2.92815	-3.11449	-8.06404	0.0553912	0.0214227	-0.0270331	-0.0383301	0.535156	0.963379	-0.0349951	0.0204098	-0.999128	-0.0101464	-0.671679	0.308435	-9.0492	-0.0137281	0.0244773	0.00896934	-0.40332	-0.0480957	1.11646	-0.183998	-0.0361666	-0.962894	-0.194094	-3.3015	3.53147	-8.34921	0.00498213	0.0353575	0.0187271	-0.0646973	-0.468506	1.09253	
49	0.856807	0.127092	-0.454624	0.207474	8.88189	0.244585	5.65359	-0.0561172	-0.0446749	0.0127283	-0.689453	-0.216309	-0.811035	0.486162	-0.0467605	-0.87256	-0.00999458	8.38768	-0.0386965	-5.08937	0.0273271	0.0206672	-0.00385465	-1.04395	-0.344482	0.309814	0.277095	-0.174709	-0.521977	0.78755	-0.0356082	-9.54004	4.06194	-0.0114739	-0.0528266	-0.0770866	-0.30127	0.915283	-0.603027	0.533031	-0.0409954	-0.073015	0.841942	0.00439154	-1.17971	9.53192	0.0819886	-0.0753615	-0.0379713	-0.0629883	-0.0178223	-1.05444	0.693464	0.18325	-0.235642	-0.655744	1.04855	5.5563	8.25094	-0.0606777	-0.0025501	0.0155637	-0.032959	-0.211914	-1.0354	0.738388	0.0307701	-0.039059	-0.67254	-0.0680974	1.74556	13.3357	-0.00648337	-0.0122978	0.0140354	-0.013916	0.272949	-1.03296	-0.0145015	0.036625	-0.999073	-0.0173594	-0.39513	0.328052	-9.06649	0.0191033	0.0090687	-0.0170105	-0.192139	-0.295898	1.10767	-0.0425632	-0.0503388	-0.970306	0.232725	-1.11478	-3.68306	-7.53087	0.0102098	0.0708563	-0.0459424	-0.250732	0.498779	0.927002	-0.221182	0.908229	-0.341866	-0.0965735	-2.94538	-3.01263	-8.0965	-0.0676736	0.034515	-0.0265249	-0.0498047	0.532715	0.963379	-0.0347765	0.0203306	-0.999134	-0.0104378	-0.669987	0.322655	-9.06213	-0.0182838	0.0265736	0.00848868	-0.405273	-0.0524902	1.1145	-0.183079	-0.0368226	-0.963103	-0.193801	-3.29683	3.89265	-8.45947	-0.00599941	0.040852	0.0277443	-0.0712891	-0.470703	1.09009	
50	0.856908	0.126548	-0.454854	0.206885	8.83656	0.281815	5.71807	-0.0258292	0.00370762	-0.010923	-0.691406	-0.220703	-0.812988	0.486096	-0.0465376	-0.872619	-0.00899733	8.34586	0.0028383	-4.91967	0.0287032	0.00247693	-0.0102271	-1.04639	-0.340088	0.307373	0.278331	-0.173026	-0.522704	0.787003	0.248293	-9.25058	4.22445	0.0103186	0.00115752	-0.0918865	-0.307617	0.91333	-0.591553	0.533648	-0.0385734	-0.0739389	0.841585	0.247814	-1.55709	9.66732	0.0141951	-0.0934871	-0.0177556	-0.0695801	-0.0178223	-1.05664	0.694257	0.182126	-0.235683	-0.655202	0.696121	5.41351	7.86603	0.0216066	-0.00922318	0.0356781	-0.0349121	-0.214111	-1.03296	0.73924	0.0301445	-0.0396975	-0.671595	-0.245923	1.61643	13.1078	0.0260859	-0.00658684	0.0397921	-0.0119629	0.272949	-1.03296	-0.0144862	0.036753	-0.999071	-0.0171954	-0.3808	0.32005	-9.05858	0.0195629	0.0108707	-0.016298	-0.191895	-0.300293	1.10132	-0.039037	-0.0498765	-0.971458	0.228598	-1.03219	-3.68758	-7.63645	-0.10756	0.10143	-0.0377863	-0.256592	0.483398	0.927246	-0.2217	0.908283	-0.341664	-0.0955923	-2.97974	-3.21511	-8.28097	0.0820924	0.0325812	-0.0419504	-0.045166	0.532715	0.969971	-0.0339372	0.020223	-0.999158	-0.0110827	-0.653352	0.329984	-9.07214	-0.014588	0.0269561	0.00337296	-0.405518	-0.050293	1.11206	-0.18223	-0.037097	-0.962994	-0.195087	-3.18766	3.68148	-8.45857	-0.0297057	0.0313785	0.0179795	-0.0712891	-0.4729	1.09033	
51	0.857443	0.125943	-0.454214	0.206443	8.73392	0.187765	5.77432	-0.0227877	0.0388892	-0.0154727	-0.687256	-0.214111	-0.815186	0.485791	-0.0466245	-0.872786	-0.00884949	8.35029	-0.145238	-4.96893	-0.0103087	-0.00228169	-0.0114331	-1.04419	-0.342285	0.309814	0.279518	-0.171519	-0.523687	0.786259	0.260761	-9.29216	4.08628	-0.0453503	-0.0231451	-0.0821759	-0.307617	0.915283	-0.591553	0.533956	-0.0373258	-0.0738841	0.841451	0.165264	-1.38691	9.67504	0.0606881	-0.0739976	-0.0301737	-0.0695801	-0.0222168	-1.0498	0.694659	0.183132	-0.238052	-0.653638	1.03946	5.73192	8.1569	0.0657741	-0.0222899	0.0384969	-0.032959	-0.209717	-1.0354	0.740668	0.0290559	-0.0409911	-0.66999	-0.0291428	1.8357	13.153	0.0207535	-0.0649643	0.074972	-0.0161133	0.272949	-1.03076	-0.0145317	0.0367155	-0.999071	-0.0172548	-0.391858	0.321025	-9.04977	0.0201265	0.00857492	-0.0170065	-0.189453	-0.304688	1.11206	-0.0376948	-0.0498114	-0.971719	0.227728	-0.974787	-3.62054	-7.56033	-0.0343618	0.0776275	-0.038326	-0.265381	0.485596	0.924805	-0.222517	0.908192	-0.34162	-0.0947061	-2.93063	-3.05505	-8.17694	0.0929891	0.0428256	-0.0408717	-0.0522461	0.537109	0.963135	-0.0337942	0.0202321	-0.999161	-0.0112024	-0.655638	0.337504	-9.05043	-0.00464769	0.0208009	0.000904123	-0.407471	-0.0524902	1.1145	-0.181709	-0.0372722	-0.963182	-0.194611	-3.20849	3.8966	-8.41048	0.0120906	0.0207911	-0.000199988	-0.0778809	-0.473145	1.08789	
52	0.857443	0.125943	-0.454214	0.206443	8.73392	0.187765	5.77432	-0.0227877	0.0388892	-0.0154727	-0.687256	-0.214111	-0.815186	0.485624	-0.0465629	-0.872886	-0.00847035	8.33372	-0.186739	-5.02202	0.0209027	-0.00395208	-0.00921255	-1.04419	-0.340088	0.31665	0.280056	-0.171279	-0.524749	0.785412	0.148496	-9.48355	4.11522	-0.0844897	0.00111573	-0.0774719	-0.312012	0.915527	-0.589355	0.534998	-0.0358629	-0.0756006	0.840699	0.14566	-1.72707	9.86141	-0.0242919	-0.0756959	-0.061496	-0.0742188	-0.0178223	-1.05444	0.694934	0.182475	-0.238532	-0.653354	0.887175	5.3156	7.83651	-0.0104448	-0.0443547	0.0362791	-0.0371094	-0.214111	-1.03296	0.7409	0.0292703	-0.0423955	-0.669637	-0.117381	1.93276	13.1772	0.0912619	-0.056097	0.0214116	-0.020752	0.279541	-1.03955	-0.0145948	0.0366859	-0.99907	-0.0173189	-0.3817	0.319145	-9.06056	0.0198932	0.00769539	-0.0173706	-0.189697	-0.30249	1.10571	-0.0371243	-0.0497442	-0.972129	0.226081	-0.950208	-3.6206	-7.64642	-0.126796	0.0688854	-0.0334945	-0.262939	0.479004	0.927246	-0.220869	0.908702	-0.34134	-0.0946857	-2.89973	-3.06255	-8.18989	-0.0618247	0.0230619	-0.0213592	-0.0522461	0.532715	0.965576	-0.0336703	0.0201942	-0.999163	-0.0115181	-0.651041	0.338043	-9.0598	-0.0059564	0.0127906	0.00312362	-0.407471	-0.0546875	1.10767	-0.181553	-0.037211	-0.963167	-0.19484	-3.19916	3.848	-8.47011	-0.0163334	0.0179035	-0.00344922	-0.0688477	-0.475098	1.09033	
53	0.858298	0.125472	-0.452795	0.206298	8.69662	0.28274	5.87181	0.00342032	0.0395192	-0.00177046	-0.69165	-0.216309	-0.81958	0.484779	-0.0461007	-0.873385	-0.00790426	8.36807	-0.0354799	-4.9564	0.016312	-0.031251	-0.0214258	-1.05054	-0.342285	0.319092	0.280504	-0.17038	-0.525999	0.78461	0.355414	-9.59691	4.03493	-0.00693648	-0.0246449	-0.0452273	-0.312012	0.917725	-0.584717	0.535329	-0.0346254	-0.0765701	0.840453	0.377275	-1.96574	9.83049	0.0100713	-0.0511482	-0.00343735	-0.0742188	-0.0178223	-1.05664	0.695143	0.182072	-0.240396	-0.652561	1.19161	5.89704	8.15666	0.0373483	-0.0435114	0.0118737	-0.0393066	-0.216309	-1.0376	0.741444	0.0284549	-0.0440505	-0.668962	-0.0455194	1.82767	13.3843	0.0220945	-0.0607171	0.0392757	-0.0205078	0.270752	-1.03296	-0.0145855	0.0368499	-0.999066	-0.0172256	-0.393896	0.3216	-9.04412	0.0184204	0.00817001	-0.0178241	-0.194092	-0.298096	1.10547	-0.0366336	-0.0498096	-0.972742	0.223496	-0.960041	-3.57788	-7.79937	-0.101457	0.0351557	-0.00944948	-0.262695	0.474854	0.922852	-0.221755	0.908455	-0.341513	-0.0943602	-2.86175	-3.03419	-8.28848	0.0781098	0.005736	-0.0150126	-0.0500488	0.537354	0.965576	-0.0336012	0.0202299	-0.999166	-0.0113965	-0.651907	0.327816	-9.0346	0.0145153	0.0127612	-0.000585743	-0.407715	-0.0480957	1.10962	-0.181015	-0.0371106	-0.963217	-0.195114	-3.11826	3.67381	-8.42757	0.0134603	0.0176642	-0.00833749	-0.0759277	-0.466309	1.09009	
54	0.85881	0.125074	-0.451716	0.206771	8.55561	0.256666	5.81979	0.00636189	0.049138	0.00920055	-0.685059	-0.214111	-0.821777	0.484223	-0.0459627	-0.873705	-0.00738503	8.37597	-0.035999	-5.05592	0.0116941	-0.011445	-0.0117849	-1.04419	-0.342285	0.321533	0.279809	-0.168822	-0.525511	0.785521	0.205862	-9.66469	3.74269	0.0610593	-0.0772743	0.0341391	-0.316406	0.919922	-0.587158	0.535642	-0.0329812	-0.0759558	0.840375	0.374379	-2.11326	9.99955	0.0568568	-0.0320318	-0.0269982	-0.0808105	-0.0202637	-1.052	0.694883	0.182712	-0.242891	-0.651735	0.870219	5.47449	8.17618	0.132025	-0.0312028	0.0230169	-0.0437012	-0.216309	-1.03296	0.741587	0.0288543	-0.04663	-0.668612	-0.00715997	2.29314	13.8206	0.0609371	-0.0404938	-0.0171038	-0.0246582	0.266357	-1.03491	-0.014629	0.036783	-0.999066	-0.0173529	-0.377513	0.326449	-9.06724	0.018461	0.0115863	-0.0172459	-0.193848	-0.304688	1.10767	-0.0369794	-0.049771	-0.972535	0.224347	-0.958844	-3.56871	-7.65371	0.0417045	0.00403765	-0.025667	-0.262939	0.476807	0.929688	-0.221636	0.908436	-0.341664	-0.0942699	-2.88445	-2.90358	-8.17513	0.00226055	0.0135741	-0.00940646	-0.0568848	0.537109	0.960938	-0.0337539	0.0201796	-0.999162	-0.0113046	-0.652917	0.333457	-9.04764	0.00775671	-0.00203332	0.00679361	-0.407471	-0.0546875	1.11206	-0.180903	-0.0371527	-0.963261	-0.194993	-3.20392	3.71117	-8.41668	0.0122826	0.0129978	-0.00170775	-0.078125	-0.470703	1.09009	
55	0.859191	0.124866	-0.451037	0.206796	8.68884	0.433726	5.74465	-0.010744	0.0288458	-0.000411223	-0.683105	-0.209717	-0.828125	0.483614	-0.0461727	-0.874036	-0.00682337	8.27912	-0.235261	-5.0161	0.0115224	-0.017738	0.00563101	-1.04858	-0.340088	0.319092	0.277024	-0.167549	-0.525197	0.78699	0.334393	-9.49986	4.19264	0.0491282	-0.0774359	0.074796	-0.314209	0.915527	-0.591553	0.533805	-0.0338031	-0.0774412	0.841375	0.429024	-2.26514	10.3198	-0.118853	0.0118762	0.151925	-0.083252	-0.0114746	-1.05444	0.694849	0.181797	-0.240996	-0.652729	0.913102	6.11457	8.27466	-0.209945	0.0382579	-0.0692691	-0.0437012	-0.214111	-1.03296	0.740226	0.0259344	-0.0433364	-0.670458	-0.00690996	2.26108	13.9694	-0.206772	0.0570443	-0.14618	-0.0229492	0.281738	-1.0332	-0.014575	0.0367176	-0.999067	-0.0174724	-0.401971	0.315544	-9.0473	0.0209605	0.0158615	-0.0168191	-0.1875	-0.30249	1.10571	-0.0372215	-0.0500688	-0.972834	0.222939	-0.98169	-3.5463	-7.75541	-0.0688351	0.0184423	-0.000470067	-0.260498	0.470459	0.92749	-0.221296	0.908473	-0.341673	-0.0946819	-2.95479	-3.2104	-8.18917	0.0697162	-0.0126446	-0.0161818	-0.0544434	0.534912	0.963379	-0.0338561	0.0200877	-0.999161	-0.0113176	-0.660325	0.321334	-9.0529	0.0033781	0.00886933	0.00355401	-0.407715	-0.050293	1.10742	-0.180544	-0.0374274	-0.963232	-0.195415	-3.27531	3.64311	-8.39783	-0.02276	0.0200429	0.0198857	-0.0712891	-0.4729	1.09253	
56	0.8599	0.123515	-0.449677	0.207623	8.60138	0.322704	5.87344	-0.0240503	0.0793994	0.0451246	-0.680664	-0.211914	-0.823975	0.482883	-0.045841	-0.874464	-0.00594514	8.25385	0.0453878	-5.06872	0.0184783	-0.0265626	-0.0206406	-1.04199	-0.340088	0.321533	0.272641	-0.166909	-0.522939	0.790154	-0.0698901	-9.41171	4.03047	0.146162	-0.124431	0.19155	-0.30127	0.913086	-0.591553	0.530379	-0.0360747	-0.0754839	0.843622	0.0734687	-1.59447	9.99045	0.0643197	0.142044	0.181351	-0.0742188	-0.015625	-1.05444	0.695579	0.176688	-0.233998	-0.655893	1.01959	5.55693	7.96239	-0.33032	0.0717731	-0.0986424	-0.0378418	-0.196289	-1.0376	0.738046	0.0243679	-0.0384199	-0.673215	-0.170227	1.64719	13.456	-0.144549	0.118124	-0.134486	-0.019043	0.290283	-1.03564	-0.0146297	0.0366712	-0.999065	-0.0176437	-0.392809	0.31981	-9.05032	0.0178254	0.00882708	-0.0174303	-0.19165	-0.30249	1.10986	-0.0371268	-0.050331	-0.97242	0.224693	-0.952969	-3.49634	-7.67219	0.122384	0.02597	-0.0235626	-0.258545	0.476807	0.927246	-0.222633	0.908042	-0.342102	-0.0941285	-2.78113	-2.73715	-7.95861	0.0255562	0.00537675	-0.0107038	-0.0500488	0.539551	0.963135	-0.0336562	0.0199819	-0.999169	-0.0113709	-0.658193	0.329612	-9.04428	0.00609575	0.0190726	0.00548529	-0.407715	-0.050293	1.10522	-0.18022	-0.0383837	-0.963015	-0.196592	-3.25482	3.7135	-8.30748	-0.0625909	0.00561592	0.0498337	-0.0756836	-0.4729	1.09253	
57	0.860126	0.122391	-0.4489	0.209029	8.64679	0.216109	6.07822	-0.00161071	0.020981	0.0653936	-0.678711	-0.20752	-0.826172	0.482223	-0.0453386	-0.87486	-0.00502163	8.50028	0.0257661	-5.17095	0.0327237	-0.0184826	-0.0187859	-1.04199	-0.337891	0.321289	0.269046	-0.168448	-0.522409	0.791409	0.521395	-9.55283	4.16971	-0.0304491	-0.0148365	0.170878	-0.297119	0.919434	-0.593994	0.526586	-0.0391618	-0.072763	0.846096	0.379899	-1.24966	9.73021	0.0302179	0.149458	0.195302	-0.0654297	-0.015625	-1.05225	0.693223	0.18081	-0.235062	-0.656883	0.78869	5.31153	8.17162	0.290524	0.0588719	-0.116095	-0.032959	-0.20752	-1.03296	0.736665	0.0268188	-0.0373305	-0.674694	-0.305419	1.86725	13.1752	0.0581251	0.0949018	-0.10241	-0.0187988	0.281738	-1.0332	-0.0147924	0.0366252	-0.999061	-0.0178097	-0.394784	0.31961	-9.05229	0.0171928	0.00604574	-0.0176076	-0.189697	-0.298096	1.10132	-0.037034	-0.0499478	-0.97194	0.226862	-0.952639	-3.64682	-7.65287	0.0815128	0.00791197	-0.0374215	-0.260742	0.481201	0.929688	-0.221174	0.908392	-0.342088	-0.0942411	-2.96429	-3.20291	-8.09464	-0.0247942	0.0236589	-0.0250477	-0.0522461	0.537109	0.965576	-0.0332102	0.0198439	-0.999178	-0.0120823	-0.632302	0.323057	-9.04522	-0.0321753	0.0259096	0.00937195	-0.409912	-0.0480957	1.11426	-0.180071	-0.0394781	-0.962773	-0.197698	-3.11761	3.6107	-8.41288	0.00471501	0.00327754	0.0394632	-0.0800781	-0.475342	1.09033	
58	0.859352	0.122774	-0.449954	0.20972	8.61017	0.229077	5.9812	0.0268642	-0.07458	0.0106874	-0.681152	-0.205322	-0.828369	0.481841	-0.0457979	-0.87505	-0.00441519	8.41165	-0.291699	-5.17637	0.0129926	0.0103807	0.0237794	-1.04004	-0.337891	0.32373	0.26598	-0.169053	-0.521041	0.793217	-0.0245058	-9.30664	4.37853	0.0853581	-0.0130851	0.113978	-0.296875	0.913086	-0.596191	0.524868	-0.0412516	-0.0706217	0.847245	-0.0547907	-1.15977	9.65792	0.0394601	0.111127	0.0810342	-0.067627	-0.015625	-1.05444	0.691447	0.182293	-0.234498	-0.658545	0.727553	6.11357	8.21537	-0.18421	0.0202927	-0.136415	-0.0354004	-0.200928	-1.03296	0.735314	0.0271876	-0.0363496	-0.676204	-0.439415	1.72523	13.434	0.00453229	0.0489148	-0.107328	-0.019043	0.288086	-1.03345	-0.0149336	0.0365615	-0.999059	-0.0179293	-0.383629	0.313326	-9.06327	0.0186773	0.00732112	-0.0168778	-0.194092	-0.298096	1.10547	-0.0368721	-0.0499106	-0.972007	0.226608	-0.950579	-3.60142	-7.52684	-0.0132611	0.0324764	-0.0255227	-0.262939	0.479004	0.927246	-0.222137	0.908323	-0.341825	-0.0935897	-2.84899	-2.96443	-7.98953	0.0409344	-0.00212062	-0.04264	-0.0500488	0.539551	0.963135	-0.0329515	0.0196833	-0.999174	-0.0133542	-0.629968	0.37857	-9.04331	-0.042832	0.0167508	0.00935506	-0.405273	-0.0524902	1.1189	-0.179669	-0.0401322	-0.963147	-0.196103	-3.13618	3.95156	-8.32855	0.0701159	0.0196855	0.00731551	-0.078125	-0.470703	1.09009	
59	0.858087	0.12369	-0.45215	0.209639	8.67202	0.297341	5.82661	0.00898714	-0.113046	0.00258477	-0.685303	-0.20752	-0.821777	0.481832	-0.0459371	-0.875051	-0.00371354	8.36425	-0.0451882	-5.20178	0.0349976	0.00935793	0.0193381	-1.04858	-0.340088	0.328613	0.26528	-0.169583	-0.52019	0.793896	-0.0436717	-9.17467	4.20217	0.0663891	0.0189611	0.0927051	-0.29248	0.908691	-0.600586	0.524242	-0.0421652	-0.0695352	0.847677	-0.00972203	-1.09311	9.39074	0.0395381	0.108443	0.0724919	-0.0695801	-0.0178223	-1.05225	0.691547	0.180126	-0.232424	-0.659771	0.301966	5.32634	7.84713	-0.25383	-0.00747139	-0.0653876	-0.0356445	-0.196533	-1.03076	0.734366	0.0274057	-0.0353327	-0.677279	-0.343322	1.53136	13.1205	-0.0400519	0.0808798	-0.131962	-0.0168457	0.288086	-1.02905	-0.015011	0.036527	-0.999058	-0.0179969	-0.391646	0.327522	-9.05701	0.0190393	0.00583415	-0.0176467	-0.194092	-0.298096	1.10767	-0.0360662	-0.0496363	-0.972616	0.224173	-0.930557	-3.58818	-7.67404	-0.0953799	0.0441195	-0.0256758	-0.264893	0.476807	0.925049	-0.22181	0.908452	-0.341726	-0.093477	-2.86026	-3.05122	-8.04116	-0.0169778	0.017596	-0.0306469	-0.0546875	0.539551	0.95874	-0.0329515	0.0196833	-0.999174	-0.0133542	-0.629968	0.37857	-9.04331	-0.042832	0.0167508	0.00935506	-0.405273	-0.0524902	1.1189	-0.179287	-0.0403416	-0.963074	-0.196767	-3.16071	3.81187	-8.27525	-0.0434083	0.0184332	0.01286	-0.0803223	-0.470947	1.08789	
60	0.857539	0.123857	-0.453302	0.209292	8.67675	0.320537	5.7275	-0.0146222	-0.108	-0.0100513	-0.689941	-0.205566	-0.817627	0.482025	-0.0467885	-0.874899	-0.00386487	8.25452	-0.185071	-5.00745	-0.050147	0.0352303	0.00724667	-1.03809	-0.331299	0.321045	0.264308	-0.170169	-0.518897	0.79494	0.0904348	-8.92285	4.52966	0.0502632	0.013369	0.0561529	-0.28833	0.915039	-0.596191	0.524288	-0.0430057	-0.0679548	0.847735	-0.177187	-0.93783	9.24955	-0.00329363	0.0543873	0.00254117	-0.0651855	-0.0200195	-1.0542	0.690645	0.180714	-0.232592	-0.660494	1.21082	5.1055	8.13275	0.0998518	0.0152965	-0.0685792	-0.0400391	-0.19873	-1.03296	0.733741	0.0274616	-0.0350323	-0.67797	-0.214271	1.396	13.0774	0.0336175	-0.00362004	-0.0391827	-0.019043	0.288086	-1.03564	-0.0151471	0.0364224	-0.999058	-0.0181023	-0.385385	0.329386	-9.06957	0.0201584	0.00860761	-0.0161529	-0.194092	-0.295898	1.10107	-0.0355088	-0.0496649	-0.9733	0.221269	-0.913533	-3.50757	-7.63028	-0.118134	0.0576273	-0.0197755	-0.266846	0.468262	0.929932	-0.222037	0.908481	-0.341856	-0.0921715	-2.8393	-3.1818	-8.02681	0.0614404	0.0449908	-0.0281677	-0.0593262	0.539551	0.95874	-0.0326891	0.019533	-0.999176	-0.0140528	-0.622829	0.391649	-9.0741	-0.00728943	0.0152972	0.00606079	-0.413818	-0.0612793	1.10767	-0.178946	-0.04045	-0.963087	-0.196991	-3.15039	3.757	-8.26502	-0.0127704	0.0302706	0.0122511	-0.0803223	-0.470947	1.09009	
61	0.856941	0.123936	-0.455043	0.207915	8.86493	0.274103	5.69671	-0.039911	-0.0668432	-0.0327452	-0.694092	-0.207764	-0.819824	0.482594	-0.0469741	-0.874575	-0.00376401	8.21371	-0.0697113	-5.00466	-0.00390482	0.0365518	-0.0163105	-1.04443	-0.333496	0.323486	0.264828	-0.17057	-0.518839	0.794719	-0.244685	-8.95257	4.41975	-0.00155632	0.0572642	-0.0206409	-0.292725	0.910889	-0.600586	0.525286	-0.0415808	-0.0652332	0.847402	0.150112	-0.793882	9.54541	0.195699	0.00975477	-0.0835112	-0.0605469	-0.0244141	-1.0542	0.690187	0.182159	-0.234476	-0.659909	0.79808	5.76193	8.04406	0.0643699	-0.00789395	0.0181452	-0.0351562	-0.209717	-1.0376	0.733174	0.0267375	-0.0348359	-0.678622	-0.0946277	1.2863	12.8636	-0.0650387	-0.00467612	-0.0361809	-0.019043	0.290283	-1.03784	-0.0150945	0.0365983	-0.999055	-0.0179191	-0.391068	0.318656	-9.0642	0.0198025	0.0090471	-0.0168596	-0.1875	-0.300293	1.10767	-0.0351917	-0.0498571	-0.974449	0.216158	-0.928898	-3.42877	-7.77783	-0.221398	0.0405013	-0.00697237	-0.272949	0.46167	0.93457	-0.221905	0.908484	-0.342078	-0.0916379	-2.83891	-3.05021	-8.06203	0.0126257	0.0464	-0.0141855	-0.0571289	0.539551	0.956543	-0.0325702	0.0194613	-0.99918	-0.0141528	-0.629242	0.392774	-9.0705	0.00780885	0.0106063	0.00426436	-0.411865	-0.059082	1.10986	-0.177832	-0.0406939	-0.963348	-0.196673	-3.14591	3.85013	-8.40312	0.0302839	0.0535341	0.0117876	-0.0803223	-0.470947	1.09692	
62	0.856926	0.123619	-0.455551	0.207048	8.67701	0.171137	5.56069	-0.0249242	-0.0103699	-0.0156908	-0.689697	-0.209961	-0.811035	0.483303	-0.0470578	-0.874178	-0.00402556	8.18687	-0.352829	-4.99609	-0.00531639	0.0501888	-0.0159234	-1.04663	-0.333496	0.325928	0.267072	-0.171884	-0.518541	0.793879	-0.0941758	-8.83603	4.32993	-0.15703	0.0741551	-0.0370152	-0.29248	0.9021	-0.600342	0.528301	-0.0423675	-0.0681525	0.845256	0.037902	-1.76073	9.42633	-0.180418	-0.0318338	-0.158753	-0.0583496	-0.0200195	-1.04541	0.69085	0.17873	-0.233016	-0.66067	0.924832	4.4782	7.61972	-0.135004	-0.0340821	-0.00223932	-0.0378418	-0.196289	-1.0376	0.733687	0.0272515	-0.0372112	-0.677921	-0.2455	1.69894	13.4899	0.159948	-0.0279657	0.00548975	-0.0209961	0.285889	-1.03564	-0.014853	0.0367624	-0.999057	-0.0177107	-0.390308	0.31572	-9.07595	0.0205468	0.0166336	-0.016262	-0.1875	-0.300293	1.10986	-0.0345133	-0.0501437	-0.975424	0.211759	-0.878983	-3.37146	-7.69224	-0.184798	0.0546659	-0.00836997	-0.270264	0.450684	0.939453	-0.221506	0.908519	-0.342554	-0.0904724	-2.90548	-3.18978	-8.20385	0.00596519	0.0524604	-0.00265611	-0.0593262	0.539551	0.95874	-0.032482	0.0194601	-0.999185	-0.0139948	-0.629409	0.385897	-9.05803	0.0179183	0.0165249	0.00125541	-0.409668	-0.0568848	1.10547	-0.176759	-0.0405664	-0.96315	-0.198629	-3.15677	3.99466	-8.43706	-0.121637	0.041941	0.0149151	-0.0866699	-0.481934	1.09253	
63	0.857269	0.123713	-0.454702	0.207437	8.7546	0.256075	5.67612	0.0306724	0.0546432	0.0123976	-0.694092	-0.207764	-0.821777	0.48355	-0.0463734	-0.874079	-0.00391971	8.23992	-0.129067	-4.86665	0.00668769	0.0196107	-0.0326923	-1.04443	-0.333496	0.318848	0.267958	-0.17216	-0.520047	0.792534	0.342092	-9.69475	3.88599	0.0880481	0.00872707	-0.0660681	-0.292725	0.913086	-0.603027	0.530067	-0.0408697	-0.0674316	0.844282	0.393257	-2.2817	9.32727	0.119703	-0.0287832	-0.0473975	-0.0627441	-0.0244141	-1.05859	0.690559	0.181323	-0.235227	-0.659483	0.532896	5.14446	7.65922	0.285866	0.0342164	0.0202431	-0.0288086	-0.205322	-1.03296	0.734322	0.0265413	-0.0362936	-0.67731	-0.185818	1.37399	13.0774	-0.0266993	0.0230587	0.0360927	-0.0166016	0.285889	-1.03564	-0.0147393	0.0367173	-0.999059	-0.0177591	-0.388944	0.317736	-9.07327	0.0211882	0.02201	-0.0156784	-0.194092	-0.300293	1.10767	-0.034412	-0.0503354	-0.976123	0.208485	-0.877995	-3.30664	-7.7645	-0.259108	0.0450986	-0.000681116	-0.268066	0.446289	0.937256	-0.222	0.908292	-0.343023	-0.0897636	-2.86598	-3.16558	-8.40187	0.0286899	0.000341497	-0.00352153	-0.0593262	0.537109	0.960938	-0.032041	0.0196713	-0.99921	-0.0128563	-0.606801	0.36183	-9.05092	0.0411381	0.0156089	-0.00856778	-0.409668	-0.0568848	1.10986	-0.176395	-0.0403449	-0.962547	-0.201893	-3.11211	3.87935	-8.6107	-0.127171	0.0190521	0.0101067	-0.0864258	-0.486328	1.08813	
64	0.85828	0.12304	-0.452484	0.208507	8.62806	0.262925	5.88013	0.00435759	0.112663	0.0240253	-0.6875	-0.20752	-0.823975	0.483136	-0.0460766	-0.87432	-0.00457989	8.26787	-0.323038	-5.05612	-0.0215922	-0.00421683	-0.0442877	-1.04639	-0.337891	0.326172	0.26826	-0.17037	-0.519395	0.793246	-0.16436	-8.73646	4.15003	-0.0586171	-0.058203	-0.0507191	-0.296875	0.915283	-0.596191	0.529528	-0.0395536	-0.0673261	0.844691	0.055185	-1.76556	9.1277	0.0551206	-0.0458092	0.0373044	-0.0600586	-0.0310059	-1.0564	0.690184	0.180739	-0.234666	-0.660236	0.934429	4.80616	7.78126	-0.109317	-0.0222521	-0.0127081	-0.0375977	-0.203125	-1.0376	0.734287	0.0271938	-0.0374596	-0.677259	0.0105226	1.78924	13.2083	0.035736	-0.00045736	-0.0310372	-0.0209961	0.285889	-1.03345	-0.0143579	0.03688	-0.999062	-0.0175869	-0.373031	0.317341	-9.06518	0.0188968	0.022175	-0.0160847	-0.194092	-0.300293	1.10547	-0.0343387	-0.0507817	-0.977191	0.20332	-0.852777	-3.17071	-7.95356	-0.073444	0.0028847	0.00308912	-0.267578	0.435547	0.939697	-0.222211	0.908166	-0.343222	-0.0897572	-2.77127	-3.10754	-8.37	0.0265201	-0.00127694	-0.00307217	-0.0595703	0.541748	0.956543	-0.0319992	0.0197337	-0.999212	-0.0127583	-0.609558	0.348874	-9.04755	0.0130817	0.0131163	-0.00376306	-0.409424	-0.0612793	1.10547	-0.176301	-0.0399736	-0.962482	-0.202359	-3.16355	3.69785	-8.65144	0.0391457	0.00421141	-0.0258128	-0.088623	-0.486328	1.09033	
65	0.859358	0.121932	-0.450297	0.209447	8.57621	0.195529	6.00501	-0.0122247	0.0993514	0.0326467	-0.682861	-0.211914	-0.828125	0.4822	-0.0451402	-0.874884	-0.00480577	8.40871	0.130256	-5.03189	-0.00582595	-0.0502988	-0.0605513	-1.04834	-0.342285	0.321533	0.267851	-0.169516	-0.522966	0.791219	0.0964915	-9.66343	4.0818	-0.0633186	-0.0643969	-0.0417477	-0.297119	0.917236	-0.587158	0.528257	-0.0378515	-0.0682154	0.845493	0.163464	-1.32833	9.68354	-0.0329706	-0.0787763	0.0648933	-0.0649414	-0.0222168	-1.052	0.689192	0.183419	-0.2378	-0.659411	0.834902	5.91058	8.20676	0.213311	-0.026818	0.00394165	-0.0351562	-0.211914	-1.03296	0.733758	0.0276148	-0.038227	-0.677772	-0.261673	1.26146	13.0457	0.0657429	-0.0140458	-0.0333098	-0.0166016	0.281738	-1.0354	-0.014057	0.0370258	-0.999062	-0.0174817	-0.376504	0.319136	-9.0399	0.0178508	0.0140854	-0.0166296	-0.187744	-0.295898	1.11401	-0.0357048	-0.0514592	-0.97698	0.203928	-0.869926	-3.18368	-7.91614	0.0585129	-0.0382217	0.0231988	-0.267822	0.444092	0.946777	-0.222303	0.908006	-0.343444	-0.0902929	-2.80153	-3.12401	-8.36794	0.00137013	-0.0189897	0.00419298	-0.0686035	0.537109	0.956543	-0.031942	0.0197939	-0.99921	-0.0129513	-0.605767	0.377304	-9.07706	0.0103934	0.00816752	-0.000646136	-0.409424	-0.059082	1.10767	-0.177318	-0.0399932	-0.962683	-0.200498	-3.11401	4.07052	-8.53001	0.0307785	-0.0482429	-0.0194707	-0.0842285	-0.486328	1.09277	
66	0.860186	0.121609	-0.448635	0.209804	8.48201	0.118142	6.06747	0.0138577	0.0526875	-0.00904725	-0.678711	-0.20752	-0.83252	0.481715	-0.0446191	-0.875175	-0.0053849	8.40584	-0.158023	-5.16866	-0.0164217	-0.0151829	-0.03806	-1.04419	-0.337891	0.321289	0.268286	-0.167597	-0.524675	0.790348	0.330072	-9.45763	4.32962	-0.0940071	-0.0268222	-0.0741891	-0.309814	0.915527	-0.587158	0.527668	-0.0362189	-0.0694258	0.845834	0.182721	-1.24483	9.86577	0.0394749	-0.078411	-0.00316255	-0.0737305	-0.0290527	-1.0498	0.688855	0.18368	-0.239428	-0.659101	0.762225	5.15112	8.10206	0.0599428	-0.0196797	0.00596421	-0.0373535	-0.209717	-1.03296	0.734079	0.0288135	-0.0413478	-0.677191	-0.233977	1.75371	13.6229	0.0702029	-0.0376214	0.00996247	-0.0185547	0.277344	-1.0332	-0.0140536	0.0369528	-0.999063	-0.0176022	-0.362075	0.312975	-9.05098	0.0186994	0.0108619	-0.0163425	-0.193604	-0.306885	1.10571	-0.0366505	-0.0519207	-0.976627	0.205329	-0.90587	-3.18162	-7.92101	0.119242	-0.0548156	0.0272913	-0.267578	0.439697	0.944336	-0.222465	0.907509	-0.344202	-0.0919898	-2.86488	-2.82821	-8.17352	-0.0467986	-0.0444083	0.0141354	-0.0595703	0.541748	0.956543	-0.0321438	0.0198434	-0.999208	-0.0124662	-0.61212	0.343568	-9.05723	0.0240703	0.0011245	-0.000393036	-0.416504	-0.0546875	1.10303	-0.178645	-0.0400685	-0.962124	-0.201987	-3.15247	3.7412	-8.42853	-0.0567518	-0.0458782	-0.00189169	-0.0817871	-0.488525	1.09033	
67	0.859845	0.122827	-0.449028	0.209652	8.53337	0.281147	5.96411	0.0473191	-0.0598918	-0.0290798	-0.678711	-0.20752	-0.828125	0.481459	-0.0443465	-0.875328	-0.00554919	8.38261	-0.0661817	-5.1351	-0.0244608	0.0034934	-0.0218952	-1.04639	-0.340088	0.328613	0.269532	-0.166399	-0.526083	0.78924	0.219835	-9.67146	4.00785	-0.00133423	-0.0121685	-0.0878911	-0.307617	0.915283	-0.587158	0.528064	-0.0347803	-0.0690617	0.845677	0.241987	-1.24454	9.97863	0.0889413	-0.0735428	-0.0369395	-0.0712891	-0.0288086	-1.0542	0.68935	0.183624	-0.24054	-0.658194	1.15575	6.12196	8.43272	-0.00787209	-0.00678571	0.0213862	-0.0390625	-0.218506	-1.03296	0.734472	0.0275925	-0.0413522	-0.676816	-0.0580603	1.67815	13.5754	-0.0317565	-0.0263259	0.0248288	-0.0229492	0.279541	-1.0332	-0.0140551	0.0368749	-0.999064	-0.0177229	-0.375034	0.312056	-9.07303	0.0208821	0.0126978	-0.0174813	-0.194336	-0.293701	1.10327	-0.0393533	-0.0520904	-0.97498	0.212491	-0.978476	-3.31655	-7.78946	0.185728	-0.0720343	-0.00974064	-0.257568	0.457275	0.937012	-0.221924	0.907533	-0.344227	-0.0929636	-2.93993	-2.93279	-8.16799	-0.0606437	-0.0555908	0.000103007	-0.0522461	0.537354	0.960938	-0.0322758	0.0198293	-0.999204	-0.0124739	-0.612199	0.340295	-9.05735	0.00497033	-0.00189698	0.00231647	-0.409912	-0.0524902	1.10986	-0.179692	-0.0400552	-0.962297	-0.200226	-3.15824	3.78521	-8.27476	0.107187	-0.0339453	-0.0343731	-0.0778809	-0.477539	1.09253	
68	0.859363	0.123634	-0.449733	0.209645	8.58421	0.373066	5.90865	0.0485702	-0.0824911	-0.015272	-0.678711	-0.209717	-0.823975	0.481406	-0.044428	-0.875352	-0.00586654	8.32208	-0.13268	-5.12263	-0.0344483	0.00935198	-0.0243588	-1.04395	-0.344482	0.323975	0.269936	-0.166242	-0.526431	0.788904	0.285251	-9.5201	4.29996	-0.0226889	0.00953735	-0.043958	-0.312256	0.928467	-0.5896	0.529084	-0.0332644	-0.0699197	0.845029	0.373772	-1.40957	10.2705	-0.0519965	-0.0574166	-0.0504061	-0.0712891	-0.0288086	-1.0564	0.689753	0.18253	-0.239959	-0.658288	1.02693	5.69565	8.24886	-0.0995825	-0.0117948	0.0153555	-0.0393066	-0.211914	-1.03296	0.73466	0.0268659	-0.0415228	-0.67663	-0.103337	2.0244	13.73	-0.0301176	-0.0343396	0.00896674	-0.0251465	0.281738	-1.02686	-0.0140885	0.0368255	-0.999064	-0.0177728	-0.377409	0.317535	-9.06538	0.0199403	0.00956256	-0.0162539	-0.194092	-0.300293	1.10352	-0.0399634	-0.0521102	-0.974444	0.214818	-1.01239	-3.34613	-7.73041	0.194872	-0.0401188	-0.014492	-0.253418	0.459473	0.94165	-0.22202	0.907571	-0.34368	-0.094372	-2.97959	-2.97288	-8.05077	0.0107993	-0.0559848	-0.0373501	-0.050293	0.541748	0.95874	-0.0326305	0.0198496	-0.999188	-0.012812	-0.634641	0.37769	-9.05144	-0.0107723	-0.00385015	0.00263885	-0.414062	-0.0568848	1.10547	-0.179692	-0.0400552	-0.962297	-0.200226	-3.15824	3.78521	-8.27476	0.107187	-0.0339453	-0.0343731	-0.0778809	-0.477539	1.09253	
69	0.858194	0.124419	-0.451677	0.209789	8.68327	0.273916	5.78622	0.0163399	-0.0946324	0.0101233	-0.682861	-0.216309	-0.81958	0.481329	-0.0441908	-0.875403	-0.00631218	8.28839	-0.164439	-5.1366	-0.0150746	0.0118958	-0.0318151	-1.03979	-0.342285	0.321533	0.270116	-0.16663	-0.52674	0.788553	0.256757	-9.46251	4.28453	-0.0351803	0.0358544	-0.00681153	-0.316162	0.91333	-0.586914	0.530015	-0.0334062	-0.0696021	0.844467	0.18277	-1.52212	10.0981	0.0770927	0.0480133	-0.0412306	-0.0734863	-0.0310059	-1.05859	0.690743	0.181651	-0.23871	-0.657947	0.814501	5.93427	7.89159	-0.0382108	0.0486367	-0.00192404	-0.0395508	-0.20752	-1.0354	0.734664	0.0256548	-0.0399269	-0.676769	-0.0979026	1.74415	13.6278	-0.0766697	0.0501359	-0.00351288	-0.0253906	0.285889	-1.03345	-0.0140973	0.0367365	-0.999065	-0.0178913	-0.385701	0.315633	-9.0475	0.0196684	0.0105155	-0.0172422	-0.189697	-0.298096	1.10132	-0.0403706	-0.0516973	-0.97354	0.218901	-1.01365	-3.41954	-7.72102	0.177	-0.00438445	-0.0458887	-0.258301	0.470215	0.939209	-0.22142	0.908001	-0.342444	-0.0961215	-2.92691	-2.84597	-8.0108	-0.0882191	-0.0676622	-0.0615206	-0.0522461	0.532715	0.965576	-0.0328645	0.0198846	-0.999182	-0.0126467	-0.632955	0.363455	-9.06961	0.0176808	-0.00114478	-0.000334376	-0.407471	-0.0524902	1.10522	-0.181032	-0.039699	-0.962077	-0.200147	-3.13652	3.62642	-8.1727	-0.017691	-0.023078	-0.0104802	-0.0708008	-0.481689	1.08569	
70	0.857407	0.124738	-0.452969	0.210031	8.81063	0.266427	5.84835	0.0031422	-0.052685	0.0112694	-0.685059	-0.214111	-0.81958	0.481192	-0.0437257	-0.875498	-0.00668649	8.35379	0.0443582	-5.13124	-0.0182217	0.00150856	-0.0438248	-1.04175	-0.34668	0.326416	0.27011	-0.168504	-0.525731	0.788831	0.232027	-9.21064	4.07208	0.000312272	0.045316	0.0681535	-0.301514	0.926025	-0.587402	0.531236	-0.0350512	-0.0693404	0.843654	0.178016	-1.50832	9.96904	-0.0248749	0.0681379	-0.0516517	-0.0734863	-0.0288086	-1.0564	0.690191	0.184157	-0.23978	-0.657441	0.885179	5.42876	8.02512	0.175854	0.0436681	-0.0305939	-0.0456543	-0.218506	-1.03296	0.735017	0.0284027	-0.0406935	-0.67623	-0.222713	2.19475	13.3942	0.109377	0.0648203	-0.000713925	-0.0185547	0.279541	-1.0332	-0.0142108	0.0366732	-0.999062	-0.0181158	-0.369733	0.325506	-9.05149	0.0166552	0.00670657	-0.0163409	-0.194092	-0.300293	1.10547	-0.0396695	-0.0510681	-0.972714	0.222812	-0.976042	-3.51986	-7.76159	0.17227	0.0373465	-0.0555574	-0.264893	0.476807	0.92749	-0.219399	0.908668	-0.341147	-0.0990249	-2.93011	-3.00407	-8.22035	-0.134272	-0.081116	-0.0373848	-0.045166	0.530518	0.961182	-0.0330317	0.019804	-0.999181	-0.0124421	-0.624874	0.353881	-9.0654	0.0109889	-0.00184038	0.00344246	-0.409912	-0.0524902	1.10986	-0.180571	-0.0397985	-0.96219	-0.200003	-3.11178	3.9782	-8.21071	-0.00588063	0.037224	0.00365551	-0.079834	-0.479736	1.08569	
71	0.856811	0.125259	-0.454317	0.20924	8.80154	0.147778	5.75651	0.00247639	-0.0785866	-0.0382654	-0.693848	-0.214355	-0.817383	0.481232	-0.0433991	-0.875491	-0.00699032	8.35981	-0.112797	-5.06961	-0.010561	0.0154241	-0.0354838	-1.04395	-0.348877	0.319336	0.269585	-0.17084	-0.526984	0.787671	0.169319	-9.82925	3.91234	-0.046456	0.0617689	0.0382067	-0.301514	0.923828	-0.584961	0.531713	-0.0356659	-0.0665971	0.843548	0.133729	-1.84826	9.4787	0.182433	0.0854833	-0.0020139	-0.0690918	-0.0310059	-1.052	0.68946	0.18551	-0.23986	-0.657799	0.767616	6.11978	8.07122	-0.0902393	0.0130546	-0.0527129	-0.0412598	-0.218506	-1.03076	0.734867	0.0285896	-0.0399093	-0.676432	-0.224081	1.77018	13.0888	0.0096173	0.0380506	-0.0425944	-0.0229492	0.279541	-1.0354	-0.0143241	0.0366418	-0.99906	-0.0182276	-0.368748	0.319748	-9.06124	0.0157644	0.00312527	-0.0177554	-0.196289	-0.295898	1.10327	-0.0396695	-0.0510681	-0.972714	0.222812	-0.976042	-3.51986	-7.76159	0.17227	0.0373465	-0.0555574	-0.264893	0.476807	0.92749	-0.219961	0.908667	-0.340456	-0.100158	-2.89537	-3.02481	-8.06943	0.0541134	-0.034951	-0.0448744	-0.0446777	0.52124	0.96582	-0.0333802	0.0197773	-0.999178	-0.0117533	-0.630273	0.351655	-9.05216	0.039291	-0.00107391	0.00111681	-0.409912	-0.0524902	1.10986	-0.179814	-0.0400302	-0.9619	-0.202021	-3.16773	3.84663	-8.29415	-0.0748175	0.0255201	0.0257083	-0.0776367	-0.481934	1.08569	
72	0.856263	0.126399	-0.4555	0.208224	8.90294	0.342312	5.71943	0.0166264	-0.0634579	-0.0490031	-0.696289	-0.212158	-0.81543	0.481446	-0.0431876	-0.875381	-0.00733148	8.37145	-0.122606	-5.15505	-0.0314089	0.0360417	-0.0275278	-1.04395	-0.34668	0.326416	0.268772	-0.170298	-0.525845	0.788827	-0.0650682	-8.92967	3.9133	-0.0113306	-0.0530914	0.0328932	-0.301514	0.926025	-0.587402	0.532388	-0.0344823	-0.0629418	0.843452	-0.0121277	-1.77398	9.42832	0.302285	0.0851446	-0.0423194	-0.0661621	-0.0441895	-1.05396	0.688946	0.184673	-0.239396	-0.65874	0.887318	5.32917	7.94342	0.0671814	0.0061802	-0.0649957	-0.0302734	-0.2229	-1.03296	0.734401	0.0294667	-0.0405291	-0.676863	-0.285705	1.91339	13.1669	0.0877745	0.0229664	-0.0665815	-0.0224609	0.270752	-1.03931	-0.014375	0.0368303	-0.999054	-0.0181062	-0.376666	0.320871	-9.05793	0.0167746	0.004392	-0.0179111	-0.194092	-0.295898	1.10547	-0.0397912	-0.0499303	-0.97093	0.230691	-0.987332	-3.61397	-7.6717	0.215848	-0.0168315	-0.0419581	-0.254639	0.485596	0.927246	-0.220191	0.908671	-0.340268	-0.100255	-2.92797	-2.99348	-7.84706	0.0203167	-0.0153758	-0.0327027	-0.0405273	0.532715	0.967773	-0.0334879	0.0197311	-0.999178	-0.0114879	-0.634897	0.324275	-9.04485	0.0268023	0.000995024	0.0041218	-0.400635	-0.0566406	1.1145	-0.179684	-0.0400539	-0.961639	-0.203372	-3.18652	3.82084	-8.50722	-0.0377059	0.0117323	0.000626976	-0.0795898	-0.486328	1.09033	
73	0.855872	0.12677	-0.456457	0.207506	8.93866	0.41131	5.64093	-0.0187696	-0.0473061	-0.0118599	-0.694092	-0.209961	-0.813232	0.481851	-0.043013	-0.87516	-0.00806135	8.35396	0.0300077	-5.07472	-0.0394342	0.0352981	-0.0399676	-1.0481	-0.351074	0.324219	0.267477	-0.169428	-0.527193	0.788555	0.259119	-9.60387	3.87978	0.0517249	-0.0744123	-0.0174435	-0.305664	0.91748	-0.584717	0.530115	-0.0345751	-0.0644733	0.844764	0.264924	-1.59223	9.07447	-0.0755639	-0.0618564	0.157805	-0.0644531	-0.0332031	-1.04736	0.687849	0.186629	-0.241423	-0.658596	0.924748	6.08886	8.08276	0.0842151	-0.0211475	-0.0203217	-0.0388184	-0.225098	-1.02856	0.733259	0.03066	-0.0413155	-0.678	-0.111057	1.52464	13.1164	0.0583583	0.0134814	-0.0562758	-0.0205078	0.275146	-1.03516	-0.0144616	0.0368073	-0.999052	-0.0182015	-0.375829	0.32466	-9.06515	0.01653	0.00527551	-0.0184454	-0.193848	-0.30249	1.10571	-0.0406741	-0.0495143	-0.970875	0.230857	-1.00609	-3.70047	-7.60186	-0.0636197	-0.000703269	-0.00979807	-0.254639	0.487793	0.924805	-0.219482	0.908896	-0.339903	-0.101005	-2.95729	-3.1201	-7.93775	-0.0364523	-0.0168706	-0.0308425	-0.0424805	0.523682	0.963379	-0.0336493	0.0196714	-0.999173	-0.011609	-0.649615	0.334772	-9.04469	-0.00355069	-0.002969	0.00656524	-0.409912	-0.0480957	1.11206	-0.179311	-0.0399846	-0.962123	-0.201415	-3.22089	4.03342	-8.43781	0.10154	0.0165765	-0.0180274	-0.0795898	-0.490723	1.0813	
74	0.855774	0.12622	-0.457087	0.206857	8.96805	0.399772	5.62872	-0.0445997	-0.0152682	-0.00878915	-0.696289	-0.212158	-0.81543	0.482279	-0.0430619	-0.874912	-0.00905324	8.35341	-0.0672629	-5.14688	-0.01998	0.0323127	-0.0313099	-1.0415	-0.355469	0.31958	0.267663	-0.165792	-0.526619	0.789647	0.050471	-9.0674	4.17465	-0.00413447	-0.0939311	-0.0777181	-0.309814	0.91748	-0.587158	0.528207	-0.0326133	-0.0657251	0.845939	-0.0495834	-0.777406	9.54531	-0.0627913	-0.114183	0.0548665	-0.0732422	-0.0354004	-1.05835	0.687299	0.186533	-0.242102	-0.658948	0.789284	5.22189	7.95567	0.027075	-0.0230498	-0.0299382	-0.0344238	-0.229492	-1.02856	0.733243	0.0315421	-0.0433468	-0.677851	-0.203313	1.85047	13.4536	0.0697528	-0.0190149	-0.0175323	-0.0246582	0.268555	-1.03711	-0.0144857	0.0371676	-0.999042	-0.0179701	-0.389	0.320757	-9.0684	0.0165868	0.00688916	-0.0172729	-0.196045	-0.304688	1.10571	-0.0408296	-0.049642	-0.971198	0.229441	-0.998066	-3.64953	-7.61911	-0.0276847	0.0169362	-0.0149038	-0.254395	0.483398	0.922607	-0.220315	0.908805	-0.339991	-0.0997019	-2.99778	-3.08841	-7.99232	0.035069	0.0245976	-0.0136166	-0.0427246	0.528076	0.970215	-0.0336288	0.0196691	-0.999178	-0.0111834	-0.653749	0.336264	-9.05572	0.00973844	0.00288838	1.86862e-07	-0.409912	-0.050293	1.10742	-0.179844	-0.0397874	-0.961833	-0.202362	-3.27777	3.92444	-8.45324	-0.079631	-0.022411	-0.00994358	-0.0751953	-0.486328	1.08594	
75	0.856167	0.125563	-0.457069	0.20567	8.87171	0.158023	5.68426	-0.0316215	0.00919573	-0.0463554	-0.69165	-0.216553	-0.804443	0.482956	-0.0428843	-0.874546	-0.00916535	8.36544	0.021753	-5.06889	-0.0102799	0.0497838	-0.0228429	-1.04785	-0.355469	0.322021	0.268219	-0.164376	-0.529629	0.787739	0.460482	-9.73343	4.14247	-0.088792	-0.0485874	-0.088557	-0.316406	0.928467	-0.580566	0.527569	-0.0329647	-0.069619	0.846012	0.2321	-0.76716	9.85227	-0.275709	-0.13893	0.0410462	-0.0759277	-0.0246582	-1.0498	0.686648	0.187857	-0.243182	-0.658852	0.993802	6.4121	8.37112	0.00760364	0.0177082	-0.0502763	-0.0388184	-0.227295	-1.0376	0.732996	0.0315416	-0.0435928	-0.678102	-0.0848272	1.87538	13.5704	0.0158032	-0.00168659	-0.0419699	-0.0202637	0.266602	-1.03076	-0.0145648	0.0371185	-0.999041	-0.0180893	-0.37076	0.328353	-9.06091	0.0156037	0.00557483	-0.0166674	-0.193848	-0.30249	1.10352	-0.0404289	-0.0500257	-0.972286	0.224773	-1.00664	-3.60414	-7.67669	-0.226026	0.0588516	0.000879439	-0.264893	0.474609	0.932129	-0.219954	0.908839	-0.340201	-0.0994746	-3.04163	-2.97145	-8.04083	-0.0116513	0.0315823	-0.00639679	-0.0402832	0.525879	0.968018	-0.0335715	0.0197182	-0.999182	-0.0109719	-0.655658	0.327623	-9.05422	0.0219305	0.0140694	-0.00331018	-0.407471	-0.0524902	1.10303	-0.18029	-0.0394615	-0.961762	-0.202367	-3.13313	3.67826	-8.3798	0.0519476	-0.0016186	-0.0238189	-0.072998	-0.486328	1.0835	
76	0.856518	0.12566	-0.456635	0.20511	8.87585	0.26777	5.72391	-0.011171	0.0329088	-0.0527476	-0.689209	-0.218506	-0.808838	0.483128	-0.0429833	-0.874443	-0.00944366	8.38777	0.0326619	-5.21426	-0.0301531	0.0297635	-0.0225243	-1.04614	-0.348877	0.324219	0.268608	-0.163512	-0.529852	0.787636	0.206805	-9.61241	4.12518	0.0103068	-0.0356307	-0.066248	-0.320801	0.924316	-0.582764	0.526774	-0.0345175	-0.0784466	0.845673	0.26085	-1.72827	10.2615	-0.24188	-0.105439	0.000419276	-0.0859375	-0.00268555	-1.05469	0.68683	0.18693	-0.241869	-0.659409	0.537453	5.64232	8.11819	-0.134286	0.0259197	-0.0360891	-0.0388184	-0.225098	-1.0354	0.733406	0.0323961	-0.0437342	-0.677609	-0.320974	1.63094	13.8857	0.0305928	0.0271924	0.0169533	-0.0202637	0.266357	-1.03711	-0.0146788	0.0370443	-0.999038	-0.0183108	-0.380973	0.324477	-9.06209	0.0163634	0.00601246	-0.0176319	-0.187744	-0.293701	1.10547	-0.0401871	-0.0503059	-0.972773	0.222639	-0.990984	-3.54358	-7.84184	-0.16537	0.0517636	0.00207789	-0.258301	0.474609	0.929688	-0.220071	0.908691	-0.340651	-0.0990334	-2.94397	-3.09456	-8.26111	0.0458978	0.0180081	-0.00356499	-0.0402832	0.525879	0.968018	-0.033524	0.0198079	-0.999182	-0.0109055	-0.637419	0.311915	-9.07659	0.0104808	0.0131846	-0.00593415	-0.407471	-0.0546875	1.10767	-0.180248	-0.0393694	-0.961945	-0.201548	-3.16072	3.90888	-8.25973	0.0665114	0.00985269	-0.0231826	-0.0754395	-0.479736	1.08813	
77	0.857624	0.125754	-0.454962	0.204148	8.65507	0.228738	5.73075	0.000614286	0.0752519	-0.0556614	-0.691406	-0.218506	-0.817383	0.483128	-0.0429833	-0.874443	-0.00944366	8.38777	0.0326619	-5.21426	-0.0301531	0.0297635	-0.0225243	-1.04614	-0.348877	0.324219	0.268608	-0.163512	-0.529852	0.787636	0.206805	-9.61241	4.12518	0.0103068	-0.0356307	-0.066248	-0.320801	0.924316	-0.582764	0.526915	-0.0335411	-0.0778774	0.845677	0.36742	-1.43303	10.1051	0.0423595	-0.0176356	-0.00659506	-0.0810547	-0.0136719	-1.05225	0.686754	0.190043	-0.242944	-0.658202	0.975942	5.57228	8.03931	0.125755	0.0646821	0.00245202	-0.036377	-0.233887	-1.02612	0.734062	0.0328446	-0.042402	-0.676961	-0.0816413	1.88741	13.2334	-0.0213177	0.060119	0.0270206	-0.0180664	0.266602	-1.02856	-0.0146788	0.0370443	-0.999038	-0.0183108	-0.380973	0.324477	-9.06209	0.0163634	0.00601246	-0.0176319	-0.187744	-0.293701	1.10547	-0.0401871	-0.0503059	-0.972773	0.222639	-0.990984	-3.54358	-7.84184	-0.16537	0.0517636	0.00207789	-0.258301	0.474609	0.929688	-0.220448	0.908532	-0.340939	-0.0986528	-2.95672	-2.98373	-8.20983	0.0507491	0.0233289	-0.00279114	-0.045166	0.532715	0.963379	-0.033524	0.0198079	-0.999182	-0.0109055	-0.637419	0.311915	-9.07659	0.0104808	0.0131846	-0.00593415	-0.407471	-0.0546875	1.10767	-0.180446	-0.0391251	-0.961898	-0.201646	-3.18142	3.78002	-8.25931	-0.014282	-0.00623212	-0.0127544	-0.0773926	-0.484131	1.08813	
78	0.85853	0.126502	-0.453395	0.203361	8.6771	0.260372	5.75583	0.019329	0.058778	-0.0562297	-0.684814	-0.218506	-0.817383	0.483865	-0.0431091	-0.874009	-0.0111757	8.30482	0.0296962	-4.93759	-0.000148214	-0.00309522	-0.0147952	-1.0481	-0.348877	0.317139	0.270088	-0.163663	-0.529681	0.787213	0.125982	-9.29749	4.03583	-0.0401655	0.0342769	0.00701478	-0.322998	0.924316	-0.582764	0.528189	-0.0334794	-0.0770221	0.844963	0.198817	-1.46476	9.96933	0.0434204	0.0342781	-0.0740917	-0.0812988	-0.00927734	-1.05444	0.687375	0.188104	-0.240458	-0.659024	0.530824	5.55131	7.72732	-0.207894	0.0155689	0.00350714	-0.0390625	-0.220703	-1.02856	0.733951	0.0328644	-0.0413886	-0.677143	-0.168509	1.9483	13.0287	-0.0353538	0.0507128	-0.0428762	-0.0141602	0.275146	-1.03296	-0.0144907	0.0376475	-0.999028	-0.0177416	-0.383561	0.312965	-9.05233	0.0169493	0.00767913	-0.0170375	-0.189697	-0.30249	1.10767	-0.039891	-0.0506305	-0.973813	0.21802	-0.985144	-3.44394	-7.76902	-0.0718642	0.0204557	-0.00255552	-0.255859	0.468262	0.93457	-0.220358	0.908527	-0.341025	-0.0986061	-2.96981	-2.93302	-8.2086	0.000557726	0.00260001	-0.00502834	-0.0454102	0.537354	0.969971	-0.032943	0.0199004	-0.999203	-0.010552	-0.634588	0.324245	-9.04512	0.00655454	0.0112985	-0.00125374	-0.407715	-0.050293	1.11206	-0.18026	-0.0390863	-0.961918	-0.201723	-3.09958	3.71975	-8.3116	0.0095613	0.0254733	-0.00115382	-0.0773926	-0.486328	1.08813	
79	0.859635	0.12765	-0.450848	0.20364	8.58646	0.479643	5.85503	0.0624961	0.102587	-0.024805	-0.682617	-0.220703	-0.821533	0.483533	-0.0431183	-0.874193	-0.0111083	8.29078	-0.0065623	-4.97495	-0.00681974	-0.00224977	-0.0217458	-1.0415	-0.353271	0.317139	0.269679	-0.166191	-0.531562	0.785555	0.299277	-9.56884	3.93611	-0.126383	0.0759334	0.0341662	-0.310059	0.924072	-0.569092	0.529392	-0.0343938	-0.0752168	0.844336	0.304207	-1.8517	9.6416	0.0861804	0.0916625	-0.0393899	-0.0808105	-0.0158691	-1.05444	0.686951	0.188127	-0.239954	-0.659643	0.982534	5.63964	7.95052	0.0313588	0.0166292	-0.0679132	-0.034668	-0.218506	-1.03296	0.733931	0.0319928	-0.0404806	-0.677261	-0.229242	2.08128	13.2538	-0.0352401	0.00060698	-0.0170658	-0.0205078	0.270752	-1.02856	-0.0145906	0.0375892	-0.999026	-0.0179066	-0.380737	0.314519	-9.07642	0.0161981	0.00845254	-0.0165456	-0.196289	-0.295898	1.10767	-0.0405049	-0.0508648	-0.973925	0.217351	-0.997827	-3.40256	-7.87071	0.0219488	-0.00586324	-0.00842918	-0.255615	0.46167	0.932373	-0.221345	0.908243	-0.341218	-0.0983429	-2.98348	-2.95051	-8.18909	0.0713003	-0.00510056	-0.0202242	-0.0410156	0.541992	0.960938	-0.0330465	0.0197927	-0.999198	-0.0109522	-0.635197	0.334776	-9.05071	-0.0109784	0.00477512	0.00748574	-0.409912	-0.0480957	1.10962	-0.179711	-0.0392443	-0.962149	-0.201081	-3.1718	3.83116	-8.41802	0.027893	0.0183284	0.00127217	-0.0773926	-0.486328	1.08594	
80	0.86053	0.128235	-0.448742	0.204145	8.49423	0.381563	5.91597	0.0454399	0.0713266	-0.0134172	-0.679932	-0.227051	-0.821533	0.483299	-0.042861	-0.874338	-0.0108661	8.35732	0.00792621	-5.14819	-0.00448107	0.0022884	-0.0194933	-1.0415	-0.35083	0.32666	0.26932	-0.167295	-0.532179	0.785025	0.311149	-9.51814	3.88829	-0.0243367	0.0230301	0.0292777	-0.312256	0.930664	-0.575928	0.5319	-0.0314733	-0.0672894	0.843542	0.280673	-1.72347	9.50812	0.301419	0.0653424	-0.0857272	-0.0712891	-0.0332031	-1.05176	0.686347	0.188058	-0.239285	-0.660534	0.813292	5.93867	7.98727	-0.0634989	0.0127407	-0.0604869	-0.0302734	-0.220703	-1.03296	0.732973	0.0311717	-0.039167	-0.678413	-0.0603776	1.96533	13.329	-0.0704036	0.0401705	-0.0763844	-0.013916	0.270752	-1.03931	-0.0148011	0.0375661	-0.99902	-0.0181277	-0.392098	0.314448	-9.05847	0.0160813	0.00358459	-0.0191826	-0.185303	-0.30249	1.10986	-0.0409183	-0.050749	-0.97367	0.218442	-0.984354	-3.44541	-7.69496	0.04726	-0.0103996	-0.012533	-0.262451	0.468018	0.939209	-0.222227	0.908114	-0.341087	-0.0979952	-2.96152	-2.93827	-8.06425	0.039964	-0.000921158	-0.0209541	-0.0429688	0.537354	0.965576	-0.0332125	0.0197149	-0.999194	-0.0109318	-0.652397	0.328534	-9.06481	0.0080367	0.00581295	0.00191771	-0.414307	-0.050293	1.10742	-0.179651	-0.0395062	-0.962048	-0.201565	-3.26474	3.96261	-8.4594	-0.0404386	0.00418271	0.0147517	-0.079834	-0.484131	1.09033	
81	0.860733	0.128996	-0.447658	0.205184	8.61033	0.668603	6.00858	0.0387674	0.0297451	0.029869	-0.677979	-0.224854	-0.828125	0.483159	-0.0428882	-0.874413	-0.0109427	8.37417	0.134518	-5.03074	-0.0214905	0.00633651	-0.0230721	-1.0437	-0.353271	0.31958	0.268621	-0.167405	-0.531279	0.78585	0.175584	-9.20571	3.85905	0.0818909	-0.0138103	0.0366373	-0.312012	0.921875	-0.568848	0.531579	-0.0318426	-0.0663957	0.843802	0.328485	-1.68917	9.5198	-0.00109709	0.0392567	0.0523439	-0.0734863	-0.0332031	-1.05396	0.685819	0.187196	-0.239008	-0.661426	0.497662	5.48147	7.87211	0.0344727	-0.0350381	-0.00104563	-0.0368652	-0.218506	-1.0354	0.731473	0.0329672	-0.0397401	-0.679913	-0.337313	1.71029	13.13	0.116937	0.0320261	-0.112685	-0.0205078	0.272949	-1.03516	-0.0149927	0.0375428	-0.999016	-0.0182631	-0.391472	0.328972	-9.0538	0.0181463	0.00600802	-0.0185943	-0.189697	-0.298096	1.10547	-0.0407076	-0.0510355	-0.973942	0.217199	-1.01069	-3.42517	-7.75935	-0.0690482	0.0420931	-0.0119264	-0.260254	0.466064	0.929932	-0.222847	0.908049	-0.340774	-0.098281	-3.03077	-3.0266	-8.03774	0.00585756	-0.0227975	-0.0270538	-0.0476074	0.534912	0.969971	-0.0331087	0.019769	-0.999198	-0.0107458	-0.627161	0.31577	-9.04761	0.0111653	0.0120352	-0.00102566	-0.40332	-0.0458984	1.1189	-0.180033	-0.0396805	-0.961723	-0.202735	-3.17049	3.79624	-8.37893	-0.0420728	-0.0153116	0.00474008	-0.0773926	-0.486328	1.09033	
82	0.860305	0.128925	-0.44832	0.205577	8.66875	0.508428	5.92494	-0.0105295	-0.052158	0.0206331	-0.680176	-0.222656	-0.82373	0.483318	-0.0429875	-0.874317	-0.0111662	8.34596	-0.0478548	-5.12034	-0.00414126	0.0167741	-0.0196809	-1.0437	-0.355225	0.322021	0.268268	-0.167233	-0.531783	0.785667	0.281681	-9.63036	3.91379	-0.0216148	-0.0133699	0.00309498	-0.310059	0.932617	-0.576172	0.53138	-0.0289796	-0.0603917	0.844481	0.106096	-1.35763	9.48954	0.267172	0.0323206	0.0227308	-0.0678711	-0.0551758	-1.05371	0.68423	0.189531	-0.240377	-0.661911	0.529685	5.62473	8.03864	0.0518408	0.015037	-0.0947207	-0.0366211	-0.229492	-1.03296	0.731249	0.033308	-0.0405106	-0.680092	-0.464313	1.66908	13.1908	0.0247977	0.0119438	-0.0334835	-0.0224609	0.268555	-1.03711	-0.0150577	0.0375052	-0.999015	-0.0183444	-0.403249	0.322192	-9.0835	0.0178197	0.00738931	-0.0169373	-0.185547	-0.295898	1.10327	-0.0406812	-0.0510733	-0.97402	0.216846	-0.995414	-3.42637	-7.81963	-0.0220594	0.0217954	-0.0187198	-0.253662	0.463867	0.939209	-0.22334	0.907953	-0.340841	-0.0978113	-2.90916	-3.08741	-8.09255	0.0308537	0.023335	-0.0193577	-0.0427246	0.532715	0.963379	-0.0329629	0.0197939	-0.9992	-0.0109926	-0.625263	0.325071	-9.03902	-0.00800874	0.0164841	0.00106742	-0.405273	-0.0524902	1.10986	-0.180367	-0.0399389	-0.961728	-0.202365	-3.13297	3.8613	-8.26456	0.0200255	-0.00733491	-0.00158737	-0.0749512	-0.488525	1.08813	
83	0.859985	0.128914	-0.449281	0.204828	8.55475	0.424954	5.81382	-0.0221513	-0.0489368	-0.0386305	-0.68457	-0.222656	-0.82373	0.483285	-0.0433282	-0.874314	-0.0115277	8.24249	-0.0809053	-4.97634	-0.0431231	0.0164391	-0.00820506	-1.0437	-0.355469	0.317383	0.268269	-0.166908	-0.531068	0.786219	0.241031	-9.25829	3.87672	0.0802358	-0.00685086	0.0072427	-0.307861	0.93042	-0.575928	0.531345	-0.0279808	-0.0582607	0.844686	0.354856	-0.76064	9.66345	0.190716	0.0266868	0.0192308	-0.0700684	-0.0595703	-1.05151	0.685081	0.186982	-0.239542	-0.662059	1.33388	5.92299	8.25701	-0.152036	-0.0131164	-0.000887486	-0.0368652	-0.220703	-1.03076	0.73074	0.0329346	-0.0402128	-0.680674	-0.16996	1.57935	13.1005	-0.036067	0.00830773	-0.0753115	-0.0185547	0.277344	-1.0332	-0.0150898	0.03769	-0.99901	-0.0181958	-0.395449	0.329832	-9.06177	0.0178187	0.0056904	-0.0172106	-0.189697	-0.30249	1.10571	-0.0401932	-0.0510048	-0.973946	0.217282	-0.986361	-3.41014	-7.73636	0.0220603	0.0269848	-0.0178128	-0.255859	0.468018	0.939209	-0.223252	0.907976	-0.340906	-0.0975789	-3.02114	-3.04612	-8.03399	0.0076937	0.0222694	-0.0182815	-0.0429688	0.537354	0.967773	-0.0329421	0.0197931	-0.9992	-0.0110799	-0.639271	0.336389	-9.04803	-0.001529	0.0112864	0.00159579	-0.407715	-0.050293	1.10986	-0.180546	-0.0398747	-0.961792	-0.201915	-3.18617	4.00424	-8.23917	-0.0101067	0.00350011	-0.0101023	-0.0817871	-0.488525	1.0835	
84	0.859857	0.128954	-0.449886	0.204007	8.63841	0.423163	5.80782	-0.035169	-0.0578587	-0.0505333	-0.68042	-0.220459	-0.82373	0.483205	-0.0433341	-0.87436	-0.0114195	8.33628	-0.0779786	-4.96836	-0.0022657	0.0049692	-0.0126734	-1.0481	-0.353271	0.317139	0.269271	-0.166882	-0.531345	0.785695	0.306302	-9.60228	4.03018	-0.0195563	0.0344332	-0.0404155	-0.314453	0.932861	-0.57373	0.53137	-0.0278957	-0.0589687	0.844624	0.159074	-0.897881	9.99746	-0.0100937	-0.0186642	-0.019694	-0.0700684	-0.057373	-1.05591	0.684953	0.186359	-0.238909	-0.662595	0.66132	5.15536	7.68381	-0.0767932	-0.00102705	-0.0468564	-0.034668	-0.220703	-1.03296	0.731146	0.0329	-0.0415019	-0.680163	-0.246881	1.50726	13.3957	0.0942123	-0.0108397	0.0312374	-0.0224609	0.270752	-1.03296	-0.0152522	0.037617	-0.999007	-0.0183845	-0.38643	0.327286	-9.06891	0.0164014	0.00599905	-0.0167646	-0.191895	-0.298096	1.10547	-0.0401889	-0.0511593	-0.97432	0.215564	-0.966989	-3.42404	-7.74085	-0.0877632	0.0254628	-0.00558744	-0.257812	0.46167	0.94165	-0.223115	0.907946	-0.341078	-0.0975721	-2.96363	-3.14406	-8.18702	0.0112188	0.00687065	-0.0107632	-0.0429688	0.535156	0.963379	-0.03285	0.0198794	-0.999203	-0.0108957	-0.638862	0.326958	-9.06651	0.0152	0.0146489	-0.00376416	-0.412109	-0.050293	1.10742	-0.180345	-0.0397134	-0.961748	-0.202334	-3.08591	3.86166	-8.27209	-0.0326429	0.0232376	-0.00751028	-0.0773926	-0.486328	1.08594	
