40	Head	00b4120a												Throax	00b411e8												LUpArm	00b411d9												LFoArm	00b41148												RUpArm	00b411db												RFoArm	00b41204												Waist	00b411f7												Lthigh	00b411f4												Lshank	00b4111b												Rthigh	00b411c8												Rshank	00b411ee												
PacketCount	q0	q1	q2	q3	accX	accY	accZ	gyrX	gyrY	gyrZ	magX	magY	magZ	q0	q1	q2	q3	accX	accY	accZ	gyrX	gyrY	gyrZ	magX	magY	magZ	q0	q1	q2	q3	accX	accY	accZ	gyrX	gyrY	gyrZ	magX	magY	magZ	q0	q1	q2	q3	accX	accY	accZ	gyrX	gyrY	gyrZ	magX	magY	magZ	q0	q1	q2	q3	accX	accY	accZ	gyrX	gyrY	gyrZ	magX	magY	magZ	q0	q1	q2	q3	accX	accY	accZ	gyrX	gyrY	gyrZ	magX	magY	magZ	q0	q1	q2	q3	accX	accY	accZ	gyrX	gyrY	gyrZ	magX	magY	magZ	q0	q1	q2	q3	accX	accY	accZ	gyrX	gyrY	gyrZ	magX	magY	magZ	q0	q1	q2	q3	accX	accY	accZ	gyrX	gyrY	gyrZ	magX	magY	magZ	q0	q1	q2	q3	accX	accY	accZ	gyrX	gyrY	gyrZ	magX	magY	magZ	q0	q1	q2	q3	accX	accY	accZ	gyrX	gyrY	gyrZ	magX	magY	magZ	
0	0.288231	0.107865	0.0160069	-0.951332	-2.15527	0.417322	10.8814	-0.00537728	-0.0418055	-0.00600993	-0.130371	0.205811	-1.13477	0.170585	0.473328	0.0941189	-0.859071	-8.2261	0.292189	5.46062	-0.0441322	0.0370283	-0.017274	0.845215	0.0854492	-0.781494	0.330309	0.899089	0.283945	0.0437069	-1.62316	5.83539	-7.21522	0.0173027	-0.0245481	-0.00867083	0.461914	-0.494873	0.924805	-0.439552	0.49383	0.60675	-0.441339	0.890776	-9.46181	-1.95547	-0.0344987	-0.0370813	-0.0747883	-0.163574	1.15576	-0.240479	-0.0818866	0.981198	0.166907	-0.0518308	-0.468225	-1.77933	-9.66129	0.0113015	0.0312607	-0.0471146	0.484131	0.635254	1.25952	0.252455	0.95971	-0.122203	-0.0169885	0.803245	5.41913	-4.72193	-0.0547925	-0.000333091	-0.0314221	0.210938	-0.971191	0.580322	0.0473493	0.0553911	0.0289191	-0.996922	-0.996068	-0.179035	10.6744	0.0337996	-0.0919174	0.000753612	-0.250732	0.0773926	-1.05176	0.0129992	-0.11306	0.0134332	-0.993412	2.60857	0.25187	10.837	0.00303506	0.0124755	0.00224694	-0.710449	0.0395508	-0.915771	0.0599154	-0.725584	-0.685185	0.0214461	0.610865	-0.926729	-9.11409	-0.0215791	0.00114075	-0.0268985	0.42627	0.132324	1.21924	-0.14642	-0.110017	-0.00776961	-0.983055	2.15964	0.664124	10.1987	0.000930855	0.0224127	-0.033532	-0.639893	-0.190186	-0.907715	0.151118	-0.971601	-0.182082	-0.000447658	0.63286	-2.80158	-9.25392	0.20978	0.0407893	0.0127963	0.358887	0.184326	1.02319	
1	0.287636	0.10679	0.0158031	-0.951636	-1.8486	0.431479	10.8737	-0.00553919	-0.0808846	-0.0540995	-0.130371	0.208008	-1.12842	0.171246	0.473321	0.0951233	-0.858833	-8.36509	0.278989	5.53111	-0.100509	0.035436	-0.0123029	0.845459	0.0788574	-0.78125	0.330312	0.899386	0.283172	0.0425676	-0.909129	6.21474	-6.65152	0.0575735	-0.0867824	0.0287711	0.470459	-0.490723	0.919922	-0.439301	0.493509	0.608153	-0.440016	0.887572	-9.4799	-2.03423	-0.108105	0.00832221	-0.0968183	-0.168213	1.16016	-0.238281	-0.0817398	0.981264	0.166623	-0.0517398	-0.687227	-1.71873	-9.71744	-0.00877705	0.0115215	0.00831831	0.479736	0.632812	1.25952	0.253044	0.959524	-0.122538	-0.0163423	0.821457	5.39223	-4.70556	-0.00799932	0.0529995	0.0182373	0.202148	-0.967041	0.58252	0.047966	0.0543895	0.0284753	-0.99696	-0.987015	0.0212375	10.4948	0.0437045	-0.0651409	0.0220185	-0.250732	0.0771484	-1.0498	0.0132455	-0.113232	0.0131895	-0.993393	2.57625	0.373012	10.7753	0.0246854	0.00110485	0.0017485	-0.714844	0.0439453	-0.911377	0.0595294	-0.725524	-0.68529	0.0211557	0.615833	-0.892476	-9.10037	-0.0237217	-0.00582878	-0.0297743	0.424072	0.130127	1.21704	-0.147045	-0.109751	-0.0073319	-0.982995	2.20686	0.718056	10.2388	-0.0209068	0.013869	-0.0209531	-0.633301	-0.187988	-0.916992	0.15294	-0.971393	-0.18167	-0.000470136	0.658877	-2.89471	-9.28474	0.14675	0.0348686	0.00956287	0.365479	0.186523	1.01855	
2	0.28672	0.105583	0.0162874	-0.952039	-1.64595	0.458028	10.9122	-0.0419097	-0.017186	-0.0274578	-0.132324	0.201416	-1.12842	0.171607	0.473223	0.0963745	-0.858675	-8.19129	-0.118385	5.4397	-0.0430756	0.0319035	-0.0378254	0.845215	0.0898438	-0.779297	0.330593	0.899541	0.282538	0.0413048	-0.613002	6.16531	-6.24348	0.033986	-0.0900369	0.00992404	0.464111	-0.490479	0.922363	-0.43888	0.493725	0.609619	-0.438161	0.567514	-9.66018	-2.63182	-0.0326444	0.0260419	-0.00783783	-0.167969	1.15576	-0.231689	-0.0818369	0.981329	0.166088	-0.0520671	-0.782854	-1.70436	-9.67297	0.016947	-0.0163697	0.0296575	0.483887	0.637207	1.26196	0.253044	0.959524	-0.122538	-0.0163423	0.821457	5.39223	-4.70556	-0.00799932	0.0529995	0.0182373	0.202148	-0.967041	0.58252	0.048827	0.0525622	0.0291481	-0.996997	-0.942535	-0.118894	10.5449	-0.00324133	-0.0789255	-0.00846248	-0.250732	0.0793457	-1.0498	0.0133722	-0.113387	0.0133041	-0.993372	2.70465	0.478827	10.7579	-0.00438601	0.00358428	-0.00479302	-0.708008	0.0373535	-0.913574	0.0594262	-0.725532	-0.685284	0.021381	0.60135	-0.888782	-9.12116	0.0355051	-0.00998263	-0.0150476	0.428467	0.136963	1.2146	-0.147644	-0.109632	-0.00688583	-0.982921	2.17656	0.565505	10.2197	-0.0102475	0.0100159	-0.019299	-0.633545	-0.183594	-0.910156	0.157998	-0.970746	-0.180799	-0.000210294	0.645099	-3.0081	-9.19691	0.116962	0.0232054	0.00931712	0.358154	0.201904	1.02051	
3	0.287392	0.10471	0.0171816	-0.951917	-1.83296	0.277582	10.8774	-0.0472069	-0.0268306	0.0211328	-0.13501	0.210205	-1.13281	0.171522	0.473632	0.0963237	-0.858473	-8.23216	-0.01593	5.38531	-0.000311273	0.0444664	-0.0213176	0.843018	0.0854492	-0.781494	0.330053	0.899763	0.282424	0.0415598	-1.08893	5.77381	-6.67008	0.0209745	0.0131917	0.00683908	0.466064	-0.486328	0.924561	-0.43886	0.492517	0.609306	-0.439973	0.835194	-9.45723	-2.10844	0.082241	-0.0199071	0.016163	-0.169922	1.15356	-0.238037	-0.0828669	0.981141	0.166669	-0.0521211	-0.654819	-1.52617	-9.45609	-0.00317867	0.0286234	-0.0339253	0.483643	0.644043	1.25732	0.256798	0.958618	-0.121793	-0.0165264	0.832003	5.44991	-4.66151	-0.0713563	-0.0108385	-0.0468846	0.206543	-0.971191	0.576172	0.0490456	0.0505513	0.0287297	-0.997103	-0.941214	-0.204036	10.4498	0.0134541	-0.016876	-0.0188179	-0.25293	0.081543	-1.04565	0.0129968	-0.11359	0.0135733	-0.99335	2.70224	0.342591	10.8524	-0.00198884	0.00631993	-0.0197633	-0.710449	0.0395508	-0.918213	0.0600607	-0.725586	-0.685141	0.0223252	0.608582	-0.931649	-9.11082	0.0599861	-0.00996283	-0.0112127	0.428223	0.13916	1.2168	-0.147909	-0.109752	-0.00693927	-0.982868	2.176	0.742531	10.2526	-0.00621659	0.00575092	-0.00505873	-0.637695	-0.185791	-0.914795	0.158854	-0.970615	-0.180752	-0.000128763	0.6769	-3.03855	-9.18918	0.0711719	0.0134735	0.000563824	0.355957	0.19751	1.01392	
4	0.287552	0.104123	0.017816	-0.951922	-1.70668	0.213084	10.853	-0.0277796	0.00330622	-0.00386685	-0.130371	0.208008	-1.12622	0.171607	0.473196	0.0966598	-0.858658	-8.1025	0.141471	5.36193	-0.0146281	0.0079733	-0.0258237	0.847412	0.0856934	-0.769775	0.331267	0.899379	0.282205	0.0417133	-1.20191	5.95914	-6.78423	-0.0425838	-0.00131366	-0.00887345	0.466064	-0.490479	0.917725	-0.43886	0.492517	0.609306	-0.439973	0.835194	-9.45723	-2.10844	0.082241	-0.0199071	0.016163	-0.169922	1.15356	-0.238037	-0.0831186	0.981139	0.16666	-0.051795	-0.590947	-1.85717	-9.58894	0.0187859	0.0333397	-0.0174307	0.483887	0.639648	1.25952	0.258432	0.958231	-0.121324	-0.0168956	0.836242	5.44309	-4.64443	-0.0506173	0.000513657	-0.0304301	0.213135	-0.977783	0.567627	0.049677	0.0498501	0.0306125	-0.997051	-0.69122	-0.0181652	10.495	-0.0839913	0.080656	0.00217889	-0.259521	0.0859375	-1.04565	0.0129216	-0.113855	0.0142108	-0.993312	2.7123	0.294509	10.7973	-0.0280909	0.00561759	-0.0154634	-0.714844	0.0415039	-0.906494	0.0600607	-0.725586	-0.685141	0.0223252	0.608582	-0.931649	-9.11082	0.0599861	-0.00996283	-0.0112127	0.428223	0.13916	1.2168	-0.147909	-0.109752	-0.00693927	-0.982868	2.176	0.742531	10.2526	-0.00621659	0.00575092	-0.00505873	-0.637695	-0.185791	-0.914795	0.159684	-0.970509	-0.18059	-6.62641e-05	0.660637	-3.03205	-9.28643	0.0387243	0.0139621	0.00258153	0.35376	0.199707	1.01147	
5	0.287429	0.103682	0.0179743	-0.952004	-1.70126	0.238871	10.9008	-0.00834905	-0.0166591	-0.0110222	-0.132812	0.214355	-1.13062	0.171738	0.473473	0.097375	-0.858398	-8.26489	-0.110065	5.50437	-0.0231485	0.0248577	-0.0271773	0.847412	0.0898438	-0.774658	0.330778	0.899638	0.282013	0.0412957	-1.07496	6.05083	-6.72499	0.0636769	0.00153302	0.00718614	0.46167	-0.483887	0.91748	-0.438946	0.492353	0.61015	-0.438899	0.776292	-9.55901	-2.14175	-0.0523072	0.0268381	-0.0295993	-0.167969	1.15576	-0.233887	-0.084076	0.980966	0.167224	-0.0517097	-0.675209	-1.66505	-9.63068	0.0253556	0.00645091	-0.0219997	0.479492	0.639648	1.25269	0.259239	0.958024	-0.121222	-0.0170629	0.822316	5.47987	-4.62435	0.0290038	0.00617877	-0.0263127	0.217529	-0.975586	0.576172	0.0502043	0.049788	0.0316597	-0.996995	-0.921549	-0.309607	10.425	-0.00339069	-0.0504751	-0.0164338	-0.253174	0.0859375	-1.04785	0.0127471	-0.113968	0.0145647	-0.993296	2.75657	0.143746	10.8219	-0.000712197	0.00999418	-0.019521	-0.714844	0.0437012	-0.908936	0.0612197	-0.725414	-0.685177	0.0236392	0.585971	-0.972424	-9.09182	0.0296992	0.00529636	-0.0121818	0.425781	0.145996	1.21899	-0.148215	-0.109198	-0.00615226	-0.982889	2.16118	0.612486	10.2771	-0.00507296	0.00966297	-0.00742024	-0.640137	-0.181396	-0.917236	0.162059	-0.970138	-0.18047	-4.67345e-05	0.677819	-3.05391	-9.22199	0.0957168	0.0205612	0.000786223	0.355713	0.204102	1.01611	
6	0.287914	0.103946	0.0180477	-0.951827	-1.82846	0.215419	10.8796	-0.0016167	0.0218338	0.0275714	-0.132568	0.208008	-1.13062	0.171414	0.473326	0.0972157	-0.858562	-8.20605	0.0525699	5.37315	0.0186132	0.0165468	-0.035132	0.845215	0.0856934	-0.769775	0.331564	0.899241	0.28244	0.0407319	-1.06656	5.7696	-6.67969	-0.0213541	0.00945202	-0.0309943	0.470459	-0.488525	0.919922	-0.438934	0.492374	0.610682	-0.438147	0.731239	-9.48243	-2.4188	0.00133596	0.0231272	-0.00684282	-0.172363	1.15576	-0.238281	-0.0838197	0.980936	0.167543	-0.0516626	-0.58274	-1.68509	-9.43755	-0.0306445	-0.00157981	-0.0305467	0.479492	0.637451	1.25269	0.259666	0.957928	-0.121036	-0.0172757	0.816657	5.42395	-4.64581	-0.00578638	-0.0049311	-0.0336988	0.210938	-0.975586	0.573975	0.0501173	0.0485436	0.0318481	-0.997054	-0.913227	-0.12604	10.5417	-0.0089722	0.00761546	-0.0304572	-0.259521	0.0859375	-1.04565	0.0131009	-0.113999	0.0140349	-0.993295	2.66099	0.238171	10.824	0.0315107	0.0140214	-0.000654734	-0.712646	0.0415039	-0.906494	0.0609834	-0.725369	-0.685273	0.0228481	0.60184	-0.980709	-9.11187	-0.0308696	0.0158895	-0.0271319	0.428223	0.13916	1.2146	-0.148221	-0.109245	-0.00566372	-0.982886	2.24543	0.60807	10.2331	-0.0260697	0.00547546	0.0114828	-0.635742	-0.181396	-0.917236	0.162882	-0.970042	-0.180245	1.27931e-05	0.694372	-3.11826	-9.1682	0.00697378	0.00405337	-0.00456292	0.353516	0.201904	1.01831	
7	0.288655	0.104112	0.017758	-0.95159	-1.75982	0.278884	10.8858	0.00946609	0.00673046	0.0227907	-0.130615	0.209961	-1.12207	0.171258	0.473374	0.0971234	-0.858577	-8.24037	0.134101	5.46253	0.00765426	0.0203034	-0.0300164	0.843018	0.0876465	-0.776855	0.330226	0.899818	0.282203	0.0404925	-1.09386	5.99182	-6.86132	0.104308	-1.11396e-05	0.0238281	0.468262	-0.481934	0.924316	-0.438961	0.492106	0.610873	-0.438154	0.877322	-9.47342	-2.20119	0.00560532	0.0135699	-0.0114208	-0.172607	1.16211	-0.231689	-0.0832048	0.981003	0.167634	-0.0510875	-0.608016	-1.71305	-9.59639	-0.0198146	0.0278251	-0.0114075	0.488037	0.644043	1.25732	0.261503	0.957384	-0.121428	-0.0169674	0.814161	5.46612	-4.64159	-0.0345229	0.0331191	0.0125811	0.213135	-0.975586	0.576172	0.0502064	0.0476485	0.032048	-0.997087	-0.844886	-0.147429	10.4021	-0.00535096	-0.0536779	-0.0225875	-0.266113	0.0881348	-1.04565	0.013444	-0.114036	0.0138857	-0.993289	2.64149	0.342782	10.7658	0.00607631	0.0137593	-0.00527692	-0.708496	0.0461426	-0.911377	0.0605797	-0.725321	-0.68538	0.0222366	0.614537	-0.95003	-9.10844	-0.0427196	0.0122094	-0.0304285	0.428223	0.13916	1.21924	-0.148056	-0.109266	-0.00545629	-0.982909	2.11803	0.566066	10.2385	-0.0131503	0.00843821	0.0185332	-0.626953	-0.179199	-0.9104	0.162619	-0.970086	-0.180247	0.000123899	0.668213	-3.09185	-9.17269	-0.0173235	-0.00595019	-0.00126632	0.355713	0.204102	1.01367	
8	0.288637	0.104915	0.0174567	-0.951513	-1.85692	0.233968	10.8712	0.0210659	0.0352378	-0.0044311	-0.125977	0.210205	-1.12622	0.171222	0.472941	0.0980918	-0.858713	-8.21463	0.107333	5.44656	-0.0240332	0.0254015	-0.0281423	0.842773	0.092041	-0.7771	0.330345	0.899887	0.282086	0.0387673	-1.27457	5.99754	-6.59159	-0.000238534	-0.0620773	-0.0205766	0.468262	-0.488525	0.919922	-0.439372	0.492111	0.61093	-0.437656	0.70619	-9.60596	-2.48332	0.0139894	0.0475261	-0.00440327	-0.169922	1.15356	-0.231445	-0.0835255	0.980976	0.167495	-0.05152	-0.481117	-1.59787	-9.55597	0.0340515	-0.0148333	-0.0116219	0.483887	0.639648	1.25513	0.262885	0.956975	-0.121718	-0.0166044	0.848456	5.46358	-4.64658	-0.071853	0.0385911	0.0122692	0.211182	-0.977783	0.572021	0.0505875	0.0466212	0.0330678	-0.997083	-0.838427	-0.139224	10.5372	-0.0256986	-0.0368183	-0.0165286	-0.263916	0.0881348	-1.0437	0.0132617	-0.11406	0.0137753	-0.99329	2.71861	0.345936	10.7898	0.00944309	0.0161081	-0.0309148	-0.710693	0.0458984	-0.906738	0.0602545	-0.725301	-0.685447	0.0216897	0.61596	-0.907136	-9.1333	0.0042173	0.00507937	-0.0197185	0.425781	0.141602	1.2146	-0.147943	-0.109392	-0.00505475	-0.982914	2.27898	0.543747	10.2381	-0.0104684	0.00730975	0.00611686	-0.640381	-0.179199	-0.912598	0.162619	-0.970086	-0.180247	0.000123899	0.668213	-3.09185	-9.17269	-0.0173235	-0.00595019	-0.00126632	0.355713	0.204102	1.01367	
9	0.288534	0.104925	0.0167501	-0.951556	-1.78628	0.304792	10.8776	0.0280381	-0.0146041	-0.0111948	-0.132568	0.208008	-1.12842	0.171445	0.472674	0.0982381	-0.858799	-8.18646	0.042426	5.52349	-0.0252922	-0.00319068	-0.0164931	0.843018	0.0898438	-0.776855	0.329674	0.900195	0.28192	0.038525	-1.043	5.78008	-6.68719	0.086581	0.00304704	0.0147371	0.470215	-0.477539	0.91748	-0.440121	0.491068	0.611514	-0.437261	0.778307	-9.2541	-1.89034	-0.022212	0.030035	-0.0775966	-0.172363	1.15552	-0.231689	-0.0836207	0.98095	0.167659	-0.0513256	-0.570755	-1.45195	-9.50588	0.00764277	0.0198507	-0.0298426	0.48584	0.644043	1.25513	0.267066	0.955763	-0.122218	-0.0160146	0.851023	5.54707	-4.5884	-0.1268	0.0457302	0.0186213	0.204834	-0.984375	0.563721	0.0510418	0.0456793	0.0336833	-0.997083	-0.756765	-0.299766	10.3536	-0.0110643	-0.0292043	-0.00707156	-0.266357	0.0900879	-1.0415	0.0130877	-0.114041	0.0138331	-0.993293	2.64277	0.34439	10.7533	-0.00257099	0.0173957	-0.0295151	-0.719238	0.0458984	-0.911377	0.0608793	-0.725415	-0.685254	0.0221932	0.603613	-0.952648	-9.07886	0.0509924	0.00170572	-0.00886751	0.425781	0.143799	1.2146	-0.147726	-0.109549	-0.00526273	-0.982928	2.19012	0.600448	10.2426	0.0143042	0.00729807	0.0150764	-0.631348	-0.179199	-0.917236	0.160724	-0.970372	-0.180407	0.000138531	0.667883	-3.08976	-9.19644	-0.0371494	-0.00596671	-0.00275282	0.353516	0.206299	1.01831	
10	0.288349	0.10498	0.0164368	-0.951611	-1.76951	0.398224	10.865	0.0257425	0.00288294	-0.0160944	-0.128174	0.208008	-1.13062	0.172082	0.472174	0.0993124	-0.858823	-8.19593	-0.0452471	5.36798	-0.0521586	-0.00887927	-0.0240518	0.842773	0.0942383	-0.7771	0.32558	0.901802	0.281853	0.0361801	-1.06336	6.07501	-6.99009	0.149307	-0.0670392	-0.0600954	0.470215	-0.468994	0.92627	-0.440156	0.491703	0.613886	-0.433169	0.669447	-9.38567	-2.36175	-0.116024	0.0765654	-0.0910937	-0.178955	1.15552	-0.229492	-0.0831031	0.98099	0.167857	-0.0507619	-0.592102	-1.72442	-9.49619	-0.028578	0.0103037	-0.0189505	0.481689	0.641602	1.26196	0.269157	0.955102	-0.122915	-0.0150423	0.888335	5.51572	-4.50432	-0.00368852	0.0323182	0.00925137	0.200439	-0.982178	0.561523	0.0516076	0.0433174	0.0337702	-0.997156	-0.716894	-0.236048	10.4345	0.00488216	-0.0777472	-0.00485912	-0.268555	0.0900879	-1.0415	0.0130478	-0.114104	0.0140485	-0.993284	2.67635	0.216423	10.7898	-0.013949	0.0115781	-0.0172121	-0.715088	0.0480957	-0.911377	0.0612858	-0.725468	-0.685157	0.0223561	0.605846	-0.978362	-9.09674	0.0219504	0.00658342	-0.0154945	0.425781	0.143799	1.2124	-0.147203	-0.109808	-0.00530475	-0.982978	2.23457	0.62591	10.2281	0.00708582	0.000859288	0.0241328	-0.635742	-0.181396	-0.9104	0.157716	-0.970816	-0.180671	0.000133902	0.66096	-3.0286	-9.22299	-0.118706	-0.019871	-0.00816409	0.367432	0.193115	1.01855	
11	0.288387	0.104583	0.0164425	-0.951643	-1.64014	0.503743	10.9306	-0.0191811	-0.0138873	-0.00788594	-0.125977	0.208008	-1.12622	0.172388	0.472128	0.10115	-0.858572	-8.2386	-0.0250384	5.57619	-0.0802476	0.0209079	-0.049968	0.849121	0.10083	-0.779785	0.322881	0.902569	0.282679	0.0347756	-1.25944	5.64536	-6.77709	0.193256	-0.00228772	-0.0166253	0.467773	-0.4646	0.928467	-0.441267	0.491289	0.615513	-0.430188	0.966376	-9.63418	-2.51203	-0.0536897	0.0781945	-0.0939644	-0.183594	1.15991	-0.225098	-0.084631	0.980874	0.16813	-0.0495637	-0.502615	-1.7672	-9.41565	0.0642891	0.0672676	-0.0268437	0.479004	0.650635	1.25952	0.269552	0.954918	-0.123541	-0.0145542	0.872839	5.55252	-4.54098	0.0111539	0.0192879	0.0107062	0.202637	-0.984375	0.563721	0.0522143	0.0421731	0.0351126	-0.997127	-0.694443	-0.290548	10.397	-0.0243241	-0.0435603	-0.0108618	-0.268799	0.0966797	-1.0354	0.0131112	-0.113728	0.0143099	-0.993322	2.70675	0.211741	10.7738	-0.00113077	0.0238516	-0.00147762	-0.710449	0.0439453	-0.916016	0.0609866	-0.725444	-0.685231	0.0216824	0.593383	-0.990421	-9.08016	-0.0249171	0.012438	-0.0247002	0.425781	0.141602	1.2146	-0.146799	-0.109853	-0.00576726	-0.983031	2.24002	0.705868	10.2471	0.0251698	0.0143843	0.0169727	-0.633545	-0.181396	-0.907959	0.155577	-0.971176	-0.180593	0.000183099	0.62336	-2.97334	-9.29802	-0.0687752	-0.00818643	-0.00594385	0.358398	0.195312	1.01611	
12	0.288223	0.104946	0.0174809	-0.951634	-1.89307	0.276498	10.884	-0.0378288	0.0394146	-0.0148934	-0.128174	0.210205	-1.13281	0.172692	0.471622	0.102238	-0.858661	-8.26388	-0.19691	5.48782	-0.0305315	-0.00121045	-0.0313682	0.846924	0.0986328	-0.779541	0.321618	0.902955	0.283051	0.0334207	-1.1214	5.67258	-6.64951	0.0147274	-0.00362737	0.00338655	0.474365	-0.460449	0.926025	-0.441769	0.490758	0.615625	-0.430119	0.836039	-9.61261	-2.36689	0.0226973	0.0131512	0.00780751	-0.18335	1.15332	-0.227051	-0.0838236	0.980898	0.168599	-0.0488533	-0.659468	-1.56238	-9.77132	-0.0611978	0.0277074	-0.043248	0.474854	0.648193	1.25952	0.270833	0.954506	-0.123949	-0.0143033	0.917278	5.54241	-4.53261	-0.00631711	0.00715513	-0.013583	0.207031	-0.982178	0.565674	0.0527831	0.0403802	0.0361006	-0.997136	-0.69074	-0.421644	10.6706	-0.02871	-0.0903125	-0.00915762	-0.268799	0.0966797	-1.04175	0.0133064	-0.113222	0.0142657	-0.993378	2.6766	0.247793	10.796	0.00448887	0.0279391	-0.000226519	-0.708496	0.0458984	-0.908936	0.0603728	-0.725373	-0.685393	0.0206324	0.626312	-0.933653	-9.10113	-0.0277403	0.0110478	-0.0268632	0.423828	0.136963	1.2146	-0.146815	-0.109855	-0.00582845	-0.983028	2.26187	0.60289	10.2699	0.00412055	0.0132528	-0.00263322	-0.637939	-0.183594	-0.914795	0.15523	-0.971229	-0.180606	0.000299054	0.62851	-2.95145	-9.28874	0.00548719	0.000727084	0.00314512	0.354248	0.188721	1.02075	
13	0.28833	0.104654	0.0178558	-0.951627	-1.83028	0.114314	10.8679	-0.00731692	-0.0157188	-0.0011598	-0.121582	0.208008	-1.13037	0.17312	0.471742	0.103104	-0.858405	-8.2404	-0.0204476	5.51038	-0.060719	0.044004	-0.0169969	0.849121	0.0986328	-0.774902	0.322551	0.902507	0.283383	0.0337055	-1.23711	5.79146	-6.82931	-0.0233177	0.00380278	-0.0122246	0.472168	-0.4646	0.923828	-0.441159	0.491404	0.615699	-0.429902	0.965113	-9.22086	-2.26302	-0.0291582	0.0120626	0.0241626	-0.183594	1.15552	-0.220459	-0.0831805	0.980934	0.168812	-0.0485063	-0.582418	-1.8467	-9.64972	-0.0170542	-0.0121733	-0.0106161	0.474609	0.650391	1.26416	0.270405	0.954657	-0.123698	-0.0144978	0.863312	5.54186	-4.58793	0.0700281	0.00370189	-0.033226	0.207031	-0.986572	0.567871	0.0536816	0.0386532	0.037157	-0.997118	-0.6093	-0.447	10.7687	-0.0503206	-0.0355447	0.0150764	-0.277588	0.103027	-1.0376	0.0133962	-0.113096	0.0141737	-0.993393	2.63293	0.288903	10.7922	0.0116145	0.0254361	-0.00985189	-0.706299	0.0458984	-0.908936	0.0599528	-0.725315	-0.685512	0.0199341	0.602363	-0.918014	-9.09384	-0.0174875	0.00740189	-0.0257622	0.421387	0.136963	1.21924	-0.146731	-0.109987	-0.00649865	-0.983021	2.20785	0.726863	10.286	0.0253794	0.00892411	0.00585412	-0.637939	-0.183594	-0.912598	0.155391	-0.971213	-0.180554	0.000327653	0.616518	-2.97238	-9.27185	0.015145	0.00720752	0.00122866	0.358398	0.193115	1.01611	
14	0.288504	0.104906	0.0174194	-0.951555	-1.81268	0.190306	10.8979	0.0207674	0.0141637	0.0091273	-0.125977	0.210205	-1.12622	0.173465	0.471853	0.103658	-0.858207	-8.22694	-0.198055	5.48104	-0.00591307	0.0310758	-0.0206631	0.846924	0.103027	-0.772705	0.323269	0.902353	0.283009	0.0340947	-1.21341	5.61904	-7.06386	-0.000984614	0.0161409	0.0239414	0.469971	-0.462402	0.926025	-0.439491	0.492335	0.617299	-0.428247	0.9548	-9.69699	-2.48225	-0.0868675	-0.00100356	-0.00611328	-0.181152	1.15332	-0.21167	-0.0826532	0.980954	0.168902	-0.0486854	-0.56438	-1.66449	-9.47156	-0.0102792	0.0165226	-0.0262511	0.477051	0.643799	1.25952	0.271397	0.954369	-0.123769	-0.0143351	0.872566	5.53938	-4.59753	-0.0346101	0.0167168	-0.0096849	0.206787	-0.977783	0.565674	0.0540292	0.0379759	0.036859	-0.997136	-0.706586	-0.370968	10.3754	0.0345444	-0.0391406	-0.0001158	-0.277344	0.0966797	-1.0354	0.0134754	-0.112803	0.0137721	-0.993431	2.62386	0.347382	10.8123	0.0141078	0.0165633	-0.015114	-0.714844	0.0458984	-0.908936	0.0598018	-0.725298	-0.685551	0.0196616	0.633116	-0.921709	-9.11569	-0.00976093	0.00699038	-0.0228109	0.428223	0.143799	1.22363	-0.146861	-0.110089	-0.00673333	-0.982989	2.26341	0.604665	10.2315	0.019187	0.0100045	-0.00346216	-0.637939	-0.181396	-0.9104	0.155751	-0.971133	-0.180674	0.00015973	0.63219	-2.97372	-9.26879	0.01955	0.0133199	-0.00670669	0.358398	0.193115	1.02075	
15	0.288788	0.105496	0.0166441	-0.951417	-1.92184	0.364591	10.8853	0.0378274	0.0159964	0.0109534	-0.121338	0.205811	-1.13037	0.173799	0.47174	0.10425	-0.85813	-8.22095	0.18269	5.42815	-0.0527752	0.0292491	-0.0267138	0.848877	0.105225	-0.765869	0.324133	0.902144	0.28274	0.0336378	-1.09575	5.88719	-6.77553	-0.0253644	-0.0343309	0.00518243	0.472168	-0.462402	0.923828	-0.439119	0.492128	0.617848	-0.428075	0.845107	-9.42993	-2.41684	0.00605364	0.00845787	-0.00714158	-0.181396	1.15771	-0.214111	-0.082608	0.980996	0.168752	-0.0484268	-0.759555	-1.57626	-9.61824	-0.0141167	0.00992434	0.00512121	0.477051	0.643799	1.25952	0.27317	0.953819	-0.124149	-0.013927	0.905741	5.5344	-4.56075	-0.0242876	0.018146	-0.00267463	0.202637	-0.984375	0.559326	0.0545053	0.0350779	0.0363005	-0.997237	-0.593138	-0.18462	10.6857	0.0137473	-0.071956	0.00220251	-0.286133	0.10083	-1.0332	0.0132567	-0.113035	0.0135797	-0.99341	2.43025	0.173715	10.7042	0.0150397	0.0014786	-0.0283591	-0.712646	0.0437012	-0.906494	0.0597854	-0.725153	-0.685689	0.0202312	0.65311	-0.920294	-9.06161	0.0486878	-0.0312975	-0.0130688	0.423584	0.141602	1.2146	-0.147478	-0.109569	-0.00670235	-0.982955	2.54849	0.933825	10.3504	-0.0183668	0.0447465	-0.0288882	-0.637695	-0.185791	-0.912598	0.157128	-0.97091	-0.180676	-0.000460552	0.643572	-2.98722	-9.41537	0.0806013	0.0554736	-0.00963297	0.355957	0.19751	1.01611	
16	0.289083	0.106083	0.0164162	-0.951267	-1.74331	0.420838	10.8768	0.00400884	0.0372497	0.016526	-0.123779	0.208008	-1.13477	0.174317	0.47142	0.105537	-0.858044	-8.26562	-0.0200678	5.5877	-0.0734283	0.0193862	-0.027076	0.848877	0.105225	-0.782227	0.323678	0.902327	0.282672	0.0336965	-1.38923	5.74072	-6.81726	0.0670311	0.0195246	0.0118941	0.474365	-0.464844	0.928467	-0.438776	0.492222	0.618574	-0.427269	0.763032	-9.24078	-2.30827	-0.0778808	0.022958	-0.0210707	-0.185791	1.15747	-0.209473	-0.0839829	0.980964	0.168257	-0.0484278	-0.418806	-1.70703	-9.60427	0.0869216	0.0183876	-0.00592542	0.472656	0.64624	1.25488	0.273629	0.953678	-0.124202	-0.0140933	0.910153	5.50413	-4.5266	0.00404903	-0.00657803	-0.0213626	0.200439	-0.984375	0.563721	0.0552446	0.0355324	0.0361713	-0.997185	-0.544692	-0.353254	10.527	0.0518995	0.0991092	0.00371552	-0.286133	0.10083	-1.0376	0.0126204	-0.113672	0.0134908	-0.993347	2.83658	0.414348	10.8075	-0.0241461	3.35639e-05	-0.0444621	-0.708252	0.0395508	-0.906494	0.0600498	-0.725262	-0.685503	0.0217978	0.590428	-0.932269	-9.15648	0.071999	-0.0335949	-0.00276193	0.426025	0.13916	1.2124	-0.149032	-0.10841	-0.00646429	-0.98285	1.96956	0.693256	10.2286	-0.0104267	0.052826	-0.0712713	-0.631348	-0.181396	-0.914795	0.164917	-0.969774	-0.179832	-0.00046676	0.692694	-3.04928	-9.24755	0.380702	0.0616416	0.0272342	0.346436	0.210693	1.00903	
17	0.289787	0.106423	0.0167334	-0.951009	-1.97757	0.34265	10.8812	-0.0166476	0.0102236	0.0237193	-0.119385	0.208008	-1.13037	0.174879	0.470939	0.106246	-0.858106	-8.2059	-0.41072	5.46416	-0.0808133	-0.011379	-0.0157274	0.844238	0.111816	-0.770752	0.323326	0.902411	0.282808	0.0336692	-1.2785	5.83703	-6.8001	0.048065	0.0173824	-0.00398081	0.469971	-0.462402	0.923828	-0.438288	0.492392	0.619532	-0.426187	0.810641	-9.37772	-2.497	-0.107442	0.0163207	-0.0447143	-0.186035	1.16187	-0.211914	-0.085568	0.980814	0.16826	-0.0486845	-0.464682	-1.67445	-9.39603	0.131969	0.00584279	-0.0217198	0.476562	0.657227	1.25952	0.271727	0.954331	-0.123221	-0.0153043	0.89082	5.51011	-4.56217	0.0951796	-0.0431445	-0.0668307	0.20459	-0.975586	0.567627	0.0555229	0.035971	0.0347796	-0.997203	-0.559572	-0.61334	10.3419	0.126603	0.0457149	0.000878544	-0.281494	0.0944824	-1.03101	0.012207	-0.11382	0.0135313	-0.993334	2.8596	0.197733	10.8518	-0.00421614	0.00412093	-0.0486994	-0.712646	0.0458984	-0.911377	0.0604768	-0.725371	-0.685325	0.022578	0.568111	-0.960125	-9.11124	0.081056	-0.0208035	0.000537746	0.432861	0.143799	1.2124	-0.149818	-0.108176	-0.00656615	-0.982756	1.99272	0.555355	10.1531	0.000133052	0.030528	-0.0606993	-0.626709	-0.185791	-0.914795	0.172069	-0.968731	-0.178754	-0.000354729	0.687412	-3.2712	-8.93476	0.219152	0.0480812	0.0071864	0.350342	0.228271	1.01099	
18	0.290237	0.106376	0.0168873	-0.950874	-1.78256	0.228402	10.8732	-0.0171237	0.00486355	0.0301985	-0.119385	0.208008	-1.12842	0.175006	0.469674	0.106065	-0.858795	-8.3027	-0.297729	5.44748	0.0187875	-0.0602882	-0.0318249	0.844238	0.111816	-0.777832	0.324216	0.901751	0.283828	0.0342213	-1.11658	5.6568	-6.94252	-0.0367828	0.0371461	-0.0358352	0.469971	-0.466797	0.928467	-0.438468	0.491541	0.620696	-0.425288	1.07722	-9.4478	-2.59238	0.00938819	0.0113866	-0.059067	-0.185791	1.15527	-0.209473	-0.0872463	0.980603	0.168849	-0.0479171	-0.42827	-1.76321	-9.44468	0.0397017	0.0541485	-0.0592607	0.472168	0.661377	1.26172	0.269134	0.95512	-0.122554	-0.0171104	0.793028	5.45049	-4.64731	0.135537	-0.0574623	-0.0838056	0.215332	-0.975586	0.573975	0.0554444	0.0376367	0.0343796	-0.99716	-0.744845	-0.27819	10.6576	0.0147223	-0.00419491	-0.0369241	-0.277344	0.0966797	-1.04175	0.0121763	-0.113837	0.0131518	-0.993338	2.73125	0.338354	10.8269	0.0152578	0.0181273	-0.00958488	-0.715088	0.0480957	-0.911377	0.0609914	-0.725436	-0.685196	0.0229892	0.568475	-1.00444	-9.09958	0.022909	0.00610088	-0.0181786	0.425537	0.150635	1.20996	-0.15028	-0.108281	-0.00654849	-0.982674	2.08218	0.589434	10.149	-0.00746148	0.00587398	0.00119291	-0.633545	-0.179199	-0.917236	0.1724	-0.96871	-0.178549	-0.000375887	0.721731	-3.30761	-8.92323	0.0287495	0.0103141	-0.00338153	0.348145	0.226074	1.01099	
19	0.290816	0.106544	0.0168592	-0.950679	-1.82209	0.136292	10.8336	0.000501333	0.0171657	0.0431602	-0.11499	0.210449	-1.13257	0.174707	0.46894	0.105532	-0.859323	-8.19591	0.174661	5.56591	0.0026598	0.00851601	-0.0321469	0.840088	0.105225	-0.775146	0.325234	0.901227	0.284297	0.0344775	-1.26626	5.61326	-6.99942	-0.0351832	0.00674078	-0.0187593	0.474365	-0.462646	0.928467	-0.438624	0.490669	0.621673	-0.424706	1.15815	-9.56825	-2.36414	-0.0191431	0.00927296	-0.0483593	-0.190186	1.15527	-0.209473	-0.0875917	0.980611	0.169004	-0.0465514	-0.715668	-1.85585	-9.65794	0.0138021	0.0612621	-0.0109892	0.465332	0.665771	1.26172	0.268619	0.955223	-0.122877	-0.0171309	0.779352	5.45323	-4.67487	0.0563174	0.014665	0.0130534	0.20874	-0.973389	0.578369	0.0555292	0.0426967	0.0357484	-0.996903	-0.806776	-0.0589481	10.4562	-0.0204297	0.193353	-0.0134979	-0.266846	0.101074	-1.03979	0.0124055	-0.11362	0.0138872	-0.99335	2.63683	0.253372	10.7526	-0.0398264	0.0254766	-0.00462298	-0.710693	0.0458984	-0.908936	0.0611195	-0.725444	-0.685188	0.0226517	0.584179	-0.993552	-9.08709	0.0057815	0.0132867	-0.0180117	0.427979	0.14624	1.21021	-0.149557	-0.108339	-0.00620061	-0.98278	2.21322	0.54374	10.2711	0.00187783	0.01041	0.0363497	-0.631348	-0.179199	-0.914795	0.168672	-0.96931	-0.178854	-0.000336907	0.713384	-3.21898	-9.17006	-0.17193	-0.02654	-0.0107571	0.359619	0.221924	1.01343	
20	0.290731	0.10654	0.0149876	-0.950737	-1.86842	0.287332	10.8364	0.0645921	-0.0178558	-0.0241774	-0.123535	0.205811	-1.13477	0.174564	0.46825	0.105616	-0.859718	-8.30303	-0.116343	5.47318	-0.00172623	-0.016872	-0.0326217	0.840088	0.105225	-0.775146	0.325284	0.901317	0.284003	0.0340679	-0.94329	5.85643	-6.64354	0.00704985	-0.0134792	0.00880666	0.469971	-0.462402	0.926025	-0.438202	0.491412	0.622315	-0.423341	0.961872	-9.44105	-2.65121	-0.0765524	0.0495625	0.00223283	-0.187988	1.15747	-0.205078	-0.0875778	0.98071	0.168497	-0.0463285	-0.409631	-1.79538	-9.69366	0.0108019	-0.00661635	0.0124491	0.465332	0.663574	1.25952	0.268026	0.955263	-0.124039	-0.0157707	0.833278	5.38245	-4.67144	0.0791684	0.0368294	0.0272579	0.204346	-0.971191	0.578125	0.0553557	0.0440959	0.0349745	-0.996879	-0.822953	-0.323036	10.5101	0.0517255	0.0399867	-0.0314863	-0.261963	0.0922852	-1.0437	0.012478	-0.113513	0.0138635	-0.993361	2.67862	0.193994	10.8544	0.0208745	0.0216256	-0.0176129	-0.708252	0.0439453	-0.911377	0.0614059	-0.72549	-0.685115	0.022601	0.59811	-0.995188	-9.1079	0.0238522	0.00755687	-0.0160069	0.427979	0.148438	1.20996	-0.149167	-0.108569	-0.00598664	-0.982816	2.21126	0.624419	10.3087	-0.00573928	0.00120893	0.0141131	-0.635742	-0.179199	-0.914795	0.165738	-0.96982	-0.178832	-9.41628e-05	0.68146	-3.1593	-9.21059	-0.0886856	-0.0232432	-0.00366891	0.357666	0.210693	1.01807	
21	0.290014	0.106243	0.0134203	-0.951012	-1.97409	0.507078	10.8613	0.0523345	-0.0362826	-0.0291493	-0.116943	0.20166	-1.12817	0.174668	0.468026	0.104917	-0.859904	-8.17459	-0.1467	5.51485	0.00724943	0.00780503	-0.00618048	0.838135	0.103027	-0.777344	0.325885	0.901111	0.283901	0.0346115	-1.30489	5.64841	-6.98239	-0.00395347	0.0208327	0.0177254	0.469971	-0.462402	0.926025	-0.437876	0.491736	0.622474	-0.423067	0.898375	-9.41377	-2.71968	-0.0408869	0.0232837	0.0144071	-0.187988	1.15747	-0.211914	-0.087899	0.980811	0.16769	-0.0465168	-0.558618	-1.67233	-9.49664	0.0225032	0.0184127	0.0140205	0.469727	0.666016	1.25488	0.268356	0.955136	-0.124349	-0.0154465	0.831344	5.34505	-4.68235	0.0228195	0.0230301	0.00898645	0.206543	-0.973389	0.576172	0.0553477	0.0473786	0.033528	-0.996779	-0.811045	-0.35154	10.541	0.095178	0.128104	-0.0181921	-0.26001	0.0922852	-1.0415	0.0124448	-0.113441	0.0134781	-0.993375	2.66549	0.28239	10.8133	0.033343	0.0209199	-0.022671	-0.712646	0.0458984	-0.911377	0.0614059	-0.72549	-0.685115	0.022601	0.59811	-0.995188	-9.1079	0.0238522	0.00755687	-0.0160069	0.427979	0.148438	1.20996	-0.148608	-0.10894	-0.00613799	-0.982858	2.12681	0.546108	10.2375	0.0126407	-0.00310669	0.027406	-0.635742	-0.181396	-0.914795	0.164688	-0.96998	-0.178933	-1.9848e-06	0.678484	-3.14467	-9.18711	-0.0801119	-0.0166579	-0.00738994	0.362305	0.20874	1.02051	
22	0.289747	0.105623	0.0127173	-0.951172	-1.73221	0.513176	10.8568	0.0102728	-0.0174092	-0.00724214	-0.125244	0.192871	-1.13257	0.174789	0.467552	0.104597	-0.860176	-8.20063	-0.176599	5.44394	0.00649025	-0.00939484	-0.0191474	0.842529	0.10083	-0.777344	0.326187	0.900965	0.283966	0.0350225	-1.15116	5.86234	-6.81339	-0.00899291	0.014323	0.00407993	0.469971	-0.466797	0.930908	-0.437513	0.491865	0.622539	-0.423199	0.865242	-9.30505	-2.57525	0.0104652	0.0152416	0.00104668	-0.192627	1.16187	-0.19873	-0.0885851	0.980802	0.167398	-0.0464446	-0.463474	-1.78703	-9.50341	0.0185986	0.00982638	-0.00810559	0.469727	0.666016	1.25488	0.26841	0.95512	-0.124367	-0.0153459	0.825456	5.36531	-4.68432	0.0691701	-0.00516044	-0.0271505	0.208496	-0.964844	0.582275	0.0554682	0.0510551	0.0327345	-0.996617	-0.99159	-0.299878	10.4679	0.0395928	0.140374	-0.0172314	-0.253418	0.0925293	-1.0481	0.0120432	-0.113308	0.0127391	-0.993405	2.69333	0.159512	10.7317	0.00859887	0.0133905	-0.0126951	-0.710449	0.041748	-0.911133	0.0620788	-0.725264	-0.685288	0.0227715	0.590861	-1.04027	-9.05958	-0.0182613	0.00327805	-0.0229241	0.432617	0.148438	1.2146	-0.147964	-0.109305	-0.00628512	-0.982914	2.29194	0.710111	10.2823	0.00886748	0.00354403	0.0269795	-0.631348	-0.179199	-0.914795	0.158512	-0.970875	-0.179656	-0.00027698	0.667079	-3.09064	-9.21523	-0.164239	-0.0232236	-0.0166783	0.358154	0.19751	1.01831	
23	0.290067	0.105137	0.012703	-0.951129	-1.77359	0.41623	10.8769	-0.0124193	-0.0197294	0.0102823	-0.123535	0.203613	-1.13257	0.174819	0.466946	0.104035	-0.860568	-8.13878	-0.0818249	5.53008	0.0123177	-0.0220633	-0.0113348	0.837891	0.107422	-0.775146	0.326703	0.900516	0.284708	0.0357425	-1.29704	5.68806	-6.9628	0.0128758	0.0293428	-0.0113921	0.472168	-0.466797	0.930908	-0.43736	0.49163	0.622895	-0.423106	0.930245	-9.3305	-2.52896	-0.010046	0.000259545	-0.0190136	-0.187988	1.15747	-0.205078	-0.0887427	0.980801	0.167369	-0.0462785	-0.518706	-1.75482	-9.51777	0.0131426	0.0209797	-0.0145581	0.469727	0.667969	1.25952	0.267873	0.955288	-0.124175	-0.015801	0.7921	5.35712	-4.73078	0.0752654	-0.0139074	-0.034927	0.212891	-0.967041	0.584473	0.0556701	0.0531849	0.0322492	-0.99651	-0.888894	-0.306693	10.4413	0.0342112	0.10981	-0.0110298	-0.24707	0.0925293	-1.05225	0.0120542	-0.113062	0.012142	-0.993441	2.70681	0.307627	10.7983	0.0242281	0.0299913	-0.0245541	-0.712402	0.0395508	-0.908936	0.0617765	-0.725267	-0.685322	0.0224625	0.615569	-0.989642	-9.10162	-0.0210236	0.00131248	-0.0219327	0.425537	0.148438	1.21899	-0.147653	-0.109375	-0.00662306	-0.982951	2.16691	0.566564	10.2076	0.0245926	0.0100817	0.00779685	-0.628906	-0.185791	-0.916992	0.15605	-0.971276	-0.179641	-0.000134111	0.639555	-2.96941	-9.26356	-0.0606429	-0.0133869	-0.00240306	0.36084	0.190918	1.01855	
24	0.290387	0.10489	0.0129297	-0.951055	-1.79421	0.340339	10.8603	-0.0112689	0.00415141	0.00468269	-0.12793	0.201416	-1.13037	0.175218	0.466106	0.104123	-0.860931	-8.17727	-0.135488	5.48586	-0.0152023	-0.0298613	-0.0161255	0.838135	0.105225	-0.784668	0.327226	0.900191	0.285158	0.0355503	-1.07782	5.77375	-6.78987	-0.0351021	0.00242599	-0.0219306	0.468018	-0.466797	0.92627	-0.43713	0.491372	0.624058	-0.421927	0.947026	-9.39035	-2.67557	-0.0252646	0.0129496	-0.0218933	-0.192627	1.16187	-0.205322	-0.0892737	0.980746	0.167622	-0.045498	-0.499087	-1.78187	-9.56313	0.0111806	0.0240108	-0.014397	0.467529	0.665771	1.25732	0.267108	0.955506	-0.124138	-0.0158833	0.812421	5.31157	-4.74333	0.0720424	-0.00567702	-0.0309941	0.212646	-0.962646	0.58667	0.0558834	0.0549412	0.0312561	-0.996434	-0.978827	-0.24367	10.5082	0.0540816	0.0996895	-0.0145674	-0.240234	0.0881348	-1.04785	0.0118332	-0.113019	0.0112793	-0.993458	2.63945	0.264571	10.7777	0.0406288	0.0141418	-0.0256778	-0.7146	0.0395508	-0.911133	0.0617243	-0.725322	-0.685272	0.0223928	0.583775	-1.04077	-9.05882	-0.000894369	0.00307191	-0.0182795	0.432617	0.14624	1.2124	-0.147594	-0.109549	-0.0075003	-0.982934	2.30676	0.647799	10.2897	0.0366454	0.0130012	0.00354044	-0.633545	-0.183594	-0.914795	0.154135	-0.971544	-0.179846	-0.000333795	0.642035	-2.98177	-9.26321	-0.0866515	0.00145188	-0.0131168	0.36084	0.188721	1.01855	
25	0.29061	0.104867	0.0129761	-0.950989	-1.9031	0.309591	10.8487	-0.005855	0.00429203	0.013161	-0.123535	0.20166	-1.13257	0.17528	0.465992	0.103902	-0.861007	-8.17358	-0.147636	5.59731	0.00676439	0.00396404	-0.0117264	0.838135	0.10083	-0.784424	0.327673	0.899903	0.285527	0.0357665	-1.21878	5.62813	-6.82416	-0.0253313	0.0185843	-0.0225461	0.469971	-0.456055	0.923584	-0.436896	0.491147	0.624425	-0.421889	0.994784	-9.38965	-2.57577	-0.0153384	-0.00605648	-0.0154783	-0.19043	1.16187	-0.196533	-0.0895219	0.98072	0.167682	-0.0453483	-0.538385	-1.77651	-9.57808	0.0203452	0.0201991	-0.0221259	0.462891	0.672363	1.26172	0.267137	0.955506	-0.124045	-0.0160737	0.780407	5.27881	-4.73379	0.0456057	-0.010781	-0.0349632	0.214844	-0.962646	0.588623	0.0559891	0.0561248	0.0309624	-0.996372	-0.942509	-0.22897	10.5238	0.0427583	0.109714	-0.0130421	-0.238525	0.0947266	-1.0459	0.0119749	-0.112992	0.0111143	-0.993462	2.70747	0.358546	10.7768	0.0174323	0.0180123	-0.0068064	-0.714844	0.0439453	-0.911377	0.061156	-0.725291	-0.685376	0.0217387	0.573193	-1.02431	-9.08783	-0.0554635	0.00652069	-0.0292668	0.428467	0.136963	1.2146	-0.147463	-0.109539	-0.00786244	-0.982952	2.27369	0.768375	10.3251	0.0311677	0.0174438	0.0106589	-0.635498	-0.185791	-0.912598	0.153138	-0.971657	-0.180087	-0.000545796	0.65772	-2.94233	-9.30708	-0.079669	0.00637707	-0.022525	0.363281	0.186523	1.02075	
26	0.291055	0.10485	0.0122898	-0.950864	-1.81989	0.337881	10.8538	0.0283618	0.00989578	0.00338365	-0.123291	0.197266	-1.12817	0.175959	0.465157	0.103802	-0.861332	-8.16357	-0.125384	5.50671	-0.0149879	-0.0065036	-0.0133601	0.835693	0.107178	-0.784668	0.328373	0.899571	0.285706	0.0362671	-1.16177	5.83039	-6.84644	-0.0292279	0.0072195	0.00792696	0.469971	-0.4646	0.928467	-0.436345	0.491183	0.624944	-0.421648	1.04868	-9.40044	-2.55353	-0.024286	-0.00627725	-0.00322134	-0.186035	1.16187	-0.196533	-0.0897073	0.980692	0.167777	-0.0452356	-0.474393	-1.81546	-9.50984	0.00201411	0.00609525	-0.0143324	0.467285	0.670166	1.26172	0.267137	0.955506	-0.124045	-0.0160737	0.780407	5.27881	-4.73379	0.0456057	-0.010781	-0.0349632	0.214844	-0.962646	0.588623	0.056368	0.0587312	0.0301532	-0.996225	-1.0641	-0.165815	10.491	0.0461117	0.110941	-0.00369531	-0.231689	0.0859375	-1.04785	0.0121466	-0.112869	0.0111673	-0.993473	2.71514	0.323633	10.7639	0.000742754	0.0259642	-0.00281284	-0.703613	0.0351562	-0.908691	0.0606018	-0.72529	-0.685449	0.0210069	0.618161	-0.931712	-9.1353	0.00382597	0.00504452	-0.0173622	0.43042	0.141602	1.21021	-0.147423	-0.109456	-0.00798499	-0.982966	2.16779	0.738169	10.2503	0.0106165	0.0205812	0.0057488	-0.633545	-0.181396	-0.912598	0.15135	-0.971874	-0.180426	-0.000758963	0.634004	-2.88913	-9.2267	-0.0390557	0.00420187	-0.00725349	0.356689	0.184326	1.01636	
27	0.291224	0.105072	0.0119685	-0.950792	-1.91582	0.36162	10.8549	0.0278256	0.0134277	0.0113442	-0.123535	0.201416	-1.12817	0.175899	0.464843	0.103478	-0.861553	-8.14507	-0.125139	5.54402	0.0169731	-0.015799	-0.0199108	0.83374	0.105225	-0.779785	0.329372	0.899079	0.286032	0.0368374	-1.24741	5.74286	-6.89625	-0.02058	0.0242386	-0.00515097	0.46582	-0.462402	0.932861	-0.435719	0.491183	0.625386	-0.421641	0.988959	-9.40419	-2.54913	-0.0230353	-0.00267192	-0.00355597	-0.190186	1.15747	-0.191895	-0.089478	0.980727	0.167745	-0.0450482	-0.577847	-1.77174	-9.52629	-0.0177908	0.0177502	-0.0126753	0.467285	0.670166	1.26416	0.265468	0.955978	-0.124065	-0.015513	0.784001	5.24845	-4.75526	0.0672719	0.00942926	-0.00596812	0.2146	-0.953857	0.596924	0.0565881	0.0608743	0.0297537	-0.996096	-1.10375	-0.16279	10.3488	0.0460923	0.120302	-0.0197377	-0.229248	0.0837402	-1.04785	0.0118235	-0.112429	0.0103906	-0.993535	2.61601	0.381937	10.7641	0.01286	0.0166166	-0.0152557	-0.712402	0.0395508	-0.911133	0.0606416	-0.725318	-0.685415	0.0210433	0.58713	-0.994299	-9.09139	0.0175106	0.000761371	-0.0154757	0.428223	0.139404	1.2124	-0.147513	-0.109313	-0.00867075	-0.982963	2.17843	0.600208	10.1761	0.0266521	0.0157264	-0.00508817	-0.633545	-0.181396	-0.914795	0.15135	-0.971874	-0.180426	-0.000758963	0.634004	-2.88913	-9.2267	-0.0390557	0.00420187	-0.00725349	0.356689	0.184326	1.01636	
28	0.291525	0.105175	0.0112767	-0.950697	-1.75748	0.437081	10.8688	0.0256245	0.00223156	0.00443388	-0.121094	0.199463	-1.13037	0.175943	0.464138	0.103003	-0.86198	-8.19895	-0.0143348	5.53507	0.00467223	-0.0198465	-0.0198687	0.83374	0.102783	-0.786865	0.329553	0.89894	0.286227	0.0370879	-1.20363	5.81589	-6.9154	-0.0087873	0.0185886	-0.00185842	0.469971	-0.4646	0.923828	-0.435478	0.49114	0.625616	-0.421598	1.02149	-9.50563	-2.59801	-0.0135669	0.00258203	-0.00280665	-0.192627	1.15967	-0.200928	-0.0892928	0.980735	0.168005	-0.0442625	-0.495763	-1.81168	-9.56019	-0.0116188	0.0315844	-0.020178	0.467529	0.667969	1.26416	0.263838	0.956418	-0.124228	-0.0148955	0.78231	5.22938	-4.79581	0.0962294	0.0144669	-0.00235158	0.212646	-0.958252	0.601562	0.0566869	0.0626972	0.0292341	-0.995992	-1.1597	-0.0983973	10.5206	0.0330628	0.0774151	-0.0174413	-0.224854	0.0817871	-1.05615	0.011899	-0.11215	0.0102797	-0.993567	2.73934	0.437801	10.8613	0.00962461	0.0293634	-0.0232569	-0.710205	0.0373535	-0.908936	0.0606416	-0.725318	-0.685415	0.0210433	0.58713	-0.994299	-9.09139	0.0175106	0.000761371	-0.0154757	0.428223	0.139404	1.2124	-0.147275	-0.109326	-0.00914607	-0.982993	2.19274	0.555034	10.2354	0.00516199	0.010345	0.00689494	-0.637939	-0.183594	-0.914795	0.148455	-0.97225	-0.180803	-0.000861116	0.656243	-2.83453	-9.28887	-0.0751478	-0.0180332	-0.00100394	0.359375	0.171143	1.0188	
29	0.291546	0.10572	0.0110378	-0.950633	-1.96635	0.473756	10.8468	0.0126897	0.0212664	-0.00372149	-0.123047	0.195068	-1.12817	0.176097	0.463438	0.102557	-0.862379	-8.11278	-0.0244257	5.60203	-0.00316332	-0.0144536	-0.0129996	0.831787	0.0986328	-0.786621	0.330392	0.89858	0.286366	0.0372747	-1.20558	5.73136	-6.83294	-0.0154589	0.00287987	0.0020442	0.469971	-0.4646	0.930664	-0.435375	0.490843	0.625997	-0.421484	0.955182	-9.4139	-2.62676	-0.0165718	0.00280497	-0.0147548	-0.192627	1.16187	-0.196533	-0.0899436	0.980705	0.16794	-0.0438603	-0.450094	-1.76416	-9.53104	0.0355492	0.0229188	-0.0114517	0.465088	0.674805	1.25488	0.264329	0.956215	-0.124763	-0.0147185	0.792214	5.20303	-4.7804	0.019912	0.00480906	-0.0115649	0.208008	-0.953857	0.605713	0.0569265	0.0646397	0.0289154	-0.995864	-1.1381	-0.170388	10.4002	0.0369165	0.106293	-0.0120435	-0.220947	0.0881348	-1.0542	0.011578	-0.111957	0.0100694	-0.993595	2.61551	0.291709	10.7427	0.00522869	0.0196728	-0.0274561	-0.710449	0.041748	-0.906494	0.0609934	-0.724825	-0.685903	0.0211128	0.603153	-0.970456	-9.11569	0.0097941	0.00310561	-0.018787	0.423584	0.143799	1.2146	-0.146795	-0.109484	-0.00992563	-0.983039	2.25492	0.704204	10.2938	0.0347412	0.0100184	0.0248785	-0.633301	-0.187988	-0.910156	0.14524	-0.972656	-0.181228	-0.00116132	0.619214	-2.82123	-9.25564	-0.128375	-0.010569	-0.0173838	0.361816	0.168945	1.0166	
30	0.291387	0.105432	0.0110572	-0.950713	-1.828	0.484013	10.8934	-0.0105966	-0.0130375	-0.0131344	-0.123535	0.20166	-1.13257	0.17621	0.463074	0.102705	-0.862533	-8.15688	-0.138979	5.61257	-0.00725243	0.00247136	-0.0262548	0.831787	0.0986328	-0.784424	0.330375	0.898529	0.286543	0.0372903	-1.07652	5.85928	-6.76817	0.00715534	0.0141431	-0.00747282	0.469971	-0.466797	0.928467	-0.435373	0.490349	0.626151	-0.421832	0.986714	-9.30896	-2.58798	0.0197893	0.0110783	-0.00527956	-0.192627	1.15747	-0.196289	-0.0905125	0.980675	0.167852	-0.0437018	-0.536734	-1.80846	-9.51655	0.0458692	0.0265063	-0.0117798	0.462891	0.670166	1.25952	0.263812	0.95635	-0.124824	-0.0147546	0.786064	5.15228	-4.80906	0.0944493	-0.0044245	-0.0248375	0.214355	-0.95166	0.605469	0.0571048	0.0664106	0.0282129	-0.995757	-1.19549	-0.15806	10.4457	0.0366725	0.0864125	-0.0142677	-0.216309	0.0795898	-1.05615	0.0115117	-0.11171	0.00967758	-0.993627	2.71525	0.399954	10.8159	0.0127315	0.0297715	-0.0196183	-0.70166	0.0395508	-0.911133	0.061814	-0.724777	-0.685873	0.021322	0.587238	-1.01046	-9.10227	0.0119959	0.0145817	-0.0163459	0.432861	0.141602	1.2168	-0.146033	-0.109635	-0.0102417	-0.983132	2.23891	0.701315	10.2682	0.0137177	0.0100923	0.0294525	-0.635498	-0.187988	-0.910156	0.140501	-0.973261	-0.181713	-0.00144979	0.643914	-2.72289	-9.33453	-0.188268	-0.0246919	-0.0263022	0.359619	0.164551	1.02344	
31	0.291781	0.105429	0.0115076	-0.950587	-1.90436	0.409958	10.8393	-0.0178693	0.0173266	0.0115766	-0.123535	0.201416	-1.13037	0.176166	0.462514	0.102236	-0.862899	-8.11265	-0.116592	5.47284	0.00164962	-0.00994161	-0.020173	0.82959	0.10083	-0.786621	0.330818	0.898224	0.286964	0.0374624	-1.25734	5.76152	-6.87201	-0.00331088	0.0107684	-0.0089423	0.468018	-0.466797	0.924072	-0.435217	0.489813	0.626706	-0.421793	1.04947	-9.43424	-2.58936	0.001635	-0.00667606	-0.0216154	-0.197021	1.15723	-0.194092	-0.0915655	0.980552	0.16813	-0.0431948	-0.496969	-1.81075	-9.48722	0.0143145	0.0277072	-0.0191622	0.469238	0.679199	1.25952	0.263087	0.956584	-0.124546	-0.0148848	0.76509	5.14489	-4.84124	0.0569189	-0.00528908	-0.0258992	0.212402	-0.953857	0.603516	0.0571756	0.0681457	0.0275317	-0.995655	-1.21968	-0.196514	10.2089	0.0685284	0.0916646	-0.0192796	-0.214111	0.0817871	-1.052	0.0117158	-0.111457	0.00954491	-0.993654	2.5399	0.21768	10.7707	0.0220405	0.019275	-0.00712419	-0.710449	0.041748	-0.913574	0.0614313	-0.724802	-0.685909	0.0204135	0.608301	-1.01279	-9.06029	-0.0343064	0.0164986	-0.0253719	0.423584	0.13916	1.2168	-0.145331	-0.109698	-0.0105878	-0.983226	2.20336	0.751754	10.2304	0.0173622	0.00947881	0.0302284	-0.638184	-0.179199	-0.917236	0.135534	-0.973932	-0.181889	-0.00156317	0.588693	-2.60232	-9.38821	-0.187883	-0.0253915	-0.025141	0.362549	0.151123	1.02588	
32	0.291966	0.105223	0.0119044	-0.950548	-1.79375	0.347762	10.8756	-0.0165846	0.00144485	-0.00481156	-0.118896	0.199463	-1.12817	0.176333	0.461167	0.10227	-0.863581	-8.07149	-0.0749065	5.59331	-0.0116027	-0.0615674	-0.0236538	0.824951	0.102783	-0.786865	0.331653	0.897833	0.287183	0.0377834	-1.18484	5.8194	-6.81935	-0.0293529	0.00572017	-0.00518016	0.468018	-0.475342	0.926514	-0.434933	0.489668	0.62719	-0.421534	1.02232	-9.34636	-2.62524	-0.0291775	0.0147365	-0.0105881	-0.195068	1.16162	-0.194336	-0.091752	0.980535	0.16824	-0.0427428	-0.430876	-1.86289	-9.59117	0.00554298	0.0215562	-0.0139975	0.465088	0.674561	1.25952	0.262902	0.956602	-0.124827	-0.0145687	0.769386	5.11313	-4.84946	0.0709691	0.011849	-0.0100795	0.207764	-0.945312	0.611816	0.0573258	0.0696878	0.0273425	-0.995545	-1.25799	-0.22994	10.5279	0.0321099	0.0669308	-0.0155793	-0.20752	0.0795898	-1.05835	0.0120471	-0.111426	0.00912676	-0.993658	2.71934	0.427078	10.7936	0.0106654	0.0243492	-0.00908922	-0.706055	0.0395508	-0.911133	0.060903	-0.72476	-0.686017	0.01985	0.617241	-0.978199	-9.0923	-0.0480474	0.00330212	-0.0303467	0.428223	0.143799	1.21899	-0.144698	-0.109854	-0.011053	-0.983297	2.1614	0.749098	10.2839	0.0197404	0.00652739	0.0194314	-0.628906	-0.187988	-0.912354	0.132009	-0.974358	-0.182203	-0.00172423	0.618626	-2.53655	-9.42363	-0.139141	-0.0197099	-0.0200954	0.360596	0.144531	1.02832	
33	0.292105	0.105416	0.0120939	-0.950482	-1.93359	0.352309	10.8372	-0.00158034	0.0158164	0.000830382	-0.123535	0.20166	-1.13257	0.176504	0.460838	0.102505	-0.863694	-8.11644	-0.124709	5.67242	-0.0158605	-0.00357438	-0.011583	0.824707	0.109375	-0.789307	0.332213	0.897555	0.287401	0.0378209	-1.12198	5.74303	-6.80514	-0.0299261	-0.00111881	-0.0164143	0.470215	-0.468994	0.930908	-0.434773	0.489511	0.627492	-0.421432	1.01226	-9.41053	-2.75563	-0.0136037	0.00293706	-0.0161036	-0.194824	1.15967	-0.196533	-0.0920036	0.98051	0.168203	-0.0429256	-0.396019	-1.81512	-9.53748	0.0253022	-0.00475575	-0.012081	0.4646	0.681396	1.25732	0.263143	0.956532	-0.124874	-0.0144208	0.776238	5.10013	-4.86598	0.0375451	0.0115948	-0.015577	0.212402	-0.953857	0.609863	0.0575465	0.0707111	0.027331	-0.99546	-1.19645	-0.166585	10.4458	0.019258	0.0977882	-0.00539387	-0.205566	0.0817871	-1.05615	0.0119916	-0.111293	0.00906292	-0.993674	2.66077	0.468458	10.7986	0.00755905	0.0264333	-0.0224023	-0.703613	0.032959	-0.908691	0.0606423	-0.724729	-0.68608	0.0196246	0.623904	-0.938576	-9.13185	0.0200912	-0.00202718	-0.0165183	0.428223	0.13916	1.2146	-0.144522	-0.109799	-0.0114139	-0.983325	2.3793	0.649464	10.2898	0.0309067	0.0207192	0.0142116	-0.637695	-0.185791	-0.910156	0.129467	-0.974677	-0.18232	-0.00181353	0.578464	-2.48583	-9.39224	-0.0974462	-0.00750545	-0.0171925	0.369385	0.144775	1.02393	
34	0.292228	0.105395	0.0120741	-0.950447	-1.95729	0.358038	10.8561	0.000801649	0.00208951	0.00524123	-0.119141	0.20166	-1.13037	0.176644	0.46084	0.102617	-0.863651	-8.10147	-0.15935	5.63339	-0.0171021	0.0198987	-0.0160578	0.824951	0.10498	-0.789307	0.332782	0.897272	0.287578	0.0381782	-1.09378	5.82292	-6.79747	-0.0215352	0.0176108	-0.00177422	0.468018	-0.473389	0.928711	-0.434367	0.489133	0.627702	-0.421977	1.00661	-9.3626	-2.5314	0.0117282	-0.00322963	0.00812404	-0.197021	1.15747	-0.198486	-0.0924083	0.980439	0.168444	-0.04273	-0.446416	-1.85963	-9.51785	0.00633524	0.0201665	-0.0305898	0.465088	0.674561	1.25952	0.263816	0.956341	-0.124923	-0.0144108	0.763245	5.09649	-4.85646	0.0023824	0.00696898	-0.0186548	0.214111	-0.943115	0.607422	0.0580242	0.0718802	0.0277487	-0.995337	-1.33547	-0.136873	10.2325	0.0191388	0.00286954	-0.0103455	-0.201172	0.0795898	-1.05396	0.011778	-0.111156	0.0090702	-0.993692	2.71056	0.34429	10.8112	9.80553e-05	0.026795	-0.0338435	-0.712402	0.0351562	-0.915771	0.0614203	-0.724863	-0.68585	0.0202474	0.613128	-1.01051	-9.08096	0.0472643	0.00355977	-0.0084783	0.425537	0.148438	1.2124	-0.144169	-0.109959	-0.0119419	-0.983352	2.22387	0.807435	10.2277	0.016115	0.00311638	0.013244	-0.637695	-0.187988	-0.905518	0.128134	-0.9748	-0.182596	-0.00207038	0.595136	-2.46572	-9.4162	-0.106683	0.0054706	-0.0245323	0.363281	0.133545	1.02637	
35	0.292385	0.105176	0.0118572	-0.950425	-1.91881	0.402976	10.874	0.00643025	-0.0119352	-0.000622166	-0.123291	0.199463	-1.13477	0.176785	0.460956	0.102957	-0.86352	-8.12495	-0.000204232	5.62478	-0.0217753	0.0257195	-0.0216065	0.824951	0.102783	-0.791504	0.333132	0.896959	0.288093	0.0386159	-1.18824	5.7763	-6.82795	-0.00258598	0.0227224	-0.00367237	0.46582	-0.473145	0.921875	-0.434037	0.488772	0.627883	-0.422465	1.04365	-9.41774	-2.71321	0.0129556	-0.00886195	0.00477985	-0.192627	1.16187	-0.194336	-0.0919904	0.98044	0.168633	-0.0428632	-0.411714	-1.8411	-9.53181	-0.0165433	-0.00825696	-0.020309	0.462646	0.676758	1.26172	0.263716	0.956423	-0.124507	-0.0143826	0.757076	5.08948	-4.89139	0.0233776	0.00558698	-0.0251496	0.214111	-0.945312	0.609619	0.0584245	0.0717986	0.0284925	-0.995299	-1.3511	-0.0823009	10.244	-0.0240575	0.0140423	-0.00960849	-0.205566	0.0839844	-1.05835	0.0113992	-0.111028	0.00776688	-0.993722	2.64698	0.291934	10.7762	0.0414132	0.0178437	-0.016036	-0.708008	0.0373535	-0.915771	0.0611238	-0.72488	-0.685869	0.0198963	0.619999	-0.975554	-9.11319	-0.0084865	0.00192092	-0.020538	0.425781	0.145996	1.2146	-0.143778	-0.11011	-0.0123412	-0.983388	2.17557	0.660506	10.2147	0.0377305	0.0057012	0.0192736	-0.635498	-0.185791	-0.912598	0.126958	-0.974908	-0.18284	-0.00225449	0.617749	-2.41978	-9.41485	-0.0930186	0.0019538	-0.0228519	0.363281	0.12915	1.02173	
36	0.292323	0.104895	0.0117288	-0.950477	-1.76971	0.426441	10.8836	0.00147008	-0.00528068	-0.0110142	-0.116943	0.203857	-1.12817	0.177145	0.461201	0.103542	-0.863245	-8.09501	-0.110763	5.55932	-0.0450787	0.0370259	-0.0160455	0.827148	0.10498	-0.786865	0.333302	0.896875	0.288125	0.0388531	-1.17257	5.89615	-6.77111	0.00464831	0.00414213	0.00740502	0.46582	-0.471191	0.924072	-0.434037	0.488772	0.627883	-0.422465	1.04365	-9.41774	-2.71321	0.0129556	-0.00886195	0.00477985	-0.192627	1.16187	-0.194336	-0.0921497	0.980412	0.16871	-0.0428779	-0.515774	-1.83604	-9.56027	0.0111476	0.00814587	-0.0151833	0.4646	0.685791	1.25488	0.26537	0.955969	-0.124482	-0.0143425	0.771941	5.10131	-4.85408	-0.000902492	0.00941389	-0.0219539	0.216309	-0.943115	0.615967	0.059094	0.068582	0.0290687	-0.995469	-1.25172	-0.262086	10.6605	0.00140886	-0.142276	-0.00804441	-0.216553	0.0839844	-1.05615	0.0114288	-0.111026	0.00731557	-0.993725	2.63757	0.425026	10.7939	0.0388871	0.0156388	-0.0193206	-0.712158	0.0307617	-0.917969	0.0608648	-0.724862	-0.68592	0.0196005	0.594125	-0.994213	-9.10248	-0.0181901	0.00328842	-0.0230227	0.42334	0.145996	1.2146	-0.143539	-0.110273	-0.0126068	-0.983401	2.13964	0.757693	10.217	0.0267456	0.00280563	0.0197553	-0.640137	-0.185791	-0.914795	0.124068	-0.975195	-0.183294	-0.00237996	0.588361	-2.38235	-9.39577	-0.0987767	-0.00957761	-0.0148162	0.365723	0.126953	1.02637	
37	0.292132	0.105037	0.0119725	-0.950517	-1.90945	0.443492	10.8759	-0.0101977	0.00895355	-0.0131638	-0.119141	0.203857	-1.13037	0.177387	0.461421	0.103612	-0.86307	-8.13552	-0.0584341	5.63087	-0.000393873	0.0187097	-0.0137299	0.824951	0.10498	-0.784424	0.333571	0.896618	0.288593	0.0389989	-1.09791	5.82307	-6.78189	0.00350864	0.0112011	-0.0099111	0.46167	-0.473145	0.921875	-0.433463	0.48848	0.628078	-0.423102	1.01984	-9.30913	-2.61706	-0.00890812	0.0100679	-0.00381944	-0.195068	1.16162	-0.189941	-0.0919494	0.980434	0.168737	-0.042692	-0.435574	-1.84444	-9.50193	-0.0120748	0.0155282	-0.0194927	0.462646	0.678955	1.26172	0.265603	0.955912	-0.124424	-0.0143213	0.748171	5.06408	-4.88514	0.0537538	0.00283825	-0.0267643	0.214111	-0.940918	0.609619	0.0595257	0.0663293	0.0289443	-0.9956	-1.24265	-0.144372	10.5129	0.00315433	-0.0565043	-0.0107639	-0.216553	0.0861816	-1.052	0.0113083	-0.110602	0.00590314	-0.993783	2.67669	0.451024	10.816	0.0400629	0.0301642	-0.0194278	-0.707764	0.032959	-0.911133	0.0605053	-0.724638	-0.686213	0.0187028	0.618604	-0.962235	-9.12736	-0.0057068	0.0125861	-0.0214107	0.425781	0.143799	1.2168	-0.142699	-0.11035	-0.0133229	-0.983505	2.22637	0.772267	10.2461	0.0276575	0.0161599	0.0212378	-0.637695	-0.185791	-0.910156	0.121272	-0.975453	-0.183788	-0.00258074	0.583511	-2.34115	-9.43616	-0.111702	-0.00519635	-0.0234607	0.365967	0.118164	1.02417	
38	0.292319	0.104819	0.0122807	-0.95048	-1.99101	0.358889	10.8596	-0.0142463	-0.00711763	0.00261566	-0.119141	0.203857	-1.13037	0.177654	0.461611	0.103933	-0.862874	-8.13557	-0.0613607	5.57244	-0.0255928	0.029187	-0.0177504	0.829346	0.10498	-0.789307	0.333209	0.896618	0.289004	0.0390642	-1.24159	5.85306	-6.88724	0.0309196	0.0114623	-0.0028574	0.46582	-0.471191	0.92627	-0.43312	0.488101	0.628386	-0.423433	1.02043	-9.47267	-2.63487	0.0208011	-0.0110377	0.000220879	-0.192627	1.15747	-0.200684	-0.0914678	0.98047	0.168774	-0.042756	-0.44486	-1.81973	-9.54815	-0.014846	0.00111211	-0.0131559	0.462646	0.676758	1.25732	0.266648	0.955627	-0.124389	-0.0142543	0.741431	5.0931	-4.8975	0.00529462	0.00850532	-0.020219	0.218506	-0.943115	0.61377	0.0600015	0.0634111	0.0290835	-0.995758	-1.19779	-0.228248	10.5764	0.0252494	-0.122455	-0.0137415	-0.2229	0.0839844	-1.052	0.0112959	-0.110418	0.00543821	-0.993806	2.56244	0.412514	10.7789	0.0117274	0.0215275	-0.0194456	-0.705566	0.0285645	-0.911133	0.0603657	-0.724652	-0.686229	0.0180251	0.619218	-0.961132	-9.09171	-0.00925544	0.0165046	-0.018955	0.423828	0.136963	1.2146	-0.142124	-0.110555	-0.0140649	-0.983555	2.16096	0.677421	10.228	0.0477189	0.0070852	0.0224072	-0.633301	-0.185791	-0.914795	0.119836	-0.975581	-0.184045	-0.00278297	0.595619	-2.27577	-9.4464	-0.113641	-0.000437815	-0.0240742	0.368408	0.115967	1.02417	
39	0.292541	0.104349	0.0123556	-0.950462	-1.8472	0.372491	10.8581	-0.00575862	-0.0137912	0.00204422	-0.121094	0.199463	-1.13037	0.177964	0.461902	0.104511	-0.862585	-8.15112	-0.146744	5.60028	-0.0275596	0.0337164	-0.0187509	0.824951	0.10498	-0.786865	0.333638	0.896365	0.289306	0.0389583	-1.05124	5.83149	-6.74903	0.00789582	-0.00575032	-0.0164876	0.46582	-0.475342	0.928711	-0.43329	0.487915	0.628341	-0.423541	1.04036	-9.31879	-2.62402	0.0100344	0.0110041	-0.00450779	-0.194824	1.15723	-0.194092	-0.091201	0.980503	0.168716	-0.0427888	-0.457455	-1.85253	-9.57851	-0.0082494	-0.000577646	-0.0118352	0.455811	0.68335	1.25732	0.268418	0.955117	-0.124516	-0.0140782	0.747139	5.04859	-4.87875	-0.0251912	0.0173307	-0.0154233	0.212158	-0.949463	0.616211	0.0605176	0.0623698	0.029456	-0.995781	-1.2098	-0.202344	10.4194	-0.0140415	-0.0242835	-0.0061611	-0.229492	0.0859375	-1.052	0.0112596	-0.1104	0.00488643	-0.993811	2.62095	0.43183	10.7554	0.0217042	0.0174644	-0.0197865	-0.707764	0.0285645	-0.917969	0.0601168	-0.724667	-0.686246	0.0175829	0.633882	-0.949334	-9.0862	-0.0105375	0.00466982	-0.0228185	0.423584	0.13916	1.2168	-0.141733	-0.110787	-0.0150313	-0.983571	2.17955	0.851516	10.2325	0.0354986	0.00854017	0.0119239	-0.639648	-0.19458	-0.912354	0.116176	-0.975923	-0.184572	-0.0033152	0.607612	-2.22118	-9.45182	-0.102153	-0.00757602	-0.0203575	0.368896	0.107178	1.02661	
40	0.292848	0.10408	0.0125344	-0.950395	-1.94699	0.410788	10.8605	-0.0109968	-0.00576357	0.0077891	-0.121094	0.197266	-1.12598	0.178152	0.462486	0.104638	-0.862218	-8.08857	-0.0934662	5.57463	-0.0189746	0.0480445	-0.0152338	0.822754	0.10498	-0.784424	0.333597	0.896238	0.289732	0.0390573	-1.23019	5.82602	-6.83161	0.0160313	0.00725772	0.00228558	0.46582	-0.473145	0.926514	-0.432927	0.487524	0.628617	-0.423951	1.02003	-9.51703	-2.54646	0.0183718	-0.0139135	0.00486634	-0.192627	1.15747	-0.196289	-0.0909022	0.980494	0.168979	-0.0425922	-0.519724	-1.82944	-9.51611	-0.0166595	0.0165726	-0.0276549	0.462646	0.678955	1.25732	0.270982	0.954404	-0.124423	-0.0141728	0.758909	5.12306	-4.85993	-0.0301372	0.0100128	-0.0252454	0.216309	-0.943115	0.605225	0.0607869	0.0602994	0.0296815	-0.995886	-1.13491	-0.200674	10.4366	-0.00690588	-0.0736689	-0.00534568	-0.229736	0.090332	-1.05225	0.0111909	-0.110256	0.00439982	-0.99383	2.55432	0.417705	10.8397	0.0285655	0.0153801	-0.0257172	-0.701172	0.0263672	-0.910889	0.0597786	-0.724691	-0.686257	0.017327	0.636425	-0.960422	-9.08481	-0.00911855	-0.00293617	-0.0201104	0.428223	0.139404	1.2124	-0.141681	-0.111009	-0.0157036	-0.983543	2.22754	0.724403	10.1784	0.0357442	0.00576432	0.000115493	-0.639648	-0.192383	-0.912354	0.114101	-0.97614	-0.184717	-0.00322913	0.560855	-2.18672	-9.45481	-0.0720151	-0.00931418	-0.00392208	0.373291	0.107178	1.02222	
41	0.293022	0.103739	0.0126295	-0.950377	-1.88173	0.417788	10.8717	-0.0165967	-0.0209702	0.00623148	-0.121338	0.20166	-1.13037	0.178258	0.462583	0.104961	-0.862105	-8.13986	-0.0596257	5.60573	-0.0303694	0.0326604	-0.0243366	0.833496	0.109375	-0.780029	0.3338	0.896127	0.289832	0.0391306	-1.10798	5.88083	-6.79559	-0.00365443	0.00394231	-0.000757816	0.469971	-0.466797	0.92627	-0.432897	0.487425	0.628533	-0.424221	1.07782	-9.32931	-2.47882	0.0206624	0.00901958	0.00871081	-0.192383	1.15527	-0.198486	-0.090635	0.980523	0.168987	-0.0424704	-0.491052	-1.82895	-9.53834	-0.0203618	0.0125814	-0.0154916	0.458252	0.681152	1.26416	0.271497	0.95426	-0.124418	-0.0140357	0.732403	5.10143	-4.87117	0.0124751	0.0157838	-0.0174329	0.21875	-0.949463	0.607666	0.0610819	0.0590874	0.0300339	-0.99593	-1.07917	-0.161329	10.4006	-0.0198295	-0.0787709	-0.00715463	-0.227539	0.0925293	-1.05005	0.0112239	-0.110298	0.00412938	-0.993827	2.63033	0.51109	10.8087	0.0240358	0.0118584	-0.0174492	-0.707764	0.0285645	-0.917969	0.0593742	-0.724672	-0.68632	0.017023	0.614818	-0.945573	-9.09944	-0.0273314	-0.00397879	-0.0242607	0.421631	0.134521	1.22144	-0.141576	-0.111165	-0.0162715	-0.983531	2.23071	0.815454	10.2653	0.0492083	0.00671278	0.00655858	-0.633057	-0.192383	-0.907715	0.111785	-0.976353	-0.185007	-0.00338461	0.590796	-2.15265	-9.49986	-0.0872668	-0.00683679	-0.0144865	0.375732	0.102783	1.02686	
42	0.293374	0.103483	0.0133479	-0.950287	-1.99508	0.334234	10.843	-0.0178307	0.0162548	0.00162939	-0.125732	0.201416	-1.12817	0.178479	0.46298	0.104972	-0.861845	-8.07216	-0.0815444	5.55251	-0.00402791	0.0450674	-0.0100498	0.827148	0.102783	-0.784424	0.333912	0.895989	0.290162	0.0388904	-1.2138	5.78256	-6.85712	0.0131118	-0.00515271	-0.00197551	0.470215	-0.468994	0.92627	-0.432699	0.487387	0.62878	-0.4241	0.96939	-9.39632	-2.74096	-0.00639442	0.00312572	-0.00650714	-0.197021	1.15942	-0.194092	-0.0899196	0.980573	0.169083	-0.0424514	-0.626305	-1.74566	-9.55975	-0.0139966	0.0151321	-0.019667	0.462646	0.676758	1.26172	0.274565	0.953394	-0.12436	-0.0136928	0.759491	5.11269	-4.84027	-0.0597527	0.0163385	-0.0141912	0.216553	-0.94751	0.611816	0.0616195	0.0566171	0.030536	-0.996025	-1.01071	-0.296663	10.6185	-0.0205369	-0.0957477	-0.00731484	-0.240479	0.0925293	-1.05005	0.0108214	-0.109928	0.00368316	-0.993874	2.64428	0.460498	10.8383	0.0166433	0.0274669	-0.0442152	-0.705322	0.0244141	-0.922607	0.0592737	-0.724708	-0.686293	0.0169472	0.617797	-0.891306	-9.14766	0.0310086	0.00162296	-0.0130276	0.428223	0.13916	1.2168	-0.14136	-0.111344	-0.0170183	-0.98353	2.25313	0.811098	10.2881	0.0377098	0.014266	0.00919119	-0.635254	-0.192383	-0.905518	0.109212	-0.976588	-0.185303	-0.0034485	0.54376	-2.09528	-9.49193	-0.103529	-0.00789228	-0.0160417	0.373779	0.0961914	1.02002	
43	0.293455	0.103299	0.0134953	-0.95028	-1.90499	0.3309	10.8788	-0.0157041	-0.00715541	-0.000282752	-0.121338	0.203857	-1.13257	0.178551	0.463273	0.105232	-0.86164	-8.17242	-0.0575393	5.61667	-0.0232588	0.0489545	-0.0213898	0.838135	0.103027	-0.782227	0.333824	0.89603	0.290142	0.0388593	-1.16124	5.87786	-6.75648	0.0105039	0.000633028	0.00484525	0.46582	-0.466797	0.921631	-0.432606	0.487033	0.628701	-0.424717	1.04888	-9.29041	-2.43487	0.0201093	0.0167831	0.00770874	-0.192627	1.16187	-0.194336	-0.0899432	0.980586	0.169084	-0.0421055	-0.478884	-1.85082	-9.5751	-0.000506521	0.0342476	-0.0177921	0.458496	0.672363	1.26636	0.275204	0.953206	-0.124403	-0.0136232	0.755972	5.11578	-4.85658	0.00779725	0.0105427	-0.0192068	0.214355	-0.949463	0.609863	0.0621622	0.0545502	0.0306259	-0.996103	-0.988843	-0.194548	10.4425	-0.00277606	-0.0567929	-0.00809808	-0.23877	0.101074	-1.0481	0.0106242	-0.109902	0.00332509	-0.99388	2.55403	0.354187	10.8164	0.0287458	0.0175974	-0.0365191	-0.70752	0.0263672	-0.915771	0.0600961	-0.724874	-0.686031	0.0175269	0.609269	-0.970694	-9.0891	0.0460204	0.00920406	-0.00529649	0.426025	0.136963	1.2146	-0.140985	-0.111562	-0.0179529	-0.983542	2.2738	0.776596	10.21	0.0556663	0.0105769	0.0168541	-0.639648	-0.19458	-0.912354	0.107709	-0.976713	-0.185519	-0.00362485	0.555968	-2.07357	-9.48056	-0.118476	-0.00256594	-0.0202385	0.371826	0.0871582	1.0293	
44	0.293671	0.103222	0.0136997	-0.950218	-1.8913	0.33024	10.8622	-0.00718429	0.00836323	0.00435401	-0.116943	0.206055	-1.13477	0.178736	0.46365	0.105185	-0.861405	-8.17696	-0.109506	5.52757	-0.00841849	0.0376938	-0.0103855	0.835938	0.103027	-0.779785	0.333856	0.895924	0.290451	0.0387027	-1.18602	5.74837	-6.87538	0.0095437	0.000114988	0.00257019	0.468018	-0.468994	0.92627	-0.43239	0.486842	0.628975	-0.424751	0.986407	-9.51226	-2.74202	0.0130423	-0.00591157	-0.00859971	-0.190186	1.15747	-0.196289	-0.0899382	0.980531	0.169312	-0.0424748	-0.418157	-1.78344	-9.5238	0.0105024	-0.00112902	-0.024431	0.462891	0.672363	1.26855	0.277029	0.95269	-0.124303	-0.0135871	0.736208	5.12773	-4.85439	-0.037951	0.00734818	-0.0284653	0.21875	-0.953857	0.612061	0.0627491	0.0523085	0.0308949	-0.996179	-0.990983	-0.244808	10.5134	0.00288139	-0.104526	-0.00607487	-0.242676	0.0925293	-1.0481	0.0106644	-0.109754	0.0029993	-0.993897	2.60364	0.423253	10.7828	0.00239384	0.0255353	-0.00979292	-0.70752	0.0244141	-0.920166	0.0596803	-0.724872	-0.686089	0.0167745	0.615261	-0.961311	-9.06897	-0.0378086	0.0110647	-0.0247918	0.426025	0.136963	1.2168	-0.140583	-0.111735	-0.0184556	-0.983571	2.19021	1.01902	10.2296	0.0088847	0.00888388	0.0132875	-0.637451	-0.19458	-0.909912	0.10469	-0.976931	-0.186091	-0.00392746	0.593465	-1.98964	-9.54577	-0.104869	-0.00918719	-0.0207931	0.37207	0.0849609	1.0271	
45	0.293796	0.103096	0.0137494	-0.950193	-1.8991	0.308045	10.8673	-0.00347046	-0.00290594	0.00175991	-0.119629	0.212402	-1.13257	0.178804	0.464132	0.105309	-0.861116	-8.18972	-0.0599868	5.55996	-0.00733385	0.0362782	-0.0192973	0.837891	0.109619	-0.777588	0.333739	0.895945	0.290562	0.038399	-1.12283	5.88408	-6.78597	0.0224091	-0.0116339	-0.00648865	0.46582	-0.4646	0.92627	-0.432424	0.48647	0.628891	-0.425267	1.05417	-9.27941	-2.49675	0.00590691	0.0211273	0.000781121	-0.19043	1.15967	-0.196533	-0.0899116	0.980514	0.169453	-0.0423536	-0.429854	-1.85568	-9.57823	-0.00405998	0.00343911	-0.0167207	0.466797	0.681152	1.26636	0.279288	0.952019	-0.124393	-0.0136028	0.753847	5.13568	-4.84739	-0.0221909	0.0165653	-0.0147687	0.214355	-0.95166	0.607666	0.0633447	0.0497385	0.0313421	-0.996259	-0.900811	-0.240596	10.4292	-0.00980637	-0.0739092	-0.00780568	-0.253662	0.0944824	-1.0481	0.0109172	-0.1097	0.00219039	-0.993902	2.61195	0.439124	10.8228	0.0494954	0.0169301	-0.0108031	-0.705566	0.0285645	-0.91333	0.0590718	-0.72467	-0.686373	0.0160284	0.639614	-0.925297	-9.09128	-0.0314079	0.00453318	-0.0247937	0.421387	0.136963	1.2168	-0.140554	-0.111711	-0.018673	-0.983573	2.22618	0.795124	10.1698	0.0227793	0.0136196	0.00448227	-0.639893	-0.187988	-0.90332	0.103828	-0.977013	-0.186144	-0.00387107	0.573147	-1.97433	-9.56018	-0.0645509	-0.0101643	-0.00648218	0.369629	0.0871582	1.0293	
46	0.293889	0.102936	0.013821	-0.95018	-1.91379	0.348604	10.8795	-0.00688275	-0.00281988	0.000168036	-0.125977	0.205811	-1.12402	0.178764	0.464366	0.105151	-0.861018	-8.13772	-0.186307	5.48958	0.00456988	0.0340039	-0.0184562	0.837891	0.107422	-0.780029	0.333695	0.8959	0.290771	0.0382598	-1.16002	5.74612	-6.82683	0.00921708	-0.00224634	-0.00526613	0.463623	-0.470947	0.928711	-0.432373	0.486225	0.62888	-0.425616	0.992169	-9.49014	-2.65164	0.0375146	0.000161961	0.00702865	-0.194824	1.15747	-0.196289	-0.0895249	0.980529	0.169571	-0.0423488	-0.450907	-1.80151	-9.53803	-0.0105906	0.0105179	-0.0252929	0.460693	0.672363	1.25952	0.281493	0.951358	-0.124484	-0.0135327	0.752353	5.15935	-4.82242	-0.0351781	0.00969286	-0.0230786	0.2146	-0.953857	0.601318	0.0637251	0.0478283	0.0315616	-0.996321	-0.785693	-0.347364	10.4493	0.0273243	-0.073154	-0.0155973	-0.26001	0.0966797	-1.04395	0.0109796	-0.109535	0.00178455	-0.993921	2.60137	0.59811	10.7802	0.00066497	0.0224516	-0.0179394	-0.705322	0.0222168	-0.920166	0.0588395	-0.724631	-0.68644	0.0157624	0.625862	-0.91658	-9.11562	-0.0152328	0.00318811	-0.0249704	0.423828	0.136963	1.2168	-0.140652	-0.111972	-0.019233	-0.983519	2.25121	0.963783	10.2697	0.0156408	0.00277626	-0.00616122	-0.635254	-0.19458	-0.905518	0.103981	-0.976985	-0.186203	-0.00399325	0.554531	-1.97394	-9.52444	0.00429773	0.00630101	-0.00293188	0.369629	0.0871582	1.0293	
47	0.293714	0.102931	0.0139601	-0.950233	-1.85277	0.355708	10.8899	-0.00169758	0.0108575	-0.0194065	-0.121582	0.205811	-1.12622	0.179023	0.464203	0.105415	-0.861019	-8.1918	-0.080797	5.49109	-0.0248374	-0.00532311	-0.0149332	0.83374	0.105225	-0.782227	0.333981	0.895785	0.290795	0.0382546	-1.17901	5.91179	-6.84667	-0.0306144	-0.0152782	0.00739623	0.469971	-0.466797	0.930908	-0.432025	0.48604	0.628763	-0.426353	0.989547	-9.33392	-2.59251	0.00564624	-0.00349175	0.0149348	-0.194824	1.16187	-0.19873	-0.0893076	0.980528	0.16968	-0.0424051	-0.339779	-1.79506	-9.545	-0.0143906	-0.00117277	-0.0227425	0.458496	0.672363	1.26172	0.284451	0.95048	-0.124495	-0.0133125	0.748578	5.16584	-4.79677	-0.0744339	0.0276001	-0.0131069	0.2146	-0.953857	0.605713	0.064332	0.0467523	0.0324392	-0.996305	-0.855735	-0.349513	10.5055	-0.0147245	-0.0481475	-0.00174236	-0.257812	0.0944824	-1.0437	0.0110253	-0.109615	0.00159599	-0.993912	2.63495	0.526761	10.7818	0.0110088	0.0131159	-0.0204489	-0.69873	0.0222168	-0.915527	0.0587834	-0.72431	-0.686789	0.0154999	0.631389	-0.902735	-9.10324	-0.00129474	0.00367349	-0.019053	0.42627	0.134766	1.2146	-0.140668	-0.112006	-0.0192025	-0.983513	2.1902	0.841679	10.2406	-0.00123505	0.0089062	0.00322348	-0.64209	-0.190186	-0.910156	0.1038	-0.977003	-0.186213	-0.00391704	0.554366	-1.97289	-9.52285	-0.000235887	0.00056213	-0.00198914	0.369629	0.0871582	1.0271	
48	0.293554	0.102878	0.0141918	-0.950285	-1.86152	0.3351	10.8636	-0.0111411	0.000545586	-0.00632486	-0.121338	0.203613	-1.12817	0.179146	0.464243	0.105463	-0.860966	-8.19102	-0.114227	5.63724	-0.00585038	0.0226132	-0.0227421	0.831299	0.111572	-0.777832	0.334305	0.895587	0.29103	0.0382758	-1.16426	5.73694	-6.80371	-0.0079225	0.000555528	-0.0068315	0.46582	-0.468994	0.92627	-0.431913	0.48594	0.628727	-0.426633	0.983918	-9.46153	-2.57323	0.0165465	0.00287754	0.0104001	-0.197266	1.16626	-0.205322	-0.0895115	0.980422	0.170195	-0.0423647	-0.496633	-1.81143	-9.54374	0.005565	0.00294914	-0.0194062	0.456543	0.670166	1.25952	0.287524	0.949569	-0.124395	-0.0132023	0.751184	5.22655	-4.78486	-0.056066	0.0142898	-0.0207508	0.2146	-0.953857	0.596924	0.0649317	0.0491305	0.03459	-0.996079	-0.95515	-0.300815	10.4638	-0.0812068	0.0914311	5.12578e-05	-0.247559	0.105469	-1.04614	0.0108419	-0.109615	0.0015229	-0.993914	2.60042	0.428674	10.8065	0.005788	0.0148583	-0.0261116	-0.705322	0.0222168	-0.915527	0.0587834	-0.72431	-0.686789	0.0154999	0.631389	-0.902735	-9.10324	-0.00129474	0.00367349	-0.019053	0.42627	0.134766	1.2146	-0.140726	-0.112048	-0.0192736	-0.983499	2.25636	0.864023	10.1975	0.00781875	0.00975314	-0.00275982	-0.635254	-0.192383	-0.907715	0.10393	-0.976976	-0.186278	-0.00402242	0.551237	-1.97648	-9.54473	0.00974507	0.015585	-0.00575884	0.367188	0.0893555	1.02466	
49	0.293609	0.102886	0.0142845	-0.950265	-1.88655	0.305372	10.8596	-0.0067315	0.00556314	-0.00182739	-0.121338	0.205811	-1.13037	0.179193	0.464412	0.105447	-0.860867	-8.14726	-0.1102	5.52266	-0.00401421	0.0319948	-0.0148034	0.83374	0.103027	-0.782227	0.334237	0.895582	0.291123	0.0382792	-1.27462	5.88765	-6.8204	0.0190848	0.00358724	0.00131678	0.46582	-0.466797	0.928467	-0.431846	0.485831	0.628537	-0.427104	1.00637	-9.43129	-2.54788	0.0313543	0.00422384	0.0219611	-0.192627	1.15747	-0.200684	-0.0890728	0.98044	0.170275	-0.0425521	-0.395919	-1.78083	-9.49907	-0.0300103	-0.0141838	-0.0185714	0.464844	0.676758	1.26172	0.288592	0.949254	-0.124342	-0.0130546	0.749713	5.21066	-4.77516	-0.0319326	0.0208599	-0.0172593	0.216797	-0.958252	0.59082	0.0651689	0.0481004	0.0349188	-0.996102	-0.89831	-0.37843	10.4731	-0.0171046	-0.0644912	-0.0106546	-0.25415	0.105469	-1.04614	0.0108825	-0.109657	0.00151683	-0.993909	2.65779	0.48682	10.8039	0.002844	0.0126357	-0.0148643	-0.702881	0.0178223	-0.920166	0.0592031	-0.72421	-0.686851	0.0158387	0.643451	-0.939419	-9.09929	-0.0032706	0.00470586	-0.0185941	0.428223	0.13916	1.2146	-0.140795	-0.111967	-0.0192122	-0.983499	2.23714	0.883535	10.2745	-0.00129828	0.014968	0.00347262	-0.641602	-0.201172	-0.914307	0.104264	-0.976943	-0.186265	-0.00405977	0.576447	-1.97743	-9.54694	0.0282128	0.0156883	-0.00202677	0.369629	0.0893555	1.02246	
50	0.293696	0.102835	0.0143291	-0.950243	-1.98015	0.319499	10.8613	-0.00446563	-6.05443e-05	0.00123253	-0.119141	0.205811	-1.13037	0.179114	0.464715	0.105542	-0.860708	-8.19566	-0.103342	5.49326	-0.00348084	0.028877	-0.0264495	0.837891	0.109619	-0.772949	0.334647	0.895331	0.291429	0.0382513	-1.13856	5.78677	-6.8205	0.00366959	0.00263477	-0.0115574	0.46582	-0.471191	0.92627	-0.431846	0.485831	0.628537	-0.427104	1.00637	-9.43129	-2.54788	0.0313543	0.00422384	0.0219611	-0.192627	1.15747	-0.200684	-0.0881824	0.98049	0.170487	-0.042406	-0.492337	-1.79967	-9.55994	-0.0337787	0.00830153	-0.0271976	0.456299	0.674561	1.25732	0.288592	0.949254	-0.124342	-0.0130546	0.749713	5.21066	-4.77516	-0.0319326	0.0208599	-0.0172593	0.216797	-0.958252	0.59082	0.0654109	0.0468927	0.0350911	-0.996138	-0.873395	-0.316736	10.5923	-0.0114174	0.0135312	-0.0153113	-0.253662	0.098877	-1.0481	0.0110214	-0.109585	0.0014426	-0.993915	2.6644	0.408837	10.8734	0.00876584	0.021395	-0.00741089	-0.705078	0.0200195	-0.917969	0.0590362	-0.724201	-0.686886	0.0153142	0.646583	-0.91593	-9.10851	-0.00171893	0.0108452	-0.0196559	0.42627	0.134766	1.21704	-0.141021	-0.112043	-0.0187017	-0.983468	2.20379	0.824328	10.21	-0.0221464	0.000679743	-0.00630487	-0.639648	-0.196777	-0.914551	0.105642	-0.976815	-0.186164	-0.00398353	0.574805	-2.00105	-9.5046	0.056174	0.011633	0.00224806	0.369629	0.0871582	1.0271	
51	0.294173	0.102127	0.0143424	-0.950172	-1.8988	0.311309	10.8478	-0.00227883	-0.0104715	-0.00513779	-0.119385	0.208008	-1.13477	0.179333	0.465064	0.106165	-0.860397	-8.17201	-0.101512	5.49766	-0.0260762	0.0270252	-0.0165553	0.833496	0.107422	-0.777588	0.334474	0.895347	0.291599	0.0380854	-1.17986	5.82097	-6.77524	0.0207029	-0.00586802	0.00385364	0.467773	-0.4646	0.92627	-0.432151	0.485707	0.62828	-0.427316	1.00099	-9.37417	-2.56634	0.00936791	0.00825388	0.000205003	-0.194824	1.16187	-0.19873	-0.087961	0.980503	0.170536	-0.0423653	-0.40485	-1.78654	-9.54631	-0.0160157	0.00698655	-0.0185916	0.458496	0.670166	1.25952	0.291794	0.948325	-0.124002	-0.0126163	0.764776	5.25059	-4.77205	-0.0623777	0.0183428	-0.0158025	0.218994	-0.956055	0.592773	0.0657229	0.0457144	0.0351755	-0.996169	-0.840267	-0.334853	10.4949	0.00972695	-0.017482	-0.0111108	-0.260498	0.105469	-1.04395	0.0109114	-0.109531	0.000613943	-0.993923	2.56848	0.535085	10.7418	0.00923977	0.00760675	-0.0188671	-0.700928	0.0222168	-0.915527	0.0589507	-0.724219	-0.686878	0.0151318	0.621204	-0.909675	-9.08685	0.0112406	0.0033011	-0.017985	0.426025	0.13916	1.22144	-0.140958	-0.112134	-0.0183943	-0.983473	2.20747	0.858005	10.2414	-0.0114465	0.00552762	0.00921131	-0.639893	-0.190186	-0.90332	0.106353	-0.97675	-0.186103	-0.00386082	0.558729	-2.03699	-9.50533	0.0225135	0.00764993	-0.00438911	0.371582	0.0915527	1.02246	
52	0.294122	0.101915	0.0143754	-0.95021	-1.87459	0.363651	10.8807	-0.00601074	-0.0130486	-0.0107683	-0.119385	0.210205	-1.13062	0.179455	0.465149	0.106434	-0.860293	-8.15959	-0.0979286	5.55864	-0.0280785	0.0300556	-0.0209554	0.835938	0.105225	-0.775146	0.334585	0.895253	0.291758	0.0380975	-1.21952	5.79826	-6.83012	0.00792678	0.00275402	0.00144892	0.470215	-0.473389	0.930908	-0.432103	0.485344	0.628024	-0.428151	0.976134	-9.37488	-2.47059	0.019894	0.000910952	0.00988442	-0.19043	1.15967	-0.203125	-0.0881051	0.980482	0.170557	-0.0424598	-0.559859	-1.80749	-9.55823	0.021916	0.00992039	-0.0104802	0.458496	0.670166	1.25732	0.294571	0.94748	-0.123877	-0.0127761	0.767587	5.27625	-4.74735	-0.042648	0.00575633	-0.0261545	0.218994	-0.960449	0.593018	0.0661022	0.0445014	0.0350688	-0.996203	-0.791631	-0.328221	10.4872	0.0147251	-0.0361835	-0.0135032	-0.258301	0.105469	-1.04199	0.0107969	-0.109631	0.00057892	-0.993914	2.60861	0.439758	10.765	-5.0146e-05	0.012287	-0.0279644	-0.702881	0.0178223	-0.913086	0.0589507	-0.724219	-0.686878	0.0151318	0.621204	-0.909675	-9.08685	0.0112406	0.0033011	-0.017985	0.426025	0.13916	1.22144	-0.140958	-0.112134	-0.0183943	-0.983473	2.20747	0.858005	10.2414	-0.0114465	0.00552762	0.00921131	-0.639893	-0.190186	-0.90332	0.106947	-0.976692	-0.186068	-0.00380841	0.583301	-2.03371	-9.50759	0.0251319	0.00643239	-0.000276001	0.371582	0.0939941	1.02686	
53	0.294237	0.101724	0.0146592	-0.95019	-1.87609	0.289025	10.8513	-0.0107029	0.00510784	-0.00205509	-0.119141	0.203857	-1.12817	0.179593	0.465067	0.10652	-0.860298	-8.21766	-0.161012	5.51552	-0.0117435	0.0161497	-0.0176975	0.837891	0.107422	-0.777588	0.334325	0.895253	0.292076	0.0379609	-1.2366	5.83606	-6.82967	0.0220374	0.00203883	-0.0040825	0.46582	-0.471191	0.924072	-0.431968	0.485086	0.628051	-0.428541	0.968355	-9.31903	-2.5659	0.0133106	0.000284567	-0.00307483	-0.190186	1.15527	-0.200684	-0.0881463	0.98048	0.170482	-0.0427251	-0.387366	-1.76409	-9.45867	-0.00416986	-0.00493063	-0.0123866	0.462891	0.670166	1.25732	0.296432	0.946899	-0.123875	-0.012856	0.756688	5.27313	-4.74843	-0.0165363	0.008381	-0.0255088	0.217041	-0.962646	0.59082	0.0663095	0.0427862	0.0344097	-0.996287	-0.808054	-0.427291	10.4876	0.0601426	-0.0618013	-0.0210794	-0.264893	0.105225	-1.04199	0.0108867	-0.109679	0.000435449	-0.993907	2.6444	0.37935	10.7959	0.0074851	0.0143836	-0.00818765	-0.705078	0.0178223	-0.917725	0.0593653	-0.723965	-0.687099	0.0156575	0.624676	-0.962888	-9.07399	-0.0137995	0.00383201	-0.022947	0.421143	0.141357	1.21899	-0.14099	-0.11196	-0.0183812	-0.983488	2.23144	0.797616	10.2312	-0.000339008	0.00871684	5.07087e-05	-0.639648	-0.192383	-0.907715	0.10737	-0.976652	-0.186037	-0.00367814	0.580928	-2.02684	-9.50826	0.0202844	0.0059895	-0.00123809	0.371582	0.0939941	1.02466	
54	0.294414	0.101508	0.0147154	-0.950158	-1.84996	0.26027	10.8913	-0.00207581	-0.0117402	0.00212365	-0.119385	0.210205	-1.13062	0.179751	0.465118	0.106627	-0.860224	-8.19714	-0.117799	5.63193	-0.0262536	0.0302995	-0.0234182	0.837891	0.109619	-0.780029	0.334352	0.895195	0.292232	0.037877	-1.18611	5.78077	-6.87028	0.00698022	-0.00128938	-0.00401105	0.470215	-0.475586	0.928711	-0.431902	0.484666	0.628353	-0.42864	1.04589	-9.44346	-2.50735	0.00994462	0.0135113	-0.0113018	-0.194824	1.15967	-0.203125	-0.0878775	0.980519	0.17044	-0.0425562	-0.543381	-1.72804	-9.56479	-0.021438	0.0172498	-0.011858	0.458496	0.670166	1.25952	0.297298	0.946662	-0.12361	-0.0128498	0.756304	5.30922	-4.74194	-0.00578517	0.0075485	-0.0207727	0.221436	-0.964844	0.595215	0.0665535	0.0422659	0.0341752	-0.996301	-0.696954	-0.280283	10.5405	0.0062099	0.00182804	-0.0119783	-0.260498	0.103271	-1.04175	0.0113882	-0.109626	0.000111221	-0.993908	2.61408	0.491211	10.793	0.0234469	0.0176146	-0.000254543	-0.70752	0.0222168	-0.917969	0.0583041	-0.723833	-0.687357	0.0144043	0.635651	-0.92427	-9.09921	-0.0582689	0.00780021	-0.0333338	0.421387	0.136963	1.2168	-0.141471	-0.112005	-0.01828	-0.983416	2.22879	0.844544	10.2334	-0.00601797	0.00588157	-0.0238043	-0.637451	-0.192383	-0.914551	0.109265	-0.976513	-0.185663	-0.0034408	0.573951	-2.05562	-9.52931	0.0775799	0.0103153	0.0133948	0.371582	0.0939941	1.02686	
55	0.294594	0.101779	0.0146129	-0.950075	-1.94842	0.248977	10.853	0.0112742	0.019472	0.00518269	-0.119385	0.210205	-1.13062	0.180026	0.465175	0.107132	-0.860073	-8.1159	-0.143231	5.43263	-0.0304031	0.0313659	-0.0154308	0.837891	0.107422	-0.775146	0.334459	0.895089	0.292437	0.0378573	-1.33952	5.7199	-6.8276	-0.00576784	0.0082518	0.00634697	0.472168	-0.468994	0.924072	-0.431631	0.484407	0.628542	-0.428928	0.926688	-9.39146	-2.49697	0.00466873	-0.0115151	0.0004872	-0.192383	1.15527	-0.207275	-0.0883273	0.980466	0.170539	-0.0424439	-0.493051	-1.76736	-9.53595	0.0125887	0.00058909	-0.0144257	0.460693	0.674561	1.26416	0.298927	0.946121	-0.123836	-0.0127795	0.755231	5.28406	-4.70546	-0.00402861	0.00894423	-0.0177936	0.216797	-0.960449	0.59082	0.0668597	0.041314	0.0335738	-0.996341	-0.66476	-0.366795	10.5538	0.0501645	-0.0114708	-0.0105659	-0.262451	0.101074	-1.04395	0.0119054	-0.10957	-7.19393e-05	-0.993908	2.58625	0.507446	10.7859	0.0134091	0.0167454	0.00400842	-0.709717	0.0244141	-0.915527	0.0571918	-0.723676	-0.687641	0.0130923	0.648237	-0.867442	-9.09146	-0.0528314	0.0061988	-0.033066	0.416992	0.134521	1.21924	-0.142026	-0.112046	-0.0183191	-0.98333	2.31456	0.86489	10.2639	-0.00196191	0.0142301	-0.0152034	-0.637207	-0.196777	-0.905273	0.11144	-0.976332	-0.185327	-0.0033016	0.58525	-2.135	-9.45273	0.0756383	0.0195779	0.00513903	0.369141	0.100586	1.02686	
56	0.295235	0.10198	0.0139671	-0.949864	-1.79915	0.171556	10.8731	0.0307051	0.00411224	0.0336078	-0.116943	0.203857	-1.12817	0.180258	0.464872	0.107308	-0.860166	-8.21932	-0.11338	5.53034	-0.00513462	-0.0135695	-0.0171171	0.833496	0.111572	-0.777832	0.334386	0.89503	0.292666	0.0381338	-1.13921	5.85957	-6.8301	0.0168131	0.012626	-0.00637514	0.46582	-0.462402	0.928467	-0.431137	0.484404	0.629011	-0.428742	1.0345	-9.39084	-2.59945	-0.0292685	0.0131924	-0.00470824	-0.192627	1.15747	-0.196289	-0.0882511	0.980493	0.170489	-0.0421817	-0.515813	-1.78598	-9.50982	-0.0075085	0.0273033	-0.0125895	0.460693	0.672363	1.26416	0.298645	0.946208	-0.123883	-0.0124611	0.745286	5.282	-4.74831	0.0829178	0.0109968	-0.0143305	0.218994	-0.956055	0.590576	0.0670015	0.0424668	0.032491	-0.996319	-0.819054	-0.306635	10.4571	0.0583019	0.0801362	-0.0174432	-0.260254	0.101074	-1.04395	0.0123246	-0.109606	-0.000106876	-0.993899	2.65846	0.672461	10.8143	-0.00752977	0.015482	-0.0076431	-0.703125	0.0244141	-0.915527	0.0565252	-0.723538	-0.687855	0.0123636	0.645551	-0.821366	-9.14466	-0.0142444	0.00405374	-0.0244702	0.421631	0.129883	1.22363	-0.142314	-0.111886	-0.0180931	-0.983311	2.17824	0.74175	10.1975	-0.00743776	0.0154384	-0.00770871	-0.637695	-0.190186	-0.910156	0.112362	-0.976241	-0.185249	-0.00323783	0.590072	-2.13227	-9.46528	0.0381571	0.00845225	0.00113275	0.371094	0.10498	1.02222	
57	0.297405	0.102978	0.0120964	-0.949105	-1.94546	0.0894926	10.809	0.0928625	0.0181437	0.106944	-0.116943	0.205811	-1.12622	0.180652	0.464316	0.107285	-0.860387	-8.22007	-0.105636	5.56687	-0.0135321	-0.00289796	-0.0117148	0.833496	0.109619	-0.777588	0.334555	0.894927	0.292787	0.0381316	-1.24026	5.76727	-6.88285	-0.00234376	-0.00237817	-0.00307237	0.467773	-0.460205	0.928467	-0.430952	0.484332	0.62922	-0.428701	1.00141	-9.46762	-2.65268	-0.00997851	0.00231203	-0.00753337	-0.192383	1.15308	-0.200684	-0.0879774	0.980522	0.170526	-0.0419307	-0.458092	-1.77855	-9.52713	-0.011587	0.0115774	-0.00939604	0.456543	0.670166	1.26636	0.298846	0.946135	-0.123973	-0.0122758	0.756114	5.2755	-4.77734	0.0380372	0.0132055	-0.00901755	0.214844	-0.960449	0.593018	0.0670946	0.0427619	0.0319842	-0.996317	-0.754994	-0.306661	10.6479	0.0567254	0.0371939	-0.0145326	-0.26416	0.0922852	-1.0415	0.012312	-0.109563	0.000171479	-0.993904	2.5824	0.573495	10.8211	-0.0203664	0.0196052	-0.0173336	-0.707275	0.0200195	-0.917969	0.0566535	-0.723552	-0.687827	0.0125144	0.649001	-0.833118	-9.11556	0.0283166	-0.000651112	-0.0155991	0.424072	0.130127	1.21484	-0.142393	-0.111894	-0.0181736	-0.983297	2.22438	0.725395	10.2006	0.00797625	0.0123176	-0.0045288	-0.637451	-0.19458	-0.905518	0.112094	-0.976265	-0.185286	-0.00321874	0.581513	-2.15306	-9.48529	-0.0220381	0.00359647	-0.00863931	0.371338	0.102783	1.02002	
58	0.299661	0.1041	0.00839846	-0.948312	-1.95943	0.255692	10.8181	0.161493	0.00156302	0.104924	-0.118652	0.195068	-1.13257	0.180687	0.464106	0.107217	-0.860501	-8.19631	-0.145451	5.485	-0.00422824	-0.00248034	-0.0198311	0.838135	0.105225	-0.777588	0.334542	0.894914	0.292826	0.0382433	-1.12439	5.82541	-6.81141	0.0282553	0.0104923	0.00458512	0.468018	-0.466797	0.924072	-0.430816	0.484197	0.629251	-0.428944	1.00348	-9.49198	-2.53645	0.0128665	-0.00147707	0.00453157	-0.192627	1.15967	-0.200928	-0.0882705	0.980501	0.170598	-0.0415109	-0.456787	-1.79656	-9.57968	0.00243238	0.013024	-0.0140182	0.456299	0.672363	1.26636	0.299309	0.945971	-0.124123	-0.0121075	0.741247	5.26121	-4.74472	0.0567324	0.00570936	-0.0159741	0.216797	-0.956055	0.594971	0.0670544	0.0449359	0.0308225	-0.99626	-0.843257	-0.209452	10.4833	0.0618487	0.113413	-0.0229592	-0.26001	0.0966797	-1.0459	0.0124667	-0.109693	0.000431246	-0.993887	2.62699	0.398137	10.7987	-0.00630626	0.0107198	-0.00511396	-0.703125	0.0200195	-0.915527	0.0568201	-0.723572	-0.687789	0.0127087	0.63598	-0.877945	-9.06816	0.0326419	-0.000571542	-0.0142099	0.419434	0.132324	1.21704	-0.14225	-0.111947	-0.0181539	-0.983312	2.20732	0.936989	10.244	-0.00335792	0.0110237	0.00862422	-0.635254	-0.192383	-0.907715	0.112457	-0.976239	-0.185208	-0.00293612	0.58552	-2.11752	-9.51065	0.0447616	0.000112997	0.00488936	0.368896	0.107178	1.02905	
59	0.300999	0.105182	0.00396922	-0.947798	-1.94256	0.600115	10.8807	0.177092	-0.0111339	0.0563871	-0.116211	0.188477	-1.13013	0.180516	0.463584	0.107359	-0.860801	-8.18746	-0.184732	5.52837	-0.000482554	-0.00373435	-0.02081	0.837891	0.109375	-0.782471	0.33464	0.894818	0.292981	0.0384498	-1.15948	5.77909	-6.81553	-0.00244441	0.00418679	0.00765862	0.463623	-0.4646	0.928467	-0.430696	0.484217	0.62918	-0.429147	1.04619	-9.38293	-2.50982	-0.0186211	0.0137711	-0.00238381	-0.19043	1.15967	-0.203125	-0.0881739	0.980532	0.170493	-0.0414135	-0.500572	-1.79128	-9.58143	-0.00677635	0.0146329	-0.00699469	0.456299	0.674561	1.26855	0.299177	0.945983	-0.12439	-0.01169	0.748254	5.22233	-4.79777	0.0582733	0.0146731	-0.00417866	0.2146	-0.958252	0.599365	0.0670729	0.0469895	0.0301108	-0.996186	-0.832987	-0.272867	10.457	0.0496871	0.119963	-0.0195058	-0.249268	0.0966797	-1.03955	0.0128202	-0.10966	0.000465269	-0.993886	2.61815	0.524642	10.8594	0.00419124	0.0174128	-0.00618851	-0.703125	0.0241699	-0.910889	0.0565427	-0.723327	-0.688079	0.0121804	0.635141	-0.864351	-9.13188	-0.0120948	0.00811454	-0.0221346	0.417236	0.127686	1.21704	-0.142476	-0.11205	-0.0178106	-0.983274	2.23305	0.806812	10.185	-0.0124587	0.00439001	-0.0102908	-0.639648	-0.192383	-0.910156	0.113631	-0.976139	-0.185021	-0.00271391	0.572863	-2.17146	-9.44393	0.0490865	0.00465324	0.00653902	0.366455	0.109375	1.02441	
60	0.301095	0.105564	0.00203875	-0.947731	-1.94788	0.775666	10.8609	0.156356	-0.0154709	0.0202785	-0.115967	0.184326	-1.13892	0.180508	0.463426	0.107161	-0.860912	-8.16228	-0.150664	5.4712	0.00760751	-0.000268184	-0.017674	0.835938	0.105225	-0.775146	0.334987	0.894654	0.293059	0.0386524	-1.20559	5.758	-6.81539	-0.00822727	0.00812691	0.00349054	0.465576	-0.462402	0.923828	-0.430496	0.484547	0.629118	-0.429066	0.994632	-9.44262	-2.62454	-0.00967859	0.0132383	0.0110485	-0.192627	1.15747	-0.207275	-0.0882109	0.980534	0.170441	-0.041487	-0.366845	-1.776	-9.5478	0.00152237	0.00381761	-0.0109969	0.462891	0.672363	1.26636	0.299705	0.945766	-0.124824	-0.0110682	0.781699	5.20162	-4.78079	0.0289332	0.0229298	0.00117283	0.220947	-0.956055	0.597168	0.0670154	0.0492704	0.029386	-0.996101	-0.917247	-0.322011	10.51	0.0565854	0.0923195	-0.0237861	-0.249023	0.090332	-1.0437	0.0129687	-0.109708	0.000582972	-0.993879	2.55111	0.516598	10.7668	-0.00638373	0.0122567	-0.00582919	-0.70752	0.0244141	-0.920166	0.0563869	-0.723287	-0.688137	0.0119798	0.63817	-0.858544	-9.10459	-0.00750186	0.00392327	-0.0244416	0.416992	0.132324	1.21704	-0.142504	-0.112116	-0.0177962	-0.983263	2.29573	0.807425	10.2577	0.0015402	0.00689348	0.000622836	-0.637451	-0.192383	-0.90332	0.113578	-0.976139	-0.185056	-0.00268004	0.571553	-2.178	-9.49571	-0.0013065	0.00384661	-0.00464054	0.369141	0.100586	1.02441	
61	0.300987	0.105828	-0.000409334	-0.947738	-1.80002	0.966597	10.8834	0.0766228	-0.015981	0.00211638	-0.115723	0.177734	-1.13232	0.180787	0.463081	0.106974	-0.861063	-8.21326	-0.0995024	5.54217	-0.0131682	-0.00365276	-0.0100517	0.835693	0.111572	-0.782471	0.335552	0.894437	0.293003	0.0391971	-1.11936	5.87691	-6.78532	-0.0257955	0.00850665	0.0155722	0.472168	-0.468994	0.933105	-0.429781	0.484643	0.629309	-0.429395	0.979432	-9.35788	-2.52489	-0.0180654	7.93003e-05	0.0162579	-0.190186	1.15747	-0.200684	-0.0881526	0.98058	0.170204	-0.0414922	-0.408067	-1.78373	-9.54459	0.00288436	0.0089486	-0.00559669	0.460693	0.674561	1.26416	0.300115	0.945582	-0.125277	-0.0105631	0.759678	5.18609	-4.78513	0.0540707	0.0206227	-0.00645535	0.218994	-0.958252	0.599365	0.0670822	0.0518883	0.0283648	-0.995993	-0.974193	-0.270805	10.4287	0.0559034	0.125331	-0.0124393	-0.244629	0.090332	-1.0415	0.0131534	-0.109632	0.00093239	-0.993885	2.63106	0.479143	10.8443	-0.00912553	0.0161823	-0.0120143	-0.703125	0.0241699	-0.910889	0.0564838	-0.723033	-0.688396	0.0120127	0.667174	-0.840058	-9.12856	0.0255036	-0.00124975	-0.0181563	0.424072	0.130127	1.21924	-0.142454	-0.112023	-0.017439	-0.983287	2.1781	0.810892	10.2008	-0.00532018	0.00721094	-0.00482483	-0.637451	-0.192383	-0.910156	0.114549	-0.976061	-0.184871	-0.00240073	0.580281	-2.17043	-9.50845	0.0417479	0.000791327	0.00587603	0.368896	0.107178	1.02441	
62	0.301282	0.105829	-0.000909188	-0.947644	-1.97625	0.870162	10.8718	0.0022784	-0.00305997	0.00773874	-0.115479	0.175537	-1.13232	0.181173	0.462681	0.106983	-0.861195	-8.12487	-0.115512	5.5692	-0.0153485	0.00569725	-0.0118743	0.839844	0.111572	-0.787109	0.33618	0.894121	0.293196	0.0395865	-1.23954	5.78763	-6.83587	-0.0201927	0.0154433	0.0016296	0.46582	-0.473145	0.930908	-0.429134	0.484565	0.629767	-0.429459	0.91337	-9.40413	-2.59452	-0.00939366	-0.0144588	-0.00534546	-0.19043	1.15967	-0.19873	-0.0881267	0.980595	0.170121	-0.0415454	-0.516056	-1.73152	-9.52341	0.000419502	0.00895521	-0.0139698	0.465088	0.672363	1.26172	0.300602	0.945399	-0.125497	-0.0104496	0.784453	5.18126	-4.81003	0.0281183	0.00156602	-0.0245965	0.214355	-0.949707	0.601074	0.0673616	0.0538671	0.027674	-0.995889	-0.956884	-0.206213	10.4954	0.0512286	0.0906403	-0.0103133	-0.244629	0.090332	-1.05005	0.01317	-0.109751	0.000812989	-0.993872	2.62941	0.441945	10.7977	0.015628	0.00994105	-0.0172775	-0.705322	0.0244141	-0.91333	0.056599	-0.723052	-0.688359	0.0123986	0.630893	-0.879944	-9.09497	0.0234934	-0.00697341	-0.0177913	0.421631	0.132324	1.21484	-0.142681	-0.112091	-0.0174169	-0.983247	2.27402	0.744823	10.2803	0.00549706	0.010729	-0.00094876	-0.635254	-0.190186	-0.905518	0.11569	-0.97597	-0.184644	-0.00224832	0.569788	-2.21299	-9.45968	0.0355145	0.0119072	0.00333645	0.368652	0.111572	1.02661	
63	0.301664	0.105203	-0.000438195	-0.947592	-1.72851	0.602911	10.8373	-0.0286515	-0.0133967	0.00744533	-0.113525	0.179932	-1.13452	0.181469	0.462043	0.106697	-0.861511	-8.19094	-0.154978	5.49849	-0.00220776	-0.0184211	-0.00727782	0.833496	0.107422	-0.780029	0.336423	0.893879	0.293615	0.0398844	-1.16293	5.87678	-6.799	0.00440524	0.0033912	-0.0169982	0.463623	-0.470947	0.928711	-0.428894	0.484348	0.630235	-0.429256	0.978166	-9.38843	-2.55558	-0.0129321	-0.00390539	-0.0142676	-0.192627	1.15747	-0.200684	-0.0885294	0.98055	0.170172	-0.041536	-0.374461	-1.80342	-9.52951	0.0235915	-0.000795412	-0.0190559	0.460449	0.676758	1.26172	0.300448	0.945505	-0.125057	-0.0105577	0.76977	5.14079	-4.81715	0.0710177	-0.00266136	-0.0364073	0.216797	-0.953857	0.603516	0.0675379	0.0562168	0.0266024	-0.995776	-1.02029	-0.258018	10.3388	0.0723406	0.106916	-0.00989792	-0.233887	0.090332	-1.0459	0.0131724	-0.109726	0.000845848	-0.993874	2.67317	0.526113	10.8033	-0.00107141	0.0181841	-0.0182205	-0.703369	0.0285645	-0.911133	0.0567384	-0.723093	-0.688301	0.0126029	0.629939	-0.881801	-9.08801	0.0229719	0.00105857	-0.0139938	0.426758	0.123291	1.21484	-0.142683	-0.112128	-0.0175674	-0.98324	2.25637	0.70171	10.2564	0.0181859	0.0149052	0.00228549	-0.637451	-0.19458	-0.912354	0.115352	-0.976006	-0.184666	-0.00220069	0.580452	-2.21321	-9.43638	-0.026772	-0.000450295	-0.00469261	0.371094	0.10498	1.02441	
64	0.30159	0.105252	-5.84453e-05	-0.94761	-2.03237	0.556015	10.846	-0.00895472	-0.000156064	-0.0135795	-0.120117	0.179932	-1.13013	0.181955	0.460933	0.106812	-0.861988	-8.04869	-0.110069	5.5259	-0.0113244	-0.0617197	-0.0134714	0.829102	0.111572	-0.787109	0.337272	0.893449	0.293877	0.0404085	-1.15308	5.79481	-6.80658	-0.0355031	0.0123882	-0.00526561	0.46167	-0.473145	0.924072	-0.428589	0.483761	0.630724	-0.429504	1.0027	-9.42727	-2.50625	0.00409547	-0.0149699	-0.0117256	-0.194824	1.15967	-0.196533	-0.0893274	0.980465	0.170284	-0.0413744	-0.510178	-1.79074	-9.57866	0.0312323	0.0150674	-0.0145205	0.462891	0.674561	1.26172	0.300432	0.945577	-0.124519	-0.0109162	0.73893	5.14378	-4.83937	0.0272231	-0.00638766	-0.036432	0.214355	-0.94751	0.607666	0.0678202	0.0586554	0.0262263	-0.995627	-1.01129	-0.161975	10.5202	0.0270713	0.115626	-0.0106261	-0.231689	0.0881348	-1.04785	0.0127592	-0.10933	0.000497765	-0.993924	2.59302	0.367366	10.8048	0.00872923	0.0158827	-0.0183487	-0.701172	0.0266113	-0.917969	0.0565921	-0.723099	-0.688309	0.0124547	0.642165	-0.901042	-9.10007	-0.0101659	0.000747858	-0.0238971	0.421875	0.127686	1.21704	-0.142488	-0.112293	-0.0179631	-0.983242	2.22977	0.885573	10.2164	0.0119391	0.00868361	0.00610396	-0.637695	-0.190186	-0.912354	0.113893	-0.976136	-0.184883	-0.00215783	0.561259	-2.19318	-9.47339	-0.0576204	-0.00636177	-0.010863	0.371338	0.102783	1.02686	
65	0.301642	0.104917	-0.000146168	-0.947631	-1.82592	0.548102	10.8586	-0.000211688	-0.0260942	-0.000644699	-0.115479	0.175537	-1.13647	0.182062	0.460814	0.106623	-0.862053	-8.13668	-0.133471	5.66121	0.00299374	0.00317352	-0.0090243	0.829346	0.103027	-0.782227	0.337386	0.893322	0.294132	0.0404024	-1.21489	5.76033	-6.8723	0.00252379	0.00311795	-0.0150003	0.468018	-0.468994	0.928467	-0.428435	0.483689	0.630932	-0.429433	1.09112	-9.37482	-2.4201	-0.0116472	0.00572796	-0.00904595	-0.192627	1.15747	-0.196289	-0.0897057	0.980438	0.170308	-0.0411089	-0.536746	-1.8262	-9.55313	0.0280419	0.0334014	-0.0209551	0.464844	0.676758	1.26636	0.300273	0.945648	-0.124376	-0.0107769	0.725974	5.15534	-4.83474	0.0670801	0.00446389	-0.0204726	0.216309	-0.94751	0.605469	0.067996	0.0602881	0.0261955	-0.995518	-0.961027	-0.143409	10.5716	0.0263147	0.146872	-0.00672623	-0.225098	0.0839844	-1.0498	0.0129228	-0.109275	9.9557e-05	-0.993928	2.67354	0.481106	10.816	0.0345417	0.0196831	-0.0096925	-0.703369	0.0288086	-0.917969	0.0561415	-0.723062	-0.688393	0.0120291	0.632139	-0.890322	-9.1077	-0.0370637	0.000669505	-0.0276787	0.424072	0.132324	1.21924	-0.142448	-0.112241	-0.0180436	-0.983252	2.32497	0.815477	10.2515	0.0083737	0.0172582	0.00495502	-0.642334	-0.185791	-0.912598	0.112602	-0.976259	-0.185026	-0.00215685	0.538461	-2.14625	-9.50793	-0.0355412	0.0033751	-0.00733624	0.366943	0.100342	1.02002	
66	0.301352	0.105314	-0.000600697	-0.947679	-2.09849	0.713407	10.8561	0.0153573	0.00408922	-0.0147634	-0.11792	0.179932	-1.13452	0.182488	0.460032	0.106454	-0.862402	-8.155	-0.206644	5.65837	-0.00278294	-0.00263627	-0.014244	0.831543	0.102783	-0.789062	0.338217	0.892983	0.294178	0.0406262	-1.13555	5.75783	-6.75389	-0.031906	0.012078	0.0026123	0.46167	-0.470947	0.924072	-0.427929	0.483816	0.631486	-0.42898	0.954431	-9.36676	-2.69399	-0.0310229	0.00149969	-0.00900431	-0.199219	1.15723	-0.196289	-0.0894222	0.980488	0.170153	-0.0411713	-0.442285	-1.81024	-9.49414	-0.0247509	0.0044181	-0.00324066	0.464844	0.676758	1.26172	0.299885	0.945736	-0.124702	-0.0101206	0.741306	5.08155	-4.86475	0.0562905	0.018832	-0.000626678	0.216553	-0.95166	0.614014	0.0679757	0.0628914	0.0256502	-0.995372	-1.19555	-0.167302	10.4444	0.0364792	0.110882	-0.00842903	-0.218506	0.0839844	-1.0542	0.0131991	-0.109113	-0.000272072	-0.993942	2.5609	0.449177	10.815	0.0207538	0.0179609	-0.0118524	-0.703369	0.0266113	-0.917969	0.0553557	-0.722965	-0.688577	0.0108951	0.644975	-0.848337	-9.10521	-0.0388604	0.0134132	-0.0271233	0.424316	0.125488	1.21924	-0.142433	-0.112223	-0.0184304	-0.983249	2.2231	0.896398	10.2415	0.0139857	0.0132572	-0.000243222	-0.637451	-0.19458	-0.905518	0.112247	-0.976281	-0.185122	-0.00227568	0.576843	-2.13778	-9.49582	-0.0052272	0.00749016	-0.00501278	0.366699	0.102783	1.02222	
67	0.301187	0.104772	-0.000497288	-0.947792	-1.78326	0.748232	10.8368	-0.013828	-0.014762	-0.0142597	-0.117676	0.175537	-1.13647	0.182512	0.45991	0.106282	-0.862482	-8.17024	-0.164931	5.57505	0.00407483	0.00350134	-0.0155897	0.829346	0.107178	-0.791748	0.33809	0.892971	0.294303	0.0410442	-1.11509	5.82787	-6.80383	0.00577232	0.017302	0.00493181	0.46582	-0.473145	0.921875	-0.427526	0.483805	0.631743	-0.429017	1.02976	-9.3796	-2.64856	-0.0056461	0.0100219	0.00554095	-0.192627	1.15967	-0.200928	-0.0887935	0.980569	0.170103	-0.0407994	-0.376983	-1.81954	-9.56433	-0.0166374	0.0106779	-0.0139839	0.456299	0.674561	1.25952	0.299479	0.945831	-0.124986	-0.00968271	0.739135	5.07841	-4.8834	0.0823863	0.0129567	-0.00970924	0.218506	-0.943115	0.615967	0.0681759	0.064931	0.0255361	-0.995231	-1.30242	-0.201217	10.4581	0.0193634	0.102525	-0.0152264	-0.21875	0.0881348	-1.0564	0.0135624	-0.109166	-0.00116047	-0.99393	2.60782	0.562057	10.8288	0.0429956	0.0148831	-0.00969	-0.702881	0.0178223	-0.917969	0.0545241	-0.722836	-0.688794	0.00992704	0.663556	-0.789225	-9.13961	-0.0318643	0.00282718	-0.029218	0.424316	0.123291	1.21924	-0.142481	-0.112376	-0.0184066	-0.983225	2.19148	0.846989	10.2124	0.00459545	0.00334542	0.00091786	-0.639648	-0.196777	-0.903076	0.112495	-0.97626	-0.185085	-0.00215725	0.585762	-2.13789	-9.47268	0.0237944	0.00219103	0.000732661	0.371094	0.10498	1.02441	
68	0.301108	0.104566	-0.000186757	-0.94784	-1.90501	0.744549	10.8786	-0.0266493	-0.00705013	-0.0149641	-0.124268	0.175537	-1.13232	0.18268	0.459859	0.10617	-0.862488	-8.09495	-0.0481486	5.53581	-0.0158583	0.0227742	-0.0143258	0.831055	0.11377	-0.787109	0.338671	0.892665	0.294496	0.041512	-1.19794	5.8524	-6.84939	-0.0143513	0.0127538	0.00799586	0.46582	-0.473145	0.928711	-0.427145	0.483491	0.631991	-0.429385	0.96444	-9.46366	-2.69267	0.0151565	-0.0162212	-0.00191424	-0.192627	1.15967	-0.194092	-0.0888248	0.980544	0.170147	-0.041149	-0.463278	-1.78082	-9.51603	0.00665127	0.000196983	-0.0166273	0.460693	0.674561	1.26416	0.300074	0.945679	-0.124718	-0.00961723	0.749594	5.06472	-4.89817	0.00146093	0.00923009	-0.0200574	0.212158	-0.945312	0.609619	0.0685658	0.0655158	0.0257537	-0.99516	-1.23723	-0.115614	10.3327	0.00866901	0.0412504	-0.00836354	-0.216309	0.0839844	-1.0498	0.0135015	-0.109354	-0.0016213	-0.99391	2.5422	0.647247	10.7168	0.00753509	0.00154516	-0.0242037	-0.705078	0.0200195	-0.910889	0.0544349	-0.722814	-0.68882	0.0101762	0.618476	-0.817765	-9.09292	0.0227423	-0.00936303	-0.015636	0.424316	0.123291	1.21924	-0.142471	-0.112499	-0.0182882	-0.983215	2.27299	0.892173	10.2112	-0.0046229	0.00792677	0.00680298	-0.633057	-0.190186	-0.907715	0.112447	-0.976257	-0.185131	-0.00215482	0.551136	-2.15907	-9.4624	-0.000578134	0.00314551	-0.00316642	0.373535	0.102783	1.02222	
69	0.30074	0.104081	0.00107218	-0.948009	-1.76516	0.670075	10.8599	-0.0565944	0.00395492	-0.0304632	-0.115723	0.179932	-1.13232	0.182735	0.46004	0.106572	-0.86233	-8.12337	-0.0993756	5.59051	-0.0152517	0.0241864	-0.0272782	0.831299	0.111572	-0.789551	0.33845	0.892603	0.294932	0.0415441	-1.13502	5.87363	-6.78599	0.0130948	0.00978675	-0.0122618	0.463867	-0.475342	0.926514	-0.427019	0.483143	0.632142	-0.429679	0.99407	-9.30868	-2.60237	0.00247826	0.0093659	-0.00904164	-0.192627	1.15967	-0.19873	-0.088554	0.980568	0.170124	-0.0412592	-0.439014	-1.81409	-9.54077	-0.00725833	-0.00457066	-0.0122476	0.462891	0.672363	1.25952	0.301443	0.945287	-0.124385	-0.00964355	0.728764	5.06926	-4.87549	0.00735422	0.00935984	-0.0253239	0.21875	-0.949463	0.607666	0.068881	0.0652228	0.0262232	-0.995145	-1.24824	-0.159812	10.4212	-0.0154564	-0.0135606	-0.0137377	-0.211914	0.0795898	-1.05396	0.0135016	-0.109533	-0.00169218	-0.99389	2.67467	0.45029	10.8554	0.0125809	0.0111343	-0.0195433	-0.703125	0.0222168	-0.920166	0.0545731	-0.722821	-0.688795	0.010618	0.641306	-0.817324	-9.13628	0.0289127	-0.00815134	-0.0157381	0.417236	0.127686	1.21924	-0.142407	-0.112492	-0.018109	-0.983228	2.25639	0.843364	10.2241	0.00230499	0.0149642	0.00307148	-0.639648	-0.196777	-0.905273	0.112361	-0.976267	-0.185132	-0.00208365	0.567933	-2.13736	-9.512	-0.00314692	0.000801974	-0.00262332	0.375732	0.102783	1.02002	
70	0.300556	0.10413	0.00188255	-0.948061	-1.74707	0.584857	10.8477	-0.0575362	0.023679	-0.0273896	-0.120361	0.182129	-1.13452	0.182806	0.4602	0.106815	-0.8622	-8.11507	-0.133763	5.63913	-0.0139808	0.0258117	-0.0204344	0.833496	0.109375	-0.789307	0.338731	0.892417	0.295159	0.041649	-1.14212	5.79459	-6.76278	-0.00138144	0.0091308	0.00129886	0.463867	-0.475342	0.931152	-0.426762	0.482734	0.632421	-0.429984	0.961019	-9.45665	-2.60524	0.018366	-0.00905602	0.0014343	-0.194824	1.15747	-0.198486	-0.088497	0.980569	0.170154	-0.0412472	-0.504248	-1.76342	-9.51001	-0.00736547	0.0120636	-0.0181464	0.462891	0.672363	1.26416	0.302882	0.944841	-0.124264	-0.00985924	0.725846	5.07569	-4.85413	-0.00167615	-0.000299102	-0.030991	0.214111	-0.943115	0.615967	0.0691231	0.0626237	0.0260932	-0.995299	-1.1886	-0.216491	10.7117	0.0284653	-0.120269	-0.0199046	-0.218506	0.0839844	-1.052	0.0135525	-0.109413	-0.00152594	-0.993903	2.6061	0.45071	10.784	-0.00687457	0.0242245	-0.0165816	-0.70752	0.0222168	-0.915527	0.0546872	-0.722826	-0.68878	0.0106803	0.634346	-0.829423	-9.09995	0.0203029	0.00514884	-0.0154458	0.424316	0.125488	1.21924	-0.142605	-0.112487	-0.0179456	-0.983203	2.26792	0.825592	10.2102	-0.0132946	0.0109745	-0.00704089	-0.637207	-0.196777	-0.907715	0.114661	-0.976036	-0.18494	-0.00200587	0.566374	-2.16446	-9.49305	0.0617862	0.0125109	0.00311344	0.368652	0.109375	1.02222	
71	0.299673	0.105795	0.00428834	-0.948148	-1.87925	0.472546	10.8466	-0.0319939	0.0828423	-0.0426025	-0.111816	0.188721	-1.13232	0.18251	0.460416	0.106654	-0.862167	-8.20532	-0.118125	5.65336	0.00599897	0.0296654	-0.0279525	0.831299	0.107178	-0.784668	0.338643	0.89234	0.295462	0.0418504	-1.16639	5.86745	-6.82851	0.00385552	0.00526305	-0.00249731	0.46582	-0.468994	0.928467	-0.426357	0.482593	0.632585	-0.430302	1.043	-9.3251	-2.6008	-0.0148445	0.00249234	0.00403082	-0.186035	1.16406	-0.194336	-0.0882633	0.980577	0.170266	-0.0410869	-0.544367	-1.72621	-9.63154	-0.0192561	0.0165226	-0.0247034	0.462891	0.672363	1.26636	0.303058	0.944827	-0.123938	-0.0098618	0.7384	5.08432	-4.8701	0.0369819	4.79673e-05	-0.0347606	0.220703	-0.945312	0.615967	0.0692589	0.0620359	0.0262524	-0.995322	-1.17906	-0.131521	10.3332	0.000391604	0.0164869	-0.0171672	-0.2229	0.0861816	-1.052	0.0136467	-0.109453	-0.00166997	-0.993897	2.61468	0.467541	10.7726	0.0134959	0.0130605	-0.0128813	-0.703125	0.0222168	-0.920166	0.0548979	-0.722658	-0.688942	0.0104775	0.627972	-0.835617	-9.11254	0.00686021	0.0119522	-0.019228	0.417236	0.127686	1.21704	-0.142715	-0.112295	-0.0177386	-0.983213	2.23262	0.805392	10.2548	-0.00810023	0.0191308	0.0008355	-0.639648	-0.19458	-0.912354	0.115886	-0.975947	-0.184647	-0.0020921	0.578614	-2.21752	-9.45962	0.0444713	0.0187301	-0.00403602	0.366455	0.109375	1.02441	
72	0.298984	0.106835	0.00545442	-0.948243	-2.1197	0.524666	10.8451	-0.0295324	0.0412304	-0.0334618	-0.109375	0.186523	-1.13452	0.182527	0.460413	0.106393	-0.862197	-8.17879	-0.121145	5.64152	-0.00447403	0.00866265	-0.0117484	0.827148	0.107178	-0.784668	0.338944	0.89221	0.295484	0.0420488	-1.12435	5.80894	-6.79768	-0.00952823	0.00406036	0.00324276	0.461426	-0.46875	0.919434	-0.426029	0.482669	0.632767	-0.430274	0.975427	-9.4422	-2.71154	-0.0207543	-0.00283269	0.00437438	-0.197021	1.15942	-0.189697	-0.0871449	0.980538	0.171066	-0.0410799	-0.410625	-1.81706	-9.57496	-0.0294883	-0.00417955	-0.0250927	0.456543	0.670166	1.26172	0.303638	0.94469	-0.123567	-0.00977358	0.72671	5.06876	-4.89922	0.00336349	0.0123107	-0.0251855	0.218262	-0.940918	0.611572	0.0697634	0.0608263	0.0270592	-0.99534	-1.12596	-0.196904	10.3159	-0.0340809	-0.0430987	-0.00437333	-0.227295	0.0859375	-1.052	0.0136467	-0.109453	-0.00166997	-0.993897	2.61468	0.467541	10.7726	0.0134959	0.0130605	-0.0128813	-0.703125	0.0222168	-0.920166	0.0548249	-0.722641	-0.68897	0.0102161	0.645183	-0.84519	-9.08374	-0.00662416	0.0124967	-0.0204702	0.424072	0.127686	1.21704	-0.142837	-0.112181	-0.0176763	-0.983209	2.21971	0.808571	10.2168	-0.00512493	0.0203927	-0.00625894	-0.639404	-0.201172	-0.909912	0.115886	-0.975947	-0.184647	-0.0020921	0.578614	-2.21752	-9.45962	0.0444713	0.0187301	-0.00403602	0.366455	0.109375	1.02441	
73	0.298592	0.105739	0.00592321	-0.948487	-2.13574	0.492217	10.8449	-0.0288621	-0.0747841	-0.026297	-0.111816	0.190918	-1.13452	0.182698	0.459917	0.106151	-0.862455	-8.09742	-0.112945	5.67176	-0.000207985	-0.0314725	-0.00845824	0.829346	0.107178	-0.789307	0.33899	0.892148	0.295616	0.0420639	-1.23882	5.83168	-6.79994	0.00617653	0.00348865	-0.00369746	0.463623	-0.466797	0.930908	-0.425505	0.482256	0.632792	-0.431217	0.986198	-9.33723	-2.58184	0.0341097	-0.0226245	0.012553	-0.188232	1.15967	-0.19873	-0.0869481	0.980538	0.171148	-0.0411573	-0.508541	-1.77502	-9.51002	-0.0130281	-0.00136555	-0.0205399	0.454102	0.674561	1.26636	0.304606	0.944456	-0.122984	-0.00966315	0.727424	5.07817	-4.88375	-0.0169201	0.0134855	-0.0246848	0.222656	-0.938721	0.607178	0.070094	0.0599808	0.0279578	-0.995343	-1.13882	-0.238055	10.5366	-0.0621029	-0.0458845	-0.00379881	-0.231934	0.0925293	-1.0564	0.013501	-0.108754	-0.00133129	-0.993976	2.57059	0.461975	10.7889	-0.00660758	0.0181389	-0.00703379	-0.703125	0.0200195	-0.920166	0.0544843	-0.72242	-0.689234	0.00982539	0.645265	-0.824846	-9.09619	-0.0142777	0.00204738	-0.0233539	0.428955	0.123291	1.22168	-0.143135	-0.112056	-0.0176642	-0.98318	2.14209	0.809267	10.2323	-0.00399153	0.013629	-0.0105604	-0.637451	-0.19458	-0.905518	0.119564	-0.975617	-0.184042	-0.00209241	0.592597	-2.27893	-9.43011	0.101066	0.0129499	0.012131	0.368408	0.115967	1.02661	
74	0.298307	0.104728	0.00597614	-0.948688	-1.82753	0.410367	10.8289	-0.0239596	-0.0758479	-0.0318781	-0.111572	0.186523	-1.13013	0.182894	0.459085	0.105013	-0.862997	-8.17914	-0.0262525	5.53424	0.0295283	-0.0336706	0.00117528	0.827148	0.102783	-0.784424	0.339246	0.89206	0.295558	0.0422712	-1.00251	5.85348	-6.77835	0.00861085	0.00448605	0.0103811	0.463623	-0.468994	0.930908	-0.425464	0.482146	0.632583	-0.431688	1.01191	-9.31769	-2.553	0.017205	0.000527139	0.00912436	-0.190186	1.15747	-0.196289	-0.0869114	0.980552	0.1711	-0.0410891	-0.412008	-1.76885	-9.49018	0.0021033	0.0119728	-0.0174793	0.460693	0.672363	1.26416	0.305326	0.944221	-0.123025	-0.00931851	0.732342	5.06885	-4.88717	0.0291247	0.0181528	-0.00912543	0.214111	-0.945312	0.618164	0.0704908	0.0578497	0.0286289	-0.995422	-1.11944	-0.145288	10.526	0.00185781	-0.0424953	-0.0140905	-0.227783	0.0969238	-1.0481	0.0135007	-0.108879	-0.00131893	-0.993963	2.72506	0.546919	10.8254	-0.0116956	0.0148242	-0.0230506	-0.703125	0.0222168	-0.915527	0.0544843	-0.72242	-0.689234	0.00982539	0.645265	-0.824846	-9.09619	-0.0142777	0.00204738	-0.0233539	0.428955	0.123291	1.22168	-0.143653	-0.112116	-0.0178657	-0.983094	2.23054	0.745681	10.2162	0.00969211	0.0085537	-0.0198502	-0.635498	-0.190186	-0.907715	0.120332	-0.975558	-0.183854	-0.00199314	0.585252	-2.30912	-9.38276	0.0645638	0.0126033	0.0113361	0.373047	0.115967	1.02417	
75	0.297327	0.103949	0.00602012	-0.949081	-1.71603	0.530752	10.8801	-0.00471335	-0.01394	-0.053807	-0.118652	0.195068	-1.13037	0.182956	0.458594	0.104565	-0.863299	-8.13513	-0.053573	5.6658	-0.00295009	-0.00217899	-0.0226607	0.82251	0.109375	-0.780029	0.338822	0.892184	0.295705	0.0420334	-1.13522	5.93235	-6.79089	0.0263503	-0.00835327	0.00177682	0.46167	-0.473145	0.924072	-0.425564	0.482118	0.632571	-0.431637	0.983192	-9.40133	-2.6577	0.00467998	0.0246567	-0.00749573	-0.192383	1.15527	-0.200684	-0.0869765	0.980596	0.170835	-0.0410147	-0.480735	-1.73079	-9.60319	0.00622706	0.0167436	0.0052588	0.463135	0.667969	1.271	0.305996	0.944013	-0.122982	-0.00901418	0.728098	5.07678	-4.88508	0.00171721	0.0106741	-0.00276475	0.218506	-0.943115	0.611816	0.0707038	0.0575345	0.0285746	-0.995427	-1.05061	-0.162107	10.4846	0.00341932	0.0183349	-0.0169886	-0.231934	0.0925293	-1.05005	0.0136414	-0.108893	-0.00145287	-0.993959	2.6545	0.483962	10.8337	0.015038	0.0123723	-0.00843693	-0.700928	0.0200195	-0.908447	0.0543749	-0.72206	-0.689616	0.0100822	0.624488	-0.851281	-9.11007	-0.0191111	0.00576851	-0.0244546	0.422119	0.123291	1.21924	-0.143648	-0.112187	-0.0180161	-0.983084	2.16987	0.812901	10.2548	0.0151657	0.0129148	0.0121214	-0.633057	-0.19458	-0.909912	0.119587	-0.975646	-0.183874	-0.00185	0.5958	-2.32551	-9.39222	-0.0612758	-0.0122133	-0.00777303	0.368408	0.118164	1.02197	
76	0.295989	0.105116	0.00684219	-0.949365	-1.78803	0.512521	10.862	-0.0106292	0.0537644	-0.0593314	-0.111572	0.186523	-1.13013	0.182804	0.458389	0.104262	-0.863476	-8.13214	-0.0363576	5.64891	-0.00303269	-0.00195036	-0.0211066	0.829346	0.10498	-0.791504	0.338418	0.892268	0.295949	0.0417656	-1.17742	5.85777	-6.74698	0.0327812	-0.00189338	-0.00346952	0.463623	-0.470947	0.92627	-0.426481	0.481908	0.632083	-0.431682	0.962652	-9.40519	-2.65746	0.0217771	0.0284152	-0.00887223	-0.196777	1.15503	-0.196289	-0.0884976	0.980524	0.170653	-0.0402177	-0.326848	-1.75756	-9.50361	0.0383369	0.00989716	-0.0116495	0.458496	0.672363	1.26855	0.306844	0.943756	-0.122832	-0.00919168	0.738813	5.06052	-4.89127	0.0225305	-0.0054568	-0.0267013	0.218506	-0.943115	0.611816	0.0710096	0.0569286	0.0291194	-0.995424	-1.07031	-0.285358	10.5101	-0.00717896	-0.0263302	-0.0107564	-0.229736	0.0947266	-1.0481	0.0140674	-0.108729	-0.00138951	-0.993971	2.62124	0.549896	10.8032	-0.0025422	0.0233768	-0.00604039	-0.700928	0.0244141	-0.915527	0.0540811	-0.72202	-0.689689	0.00959452	0.622061	-0.8135	-9.13489	-0.0316368	0.0130259	-0.0275144	0.421875	0.127686	1.21704	-0.1432	-0.112247	-0.0179724	-0.983144	2.25387	0.823833	10.2056	0.00503457	0.0101179	0.0198596	-0.639648	-0.196777	-0.907715	0.116983	-0.975901	-0.184199	-0.0017025	0.573928	-2.26136	-9.44057	-0.100488	-0.0227402	-0.0117176	0.364014	0.115967	1.02661	
77	0.295144	0.105842	0.00765317	-0.949542	-2.09808	0.500686	10.8417	-0.0198084	0.0224858	-0.0374288	-0.114014	0.190918	-1.13672	0.182934	0.458461	0.104416	-0.863392	-8.08873	-0.159119	5.57945	-0.0137031	0.0308738	-0.0193224	0.82251	0.109375	-0.789307	0.3383	0.892321	0.295949	0.0416082	-1.15397	5.80506	-6.79336	0.0247749	-0.00848132	0.00324121	0.463623	-0.470947	0.933105	-0.427056	0.48119	0.631717	-0.432449	0.984979	-9.39575	-2.52039	0.0513486	0.0138099	-0.00498965	-0.192627	1.15747	-0.205078	-0.0890285	0.980512	0.170413	-0.0403601	-0.428243	-1.75405	-9.48858	0.0460709	0.00572067	0.00229294	0.456055	0.676758	1.26416	0.307701	0.943517	-0.12248	-0.00966976	0.72331	5.0688	-4.86595	0.00762797	-0.0135697	-0.0317318	0.220703	-0.945312	0.614014	0.0712996	0.0563911	0.0291441	-0.995433	-1.08732	-0.338469	10.5823	0.0249151	-0.022169	-0.0148987	-0.231934	0.0925293	-1.0459	0.0143005	-0.108649	-0.00131183	-0.993976	2.58181	0.467698	10.7748	-0.000183998	0.0189255	-0.0076126	-0.703369	0.0263672	-0.91333	0.0539494	-0.721829	-0.689909	0.00889449	0.642694	-0.799278	-9.10818	0.0018532	0.00832703	-0.0198708	0.422119	0.12085	1.21484	-0.143045	-0.112264	-0.0179845	-0.983164	2.28614	0.920759	10.2376	0.00475087	0.0116961	0.015454	-0.63501	-0.196777	-0.912109	0.115905	-0.976047	-0.184108	-0.00173138	0.579025	-2.21923	-9.48714	-0.0828723	-0.00950148	-0.010191	0.362061	0.104736	1.02661	
78	0.294721	0.105725	0.00818673	-0.949681	-2.03374	0.385233	10.8257	-0.0156251	-0.00432988	-0.0171268	-0.114258	0.192871	-1.13037	0.183072	0.458688	0.104624	-0.863217	-8.15674	-0.181936	5.62771	-0.0145938	0.0315319	-0.0150634	0.827148	0.103027	-0.781982	0.337394	0.892581	0.296221	0.0414421	-1.21994	5.85072	-6.84423	0.00688444	0.000912709	-0.00531578	0.463623	-0.466797	0.928467	-0.427298	0.480792	0.63172	-0.432649	0.975244	-9.40631	-2.63372	0.00901241	0.00833596	-0.015116	-0.192627	1.15747	-0.200684	-0.0909611	0.98032	0.170527	-0.0402309	-0.413979	-1.84326	-9.55886	0.0507998	0.0143834	-0.0113257	0.453613	0.685547	1.25488	0.307713	0.943576	-0.121978	-0.00997016	0.70405	5.06554	-4.89833	0.0244297	-0.00471958	-0.0331617	0.222656	-0.940918	0.611572	0.0715933	0.0560225	0.0289279	-0.995439	-1.09767	-0.392452	10.4462	0.0197402	0.0106624	-0.00960294	-0.229736	0.0947266	-1.0459	0.0141737	-0.108454	-0.00125397	-0.994	2.56874	0.55241	10.8176	-0.00199137	0.0160172	-0.014532	-0.70752	0.0244141	-0.917969	0.054062	-0.721833	-0.689893	0.00900665	0.642442	-0.794111	-9.1365	0.023645	-0.000597164	-0.0164451	0.421875	0.125488	1.21484	-0.143156	-0.111959	-0.0176437	-0.983189	2.21072	0.85845	10.2341	-0.00927523	0.0153991	-0.00833813	-0.637451	-0.192383	-0.90332	0.117004	-0.975921	-0.18408	-0.00170961	0.560674	-2.21502	-9.50594	0.0300283	0.00715403	-0.00121548	0.368408	0.11377	1.02441	
79	0.294669	0.104895	0.00809457	-0.94979	-1.98298	0.451976	10.8448	-0.00410585	-0.041897	-0.00482631	-0.109619	0.190918	-1.13232	0.183026	0.458995	0.104532	-0.863075	-8.10552	-0.215415	5.59086	0.00697999	0.0246908	-0.0193207	0.827148	0.102783	-0.789062	0.337505	0.892492	0.296352	0.0415306	-1.12704	5.73767	-6.87585	-0.00118691	0.00736618	-0.00331973	0.46582	-0.468994	0.92627	-0.427477	0.480093	0.63168	-0.433306	1.06672	-9.45437	-2.52344	0.0459906	0.00316443	-0.0053662	-0.198975	1.15527	-0.207275	-0.0909571	0.980298	0.170665	-0.0402141	-0.473296	-1.84377	-9.56458	-0.00770644	0.0163322	-0.0231196	0.458008	0.68335	1.26416	0.308756	0.943261	-0.121752	-0.0101899	0.675531	5.07051	-4.91193	0.000879681	0.00111595	-0.0229507	0.220703	-0.943115	0.618164	0.0717306	0.0552645	0.0284428	-0.995486	-1.04506	-0.36588	10.5095	0.0402319	-0.0329079	-0.0221686	-0.236328	0.0947266	-1.0459	0.01402	-0.108614	-0.000965843	-0.993985	2.56923	0.44247	10.8008	-0.00550056	0.00625928	-0.0256753	-0.701172	0.0285645	-0.911133	0.0543429	-0.721861	-0.689837	0.00940636	0.651698	-0.801099	-9.13632	0.0499484	-0.00551083	-0.0110933	0.424316	0.123291	1.21704	-0.143315	-0.111947	-0.0174829	-0.98317	2.2267	0.759376	10.1929	-0.0117793	0.0112155	-0.00851728	-0.633057	-0.192383	-0.914551	0.118769	-0.975749	-0.183863	-0.00169096	0.561331	-2.2763	-9.42348	0.0635847	0.0213164	0.00322079	0.370605	0.115967	1.02661	
80	0.295085	0.104806	0.00828795	-0.949669	-1.89077	0.450494	10.8543	-0.00889322	0.0208127	0.0138549	-0.118408	0.188477	-1.13232	0.182879	0.458892	0.104293	-0.863189	-8.21709	-0.0471876	5.61431	-0.00831691	-0.004236	-0.0223274	0.827148	0.107178	-0.786865	0.337815	0.892231	0.296786	0.041517	-1.24185	5.77686	-6.85268	-0.0259102	0.00970519	-0.000181175	0.463623	-0.468994	0.930908	-0.427477	0.480093	0.63168	-0.433306	1.06672	-9.45437	-2.52344	0.0459906	0.00316443	-0.0053662	-0.198975	1.15527	-0.207275	-0.0902707	0.980317	0.170938	-0.0401296	-0.283824	-1.87999	-9.58863	-0.0294967	-0.0108994	-0.024853	0.453613	0.68335	1.26172	0.308756	0.943261	-0.121752	-0.0101899	0.675531	5.07051	-4.91193	0.000879681	0.00111595	-0.0229507	0.220703	-0.943115	0.618164	0.0717028	0.0556565	0.0284913	-0.995464	-1.1435	-0.316993	10.4362	0.0146676	0.0484551	-0.0253834	-0.234375	0.0969238	-1.05029	0.0137231	-0.108549	-0.00080336	-0.993996	2.6262	0.412593	10.8068	-0.00677973	0.0107264	-0.020826	-0.70752	0.0263672	-0.91333	0.0548357	-0.721949	-0.689694	0.0102492	0.634752	-0.856342	-9.09525	0.042458	-0.00777901	-0.0119489	0.421631	0.130127	1.21484	-0.143508	-0.111935	-0.0173767	-0.983145	2.19963	0.81592	10.2662	-0.00605481	0.0123502	-0.00320318	-0.633057	-0.190186	-0.910156	0.120095	-0.975618	-0.183696	-0.0016183	0.589292	-2.28082	-9.45516	0.0541572	0.0113611	0.00436265	0.370605	0.118164	1.02197	
81	0.295441	0.104866	0.00842939	-0.949551	-1.97514	0.459017	10.8475	-0.00487529	-0.00242737	0.00441592	-0.107666	0.195312	-1.13037	0.183089	0.45881	0.104222	-0.863197	-8.10432	-0.0695548	5.7338	-0.0116969	0.0178702	-0.0204441	0.827148	0.105225	-0.779785	0.33837	0.892002	0.296805	0.0417691	-1.24884	5.7499	-6.84756	-0.0407083	0.00602109	0.00365534	0.463623	-0.470947	0.928711	-0.427387	0.479759	0.631459	-0.434086	1.00307	-9.49062	-2.48974	0.0132246	-0.0175064	0.00930559	-0.190186	1.15527	-0.209473	-0.0900772	0.980332	0.170954	-0.0401154	-0.55776	-1.75515	-9.57869	-0.0140495	0.00657821	-0.0155672	0.455811	0.68335	1.25952	0.311022	0.94254	-0.121612	-0.0097256	0.697391	5.09614	-4.87888	-0.0347542	0.0234061	-0.00592047	0.220703	-0.945312	0.607422	0.0720285	0.0561201	0.0288566	-0.995404	-0.913641	-0.217301	10.4498	-0.00651732	0.0948809	-0.00317685	-0.231934	0.0925293	-1.04785	0.0137285	-0.108584	-0.000757016	-0.993992	2.62285	0.375353	10.8071	-0.00174027	0.0137762	-0.0181563	-0.703125	0.0244141	-0.91333	0.0548489	-0.721946	-0.68969	0.0106177	0.612186	-0.871873	-9.09318	0.012213	-0.0080527	-0.0191329	0.424072	0.127686	1.22144	-0.14381	-0.111957	-0.0172972	-0.9831	2.25557	0.757303	10.2244	0.00280376	0.0107345	-0.0103295	-0.639648	-0.192383	-0.910156	0.12103	-0.975524	-0.183582	-0.00161441	0.57381	-2.32057	-9.42598	0.0382502	0.0109892	0.00223604	0.370605	0.120361	1.02197	
82	0.295399	0.10492	0.00854438	-0.949557	-1.87604	0.441111	10.8341	-0.00546171	0.00700993	-0.00895498	-0.112061	0.192871	-1.13232	0.183062	0.458719	0.104103	-0.863266	-8.16899	-0.0707614	5.63024	0.00184346	0.0060494	-0.0197265	0.82959	0.10083	-0.786621	0.338703	0.891855	0.296878	0.0416925	-1.23065	5.94282	-6.77577	0.00175711	-0.00161845	-0.00603896	0.463623	-0.468994	0.928467	-0.427028	0.480081	0.631404	-0.434164	0.952902	-9.29956	-2.54413	-0.0286682	0.0210473	0.0113759	-0.190186	1.15747	-0.207275	-0.0899972	0.980369	0.170918	-0.0395563	-0.627138	-1.79834	-9.559	-0.0126052	0.0513794	-0.0156967	0.458252	0.678955	1.26416	0.311796	0.942271	-0.121767	-0.00904893	0.710949	5.04802	-4.87044	0.0276405	0.0261992	0.00277227	0.220703	-0.945312	0.609619	0.0723948	0.0579307	0.0299352	-0.995242	-1.14122	-0.304061	10.5713	-0.0163021	0.0168175	-0.0111543	-0.229736	0.0925293	-1.05005	0.0139016	-0.108627	-0.000964764	-0.993985	2.70805	0.436514	10.8953	0.0177376	0.0152201	-0.0150948	-0.705566	0.0307617	-0.911133	0.0546234	-0.721945	-0.689712	0.0104579	0.616439	-0.83747	-9.10463	-0.00989581	-0.00183554	-0.0207887	0.419434	0.130127	1.21265	-0.143963	-0.111865	-0.0173043	-0.983088	2.22215	0.714888	10.2766	0.0012055	0.0144032	-0.000523728	-0.63916	-0.203369	-0.907471	0.121073	-0.97552	-0.183574	-0.00166767	0.57652	-2.32283	-9.45332	0.00512208	0.0122948	-0.00314977	0.365967	0.118164	1.02197	
83	0.295368	0.105054	0.00868718	-0.949551	-2.1419	0.452879	10.8022	-0.000915348	0.00212405	-0.0023386	-0.112305	0.197266	-1.13257	0.183275	0.458817	0.10409	-0.86317	-8.10165	-0.0639889	5.59022	-0.0125222	0.0211855	-0.0135541	0.824951	0.102783	-0.784424	0.338854	0.891753	0.296983	0.0418922	-1.13231	5.81862	-6.81009	0.0176656	0.00938202	0.00494491	0.46167	-0.470947	0.92627	-0.426709	0.479718	0.631741	-0.43439	0.995587	-9.51739	-2.56773	0.0209621	-0.0121717	-0.00963047	-0.19458	1.15527	-0.209473	-0.0892958	0.980379	0.171148	-0.0398951	-0.488927	-1.74816	-9.51837	-0.00228383	-0.0121723	-0.0102671	0.458496	0.674561	1.26636	0.312552	0.942016	-0.121801	-0.00899105	0.718328	5.0753	-4.91292	0.00827945	0.00537607	-0.0248683	0.2229	-0.945312	0.607422	0.07263	0.0576497	0.0295286	-0.995253	-1.06292	-0.259664	10.4482	0.0358221	0.0502568	-0.0135556	-0.227783	0.0969238	-1.05029	0.0139288	-0.108555	-0.0012852	-0.993992	2.54844	0.380085	10.7961	0.0156253	0.0174182	-0.0171501	-0.705322	0.0244141	-0.915527	0.0545979	-0.721762	-0.689912	0.00996192	0.622148	-0.836556	-9.11815	-0.00484441	0.0141135	-0.0193964	0.419434	0.130127	1.21704	-0.143803	-0.11178	-0.0173417	-0.98312	2.14148	0.800152	10.2659	0.00333256	0.0140162	0.0135999	-0.633057	-0.19458	-0.905518	0.120759	-0.975541	-0.183669	-0.00178724	0.589254	-2.32276	-9.42283	-0.0238101	0.010942	-0.0119521	0.365723	0.124756	1.02417	
84	0.295588	0.104297	0.00867509	-0.949565	-1.93385	0.445508	10.8459	-0.00900017	-0.0300321	0.00229601	-0.114502	0.197266	-1.13257	0.183273	0.458896	0.104171	-0.863119	-8.18087	-0.0841822	5.60957	-0.011051	0.02518	-0.0223684	0.827393	0.100586	-0.786621	0.338801	0.891666	0.29732	0.0418024	-1.15151	5.84731	-6.82394	0.00789729	-0.00220495	-0.0108953	0.46582	-0.466797	0.930908	-0.427019	0.479494	0.631486	-0.434703	1.00823	-9.40112	-2.50141	0.0225577	0.0120164	-0.00100939	-0.194824	1.16187	-0.209717	-0.0897515	0.980315	0.17139	-0.0394047	-0.418951	-1.8391	-9.60174	0.0151163	0.0254595	-0.0203676	0.45166	0.678955	1.25952	0.313416	0.941762	-0.121541	-0.00910286	0.692702	5.05714	-4.88971	0.00834394	0.00549283	-0.0236124	0.220703	-0.945312	0.611816	0.0728597	0.0580434	0.0294791	-0.995215	-1.17289	-0.263437	10.385	0.00542558	0.0296076	-0.0114982	-0.227783	0.0991211	-1.0481	0.013967	-0.108565	-0.00176267	-0.99399	2.55141	0.452652	10.8289	0.0406418	0.0149059	-0.0196154	-0.705322	0.0222168	-0.91333	0.0545412	-0.721735	-0.689949	0.00975223	0.647061	-0.844779	-9.10376	-0.00312126	0.0105683	-0.0210324	0.426514	0.12793	1.21704	-0.143737	-0.111942	-0.0172283	-0.983113	2.19834	0.871167	10.1763	-0.00533357	0.00512355	0.00174636	-0.633057	-0.19458	-0.909912	0.12031	-0.975552	-0.1839	-0.00192618	0.587578	-2.2914	-9.45864	0.0126423	0.00446472	-0.00230413	0.365967	0.120361	1.02197	
85	0.295526	0.104045	0.00884774	-0.949611	-1.92847	0.457116	10.8448	-0.0075107	0.00174764	-0.00898084	-0.109619	0.188721	-1.13013	0.183419	0.459094	0.104793	-0.862907	-8.10572	-0.118569	5.60481	-0.0336023	0.028554	-0.0173134	0.831299	0.107422	-0.780029	0.338806	0.891614	0.297451	0.0419277	-1.19009	5.7789	-6.8218	0.00949536	0.0112015	0.00702877	0.468018	-0.466797	0.92627	-0.426732	0.479126	0.631685	-0.4351	1.01113	-9.47859	-2.49132	0.00861768	-0.0112592	0.000699968	-0.19458	1.15527	-0.205078	-0.0897465	0.980304	0.171348	-0.0398697	-0.327723	-1.83016	-9.55646	0.0076131	-0.0279811	-0.00893742	0.456055	0.678955	1.26172	0.315163	0.941215	-0.121252	-0.00919189	0.707895	5.0781	-4.86999	-0.0350218	0.00938459	-0.0247359	0.220459	-0.938721	0.61377	0.0732167	0.0581142	0.0290073	-0.995199	-1.08695	-0.294905	10.4751	0.037632	0.0159603	-0.00779349	-0.234131	0.0947266	-1.0481	0.0138543	-0.108528	-0.00227734	-0.993994	2.55186	0.502945	10.7773	0.0212196	0.00932874	-0.0158762	-0.705322	0.0244141	-0.915527	0.0539697	-0.721466	-0.69028	0.0092955	0.635565	-0.811568	-9.1208	-0.00248984	-0.00378185	-0.0222249	0.419678	0.125488	1.22144	-0.143689	-0.112086	-0.01729	-0.983103	2.16356	0.788387	10.2336	0.011013	0.00596758	0.00515604	-0.639648	-0.196777	-0.903076	0.120701	-0.975522	-0.18381	-0.00168935	0.5775	-2.30245	-9.44418	0.0232103	0.000875403	0.00150686	0.370361	0.124756	1.02881	
