40	Head	00b4120a												Throax	00b411e8												LUpArm	00b411d9												LFoArm	00b41148												RUpArm	00b411db												RFoArm	00b41204												Waist	00b411f7												Lthigh	00b411f4												Lshank	00b4111b												Rthigh	00b411c8												Rshank	00b411ee												
PacketCount	q0	q1	q2	q3	accX	accY	accZ	gyrX	gyrY	gyrZ	magX	magY	magZ	q0	q1	q2	q3	accX	accY	accZ	gyrX	gyrY	gyrZ	magX	magY	magZ	q0	q1	q2	q3	accX	accY	accZ	gyrX	gyrY	gyrZ	magX	magY	magZ	q0	q1	q2	q3	accX	accY	accZ	gyrX	gyrY	gyrZ	magX	magY	magZ	q0	q1	q2	q3	accX	accY	accZ	gyrX	gyrY	gyrZ	magX	magY	magZ	q0	q1	q2	q3	accX	accY	accZ	gyrX	gyrY	gyrZ	magX	magY	magZ	q0	q1	q2	q3	accX	accY	accZ	gyrX	gyrY	gyrZ	magX	magY	magZ	q0	q1	q2	q3	accX	accY	accZ	gyrX	gyrY	gyrZ	magX	magY	magZ	q0	q1	q2	q3	accX	accY	accZ	gyrX	gyrY	gyrZ	magX	magY	magZ	q0	q1	q2	q3	accX	accY	accZ	gyrX	gyrY	gyrZ	magX	magY	magZ	q0	q1	q2	q3	accX	accY	accZ	gyrX	gyrY	gyrZ	magX	magY	magZ	
0	0.315135	0.09198	0.0105569	-0.94452	-1.99513	0.380873	10.8411	0.00299187	0.00322643	-0.000348948	-0.105957	0.203857	-1.13257	0.199225	0.447443	0.11837	-0.863767	-8.16394	-0.23552	5.68899	-0.0215847	-0.00273506	-0.0242404	0.828613	0.122559	-0.792236	0.343132	0.885522	0.308629	0.0534722	-0.990573	5.77813	-6.85673	0.00902599	-0.00184564	-0.00889316	0.450684	-0.462158	0.9375	-0.381719	0.497316	0.663965	-0.407575	0.931218	-9.05635	-3.78231	0.0088626	0.00379209	-0.000915698	-0.173828	1.18286	-0.0690918	-0.0802353	0.979695	0.179888	-0.0374186	-0.43147	-1.66794	-9.56161	0.00217886	0.0115245	-0.0128715	0.452148	0.667969	1.28003	0.374093	0.923761	-0.0814531	0.00923058	0.614776	4.89315	-5.01047	-0.0142566	0.0122841	-0.0174014	0.233154	-0.932129	0.63501	0.110861	0.0234962	0.027644	-0.993174	-0.606489	-0.47674	10.6367	0.00516959	-0.0631016	-0.0144637	-0.286865	0.11377	-1.03369	0.0188328	-0.0942184	-0.0155286	-0.995252	2.60943	0.429107	10.8049	0.00011997	0.0176747	-0.0114935	-0.698975	0.0288086	-0.92041	0.0440977	-0.693492	-0.719106	-0.0032662	0.661947	-0.717855	-9.1259	0.00419633	0.00131961	-0.0203394	0.420166	0.109375	1.22632	-0.149615	-0.112521	-0.0144221	-0.982215	2.17671	0.693959	10.2293	-0.00208769	0.0107524	-0.000638316	-0.635498	-0.185791	-0.914795	0.142381	-0.971584	-0.18906	0.0028055	0.554499	-2.74199	-9.29421	0.00963549	0.00324458	-0.00186638	0.36377	0.171143	1.02344	
1	0.315232	0.0920843	0.0105137	-0.944478	-1.99244	0.405108	10.8329	0.00426039	-0.00325929	0.00523463	-0.116699	0.20166	-1.13477	0.199483	0.447299	0.118465	-0.863769	-8.0818	-0.264744	5.73677	-0.0237889	0.0208943	-0.0152686	0.822021	0.122559	-0.794678	0.34349	0.885407	0.308548	0.0535411	-0.971005	5.80477	-6.78672	-0.00292954	-0.0094012	-0.00116608	0.455078	-0.466553	0.935303	-0.381533	0.497148	0.66409	-0.407751	0.998314	-8.99165	-3.62361	0.00811408	-0.00189196	-0.00215802	-0.175537	1.17407	-0.0710449	-0.0805187	0.979645	0.180036	-0.0374233	-0.368665	-1.68753	-9.60042	0.0113357	0.00625216	-0.0146173	0.458496	0.672363	1.27563	0.374341	0.923655	-0.0815276	0.00910033	0.61028	4.89787	-4.95686	0.00346178	0.0107887	-0.0213941	0.235352	-0.936523	0.626465	0.111216	0.0254253	0.0293132	-0.993038	-0.52885	-0.47616	10.5705	-0.0418785	0.113435	0.00299052	-0.280518	0.120361	-1.03369	0.01874	-0.0940863	-0.0157783	-0.995263	2.5785	0.486329	10.8165	0.0126753	0.0130282	-0.0135518	-0.703369	0.0266113	-0.92041	0.0439445	-0.693524	-0.719084	-0.00344455	0.642382	-0.69915	-9.13214	0.00197235	0.00363131	-0.0198932	0.419678	0.12085	1.22388	-0.149628	-0.11253	-0.0143944	-0.982212	2.25882	0.669144	10.2632	0.00551583	0.014841	0.0041683	-0.633301	-0.185791	-0.914795	0.142252	-0.971592	-0.189119	0.00281891	0.550731	-2.74409	-9.3254	-0.0119881	0.00634866	-0.00650332	0.368408	0.171143	1.02344	
2	0.315187	0.0921787	0.0104819	-0.944484	-1.99474	0.377979	10.8341	0.00323522	0.00420007	0.000770119	-0.110352	0.203857	-1.13477	0.199536	0.447232	0.118523	-0.863783	-8.0727	-0.26857	5.66123	-0.00729127	0.0203069	-0.0152943	0.819824	0.124756	-0.787598	0.343438	0.885371	0.308702	0.0535873	-1.07162	5.75733	-6.88129	0.00444871	0.00962742	-0.00559614	0.455078	-0.46875	0.94458	-0.381612	0.497181	0.664042	-0.407716	0.972883	-8.96166	-3.63563	0.00510202	0.014428	-0.000456342	-0.18042	1.17847	-0.0712891	-0.0808115	0.979598	0.180228	-0.0370808	-0.376814	-1.69016	-9.55738	-0.0282927	-0.00639976	-0.0121235	0.451904	0.674561	1.28247	0.374047	0.923762	-0.0816676	0.00908283	0.616614	4.8855	-4.99653	0.022995	0.0133223	-0.016336	0.233154	-0.932129	0.630615	0.111511	0.0255308	0.0308544	-0.992956	-0.678717	-0.559595	10.4329	-0.0313781	-0.0412185	-0.0065089	-0.280762	0.124756	-1.03613	0.0184979	-0.0938372	-0.015588	-0.995294	2.55956	0.425152	10.874	0.00417025	0.0154628	-0.0226709	-0.701416	0.0307617	-0.917969	0.0441664	-0.693542	-0.719053	-0.00334306	0.657885	-0.724468	-9.11124	0.0192398	0.00620519	-0.015136	0.422363	0.116455	1.21729	-0.149602	-0.112602	-0.0143891	-0.982208	2.19108	0.694005	10.2965	0.0064219	0.00631738	0.00270097	-0.637939	-0.183594	-0.910156	0.142094	-0.97161	-0.189142	0.0027787	0.576113	-2.73581	-9.3277	0.00472151	0.00806926	-0.00362564	0.366455	0.164551	1.0166	
3	0.315254	0.0920564	0.0102885	-0.944476	-2.0202	0.391519	10.8508	0.00638794	-0.0206752	0.00261532	-0.112793	0.208252	-1.13037	0.199515	0.447432	0.118509	-0.863686	-8.12088	-0.223605	5.66682	-0.00350052	0.0207989	-0.0173775	0.81958	0.128906	-0.79248	0.343295	0.88543	0.308685	0.053622	-0.99159	5.82489	-6.84798	0.00779519	0.00352793	-0.00103386	0.446533	-0.468506	0.935547	-0.381612	0.497181	0.664042	-0.407716	0.972883	-8.96166	-3.63563	0.00510202	0.014428	-0.000456342	-0.18042	1.17847	-0.0712891	-0.080369	0.979639	0.180175	-0.0372228	-0.410427	-1.68075	-9.59729	-0.00807772	0.00953129	-0.014494	0.456543	0.667969	1.28003	0.374047	0.923762	-0.0816676	0.00908283	0.616614	4.8855	-4.99653	0.022995	0.0133223	-0.016336	0.233154	-0.932129	0.630615	0.111561	0.0251681	0.0310387	-0.992954	-0.563186	-0.528771	10.4134	0.000831528	-0.0128099	-0.0128361	-0.285156	0.124756	-1.03613	0.0184439	-0.0937828	-0.0162018	-0.99529	2.54844	0.438643	10.8187	0.0272732	0.00977396	-0.0134635	-0.698975	0.0266113	-0.92041	0.0441664	-0.693542	-0.719053	-0.00334306	0.657885	-0.724468	-9.11124	0.0192398	0.00620519	-0.015136	0.422363	0.116455	1.21729	-0.14956	-0.112618	-0.014441	-0.982212	2.19692	0.698688	10.2688	0.00881775	0.0117592	0.0057925	-0.633301	-0.187988	-0.914795	0.142196	-0.971595	-0.189143	0.00280584	0.572427	-2.73071	-9.32307	0.0112154	0.00683585	-0.00291449	0.366699	0.155762	1.01904	
4	0.315185	0.0919027	0.0101851	-0.944515	-1.99039	0.44416	10.8584	0.00190596	-0.00611375	-0.00359856	-0.103516	0.201904	-1.13452	0.199574	0.447554	0.118535	-0.863606	-8.07179	-0.188824	5.66261	-0.0119937	0.0226214	-0.0159783	0.822266	0.120361	-0.787354	0.343295	0.88543	0.308685	0.053622	-0.99159	5.82489	-6.84798	0.00779519	0.00352793	-0.00103386	0.446533	-0.468506	0.935547	-0.381739	0.497221	0.663933	-0.407725	0.970734	-9.00428	-3.71474	0.00845638	0.0106954	0.0102045	-0.175781	1.17847	-0.0690918	-0.0803881	0.979635	0.18013	-0.0375012	-0.385583	-1.67714	-9.57883	0.0061855	-0.0109946	-0.0110446	0.454102	0.672363	1.28003	0.374267	0.923711	-0.0812234	0.00922618	0.619296	4.89693	-5.00263	-0.00390573	0.0135151	-0.0163627	0.233154	-0.932129	0.630615	0.111637	0.0249212	0.0312362	-0.992945	-0.629499	-0.519298	10.4874	0.0115056	-0.00755132	-0.0106903	-0.287109	0.120361	-1.03369	0.018508	-0.0938044	-0.0164627	-0.995282	2.5812	0.522582	10.8023	0.0271726	0.0139275	-0.0144906	-0.703613	0.0310059	-0.922852	0.044031	-0.693332	-0.719263	-0.00356974	0.642362	-0.732725	-9.10341	-0.00551499	0.00367491	-0.0218858	0.417725	0.114014	1.21729	-0.149526	-0.112684	-0.0139878	-0.982216	2.19393	0.687009	10.2385	-0.0231428	0.00795612	0.00528001	-0.631104	-0.185791	-0.910156	0.142328	-0.971581	-0.189117	0.00285109	0.54637	-2.72499	-9.33379	0.00501054	0.00587709	0.000125189	0.368652	0.164551	1.02344	
5	0.315092	0.0917151	0.0103169	-0.944563	-1.97196	0.429907	10.8441	-0.00869047	-0.00977156	-0.00577249	-0.10791	0.20166	-1.13892	0.199611	0.447621	0.118568	-0.863558	-8.09296	-0.261312	5.6762	-0.011688	0.0214489	-0.0187542	0.819824	0.124756	-0.790039	0.342819	0.885606	0.308726	0.0535314	-1.01324	5.81946	-6.82943	0.0246224	0.00251162	-0.00134992	0.450684	-0.464355	0.935303	-0.381685	0.49723	0.663857	-0.407887	0.958956	-9.00889	-3.67095	0.00925617	0.00265329	0.00158779	-0.177979	1.17847	-0.0668945	-0.0806144	0.979621	0.180138	-0.0373455	-0.427132	-1.67015	-9.57635	0.00790807	0.0127316	-0.00910893	0.458496	0.674561	1.27783	0.374651	0.923546	-0.0813365	0.00921449	0.60206	4.91969	-4.96205	-0.000553798	0.0129155	-0.0171381	0.22876	-0.932129	0.63501	0.111746	0.0248617	0.0312327	-0.992935	-0.555235	-0.523878	10.446	0.0284334	0.0185635	-0.0139803	-0.285156	0.126953	-1.03174	0.0181216	-0.0938224	-0.0167546	-0.995283	2.54178	0.531939	10.7982	0.013224	0.00691756	-0.0254851	-0.705322	0.0244141	-0.925049	0.0440551	-0.693224	-0.719367	-0.00332337	0.64765	-0.72189	-9.09194	0.0213055	-0.00631121	-0.016381	0.422363	0.116211	1.22827	-0.149551	-0.112594	-0.0139396	-0.982223	2.21882	0.634099	10.2424	-0.000512483	0.00920523	0.000919214	-0.635742	-0.183594	-0.910156	0.142436	-0.971561	-0.189136	0.00283697	0.592982	-2.74699	-9.35883	0.00836174	0.00834863	-0.00352999	0.366211	0.168945	1.02344	
6	0.315055	0.0916408	0.0104337	-0.944581	-1.98437	0.379788	10.8494	-0.00969073	-0.00627705	-0.00440742	-0.110107	0.20166	-1.13477	0.199601	0.447652	0.118467	-0.863558	-8.07827	-0.230176	5.65116	-0.00040585	0.0153512	-0.0151129	0.820068	0.118164	-0.787354	0.34276	0.885626	0.308742	0.0534876	-1.11727	5.8109	-6.86975	0.0101412	0.00174182	-0.00205468	0.452881	-0.46875	0.937744	-0.38177	0.497356	0.663773	-0.407792	0.930806	-9.00428	-3.71754	-0.00362118	0.0132165	0.000277418	-0.182373	1.17407	-0.0710449	-0.0806144	0.979621	0.180138	-0.0373455	-0.427132	-1.67015	-9.57635	0.00790807	0.0127316	-0.00910893	0.458496	0.674561	1.27783	0.374951	0.923408	-0.0815167	0.00916294	0.61454	4.91509	-4.9765	-0.0145005	0.0118907	-0.0155366	0.233154	-0.934326	0.628662	0.111733	0.0243529	0.0308452	-0.992961	-0.54069	-0.540036	10.5476	0.0286	-0.0157275	-0.0151698	-0.280762	0.122559	-1.03589	0.0181353	-0.0939773	-0.0166901	-0.995269	2.65718	0.475625	10.8142	0.00646829	0.0110484	-0.0142787	-0.705566	0.0285645	-0.915771	0.0441132	-0.693044	-0.719537	-0.00313449	0.648069	-0.721337	-9.11782	0.0117647	-0.0023785	-0.0188199	0.417725	0.111816	1.21509	-0.149577	-0.112553	-0.0137435	-0.982227	2.20702	0.745694	10.2647	-0.0126479	0.0118237	0.0024054	-0.633545	-0.183594	-0.912598	0.14277	-0.971513	-0.18913	0.00293283	0.581217	-2.75027	-9.35472	0.0304322	0.00528686	-0.00033968	0.368652	0.162354	1.01904	
7	0.315045	0.0915322	0.0105394	-0.944594	-1.92145	0.343198	10.8434	-0.00297159	-0.005023	0.00109075	-0.108154	0.203857	-1.13477	0.199581	0.447707	0.11835	-0.86355	-8.10466	-0.252858	5.6953	-0.00245396	0.00702608	-0.0180949	0.822021	0.124756	-0.790039	0.342582	0.885686	0.308779	0.0534209	-1.03665	5.78014	-6.85514	0.010275	0.00186181	-0.00154117	0.450684	-0.466553	0.937744	-0.381851	0.497136	0.663787	-0.407962	1.00216	-9.00591	-3.66586	0.0139981	0.00318485	-0.00539362	-0.177979	1.17407	-0.0688477	-0.0808214	0.97957	0.180339	-0.0372724	-0.410974	-1.66709	-9.57234	0.00475041	0.0116478	-0.0162864	0.454346	0.665771	1.28003	0.374983	0.92339	-0.0815999	0.00898247	0.611922	4.90425	-4.98309	0.00243334	0.00728436	-0.0204623	0.230957	-0.932129	0.630615	0.111658	0.0238216	0.030074	-0.993006	-0.532203	-0.527014	10.4346	0.0547009	-0.0150299	-0.0192584	-0.286865	0.11377	-1.03369	0.0182102	-0.0940167	-0.0166841	-0.995264	2.58988	0.531122	10.795	0.00391901	0.0156283	-0.0162334	-0.701172	0.0244141	-0.92041	0.0442051	-0.693137	-0.719442	-0.00305845	0.649474	-0.719142	-9.13008	0.0170179	0.00346759	-0.0158888	0.417725	0.111572	1.22168	-0.149701	-0.112506	-0.0135814	-0.982216	2.182	0.619366	10.2036	0.00295979	0.0116006	-0.00214373	-0.631104	-0.187988	-0.916992	0.143839	-0.971373	-0.18904	0.00295483	0.566319	-2.75841	-9.30189	0.0440948	0.0111037	-0.000360755	0.366211	0.168945	1.02124	
8	0.315022	0.09171	0.0104477	-0.944585	-2.02485	0.389592	10.8511	0.00911773	-0.00146365	-0.00274964	-0.110352	0.206055	-1.13037	0.199591	0.44774	0.118563	-0.863502	-8.08208	-0.263198	5.67666	-0.0216547	0.0224084	-0.0209729	0.822021	0.126953	-0.79248	0.342636	0.885688	0.308722	0.0533637	-1.06312	5.7402	-6.86191	0.00362128	-0.00250038	0.00322784	0.448486	-0.462158	0.9375	-0.381989	0.497159	0.66368	-0.407977	0.966857	-9.02687	-3.68847	0.00631648	0.00859105	0.000616379	-0.173828	1.18286	-0.0690918	-0.0808694	0.979576	0.180274	-0.0373131	-0.445578	-1.67918	-9.58959	0.0026236	0.0123934	-0.013883	0.451904	0.672363	1.28003	0.374983	0.92339	-0.0815999	0.00898247	0.611922	4.90425	-4.98309	0.00243334	0.00728436	-0.0204623	0.230957	-0.932129	0.630615	0.111744	0.0237881	0.0305219	-0.992983	-0.525697	-0.563357	10.5136	0.0106985	-0.0141744	-0.0122555	-0.282471	0.115967	-1.03149	0.0182102	-0.0940167	-0.0166841	-0.995264	2.58988	0.531122	10.795	0.00391901	0.0156283	-0.0162334	-0.701172	0.0244141	-0.92041	0.0442596	-0.69316	-0.719417	-0.00295782	0.645211	-0.751249	-9.09485	0.0108355	0.00139254	-0.0195869	0.422363	0.114014	1.21948	-0.149754	-0.112523	-0.0135792	-0.982206	2.2142	0.721045	10.2739	4.83208e-05	0.0128495	0.000258954	-0.635742	-0.179199	-0.912598	0.144054	-0.971349	-0.188999	0.00297185	0.592605	-2.76622	-9.34049	0.00779157	0.00588702	-0.00385248	0.368652	0.166748	1.0188	
9	0.315055	0.0917717	0.0103065	-0.94457	-1.95537	0.416131	10.859	0.00570893	-0.000123738	0.00207596	-0.10791	0.20166	-1.13452	0.199641	0.447946	0.118704	-0.863364	-8.11222	-0.254526	5.64976	-0.0159012	0.0257374	-0.0162393	0.826416	0.122559	-0.792236	0.342595	0.88572	0.308664	0.0534337	-1.03716	5.81589	-6.84177	4.96621e-05	0.0012677	0.000586644	0.457275	-0.464355	0.94458	-0.381813	0.497245	0.663771	-0.40789	0.967635	-8.97724	-3.68507	-0.0126974	0.00580664	-0.00103267	-0.171387	1.17847	-0.0756836	-0.0809236	0.97958	0.180264	-0.0371401	-0.398855	-1.68964	-9.58101	0.00211575	0.0243835	-0.0162545	0.454102	0.672363	1.28467	0.374912	0.923476	-0.0809177	0.00927627	0.613934	4.91082	-4.97193	0.00370141	0.0139728	-0.0155174	0.230957	-0.934326	0.630615	0.111808	0.023588	0.0303987	-0.992985	-0.541691	-0.539135	10.4911	0.0210893	0.0192894	-0.0105284	-0.29126	0.118164	-1.03589	0.0179866	-0.0937204	-0.0162181	-0.995304	2.60764	0.474863	10.8394	-0.00266697	0.0140609	-0.0127166	-0.705322	0.0244141	-0.927246	0.044218	-0.69315	-0.71943	-0.00286558	0.658576	-0.723776	-9.15137	0.0108633	0.000656286	-0.0181259	0.417725	0.116211	1.22827	-0.149931	-0.112475	-0.0134808	-0.982185	2.23036	0.614263	10.2368	0.00200903	0.0118455	-0.00455142	-0.635742	-0.183594	-0.912598	0.144649	-0.97129	-0.188844	0.00314325	0.578555	-2.7763	-9.31295	0.0291076	0.00777821	0.00106103	0.361572	0.17334	1.0188	
10	0.31509	0.0918746	0.0102879	-0.944548	-2.02564	0.405722	10.8416	0.00201066	-0.00211373	0.00205399	-0.10791	0.199463	-1.13452	0.19962	0.44801	0.118735	-0.863331	-8.10345	-0.223913	5.65995	-0.00190298	0.0166668	-0.0177967	0.822021	0.126709	-0.794678	0.34265	0.885697	0.308669	0.0534274	-1.05701	5.77763	-6.87184	0.00819782	0.00556781	-0.000678074	0.450684	-0.466553	0.937744	-0.381772	0.497302	0.663809	-0.407798	0.960779	-9.04391	-3.74605	-0.00650571	0.00808908	-0.000832587	-0.175781	1.17847	-0.0668945	-0.0806731	0.979574	0.18042	-0.0370939	-0.418781	-1.69114	-9.5654	-0.00751322	0.0159017	-0.0139576	0.450195	0.665771	1.28003	0.374965	0.923438	-0.0810974	0.00931361	0.621966	4.92286	-4.97675	0.000286773	0.011924	-0.0144329	0.230957	-0.929932	0.628418	0.111847	0.0236143	0.0303939	-0.99298	-0.545938	-0.506069	10.5113	0.0180665	0.0234601	-0.0131805	-0.289307	0.122559	-1.03174	0.018013	-0.0937628	-0.0160589	-0.995302	2.55515	0.470551	10.8167	0.00117719	0.0128826	-0.016179	-0.703613	0.0310059	-0.92041	0.044218	-0.69315	-0.71943	-0.00286558	0.658576	-0.723776	-9.15137	0.0108633	0.000656286	-0.0181259	0.417725	0.116211	1.22827	-0.150122	-0.112506	-0.0136065	-0.982151	2.2322	0.660841	10.2787	0.00729295	0.0124873	-0.00551851	-0.637695	-0.185791	-0.907959	0.144649	-0.97129	-0.188844	0.00314325	0.578555	-2.7763	-9.31295	0.0291076	0.00777821	0.00106103	0.361572	0.17334	1.0188	
11	0.315081	0.0918705	0.0102734	-0.944552	-1.95898	0.399656	10.8507	0.00133303	-0.00231212	-0.00192224	-0.110352	0.203857	-1.13892	0.19974	0.448065	0.118688	-0.863281	-8.08852	-0.237762	5.64062	-0.00629085	0.0117205	-0.0118986	0.828613	0.120361	-0.787354	0.342575	0.885731	0.308661	0.0533967	-1.04319	5.79278	-6.82693	0.00401705	0.00561012	-0.00145072	0.455078	-0.46875	0.937744	-0.381797	0.497251	0.663782	-0.407879	0.944679	-9.02619	-3.6961	-0.000652709	0.00423129	-0.00186316	-0.177979	1.17627	-0.0688477	-0.0806804	0.979566	0.180368	-0.037543	-0.396375	-1.68579	-9.5742	0.00917275	-0.0118127	-0.0131795	0.449951	0.667969	1.27563	0.375213	0.923337	-0.0811087	0.00921977	0.629771	4.91099	-4.9804	-0.012629	0.0103123	-0.0219838	0.230713	-0.927979	0.626221	0.111818	0.0235544	0.0298662	-0.993001	-0.573583	-0.544075	10.4936	0.0405648	0.00711348	-0.0161522	-0.284912	0.120361	-1.03809	0.0181298	-0.0937717	-0.0158641	-0.995302	2.60445	0.423924	10.8231	0.00165464	0.0167478	-0.0124997	-0.705566	0.0285645	-0.915771	0.0443175	-0.692833	-0.719729	-0.00275391	0.649953	-0.733156	-9.11693	0.00735785	0.000317319	-0.0181982	0.424805	0.114014	1.21729	-0.150175	-0.112502	-0.0136027	-0.982143	2.20773	0.652003	10.2754	0.00319385	0.0125672	-0.00106108	-0.633545	-0.179199	-0.9104	0.14533	-0.97118	-0.188888	0.00309736	0.57377	-2.79554	-9.29602	0.00266412	0.00446857	-0.00527802	0.361572	0.171143	1.0188	
12	0.315094	0.0919031	0.0102654	-0.944544	-1.98583	0.396698	10.8532	0.00234436	-0.000933121	0.00149879	-0.110107	0.20166	-1.13257	0.199746	0.44811	0.118634	-0.863264	-8.08728	-0.269105	5.6567	-0.00489951	0.0169537	-0.0153037	0.824219	0.122559	-0.789795	0.342591	0.885722	0.308672	0.0533807	-1.07447	5.7775	-6.88954	0.00356011	0.0023076	-0.00239042	0.450684	-0.464355	0.937744	-0.3818	0.497142	0.66383	-0.407932	0.955488	-9.02749	-3.69527	0.00816388	-0.000474933	-0.00635622	-0.175781	1.17847	-0.0712891	-0.080883	0.979558	0.180341	-0.0374328	-0.440798	-1.67931	-9.56109	0.0148719	0.0215179	-0.015616	0.449951	0.670166	1.28467	0.375213	0.923337	-0.0811087	0.00921977	0.629771	4.91099	-4.9804	-0.012629	0.0103123	-0.0219838	0.230713	-0.927979	0.626221	0.111823	0.0233548	0.0295315	-0.993015	-0.557886	-0.504889	10.5158	0.0433269	-0.00453021	-0.0148059	-0.287109	0.120361	-1.03174	0.0181792	-0.0937476	-0.0159341	-0.995302	2.59917	0.465315	10.8353	0.0117723	0.0183972	-0.0147297	-0.703369	0.0288086	-0.922607	0.0442279	-0.692817	-0.71975	-0.00287367	0.655113	-0.734727	-9.12844	0.00527704	0.00321884	-0.0203246	0.422119	0.118652	1.22388	-0.150186	-0.112375	-0.0136275	-0.982156	2.19296	0.634329	10.2474	0.0023218	0.0111917	0.000780225	-0.633057	-0.19458	-0.916748	0.144629	-0.971261	-0.189012	0.0030363	0.581208	-2.79836	-9.29726	-0.0268324	-8.7359e-05	-0.00573231	0.366211	0.171143	1.0188	
13	0.31508	0.092049	0.0102166	-0.944536	-1.98389	0.389252	10.8627	0.00436533	0.0043509	-0.0010892	-0.110107	0.199463	-1.13672	0.199736	0.448045	0.118507	-0.863318	-8.10537	-0.222506	5.66379	-0.00568475	0.0104308	-0.0170111	0.824219	0.124756	-0.790039	0.342554	0.885742	0.308672	0.0532889	-1.05779	5.78047	-6.84597	0.0058938	0.0018923	-0.00127136	0.452881	-0.462158	0.944336	-0.38183	0.497162	0.663848	-0.407849	0.971783	-8.99105	-3.69819	-0.00978704	0.0116718	-0.00163667	-0.177979	1.17847	-0.0712891	-0.0808017	0.979529	0.180549	-0.0373528	-0.407747	-1.68144	-9.56417	-0.00361444	0.00667237	-0.0164087	0.451904	0.676758	1.28003	0.375268	0.923334	-0.0808925	0.00919835	0.609533	4.92378	-4.98713	-0.00683553	0.0156565	-0.0144784	0.233154	-0.932129	0.630615	0.111796	0.0232697	0.0291134	-0.993032	-0.569158	-0.499695	10.5057	0.0311551	0.00575485	-0.0150719	-0.286621	0.111816	-1.03149	0.0183032	-0.093762	-0.0158268	-0.995301	2.56638	0.462947	10.8043	-0.00894604	0.0175871	-0.0102111	-0.705566	0.0310059	-0.925049	0.0440228	-0.692795	-0.719782	-0.00311907	0.631507	-0.725052	-9.10416	-0.00788784	0.00360317	-0.0232451	0.419922	0.116211	1.22168	-0.149977	-0.112367	-0.013879	-0.982185	2.23441	0.742456	10.2842	0.00729779	0.0141032	0.0125089	-0.633301	-0.185791	-0.914795	0.144629	-0.971261	-0.189012	0.0030363	0.581208	-2.79836	-9.29726	-0.0268324	-8.7359e-05	-0.00573231	0.366211	0.171143	1.0188	
14	0.315101	0.0921313	0.0100616	-0.944522	-1.98783	0.405645	10.8364	0.00637459	-0.00479453	0.00126196	-0.110107	0.199463	-1.13892	0.199732	0.448122	0.118518	-0.863277	-8.08773	-0.23804	5.66476	-0.0063031	0.0197644	-0.0185037	0.824219	0.124756	-0.790039	0.342621	0.885757	0.308552	0.0533115	-1.02679	5.8052	-6.80589	0.00663692	0.00271418	0.00335794	0.459473	-0.466553	0.937744	-0.381873	0.497161	0.663819	-0.407859	0.958615	-9.03181	-3.71662	0.0032785	0.00458173	-0.000132802	-0.18042	1.18286	-0.0668945	-0.0808017	0.979529	0.180549	-0.0373528	-0.407747	-1.68144	-9.56417	-0.00361444	0.00667237	-0.0164087	0.451904	0.676758	1.28003	0.375268	0.923334	-0.0808925	0.00919835	0.609533	4.92378	-4.98713	-0.00683553	0.0156565	-0.0144784	0.233154	-0.932129	0.630615	0.111568	0.0233438	0.0282343	-0.993081	-0.525348	-0.500676	10.5209	0.0444952	0.00654062	-0.0156604	-0.289062	0.115967	-1.03369	0.0183032	-0.093762	-0.0158268	-0.995301	2.56638	0.462947	10.8043	-0.00894604	0.0175871	-0.0102111	-0.705566	0.0310059	-0.925049	0.0440064	-0.692609	-0.719962	-0.0032706	0.654815	-0.724478	-9.13427	-3.16108e-05	0.00484382	-0.020652	0.417725	0.116211	1.23047	-0.149904	-0.112131	-0.0136974	-0.982226	2.17969	0.702049	10.2548	-0.00618762	0.0143659	0.00545329	-0.628906	-0.183594	-0.916992	0.144629	-0.971261	-0.189012	0.0030363	0.581208	-2.79836	-9.29726	-0.0268324	-8.7359e-05	-0.00573231	0.366211	0.171143	1.0188	
15	0.315083	0.0922743	0.0100172	-0.944514	-1.97191	0.407045	10.8517	0.00340558	0.00424936	0.00175919	-0.112305	0.197266	-1.13452	0.19973	0.448083	0.118144	-0.863349	-8.0886	-0.304845	5.59027	0.00966572	0.00841949	-0.0103918	0.826416	0.122559	-0.792236	0.342641	0.885741	0.308583	0.0532496	-1.05659	5.77955	-6.90076	-0.000180199	0.000289008	-0.00228461	0.450684	-0.462158	0.9375	-0.381846	0.497211	0.663771	-0.4079	0.966232	-9.05653	-3.73566	0.00677229	0.00464828	0.00329603	-0.175781	1.17847	-0.0690918	-0.0808397	0.979476	0.180866	-0.0371345	-0.424523	-1.69045	-9.56214	-0.00545802	-0.00275786	-0.0155883	0.449951	0.667969	1.27563	0.375383	0.923313	-0.0805692	0.0094457	0.611936	4.92213	-4.99553	-0.00433098	0.0147152	-0.0153125	0.235107	-0.929932	0.630615	0.111297	0.0237993	0.0266877	-0.993144	-0.603009	-0.547957	10.4625	0.123419	0.0305661	-0.0307058	-0.286865	0.115967	-1.03589	0.0180406	-0.0933326	-0.0161148	-0.995341	2.59979	0.462251	10.8393	0.00920414	0.0166605	-0.0138858	-0.703125	0.0244141	-0.915527	0.0438561	-0.692635	-0.719945	-0.00359315	0.650286	-0.724886	-9.10936	-0.0119926	0.00914998	-0.0233934	0.417725	0.116211	1.21729	-0.149903	-0.112149	-0.0139069	-0.982221	2.22691	0.700497	10.2468	0.0143796	0.0113625	0.00713679	-0.633545	-0.183594	-0.912598	0.144383	-0.971242	-0.189297	0.00294814	0.56107	-2.79016	-9.28187	0.0120625	0.00702799	-0.0064935	0.366455	0.164551	1.0144	
16	0.315092	0.0923088	0.00997432	-0.944509	-1.99527	0.406935	10.8252	0.00431361	-0.0064824	0.00236751	-0.107666	0.195312	-1.13892	0.199573	0.448096	0.117252	-0.8635	-8.08616	-0.179527	5.67754	0.026161	0.00964393	-0.00574016	0.824219	0.122559	-0.789795	0.34276	0.885689	0.308609	0.0532124	-1.03169	5.78854	-6.85853	-0.00470237	-0.00181218	-0.00496283	0.452881	-0.464355	0.935303	-0.382005	0.497055	0.663538	-0.40832	0.976	-9.05272	-3.66889	0.0258909	0.00542478	0.00423599	-0.175781	1.17627	-0.0756836	-0.0809395	0.979463	0.180918	-0.0370237	-0.422546	-1.67916	-9.58908	0.00663221	0.0196825	-0.0216469	0.449707	0.672363	1.28003	0.375637	0.923188	-0.0807914	0.00964339	0.604033	4.93705	-4.98888	-0.00622646	0.0251335	-0.00745475	0.229004	-0.934326	0.632812	0.111126	0.0241751	0.0252347	-0.993192	-0.530903	-0.414093	10.595	0.0357499	0.018806	-0.0131532	-0.288818	0.114014	-1.04419	0.0180637	-0.0930835	-0.0160342	-0.995365	2.58611	0.516212	10.8221	-0.000146584	0.0182974	-0.00790027	-0.701416	0.0310059	-0.922852	0.0437547	-0.692658	-0.719928	-0.00376437	0.669317	-0.694626	-9.15779	0.0114505	0.00239415	-0.0180221	0.420166	0.111816	1.22168	-0.149744	-0.112024	-0.0134961	-0.982265	2.2046	0.657489	10.2431	-0.0132883	0.0170989	0.0108169	-0.631104	-0.187988	-0.916992	0.143743	-0.971312	-0.189426	0.0030334	0.577698	-2.78021	-9.31682	-0.022102	-0.00370353	-0.00439445	0.372803	0.171143	1.02563	
17	0.315065	0.0923944	0.00990927	-0.94451	-1.98094	0.431544	10.845	0.00217468	-0.000981913	0.000504204	-0.10791	0.199463	-1.13452	0.199581	0.448266	0.11696	-0.86345	-8.09723	-0.215037	5.66134	-0.00458972	0.0177472	-0.0153298	0.82666	0.115967	-0.787354	0.342778	0.885694	0.308597	0.053074	-1.04027	5.77373	-6.83408	0.00594239	0.00316134	-0.0006857	0.44873	-0.466553	0.942139	-0.381787	0.497257	0.663591	-0.408192	0.950514	-9.00021	-3.72359	-0.0240278	0.00413787	0.00322566	-0.182373	1.17627	-0.0688477	-0.0808892	0.979422	0.181227	-0.0366793	-0.415678	-1.66942	-9.54656	-0.00123084	0.0128222	-0.0185353	0.452148	0.667969	1.28003	0.376026	0.923008	-0.0810041	0.00990269	0.633218	4.91327	-4.94226	-0.0163788	0.0215776	-0.00825841	0.22876	-0.932129	0.628418	0.11115	0.0242067	0.0247133	-0.993201	-0.536325	-0.41789	10.4831	0.0422131	0.0206984	-0.0161944	-0.288818	0.111816	-1.03369	0.017792	-0.0929011	-0.0156715	-0.995393	2.54091	0.406691	10.7681	-0.0118941	0.014485	-0.0227538	-0.703369	0.0307617	-0.915771	0.0441285	-0.692761	-0.719808	-0.00323128	0.639322	-0.727891	-9.11129	0.035819	-0.00166359	-0.0135853	0.420166	0.114014	1.21948	-0.149791	-0.111927	-0.013377	-0.982271	2.2267	0.692759	10.2509	0.000367413	0.0163937	-0.00108549	-0.635742	-0.183594	-0.912598	0.143743	-0.971312	-0.189426	0.0030334	0.577698	-2.78021	-9.31682	-0.022102	-0.00370353	-0.00439445	0.372803	0.171143	1.02563	
18	0.315215	0.0924019	0.0099185	-0.944459	-1.9964	0.401501	10.8476	-0.00119347	-0.00323279	0.00681646	-0.112305	0.199463	-1.13672	0.199559	0.448422	0.116664	-0.863414	-8.10849	-0.213907	5.66435	0.00492976	0.016681	-0.0116447	0.819824	0.122559	-0.789795	0.342757	0.885693	0.308615	0.0531239	-1.05212	5.83426	-6.8355	0.00776936	0.00625631	-0.00369581	0.455078	-0.462158	0.935303	-0.381838	0.497133	0.663571	-0.40833	0.935181	-9.0096	-3.6682	0.00867429	0.000286213	-0.001508	-0.18042	1.17847	-0.0690918	-0.080888	0.979407	0.181296	-0.0367658	-0.411751	-1.6691	-9.56036	0.00011378	0.00622205	-0.0193	0.45874	0.665771	1.28247	0.376159	0.922951	-0.0810486	0.00986918	0.610361	4.92747	-5.00023	0.00470089	0.00877664	-0.0222101	0.230957	-0.932129	0.630615	0.111102	0.0243746	0.0243993	-0.99321	-0.556746	-0.461497	10.4785	0.0453712	0.0255213	-0.0183259	-0.286377	0.107422	-1.03564	0.0178375	-0.092961	-0.0155455	-0.995389	2.60263	0.376891	10.7869	-0.00387765	0.0119184	-0.0135618	-0.705566	0.0285645	-0.91333	0.0441285	-0.692761	-0.719808	-0.00323128	0.639322	-0.727891	-9.11129	0.035819	-0.00166359	-0.0135853	0.420166	0.114014	1.21948	-0.149973	-0.111928	-0.0132634	-0.982245	2.18215	0.664267	10.2892	-0.00374534	0.0104303	-0.00522361	-0.631104	-0.185791	-0.916992	0.145528	-0.971059	-0.189359	0.00303343	0.591545	-2.78996	-9.32577	0.0715387	0.0120691	0.00482046	0.368408	0.168945	1.02344	
19	0.31523	0.09252	0.00990163	-0.944443	-1.98832	0.398804	10.8517	0.00351521	0.00265804	0.000824694	-0.110352	0.203857	-1.13672	0.199602	0.448508	0.116622	-0.863365	-8.08639	-0.177623	5.66517	-0.012261	0.0221946	-0.0177662	0.820068	0.115967	-0.791992	0.342776	0.885665	0.308696	0.053001	-1.06832	5.75812	-6.86248	0.00854926	-0.000395304	-0.00310696	0.457275	-0.466553	0.937744	-0.381868	0.4971	0.663573	-0.408336	0.967158	-9.03999	-3.70618	0.00598807	0.00685436	-0.00255177	-0.173828	1.18066	-0.0734863	-0.0810197	0.979403	0.181257	-0.0367656	-0.434477	-1.69406	-9.5799	0.00900991	0.0153628	-0.01543	0.449707	0.672363	1.27319	0.376518	0.922798	-0.0811378	0.00971918	0.617824	4.93664	-4.95652	-0.0157339	0.00926614	-0.0172932	0.227051	-0.938721	0.630859	0.110934	0.0245487	0.023511	-0.993246	-0.544949	-0.345275	10.5088	0.0274622	0.0208857	-0.0130665	-0.288818	0.109619	-1.03564	0.0177968	-0.0927087	-0.0156904	-0.995411	2.59745	0.490458	10.7808	0.0067906	0.0200426	-0.0152583	-0.696777	0.0266113	-0.92041	0.0442939	-0.69243	-0.720117	-0.00316702	0.650852	-0.727144	-9.12587	0.00772919	0.00261763	-0.0189896	0.419922	0.116211	1.22168	-0.150117	-0.111899	-0.0131615	-0.982227	2.18627	0.618225	10.2258	-0.00555063	0.0124765	-0.00718824	-0.633545	-0.181396	-0.921631	0.145528	-0.971059	-0.189359	0.00303343	0.591545	-2.78996	-9.32577	0.0715387	0.0120691	0.00482046	0.368408	0.168945	1.02344	
20	0.31521	0.0926086	0.00988181	-0.944441	-1.9808	0.382295	10.8418	0.00507263	0.00311583	-0.000719866	-0.110107	0.20166	-1.13672	0.199639	0.448558	0.116697	-0.86332	-8.0828	-0.175868	5.66017	-0.0150828	0.0208066	-0.0171285	0.822266	0.118164	-0.789795	0.342699	0.885708	0.308659	0.0529959	-1.06066	5.77507	-6.82899	0.010926	0.00384351	0.00316619	0.44873	-0.468506	0.935547	-0.381912	0.497069	0.663611	-0.408271	0.953057	-9.0076	-3.66527	0.000651265	0.00446069	-0.00363103	-0.176025	1.18066	-0.0690918	-0.081035	0.979401	0.181251	-0.0368148	-0.405462	-1.69277	-9.54744	0.00204293	0.00650288	-0.0155148	0.447754	0.670166	1.27539	0.376553	0.922779	-0.0811957	0.00966628	0.619091	4.92362	-4.97192	0.00132339	0.0100729	-0.0190397	0.229004	-0.938721	0.624512	0.110986	0.0243632	0.0233439	-0.993249	-0.539752	-0.37932	10.5239	0.0303831	-0.00143807	-0.0113844	-0.28418	0.105225	-1.0376	0.0178233	-0.0926834	-0.0156118	-0.995414	2.56609	0.443774	10.7779	-0.000141166	0.0181401	-0.0149701	-0.701172	0.0288086	-0.922607	0.0443684	-0.692292	-0.720244	-0.0032787	0.653757	-0.733921	-9.10654	0.0035668	0.0064636	-0.0178066	0.417969	0.109375	1.22168	-0.150056	-0.111864	-0.013029	-0.982242	2.18957	0.560431	10.2483	0.00662742	0.0121332	0.0118457	-0.628906	-0.187988	-0.919189	0.145528	-0.971059	-0.189359	0.00303343	0.591545	-2.78996	-9.32577	0.0715387	0.0120691	0.00482046	0.368408	0.168945	1.02344	
21	0.315155	0.0927606	0.00975629	-0.944446	-2.01385	0.422455	10.8457	0.00840954	-0.000229761	-0.00313144	-0.105713	0.201904	-1.13672	0.199719	0.448397	0.116343	-0.863433	-8.12044	-0.273455	5.60995	0.0106689	-0.00135272	-0.00749009	0.824463	0.115967	-0.794434	0.342649	0.88574	0.308624	0.0529965	-0.995404	5.78246	-6.85918	-0.000332927	-0.000132774	0.000526033	0.450684	-0.464355	0.939941	-0.381853	0.497216	0.663618	-0.408137	0.983855	-9.00907	-3.69104	-0.00264069	0.0150662	0.00250866	-0.180176	1.17627	-0.0712891	-0.080877	0.979425	0.181192	-0.0368015	-0.415866	-1.67835	-9.55932	-0.0121928	0.00910433	-0.010798	0.449951	0.667969	1.28003	0.376482	0.922801	-0.0812837	0.00965937	0.616024	4.93731	-4.95607	0.0108966	0.0115937	-0.0149454	0.230957	-0.934326	0.626465	0.11086	0.0248174	0.0223514	-0.993275	-0.543401	-0.419041	10.3385	0.0791271	0.0459	-0.0200008	-0.288574	0.105225	-1.03564	0.0179072	-0.0926836	-0.0155258	-0.995413	2.57356	0.426122	10.8268	-0.00027446	0.0163702	-0.0105253	-0.701172	0.0288086	-0.92041	0.0441548	-0.69229	-0.720258	-0.0037193	0.674801	-0.719108	-9.11158	-0.0109337	0.00747962	-0.0238957	0.426758	0.12085	1.22168	-0.149856	-0.11191	-0.0131305	-0.982266	2.17988	0.735237	10.2591	0.00378617	0.00948066	0.00878172	-0.628906	-0.185791	-0.916992	0.144933	-0.971109	-0.189563	0.00281978	0.571622	-2.80513	-9.27545	-0.0117578	0.0029374	-0.00578963	0.365967	0.17334	1.02563	
22	0.314936	0.0929298	0.00962752	-0.944503	-2.01353	0.472544	10.8417	0.00573537	0.000959956	-0.010962	-0.105469	0.19751	-1.13672	0.199971	0.447862	0.116184	-0.863674	-8.01483	-0.171497	5.66132	-0.0140432	-0.0233361	-0.00726084	0.822021	0.122559	-0.796875	0.342649	0.88574	0.308624	0.0529965	-0.995404	5.78246	-6.85918	-0.000332927	-0.000132774	0.000526033	0.450684	-0.464355	0.939941	-0.381804	0.497484	0.663488	-0.408067	0.953992	-9.04854	-3.74438	-0.0031021	0.00976029	0.00946738	-0.176025	1.18066	-0.0734863	-0.080877	0.979425	0.181192	-0.0368015	-0.415866	-1.67835	-9.55932	-0.0121928	0.00910433	-0.010798	0.449951	0.667969	1.28003	0.376482	0.922801	-0.0812837	0.00965937	0.616024	4.93731	-4.95607	0.0108966	0.0115937	-0.0149454	0.230957	-0.934326	0.626465	0.111086	0.0244866	0.022527	-0.993254	-0.375453	-0.42983	10.3431	-0.00865819	0.0476576	0.000687341	-0.288574	0.107422	-1.03564	0.0179072	-0.0926836	-0.0155258	-0.995413	2.57356	0.426122	10.8268	-0.00027446	0.0163702	-0.0105253	-0.701172	0.0288086	-0.92041	0.0441548	-0.69229	-0.720258	-0.0037193	0.674801	-0.719108	-9.11158	-0.0109337	0.00747962	-0.0238957	0.426758	0.12085	1.22168	-0.149903	-0.111996	-0.0131542	-0.982249	2.21984	0.627781	10.2106	0.0120827	0.00791017	0.00137044	-0.633545	-0.183594	-0.919434	0.144933	-0.971109	-0.189563	0.00281978	0.571622	-2.80513	-9.27545	-0.0117578	0.0029374	-0.00578963	0.365967	0.17334	1.02563	
23	0.314909	0.09295	0.00965582	-0.94451	-2.00357	0.45918	10.8554	-0.000841984	-0.00133263	-0.0024248	-0.109863	0.195312	-1.13672	0.200365	0.447761	0.116265	-0.863624	-8.09069	-0.252356	5.70622	-0.0192687	0.00996092	-0.00792978	0.82251	0.111572	-0.789551	0.343087	0.885639	0.308393	0.0531863	-1.08635	5.86681	-6.75968	0.00028742	0.00425751	0.0058866	0.446533	-0.470703	0.935547	-0.381456	0.49755	0.663456	-0.408365	0.927024	-8.98386	-3.62552	0.00210524	-0.0104535	0.0124446	-0.17749	1.16748	-0.0666504	-0.080877	0.979425	0.181192	-0.0368015	-0.415866	-1.67835	-9.55932	-0.0121928	0.00910433	-0.010798	0.449951	0.667969	1.28003	0.376979	0.92267	-0.0804097	0.0100535	0.628854	4.93344	-4.95989	-0.00654381	0.0146451	-0.0144486	0.224609	-0.936523	0.633057	0.111625	0.0260091	0.0236965	-0.993127	-0.504617	-0.454735	10.5181	-0.0135326	0.0821334	0.00683973	-0.286621	0.111816	-1.03784	0.0179072	-0.0926836	-0.0155258	-0.995413	2.57356	0.426122	10.8268	-0.00027446	0.0163702	-0.0105253	-0.701172	0.0288086	-0.92041	0.0442629	-0.691744	-0.720777	-0.00337571	0.655815	-0.716989	-9.11417	0.00903326	-0.00269706	-0.0188672	0.419922	0.116211	1.21948	-0.149994	-0.111908	-0.0134727	-0.982241	2.26437	0.717847	10.3183	0.0136816	0.0111596	-0.00345345	-0.633301	-0.185791	-0.912354	0.144975	-0.971088	-0.189639	0.00254827	0.575652	-2.77518	-9.34487	0.000407597	0.00562645	-0.0023088	0.366211	0.166748	1.0166	
24	0.314987	0.0926643	0.00973698	-0.944511	-1.99726	0.376195	10.8256	-0.00293982	-0.00897471	0.00692964	-0.10791	0.199707	-1.13672	0.200572	0.447935	0.116154	-0.863501	-8.10121	-0.252337	5.71868	-0.00147854	0.0178928	-0.00989642	0.822266	0.115967	-0.791992	0.343099	0.885528	0.308673	0.053329	-1.06326	5.78288	-6.92229	0.00395315	0.0117628	-0.0118749	0.457275	-0.462402	0.942139	-0.381383	0.497561	0.663699	-0.408023	0.934942	-9.03569	-3.77969	-0.00572667	0.00787131	-0.0148758	-0.176025	1.18066	-0.0668945	-0.0816509	0.979275	0.181792	-0.0361348	-0.410912	-1.70824	-9.57089	-0.0236269	-0.00115803	-0.0143051	0.449951	0.670166	1.27783	0.376507	0.922862	-0.0804268	0.0100124	0.635662	4.94601	-4.9512	0.0448877	0.00733506	-0.0214298	0.226562	-0.929932	0.624268	0.111816	0.0264418	0.0237562	-0.993093	-0.533834	-0.388102	10.3638	0.0272069	0.0317245	-0.0098413	-0.282227	0.109619	-1.03564	0.0168771	-0.091728	-0.0158132	-0.995515	2.57899	0.465846	10.8192	0.00373105	0.01523	-0.017227	-0.707764	0.0285645	-0.917969	0.0446003	-0.691654	-0.720844	-0.0030555	0.658038	-0.72926	-9.11592	0.0232047	0.00223582	-0.0140934	0.41748	0.118652	1.21704	-0.150251	-0.111927	-0.0134476	-0.9822	2.20895	0.67023	10.2497	-0.00390413	0.0121847	-0.00291805	-0.637939	-0.183594	-0.914795	0.146605	-0.970865	-0.18953	0.00244256	0.593833	-2.81158	-9.27213	0.0607453	0.0230459	-0.00385837	0.361328	0.177734	1.021	
25	0.31517	0.0924512	0.00951033	-0.944474	-2.02817	0.395645	10.8225	0.00998339	-0.0181408	0.00608901	-0.103516	0.199707	-1.13232	0.200618	0.447993	0.116	-0.86348	-8.12022	-0.132988	5.62677	-0.00755449	0.0170106	-0.0132704	0.822021	0.124756	-0.790039	0.343347	0.885389	0.308786	0.0533938	-0.970915	5.78115	-6.81104	-0.0067183	0.00684538	-0.0022772	0.452881	-0.46875	0.939941	-0.381264	0.497319	0.6638	-0.408266	0.964834	-9.06387	-3.74439	0.0141387	-0.0116285	0.00543589	-0.178223	1.18066	-0.0712891	-0.0811889	0.9793	0.181822	-0.0363501	-0.405787	-1.69905	-9.59386	-0.00949189	-0.000893329	-0.0125458	0.452148	0.667969	1.28003	0.375956	0.923116	-0.080081	0.010001	0.622992	4.93345	-4.99894	0.0264216	0.00853202	-0.0219784	0.22876	-0.929932	0.630615	0.111961	0.027945	0.0240734	-0.993028	-0.668959	-0.351063	10.4996	0.0231496	0.0523089	-0.00797098	-0.279785	0.105225	-1.03564	0.0166556	-0.0917275	-0.0162469	-0.995512	2.53618	0.437737	10.8299	0.0193285	0.00799265	-0.0195963	-0.701172	0.0288086	-0.92749	0.0445689	-0.691661	-0.72084	-0.00300868	0.661017	-0.729101	-9.11319	0.00979287	-0.00157303	-0.0200843	0.41748	0.118652	1.22168	-0.150274	-0.1121	-0.0133946	-0.982177	2.13962	0.719709	10.2356	-0.00275936	0.00244098	0.00144458	-0.633301	-0.185791	-0.914795	0.147163	-0.970781	-0.189527	0.002439	0.585089	-2.82276	-9.26547	0.0466816	0.0163733	-0.00183479	0.368408	0.171143	1.02344	
26	0.315092	0.0921616	0.00921548	-0.944531	-1.94559	0.463101	10.861	0.00566503	-0.0172517	-0.00286506	-0.10791	0.20166	-1.13672	0.200805	0.447958	0.116084	-0.863444	-8.08763	-0.155667	5.70504	-0.010095	0.0116619	-0.0135245	0.818115	0.11377	-0.794189	0.343335	0.885347	0.308863	0.0537086	-1.06039	5.79938	-6.88333	-0.0023835	0.0159795	0.000317253	0.455078	-0.46875	0.939941	-0.380932	0.497436	0.663807	-0.408422	0.933063	-8.94777	-3.64088	-0.0115542	0.00173384	0.00899409	-0.169189	1.17627	-0.0712891	-0.0813101	0.979289	0.181843	-0.036258	-0.409374	-1.67774	-9.59518	0.0044468	0.00952629	-0.00958631	0.447754	0.670166	1.28247	0.375937	0.923145	-0.0798226	0.0100946	0.627978	4.92805	-4.95848	0.0100993	0.0159578	-0.0155452	0.224365	-0.929932	0.628418	0.112059	0.0291324	0.023899	-0.992987	-0.628198	-0.363374	10.5004	0.0433995	0.0690708	-0.0112384	-0.281982	0.105225	-1.03564	0.0162644	-0.0915761	-0.0169299	-0.995521	2.58869	0.460873	10.7945	0.0192746	0.00894768	-0.0181073	-0.696777	0.0266113	-0.917969	0.0445689	-0.691661	-0.72084	-0.00300868	0.661017	-0.729101	-9.11319	0.00979287	-0.00157303	-0.0200843	0.41748	0.118652	1.22168	-0.150341	-0.112223	-0.0130843	-0.982157	2.16615	0.592482	10.2117	-0.000231422	0.00669633	0.00249623	-0.631104	-0.187988	-0.916992	0.147466	-0.970751	-0.189446	0.00250466	0.595562	-2.83873	-9.27389	-0.00285779	-0.0039105	0.00261439	0.365967	0.177734	1.01636	
27	0.315031	0.09202	0.00920901	-0.944565	-1.97935	0.424249	10.8312	-0.0012856	-0.00758902	-0.00498006	-0.110107	0.199463	-1.13037	0.200841	0.447793	0.116068	-0.863523	-8.06418	-0.149909	5.68924	-0.0117077	0.00579596	-0.0189191	0.820068	0.118164	-0.794434	0.34324	0.885395	0.308824	0.0537552	-1.064	5.82058	-6.85101	0.00553271	0.00382577	0.00246815	0.450684	-0.466553	0.935303	-0.380794	0.49755	0.663884	-0.408287	0.933326	-9.02357	-3.69163	-0.0152974	0.00535071	0.00246533	-0.178223	1.18066	-0.0712891	-0.0813415	0.979309	0.181743	-0.0361625	-0.409765	-1.69155	-9.5294	0.00194824	0.0185603	-0.00874743	0.449951	0.667969	1.28003	0.375792	0.923201	-0.0798523	0.0101802	0.630048	4.93595	-4.96195	0.0171899	0.0156935	-0.0127692	0.230957	-0.929932	0.630615	0.112032	0.0296813	0.0236581	-0.992979	-0.648379	-0.359572	10.4945	0.0425697	0.0567436	-0.0153637	-0.277588	0.103027	-1.04199	0.0163371	-0.0916771	-0.0170167	-0.995509	2.60677	0.47388	10.8217	0.0133345	0.00799976	-0.0126684	-0.707764	0.0307617	-0.92041	0.0442759	-0.691304	-0.7212	-0.00299354	0.631344	-0.724628	-9.1459	-0.00846653	-0.00278762	-0.024348	0.424561	0.116211	1.22827	-0.150285	-0.112279	-0.0131205	-0.982159	2.24384	0.682109	10.2522	0.00802811	0.00777882	0.00784389	-0.633301	-0.185791	-0.914795	0.147123	-0.970795	-0.189487	0.00258151	0.582825	-2.82993	-9.3028	-0.0234082	-0.00391388	-0.00357276	0.370605	0.17334	1.0166	
28	0.314949	0.091951	0.00922361	-0.944599	-1.98877	0.4122	10.8425	-0.00127405	-0.00830677	-0.00678191	-0.107666	0.19751	-1.13232	0.200803	0.447772	0.116049	-0.863545	-8.07248	-0.189739	5.66797	-0.00587831	0.0127546	-0.0206934	0.817871	0.118164	-0.791992	0.343187	0.885425	0.308805	0.0537117	-1.05736	5.78924	-6.84076	0.00995679	0.000695825	0.000480222	0.450684	-0.466553	0.937744	-0.380826	0.497542	0.663896	-0.408247	0.942166	-9.03793	-3.72049	0.00221389	0.00917405	-0.00323197	-0.173584	1.17847	-0.0668945	-0.0810531	0.979364	0.18167	-0.0356654	-0.417894	-1.68363	-9.55615	-0.0146112	0.0227546	-0.00611847	0.449707	0.672363	1.28003	0.375368	0.923358	-0.0800368	0.0101571	0.630279	4.90771	-4.98093	0.0254878	0.00658684	-0.0156266	0.23291	-0.927734	0.630615	0.111895	0.0308578	0.0231421	-0.992971	-0.648517	-0.313129	10.5837	0.0386415	0.0577933	-0.0203287	-0.275635	0.105225	-1.03345	0.0163792	-0.0915911	-0.01731	-0.995512	2.64925	0.477972	10.8404	0.0149121	0.0116259	-0.00872326	-0.703369	0.0288086	-0.92041	0.0439706	-0.691067	-0.721444	-0.00338848	0.653701	-0.705976	-9.12993	-0.0148897	0.00324896	-0.0240609	0.420166	0.109375	1.22168	-0.15021	-0.112269	-0.0129782	-0.982173	2.22411	0.697111	10.2914	-0.00062798	0.0139729	0.0067594	-0.631104	-0.183594	-0.912598	0.147033	-0.970796	-0.189552	0.00262203	0.576891	-2.82788	-9.33554	-0.00116061	0.000642698	-0.00316864	0.361328	0.179932	1.01416	
29	0.314855	0.091847	0.00928329	-0.94464	-1.94325	0.402007	10.8255	-0.00246476	-0.00343018	-0.00280477	-0.112061	0.197266	-1.13672	0.200718	0.44761	0.11589	-0.863671	-8.0727	-0.213197	5.67446	-0.00105302	0.00798298	-0.017173	0.82251	0.11377	-0.794189	0.343094	0.88543	0.30888	0.0537907	-1.06585	5.79302	-6.86167	0.000905912	0.00795683	-0.00292443	0.455078	-0.466553	0.935303	-0.381037	0.497404	0.66391	-0.408196	0.980552	-9.01058	-3.70137	0.00159562	0.00600782	-0.00544878	-0.176025	1.18066	-0.0690918	-0.0811399	0.979389	0.181566	-0.0353045	-0.381922	-1.67343	-9.57973	0.00467327	0.0228116	-0.0150944	0.449707	0.674561	1.27783	0.374534	0.923694	-0.0800825	0.0100447	0.623273	4.92877	-4.99823	0.0421535	0.00726706	-0.0192193	0.233154	-0.929932	0.636963	0.111662	0.0324452	0.0224485	-0.992963	-0.655807	-0.385211	10.4309	0.0445397	0.109428	-0.0180068	-0.262207	0.0966797	-1.04175	0.0163927	-0.0913401	-0.0172099	-0.995536	2.58502	0.532458	10.7885	-0.000765505	0.0183792	-0.00842933	-0.701172	0.0266113	-0.92041	0.043814	-0.691082	-0.721438	-0.00371322	0.652277	-0.699169	-9.13415	0.00790536	0.00746627	-0.0173232	0.417725	0.114014	1.21948	-0.150272	-0.112236	-0.0127545	-0.98217	2.19034	0.614586	10.1942	-0.00250007	0.0115171	0.000558901	-0.637695	-0.185791	-0.916992	0.147246	-0.970761	-0.189565	0.0026784	0.568672	-2.81159	-9.28269	0.020044	0.00690319	-0.000208744	0.36377	0.17334	1.02563	
30	0.314713	0.0918655	0.00915608	-0.944687	-1.98991	0.395363	10.8186	0.00813566	-0.00642757	-0.00471458	-0.116699	0.197266	-1.13257	0.200734	0.447543	0.115733	-0.863723	-8.09885	-0.200943	5.65339	-0.00154225	0.00886987	-0.0153035	0.818115	0.115967	-0.789551	0.343157	0.885452	0.308736	0.0538587	-1.07588	5.80865	-6.84909	0.000926458	0.00590362	0.0069728	0.446533	-0.468506	0.937744	-0.380904	0.497437	0.664074	-0.408013	0.944023	-9.01219	-3.68185	-0.0127864	0.00408934	-0.000941459	-0.171143	1.17188	-0.0710449	-0.0811399	0.979389	0.181566	-0.0353045	-0.381922	-1.67343	-9.57973	0.00467327	0.0228116	-0.0150944	0.449707	0.674561	1.27783	0.373844	0.923954	-0.0802872	0.0101771	0.63386	4.89209	-4.98615	0.0358206	0.0153652	-0.00792723	0.230713	-0.927734	0.634766	0.111565	0.0337853	0.0217528	-0.992944	-0.739958	-0.368111	10.5088	0.0542466	0.0710061	-0.0187428	-0.269287	0.107422	-1.0376	0.0161286	-0.0911676	-0.0167888	-0.995563	2.56732	0.498714	10.796	-0.0147814	0.0148976	-0.0177007	-0.703613	0.0332031	-0.922852	0.0441721	-0.691186	-0.721318	-0.0033152	0.653666	-0.723077	-9.09403	0.0334659	-0.000124628	-0.0136704	0.419922	0.116211	1.21948	-0.150239	-0.112257	-0.0128074	-0.982172	2.21397	0.640622	10.2499	0.00874957	0.0111252	0.00555438	-0.633545	-0.181396	-0.914795	0.147287	-0.970771	-0.189478	0.00270116	0.598657	-2.82636	-9.32196	0.00235993	0.00537165	-0.00158455	0.366211	0.171143	1.0166	
31	0.314686	0.0919253	0.00891836	-0.944692	-1.99554	0.411367	10.8216	0.0106844	-0.00350567	0.00510067	-0.114502	0.197266	-1.13672	0.200655	0.447517	0.115349	-0.863806	-8.09264	-0.205126	5.59924	0.015862	0.00469991	-0.0147454	0.824463	0.115967	-0.791992	0.343375	0.885359	0.308735	0.0539977	-1.03665	5.79814	-6.87931	-0.00671674	0.00684779	-0.00228438	0.450928	-0.46875	0.939941	-0.380687	0.497579	0.664252	-0.407754	0.945187	-9.00742	-3.73703	-0.0140737	0.00447555	-0.00251845	-0.175781	1.17847	-0.0668945	-0.0805906	0.979422	0.181763	-0.0346389	-0.364219	-1.67371	-9.56907	-0.0102683	0.013907	-0.0160101	0.447754	0.670166	1.27783	0.373003	0.924276	-0.0804686	0.010417	0.636802	4.8827	-5.03722	0.0338236	0.0184167	-0.00979028	0.230957	-0.929932	0.630615	0.111424	0.0357376	0.0210432	-0.992907	-0.789081	-0.349276	10.525	0.0522182	0.0984158	-0.0189452	-0.262451	0.103271	-1.04395	0.0162116	-0.0912017	-0.0164304	-0.995565	2.56883	0.411852	10.8096	-0.00558695	0.0131938	-0.0107075	-0.705811	0.0351562	-0.925049	0.0442128	-0.691218	-0.721286	-0.00310543	0.659118	-0.743998	-9.11141	0.00450602	-0.00255385	-0.0207339	0.422119	0.12085	1.22388	-0.150334	-0.112141	-0.0127852	-0.982171	2.23558	0.681156	10.2577	-0.00223917	0.0129266	-0.00390957	-0.639893	-0.187988	-0.919189	0.147287	-0.970771	-0.189478	0.00270116	0.598657	-2.82636	-9.32196	0.00235993	0.00537165	-0.00158455	0.366211	0.171143	1.0166	
32	0.314651	0.0918696	0.008508	-0.944713	-1.95636	0.439176	10.8446	0.0170278	-0.0120787	-0.000993633	-0.109863	0.195312	-1.13892	0.200582	0.447396	0.114532	-0.863994	-8.10043	-0.150047	5.69795	0.0158407	-0.00232469	-0.00771104	0.818115	0.11377	-0.796631	0.34361	0.885282	0.308702	0.0539621	-0.995874	5.82447	-6.81178	-0.00159472	-0.00751372	-0.00112196	0.448486	-0.464355	0.937744	-0.380687	0.497579	0.664252	-0.407754	0.945187	-9.00742	-3.73703	-0.0140737	0.00447555	-0.00251845	-0.175781	1.17847	-0.0668945	-0.0802511	0.979464	0.181679	-0.0346933	-0.398476	-1.66785	-9.60133	-0.00777138	0.00768989	-0.0107262	0.452393	0.665771	1.28687	0.37288	0.924314	-0.0805796	0.0105212	0.640742	4.88593	-5.00983	0.0156674	0.018145	-0.00893525	0.23291	-0.927734	0.632568	0.111206	0.0380137	0.019873	-0.992871	-0.817468	-0.301099	10.4896	0.0751129	0.109461	-0.0184763	-0.264404	0.0966797	-1.0459	0.0162744	-0.0912278	-0.0163227	-0.995563	2.61353	0.41717	10.8124	-0.0024379	0.013797	-0.0113333	-0.705566	0.0285645	-0.917969	0.044336	-0.691051	-0.721439	-0.00287084	0.661093	-0.714439	-9.13019	0.0147639	-0.00164924	-0.0178402	0.422119	0.118652	1.22388	-0.150432	-0.112099	-0.0127639	-0.982161	2.18532	0.568189	10.2257	0.000918486	0.0149996	-0.00410738	-0.631104	-0.185791	-0.916992	0.148539	-0.970615	-0.189299	0.00279461	0.579181	-2.84043	-9.30464	0.0259081	0.00510702	0.00161934	0.36792	0.179932	1.0188	
33	0.314621	0.0918637	0.00825185	-0.944726	-2.01384	0.488862	10.8423	0.00677227	-0.00897756	0.00290894	-0.109863	0.193115	-1.13672	0.200375	0.446446	0.112783	-0.864763	-8.03333	-0.151819	5.73398	0.0617174	-0.0616263	-0.0055146	0.820312	0.11377	-0.796631	0.343718	0.885202	0.308802	0.0540095	-1.06191	5.8101	-6.80606	-0.00322652	0.00321173	-0.00424462	0.44873	-0.470703	0.937744	-0.380143	0.497724	0.664992	-0.406875	0.955803	-8.97219	-3.69813	-0.0483924	-0.00502042	-0.00346558	-0.176025	1.18066	-0.0625	-0.0802918	0.979467	0.181665	-0.0345638	-0.371486	-1.6695	-9.64573	0.00213571	0.0212767	-0.0162111	0.445557	0.670166	1.28467	0.372753	0.924398	-0.0801494	0.0109493	0.630315	4.8658	-5.01281	0.00656438	0.0194159	-0.0131392	0.22876	-0.929932	0.632812	0.111052	0.0395881	0.0190092	-0.992844	-0.835311	-0.182144	10.4754	0.0585709	0.0697954	-0.0176343	-0.257812	0.0922852	-1.05005	0.0159912	-0.0910846	-0.0161494	-0.995584	2.56771	0.360797	10.7934	-0.00304601	0.0121085	-0.0159888	-0.705322	0.0222168	-0.917969	0.0444332	-0.691108	-0.721379	-0.00273922	0.634864	-0.751704	-9.09955	0.00374221	0.0049558	-0.0195497	0.420166	0.114014	1.22607	-0.150255	-0.112095	-0.0131869	-0.982183	2.22122	0.689829	10.3234	0.0125934	0.0149248	0.00805941	-0.633301	-0.187988	-0.916992	0.147293	-0.970767	-0.189494	0.00272797	0.592623	-2.83753	-9.30751	-0.0538807	-0.00353465	-0.00801752	0.368408	0.171143	1.0166	
34	0.31462	0.0917462	0.00823159	-0.944737	-1.91944	0.444035	10.8363	-0.00247671	-0.00271341	-0.000998305	-0.112061	0.195068	-1.13452	0.200477	0.446026	0.112164	-0.865037	-8.05666	-0.163344	5.70787	0.00198853	-0.00282442	-0.00329893	0.811768	0.109375	-0.796387	0.344043	0.885166	0.30847	0.0544185	-1.03746	5.76822	-6.84272	-0.0153488	0.00532602	0.0192	0.450928	-0.4729	0.942383	-0.378894	0.498461	0.665545	-0.406234	1.02249	-9.00938	-3.71792	-0.0626668	-0.00770974	0.0264809	-0.173584	1.17847	-0.0603027	-0.0810516	0.979371	0.181854	-0.034537	-0.378311	-1.72928	-9.47831	0.00567361	0.00392017	-0.00697333	0.447754	0.670166	1.27539	0.372794	0.924344	-0.0804664	0.0117695	0.645527	4.86565	-4.99903	-0.000325789	0.0443141	0.0113414	0.226562	-0.929932	0.636963	0.111073	0.0406386	0.0183701	-0.992811	-0.845668	-0.312196	10.5345	0.0496395	0.0575086	-0.00996959	-0.255615	0.0944824	-1.0481	0.0162556	-0.0910126	-0.0161892	-0.995585	2.62662	0.458542	10.8359	0.0104919	0.0217455	-0.00761848	-0.703613	0.0332031	-0.922852	0.0444332	-0.691108	-0.721379	-0.00273922	0.634864	-0.751704	-9.09955	0.00374221	0.0049558	-0.0195497	0.420166	0.114014	1.22607	-0.150188	-0.112065	-0.0131638	-0.982197	2.1934	0.712022	10.2812	0.00241435	0.014049	0.00924564	-0.633301	-0.187988	-0.914795	0.14636	-0.970902	-0.189527	0.00283282	0.569588	-2.80923	-9.31893	-0.034623	-0.007969	-0.00267958	0.366211	0.171143	1.02344	
35	0.314561	0.0917647	0.00830388	-0.944755	-1.99231	0.414808	10.8347	-0.000463259	-0.00446128	-0.00329729	-0.109863	0.19751	-1.13672	0.200434	0.445933	0.111611	-0.865167	-8.04379	-0.136264	5.7161	0.0140117	0.0118688	-0.0138497	0.818115	0.111572	-0.798828	0.344623	0.885111	0.307938	0.0546637	-1.02869	5.89572	-6.79703	-0.0165324	-0.00352611	0.0138622	0.44873	-0.470703	0.937744	-0.378347	0.49902	0.66562	-0.405933	0.927907	-8.99657	-3.7404	-0.053695	0.00496954	0.0348466	-0.175781	1.17627	-0.0622559	-0.0811494	0.979397	0.181688	-0.0344298	-0.376129	-1.66385	-9.51129	0.00329012	0.0106719	-0.0020511	0.443359	0.667969	1.28003	0.372759	0.924322	-0.080805	0.0122611	0.648643	4.85796	-4.98762	0.00956418	0.0407458	0.019264	0.222412	-0.934326	0.637207	0.110979	0.0425119	0.0179521	-0.992751	-0.861379	-0.226587	10.5011	0.0389559	0.103571	-0.0186486	-0.249268	0.0925293	-1.05225	0.0163167	-0.0909577	-0.0162992	-0.995588	2.57299	0.514481	10.7971	0.0150115	0.0199874	-0.01313	-0.701416	0.0310059	-0.92041	0.0441007	-0.690691	-0.721796	-0.00336706	0.650609	-0.718806	-9.12484	-0.0145695	0.00559814	-0.0237375	0.424805	0.114014	1.22388	-0.15005	-0.11193	-0.013387	-0.982231	2.2045	0.637428	10.2192	0.0105455	0.0128281	0.00640144	-0.633545	-0.183594	-0.916992	0.145616	-0.970993	-0.189632	0.00279438	0.572507	-2.80175	-9.30189	-0.0319162	0.00452527	-0.00830958	0.366211	0.168945	1.0188	
36	0.314602	0.0918089	0.008284	-0.944737	-1.95177	0.381566	10.8416	0.0031206	-0.000513187	0.00378655	-0.109863	0.193115	-1.13232	0.200385	0.445984	0.111369	-0.865183	-8.08178	-0.104575	5.71736	0.011225	0.014121	-0.0128138	0.818359	0.109375	-0.80127	0.344631	0.885115	0.30792	0.0546569	-1.03384	5.89103	-6.8162	0.00398359	0.00162139	0.00063486	0.455078	-0.470947	0.937744	-0.378038	0.499508	0.665694	-0.4055	0.836818	-8.95553	-3.84663	-0.016527	0.0147345	-0.000537814	-0.166992	1.18066	-0.0625	-0.0811494	0.979397	0.181688	-0.0344298	-0.376129	-1.66385	-9.51129	0.00329012	0.0106719	-0.0020511	0.443359	0.667969	1.28003	0.372198	0.924521	-0.0810192	0.0128438	0.681177	4.84956	-5.00963	0.0280378	0.024164	0.00532117	0.222168	-0.927734	0.63916	0.110923	0.0434207	0.0179102	-0.992718	-0.941841	-0.230036	10.4996	0.0302438	0.0863668	-0.0179343	-0.251221	0.0925293	-1.0481	0.0162232	-0.0908404	-0.0164558	-0.995597	2.5501	0.483195	10.7835	0.00883119	0.0123722	-0.0129332	-0.697021	0.0332031	-0.92041	0.0439518	-0.690736	-0.721761	-0.00359342	0.659731	-0.730401	-9.10092	-0.00484762	0.00498037	-0.021224	0.419922	0.116211	1.22168	-0.149942	-0.111795	-0.0133591	-0.982263	2.23015	0.708451	10.2901	0.000650855	0.0112688	0.00608264	-0.635742	-0.181396	-0.917236	0.145616	-0.970993	-0.189632	0.00279438	0.572507	-2.80175	-9.30189	-0.0319162	0.00452527	-0.00830958	0.366211	0.168945	1.0188	
37	0.314569	0.0920048	0.00790911	-0.944732	-2.00717	0.458991	10.8542	0.0148396	-0.00299905	-0.00434858	-0.109863	0.193115	-1.13672	0.20024	0.446142	0.111476	-0.865121	-8.04437	-0.117586	5.71559	-0.00812754	0.0158973	-0.0155539	0.820312	0.109375	-0.798828	0.344535	0.88506	0.308189	0.0546247	-1.03844	5.86551	-6.82482	0.00575283	0.00350139	-0.015286	0.44873	-0.46875	0.939941	-0.378267	0.49896	0.665821	-0.405753	0.912724	-9.03644	-3.86252	0.0345483	-0.0080685	-0.0200734	-0.178467	1.18506	-0.0581055	-0.0819259	0.979288	0.181843	-0.0348883	-0.426433	-1.6979	-9.56444	0.0363874	0.000899809	-0.0204581	0.450195	0.665771	1.27783	0.371858	0.924681	-0.0808376	0.0123217	0.668355	4.85356	-5.04731	0.016419	-0.0102389	-0.0420217	0.22876	-0.927734	0.63916	0.110893	0.0453876	0.0178023	-0.992636	-0.940857	-0.27276	10.491	0.0316609	0.0918815	-0.0136177	-0.242432	0.0859375	-1.0542	0.0163212	-0.0907856	-0.0161715	-0.995605	2.59165	0.43688	10.8434	-0.000621976	0.0182078	-0.0162728	-0.701416	0.0332031	-0.922852	0.0439143	-0.69079	-0.721712	-0.00354254	0.658486	-0.690702	-9.12579	0.0191806	-0.00125411	-0.0164316	0.422607	0.107178	1.21948	-0.150058	-0.111807	-0.0133527	-0.982244	2.15738	0.714159	10.224	0.00242807	0.0098314	-0.00635711	-0.635742	-0.183594	-0.914795	0.146634	-0.970875	-0.189451	0.00292741	0.570928	-2.81989	-9.29904	0.0432642	0.0100162	0.00467155	0.366211	0.171143	1.02563	
38	0.314482	0.0919992	0.00778472	-0.944763	-1.9671	0.476978	10.8406	0.01039	-0.00719597	-0.00590725	-0.112061	0.197266	-1.13672	0.2002	0.446223	0.111299	-0.865111	-8.06749	-0.124063	5.72229	0.00660803	0.0179483	-0.0140086	0.816162	0.109375	-0.796387	0.344387	0.885022	0.308495	0.0544548	-1.0653	5.78376	-6.84999	0.0123536	0.00558626	-0.0122053	0.450928	-0.4729	0.940186	-0.378765	0.498184	0.66581	-0.40626	0.994543	-8.91483	-3.65713	0.0276816	0.00127295	-0.0218396	-0.176025	1.18066	-0.0581055	-0.0821384	0.979281	0.181825	-0.0346608	-0.373616	-1.67384	-9.56589	0.0142702	0.0314444	-0.0175005	0.447754	0.670166	1.27539	0.371272	0.924942	-0.0806438	0.0116759	0.65067	4.84152	-5.00074	0.0330986	-0.00418754	-0.0325234	0.230713	-0.925781	0.636963	0.110914	0.0475117	0.0179084	-0.992532	-0.988541	-0.207582	10.4644	0.0227782	0.0937798	-0.0130687	-0.238281	0.090332	-1.0542	0.0162942	-0.0909398	-0.0161082	-0.995593	2.55043	0.456754	10.7759	-0.000235304	0.00876091	-0.0149224	-0.701416	0.0307617	-0.911133	0.0439714	-0.690853	-0.72165	-0.00335583	0.642919	-0.725605	-9.1119	0.0234985	-0.00381592	-0.0159095	0.422607	0.109375	1.22632	-0.150354	-0.111753	-0.0130095	-0.98221	2.24355	0.663433	10.2661	-0.0137459	0.014262	-0.00338451	-0.633545	-0.183594	-0.912598	0.147023	-0.97084	-0.189329	0.002991	0.587665	-2.83405	-9.28982	0.0348316	0.00872103	0.00382835	0.368408	0.17334	1.0188	
39	0.314394	0.0921691	0.00759423	-0.944777	-1.97496	0.447288	10.8473	0.0118091	0.00403407	-0.00142873	-0.116455	0.195068	-1.13037	0.20029	0.446297	0.111084	-0.86508	-8.04435	-0.113114	5.72314	-0.0075428	0.0166414	-0.00958003	0.816162	0.10498	-0.798584	0.344385	0.885044	0.308439	0.0544241	-1.02446	5.78365	-6.83237	0.00148612	0.000271765	0.00712321	0.453125	-0.470947	0.937744	-0.378764	0.498346	0.666069	-0.405638	0.979928	-8.96635	-3.76398	-0.0213871	0.0142689	-0.0104402	-0.182617	1.17847	-0.0581055	-0.0815692	0.979354	0.181649	-0.0348634	-0.381896	-1.68464	-9.58789	-0.0197224	-0.00064773	-0.00430749	0.447754	0.670166	1.27319	0.370699	0.925159	-0.0807867	0.011722	0.64505	4.8278	-5.03831	0.0222142	0.0145412	-0.00888213	0.224121	-0.921387	0.643311	0.110956	0.0490127	0.0178393	-0.992456	-0.988238	-0.251545	10.4962	0.0262448	0.0723251	-0.00949393	-0.240234	0.0859375	-1.04785	0.0163615	-0.090984	-0.0159286	-0.995591	2.61196	0.452279	10.7988	-0.00812802	0.0124367	-0.0103494	-0.701416	0.0307617	-0.915771	0.0437856	-0.690677	-0.72183	-0.00316559	0.649161	-0.706371	-9.10292	0.00667259	-0.00576298	-0.0216974	0.415283	0.116211	1.22607	-0.150629	-0.111662	-0.0127539	-0.982181	2.23621	0.652843	10.2605	-0.00622079	0.012492	-0.00911951	-0.631104	-0.185791	-0.921631	0.147536	-0.970785	-0.189212	0.00306955	0.581163	-2.82879	-9.30081	0.0446365	0.0100663	0.00446688	0.36377	0.17334	1.021	
40	0.314285	0.0920675	0.00740788	-0.944825	-1.96409	0.493589	10.8477	0.00375885	-0.0170678	-0.00150695	-0.112061	0.195068	-1.13452	0.200205	0.44661	0.111041	-0.864944	-8.0832	-0.116356	5.74574	0.00167461	0.0299827	-0.0194674	0.818115	0.111572	-0.796631	0.344255	0.885097	0.308416	0.0545017	-1.04689	5.88877	-6.82068	0.0107509	0.00749008	-0.00146325	0.452881	-0.46875	0.930908	-0.3788	0.498222	0.666025	-0.405827	0.959776	-8.96203	-3.76046	0.0205613	0.00365779	-7.84856e-05	-0.171631	1.18286	-0.0625	-0.0817746	0.979385	0.181509	-0.0342533	-0.340429	-1.71113	-9.55142	0.00557729	0.0305806	-0.0166228	0.439209	0.665771	1.28003	0.369818	0.925493	-0.0809938	0.0117219	0.640761	4.81236	-5.03528	0.0464978	0.00637122	-0.014043	0.226562	-0.925781	0.641113	0.110924	0.0508565	0.0178018	-0.992367	-1.02247	-0.230142	10.547	0.0311746	0.088085	-0.0159928	-0.233643	0.0837402	-1.052	0.016161	-0.0908887	-0.015679	-0.995606	2.60821	0.432033	10.8727	0.0125574	0.0155333	-0.0249681	-0.699219	0.0310059	-0.918213	0.044122	-0.690764	-0.721729	-0.0025825	0.658524	-0.702233	-9.1552	0.0479455	-0.00401301	-0.0114856	0.424561	0.118652	1.21948	-0.150862	-0.111688	-0.0126869	-0.982143	2.19629	0.52842	10.2385	0.00238466	0.00762562	-0.00162718	-0.633545	-0.183594	-0.916992	0.149888	-0.970481	-0.188917	0.00316374	0.583964	-2.85946	-9.28956	0.0636041	0.0127687	0.00472825	0.367676	0.186523	1.01172	
41	0.314314	0.0922166	0.00740216	-0.9448	-2.00185	0.462596	10.8244	0.00300313	0.00917253	0.00186756	-0.109619	0.190918	-1.13452	0.200126	0.446565	0.110777	-0.865019	-8.05679	-0.12709	5.6969	0.000409651	0.00345411	-0.0185593	0.820557	0.107178	-0.798828	0.344356	0.885011	0.308553	0.0544852	-1.02201	5.80312	-6.84244	-0.00458702	0.00408016	-0.0061713	0.450928	-0.46875	0.935547	-0.37908	0.498048	0.666009	-0.405805	0.909064	-9.0204	-3.84482	0.0229436	0.00899342	-0.0145759	-0.18042	1.18066	-0.0625	-0.0812307	0.979428	0.18147	-0.0345258	-0.408807	-1.65949	-9.57734	-0.0166186	-0.00333851	-0.00995279	0.447754	0.670166	1.28247	0.369124	0.925761	-0.0811191	0.0115741	0.645623	4.79275	-5.03949	0.0287096	0.0015804	-0.0188602	0.221924	-0.921387	0.643311	0.110736	0.0526893	0.0171432	-0.992304	-1.04721	-0.235392	10.369	0.0719228	0.085062	-0.0207663	-0.227539	0.090332	-1.0564	0.0160178	-0.0908862	-0.0154813	-0.995612	2.58116	0.391425	10.7903	-0.013057	0.0163184	-0.0189181	-0.701416	0.032959	-0.91333	0.0445056	-0.690884	-0.721591	-0.00208165	0.628645	-0.7579	-9.08221	0.0236666	0.00204027	-0.0141608	0.419678	0.12085	1.21948	-0.150661	-0.111707	-0.0129012	-0.982169	2.20867	0.624569	10.2647	0.0153399	0.012996	0.014774	-0.630859	-0.190186	-0.914551	0.149773	-0.970525	-0.188786	0.00311398	0.578513	-2.88831	-9.2343	-0.00716753	0.00727768	-0.00591046	0.370117	0.182129	1.01855	
42	0.314214	0.0921143	0.00733409	-0.944844	-1.94717	0.445605	10.844	0.00335666	-0.0125184	-0.00752551	-0.107666	0.193115	-1.13452	0.200215	0.446149	0.110683	-0.865225	-8.08261	-0.096899	5.74767	-0.01118	-0.0240678	-0.0134436	0.816406	0.102783	-0.798584	0.34436	0.884991	0.308603	0.0545089	-1.07902	5.85591	-6.7949	-0.000545618	0.00425478	-0.00228482	0.452881	-0.470947	0.935547	-0.379304	0.497663	0.665946	-0.406171	0.971943	-8.93999	-3.67668	-0.00151711	0.00473024	-0.00759841	-0.182617	1.18066	-0.0603027	-0.0811005	0.979455	0.181434	-0.0342415	-0.264931	-1.68031	-9.60657	-0.00608635	0.00331039	-0.0154813	0.445557	0.667969	1.28467	0.368437	0.926029	-0.081205	0.0113718	0.65469	4.79051	-5.05619	0.0273735	0.00518338	-0.0207332	0.224121	-0.919189	0.645264	0.11083	0.0552185	0.0178515	-0.992144	-1.17048	-0.265919	10.3539	-0.00658037	0.104224	-0.0072572	-0.224854	0.0817871	-1.05615	0.0158293	-0.0907017	-0.0155575	-0.995631	2.59156	0.355861	10.8025	0.00533304	0.0150754	-0.0164309	-0.709961	0.0285645	-0.915771	0.0444977	-0.690926	-0.721552	-0.00202681	0.658556	-0.722217	-9.13998	0.0120537	0.000282931	-0.0167632	0.422119	0.123291	1.21704	-0.150519	-0.111802	-0.0129804	-0.982179	2.12783	0.576803	10.2058	0.014245	0.00740292	0.00325538	-0.633301	-0.185791	-0.912354	0.148253	-0.970699	-0.189091	0.00292227	0.592637	-2.86262	-9.28974	-0.0602119	-0.00204155	-0.0130329	0.365723	0.179932	1.0188	
43	0.314069	0.0922027	0.00719471	-0.944885	-2.03637	0.458349	10.8457	0.0100162	0.00188552	-0.00280479	-0.109619	0.188721	-1.14087	0.200579	0.445787	0.110171	-0.865393	-8.02063	-0.17863	5.73597	0.00618254	-0.00699748	0.0011823	0.813965	0.10498	-0.798584	0.344789	0.884851	0.308546	0.0543966	-1.09817	5.73618	-6.84084	-0.0119468	-0.00622835	0.00289052	0.44873	-0.468506	0.933105	-0.379147	0.497779	0.666297	-0.4056	0.916944	-9.04698	-3.80461	-0.0261948	0.00537945	-0.0107862	-0.178223	1.18286	-0.0581055	-0.0815754	0.979454	0.181187	-0.034451	-0.425101	-1.68535	-9.58381	0.0304084	0.033961	-0.00906924	0.447754	0.670166	1.28467	0.368122	0.926139	-0.0813737	0.011444	0.630935	4.78149	-5.05458	0.0189661	0.0142993	-0.00805191	0.226318	-0.923584	0.647705	0.111089	0.0580627	0.0179651	-0.99195	-1.08097	-0.25522	10.4867	0.0121162	0.153257	-0.00245759	-0.216553	0.0883789	-1.06055	0.0155626	-0.0905275	-0.0160243	-0.995643	2.57771	0.477056	10.7964	0.0206327	0.021666	-0.029263	-0.699463	0.0351562	-0.918213	0.0446042	-0.69096	-0.721513	-0.00181037	0.653119	-0.735367	-9.13063	0.0271026	-0.00251632	-0.0141321	0.424316	0.125488	1.22388	-0.150481	-0.112015	-0.0134868	-0.982154	2.32931	0.641469	10.3161	0.0186136	0.00821215	0.0077641	-0.637695	-0.187988	-0.916992	0.14627	-0.970968	-0.189258	0.00283105	0.576921	-2.84732	-9.25599	-0.0942932	-0.00144211	-0.0146707	0.368164	0.177734	1.01636	
44	0.314081	0.091878	0.00677203	-0.944916	-1.91521	0.399565	10.8455	0.0151667	-0.0224807	0.00212646	-0.109863	0.195312	-1.13672	0.20063	0.445765	0.109505	-0.865477	-7.99112	-0.21436	5.724	0.0360621	-0.000932544	0.00749199	0.816162	0.10498	-0.803467	0.344655	0.884925	0.308507	0.0542642	-1.12673	5.78956	-6.91048	0.0189686	-0.00448321	0.000944724	0.455078	-0.46875	0.933105	-0.378981	0.497764	0.666514	-0.405418	0.981344	-9.01769	-3.71593	-0.0192314	-0.00229815	-0.0099836	-0.173584	1.17847	-0.0581055	-0.0818739	0.979442	0.181173	-0.0341484	-0.404317	-1.72581	-9.54498	0.0197942	0.0382729	-0.0180238	0.451904	0.672363	1.27783	0.367674	0.926303	-0.0815244	0.0115463	0.652293	4.78474	-5.05498	0.0432111	0.0149802	-0.00745491	0.219727	-0.921387	0.643311	0.111089	0.0580627	0.0179651	-0.99195	-1.08097	-0.25522	10.4867	0.0121162	0.153257	-0.00245759	-0.216553	0.0883789	-1.06055	0.0156186	-0.090536	-0.0159864	-0.995642	2.57581	0.389085	10.7679	0.00312994	0.0150832	-0.0122698	-0.701172	0.0288086	-0.92041	0.0444524	-0.69097	-0.721513	-0.00203932	0.612374	-0.794764	-9.06226	-0.0227527	0.00962292	-0.0222897	0.417725	0.116211	1.22607	-0.15029	-0.112017	-0.0136369	-0.982181	2.26078	0.744108	10.3606	0.0175072	0.0142822	0.0174308	-0.628906	-0.187988	-0.916992	0.144082	-0.971206	-0.189715	0.00262062	0.590954	-2.75375	-9.41167	-0.0528968	-0.00243391	-0.013531	0.364258	0.164551	1.02124	
45	0.314123	0.0918755	0.00615028	-0.944906	-2.02655	0.471009	10.8533	0.0244936	-0.0137548	0.00551623	-0.114258	0.195312	-1.14111	0.200636	0.445671	0.108432	-0.865659	-8.02049	-0.0420213	5.67714	0.00201738	0.00827317	-0.0136259	0.818604	0.102783	-0.803223	0.344819	0.884839	0.308601	0.0540761	-0.923589	5.87049	-6.74332	-0.0121998	-0.00176663	-0.00530431	0.450928	-0.4729	0.935547	-0.378789	0.498112	0.666741	-0.404796	0.952661	-8.95123	-3.87252	-0.0271819	0.0184473	0.00159603	-0.173828	1.18286	-0.0581055	-0.0815328	0.979472	0.181145	-0.034267	-0.280061	-1.67077	-9.51735	-0.0248922	-0.00340653	-0.0125764	0.447754	0.672363	1.28247	0.366795	0.926618	-0.0818346	0.0119865	0.651544	4.73292	-5.06586	0.0259922	0.0229402	0.000465487	0.223877	-0.914795	0.640869	0.110789	0.0608539	0.016813	-0.991837	-1.26408	-0.155197	10.3716	0.0328458	0.105792	-0.011474	-0.211914	0.0817871	-1.05396	0.0159663	-0.0905219	-0.0164681	-0.99563	2.58149	0.428103	10.8863	0.0414986	0.0163481	-0.00943809	-0.701172	0.0288086	-0.92041	0.0436599	-0.690888	-0.721635	-0.00317727	0.645511	-0.713978	-9.13438	-0.0410025	0.00748825	-0.0287107	0.424805	0.114014	1.22607	-0.150385	-0.111944	-0.0134306	-0.982178	2.16338	0.691374	10.2015	-0.00833543	0.0145147	-0.00814226	-0.635498	-0.185791	-0.912598	0.145138	-0.971074	-0.189585	0.00268008	0.553167	-2.76094	-9.30359	0.0438751	0.00962458	0.00138176	0.370605	0.17334	1.021	
46	0.314122	0.0917309	0.0058257	-0.944923	-1.92616	0.489535	10.8443	0.0219994	-0.0224108	0.00228234	-0.107422	0.190918	-1.13672	0.200662	0.445625	0.108292	-0.865694	-8.05817	-0.0472829	5.72805	-3.11247e-05	0.00761411	-0.0125912	0.814209	0.102783	-0.801025	0.344732	0.884827	0.308677	0.0543976	-1.08339	5.86714	-6.81522	0.0215328	0.0149169	0.00246781	0.44873	-0.46875	0.939941	-0.378493	0.498103	0.6669	-0.404822	0.987721	-8.98778	-3.77355	-0.00249178	-0.0062683	0.00139773	-0.18042	1.18066	-0.0603027	-0.080495	0.979569	0.181128	-0.0340144	-0.306883	-1.66681	-9.59652	0.00127142	0.00760004	-0.0154089	0.454346	0.665771	1.28247	0.366279	0.926803	-0.0820209	0.0122034	0.647859	4.76083	-5.104	0.0293048	0.0170971	-0.0139037	0.224121	-0.923584	0.651855	0.110771	0.0630297	0.0164628	-0.991709	-1.29582	-0.200398	10.3139	0.0592027	0.0839153	-0.0130948	-0.20752	0.0795898	-1.0625	0.0159984	-0.0906317	-0.0171903	-0.995608	2.52021	0.635521	10.7841	0.0233575	0.0092541	-0.0164367	-0.705566	0.0285645	-0.917969	0.0432123	-0.690846	-0.721701	-0.00348655	0.644441	-0.696511	-9.10848	-0.00278769	-0.00343143	-0.0217734	0.424805	0.114014	1.22388	-0.150479	-0.112082	-0.0135841	-0.982145	2.20589	0.718524	10.2468	0.00750742	0.00758987	0.00651231	-0.633301	-0.185791	-0.914795	0.145214	-0.971053	-0.189636	0.00263108	0.583753	-2.79702	-9.27729	0.008015	0.011997	-0.00766879	0.36792	0.179932	1.0188	
47	0.314057	0.0917673	0.00532684	-0.944944	-2.00773	0.519575	10.8243	0.0190237	-0.00603622	-0.00187293	-0.111572	0.186523	-1.13452	0.200823	0.445574	0.10833	-0.865678	-8.04566	-0.0542989	5.74184	-0.0165039	0.0157381	-0.0156098	0.812012	0.100586	-0.800781	0.344962	0.884709	0.308751	0.0544452	-0.984264	5.83652	-6.79894	-0.0135252	0.00306906	-0.00314782	0.455078	-0.466553	0.942139	-0.378169	0.498374	0.667113	-0.404441	0.925967	-9.00569	-3.83676	-0.0135013	0.00681721	0.000527099	-0.173828	1.18066	-0.0559082	-0.0803074	0.979603	0.180883	-0.0347842	-0.382875	-1.66364	-9.58971	-0.00341546	-0.0125456	-0.00195159	0.447998	0.665771	1.27563	0.366279	0.926803	-0.0820209	0.0122034	0.647859	4.76083	-5.104	0.0293048	0.0170971	-0.0139037	0.224121	-0.923584	0.651855	0.110948	0.0645456	0.0165467	-0.99159	-1.33853	-0.0841398	10.3342	-0.00660153	0.0703009	-0.00432246	-0.209961	0.0817871	-1.06055	0.0159386	-0.0907053	-0.0171592	-0.995602	2.61706	0.539305	10.8258	0.00276198	0.00969743	-0.0214222	-0.701416	0.0351562	-0.915771	0.0434812	-0.690943	-0.721595	-0.00282543	0.649075	-0.721363	-9.13926	0.0436285	-0.0101675	-0.0114931	0.424561	0.116211	1.22388	-0.150504	-0.112176	-0.0132143	-0.982136	2.21109	0.622933	10.2481	-0.00330147	0.00660786	-3.32706e-05	-0.631104	-0.187988	-0.916992	0.145196	-0.971054	-0.189642	0.00282564	0.582129	-2.77789	-9.34292	0.0129834	-0.00107765	0.00175437	0.366211	0.166748	1.0188	
48	0.313987	0.0914599	0.00506451	-0.944998	-1.88297	0.555909	10.8392	0.00169968	-0.0187287	-0.000382973	-0.11377	0.184326	-1.13892	0.200756	0.44567	0.108428	-0.865632	-8.07899	-0.0673789	5.72759	-0.00828189	0.0261407	-0.0226157	0.816406	0.100586	-0.800781	0.344507	0.884751	0.309136	0.0544564	-1.04498	5.86467	-6.79676	0.0193799	0.0127168	-0.0120463	0.450928	-0.4729	0.940186	-0.378506	0.498003	0.667088	-0.404623	0.977829	-8.93868	-3.80256	0.027182	0.00711663	-0.0139029	-0.173584	1.17627	-0.0578613	-0.0796016	0.979701	0.180713	-0.0345374	-0.343222	-1.6647	-9.52585	-0.0411991	0.00116707	-0.00683954	0.447998	0.665771	1.28003	0.366309	0.92683	-0.0815824	0.0121934	0.651756	4.74939	-5.05888	0.0122638	0.00399357	-0.0244111	0.228516	-0.921387	0.645264	0.111048	0.0640909	0.0173095	-0.991595	-1.34489	-0.156818	10.3678	-0.0138818	-0.0278377	-0.0160748	-0.208008	0.0905762	-1.06079	0.0156938	-0.090698	-0.0171282	-0.995607	2.63164	0.398952	10.8415	0.00855496	0.00772996	-0.00739322	-0.709961	0.0307617	-0.922607	0.0435216	-0.690734	-0.721793	-0.00265731	0.634324	-0.74093	-9.11171	0.0110521	-0.00222172	-0.0208804	0.417725	0.116211	1.22607	-0.150579	-0.112304	-0.0131373	-0.982111	2.23881	0.780036	10.2329	-0.0117444	0.00392003	0.0010746	-0.633301	-0.187988	-0.914795	0.145944	-0.970974	-0.189476	0.00308612	0.567249	-2.79424	-9.30601	0.0410695	0.00551768	0.00084644	0.365967	0.175537	1.02319	
49	0.314035	0.0913406	0.00514856	-0.944993	-1.90564	0.527342	10.8531	-0.00477883	-0.00518815	0.00209945	-0.114014	0.188721	-1.13672	0.200777	0.44565	0.108837	-0.865586	-7.9697	-0.0614562	5.76868	-0.0316438	0.0261176	-0.0279515	0.816406	0.102783	-0.798584	0.344558	0.884716	0.309186	0.0544291	-1.0716	5.72974	-6.86772	8.44457e-05	-0.000817525	0.00354261	0.450928	-0.46875	0.937744	-0.378642	0.497837	0.667139	-0.404617	0.985048	-9.02237	-3.81512	0.0126893	0.00280661	-0.00602011	-0.18042	1.18286	-0.0581055	-0.0791311	0.979769	0.180481	-0.0348861	-0.424216	-1.64872	-9.653	0.0112061	0.0190153	-0.0101441	0.447754	0.667725	1.28687	0.366743	0.926651	-0.0816961	0.0119856	0.646622	4.74269	-5.0546	-0.0151109	0.00824118	-0.0173923	0.226562	-0.925781	0.647705	0.111208	0.0620373	0.0178763	-0.991698	-1.19999	-0.167636	10.4506	-0.0272923	-0.069353	-0.0085821	-0.209961	0.0861816	-1.06055	0.0158551	-0.090702	-0.0170302	-0.995606	2.59849	0.544973	10.8004	-0.00916621	0.020384	-0.0116072	-0.703369	0.0285645	-0.915771	0.0434491	-0.690726	-0.721805	-0.00278248	0.627299	-0.716279	-9.15864	-0.00166725	0.00518652	-0.0220455	0.41748	0.118408	1.22388	-0.150712	-0.112354	-0.0126842	-0.98209	2.25001	0.556366	10.2376	-0.00929038	0.00837567	9.8911e-05	-0.633301	-0.187988	-0.916992	0.146905	-0.970864	-0.189292	0.00330859	0.5553	-2.83	-9.29339	0.0355986	0.00918472	0.00312	0.368164	0.177734	1.01196	
50	0.314062	0.091287	0.00533422	-0.944989	-1.92289	0.466904	10.8269	-0.00630795	-0.00061348	0.00102124	-0.11377	0.186523	-1.13892	0.200893	0.445986	0.109559	-0.865295	-8.06355	-0.127292	5.71319	-0.0339076	0.0364336	-0.0214915	0.820801	0.102783	-0.803223	0.344523	0.884782	0.309046	0.0543675	-1.07903	5.85278	-6.74179	0.00951604	-0.00466031	0.0094547	0.450928	-0.470947	0.94458	-0.378457	0.497938	0.667142	-0.404659	0.954199	-8.93452	-3.76511	-0.0166427	0.00438122	0.00666567	-0.18042	1.17847	-0.0581055	-0.0793442	0.979761	0.180484	-0.0346122	-0.385743	-1.65407	-9.55148	0.0131768	0.034431	-0.0187385	0.447754	0.667969	1.28467	0.366677	0.92666	-0.0818933	0.0119478	0.643157	4.74566	-5.04529	0.0118134	0.0132636	-0.015699	0.223877	-0.916992	0.643066	0.111458	0.0589891	0.0184708	-0.991845	-1.25786	-0.282357	10.5551	0.00707422	-0.118518	-0.0122738	-0.220947	0.0881348	-1.0564	0.0158837	-0.0906606	-0.0166878	-0.995615	2.58028	0.473965	10.7601	-0.0212709	0.0194898	-0.012267	-0.703613	0.0332031	-0.922852	0.0440294	-0.690429	-0.722055	-0.00257581	0.639993	-0.726785	-9.12948	0.0181379	0.00795763	-0.0166469	0.422119	0.118652	1.22168	-0.150682	-0.112243	-0.0126295	-0.982109	2.23213	0.650771	10.2865	-0.000354134	0.0169082	0.00510384	-0.635498	-0.187988	-0.914795	0.146998	-0.970846	-0.189313	0.00332253	0.575774	-2.83761	-9.31512	-8.33205e-05	0.00838229	-0.0041281	0.365967	0.17334	1.02563	
51	0.314165	0.091353	0.00536074	-0.944948	-1.99914	0.454541	10.8229	0.00173015	-0.00611518	0.00588505	-0.114258	0.192871	-1.13232	0.200901	0.446283	0.109999	-0.865084	-8.0758	-0.0890795	5.70991	-0.0174437	0.0287456	-0.0221452	0.820801	0.102783	-0.798584	0.344478	0.884797	0.309018	0.0545622	-1.02235	5.82758	-6.85735	-0.00513227	0.000905026	0.00137273	0.44873	-0.46875	0.942383	-0.378313	0.498019	0.667261	-0.404499	1.01176	-8.94431	-3.80815	-0.0039434	0.00769937	-0.00432901	-0.18042	1.18066	-0.0581055	-0.0794304	0.979735	0.180651	-0.0342816	-0.378394	-1.6398	-9.56743	0.000989723	0.0180181	-0.0160073	0.449951	0.667969	1.28247	0.366096	0.926879	-0.0820149	0.0119792	0.632954	4.7314	-5.09283	0.0270629	0.0136956	-0.0130966	0.226074	-0.916992	0.645264	0.111613	0.0567332	0.0184945	-0.991959	-1.22366	-0.255794	10.4676	-0.0107676	-0.051733	-0.0124222	-0.220947	0.0861816	-1.0542	0.0156689	-0.090383	-0.0163347	-0.99565	2.54699	0.388947	10.8235	-0.0067305	0.0175593	-0.0124272	-0.701172	0.0288086	-0.917969	0.0441956	-0.690453	-0.722022	-0.00244505	0.648525	-0.746288	-9.10128	0.0260557	0.00557307	-0.0158938	0.424561	0.116455	1.21948	-0.150711	-0.112203	-0.0125407	-0.98211	2.20822	0.650279	10.2742	-0.0037938	0.0140876	0.00217942	-0.635742	-0.183594	-0.912598	0.147072	-0.970843	-0.189269	0.00331868	0.569557	-2.82405	-9.32868	0.0087569	0.00847533	-0.00144823	0.365967	0.17334	1.0188	
52	0.314204	0.0913298	0.00529373	-0.944938	-1.91967	0.47832	10.8575	0.00528077	-0.00668408	0.00381958	-0.111816	0.188721	-1.13672	0.200883	0.446368	0.110044	-0.865039	-8.09199	-0.0608845	5.66692	-0.0103315	0.0228023	-0.01963	0.818359	0.107178	-0.793945	0.344522	0.884795	0.308977	0.0545518	-0.956873	5.82698	-6.8098	0.00108544	-0.000416697	0.00196844	0.457275	-0.475342	0.935547	-0.378319	0.4981	0.667282	-0.404358	0.998402	-8.99346	-3.89062	-0.0070593	0.0141483	-0.00122982	-0.178223	1.18066	-0.0537109	-0.0791713	0.979704	0.180921	-0.0343402	-0.331531	-1.64613	-9.56532	-0.00991116	5.00606e-05	-0.0185959	0.447754	0.667969	1.28247	0.366195	0.926834	-0.0820709	0.0120381	0.65375	4.7373	-5.09081	-0.00389763	0.0167055	-0.0126517	0.230713	-0.921387	0.651855	0.111652	0.0557479	0.0184546	-0.992011	-1.24603	-0.242091	10.4732	0.0126463	-0.0642023	-0.013359	-0.225342	0.0925293	-1.06079	0.0157394	-0.0904128	-0.0163011	-0.995647	2.53994	0.393538	10.791	0.00355055	0.0133974	-0.0110413	-0.697021	0.0310059	-0.925049	0.0441319	-0.690298	-0.722173	-0.00261291	0.636689	-0.754177	-9.10439	-0.00149927	0.00419297	-0.0191156	0.419922	0.118652	1.22388	-0.150974	-0.112193	-0.0125265	-0.982071	2.19659	0.648512	10.2395	0.00197289	0.0114085	-0.0068839	-0.628906	-0.187988	-0.919189	0.147072	-0.970843	-0.189269	0.00331868	0.569557	-2.82405	-9.32868	0.0087569	0.00847533	-0.00144823	0.365967	0.17334	1.0188	
53	0.314163	0.0912193	0.00525378	-0.944962	-1.92997	0.540732	10.8528	-0.00445987	-0.0104856	0.000571946	-0.116211	0.188721	-1.13452	0.200976	0.446392	0.110388	-0.864961	-8.05324	-0.121762	5.73279	-0.018354	0.0197726	-0.0187521	0.820557	0.10498	-0.803467	0.344577	0.884778	0.308961	0.0545611	-1.11102	5.82951	-6.82699	0.0018051	0.00447864	-0.000866604	0.450928	-0.470947	0.937744	-0.378332	0.497951	0.667117	-0.404802	0.940506	-8.97604	-3.78854	0.028093	-0.00983177	0.00440762	-0.177979	1.17627	-0.0578613	-0.0793351	0.979654	0.181062	-0.0346525	-0.369527	-1.6508	-9.61445	0.00872087	-0.00651735	-0.0133941	0.452148	0.670166	1.28247	0.366979	0.92652	-0.0821377	0.011838	0.659386	4.74539	-5.07306	-0.0290693	0.00968039	-0.0238301	0.223877	-0.916992	0.649658	0.111783	0.0540191	0.0185041	-0.992091	-1.14562	-0.260112	10.4121	0.00562531	-0.039911	-0.0104485	-0.229736	0.090332	-1.0564	0.0156179	-0.0903452	-0.0163654	-0.995654	2.57827	0.468656	10.7834	0.00503614	0.0104247	-0.0135901	-0.699219	0.032959	-0.911133	0.0438186	-0.690291	-0.722199	-0.00276244	0.650266	-0.725471	-9.11376	0.00132238	-0.00331446	-0.021321	0.422119	0.118652	1.21948	-0.151156	-0.112274	-0.0125332	-0.982033	2.17866	0.574476	10.2662	0.00405002	0.00835424	-0.00260886	-0.637695	-0.185791	-0.912598	0.147865	-0.970739	-0.189187	0.00329682	0.586319	-2.86372	-9.2772	-0.0278446	-0.00318746	-0.00346692	0.365967	0.17334	1.0188	
54	0.314208	0.091211	0.00551125	-0.944946	-1.93586	0.467311	10.8258	-0.0101778	0.00434348	-0.00025689	-0.114258	0.193115	-1.13892	0.201181	0.446251	0.110743	-0.86494	-8.03602	-0.0970799	5.70324	-0.0232073	0.0135646	-0.0235262	0.818359	0.107178	-0.798828	0.344662	0.884712	0.309063	0.0545188	-1.02241	5.83054	-6.81642	0.000942213	0.000844714	-0.00603949	0.457275	-0.473145	0.935547	-0.378334	0.497977	0.667071	-0.404844	0.992737	-8.93756	-3.74187	0.00322118	0.00344035	0.00201907	-0.175781	1.17847	-0.0559082	-0.0797346	0.979607	0.181095	-0.0348843	-0.357517	-1.65268	-9.56543	0.0349185	-0.00240954	-0.0196968	0.449951	0.670166	1.28003	0.367505	0.926344	-0.0817798	0.0118068	0.63823	4.7465	-5.05684	-0.0200071	0.0122736	-0.0226337	0.228516	-0.921387	0.649658	0.111913	0.0521291	0.0183626	-0.99218	-1.09498	-0.214996	10.491	0.0145214	-0.0657911	-0.0114572	-0.231934	0.0925293	-1.05005	0.0156179	-0.0903452	-0.0163654	-0.995654	2.57827	0.468656	10.7834	0.00503614	0.0104247	-0.0135901	-0.699219	0.032959	-0.911133	0.0438198	-0.690299	-0.722192	-0.00251973	0.633993	-0.744261	-9.12564	0.0170083	-0.00276317	-0.0189701	0.419922	0.116211	1.22388	-0.150989	-0.112383	-0.0129285	-0.982041	2.21129	0.605571	10.2468	0.0294313	0.0119611	0.009912	-0.640137	-0.183594	-0.916992	0.147291	-0.970822	-0.189203	0.00335516	0.574456	-2.83354	-9.31158	-0.0415655	-0.00673512	-0.00451209	0.370361	0.175537	1.021	
55	0.314225	0.0912127	0.00558783	-0.94494	-1.96687	0.439677	10.837	-0.00491526	-0.00127586	0.00101473	-0.114014	0.188721	-1.13672	0.201189	0.446306	0.110872	-0.864894	-8.04102	-0.0715034	5.77868	-0.0171487	0.0220592	-0.0211106	0.822998	0.100586	-0.800781	0.344553	0.884755	0.309066	0.0545022	-1.09477	5.79852	-6.84398	0.0138425	0.0051705	3.18795e-05	0.450928	-0.470947	0.940186	-0.37848	0.497795	0.667108	-0.40487	0.95545	-8.95396	-3.80436	0.0121712	0.00130311	-0.0091803	-0.18042	1.18286	-0.0646973	-0.0794222	0.979587	0.181348	-0.0348502	-0.397398	-1.64938	-9.5658	-0.00849281	0.0022227	-0.0120642	0.447998	0.665771	1.27563	0.367823	0.926234	-0.0816017	0.0117556	0.647765	4.77003	-5.04995	-0.0112341	0.0094614	-0.017666	0.226318	-0.923584	0.641113	0.112029	0.0499994	0.0184097	-0.992276	-1.01636	-0.21832	10.5325	0.0117573	-0.0682916	-0.0145412	-0.231934	0.090332	-1.0542	0.0151352	-0.089744	-0.0166909	-0.99571	2.61445	0.411371	10.8364	0.00721429	0.0157287	-0.0146491	-0.701416	0.032959	-0.915771	0.043655	-0.690088	-0.722402	-0.00285375	0.63407	-0.741721	-9.12982	-0.00894696	0.00550408	-0.0227601	0.417969	0.107178	1.21948	-0.151019	-0.112464	-0.0128867	-0.982028	2.23667	0.76313	10.2479	-0.013598	0.00794152	-0.00214393	-0.633301	-0.185791	-0.914795	0.147043	-0.970851	-0.189249	0.00333245	0.568406	-2.83204	-9.32576	-0.00851394	0.0023514	-0.00371622	0.368408	0.17334	1.01196	
56	0.314123	0.0912893	0.00553174	-0.944967	-1.91494	0.445332	10.8605	0.00834686	0.00263676	-0.00649204	-0.114014	0.190918	-1.13892	0.201277	0.446276	0.111097	-0.86486	-8.04621	-0.139144	5.72198	-0.0194432	0.0156814	-0.0190923	0.820312	0.109375	-0.80127	0.344426	0.884831	0.309015	0.0543638	-1.02387	5.82346	-6.83962	0.0076357	-0.0016014	0.0020423	0.450928	-0.46875	0.937744	-0.37848	0.497795	0.667108	-0.40487	0.95545	-8.95396	-3.80436	0.0121712	0.00130311	-0.0091803	-0.18042	1.18286	-0.0646973	-0.0797624	0.979563	0.181251	-0.0352475	-0.396333	-1.64763	-9.57443	0.0266618	-0.00147304	-0.0118188	0.454102	0.672363	1.28003	0.367996	0.926162	-0.0816351	0.0117258	0.637283	4.76895	-5.07004	-0.0102495	0.0126981	-0.0185689	0.221924	-0.919189	0.645264	0.1122	0.0485459	0.0186932	-0.992323	-1.06161	-0.251075	10.4088	0.00201338	-0.0544948	-0.0101504	-0.236328	0.0925293	-1.05444	0.0154354	-0.0898032	-0.0168661	-0.995697	2.58483	0.584919	10.7609	0.00313571	0.018395	-0.00879906	-0.701172	0.0266113	-0.917969	0.0432909	-0.689905	-0.722596	-0.0034526	0.639714	-0.717804	-9.1235	-0.0217523	0.00699136	-0.0238556	0.422119	0.12085	1.22388	-0.151019	-0.112464	-0.0128867	-0.982028	2.23667	0.76313	10.2479	-0.013598	0.00794152	-0.00214393	-0.633301	-0.185791	-0.914795	0.147474	-0.970788	-0.189238	0.00334026	0.584641	-2.84744	-9.27603	0.0131212	0.0106982	-0.00666868	0.372559	0.177734	1.02563	
57	0.313933	0.091479	0.00531018	-0.945013	-2.00967	0.502467	10.834	0.0114572	-0.00379805	-0.00496375	-0.111816	0.190918	-1.13892	0.201217	0.446325	0.111189	-0.864837	-8.03925	-0.10934	5.72452	-0.00759375	0.0191365	-0.0201081	0.818359	0.10498	-0.805664	0.344377	0.884871	0.308964	0.0543044	-1.1157	5.82753	-6.83965	0.0123457	0.00220695	0.00251153	0.44873	-0.4729	0.937744	-0.378863	0.497792	0.666623	-0.405314	0.976405	-8.99121	-3.79168	0.014407	0.00588094	0.00496972	-0.177979	1.17627	-0.0578613	-0.0797624	0.979563	0.181251	-0.0352475	-0.396333	-1.64763	-9.57443	0.0266618	-0.00147304	-0.0118188	0.454102	0.672363	1.28003	0.368658	0.925936	-0.0812115	0.0117446	0.636345	4.78355	-5.05142	-0.0169966	0.0101994	-0.0160482	0.230469	-0.919189	0.647461	0.112289	0.0456254	0.0188793	-0.992448	-0.950747	-0.289012	10.5357	-0.0040684	-0.0989078	-0.0133625	-0.236328	0.0925293	-1.0437	0.0150476	-0.0895423	-0.016634	-0.99573	2.56462	0.52042	10.8212	-0.00752867	0.0189625	-0.0244223	-0.703369	0.0266113	-0.917969	0.0438906	-0.689789	-0.722673	-0.00278597	0.655707	-0.707384	-9.1326	0.040582	0.000401029	-0.0131191	0.417969	0.107178	1.22168	-0.150918	-0.112093	-0.0130598	-0.982084	2.2208	0.610547	10.2521	0.0174465	0.014314	0.00961808	-0.633545	-0.183594	-0.912598	0.147474	-0.970788	-0.189238	0.00334026	0.584641	-2.84744	-9.27603	0.0131212	0.0106982	-0.00666868	0.372559	0.177734	1.02563	
58	0.313799	0.0914244	0.00511896	-0.945064	-1.9599	0.538436	10.8454	0.0064983	-0.0092289	-0.00693244	-0.114014	0.188721	-1.13892	0.201266	0.44648	0.11117	-0.864748	-8.09085	-0.106288	5.68038	-0.0108725	0.0172921	-0.0162534	0.816162	0.107178	-0.796387	0.344266	0.884957	0.308869	0.0541445	-1.06502	5.84522	-6.86296	0.0182617	-0.00871478	0.00411079	0.450928	-0.470947	0.937744	-0.378753	0.498107	0.666846	-0.404663	0.972993	-9.00301	-3.82967	-0.0290386	0.0246655	-0.00368623	-0.171387	1.17627	-0.0600586	-0.079618	0.97955	0.181417	-0.035073	-0.381789	-1.65973	-9.58266	-0.0123386	-0.0084226	-0.00786668	0.45874	0.667969	1.28467	0.368984	0.925776	-0.0815288	0.0119603	0.644742	4.78013	-5.04903	-0.0135273	0.0197333	-0.0043413	0.224121	-0.923584	0.645508	0.112385	0.0433255	0.0188978	-0.99254	-0.986833	-0.230659	10.5466	0.00526197	-0.0749562	-0.0152167	-0.24707	0.0925293	-1.05225	0.0150625	-0.0896242	-0.0163506	-0.995728	2.62897	0.336711	10.8322	0.00249695	0.0134804	-0.0144901	-0.705566	0.0310059	-0.925049	0.0440806	-0.689868	-0.722587	-0.00249592	0.62797	-0.747073	-9.10576	0.0375659	-0.00217446	-0.0138468	0.419922	0.116211	1.22607	-0.150795	-0.11208	-0.0130309	-0.982104	2.18717	0.728882	10.2455	-0.00643978	0.0102158	0.00489241	-0.631104	-0.187988	-0.926025	0.146406	-0.970894	-0.189524	0.00315737	0.580556	-2.8027	-9.34353	0.00216112	0.00321387	-0.00468366	0.365967	0.17334	1.0188	
59	0.31384	0.0910855	0.00524066	-0.945082	-1.93327	0.603459	10.8493	-0.0152514	-0.0183491	0.00503172	-0.116211	0.190674	-1.13452	0.20117	0.4468	0.111137	-0.864609	-8.01234	-0.123048	5.68352	-0.00481247	0.0374985	-0.0180554	0.820557	0.107178	-0.798828	0.344091	0.885062	0.308798	0.0539477	-1.12401	5.80188	-6.88024	0.0226649	-0.00305982	0.000594315	0.450684	-0.466553	0.935303	-0.378817	0.498142	0.66681	-0.40462	0.940286	-9.05643	-3.89285	0.00372434	0.0131547	-0.00112767	-0.182617	1.18042	-0.0559082	-0.0794576	0.979569	0.181412	-0.0349511	-0.392855	-1.63398	-9.57336	-0.00835994	0.0164649	-0.0181259	0.452148	0.667969	1.28247	0.369547	0.925531	-0.0817428	0.0120367	0.640997	4.80496	-5.05107	-0.0173794	0.0141941	-0.0110084	0.221924	-0.921387	0.638916	0.11253	0.0416543	0.0195397	-0.992583	-0.924174	-0.312369	10.5338	-0.0347191	-0.0261978	-0.00923578	-0.251465	0.0966797	-1.0459	0.0152026	-0.0896449	-0.016349	-0.995724	2.5446	0.491467	10.7961	0.00180756	0.0145707	-0.0105821	-0.698975	0.0266113	-0.917969	0.0441875	-0.689729	-0.722714	-0.00246552	0.648061	-0.73986	-9.12834	0.00900824	0.00342329	-0.017755	0.419922	0.118408	1.22827	-0.150904	-0.112091	-0.0129236	-0.982088	2.22666	0.628736	10.2534	-0.00514342	0.00885651	-0.00406952	-0.631104	-0.187988	-0.916992	0.146939	-0.970831	-0.189433	0.00326514	0.564627	-2.83249	-9.28213	0.0206221	0.00655052	0.000397054	0.368164	0.175537	1.01416	
60	0.313869	0.0907822	0.00582405	-0.945098	-1.89696	0.470382	10.8619	-0.0252944	-0.00553891	-0.00142657	-0.115967	0.186523	-1.13672	0.201378	0.446465	0.111294	-0.864713	-8.04494	-0.0823431	5.7023	-0.0170351	0.00379055	-0.0108036	0.820312	0.11377	-0.799072	0.344091	0.885062	0.308798	0.0539477	-1.12401	5.80188	-6.88024	0.0226649	-0.00305982	0.000594315	0.450684	-0.466553	0.935303	-0.378714	0.498009	0.666864	-0.40479	0.98681	-8.89645	-3.69462	-0.0113706	-0.00199218	0.000110135	-0.18042	1.17847	-0.0603027	-0.0794576	0.979569	0.181412	-0.0349511	-0.392855	-1.63398	-9.57336	-0.00835994	0.0164649	-0.0181259	0.452148	0.667969	1.28247	0.369955	0.925364	-0.0817862	0.0120695	0.653174	4.80459	-5.05432	-0.0306473	0.0161495	-0.0130644	0.219971	-0.923584	0.641113	0.112621	0.040116	0.0196639	-0.992633	-0.913822	-0.338239	10.496	-0.00512944	-0.106718	-0.0111179	-0.262207	0.0966797	-1.0459	0.0152026	-0.0896449	-0.016349	-0.995724	2.5446	0.491467	10.7961	0.00180756	0.0145707	-0.0105821	-0.698975	0.0266113	-0.917969	0.0439016	-0.689728	-0.722731	-0.0027418	0.642293	-0.734144	-9.12316	-0.00547045	0.001343	-0.0198463	0.422119	0.118652	1.22168	-0.150909	-0.112152	-0.0131067	-0.982078	2.14606	0.661692	10.2672	0.00908165	0.00970351	0.00406925	-0.635742	-0.181396	-0.912598	0.147089	-0.970815	-0.189399	0.00336157	0.577105	-2.82804	-9.30939	0.00851487	0.00374279	-0.00150033	0.365723	0.179932	1.0188	
61	0.313927	0.0904792	0.00623758	-0.945105	-1.95544	0.382727	10.8412	-0.0161063	-0.0133928	0.000483564	-0.109619	0.190918	-1.13452	0.201394	0.446486	0.111403	-0.864685	-8.03096	-0.134467	5.70475	-0.00293749	0.0188623	-0.0165862	0.814209	0.102783	-0.793945	0.344528	0.884927	0.308715	0.05384	-0.986558	5.75901	-6.77419	-0.00759457	-0.00250146	-0.00151049	0.455078	-0.473145	0.935547	-0.378771	0.498162	0.666855	-0.404564	0.936497	-9.0292	-3.84664	0.016351	0.0141337	0.0036836	-0.178223	1.18286	-0.0625	-0.0800993	0.979481	0.181661	-0.0346592	-0.39228	-1.65245	-9.59874	0.0153996	0.0135545	-0.013703	0.452148	0.670166	1.28003	0.37053	0.925122	-0.0819121	0.0121502	0.646334	4.79738	-5.02543	-0.0164387	0.0131522	-0.0138565	0.224365	-0.925781	0.649902	0.112998	0.0408238	0.0214094	-0.992525	-0.808066	-0.263179	10.4734	-0.0602162	0.0845874	-0.00184625	-0.251709	0.101074	-1.0481	0.015255	-0.0895503	-0.0164114	-0.99573	2.64713	0.486871	10.8167	0.00167266	0.0194565	-0.0123325	-0.701416	0.0307617	-0.917969	0.0436305	-0.6897	-0.722773	-0.00300499	0.636401	-0.703156	-9.15299	-0.00558365	0.00119269	-0.0223889	0.415527	0.114014	1.22168	-0.151006	-0.112114	-0.0129965	-0.982069	2.25804	0.648061	10.2568	-0.00328743	0.0158572	-0.00151167	-0.635742	-0.183594	-0.919434	0.147382	-0.970782	-0.189337	0.00343044	0.576055	-2.85129	-9.28193	0.0147324	0.00872805	0.000377192	0.372803	0.175537	1.0188	
62	0.313903	0.0903963	0.00626739	-0.945121	-1.93079	0.377752	10.8445	-0.003617	-0.00951592	-0.00317386	-0.114014	0.190918	-1.13672	0.20146	0.446633	0.111456	-0.864587	-8.0721	-0.155981	5.73211	-0.013892	0.0285955	-0.0124865	0.818359	0.107178	-0.793945	0.344188	0.885036	0.308781	0.0538519	-1.00385	5.83957	-6.7982	0.0118802	0.00162038	-0.00109273	0.450928	-0.4729	0.942383	-0.378675	0.498086	0.666896	-0.40468	0.992719	-8.95912	-3.78439	0.000435776	0.000170702	-0.0033345	-0.177979	1.17407	-0.0556641	-0.0798933	0.979476	0.181703	-0.0350384	-0.354901	-1.65686	-9.58934	-0.00864101	-0.0166693	-0.011491	0.449951	0.667969	1.28003	0.370578	0.925103	-0.0819209	0.0120473	0.655164	4.81019	-5.05574	0.00785035	0.0113679	-0.0239935	0.224121	-0.923584	0.638916	0.113233	0.0390712	0.0223461	-0.992548	-0.870686	-0.375959	10.4275	0.000949328	-0.0896176	-0.0104518	-0.258057	0.098877	-1.0376	0.0152747	-0.0895096	-0.0163871	-0.995734	2.59643	0.43454	10.8089	0.00416359	0.0195402	-0.0168681	-0.699219	0.0310059	-0.92041	0.0438222	-0.68978	-0.722686	-0.00286334	0.639337	-0.724779	-9.12642	0.0220866	0.00467587	-0.0148344	0.422363	0.114014	1.22168	-0.151001	-0.112138	-0.0131194	-0.982065	2.17628	0.660964	10.2486	0.00970406	0.0104659	0.00419848	-0.633301	-0.187988	-0.910156	0.146955	-0.970817	-0.189494	0.00320892	0.584782	-2.83559	-9.29895	-0.0170445	0.00813538	-0.00929527	0.370605	0.17334	1.02563	
63	0.313805	0.0903292	0.00605641	-0.945162	-1.96139	0.460499	10.8745	0.00957413	-0.0117028	-0.000768446	-0.118164	0.186279	-1.13232	0.201143	0.44697	0.111951	-0.864423	-8.07752	-0.109377	5.69518	-0.0138328	0.0272256	-0.0260599	0.820801	0.102783	-0.796143	0.344186	0.88498	0.308949	0.0538286	-1.11229	5.75765	-6.89085	0.00809816	0.0077489	-0.00900138	0.455078	-0.466553	0.937744	-0.378856	0.49799	0.666785	-0.404811	0.963939	-8.97722	-3.77645	0.0121012	0.00761552	0.000288107	-0.180176	1.17627	-0.0556641	-0.0797262	0.979483	0.181707	-0.035199	-0.370989	-1.67195	-9.57584	-0.00440749	0.00544248	-0.02077	0.452148	0.667969	1.28247	0.371204	0.924845	-0.0820191	0.0119363	0.641885	4.81496	-5.01352	-0.0297133	0.0130961	-0.0169229	0.224365	-0.929932	0.63916	0.113301	0.0380544	0.0231958	-0.992561	-0.885391	-0.355832	10.5566	-0.020254	-0.028316	-0.0157453	-0.260498	0.103271	-1.04395	0.0151202	-0.0895146	-0.0169666	-0.995726	2.58545	0.373335	10.8126	0.0291865	0.0118709	-0.0127273	-0.701416	0.0307617	-0.915771	0.043715	-0.68977	-0.722701	-0.00309963	0.647084	-0.734506	-9.13077	-0.00486127	0.00673894	-0.0209004	0.422119	0.118652	1.22388	-0.150891	-0.112173	-0.0128305	-0.982082	2.20651	0.68091	10.2699	-0.0065275	0.00978653	0.0104286	-0.633301	-0.187988	-0.916992	0.146955	-0.970817	-0.189494	0.00320892	0.584782	-2.83559	-9.29895	-0.0170445	0.00813538	-0.00929527	0.370605	0.17334	1.02563	
64	0.313786	0.0903445	0.00589428	-0.945167	-1.86402	0.493305	10.8622	0.00699039	0.00117304	-0.00140348	-0.116455	0.192871	-1.13892	0.201198	0.447073	0.112223	-0.864321	-8.05675	-0.0908376	5.73975	-0.0257099	0.0184507	-0.0178942	0.816162	0.10498	-0.796387	0.343982	0.885065	0.308934	0.0538238	-1.01434	5.91241	-6.73008	0.00331361	0.00270934	-0.00311344	0.453125	-0.473145	0.935547	-0.378784	0.497966	0.666837	-0.404822	0.968189	-8.94664	-3.75858	-0.00322948	0.00449791	-7.48207e-05	-0.175781	1.17627	-0.0600586	-0.0797091	0.979479	0.181704	-0.0353653	-0.357236	-1.64475	-9.56803	0.00149853	-0.00297542	-0.0152532	0.447754	0.667969	1.28003	0.371863	0.924572	-0.0821101	0.0118984	0.652983	4.81822	-5.01342	-0.0257484	0.0145721	-0.0178039	0.230713	-0.923584	0.641113	0.113364	0.0368017	0.0233036	-0.992598	-0.807534	-0.366857	10.4269	0.0072639	-0.0151549	-0.0111572	-0.262695	0.105469	-1.04834	0.0152308	-0.089604	-0.017258	-0.995711	2.58476	0.535815	10.8089	0.0297902	0.00871315	-0.0116495	-0.698975	0.0288086	-0.917969	0.0434325	-0.689727	-0.722757	-0.00345073	0.6523	-0.697294	-9.13939	-0.00403394	0.00496705	-0.0228683	0.422119	0.118652	1.22168	-0.150708	-0.11217	-0.0126098	-0.982113	2.15943	0.631291	10.2326	-0.00141248	0.00921788	0.0104752	-0.635742	-0.183594	-0.914795	0.146779	-0.970822	-0.189607	0.00317811	0.572789	-2.81988	-9.30089	-0.00369749	0.00169849	-0.00487556	0.359131	0.177734	1.01416	
65	0.313645	0.0904659	0.0059448	-0.945202	-1.92399	0.493018	10.8347	-0.00131176	-0.000579274	-0.00527184	-0.116211	0.190918	-1.13892	0.201249	0.44709	0.112458	-0.86427	-8.06043	-0.118531	5.73249	-0.0129167	0.0221499	-0.0198198	0.820557	0.109375	-0.796387	0.343922	0.885062	0.308987	0.0539515	-1.10232	5.78768	-6.87524	0.0183831	0.0119373	0.000934143	0.457275	-0.470947	0.937744	-0.378841	0.498022	0.66677	-0.404811	0.950884	-8.97687	-3.77331	0.00273741	0.00667436	0.00141773	-0.178223	1.18286	-0.0559082	-0.080001	0.979459	0.181687	-0.0353427	-0.397443	-1.65968	-9.57827	0.0167742	0.0185058	-0.0157399	0.452393	0.665771	1.28247	0.372045	0.924503	-0.0820922	0.011753	0.649998	4.8338	-5.00318	0.00651078	0.00895886	-0.024475	0.224365	-0.929932	0.641357	0.113466	0.0351224	0.023523	-0.992642	-0.739751	-0.363096	10.5595	0.00547007	-0.0568933	-0.0147412	-0.269043	0.103271	-1.04834	0.0150893	-0.0894455	-0.0173915	-0.995726	2.59044	0.487904	10.8079	0.00782934	0.014114	-0.0153342	-0.698975	0.0288086	-0.922607	0.0436003	-0.689575	-0.722893	-0.00325667	0.640012	-0.714039	-9.12954	0.0152362	0.000888892	-0.0171947	0.417725	0.116211	1.22607	-0.150697	-0.112207	-0.0125957	-0.982111	2.24911	0.647224	10.2863	0.0018163	0.0122919	0.00501733	-0.633545	-0.181396	-0.917236	0.146971	-0.97079	-0.189623	0.00324098	0.569636	-2.81899	-9.3027	0.0185916	0.00566386	-0.000785028	0.36377	0.175537	1.01636	
66	0.313604	0.0906433	0.00599363	-0.945199	-1.92553	0.433221	10.8248	0.00336795	0.00709988	-0.00155317	-0.111816	0.190918	-1.14111	0.201271	0.447056	0.112683	-0.864253	-8.09303	-0.17357	5.67794	-0.0238175	0.0167195	-0.0234739	0.822754	0.10498	-0.796387	0.343705	0.885135	0.309032	0.0538752	-1.05853	5.82674	-6.845	0.00655148	0.00217569	-0.00229663	0.453125	-0.473145	0.93335	-0.378951	0.497977	0.666736	-0.404819	0.957685	-8.98562	-3.81806	0.00689691	0.00761814	-0.00346737	-0.178223	1.18066	-0.0581055	-0.0801288	0.979452	0.181601	-0.0357028	-0.380093	-1.66893	-9.56501	0.00405698	-0.00413756	-0.00986954	0.456299	0.672363	1.28247	0.372184	0.924447	-0.0821211	0.0115356	0.647686	4.84622	-5.03789	-0.0117393	0.00654992	-0.0242148	0.222412	-0.929932	0.641357	0.113421	0.0338278	0.0232214	-0.992699	-0.806482	-0.405959	10.5498	0.0237411	-0.0416524	-0.0181015	-0.269043	0.103271	-1.04175	0.0149688	-0.089285	-0.0175887	-0.995738	2.59159	0.460009	10.7933	-4.40928e-05	0.0133541	-0.00995055	-0.701416	0.0307617	-0.915771	0.0435943	-0.689592	-0.722877	-0.00340083	0.636822	-0.745056	-9.11558	-0.00382111	0.00875319	-0.0214503	0.422363	0.114014	1.22388	-0.150643	-0.11218	-0.0124423	-0.982124	2.21066	0.658269	10.2645	-0.00560836	0.012534	0.00635536	-0.631348	-0.181396	-0.917236	0.147341	-0.970714	-0.189724	0.00317118	0.590548	-2.83296	-9.29313	0.00740965	0.00965195	-0.00863966	0.370361	0.175537	1.02344	
67	0.313548	0.0908224	0.00581362	-0.945201	-1.92555	0.441631	10.8477	0.0115485	-0.003213	-0.000509955	-0.112061	0.193115	-1.13452	0.201289	0.446989	0.112588	-0.864296	-8.08204	-0.142573	5.72188	-0.00743621	0.0128495	-0.0158489	0.82251	0.109375	-0.794189	0.343702	0.885146	0.30901	0.0538354	-0.98609	5.80864	-6.82483	0.00860862	-0.00182658	0.000187475	0.457275	-0.466553	0.942139	-0.37903	0.497814	0.666678	-0.405041	1.03003	-8.96868	-3.76665	0.0162935	0.00490711	0.00181549	-0.178223	1.18066	-0.0581055	-0.0805575	0.979425	0.181564	-0.035668	-0.399931	-1.67802	-9.59706	0.0271331	0.0216125	-0.0167864	0.456299	0.674561	1.28003	0.372324	0.924391	-0.0821374	0.0113708	0.637988	4.8679	-5.04356	-0.00188035	0.0105517	-0.0214739	0.224365	-0.929932	0.645752	0.113375	0.0331438	0.0230876	-0.992731	-0.775333	-0.391055	10.5373	0.00395047	0.0124834	-0.0141422	-0.269287	0.107422	-1.04834	0.0150652	-0.0892697	-0.0175831	-0.995738	2.56831	0.477437	10.8037	0.0107768	0.0162465	-0.0184276	-0.701172	0.0266113	-0.917969	0.0435536	-0.689598	-0.722873	-0.00348486	0.646056	-0.702921	-9.13303	0.0027699	0.00540718	-0.020091	0.41748	0.118652	1.21948	-0.150615	-0.112194	-0.0124471	-0.982127	2.14995	0.57309	10.2209	0.00503881	0.0106044	0.00523085	-0.635498	-0.185791	-0.916992	0.147644	-0.970684	-0.189642	0.00324465	0.569862	-2.82359	-9.2881	0.0139871	0.00343718	0.0010102	0.365967	0.177734	1.02563	
68	0.313535	0.0909486	0.00568761	-0.945194	-1.89536	0.491381	10.8571	0.0137242	0.00282077	-0.000324307	-0.109619	0.190918	-1.13892	0.201388	0.447	0.112717	-0.864251	-8.09007	-0.092326	5.7007	-0.0212139	0.0178688	-0.0152947	0.82251	0.11377	-0.791992	0.343682	0.885157	0.309019	0.0537235	-1.00031	5.80929	-6.77522	0.00868093	-0.00395617	-0.00378818	0.452881	-0.466553	0.94458	-0.378988	0.497952	0.666631	-0.404987	0.995835	-8.91868	-3.78195	-0.00368694	0.012079	0.00849163	-0.182373	1.17603	-0.0556641	-0.0807623	0.979398	0.181567	-0.0359343	-0.337444	-1.69847	-9.53293	0.0200825	-0.00762745	-0.0169258	0.45874	0.670166	1.28247	0.372789	0.924199	-0.0821938	0.0113885	0.637837	4.83451	-5.02064	-0.0357376	0.0179645	-0.0158887	0.222168	-0.925781	0.636963	0.113463	0.0324085	0.0231913	-0.992743	-0.723851	-0.400451	10.5582	0.00367817	-0.0431344	-0.0099398	-0.266846	0.105225	-1.0376	0.0150789	-0.0892568	-0.0174752	-0.995741	2.58095	0.497125	10.7714	-0.00271228	0.0171654	-0.016145	-0.701416	0.0310059	-0.922852	0.0435202	-0.689638	-0.722837	-0.00343929	0.642947	-0.731952	-9.09757	0.00820812	0.000642472	-0.0185742	0.419922	0.116211	1.22168	-0.150642	-0.112373	-0.0126726	-0.982099	2.24927	0.700023	10.2491	0.00433607	0.00732369	-0.000318928	-0.62915	-0.181396	-0.912598	0.147556	-0.970689	-0.189682	0.00324622	0.581278	-2.85884	-9.27561	-0.00409289	0.00509775	-0.00609067	0.368408	0.171143	1.0188	
69	0.31391	0.0909907	0.00581862	-0.945065	-1.97617	0.514825	10.8478	-0.0109482	-0.00825576	0.00780804	-0.114258	0.193115	-1.13672	0.201605	0.447174	0.11323	-0.864042	-8.02729	-0.204075	5.67398	-0.0329554	0.0329743	-0.0217471	0.820312	0.111572	-0.794189	0.343571	0.885257	0.308846	0.0537936	-1.08669	5.84231	-6.9037	0.0175636	0.00115689	0.00499445	0.457275	-0.466553	0.937744	-0.37873	0.497863	0.66683	-0.405011	0.94471	-9.01763	-3.76024	0.0146441	-0.0096905	-0.00942221	-0.18042	1.17847	-0.0581055	-0.0807729	0.979396	0.181544	-0.0360663	-0.368008	-1.66513	-9.54797	0.00332066	0.000526181	-0.0141735	0.452393	0.663574	1.28247	0.373329	0.923983	-0.0821742	0.0113533	0.651857	4.86635	-4.98469	-0.00126493	0.0105421	-0.021375	0.226807	-0.932129	0.637207	0.113607	0.0312702	0.0228341	-0.992771	-0.64691	-0.368602	10.4918	0.0366902	-0.00198588	-0.0115753	-0.279785	0.103027	-1.03979	0.015196	-0.0892698	-0.0172202	-0.995743	2.64027	0.466741	10.8276	-0.00357493	0.0167283	-0.0107792	-0.701172	0.0266113	-0.917969	0.0433996	-0.689658	-0.722825	-0.0035369	0.660805	-0.726343	-9.13347	0.00347398	0.00289277	-0.0195477	0.424805	0.114014	1.22388	-0.15054	-0.112233	-0.0125411	-0.982132	2.17844	0.616487	10.2941	0.00186261	0.0171559	0.0115203	-0.637939	-0.181396	-0.912598	0.146418	-0.970837	-0.189808	0.00318256	0.554766	-2.80505	-9.3375	-0.010859	0.000346128	-0.00366935	0.368164	0.177734	1.01636	
70	0.313955	0.0909149	0.00592249	-0.945056	-1.92623	0.474844	10.859	-0.00917062	-0.00648228	0.00301938	-0.116455	0.195068	-1.13257	0.201559	0.447071	0.113453	-0.864078	-8.1108	-0.0885281	5.69463	-0.0140066	0.00805015	-0.021066	0.820312	0.11377	-0.791992	0.343594	0.885185	0.309087	0.0534383	-0.985871	5.79726	-6.802	0.00284368	-0.00660808	-0.0167041	0.450928	-0.46875	0.939941	-0.379034	0.497728	0.666941	-0.404709	0.987151	-8.9763	-3.85207	-0.00535103	0.0221449	-0.0151372	-0.18042	1.18286	-0.0581055	-0.0802379	0.979387	0.181798	-0.0362164	-0.354284	-1.65831	-9.5917	-0.0189498	-0.0142755	-0.0114727	0.452148	0.670166	1.28003	0.3735	0.923908	-0.0822596	0.011161	0.640283	4.85634	-4.99402	-0.0125138	0.00943016	-0.0215652	0.226562	-0.929932	0.63501	0.113597	0.031016	0.0227635	-0.992782	-0.712466	-0.371855	10.4594	0.0218148	-0.00545959	-0.015886	-0.273682	0.109619	-1.04419	0.0152999	-0.0891626	-0.0169504	-0.995755	2.54693	0.379309	10.8543	0.00492207	0.0177087	-0.0142875	-0.701416	0.0307617	-0.91333	0.04348	-0.68948	-0.72299	-0.00351421	0.65919	-0.714384	-9.13722	0.00812375	0.0031001	-0.0195321	0.415039	0.12085	1.22388	-0.150585	-0.112301	-0.0127796	-0.982115	2.2297	0.709849	10.2468	0.0131905	0.00919032	-0.00261422	-0.635742	-0.181396	-0.914795	0.146598	-0.970808	-0.189815	0.00324944	0.563986	-2.82031	-9.32318	0.0177149	0.00550078	-0.0013502	0.368408	0.17334	1.0188	
71	0.313915	0.0907454	0.00606099	-0.945085	-1.9906	0.448463	10.8533	-0.00582245	-0.01376	-0.00409901	-0.111816	0.188721	-1.13672	0.201641	0.447221	0.113617	-0.863959	-8.04554	-0.108092	5.69151	-0.014614	0.0247764	-0.0169265	0.818115	0.11377	-0.799072	0.343358	0.885282	0.309069	0.0534567	-1.06175	5.80007	-6.81786	0.018095	0.0103832	0.00470848	0.455078	-0.464355	0.935303	-0.379196	0.497435	0.666893	-0.404998	0.991583	-8.98198	-3.73679	0.0210602	-0.00329794	-0.000425119	-0.182617	1.17847	-0.0581055	-0.0805504	0.979375	0.181751	-0.0360892	-0.419247	-1.69612	-9.5953	0.0225294	0.0221075	-0.0192861	0.454346	0.670166	1.28467	0.373672	0.923842	-0.0822467	0.0109355	0.642251	4.87527	-5.0053	0.00241664	0.00569753	-0.0233762	0.222412	-0.934326	0.637207	0.113414	0.0302109	0.0221503	-0.992841	-0.631672	-0.330659	10.5272	0.0417608	-0.0119689	-0.0155085	-0.277588	0.103027	-1.0376	0.0153675	-0.0892368	-0.0170374	-0.995746	2.56082	0.497603	10.7881	0.00308748	0.013478	-0.0123309	-0.705566	0.0266113	-0.925049	0.0434636	-0.689299	-0.723163	-0.00350668	0.646585	-0.727488	-9.10318	0.00477295	0.000356618	-0.0194262	0.41748	0.118652	1.21948	-0.150745	-0.11238	-0.012676	-0.982082	2.22448	0.618241	10.276	-0.00296966	0.0101353	-0.00142056	-0.633301	-0.187988	-0.912354	0.146907	-0.970776	-0.189743	0.00328548	0.56518	-2.83385	-9.28205	0.0278822	0.00985167	0.00115287	0.363525	0.177734	1.021	
72	0.313844	0.0906135	0.00612073	-0.945121	-1.86213	0.454413	10.8343	-0.00179629	-0.00287156	-0.00316372	-0.112061	0.193115	-1.13452	0.201731	0.447219	0.113905	-0.863901	-8.0983	-0.145895	5.67605	-0.0167574	0.0129628	-0.0200331	0.820312	0.11377	-0.799072	0.343314	0.885291	0.309094	0.0534513	-1.02155	5.81987	-6.85477	0.00393935	0.00236525	-0.000985466	0.457275	-0.466553	0.937744	-0.379094	0.497633	0.666904	-0.404831	0.973033	-8.97641	-3.84583	-0.00285753	0.0116127	0.00269308	-0.177979	1.17847	-0.0603027	-0.0809202	0.979347	0.181703	-0.0362798	-0.374938	-1.67517	-9.55318	0.00935415	-0.000980619	-0.0134056	0.451904	0.672363	1.28247	0.373713	0.923826	-0.0822539	0.0108864	0.631227	4.8764	-5.00815	0.000818339	0.0115211	-0.0224422	0.226562	-0.925781	0.641113	0.113495	0.0293465	0.0218853	-0.992864	-0.671752	-0.359632	10.4784	0.0166273	-0.0342352	-0.0113527	-0.275635	0.107422	-1.03979	0.0154039	-0.0893213	-0.0168474	-0.995741	2.59893	0.42327	10.8686	0.00345756	0.0120133	-0.0193851	-0.703369	0.0307617	-0.917969	0.0435491	-0.689336	-0.723124	-0.00337957	0.659733	-0.723951	-9.11441	0.0262718	0.00130516	-0.0142853	0.422363	0.114014	1.21948	-0.150642	-0.112454	-0.0128727	-0.982087	2.18751	0.607457	10.224	0.0214555	0.00923317	0.00660224	-0.637939	-0.183594	-0.914795	0.146824	-0.970769	-0.189842	0.00318826	0.575523	-2.83887	-9.27786	-0.00264472	0.00630731	-0.00508395	0.370605	0.17334	1.0188	
73	0.313791	0.0906513	0.00611167	-0.945135	-1.9978	0.437258	10.8491	0.00319155	-0.00695293	-0.00196532	-0.114258	0.192871	-1.13452	0.201746	0.447328	0.11389	-0.863843	-8.07143	-0.154826	5.72563	-0.00717252	0.0224389	-0.0162783	0.82251	0.111572	-0.798828	0.343212	0.885373	0.308978	0.0534163	-1.0941	5.82163	-6.82908	0.016204	-0.0020149	0.00438439	0.453125	-0.470947	0.937744	-0.379107	0.497472	0.666934	-0.404966	0.994154	-8.96812	-3.69581	0.00470914	-0.00106038	-0.00519764	-0.180664	1.18506	-0.0646973	-0.0810935	0.979321	0.181815	-0.036015	-0.42122	-1.70289	-9.5608	0.00500219	0.0162732	-0.0138508	0.447754	0.670166	1.27539	0.373919	0.923761	-0.0820456	0.0109048	0.639088	4.8659	-5.0104	0.0062648	0.011853	-0.0167358	0.233154	-0.932129	0.63916	0.113572	0.0282888	0.0217246	-0.992889	-0.58782	-0.351963	10.491	0.0343796	-0.0222546	-0.0145436	-0.281982	0.10083	-1.04175	0.0153354	-0.0891598	-0.0169138	-0.995756	2.5672	0.402191	10.8089	0.00539427	0.0143699	-0.0121232	-0.701416	0.0307617	-0.915771	0.043505	-0.689345	-0.723118	-0.00335674	0.646658	-0.741922	-9.10449	0.00880203	-0.000571525	-0.0198725	0.41748	0.12085	1.22168	-0.150638	-0.112533	-0.0128464	-0.982079	2.23924	0.776738	10.2655	-0.0086086	0.00775876	0.00162811	-0.635498	-0.187988	-0.912354	0.146123	-0.970861	-0.189913	0.00312581	0.563574	-2.81463	-9.30792	-0.0267085	0.000259824	-0.0048473	0.372803	0.17334	1.01416	
74	0.313756	0.0905638	0.00601746	-0.945156	-1.83298	0.441021	10.8636	0.00602761	-0.0125712	-0.00231173	-0.114258	0.195068	-1.13892	0.201768	0.447428	0.113953	-0.863778	-8.07262	-0.120088	5.6394	-0.0114655	0.0159808	-0.0188576	0.82251	0.11377	-0.799072	0.343125	0.885416	0.308948	0.0534333	-0.98718	5.75585	-6.77295	0.00853668	0.00904138	0.00182512	0.450684	-0.462158	0.933105	-0.379129	0.497709	0.666805	-0.404868	0.945131	-8.98571	-3.85062	0.00595016	0.014296	0.0101216	-0.178223	1.18066	-0.0603027	-0.0810158	0.97934	0.181678	-0.0363598	-0.425175	-1.6768	-9.57559	0.0050232	-7.29328e-05	-0.0100879	0.454102	0.672363	1.28003	0.373957	0.923737	-0.082158	0.0108187	0.649784	4.85908	-4.98508	-0.00017127	0.00996114	-0.0205224	0.22876	-0.929932	0.63501	0.113649	0.0271207	0.021798	-0.992911	-0.592959	-0.338299	10.6112	0.00138123	-0.0376894	-0.0135795	-0.286377	0.107422	-1.03125	0.0154832	-0.0893003	-0.0168442	-0.995742	2.60575	0.558852	10.8113	-0.00794701	0.0112411	-0.015648	-0.703369	0.0307617	-0.917969	0.0431507	-0.688932	-0.723532	-0.00361377	0.644749	-0.719454	-9.11747	-0.00783054	-0.00159546	-0.0221849	0.422119	0.118652	1.21948	-0.150873	-0.112388	-0.0127182	-0.982061	2.23327	0.549475	10.2397	0.0100101	0.0171724	-0.00565796	-0.633301	-0.185791	-0.919434	0.146475	-0.970814	-0.189883	0.00318811	0.57112	-2.81479	-9.3321	0.0158045	0.00427285	-0.000884424	0.368408	0.17334	1.02344	
75	0.313542	0.090961	0.00573306	-0.94519	-2.01809	0.533232	10.8309	0.0097784	-0.00231553	-0.00683839	-0.116455	0.195068	-1.13892	0.201761	0.447884	0.11415	-0.863517	-8.10251	-0.138807	5.60852	-0.0163223	0.0391806	-0.0181974	0.820068	0.115967	-0.794434	0.342708	0.885626	0.308789	0.0535528	-1.03312	5.86602	-6.87445	0.0230563	0.00302411	0.0112268	0.459229	-0.4646	0.942139	-0.379182	0.4976	0.666584	-0.405317	1.00996	-8.99212	-3.74357	0.0183618	0.00305807	0.00755726	-0.180176	1.17627	-0.0622559	-0.0811909	0.97934	0.181658	-0.0360849	-0.403534	-1.71254	-9.55847	0.0101384	0.0344273	-0.0173922	0.454102	0.672363	1.28003	0.373729	0.923826	-0.0822112	0.0106809	0.621342	4.85765	-5.00471	0.0158365	0.00964209	-0.0194689	0.22876	-0.929932	0.63501	0.113683	0.0268548	0.0221556	-0.992907	-0.753593	-0.386103	10.557	-0.0136687	0.0395944	-0.0108916	-0.286621	0.109619	-1.03784	0.0153665	-0.0894359	-0.0165482	-0.995737	2.64665	0.44579	10.8644	-0.00564531	0.0129916	-0.0229653	-0.703369	0.0288086	-0.922607	0.0432694	-0.688964	-0.723495	-0.00338786	0.635749	-0.708156	-9.143	0.028973	-0.00220173	-0.0144103	0.419922	0.116211	1.22168	-0.151119	-0.112459	-0.012722	-0.982015	2.19233	0.702166	10.281	-0.00814257	0.0075953	-0.00718045	-0.633545	-0.183594	-0.916992	0.14769	-0.970656	-0.189749	0.00308663	0.555523	-2.83226	-9.30386	0.0488528	0.0173882	0.00102289	0.36792	0.179932	1.0188	
76	0.313433	0.0909263	0.00572042	-0.94523	-1.90943	0.537143	10.8579	0.00203157	-0.00641507	-0.00878548	-0.111816	0.190918	-1.13892	0.201868	0.447557	0.114335	-0.863637	-8.13578	-0.183532	5.60663	-0.0288692	-0.0100666	-0.0223318	0.820312	0.111572	-0.791748	0.342759	0.885605	0.308786	0.0535896	-1.00622	5.8743	-6.88678	-0.000929512	0.00486564	6.03286e-05	0.450684	-0.459961	0.9375	-0.379149	0.497736	0.666603	-0.405148	0.989533	-8.90731	-3.78467	-0.011773	0.0150854	0.00223634	-0.178223	1.18286	-0.0581055	-0.0811909	0.97934	0.181658	-0.0360849	-0.403534	-1.71254	-9.55847	0.0101384	0.0344273	-0.0173922	0.454102	0.672363	1.28003	0.373987	0.923717	-0.0822612	0.0106844	0.634126	4.86407	-5.01281	-0.017839	0.0153896	-0.0162169	0.229004	-0.934326	0.632812	0.113792	0.0257715	0.0225013	-0.992915	-0.661692	-0.439465	10.4774	-0.0184183	-0.0679799	-0.0093884	-0.288574	0.105225	-1.03979	0.0153665	-0.0894359	-0.0165482	-0.995737	2.64665	0.44579	10.8644	-0.00564531	0.0129916	-0.0229653	-0.703369	0.0288086	-0.922607	0.0436054	-0.689043	-0.723402	-0.00283612	0.640215	-0.747345	-9.12049	0.0293816	-0.00197961	-0.0139706	0.41748	0.12085	1.22168	-0.151238	-0.112425	-0.0125991	-0.982003	2.18813	0.628992	10.24	-0.00692175	0.0126482	-0.00529508	-0.635498	-0.185791	-0.919434	0.14769	-0.970656	-0.189749	0.00308663	0.555523	-2.83226	-9.30386	0.0488528	0.0173882	0.00102289	0.36792	0.179932	1.0188	
77	0.313602	0.0911247	0.00593482	-0.945153	-1.96276	0.470639	10.8248	-0.00737645	0.00555108	0.0113015	-0.112061	0.193115	-1.13672	0.201942	0.447318	0.114505	-0.863721	-8.04543	-0.166165	5.75744	-0.0172554	0.0097972	-0.0273465	0.818359	0.109375	-0.794189	0.343131	0.885471	0.308764	0.0535437	-1.0655	5.78483	-6.78554	0.00205006	-0.00197362	0.00491417	0.452881	-0.470947	0.93335	-0.379243	0.497563	0.666605	-0.40527	0.980152	-9.02539	-3.78621	0.0301474	-0.00357677	-0.00349896	-0.176025	1.18066	-0.0581055	-0.0819736	0.979235	0.181864	-0.0361338	-0.457845	-1.71727	-9.49514	0.0354782	0.0314762	-0.0232993	0.451904	0.674561	1.28003	0.374508	0.923501	-0.0823404	0.0104942	0.643285	4.87529	-4.97454	-0.0107132	0.00672585	-0.0222419	0.22876	-0.932129	0.63501	0.114192	0.0277232	0.0247904	-0.992762	-0.59297	-0.362785	10.4587	-0.0688185	0.100199	4.33564e-06	-0.282227	0.107422	-1.03125	0.0152982	-0.0893129	-0.0163554	-0.995752	2.59247	0.491532	10.7898	-0.0128967	0.0168049	-0.008701	-0.701416	0.0332031	-0.922852	0.0436054	-0.689043	-0.723402	-0.00283612	0.640215	-0.747345	-9.12049	0.0293816	-0.00197961	-0.0139706	0.41748	0.12085	1.22168	-0.151056	-0.112214	-0.0124168	-0.982057	2.21681	0.588285	10.2229	-0.00558306	0.0133907	0.00990986	-0.633545	-0.183594	-0.914795	0.148772	-0.970497	-0.189719	0.00310223	0.602255	-2.86178	-9.27363	-0.023497	0.0018118	-0.00482722	0.365967	0.175537	1.02319	
78	0.313627	0.0913193	0.00595391	-0.945126	-2.001	0.418283	10.8204	0.0076488	0.00352148	-0.00252379	-0.114258	0.195068	-1.13892	0.201967	0.447292	0.114752	-0.863696	-8.08932	-0.188368	5.65642	-0.0181735	0.0202753	-0.0185572	0.82666	0.118164	-0.794434	0.343049	0.885485	0.308814	0.0535448	-1.03586	5.86778	-6.74509	0.0110977	0.00691505	-0.00382264	0.457275	-0.464355	0.942139	-0.379302	0.497529	0.666521	-0.405394	0.984334	-8.89018	-3.70941	-0.00592112	0.0109965	-0.00201034	-0.18042	1.17847	-0.0668945	-0.0812787	0.979299	0.181764	-0.0364668	-0.404741	-1.68512	-9.6232	-0.0272867	-0.0236375	-0.00354638	0.451904	0.674561	1.28003	0.374508	0.923501	-0.0823404	0.0104942	0.643285	4.87529	-4.97454	-0.0107132	0.00672585	-0.0222419	0.22876	-0.932129	0.63501	0.114385	0.0269509	0.0258947	-0.992733	-0.623556	-0.480176	10.4381	-0.00432796	-0.0604725	-0.0111014	-0.284668	0.114014	-1.03784	0.0152982	-0.0893129	-0.0163554	-0.995752	2.59247	0.491532	10.7898	-0.0128967	0.0168049	-0.008701	-0.701416	0.0332031	-0.922852	0.0438709	-0.688701	-0.723711	-0.00289267	0.635549	-0.741632	-9.13164	0.00370897	0.00730013	-0.01958	0.424316	0.12085	1.22168	-0.150914	-0.112341	-0.0124708	-0.982064	2.23684	0.771019	10.3136	0.00105527	0.00718937	0.00649215	-0.635742	-0.179199	-0.917236	0.148677	-0.970505	-0.189753	0.0030787	0.581442	-2.85948	-9.3199	-0.00227317	0.00320746	-0.00428863	0.370361	0.175537	1.02344	
79	0.313606	0.0913122	0.00572715	-0.945135	-1.93874	0.529679	10.8534	0.00848244	-0.00662821	0.00154268	-0.111816	0.188721	-1.13672	0.201971	0.447292	0.114856	-0.863682	-8.09893	-0.132214	5.67118	-0.00745979	0.0132659	-0.0203506	0.820068	0.115967	-0.791992	0.342837	0.885525	0.308941	0.0535168	-1.01948	5.78655	-6.83937	0.0109541	0.00177003	-0.000757003	0.450684	-0.466553	0.939941	-0.379344	0.49754	0.666589	-0.40523	0.987418	-8.98456	-3.81485	-0.006672	0.0131402	-0.00869944	-0.18042	1.17847	-0.0646973	-0.0816277	0.979297	0.181631	-0.0363945	-0.39211	-1.71207	-9.54932	0.0190937	0.0220575	-0.0162524	0.452148	0.670166	1.28003	0.374422	0.923579	-0.0818489	0.0105197	0.62823	4.89001	-5.00419	-0.0111793	0.0137588	-0.0157016	0.224609	-0.932129	0.630615	0.114518	0.0267873	0.0265665	-0.992705	-0.635719	-0.44558	10.5208	-0.00947532	0.00751454	-0.0106375	-0.280273	0.111816	-1.03369	0.0151607	-0.0889816	-0.0170787	-0.995771	2.55621	0.493188	10.7927	0.0357178	0.012598	-0.0141265	-0.701416	0.0307617	-0.917969	0.0435367	-0.68864	-0.723788	-0.00330099	0.652463	-0.720012	-9.10631	-0.0143861	0.00356835	-0.0241787	0.422363	0.116211	1.22607	-0.15101	-0.112423	-0.0122067	-0.982043	2.18182	0.644835	10.2775	-0.016247	0.00196105	-0.0026229	-0.633301	-0.187988	-0.907959	0.149848	-0.97036	-0.18957	0.00320655	0.576136	-2.86182	-9.30635	0.0489457	0.00827255	0.00335919	0.36792	0.184326	1.01855	
80	0.313573	0.0912256	0.0057281	-0.945155	-1.96501	0.544294	10.8541	-0.0039733	-0.00890483	-0.00334652	-0.114014	0.190918	-1.13672	0.20216	0.447394	0.11513	-0.863548	-8.09438	-0.227191	5.69904	-0.0235295	0.0216144	-0.0151202	0.820068	0.118164	-0.794434	0.342775	0.885553	0.308935	0.0534812	-0.986855	5.80553	-6.82575	-0.00150691	-0.000250546	-0.000188433	0.452881	-0.466553	0.937744	-0.379344	0.49754	0.666589	-0.40523	0.987418	-8.98456	-3.81485	-0.006672	0.0131402	-0.00869944	-0.18042	1.17847	-0.0646973	-0.0814404	0.979312	0.18157	-0.0367142	-0.375765	-1.67754	-9.52705	-0.00926968	-0.0171128	-0.00824259	0.456299	0.674561	1.27783	0.374618	0.923521	-0.081602	0.0105738	0.638222	4.88821	-4.98811	-0.00554641	0.0133937	-0.0182762	0.233154	-0.932129	0.630615	0.114646	0.0262744	0.0264416	-0.992707	-0.6081	-0.513853	10.4845	0.0282826	0.00344137	-0.0119767	-0.284424	0.109619	-1.04199	0.0152059	-0.0890187	-0.0173394	-0.995763	2.61051	0.444422	10.811	0.0202289	0.0168181	-0.0177848	-0.701416	0.032959	-0.92041	0.0435367	-0.68864	-0.723788	-0.00330099	0.652463	-0.720012	-9.10631	-0.0143861	0.00356835	-0.0241787	0.422363	0.116211	1.22607	-0.151132	-0.112303	-0.0120626	-0.98204	2.21403	0.599744	10.2377	-0.0033356	0.00654193	-0.00152293	-0.637695	-0.185791	-0.914795	0.150752	-0.970237	-0.18948	0.0032405	0.579929	-2.89175	-9.25594	0.0373738	0.00998778	0.00175897	0.372559	0.179932	1.02319	
81	0.313723	0.0911137	0.00602214	-0.945114	-1.93024	0.470851	10.8686	-0.0144357	0.0012936	0.00718031	-0.116455	0.192871	-1.13892	0.202176	0.447424	0.115013	-0.863544	-8.06584	-0.14956	5.68311	-0.00228267	0.0168705	-0.0150096	0.82251	0.109375	-0.794189	0.342697	0.8855	0.309165	0.0535311	-1.12385	5.78496	-6.90437	0.00930645	0.00913848	-0.00770945	0.455078	-0.464355	0.939941	-0.379507	0.497493	0.666486	-0.405304	0.969482	-9.00182	-3.79802	0.00358233	0.00213735	-0.00369655	-0.18042	1.18066	-0.0581055	-0.0815028	0.979278	0.181726	-0.0367154	-0.383931	-1.69492	-9.54808	-0.00197756	0.00563531	-0.0235554	0.454102	0.676758	1.271	0.374719	0.923478	-0.0816347	0.0105143	0.640994	4.88448	-4.98439	-0.0043926	0.011475	-0.0206789	0.229004	-0.934326	0.630859	0.114594	0.025494	0.0259188	-0.992747	-0.568661	-0.438787	10.5472	0.0267876	-0.0285248	-0.0155299	-0.284424	0.111816	-1.03784	0.0153061	-0.0889698	-0.0176692	-0.99576	2.59598	0.513333	10.814	0.0166824	0.0173068	-0.0149224	-0.705566	0.0285645	-0.91333	0.0431813	-0.688217	-0.724208	-0.00389093	0.640575	-0.704448	-9.1317	-0.00677575	0.00444029	-0.0241236	0.420166	0.114014	1.21948	-0.151073	-0.112331	-0.0120951	-0.982045	2.21517	0.621745	10.2837	0.0073987	0.0104904	0.00790666	-0.637695	-0.185791	-0.912598	0.150432	-0.970265	-0.189592	0.0032619	0.589559	-2.88873	-9.28817	-0.0160293	0.00184846	-0.0102386	0.36792	0.184326	1.01416	
82	0.313795	0.091137	0.00616468	-0.945087	-1.91812	0.450868	10.8301	-0.00182307	0.000355759	-0.000297163	-0.116455	0.192871	-1.13672	0.20226	0.447498	0.11487	-0.863505	-8.12834	-0.195446	5.68875	-0.0144872	0.0162597	-0.0163916	0.820068	0.115967	-0.794434	0.342708	0.885531	0.309076	0.0534683	-0.956803	5.82157	-6.79548	0.0113291	-0.00219472	-0.000731702	0.455078	-0.470947	0.940186	-0.379355	0.497471	0.666618	-0.405256	0.9919	-8.97712	-3.753	-0.00847062	-0.0045602	-0.00320102	-0.178223	1.18286	-0.0603027	-0.0813132	0.979306	0.181648	-0.0367647	-0.416525	-1.68695	-9.55209	-0.0143188	0.0041059	-0.0102704	0.449707	0.672363	1.28247	0.374867	0.923433	-0.0814685	0.0104996	0.644834	4.88782	-4.97108	0.00362563	0.0148405	-0.0143342	0.231201	-0.936523	0.637207	0.114652	0.0252797	0.0258942	-0.992746	-0.5759	-0.380904	10.5151	0.0183675	-0.00267441	-0.0106118	-0.280273	0.115967	-1.03369	0.0152984	-0.0889368	-0.0176846	-0.995763	2.60751	0.48659	10.816	0.00691234	0.0187051	-0.0188457	-0.699219	0.0310059	-0.918213	0.0431733	-0.68825	-0.724178	-0.00389918	0.654411	-0.706338	-9.13691	0.00890878	0.00316785	-0.0173842	0.427002	0.116455	1.22388	-0.150963	-0.112139	-0.0119994	-0.982085	2.2349	0.633706	10.2492	-0.00246079	0.0132972	0.00661666	-0.635742	-0.183594	-0.921631	0.150231	-0.970278	-0.18969	0.00314138	0.583202	-2.89042	-9.26902	-0.00289324	0.01241	-0.0078661	0.365723	0.182129	1.02539	
83	0.313929	0.0912639	0.00627747	-0.945029	-1.98425	0.463736	10.829	-0.00283921	0.00222998	0.00964721	-0.116455	0.192871	-1.13672	0.202166	0.447415	0.114748	-0.863587	-8.06813	-0.143302	5.67276	-0.000743986	0.0165306	-0.0196465	0.820312	0.111572	-0.791748	0.342747	0.885474	0.309179	0.053568	-1.16577	5.74585	-6.91178	-0.000528111	0.00488433	-0.00201752	0.455078	-0.466553	0.937744	-0.379402	0.497534	0.666611	-0.405146	0.939198	-9.04761	-3.80126	0.00487046	0.00199789	0.00116573	-0.184814	1.18042	-0.0581055	-0.0811204	0.979289	0.181872	-0.0365296	-0.413044	-1.68065	-9.546	0.00158529	0.00763035	-0.018859	0.451904	0.672363	1.28003	0.375113	0.923315	-0.0816625	0.0105047	0.642342	4.89462	-4.99284	-0.00668093	0.0133263	-0.0168756	0.22876	-0.929932	0.630615	0.114399	0.024586	0.0249719	-0.992817	-0.542793	-0.418413	10.5454	0.0188826	-0.004798	-0.0185407	-0.293213	0.11377	-1.03564	0.0152106	-0.088617	-0.0178932	-0.995789	2.60083	0.489753	10.8464	0.0143943	0.0211266	-0.0120641	-0.701172	0.0285645	-0.915771	0.0431041	-0.688249	-0.724182	-0.0040442	0.645216	-0.723382	-9.10513	-0.00450554	0.00738776	-0.0208423	0.424805	0.114014	1.22168	-0.150911	-0.112125	-0.0122991	-0.982091	2.14758	0.681959	10.2252	0.0143084	0.0126209	0.00430696	-0.635742	-0.183594	-0.914795	0.150009	-0.970298	-0.189763	0.00314762	0.588949	-2.89187	-9.2605	-0.00859406	0.00191244	-0.00312776	0.36792	0.184326	1.01416	
84	0.313921	0.0912302	0.00621388	-0.945035	-1.93924	0.4739	10.8483	0.00496308	-0.00446079	-0.0049502	-0.114258	0.193115	-1.13672	0.202196	0.447504	0.11482	-0.863524	-8.08551	-0.1096	5.71967	-0.0140401	0.0239355	-0.0168324	0.822266	0.118164	-0.799072	0.342747	0.885474	0.309179	0.053568	-1.16577	5.74585	-6.91178	-0.000528111	0.00488433	-0.00201752	0.455078	-0.466553	0.937744	-0.379289	0.497466	0.666683	-0.405217	0.995984	-8.96613	-3.74387	0.00268372	-0.00668072	-0.000531522	-0.177979	1.17847	-0.0603027	-0.0810027	0.979296	0.181881	-0.0365677	-0.406707	-1.70086	-9.54108	-0.00831665	0.0053583	-0.0163106	0.451904	0.672363	1.28247	0.375118	0.92331	-0.0816962	0.0105174	0.638377	4.90934	-4.97634	0.00390533	0.0139253	-0.0166676	0.230713	-0.927734	0.632568	0.114457	0.0243112	0.025051	-0.992815	-0.553904	-0.439847	10.554	0.00996964	-0.00581775	-0.011089	-0.288818	0.11377	-1.03369	0.0153122	-0.0884907	-0.017768	-0.995801	2.591	0.4846	10.7733	-0.00334685	0.0262851	-0.00922315	-0.701172	0.0266113	-0.92041	0.0428051	-0.688219	-0.724225	-0.00449948	0.649442	-0.681341	-9.10066	-0.00559704	0.00583077	-0.0242733	0.420166	0.111816	1.22168	-0.150815	-0.112183	-0.0124696	-0.982097	2.24878	0.520174	10.229	0.0199595	0.0100317	0.00897088	-0.635742	-0.183594	-0.919434	0.148886	-0.970429	-0.189978	0.00304693	0.581093	-2.88448	-9.26978	-0.0439187	-0.001875	-0.00870508	0.370361	0.179932	1.01636	
