40	Head	00b4120a												Throax	00b411e8												LUpArm	00b411d9												LFoArm	00b41148												RUpArm	00b411db												RFoArm	00b41204												Waist	00b411f7												Lthigh	00b411f4												Lshank	00b4111b												Rthigh	00b411c8												Rshank	00b411ee												
PacketCount	q0	q1	q2	q3	accX	accY	accZ	gyrX	gyrY	gyrZ	magX	magY	magZ	q0	q1	q2	q3	accX	accY	accZ	gyrX	gyrY	gyrZ	magX	magY	magZ	q0	q1	q2	q3	accX	accY	accZ	gyrX	gyrY	gyrZ	magX	magY	magZ	q0	q1	q2	q3	accX	accY	accZ	gyrX	gyrY	gyrZ	magX	magY	magZ	q0	q1	q2	q3	accX	accY	accZ	gyrX	gyrY	gyrZ	magX	magY	magZ	q0	q1	q2	q3	accX	accY	accZ	gyrX	gyrY	gyrZ	magX	magY	magZ	q0	q1	q2	q3	accX	accY	accZ	gyrX	gyrY	gyrZ	magX	magY	magZ	q0	q1	q2	q3	accX	accY	accZ	gyrX	gyrY	gyrZ	magX	magY	magZ	q0	q1	q2	q3	accX	accY	accZ	gyrX	gyrY	gyrZ	magX	magY	magZ	q0	q1	q2	q3	accX	accY	accZ	gyrX	gyrY	gyrZ	magX	magY	magZ	q0	q1	q2	q3	accX	accY	accZ	gyrX	gyrY	gyrZ	magX	magY	magZ	
0	0.256258	0.127397	-0.956814	0.0510797	4.27738	-0.316702	-7.57394	0.00242425	0.00105253	0.0182403	-0.697266	-0.117432	0.828369	0.0960436	0.0382102	-0.994566	-0.0124444	1.90151	0.400173	-9.46873	-0.0012031	0.00963614	-0.0151819	-0.459229	-0.151367	1.0105	0.936718	-0.283054	-0.205992	-0.00256412	4.31873	-5.49579	7.99609	-0.0810125	0.00212731	0.00429242	-0.252441	0.527344	-0.900879	0.813413	0.581137	-0.0204318	-0.0148809	0.117984	9.24635	3.17599	-0.000994469	-0.00341219	0.00328454	0.413574	-1.32764	-0.277832	0.959908	0.0325643	-0.226326	0.162152	4.33953	0.0357642	8.72126	0.0175219	-0.00592743	-0.00437639	-0.101318	-0.191895	-1.07202	0.755417	-0.279487	-0.236493	0.543419	0.642875	-8.30487	8.85504	0.0176735	0.0139683	-0.0231175	0.185303	0.726074	-0.973877	-0.423775	0.00658959	-0.891099	0.162215	-8.67887	0.18964	-3.9168	0.0204333	-0.00270527	-0.0234545	0.757568	-0.0854492	0.871338	0.930732	0.0275747	-0.0582343	-0.359981	5.4957	-2.75567	9.01655	0.01574	0.0252958	-0.00737871	-0.218262	0.351318	-1.00024	-0.0795493	0.409465	-0.908848	0.00236349	-1.29008	-0.0906355	-9.09326	0.00829728	0.00184553	-0.0206873	-0.260742	0.13208	1.07324	0.940038	0.23931	-0.218378	0.106627	5.01034	4.31233	7.984	-0.00293774	0.0277268	0.00329089	-0.166504	-0.563477	-0.994141	-0.0509366	0.110832	-0.989412	0.0786458	-0.924665	-1.02767	-9.69068	0.00884503	0.0054061	-0.00832896	-0.378174	0.191406	1.10645	
1	0.256471	0.127011	-0.956776	0.0516775	4.31914	-0.225997	-7.51617	0.00698099	0.0175804	0.00617447	-0.693115	-0.115234	0.830322	0.0960386	0.0380168	-0.994578	-0.0120486	1.86538	0.419723	-9.44249	0.00872718	0.0145067	-0.0118061	-0.456787	-0.159912	1.01538	0.93686	-0.28273	-0.20579	-0.00262525	4.31982	-5.5587	7.96471	0.00826353	0.00600612	-0.000790777	-0.256592	0.525391	-0.89624	0.813392	0.581166	-0.0205284	-0.0147841	0.107838	9.27212	3.16629	0.00521473	0.00320005	0.00808861	0.414062	-1.33423	-0.275635	0.959951	0.0325083	-0.226379	0.161835	4.38674	-0.246273	8.74917	-0.0198757	0.00567302	-0.0115689	-0.10376	-0.1875	-1.07642	0.755354	-0.279811	-0.236808	0.543201	0.626799	-8.37576	8.79586	-0.0146511	0.0128253	-0.0255157	0.181152	0.72168	-0.97583	-0.424448	0.00708267	-0.890681	0.162731	-8.66128	0.189896	-3.87826	0.0154618	-0.0187849	-0.0216649	0.757568	-0.0876465	0.866943	0.930758	0.0278959	-0.0580795	-0.359913	5.49054	-2.74467	9.02592	0.0151218	0.0214363	-0.0111456	-0.218506	0.353516	-1.00024	-0.0795903	0.409459	-0.908847	0.00233941	-1.29871	-0.105449	-9.0921	0.00802114	0.00174351	-0.0187401	-0.265625	0.138916	1.073	0.940134	0.239124	-0.218155	0.106659	5.01932	4.30978	7.94517	-0.00499274	0.0217196	0.000237744	-0.157715	-0.563477	-0.993896	-0.0509602	0.110878	-0.989373	0.0790627	-0.924657	-1.03457	-9.65555	0.0138501	0.00556592	-0.00601655	-0.384521	0.182373	1.10449	
2	0.256789	0.127014	-0.956688	0.0517143	4.30115	-0.196722	-7.55093	-0.000128758	0.0252325	-0.00298244	-0.699707	-0.115479	0.830322	0.0959277	0.0379336	-0.994594	-0.0118787	1.88217	0.356979	-9.44421	0.00633709	0.00408703	-0.011913	-0.458984	-0.153564	1.0105	0.936948	-0.282427	-0.205809	-0.00238287	4.32272	-5.50006	7.90009	0.0178021	0.000226374	0.00758817	-0.260742	0.520996	-0.89624	0.813524	0.580975	-0.0206467	-0.0148506	0.149138	9.20077	3.20575	-0.00294828	0.000228639	-0.00349351	0.418457	-1.33423	-0.275635	0.959911	0.0330401	-0.226415	0.161914	4.3554	0.025573	8.69257	0.0411627	-0.00130736	-0.016517	-0.0927734	-0.189697	-1.07202	0.755454	-0.279476	-0.236687	0.543288	0.681356	-8.25494	8.89207	0.0320807	0.00817712	-0.0193046	0.189453	0.728271	-0.980225	-0.424448	0.00708267	-0.890681	0.162731	-8.66128	0.189896	-3.87826	0.0154618	-0.0187849	-0.0216649	0.757568	-0.0876465	0.866943	0.930758	0.0278959	-0.0580795	-0.359913	5.49054	-2.74467	9.02592	0.0151218	0.0214363	-0.0111456	-0.218506	0.353516	-1.00024	-0.0796802	0.40968	-0.90874	0.00242462	-1.29408	-0.101808	-9.07669	0.00781327	-0.000550836	-0.0203985	-0.258789	0.136719	1.07324	0.940266	0.23889	-0.217903	0.106533	5.00505	4.29659	7.95719	-0.00859614	0.0155911	-0.00447131	-0.162109	-0.563477	-0.991699	-0.0509593	0.110897	-0.989363	0.0791518	-0.941665	-1.05889	-9.64663	0.0109327	0.00787194	-0.00563277	-0.380615	0.191162	1.10645	
3	0.257686	0.127117	-0.956432	0.0517491	4.31757	-0.245788	-7.5124	-0.00155556	0.0360904	-0.00759816	-0.701904	-0.115479	0.828125	0.0957407	0.0378465	-0.994615	-0.0119066	1.88567	0.411902	-9.43172	-0.00787735	0.00558017	-0.0191743	-0.459229	-0.14917	1.0105	0.936948	-0.282427	-0.205809	-0.00238287	4.32272	-5.50006	7.90009	0.0178021	0.000226374	0.00758817	-0.260742	0.520996	-0.89624	0.813529	0.580973	-0.0205202	-0.0148316	0.12576	9.28384	3.14251	-0.00641142	0.00391773	-0.00278491	0.413818	-1.33203	-0.282227	0.960006	0.0327043	-0.226223	0.161684	4.47656	-0.199568	8.88982	-0.0546472	0.0239537	-0.0152481	-0.097168	-0.189697	-1.06958	0.755305	-0.279677	-0.236718	0.543379	0.622478	-8.31819	8.85891	-0.0207726	0.0204415	-0.0117926	0.18335	0.719482	-0.971436	-0.424386	0.00707474	-0.890541	0.163655	-8.66576	0.200427	-3.85286	0.0239568	0.0110222	-0.0165947	0.761963	-0.0874023	0.86499	0.930758	0.0278959	-0.0580795	-0.359913	5.49054	-2.74467	9.02592	0.0151218	0.0214363	-0.0111456	-0.218506	0.353516	-1.00024	-0.0796373	0.409878	-0.908654	0.00230647	-1.3033	-0.109455	-9.07468	-0.00158976	0.00136662	-0.0183579	-0.256104	0.13208	1.07104	0.940225	0.238849	-0.218145	0.106493	5.00898	4.30307	7.96999	-0.00112832	-0.00415652	0.00236433	-0.162354	-0.559082	-0.994141	-0.0509478	0.110886	-0.989368	0.0791144	-0.923381	-1.0344	-9.65098	-9.26655e-05	0.00798887	-0.00542313	-0.382568	0.188965	1.11108	
4	0.2583	0.127156	-0.956255	0.0518558	4.31254	-0.217157	-7.52034	-0.00301271	0.0168902	-0.00215027	-0.699707	-0.115479	0.828125	0.0956386	0.0378005	-0.994625	-0.0120382	1.91864	0.41524	-9.43652	-0.0163561	0.0104108	-0.0203919	-0.454834	-0.151367	1.00806	0.937169	-0.281511	-0.206067	-0.00138761	4.30468	-5.50789	7.96655	0.02408	-0.00779214	0.0139334	-0.258789	0.525391	-0.89624	0.813567	0.580925	-0.0204181	-0.0147569	0.104879	9.25573	3.19023	0.00377781	0.0103298	0.00296659	0.416016	-1.33203	-0.277832	0.960009	0.0331222	-0.226203	0.161612	4.36489	0.0451671	8.81963	0.0462477	0.00801065	-0.0301148	-0.0969238	-0.191895	-1.06738	0.755353	-0.279351	-0.236542	0.543555	0.637504	-8.17882	8.96192	0.0302799	0.00436439	-0.0100926	0.189697	0.723877	-0.973877	-0.424262	0.00672489	-0.890659	0.16335	-8.67806	0.236673	-3.90316	0.0106462	0.0213888	-0.000971138	0.759521	-0.0854492	0.869141	0.930432	0.0281051	-0.057601	-0.360815	5.49776	-2.74461	9.01602	0.00179233	0.0119886	-0.0209792	-0.222656	0.351074	-0.993164	-0.0796291	0.409899	-0.908646	0.00221553	-1.28495	-0.0946221	-9.08265	0.0014255	0.00186454	-0.0209373	-0.265625	0.134277	1.07324	0.94001	0.239153	-0.218754	0.106462	4.97116	4.32977	7.94533	0.0176552	-0.0154601	0.0081331	-0.171143	-0.561523	-0.994141	-0.0509478	0.110886	-0.989368	0.0791144	-0.923381	-1.0344	-9.65098	-9.26655e-05	0.00798887	-0.00542313	-0.382568	0.188965	1.11108	
5	0.258622	0.127154	-0.956174	0.0517561	4.34123	-0.353378	-7.51117	-0.000244914	0.0146459	-0.00674827	-0.699463	-0.117432	0.830322	0.095486	0.0379251	-0.994633	-0.0122258	1.8438	0.406121	-9.48807	-0.0115001	0.000763988	-0.0259066	-0.457031	-0.151367	1.0105	0.937169	-0.281511	-0.206067	-0.00138761	4.30468	-5.50789	7.96655	0.02408	-0.00779214	0.0139334	-0.258789	0.525391	-0.89624	0.813523	0.580988	-0.0202015	-0.0149886	0.133921	9.25634	3.17358	0.00997533	0.00586623	-0.0162292	0.41626	-1.33423	-0.280029	0.960079	0.0327531	-0.22604	0.161495	4.41572	-0.0959081	8.78928	-0.049146	0.0101575	-0.0105091	-0.0991211	-0.189697	-1.07202	0.755273	-0.27965	-0.236693	0.543448	0.641112	-8.35905	8.85332	-0.0187418	0.0213073	-0.0166341	0.1875	0.723877	-0.980225	-0.424272	0.00667944	-0.890692	0.163145	-8.69572	0.201943	-3.84074	0.0071016	0.0129022	-0.0106622	0.757812	-0.0939941	0.869385	0.930379	0.0276214	-0.0577863	-0.36096	5.51377	-2.7143	9.02623	-0.0102592	-0.0030615	-0.0182194	-0.2229	0.355469	-0.998047	-0.0796291	0.409899	-0.908646	0.00221553	-1.28495	-0.0946221	-9.08265	0.0014255	0.00186454	-0.0209373	-0.265625	0.134277	1.07324	0.939704	0.239684	-0.219364	0.106716	5.02454	4.33541	7.96407	0.0242224	-0.0193939	0.013178	-0.168701	-0.563477	-0.994141	-0.0507803	0.111195	-0.989357	0.07893	-0.943808	-1.04114	-9.65057	-0.00421482	0.00189012	-0.00636432	-0.380371	0.188965	1.10889	
6	0.258797	0.127331	-0.956094	0.0519133	4.26072	-0.305097	-7.4828	0.0141047	0.0146201	-0.0129225	-0.697266	-0.117432	0.828369	0.0952404	0.0379971	-0.994653	-0.0122718	1.9021	0.428499	-9.51959	-0.00981254	-0.00753184	-0.0264706	-0.458984	-0.153564	1.0083	0.937306	-0.28084	-0.206362	-0.000650505	4.34677	-5.53865	7.96804	0.0182181	-0.00761162	0.0101083	-0.256592	0.518799	-0.903076	0.81358	0.580915	-0.020092	-0.0149078	0.110734	9.31609	3.12712	-0.0117789	0.00735403	0.00611566	0.418457	-1.33643	-0.277832	0.960109	0.0333436	-0.225906	0.161387	4.34813	0.062218	8.79667	0.0360628	0.0151055	-0.0212244	-0.103516	-0.191895	-1.07422	0.75532	-0.279354	-0.236528	0.543606	0.648916	-8.16729	8.97067	0.017552	0.00867684	-0.0110723	0.185303	0.723877	-0.97168	-0.424051	0.00665488	-0.890832	0.162956	-8.64782	0.229287	-3.86603	0.00968273	0.0187938	-0.0108048	0.759521	-0.0854492	0.866943	0.930379	0.0276214	-0.0577863	-0.36096	5.51377	-2.7143	9.02623	-0.0102592	-0.0030615	-0.0182194	-0.2229	0.355469	-0.998047	-0.0798204	0.410612	-0.908306	0.00255553	-1.3006	-0.0959297	-9.09258	0.00871385	-0.000396169	-0.0212007	-0.263428	0.136719	1.0686	0.939477	0.239828	-0.220062	0.106951	4.99993	4.33307	7.92642	0.0109801	-0.0132589	0.0176331	-0.166748	-0.561279	-0.996338	-0.0508271	0.111263	-0.989363	0.078729	-0.931367	-1.02984	-9.66799	-0.00210703	0.00602964	-0.00942795	-0.382568	0.186768	1.11108	
7	0.258177	0.127618	-0.956206	0.0522397	4.37135	-0.230404	-7.49834	0.0133326	-0.0184798	-0.00394406	-0.699707	-0.115479	0.828125	0.0951239	0.038368	-0.994646	-0.012618	1.87579	0.407653	-9.42232	-0.0130634	0.0116754	-0.0252257	-0.45459	-0.155762	1.01538	0.937306	-0.28084	-0.206362	-0.000650505	4.34677	-5.53865	7.96804	0.0182181	-0.00761162	0.0101083	-0.256592	0.518799	-0.903076	0.813622	0.580856	-0.0200238	-0.0149809	0.116369	9.16379	3.20838	-0.0032735	0.00293436	-0.00774511	0.42041	-1.33203	-0.277832	0.960189	0.0328787	-0.225811	0.161136	4.35155	-0.157549	8.84493	-0.0463306	0.00248357	-0.0171946	-0.097168	-0.189697	-1.07202	0.755125	-0.279676	-0.236709	0.543632	0.622655	-8.33554	8.82104	-0.00949884	0.0144553	-0.0137446	0.1875	0.726074	-0.978027	-0.424074	0.00661526	-0.89086	0.162746	-8.62467	0.204208	-3.84357	0.00658287	0.0117165	-0.0106247	0.763916	-0.0854492	0.866943	0.930379	0.0276214	-0.0577863	-0.36096	5.51377	-2.7143	9.02623	-0.0102592	-0.0030615	-0.0182194	-0.2229	0.355469	-0.998047	-0.0798174	0.410585	-0.908319	0.00255491	-1.30163	-0.0998864	-9.07562	0.0114273	0.00159813	-0.0194489	-0.263184	0.134277	1.07324	0.93938	0.239919	-0.220334	0.107036	5.01418	4.30595	7.92516	0.0116068	-0.0101087	0.0136118	-0.168945	-0.559082	-0.991943	-0.0508666	0.111331	-0.989347	0.0788098	-0.918728	-1.03543	-9.67499	0.0101019	0.00476137	-0.0104258	-0.380615	0.191162	1.10645	
8	0.25784	0.127753	-0.956279	0.0522316	4.36976	-0.209683	-7.52486	-0.00396637	-0.0162604	-0.00647452	-0.69751	-0.115234	0.828125	0.0950672	0.0384723	-0.994646	-0.0126871	1.84007	0.404566	-9.43367	-0.0117725	0.0079667	-0.0290676	-0.457031	-0.153564	1.0083	0.937306	-0.28084	-0.206362	-0.000650505	4.34677	-5.53865	7.96804	0.0182181	-0.00761162	0.0101083	-0.256592	0.518799	-0.903076	0.813395	0.581184	-0.0197389	-0.014983	0.110348	9.28947	3.14014	0.0171804	0.00955412	-0.00716848	0.416016	-1.33203	-0.282227	0.960148	0.0330534	-0.225988	0.161097	4.28043	-0.0202173	8.74886	0.00970383	-0.00822543	-0.0184859	-0.101562	-0.185303	-1.07422	0.755113	-0.27948	-0.236721	0.543746	0.659911	-8.27529	8.88609	0.0161634	0.00226349	-0.0125778	0.181152	0.72168	-0.978027	-0.423987	0.00660197	-0.89091	0.162701	-8.66252	0.233422	-3.87588	0.00857893	0.0100133	-0.00974273	0.755615	-0.0917969	0.867188	0.930379	0.0276214	-0.0577863	-0.36096	5.51377	-2.7143	9.02623	-0.0102592	-0.0030615	-0.0182194	-0.2229	0.355469	-0.998047	-0.0799011	0.410783	-0.908221	0.00274281	-1.29597	-0.0902285	-9.07477	0.0117601	0.00156446	-0.019203	-0.263428	0.136475	1.07544	0.939183	0.240247	-0.220672	0.107332	5.03954	4.33282	7.91613	0.0172937	-0.00722559	0.0136432	-0.168701	-0.563477	-0.991699	-0.0508962	0.111441	-0.989343	0.0786854	-0.928438	-1.02634	-9.65762	-0.00239435	0.00104265	-0.00494552	-0.37793	0.182373	1.11572	
9	0.257752	0.127865	-0.956289	0.0522005	4.33987	-0.292682	-7.53434	0.000767322	-0.00912108	-0.0101898	-0.702148	-0.108887	0.825928	0.0948254	0.0386023	-0.994663	-0.0127784	1.84108	0.405639	-9.47865	-0.0138291	0.00713959	-0.0252303	-0.459229	-0.14917	1.01514	0.936475	-0.282867	-0.207366	-0.000688913	4.31876	-5.50541	7.96176	-0.0412979	-0.0205229	0.00242266	-0.258789	0.529785	-0.896484	0.81342	0.581156	-0.0195264	-0.0149909	0.111416	9.26904	3.16331	0.00431058	0.00775153	-0.0060337	0.41626	-1.33423	-0.277832	0.960246	0.0337237	-0.225582	0.160943	4.53377	-0.237799	8.86707	-0.0251877	0.0238235	-0.0127422	-0.0991211	-0.194092	-1.07886	0.754969	-0.279456	-0.236807	0.54392	0.641354	-8.34818	8.85084	-0.00757237	0.0144662	-0.0175142	0.1875	0.723877	-0.973877	-0.424133	0.00659768	-0.890884	0.162461	-8.6668	0.180028	-3.88114	0.0161856	0.00768905	-0.0185457	0.757568	-0.0895996	0.871338	0.930379	0.0276214	-0.0577863	-0.36096	5.51377	-2.7143	9.02623	-0.0102592	-0.0030615	-0.0182194	-0.2229	0.355469	-0.998047	-0.0800184	0.410703	-0.908247	0.00283772	-1.29637	-0.110281	-9.09694	0.0135616	0.000782943	-0.0173763	-0.256348	0.138916	1.07544	0.938947	0.240557	-0.221239	0.107532	5.08755	4.29967	7.91313	0.0169788	-0.0144634	0.0131703	-0.17749	-0.565918	-0.996338	-0.0509589	0.111505	-0.989331	0.078708	-0.933176	-1.03255	-9.6495	0.00633805	0.00338248	-0.00879755	-0.384521	0.182373	1.12036	
10	0.257463	0.127911	-0.956346	0.052472	4.30743	-0.239846	-7.5337	0.0129825	-0.0165155	0.00431629	-0.69751	-0.111084	0.828125	0.0945677	0.0385418	-0.99469	-0.0127754	1.89693	0.422064	-9.40589	-0.0131569	0.00993766	-0.0198362	-0.458984	-0.157959	1.01074	0.936054	-0.284067	-0.207624	-0.000731632	4.354	-5.54932	7.92734	-0.0463522	-0.00999304	0.00684858	-0.258789	0.529785	-0.891846	0.813452	0.581117	-0.0193676	-0.0149836	0.0939179	9.31811	3.13677	5.41186e-05	0.00880319	-8.24669e-05	0.418213	-1.32983	-0.280029	0.960213	0.0332511	-0.225768	0.16098	4.33053	0.0659519	8.7366	-0.00121877	0.00703285	-0.0199979	-0.0991211	-0.191895	-1.07202	0.755104	-0.279277	-0.236485	0.543964	0.631385	-8.17865	8.95655	0.0199183	0.0179525	-0.0113928	0.1875	0.723877	-0.978027	-0.424104	0.00652192	-0.890915	0.16237	-8.67332	0.2394	-3.90771	0.0162747	0.0160646	-0.0126365	0.76001	-0.0939941	0.867188	0.930379	0.0276214	-0.0577863	-0.36096	5.51377	-2.7143	9.02623	-0.0102592	-0.0030615	-0.0182194	-0.2229	0.355469	-0.998047	-0.0801006	0.410689	-0.908246	0.00286816	-1.28903	-0.0832253	-9.10439	0.0128816	-0.000629973	-0.0195977	-0.256348	0.138916	1.07764	0.938855	0.240599	-0.221573	0.107554	5.07267	4.34763	7.8845	0.00597321	-0.0146182	0.0105015	-0.170898	-0.568115	-0.991699	-0.0510019	0.11156	-0.989326	0.0786616	-0.916549	-1.02945	-9.65479	0.000923225	0.00418023	-0.0063871	-0.382568	0.18457	1.10889	
11	0.257172	0.127882	-0.956406	0.0528779	4.31725	-0.228547	-7.54079	0.0173141	-0.00772166	0.00265002	-0.699463	-0.117432	0.830322	0.094461	0.0384396	-0.994703	-0.012826	1.87124	0.437959	-9.46308	-0.00765078	0.0103133	-0.0121986	-0.458984	-0.153564	1.01294	0.935632	-0.285024	-0.208214	-0.000578523	4.34916	-5.56639	7.9247	-0.0237852	-0.0163992	0.00558219	-0.256592	0.529541	-0.894287	0.813452	0.581117	-0.0193676	-0.0149836	0.0939179	9.31811	3.13677	5.41186e-05	0.00880319	-8.24669e-05	0.418213	-1.32983	-0.280029	0.960265	0.03283	-0.225626	0.160953	4.39771	-0.143257	8.73423	-0.0465669	0.0136146	-0.00440215	-0.0949707	-0.189697	-1.07886	0.754944	-0.279725	-0.236661	0.543879	0.632172	-8.3624	8.84524	-0.0228173	0.0188844	-0.0178995	0.191895	0.723877	-0.973877	-0.422721	0.00620887	-0.891413	0.163252	-8.62709	0.19931	-3.85842	0.0289625	0.0439778	-0.0153477	0.757568	-0.0895996	0.873535	0.930379	0.0276214	-0.0577863	-0.36096	5.51377	-2.7143	9.02623	-0.0102592	-0.0030615	-0.0182194	-0.2229	0.355469	-0.998047	-0.0801006	0.410689	-0.908246	0.00286816	-1.28903	-0.0832253	-9.10439	0.0128816	-0.000629973	-0.0195977	-0.256348	0.138916	1.07764	0.938855	0.240599	-0.221573	0.107554	5.07267	4.34763	7.8845	0.00597321	-0.0146182	0.0105015	-0.170898	-0.568115	-0.991699	-0.0509002	0.111711	-0.989328	0.0784818	-0.93674	-1.02041	-9.65496	-0.00403285	0.0043428	-0.00544773	-0.382568	0.188965	1.11108	
12	0.257	0.127824	-0.956455	0.052965	4.33138	-0.332127	-7.5282	-0.000713088	-0.00478995	0.00104322	-0.699707	-0.115479	0.828125	0.0945018	0.0384382	-0.9947	-0.012791	1.85888	0.423625	-9.48036	-0.00364825	0.0139912	-0.0213921	-0.457031	-0.153564	1.01514	0.935798	-0.28422	-0.208567	-0.00028349	4.40523	-5.59912	7.9648	0.0295485	-0.0213767	0.00623981	-0.260986	0.529785	-0.891846	0.813587	0.580938	-0.0191062	-0.0149112	0.0974314	9.29365	3.1419	0.0101463	0.0137955	-0.00627853	0.418457	-1.33643	-0.277832	0.960302	0.0323646	-0.225622	0.160835	4.42064	-0.104841	8.95643	-0.00277369	0.0196522	-0.0191326	-0.0905762	-0.189697	-1.07202	0.754982	-0.279667	-0.236481	0.543936	0.616359	-8.17772	8.95609	0.00994867	0.0189294	-0.0131413	0.1875	0.726074	-0.97168	-0.422705	0.00615098	-0.891434	0.163179	-8.68727	0.221052	-3.88715	0.017084	0.0145022	-0.0144571	0.757812	-0.0917969	0.871338	0.930379	0.0276214	-0.0577863	-0.36096	5.51377	-2.7143	9.02623	-0.0102592	-0.0030615	-0.0182194	-0.2229	0.355469	-0.998047	-0.0803526	0.411274	-0.907957	0.00325703	-1.30501	-0.109698	-9.09094	0.00697161	0.000877175	-0.0195706	-0.260986	0.134277	1.07544	0.938493	0.241033	-0.222555	0.10772	5.09136	4.34933	7.88589	0.00838801	-0.00862038	0.00600007	-0.175537	-0.559326	-0.987305	-0.0509437	0.111728	-0.989334	0.0783575	-0.934385	-1.03366	-9.67295	-0.00636768	0.00287801	-0.00617133	-0.378174	0.186768	1.11108	
13	0.257071	0.128141	-0.956368	0.0534326	4.30776	-0.375753	-7.55853	0.0320196	0.00501728	-0.0100391	-0.699707	-0.115479	0.828125	0.094478	0.0384534	-0.994702	-0.0127853	1.88028	0.439657	-9.46575	-0.00863218	0.0125105	-0.0225994	-0.461182	-0.153564	1.0105	0.935599	-0.284837	-0.208619	3.81395e-05	4.40557	-5.63921	7.82759	-0.0190357	-0.0044427	0.0179479	-0.258789	0.527588	-0.896484	0.813866	0.580549	-0.0190907	-0.0148717	0.126773	9.2395	3.16999	-0.0199907	0.00136278	-0.000532395	0.422607	-1.32983	-0.282227	0.960278	0.0328026	-0.225378	0.16123	4.32368	0.142707	8.66895	0.0366571	0.0102996	-0.0107735	-0.0949707	-0.1875	-1.07642	0.755083	-0.279655	-0.23642	0.543827	0.635984	-8.29332	8.86986	0.0182275	0.0139012	-0.0173779	0.185303	0.726074	-0.978027	-0.422705	0.00615098	-0.891434	0.163179	-8.68727	0.221052	-3.88715	0.017084	0.0145022	-0.0144571	0.757812	-0.0917969	0.871338	0.928923	0.0272933	-0.0572152	-0.364806	5.53473	-2.75144	8.98802	-0.00279484	0.00249446	-0.0221694	-0.229492	0.362061	-0.99585	-0.0803868	0.411324	-0.907932	0.00319509	-1.30126	-0.106094	-9.08026	0.00551849	0.00163257	-0.0211375	-0.263428	0.141113	1.073	0.938401	0.241137	-0.222806	0.107765	5.09563	4.29611	7.89798	0.0120342	-0.00871235	0.00990433	-0.177734	-0.563721	-0.994141	-0.0507864	0.111908	-0.98933	0.0782517	-0.933181	-1.02531	-9.66681	-0.00237495	0.00610561	-0.00690654	-0.371094	0.184814	1.11792	
14	0.256914	0.128472	-0.956293	0.0547192	4.28497	-0.411246	-7.47722	0.0620673	-0.000573475	0.00318504	-0.695312	-0.113281	0.83252	0.0947895	0.0387303	-0.994661	-0.0128401	1.85603	0.433598	-9.46853	-0.00927559	0.0247595	-0.0332562	-0.45459	-0.155762	1.01294	0.935999	-0.283693	-0.208385	0.000314096	4.36251	-5.64628	7.8268	0.105543	0.0237141	0.008786	-0.260986	0.525391	-0.894043	0.813587	0.580956	-0.0186096	-0.014847	0.09521	9.26841	3.17269	0.0210048	0.0161972	-0.0110401	0.411865	-1.33643	-0.273438	0.960403	0.0320978	-0.225157	0.160936	4.41692	-0.261199	9.01768	-0.0438538	0.0246151	-0.011804	-0.0927734	-0.185303	-1.07422	0.755029	-0.279641	-0.236218	0.543998	0.59607	-8.27361	8.89057	-0.00392881	0.024379	-0.0132814	0.187256	0.728271	-0.978271	-0.419542	0.00523041	-0.892761	0.16412	-8.63747	0.227238	-3.91878	0.0250017	0.0737138	-0.00691041	0.744629	-0.0876465	0.871338	0.928923	0.0272933	-0.0572152	-0.364806	5.53473	-2.75144	8.98802	-0.00279484	0.00249446	-0.0221694	-0.229492	0.362061	-0.99585	-0.0804441	0.4113	-0.907938	0.00321513	-1.31597	-0.10591	-9.09595	0.0111669	4.24451e-05	-0.0192052	-0.256348	0.134521	1.07544	0.938299	0.241345	-0.222962	0.107868	5.06233	4.3334	7.88991	0.0109337	-0.000772874	0.00525919	-0.175293	-0.570312	-0.991699	-0.0509406	0.111882	-0.989347	0.0779724	-0.94602	-1.01261	-9.65832	-0.010121	0.000911933	-0.00232678	-0.382568	0.18457	1.10669	
15	0.256728	0.128639	-0.95627	0.055593	4.2456	-0.321084	-7.4638	0.0720492	-0.0066686	0.00501121	-0.697754	-0.106689	0.838867	0.0948331	0.0388325	-0.994653	-0.0128422	1.86656	0.417901	-9.45865	-0.00683971	0.0160162	-0.0282626	-0.454834	-0.153564	1.01514	0.936167	-0.283045	-0.208506	0.00102514	4.35097	-5.54903	7.97797	0.0354063	-0.00813785	0.0209352	-0.260986	0.525391	-0.898682	0.813821	0.580625	-0.0186897	-0.0148811	0.0732746	9.32655	3.13878	-0.029816	0.00130508	0.00363025	0.417969	-1.32764	-0.284424	0.960381	0.0322066	-0.225159	0.161038	4.33862	-0.309175	8.69823	0.00974781	0.00649125	-0.00678707	-0.0974121	-0.180908	-1.08105	0.755245	-0.279321	-0.235988	0.543962	0.609867	-8.3722	8.82412	0.0366569	0.0193829	-0.0285003	0.19165	0.728271	-0.980225	-0.419121	0.00514864	-0.892951	0.164164	-8.65877	0.212784	-3.9084	0.0119133	0.0247791	-0.0110725	0.751221	-0.0898438	0.871338	0.928923	0.0272933	-0.0572152	-0.364806	5.53473	-2.75144	8.98802	-0.00279484	0.00249446	-0.0221694	-0.229492	0.362061	-0.99585	-0.0804441	0.4113	-0.907938	0.00321513	-1.31597	-0.10591	-9.09595	0.0111669	4.24451e-05	-0.0192052	-0.256348	0.134521	1.07544	0.938299	0.241345	-0.222962	0.107868	5.06233	4.3334	7.88991	0.0109337	-0.000772874	0.00525919	-0.175293	-0.570312	-0.991699	-0.0509402	0.111894	-0.989356	0.0778457	-0.956171	-1.0063	-9.65164	-0.00678279	0.00610478	-0.00559614	-0.375732	0.182373	1.10889	
16	0.255747	0.129111	-0.956426	0.0563266	4.44563	-0.195247	-7.53484	0.00231017	-0.0194991	-0.0123871	-0.695801	-0.104492	0.83667	0.0950139	0.0389334	-0.994637	-0.0123936	1.84347	0.400584	-9.39747	0.00769199	0.010987	-0.0196633	-0.452637	-0.151367	1.0105	0.934991	-0.286524	-0.209033	0.000510388	4.30117	-5.49995	7.90658	-0.106413	-0.00332502	-0.00213469	-0.260986	0.531982	-0.889648	0.813704	0.580795	-0.0183645	-0.0150655	0.0645069	9.3221	3.12369	-0.00268493	0.00275888	-0.0111332	0.413818	-1.32983	-0.282227	0.960453	0.0326355	-0.224766	0.161075	4.44771	-0.157369	8.85886	-0.0428368	0.0184706	-0.00556574	-0.090332	-0.191895	-1.07422	0.75547	-0.279026	-0.23556	0.543987	0.628481	-8.35426	8.83198	-0.017064	0.019494	-0.018381	0.185547	0.72168	-0.97583	-0.417721	0.00456199	-0.893614	0.16414	-8.60257	0.202752	-3.9694	0.01363	0.0243874	-0.00848709	0.742676	-0.0898438	0.877686	0.928923	0.0272933	-0.0572152	-0.364806	5.53473	-2.75144	8.98802	-0.00279484	0.00249446	-0.0221694	-0.229492	0.362061	-0.99585	-0.0807248	0.411657	-0.907749	0.0035756	-1.29981	-0.105135	-9.07722	0.0150181	-0.00108634	-0.0218122	-0.258789	0.138916	1.07324	0.938121	0.241472	-0.223474	0.108069	5.10907	4.28834	7.89639	0.0113397	-0.00607255	0.00905779	-0.175537	-0.561523	-0.987305	-0.0509124	0.112028	-0.989352	0.0777143	-0.948976	-1.00399	-9.6616	0.00534928	0.00550324	-0.00971328	-0.380371	0.186768	1.10425	
17	0.255821	0.129209	-0.956398	0.0562351	4.38829	-0.226675	-7.55696	-0.00590714	0.00371921	-0.0117473	-0.693359	-0.108887	0.83252	0.0950139	0.0389334	-0.994637	-0.0123936	1.84347	0.400584	-9.39747	0.00769199	0.010987	-0.0196633	-0.452637	-0.151367	1.0105	0.934693	-0.287349	-0.209233	0.000460447	4.36183	-5.56904	7.93982	-0.0625691	-0.0128534	0.0078613	-0.263184	0.53833	-0.889893	0.813854	0.580583	-0.0183496	-0.0151368	0.100912	9.2429	3.17494	-0.0176611	0.00431579	-0.00383467	0.416016	-1.33203	-0.284424	0.960469	0.0325926	-0.224763	0.160991	4.2582	-0.011361	8.71703	-0.00581242	0.0089104	-0.0190642	-0.0927734	-0.189697	-1.07422	0.755566	-0.278733	-0.235405	0.54407	0.636502	-8.2819	8.88997	0.0311352	0.0111085	-0.0172231	0.1875	0.723877	-0.978027	-0.417621	0.00450126	-0.893692	0.16397	-8.60873	0.194806	-3.96056	0.00946411	0.0224795	-0.0122614	0.751221	-0.0917969	0.877686	0.928923	0.0272933	-0.0572152	-0.364806	5.53473	-2.75144	8.98802	-0.00279484	0.00249446	-0.0221694	-0.229492	0.362061	-0.99585	-0.0808032	0.411638	-0.907751	0.00362262	-1.32516	-0.111358	-9.05955	0.0140944	-0.00012339	-0.0191951	-0.263428	0.136475	1.07544	0.93804	0.241568	-0.223687	0.108121	5.09418	4.32682	7.93128	0.0115221	-0.00584608	0.00974845	-0.179932	-0.565918	-0.989502	-0.050954	0.112055	-0.989348	0.0777018	-0.91189	-1.02361	-9.6615	0.00217544	0.00353829	-0.00848806	-0.380127	0.182373	1.11353	
18	0.256013	0.129258	-0.95635	0.0560811	4.34139	-0.355748	-7.5155	-0.00262618	0.00612412	-0.00302401	-0.699951	-0.106689	0.834473	0.0950153	0.0394119	-0.994616	-0.0126005	1.88046	0.396926	-9.42335	-0.00326985	0.00819955	-0.0194995	-0.454834	-0.153564	1.0105	0.934693	-0.287349	-0.209233	0.000460447	4.36183	-5.56904	7.93982	-0.0625691	-0.0128534	0.0078613	-0.263184	0.53833	-0.889893	0.813878	0.580558	-0.0181101	-0.0150844	0.0690538	9.28323	3.16156	0.000202241	0.0117218	-0.00348303	0.416016	-1.33203	-0.282227	0.960561	0.0328922	-0.224379	0.160916	4.48768	-0.161615	8.97686	-0.00874632	0.0344193	-0.0159055	-0.0969238	-0.194092	-1.07202	0.755516	-0.278611	-0.23531	0.544243	0.615626	-8.23716	8.94608	-0.000353961	0.0172251	-0.0142989	0.191895	0.723877	-0.978027	-0.416256	0.00411353	-0.894282	0.164238	-8.59872	0.234448	-4.01598	0.0222804	0.0672459	-0.00995776	0.744629	-0.0876465	0.879883	0.928923	0.0272933	-0.0572152	-0.364806	5.53473	-2.75144	8.98802	-0.00279484	0.00249446	-0.0221694	-0.229492	0.362061	-0.99585	-0.0807625	0.411816	-0.907674	0.00354189	-1.29765	-0.114814	-9.08857	5.29332e-05	0.00172915	-0.0170997	-0.258545	0.134277	1.07324	0.937944	0.241682	-0.223916	0.108228	5.12859	4.32584	7.86836	0.00684828	-0.00309574	0.00680113	-0.177734	-0.563721	-0.989502	-0.0510288	0.112118	-0.989345	0.0775979	-0.953708	-1.00077	-9.66414	0.000393589	0.00585337	-0.00951586	-0.375977	0.191406	1.11108	
19	0.25623	0.129162	-0.956275	0.0565842	4.26862	-0.281075	-7.5295	0.0215249	0.00553465	0.00994385	-0.699951	-0.108887	0.834717	0.0949481	0.0392726	-0.994632	-0.0122745	1.88813	0.427513	-9.45394	-0.00349317	0.0120856	-0.0199657	-0.463623	-0.14917	1.0127	0.93383	-0.289765	-0.209754	0.000663754	4.36163	-5.68902	7.79149	-0.05545	-0.0156961	0.0148694	-0.260986	0.53833	-0.889893	0.814091	0.58025	-0.0183168	-0.0151421	0.0663781	9.27722	3.18075	-7.16877e-05	-0.00301294	0.00495664	0.42041	-1.32764	-0.282227	0.960547	0.0330804	-0.224353	0.161002	4.25891	0.215796	8.75033	0.0349007	0.0062285	-0.023993	-0.0949707	-0.189697	-1.07422	0.75568	-0.278296	-0.235074	0.544279	0.631749	-8.2039	8.95498	0.0338145	0.00745613	-0.0136039	0.187744	0.72168	-0.978027	-0.415103	0.00375909	-0.894788	0.164408	-8.57031	0.212072	-3.98665	0.0187906	0.0580445	-0.00814319	0.742676	-0.0898438	0.879883	0.928923	0.0272933	-0.0572152	-0.364806	5.53473	-2.75144	8.98802	-0.00279484	0.00249446	-0.0221694	-0.229492	0.362061	-0.99585	-0.0807627	0.411858	-0.907655	0.00347814	-1.31466	-0.114936	-9.06246	0.00361907	0.00188329	-0.0225276	-0.253906	0.132324	1.06665	0.937758	0.241958	-0.224345	0.108333	5.11271	4.34181	7.86635	0.0192821	-0.00366859	0.00881697	-0.184082	-0.57251	-0.993896	-0.0510366	0.112114	-0.989346	0.0775898	-0.931075	-1.00212	-9.65785	0.00194864	0.00713878	-0.00741199	-0.378174	0.188965	1.10205	
20	0.256199	0.128672	-0.956338	0.0567705	4.30964	-0.442827	-7.57484	0.00573095	-0.00129811	0.0166119	-0.699951	-0.108887	0.83252	0.0950621	0.0393267	-0.994621	-0.0120415	1.85362	0.426319	-9.47177	-0.00395478	0.0176556	-0.0227479	-0.458984	-0.153564	1.01294	0.933967	-0.28949	-0.209527	0.00047202	4.40273	-5.71656	7.70255	0.0268595	0.0295012	-0.0117022	-0.259033	0.536133	-0.889893	0.813957	0.580439	-0.0182122	-0.0152698	0.0772452	9.3213	3.14113	0.021758	0.00926051	-0.00772173	0.42041	-1.33203	-0.277832	0.960696	0.0329033	-0.223821	0.160887	4.39091	-0.257815	8.91136	-0.00749189	0.0294302	-0.0119489	-0.0949707	-0.189697	-1.06958	0.7555	-0.278576	-0.235202	0.54433	0.612621	-8.35548	8.84952	-0.024126	0.0188162	-0.0148739	0.187744	0.719482	-0.97998	-0.415103	0.00375909	-0.894788	0.164408	-8.57031	0.212072	-3.98665	0.0187906	0.0580445	-0.00814319	0.742676	-0.0898438	0.879883	0.928923	0.0272933	-0.0572152	-0.364806	5.53473	-2.75144	8.98802	-0.00279484	0.00249446	-0.0221694	-0.229492	0.362061	-0.99585	-0.0808442	0.412278	-0.907457	0.00357993	-1.30728	-0.105518	-9.0832	0.00526741	0.000118335	-0.0192677	-0.263184	0.13208	1.07544	0.937601	0.242228	-0.224591	0.10858	5.13997	4.37185	7.90982	0.0110199	0.00581072	0.0140592	-0.17749	-0.565918	-0.989502	-0.0510238	0.112239	-0.989331	0.0776101	-0.929008	-1.00308	-9.65795	0.00175506	0.00367549	-0.00899071	-0.382568	0.18457	1.11108	
21	0.255906	0.128935	-0.956343	0.0574139	4.27259	-0.431083	-7.54646	0.0355031	-0.0191567	-0.00962893	-0.697998	-0.104492	0.834473	0.0950542	0.0395303	-0.994609	-0.0124679	1.92725	0.404033	-9.49399	-0.0203496	0.00991868	-0.0289334	-0.45459	-0.155762	1.01294	0.933809	-0.290352	-0.209037	0.000190714	4.3829	-5.7088	7.76417	-0.0740116	0.0127635	0.00707718	-0.26123	0.540527	-0.889893	0.814056	0.580298	-0.0182538	-0.015307	0.101056	9.19195	3.23768	0.00509494	-0.000261773	-3.89392e-05	0.424805	-1.32983	-0.282227	0.96072	0.033841	-0.223616	0.160836	4.35538	0.0339822	8.87803	0.0534485	0.013081	-0.0292004	-0.0925293	-0.191895	-1.07642	0.755619	-0.277998	-0.234857	0.54461	0.652833	-8.10296	9.06424	0.0328182	0.00518385	-0.00593003	0.185547	0.719482	-0.982178	-0.41508	0.00384182	-0.894756	0.164635	-8.61417	0.231203	-4.19648	0.0133474	0.0167651	-0.0141323	0.744873	-0.092041	0.877686	0.928923	0.0272933	-0.0572152	-0.364806	5.53473	-2.75144	8.98802	-0.00279484	0.00249446	-0.0221694	-0.229492	0.362061	-0.99585	-0.0808111	0.412458	-0.907378	0.0036253	-1.31409	-0.110192	-9.08096	0.00498652	0.00358585	-0.0170742	-0.260986	0.138916	1.07324	0.937557	0.242228	-0.22468	0.108772	5.11688	4.33038	7.81785	0.00456802	0.00983331	0.0118239	-0.184326	-0.565918	-0.987061	-0.0510188	0.11235	-0.989327	0.0775028	-0.933147	-0.99801	-9.66074	0.00593504	0.00662484	-0.00820628	-0.37793	0.18457	1.10889	
22	0.254969	0.129744	-0.956379	0.0591346	4.40033	-0.38524	-7.54392	0.0931027	-0.0296064	-0.0104982	-0.693604	-0.102295	0.830322	0.0953862	0.0395329	-0.994577	-0.0124282	1.89321	0.443802	-9.34764	-0.00513272	0.0275222	-0.0181225	-0.45459	-0.155762	1.0083	0.934975	-0.287938	-0.207155	-0.000407958	4.31459	-5.70832	7.79509	0.183356	0.116403	-0.025904	-0.260986	0.53418	-0.889648	0.813934	0.580462	-0.0181731	-0.0156349	0.071583	9.36536	3.14719	-0.00669908	-0.0081749	-0.0139636	0.422852	-1.33203	-0.282227	0.960745	0.033613	-0.22358	0.160783	4.30729	-0.0897583	8.78534	-0.0311744	0.00546562	-0.00933591	-0.0969238	-0.194092	-1.07422	0.755602	-0.278394	-0.234977	0.544379	0.633326	-8.37729	8.78969	-0.0018573	0.0247494	-0.0270832	0.189697	0.72168	-0.980225	-0.414411	0.00358116	-0.895096	0.164481	-8.52301	0.230814	-3.99196	0.0122226	0.00197753	-0.0148132	0.742676	-0.092041	0.875732	0.928923	0.0272933	-0.0572152	-0.364806	5.53473	-2.75144	8.98802	-0.00279484	0.00249446	-0.0221694	-0.229492	0.362061	-0.99585	-0.0807831	0.412447	-0.907386	0.003594	-1.30518	-0.114041	-9.07329	0.00481235	0.00483581	-0.0192724	-0.258789	0.136719	1.07324	0.937437	0.242355	-0.224908	0.109051	5.09901	4.31547	7.85531	0.0117861	0.00251556	0.0157602	-0.184082	-0.568115	-0.993896	-0.0510667	0.112372	-0.989325	0.0774658	-0.941921	-1.00826	-9.64384	0.000555199	0.00343798	-0.00737729	-0.380127	0.180176	1.10889	
23	0.254239	0.129564	-0.956417	0.0619832	4.22001	-0.354035	-7.49866	0.110253	-0.0161054	0.0539133	-0.696045	-0.0979004	0.838867	0.0954292	0.0394703	-0.994578	-0.0122159	1.91081	0.388916	-9.4768	0.00980967	0.0103902	-0.0147585	-0.454834	-0.151367	1.00806	0.937188	-0.28151	-0.205988	0.000200378	4.26589	-5.5197	8.10123	0.263288	0.0333555	-0.01415	-0.256592	0.520996	-0.898438	0.813954	0.580433	-0.0180786	-0.0158177	0.0757679	9.17962	3.20375	-0.000170465	-0.000263114	-0.0161964	0.422607	-1.32764	-0.277832	0.960771	0.0347868	-0.223274	0.160801	4.32922	-0.0815172	8.92218	0.0640032	0.0230358	-0.0244011	-0.090332	-0.196289	-1.07202	0.755933	-0.277826	-0.234556	0.544391	0.620336	-8.16298	8.9919	0.0316423	0.0103763	-0.0154439	0.187744	0.717285	-0.982178	-0.414671	0.003598	-0.894992	0.164389	-8.57006	0.231469	-4.02496	0.0149254	-0.0102713	-0.01573	0.744873	-0.0942383	0.886475	0.928923	0.0272933	-0.0572152	-0.364806	5.53473	-2.75144	8.98802	-0.00279484	0.00249446	-0.0221694	-0.229492	0.362061	-0.99585	-0.0808132	0.412644	-0.907293	0.00367758	-1.30404	-0.112277	-9.07267	0.0069898	0.00198426	-0.0189333	-0.263184	0.134277	1.07104	0.937362	0.242495	-0.225022	0.109149	5.13167	4.3322	7.86319	0.0163308	0.00254396	0.0102191	-0.184326	-0.563721	-0.987305	-0.0511632	0.112512	-0.989302	0.0774909	-0.950132	-1.00017	-9.66725	0.00573154	0.00118912	-0.00674676	-0.375977	0.191406	1.11108	
24	0.25308	0.128593	-0.956665	0.0648485	4.25938	-0.375795	-7.5402	0.100689	-0.0299213	0.0703927	-0.694092	-0.09375	0.838867	0.0953475	0.0392755	-0.994599	-0.0117682	1.86067	0.447774	-9.46411	0.00497866	0.00460341	-0.0138131	-0.454834	-0.151367	1.00586	0.938631	-0.276961	-0.205584	0.000517878	4.2998	-5.40317	7.94675	0.189411	0.0315675	-0.0153545	-0.256348	0.514404	-0.900635	0.814343	0.579883	-0.0182801	-0.0157167	0.12392	9.16189	3.24689	-0.0187799	-0.00425212	0.00455479	0.418213	-1.32983	-0.284424	0.960771	0.036678	-0.222669	0.161221	4.35686	0.18458	8.74257	0.0829012	0.0173346	-0.0202633	-0.0876465	-0.207275	-1.07422	0.755962	-0.277723	-0.234458	0.544446	0.646463	-8.27744	8.89983	0.02535	0.0166724	-0.0109237	0.18335	0.72168	-0.980225	-0.414862	0.00371079	-0.894879	0.16452	-8.60334	0.222537	-4.02954	0.0174348	0.00116119	-0.0214403	0.73877	-0.0983887	0.880127	0.928923	0.0272933	-0.0572152	-0.364806	5.53473	-2.75144	8.98802	-0.00279484	0.00249446	-0.0221694	-0.229492	0.362061	-0.99585	-0.0809245	0.412611	-0.907298	0.00365333	-1.29618	-0.104175	-9.08257	0.0149913	0.000282147	-0.0168787	-0.260742	0.13208	1.07544	0.937119	0.242856	-0.225454	0.10954	5.16273	4.33205	7.84446	0.00954557	0.00452224	0.0125096	-0.179932	-0.565918	-0.989502	-0.0512794	0.112501	-0.989299	0.0774658	-0.940126	-1.00663	-9.66487	0.00304259	0.00268531	-0.00525319	-0.375244	0.175781	1.10669	
25	0.252406	0.127956	-0.956837	0.0661876	4.29919	-0.474459	-7.50778	0.030594	-0.0180147	0.0228057	-0.69458	-0.0849609	0.83667	0.0952648	0.0392078	-0.994612	-0.0116177	1.87603	0.38014	-9.40252	0.00427222	0.00586421	-0.0138255	-0.454834	-0.151367	1.0127	0.938916	-0.275801	-0.205837	0.000903875	4.30816	-5.32581	8.13164	0.106955	-0.0169069	0.00691335	-0.256348	0.512451	-0.905029	0.814186	0.580112	-0.0181617	-0.0155533	0.0700233	9.2919	3.1478	0.0253789	0.020266	0.00526507	0.416016	-1.33203	-0.280029	0.960805	0.0368429	-0.222451	0.161282	4.35438	0.212963	8.9335	0.0148718	0.0234944	-0.0127976	-0.0966797	-0.200684	-1.07422	0.755924	-0.277565	-0.234332	0.544633	0.61681	-8.18391	9.00957	0.0208272	0.0110532	-0.00345878	0.183594	0.713135	-0.97998	-0.414828	0.0036938	-0.894894	0.16453	-8.60345	0.230412	-4.04783	0.021796	0.0151776	-0.0204681	0.734131	-0.0942383	0.87793	0.928923	0.0272933	-0.0572152	-0.364806	5.53473	-2.75144	8.98802	-0.00279484	0.00249446	-0.0221694	-0.229492	0.362061	-0.99585	-0.0810012	0.412596	-0.907298	0.00370825	-1.30822	-0.107092	-9.089	0.015474	0.000308603	-0.0175962	-0.258789	0.136719	1.07544	0.937081	0.242849	-0.225559	0.109664	5.15153	4.3224	7.81728	0.0053106	0.00503952	0.0145541	-0.181885	-0.570312	-0.982422	-0.0512771	0.11264	-0.989276	0.0775582	-0.950862	-0.993514	-9.6527	0.00541327	0.0040441	-0.00797883	-0.375732	0.184814	1.11108	
26	0.252303	0.127991	-0.956854	0.0662788	4.2968	-0.488561	-7.54153	0.00869572	-0.00906278	-0.00207726	-0.691895	-0.0915527	0.838867	0.0950934	0.0391772	-0.994629	-0.0116036	1.89797	0.409157	-9.44678	-0.00758477	0.00509168	-0.0190571	-0.459229	-0.151367	1.0105	0.938103	-0.277579	-0.207151	0.00124612	4.29557	-5.44975	7.83089	-0.0805661	-0.0410209	0.0150626	-0.258789	0.520996	-0.905273	0.815027	0.57893	-0.0183616	-0.0152918	0.098749	9.17046	3.27584	-0.0728781	-0.00383229	0.0127314	0.420166	-1.32544	-0.286865	0.960871	0.0377573	-0.221895	0.16144	4.29265	0.205138	8.76081	0.0543258	0.0166308	-0.0116058	-0.0922852	-0.200684	-1.07202	0.756125	-0.277495	-0.234305	0.544401	0.607985	-8.25993	8.93076	0.00408964	0.0113844	-0.0200062	0.189697	0.72168	-0.980225	-0.41502	0.00367971	-0.894795	0.164583	-8.54476	0.258588	-3.98884	0.0217063	-0.00195423	-0.0168593	0.740479	-0.092041	0.88208	0.928923	0.0272933	-0.0572152	-0.364806	5.53473	-2.75144	8.98802	-0.00279484	0.00249446	-0.0221694	-0.229492	0.362061	-0.99585	-0.0809886	0.412798	-0.907207	0.00373772	-1.30329	-0.112867	-9.07519	0.00436045	0.00268474	-0.018679	-0.255859	0.125244	1.07568	0.93702	0.242955	-0.225574	0.109922	5.13288	4.32352	7.80732	0.00816986	0.00644789	0.0100695	-0.181885	-0.57251	-0.993896	-0.0513112	0.112671	-0.98927	0.0775733	-0.92208	-0.992848	-9.68002	0.0045232	0.00519984	-0.00849295	-0.377686	0.175781	1.10913	
27	0.252285	0.12839	-0.956859	0.0654982	4.31223	-0.614247	-7.57537	-0.0312392	-0.00328566	-0.0306581	-0.696289	-0.09375	0.83667	0.0953359	0.0392302	-0.994603	-0.011712	1.86231	0.394125	-9.45126	-0.00922747	0.0175184	-0.0246397	-0.457031	-0.153564	1.00586	0.937858	-0.278262	-0.207343	0.00118577	4.34406	-5.52117	7.92758	-0.0502131	-0.0114906	0.00535739	-0.260742	0.516846	-0.898438	0.814627	0.579507	-0.017973	-0.0152178	0.0682192	9.35523	3.13291	0.0456563	0.0211684	-0.00755519	0.42041	-1.33203	-0.284424	0.960968	0.0366549	-0.221924	0.161077	4.35039	-0.206645	9.02926	-0.0565132	0.0166094	-0.0197406	-0.0925293	-0.196289	-1.08105	0.755961	-0.277298	-0.234225	0.544764	0.625136	-8.18016	8.98398	0.00053689	0.00486636	0.000494639	0.187744	0.717285	-0.982178	-0.415072	0.00370851	-0.894725	0.164828	-8.58842	0.230513	-4.03653	0.0191095	0.00281198	-0.0151271	0.742676	-0.0898438	0.879883	0.928923	0.0272933	-0.0572152	-0.364806	5.53473	-2.75144	8.98802	-0.00279484	0.00249446	-0.0221694	-0.229492	0.362061	-0.99585	-0.0811475	0.412819	-0.907183	0.00375211	-1.30075	-0.115069	-9.10105	0.0172552	-0.0012852	-0.0190812	-0.256348	0.136719	1.07544	0.936988	0.24312	-0.225421	0.110144	5.14654	4.35129	7.86074	0.0108202	0.0123387	0.0066835	-0.179688	-0.568115	-0.987061	-0.051351	0.112735	-0.989254	0.0776508	-0.944362	-0.99441	-9.67709	0.0103977	0.00509454	-0.00898551	-0.382324	0.182373	1.11133	
28	0.252319	0.128636	-0.95685	0.0650057	4.21991	-0.583835	-7.61737	-0.00732407	-0.00853685	-0.0127425	-0.689697	-0.0913086	0.838867	0.0955397	0.0393333	-0.994578	-0.0118078	1.90099	0.363025	-9.50891	-0.0153042	0.0240203	-0.0248127	-0.458984	-0.153564	1.01294	0.936923	-0.280839	-0.208095	0.00125258	4.37556	-5.62088	7.83001	-0.0416834	-0.0276043	0.0108684	-0.260742	0.514648	-0.898438	0.815087	0.578861	-0.0180259	-0.0151119	0.102045	9.14618	3.28024	-0.0344795	-0.000361512	0.00463401	0.42041	-1.32983	-0.286621	0.960918	0.0369448	-0.221957	0.161266	4.301	0.242962	8.6287	0.0203994	-0.000227921	-0.00411993	-0.0922852	-0.198486	-1.07642	0.756132	-0.277209	-0.234204	0.54458	0.657621	-8.26206	8.93741	0.0170479	0.01937	-0.0267964	0.1875	0.72168	-0.982178	-0.415176	0.00366323	-0.894729	0.164543	-8.59257	0.204513	-4.02046	0.00930307	0.0108266	-0.0142287	0.749023	-0.0898438	0.88208	0.928923	0.0272933	-0.0572152	-0.364806	5.53473	-2.75144	8.98802	-0.00279484	0.00249446	-0.0221694	-0.229492	0.362061	-0.99585	-0.0812631	0.412835	-0.907165	0.0038583	-1.32601	-0.103052	-9.08046	0.0196575	-0.00066586	-0.0221039	-0.26123	0.141113	1.07544	0.936974	0.243207	-0.225295	0.110328	5.14924	4.33112	7.86895	0.00690861	0.0206425	0.00745237	-0.188477	-0.57251	-0.984619	-0.051365	0.112862	-0.989219	0.0779135	-0.934727	-1.00651	-9.66508	0.00942843	0.0049243	-0.00958639	-0.380127	0.182373	1.11133	
29	0.252108	0.128723	-0.95689	0.065059	4.31317	-0.556961	-7.60191	0.00752404	-0.0180326	-0.00495354	-0.692139	-0.0871582	0.843018	0.0959954	0.0393729	-0.994532	-0.0118734	1.90287	0.38536	-9.43452	-0.00951757	0.0290199	-0.019063	-0.461426	-0.14917	1.0127	0.937086	-0.280301	-0.208085	0.00130556	4.36997	-5.63176	7.92079	0.0506135	0.00904528	-0.00335797	-0.260742	0.520996	-0.905273	0.814638	0.579501	-0.0177029	-0.0151598	0.0436326	9.2995	3.18132	0.0397195	0.010778	-0.010653	0.42041	-1.32764	-0.282227	0.960996	0.0362484	-0.221937	0.160989	4.3837	-0.204818	9.03002	-0.0384945	0.0148789	-0.0150419	-0.0900879	-0.198486	-1.08105	0.755992	-0.277524	-0.234219	0.544609	0.611147	-8.23273	8.94857	-0.0256321	0.0229734	-0.0108736	0.187744	0.717285	-0.988525	-0.415184	0.00368154	-0.894742	0.164456	-8.58467	0.19159	-4.04196	0.0136869	0.0115534	-0.0190102	0.744873	-0.0942383	0.88208	0.928923	0.0272933	-0.0572152	-0.364806	5.53473	-2.75144	8.98802	-0.00279484	0.00249446	-0.0221694	-0.229492	0.362061	-0.99585	-0.0812631	0.412835	-0.907165	0.0038583	-1.32601	-0.103052	-9.08046	0.0196575	-0.00066586	-0.0221039	-0.26123	0.141113	1.07544	0.936974	0.243207	-0.225295	0.110328	5.14924	4.33112	7.86895	0.00690861	0.0206425	0.00745237	-0.188477	-0.57251	-0.984619	-0.0514069	0.112912	-0.989203	0.0780075	-0.933309	-1.00922	-9.66493	0.0111918	0.00488959	-0.00887744	-0.380127	0.18457	1.10889	
30	0.251894	0.128744	-0.956919	0.0654248	4.25689	-0.478138	-7.58702	0.0023005	-0.0156458	-0.00715583	-0.68335	-0.0891113	0.845215	0.0967543	0.0392193	-0.994464	-0.0119249	1.94075	0.414002	-9.45179	-0.0111469	0.0456294	-0.0133666	-0.463379	-0.153564	1.01294	0.937817	-0.277399	-0.208667	0.00250983	4.34194	-5.51494	7.91867	0.0789168	-0.0152926	0.00610262	-0.260742	0.514648	-0.900635	0.814674	0.57945	-0.0177155	-0.015128	0.0543609	9.27572	3.18535	-0.00206881	0.00429839	0.0032226	0.418213	-1.33203	-0.280029	0.960985	0.034809	-0.222419	0.160706	4.33881	0.410303	8.72524	-0.091145	-0.00380374	-0.0139296	-0.0900879	-0.198486	-1.07642	0.755831	-0.277969	-0.234249	0.544592	0.64524	-8.15448	8.99706	-0.00736585	0.0184666	-0.00280058	0.185547	0.719482	-0.97998	-0.414873	0.00362864	-0.894842	0.1647	-8.55313	0.218892	-4.02127	0.022506	0.0190333	-0.0146399	0.744873	-0.092041	0.884277	0.926261	0.0296131	-0.0536686	-0.371865	5.55963	-2.74611	8.9392	0.00697615	0.0212136	-0.0141531	-0.233887	0.359863	-1.00049	-0.0813422	0.413377	-0.906909	0.00433278	-1.31159	-0.121451	-9.08086	0.0103535	0.00296177	-0.017841	-0.260986	0.138916	1.07764	0.937031	0.243224	-0.224888	0.110637	5.14015	4.32075	7.85057	0.00403473	0.0163988	0.0054155	-0.184082	-0.570312	-0.993896	-0.0514049	0.113005	-0.989193	0.0780092	-0.948786	-1.00367	-9.66041	-0.000643284	0.00628339	-0.00468938	-0.380127	0.180176	1.11133	
31	0.251938	0.129268	-0.956856	0.0651401	4.3073	-0.48756	-7.56071	-0.00730267	0.0104212	-0.0276902	-0.694336	-0.0893555	0.83667	0.0976607	0.0390178	-0.99438	-0.0121823	1.89221	0.39968	-9.37231	-0.0213776	0.0438339	-0.0139686	-0.461426	-0.151367	1.01294	0.938857	-0.273939	-0.208555	0.00317569	4.36467	-5.40123	8.09693	0.162865	0.0178176	0.00562992	-0.260498	0.505859	-0.907227	0.814563	0.579614	-0.0175577	-0.0150686	0.0932922	9.23477	3.21618	0.0248521	0.0131183	-0.0066095	0.42041	-1.32983	-0.286621	0.960955	0.031178	-0.223198	0.160548	4.31599	-0.323936	8.84416	-0.153795	-0.00406048	0.0229167	-0.090332	-0.191895	-1.08105	0.755608	-0.278419	-0.234426	0.544595	0.588304	-8.17448	9.00278	-0.0368704	0.0195927	-0.00175317	0.18335	0.72168	-0.978027	-0.414825	0.00346616	-0.894869	0.164676	-8.58592	0.207444	-4.03512	0.0240288	0.0184035	-0.00891673	0.740479	-0.0898438	0.879883	0.926261	0.0296131	-0.0536686	-0.371865	5.55963	-2.74611	8.9392	0.00697615	0.0212136	-0.0141531	-0.233887	0.359863	-1.00049	-0.081295	0.413426	-0.906892	0.00412209	-1.31008	-0.119799	-9.07436	-0.00367542	0.00278715	-0.0208688	-0.265625	0.138916	1.07544	0.937064	0.243191	-0.22484	0.110526	5.14836	4.31944	7.82327	0.00410772	0.0131752	-0.00230363	-0.181885	-0.570312	-0.991699	-0.0513729	0.11306	-0.989193	0.0779392	-0.937324	-0.995275	-9.66839	-0.00117273	0.00794675	-0.00782421	-0.382568	0.188965	1.11792	
32	0.252265	0.129585	-0.956755	0.0647346	4.13998	-0.485219	-7.52301	-0.0169262	0.00233699	-0.0163712	-0.689697	-0.0935059	0.843262	0.0982469	0.0388885	-0.994325	-0.0123317	1.92418	0.377326	-9.41443	-0.013497	0.0371906	-0.0150507	-0.463623	-0.151367	1.01294	0.939053	-0.273203	-0.208631	0.00358848	4.38257	-5.37055	8.13889	0.072866	-0.00546797	0.0189816	-0.260498	0.505859	-0.905029	0.814539	0.579651	-0.0175179	-0.014956	0.0756081	9.28823	3.1606	-0.00755134	0.00782931	0.0105544	0.42041	-1.32983	-0.286621	0.960883	0.0305392	-0.223626	0.160507	4.27802	0.0536597	8.67687	-0.0564768	-0.0177721	-0.00327266	-0.0949707	-0.185303	-1.07642	0.755558	-0.278616	-0.234627	0.544476	0.634228	-8.28022	8.89813	0.014807	0.0063184	-0.01531	0.1875	0.72168	-0.980225	-0.414748	0.00319327	-0.894903	0.164687	-8.58044	0.240516	-4.00066	0.0243752	0.0146056	-0.0136266	0.744629	-0.0876465	0.879883	0.926261	0.0296131	-0.0536686	-0.371865	5.55963	-2.74611	8.9392	0.00697615	0.0212136	-0.0141531	-0.233887	0.359863	-1.00049	-0.0812627	0.413661	-0.906788	0.00407049	-1.31865	-0.12096	-9.07167	0.000933559	0.00165418	-0.0199493	-0.256348	0.138916	1.07324	0.937127	0.243209	-0.224627	0.110383	5.14676	4.34231	7.84142	0.00147164	0.012712	-0.00662063	-0.184082	-0.57251	-0.989258	-0.0513729	0.11306	-0.989193	0.0779392	-0.937324	-0.995275	-9.66839	-0.00117273	0.00794675	-0.00782421	-0.382568	0.188965	1.11792	
33	0.252236	0.129603	-0.956766	0.0646469	4.20701	-0.588956	-7.55681	-0.00658254	-0.00433036	-0.00333101	-0.694092	-0.09375	0.843018	0.0984951	0.0387648	-0.994307	-0.0122298	1.91898	0.425473	-9.47755	-0.00120856	0.0324727	-0.00949456	-0.46582	-0.151367	1.01514	0.939501	-0.27164	-0.208653	0.00376669	4.39273	-5.43937	7.92898	0.111619	0.0302666	-0.0121393	-0.256348	0.503662	-0.91626	0.81452	0.579678	-0.0175315	-0.0149081	0.0787346	9.24616	3.22444	0.00593287	0.00488349	0.00400919	0.420654	-1.33423	-0.284424	0.960894	0.0288158	-0.223936	0.160328	4.39419	-0.442935	8.96752	-0.0763227	0.0103594	-0.000145536	-0.0908203	-0.180908	-1.07642	0.755328	-0.279098	-0.234743	0.544499	0.584067	-8.27057	8.9201	-0.0401895	0.0280749	-0.012458	0.185547	0.719482	-0.978027	-0.414573	0.00297308	-0.894989	0.164667	-8.61285	0.210492	-4.02427	0.0197904	0.0200768	-0.0136441	0.740479	-0.092041	0.88208	0.926081	0.0299583	-0.0526331	-0.372434	5.59713	-2.75997	8.95261	0.00108988	0.0219311	-0.0164677	-0.231445	0.357666	-0.998047	-0.08123	0.413913	-0.906676	0.00407793	-1.31416	-0.112644	-9.0764	0.00286696	0.00300422	-0.0213795	-0.258789	0.138916	1.07324	0.937202	0.243091	-0.224493	0.11028	5.168	4.3292	7.85982	-0.00142315	0.0147077	0.00185255	-0.179932	-0.565918	-0.987061	-0.0511511	0.113155	-0.989215	0.0776802	-0.948586	-1.00175	-9.66045	-0.00667999	0.00748148	-0.00431186	-0.382324	0.182373	1.11133	
34	0.252254	0.129478	-0.956759	0.064919	4.33256	-0.42011	-7.49344	0.000588827	0.00649139	0.006342	-0.692139	-0.0871582	0.83667	0.0987854	0.0387356	-0.994278	-0.0123312	2.01266	0.435145	-9.34235	-0.0069175	0.0231006	-0.019011	-0.463379	-0.153564	1.0105	0.940082	-0.26994	-0.208235	0.00396537	4.38165	-5.33862	8.1561	0.150244	0.0416662	-0.00273185	-0.256104	0.495117	-0.90918	0.814322	0.579966	-0.0172513	-0.0148979	0.0769405	9.27303	3.1821	-0.000881419	0.0107289	0.000199514	0.424805	-1.32983	-0.282227	0.960823	0.028256	-0.224156	0.160545	4.23628	0.13148	8.79815	-0.0148323	0.00811443	-0.00557002	-0.0974121	-0.180908	-1.06958	0.755447	-0.278779	-0.234366	0.54466	0.62259	-8.17013	9.0163	0.045827	0.00929956	-0.00462352	0.189697	0.723877	-0.978027	-0.414359	0.00272794	-0.895138	0.1644	-8.52678	0.2878	-4.01066	0.0113993	0.0283306	-0.0052089	0.742432	-0.0876465	0.884033	0.92614	0.0298849	-0.0526886	-0.372284	5.61161	-2.74665	8.9484	0.00946117	0.0191627	-0.0177051	-0.227051	0.353271	-0.993164	-0.0811723	0.413875	-0.906699	0.00395826	-1.30293	-0.107915	-9.06278	0.00393477	0.00335592	-0.0194808	-0.265625	0.136719	1.0686	0.937238	0.242975	-0.224502	0.110209	5.0845	4.3732	7.82159	-0.00110255	0.0116044	0.00132227	-0.186523	-0.568115	-0.987061	-0.0511139	0.113269	-0.989204	0.0776695	-0.933828	-0.979209	-9.6611	0.0028007	0.00971578	-0.00893182	-0.384766	0.18457	1.10669	
35	0.252691	0.129772	-0.956623	0.064638	4.18876	-0.483567	-7.53149	-0.0100682	0.014446	-0.0252468	-0.694336	-0.0915527	0.843018	0.0989218	0.0386881	-0.994266	-0.0123895	1.92926	0.442475	-9.42332	-0.0142275	0.0188176	-0.0194157	-0.469971	-0.155762	1.0083	0.940625	-0.26802	-0.208243	0.00498036	4.30612	-5.31806	8.09218	0.0597856	-0.00278207	0.0152879	-0.260498	0.499512	-0.909424	0.814246	0.580076	-0.0171858	-0.0148363	0.0663885	9.19414	3.21702	0.0136299	0.00818564	0.000557069	0.418457	-1.33423	-0.286621	0.960816	0.0280524	-0.224264	0.160472	4.34421	-0.325286	8.8682	-0.00506437	0.00350363	-0.009428	-0.0908203	-0.183105	-1.07886	0.755268	-0.279293	-0.234785	0.544464	0.570546	-8.39603	8.79401	-0.0320076	0.0194043	-0.0307237	0.189941	0.715332	-0.977783	-0.414276	0.00260715	-0.895204	0.164252	-8.52609	0.242419	-4.05842	0.0131894	0.0215947	-0.00791751	0.740234	-0.0876465	0.881836	0.926141	0.0298694	-0.0523669	-0.372328	5.53579	-2.72988	8.95897	0.000554338	0.0159686	-0.0115278	-0.229492	0.357666	-0.998047	-0.0812245	0.413888	-0.906688	0.00397655	-1.30812	-0.107544	-9.08132	0.0110349	-8.65481e-05	-0.0220008	-0.263428	0.136475	1.07764	0.937252	0.242942	-0.224498	0.110172	5.0648	4.33545	7.8225	0.0001192	0.0122561	-0.000193697	-0.184082	-0.57251	-0.989258	-0.0511854	0.11331	-0.98919	0.0777413	-0.933701	-1.00411	-9.65285	0.00796226	0.00241667	-0.00633356	-0.380371	0.186768	1.11353	
36	0.25307	0.130334	-0.956484	0.0640881	4.21296	-0.488719	-7.55363	-0.018695	0.00790448	-0.0268488	-0.698486	-0.0915527	0.83667	0.0988746	0.0387996	-0.994264	-0.0125278	1.9332	0.395815	-9.46337	-0.0112644	0.00621226	-0.0254329	-0.469971	-0.151367	1.0105	0.940598	-0.268131	-0.208219	0.00504489	4.38064	-5.33731	8.23023	-0.00353953	-0.00931988	0.00923936	-0.256104	0.495117	-0.916016	0.814129	0.580246	-0.0169735	-0.0148572	0.0746461	9.2609	3.19806	0.00650605	0.00607755	-0.00365641	0.424805	-1.32983	-0.282227	0.960739	0.027839	-0.224559	0.160558	4.36659	0.00167284	8.86938	-0.0168172	0.00632297	-0.0231072	-0.0932617	-0.178711	-1.07422	0.755405	-0.278771	-0.234424	0.544697	0.638154	-8.09903	9.06519	0.0147518	0.00808982	-0.00102184	0.1875	0.72168	-0.980225	-0.414276	0.00260715	-0.895204	0.164252	-8.52609	0.242419	-4.05842	0.0131894	0.0215947	-0.00791751	0.740234	-0.0876465	0.881836	0.926123	0.029561	-0.0523763	-0.372397	5.63447	-2.76839	8.99561	-0.00514362	0.00722279	-0.0174385	-0.229248	0.355469	-1.00024	-0.0813747	0.414087	-0.906583	0.00420867	-1.32563	-0.104581	-9.10479	0.0102412	0.00506512	-0.0178994	-0.260986	0.134277	1.07544	0.937252	0.242942	-0.224498	0.110172	5.0648	4.33545	7.8225	0.0001192	0.0122561	-0.000193697	-0.184082	-0.57251	-0.989258	-0.0512658	0.113351	-0.989175	0.0778217	-0.945162	-0.998391	-9.66676	0.00439872	0.00703175	-0.00839845	-0.375244	0.175781	1.11353	
37	0.253321	0.130617	-0.956392	0.0638964	4.3252	-0.466625	-7.52007	-0.000242957	0.00908383	-0.0115718	-0.689697	-0.0935059	0.83667	0.0986245	0.0388114	-0.994288	-0.0125956	1.9672	0.400815	-9.41519	-0.00706874	-0.000597761	-0.0197429	-0.463379	-0.153564	1.01538	0.939624	-0.271074	-0.208808	0.00495781	4.29125	-5.37729	8.02422	-0.122403	-0.0138313	0.0131036	-0.260498	0.501709	-0.911621	0.814341	0.579951	-0.0170846	-0.0146008	0.0599368	9.29508	3.15483	-0.0343033	-0.00494625	0.014736	0.42041	-1.32764	-0.284424	0.960716	0.0277278	-0.224589	0.160671	4.30396	-0.188214	8.73813	0.00912121	-0.00354694	0.000791553	-0.088623	-0.183105	-1.07886	0.755394	-0.279031	-0.234543	0.544528	0.603435	-8.37989	8.80706	0.0144761	0.0186654	-0.0275556	0.1875	0.723877	-0.980225	-0.414045	0.00301752	-0.895156	0.165082	-8.60353	0.238585	-4.06261	0.0134346	0.00432068	-0.0160649	0.744873	-0.092041	0.890625	0.926123	0.029561	-0.0523763	-0.372397	5.63447	-2.76839	8.99561	-0.00514362	0.00722279	-0.0174385	-0.229248	0.355469	-1.00024	-0.0813209	0.414098	-0.906583	0.00419892	-1.2986	-0.13081	-9.095	0.00524025	0.00503666	-0.0210813	-0.258789	0.136719	1.07104	0.93728	0.242596	-0.224536	0.110619	5.14515	4.35053	7.87283	-0.00315781	0.00416852	0.00845078	-0.179443	-0.57251	-0.991455	-0.0513276	0.113464	-0.989154	0.0778783	-0.938935	-1.00086	-9.6761	0.0080141	0.00577781	-0.010183	-0.377686	0.180176	1.11353	
38	0.253506	0.130577	-0.956332	0.0641422	4.26435	-0.436189	-7.51615	0.00765006	0.00667969	0.00761043	-0.694092	-0.0915527	0.83667	0.0983535	0.0388437	-0.994313	-0.0126148	1.93818	0.429848	-9.35382	-0.00998541	0.00205839	-0.0250364	-0.463379	-0.153564	1.0105	0.939748	-0.270673	-0.208768	0.00507418	4.31661	-5.38189	8.09323	0.047317	0.00714369	0.000925442	-0.260498	0.501709	-0.91626	0.814183	0.580175	-0.0170692	-0.0145518	0.0583796	9.30212	3.16145	0.0343176	0.0121866	0.00211104	0.42041	-1.33203	-0.280029	0.960697	0.0286885	-0.224514	0.16072	4.36601	-0.0663893	8.92158	0.0402597	0.0133877	-0.0226104	-0.0932617	-0.176514	-1.07642	0.755278	-0.278698	-0.234602	0.544834	0.623919	-8.11712	9.03578	-0.0109293	-0.00229375	-0.00135668	0.191895	0.72168	-0.980225	-0.413738	0.00304805	-0.895287	0.165148	-8.54801	0.20802	-4.01219	0.0113414	0.0189599	-0.0145961	0.742676	-0.0898438	0.888428	0.926123	0.029561	-0.0523763	-0.372397	5.63447	-2.76839	8.99561	-0.00514362	0.00722279	-0.0174385	-0.229248	0.355469	-1.00024	-0.0813237	0.414128	-0.906569	0.00416338	-1.29208	-0.125768	-9.07518	0.00541425	0.00245844	-0.0227583	-0.263428	0.136719	1.0708	0.937218	0.242535	-0.224757	0.110835	5.12394	4.30517	7.83446	0.00253625	0.00421232	0.0111388	-0.182129	-0.565918	-0.984863	-0.0515014	0.113546	-0.989116	0.0781269	-0.924856	-1.00941	-9.64114	0.0115199	0.0006548	-0.00680143	-0.382568	0.186768	1.11108	
39	0.253824	0.130309	-0.956282	0.0641675	4.18562	-0.507017	-7.49503	-0.0031269	0.00666372	0.000145329	-0.694092	-0.0935059	0.83667	0.0979969	0.0388803	-0.994345	-0.0127326	1.9418	0.405326	-9.44813	-0.00782336	-0.00653148	-0.0185508	-0.465576	-0.157959	1.01074	0.939748	-0.270843	-0.208556	0.00460018	4.32474	-5.32129	8.10083	-0.014294	0.0324358	-0.0263252	-0.258301	0.499512	-0.913818	0.814239	0.580093	-0.01713	-0.014617	0.0657362	9.33789	3.14917	-0.0051407	-0.00303391	-0.000792973	0.416016	-1.32983	-0.282227	0.960689	0.0293271	-0.224404	0.16081	4.30463	-0.176921	8.77724	0.0377761	0.00198333	-0.0139969	-0.0927734	-0.185303	-1.07642	0.755129	-0.278898	-0.234848	0.544832	0.597987	-8.33122	8.88603	-0.0231888	0.00507455	-0.0112169	0.1875	0.726074	-0.984619	-0.41396	0.00310929	-0.895207	0.16502	-8.56156	0.237566	-4.02693	0.0106414	-0.00745776	-0.0180284	0.74707	-0.092041	0.88208	0.926123	0.029561	-0.0523763	-0.372397	5.63447	-2.76839	8.99561	-0.00514362	0.00722279	-0.0174385	-0.229248	0.355469	-1.00024	-0.0813237	0.414128	-0.906569	0.00416338	-1.29208	-0.125768	-9.07518	0.00541425	0.00245844	-0.0227583	-0.263428	0.136719	1.0708	0.937218	0.242535	-0.224757	0.110835	5.12394	4.30517	7.83446	0.00253625	0.00421232	0.0111388	-0.182129	-0.565918	-0.984863	-0.0516253	0.113537	-0.98912	0.0780112	-0.958422	-1.00051	-9.66174	-0.00243699	0.00352519	-0.00376349	-0.382568	0.186768	1.11353	
40	0.253371	0.130383	-0.956403	0.0639973	4.2202	-0.499471	-7.53386	-0.00670615	-0.029579	-0.00062283	-0.696289	-0.0959473	0.847412	0.0978206	0.0388312	-0.994363	-0.0128479	1.89837	0.394178	-9.45003	-0.0161722	-0.00251107	-0.0170714	-0.463379	-0.155762	1.01074	0.938703	-0.274114	-0.209004	0.00402782	4.37057	-5.36543	8.04696	-0.135988	-0.0157501	0.00197429	-0.258545	0.505859	-0.907227	0.814258	0.580065	-0.0171872	-0.0146371	0.0643776	9.30071	3.16656	0.0106581	0.00985263	0.00380681	0.424561	-1.32544	-0.286865	0.960689	0.0293271	-0.224404	0.16081	4.30463	-0.176921	8.77724	0.0377761	0.00198333	-0.0139969	-0.0927734	-0.185303	-1.07642	0.75527	-0.278612	-0.234701	0.544847	0.647775	-8.20414	8.9519	0.0262575	0.0130114	-0.0166739	0.1875	0.723877	-0.97583	-0.414151	0.00295081	-0.89512	0.165016	-8.6087	0.204149	-4.05005	0.0251766	0.00976182	-0.0108742	0.738281	-0.0898438	0.875488	0.926123	0.029561	-0.0523763	-0.372397	5.63447	-2.76839	8.99561	-0.00514362	0.00722279	-0.0174385	-0.229248	0.355469	-1.00024	-0.0812803	0.414562	-0.906374	0.00420011	-1.31388	-0.111448	-9.0856	-0.00215464	0.00338262	-0.0223876	-0.263428	0.141113	1.07764	0.93713	0.242555	-0.225044	0.110948	5.16296	4.30193	7.85392	0.000406073	0.00139543	0.00772306	-0.181885	-0.568115	-0.984863	-0.0516441	0.113626	-0.9891	0.0781261	-0.937088	-1.00407	-9.64598	0.0105693	0.00554332	-0.0093631	-0.377686	0.177979	1.10913	
41	0.252755	0.130346	-0.956568	0.0640524	4.34025	-0.455198	-7.53983	0.00680042	-0.0163404	0.00122013	-0.69165	-0.0979004	0.841064	0.0975848	0.0387767	-0.994388	-0.0129121	1.95268	0.42876	-9.41761	-0.0131973	0.00467825	-0.0213125	-0.458984	-0.155762	1.01074	0.937877	-0.276327	-0.209804	0.00340912	4.36781	-5.49908	7.96749	-0.0515862	-0.00981748	-0.0138236	-0.262939	0.512451	-0.907471	0.814259	0.580067	-0.0169692	-0.0147548	0.0692693	9.17584	3.26417	0.0144653	0.00493148	-0.0132166	0.422852	-1.33643	-0.284424	0.960814	0.0301418	-0.223828	0.160712	4.35879	-0.247553	8.9268	-0.00892417	0.0215396	-0.0199379	-0.0930176	-0.180908	-1.08105	0.754959	-0.278965	-0.234889	0.545017	0.569584	-8.31826	8.88011	-0.0282464	0.0118023	-0.00536	0.191895	0.723877	-0.980225	-0.414256	0.00285753	-0.895088	0.164928	-8.55207	0.224301	-3.99676	0.0191272	0.00519904	-0.0150579	0.746826	-0.0898438	0.884033	0.925513	0.0301043	-0.0519839	-0.373921	5.58253	-2.76197	8.94305	0.00400384	0.00706074	-0.01829	-0.23584	0.359863	-0.993408	-0.0812832	0.414544	-0.906382	0.00417188	-1.30659	-0.126947	-9.06868	0.0093213	0.00306393	-0.0187264	-0.258789	0.138916	1.07324	0.937048	0.242634	-0.225256	0.111042	5.13072	4.30954	7.8403	0.0102673	0.00540959	0.00387457	-0.192871	-0.572754	-0.987061	-0.0517066	0.113647	-0.989108	0.0779534	-0.944978	-0.994793	-9.66963	-0.0050478	0.00324783	-0.00326905	-0.380127	0.180176	1.11572	
42	0.252616	0.130335	-0.956612	0.0639701	4.32982	-0.403626	-7.56783	-0.00558445	-0.0133959	-6.57179e-05	-0.689697	-0.0913086	0.83667	0.0975534	0.0388793	-0.994383	-0.0131972	1.93967	0.398002	-9.43945	-0.0178832	0.0169365	-0.0247383	-0.461182	-0.153564	1.0083	0.937091	-0.278679	-0.210211	0.00316752	4.52849	-5.53008	7.92701	-0.105711	-0.00449411	0.00834867	-0.260742	0.512451	-0.907471	0.81415	0.580219	-0.0169191	-0.0147941	0.0691887	9.31762	3.12682	-0.00675497	0.00263506	0.00423581	0.424805	-1.32764	-0.284424	0.960779	0.0315755	-0.223662	0.160879	4.34196	0.111328	8.78944	0.086471	0.00495371	-0.0182944	-0.0925293	-0.191895	-1.07642	0.755083	-0.278451	-0.234697	0.545191	0.626954	-8.15013	8.99989	0.0380189	0.00557854	-0.014376	0.187744	0.72168	-0.978027	-0.414218	0.00287869	-0.895067	0.165135	-8.56778	0.232715	-4.02476	0.0175311	0.00689043	-0.0147204	0.742676	-0.092041	0.879883	0.925513	0.0301043	-0.0519839	-0.373921	5.58253	-2.76197	8.94305	0.00400384	0.00706074	-0.01829	-0.23584	0.359863	-0.993408	-0.0813021	0.414761	-0.906281	0.00419134	-1.31483	-0.113659	-9.07914	0.00425333	0.00126253	-0.0199337	-0.258545	0.13208	1.07324	0.937004	0.242772	-0.225255	0.111107	5.13784	4.33051	7.84771	0.00920969	0.0138429	0.00562241	-0.188477	-0.570312	-0.989258	-0.0517585	0.113675	-0.989105	0.07791	-0.938767	-0.999364	-9.65803	0.000713035	0.00328971	-0.00555811	-0.37793	0.182373	1.10669	
43	0.252622	0.130402	-0.956622	0.0636546	4.26842	-0.536173	-7.57787	-0.00330386	0.000387242	-0.00725483	-0.696045	-0.0981445	0.845215	0.0976264	0.0391903	-0.994363	-0.0132497	1.90583	0.438853	-9.46402	-0.00475209	0.00915899	-0.0226909	-0.467773	-0.153564	1.0105	0.936714	-0.27988	-0.210298	0.00301147	4.41042	-5.55026	8.01115	-0.0327895	0.00512732	0.00942307	-0.267334	0.519043	-0.903076	0.814193	0.580158	-0.0168779	-0.0148747	0.0881653	9.19821	3.20637	-0.00293964	0.000125466	-0.00717168	0.427002	-1.32983	-0.282227	0.960833	0.0313353	-0.2236	0.160686	4.32783	-0.117959	8.74376	-0.0193827	0.00857746	-0.0201583	-0.0927734	-0.189697	-1.07422	0.755014	-0.278646	-0.234841	0.545123	0.621982	-8.2223	8.99854	-0.0176775	0.0144922	-0.0165176	0.189697	0.723877	-0.978027	-0.414254	0.00285029	-0.895063	0.165072	-8.60904	0.21267	-4.03016	0.0172406	0.00959051	-0.0160646	0.744873	-0.0898438	0.877686	0.925389	0.0301497	-0.0515942	-0.374279	5.60929	-2.76434	8.94225	0.000818556	0.0134269	-0.0155729	-0.23584	0.359863	-0.993408	-0.0812784	0.414785	-0.906273	0.00407746	-1.32596	-0.107633	-9.10026	-0.000507451	0.00206801	-0.0201796	-0.260986	0.136719	1.07544	0.936955	0.242902	-0.225256	0.111239	5.17755	4.34274	7.86915	0.00862961	0.0116553	0.00459554	-0.190918	-0.568359	-0.984863	-0.0518019	0.113691	-0.989099	0.0779301	-0.960927	-0.99419	-9.68563	0.00515315	0.00404399	-0.00665289	-0.37793	0.18457	1.10889	
44	0.252356	0.13029	-0.956698	0.0637929	4.34026	-0.450736	-7.53877	0.00419401	-0.0153373	0.00931114	-0.691895	-0.0935059	0.838867	0.0977119	0.0392106	-0.994354	-0.0132034	1.9511	0.401746	-9.3896	0.00329908	0.0169265	-0.0177183	-0.461182	-0.153564	1.0105	0.936454	-0.280561	-0.21055	0.00294267	4.3766	-5.5504	8.0148	-0.0518245	-0.0147473	0.00251733	-0.267334	0.52124	-0.898438	0.814082	0.580319	-0.0167381	-0.0148611	0.0679497	9.2646	3.16789	-0.0147578	0.000879773	0.00245326	0.42041	-1.32983	-0.282227	0.960827	0.0319522	-0.223411	0.160865	4.38432	-0.0264506	9.04794	0.00706162	0.0201922	-0.00657619	-0.0925293	-0.191895	-1.07886	0.755123	-0.278499	-0.234641	0.545135	0.607085	-8.14478	9.01385	0.014217	0.00822138	-0.00664958	0.192139	0.719482	-0.97583	-0.414126	0.00282548	-0.89509	0.165247	-8.54291	0.201873	-4.02996	0.0200878	0.0213422	-0.0142593	0.742676	-0.092041	0.879883	0.925532	0.0299662	-0.0517647	-0.373915	5.57712	-2.78139	8.95817	0.0128239	0.0190899	-0.0109405	-0.229736	0.364258	-0.998047	-0.0813183	0.415204	-0.906076	0.00435821	-1.31214	-0.113001	-9.07	0.00907456	0.00297586	-0.0194538	-0.260986	0.136719	1.07764	0.936969	0.242969	-0.225038	0.11141	5.14082	4.3218	7.84681	0.00650108	0.0158333	0.00463947	-0.182129	-0.565918	-0.991699	-0.0517634	0.113781	-0.989086	0.0779983	-0.944941	-1.00435	-9.65081	0.0039004	0.00526392	-0.00677003	-0.377686	0.180176	1.10889	
45	0.252304	0.129986	-0.956721	0.0642688	4.1966	-0.442875	-7.56243	0.0171654	-0.00154074	0.0191564	-0.691895	-0.0959473	0.847412	0.0978673	0.0390079	-0.994349	-0.0130853	1.91893	0.428702	-9.46806	-0.00817278	0.0273655	-0.0110247	-0.465576	-0.155762	1.0083	0.935784	-0.282839	-0.210489	0.00222686	4.39323	-5.52962	7.94898	-0.100462	0.00838372	0.0029775	-0.265137	0.525391	-0.898682	0.814829	0.579261	-0.0172433	-0.0146006	0.0772579	9.27689	3.2154	-0.0560554	-0.00966981	0.0278262	0.422852	-1.33643	-0.286621	0.960821	0.0320167	-0.223332	0.160998	4.31352	0.0322294	8.76055	0.0386554	0.00506931	-0.00704071	-0.0881348	-0.191895	-1.07642	0.755181	-0.278603	-0.234651	0.544996	0.612538	-8.25537	8.87452	0.0199844	0.0185245	-0.0211603	0.194092	0.72168	-0.980225	-0.414068	0.00273773	-0.89514	0.165122	-8.59331	0.234107	-4.01578	0.0146077	0.0162441	-0.0158984	0.749268	-0.092041	0.88623	0.925705	0.0296856	-0.0518924	-0.373493	5.61562	-2.75992	8.94463	0.00122127	0.0174693	-0.0120124	-0.236084	0.362061	-0.993408	-0.0813592	0.415226	-0.906063	0.00424656	-1.31465	-0.113087	-9.07138	0.00389718	-0.000783037	-0.0208905	-0.256592	0.141357	1.07544	0.936927	0.243119	-0.224991	0.111534	5.16409	4.34113	7.86619	0.0128106	0.013805	0.00463925	-0.181885	-0.568115	-0.987061	-0.051637	0.114035	-0.989047	0.0782035	-0.941018	-1.00107	-9.65739	0.00593502	0.00593295	-0.00897765	-0.380127	0.180176	1.11353	
46	0.252179	0.129698	-0.95679	0.0643265	4.31725	-0.511805	-7.54434	-0.00229584	-0.000873547	0.00776459	-0.689941	-0.0893555	0.838867	0.0978702	0.0389364	-0.994354	-0.0128731	1.9115	0.448937	-9.47116	0.00334194	0.00877077	-0.0170245	-0.458984	-0.153564	1.0083	0.935663	-0.282914	-0.210924	0.00222027	4.3882	-5.54545	7.85508	0.0528412	-0.00896055	-0.00014983	-0.262939	0.523193	-0.89624	0.814952	0.579093	-0.0172117	-0.0144314	0.0942804	9.21896	3.23957	0.0157706	0.012695	-0.00271023	0.42041	-1.33203	-0.284424	0.960853	0.0315962	-0.223165	0.161125	4.33775	-0.262535	8.94743	-0.041471	0.0183178	-0.0105875	-0.0947266	-0.196289	-1.07422	0.755217	-0.278665	-0.234541	0.544962	0.585302	-8.27899	8.92889	-0.0162883	0.0212621	-0.0193587	0.187744	0.719482	-0.978027	-0.414092	0.00273098	-0.895169	0.164899	-8.61625	0.24847	-4.05666	0.0122716	0.0137286	-0.0154496	0.744629	-0.0876465	0.875488	0.925776	0.0295805	-0.0519465	-0.373316	5.6497	-2.79657	8.99746	0.00659307	0.0177389	-0.014035	-0.227539	0.364258	-0.993408	-0.0814288	0.415207	-0.906065	0.00429622	-1.3174	-0.114433	-9.08062	0.0135789	0.000840624	-0.020036	-0.265625	0.134277	1.07544	0.936911	0.243166	-0.224969	0.111611	5.18169	4.37141	7.85929	0.00190222	0.0109652	0.00476944	-0.181885	-0.568115	-0.991699	-0.0516296	0.114191	-0.989027	0.0782342	-0.955268	-1.01025	-9.66669	0.00278966	0.0038315	-0.00836655	-0.380127	0.18457	1.10425	
47	0.252338	0.129558	-0.956769	0.0642895	4.30697	-0.425064	-7.55062	-0.00962397	0.00462438	0.00398016	-0.696533	-0.0915527	0.845215	0.0979179	0.0388892	-0.99435	-0.0129729	1.95984	0.423342	-9.38271	-0.0157222	0.0165233	-0.0190087	-0.461182	-0.153564	1.01294	0.935682	-0.282738	-0.211076	0.00237576	4.39636	-5.55215	7.97005	0.0225909	-0.0086568	0.00704622	-0.262939	0.523193	-0.891602	0.814979	0.579059	-0.0171802	-0.0143107	0.034954	9.34101	3.16668	-0.000452417	0.0112181	0.00682329	0.42041	-1.32983	-0.284424	0.960816	0.0315312	-0.223285	0.161192	4.2906	0.0453055	8.71928	-0.00705773	-0.000101019	-0.00690002	-0.088623	-0.185303	-1.07642	0.755293	-0.278628	-0.2345	0.544893	0.605258	-8.32488	8.85429	0.0074213	0.0184459	-0.023309	0.1875	0.723877	-0.982422	-0.414092	0.00273098	-0.895169	0.164899	-8.61625	0.24847	-4.05666	0.0122716	0.0137286	-0.0154496	0.744629	-0.0876465	0.875488	0.925776	0.0295805	-0.0519465	-0.373316	5.6497	-2.79657	8.99746	0.00659307	0.0177389	-0.014035	-0.227539	0.364258	-0.993408	-0.0814166	0.415414	-0.905971	0.00437905	-1.30727	-0.103397	-9.08138	0.00645872	0.00324903	-0.018681	-0.263428	0.136719	1.0708	0.936929	0.243113	-0.224956	0.111601	5.13936	4.35959	7.8537	-0.000608159	0.0129123	0.00248273	-0.179688	-0.568115	-0.987061	-0.05161	0.114239	-0.989016	0.0783096	-0.935942	-0.994196	-9.66135	0.00655848	0.00774982	-0.00667818	-0.380127	0.18457	1.10889	
48	0.252688	0.129673	-0.956688	0.0638939	4.26454	-0.507248	-7.53027	-0.0141892	0.0140528	-0.0119643	-0.687256	-0.0957031	0.838867	0.0979227	0.0388613	-0.99435	-0.0129988	1.89451	0.433198	-9.42001	-0.00823655	0.00847365	-0.0182393	-0.46582	-0.151367	1.00806	0.936086	-0.281874	-0.210436	0.00252546	4.39689	-5.52726	7.94882	0.0617041	0.0208347	0.00764089	-0.260742	0.518799	-0.89624	0.814802	0.579307	-0.0171597	-0.0143978	0.0926873	9.15245	3.27954	0.0321559	0.00389911	-0.00849526	0.425049	-1.33203	-0.282227	0.960807	0.0308238	-0.223467	0.16113	4.32458	-0.110804	8.78568	-0.0349529	-0.000663968	-0.00669091	-0.0881348	-0.194092	-1.06958	0.755271	-0.278657	-0.234621	0.544857	0.610291	-8.35366	8.80983	-0.0154537	0.0161431	-0.024933	0.187744	0.717285	-0.971436	-0.413701	0.00263157	-0.895269	0.16534	-8.54751	0.224953	-4.03144	0.0180532	0.0149221	-0.0110747	0.738281	-0.092041	0.879883	0.925776	0.0295805	-0.0519465	-0.373316	5.6497	-2.79657	8.99746	0.00659307	0.0177389	-0.014035	-0.227539	0.364258	-0.993408	-0.0815163	0.415348	-0.905992	0.00436992	-1.31568	-0.114808	-9.07936	0.010046	0.000246571	-0.016776	-0.263428	0.138916	1.07544	0.936947	0.243154	-0.22487	0.111531	5.13369	4.31556	7.8512	0.0040354	0.0122762	-0.00216069	-0.186279	-0.570312	-0.996094	-0.0517104	0.114245	-0.989005	0.0783735	-0.945924	-1.00173	-9.66537	0.00340627	0.00407105	-0.00735931	-0.380127	0.18457	1.10889	
49	0.252859	0.129735	-0.95664	0.0638081	4.19815	-0.481041	-7.53614	-0.00728419	0.0119496	-0.00828521	-0.689941	-0.0893555	0.838867	0.0978487	0.0388747	-0.994356	-0.0130638	1.92446	0.401188	-9.46252	-0.0124393	0.00578668	-0.0220628	-0.46582	-0.151367	1.02002	0.936133	-0.281608	-0.210579	0.00273538	4.37001	-5.56546	7.95259	0.0306493	-0.00873634	0.00969349	-0.260742	0.523193	-0.894043	0.814843	0.579252	-0.0170562	-0.0144089	0.0893496	9.29357	3.16003	-0.0190024	0.00156813	-0.00105458	0.420166	-1.32544	-0.284668	0.960811	0.0306492	-0.223536	0.161042	4.34466	-0.011923	8.75125	-0.01759	0.00500083	-0.0170792	-0.090332	-0.191895	-1.06958	0.755373	-0.278362	-0.234435	0.544946	0.636374	-8.23448	8.94582	0.0330655	0.0122453	-0.01602	0.194092	0.72168	-0.973633	-0.413801	0.00252782	-0.895247	0.165213	-8.58423	0.228779	-4.04736	0.0172991	0.0078695	-0.0134419	0.740234	-0.0876465	0.884033	0.92547	0.0299785	-0.051195	-0.374148	5.58805	-2.76196	8.9377	0.00273007	0.014723	-0.0173029	-0.229492	0.359863	-0.995605	-0.0815484	0.415382	-0.905974	0.00427613	-1.31249	-0.120338	-9.0701	0.00471025	0.00237206	-0.0200463	-0.265625	0.138916	1.07544	0.936919	0.243186	-0.224973	0.111493	5.14971	4.33087	7.85709	0.00466961	0.00916004	0.00122252	-0.181885	-0.570312	-0.987061	-0.0517104	0.114245	-0.989005	0.0783735	-0.945924	-1.00173	-9.66537	0.00340627	0.00407105	-0.00735931	-0.380127	0.18457	1.10889	
50	0.25284	0.129648	-0.956668	0.0636415	4.22726	-0.471957	-7.52567	-0.00579148	-0.00562305	0.00147321	-0.693848	-0.0979004	0.838867	0.0976932	0.0388471	-0.994371	-0.0131259	1.87301	0.418125	-9.41063	-0.011787	0.00548502	-0.0215329	-0.461426	-0.151367	1.0105	0.935959	-0.282277	-0.210462	0.00263801	4.4048	-5.5013	7.93987	-0.050283	0.0348362	0.00508085	-0.265137	0.52124	-0.894043	0.814538	0.579684	-0.016868	-0.0144637	0.052785	9.32456	3.16331	0.0243415	0.00875149	-0.00341298	0.422607	-1.32983	-0.286621	0.960828	0.0311648	-0.22324	0.161254	4.36993	-0.165471	8.82132	0.0316248	0.0156095	-0.00497018	-0.0908203	-0.185303	-1.07422	0.755355	-0.278589	-0.234485	0.544833	0.611689	-8.34691	8.85936	-0.0218574	0.0223926	-0.0192317	0.189941	0.717285	-0.97998	-0.413566	0.00251706	-0.895313	0.165443	-8.59382	0.232736	-4.05867	0.0183091	0.0156041	-0.0153404	0.744873	-0.092041	0.88623	0.92557	0.0298674	-0.0514516	-0.373874	5.58621	-2.77446	8.95951	0.0177917	0.0121183	-0.0194303	-0.236084	0.362061	-0.993408	-0.0815484	0.415382	-0.905974	0.00427613	-1.31249	-0.120338	-9.0701	0.00471025	0.00237206	-0.0200463	-0.265625	0.138916	1.07544	0.936919	0.243186	-0.224973	0.111493	5.14971	4.33087	7.85709	0.00466961	0.00916004	0.00122252	-0.181885	-0.570312	-0.987061	-0.051709	0.114371	-0.988994	0.0783279	-0.936693	-1.0083	-9.65383	-0.000659999	0.00406254	-0.00526954	-0.382568	0.18457	1.11353	
51	0.252463	0.129717	-0.956769	0.0634711	4.27784	-0.488775	-7.48786	-0.00644971	-0.0197114	-0.00394711	-0.691895	-0.0957031	0.841064	0.097633	0.0387801	-0.994381	-0.013016	1.98851	0.417103	-9.44866	-0.00736355	0.0160049	-0.0172895	-0.461182	-0.155762	1.01074	0.935689	-0.283076	-0.210589	0.00244617	4.29179	-5.56209	7.91117	-0.0626906	-0.00308077	-0.00176451	-0.260986	0.529785	-0.891846	0.814564	0.579645	-0.016858	-0.0145726	0.0738178	9.15918	3.27496	0.0145344	0.000563324	-0.00612224	0.427002	-1.32764	-0.286621	0.960827	0.0318143	-0.223156	0.161248	4.29709	-0.0217899	8.87168	0.0300036	0.00651013	-0.0226655	-0.0883789	-0.189697	-1.06958	0.755303	-0.278403	-0.2344	0.545037	0.61676	-8.12437	9.04309	0.0026762	0.0066203	-0.00534699	0.189941	0.719482	-0.97998	-0.413566	0.00251706	-0.895313	0.165443	-8.59382	0.232736	-4.05867	0.0183091	0.0156041	-0.0153404	0.744873	-0.092041	0.88623	0.925606	0.0296924	-0.0515545	-0.373784	5.57081	-2.72502	8.94426	0.00240196	0.011445	-0.0207313	-0.222656	0.353271	-0.995605	-0.0815484	0.415382	-0.905974	0.00427613	-1.31249	-0.120338	-9.0701	0.00471025	0.00237206	-0.0200463	-0.265625	0.138916	1.07544	0.936919	0.243186	-0.224973	0.111493	5.14971	4.33087	7.85709	0.00466961	0.00916004	0.00122252	-0.181885	-0.570312	-0.987061	-0.0517343	0.114405	-0.988998	0.0782222	-0.938879	-0.988894	-9.68512	-0.00496414	0.00431721	-0.00680182	-0.375732	0.184814	1.11108	
52	0.251702	0.129833	-0.956978	0.0631126	4.18352	-0.49312	-7.54515	-0.00985685	-0.0407959	-0.00652956	-0.689697	-0.0957031	0.838867	0.0978198	0.0386417	-0.994365	-0.0132425	1.89543	0.450682	-9.54603	-0.0187876	0.0184705	-0.0150082	-0.461182	-0.157959	1.0083	0.93447	-0.286674	-0.211144	0.00162356	4.36626	-5.5833	7.89712	-0.101082	-0.0125582	-0.00345104	-0.260986	0.536133	-0.889893	0.814396	0.579884	-0.0168093	-0.0145577	0.0671406	9.31107	3.16403	0.0132529	0.00164316	-0.00119359	0.417969	-1.32764	-0.277832	0.960845	0.0323418	-0.222961	0.161307	4.38562	-0.0545346	8.78782	0.0227327	0.00644597	-0.0144318	-0.0905762	-0.189697	-1.08105	0.755355	-0.278666	-0.234455	0.544807	0.615468	-8.29714	8.88427	-0.00926041	0.0142815	-0.0142259	0.185303	0.723877	-0.978027	-0.413161	0.00261931	-0.895397	0.165996	-8.58006	0.244624	-4.04897	0.0139495	0.010635	-0.012976	0.744873	-0.0942383	0.884277	0.9255	0.0296567	-0.0514386	-0.374064	5.60382	-2.77308	8.97617	0.00161433	0.0100564	-0.017727	-0.229492	0.357666	-0.998047	-0.0819252	0.416456	-0.905443	0.00504669	-1.31358	-0.112863	-9.08252	0.0115967	-0.000358217	-0.0200711	-0.258789	0.136719	1.07544	0.936932	0.243093	-0.224824	0.111889	5.15671	4.34074	7.8538	0.000742345	0.00518753	0.00509393	-0.181885	-0.570312	-0.987061	-0.0516988	0.114613	-0.988981	0.0781461	-0.949132	-0.997697	-9.66226	-0.00132258	0.00285602	-0.00753699	-0.375732	0.187012	1.10669	
53	0.2506	0.130001	-0.957269	0.0627281	4.32764	-0.485224	-7.56116	-0.00586053	-0.0459289	-0.00518994	-0.685059	-0.0957031	0.838867	0.0979153	0.0384882	-0.994358	-0.0135486	1.90586	0.410912	-9.38297	-0.0215382	0.0168326	-0.0181488	-0.463379	-0.157959	1.01318	0.932707	-0.291321	-0.212575	0.000896421	4.39572	-5.6772	7.8789	-0.18941	-0.0604136	0.00409772	-0.271973	0.542969	-0.883057	0.814206	0.580156	-0.0166862	-0.0144269	0.0598786	9.29622	3.16897	0.0241279	0.0150539	0.00414799	0.42041	-1.33203	-0.284424	0.960835	0.032209	-0.223063	0.161248	4.35848	0.0688436	8.84082	-0.0133786	0.00192377	-0.0150958	-0.0861816	-0.189697	-1.06958	0.755171	-0.27909	-0.234559	0.544801	0.629242	-8.24185	8.94307	-0.0311275	0.0202382	-0.0086094	0.189697	0.723877	-0.980225	-0.413147	0.00259509	-0.895433	0.165841	-8.61522	0.239389	-4.02911	0.0100875	0.0145421	-0.0146724	0.744873	-0.0939941	0.879883	0.925544	0.0298603	-0.051779	-0.373894	5.58447	-2.74961	8.92835	0.0296986	0.0146638	-0.0199626	-0.229492	0.357666	-0.998047	-0.0820324	0.416411	-0.905453	0.00516386	-1.296	-0.135233	-9.08326	0.0105392	0.00411506	-0.0177312	-0.263428	0.136719	1.07324	0.936932	0.243093	-0.224824	0.111889	5.15671	4.34074	7.8538	0.000742345	0.00518753	0.00509393	-0.181885	-0.570312	-0.987061	-0.0516988	0.114613	-0.988981	0.0781461	-0.949132	-0.997697	-9.66226	-0.00132258	0.00285602	-0.00753699	-0.375732	0.187012	1.10669	
54	0.250362	0.129997	-0.957332	0.0627279	4.34508	-0.43113	-7.56795	0.00184269	-0.0206217	0.00106283	-0.6875	-0.0935059	0.845215	0.0977923	0.0383951	-0.99437	-0.013794	1.93071	0.431818	-9.33156	-0.0120832	0.00797115	-0.0182907	-0.463623	-0.146973	1.01025	0.932079	-0.292893	-0.21317	0.000994056	4.44614	-5.70025	7.68401	-0.00484632	-0.000695137	0.00964706	-0.265625	0.547119	-0.880859	0.814272	0.580064	-0.0166962	-0.0144029	0.0835737	9.19919	3.23554	0.00122411	0.00419957	-0.0013092	0.422607	-1.32764	-0.284424	0.960886	0.0322148	-0.223036	0.160982	4.22834	0.0690538	8.76796	0.0358717	0.00205096	-0.00589202	-0.0925293	-0.191895	-1.07886	0.755276	-0.279054	-0.23447	0.544711	0.589035	-8.23614	8.91975	0.0155081	0.0173287	-0.0246221	0.18335	0.719482	-0.973633	-0.411463	0.00209915	-0.896207	0.165851	-8.51173	0.226938	-3.63781	0.0133653	0.0882132	-0.00505735	0.740479	-0.092041	0.88208	0.925646	0.029719	-0.0520168	-0.373618	5.56404	-2.74522	8.95021	0.0065719	0.00883888	-0.0145933	-0.231689	0.359863	-0.998047	-0.0819611	0.416408	-0.905462	0.0049768	-1.3197	-0.121398	-9.0632	-0.00026139	0.00198964	-0.0189173	-0.258789	0.138916	1.07324	0.936929	0.242736	-0.224953	0.112423	5.09761	4.31253	7.8182	0.00643188	0.00415267	0.0140492	-0.184326	-0.563721	-0.987305	-0.0515101	0.114838	-0.988967	0.0781263	-0.940263	-0.998924	-9.66806	-0.000465364	0.00690911	-0.00867677	-0.375488	0.180176	1.11133	
55	0.250545	0.129849	-0.957348	0.0620642	4.27904	-0.383717	-7.58296	-0.0187212	0.00215561	-0.00132015	-0.689453	-0.0979004	0.845459	0.0977645	0.0386577	-0.994358	-0.0141208	1.93453	0.460147	-9.4769	-0.0159092	0.004663	-0.0221262	-0.463135	-0.162354	1.01099	0.93217	-0.292898	-0.212764	0.000699452	4.40458	-5.67901	7.83934	-0.0107511	0.0208877	-0.00876069	-0.265381	0.540527	-0.885254	0.814162	0.580223	-0.016588	-0.0143881	0.0779457	9.27817	3.16946	0.0185823	0.0103606	-0.00423937	0.42041	-1.32983	-0.280029	0.960937	0.031269	-0.223244	0.160573	4.39062	-0.185401	9.01402	-0.0501517	0.00714769	-0.0237535	-0.0908203	-0.185303	-1.07642	0.755099	-0.279128	-0.234515	0.5449	0.601172	-8.21708	8.97508	-0.0125156	0.0120087	-0.00569899	0.194092	0.72168	-0.980225	-0.411568	0.00203573	-0.896192	0.165673	-8.55735	0.256365	-4.02792	0.0103088	0.00490003	-0.00949344	0.740723	-0.0961914	0.886475	0.925686	0.0293267	-0.0520869	-0.373541	5.61686	-2.72066	8.93901	-0.0154619	0.00647591	-0.0193839	-0.229492	0.362061	-0.99585	-0.0819611	0.416408	-0.905462	0.0049768	-1.3197	-0.121398	-9.0632	-0.00026139	0.00198964	-0.0189173	-0.258789	0.138916	1.07324	0.936929	0.242736	-0.224953	0.112423	5.09761	4.31253	7.8182	0.00643188	0.00415267	0.0140492	-0.184326	-0.563721	-0.987305	-0.0514882	0.115057	-0.988936	0.0782054	-0.936258	-1.0023	-9.6582	0.00297594	0.00300736	-0.00777987	-0.380127	0.18457	1.10669	
56	0.250598	0.129946	-0.957358	0.0614863	4.21327	-0.461627	-7.58535	-0.015267	-0.00842833	-0.00962846	-0.689209	-0.102295	0.841064	0.0976202	0.0386203	-0.994372	-0.0142331	1.8823	0.440082	-9.42781	-0.0180266	0.00314209	-0.0202368	-0.461182	-0.157959	1.01074	0.931846	-0.293888	-0.212821	0.000503301	4.39168	-5.67799	7.86304	-0.0789923	0.000895295	0.00230732	-0.269775	0.547119	-0.883301	0.814036	0.580402	-0.0164896	-0.0143848	0.0507719	9.29182	3.18538	0.00505592	0.00662618	0.00217813	0.422363	-1.32544	-0.282471	0.960905	0.0311562	-0.223357	0.16063	4.34455	-0.2961	8.90931	-0.00977111	0.000799671	-0.00625858	-0.0905762	-0.1875	-1.07886	0.755109	-0.279277	-0.234606	0.544771	0.570933	-8.31749	8.84723	-0.0121635	0.0178959	-0.0232183	0.185547	0.72168	-0.97583	-0.411578	0.00188632	-0.89623	0.165444	-8.59218	0.241428	-4.0997	0.0161133	0.0153706	-0.0142724	0.740479	-0.092041	0.88623	0.925664	0.0294557	-0.0520541	-0.37359	5.60743	-2.77644	8.95655	0.00978074	0.0144878	-0.0163348	-0.23584	0.357666	-0.993408	-0.0820048	0.41684	-0.905258	0.00520253	-1.31269	-0.121628	-9.08862	0.00767662	0.00227477	-0.0199995	-0.260986	0.134277	1.07104	0.936866	0.242826	-0.22499	0.112681	5.17335	4.34658	7.79909	-0.0019112	0.00925882	0.00607283	-0.188477	-0.57251	-0.989258	-0.0514882	0.115057	-0.988936	0.0782054	-0.936258	-1.0023	-9.6582	0.00297594	0.00300736	-0.00777987	-0.380127	0.18457	1.10669	
57	0.250584	0.129914	-0.957373	0.0613817	4.21801	-0.467094	-7.56042	-0.00860774	-0.00370446	-0.000129543	-0.687256	-0.100098	0.843262	0.0974855	0.0385936	-0.994387	-0.0142186	1.94852	0.447007	-9.44799	-0.00594456	0.00150952	-0.0180736	-0.461182	-0.155762	1.0083	0.931846	-0.293888	-0.212821	0.000503301	4.39168	-5.67799	7.86304	-0.0789923	0.000895295	0.00230732	-0.269775	0.547119	-0.883301	0.814191	0.580186	-0.0164833	-0.0143483	0.0923846	9.17612	3.23805	0.00259575	0.00578553	-0.00513161	0.42041	-1.32764	-0.286621	0.960912	0.0306941	-0.223394	0.160626	4.27853	0.00543143	8.78408	-0.0250876	0.0176488	-0.0127474	-0.0864258	-0.183105	-1.07422	0.75514	-0.279053	-0.234456	0.544907	0.6152	-8.14556	9.03324	0.00764292	0.012062	-0.00649092	0.191895	0.723877	-0.973877	-0.411597	0.0018166	-0.896229	0.165401	-8.56182	0.251237	-4.0521	0.0200038	0.0116507	-0.0144445	0.734131	-0.0942383	0.879883	0.925694	0.0295117	-0.0521695	-0.373495	5.63094	-2.75052	8.92777	0.0190046	0.0162969	-0.0197787	-0.231689	0.359863	-0.993408	-0.0820188	0.417057	-0.905157	0.0052937	-1.31073	-0.119659	-9.07413	0.00711701	0.0025471	-0.0195856	-0.260986	0.136719	1.07544	0.936887	0.242669	-0.225024	0.112774	5.1312	4.309	7.79947	-0.00186309	0.0117809	0.0064883	-0.190674	-0.572754	-0.984619	-0.0513843	0.115234	-0.988906	0.0783985	-0.947661	-0.99927	-9.67295	0.00560372	0.00532837	-0.00725073	-0.375732	0.187012	1.10425	
58	0.25042	0.129761	-0.957425	0.0615486	4.17327	-0.452852	-7.55438	0.00837614	-0.00792155	0.0103862	-0.687256	-0.100098	0.843262	0.0974739	0.0385097	-0.994396	-0.0138489	1.93851	0.455997	-9.40469	0.00641529	0.00676034	-0.0159928	-0.463379	-0.155762	1.01294	0.931663	-0.294646	-0.212575	9.93981e-05	4.39091	-5.74221	7.71362	-0.0203993	0.0103528	-0.00314989	-0.265625	0.551514	-0.878662	0.814191	0.580186	-0.0164787	-0.014345	0.0376373	9.31717	3.17646	-0.0153939	-0.00339892	0.0040176	0.420654	-1.33643	-0.284424	0.960856	0.0315595	-0.223291	0.160936	4.3063	-0.147029	8.85327	0.0640951	0.00470489	-0.00615803	-0.0949707	-0.185303	-1.07642	0.755021	-0.279263	-0.234677	0.544869	0.584196	-8.35038	8.84409	0.00827819	0.00891736	-0.0204141	0.189697	0.72168	-0.980225	-0.411593	0.00160012	-0.896165	0.16576	-8.52371	0.255306	-4.04321	0.0265488	0.00822204	-0.00845682	0.742676	-0.092041	0.88208	0.925673	0.029932	-0.0521837	-0.373511	5.60326	-2.75322	8.91724	0.021253	0.0170316	-0.0154896	-0.229492	0.362061	-0.99585	-0.0820241	0.417063	-0.905153	0.00531721	-1.32525	-0.135455	-9.0608	0.0102602	0.00434711	-0.0200744	-0.260986	0.138916	1.07324	0.936913	0.24259	-0.225014	0.11275	5.13619	4.29689	7.80579	-0.00414372	0.0134063	0.000895044	-0.186523	-0.568115	-0.987061	-0.0514307	0.115246	-0.9889	0.078422	-0.929312	-0.998379	-9.65813	0.00319627	0.00539951	-0.00595947	-0.375732	0.184814	1.11572	
59	0.24985	0.12952	-0.957622	0.0613116	4.1264	-0.407947	-7.62393	-0.0182528	-0.0325795	0.00846748	-0.685303	-0.0957031	0.843262	0.0976888	0.0384231	-0.994385	-0.0133683	1.88214	0.415215	-9.43773	0.0127856	0.0274193	-0.0157505	-0.461182	-0.155762	1.00586	0.930969	-0.296888	-0.212493	-0.000917231	4.50634	-5.7212	7.77644	-0.12645	0.00868702	-0.0164724	-0.267822	0.558105	-0.881104	0.814245	0.580111	-0.0164836	-0.0142739	0.0792763	9.25146	3.19134	-0.00207224	0.00372936	0.00271943	0.42041	-1.32983	-0.284424	0.960769	0.0323593	-0.223205	0.161415	4.41691	-0.0227603	8.94743	0.0087262	0.0104362	-0.00812966	-0.0905762	-0.189697	-1.07422	0.75498	-0.278964	-0.234794	0.545028	0.625836	-8.21159	8.97068	-0.00549899	0.00490161	-0.013474	0.194336	0.717285	-0.977783	-0.411632	0.00130129	-0.896064	0.166211	-8.56544	0.250673	-4.03021	0.0321624	0.00498071	-0.00700825	0.740723	-0.0942383	0.886475	0.925686	0.0304145	-0.0516927	-0.373507	5.60911	-2.73202	8.92269	0.0106606	0.0244879	-0.00994593	-0.231445	0.353271	-0.993164	-0.082072	0.417301	-0.905039	0.0053958	-1.30285	-0.11781	-9.06972	0.00691776	0.0010527	-0.0209265	-0.256348	0.138916	1.07324	0.937209	0.242198	-0.224312	0.112535	5.19066	4.30752	7.80451	-0.00733176	0.0378889	-0.0100326	-0.186523	-0.568115	-0.987061	-0.051401	0.115252	-0.9889	0.0784391	-0.947711	-1.01368	-9.6456	0.00459144	0.00910714	-0.0059871	-0.380127	0.18457	1.11108	
60	0.249249	0.129436	-0.957811	0.0609788	4.22458	-0.403122	-7.64787	-0.011786	-0.0250055	0.00442182	-0.685059	-0.100098	0.847656	0.097731	0.0384112	-0.994387	-0.0129374	1.93178	0.380845	-9.52308	0.00732606	0.0121056	-0.0169002	-0.461426	-0.151367	1.01514	0.930281	-0.29933	-0.212073	-0.00214397	4.40113	-5.82268	7.75182	-0.0887027	0.0421245	-0.0174904	-0.265625	0.560059	-0.87207	0.814363	0.579949	-0.0163394	-0.0142854	0.0714037	9.20318	3.22306	-0.0058275	0.00954811	-0.00133726	0.422852	-1.33203	-0.282227	0.960664	0.0328888	-0.22313	0.162035	4.35704	0.0225675	8.82785	0.0325825	-0.00234725	0.0106176	-0.0927734	-0.189697	-1.07642	0.755026	-0.278768	-0.234743	0.545087	0.630847	-8.24545	8.93416	0.0190633	0.0110743	-0.0152616	0.185303	0.726074	-0.980225	-0.411906	0.00121198	-0.895919	0.166313	-8.59047	0.213134	-4.01394	0.0330497	-0.0112145	-0.0144661	0.740234	-0.0876465	0.881836	0.925898	0.0306014	-0.0514006	-0.373007	5.62477	-2.78415	8.93461	0.0188624	0.0401353	-0.00369628	-0.231445	0.357666	-0.990967	-0.0821934	0.417487	-0.90494	0.0056405	-1.31866	-0.116626	-9.08948	0.0142799	0.00145832	-0.0194608	-0.256348	0.134521	1.07324	0.937297	0.242217	-0.223923	0.11253	5.18691	4.30476	7.87922	0.00642524	0.0423556	-0.00693376	-0.179932	-0.563721	-0.989502	-0.051336	0.115288	-0.988887	0.0785824	-0.940367	-1.00366	-9.6651	0.00937725	0.0112604	-0.00918823	-0.382568	0.186768	1.11353	
61	0.248756	0.129116	-0.957993	0.0608162	4.2606	-0.47823	-7.64366	-0.00422606	-0.0177651	0.0110653	-0.680664	-0.0979004	0.843262	0.0980558	0.0382491	-0.994368	-0.0124518	1.94435	0.42403	-9.37931	0.0149662	0.0260212	-0.0104621	-0.459229	-0.153564	1.00342	0.929892	-0.300913	-0.211523	-0.00315862	4.40639	-5.86984	7.69486	-0.0488856	0.0302165	-0.0139636	-0.263672	0.562256	-0.872314	0.814316	0.580023	-0.016227	-0.0141194	0.0523202	9.29159	3.17072	-0.00197241	0.00858191	0.00288715	0.422363	-1.32544	-0.284668	0.960614	0.0327589	-0.22318	0.162293	4.3375	-0.138163	8.89449	-0.00994788	0.009314	0.000152838	-0.090332	-0.191895	-1.07202	0.754897	-0.278989	-0.234873	0.545097	0.577083	-8.26088	8.92219	-0.0168688	0.0166745	-0.0160691	0.189941	0.715332	-0.97998	-0.412562	0.00138861	-0.895547	0.166694	-8.53103	0.237441	-4.03863	0.0288366	0.0150532	-0.0174343	0.740723	-0.0961914	0.880127	0.926169	0.0313352	-0.0509746	-0.372332	5.54308	-2.72616	8.97731	0.0317436	0.0515939	-0.00189183	-0.225342	0.362061	-1.00049	-0.0819428	0.417892	-0.904775	0.00578322	-1.30808	-0.123045	-9.0716	0.00265935	0.0086832	-0.0183844	-0.263428	0.138916	1.07544	0.937297	0.242217	-0.223923	0.11253	5.18691	4.30476	7.87922	0.00642524	0.0423556	-0.00693376	-0.179932	-0.563721	-0.989502	-0.0512298	0.115371	-0.988872	0.0787183	-0.927509	-1.00509	-9.64245	0.00537916	0.0117511	-0.00841598	-0.378174	0.186768	1.10669	
62	0.248572	0.128584	-0.958097	0.0610584	4.3219	-0.427236	-7.59141	0.00776721	0.00340061	0.024499	-0.685303	-0.0935059	0.851807	0.0983127	0.0380884	-0.994353	-0.0120446	1.91804	0.419545	-9.43776	0.00324055	0.0227649	-0.0127115	-0.463623	-0.151367	1.01294	0.930323	-0.30022	-0.210605	-0.00359501	4.35769	-5.84011	7.66085	0.0661917	0.0539786	-0.00754657	-0.267822	0.560059	-0.87207	0.814346	0.579982	-0.0163349	-0.0139299	0.0826676	9.25406	3.19021	0.0116346	0.00466145	0.00796613	0.422363	-1.32544	-0.284668	0.960513	0.0324409	-0.223461	0.162564	4.32165	0.0959436	8.81915	-0.0131609	0.00275734	-0.000986645	-0.0905762	-0.189697	-1.07422	0.755005	-0.278822	-0.23484	0.545047	0.615101	-8.22659	8.95324	0.0165129	0.00977215	-0.0193857	0.196045	0.726074	-0.980225	-0.413123	0.00130275	-0.89529	0.166684	-8.58702	0.237586	-4.04996	0.0295738	0.0162534	-0.0120207	0.740479	-0.092041	0.88208	0.926261	0.0318825	-0.0502596	-0.372152	5.53354	-2.73006	8.96844	0.015197	0.046149	-0.00730244	-0.231689	0.359863	-0.998047	-0.0819236	0.417873	-0.904786	0.0057583	-1.31386	-0.112109	-9.07773	0.00591177	0.00439127	-0.0179124	-0.256348	0.138916	1.07544	0.937978	0.241721	-0.221684	0.112362	5.12632	4.31122	7.88183	-0.00733516	0.0481805	-0.0126256	-0.179932	-0.565918	-0.987061	-0.0511583	0.115375	-0.988884	0.0786184	-0.950493	-0.994984	-9.68241	-0.00160685	0.00836143	-0.0056197	-0.382324	0.182373	1.11572	
63	0.249008	0.127967	-0.958053	0.0612659	4.2067	-0.393745	-7.45866	-0.00420629	0.0204623	0.0185029	-0.683105	-0.0935059	0.838867	0.0985704	0.0378845	-0.99434	-0.0117215	1.93384	0.421589	-9.42305	0.00724117	0.0213266	-0.0111827	-0.463623	-0.14917	1.00562	0.930774	-0.299082	-0.210231	-0.00355939	4.31481	-5.75625	7.70298	0.102888	0.041165	-0.00508684	-0.263428	0.555664	-0.87207	0.814257	0.580108	-0.0163385	-0.0138682	0.0613287	9.26128	3.18113	0.015664	0.00534485	0.00414861	0.42041	-1.33203	-0.282227	0.960481	0.0317563	-0.223693	0.162568	4.30769	-0.122107	8.84411	-0.0381084	0.0107316	9.6593e-06	-0.090332	-0.194092	-1.07422	0.754917	-0.278921	-0.234935	0.545077	0.622714	-8.19096	8.9713	-0.00828846	0.00939498	-0.00999266	0.189697	0.723877	-0.978027	-0.413957	0.00138523	-0.894928	0.166561	-8.58715	0.25694	-4.07087	0.0141448	-0.0607832	-0.0117172	0.738525	-0.0961914	0.880127	0.926373	0.0319293	-0.050063	-0.371897	5.5299	-2.74117	8.98478	0.00900007	0.0392383	-0.00513726	-0.224854	0.355469	-0.995605	-0.0818325	0.417877	-0.904793	0.00564409	-1.30448	-0.132882	-9.09272	-0.00234467	0.0065911	-0.021193	-0.263428	0.138916	1.073	0.938205	0.241674	-0.220864	0.112178	5.08468	4.31976	7.91989	0.00721197	0.0405996	-0.0111742	-0.177734	-0.563721	-0.989502	-0.0510725	0.115477	-0.988873	0.0786572	-0.92419	-0.997041	-9.67612	0.0073752	0.0104023	-0.00908369	-0.384521	0.180176	1.10889	
64	0.249673	0.127679	-0.957927	0.0611331	4.15314	-0.413128	-7.48333	-0.0154857	0.0273213	0.00195736	-0.689697	-0.0957031	0.847412	0.0987146	0.0378467	-0.994327	-0.0116942	1.97065	0.407344	-9.47738	-0.00609373	0.023691	-0.0170337	-0.468018	-0.146973	1.0127	0.930986	-0.298489	-0.210134	-0.00350059	4.28871	-5.69423	7.74405	0.0284997	0.00767559	-0.000498004	-0.263428	0.55127	-0.874268	0.814161	0.580242	-0.0164241	-0.0138178	0.0610385	9.24682	3.19977	0.0191838	0.00378523	0.00331192	0.422852	-1.33203	-0.284424	0.960428	0.0319941	-0.22381	0.162675	4.27965	-0.0853232	8.79808	0.0173232	-0.00454804	-0.00864134	-0.0927734	-0.1875	-1.07422	0.754818	-0.279165	-0.235217	0.544967	0.609821	-8.27077	8.87485	-0.00115903	0.00943503	-0.0186207	0.189941	0.719482	-0.97583	-0.415058	0.00147772	-0.894477	0.166237	-8.58153	0.265579	-4.04489	0.00202771	-0.076912	-0.0131168	0.749268	-0.0961914	0.884277	0.926453	0.0321932	-0.0496732	-0.371727	5.52851	-2.73146	8.99561	0.00950919	0.0297917	-0.0068499	-0.2229	0.359863	-0.993408	-0.081673	0.417869	-0.904812	0.005438	-1.30195	-0.113458	-9.0905	0.00157043	0.00474236	-0.0200389	-0.258789	0.136719	1.07544	0.93835	0.24183	-0.220043	0.112241	5.05044	4.34936	7.92575	0.0105672	0.038004	-0.0063767	-0.182129	-0.563721	-0.991699	-0.0511213	0.115544	-0.988837	0.0789757	-0.91035	-1.00058	-9.66231	0.0161301	0.00644381	-0.0088701	-0.37793	0.182373	1.11353	
65	0.250701	0.127619	-0.957678	0.0609487	4.19586	-0.428139	-7.48227	-0.0112361	0.0459955	-0.00379394	-0.682861	-0.0979004	0.843262	0.0988126	0.0378238	-0.994322	-0.0113452	1.95812	0.380699	-9.44328	0.00352715	0.0044349	-0.0182661	-0.468018	-0.14917	1.0105	0.929734	-0.301623	-0.211198	-0.00363239	4.37169	-5.76176	7.61539	-0.14575	-0.0433803	0.0145271	-0.263672	0.562256	-0.869873	0.814015	0.580445	-0.0164888	-0.0138551	0.0623897	9.2573	3.18099	0.00742521	-0.00165593	-0.00140586	0.42041	-1.33203	-0.277832	0.960421	0.0337808	-0.223561	0.162699	4.32624	-0.201334	8.83304	0.0744989	0.00745745	-0.0312244	-0.0947266	-0.191895	-1.07642	0.754738	-0.278927	-0.235481	0.545087	0.618998	-8.25019	8.92932	-0.00397577	-0.000269714	-0.0190341	0.187744	0.719482	-0.97583	-0.416362	0.0018078	-0.893935	0.165888	-8.61544	0.234647	-4.11543	0.00624189	-0.0715526	-0.0227798	0.749268	-0.0939941	0.879883	0.926538	0.0321586	-0.0496374	-0.371524	5.49203	-2.73737	9.00131	0.00754796	0.0245737	-0.0088951	-0.224854	0.355469	-0.998047	-0.0816429	0.417915	-0.904794	0.00534702	-1.30929	-0.127186	-9.08928	0.00157911	0.00474802	-0.0200314	-0.256348	0.136719	1.07324	0.938391	0.242043	-0.219577	0.112355	5.05855	4.33072	7.86165	0.0199875	0.0266678	0.00325856	-0.179932	-0.565918	-0.987061	-0.0512348	0.115574	-0.988822	0.0790457	-0.944331	-1.00959	-9.66358	0.00355667	0.0039386	-0.00553302	-0.380371	0.186768	1.11108	
66	0.251146	0.127458	-0.957593	0.0607938	4.15553	-0.357866	-7.5495	-0.0197887	0.034275	0.00582254	-0.689453	-0.100098	0.843262	0.0987647	0.0377584	-0.994331	-0.0111768	1.92511	0.387423	-9.44566	0.00555202	0.00860455	-0.0138022	-0.463379	-0.155762	1.01074	0.928322	-0.305172	-0.212307	-0.00381969	4.59519	-6.05264	7.59342	-0.127097	-0.0422703	0.00746766	-0.265625	0.562256	-0.863037	0.813951	0.58053	-0.0165348	-0.013983	0.0705323	9.21946	3.18636	0.0111473	-0.00486404	-0.00589014	0.417969	-1.32764	-0.275635	0.96053	0.0358459	-0.222931	0.162476	4.34832	0.0189621	8.79317	0.0809024	0.0157312	-0.035272	-0.0944824	-0.200684	-1.07202	0.754731	-0.278884	-0.235576	0.545077	0.625163	-8.28681	8.89018	0.00111286	0.00682245	-0.0191671	0.185547	0.72168	-0.982178	-0.416362	0.0018078	-0.893935	0.165888	-8.61544	0.234647	-4.11543	0.00624189	-0.0715526	-0.0227798	0.749268	-0.0939941	0.879883	0.926538	0.0321586	-0.0496374	-0.371524	5.49203	-2.73737	9.00131	0.00754796	0.0245737	-0.0088951	-0.224854	0.355469	-0.998047	-0.0815865	0.417909	-0.904803	0.0052502	-1.30273	-0.120648	-9.06956	-0.000703224	0.00529503	-0.0189912	-0.265625	0.136475	1.07324	0.938391	0.242043	-0.219577	0.112355	5.05855	4.33072	7.86165	0.0199875	0.0266678	0.00325856	-0.179932	-0.565918	-0.987061	-0.0512559	0.115573	-0.98882	0.0790586	-0.935969	-1.02352	-9.67207	0.00431995	0.00601331	-0.00574937	-0.382324	0.182373	1.12036	
67	0.251525	0.127157	-0.957568	0.0602527	4.2863	-0.378827	-7.53182	-0.0212796	0.00870451	0.00767564	-0.694092	-0.0957031	0.838867	0.0983372	0.0376822	-0.994378	-0.0110704	2.00556	0.431044	-9.41862	0.00544727	-0.00745925	-0.0134936	-0.467773	-0.153564	1.0083	0.927115	-0.308351	-0.212981	-0.00393965	4.38144	-5.93943	7.55856	-0.118663	-0.0242189	0.0166229	-0.268066	0.568848	-0.863281	0.813689	0.580894	-0.0164803	-0.0141761	0.0646505	9.2678	3.1633	-0.00770598	0.00329133	-0.000163451	0.42041	-1.32983	-0.282227	0.960508	0.0383045	-0.22245	0.162707	4.33904	0.157095	8.7792	0.101967	0.016242	-0.0309895	-0.0898438	-0.205078	-1.07422	0.754832	-0.278728	-0.235652	0.544984	0.614435	-8.26338	8.90058	0.0111095	0.0069687	-0.0157463	0.185303	0.723877	-0.980225	-0.419713	0.00295663	-0.892347	0.165978	-8.60042	0.225481	-3.83817	0.0102039	-0.0638841	-0.020355	0.751221	-0.0917969	0.873535	0.926568	0.0318953	-0.0489557	-0.371562	5.51994	-2.71695	8.99459	-0.0086175	0.0167684	-0.0127274	-0.2229	0.359863	-0.99585	-0.0815058	0.418165	-0.904692	0.00516641	-1.29977	-0.100062	-9.09782	0.00243424	0.00311687	-0.0200612	-0.263184	0.13208	1.07324	0.938462	0.242218	-0.218882	0.112739	5.04373	4.34244	7.90463	0.0108032	0.0205172	0.00538642	-0.170898	-0.568115	-0.991699	-0.0512559	0.115573	-0.98882	0.0790586	-0.935969	-1.02352	-9.67207	0.00431995	0.00601331	-0.00574937	-0.382324	0.182373	1.12036	
68	0.251656	0.126828	-0.95761	0.0597195	4.3279	-0.427204	-7.71466	-0.023105	-0.00315669	0.00206833	-0.689209	-0.102295	0.838867	0.0983579	0.0376192	-0.994379	-0.0110285	1.98746	0.391553	-9.42544	-0.00439533	0.0135512	-0.014631	-0.46582	-0.151367	1.00586	0.927153	-0.308549	-0.212528	-0.00402308	4.38884	-5.85878	7.64137	0.0152182	0.0388594	0.0117907	-0.265869	0.570801	-0.863281	0.813401	0.581297	-0.0164481	-0.0142405	0.0672468	9.29101	3.14733	0.0329694	0.00376911	-0.00134913	0.424805	-1.32983	-0.277832	0.960458	0.0395729	-0.222225	0.163007	4.39602	0.113884	8.88011	0.0226613	0.00150369	-0.0062263	-0.0939941	-0.209473	-1.06958	0.754785	-0.278599	-0.235843	0.545033	0.641444	-8.24633	8.93373	-0.00214471	0.00644254	-0.0161855	0.18335	0.723877	-0.978027	-0.42146	0.00350967	-0.891565	0.165741	-8.70624	0.241115	-3.93747	0.0119321	-0.054484	-0.0254659	0.755371	-0.0876465	0.869141	0.926742	0.0312515	-0.0488137	-0.371201	5.54074	-2.77998	9.00396	-0.0155692	0.0178333	-0.00887626	-0.227295	0.357666	-0.993408	-0.0814685	0.418425	-0.904576	0.00510794	-1.30124	-0.105154	-9.07199	0.000847249	0.00186888	-0.0205331	-0.265625	0.138916	1.07544	0.938561	0.242243	-0.218415	0.112766	5.04911	4.36084	7.90157	0.0059785	0.0309063	0.000471729	-0.172852	-0.570312	-0.984863	-0.0511602	0.115764	-0.988783	0.0792997	-0.922306	-1.01582	-9.66134	0.00715943	0.00553842	-0.00699042	-0.375732	0.187012	1.11108	
69	0.251737	0.12679	-0.957594	0.0597116	4.24651	-0.462408	-7.71606	0.00633399	-0.0028893	0.000191138	-0.685059	-0.0979004	0.83667	0.0980906	0.0377965	-0.994396	-0.0112638	1.96429	0.408887	-9.55282	-0.00881004	0.00149651	-0.0151445	-0.463623	-0.14917	1.01514	0.927643	-0.306836	-0.212875	-0.00372924	4.47392	-6.06325	7.63711	0.116879	-0.00227556	-0.0105877	-0.261719	0.570801	-0.870117	0.813441	0.581251	-0.0162443	-0.014021	0.0521092	9.28118	3.15026	-0.00691533	0.0153539	0.00604165	0.418213	-1.32983	-0.273438	0.96038	0.0386507	-0.222801	0.162898	4.37768	0.11794	8.84081	-0.0629655	-0.0132109	-0.00264856	-0.0922852	-0.202881	-1.07642	0.754673	-0.278914	-0.236059	0.544932	0.615235	-8.28959	8.88706	-0.0187846	0.0168032	-0.0160902	0.1875	0.723877	-0.978027	-0.423091	0.00400318	-0.890822	0.16557	-8.70023	0.240065	-3.86737	0.014238	-0.0452747	-0.0238816	0.764648	-0.0983887	0.865234	0.926811	0.0310326	-0.0487971	-0.371049	5.5785	-2.77003	9.03673	-0.0059342	0.0172068	-0.0119759	-0.229492	0.362061	-1.00049	-0.0813761	0.418438	-0.904579	0.00496991	-1.31341	-0.0866034	-9.08077	0.00484376	0.00580212	-0.0207478	-0.262939	0.129639	1.07544	0.938676	0.242236	-0.217814	0.112987	5.08933	4.37264	7.9305	0.00469697	0.0315929	0.00298983	-0.170654	-0.570068	-0.987061	-0.0510791	0.115907	-0.988755	0.0794992	-0.934804	-1.02104	-9.65639	0.00589624	0.00506841	-0.00645949	-0.37793	0.18457	1.10889	
70	0.251694	0.126502	-0.957607	0.0603019	4.35737	-0.448026	-7.62264	0.024687	0.00995534	0.0219963	-0.691895	-0.0957031	0.841064	0.0980006	0.0375534	-0.994415	-0.0111142	1.94623	0.36449	-9.44304	-0.00138086	0.0125315	-0.00965808	-0.461426	-0.146973	1.00806	0.929211	-0.302497	-0.21225	-0.00340053	4.45039	-5.87625	7.66123	0.213015	0.0528076	-0.0109425	-0.265625	0.557861	-0.869873	0.813209	0.581578	-0.0163302	-0.013854	0.0642825	9.30196	3.14243	0.0252864	0.00621513	0.00851374	0.422607	-1.32983	-0.275635	0.960225	0.0373239	-0.223534	0.163117	4.3432	0.0248535	8.87294	-0.0520683	-0.0187521	0.0102373	-0.0966797	-0.198486	-1.06958	0.754616	-0.279072	-0.236284	0.544833	0.633808	-8.2562	8.93531	-0.0111003	0.0109712	-0.0185042	0.183105	0.723877	-0.980225	-0.423867	0.00414085	-0.890449	0.165591	-8.65843	0.226189	-3.78559	0.022249	-0.017714	-0.0223487	0.766357	-0.0895996	0.86499	0.926983	0.0319218	-0.0483271	-0.370604	5.51671	-2.73729	8.99234	0.0317271	0.0397101	-0.00548552	-0.222656	0.351318	-0.995605	-0.0812474	0.418469	-0.904577	0.00482785	-1.30087	-0.0978772	-9.08523	0.000947654	0.00583441	-0.0193321	-0.260742	0.127441	1.07544	0.938936	0.241827	-0.21718	0.112926	5.00852	4.32778	7.92536	-0.013884	0.0388302	-0.00412793	-0.172852	-0.570312	-0.991699	-0.0510454	0.115903	-0.988755	0.0795276	-0.922604	-1.01861	-9.64994	0.00525071	0.0107369	-0.00579142	-0.380127	0.182373	1.10669	
71	0.252045	0.126262	-0.957519	0.0607384	4.2734	-0.406039	-7.5695	0.0253183	0.0329661	0.0230393	-0.689697	-0.0935059	0.841064	0.0980596	0.0374287	-0.994415	-0.0110326	1.91685	0.346668	-9.42523	-0.00221574	0.0170742	-0.00985797	-0.459473	-0.146973	1.01514	0.93014	-0.299901	-0.211876	-0.00294811	4.39778	-5.79273	7.73109	0.228928	0.0394042	0.0004103	-0.267822	0.558105	-0.876709	0.813209	0.581578	-0.0163302	-0.013854	0.0642825	9.30196	3.14243	0.0252864	0.00621513	0.00851374	0.422607	-1.32983	-0.275635	0.960141	0.0366224	-0.224036	0.163085	4.37099	0.120327	8.73517	-0.0615475	-0.0223119	-0.000826604	-0.0986328	-0.202881	-1.07422	0.754544	-0.279199	-0.23645	0.544796	0.641523	-8.27807	8.9025	-0.0143541	0.0102677	-0.016858	0.191895	0.723877	-0.980225	-0.424233	0.00416622	-0.890268	0.165626	-8.6862	0.253623	-3.84764	0.0248019	-0.0204753	-0.0192377	0.76416	-0.0917969	0.858643	0.927083	0.032255	-0.0482231	-0.37034	5.5383	-2.76043	9.01116	0.032575	0.0402366	-0.00474612	-0.216309	0.357666	-0.998047	-0.0812474	0.418469	-0.904577	0.00482785	-1.30087	-0.0978772	-9.08523	0.000947654	0.00583441	-0.0193321	-0.260742	0.127441	1.07544	0.938936	0.241827	-0.21718	0.112926	5.00852	4.32778	7.92536	-0.013884	0.0388302	-0.00412793	-0.172852	-0.570312	-0.991699	-0.0509858	0.116011	-0.988737	0.0796355	-0.926307	-1.01611	-9.65716	0.00556049	0.00625017	-0.00734311	-0.380127	0.180176	1.10889	
72	0.252405	0.125725	-0.957444	0.0615252	4.241	-0.443422	-7.54028	0.0224041	0.0135763	0.0291492	-0.694092	-0.0957031	0.83667	0.0979296	0.0371794	-0.99444	-0.0107857	1.90549	0.389965	-9.39642	0.000229421	0.00811163	-0.0106479	-0.461426	-0.14917	1.0127	0.932428	-0.293308	-0.211057	-0.00209443	4.38223	-5.7368	7.64663	0.283032	0.0434695	-0.0130767	-0.26123	0.542725	-0.880859	0.813316	0.581435	-0.0164097	-0.0134559	0.0714236	9.29489	3.13576	-0.00536698	0.0080066	0.0150635	0.425049	-1.33203	-0.280029	0.960122	0.0342299	-0.22471	0.162788	4.39114	-0.0500553	8.8025	-0.0996129	-0.00652421	0.00421573	-0.097168	-0.189697	-1.07642	0.754431	-0.279626	-0.23667	0.544638	0.633118	-8.27764	8.91007	-0.0270357	0.0227619	-0.0168009	0.185547	0.72168	-0.97583	-0.424233	0.00416622	-0.890268	0.165626	-8.6862	0.253623	-3.84764	0.0248019	-0.0204753	-0.0192377	0.76416	-0.0917969	0.858643	0.927192	0.0324888	-0.0481497	-0.370054	5.5059	-2.75674	8.9718	0.0261073	0.0350085	-0.00219646	-0.218506	0.357666	-0.993408	-0.0812474	0.418469	-0.904577	0.00482785	-1.30087	-0.0978772	-9.08523	0.000947654	0.00583441	-0.0193321	-0.260742	0.127441	1.07544	0.938936	0.241827	-0.21718	0.112926	5.00852	4.32778	7.92536	-0.013884	0.0388302	-0.00412793	-0.172852	-0.570312	-0.991699	-0.0510149	0.11606	-0.988721	0.0797431	-0.924715	-1.02918	-9.66341	0.00813689	0.00742107	-0.00733044	-0.384766	0.186768	1.11572	
73	0.252694	0.125151	-0.957395	0.0622766	4.22504	-0.406386	-7.48055	0.0216719	0.0159982	0.0279513	-0.698486	-0.0915527	0.83667	0.097721	0.0370039	-0.994466	-0.0108525	1.90809	0.352037	-9.50857	-0.0152352	0.00340067	-0.0160318	-0.46167	-0.144775	1.0127	0.934491	-0.28752	-0.209897	-0.00161168	4.33216	-5.5516	7.88868	0.203047	0.049089	-0.0163895	-0.263184	0.536377	-0.889648	0.813224	0.581576	-0.0163202	-0.0130771	0.0657353	9.2492	3.17262	0.00564127	0.00786308	0.00658468	0.427246	-1.33203	-0.282227	0.960027	0.0330454	-0.22532	0.16275	4.36898	-0.0848715	8.82713	-0.0310976	-0.00587268	-0.0105989	-0.097168	-0.189697	-1.07642	0.754331	-0.279839	-0.236791	0.544615	0.631776	-8.22998	8.90878	-0.0012752	0.0106489	-0.0101508	0.189697	0.723877	-0.973877	-0.424233	0.00416622	-0.890268	0.165626	-8.6862	0.253623	-3.84764	0.0248019	-0.0204753	-0.0192377	0.76416	-0.0917969	0.858643	0.927192	0.0324888	-0.0481497	-0.370054	5.5059	-2.75674	8.9718	0.0261073	0.0350085	-0.00219646	-0.218506	0.357666	-0.993408	-0.080808	0.419431	-0.90417	0.00489577	-1.3029	-0.0952731	-9.08744	-0.00131619	0.00708038	-0.0202717	-0.260986	0.136719	1.07324	0.939562	0.241213	-0.215018	0.113165	5.01841	4.33921	7.9379	-0.00626998	0.0390972	-0.00335182	-0.16626	-0.570068	-0.989258	-0.0510373	0.116111	-0.988706	0.0798386	-0.935155	-1.01397	-9.6667	0.0109969	0.00637871	-0.00919636	-0.375732	0.187012	1.10669	
74	0.252823	0.12471	-0.957396	0.0626238	4.19929	-0.52064	-7.49613	0.00756292	0.000891616	0.0143016	-0.694092	-0.0957031	0.83667	0.0974703	0.0368114	-0.994501	-0.0106288	1.8927	0.338948	-9.37741	-0.00124266	0.00569731	-0.0101531	-0.457275	-0.146973	1.0127	0.935093	-0.285863	-0.209477	-0.00166423	4.35408	-5.56617	7.8506	0.0719531	0.024283	-0.00977037	-0.263184	0.529785	-0.891846	0.813184	0.581636	-0.0163072	-0.0128685	0.08989	9.26351	3.15069	0.00235598	0.0065732	0.00331069	0.42041	-1.33203	-0.273438	0.959989	0.032821	-0.225441	0.162852	4.40536	0.00461622	8.73854	0.00517444	0.00412396	-0.00403943	-0.098877	-0.196289	-1.07422	0.754293	-0.279961	-0.236895	0.544559	0.632504	-8.33906	8.83376	0.00372758	0.0154276	-0.0164662	0.185303	0.723877	-0.97583	-0.426147	0.00507414	-0.889155	0.166663	-8.67186	0.205482	-3.76196	0.0263758	0.00462766	-0.0215899	0.770508	-0.0895996	0.858643	0.927337	0.0337697	-0.0471616	-0.369706	5.45236	-2.73287	9.00986	0.0190605	0.0272566	-0.00890562	-0.211914	0.353516	-1.00024	-0.080808	0.419431	-0.90417	0.00489577	-1.3029	-0.0952731	-9.08744	-0.00131619	0.00708038	-0.0202717	-0.260986	0.136719	1.07324	0.939692	0.241012	-0.214677	0.113164	4.98363	4.29612	7.92406	-0.011645	0.0414007	-0.00247625	-0.161865	-0.565674	-0.987061	-0.0510034	0.116242	-0.98868	0.079996	-0.920582	-1.03834	-9.65386	-0.00125477	0.00524564	-0.00799885	-0.378174	0.186768	1.10889	
75	0.252612	0.124409	-0.957454	0.0631703	4.2627	-0.466151	-7.49064	0.0213026	-0.00546289	0.0175598	-0.691895	-0.0915527	0.841064	0.0975178	0.0366677	-0.994502	-0.0105542	1.92469	0.395737	-9.44374	-0.00848818	0.0207932	-0.0136842	-0.461426	-0.146973	1.0127	0.935336	-0.285099	-0.209435	-0.00164794	4.31682	-5.6049	7.87668	0.0695416	0.0129876	-0.00847899	-0.265137	0.527588	-0.891846	0.813297	0.581477	-0.016454	-0.0127602	0.0924449	9.26265	3.15314	0.00549938	0.00142673	0.00759729	0.422607	-1.32983	-0.273438	0.960027	0.0330737	-0.225321	0.16274	4.39507	-0.152964	8.868	0.0147588	0.00885709	-0.025678	-0.101318	-0.191895	-1.07642	0.754181	-0.280099	-0.236991	0.544602	0.629989	-8.23965	8.92517	-0.0141722	0.0139138	-0.0109807	0.1875	0.726074	-0.978027	-0.426362	0.00504132	-0.889047	0.166689	-8.69169	0.211142	-3.68859	0.0251422	-0.00630012	-0.0173499	0.770508	-0.0895996	0.867188	0.927418	0.0337811	-0.047116	-0.369506	5.46384	-2.75731	8.99986	0.0101374	0.0259942	-0.00846845	-0.218262	0.351318	-0.998047	-0.080808	0.419431	-0.90417	0.00489577	-1.3029	-0.0952731	-9.08744	-0.00131619	0.00708038	-0.0202717	-0.260986	0.136719	1.07324	0.939906	0.240931	-0.213629	0.11354	4.98026	4.32284	7.95558	0.00298005	0.0339857	0.0032282	-0.164307	-0.565674	-0.993896	-0.0510768	0.1163	-0.988671	0.079973	-0.91761	-1.01758	-9.65321	0.00407383	0.00348572	-0.00772301	-0.380371	0.188965	1.10889	
76	0.252727	0.124256	-0.957417	0.0635772	4.20334	-0.481502	-7.52326	0.0112758	0.00852079	0.00285666	-0.692139	-0.0893555	0.838867	0.0975325	0.0366174	-0.994503	-0.0105133	1.91894	0.405105	-9.44537	-0.0018765	0.00972246	-0.0185597	-0.459229	-0.151367	1.00806	0.935508	-0.284442	-0.209562	-0.00136605	4.37002	-5.51706	7.85858	-0.0110941	-0.00329263	0.0105739	-0.260742	0.523193	-0.894043	0.813254	0.581536	-0.0164682	-0.0127322	0.0920407	9.24773	3.17345	0.00820102	0.00349727	-0.00257327	0.418213	-1.33203	-0.277832	0.960048	0.0340309	-0.225107	0.162715	4.38884	-0.0283598	8.79263	0.0406569	0.013323	-0.0262861	-0.0966797	-0.196289	-1.07202	0.75418	-0.279899	-0.236988	0.544707	0.638247	-8.2536	8.90862	0.0218211	0.00723244	-0.0153794	0.189453	0.730469	-0.971924	-0.426571	0.00518414	-0.888876	0.167064	-8.75514	0.227499	-3.85445	0.0224369	-0.00518865	-0.0208971	0.768555	-0.0917969	0.86084	0.92745	0.0337303	-0.0470034	-0.369445	5.46213	-2.76327	9.05453	0.00808555	0.00925433	-0.017015	-0.216309	0.353516	-0.993408	-0.080808	0.419431	-0.90417	0.00489577	-1.3029	-0.0952731	-9.08744	-0.00131619	0.00708038	-0.0202717	-0.260986	0.136719	1.07324	0.939895	0.240994	-0.2135	0.113738	4.97981	4.36862	7.95259	0.00953874	0.0114133	0.00978444	-0.164062	-0.570068	-0.987061	-0.0511551	0.116314	-0.988672	0.0798904	-0.940403	-1.02668	-9.66175	0.000243286	0.00434694	-0.00646763	-0.384766	0.186768	1.10889	
77	0.252473	0.124506	-0.957456	0.0635052	4.25351	-0.479381	-7.51301	0.000393929	-0.0174001	-0.0136923	-0.689941	-0.0871582	0.83667	0.0973644	0.0366097	-0.994521	-0.0104327	1.89569	0.362423	-9.37184	-0.00455599	0.00574019	-0.0210342	-0.463623	-0.146973	1.01514	0.93513	-0.285806	-0.209389	-0.00179158	4.36549	-5.54757	7.89225	-0.0733215	0.0182129	-0.00235125	-0.258789	0.533936	-0.89209	0.813215	0.581587	-0.016472	-0.0128873	0.0819467	9.29554	3.15041	-0.00423111	-0.00273841	-0.00279039	0.42041	-1.33203	-0.275635	0.960086	0.0351336	-0.224665	0.162868	4.37146	-0.0171699	8.82302	0.0495288	0.0212471	-0.0197149	-0.103271	-0.198486	-1.07422	0.754188	-0.279811	-0.237008	0.544733	0.625304	-8.2205	8.92462	0.00869586	0.00798542	-0.0161721	0.185059	0.732666	-0.978271	-0.426378	0.00513923	-0.888922	0.167314	-8.74585	0.227854	-3.78027	0.0196654	0.014097	-0.0148535	0.772949	-0.0917969	0.862793	0.927507	0.0334859	-0.0475412	-0.369254	5.47702	-2.71073	9.00534	0.00486524	-0.00541782	-0.0143294	-0.216064	0.351318	-1.00269	-0.0808317	0.420725	-0.903563	0.00546586	-1.29378	-0.0883831	-9.09049	0.00596849	0.00242712	-0.0197946	-0.263184	0.13208	1.07324	0.939839	0.241034	-0.213687	0.113768	4.97218	4.34312	7.92247	0.00560729	-0.00296238	0.00745764	-0.161865	-0.570068	-0.993896	-0.0511933	0.116363	-0.98866	0.0799449	-0.929692	-1.03915	-9.62888	0.00457746	0.00468086	-0.00712787	-0.380371	0.186768	1.11353	
78	0.252397	0.124775	-0.957453	0.0633356	4.1808	-0.430122	-7.52211	-0.00463425	-0.00341855	-0.0117477	-0.696533	-0.0893555	0.834473	0.0971392	0.0367407	-0.994539	-0.0103405	1.88558	0.365619	-9.47276	-0.00288352	0.00518142	-0.0264908	-0.455078	-0.144775	1.01489	0.934299	-0.288511	-0.209385	-0.0022737	4.38206	-5.55609	7.88577	-0.117046	-0.00441775	0.00993736	-0.260986	0.53833	-0.887451	0.81319	0.581619	-0.0164223	-0.0130991	0.0957788	9.27058	3.14285	0.012172	0.00426104	-0.00793591	0.42041	-1.32764	-0.275635	0.96013	0.036622	-0.224164	0.16297	4.38069	0.043434	8.76194	0.0650026	0.0179236	-0.020065	-0.0944824	-0.200684	-1.06958	0.754373	-0.279408	-0.23689	0.544734	0.634412	-8.2442	8.88453	0.0184509	0.00598536	-0.0113473	0.185303	0.726074	-0.973877	-0.426197	0.00508846	-0.889005	0.167331	-8.75817	0.208483	-3.77813	0.0116732	0.0138377	-0.016885	0.768555	-0.0939941	0.86084	0.927588	0.0327383	-0.0481371	-0.369042	5.50874	-2.75271	9.03326	-0.0121697	-0.0133728	-0.0154594	-0.214111	0.353516	-0.993408	-0.0810509	0.42096	-0.903434	0.00560421	-1.30431	-0.0905994	-9.09866	0.0167302	-0.00160311	-0.0194979	-0.260986	0.134277	1.07104	0.939494	0.241537	-0.214502	0.114017	5.01892	4.35961	7.95098	0.020173	-0.0180009	0.0109268	-0.16626	-0.572266	-0.993896	-0.0511933	0.116363	-0.98866	0.0799449	-0.929692	-1.03915	-9.62888	0.00457746	0.00468086	-0.00712787	-0.380371	0.186768	1.11353	
79	0.252212	0.124894	-0.957501	0.0631081	4.1775	-0.466585	-7.53587	-0.0132119	-0.0197945	-0.0141796	-0.689941	-0.0893555	0.843018	0.0968286	0.0369088	-0.994561	-0.0104597	1.89429	0.403357	-9.46691	-0.0110606	-0.0024011	-0.0242196	-0.457031	-0.14917	1.01733	0.933701	-0.290156	-0.209774	-0.00252781	4.40301	-5.61066	7.83076	-0.133687	-0.0281283	0.00207182	-0.26123	0.542725	-0.889893	0.813219	0.581582	-0.0162854	-0.0131484	0.0776939	9.30388	3.13775	-0.00104623	0.00974058	-0.00913036	0.422852	-1.33423	-0.277832	0.960194	0.0378779	-0.223616	0.163061	4.38518	-0.0358334	8.82564	0.0488867	0.0290884	-0.0248155	-0.0964355	-0.205078	-1.07422	0.754362	-0.279269	-0.236842	0.544842	0.649402	-8.26948	8.8973	0.0155027	0.00850608	-0.0102122	0.189697	0.726074	-0.980225	-0.42611	0.00501161	-0.889077	0.167177	-8.74607	0.239046	-3.73834	0.0115018	0.0218234	-0.0126713	0.770752	-0.0917969	0.858643	0.927628	0.0323522	-0.048394	-0.368941	5.51819	-2.73755	9.0328	-0.0110078	-0.00899205	-0.014071	-0.220459	0.353516	-1.00024	-0.0810938	0.420972	-0.903424	0.00559121	-1.29599	-0.0975801	-9.07075	0.0086209	0.000440189	-0.0216011	-0.265625	0.136475	1.07324	0.939356	0.241716	-0.214879	0.114067	5.04709	4.36633	7.94304	0.0166318	-0.0196228	0.0112477	-0.157471	-0.565674	-0.993896	-0.0511891	0.116518	-0.988647	0.0798811	-0.93336	-1.02853	-9.65431	-0.000806309	0.00216848	-0.00585097	-0.37793	0.18457	1.11353	
80	0.251551	0.125319	-0.957639	0.0628124	4.31659	-0.474685	-7.60633	-0.0028908	-0.0197989	-0.0115515	-0.691895	-0.0935059	0.841064	0.0966526	0.0370403	-0.994576	-0.0102852	1.93273	0.345584	-9.45328	0.00326641	0.00355742	-0.0242058	-0.46582	-0.151367	1.01294	0.932818	-0.292927	-0.209846	-0.00298256	4.37767	-5.69525	7.83197	-0.0760431	-0.00162894	0.00435739	-0.26123	0.544922	-0.887695	0.813269	0.581516	-0.0160213	-0.0132582	0.0710102	9.23595	3.18381	0.000819619	0.00813268	-0.0113645	0.42041	-1.32983	-0.277832	0.960238	0.0387084	-0.223226	0.163139	4.39403	0.264503	8.95419	0.00842832	0.01864	-0.0183478	-0.0876465	-0.207275	-1.07422	0.75443	-0.278766	-0.236552	0.545131	0.642679	-8.1833	8.96542	0.0203767	0.00751262	-0.00779422	0.181152	0.72168	-0.978027	-0.425892	0.00473991	-0.889253	0.166803	-8.69736	0.242779	-3.76753	0.0105908	0.022436	-0.00749456	0.766113	-0.0874023	0.860596	0.927627	0.0316819	-0.048804	-0.368948	5.49983	-2.77091	8.99166	-0.00421367	0.000190431	-0.0160052	-0.218506	0.35791	-1.00049	-0.0811714	0.420953	-0.903426	0.00555484	-1.2894	-0.090956	-9.08148	0.00815466	-8.86149e-05	-0.0214525	-0.256104	0.13208	1.06885	0.939149	0.242051	-0.215342	0.114188	5.00909	4.35236	7.92217	0.0154565	-0.0140366	0.00851221	-0.164307	-0.565674	-0.987061	-0.0510953	0.116652	-0.98863	0.0799527	-0.926719	-1.02193	-9.66506	0.00387547	0.00762266	-0.00842106	-0.382568	0.186768	1.11572	
81	0.251519	0.125339	-0.957653	0.0626817	4.34012	-0.491639	-7.6158	-0.00952247	-0.0054078	-0.00470486	-0.692139	-0.0893555	0.83667	0.0966712	0.0371211	-0.994569	-0.0104266	1.90231	0.308523	-9.49231	-0.0178566	0.0130523	-0.0275392	-0.459473	-0.146973	1.0127	0.932788	-0.29273	-0.210259	-0.00271773	4.39441	-5.71044	7.80946	0.024853	-0.0319149	0.0086911	-0.26123	0.542725	-0.880859	0.813377	0.581375	-0.0157525	-0.0131366	0.0688525	9.31145	3.12746	-0.0116809	0.0159062	9.46499e-05	0.42041	-1.33203	-0.280029	0.960316	0.0378004	-0.223256	0.162851	4.38136	-0.179089	8.8023	-0.0768102	0.0179669	-0.0202953	-0.0900879	-0.198486	-1.07642	0.754344	-0.278932	-0.23661	0.545141	0.64273	-8.28966	8.89359	-0.0113954	0.0172	-0.0101798	0.1875	0.723877	-0.980225	-0.425518	0.00464058	-0.889424	0.166844	-8.72484	0.198896	-3.7813	0.0122722	0.0230427	-0.0107131	0.766357	-0.0895996	0.858643	0.927662	0.0313957	-0.0489853	-0.368861	5.52245	-2.79504	9.0333	-0.00592177	-0.000552744	-0.01577	-0.21875	0.359863	-0.99585	-0.0813204	0.420893	-0.90344	0.0056686	-1.30417	-0.0969337	-9.09726	0.0134485	0.00118409	-0.0190169	-0.258789	0.136719	1.07544	0.938958	0.242395	-0.215716	0.114319	5.01279	4.33407	7.94899	0.0159841	-0.0101876	0.00765096	-0.16626	-0.567871	-0.989258	-0.0510655	0.116737	-0.988615	0.0800291	-0.919123	-1.02652	-9.66386	0.00439816	0.00512666	-0.00622919	-0.382568	0.18457	1.10889	
82	0.251659	0.125321	-0.957613	0.0627649	4.29306	-0.465833	-7.55247	0.00335425	0.0096658	0.00158914	-0.691895	-0.0957031	0.841064	0.096549	0.0371671	-0.994577	-0.0106428	1.94446	0.374121	-9.4047	-0.00646883	0.014159	-0.020566	-0.459473	-0.146973	1.01025	0.933086	-0.291512	-0.210636	-0.00200176	4.3395	-5.67034	7.83987	0.0494153	-0.0092474	0.0163216	-0.263184	0.53833	-0.887451	0.813561	0.581125	-0.0156023	-0.013015	0.0617056	9.24144	3.19509	-4.50158e-05	0.00912588	0.000467018	0.422852	-1.33203	-0.280029	0.960394	0.0370649	-0.223303	0.162494	4.34928	0.128627	8.7799	-0.0238762	0.0166175	-0.0192996	-0.0944824	-0.198486	-1.07422	0.754453	-0.278932	-0.236394	0.545083	0.619066	-8.23626	8.92833	0.02307	0.0207794	-0.0172323	0.183105	0.726074	-0.978027	-0.425351	0.00456243	-0.889533	0.166697	-8.71951	0.218204	-3.7979	0.011305	0.0289115	-0.0140348	0.766602	-0.0983887	0.86084	0.927692	0.0312061	-0.0492024	-0.368772	5.52558	-2.77282	9.00806	0.00227335	-0.00043904	-0.0158446	-0.220703	0.35791	-1.00269	-0.0813257	0.42088	-0.903446	0.0056538	-1.30119	-0.0913607	-9.08673	0.00723777	0.00353457	-0.0191378	-0.268066	0.141113	1.0752	0.938958	0.242395	-0.215716	0.114319	5.01279	4.33407	7.94899	0.0159841	-0.0101876	0.00765096	-0.16626	-0.567871	-0.989258	-0.0511411	0.116791	-0.988617	0.0798867	-0.924741	-1.02539	-9.65145	-0.0017709	0.00347967	-0.00637738	-0.378174	0.186768	1.10889	
83	0.252032	0.125424	-0.957499	0.062801	4.27317	-0.431297	-7.51845	0.000842616	0.0169776	-0.00749938	-0.694092	-0.0957031	0.838867	0.0966103	0.0372076	-0.994571	-0.0105389	1.88282	0.373734	-9.48877	-0.00895227	0.0132359	-0.0246514	-0.457275	-0.142578	1.01245	0.933063	-0.291527	-0.210718	-0.00172467	4.35443	-5.60707	7.82097	0.00878931	0.00388534	0.0124644	-0.265381	0.538574	-0.887451	0.813513	0.58119	-0.0156466	-0.013042	0.051202	9.28313	3.16136	0.00522675	0.00179093	0.00139725	0.416016	-1.32983	-0.280029	0.960498	0.0360896	-0.223351	0.162037	4.42916	-0.0817044	8.91775	-0.0523079	0.0178973	-0.0288651	-0.0925293	-0.194092	-1.07886	0.754326	-0.279024	-0.236569	0.545136	0.626422	-8.30663	8.87489	-0.0138251	0.0100575	-0.013784	0.185547	0.72168	-0.97583	-0.424649	0.00473716	-0.889771	0.167205	-8.69563	0.213429	-3.8313	0.0158985	0.022716	-0.0205712	0.768555	-0.0939941	0.867188	0.927653	0.0308401	-0.0495829	-0.368849	5.51254	-2.81406	9.01688	-0.00454531	-0.0037298	-0.0230209	-0.2229	0.355469	-0.998047	-0.0815721	0.421229	-0.903258	0.00617352	-1.30052	-0.0992324	-9.08675	0.0171004	0.000531393	-0.0186849	-0.263428	0.138916	1.073	0.93871	0.242707	-0.216259	0.114672	5.0146	4.34265	7.91754	0.00823481	-0.00732446	0.00908285	-0.170654	-0.570312	-0.993896	-0.0511927	0.116805	-0.988611	0.0799068	-0.918353	-1.00894	-9.63887	0.0050579	0.00366825	-0.00710565	-0.382568	0.18457	1.10889	
84	0.252316	0.125354	-0.957436	0.0627651	4.10465	-0.462923	-7.52468	-0.00514826	0.000866332	0.00304912	-0.694092	-0.0915527	0.84082	0.0965141	0.0371595	-0.994581	-0.0106254	1.90548	0.391944	-9.48983	-0.00878999	0.0113169	-0.0137727	-0.457031	-0.151367	1.01758	0.93301	-0.291498	-0.210994	-0.00147608	4.35805	-5.6196	7.80741	0.01105	-0.020974	0.0132822	-0.263184	0.540527	-0.89209	0.813549	0.581137	-0.0156622	-0.0131112	0.0770486	9.23844	3.1908	0.00202747	0.005969	-0.00175187	0.422607	-1.32983	-0.273438	0.960555	0.0357575	-0.223297	0.161846	4.36515	0.113048	8.70573	0.00708545	0.00897791	-0.0181931	-0.0944824	-0.200684	-1.07422	0.754413	-0.278864	-0.236402	0.54517	0.654106	-8.20055	8.97323	0.0110257	0.0147118	-0.0107752	0.18335	0.72168	-0.978027	-0.42317	0.00412847	-0.890452	0.167349	-8.70357	0.249617	-3.83227	0.0202132	0.0366093	-0.011192	0.76001	-0.0939941	0.867188	0.927622	0.0307478	-0.0498622	-0.368897	5.51432	-2.80448	9.02478	0.0108134	-0.00285466	-0.0279225	-0.227051	0.353271	-0.993164	-0.0816244	0.4212	-0.903266	0.00620826	-1.29313	-0.115464	-9.10001	0.0123367	0.00121751	-0.0187631	-0.263428	0.136719	1.0708	0.938658	0.242653	-0.216591	0.11458	5.07869	4.38903	7.96271	-0.00394262	-0.0150842	0.00343751	-0.168457	-0.567871	-0.989258	-0.0511875	0.11695	-0.988606	0.0797532	-0.941044	-1.02512	-9.66461	-0.00316401	0.00180975	-0.00533703	-0.37793	0.182373	1.10669	
