40	Head	00b4120a												Throax	00b411e8												LUpArm	00b411d9												LFoArm	00b41148												RUpArm	00b411db												RFoArm	00b41204												Waist	00b411f7												Lthigh	00b411f4												Lshank	00b4111b												Rthigh	00b411c8												Rshank	00b411ee												
PacketCount	q0	q1	q2	q3	accX	accY	accZ	gyrX	gyrY	gyrZ	magX	magY	magZ	q0	q1	q2	q3	accX	accY	accZ	gyrX	gyrY	gyrZ	magX	magY	magZ	q0	q1	q2	q3	accX	accY	accZ	gyrX	gyrY	gyrZ	magX	magY	magZ	q0	q1	q2	q3	accX	accY	accZ	gyrX	gyrY	gyrZ	magX	magY	magZ	q0	q1	q2	q3	accX	accY	accZ	gyrX	gyrY	gyrZ	magX	magY	magZ	q0	q1	q2	q3	accX	accY	accZ	gyrX	gyrY	gyrZ	magX	magY	magZ	q0	q1	q2	q3	accX	accY	accZ	gyrX	gyrY	gyrZ	magX	magY	magZ	q0	q1	q2	q3	accX	accY	accZ	gyrX	gyrY	gyrZ	magX	magY	magZ	q0	q1	q2	q3	accX	accY	accZ	gyrX	gyrY	gyrZ	magX	magY	magZ	q0	q1	q2	q3	accX	accY	accZ	gyrX	gyrY	gyrZ	magX	magY	magZ	q0	q1	q2	q3	accX	accY	accZ	gyrX	gyrY	gyrZ	magX	magY	magZ	
0	0.157733	0.751786	0.249524	-0.58964	-9.47903	-0.458413	-0.945535	-0.231029	-0.0018567	-0.110041	1.10327	0.20752	-0.134766	0.0836034	0.160905	0.041897	-0.98253	-2.9913	-0.516276	9.52505	-0.0619011	0.01794	0.0504611	0.0822754	0.0170898	-0.968018	0.369243	-0.499892	-0.371739	-0.689622	9.78509	0.529416	2.57403	0.0530858	0.0671883	0.0383534	-1.1001	0.182861	-0.0317383	0.166305	-0.584615	-0.313958	-0.729382	9.70272	2.20636	1.30333	0.0145345	0.0597415	0.0551939	-1.04175	0.0390625	0.217529	-0.385859	-0.44327	0.594761	-0.548528	9.34681	-2.81958	-1.19307	0.162072	0.00312378	-0.138044	-1.0459	-0.0507812	0.139893	0.249014	-0.583489	-0.030635	-0.772395	9.7302	-1.08912	4.46326	0.463612	-0.0575975	-0.0501596	-1.04199	-0.146973	0.0986328	0.0288617	-0.269804	0.00432942	-0.962473	5.33303	-0.206023	8.86013	0.0424393	-0.0796199	0.0510659	-0.824707	0.00854492	-0.616455	0.190278	-0.656145	-0.109515	-0.721993	9.8233	-0.728287	1.68369	-0.0144999	-0.00633067	0.00263929	-1.05957	0.317139	0.358398	0.12062	-0.754951	-0.629379	0.139222	-0.49111	-3.0761	-8.70264	-0.011754	0.00799145	-0.0225719	0.585938	0.371094	1.04468	-0.118249	-0.668152	0.0616091	-0.731979	9.66651	0.781341	1.35119	-0.0775675	-0.0372131	0.0187501	-1.02979	-0.205811	0.318604	0.111169	-0.977079	-0.171545	0.059412	-0.763419	-2.23779	-9.44947	0.00875502	-0.00600259	-0.00327722	0.457275	0.202637	0.927246	
1	0.160996	0.750541	0.252244	-0.589187	-9.41199	-0.581907	-0.91316	-0.152943	0.00217764	0.0031491	1.10718	0.216064	-0.132568	0.0858428	0.160562	0.0425446	-0.982365	-2.94259	-0.579251	9.55388	-0.0415675	0.00778657	0.0728414	0.079834	0.0236816	-0.968262	0.37228	-0.497998	-0.371839	-0.689305	9.36734	1.30019	2.32312	0.0802539	0.0700548	0.0522683	-1.09595	0.189209	-0.036377	0.16932	-0.583602	-0.313847	-0.729548	9.14108	2.72833	0.848243	0.0855299	0.0712455	0.0991519	-1.04883	0.0500488	0.208496	-0.386106	-0.444122	0.594274	-0.548194	9.40442	-3.09197	-1.13558	0.0338636	-0.0187397	-0.0951785	-1.03491	-0.0529785	0.142334	0.253772	-0.582281	-0.0382722	-0.771417	9.85193	-1.13156	4.37075	0.124773	-0.0522179	-0.0313431	-1.03979	-0.144775	0.109375	0.0312046	-0.272439	0.00441164	-0.961657	5.48863	-0.100689	8.86467	0.000339634	-0.0899367	0.0829479	-0.827148	0.0151367	-0.614502	0.1901	-0.656285	-0.109689	-0.721886	9.97546	-0.999014	1.58462	0.050636	-0.000968042	-0.0208061	-1.05957	0.314941	0.363037	0.120174	-0.755079	-0.62942	0.138725	-0.51536	-3.08362	-8.6009	-0.031778	0.0103996	-0.0155858	0.590576	0.371094	1.04248	-0.118121	-0.668873	0.0606522	-0.731421	9.88777	0.712157	1.18075	0.0874086	-0.00932978	-0.0336592	-1.02759	-0.205566	0.318604	0.112747	-0.976852	-0.171855	0.0592731	-0.763652	-2.2595	-9.45802	0.00373895	-0.000871487	-0.00774866	0.457275	0.198242	0.934326	
2	0.163333	0.750154	0.252183	-0.589063	-9.29794	-0.533263	-0.95964	-0.046517	0.0177051	0.0382345	1.10742	0.211914	-0.130371	0.0884191	0.160421	0.042754	-0.98215	-3.02377	-0.522732	9.42422	-0.0301459	0.00166899	0.090009	0.0864258	0.0236816	-0.963623	0.374318	-0.496473	-0.372854	-0.688753	9.43023	1.46647	2.66509	0.113152	0.041539	-0.000402418	-1.09595	0.191406	-0.0388184	0.171476	-0.582685	-0.313698	-0.729841	9.25169	2.5688	1.44942	0.0661119	0.0634656	0.0427698	-1.04443	0.0500488	0.204102	-0.384462	-0.446456	0.592636	-0.549225	9.29723	-2.97305	-1.07175	0.130306	-0.0437832	-0.0408368	-1.03711	-0.0529785	0.144531	0.256145	-0.582285	-0.042413	-0.770412	9.6409	-0.66427	4.35101	0.210739	-0.048847	-0.0247257	-1.04443	-0.140381	0.113525	0.0334766	-0.275235	0.00441027	-0.960784	5.38334	-0.325078	9.16274	0.0713898	-0.0781961	0.0655223	-0.829102	0.0107422	-0.601562	0.19087	-0.656142	-0.110464	-0.721695	9.93875	-0.485145	1.61459	0.0230043	-0.00603814	-0.00942504	-1.05957	0.314941	0.363037	0.119683	-0.755216	-0.629463	0.138206	-0.516781	-3.04952	-8.69219	-0.0445633	0.00884995	-0.0158576	0.585938	0.368652	1.04028	-0.117807	-0.669283	0.0598609	-0.731162	9.86192	0.868769	1.2785	0.0286116	-0.0175749	-0.00302616	-1.02734	-0.207764	0.316406	0.113063	-0.976777	-0.172108	0.0591793	-0.765984	-2.21152	-9.4617	0.0325775	0.0176457	-0.0223449	0.457275	0.200439	0.929688	
3	0.163667	0.750004	0.254586	-0.588126	-9.4099	-0.324234	-0.987982	-0.0757888	0.0549173	-0.0652169	1.10938	0.216064	-0.117432	0.0906231	0.160926	0.0424723	-0.981879	-3.00927	-0.483998	9.71436	-0.0181313	0.0576776	0.0626174	0.0883789	0.0258789	-0.968506	0.375174	-0.495137	-0.373881	-0.688692	9.69531	0.705009	2.83682	0.0759197	0.039042	0.00181557	-1.09595	0.187256	-0.0410156	0.173865	-0.582108	-0.314052	-0.729584	9.58098	2.95103	1.23623	0.0385528	0.0388092	0.032798	-1.05127	0.0544434	0.204102	-0.384462	-0.446456	0.592636	-0.549225	9.29723	-2.97305	-1.07175	0.130306	-0.0437832	-0.0408368	-1.03711	-0.0529785	0.144531	0.257747	-0.582488	-0.0443135	-0.769617	9.83966	-1.01351	4.24434	0.0998111	-0.0390386	0.000271305	-1.04663	-0.140381	0.115723	0.0354177	-0.275284	0.00512722	-0.960697	5.45302	0.134737	8.87904	-0.0696226	0.00640211	0.0728239	-0.831055	0.00854492	-0.60791	0.190187	-0.656537	-0.109899	-0.721603	9.83765	-0.623959	1.66501	-0.0182693	0.00460584	-0.0125428	-1.06177	0.314941	0.365479	0.119536	-0.75522	-0.62967	0.137367	-0.521719	-3.02299	-8.78905	-0.0152523	0.0110637	-0.0173261	0.588379	0.366455	1.04468	-0.117928	-0.669265	0.0600072	-0.731148	9.67525	0.898837	1.25659	0.00649987	0.0167321	0.00861841	-1.02954	-0.212402	0.321045	0.113922	-0.976606	-0.172515	0.0591728	-0.763737	-2.2661	-9.42455	0.0202972	0.00390916	-0.0180922	0.452637	0.202637	0.925049	
4	0.162886	0.747719	0.264306	-0.586964	-9.51433	-0.523009	-1.09144	-0.27472	0.102591	-0.409397	1.1062	0.235596	-0.115723	0.0922795	0.161517	0.0426257	-0.981621	-3.09908	-0.327013	9.66554	-0.0444117	0.0149789	0.046946	0.0883789	0.0258789	-0.961426	0.377098	-0.493761	-0.373721	-0.688716	9.81998	1.51356	2.55942	0.0158416	0.0701237	0.0170282	-1.09375	0.185059	-0.0454102	0.174174	-0.580946	-0.313527	-0.730661	9.6465	2.26083	1.54652	0.0119889	0.0794723	0.0203421	-1.04468	0.0566406	0.199463	-0.382371	-0.451107	0.589322	-0.55045	9.309	-2.64971	-1.11318	0.156609	-0.0573881	-0.0315792	-1.03271	-0.0551758	0.14917	0.259504	-0.58284	-0.0471642	-0.768591	9.75227	-1.32411	4.12679	0.183181	-0.0436825	-0.0144988	-1.04468	-0.135986	0.113281	0.0371784	-0.278246	0.00594795	-0.959772	5.40451	-0.375543	8.94665	0.011856	-0.0831003	0.0693508	-0.836182	0.0214844	-0.601807	0.189902	-0.655977	-0.110175	-0.722144	9.75631	-0.980532	1.49694	0.00563841	0.0331901	-0.0288166	-1.06592	0.312744	0.36084	0.119492	-0.75506	-0.629729	0.138011	-0.488595	-3.06406	-8.55859	0.0256483	-0.0249063	-0.0189839	0.583496	0.371094	1.04224	-0.118669	-0.669149	0.0602778	-0.731111	9.90144	0.503204	1.2785	-0.0241438	0.0179255	-0.00930136	-1.03174	-0.210205	0.321045	0.114108	-0.976545	-0.172663	0.0593786	-0.721845	-2.26357	-9.42894	0.00414829	-0.00531223	-0.00956086	0.454834	0.204834	0.925049	
5	0.160851	0.7436	0.277679	-0.586584	-9.64598	-0.871983	-0.882475	-0.27391	0.0348583	-0.491774	1.09814	0.263672	-0.107422	0.0938306	0.161275	0.0443439	-0.981438	-2.84802	-0.513091	9.49487	-0.0905027	0.0231648	0.0207462	0.0925293	0.0302734	-0.970947	0.378088	-0.491572	-0.373585	-0.689812	9.54308	1.10641	2.76497	0.0936661	0.10908	-0.0241925	-1.0918	0.191406	-0.0571289	0.176411	-0.579434	-0.313489	-0.731341	9.37423	2.3545	1.23583	0.0784095	0.100276	0.0250858	-1.05127	0.0544434	0.192871	-0.381069	-0.453335	0.58843	-0.550477	9.31935	-2.57067	-1.00973	0.0820307	-0.0625262	-0.04844	-1.03662	-0.0617676	0.153809	0.261728	-0.582733	-0.0495418	-0.767767	9.60467	-0.611707	4.15854	0.0875184	-0.0414197	0.0117113	-1.04224	-0.142578	0.11792	0.0395974	-0.279576	0.00538251	-0.959292	5.7375	0.167285	8.99597	0.0742774	-0.0253266	0.0640144	-0.831787	0.0236816	-0.599854	0.191504	-0.655162	-0.112187	-0.722151	10.1048	-0.334134	1.73995	0.124834	0.0205607	-0.0154236	-1.06177	0.317139	0.358398	0.119009	-0.755005	-0.629993	0.137521	-0.507297	-3.0412	-8.65829	-0.0215453	0.0018622	-0.018726	0.583496	0.373291	1.04443	-0.117342	-0.669076	0.0589791	-0.731498	9.94401	1.29227	1.26515	0.0791261	0.0223993	0.014749	-1.03394	-0.210205	0.318848	0.113835	-0.976574	-0.172773	0.0591128	-0.792448	-2.26049	-9.49668	0.00439844	0.0285183	-0.0072841	0.454834	0.202637	0.931885	
6	0.161011	0.739691	0.284436	-0.588242	-9.61835	-1.18427	-1.06353	-0.113111	-0.101261	-0.166609	1.09546	0.274414	-0.109619	0.0942184	0.162146	0.0463686	-0.981163	-3.10429	-0.749481	9.38007	-0.0858925	0.0626536	-0.02438	0.0900879	0.0368652	-0.96875	0.37849	-0.490213	-0.373273	-0.690727	9.29892	1.06396	2.74593	0.0109272	0.0555321	-0.0179119	-1.09155	0.187012	-0.0522461	0.180142	-0.577028	-0.316572	-0.731006	9.16062	2.77748	1.23995	0.160369	0.0793577	0.00769511	-1.05151	0.0610352	0.192871	-0.380594	-0.454052	0.588986	-0.549618	9.28666	-2.70996	-1.27167	-5.63991e-05	-0.0426771	-0.0181905	-1.03662	-0.0661621	0.156006	0.264518	-0.582378	-0.0522495	-0.7669	9.73567	-1.10962	4.35772	0.206578	-0.00683775	0.0209914	-1.03809	-0.133789	0.126221	0.0410797	-0.279829	0.0054431	-0.959155	5.37449	-0.286145	8.913	0.0257519	0.0172238	0.0328655	-0.82959	0.0236816	-0.597656	0.191063	-0.654943	-0.111231	-0.722615	9.71687	-1.00047	1.57641	-0.0487687	0.0456698	0.00204495	-1.05957	0.317139	0.360596	0.118875	-0.755013	-0.630034	0.137411	-0.493264	-3.05341	-8.68445	-0.00100405	0.00120311	-0.0208991	0.581299	0.368652	1.04004	-0.11765	-0.668937	0.059643	-0.731522	9.67934	0.905222	1.33235	-0.0496793	0.0143126	0.0242502	-1.02979	-0.208008	0.312012	0.114515	-0.976487	-0.173003	0.0585678	-0.709931	-2.25452	-9.4125	0.0256986	0.0317522	-0.0217084	0.452637	0.202637	0.92041	
7	0.163063	0.738537	0.281199	-0.590678	-9.55487	-0.991573	-1.23535	0.082721	-0.108496	0.180992	1.0957	0.268066	-0.115967	0.0943602	0.162374	0.0470994	-0.981077	-3.15754	-0.793519	9.59738	-0.0375434	0.0205395	-0.0125841	0.0922852	0.0368652	-0.966309	0.378776	-0.489619	-0.373125	-0.691072	9.39199	0.940244	2.90447	0.0232336	0.0585925	-0.00634434	-1.09595	0.182861	-0.0568848	0.180142	-0.577028	-0.316572	-0.731006	9.16062	2.77748	1.23995	0.160369	0.0793577	0.00769511	-1.05151	0.0610352	0.192871	-0.380201	-0.453947	0.590054	-0.548832	9.77902	-3.0784	-1.14066	-0.028758	-0.0282817	0.00444036	-1.03467	-0.057373	0.158203	0.265331	-0.582154	-0.0526653	-0.766761	10.0122	-0.768354	4.35738	0.0828039	0.00612899	0.0226503	-1.04028	-0.131592	0.126221	0.0414958	-0.279892	0.00533771	-0.95912	5.39268	-0.534087	8.76387	0.032638	0.00612044	0.0156769	-0.833984	0.0236816	-0.597656	0.191924	-0.654484	-0.112143	-0.722662	9.65321	-0.922463	1.57549	0.110503	0.0351042	-0.0166866	-1.06177	0.314941	0.358398	0.118805	-0.754922	-0.630128	0.137537	-0.508556	-3.0368	-8.7049	0.0331744	-0.00638267	-0.0241172	0.581299	0.368652	1.04248	-0.117384	-0.668921	0.0594498	-0.731595	9.75248	0.734381	1.29778	0.0647367	0.0125167	0.00952564	-1.02979	-0.205811	0.314209	0.115075	-0.976413	-0.173103	0.0584088	-0.760405	-2.24922	-9.58079	0.0449655	0.0263603	-0.0161207	0.450439	0.202637	0.929688	
8	0.165068	0.739622	0.274586	-0.591873	-9.47288	-0.59606	-0.981458	0.118848	0.00535384	0.222846	1.09644	0.25293	-0.11792	0.0948744	0.162264	0.0466286	-0.981068	-3.05115	-0.727099	9.59931	0.015178	0.0196782	0.0100116	0.0922852	0.034668	-0.970947	0.378701	-0.489017	-0.37276	-0.691735	9.47671	1.11284	2.58795	-0.0564556	0.0113759	-0.0324417	-1.09595	0.187256	-0.0568848	0.18168	-0.574652	-0.318562	-0.731632	9.3448	2.8073	1.36146	0.0781192	0.0647975	0.00156351	-1.05127	0.0544434	0.181885	-0.379528	-0.454238	0.589626	-0.549516	9.5308	-2.98745	-1.05864	0.0929886	-0.000167638	0.00371959	-1.03711	-0.0551758	0.156006	0.267357	-0.581228	-0.0531238	-0.766728	9.86594	-0.753017	4.5644	0.0637882	0.0440645	0.0454318	-1.04053	-0.127441	0.119629	0.0419128	-0.280271	0.0062543	-0.958985	5.52505	-0.324037	8.85756	-0.0193773	0.00397936	0.00876648	-0.836426	0.0302734	-0.597656	0.192759	-0.653614	-0.113923	-0.722948	9.88757	-0.752909	1.55183	0.0166803	0.0414948	-0.0368885	-1.06396	0.314941	0.35376	0.118891	-0.754889	-0.630078	0.137876	-0.51525	-3.03263	-8.65116	0.0093307	-0.00663315	-0.0146124	0.585938	0.371094	1.03784	-0.117581	-0.668229	0.0597332	-0.732173	10.0414	0.820428	1.35542	-0.0167578	0.0396281	0.0124679	-1.03418	-0.208008	0.318848	0.115299	-0.976371	-0.173228	0.0582927	-0.765189	-2.28123	-9.47987	0.00945347	0.00910507	-0.00784355	0.452637	0.207031	0.931885	
9	0.166563	0.739433	0.271648	-0.593045	-9.32066	-0.404274	-0.893405	0.0115642	-0.0366558	0.0660639	1.10327	0.248535	-0.120117	0.0953262	0.162692	0.0464789	-0.980961	-3.04048	-0.674687	9.63612	-0.00322061	0.048703	0.022444	0.0922852	0.034668	-0.970947	0.378928	-0.487981	-0.37379	-0.691787	9.6127	1.28709	2.84051	0.0644888	0.018747	-0.0287075	-1.09375	0.182861	-0.0637207	0.182822	-0.572688	-0.320215	-0.732166	9.46805	2.10819	1.37323	0.106691	0.0789311	-0.0373922	-1.05371	0.0588379	0.17749	-0.380205	-0.453122	0.59015	-0.549407	9.38879	-3.07644	-1.13495	-0.0799031	0.036647	0.00380921	-1.03027	-0.0595703	0.158203	0.268685	-0.580307	-0.0523883	-0.767012	9.8326	-1.11949	4.26206	-0.00742251	0.0511476	0.0337489	-1.04517	-0.123047	0.119385	0.0425488	-0.280696	0.00502659	-0.95884	5.65817	-0.421589	9.02452	0.0645097	-0.0384593	0.00113624	-0.838623	0.0280762	-0.595703	0.19197	-0.652847	-0.113222	-0.723961	9.95089	-0.905304	1.60657	-0.0233268	0.0497321	-0.0311876	-1.06567	0.30835	0.358643	0.118785	-0.754894	-0.630152	0.137596	-0.502664	-3.05169	-8.62763	-0.00162336	0.0122011	-0.0219565	0.581055	0.375488	1.03784	-0.117398	-0.667935	0.0597979	-0.732465	9.73594	0.718855	1.22014	0.00723147	0.0308465	0.0111387	-1.03003	-0.201416	0.318604	0.116174	-0.976177	-0.173815	0.058063	-0.748461	-2.2838	-9.39987	0.00864827	0.0130219	-0.0185764	0.450439	0.204834	0.927246	
10	0.167521	0.738988	0.271856	-0.593235	-9.57988	-0.440653	-0.974773	-0.0661329	-0.0136099	0.0118668	1.09912	0.246338	-0.120117	0.0960867	0.163787	0.0461048	-0.980722	-3.06852	-0.481266	9.58384	0.00194257	0.0488566	0.0119925	0.098877	0.034668	-0.966309	0.378107	-0.487528	-0.373516	-0.692703	9.59196	0.697864	2.80431	-0.0424346	0.0284915	-0.0215136	-1.09155	0.178467	-0.0566406	0.184082	-0.571747	-0.320575	-0.732428	9.50591	2.77964	1.53478	0.0108254	0.0457219	-0.00406583	-1.05591	0.0566406	0.179688	-0.379296	-0.453035	0.589706	-0.550582	9.1931	-2.7643	-1.27647	0.0596724	0.0112523	0.0271701	-1.03711	-0.0551758	0.158203	0.26995	-0.579381	-0.0524779	-0.767262	9.67869	-1.10317	4.31311	0.0330818	0.0429222	0.0101255	-1.04517	-0.123047	0.121582	0.0432744	-0.280641	0.00408003	-0.958828	5.60808	-0.0468262	8.86577	0.0378945	0.0128987	0.0026341	-0.836426	0.0280762	-0.597656	0.192194	-0.65217	-0.114094	-0.724375	9.90475	-0.48484	1.70572	0.0384202	0.0368783	-0.0366036	-1.06177	0.317139	0.349121	0.118452	-0.75514	-0.630181	0.136402	-0.514788	-3.02688	-8.70165	-0.0362586	0.0318534	-0.0182062	0.581299	0.37085	1.04224	-0.117124	-0.667222	0.0591709	-0.733209	9.88421	0.735693	1.30189	0.0265819	0.0480307	-0.00122459	-1.02979	-0.203613	0.30957	0.116683	-0.976088	-0.174019	0.0579219	-0.707337	-2.27354	-9.51632	0.0409234	0.0231942	-0.0241899	0.450195	0.209229	0.931641	
11	0.16947	0.737295	0.273071	-0.594229	-9.39959	-0.874357	-0.803901	-0.0699759	-0.0399966	-0.0280041	1.09448	0.250732	-0.122314	0.0963037	0.165374	0.0467108	-0.980406	-3.14699	-0.622089	9.44755	-0.0358271	0.0880295	-0.0145691	0.10083	0.0390625	-0.971191	0.378675	-0.486341	-0.373614	-0.693174	9.42885	1.75141	2.86456	-0.015067	0.0449534	-0.0346065	-1.0979	0.180664	-0.0634766	0.18463	-0.569989	-0.321384	-0.733305	9.30944	2.56158	1.61308	0.0483895	0.0813981	-0.00733306	-1.05347	0.0524902	0.173096	-0.378405	-0.452144	0.590861	-0.550689	9.33524	-2.73993	-1.12233	-0.00571762	-0.00931364	0.0441302	-1.03491	-0.0529785	0.153564	0.269988	-0.578962	-0.0510734	-0.767659	9.69296	-1.07353	3.9768	-0.037416	0.0422159	0.0192146	-1.04517	-0.123047	0.115234	0.0437136	-0.280931	0.00326153	-0.958726	5.44052	-0.168611	8.94206	0.0966518	0.0219406	-0.0153048	-0.831787	0.0236816	-0.595459	0.191395	-0.651625	-0.113502	-0.725169	9.91789	-0.834837	1.61118	-0.0267758	0.0491805	-0.0221575	-1.06177	0.317139	0.349121	0.118229	-0.755262	-0.630186	0.135889	-0.477711	-3.024	-8.65833	-0.00200991	0.0116533	-0.0169502	0.583496	0.371094	1.04224	-0.116591	-0.666714	0.0589231	-0.733776	9.61869	1.00512	1.26538	-0.000837324	0.0482771	0.0157768	-1.03223	-0.199219	0.309326	0.117822	-0.975859	-0.174529	0.0579426	-0.726062	-2.32008	-9.45952	0.044646	0.00774236	-0.021814	0.452148	0.216064	0.929443	
12	0.170952	0.735707	0.272396	-0.59608	-9.54171	-0.927827	-0.966787	0.0063544	-0.0972786	0.0381869	1.09888	0.250732	-0.124512	0.0960402	0.166554	0.0470147	-0.980217	-3.09954	-0.520099	9.54832	-0.0129695	0.0652833	-0.0328796	0.098877	0.0368652	-0.96875	0.378804	-0.485032	-0.373598	-0.694028	9.42683	1.10154	2.79269	0.015183	0.0545197	-0.0284126	-1.09155	0.180664	-0.0681152	0.183727	-0.568957	-0.320367	-0.734777	9.32965	2.61793	1.1832	-0.0700761	0.0568974	-0.059202	-1.04883	0.050293	0.168945	-0.378286	-0.451276	0.591785	-0.550491	9.3046	-2.86701	-1.08643	-0.0608919	0.0117385	0.0186991	-1.03491	-0.0507812	0.156006	0.271485	-0.578054	-0.0506722	-0.767842	9.75204	-0.994055	4.55196	0.0240699	0.0541294	0.0375514	-1.04321	-0.118652	0.112793	0.043486	-0.279317	0.0041338	-0.959205	5.6613	-0.0429893	8.92821	-0.0129866	0.132268	-0.0169967	-0.832031	0.0280762	-0.602051	0.191709	-0.650797	-0.114246	-0.725713	9.97208	-0.575161	1.60985	0.0212522	0.0498952	-0.0386066	-1.06592	0.312744	0.35376	0.118167	-0.755396	-0.630155	0.135346	-0.520209	-3.00057	-8.70422	0.00398761	0.0203477	-0.0209737	0.586182	0.366455	1.04688	-0.11704	-0.665826	0.0594617	-0.734467	9.90166	0.812415	1.2369	-0.0255064	0.0261298	0.0116613	-1.03882	-0.203613	0.307129	0.118049	-0.975825	-0.174572	0.0579209	-0.75004	-2.32482	-9.44045	0.0207386	0.0117589	-0.00825474	0.450195	0.209229	0.934082	
13	0.171726	0.734469	0.269122	-0.598864	-9.31352	-0.833273	-1.10768	0.10329	-0.105406	0.0738993	1.10132	0.246582	-0.133057	0.0954505	0.167986	0.0470815	-0.980027	-3.36277	-0.557194	9.71676	-0.00135626	0.0746029	-0.0332878	0.103271	0.0368652	-0.96875	0.378517	-0.484642	-0.373644	-0.694433	9.61791	1.44592	2.92721	-0.0371994	0.0035189	-0.0375631	-1.0979	0.178467	-0.0612793	0.184194	-0.5682	-0.320776	-0.735067	9.45056	2.76209	1.65917	0.0275932	0.0315961	0.0172558	-1.04688	0.0546875	0.173096	-0.378191	-0.449824	0.593015	-0.550421	9.47208	-2.9189	-1.11473	-0.0760402	0.0231738	0.0475328	-1.03711	-0.0507812	0.158203	0.271954	-0.577413	-0.0495296	-0.768233	9.94453	-1.15825	4.45911	-0.0441473	0.0456805	0.0185563	-1.04541	-0.116455	0.110596	0.0429945	-0.274899	0.00569855	-0.960494	5.43173	-0.327491	9.12751	-0.035451	0.227329	-0.0166655	-0.823486	0.0280762	-0.608398	0.190525	-0.650749	-0.11279	-0.726295	10.0068	-0.590405	1.81184	-0.0596112	0.0297678	-0.00123171	-1.05957	0.312744	0.349121	0.118389	-0.755575	-0.630114	0.134338	-0.479467	-3.02714	-8.63162	-0.024242	0.0447079	-0.017231	0.581299	0.368652	1.04004	-0.116765	-0.665308	0.0594922	-0.734977	9.75625	0.58494	1.47012	0.0450304	0.0553574	0.0264764	-1.03882	-0.205811	0.307373	0.120492	-0.975435	-0.175267	0.0573489	-0.677799	-2.34935	-9.51225	0.0839711	0.0215993	-0.0388835	0.449951	0.21582	0.929443	
14	0.170576	0.734791	0.26586	-0.600253	-9.3993	-0.35962	-1.30749	0.115953	0.0215142	0.0535861	1.10156	0.242188	-0.13501	0.0948712	0.169393	0.0472515	-0.979833	-3.54418	-0.462076	9.55115	-0.0186191	0.0545569	-0.0404513	0.105225	0.0390625	-0.971191	0.37969	-0.48342	-0.373787	-0.694567	9.87389	1.2114	3.04601	0.0712137	0.0711358	0.0277293	-1.09375	0.17627	-0.0725098	0.184177	-0.56691	-0.321412	-0.735789	9.7265	2.37882	1.69839	0.0480616	0.0689928	-0.0603167	-1.04907	0.0524902	0.162109	-0.378191	-0.449824	0.593015	-0.550421	9.47208	-2.9189	-1.11473	-0.0760402	0.0231738	0.0475328	-1.03711	-0.0507812	0.158203	0.272952	-0.576501	-0.0493333	-0.768576	9.99254	-1.35315	4.38469	0.0550741	0.0458844	0.0131211	-1.04565	-0.112305	0.108398	0.0429371	-0.273192	0.00468199	-0.960989	5.12424	-0.0975257	8.66655	0.0084479	0.0701902	-0.0230913	-0.827637	0.0258789	-0.608398	0.189563	-0.650711	-0.111688	-0.726751	9.80747	-0.694841	1.79875	-0.038474	0.0474996	-0.0194186	-1.06592	0.312744	0.351318	0.11813	-0.755771	-0.630094	0.133559	-0.470585	-2.98893	-8.74469	-0.0106771	0.00774739	-0.016442	0.583984	0.364014	1.04688	-0.116323	-0.664556	0.0595144	-0.735726	9.63581	1.07405	1.33047	-0.0271663	0.0438289	0.019714	-1.03662	-0.201416	0.304932	0.121905	-0.975172	-0.175637	0.0577091	-0.704693	-2.38807	-9.42565	0.059699	-0.00282611	-0.0194824	0.444824	0.227051	0.933838	
15	0.168972	0.736455	0.264288	-0.599361	-9.56393	-0.58663	-0.781817	0.0865972	0.123259	0.0109858	1.10156	0.242188	-0.130859	0.0946496	0.168676	0.0477104	-0.979956	-3.49866	-0.531177	9.29098	-0.0479677	-0.035573	-0.0444203	0.105469	0.0324707	-0.966309	0.380217	-0.482775	-0.37362	-0.694818	9.59559	2.04941	2.8831	0.0344429	0.0645663	0.00928664	-1.0957	0.176514	-0.0749512	0.185003	-0.566065	-0.322039	-0.735959	9.41636	2.59023	1.66527	0.0874181	0.0738126	-0.00482226	-1.05127	0.0524902	0.164307	-0.378191	-0.449824	0.593015	-0.550421	9.47208	-2.9189	-1.11473	-0.0760402	0.0231738	0.0475328	-1.03711	-0.0507812	0.158203	0.273632	-0.575955	-0.0493093	-0.768746	9.81137	-0.929472	4.45493	0.0372814	0.0530099	0.0228603	-1.04565	-0.110107	0.112549	0.0427267	-0.271725	0.0058121	-0.961408	4.98149	-0.280644	8.6867	-0.0705575	0.139293	-0.00668769	-0.825439	0.0258789	-0.616699	0.189459	-0.650409	-0.111459	-0.727083	9.71126	-0.956207	1.71778	-0.0109347	0.0498798	-0.0158845	-1.06812	0.312744	0.344482	0.11813	-0.755771	-0.630094	0.133559	-0.470585	-2.98893	-8.74469	-0.0106771	0.00774739	-0.016442	0.583984	0.364014	1.04688	-0.116767	-0.664311	0.0600512	-0.735833	9.81017	0.680819	1.43302	-0.0512534	0.0264675	0.00974103	-1.03638	-0.208008	0.305176	0.121905	-0.975172	-0.175637	0.0577091	-0.704693	-2.38807	-9.42565	0.059699	-0.00282611	-0.0194824	0.444824	0.227051	0.933838	
16	0.167226	0.737011	0.262535	-0.599939	-9.58437	-0.543918	-0.781225	0.10869	0.00410082	0.00558544	1.10596	0.23999	-0.132812	0.0943171	0.166915	0.047501	-0.9803	-2.93228	-0.589405	9.44	-0.00301794	-0.0219797	-0.0286663	0.109619	0.0412598	-0.966553	0.379816	-0.481926	-0.37283	-0.696049	9.17028	1.24976	2.77045	0.0489742	0.0613747	-0.0291291	-1.09155	0.17627	-0.0817871	0.186341	-0.565179	-0.322068	-0.736289	8.90054	2.57561	1.10891	0.020649	0.0476841	0.0226919	-1.05371	0.0568848	0.162109	-0.378994	-0.448144	0.594216	-0.549944	9.32482	-3.06401	-1.09335	-0.0291097	0.01307	0.0115989	-1.0332	-0.0441895	0.153564	0.274249	-0.575568	-0.0478659	-0.768906	9.63347	-1.09289	4.50863	-0.0190735	0.0381614	0.0299465	-1.04346	-0.112305	0.110596	0.042762	-0.269197	0.00625483	-0.962115	5.67281	-0.210611	9.44252	0.0303086	0.129798	-0.0103265	-0.816895	0.0280762	-0.616943	0.190168	-0.649321	-0.112363	-0.727731	10.1533	-0.608933	1.8776	0.0284159	0.055659	-0.0297085	-1.06348	0.306396	0.339844	0.117583	-0.755698	-0.630386	0.133074	-0.467547	-2.98215	-8.63347	-0.0156531	-8.51715e-05	-0.0135361	0.579346	0.359375	1.04688	-0.116309	-0.663721	0.0594556	-0.736486	9.99093	0.750005	1.41945	0.0752002	0.0505357	0.00690391	-1.03687	-0.199219	0.300293	0.123202	-0.974961	-0.175842	0.0578892	-0.677326	-2.39702	-9.47215	0.0487208	0.0213123	-0.0151947	0.447266	0.224854	0.924561	
17	0.166541	0.736832	0.261431	-0.60083	-9.48709	-0.47366	-1.00933	0.108028	-0.0248768	0.00828421	1.104	0.237793	-0.126465	0.0939307	0.167867	0.0473026	-0.980184	-3.29954	-0.590446	9.59899	0.0106564	0.0639394	-0.0316136	0.101074	0.0368652	-0.966553	0.379316	-0.481787	-0.373405	-0.69611	9.4477	1.12876	2.73282	0.0214123	-0.0336607	-0.0183474	-1.09814	0.180908	-0.0795898	0.187149	-0.564967	-0.322451	-0.73608	9.30063	3.25282	1.72869	0.00920247	0.0132448	-0.0125905	-1.04907	0.0524902	0.162109	-0.378831	-0.447617	0.594838	-0.549813	9.11234	-3.22143	-1.22135	-0.0350708	-0.00198063	0.0333575	-1.03735	-0.0441895	0.158203	0.274217	-0.575463	-0.0469129	-0.769055	9.87731	-1.33507	4.48593	-0.0487442	0.0236445	0.00373266	-1.04321	-0.116455	0.110596	0.0425455	-0.264637	0.00747357	-0.96338	5.13931	-0.154747	8.67293	-0.0140996	0.148364	-0.0142397	-0.812744	0.0302734	-0.623291	0.18983	-0.649079	-0.111924	-0.728103	9.73164	-0.60287	1.81386	-0.0409815	0.027105	-0.0221063	-1.06567	0.304199	0.346924	0.117193	-0.755812	-0.630484	0.132305	-0.485628	-2.96758	-8.73553	-0.00146256	0.00590269	-0.0228117	0.581787	0.359619	1.04248	-0.116527	-0.663463	0.0599283	-0.736646	9.65894	0.718471	1.45439	-0.0569962	0.011727	0.01695	-1.03687	-0.199219	0.307129	0.123679	-0.974877	-0.175975	0.0578938	-0.700678	-2.41759	-9.43504	0.0407799	0.0121194	-0.0168671	0.451904	0.220459	0.931641	
18	0.165355	0.737586	0.259531	-0.601056	-9.53565	-0.326513	-1.05919	0.0787932	0.0734274	0.0369752	1.10156	0.242188	-0.124268	0.0940158	0.168045	0.0463238	-0.980192	-3.39231	-0.619556	9.436	0.0281413	0.00958311	-0.00206151	0.101074	0.034668	-0.973389	0.378808	-0.481121	-0.373883	-0.69659	9.75295	1.3534	2.98346	-0.0437681	0.00443742	-0.0478599	-1.10449	0.174316	-0.0793457	0.186454	-0.56494	-0.321596	-0.73665	9.65274	2.32176	1.503	-0.0366485	0.0132075	0.0108836	-1.05347	0.0546875	0.162109	-0.378115	-0.445919	0.596788	-0.549572	9.35957	-3.14197	-1.1617	-0.0383074	-0.00648861	0.052817	-1.03735	-0.0441895	0.158203	0.273924	-0.575566	-0.0452527	-0.769182	9.6358	-0.938677	4.34444	-0.0323082	0.0230133	0.0123279	-1.0498	-0.114502	0.106201	0.0426022	-0.261809	0.00735766	-0.964151	5.11726	-0.388223	9.10231	0.052404	0.118513	-0.0164925	-0.810547	0.0305176	-0.634033	0.18928	-0.648817	-0.111025	-0.728617	9.93553	-0.845687	1.61009	-0.00520166	0.0534219	-0.0104385	-1.06836	0.314941	0.344482	0.117251	-0.755787	-0.630526	0.132193	-0.472504	-2.97647	-8.67304	0.00647558	0.0141488	-0.0216218	0.577148	0.359375	1.04468	-0.116979	-0.663002	0.0598896	-0.736992	9.8908	0.778502	1.31161	0.00543222	0.03924	-0.00446727	-1.03223	-0.201416	0.304932	0.124402	-0.974775	-0.176075	0.0577561	-0.72501	-2.42791	-9.49544	0.0384726	0.0229221	-0.00906201	0.45166	0.224854	0.924561	
19	0.165343	0.738201	0.25796	-0.60098	-9.66692	-0.385551	-1.07448	0.0251754	0.0337474	0.0378805	1.10181	0.235596	-0.119873	0.0941219	0.167671	0.0461952	-0.980252	-3.25081	-0.488558	9.7325	-0.016255	0.00870606	-0.0170217	0.107666	0.034668	-0.973389	0.379432	-0.480176	-0.374372	-0.696641	9.5985	1.83798	3.16892	0.0504733	0.0454021	0.00204764	-1.0957	0.176514	-0.0793457	0.186848	-0.564347	-0.321691	-0.736964	9.42915	2.61731	1.96717	0.0242167	0.0371403	-0.00312492	-1.05542	0.0480957	0.157959	-0.378406	-0.445004	0.597618	-0.549211	9.49683	-3.12204	-1.17209	-0.0884848	0.0139324	0.000862065	-1.0332	-0.0397949	0.156006	0.274204	-0.575398	-0.0447111	-0.76924	10.0051	-1.32001	4.42716	-0.0237214	0.0228561	0.0121905	-1.052	-0.110107	0.112549	0.0425583	-0.258622	0.0082104	-0.965006	5.24526	-0.136816	9.24517	-0.0474706	0.117155	-0.00558845	-0.8125	0.026123	-0.635986	0.189034	-0.648609	-0.111094	-0.728855	9.79555	-0.647867	1.81691	-0.0238705	0.0163651	-0.0239128	-1.06592	0.310791	0.344482	0.117251	-0.755787	-0.630526	0.132193	-0.472504	-2.97647	-8.67304	0.00647558	0.0141488	-0.0216218	0.577148	0.359375	1.04468	-0.116887	-0.662568	0.0599364	-0.737393	9.89097	0.78958	1.32247	-0.00160884	0.0314643	0.00155285	-1.03467	-0.194824	0.297852	0.124402	-0.974775	-0.176075	0.0577561	-0.72501	-2.42791	-9.49544	0.0384726	0.0229221	-0.00906201	0.45166	0.224854	0.924561	
20	0.165543	0.738495	0.258369	-0.600388	-9.88609	-0.483656	-0.999326	-0.0383666	0.0526235	-0.0226459	1.104	0.235596	-0.124268	0.0938462	0.16744	0.0460609	-0.980324	-3.40472	-0.495754	9.53902	-0.00295845	0.000213609	-0.0317299	0.103271	0.034668	-0.96875	0.378726	-0.479625	-0.373635	-0.697799	9.56574	1.26262	2.71488	-0.0426169	0.0161868	-0.0345036	-1.0957	0.169922	-0.0793457	0.188219	-0.564648	-0.320577	-0.73687	9.391	2.47388	1.13338	0.00242579	0.0117299	0.0932701	-1.05811	0.059082	0.162109	-0.378141	-0.444239	0.598317	-0.549252	9.25071	-3.11242	-1.09143	-0.0219683	0.00614436	0.0266053	-1.03345	-0.0375977	0.158203	0.273751	-0.575465	-0.0427461	-0.769463	9.68849	-0.981185	4.69011	-0.119308	0.0377384	0.0115911	-1.05005	-0.105713	0.105957	0.0423936	-0.257228	0.00866315	-0.965382	5.10405	-0.192136	9.48707	0.0511656	0.068132	-0.0174218	-0.802002	0.0305176	-0.642334	0.189004	-0.648858	-0.110893	-0.728672	10.1045	-0.824356	1.9042	0.0327004	-0.0172595	0.00106403	-1.07031	0.312988	0.339844	0.117845	-0.755621	-0.630827	0.131176	-0.453066	-2.98016	-8.63063	-0.0321727	0.0449114	-0.0173948	0.583984	0.361816	1.04907	-0.11744	-0.662275	0.0603933	-0.737531	9.98574	0.702804	1.7105	-0.0420266	0.00646914	0.0207185	-1.03906	-0.199219	0.298096	0.125908	-0.974521	-0.176629	0.0570803	-0.701001	-2.45111	-9.45658	0.0277983	0.0186784	-0.0159623	0.447021	0.229248	0.929199	
21	0.165605	0.736172	0.259847	-0.602582	-9.61386	-0.794316	-1.33993	-0.0060607	-0.0995584	-0.112595	1.10596	0.244385	-0.128662	0.0933749	0.167679	0.0460631	-0.980328	-3.67603	-0.594985	9.47244	0.00742	0.0107888	-0.0315456	0.107666	0.034668	-0.966309	0.379211	-0.479675	-0.373468	-0.697591	9.64056	0.664492	3.15862	0.0253624	0.00753418	0.0416944	-1.10205	0.170166	-0.0837402	0.188506	-0.564518	-0.320478	-0.736939	9.55082	2.75848	1.5701	0.0123077	0.0245999	0.0163657	-1.05347	0.0546875	0.159912	-0.378776	-0.443165	0.599222	-0.548696	9.23968	-3.26627	-1.1666	-0.113469	0.0381935	0.0225533	-1.03784	-0.0375977	0.156006	0.272872	-0.575894	-0.0412432	-0.769537	9.68412	-1.38123	4.31579	-0.147349	0.0150514	0.00178188	-1.05444	-0.105713	0.101807	0.0423328	-0.256027	0.00842867	-0.965706	4.83129	-0.0285817	8.92468	0.036752	0.11039	-0.0243154	-0.803955	0.026123	-0.642334	0.189219	-0.64918	-0.110879	-0.728332	9.70305	-0.314136	1.9746	0.0137564	-0.0223956	0.00712846	-1.06128	0.306396	0.349121	0.117355	-0.755803	-0.630869	0.13036	-0.442306	-2.92639	-8.86259	-0.0600506	0.0274618	-0.0171983	0.57959	0.357178	1.04932	-0.117225	-0.662245	0.0608564	-0.737555	9.41488	0.447227	1.46038	-0.0113285	0.00675769	0.0422456	-1.03931	-0.194824	0.293457	0.12706	-0.974277	-0.176977	0.0576095	-0.711499	-2.48101	-9.41923	0.0385527	-0.0199599	-0.0105006	0.45166	0.227051	0.924561	
22	0.164357	0.73528	0.260453	-0.60375	-9.41496	-0.710344	-1.13929	0.0315315	0.0296882	-0.0459349	1.09912	0.244385	-0.126465	0.0928928	0.16556	0.0460996	-0.980732	-3.26511	-0.462051	9.58491	-0.0338189	-0.0754848	-0.0504207	0.0966797	0.0368652	-0.966553	0.380033	-0.479655	-0.372186	-0.697843	9.64858	1.09235	2.8539	-0.066981	0.00175079	-0.0150082	-1.0979	0.176514	-0.0861816	0.188351	-0.564825	-0.319489	-0.737173	9.41253	3.05712	1.9123	-0.0570259	-0.00783791	0.0588758	-1.05176	0.0656738	0.159668	-0.37939	-0.442688	0.599937	-0.547874	9.37572	-2.96188	-1.08474	0.00496027	-0.00103521	-0.0197607	-1.03564	-0.0375977	0.1604	0.271955	-0.576575	-0.0409698	-0.769365	9.69479	-0.945222	4.36917	-0.0484662	-0.00880527	-0.00921512	-1.04785	-0.10791	0.101807	0.0417485	-0.254682	0.00976636	-0.966074	4.74704	-0.401144	8.92504	-0.0248921	0.0589613	-0.0183638	-0.800049	0.0327148	-0.642578	0.18829	-0.649361	-0.108725	-0.728736	9.92155	-0.823679	1.80234	-0.00886513	0.0170589	-0.00438889	-1.06396	0.315186	0.3396	0.11724	-0.755647	-0.631059	0.13045	-0.433532	-2.95848	-8.6758	0.00499286	-0.00648767	-0.0190339	0.579102	0.366211	1.04907	-0.117509	-0.662278	0.0605238	-0.737506	9.86101	0.891863	1.37162	0.0281407	0.0129416	-0.0257689	-1.03687	-0.199219	0.300293	0.126793	-0.974328	-0.176683	0.0582338	-0.686955	-2.45972	-9.42857	-0.0118628	-0.00907192	0.0155908	0.45166	0.229248	0.919922	
23	0.163949	0.735306	0.259886	-0.604073	-9.65854	-0.718437	-1.00258	0.060291	0.0142384	0.00362103	1.10376	0.244385	-0.128662	0.0925493	0.164972	0.0464914	-0.980845	-3.11894	-0.581516	9.66941	-0.0397024	-0.0258216	-0.0525464	0.0991211	0.0324707	-0.96875	0.380269	-0.47929	-0.372406	-0.697847	9.41321	1.36614	2.87027	0.0425436	0.0188581	-0.00650941	-1.1001	0.170166	-0.0883789	0.189387	-0.565102	-0.319295	-0.736779	9.20447	2.31684	1.23589	0.0769385	0.00615305	0.0251718	-1.05835	0.0656738	0.161865	-0.380271	-0.442288	0.600441	-0.547034	9.10134	-2.95616	-1.21558	-0.0983283	0.0235406	-0.04304	-1.03564	-0.0354004	0.162842	0.271553	-0.576896	-0.0405253	-0.76929	9.49741	-1.2545	4.18414	-0.0583111	-0.00668307	-0.0144169	-1.052	-0.110107	0.110596	0.0416624	-0.253996	0.0100498	-0.966255	5.27408	-0.214337	9.21327	0.00892917	0.0340117	-0.0161842	-0.802002	0.0283203	-0.646729	0.188767	-0.649271	-0.109241	-0.728616	10.2457	-0.665876	1.86329	0.0618429	0.00737221	-0.0124763	-1.06616	0.314941	0.349121	0.117182	-0.755559	-0.631067	0.130971	-0.450696	-2.93715	-8.76476	0.0502338	-0.0208507	-0.0226166	0.574707	0.361816	1.04468	-0.117411	-0.662962	0.0612372	-0.736849	9.84655	0.531971	1.49015	-0.0553779	-0.0357003	0.0257731	-1.03467	-0.197021	0.297852	0.126793	-0.974328	-0.176683	0.0582338	-0.686955	-2.45972	-9.42857	-0.0118628	-0.00907192	0.0155908	0.45166	0.229248	0.919922	
24	0.161838	0.736001	0.257752	-0.604711	-9.17589	-0.487256	-0.94553	0.0759674	0.0895691	-0.0270407	1.10352	0.244385	-0.12207	0.092003	0.165019	0.0468485	-0.980872	-3.22689	-0.626695	9.36246	-0.00736103	0.0299102	-0.0388077	0.101318	0.0302734	-0.973389	0.379624	-0.479989	-0.372133	-0.697864	9.3181	1.12143	2.83876	0.00349617	-0.0319266	0.00433985	-1.0957	0.172119	-0.081543	0.190791	-0.566204	-0.319318	-0.735559	9.19709	2.45348	1.43062	0.011708	-0.0441287	0.079044	-1.05615	0.0612793	0.159912	-0.381286	-0.442064	0.601108	-0.545774	9.28392	-3.15732	-1.05406	-0.0387703	0.00611147	-0.032335	-1.0332	-0.0441895	0.156006	0.270716	-0.577375	-0.0410329	-0.769199	9.77304	-1.07829	4.60188	-0.0444607	-0.0230509	-0.05406	-1.04565	-0.110107	0.110352	0.0415827	-0.253041	0.0101369	-0.966508	5.00795	-0.391874	8.89529	0.00535369	0.0459263	-0.00891631	-0.804443	0.0368652	-0.644775	0.190211	-0.649255	-0.110128	-0.728121	9.75341	-0.785364	1.71755	0.0497707	-0.0224809	0.0157519	-1.06177	0.315186	0.342041	0.117407	-0.755451	-0.631104	0.131217	-0.471905	-2.97442	-8.57352	0.00174121	0.0136629	-0.0237579	0.581787	0.361816	1.04688	-0.117513	-0.663536	0.0608248	-0.73635	10.0021	0.810293	1.41487	0.0417349	-0.0240997	-0.0134588	-1.03442	-0.203613	0.298096	0.12676	-0.974306	-0.176668	0.0587209	-0.679835	-2.46857	-9.44275	0.00114545	0.0144067	-0.0065257	0.449463	0.224854	0.927002	
25	0.160553	0.736382	0.258402	-0.604312	-9.23889	-0.234884	-1.08807	0.0405743	0.10769	-0.0946861	1.10132	0.244385	-0.122314	0.0920815	0.165127	0.0462762	-0.980873	-3.18021	-0.586736	9.46751	0.0145929	0.0153994	-0.00151504	0.103271	0.034668	-0.971191	0.380185	-0.480717	-0.371831	-0.697217	9.6933	1.51841	2.90484	0.0179348	-0.0163096	0.0569579	-1.0979	0.176514	-0.0793457	0.191766	-0.567404	-0.319283	-0.734396	9.57802	2.70325	1.58709	0.035644	-0.0444722	0.0424104	-1.0542	0.0700684	0.168457	-0.382518	-0.441777	0.601271	-0.544964	9.20085	-3.31718	-1.26431	-0.0134562	0.0203066	-0.0571613	-1.0354	-0.0397949	0.162842	0.269675	-0.578357	-0.041472	-0.768804	9.74599	-1.56198	4.16292	-0.0015972	-0.0406916	-0.0506628	-1.04785	-0.110107	0.112549	0.0414515	-0.253187	0.0102991	-0.966474	5.06275	-0.584487	9.28945	0.0203172	-0.0360214	-0.0244828	-0.804199	0.0283203	-0.646729	0.189508	-0.650179	-0.108962	-0.727654	9.80972	-0.525782	1.8663	-0.0629798	-0.0210759	0.000949904	-1.05933	0.310547	0.351562	0.117079	-0.755543	-0.631214	0.130447	-0.441193	-2.94396	-8.78293	-0.00641425	0.00492765	-0.0222053	0.574707	0.364014	1.04907	-0.117141	-0.664362	0.0607792	-0.735668	9.60015	0.787817	1.37689	0.0226797	-0.0292046	0.000398317	-1.03906	-0.194824	0.307129	0.1269	-0.974274	-0.176709	0.0588252	-0.704894	-2.46729	-9.42518	0.0159326	0.000695524	-0.00668077	0.449219	0.231445	0.924561	
26	0.15884	0.737933	0.262153	-0.601249	-9.23268	-0.384263	-1.165	-0.0891948	0.238536	-0.110582	1.10522	0.255127	-0.111572	0.093079	0.164749	0.0462064	-0.980846	-3.08567	-0.607712	9.5937	-0.0163633	-0.00330048	0.0270458	0.0969238	0.0280762	-0.970947	0.380818	-0.480808	-0.371508	-0.696982	9.52794	1.24901	2.70872	0.0305827	0.0119001	0.0158736	-1.0957	0.176514	-0.0817871	0.191875	-0.567862	-0.319266	-0.73402	9.43912	2.59399	1.40272	-0.00156472	-0.00659199	0.0117554	-1.05664	0.0720215	0.170654	-0.381785	-0.443797	0.599605	-0.545673	9.34428	-3.00178	-1.27112	0.100054	-0.0184306	-0.0594555	-1.03955	-0.0441895	0.158203	0.269869	-0.578461	-0.0429607	-0.768575	9.86942	-1.40181	4.26945	0.0932292	-0.0403442	-0.0641341	-1.04761	-0.116455	0.110596	0.0421541	-0.254234	0.00922311	-0.96618	5.11558	-0.362938	9.06948	0.0610115	-0.0356633	0.00988926	-0.801758	0.026123	-0.642334	0.188857	-0.650466	-0.10879	-0.727593	9.80498	-1.19347	1.53387	0.0430982	0.00286056	-0.0288932	-1.06396	0.317139	0.342041	0.116947	-0.755513	-0.631236	0.130635	-0.449695	-2.9782	-8.62764	0.014516	-0.0162507	-0.0185478	0.576904	0.364014	1.04907	-0.118411	-0.664637	0.0609816	-0.735199	9.9897	0.476603	1.27277	-0.0206809	-0.0101189	-0.029793	-1.03223	-0.203613	0.300293	0.126875	-0.974271	-0.176694	0.0589809	-0.730652	-2.48745	-9.43367	0.00374031	-0.00485563	-0.000336857	0.444824	0.229248	0.929199	
27	0.159374	0.740209	0.264581	-0.597233	-9.59855	-0.656417	-0.946165	-0.101556	0.179743	0.0142255	1.10303	0.252686	-0.0942383	0.0941472	0.164675	0.0462298	-0.980755	-3.0112	-0.750291	9.56627	-0.0198912	0.0198138	0.0232347	0.0944824	0.0368652	-0.971191	0.380956	-0.48126	-0.371626	-0.696531	9.24452	1.09876	2.73998	-0.00429169	-0.0300795	0.0172409	-1.09131	0.171875	-0.0703125	0.192939	-0.568073	-0.319777	-0.733355	9.12659	2.32791	1.33736	0.071624	-0.0128847	0.0351452	-1.0542	0.0700684	0.16626	-0.381599	-0.445044	0.598472	-0.546031	9.27646	-2.91674	-1.17248	0.0891434	0.00686309	-0.0607662	-1.0354	-0.0419922	0.158203	0.270285	-0.578543	-0.0455664	-0.768217	9.64444	-0.951482	4.18936	0.025391	-0.0139106	-0.0320976	-1.04297	-0.123047	0.115234	0.0429902	-0.255661	0.00865814	-0.965771	5.29741	-0.232283	9.33236	0.0400934	-0.0364539	0.00852503	-0.806396	0.0305176	-0.638184	0.189477	-0.650471	-0.110175	-0.727219	10.194	-0.496377	1.82081	0.0333204	-0.00420475	-0.0276455	-1.06641	0.321533	0.351318	0.116464	-0.755428	-0.631497	0.130292	-0.447701	-2.94388	-8.6885	-0.0149402	0.0167875	-0.0190808	0.576904	0.364014	1.05127	-0.118496	-0.665176	0.0606209	-0.734727	9.84685	0.820524	1.40793	0.0155673	-0.0128917	-0.0145066	-1.03662	-0.203613	0.302734	0.126038	-0.974346	-0.176926	0.0588287	-0.737048	-2.46653	-9.47388	-0.0206927	0.0134312	-0.0137866	0.456543	0.218262	0.929443	
28	0.160333	0.740963	0.264918	-0.595891	-9.78494	-0.797719	-1.08725	-0.0865525	0.129544	0.0528613	1.10522	0.25293	-0.0986328	0.0948367	0.165508	0.0461458	-0.980553	-3.31567	-0.382337	9.47757	-0.0144066	0.0349473	0.00647123	0.0991211	0.0302734	-0.963867	0.382174	-0.481078	-0.372838	-0.695341	9.70347	1.55168	3.02879	0.0738004	-0.0139452	0.0295426	-1.09595	0.180664	-0.0771484	0.192698	-0.568241	-0.320324	-0.733049	9.59917	2.54158	1.79718	-0.00595555	-0.00930958	-0.0252035	-1.04541	0.0700684	0.168457	-0.382149	-0.445435	0.59816	-0.545669	9.31794	-3.26886	-1.15509	-0.0166649	0.00516201	-0.0400862	-1.03296	-0.0463867	0.158203	0.270199	-0.578638	-0.0468974	-0.768096	9.80538	-1.3775	4.51411	0.0196225	-0.0116456	-0.0430785	-1.04321	-0.114502	0.11499	0.0430346	-0.25717	0.00903537	-0.965365	4.9414	-0.209764	9.06514	-0.0182289	-0.0881218	-0.0116942	-0.806396	0.0327148	-0.638184	0.188623	-0.651123	-0.109251	-0.726997	9.67105	-0.697283	1.64837	-0.0594439	-0.0114313	-0.00713193	-1.06177	0.314941	0.358398	0.116141	-0.75544	-0.631609	0.129968	-0.435731	-2.94695	-8.71025	0.00917758	-0.00607347	-0.0243321	0.581787	0.357178	1.05151	-0.118393	-0.665663	0.0600186	-0.734352	9.8277	0.88021	1.19776	0.0495012	-0.00517288	-0.0099435	-1.03198	-0.208008	0.305176	0.126013	-0.974308	-0.177162	0.0588082	-0.718078	-2.44702	-9.40118	0.00658522	0.00889137	-0.0116508	0.45166	0.227051	0.929199	
29	0.162829	0.741933	0.264269	-0.594293	-9.62036	-0.940153	-1.22908	-0.027698	0.0671863	0.0668799	1.10571	0.244141	-0.092041	0.0951658	0.165052	0.0459583	-0.980606	-3.04141	-0.451277	9.64793	-0.0179773	-0.00846628	-0.0139391	0.0969238	0.0324707	-0.96875	0.38195	-0.481437	-0.371954	-0.695689	9.66921	1.00709	2.79752	-0.0430671	0.0113704	0.0151738	-1.0979	0.176514	-0.0703125	0.192333	-0.568744	-0.319694	-0.733031	9.56016	2.53659	1.42774	-0.0306049	-0.0128857	0.00994278	-1.052	0.0722656	0.168457	-0.381287	-0.446478	0.596848	-0.546854	9.35015	-2.72168	-1.08713	0.0920173	0.00181865	-0.0196998	-1.03296	-0.0463867	0.162842	0.269997	-0.578535	-0.0480076	-0.768175	9.7234	-1.06142	4.04733	0.00497561	0.00264478	-0.0397599	-1.04297	-0.12085	0.119385	0.0432367	-0.258179	0.00899222	-0.965087	5.37965	-0.00284861	8.75432	0.00941428	0.00745552	-0.00431453	-0.806396	0.0327148	-0.638184	0.188727	-0.651244	-0.109417	-0.726836	9.94918	-0.876516	1.73235	0.0544059	0.00259443	-0.0166219	-1.06592	0.312744	0.349121	0.115828	-0.755545	-0.631608	0.129643	-0.475179	-2.93542	-8.74481	-0.00785839	0.00661685	-0.017877	0.577148	0.357178	1.04932	-0.118936	-0.665529	0.0602813	-0.734365	9.80182	0.866239	1.33709	-0.0273812	0.010242	0.00297365	-1.02734	-0.207764	0.307373	0.126408	-0.97422	-0.177316	0.0589489	-0.714074	-2.47865	-9.39497	0.0200679	0.000386114	-0.00857078	0.451904	0.222656	0.924805	
30	0.163289	0.741955	0.263443	-0.594506	-9.63996	-0.816044	-1.1646	0.0199905	-0.00357615	0.0147473	1.10767	0.246338	-0.0854492	0.0948726	0.165122	0.0462428	-0.98061	-3.15129	-0.569856	9.59255	-0.0112635	0.0289813	-0.034104	0.105469	0.0324707	-0.96875	0.382325	-0.481722	-0.371463	-0.695548	9.35568	1.25291	2.82157	0.0180175	-0.0122182	0.0344235	-1.09375	0.182861	-0.0749512	0.192091	-0.568844	-0.319273	-0.7332	9.2283	2.58777	1.41973	-0.00556042	0.00994229	-0.0064006	-1.05444	0.0722656	0.170654	-0.381631	-0.446556	0.596899	-0.546495	9.26089	-2.68889	-1.20872	-0.0232162	0.00848996	-0.0441198	-1.03711	-0.0507812	0.165039	0.271208	-0.577851	-0.0491372	-0.768192	9.73145	-1.06723	4.31875	0.0959641	0.0241636	-0.00137147	-1.04102	-0.116455	0.117188	0.0432188	-0.259218	0.00941143	-0.964805	5.15671	-0.248731	9.38386	0.0085077	-0.022392	-0.0120198	-0.804443	0.0349121	-0.640381	0.188965	-0.650998	-0.109667	-0.726957	9.96018	-0.517484	1.64026	-0.0157693	0.0247421	-0.0221112	-1.06177	0.317139	0.349121	0.115741	-0.755563	-0.631627	0.129523	-0.449139	-2.92285	-8.75353	0.00121163	0.00495451	-0.0202595	0.579346	0.359375	1.04688	-0.119431	-0.66577	0.0611089	-0.733998	9.82972	0.544464	1.17351	-0.0360842	-0.0129026	0.0109035	-1.02979	-0.203613	0.30957	0.126736	-0.974161	-0.177379	0.0590287	-0.707065	-2.46837	-9.37882	0.0162073	0.00798652	-0.00988488	0.451904	0.222656	0.924805	
31	0.163029	0.740457	0.263058	-0.596612	-9.32425	-0.742378	-1.26626	0.040867	-0.0707575	-0.0434405	1.11182	0.25293	-0.092041	0.0944496	0.165861	0.046646	-0.980507	-3.18016	-0.575777	9.50686	-0.0342797	0.0474675	-0.0349471	0.0991211	0.0324707	-0.96167	0.382284	-0.48207	-0.370627	-0.695775	9.60392	1.24491	2.82662	-0.0611697	0.0172764	0.00418012	-1.09375	0.178467	-0.0727539	0.191619	-0.569086	-0.318825	-0.733331	9.38658	2.61256	1.65112	-0.0501377	-0.00833688	-0.00361196	-1.05615	0.0656738	0.164062	-0.382461	-0.446261	0.597513	-0.545484	9.34078	-3.04971	-1.18372	-0.0545165	0.0100913	0.00893403	-1.03271	-0.0529785	0.162842	0.271441	-0.577654	-0.0495347	-0.768233	9.88063	-0.963954	4.63412	0.0309031	0.0147419	-0.0174966	-1.04736	-0.118652	0.112793	0.0432236	-0.260545	0.00947079	-0.964447	5.3779	-0.303128	9.3052	0.00620596	-0.0980412	-0.0132773	-0.812744	0.0305176	-0.634033	0.188638	-0.651181	-0.109212	-0.726947	9.84664	-0.967411	1.61343	-0.0409961	0.00503548	-0.00812678	-1.06152	0.312744	0.351318	0.116413	-0.755232	-0.631851	0.129753	-0.449403	-2.94837	-8.67836	0.0328983	0.00837682	-0.0274454	0.579346	0.361816	1.04688	-0.118527	-0.665869	0.0600873	-0.734138	10.0572	0.54863	1.35645	0.113787	0.0164601	0.00371028	-1.03662	-0.203613	0.311768	0.127657	-0.97399	-0.177703	0.0589027	-0.678692	-2.50234	-9.42493	0.0358252	0.0143808	-0.0197421	0.45166	0.227051	0.927002	
32	0.161803	0.739253	0.262861	-0.598523	-9.4088	-0.487914	-1.27556	0.037627	-0.045847	-0.0525165	1.10107	0.248535	-0.0964355	0.0943976	0.165885	0.0470356	-0.980489	-3.23339	-0.664004	9.4859	-0.0307395	0.00675	-0.0194657	0.103027	0.0412598	-0.964355	0.383017	-0.481974	-0.370268	-0.69563	9.44426	1.2237	2.82469	0.0312811	0.0149139	0.035878	-1.09595	0.187256	-0.0727539	0.191541	-0.569356	-0.318422	-0.733316	9.50158	2.55065	1.37483	0.0112506	0.0084838	-0.00300497	-1.0542	0.0678711	0.16626	-0.38212	-0.446624	0.597316	-0.545642	9.36931	-2.79009	-1.12534	0.0590005	-0.00555665	-0.0303594	-1.03516	-0.0463867	0.156006	0.2719	-0.577219	-0.0500799	-0.768362	9.73352	-0.94935	4.16615	0.0738147	0.0202435	-0.00254748	-1.03882	-0.116455	0.119141	0.0439959	-0.261712	0.00691773	-0.964118	5.09849	-0.278379	9.02918	0.0434323	-0.0482929	-0.00915794	-0.810791	0.034668	-0.629883	0.18872	-0.651178	-0.108891	-0.726976	9.85618	-0.851316	1.718	-0.0480125	0.0347101	-0.00589925	-1.05737	0.317139	0.355957	0.11613	-0.755356	-0.631892	0.12909	-0.454334	-2.91964	-8.7906	-0.0138204	0.0112403	-0.0193076	0.574951	0.35498	1.04712	-0.118704	-0.665765	0.0606225	-0.73416	9.73378	0.83467	1.25504	-0.10005	0.012236	-0.00602344	-1.03223	-0.203613	0.30957	0.127909	-0.973919	-0.177813	0.0591884	-0.725713	-2.47408	-9.39171	0.0132385	-0.00402613	-0.00286308	0.454102	0.222656	0.922363	
33	0.162146	0.738311	0.262489	-0.599755	-9.54417	-0.518486	-1.13352	-0.0115992	-0.0515582	0.0195761	1.10327	0.248535	-0.0986328	0.0943242	0.165399	0.0468591	-0.980587	-3.09145	-0.663804	9.59075	-0.00502395	0.00125247	-0.0233788	0.10083	0.0412598	-0.971436	0.383135	-0.481977	-0.370253	-0.695571	9.41412	1.38089	2.8559	0.0172333	0.00164284	0.00892078	-1.09375	0.182861	-0.0727539	0.191177	-0.568782	-0.318774	-0.733704	9.31444	2.51593	1.45713	0.00383105	0.0206412	-0.0290784	-1.05444	0.0722656	0.168457	-0.382466	-0.446552	0.59732	-0.545454	9.31467	-2.76292	-1.18042	-0.0163076	0.0196721	-0.0344281	-1.03931	-0.0529785	0.160645	0.272218	-0.577	-0.0502922	-0.7684	9.75822	-1.021	4.34103	0.0225716	0.0207435	-0.00384634	-1.04517	-0.118652	0.117188	0.0441293	-0.262889	0.00631926	-0.963796	5.26611	-0.344473	9.11122	0.0603893	-0.086746	-0.017606	-0.812988	0.0324707	-0.634033	0.189171	-0.650931	-0.109276	-0.727023	9.93788	-1.0376	1.57441	0.0552144	0.0276403	-0.0113191	-1.05737	0.314941	0.35376	0.116057	-0.755294	-0.631932	0.129323	-0.438359	-2.95201	-8.63046	0.0131341	-0.00483357	-0.0208709	0.577148	0.359375	1.04688	-0.11922	-0.665529	0.0610369	-0.734256	9.96409	0.49971	1.31176	-0.0494923	0.0269907	-0.00190583	-1.03662	-0.203613	0.307129	0.127725	-0.973922	-0.177855	0.0594067	-0.706575	-2.48531	-9.41845	-0.0117817	-0.00265507	-0.00564343	0.453857	0.231445	0.924561	
34	0.162981	0.737542	0.261961	-0.600704	-9.40401	-0.731001	-1.16571	-0.00717363	-0.0880659	0.0385202	1.10522	0.25293	-0.102783	0.0942249	0.165539	0.046718	-0.980579	-3.05474	-0.593995	9.60514	0.00420973	0.0274102	-0.0228584	0.101074	0.0368652	-0.96875	0.383154	-0.481786	-0.370428	-0.695599	9.41395	1.04225	2.9613	0.0732325	0.0121326	0.00166831	-1.09375	0.182861	-0.0795898	0.19085	-0.568484	-0.318918	-0.733958	9.2491	2.45353	1.46141	-0.00483901	0.0143556	-0.0298407	-1.04956	0.0678711	0.161865	-0.382614	-0.446807	0.597082	-0.545401	9.32053	-2.95991	-1.29371	0.0432826	0.0113676	-0.0215043	-1.03491	-0.0507812	0.158203	0.273449	-0.576098	-0.0512251	-0.768578	9.78581	-1.1254	4.48264	0.0634993	0.0364148	-0.00133536	-1.04321	-0.114502	0.119141	0.0441437	-0.264039	0.00534116	-0.963486	5.44221	-0.226851	9.17864	0.0258699	-0.0155032	-0.0230453	-0.812988	0.0324707	-0.629639	0.189116	-0.65066	-0.109314	-0.727274	10.0208	-0.663589	1.79311	-0.0571242	0.0146476	-0.0257973	-1.06592	0.312744	0.34668	0.116212	-0.755278	-0.63195	0.129184	-0.428854	-2.9472	-8.69438	0.0264793	0.0140378	-0.0238665	0.584229	0.357178	1.04932	-0.11819	-0.665568	0.0603893	-0.734441	9.83674	0.830411	1.40498	0.0518262	0.0103603	0.0120044	-1.03418	-0.208008	0.307373	0.127659	-0.97392	-0.177937	0.0593331	-0.739547	-2.48176	-9.4521	-0.00338046	0.0114612	-0.0100244	0.449219	0.231445	0.926758	
35	0.164361	0.736026	0.260281	-0.602913	-9.42034	-0.736619	-1.25139	0.00778754	-0.108849	0.0468866	1.09668	0.250488	-0.10498	0.0939459	0.166404	0.0464481	-0.980473	-3.27325	-0.526403	9.59719	0.000676401	0.0512271	-0.0265504	0.105469	0.034668	-0.966309	0.383007	-0.481768	-0.370147	-0.695842	9.72334	1.17358	2.80513	-0.0279258	0.00343351	-0.0114275	-1.0896	0.185059	-0.0773926	0.190572	-0.568066	-0.31921	-0.734226	9.61181	2.65818	1.51524	0.0152215	0.0238611	-0.0148145	-1.04956	0.0678711	0.164062	-0.382738	-0.445708	0.598201	-0.544988	9.30652	-3.04357	-1.11874	-0.0602187	0.0114776	0.0256923	-1.03955	-0.048584	0.162842	0.27323	-0.575808	-0.0507357	-0.768906	9.75958	-1.10999	4.44321	-0.0397336	0.027734	-0.0120714	-1.04517	-0.12085	0.108643	0.0441232	-0.265003	0.00445366	-0.963227	5.16928	-0.250162	8.91429	0.0463252	-0.0319026	-0.0254988	-0.808594	0.0305176	-0.627441	0.189364	-0.65048	-0.109378	-0.727361	9.65889	-0.848745	1.75953	0.0476518	0.0236444	-0.00616151	-1.06372	0.310791	0.34668	0.116197	-0.755349	-0.631973	0.128669	-0.451036	-2.93653	-8.74144	-0.0126674	0.012146	-0.0239781	0.577393	0.35498	1.04932	-0.118127	-0.665516	0.0602859	-0.734507	9.8326	0.910383	1.42579	0.0143955	0.0165453	0.0037942	-1.03198	-0.205811	0.304932	0.128214	-0.97382	-0.178147	0.0591505	-0.687745	-2.49677	-9.42036	0.0229943	0.0160993	-0.0139319	0.45166	0.227051	0.924561	
36	0.164737	0.73451	0.259488	-0.604999	-9.69855	-0.614917	-1.18017	0.0229825	-0.0748358	-0.0135711	1.10327	0.248535	-0.113525	0.094018	0.166754	0.0469458	-0.980382	-3.25457	-0.704005	9.52808	-0.026732	0.0272621	-0.0130528	0.103271	0.0324707	-0.96875	0.383427	-0.481145	-0.370281	-0.695971	9.3895	1.48666	2.92171	0.0025737	0.0328945	-0.00669743	-1.09595	0.185059	-0.0820312	0.189853	-0.567472	-0.319023	-0.734953	9.20912	2.3288	1.58008	-0.0239622	0.027344	-0.026193	-1.04932	0.0612793	0.162109	-0.382438	-0.445583	0.59816	-0.545345	9.35309	-2.9266	-1.17211	0.0221386	0.00716359	-0.0117441	-1.03516	-0.0463867	0.165039	0.273865	-0.575008	-0.0512124	-0.769247	9.75351	-1.04552	4.16678	0.0427989	0.0358296	-0.009768	-1.04321	-0.116455	0.11499	0.0443727	-0.266699	0.00406143	-0.962749	5.27552	-0.350831	9.22671	0.0530042	-0.0659004	-0.00884459	-0.816895	0.026123	-0.621094	0.189151	-0.650042	-0.109448	-0.727797	10.0776	-0.808053	1.64653	-0.035182	0.0390141	-0.0298782	-1.06592	0.308594	0.344482	0.116218	-0.755313	-0.631973	0.128863	-0.428734	-2.94336	-8.59936	0.0274827	0.00126649	-0.0194898	0.579346	0.361816	1.04688	-0.118342	-0.665349	0.0600782	-0.734641	9.84272	0.629135	1.40258	0.0103223	0.0139015	-0.0141016	-1.02979	-0.203613	0.307129	0.128663	-0.973739	-0.178275	0.0591252	-0.728653	-2.47029	-9.36961	0.038074	0.0141408	-0.0168489	0.447021	0.229248	0.924561	
37	0.165444	0.731717	0.259166	-0.608318	-9.78554	-0.627741	-1.141	-0.00100512	-0.164251	-0.0339331	1.09888	0.248535	-0.113525	0.0936666	0.167407	0.0470938	-0.980298	-3.25528	-0.52686	9.6703	-0.015331	0.057469	-0.0416297	0.105469	0.0324707	-0.96875	0.383064	-0.481203	-0.369959	-0.696302	9.623	1.33565	2.95401	-0.0328093	0.00778393	-0.0165176	-1.09375	0.187256	-0.079834	0.189414	-0.567453	-0.318861	-0.735151	9.54152	2.73209	1.75938	-0.0267536	0.00372484	-0.016568	-1.05371	0.0612793	0.164307	-0.382826	-0.445044	0.598458	-0.545186	9.33391	-3.09391	-1.21559	-0.0529793	0.0284288	-0.00163326	-1.03735	-0.0463867	0.156006	0.274828	-0.574114	-0.0516076	-0.769545	9.84755	-1.28466	4.50996	0.000481418	0.03949	0.00757736	-1.03931	-0.10791	0.112549	0.0440642	-0.268602	0.00473207	-0.962231	5.41185	0.0151072	9.26614	-0.0717452	-0.0775377	-0.0193079	-0.827881	0.0302734	-0.621094	0.189675	-0.64973	-0.110664	-0.727756	10.006	-0.661517	1.78672	0.0789937	0.00288947	-0.0334345	-1.06592	0.312744	0.34668	0.116116	-0.755441	-0.63193	0.128414	-0.44201	-2.93159	-8.77344	0.00634693	0.0110708	-0.0215885	0.574707	0.361572	1.04907	-0.117943	-0.664814	0.0597327	-0.735217	9.76045	0.916498	1.31798	0.0061022	0.031462	0.00985277	-1.03662	-0.203613	0.307129	0.129429	-0.973563	-0.178753	0.0589149	-0.699385	-2.52085	-9.4189	0.0198451	0.00968284	-0.0162015	0.453857	0.231445	0.924561	
38	0.166058	0.728385	0.256444	-0.613283	-9.35452	-0.758039	-1.05031	-0.00774237	-0.192219	-0.0169047	1.09912	0.248535	-0.130859	0.0925657	0.168196	0.0471558	-0.980264	-3.44122	-0.561922	9.53164	0.0111289	0.0341207	-0.0672757	0.112061	0.0324707	-0.96875	0.382511	-0.481071	-0.36891	-0.697253	9.60175	1.4367	2.96346	-0.0850452	0.0258677	-0.0124145	-1.09814	0.182861	-0.0773926	0.188594	-0.567597	-0.318053	-0.735601	9.40442	2.43847	1.60595	-0.0330359	0.00290769	0.0030712	-1.05371	0.059082	0.166504	-0.382506	-0.444284	0.598873	-0.545575	9.42814	-2.75984	-1.09258	-0.00262652	0.0225233	0.0220139	-1.03296	-0.0463867	0.156006	0.275003	-0.573322	-0.0513709	-0.770088	9.8899	-1.11918	4.42445	-0.0248931	0.0544481	-0.00680252	-1.04761	-0.114502	0.11499	0.0431985	-0.271	0.00540183	-0.961594	5.16505	-0.224837	8.85639	0.0238556	-0.0850167	-0.0519878	-0.825684	0.0302734	-0.614746	0.189048	-0.649559	-0.109996	-0.728173	9.76752	-0.708252	1.80012	-0.0533994	0.0341161	-0.0170367	-1.06396	0.317139	0.34668	0.11589	-0.755491	-0.631954	0.128208	-0.446903	-2.94873	-8.6637	-0.00442789	0.00478495	-0.0175088	0.574951	0.354736	1.04932	-0.118028	-0.664841	0.0594157	-0.735205	9.68159	0.645805	1.35223	0.0373513	0.00948289	-0.00839677	-1.03223	-0.201416	0.304932	0.130119	-0.973397	-0.179156	0.0589196	-0.714205	-2.50535	-9.39494	0.0443736	0.00868195	-0.0252285	0.449219	0.233643	0.926758	
39	0.16682	0.727426	0.254762	-0.614914	-9.42313	-0.799525	-1.00333	-0.0243393	-0.148906	0.04638	1.09912	0.248779	-0.133057	0.0918324	0.168274	0.0471815	-0.980319	-3.36596	-0.550551	9.49527	-0.00252505	0.0238572	-0.0762722	0.101074	0.0368652	-0.971191	0.382121	-0.481235	-0.368315	-0.697668	9.36097	1.25252	2.77645	-0.0542606	0.0132515	-0.00661084	-1.09375	0.17627	-0.0771484	0.188882	-0.567836	-0.317902	-0.735407	9.20623	2.35538	1.18443	0.0105413	-0.00824132	0.0329046	-1.05151	0.0612793	0.166504	-0.383254	-0.44316	0.599846	-0.544895	9.34713	-2.86628	-1.09019	-0.12934	0.0384384	0.0188207	-1.0332	-0.0441895	0.151367	0.274803	-0.57299	-0.0507075	-0.770451	9.73612	-0.973991	4.42623	-0.0517474	0.0584665	-0.000916742	-1.04565	-0.112305	0.106201	0.042643	-0.271901	0.00601088	-0.961361	5.32295	-0.218884	9.08431	-0.0463459	-0.0590191	-0.0443086	-0.823486	0.0280762	-0.614746	0.188334	-0.649716	-0.109408	-0.728306	10.0831	-0.858616	1.60482	-0.0695211	0.0126701	-0.026281	-1.06372	0.312744	0.349121	0.115907	-0.755578	-0.631905	0.127922	-0.431507	-2.94882	-8.65613	-0.00104456	0.0218409	-0.0153644	0.574951	0.35498	1.04468	-0.117702	-0.664921	0.0590402	-0.735215	9.93352	0.923486	1.44248	0.0446429	0.00695944	0.0032618	-1.03467	-0.197021	0.304688	0.130736	-0.973264	-0.179444	0.0588687	-0.677758	-2.55496	-9.45664	0.0185046	0.00973011	-0.0151452	0.44458	0.233643	0.922119	
40	0.167168	0.726092	0.250727	-0.618047	-9.55829	-0.867667	-1.2155	0.0572324	-0.136036	0.0397668	1.09888	0.250977	-0.139648	0.0900895	0.169066	0.0476454	-0.980322	-3.4692	-0.605927	9.56682	-0.0158872	0.0573455	-0.0903307	0.114014	0.0412598	-0.961914	0.38191	-0.482402	-0.367372	-0.697475	9.78227	1.30753	3.05596	0.00177577	-0.0144654	0.0479202	-1.0874	0.187012	-0.072998	0.188463	-0.568588	-0.317829	-0.734966	9.6561	2.91562	1.93299	-0.0229222	-0.0353963	-0.0239571	-1.05176	0.0656738	0.168457	-0.383935	-0.442056	0.600708	-0.544362	9.25314	-3.11838	-1.24528	-0.113979	0.0417704	0.0205855	-1.03516	-0.048584	0.156006	0.274682	-0.572375	-0.0497937	-0.77101	9.84903	-1.38232	4.34962	-0.000817602	0.0486231	0.00225311	-1.04785	-0.110107	0.106201	0.0411635	-0.273946	0.00829529	-0.960828	5.23318	-0.244707	8.99552	-0.0969469	-0.0839071	-0.0560951	-0.827881	0.0324707	-0.608398	0.188932	-0.650374	-0.109298	-0.727579	9.68746	-0.399681	1.89035	-0.0104545	-0.0179577	0.0289477	-1.06177	0.314941	0.34668	0.115696	-0.755747	-0.631864	0.127316	-0.4306	-2.90853	-8.77936	-0.0319379	0.0307372	-0.01161	0.577393	0.352539	1.04932	-0.117925	-0.664717	0.0595261	-0.735324	9.84616	0.781585	1.51245	-0.0383715	0.0232507	0.0186866	-1.03687	-0.197021	0.307129	0.130597	-0.97326	-0.179529	0.0589875	-0.707869	-2.52962	-9.42247	-0.00620081	-0.00466022	-0.00788168	0.448975	0.23584	0.928955	
41	0.165338	0.726022	0.246081	-0.620483	-9.34516	-0.554067	-0.998469	0.132276	-0.00503024	0.0449508	1.09717	0.242188	-0.141602	0.0887075	0.168454	0.0480926	-0.980531	-3.44695	-0.655811	9.38915	-0.0206173	-0.0287723	-0.071438	0.107666	0.0368652	-0.964111	0.381114	-0.483125	-0.366196	-0.698027	9.44676	1.27321	2.86206	-0.0952715	-0.00272152	-0.00915426	-1.09595	0.185059	-0.0773926	0.187683	-0.569241	-0.317472	-0.734814	9.27357	2.48071	1.28189	-0.0464146	-0.0295728	0.00831841	-1.05176	0.0634766	0.170898	-0.385204	-0.440814	0.601688	-0.54339	9.42016	-3.27053	-1.27722	-0.0826406	0.0291896	-0.00294086	-1.03516	-0.0441895	0.158203	0.27389	-0.572441	-0.0485982	-0.77132	9.61825	-1.21628	4.50742	-0.0590089	0.0172972	-0.016839	-1.04321	-0.114502	0.110596	0.0399651	-0.276462	0.00799444	-0.96016	5.18736	-0.61863	8.79831	0.0362382	-0.111605	-0.0594807	-0.834229	0.0280762	-0.606201	0.188446	-0.650469	-0.107898	-0.727829	9.67979	-1.15758	1.65889	-0.0199896	0.0278074	-0.00187409	-1.06616	0.317139	0.351318	0.115633	-0.755574	-0.632017	0.127638	-0.447828	-2.93385	-8.66476	0.0145139	-0.0155368	-0.0141381	0.582031	0.35498	1.05371	-0.118044	-0.664637	0.060278	-0.735316	9.92126	0.49745	1.53925	-0.014803	0.0179622	0.00781304	-1.03662	-0.201416	0.311768	0.130567	-0.973298	-0.179252	0.0592611	-0.703611	-2.52974	-9.40331	0.00286759	-0.00558955	0.010963	0.447021	0.231445	0.926758	
42	0.164627	0.726822	0.241565	-0.62151	-9.62956	-0.558814	-0.516097	0.0944722	-0.0352946	0.0912891	1.09717	0.242188	-0.145996	0.0883374	0.167364	0.0476581	-0.980772	-3.22459	-0.638281	9.40483	0.022441	-0.0740869	-0.0470149	0.105225	0.0412598	-0.966553	0.380617	-0.484521	-0.365326	-0.697787	9.35283	1.05076	2.71446	-0.032602	-0.0479827	0.0420564	-1.0918	0.187256	-0.0751953	0.186529	-0.570276	-0.317224	-0.734412	9.18662	2.71661	1.34074	-0.0414889	-0.0529	-0.0259431	-1.05151	0.0612793	0.170898	-0.386015	-0.439907	0.602141	-0.543048	9.22549	-2.53787	-0.957114	-0.0337104	0.0340974	-0.00508424	-1.03735	-0.048584	0.156006	0.273156	-0.572306	-0.0480729	-0.771712	9.56951	-0.95446	4.36371	-0.0602407	0.0284351	-0.0206209	-1.04346	-0.112305	0.108398	0.0389851	-0.27449	0.0101417	-0.960746	5.7349	-0.0626838	8.98024	-0.124278	0.232404	-0.0227291	-0.827637	0.0280762	-0.606201	0.189091	-0.650249	-0.109218	-0.727662	10.0597	-0.608666	1.68495	0.0556615	0.0047156	-0.0354199	-1.06396	0.317139	0.344238	0.115553	-0.755624	-0.63198	0.127596	-0.445895	-2.92217	-8.75067	0.00557478	0.00066811	-0.0178297	0.579346	0.359375	1.04688	-0.117563	-0.664944	0.0594963	-0.73518	9.94886	0.86279	1.3743	0.0437227	-0.00619193	-0.0123405	-1.03882	-0.203613	0.311768	0.130621	-0.973278	-0.179224	0.0595616	-0.715019	-2.53236	-9.40617	0.00606421	-0.00748757	0.000748029	0.446777	0.238037	0.924561	
43	0.163804	0.726148	0.236644	-0.624401	-9.68899	-0.232463	-0.793479	0.0866291	-0.137007	0.0569598	1.09766	0.233643	-0.150146	0.0871088	0.167824	0.0471217	-0.98083	-3.30426	-0.556856	9.49872	0.00769102	0.045011	-0.0261581	0.101074	0.034668	-0.966309	0.380157	-0.485194	-0.365477	-0.697492	9.75468	1.28126	2.88953	-0.0119638	-0.0339959	-0.0205154	-1.0896	0.189209	-0.072998	0.185605	-0.571087	-0.317182	-0.734033	9.63088	2.58665	1.71055	0.00303301	-0.028047	-0.00652289	-1.04492	0.0612793	0.175293	-0.387852	-0.438413	0.603266	-0.541696	9.19027	-3.52341	-1.29615	-0.0854184	0.0421864	-0.0205347	-1.03735	-0.048584	0.153564	0.272418	-0.572171	-0.0478602	-0.772087	9.64894	-1.28754	4.41257	-0.00601076	0.0137154	-0.047401	-1.04761	-0.114502	0.102051	0.038281	-0.275868	0.00977323	-0.960383	5.39994	-0.530091	8.92374	0.0596546	0.03249	-0.0414431	-0.832275	0.0302734	-0.608398	0.18858	-0.650672	-0.107956	-0.727605	9.60321	-0.861505	1.74135	-0.0461569	0.00703187	0.00964365	-1.05762	0.317139	0.35376	0.115887	-0.755211	-0.632448	0.127423	-0.432034	-2.93084	-8.68143	0.00768101	0.00704056	-0.0248103	0.57959	0.35498	1.04932	-0.117927	-0.665324	0.0597813	-0.734754	9.83268	0.774511	1.34322	0.0204209	-0.0148496	0.0150879	-1.03442	-0.203613	0.311768	0.130921	-0.973188	-0.179586	0.0592744	-0.691894	-2.52688	-9.39704	0.0108374	0.0149874	-0.0184362	0.451416	0.233643	0.922363	
44	0.163705	0.724954	0.234544	-0.626603	-9.56659	-0.24405	-0.837644	0.00949298	-0.061467	-0.00187326	1.10425	0.233643	-0.152344	0.0874135	0.167243	0.0470824	-0.980904	-3.27027	-0.649225	9.59997	-0.00944942	-0.0206535	-0.00265318	0.103271	0.0324707	-0.966309	0.380364	-0.485088	-0.365822	-0.697271	9.56537	0.911723	2.76096	0.0497263	0.00237986	0.0151401	-1.09375	0.187256	-0.0727539	0.185262	-0.571194	-0.317652	-0.733834	9.43868	2.30745	1.21418	0.0184802	-0.00564616	-0.0267442	-1.04736	0.0634766	0.173096	-0.387486	-0.438728	0.602887	-0.542125	9.50103	-2.72899	-1.09653	0.0235464	0.00287344	-0.0206079	-1.03735	-0.0463867	0.153564	0.271362	-0.572311	-0.0484321	-0.77232	9.93056	-1.24451	4.33541	-0.0368306	0.00218181	-0.0443919	-1.04541	-0.114502	0.0998535	0.0385393	-0.276804	0.00849724	-0.960116	5.45052	-0.258324	8.89633	0.0428194	-0.0547942	-0.0112018	-0.834473	0.0324707	-0.610596	0.18877	-0.651083	-0.108837	-0.727057	9.92799	-0.705501	1.72034	0.0382619	-0.0152686	-0.0307123	-1.06396	0.314941	0.349121	0.115475	-0.755251	-0.6325	0.127295	-0.431793	-2.92515	-8.74023	-0.000256476	-0.00934222	-0.0194154	0.579834	0.348145	1.04932	-0.119025	-0.66531	0.060475	-0.734532	9.66459	0.630899	1.34232	-0.0726402	0.00546365	-0.0237848	-1.03223	-0.203613	0.307129	0.130921	-0.973188	-0.179586	0.0592744	-0.691894	-2.52688	-9.39704	0.0108374	0.0149874	-0.0184362	0.451416	0.233643	0.922363	
45	0.165089	0.724425	0.233475	-0.62725	-9.36307	-0.47899	-0.584921	-0.058012	-0.00633472	0.0528259	1.10034	0.225098	-0.162842	0.0878502	0.16645	0.0466194	-0.981022	-3.13805	-0.527688	9.48218	-0.00440409	-0.0157116	7.99107e-05	0.105469	0.034668	-0.973389	0.380925	-0.485457	-0.365957	-0.696637	9.50657	1.4276	2.79247	0.013301	-0.0220668	0.0203627	-1.09375	0.187256	-0.0705566	0.184537	-0.571224	-0.317775	-0.73394	9.31223	2.70507	1.53089	-0.0205762	-0.00741096	-0.024493	-1.04956	0.0632324	0.179688	-0.388001	-0.43912	0.602211	-0.542191	9.21955	-3.01059	-1.02851	0.0385713	0.0307074	-0.0516623	-1.0415	-0.0507812	0.151367	0.271903	-0.571746	-0.049361	-0.772489	9.58947	-0.830622	4.5062	0.0391793	0.0210988	-0.0201072	-1.04761	-0.116699	0.108643	0.0388471	-0.277928	0.00795629	-0.959783	5.54335	-0.293993	8.92329	0.0619617	-0.0180621	-0.010147	-0.832031	0.0258789	-0.599854	0.188717	-0.650867	-0.10883	-0.727265	9.90435	-0.976865	1.65365	0.0280971	0.0287428	-0.0146052	-1.05957	0.317139	0.358398	0.115211	-0.755274	-0.632503	0.12739	-0.423094	-2.91341	-8.69385	0.00117944	-0.0173521	-0.0184082	0.579346	0.359375	1.05151	-0.119295	-0.665492	0.0595724	-0.734398	10.0451	0.730709	1.22997	0.0712531	0.00632906	-0.0240426	-1.03223	-0.203613	0.311768	0.130477	-0.973221	-0.1797	0.0593599	-0.740631	-2.51309	-9.41929	-0.0141868	0.00397961	-0.00858455	0.446777	0.23584	0.922119	
46	0.166686	0.724245	0.232108	-0.627544	-9.46343	-0.413051	-0.691597	-0.041299	-0.0255507	0.0525866	1.0979	0.227051	-0.160889	0.0883248	0.16632	0.0463867	-0.981012	-3.08296	-0.478399	9.59415	-0.0117212	0.0300902	0.00256206	0.10791	0.0302734	-0.963867	0.380613	-0.485387	-0.366223	-0.696717	9.54944	1.07809	2.80502	0.0360593	0.00510081	-0.0210235	-1.0918	0.189453	-0.0705566	0.18486	-0.571314	-0.318075	-0.733659	9.39709	2.54072	1.39715	0.0282244	0.00217787	0.0110767	-1.05176	0.0654297	0.17749	-0.388386	-0.439088	0.60209	-0.542075	9.2766	-2.90403	-1.16245	-0.00820543	0.027362	-0.0381482	-1.03711	-0.0529785	0.151367	0.271328	-0.571724	-0.049608	-0.772691	9.77531	-1.48061	4.37155	-0.0424554	0.00414451	-0.0302589	-1.04736	-0.12085	0.108643	0.0393087	-0.278935	0.00696924	-0.95948	5.67696	-0.0823202	8.8455	0.053661	-0.0335705	-0.00503794	-0.833984	0.0258789	-0.597656	0.188358	-0.651099	-0.109346	-0.727073	10.0394	-0.522676	1.77405	-0.0172244	-0.0144612	-0.0365906	-1.05981	0.317139	0.344238	0.115041	-0.755106	-0.632752	0.127303	-0.437488	-2.91591	-8.67972	-0.0015321	-0.00265652	-0.0217926	0.577148	0.357178	1.04932	-0.119467	-0.665658	0.0591582	-0.734253	9.77663	0.807285	1.4795	-0.046499	-0.000948841	-0.0123684	-1.03418	-0.205811	0.314209	0.130687	-0.973172	-0.17986	0.0592231	-0.721778	-2.53146	-9.44748	0.0174226	0.0193001	-0.0186364	0.451416	0.233643	0.924561	
47	0.167463	0.724256	0.231603	-0.627511	-9.46083	-0.415892	-0.851238	-0.0496512	0.00160366	0.0512145	1.0979	0.227051	-0.156494	0.0885447	0.166631	0.0463857	-0.98094	-3.34175	-0.523796	9.50479	-0.0115612	0.0398813	0.000532405	0.101074	0.034668	-0.96875	0.380845	-0.48531	-0.366354	-0.696574	9.62183	1.05343	2.85364	0.033412	0.00140203	0.00946131	-1.0918	0.189209	-0.0637207	0.18474	-0.571288	-0.318052	-0.73372	9.51723	2.44723	1.2338	-0.00379633	0.00663147	-0.00802532	-1.04492	0.0634766	0.17749	-0.388386	-0.439088	0.60209	-0.542075	9.2766	-2.90403	-1.16245	-0.00820543	0.027362	-0.0381482	-1.03711	-0.0529785	0.151367	0.271209	-0.57171	-0.0499594	-0.772721	9.71607	-1.18165	4.47066	0.00735159	0.00154754	-0.0328031	-1.03882	-0.116455	0.104248	0.039507	-0.279642	0.00661848	-0.959268	5.3631	-0.101206	8.95191	0.0449895	-0.0470983	-0.00693975	-0.833984	0.0236816	-0.597656	0.188358	-0.651099	-0.109346	-0.727073	10.0394	-0.522676	1.77405	-0.0172244	-0.0144612	-0.0365906	-1.05981	0.317139	0.344238	0.115041	-0.755106	-0.632752	0.127303	-0.437488	-2.91591	-8.67972	-0.0015321	-0.00265652	-0.0217926	0.577148	0.357178	1.04932	-0.120076	-0.665711	0.0596109	-0.734069	9.77315	0.671123	1.36252	-0.0540036	-0.00461505	-0.00900249	-1.03198	-0.205811	0.307373	0.130687	-0.973172	-0.17986	0.0592231	-0.721778	-2.53146	-9.44748	0.0174226	0.0193001	-0.0186364	0.451416	0.233643	0.924561	
48	0.169272	0.724958	0.232098	-0.62603	-9.64869	-0.588448	-0.795099	-0.0757865	0.0564519	0.00085405	1.09985	0.231445	-0.152344	0.0886612	0.166651	0.0464212	-0.980924	-3.20139	-0.46555	9.65834	-0.0195581	0.0268071	-0.0169769	0.105469	0.0324707	-0.96875	0.380987	-0.485552	-0.365934	-0.696549	9.48436	1.42423	2.85562	-0.0287923	-0.00302328	0.00846862	-1.09399	0.193848	-0.0754395	0.184671	-0.571314	-0.318066	-0.733711	9.27508	2.74741	1.56583	0.00493395	-0.00143854	0.000977932	-1.04736	0.0634766	0.17749	-0.388653	-0.439151	0.601887	-0.542058	9.38923	-2.8256	-0.954812	-0.0110198	0.0158949	-0.0150604	-1.03735	-0.0463867	0.14917	0.270846	-0.571743	-0.0502417	-0.772806	9.74767	-0.905028	4.39042	-0.0264753	0.00484684	-0.0236396	-1.04102	-0.116455	0.110596	0.0396675	-0.280356	0.00587542	-0.959058	5.52085	-0.235648	8.81746	0.0190548	-0.0108263	-0.0159274	-0.834229	0.0280762	-0.595703	0.187788	-0.651068	-0.109265	-0.72726	9.97231	-0.760324	1.76429	0.0316681	0.0174442	-0.0244732	-1.05518	0.314941	0.355957	0.115056	-0.754819	-0.633194	0.126792	-0.441381	-2.90942	-8.72772	-0.00473943	0.009014	-0.0220522	0.577148	0.359375	1.05371	-0.119792	-0.665907	0.0589496	-0.733991	9.79676	0.872648	1.43854	0.0381273	-0.000448956	0.000396234	-1.03418	-0.205811	0.30957	0.130836	-0.973077	-0.180413	0.0587667	-0.693775	-2.53226	-9.4299	0.0127276	0.00777658	-0.0113054	0.451416	0.233643	0.919922	
49	0.16891	0.725202	0.232695	-0.625623	-9.47405	-0.688184	-0.802363	-0.0111063	0.0630267	-0.0368096	1.10229	0.227051	-0.147949	0.0882143	0.167353	0.0463912	-0.980846	-3.26284	-0.427937	9.55011	0.000603633	0.048305	-0.0384332	0.103516	0.0302734	-0.968506	0.381371	-0.485353	-0.365831	-0.696532	9.51338	1.38272	2.76236	0.0283851	0.0124011	0.00661404	-1.0918	0.187256	-0.0751953	0.184169	-0.571354	-0.318247	-0.733727	9.32659	2.42316	1.35457	-0.00872483	-0.00650783	-0.0150887	-1.05127	0.0546875	0.175293	-0.38931	-0.438917	0.60222	-0.541406	9.35473	-3.16691	-1.23578	-0.0244605	0.00694899	-0.0251601	-1.03271	-0.0507812	0.14917	0.271143	-0.571537	-0.0507343	-0.772822	9.8319	-1.11062	4.44978	0.0306262	0.00885311	-0.0189588	-1.04102	-0.116699	0.102051	0.03964	-0.280872	0.00634687	-0.958905	5.721	-0.0931159	9.00377	-0.0227263	-0.0287311	-0.00686418	-0.836182	0.0258789	-0.597656	0.188193	-0.650941	-0.110028	-0.727154	10.0764	-0.824741	1.59629	0.0280267	0.0121784	-0.024337	-1.06152	0.312744	0.35376	0.11514	-0.754629	-0.633396	0.126837	-0.448889	-2.92215	-8.68302	0.0308662	-0.00130543	-0.0228901	0.574951	0.357178	1.05151	-0.119584	-0.666163	0.0584061	-0.733836	9.78693	0.925146	1.27923	0.0379823	-0.00582425	-0.00574346	-1.03223	-0.203613	0.307129	0.131329	-0.972973	-0.180574	0.0589093	-0.70294	-2.53545	-9.43199	0.0200255	0.00567169	-0.00992429	0.451416	0.23584	0.926758	
50	0.168358	0.725706	0.232667	-0.625198	-9.62038	-0.711181	-0.838177	0.0195971	0.0785322	-0.0236368	1.10449	0.227051	-0.141357	0.0878862	0.167566	0.0465541	-0.980831	-3.33898	-0.500608	9.52021	-0.0178364	0.0363699	-0.0446626	0.105469	0.0324707	-0.973389	0.380502	-0.486185	-0.364595	-0.697075	9.65664	0.979218	2.80745	-0.0339159	-0.00421031	0.0137699	-1.09375	0.185059	-0.0705566	0.184219	-0.572047	-0.317377	-0.733552	9.51749	2.48255	1.53416	-0.0190671	-0.00777795	0.0316983	-1.04932	0.059082	0.17749	-0.389154	-0.438618	0.602765	-0.541155	9.33984	-2.92058	-1.09265	-0.0170627	-0.00617202	0.00821378	-1.03296	-0.048584	0.153564	0.270739	-0.571742	-0.050607	-0.77282	9.79977	-1.248	4.38219	-0.0252953	0.00446606	-0.011653	-1.04517	-0.123047	0.108643	0.0393338	-0.281987	0.00576033	-0.958594	5.4398	-0.21255	8.68999	0.0259589	-0.0103377	-0.0226521	-0.836426	0.0280762	-0.593506	0.1888	-0.650883	-0.110228	-0.727019	9.72912	-0.473426	1.72986	0.00499826	0.00214691	-0.000328578	-1.06592	0.312744	0.356201	0.115285	-0.754444	-0.633639	0.126593	-0.450463	-2.89843	-8.71357	0.0041708	0.0101626	-0.0238967	0.57959	0.354736	1.05811	-0.119755	-0.66597	0.0589606	-0.733939	9.73022	0.757103	1.34384	-0.0233485	0.0111194	0.0275226	-1.03198	-0.208008	0.305176	0.131329	-0.972973	-0.180574	0.0589093	-0.70294	-2.53545	-9.43199	0.0200255	0.00567169	-0.00992429	0.451416	0.23584	0.926758	
51	0.166452	0.727103	0.231634	-0.624468	-9.55297	-0.456045	-0.695135	0.0882936	0.0959657	0.00124829	1.0957	0.229248	-0.145752	0.0874534	0.167412	0.0469014	-0.98088	-3.12085	-0.606639	9.48593	-0.0158734	0.0112424	-0.0376945	0.105469	0.034668	-0.96875	0.380854	-0.486026	-0.363971	-0.697319	9.57648	1.19776	2.82664	-0.00273625	0.0269972	0.00925733	-1.09399	0.19165	-0.0683594	0.18441	-0.572076	-0.317201	-0.733557	9.40807	2.62078	1.34434	-0.00347894	0.00987649	0.00802293	-1.05151	0.0588379	0.179688	-0.389237	-0.438648	0.60306	-0.54074	9.31364	-2.9064	-1.07117	-0.0182161	-0.00547256	-0.0280685	-1.03735	-0.048584	0.151367	0.271163	-0.571556	-0.050649	-0.772806	9.74374	-1.03137	4.42126	-0.00431024	0.0122216	0.00404548	-1.04541	-0.116699	0.106445	0.0391414	-0.283007	0.00594544	-0.9583	5.67559	-0.221077	8.83561	0.00872322	-0.0328954	-0.0213079	-0.840576	0.0280762	-0.593506	0.188366	-0.650813	-0.10935	-0.727326	9.90504	-1.02906	1.58887	-0.00630496	0.0309893	-0.00340746	-1.06201	0.321533	0.353516	0.11526	-0.754469	-0.633621	0.126553	-0.415749	-2.90996	-8.70166	0.00917002	0.00275108	-0.0215199	0.577148	0.359375	1.04907	-0.120279	-0.666168	0.059665	-0.733616	9.80495	0.722426	1.28803	-0.0336152	-0.0209062	-0.00414581	-1.03442	-0.203613	0.311768	0.131849	-0.972885	-0.180593	0.0591272	-0.718287	-2.54986	-9.40579	0.0317045	0.00586803	-0.00445861	0.447021	0.231445	0.922363	
52	0.165679	0.728621	0.22971	-0.623615	-9.47014	-0.2825	-0.702602	0.0399909	0.0676035	0.0536766	1.10254	0.222656	-0.136963	0.0871117	0.167875	0.047615	-0.980797	-3.09044	-0.677343	9.55145	-0.0274673	0.0548732	-0.0297544	0.105225	0.0390625	-0.964111	0.380305	-0.486414	-0.363237	-0.697731	9.46189	1.01664	2.85317	-0.0294378	-0.000766539	0.00181189	-1.09595	0.187256	-0.0683594	0.184437	-0.572221	-0.316769	-0.733624	9.31519	2.48265	1.29224	-0.0147896	0.00161863	0.00354355	-1.04907	0.0566406	0.186279	-0.389125	-0.4383	0.603638	-0.540459	9.32653	-2.94857	-1.22473	-0.0129179	-0.00115662	0.00761767	-1.04175	-0.048584	0.153564	0.27126	-0.571413	-0.0505305	-0.772885	9.77412	-1.2099	4.45412	-0.00585939	0.0113253	0.000285198	-1.04321	-0.114502	0.106201	0.0393675	-0.284149	0.00454224	-0.957961	5.76317	-0.374467	8.94001	0.0929473	-0.0457414	-0.0249813	-0.842529	0.0236816	-0.589111	0.189939	-0.650115	-0.110834	-0.727317	9.93413	-0.612331	1.79269	0.10652	0.020792	-0.0175683	-1.06396	0.319336	0.35376	0.115381	-0.75432	-0.633793	0.126475	-0.44484	-2.87918	-8.74306	0.00959853	0.00466566	-0.0231527	0.57959	0.357178	1.04468	-0.119406	-0.666156	0.0589613	-0.733827	9.86905	0.775491	1.34375	0.0701545	0.0192463	0.0155716	-1.02979	-0.203613	0.313965	0.132328	-0.972789	-0.180723	0.0592526	-0.716675	-2.56039	-9.41191	0.0185209	0.00477898	-0.00979071	0.449219	0.233643	0.922363	
53	0.165808	0.729753	0.228713	-0.622622	-9.57226	-0.423975	-0.823394	0.000353183	0.0560647	0.0244958	1.10474	0.220459	-0.134766	0.0873053	0.168381	0.0477553	-0.980686	-3.21526	-0.748015	9.49732	-0.0119263	0.0274409	-0.00376795	0.109863	0.0324707	-0.970947	0.380147	-0.486084	-0.363295	-0.698016	9.61624	1.06685	2.62852	0.0214292	0.00877941	-0.0327196	-1.0874	0.187012	-0.0683594	0.184756	-0.57171	-0.317037	-0.733826	9.52032	2.67766	1.50749	0.0464187	0.0422582	-0.00216631	-1.04907	0.0566406	0.181885	-0.388995	-0.437959	0.604155	-0.540251	9.35525	-2.99041	-1.18309	-0.0166772	-0.00325116	0.00890783	-1.03516	-0.048584	0.156006	0.271675	-0.571144	-0.0502245	-0.772958	9.78847	-1.11546	4.34018	0.0109327	0.0258343	0.00839835	-1.04761	-0.114502	0.108398	0.0398315	-0.283073	0.00338685	-0.958265	5.65573	-0.307354	8.68227	0.050543	0.0744398	-0.00290659	-0.844727	0.0236816	-0.589111	0.189396	-0.649816	-0.110335	-0.727801	9.84238	-0.875483	1.67196	-0.0447478	0.0407029	-0.025903	-1.06177	0.317139	0.349121	0.115488	-0.75433	-0.633754	0.126508	-0.443024	-2.92188	-8.68951	0.0142247	0.00139498	-0.0200021	0.584229	0.357178	1.05151	-0.119248	-0.665652	0.0587813	-0.734324	9.88872	0.771727	1.239	0.00347641	0.0433153	0.0078401	-1.03223	-0.203613	0.30957	0.132491	-0.972764	-0.180733	0.0592627	-0.703559	-2.56283	-9.38213	0.0163834	0.00881379	-0.00531354	0.451172	0.238037	0.922119	
54	0.163977	0.730683	0.229216	-0.621831	-9.40208	-0.616778	-0.885212	0.03931	0.0747229	-0.0512856	1.10474	0.220459	-0.134766	0.0882918	0.167977	0.048204	-0.980645	-3.18837	-0.484894	9.40514	-0.0254643	-0.0134636	0.0277715	0.107422	0.0368652	-0.966553	0.380607	-0.484445	-0.364834	-0.698103	9.50251	0.989959	2.94107	0.0883775	0.0444379	-0.0371451	-1.09375	0.185059	-0.0683594	0.185322	-0.571091	-0.317471	-0.733977	9.56608	2.55868	1.47371	0.0616402	0.0566345	-0.00430263	-1.04932	0.0612793	0.17749	-0.388265	-0.438559	0.603694	-0.540805	9.27137	-2.9323	-1.17317	0.031842	-0.00924349	-0.0191363	-1.03735	-0.048584	0.151367	0.272495	-0.570723	-0.0508035	-0.772943	9.70748	-1.1552	4.3518	0.0313061	0.0122662	0.00213601	-1.04565	-0.112305	0.106201	0.0399494	-0.281393	0.00414209	-0.958752	5.4931	-0.31787	8.66329	-0.0337671	0.155944	0.00989501	-0.838135	0.0214844	-0.591064	0.189289	-0.649527	-0.110178	-0.72811	9.90083	-0.665792	1.72418	-0.00219015	0.0223631	-0.019758	-1.05957	0.314941	0.34668	0.115308	-0.75438	-0.633746	0.126417	-0.450609	-2.91393	-8.69995	-0.00341714	-0.00210822	-0.0210302	0.575195	0.350342	1.04272	-0.119253	-0.665317	0.0586988	-0.734634	9.92501	0.769956	1.29277	0.00696607	0.0463008	0.0039858	-1.03198	-0.205811	0.30957	0.132253	-0.972791	-0.180853	0.058981	-0.71735	-2.53643	-9.38323	0.00309836	0.0177505	-0.00785724	0.453857	0.231445	0.922363	
55	0.162368	0.73148	0.229635	-0.621162	-9.4187	-0.552452	-0.814702	0.0690392	0.131161	-0.0916917	1.10449	0.229248	-0.13501	0.0889225	0.167785	0.048078	-0.980627	-3.05763	-0.548837	9.48724	-0.0100935	-0.00147636	0.0327449	0.107666	0.0368652	-0.964111	0.381091	-0.483607	-0.365177	-0.69824	9.43215	1.20586	2.83618	0.0706915	0.0564872	-0.0147124	-1.09375	0.180664	-0.0727539	0.186424	-0.569533	-0.318218	-0.734585	9.28549	2.34376	1.33741	0.0554638	0.0737103	-0.00947345	-1.05396	0.0634766	0.173096	-0.387535	-0.439133	0.6033	-0.541302	9.29309	-2.89108	-1.12672	0.0900685	-0.0228784	-0.0105146	-1.03296	-0.0463867	0.158203	0.273162	-0.570422	-0.051173	-0.772905	9.76827	-1.25954	4.56175	0.0475211	0.0186957	0.015724	-1.04321	-0.116455	0.108398	0.0407308	-0.275543	0.00483339	-0.960413	5.87728	-0.158228	9.05265	0.0391134	0.340491	0.0224559	-0.834229	0.0258789	-0.608398	0.188831	-0.649329	-0.110133	-0.728413	10.1209	-0.884903	1.77893	-0.0200743	0.0361978	-0.0452778	-1.05957	0.314941	0.349121	0.114932	-0.754428	-0.633823	0.126085	-0.416882	-2.90465	-8.71964	-0.0131413	0.00782344	-0.0193833	0.579834	0.352539	1.05151	-0.119681	-0.664846	0.05911	-0.734957	9.91979	0.461869	1.37494	-0.0154431	0.0257728	0.00289309	-1.03442	-0.201416	0.307129	0.132171	-0.972784	-0.180999	0.0588391	-0.676812	-2.56359	-9.43864	-0.00564945	0.0157336	-0.0164402	0.451416	0.231445	0.926758	
56	0.159916	0.733074	0.230521	-0.619589	-9.4777	-0.547317	-1.14291	0.0147293	0.111458	-0.0702919	1.10645	0.231201	-0.12207	0.0898328	0.168511	0.0480696	-0.98042	-3.15934	-0.59309	9.66958	-0.0150134	0.054287	0.0147542	0.10791	0.0302734	-0.966309	0.381823	-0.482099	-0.36603	-0.698437	9.52752	1.3917	2.80677	0.0659802	0.037207	-0.0341138	-1.0918	0.187256	-0.0751953	0.186832	-0.567945	-0.318831	-0.735445	9.33623	3.08285	1.62733	0.0175974	0.072017	-0.0364755	-1.05615	0.0612793	0.166504	-0.386795	-0.438769	0.603734	-0.541642	9.38298	-2.93566	-1.17152	0.0211852	0.00206798	0.0307317	-1.03955	-0.0441895	0.156006	0.274284	-0.569811	-0.0512689	-0.772952	9.84114	-1.04796	4.41882	-0.0170429	0.0317593	0.0216902	-1.04565	-0.110107	0.106201	0.0419295	-0.271527	0.00344059	-0.961511	5.59971	0.0619347	8.50715	0.0909756	0.106277	0.0110655	-0.82373	0.0324707	-0.612793	0.189143	-0.648071	-0.111369	-0.729264	9.88576	-0.629862	1.60378	0.0670503	0.073989	-0.0487704	-1.06177	0.314941	0.34668	0.114705	-0.754483	-0.633821	0.125972	-0.44325	-2.90276	-8.77616	-0.00746345	-0.00263604	-0.0192709	0.579834	0.348145	1.05151	-0.118974	-0.664089	0.0575749	-0.735878	9.77963	0.95475	1.37604	0.0707739	0.0683017	-0.00967266	-1.03662	-0.201416	0.304932	0.132399	-0.97269	-0.181318	0.0589006	-0.736097	-2.55295	-9.41105	0.0261164	0.00413052	-0.0185319	0.451416	0.233643	0.922363	
57	0.158069	0.735119	0.231163	-0.617396	-9.50431	-0.522213	-0.952934	0.017307	0.170937	-0.0223651	1.11035	0.242188	-0.113525	0.0905327	0.168164	0.0477397	-0.980431	-3.18696	-0.625799	9.40901	-0.00302819	-0.0122505	0.0112438	0.109619	0.0412598	-0.971436	0.380473	-0.480891	-0.366321	-0.699852	9.47499	1.11937	2.8862	-0.0473298	0.0304028	-0.0898988	-1.09375	0.17627	-0.0725098	0.187535	-0.566826	-0.318653	-0.736206	9.30577	2.2262	1.19935	0.0169549	0.060102	0.0255945	-1.05371	0.0612793	0.164307	-0.385662	-0.438711	0.604082	-0.54211	9.20223	-2.9637	-1.10653	0.053712	-0.0258708	0.0185065	-1.03784	-0.0375977	0.153564	0.275521	-0.569027	-0.0513364	-0.773085	9.58621	-1.32411	4.20531	0.0429567	0.0346822	0.0346344	-1.04126	-0.112305	0.102051	0.0425473	-0.266832	0.00391925	-0.962795	5.40883	-0.306042	9.04833	0.0492518	0.239746	0.0077783	-0.816895	0.0280762	-0.621094	0.188637	-0.647081	-0.111572	-0.730242	10.142	-0.713866	1.61966	0.0184301	0.0545614	-0.042451	-1.07031	0.314941	0.34668	0.114506	-0.754325	-0.634007	0.126161	-0.44632	-2.9014	-8.65183	-0.0154355	0.0122106	-0.018484	0.574951	0.357178	1.04688	-0.119105	-0.66358	0.0575309	-0.736319	9.98617	0.964685	1.44419	0.0115678	0.0322079	0.00917242	-1.03687	-0.197021	0.304688	0.132579	-0.972613	-0.181699	0.0585924	-0.666419	-2.57302	-9.4156	0.00292815	0.0259087	-0.0205708	0.44458	0.23584	0.924561	
58	0.157668	0.735866	0.23076	-0.616759	-9.78427	-0.438034	-1.09409	-0.0095598	-0.00428057	0.00647865	1.10181	0.235352	-0.106934	0.0908151	0.169249	0.047442	-0.980233	-3.33178	-0.605783	9.56207	0.0141682	0.0876467	-0.00815328	0.114014	0.0390625	-0.966553	0.381698	-0.479442	-0.367056	-0.699794	9.65853	1.28144	3.12982	0.121915	0.052188	0.0298563	-1.09375	0.174316	-0.0839844	0.187378	-0.565707	-0.318664	-0.737101	9.52954	2.5586	1.77201	-0.00553152	0.0578968	-0.0524555	-1.06274	0.0612793	0.164307	-0.384997	-0.438182	0.604795	-0.542214	9.30429	-3.16053	-1.13498	-0.0589713	0.0018987	0.0302324	-1.0332	-0.0397949	0.156006	0.276752	-0.568325	-0.0511109	-0.773177	9.77412	-1.13767	4.63014	-0.0100004	0.0320365	0.0283989	-1.04565	-0.110107	0.108398	0.0426984	-0.262623	0.00428578	-0.963944	5.28256	0.104628	9.23551	-0.0644403	0.187916	-0.0109705	-0.810547	0.0283203	-0.627441	0.188014	-0.646723	-0.110853	-0.73083	9.92222	-0.559114	1.856	-0.0548062	0.04185	-0.0147365	-1.06812	0.312744	0.34668	0.11463	-0.754384	-0.63404	0.125534	-0.426657	-2.8754	-8.80548	0.0113026	0.0174121	-0.0251132	0.57959	0.35498	1.04492	-0.119105	-0.662714	0.0580396	-0.737059	9.75574	0.669546	1.48724	-0.0271505	0.0487714	0.0174224	-1.03442	-0.203613	0.302734	0.133348	-0.972495	-0.18191	0.0581355	-0.691765	-2.56036	-9.39992	0.0406505	0.0314727	-0.0174833	0.451172	0.238037	0.924561	
59	0.15883	0.735325	0.230927	-0.617043	-9.43216	-0.587443	-1.4232	-0.0582264	0.0082267	0.00686801	1.10376	0.237793	-0.106934	0.0906746	0.170225	0.0474654	-0.980076	-3.56628	-0.511412	9.44205	-0.0194204	0.0427397	-0.0222519	0.11377	0.0412598	-0.971436	0.381243	-0.478559	-0.366318	-0.701033	9.61102	1.50284	2.92853	-0.0839553	0.0443854	-0.0549773	-1.09375	0.178467	-0.0817871	0.187651	-0.564904	-0.318177	-0.737858	9.4626	2.93314	1.90232	-0.00975065	0.0505438	0.00299796	-1.05151	0.0612793	0.157715	-0.384186	-0.43709	0.605726	-0.542632	9.46779	-2.96255	-1.18218	0.0290451	0.00881177	0.0547942	-1.0376	-0.0375977	0.162842	0.276804	-0.567855	-0.0507018	-0.773531	9.96051	-1.28008	4.3338	-0.0368041	0.0371581	-0.00320999	-1.05005	-0.105713	0.0974121	0.0426884	-0.258622	0.00500511	-0.965022	4.96668	-0.337312	9.05414	0.054578	0.198159	-0.00727878	-0.810547	0.026123	-0.635986	0.187924	-0.646071	-0.110906	-0.731421	9.82964	-0.819812	1.86217	0.0905781	0.0493242	-0.0366687	-1.06812	0.312988	0.332764	0.114778	-0.754436	-0.634007	0.125248	-0.435554	-2.88367	-8.78895	-0.0106752	0.016577	-0.0204253	0.57959	0.357178	1.05591	-0.117874	-0.662573	0.0571605	-0.737452	9.85036	0.638108	1.5155	0.0502989	0.021502	0.0271744	-1.03687	-0.199219	0.293457	0.135915	-0.972051	-0.182482	0.0578338	-0.640952	-2.62134	-9.47315	0.117951	0.0260239	-0.0403225	0.44873	0.242432	0.928955	
60	0.158517	0.735648	0.231692	-0.616452	-9.57079	-0.668225	-1.27999	0.000886311	0.046719	-0.03145	1.09937	0.237549	-0.10498	0.0909347	0.169817	0.047177	-0.980136	-3.4421	-0.658066	9.55577	0.00967568	-0.00505029	0.00266863	0.109863	0.034668	-0.966309	0.381926	-0.477275	-0.366644	-0.701365	9.40443	1.5347	2.69275	0.0353819	0.0356422	-0.00737363	-1.09375	0.174316	-0.088623	0.187864	-0.563897	-0.318035	-0.738634	9.20955	2.24966	1.09415	0.0139872	0.0492665	0.00788642	-1.05371	0.0612793	0.151123	-0.384443	-0.436735	0.60633	-0.542061	9.26175	-3.63576	-1.24133	0.00817806	0.000528575	-0.0297523	-1.03784	-0.0354004	0.156006	0.277948	-0.56713	-0.0500771	-0.773693	9.68931	-1.16654	4.49986	0.0196797	0.0327412	0.040038	-1.04346	-0.110107	0.104004	0.0431885	-0.256447	0.00426831	-0.965583	5.0807	-0.156443	9.36808	0.0717395	0.0590639	-0.00239111	-0.806396	0.0305176	-0.635986	0.18826	-0.645163	-0.111623	-0.732027	10.155	-0.825169	1.85924	-0.00141052	0.0538744	-0.0234697	-1.07251	0.310791	0.337402	0.115026	-0.754381	-0.633935	0.125718	-0.428248	-2.91837	-8.62522	0.0211908	-0.00203537	-0.0192088	0.577393	0.350342	1.05371	-0.117105	-0.66222	0.056298	-0.737957	9.8641	0.976462	1.47714	0.0762402	0.0322331	-0.0187869	-1.03442	-0.201416	0.302734	0.136333	-0.971949	-0.182666	0.0579801	-0.65884	-2.6584	-9.26313	0.0381982	-0.000309545	-0.0197698	0.450928	0.242432	0.922119	
61	0.15769	0.735647	0.231434	-0.616762	-9.5928	-0.521198	-1.37661	0.0393634	-0.01126	-0.0177825	1.10376	0.237793	-0.106934	0.0914724	0.170572	0.0469966	-0.979964	-3.53376	-0.566931	9.54658	-0.00988169	0.0681483	0.00849189	0.109863	0.0324707	-0.966309	0.382733	-0.476795	-0.367586	-0.700759	9.62545	1.47182	3.22864	0.113233	0.00952305	0.0170592	-1.09375	0.180664	-0.0864258	0.189006	-0.563731	-0.317908	-0.738525	9.4499	2.54024	1.8236	0.0264821	0.0145691	0.0300215	-1.05835	0.0656738	0.155273	-0.384364	-0.436751	0.606555	-0.541852	9.29605	-3.30123	-1.36642	-0.0452767	-0.000644595	-4.25612e-05	-1.03564	-0.0375977	0.158203	0.278462	-0.567221	-0.0508207	-0.773393	9.83967	-1.50239	4.55329	0.00386656	-0.0174388	-0.0224286	-1.0459	-0.105713	0.0996094	0.0435349	-0.255048	0.00443268	-0.965938	5.05108	-0.259526	9.53092	0.0190038	0.0551486	-0.00125601	-0.806396	0.0327148	-0.640381	0.188268	-0.64536	-0.111045	-0.731939	9.95776	-0.498095	1.97838	-0.000258843	-0.0249646	-0.000542042	-1.07031	0.310791	0.339844	0.11534	-0.754415	-0.633959	0.125103	-0.419338	-2.91145	-8.7505	-0.00357501	0.0322096	-0.0277347	0.577148	0.357178	1.04932	-0.117321	-0.662079	0.0573058	-0.737972	9.89756	0.706145	1.60015	-0.0340679	0.00513481	0.0227323	-1.03906	-0.199219	0.298096	0.13667	-0.971895	-0.182831	0.0575654	-0.640941	-2.63201	-9.44742	-0.00392986	0.0103373	-0.0120575	0.446533	0.242432	0.926758	
62	0.157485	0.735302	0.231065	-0.617364	-9.3704	-0.415613	-1.58001	-0.00316528	0.010526	-0.0016243	1.09937	0.241943	-0.109375	0.0918549	0.171219	0.046951	-0.979817	-3.7668	-0.526633	9.39551	-0.0150564	0.0253802	-0.00363319	0.120605	0.034668	-0.971191	0.384059	-0.476073	-0.367829	-0.700396	9.64747	1.91163	3.10348	0.0510955	0.0341711	0.0163396	-1.0874	0.178467	-0.0932617	0.189384	-0.563581	-0.318108	-0.738456	9.53933	2.62385	2.09528	0.0368731	0.0173822	0.0102056	-1.05396	0.0634766	0.153076	-0.383871	-0.437079	0.606978	-0.541464	9.20662	-3.26352	-1.26637	0.0229364	-0.0286626	-0.0221559	-1.03125	-0.0354004	0.162842	0.277762	-0.568026	-0.0515508	-0.773005	9.67197	-1.23232	4.3867	-0.0144123	-0.0397612	-0.0523301	-1.0481	-0.101318	0.101562	0.0439227	-0.253919	0.00451363	-0.966217	4.53665	-0.246743	8.98353	-0.00492797	0.0633857	0.00365469	-0.799805	0.0283203	-0.642334	0.188105	-0.646116	-0.110519	-0.731393	9.65248	-0.710075	1.97494	-0.0409285	-0.0077507	0.00835782	-1.06396	0.317139	0.342041	0.115359	-0.754438	-0.63396	0.124939	-0.396832	-2.89394	-8.74853	0.00495001	0.0133518	-0.0222143	0.572754	0.354736	1.04932	-0.11684	-0.66246	0.0569379	-0.737735	9.55414	0.669216	1.34501	0.0543433	-0.0247829	0.00928147	-1.03687	-0.194824	0.295654	0.136717	-0.97187	-0.182907	0.0576429	-0.665066	-2.61179	-9.3862	0.00803613	0.00116018	-0.00926563	0.439697	0.244629	0.924316	
63	0.157886	0.735723	0.231603	-0.616558	-9.64036	-0.599929	-1.36573	-0.0399396	0.0348331	0.000327151	1.10815	0.242188	-0.106934	0.0921993	0.169845	0.047179	-0.980013	-3.50126	-0.791028	9.40675	-0.0154392	-0.0547908	-0.00931467	0.114258	0.034668	-0.96875	0.384059	-0.476073	-0.367829	-0.700396	9.64747	1.91163	3.10348	0.0510955	0.0341711	0.0163396	-1.0874	0.178467	-0.0932617	0.190575	-0.564045	-0.317167	-0.738201	9.36922	2.76102	1.60629	0.0048859	0.0057841	0.0717845	-1.05176	0.0656738	0.155273	-0.383886	-0.437642	0.606679	-0.541333	9.38007	-3.01603	-1.14809	0.0265224	-0.00951916	-0.0589708	-1.02905	-0.0375977	0.162842	0.277709	-0.568204	-0.0523882	-0.772837	9.80465	-1.28737	4.4291	0.0333592	-0.0307093	-0.0437507	-1.0481	-0.105713	0.104004	0.0441145	-0.253475	0.00485128	-0.966323	4.65932	-0.276955	9.10212	-0.00454436	0.0505315	0.0063164	-0.803955	0.026123	-0.644531	0.188529	-0.646073	-0.11023	-0.731366	9.76757	-0.892657	1.88028	0.011159	0.0218908	0.024654	-1.05981	0.317383	0.3396	0.114947	-0.754548	-0.633927	0.124823	-0.41616	-2.89369	-8.76459	-0.00569885	-0.00935976	-0.0180136	0.57959	0.357178	1.05151	-0.117464	-0.66286	0.0572421	-0.737253	9.62259	0.660083	1.51191	-0.0587645	-0.0132936	-0.00160989	-1.03247	-0.197021	0.304688	0.137393	-0.971703	-0.182998	0.0585464	-0.676122	-2.66251	-9.37625	-0.00390607	-0.0305089	0.00317621	0.444336	0.242432	0.924316	
64	0.159077	0.735635	0.231556	-0.616375	-9.62533	-0.799178	-1.17718	-0.0403933	-0.00243471	0.0349884	1.1084	0.233398	-0.104736	0.092237	0.169066	0.0466251	-0.980171	-3.33514	-0.681977	9.66288	0.0274062	-0.0513276	-0.0116065	0.118408	0.034668	-0.96875	0.385163	-0.476564	-0.367313	-0.699727	9.37765	1.56447	2.88497	0.0283344	-0.028717	0.0570773	-1.0896	0.180664	-0.0932617	0.191287	-0.564792	-0.317408	-0.73734	9.19157	2.62296	1.35724	0.0388956	-0.0419669	0.0304166	-1.052	0.0678711	0.155273	-0.38501	-0.438422	0.606081	-0.540573	9.44449	-3.18786	-1.27448	-0.0175965	0.0183706	-0.0821071	-1.0354	-0.0397949	0.1604	0.277981	-0.568462	-0.0539456	-0.772442	9.92806	-1.2437	4.65114	0.0397208	-0.024923	-0.030596	-1.04175	-0.101318	0.105957	0.0441345	-0.252097	0.00511539	-0.966681	5.14341	-0.183819	9.22276	0.0243187	0.0508632	-0.0188635	-0.797607	0.026123	-0.644531	0.189158	-0.64649	-0.110535	-0.730789	10.0537	-0.690432	1.65702	-0.00665569	-0.0195615	-0.00167143	-1.06836	0.314941	0.342041	0.114783	-0.754494	-0.633941	0.125234	-0.423598	-2.9148	-8.68522	0.0244847	-0.0130908	-0.0196344	0.57959	0.357178	1.05151	-0.116549	-0.663689	0.0561024	-0.73674	9.88252	0.937246	1.3625	0.0864349	-0.0335179	-0.0133531	-1.03687	-0.199219	0.304932	0.137195	-0.971688	-0.183085	0.0589828	-0.67335	-2.6185	-9.41039	0.0102097	0.00255086	-0.0100864	0.448975	0.238037	0.919922	
65	0.159508	0.735319	0.231252	-0.616754	-9.61061	-0.842875	-1.22047	-0.00416458	-0.0364489	0.0233701	1.104	0.235596	-0.106934	0.0923357	0.16845	0.0459683	-0.980299	-3.3499	-0.527413	9.42804	-0.00292117	-0.00108922	-0.0101711	0.109863	0.034668	-0.96875	0.384986	-0.477846	-0.367455	-0.698874	9.68846	1.11318	3.13756	0.0185316	-0.0537593	0.0201492	-1.09155	0.178467	-0.0864258	0.192134	-0.566523	-0.316715	-0.73609	9.60367	2.43854	1.84064	0.0130731	-0.0542002	0.0737545	-1.0542	0.0678711	0.159668	-0.385939	-0.438504	0.605745	-0.540221	9.11286	-3.03991	-1.20525	-0.01307	0.0344798	-0.0458103	-1.03101	-0.0441895	0.158203	0.276458	-0.569182	-0.0550796	-0.772378	9.54749	-1.22376	4.29027	-0.0199335	-0.0361547	-0.0888973	-1.0415	-0.105713	0.105957	0.0439708	-0.251164	0.00584348	-0.966928	5.03266	-0.31078	9.26774	0.00293257	0.0539168	-0.0116404	-0.797852	0.0327148	-0.651123	0.190169	-0.647534	-0.110411	-0.72962	9.96415	-0.686806	1.94511	0.0597771	-0.0497771	0.0372379	-1.05762	0.317383	0.342041	0.114659	-0.754543	-0.633999	0.12475	-0.417269	-2.89929	-8.79297	-0.007778	0.0186873	-0.0271895	0.574951	0.354736	1.05151	-0.117738	-0.66465	0.0572845	-0.735593	9.72869	0.724688	1.59811	-0.0962074	-0.059175	0.00650926	-1.03223	-0.199219	0.311768	0.137705	-0.971595	-0.183178	0.0590471	-0.660817	-2.62813	-9.44218	0.0444567	0.00841062	-0.0141334	0.44873	0.244629	0.922119	
66	0.15891	0.734363	0.230747	-0.618235	-9.45678	-0.56214	-1.38328	0.0360536	-0.0496693	-0.0329651	1.1062	0.235596	-0.106934	0.0926154	0.167833	0.046189	-0.980368	-3.44557	-0.58091	9.53352	-0.0234404	-0.0346386	-0.0102755	0.109863	0.0324707	-0.973389	0.386724	-0.477869	-0.367826	-0.697703	9.54021	1.55601	2.91541	0.073837	0.00611316	0.0617227	-1.0874	0.189209	-0.0866699	0.192731	-0.567477	-0.316963	-0.735092	9.37667	2.37587	1.62719	0.0246198	-0.0405798	0.0364405	-1.05444	0.0722656	0.159668	-0.3875	-0.438987	0.605419	-0.539076	9.35905	-2.98512	-1.31716	-0.0384895	0.0165666	-0.076912	-1.0332	-0.0441895	0.158203	0.275236	-0.569988	-0.0565643	-0.772114	9.87293	-1.26114	4.35726	-0.00461779	-0.0411221	-0.0703343	-1.04346	-0.112305	0.110596	0.0442248	-0.250832	0.00587711	-0.967002	4.79497	-0.324512	8.72032	0.0219378	0.0306488	-0.00305025	-0.799805	0.0283203	-0.653076	0.190442	-0.648501	-0.110389	-0.728692	9.51887	-0.875429	1.65788	-0.0185128	-0.0285268	0.00623373	-1.06177	0.315186	0.342041	0.114467	-0.75448	-0.634014	0.125235	-0.417019	-2.91432	-8.62321	0.0171836	-0.026751	-0.0170065	0.577393	0.352539	1.05371	-0.118089	-0.665714	0.0567382	-0.734616	9.70133	0.65131	1.20206	0.0895879	-0.0364207	-0.0502522	-1.02979	-0.205811	0.307373	0.137943	-0.971505	-0.183274	0.0596728	-0.698068	-2.65209	-9.30783	0.0157269	-0.0195876	-0.00330934	0.450928	0.244629	0.915283	
67	0.158448	0.734084	0.230639	-0.618724	-9.41169	-0.615328	-1.04045	0.0250502	0.00665804	-0.0125949	1.104	0.237793	-0.115723	0.0930475	0.165267	0.0464509	-0.98075	-3.14934	-0.739039	9.41546	-0.0150041	-0.100694	-0.00170886	0.098877	0.0368652	-0.966553	0.386771	-0.478794	-0.367585	-0.69717	9.39104	0.900834	2.93595	0.0121137	-0.0344487	0.0248955	-1.0896	0.187256	-0.0866699	0.194258	-0.569044	-0.316246	-0.733785	9.35851	2.37606	1.47617	0.0321151	-0.0458577	0.0895538	-1.05249	0.0788574	0.17041	-0.388563	-0.440071	0.604543	-0.538409	9.31585	-3.09339	-1.28248	0.0223547	0.0143876	-0.0986777	-1.03052	-0.0507812	0.160645	0.273919	-0.570902	-0.0579083	-0.771807	9.73105	-1.21679	4.20193	0.0105956	-0.0471881	-0.0777314	-1.04321	-0.116455	0.117188	0.0445946	-0.251145	0.00547178	-0.966906	5.16236	-0.404818	9.37552	0.0424668	0.017028	-0.00745706	-0.799805	0.0305176	-0.646729	0.190609	-0.649713	-0.109851	-0.72765	10.1676	-0.667087	1.7683	0.0211437	-0.0696471	0.0126155	-1.06006	0.325928	0.351074	0.114467	-0.75448	-0.634014	0.125235	-0.417019	-2.91432	-8.62321	0.0171836	-0.026751	-0.0170065	0.577393	0.352539	1.05371	-0.117856	-0.667273	0.0563281	-0.733269	9.89869	0.851947	1.51151	-0.0320719	-0.0666553	0.0128093	-1.03003	-0.201416	0.320801	0.137123	-0.971633	-0.18318	0.0597574	-0.681669	-2.6586	-9.43373	-0.0334669	-0.00210283	0.00234376	0.450928	0.242432	0.922119	
68	0.158752	0.733168	0.230253	-0.619876	-9.37871	-0.408365	-1.23728	-0.0155589	-0.0705991	0.00373514	1.104	0.235596	-0.109131	0.0931865	0.164566	0.045895	-0.980881	-3.11764	-0.658486	9.6444	0.0136001	-0.0221754	-0.0013524	0.101074	0.0368652	-0.966553	0.388199	-0.479158	-0.368495	-0.695644	9.45796	1.5348	2.86467	0.0776461	-0.0266726	0.0424927	-1.0918	0.187256	-0.0842285	0.195389	-0.570253	-0.317003	-0.732218	9.34858	2.3669	1.5617	0.0543157	-0.0645658	0.0515398	-1.05249	0.0808105	0.172607	-0.390113	-0.440504	0.604273	-0.537236	9.39176	-3.08947	-1.36965	-0.0779607	0.0267555	-0.0690111	-1.02856	-0.0507812	0.153564	0.272409	-0.571718	-0.0598584	-0.771588	9.86062	-1.08458	4.48352	-0.0399917	-0.0483482	-0.10537	-1.04736	-0.118652	0.119385	0.0444939	-0.250533	0.00584644	-0.967067	4.92248	-0.238166	8.76476	0.00428494	0.0476863	-0.0187623	-0.802002	0.0283203	-0.646729	0.190021	-0.651299	-0.109033	-0.726508	9.767	-0.942961	1.7158	-0.0547791	-0.0385091	0.0140163	-1.05786	0.325928	0.355957	0.114073	-0.754281	-0.634413	0.124766	-0.441056	-2.89621	-8.63299	0.00849832	0.00421707	-0.0211967	0.577637	0.3479	1.05151	-0.118958	-0.66814	0.0565435	-0.732285	9.69575	0.887894	1.19459	-0.0143596	-0.0501363	-0.0478552	-1.02759	-0.203369	0.321045	0.136272	-0.971738	-0.183234	0.0598412	-0.741996	-2.60142	-9.36644	-0.000587098	0.00319929	-0.00605265	0.44873	0.242432	0.924316	
69	0.16027	0.732634	0.230797	-0.619914	-9.2537	-0.642869	-1.20268	-0.0616563	0.0070948	0.0126487	1.09937	0.239746	-0.111328	0.0932601	0.163689	0.0450974	-0.981058	-3.21218	-0.577389	9.46528	0.0152342	-0.03499	-0.0118512	0.101074	0.0324707	-0.966309	0.38773	-0.480333	-0.368738	-0.694967	9.52441	0.954449	2.8915	0.0235005	-0.0483469	0.0180087	-1.09155	0.185059	-0.0773926	0.196301	-0.572099	-0.316843	-0.730602	9.41412	2.49622	1.38976	0.0205033	-0.0683084	0.0461415	-1.05273	0.0852051	0.177002	-0.391189	-0.440557	0.603794	-0.536948	9.37508	-2.73955	-1.1596	-0.0205068	0.0386513	-0.0603135	-1.03491	-0.0529785	0.156006	0.27012	-0.572608	-0.0607926	-0.77166	9.73982	-1.20087	3.97613	-0.0171672	-0.0297066	-0.0853887	-1.04053	-0.125244	0.128174	0.0442849	-0.252554	0.00590848	-0.966551	4.98953	-0.368513	9.07882	-0.0094641	-0.0574496	-0.0195031	-0.800049	0.0327148	-0.638184	0.190946	-0.652321	-0.110113	-0.725184	9.75313	-0.722588	1.70157	0.0598839	-0.0653425	-0.00861806	-1.05542	0.321533	0.358154	0.11379	-0.754375	-0.63442	0.124425	-0.448906	-2.8771	-8.74975	-0.0230535	0.00904998	-0.0187396	0.575195	0.350342	1.04932	-0.119076	-0.669718	0.0568603	-0.730798	9.67967	0.535693	1.28057	0.00425018	-0.0689756	0.00532781	-1.02979	-0.208008	0.318848	0.136454	-0.971698	-0.183323	0.0598049	-0.706922	-2.62178	-9.37704	0.0168721	0.0118027	-0.0121461	0.44873	0.244629	0.922119	
70	0.160837	0.73298	0.231126	-0.619236	-9.44155	-0.62491	-0.976513	-0.0221934	0.0339748	0.0158496	1.104	0.233398	-0.111328	0.093668	0.16257	0.0443733	-0.981238	-2.98327	-0.51045	9.50277	0.00415502	-0.0273894	0.000998028	0.0991211	0.0280762	-0.970947	0.387728	-0.48144	-0.368889	-0.694121	9.52609	0.929762	2.61012	0.00765097	-0.0531186	0.0252565	-1.09399	0.19165	-0.0751953	0.196323	-0.573362	-0.317265	-0.729422	9.44625	2.29407	1.2509	0.0241568	-0.0588361	0.0172518	-1.04614	0.0874023	0.179199	-0.39243	-0.441349	0.602915	-0.53638	9.2612	-2.85468	-1.17918	0.0161022	0.0257936	-0.0818036	-1.03687	-0.057373	0.153564	0.269019	-0.573111	-0.0624371	-0.77154	9.73818	-1.10864	4.31113	0.0047981	-0.0328561	-0.0801434	-1.04272	-0.129639	0.125977	0.0445252	-0.254618	0.00526681	-0.966002	5.24918	-0.251664	9.32952	0.0516106	-0.0589553	-0.0100864	-0.802002	0.0305176	-0.640381	0.19076	-0.653143	-0.110447	-0.724442	9.96756	-0.988831	1.55512	-0.01552	-0.0204745	-0.00829098	-1.06006	0.325684	0.362793	0.113699	-0.75394	-0.634832	0.125042	-0.427754	-2.88308	-8.70105	0.0126882	-0.0157348	-0.0202765	0.582031	0.352539	1.05151	-0.119664	-0.670796	0.0559374	-0.729784	10.0137	0.947508	1.10175	-0.00367435	-0.0529898	-0.0537313	-1.02734	-0.209961	0.323242	0.135968	-0.971743	-0.183398	0.0599372	-0.69767	-2.62015	-9.36923	-0.0167239	-0.00524817	-0.0023577	0.453613	0.23584	0.922119	
71	0.161556	0.73296	0.230686	-0.619235	-9.67972	-0.608011	-1.05721	-0.00216158	-0.0159103	0.0251294	1.1062	0.233398	-0.111328	0.0938998	0.162385	0.0443941	-0.981246	-3.08054	-0.519917	9.58804	-0.0169004	0.000899877	-0.000564662	0.0947266	0.0280762	-0.966064	0.388114	-0.481744	-0.3694	-0.693422	9.54355	1.08239	2.73129	0.0647683	-0.0473832	0.032227	-1.08521	0.189209	-0.072998	0.196492	-0.574018	-0.317383	-0.728809	9.41667	2.23714	1.24701	0.0241083	-0.0586209	0.0306247	-1.05518	0.0895996	0.181396	-0.392966	-0.441688	0.602504	-0.536171	9.25941	-2.86883	-1.15762	0.00317909	0.0251059	-0.0773707	-1.03223	-0.0661621	0.151367	0.268745	-0.573223	-0.0636075	-0.771456	9.66665	-1.07416	4.25068	0.0446327	-0.0297874	-0.0747349	-1.04248	-0.133789	0.124023	0.0447218	-0.254853	0.00495157	-0.965932	5.23601	-0.201281	9.22114	0.0437961	-0.00754942	-0.00612347	-0.803955	0.026123	-0.644531	0.190954	-0.653608	-0.110455	-0.72397	9.96651	-0.861454	1.47029	0.0134772	-0.0375347	0.00711566	-1.05762	0.319336	0.365234	0.113612	-0.75397	-0.634837	0.124915	-0.461013	-2.87916	-8.67438	0.000203425	0.00497307	-0.0232387	0.579834	0.352539	1.05371	-0.119756	-0.671322	0.055908	-0.729287	9.97391	0.766691	1.16981	0.00414125	-0.0473494	-0.00989909	-1.02295	-0.205566	0.325439	0.135246	-0.971816	-0.183646	0.0596361	-0.711824	-2.59952	-9.38837	-0.0243619	0.0132914	-0.0129356	0.446777	0.238037	0.919922	
72	0.162011	0.732518	0.230476	-0.619718	-9.70209	-0.480647	-1.16736	-0.011839	-0.0504756	0.0175139	1.104	0.235596	-0.111328	0.0941429	0.162205	0.0439913	-0.98127	-3.19262	-0.518827	9.67329	0.00354432	0.00581675	-0.0136679	0.0991211	0.0280762	-0.970947	0.388624	-0.482789	-0.369541	-0.692334	9.75195	1.10595	2.93124	0.0307346	-0.0338965	0.0517813	-1.0896	0.193604	-0.0708008	0.19667	-0.57509	-0.317907	-0.727686	9.65892	2.62878	1.74401	0.0338413	-0.0424833	-0.000299437	-1.04834	0.0874023	0.185791	-0.393889	-0.442152	0.601935	-0.535749	9.49401	-2.79155	-1.20706	-0.0130202	0.019466	-0.0554564	-1.03003	-0.0639648	0.156006	0.267417	-0.573758	-0.0647705	-0.771424	9.96574	-1.00658	4.28243	-0.0356479	-0.0217045	-0.0746863	-1.03613	-0.129639	0.125977	0.0448824	-0.255806	0.00305368	-0.965681	5.09816	-0.090348	9.13716	0.106828	-0.0470964	-0.0346733	-0.808105	0.0239258	-0.640137	0.191125	-0.655091	-0.110623	-0.722558	9.90177	-0.524781	1.66797	-0.0236722	-0.0497264	0.00205607	-1.05566	0.327881	0.367432	0.113424	-0.754055	-0.63485	0.124507	-0.447555	-2.87531	-8.7604	-0.0206297	0.0175653	-0.0215081	0.575195	0.350342	1.04932	-0.120598	-0.672275	0.0565469	-0.728221	9.58557	0.890212	1.18399	-0.0442487	-0.0465923	-0.0197289	-1.0293	-0.214355	0.330322	0.135234	-0.971804	-0.183715	0.0596447	-0.726945	-2.58216	-9.43318	0.00231069	0.00584725	-0.0087722	0.451172	0.240234	0.919922	
73	0.163238	0.732051	0.230762	-0.619842	-9.69062	-0.599998	-1.05605	-0.0458305	0.000593794	0.0152783	1.10181	0.233398	-0.109131	0.0940862	0.161343	0.0435008	-0.98144	-3.17265	-0.505085	9.50903	0.0174214	-0.0290628	-0.0216191	0.0949707	0.0258789	-0.963623	0.388314	-0.483795	-0.368756	-0.692224	9.49108	1.26946	2.64534	-0.0966763	-0.0357404	0.00803519	-1.08325	0.193604	-0.072998	0.196716	-0.576138	-0.317741	-0.726917	9.37229	2.52667	1.24054	-0.00970207	-0.0435737	0.0377806	-1.0481	0.0830078	0.185791	-0.39425	-0.442792	0.601069	-0.535927	9.41811	-2.62966	-1.03991	0.0665523	0.0238578	-0.0520448	-1.03418	-0.0705566	0.153809	0.266603	-0.573747	-0.0657145	-0.771634	9.81456	-0.789627	4.38498	5.84037e-05	0.0126554	-0.0480825	-1.03809	-0.135986	0.128418	0.0451129	-0.258737	0.00100764	-0.964893	5.09516	-0.159768	9.03067	0.107535	-0.122512	-0.0283212	-0.810547	0.026123	-0.633789	0.191397	-0.655332	-0.111024	-0.722206	9.83396	-1.12266	1.501	0.0211444	-0.0117481	-0.00645038	-1.05127	0.321533	0.369873	0.113168	-0.753924	-0.635048	0.124519	-0.447665	-2.8727	-8.71914	-0.00527217	0.0020322	-0.0148377	0.577393	0.350342	1.05371	-0.120676	-0.67327	0.0561561	-0.727318	9.92317	0.834546	1.14445	0.0545374	-0.0521097	-0.013384	-1.02759	-0.205566	0.327881	0.134974	-0.971837	-0.183702	0.0597377	-0.748039	-2.55912	-9.39414	0.000597257	0.0109452	-0.00301881	0.444336	0.240234	0.924316	
74	0.164166	0.730619	0.230892	-0.621236	-9.64688	-0.669981	-0.972952	-0.00596461	-0.106013	-0.0139362	1.10425	0.231201	-0.117676	0.0941705	0.160898	0.0436461	-0.981498	-3.02916	-0.50328	9.63787	-0.033126	0.0209518	-0.00814911	0.097168	0.0236816	-0.966064	0.388075	-0.484641	-0.368827	-0.691728	9.43289	1.00625	2.60002	0.0328172	-0.0296256	0.0226713	-1.09399	0.197998	-0.0686035	0.197122	-0.576874	-0.317994	-0.726112	9.33396	2.26785	1.17733	0.0285587	-0.0273477	0.0152102	-1.05054	0.0874023	0.187988	-0.395839	-0.442515	0.600758	-0.535333	9.32719	-2.80995	-1.07161	-0.0377488	0.0428179	-0.0499922	-1.03638	-0.0705566	0.151367	0.26523	-0.573998	-0.0653092	-0.771955	9.77438	-1.08287	4.16226	-0.0539983	0.00327509	-0.0456121	-1.03564	-0.140381	0.126465	0.0455415	-0.261551	-0.00113173	-0.964114	5.44717	-0.269989	9.30832	0.0868794	-0.10677	-0.0123167	-0.812256	0.0195312	-0.631592	0.191842	-0.655911	-0.111876	-0.72143	10.0025	-0.776607	1.55315	-0.000380767	-0.0293404	-0.018402	-1.04907	0.325684	0.369873	0.113322	-0.753849	-0.63509	0.124624	-0.441669	-2.88943	-8.68378	0.0219973	0.00215296	-0.0238149	0.57959	0.357178	1.05371	-0.120258	-0.674208	0.0550158	-0.726605	9.79269	0.89675	1.15801	0.0303402	-0.0261604	-0.0170067	-1.02295	-0.207764	0.334717	0.135514	-0.97174	-0.183825	0.059714	-0.697531	-2.59498	-9.48106	0.0453202	0.015498	-0.0168707	0.446533	0.240234	0.922119	
75	0.164182	0.7285	0.230483	-0.623867	-9.36471	-0.311353	-1.16635	0.0174827	-0.112803	-0.0194897	1.104	0.235596	-0.119873	0.0948273	0.161008	0.0429614	-0.981447	-3.22433	-0.579887	9.57048	0.0208083	0.00182568	0.0117829	0.0905762	0.0258789	-0.966064	0.38838	-0.4852	-0.369189	-0.690972	9.71004	1.10113	2.75485	0.0173034	-0.0277557	0.0180183	-1.0918	0.200195	-0.064209	0.197875	-0.577479	-0.318383	-0.725256	9.67291	2.39417	1.45739	0.0552601	-0.0192559	0.0347078	-1.04858	0.0917969	0.183594	-0.395919	-0.443191	0.599683	-0.53592	9.50262	-2.82425	-1.2358	0.0746086	0.0207238	-0.033397	-1.03418	-0.0683594	0.146729	0.264608	-0.574126	-0.0658216	-0.772029	9.97763	-0.976891	4.37535	-0.0285475	0.00164214	-0.037449	-1.04004	-0.138184	0.126221	0.0459624	-0.263996	-0.00408327	-0.963419	5.13399	-0.0961036	8.88298	0.122003	-0.100449	-0.0203985	-0.816406	0.0151367	-0.62085	0.192142	-0.656832	-0.111447	-0.720578	9.85439	-0.855151	1.56591	0.0155406	-0.0257141	0.0228249	-1.05566	0.327881	0.369873	0.112954	-0.75393	-0.635139	0.124217	-0.442091	-2.87766	-8.7481	-0.0156486	0.00709333	-0.0221848	0.579834	0.350342	1.05371	-0.121403	-0.674728	0.0559335	-0.725861	9.66621	0.885452	1.18994	-0.0710832	-0.0371391	-0.00539989	-1.0249	-0.216553	0.334961	0.13607	-0.97159	-0.18415	0.0598859	-0.701914	-2.60379	-9.38103	0.0137884	0.00115164	-0.00428055	0.444092	0.244629	0.919678	
76	0.166016	0.727534	0.230057	-0.624665	-9.32957	-0.443781	-1.04355	-0.045079	-0.0441807	0.0639049	1.09766	0.229004	-0.12207	0.0952029	0.159926	0.0420232	-0.981628	-3.02165	-0.516836	9.60352	0.0268841	-0.033769	0.000169611	0.0905762	0.0236816	-0.958984	0.388551	-0.485533	-0.369236	-0.690616	9.56292	1.57158	2.75998	-0.00287985	-0.00854984	0.00448632	-1.0918	0.197998	-0.0686035	0.197667	-0.577652	-0.318366	-0.725182	9.4512	2.19371	1.50391	-0.00464736	-0.00288501	-0.00660438	-1.05054	0.0852051	0.190186	-0.396179	-0.443423	0.598706	-0.536628	9.45706	-2.66951	-1.09479	0.0391241	0.0332277	-0.0256499	-1.02979	-0.0705566	0.146729	0.263527	-0.574149	-0.0649031	-0.77246	9.76028	-0.794192	4.3016	-0.0623704	0.032021	-0.0200978	-1.03979	-0.144775	0.126465	0.0459834	-0.267027	-0.00539873	-0.962576	5.44247	-0.177346	9.23434	0.0524863	-0.120313	-0.023907	-0.820557	0.0129395	-0.62085	0.192492	-0.657242	-0.111952	-0.720032	10.0236	-0.885231	1.38183	-0.000182348	-0.0072952	-0.0182398	-1.04932	0.330078	0.374512	0.112898	-0.753949	-0.635091	0.124396	-0.437703	-2.87559	-8.66641	0.0257285	-0.00634162	-0.0215634	0.577393	0.350342	1.04932	-0.121649	-0.675766	0.0561544	-0.724836	10.0262	0.69108	0.964942	0.0461974	-0.0318071	-0.0193952	-1.0249	-0.212158	0.337158	0.135954	-0.971585	-0.184196	0.0600975	-0.710019	-2.61517	-9.35064	-0.00279678	-0.0110907	-0.00371396	0.446533	0.242432	0.924316	
77	0.168313	0.72711	0.22914	-0.624881	-9.51842	-0.654083	-0.948834	-0.0180214	-0.0386813	0.067959	1.10474	0.222656	-0.124023	0.0957839	0.159523	0.0420149	-0.981638	-3.01901	-0.547765	9.60864	-0.0284722	0.014265	0.00857622	0.0908203	0.0214844	-0.96582	0.387665	-0.485826	-0.369271	-0.690889	9.57067	0.849013	2.53623	0.0414794	-0.0123111	-0.0244522	-1.0896	0.197998	-0.0664062	0.198115	-0.578121	-0.318116	-0.724796	9.52314	2.26695	1.03954	-0.007284	-0.0106473	0.0262015	-1.04883	0.0961914	0.187744	-0.39673	-0.443148	0.597973	-0.537264	9.48711	-2.7342	-1.09749	0.000172174	0.0490632	-0.023984	-1.03198	-0.0705566	0.142334	0.262988	-0.57403	-0.064537	-0.772763	9.71545	-0.766753	4.21107	-0.0627804	0.0345902	-0.0304246	-1.03979	-0.144775	0.11792	0.04618	-0.270475	-0.00659598	-0.961596	5.45036	-0.0488331	8.7304	0.059331	-0.117593	-0.015026	-0.827148	0.0129395	-0.60791	0.193242	-0.657555	-0.112473	-0.719464	9.79285	-0.834793	1.54801	0.0744982	-0.0303284	-0.000466882	-1.04932	0.332275	0.37915	0.112724	-0.754007	-0.635112	0.124095	-0.451428	-2.87014	-8.74669	-0.0112451	0.00636472	-0.0202547	0.579834	0.348145	1.05151	-0.121366	-0.675997	0.0555402	-0.724717	9.74842	0.966399	1.03616	-0.00642902	-0.00735658	0.0118724	-1.01587	-0.216553	0.343994	0.137046	-0.971345	-0.184596	0.0602585	-0.707265	-2.65089	-9.39031	0.0379877	0.00100773	-0.0189654	0.446533	0.244629	0.919678	
78	0.169551	0.726553	0.228217	-0.625532	-9.55457	-0.467203	-0.871638	0.00198149	-0.041539	0.0456883	1.10059	0.218262	-0.128418	0.0966049	0.159046	0.0407489	-0.981688	-3.04277	-0.47505	9.61149	0.0335406	-0.0252713	0.0242203	0.0881348	0.0302734	-0.970947	0.387817	-0.485834	-0.369663	-0.690589	9.50101	0.909304	2.71229	0.0460209	-0.0188183	0.00224705	-1.08765	0.199951	-0.0617676	0.1979	-0.578094	-0.318098	-0.724884	9.44705	2.26455	1.20032	-0.00900135	0.00539319	-0.013936	-1.04395	0.0895996	0.190186	-0.39686	-0.443061	0.597761	-0.537476	9.43906	-3.06607	-1.2415	0.0163449	0.0319807	-0.0187735	-1.04077	-0.0727539	0.144531	0.262093	-0.57383	-0.0632969	-0.773317	9.91495	-1.19201	4.18852	-0.0665107	0.0336106	-0.0084453	-1.02905	-0.144775	0.126465	0.0462601	-0.272304	-0.00759755	-0.961069	5.23321	-0.0462314	8.76758	0.0888211	-0.14172	-0.0270036	-0.829102	0.0107422	-0.60791	0.193393	-0.657777	-0.112508	-0.719215	9.96662	-0.703621	1.55228	0.0150324	-0.0121683	-0.00251284	-1.04956	0.332275	0.37207	0.112584	-0.754029	-0.635127	0.124012	-0.433924	-2.85744	-8.73289	-0.000813271	-8.88411e-05	-0.022406	0.582031	0.352539	1.05151	-0.121577	-0.676202	0.0557789	-0.724472	9.65934	0.980359	0.970091	-0.0195122	-0.016475	0.00157938	-1.02051	-0.212158	0.339355	0.137591	-0.971235	-0.184677	0.0605353	-0.707289	-2.62517	-9.31639	0.0300414	0.00264769	-0.00501822	0.450928	0.244629	0.926514	
79	0.170279	0.726292	0.227792	-0.625792	-9.51047	-0.430319	-0.780664	-0.00353125	-0.0382847	0.0512529	1.10254	0.220459	-0.130615	0.0969938	0.158495	0.0404087	-0.981753	-2.91946	-0.40077	9.52284	0.00811016	-0.0312416	0.0154332	0.088623	0.0214844	-0.968262	0.387624	-0.485795	-0.369954	-0.690568	9.56278	1.20927	2.71607	0.000708343	0.00599744	-0.0235145	-1.0896	0.193604	-0.0661621	0.198112	-0.577842	-0.318554	-0.724827	9.3865	2.29962	1.2617	0.014342	0.00562497	0.00145918	-1.05298	0.0917969	0.190186	-0.395733	-0.443489	0.596534	-0.539314	9.29576	-2.42822	-0.972102	0.0893637	0.0271818	0.0172649	-1.03198	-0.0705566	0.146729	0.261593	-0.573074	-0.0627141	-0.774094	9.65133	-0.548262	4.2429	-0.0597262	0.0607514	-0.0319365	-1.03564	-0.140381	0.119873	0.0463881	-0.275695	-0.00829552	-0.960089	5.68876	-0.0539287	8.77139	0.00844465	-0.120158	-0.00706565	-0.833252	0.00634766	-0.601562	0.193087	-0.658107	-0.111902	-0.71909	9.84017	-1.04664	1.3946	0.013354	-0.00945268	-0.00549044	-1.04688	0.325684	0.37915	0.112308	-0.754089	-0.63513	0.12388	-0.454221	-2.87121	-8.72441	-0.00211013	0.00181839	-0.0194865	0.579834	0.350342	1.04932	-0.122324	-0.67653	0.0561567	-0.72401	10.0571	0.604052	1.14632	-0.00356601	-0.00801361	-0.0063874	-1.01831	-0.212158	0.341553	0.138014	-0.971144	-0.184834	0.0605686	-0.731447	-2.64277	-9.41281	0.0369104	0.00892877	-0.0188279	0.446289	0.251221	0.919678	
80	0.171768	0.725207	0.226918	-0.62696	-9.60966	-0.46801	-0.87743	-0.0139431	-0.0761239	0.0441078	1.10278	0.218262	-0.134766	0.097285	0.158389	0.0405415	-0.981736	-3.02533	-0.403975	9.53922	-0.0256642	0.00844482	0.00320288	0.0883789	0.0236816	-0.961182	0.387489	-0.485756	-0.370871	-0.69018	9.5506	0.964236	2.64269	0.0738643	-0.0217579	-0.00826525	-1.0918	0.193604	-0.0639648	0.198653	-0.5777	-0.319426	-0.724408	9.47969	2.21089	1.31067	0.0529978	0.00519221	-0.0109151	-1.03979	0.0961914	0.192139	-0.395857	-0.443004	0.596568	-0.539585	9.26211	-2.37152	-0.962095	-0.00456367	0.044433	0.0116069	-1.03418	-0.0727539	0.139893	0.260781	-0.572879	-0.0623591	-0.774542	9.53441	-0.842801	3.62837	-0.00248774	0.0128341	-0.0303006	-1.03979	-0.148926	0.122314	0.0465069	-0.278391	-0.00808477	-0.959307	5.51922	-0.0998065	9.17437	0.00916856	-0.107526	-0.00431784	-0.83374	0.017334	-0.597412	0.193352	-0.658175	-0.112701	-0.718831	9.90841	-0.850413	1.48576	0.0151602	0.00469767	-0.0271331	-1.04712	0.330078	0.376709	0.112106	-0.75409	-0.635158	0.123918	-0.449988	-2.87116	-8.71448	0.00702221	-0.00753948	-0.0215401	0.575195	0.3479	1.05151	-0.121505	-0.676923	0.0549386	-0.723874	9.73735	1.08074	0.941774	0.0905653	-0.00164395	-0.011176	-1.01831	-0.209961	0.343994	0.138808	-0.970939	-0.185184	0.0609715	-0.718492	-2.64633	-9.30279	0.00900055	0.00606901	-0.00198871	0.453125	0.246826	0.922119	
81	0.172724	0.724056	0.226471	-0.628188	-9.35627	-0.411194	-0.694152	-0.00555366	-0.0470767	0.0130779	1.10059	0.218262	-0.132812	0.0983941	0.157577	0.0404856	-0.981758	-2.89316	-0.429397	9.62137	-0.0358259	0.00734328	0.0121067	0.0864258	0.0214844	-0.96582	0.387574	-0.485088	-0.371922	-0.690036	9.59147	0.90242	2.58217	0.0708782	0.00142821	-0.0331923	-1.0896	0.191406	-0.0639648	0.199651	-0.577139	-0.320533	-0.724092	9.51976	2.47704	1.33852	0.0696749	0.0268716	-0.00665192	-1.05103	0.0939941	0.185791	-0.396404	-0.44428	0.595048	-0.539812	9.34167	-2.37694	-0.875885	0.025936	0.0014073	-0.0563183	-1.03418	-0.0683594	0.137695	0.260608	-0.573424	-0.0617811	-0.774243	9.66207	-0.932868	4.2074	-0.0702092	-0.00678357	0.0140718	-1.0376	-0.148926	0.115967	0.0468696	-0.27834	-0.00756232	-0.959309	5.48426	-0.0219301	8.63782	-0.0308424	0.0205775	0.00859857	-0.840088	0.0129395	-0.597412	0.193246	-0.658421	-0.11259	-0.718652	9.94359	-0.809555	1.54054	-0.0283154	0.00656211	-0.0137464	-1.05786	0.327881	0.376953	0.111731	-0.754149	-0.635202	0.123672	-0.46835	-2.85516	-8.74576	-0.0079991	0.0035768	-0.0183586	0.582275	0.3479	1.05835	-0.122657	-0.676973	0.0556791	-0.723576	9.84096	0.881724	1.10094	-0.0909345	-0.00166518	-0.0040304	-1.01587	-0.214355	0.341797	0.138898	-0.970935	-0.185155	0.060913	-0.714404	-2.65609	-9.35528	0.00961876	0.0136218	-0.0027649	0.450928	0.242432	0.928955	
82	0.173773	0.722854	0.226512	-0.629268	-9.35482	-0.287222	-0.859386	-0.028578	-0.0692557	0.00494997	1.10278	0.216064	-0.13916	0.0991917	0.157454	0.0404731	-0.981698	-2.93371	-0.485453	9.66785	-0.0095743	0.0108856	0.0145457	0.0905762	0.0280762	-0.961426	0.387321	-0.484399	-0.37244	-0.690383	9.47349	1.33145	2.65012	0.00655262	0.0183719	-0.0435025	-1.0896	0.195801	-0.0661621	0.200341	-0.576154	-0.321718	-0.724161	9.37478	2.26266	1.20757	0.0423187	0.02948	-0.0150701	-1.05103	0.0961914	0.185547	-0.396412	-0.444703	0.594757	-0.539778	9.42252	-2.98736	-1.09547	0.0141002	-0.00120938	-0.0244932	-1.03833	-0.0749512	0.142334	0.260735	-0.573474	-0.0616444	-0.774173	9.93251	-1.1992	4.46909	0.0318023	0.0159747	-0.0112688	-1.04004	-0.142578	0.124268	0.0475579	-0.279975	-0.00806918	-0.958795	5.66181	-0.0570779	8.95888	0.0279371	-0.00889777	0.00919479	-0.837646	0.0107422	-0.595215	0.192612	-0.658554	-0.112319	-0.718743	9.885	-1.02543	1.33781	0.0254948	-0.000386554	-0.0382731	-1.05371	0.334473	0.381348	0.111731	-0.754149	-0.635202	0.123672	-0.46835	-2.85516	-8.74576	-0.0079991	0.0035768	-0.0183586	0.582275	0.3479	1.05835	-0.122976	-0.676991	0.0555608	-0.723514	9.91609	0.699543	0.958679	0.0582871	0.0197155	-0.00877425	-1.01587	-0.216553	0.3396	0.138898	-0.970935	-0.185155	0.060913	-0.714404	-2.65609	-9.35528	0.00961876	0.0136218	-0.0027649	0.450928	0.242432	0.928955	
83	0.17537	0.722558	0.22681	-0.629057	-9.47541	-0.468879	-0.925434	-0.0439966	0.0124294	0.0376414	1.10498	0.218262	-0.13916	0.0998392	0.157633	0.0406003	-0.981598	-2.98246	-0.496001	9.61219	-0.0199586	0.0255214	0.00557586	0.0883789	0.0236816	-0.970703	0.386206	-0.484066	-0.372775	-0.69106	9.62246	1.07988	2.60944	0.0129915	0.00922576	-0.0558912	-1.09375	0.189453	-0.0615234	0.199353	-0.575896	-0.320452	-0.725198	9.53938	2.54426	1.5087	-0.108731	0.0420139	-0.0231503	-1.04614	0.0874023	0.185791	-0.395353	-0.444578	0.594512	-0.540927	9.51916	-2.42656	-0.869658	0.011204	0.0238068	0.0241664	-1.03394	-0.0749512	0.139893	0.26113	-0.572606	-0.0626308	-0.774604	9.81563	-0.571608	4.13536	-0.0128964	0.0335243	-0.0221419	-1.03564	-0.142578	0.12207	0.0478853	-0.28174	-0.00724494	-0.958268	5.66643	0.030892	8.87866	-0.0228897	-0.0533611	0.00530357	-0.839844	0.0107422	-0.593018	0.192524	-0.658381	-0.112819	-0.718847	9.94376	-0.766119	1.39096	-0.0234824	0.0324931	-0.0283226	-1.04932	0.327881	0.376709	0.11149	-0.753881	-0.63563	0.123321	-0.459064	-2.84491	-8.74946	-0.00836653	0.00533268	-0.0216687	0.577637	0.3479	1.05371	-0.122984	-0.676619	0.0553355	-0.723878	9.87694	0.996618	1.11065	-0.0342787	0.0342124	0.00812364	-1.02051	-0.214355	0.337158	0.139451	-0.970761	-0.185729	0.0606688	-0.729291	-2.6777	-9.41222	0.0376039	0.0127545	-0.0211492	0.455078	0.253418	0.924316	
84	0.176505	0.72287	0.226317	-0.628559	-9.5617	-0.456026	-0.817562	-0.00713607	0.0148678	0.0528966	1.10278	0.216064	-0.136963	0.100165	0.157585	0.0402582	-0.981587	-3.01461	-0.359674	9.58868	-0.00356033	0.00451662	-0.00781545	0.0908203	0.0192871	-0.96582	0.384844	-0.483474	-0.373293	-0.691954	9.55999	1.20652	2.6316	-0.00989613	0.00460027	-0.0663483	-1.09155	0.180664	-0.0634766	0.199172	-0.575358	-0.320385	-0.725704	9.44944	2.17174	1.26245	-0.0122742	0.0562377	-0.0289517	-1.0459	0.0830078	0.185791	-0.395353	-0.444578	0.594512	-0.540927	9.51916	-2.42656	-0.869658	0.011204	0.0238068	0.0241664	-1.03394	-0.0749512	0.139893	0.262692	-0.571178	-0.064002	-0.775018	9.73256	-0.943066	4.09723	0.0857768	0.0532201	0.00347134	-1.03784	-0.142578	0.120117	0.0480897	-0.283713	-0.00789113	-0.95767	5.62404	0.0516168	8.74634	-0.00113291	-0.0607513	-0.00905901	-0.844482	0.0148926	-0.58667	0.191878	-0.658092	-0.112329	-0.719361	9.81824	-0.914477	1.46681	0.016097	0.027964	-0.0222218	-1.05371	0.330078	0.376709	0.111351	-0.753741	-0.635863	0.1231	-0.452717	-2.83961	-8.73627	-0.00424387	0.00263746	-0.0216236	0.580078	0.345703	1.04932	-0.123213	-0.676285	0.0554077	-0.724146	9.73858	0.912795	0.974888	0.0251347	0.0201169	-0.000882629	-1.01807	-0.216553	0.337158	0.139451	-0.970761	-0.185729	0.0606688	-0.729291	-2.6777	-9.41222	0.0376039	0.0127545	-0.0211492	0.455078	0.253418	0.924316	
85	0.17783	0.723023	0.224985	-0.628487	-9.54264	-0.495972	-0.767581	0.00673634	-0.0175657	0.0787147	1.10986	0.209717	-0.134766	0.0998713	0.157509	0.0401359	-0.981634	-3.02661	-0.34078	9.61226	0.00438439	0.0160954	-0.0342731	0.0839844	0.0258789	-0.973145	0.383298	-0.482867	-0.373265	-0.69325	9.57999	1.57492	2.76745	-0.0572685	0.0180088	-0.0740256	-1.09375	0.180664	-0.0703125	0.198929	-0.574048	-0.320033	-0.726963	9.41382	2.37852	1.1916	-0.0273188	0.0433931	-0.00770169	-1.05273	0.0830078	0.181396	-0.395896	-0.443607	0.594442	-0.541404	9.34955	-2.95091	-0.983809	-0.0493824	0.0175259	0.01923	-1.03003	-0.0661621	0.139893	0.26394	-0.569908	-0.0640094	-0.775528	9.75816	-1.09708	4.43664	0.00362247	0.0662943	0.0277707	-1.04004	-0.142578	0.11792	0.0476743	-0.28577	-0.00699701	-0.957086	5.7372	0.13959	8.82643	-0.0294815	-0.0647225	-0.022717	-0.844482	0.0192871	-0.586914	0.191905	-0.657558	-0.112615	-0.719798	10.0056	-0.679105	1.44008	-0.00117556	0.0516758	-0.0297571	-1.05151	0.332275	0.369629	0.111342	-0.75382	-0.635827	0.122808	-0.438195	-2.84006	-8.76372	0.00745702	0.012288	-0.0213794	0.575439	0.345703	1.05396	-0.122715	-0.676198	0.0548475	-0.724354	9.91358	0.815847	1.21952	0.0288372	0.0178548	0.00524056	-1.02271	-0.212158	0.337158	0.140882	-0.970473	-0.186247	0.0603878	-0.708846	-2.67931	-9.34804	0.0277509	0.0108581	-0.0145787	0.448242	0.257812	0.917236	
