40	Head	00b4120a												Throax	00b411e8												LUpArm	00b411d9												LFoArm	00b41148												RUpArm	00b411db												RFoArm	00b41204												Waist	00b411f7												Lthigh	00b411f4												Lshank	00b4111b												Rthigh	00b411c8												Rshank	00b411ee												
PacketCount	q0	q1	q2	q3	accX	accY	accZ	gyrX	gyrY	gyrZ	magX	magY	magZ	q0	q1	q2	q3	accX	accY	accZ	gyrX	gyrY	gyrZ	magX	magY	magZ	q0	q1	q2	q3	accX	accY	accZ	gyrX	gyrY	gyrZ	magX	magY	magZ	q0	q1	q2	q3	accX	accY	accZ	gyrX	gyrY	gyrZ	magX	magY	magZ	q0	q1	q2	q3	accX	accY	accZ	gyrX	gyrY	gyrZ	magX	magY	magZ	q0	q1	q2	q3	accX	accY	accZ	gyrX	gyrY	gyrZ	magX	magY	magZ	q0	q1	q2	q3	accX	accY	accZ	gyrX	gyrY	gyrZ	magX	magY	magZ	q0	q1	q2	q3	accX	accY	accZ	gyrX	gyrY	gyrZ	magX	magY	magZ	q0	q1	q2	q3	accX	accY	accZ	gyrX	gyrY	gyrZ	magX	magY	magZ	q0	q1	q2	q3	accX	accY	accZ	gyrX	gyrY	gyrZ	magX	magY	magZ	q0	q1	q2	q3	accX	accY	accZ	gyrX	gyrY	gyrZ	magX	magY	magZ	
0	0.184232	0.66919	0.2389	-0.679095	-9.76645	-0.564538	0.0156748	0.0251374	0.0183224	0.0122683	1.0708	0.246826	-0.223633	0.0669458	0.106123	0.0534252	-0.990657	-2.03162	-0.804334	9.84632	-0.0170212	0.0087501	-0.0186354	-0.0317383	0.0410156	-0.952148	0.427237	-0.519284	-0.363949	-0.64448	9.61974	0.115266	1.8302	-0.0091281	0.0171387	0.000655216	-1.06567	0.30127	-0.00756836	0.278725	-0.63435	-0.337869	-0.63699	9.66473	0.554991	-0.603667	-0.00302043	0.0184416	0.0109876	-0.994629	0.312988	0.313965	-0.56499	-0.314601	0.637127	-0.419383	9.72024	-1.84827	-0.0865871	-0.00326929	-0.000666504	-0.00586193	-1.02173	-0.167969	-0.106689	0.160226	-0.515515	-0.170012	-0.82442	9.76584	1.31529	4.33245	-0.016074	0.00816373	0.00485158	-0.950684	-0.441406	0.00439453	0.0573062	-0.316641	-0.0283024	-0.94639	6.32272	0.00870391	8.42887	0.027401	-0.0384449	-0.00586267	-0.897705	0.00585938	-0.511963	0.208183	-0.712797	-0.107359	-0.6611	9.711	-1.35957	-0.297534	0.0312248	0.0286265	-0.0201472	-0.944336	0.416016	0.566406	0.0403551	-0.724516	-0.684096	0.0738917	-0.514166	-1.66082	-8.97855	0.0137345	0.00967894	-0.0206043	0.585449	0.210938	1.09375	-0.155276	-0.74515	0.0355825	-0.647591	9.59365	1.76067	-1.04346	-0.00799989	0.00724491	0.0105243	-0.890869	-0.313477	0.551758	0.210249	-0.94101	-0.246492	0.0976603	-0.769638	-4.41275	-8.66162	0.0201003	0.0102273	-0.0076209	0.456543	0.43457	0.850586	
1	0.184638	0.669097	0.238665	-0.679159	-9.75909	-0.594843	-0.0583283	-0.0136202	-0.021437	0.0140861	1.07104	0.244629	-0.230225	0.0670838	0.106558	0.0533665	-0.990604	-2.09037	-0.707186	9.90463	-0.00549872	0.0231265	-0.00621491	-0.029541	0.0410156	-0.95459	0.427472	-0.519095	-0.364042	-0.644423	9.85931	0.284284	1.93928	0.0495615	0.00615648	-0.000376387	-1.06567	0.30127	-0.0187988	0.279134	-0.634013	-0.337996	-0.637079	9.90438	0.907262	-0.22995	0.0223711	0.0202645	-0.00231579	-0.995117	0.323975	0.313721	-0.564568	-0.31489	0.637227	-0.41958	9.75646	-1.8032	-0.0169536	0.0104359	-0.0050984	-0.00830319	-1.01953	-0.167969	-0.104248	0.160716	-0.515418	-0.170359	-0.824314	9.81561	1.247	4.44038	0.0309529	0.0118101	-0.00444638	-0.950439	-0.443604	0.0065918	0.0574863	-0.317301	-0.0286488	-0.946147	6.25182	0.0869465	8.27498	0.0162163	-0.0321274	-0.0116813	-0.897949	0.0124512	-0.514404	0.207427	-0.712701	-0.106281	-0.661616	9.60327	-1.71949	-0.281701	-0.0538318	0.0453978	-0.0136984	-0.946533	0.413818	0.561768	0.0404446	-0.724538	-0.684073	0.0738452	-0.510993	-1.64581	-9.00095	0.0137852	0.0110809	-0.018493	0.588135	0.206299	1.0918	-0.154499	-0.745153	0.035159	-0.647797	9.50669	1.65537	-1.10289	0.05949	0.0174881	0.00953102	-0.892822	-0.317871	0.554199	0.210249	-0.94101	-0.246492	0.0976603	-0.769638	-4.41275	-8.66162	0.0201003	0.0102273	-0.0076209	0.456543	0.43457	0.850586	
2	0.184957	0.668913	0.23887	-0.679181	-9.64537	-0.603012	-0.0815819	-0.0301217	-0.0163669	0.00196859	1.0708	0.246826	-0.22168	0.067348	0.106656	0.0536117	-0.990563	-2.06739	-0.685622	9.84853	-0.0328861	0.0249489	0.00162086	-0.0297852	0.0432129	-0.952148	0.427348	-0.518768	-0.364212	-0.644673	9.75941	0.302532	1.86959	-0.00682885	0.0216506	-0.0196504	-1.06567	0.299316	-0.0187988	0.27942	-0.633644	-0.337956	-0.637342	9.80001	0.626074	-0.177222	0.0076932	0.0290325	0.0063055	-0.992676	0.317383	0.316162	-0.564247	-0.315099	0.63713	-0.420003	9.69003	-1.76752	-0.0406369	0.0247249	0.0131112	-0.00614594	-1.03296	-0.15918	-0.102051	0.161206	-0.515251	-0.170913	-0.824208	9.73485	1.38467	4.35489	0.0311431	0.0209165	-0.0165604	-0.950439	-0.443604	0.00219727	0.0576037	-0.318772	-0.0275431	-0.945678	6.35007	0.0352223	8.35971	-0.0330961	-0.043272	0.0119459	-0.899902	0.00585938	-0.507812	0.20672	-0.71256	-0.105276	-0.66215	9.6813	-1.66708	-0.326513	-0.0692829	0.0345288	-0.0113178	-0.950684	0.413818	0.564209	0.0405678	-0.724355	-0.684249	0.0739369	-0.516346	-1.65282	-8.9692	0.0123984	-0.00110374	-0.02021	0.590088	0.213135	1.09375	-0.154319	-0.745061	0.0351103	-0.647948	9.58199	1.69998	-1.04062	-0.00499995	0.0167735	0.00815859	-0.897461	-0.313477	0.553955	0.210942	-0.940814	-0.246628	0.0977115	-0.788084	-4.40753	-8.6618	0.0191566	0.00440604	-0.00705718	0.45874	0.43457	0.848389	
3	0.185573	0.668461	0.239999	-0.67906	-9.65845	-0.642938	-0.0494774	-0.0512298	-0.00803161	-0.0171471	1.0686	0.246826	-0.22583	0.0680744	0.106934	0.0537849	-0.990474	-2.09555	-0.788912	9.83935	-0.0115627	0.0280032	0.0134153	-0.0297852	0.0473633	-0.952393	0.427991	-0.51796	-0.364707	-0.644616	9.75479	0.151582	1.8874	0.0543047	0.0211331	0.00430853	-1.06128	0.294678	-0.0141602	0.279875	-0.633309	-0.337994	-0.637456	9.80321	0.906261	-0.467856	0.00845391	0.0204818	-0.00242647	-0.992432	0.312988	0.30957	-0.564238	-0.315321	0.636794	-0.420359	9.74842	-1.81261	-0.0292377	0.031326	0.0115891	-0.0209561	-1.02393	-0.167969	-0.0996094	0.161493	-0.5151	-0.171649	-0.824092	9.78568	1.34556	4.28202	0.0346014	0.00958513	-0.0213453	-0.948486	-0.439209	0.00219727	0.0579157	-0.320083	-0.0267176	-0.94524	6.30444	0.0227632	8.31188	-0.00677951	-0.0482451	0.00849727	-0.904541	0.0144043	-0.503662	0.206044	-0.712589	-0.104605	-0.662436	9.60908	-1.42955	-0.267814	-0.0151984	0.0196522	-0.0284287	-0.944336	0.416016	0.566406	0.0404533	-0.72441	-0.684207	0.0738516	-0.505993	-1.64101	-9.03546	0.00433178	0.00354497	-0.019134	0.592773	0.204102	1.0896	-0.154431	-0.745048	0.0352536	-0.647928	9.52007	1.63107	-0.992149	-0.00200691	0.00479468	-0.000264639	-0.891113	-0.309082	0.558594	0.211031	-0.940778	-0.246657	0.0977887	-0.777041	-4.41446	-8.64722	0.0018676	0.00404726	-1.9452e-05	0.456787	0.432373	0.841553	
4	0.186829	0.668206	0.241023	-0.678605	-9.65557	-0.701427	-0.039475	-0.0704126	0.00815172	0.0181622	1.073	0.249023	-0.228027	0.0687175	0.107208	0.0538377	-0.990397	-2.08908	-0.741576	9.8698	-0.00978941	0.0183644	0.0170636	-0.0319824	0.0432129	-0.952148	0.428261	-0.51753	-0.364887	-0.644681	9.769	0.374314	1.93024	0.0192094	0.0156938	-0.00399485	-1.06348	0.299072	-0.0234375	0.279556	-0.633107	-0.337511	-0.638052	9.78717	0.696664	-0.165696	-0.0235519	0.0284335	-0.00011325	-0.994629	0.312988	0.311768	-0.564234	-0.315581	0.636539	-0.420554	9.68691	-1.82453	-0.0501713	0.0153321	0.00844967	-0.0125644	-1.02832	-0.165771	-0.0996094	0.16177	-0.514865	-0.172477	-0.824012	9.7789	1.21636	4.41893	0.0537631	0.0211254	-0.0272073	-0.948486	-0.441406	0.00439453	0.0583174	-0.320928	-0.0261341	-0.944945	6.35101	0.0732519	8.29956	-0.0057633	-0.00919492	0.0117468	-0.906738	0.0124512	-0.505859	0.205277	-0.712846	-0.104017	-0.66249	9.61917	-1.73759	-0.323376	-0.0164186	0.00842048	-0.0174676	-0.952881	0.411621	0.564209	0.0403912	-0.724427	-0.684195	0.0738331	-0.504411	-1.65791	-8.99093	0.00823413	0.00184062	-0.0212773	0.590332	0.206299	1.08716	-0.154102	-0.745077	0.0349082	-0.647992	9.58942	1.70992	-1.04008	0.0277441	0.0173207	-0.000235409	-0.899658	-0.313477	0.551758	0.211212	-0.940706	-0.246721	0.0979282	-0.782683	-4.41549	-8.65702	0.0176493	0.00189288	-0.00871707	0.454102	0.438965	0.852783	
5	0.188244	0.668127	0.241672	-0.67806	-9.66902	-0.812338	-0.123968	-0.0542532	-0.00290624	0.0209722	1.06885	0.244629	-0.223633	0.0693446	0.107184	0.054225	-0.990335	-2.10547	-0.709908	9.86289	-0.0292313	0.00928926	0.00353047	-0.0297852	0.0454102	-0.949951	0.428604	-0.516975	-0.365032	-0.644815	9.80548	0.329034	1.84463	0.000161131	0.0205694	-0.00933427	-1.06128	0.296875	-0.0209961	0.27977	-0.632788	-0.337466	-0.638298	9.86641	0.787354	-0.3294	0.00419883	0.0199572	0.00374116	-0.988281	0.321777	0.313721	-0.563748	-0.316148	0.636288	-0.42116	9.80232	-1.48386	0.0259708	0.0230805	-0.00261612	-0.0212406	-1.02393	-0.170166	-0.106445	0.161884	-0.51467	-0.172841	-0.824035	9.79056	1.47612	4.18964	0.0108247	0.0180294	-0.01614	-0.946289	-0.443604	0.00219727	0.0587068	-0.321919	-0.025606	-0.944598	6.33272	0.109885	8.31846	-0.00488565	-0.031333	0.0089939	-0.900391	0.0187988	-0.493164	0.206141	-0.712578	-0.104866	-0.662376	9.70707	-1.59359	-0.405035	0.0493829	0.0249006	-0.0166672	-0.950928	0.416016	0.55957	0.0403912	-0.724427	-0.684195	0.0738331	-0.504411	-1.65791	-8.99093	0.00823413	0.00184062	-0.0212773	0.590332	0.206299	1.08716	-0.154155	-0.744883	0.0348767	-0.648205	9.53491	1.76605	-1.06874	-0.0130664	0.0161838	0.000185327	-0.893311	-0.309082	0.553955	0.211594	-0.940586	-0.246772	0.0981337	-0.78841	-4.43017	-8.61347	0.0125303	0.00352541	-0.00295114	0.458984	0.432373	0.848389	
6	0.188597	0.66863	0.24231	-0.677237	-9.78054	-0.923353	-0.0665152	-0.0182159	0.0446986	-0.00672852	1.07544	0.242432	-0.217285	0.06972	0.106726	0.0548321	-0.990324	-2.11563	-0.817336	9.87726	-0.054746	0.00857202	-0.00794786	-0.0253906	0.0454102	-0.95459	0.428941	-0.516527	-0.365158	-0.644879	9.7071	0.239363	1.99018	0.0475806	0.0288696	0.00760439	-1.06104	0.28833	-0.0163574	0.280049	-0.632517	-0.337394	-0.638482	9.76898	0.881783	-0.168645	-0.000833384	0.0220181	-0.00263851	-0.999512	0.321777	0.311523	-0.563818	-0.316346	0.63635	-0.420824	9.66053	-1.90433	-0.0543314	-9.73879e-05	-0.00232712	-0.02777	-1.02612	-0.167969	-0.102051	0.161705	-0.514621	-0.172823	-0.824105	9.75117	1.30832	4.34916	-0.00324122	0.00865893	-0.01448	-0.950684	-0.441406	0.00854492	0.0589333	-0.322492	-0.0252222	-0.944399	6.35856	0.0488628	8.3697	0.0170694	-0.0195384	-0.00163618	-0.906738	0.012207	-0.497314	0.205398	-0.712349	-0.10427	-0.662947	9.67133	-1.45911	-0.33553	-0.0345418	0.0314834	-0.0177548	-0.954834	0.409424	0.56665	0.0405179	-0.724085	-0.684544	0.0738829	-0.503468	-1.66152	-8.98215	0.00954802	0.00192395	-0.0217282	0.585693	0.208496	1.08936	-0.154234	-0.744974	0.0349333	-0.648078	9.54353	1.69761	-0.989081	0.00701593	0.00097044	-0.000726411	-0.899902	-0.311279	0.553955	0.211607	-0.940578	-0.246783	0.0981514	-0.784433	-4.44463	-8.64095	0.00318024	0.00679891	-0.003751	0.451904	0.436768	0.850586	
7	0.188276	0.668927	0.242768	-0.676869	-9.7069	-0.903875	0.0199327	-0.011604	0.0121325	-0.00798969	1.0708	0.249023	-0.223877	0.0697974	0.106508	0.0545498	-0.990358	-1.91192	-0.635751	9.92694	4.1662e-05	0.0229492	-0.0236575	-0.0322266	0.0517578	-0.954834	0.428473	-0.516682	-0.364894	-0.645216	9.68884	0.366777	1.87233	-0.050171	-0.00670282	-0.0134693	-1.06348	0.294922	-0.0256348	0.280316	-0.632404	-0.337489	-0.638427	9.71661	0.684942	-0.358293	0.0255022	0.0129723	0.00697353	-0.992676	0.321777	0.304932	-0.563437	-0.316737	0.636246	-0.421197	9.76494	-1.60202	-0.0104331	0.0250822	-0.00468964	-0.00368464	-1.03052	-0.165771	-0.0996094	0.161929	-0.514612	-0.173323	-0.823961	9.70702	1.46233	4.24638	0.0215727	0.0136791	-0.0141623	-0.948242	-0.443604	0.0065918	0.0591309	-0.321298	-0.0265939	-0.944756	6.67589	0.241136	8.48677	0.0880593	0.136542	-0.0324817	-0.900391	0.0166016	-0.503906	0.205811	-0.712389	-0.104641	-0.662717	9.67484	-1.68771	-0.343111	0.0524461	0.0127251	-0.0133813	-0.94873	0.413818	0.55957	0.0404867	-0.724103	-0.684526	0.0738954	-0.516649	-1.65782	-8.99346	0.0100932	0.00111719	-0.0192164	0.590088	0.213135	1.08716	-0.153922	-0.745082	0.0346737	-0.648042	9.54532	1.69293	-1.08774	0.0307813	0.00753383	0.0014199	-0.891113	-0.309082	0.551758	0.211751	-0.94053	-0.246757	0.0983615	-0.778634	-4.44727	-8.59923	0.0114405	-0.00173221	0.000894293	0.454346	0.436768	0.848389	
8	0.187735	0.668861	0.242427	-0.677207	-9.67865	-1.07184	-0.178025	0.0495796	-0.0114139	-0.012644	1.07324	0.244629	-0.219482	0.0689018	0.107051	0.0546785	-0.990355	-2.09029	-0.742404	9.8673	-0.00842753	0.032198	-0.0569101	-0.0300293	0.0495605	-0.950195	0.428072	-0.517141	-0.364736	-0.645204	9.85071	0.352808	2.00305	-0.0296273	-0.000255546	-0.00353711	-1.06763	0.297119	-0.0187988	0.280357	-0.632529	-0.337453	-0.638305	9.76123	0.901146	-0.349601	0.00169292	-0.00307369	0.00496895	-0.992432	0.315186	0.305176	-0.564094	-0.314983	0.637373	-0.419928	9.75128	-1.79111	0.0164221	-0.107853	0.0208851	-0.00283289	-1.02832	-0.163574	-0.104248	0.161929	-0.514612	-0.173323	-0.823961	9.70702	1.46233	4.24638	0.0215727	0.0136791	-0.0141623	-0.948242	-0.443604	0.0065918	0.0592388	-0.32158	-0.0281387	-0.944608	6.33149	0.201695	8.17649	0.138064	-0.0180839	-0.0450726	-0.899902	0.00366211	-0.499268	0.206116	-0.712204	-0.104989	-0.662766	9.78216	-1.6289	-0.333365	0.0444219	0.0243078	-0.0247941	-0.946533	0.413818	0.564209	0.0404867	-0.724103	-0.684526	0.0738954	-0.516649	-1.65782	-8.99346	0.0100932	0.00111719	-0.0192164	0.590088	0.213135	1.08716	-0.153915	-0.745045	0.0346809	-0.648086	9.56395	1.71849	-1.03501	0.0043502	0.0144894	0.0030591	-0.895264	-0.313477	0.553955	0.21184	-0.940483	-0.24682	0.0984622	-0.799433	-4.43486	-8.62175	0.00628055	0.00492249	-0.00779275	0.454102	0.438965	0.848389	
9	0.185822	0.669279	0.240862	-0.67788	-9.70924	-0.857648	-0.074953	0.11636	-0.00535374	-0.00735114	1.0752	0.249023	-0.22168	0.0679471	0.106998	0.0546359	-0.990429	-2.06792	-0.798425	9.86785	-0.00972281	0.0229756	-0.0563943	-0.0297852	0.0476074	-0.947754	0.427749	-0.517348	-0.364302	-0.645496	9.77714	0.346373	1.97033	-0.0464486	0.0114724	-0.00241063	-1.06543	0.292725	-0.0187988	0.279946	-0.632964	-0.336972	-0.638307	9.84589	0.638625	-0.233119	-0.0192559	-0.00515623	0.0143471	-0.992676	0.321777	0.309326	-0.563929	-0.314288	0.637987	-0.419738	9.68951	-1.62307	-0.0851243	-0.0363067	-0.00430472	0.00969485	-1.02637	-0.161377	-0.0996094	0.161732	-0.514701	-0.171628	-0.824299	9.80025	1.21402	4.2445	-0.0190376	0.0171604	0.00869147	-0.948242	-0.447998	0.00463867	0.0592835	-0.320677	-0.0308461	-0.944828	6.30076	0.0857991	8.26936	0.116401	0.0602231	-0.0471405	-0.899902	0.00805664	-0.499268	0.207102	-0.711592	-0.105596	-0.66302	9.56343	-1.46617	-0.330704	0.065725	0.0277793	-0.010565	-0.946289	0.411865	0.55249	0.0408872	-0.723569	-0.685061	0.0739454	-0.519571	-1.65594	-9.00422	0.00879262	0.00442865	-0.0213476	0.587891	0.210938	1.08936	-0.153202	-0.745135	0.0343302	-0.64817	9.52473	1.85483	-1.00096	0.0545831	0.01437	0.0129591	-0.897705	-0.311279	0.556396	0.211804	-0.94051	-0.246755	0.0984507	-0.782424	-4.4306	-8.63014	-0.00150399	0.0064383	0.000258952	0.456299	0.443359	0.845947	
10	0.184866	0.669411	0.239832	-0.678377	-9.64753	-0.660529	-0.0663188	0.119185	-0.0189787	-0.00206251	1.07544	0.242432	-0.221436	0.0675112	0.107169	0.0546638	-0.990439	-2.07269	-0.891054	9.83021	-0.00864187	0.0324952	-0.0520757	-0.0297852	0.045166	-0.95459	0.427385	-0.517814	-0.363525	-0.645802	9.72907	0.091191	1.93854	-0.0161675	0.00776953	0.0131265	-1.06348	0.292725	-0.0209961	0.279237	-0.633254	-0.336506	-0.638577	9.76893	0.748141	-0.332718	-0.0427935	0.000292098	-0.0154765	-0.992676	0.317383	0.311768	-0.56413	-0.313554	0.638513	-0.419216	9.74682	-1.84267	-0.0623821	-0.0820596	0.00733051	0.00558278	-1.02832	-0.163574	-0.102051	0.161914	-0.514676	-0.170928	-0.824425	9.77521	1.30303	4.38261	-0.013289	0.0266855	0.00230949	-0.950439	-0.443604	0.00219727	0.059068	-0.320174	-0.0328353	-0.944945	6.4155	0.0686602	8.35604	0.0802594	0.0328101	-0.0523755	-0.901855	0.00366211	-0.51001	0.206916	-0.711824	-0.105356	-0.662867	9.70574	-1.54343	-0.220502	-0.0424549	0.0063018	-0.0148083	-0.952637	0.409424	0.55957	0.0407913	-0.723619	-0.685021	0.0738743	-0.520176	-1.65527	-9.01898	0.00163855	0.00276324	-0.0169996	0.590088	0.213135	1.08716	-0.153274	-0.744952	0.0346967	-0.648344	9.57545	1.72172	-1.04024	-0.0101302	0.0128164	0.0112186	-0.895264	-0.313477	0.551758	0.211804	-0.94051	-0.246755	0.0984507	-0.782424	-4.4306	-8.63014	-0.00150399	0.0064383	0.000258952	0.456299	0.443359	0.845947	
11	0.183933	0.669697	0.238322	-0.67888	-9.64446	-0.558617	-0.0929147	0.0545088	-0.00927873	0.0161438	1.0708	0.246826	-0.223633	0.0666341	0.107067	0.0543073	-0.990529	-2.11785	-0.850364	9.84033	0.0139781	0.00330749	-0.0536022	-0.0319824	0.0432129	-0.95459	0.426682	-0.518545	-0.362756	-0.646113	9.61496	0.326219	1.8912	-0.0661142	-0.0147073	-0.00111784	-1.06128	0.29248	-0.0163574	0.27809	-0.63376	-0.336101	-0.638788	9.66111	0.929078	-0.323292	-0.0528515	-0.0178291	-0.0121089	-0.992188	0.310791	0.313965	-0.564147	-0.312684	0.638929	-0.41921	9.75849	-1.69036	-0.0650338	-0.0274615	0.0126388	0.0144439	-1.02856	-0.15918	-0.104248	0.162315	-0.514421	-0.17061	-0.824571	9.7973	1.28188	4.29254	-0.00702826	0.0329879	0.00253779	-0.952881	-0.441406	0.00439453	0.0584661	-0.317892	-0.0334862	-0.94573	6.25383	0.179435	8.15809	0.0713639	0.104475	-0.0558533	-0.899658	0.00146484	-0.507812	0.206285	-0.712036	-0.10475	-0.662932	9.61864	-1.86727	-0.398906	-0.00221755	0.0131095	-0.0223079	-0.944092	0.409668	0.557129	0.0409487	-0.723474	-0.685159	0.0739292	-0.53364	-1.65701	-8.99346	0.0178752	0.00629582	-0.0221308	0.590088	0.215576	1.08716	-0.153323	-0.74484	0.0348386	-0.648453	9.56491	1.61474	-1.01317	0.00436669	0.0138137	0.00496216	-0.891113	-0.309082	0.553955	0.21208	-0.940449	-0.246768	0.0984002	-0.761125	-4.45081	-8.62448	0.00115901	0.00655731	-0.00203222	0.458496	0.441162	0.850586	
12	0.1838	0.669818	0.23751	-0.679081	-9.67325	-0.775923	-0.0786513	0.0273586	-0.0111315	0.013274	1.07104	0.242432	-0.22583	0.0656482	0.106852	0.0537707	-0.990647	-2.05274	-0.650146	9.96942	0.000328733	0.013964	-0.055827	-0.029541	0.0388184	-0.949707	0.425957	-0.519277	-0.362452	-0.646174	9.86097	0.205958	1.94511	-0.0338536	-0.0206778	-0.00261599	-1.06128	0.299072	-0.0166016	0.276839	-0.634476	-0.335562	-0.638904	10.0228	0.749633	-0.111327	-0.0389307	-0.0177047	-0.0173016	-0.994385	0.310791	0.316162	-0.564051	-0.312062	0.639391	-0.419098	9.65647	-1.93245	-0.0704528	-0.00112849	0.000548073	0.00264823	-1.02856	-0.161377	-0.108887	0.162739	-0.51415	-0.170098	-0.824762	9.70437	1.20575	4.3648	-0.00128407	0.0345361	0.00466593	-0.948486	-0.439209	0	0.0577958	-0.315983	-0.0336338	-0.946405	6.37322	0.200783	8.33961	0.0245953	0.0851928	-0.0408064	-0.895264	-0.00268555	-0.513916	0.207084	-0.711514	-0.105165	-0.663178	9.67624	-1.41175	-0.232995	0.0233033	0.0407154	-0.0148497	-0.953125	0.416016	0.55957	0.0408878	-0.723497	-0.685139	0.0739243	-0.507188	-1.65906	-9.01903	0.0084186	-0.000290119	-0.0215348	0.585449	0.210938	1.08716	-0.153158	-0.744754	0.0346827	-0.648599	9.55455	1.6859	-1.03488	-0.00521644	0.0147042	0.00391265	-0.9021	-0.309326	0.553955	0.21166	-0.940563	-0.246675	0.0984545	-0.800795	-4.43271	-8.60358	-0.0206222	0.00221882	0.00708411	0.456543	0.436768	0.850586	
13	0.182802	0.669865	0.237162	-0.679425	-9.69164	-0.712029	-0.0286238	0.0447831	-0.00375169	-0.0326323	1.06665	0.244629	-0.22168	0.0650947	0.106971	0.0543753	-0.990638	-2.0952	-0.812139	9.87949	-0.0306417	0.0231994	-0.0379279	-0.0275879	0.0454102	-0.95459	0.425465	-0.519319	-0.362256	-0.646574	9.63058	0.235271	1.84992	-0.00209208	0.0102719	-0.0148611	-1.06128	0.299072	-0.0119629	0.276901	-0.634347	-0.335671	-0.638948	9.66178	0.731785	-0.436522	0.0238143	0.0115272	0.00300184	-0.992676	0.317383	0.313965	-0.563894	-0.312021	0.639394	-0.419336	9.68602	-1.86559	-0.107629	0.00734908	0.00382969	0.00182094	-1.02856	-0.161377	-0.102051	0.163087	-0.513738	-0.170013	-0.824967	9.78794	1.25378	4.30824	0.0132807	0.0343931	-0.0112982	-0.948486	-0.441406	-0.00219727	0.0576356	-0.313818	-0.0339077	-0.947126	6.25043	0.166386	8.42655	0.0468694	0.107468	-0.0269402	-0.895264	-0.00268555	-0.516113	0.206939	-0.711711	-0.105135	-0.663016	9.54589	-1.64231	-0.33579	0.0202428	-0.0174889	-0.0214641	-0.946533	0.416016	0.564209	0.0407809	-0.723529	-0.685117	0.0738791	-0.51801	-1.6685	-8.97267	0.00410979	0.00404043	-0.0188941	0.585938	0.20166	1.0896	-0.153406	-0.744614	0.0349104	-0.648689	9.52922	1.70844	-1.06395	-0.0056551	0.0189842	0.00417565	-0.897461	-0.313477	0.544922	0.21149	-0.940611	-0.246644	0.0984392	-0.795354	-4.43296	-8.64399	-0.0116364	0.00556858	0.00141314	0.456543	0.43457	0.848389	
14	0.182106	0.669587	0.237118	-0.679901	-9.61192	-0.687331	-0.114907	0.017185	-0.0171454	-0.0151038	1.0752	0.246826	-0.223633	0.0643441	0.107718	0.0543255	-0.990609	-2.09748	-0.767388	9.91032	0.00144961	0.0395319	-0.0368646	-0.0253906	0.0454102	-0.95459	0.42559	-0.519539	-0.362286	-0.646298	9.76347	0.337648	1.85975	0.000278991	-0.0158173	0.0097489	-1.06543	0.292725	-0.0163574	0.276542	-0.634364	-0.336051	-0.638887	9.81963	0.895919	-0.332873	-0.00666374	-0.0104439	-0.0210564	-0.996582	0.308594	0.311768	-0.563894	-0.312021	0.639394	-0.419336	9.68602	-1.86559	-0.107629	0.00734908	0.00382969	0.00182094	-1.02856	-0.161377	-0.102051	0.163362	-0.513408	-0.169935	-0.825135	9.75115	1.36956	4.42131	0.0011316	0.0295042	-0.00704335	-0.94873	-0.437012	0.00195312	0.0573113	-0.31263	-0.034155	-0.947529	6.2097	0.263454	8.29774	0.00836165	0.0605566	-0.0330578	-0.895264	-0.00268555	-0.516113	0.205367	-0.71229	-0.10376	-0.6631	9.69259	-1.53901	-0.205902	-0.122344	0.0374308	-0.0134764	-0.950928	0.416016	0.566406	0.0406749	-0.723567	-0.685087	0.0738384	-0.516034	-1.64791	-9.02389	0.00720822	0.000598514	-0.0214931	0.585449	0.210938	1.09375	-0.153431	-0.744459	0.0347152	-0.648872	9.57992	1.62485	-1.00618	0.0233347	0.024132	-0.00504961	-0.899902	-0.311279	0.551758	0.211137	-0.940724	-0.24662	0.098175	-0.794343	-4.43078	-8.64004	-0.0104606	0.00696886	-0.000413695	0.45874	0.436768	0.853027	
15	0.18143	0.669927	0.236826	-0.679849	-9.65562	-0.739273	-0.0898238	0.036631	0.0201889	-0.00803048	1.0686	0.246826	-0.228027	0.0639129	0.107824	0.0541807	-0.990633	-2.15953	-0.669489	9.8171	-0.00978203	0.00613123	-0.0351464	-0.0253906	0.0432129	-0.957031	0.425044	-0.519797	-0.362249	-0.646471	9.79794	0.350282	1.9481	-0.0155892	0.00102509	-0.0179188	-1.06128	0.294678	-0.0163574	0.276236	-0.634509	-0.336094	-0.638853	9.86372	0.769106	-0.120823	-0.0132629	-0.00388362	-0.000624037	-0.991943	0.306396	0.318359	-0.564545	-0.310624	0.640057	-0.418484	9.7326	-2.03584	-0.0778077	-0.0353523	0.0140857	0.0025233	-1.02661	-0.156982	-0.102051	0.163582	-0.513094	-0.169813	-0.825311	9.7916	1.20859	4.38721	0.0178855	0.0310588	-0.0124064	-0.94873	-0.435059	-0.000244141	0.0569487	-0.310565	-0.0337242	-0.948245	6.06925	0.333043	8.2344	-0.00707967	0.123762	-0.024278	-0.888672	-0.00268555	-0.526855	0.2042	-0.712465	-0.102516	-0.663466	9.69792	-1.7411	-0.323512	-0.023005	0.0246689	-0.0173685	-0.957031	0.411621	0.571289	0.0405037	-0.723583	-0.685079	0.0738553	-0.516972	-1.65826	-9.00806	0.00742613	-0.00149883	-0.0217089	0.590088	0.210938	1.08936	-0.15325	-0.744304	0.0345611	-0.649101	9.50729	1.83024	-1.00011	-0.00211598	0.0168405	0.00823549	-0.895264	-0.313477	0.549561	0.211008	-0.940762	-0.246567	0.098226	-0.793797	-4.43296	-8.64365	-0.00339893	0.00123998	0.00249211	0.45874	0.438965	0.848389	
16	0.1809	0.670424	0.236291	-0.679686	-9.7647	-0.728639	0.0190349	0.0275128	0.0103715	0.00995648	1.07349	0.238281	-0.230225	0.0636805	0.107598	0.0541288	-0.990675	-2.0792	-0.729664	9.87632	-0.00621834	-0.00102663	-0.0372462	-0.0256348	0.0476074	-0.949951	0.424821	-0.519836	-0.361993	-0.64673	9.72659	0.228067	1.90037	-0.0269119	0.0153157	-0.00837339	-1.06128	0.299072	-0.00976562	0.276141	-0.634576	-0.335986	-0.638884	9.78434	0.634276	-0.453438	-0.00861215	0.00303637	0.00240416	-0.992432	0.315186	0.316162	-0.564379	-0.310743	0.639905	-0.41885	9.71616	-1.75189	-0.0170216	0.033729	0.0126822	-0.00255149	-1.02441	-0.154541	-0.106689	0.163796	-0.512916	-0.169962	-0.825349	9.72756	1.36857	4.35432	0.0227909	0.0281706	-0.0115294	-0.94873	-0.435059	-0.00439453	0.056764	-0.309846	-0.0335721	-0.948497	6.15618	0.316162	8.31501	0.00606179	0.0748947	-0.027695	-0.884521	-0.00268555	-0.520264	0.204538	-0.71231	-0.102713	-0.663497	9.66464	-1.62049	-0.358016	0.0385537	0.0247285	-0.0137135	-0.946045	0.407227	0.568848	0.0403945	-0.723605	-0.685062	0.0738529	-0.516513	-1.65988	-9.00779	0.00448522	-0.0021331	-0.0201489	0.594727	0.210938	1.08936	-0.153427	-0.744254	0.0347751	-0.649105	9.55275	1.68939	-1.01038	-0.0166951	0.0107401	0.00558149	-0.895264	-0.311279	0.551758	0.211223	-0.94068	-0.246646	0.098343	-0.801233	-4.42149	-8.6202	0.0121929	0.00779273	-0.00622225	0.45874	0.436768	0.855225	
17	0.180471	0.670201	0.235597	-0.680261	-9.79116	-0.692306	-0.0574001	0.0350766	-0.0353481	-0.00405696	1.0686	0.246826	-0.22583	0.0628122	0.108196	0.0541988	-0.990662	-2.12871	-0.694129	9.80334	-0.00913614	0.0252938	-0.030147	-0.0253906	0.0432129	-0.952148	0.42475	-0.520182	-0.361532	-0.646755	9.68743	0.285613	1.6842	0.0108434	-0.00981871	0.0114481	-1.06348	0.296875	-0.0187988	0.276269	-0.634491	-0.336405	-0.638692	9.72885	1.02465	-0.376835	0.0170377	-0.00563666	-0.0065135	-0.994629	0.312988	0.320557	-0.564901	-0.309546	0.640607	-0.417961	9.71044	-1.96079	-0.0908931	-0.0789556	0.0165537	-0.00310391	-1.02881	-0.154785	-0.102051	0.163696	-0.512867	-0.169371	-0.825521	9.78593	1.25666	4.37713	-0.0187621	0.0200191	-0.0093648	-0.94873	-0.437256	-0.00219727	0.0564956	-0.308998	-0.0336922	-0.948785	6.20877	0.243849	8.53564	0.00941533	0.0502938	-0.0254465	-0.891113	-0.000488281	-0.524658	0.20505	-0.711987	-0.102682	-0.66369	9.65622	-1.49169	-0.287498	0.0340769	0.0324179	-0.00526477	-0.952637	0.407227	0.564209	0.0403517	-0.723648	-0.685026	0.0737807	-0.503137	-1.63466	-9.00512	0.00702596	0.00465676	-0.0204785	0.590088	0.210938	1.09155	-0.153283	-0.744444	0.0347317	-0.648923	9.5434	1.69193	-1.0305	0.026365	-0.0012579	0.000475794	-0.9021	-0.311523	0.553955	0.211375	-0.940622	-0.246732	0.0983595	-0.789549	-4.44982	-8.64491	0.00896651	0.00773414	-0.00459687	0.454346	0.436768	0.848389	
18	0.179751	0.669505	0.235277	-0.681247	-9.63849	-0.566098	-0.0380999	0.0293849	-0.038396	-0.0327877	1.07104	0.242432	-0.230225	0.0628216	0.107899	0.0544478	-0.99068	-2.17865	-0.751773	9.89406	-0.00821724	-0.0158481	-0.0143692	-0.0319824	0.0473633	-0.954834	0.424359	-0.520288	-0.36186	-0.646744	9.85374	0.331891	1.89632	-0.0145545	-0.0017041	-0.0212585	-1.06348	0.294922	-0.0163574	0.276305	-0.634751	-0.336303	-0.638472	9.90957	0.706327	-0.157637	-0.00223533	-0.00591357	0.0157762	-0.999023	0.310791	0.316162	-0.565181	-0.30898	0.64089	-0.417566	9.67347	-1.9789	-0.0250404	-0.047037	0.01883	-0.0078128	-1.02661	-0.152344	-0.108887	0.163727	-0.51284	-0.169155	-0.825576	9.74539	1.2405	4.45703	-0.000449774	0.0151948	-0.011495	-0.946533	-0.437012	-0.00219727	0.0563165	-0.307811	-0.0333915	-0.949192	6.00429	0.208304	8.50748	0.00978228	0.0469582	-0.0171063	-0.891113	-0.000488281	-0.529053	0.205123	-0.7125	-0.102547	-0.663139	9.64967	-1.55801	-0.295878	-0.014493	-0.0272971	-0.00844865	-0.946289	0.411621	0.561768	0.0403687	-0.723658	-0.685018	0.0737518	-0.506924	-1.67021	-9.01456	0.0103623	0.00616185	-0.0218195	0.587891	0.20874	1.08716	-0.153	-0.744401	0.0346665	-0.649043	9.54922	1.70954	-1.02536	0.00276589	0.0169977	0.0110706	-0.897705	-0.306885	0.553955	0.211418	-0.940616	-0.246701	0.0984022	-0.783242	-4.432	-8.63558	0.00634988	0.00456107	-0.000948496	0.45874	0.436768	0.850586	
19	0.179738	0.66924	0.23548	-0.681441	-9.62467	-0.52324	0.0411163	-0.00997312	-0.0242015	-0.0202271	1.0708	0.251221	-0.234619	0.0628216	0.107899	0.0544478	-0.99068	-2.17865	-0.751773	9.89406	-0.00821724	-0.0158481	-0.0143692	-0.0319824	0.0473633	-0.954834	0.425014	-0.519774	-0.36219	-0.646542	9.75207	0.285706	1.85964	0.050472	0.0224021	0.0125935	-1.06348	0.299072	-0.0212402	0.276353	-0.634683	-0.33644	-0.638447	9.73675	0.681685	-0.373298	0.0214634	0.00892318	-0.0089499	-0.994385	0.308594	0.320557	-0.564847	-0.309541	0.640743	-0.417829	9.65078	-1.62666	0.0596021	0.0435696	-0.0191281	-0.0243891	-1.02661	-0.156982	-0.104248	0.163838	-0.512859	-0.16981	-0.825408	9.72354	1.24088	4.432	0.0386908	0.00536582	-0.0255654	-0.94873	-0.435059	0.00195312	0.0562126	-0.307703	-0.032951	-0.949249	6.29405	0.312797	8.62375	-0.00987596	-0.016477	-0.00642904	-0.893066	-0.00268555	-0.528809	0.205024	-0.712547	-0.102185	-0.663174	9.70372	-1.82685	-0.201091	-0.00903407	0.0262084	-0.0105335	-0.955078	0.411621	0.561768	0.0403545	-0.723498	-0.685188	0.0737542	-0.512666	-1.68003	-8.95454	0.00731378	-0.00139269	-0.0239377	0.590088	0.213135	1.09375	-0.153213	-0.744437	0.0348044	-0.648944	9.5691	1.6113	-1.08515	-0.0107473	0.000558327	-0.00351172	-0.899902	-0.311279	0.551758	0.211573	-0.940585	-0.246695	0.0983822	-0.780555	-4.43471	-8.63944	0.00694804	0.00598161	-0.00188878	0.454346	0.436768	0.853027	
20	0.180117	0.668469	0.235925	-0.681943	-9.50348	-0.76168	-0.0987131	-0.0180576	-0.0386578	-0.0149897	1.07104	0.244629	-0.230225	0.062661	0.108746	0.0548133	-0.990577	-2.09633	-0.60332	9.83487	-0.0340897	0.0579575	-0.0236693	-0.0275879	0.0454102	-0.95459	0.425459	-0.519517	-0.362578	-0.646238	9.83383	0.337459	1.89881	0.049425	0.00752817	-0.00335367	-1.06323	0.292725	-0.0163574	0.276925	-0.634566	-0.336666	-0.638196	9.86587	0.995506	-0.110777	0.0104332	0.00562718	0.0131947	-0.990234	0.312988	0.316162	-0.565307	-0.308225	0.641792	-0.416567	9.60288	-1.93021	0.0758633	-0.0964726	0.0166622	-0.00835301	-1.02222	-0.154785	-0.104248	0.163354	-0.513219	-0.1692	-0.825405	9.60052	1.46151	4.51368	-0.0504575	-0.00032914	-0.0157298	-0.952881	-0.437256	-0.00219727	0.0560087	-0.309011	-0.0298087	-0.94894	6.12477	0.289115	8.34075	-0.117953	-0.0672619	0.0235272	-0.891113	0.00170898	-0.524658	0.206593	-0.712139	-0.103431	-0.662933	9.64235	-1.52999	-0.267834	0.0928683	0.00265186	-0.0176677	-0.950684	0.411621	0.557129	0.0400621	-0.723537	-0.685175	0.0736585	-0.510007	-1.63798	-9.0156	-4.90611e-05	-0.00165597	-0.0213739	0.594727	0.213379	1.08716	-0.152594	-0.74489	0.0340741	-0.648609	9.58224	1.53012	-1.0209	0.0509332	-0.00278795	-0.00757152	-0.897461	-0.315674	0.551758	0.211493	-0.940587	-0.246743	0.0984096	-0.786978	-4.44342	-8.65479	0.00262043	0.00114793	-0.00790635	0.460938	0.436768	0.850586	
21	0.179287	0.668474	0.236688	-0.681893	-9.34252	-0.776767	-0.168678	0.0110092	0.0418752	-0.0517322	1.06616	0.251221	-0.228027	0.0629085	0.109161	0.055543	-0.990475	-2.13512	-0.860362	9.76067	-0.0398241	0.0231401	-0.0047174	-0.0212402	0.0498047	-0.952393	0.426142	-0.518692	-0.362504	-0.646492	9.69282	0.209543	1.84207	-0.000172559	0.0474868	0.00506417	-1.06567	0.297119	-0.0209961	0.277474	-0.634448	-0.336436	-0.638197	9.78049	0.679736	-0.419267	0.0183487	0.0197476	0.0192873	-0.990234	0.315186	0.320557	-0.565755	-0.307614	0.641899	-0.416247	9.8161	-2.09651	-0.0675079	-0.0100576	0.02406	-0.00471794	-1.0249	-0.145752	-0.106689	0.163367	-0.513023	-0.16976	-0.825409	9.93513	0.984883	4.41413	0.0444376	0.0157568	-0.0280251	-0.952637	-0.443604	0	0.0565832	-0.308742	-0.0280665	-0.949046	6.07279	0.0874184	8.23621	0.0085383	0.0527072	0.0233127	-0.88916	0.00805664	-0.529053	0.206811	-0.712312	-0.103917	-0.662602	9.64734	-1.40581	-0.314992	0.0444178	-0.0196377	-0.0276301	-0.950684	0.413818	0.564209	0.0396404	-0.723595	-0.685143	0.0735995	-0.524994	-1.66252	-9.01017	-0.00546405	-0.00711911	-0.0186637	0.585449	0.213135	1.09155	-0.152336	-0.744896	0.0336508	-0.648684	9.51866	1.92662	-1.00718	-0.00213206	0.0154726	-0.00225273	-0.893311	-0.309082	0.549316	0.211446	-0.940517	-0.246906	0.0987714	-0.801975	-4.43073	-8.66719	0.00753069	-0.00937137	-0.0040361	0.458496	0.443359	0.852783	
22	0.178266	0.669974	0.237592	-0.680372	-9.77695	-0.634503	0.0474526	-0.0100232	0.0982641	-0.0112018	1.06812	0.257568	-0.223877	0.0634976	0.108647	0.0552538	-0.99051	-2.07555	-0.838922	9.8279	0.0116064	-0.0132091	0.00906762	-0.0253906	0.0454102	-0.949951	0.427083	-0.518058	-0.362528	-0.646367	9.63777	0.197044	1.79196	0.0495076	0.018601	0.0199849	-1.06348	0.296875	-0.0166016	0.278009	-0.634144	-0.336474	-0.638246	9.64936	0.922237	-0.61465	0.0287931	0.0198979	0.00139954	-0.992676	0.31958	0.320557	-0.565292	-0.308095	0.641721	-0.416793	9.71796	-1.68559	-0.123219	0.0639735	-0.00309727	-0.0219439	-1.02441	-0.152344	-0.108887	0.163687	-0.513032	-0.171149	-0.825054	9.72614	1.35455	4.24313	0.0467152	-0.000703928	-0.0291058	-0.946533	-0.437012	0.00195312	0.0570089	-0.307511	-0.0277764	-0.949429	6.1577	0.0897277	8.4328	0.0194229	0.0583029	-0.00212359	-0.882568	0.00170898	-0.526855	0.206492	-0.712462	-0.104154	-0.662504	9.6234	-1.7099	-0.437752	0.0386673	0.0186353	-0.0144554	-0.948486	0.411621	0.564209	0.0394313	-0.72362	-0.685139	0.0735124	-0.523858	-1.65051	-9.00434	0.00446735	0.00192122	-0.0207473	0.594727	0.213379	1.08496	-0.153373	-0.74483	0.0345845	-0.648467	9.54702	1.54681	-1.06952	-0.0342519	-0.00672471	0.00457392	-0.893066	-0.311279	0.553955	0.212213	-0.940262	-0.247071	0.0991439	-0.804207	-4.44203	-8.62798	0.034916	-0.00478079	-0.00869801	0.458496	0.441162	0.850586	
23	0.179334	0.670682	0.2378	-0.67932	-9.97853	-0.707375	0.0204566	-0.0454868	0.012396	0.045852	1.07495	0.251221	-0.223877	0.0638762	0.108522	0.0549732	-0.990515	-2.14186	-0.745953	9.85826	-0.00276639	0.0126497	-0.0062378	-0.0231934	0.0454102	-0.952393	0.427469	-0.517937	-0.362946	-0.645973	9.81345	0.445365	2.00618	0.0107823	-0.00104633	-0.000843115	-1.06348	0.297119	-0.0234375	0.278095	-0.634177	-0.336425	-0.638201	9.89554	0.888239	-0.0532798	-0.00438736	0.00134499	0.00792835	-0.994629	0.315186	0.316162	-0.565449	-0.308196	0.641693	-0.41655	9.71292	-1.84225	-0.108217	-0.0265679	0.00246785	-0.0284439	-1.02905	-0.147949	-0.108887	0.163616	-0.513179	-0.171508	-0.824901	9.78809	1.2785	4.37195	-0.0110312	0.007765	-0.0263564	-0.950684	-0.439209	-0.00219727	0.057171	-0.307111	-0.0279459	-0.949544	6.16161	0.163753	8.51072	0.0380296	0.0470913	-0.00713712	-0.886963	0.00390625	-0.529053	0.207827	-0.712218	-0.10499	-0.662217	9.67542	-1.38677	-0.21119	0.0536307	0.0141197	-0.00528406	-0.950928	0.418213	0.561768	0.0394548	-0.723668	-0.685099	0.0733934	-0.500981	-1.62825	-9.04568	0.00601775	0.00807191	-0.0225372	0.592529	0.213135	1.09375	-0.152153	-0.745424	0.0337399	-0.648116	9.54732	1.75703	-1.02125	0.0621475	-0.00990336	0.00632214	-0.902344	-0.307129	0.55835	0.212514	-0.940168	-0.247149	0.0991978	-0.807514	-4.45662	-8.61785	0.0201944	0.00716018	-0.00684783	0.456299	0.441162	0.845947	
24	0.180807	0.670443	0.238216	-0.67902	-9.81682	-0.917137	-0.0611862	-0.0489536	-0.00819637	0.0152092	1.073	0.246826	-0.228027	0.0639765	0.108386	0.0549076	-0.990527	-2.17256	-0.694326	9.90799	-0.00757592	0.00489154	-0.0103339	-0.0297852	0.0432129	-0.949951	0.427707	-0.517681	-0.363177	-0.645892	9.80862	0.38911	1.95686	0.0371509	0.0131025	-0.00182089	-1.05908	0.299072	-0.0280762	0.278118	-0.634245	-0.336283	-0.638199	9.86743	0.762182	-0.177811	-0.004005	0.00516371	0.0106231	-0.994629	0.315186	0.318359	-0.565438	-0.308322	0.641709	-0.416445	9.75586	-1.93381	-0.0736951	0.000750012	0.000578202	-0.0259712	-1.02856	-0.161377	-0.104248	0.163578	-0.513256	-0.171653	-0.824831	9.84412	1.17396	4.4046	0.0104169	0.00301158	-0.0230211	-0.948486	-0.441406	0	0.0571946	-0.306412	-0.0283933	-0.949755	6.08526	0.1647	8.45091	0.0284384	0.035348	-0.0129335	-0.884766	0.00390625	-0.53125	0.207567	-0.712383	-0.104763	-0.662156	9.62202	-1.56276	-0.252154	-0.0229312	0.00430301	-0.0171484	-0.950684	0.411621	0.564209	0.0394688	-0.723679	-0.685084	0.0734216	-0.522271	-1.647	-9.02472	0.0130672	0.00271385	-0.0212618	0.587891	0.208496	1.09399	-0.152063	-0.745464	0.0337479	-0.64809	9.53273	1.8658	-1.02067	0.00969966	0.00585743	0.00619838	-0.897705	-0.309082	0.553955	0.212762	-0.940111	-0.247087	0.0993599	-0.803542	-4.46438	-8.62422	0.012661	0.00245456	0.0014596	0.460693	0.441162	0.850586	
25	0.180981	0.670207	0.238667	-0.679048	-9.81509	-0.908514	-0.0766915	-0.0363998	-0.0132061	-0.0203021	1.07056	0.251221	-0.230225	0.0642556	0.108037	0.0549505	-0.990545	-2.10347	-0.774891	9.8309	-0.0120869	0.00405853	-0.00624622	-0.0253906	0.0410156	-0.95459	0.427565	-0.51768	-0.363308	-0.645913	9.74788	-0.0399369	1.82414	0.00982144	-0.00535727	-0.00273158	-1.06567	0.299316	-0.0234375	0.279101	-0.634091	-0.33618	-0.637977	9.76458	0.760661	-0.537125	0.0423111	0.0211233	0.0249601	-0.992676	0.317383	0.313965	-0.565325	-0.308885	0.641537	-0.416446	9.70521	-1.75106	0.00958211	0.00970579	0.00147572	-0.0325515	-1.02417	-0.15918	-0.104248	0.163581	-0.513474	-0.171878	-0.824648	9.72958	1.4215	4.38764	-0.000813863	0.00106073	-0.015782	-0.94873	-0.437012	0.00634766	0.0572661	-0.305851	-0.0281278	-0.949939	6.09039	0.0780851	8.38061	0.00743986	0.0272011	-0.00908244	-0.880615	0.00610352	-0.53125	0.20727	-0.71238	-0.104004	-0.662372	9.61847	-1.62493	-0.303951	-0.00548926	0.0255876	-0.00418926	-0.946289	0.409424	0.564209	0.0393288	-0.723738	-0.685045	0.0732746	-0.52066	-1.64472	-9.00326	0.000660894	0.00457559	-0.0190058	0.592529	0.210938	1.08496	-0.152502	-0.745382	0.0343418	-0.648051	9.52457	1.5046	-1.05318	-0.0113671	0.00684396	0.00963032	-0.897461	-0.313477	0.551758	0.212762	-0.940111	-0.247087	0.0993599	-0.803542	-4.46438	-8.62422	0.012661	0.00245456	0.0014596	0.460693	0.441162	0.850586	
26	0.181061	0.669175	0.239745	-0.679665	-9.55374	-0.832488	-0.0313492	-0.0319778	-0.0423639	-0.0412666	1.0708	0.249023	-0.219482	0.0647803	0.107678	0.0548995	-0.990553	-2.03559	-0.804901	9.84353	-0.0147628	0.00312913	0.00546843	-0.0231934	0.0432129	-0.94751	0.428603	-0.517269	-0.363708	-0.645328	9.70072	0.489247	2.02266	0.0208727	0.021433	0.021336	-1.05933	0.30127	-0.0234375	0.279531	-0.633709	-0.336451	-0.638025	9.74489	0.724355	-0.124576	0.0233535	0.0149627	0.000199952	-0.99707	0.31958	0.316162	-0.565265	-0.309585	0.64115	-0.416605	9.67477	-1.79849	-0.156441	0.0389179	0.00172586	-0.0309004	-1.02881	-0.154785	-0.102051	0.16355	-0.513639	-0.171977	-0.82453	9.71048	1.29567	4.33639	0.00796692	-0.00311139	-0.0183589	-0.950684	-0.441406	0.00219727	0.0577062	-0.305216	-0.0281926	-0.950115	6.13288	0.0264243	8.46375	0.0382143	0.0403482	0.00349461	-0.887207	0.00805664	-0.533447	0.207718	-0.712459	-0.104519	-0.662066	9.6335	-1.75489	-0.272788	0.0396039	0.000335613	-0.0183865	-0.94873	0.418213	0.561768	0.039255	-0.723774	-0.685013	0.0732548	-0.5144	-1.66486	-8.96638	0.00812773	0.00176246	-0.0214054	0.587891	0.210938	1.09155	-0.152336	-0.745604	0.0342403	-0.64784	9.60034	1.67584	-1.07049	0.0278895	-0.000284598	-0.0012688	-0.897705	-0.306885	0.55835	0.21281	-0.940107	-0.24707	0.0993373	-0.791149	-4.46914	-8.61168	0.00181349	0.00363738	-0.000219296	0.463135	0.438965	0.852783	
27	0.181565	0.668577	0.240348	-0.679905	-9.44127	-0.768241	-0.100116	-0.03321	-0.0167324	0.00403419	1.07251	0.257812	-0.228271	0.0653519	0.10758	0.0547109	-0.990536	-2.04002	-0.855985	9.89977	-0.00505053	0.0112152	0.00540262	-0.0319824	0.0432129	-0.95459	0.428783	-0.517004	-0.364206	-0.64514	9.75096	0.164029	1.93565	0.0504698	-0.00759248	-0.0108718	-1.05908	0.296875	-0.0234375	0.280221	-0.633565	-0.336627	-0.637773	9.82637	0.923795	-0.384059	0.0297629	0.0124907	0.0110398	-0.992676	0.321777	0.313721	-0.564952	-0.310251	0.64091	-0.416903	9.7159	-1.73058	-0.0450696	0.0358831	0.00149549	-0.0208828	-1.02661	-0.156982	-0.104248	0.163258	-0.513631	-0.172356	-0.824514	9.73067	1.35982	4.37721	0.0219705	0.011941	-0.0243518	-0.948486	-0.439209	0.00415039	0.0581043	-0.304926	-0.0285134	-0.950174	6.14307	0.0989347	8.4788	0.0280468	0.0238915	-0.00655238	-0.88916	0.00805664	-0.533447	0.20849	-0.712285	-0.105466	-0.66186	9.74474	-1.47176	-0.328939	0.0450274	0.0183624	-0.0272175	-0.955322	0.42041	0.559326	0.0391421	-0.723834	-0.684962	0.0732073	-0.493671	-1.64192	-9.00773	0.00851615	0.00208139	-0.0198846	0.587891	0.208496	1.09155	-0.152379	-0.745652	0.03418	-0.647777	9.54119	1.79823	-1.07946	-0.00750824	0.00808754	-0.0045191	-0.897705	-0.306885	0.560791	0.212524	-0.940175	-0.247033	0.0993975	-0.809591	-4.46093	-8.62635	-0.00493718	0.00450339	0.000690177	0.460938	0.438965	0.845947	
28	0.18217	0.668684	0.240516	-0.67958	-9.42478	-0.795776	-0.126982	-0.0456422	0.0116522	0.0305863	1.07275	0.251221	-0.228027	0.0654074	0.107832	0.0546808	-0.990507	-2.04042	-0.815134	9.87533	-0.00422452	0.018462	-0.00597951	-0.029541	0.0388184	-0.952148	0.428684	-0.517017	-0.364381	-0.645097	9.73781	0.330413	1.97306	-0.00564328	-0.000815731	-0.00488889	-1.05908	0.296875	-0.027832	0.280291	-0.633535	-0.336785	-0.637688	9.77912	0.66708	-0.255539	0.00933161	-0.00405941	0.00329755	-0.990479	0.321777	0.315918	-0.564954	-0.310422	0.640738	-0.417038	9.78871	-1.68683	-0.0929936	0.0123598	0.0141644	-0.0188379	-1.02661	-0.156982	-0.106689	0.163216	-0.513562	-0.17251	-0.824533	9.80352	1.3266	4.30218	0.0102432	0.0188409	-0.0180259	-0.950439	-0.443604	0	0.0581001	-0.30473	-0.0285773	-0.950235	6.12958	0.231479	8.45552	0.00868394	0.0324667	-0.0187206	-0.880615	0.00830078	-0.535645	0.208088	-0.712482	-0.10498	-0.661852	9.62628	-1.50113	-0.282858	-0.0006156	-0.00665785	-0.0110405	-0.946533	0.413818	0.566406	0.0392139	-0.72387	-0.684916	0.0732411	-0.516075	-1.65363	-8.99379	0.0106739	0.00590779	-0.0190614	0.594727	0.213135	1.09155	-0.152918	-0.745473	0.0346171	-0.647833	9.53704	1.69714	-1.11708	-0.0225804	0.0138636	0.00213137	-0.893066	-0.315674	0.549561	0.212365	-0.940207	-0.247034	0.0994227	-0.796344	-4.45185	-8.61682	-0.00543356	0.00586491	0.00183769	0.463379	0.432373	0.848389	
29	0.183432	0.67004	0.24086	-0.67778	-9.65732	-1.0154	-0.124964	-0.0145204	0.0530154	0.0252927	1.07056	0.251221	-0.22168	0.0651419	0.108196	0.0547789	-0.990479	-2.08787	-0.701858	9.85415	-0.00779622	0.0239144	-0.0189848	-0.0275879	0.0473633	-0.957031	0.428811	-0.516964	-0.364601	-0.64493	9.8093	0.45717	1.95919	0.0182173	0.00483175	-0.000962333	-1.06763	0.297119	-0.0234375	0.280063	-0.633561	-0.337047	-0.637624	9.88104	0.776478	-0.185305	-0.00625431	-0.00233441	-0.0137416	-0.999268	0.31958	0.313721	-0.565015	-0.310365	0.640611	-0.417192	9.69239	-1.84549	-0.0871196	-0.0026061	0.0151477	-0.00841466	-1.02222	-0.154785	-0.104248	0.162976	-0.513545	-0.172096	-0.824678	9.75915	1.22722	4.36705	-0.0293067	0.017409	-0.0180146	-0.946289	-0.439209	0.00219727	0.0577914	-0.304599	-0.0274222	-0.95033	6.08714	0.102083	8.31642	-0.0130413	0.0305717	-0.0117062	-0.882812	0.00610352	-0.533447	0.207284	-0.71281	-0.104467	-0.661832	9.70164	-1.6834	-0.218374	-0.0661161	0.0137857	-0.0247867	-0.952881	0.413818	0.561768	0.0392	-0.723908	-0.68488	0.0732027	-0.50548	-1.64633	-9.03165	0.00763737	0.00537946	-0.0197085	0.587891	0.210938	1.08716	-0.153009	-0.745414	0.0346152	-0.64788	9.53067	1.62503	-1.13402	0.0202266	0.00519573	-0.00018032	-0.893311	-0.309082	0.556152	0.212247	-0.940247	-0.247031	0.0993068	-0.804146	-4.45255	-8.62392	-0.00467127	0.00716029	-0.00156549	0.460693	0.441162	0.845947	
30	0.182172	0.670915	0.240852	-0.677257	-9.71752	-0.835121	-0.0436354	0.0510398	0.0416843	-0.0387871	1.0708	0.249023	-0.219482	0.0651695	0.108299	0.0546554	-0.990473	-2.1403	-0.793939	9.85317	0.0140493	0.015117	-0.0138215	-0.0256348	0.0495605	-0.959473	0.427819	-0.517342	-0.364068	-0.645587	9.67761	0.435738	2.02137	-0.0389535	0.0057613	-0.0227934	-1.06128	0.30127	-0.0234375	0.27977	-0.633852	-0.336584	-0.637708	9.76801	0.777971	-0.13474	-0.0438908	-0.00325132	0.0147858	-0.990479	0.321777	0.313721	-0.565024	-0.310195	0.640636	-0.417268	9.76712	-1.93009	-0.0692844	0.00543021	0.0153813	-0.0114813	-1.02417	-0.161377	-0.104248	0.162837	-0.513525	-0.172112	-0.824714	9.78684	1.36298	4.41826	0.0107479	0.00996851	-0.0221667	-0.950684	-0.441406	0	0.0574603	-0.305177	-0.0265822	-0.950189	6.04109	-0.0168545	8.62981	-0.0124399	-0.0295488	-0.0200418	-0.884766	0.00610352	-0.537598	0.20769	-0.712718	-0.104611	-0.661781	9.61881	-1.49357	-0.28485	0.0797724	0.0133975	-0.00782136	-0.950928	0.416016	0.566406	0.039333	-0.723729	-0.685056	0.0732691	-0.51635	-1.65259	-8.99976	0.0107742	0.00265986	-0.0212487	0.587891	0.20874	1.08276	-0.152728	-0.745467	0.0343489	-0.647899	9.58413	1.76526	-0.999455	0.0359562	0.0110211	0.00045833	-0.899658	-0.313477	0.560791	0.212201	-0.940267	-0.247041	0.0991973	-0.804751	-4.4562	-8.66021	0.00148466	0.0120267	-0.00346823	0.454346	0.436768	0.84375	
31	0.181402	0.671165	0.241249	-0.677075	-9.69541	-0.703643	-0.196394	-0.00262539	0.0155012	-0.0215135	1.07275	0.251221	-0.219482	0.0652296	0.108554	0.0540575	-0.990474	-2.05512	-0.645996	9.8892	0.0371775	0.0335068	-0.00718774	-0.029541	0.0388184	-0.954346	0.427671	-0.517327	-0.363901	-0.64579	9.8041	0.229099	1.87263	-0.00118415	0.0106975	0.00499934	-1.06348	0.297119	-0.0234375	0.278134	-0.635034	-0.335164	-0.637995	9.86929	0.643079	-0.371169	-0.0530371	-0.00868174	-0.0141519	-0.992432	0.315186	0.316162	-0.564923	-0.309825	0.640884	-0.417299	9.72622	-1.69425	-0.0605321	-0.026661	0.00493942	0.0104999	-1.02637	-0.15918	-0.104248	0.162485	-0.51347	-0.172179	-0.824804	9.77277	1.36448	4.29518	-0.0108647	0.0159802	-0.0317369	-0.946289	-0.439209	0.00219727	0.0572301	-0.304941	-0.0255021	-0.950308	6.03375	0.10275	8.27743	-0.0456447	0.0819637	-0.00809357	-0.882812	0.00830078	-0.533447	0.20706	-0.712601	-0.104267	-0.662159	9.7501	-1.77313	-0.414276	-0.0559872	0.029447	-0.029151	-0.952637	0.409424	0.564209	0.0393451	-0.723571	-0.685222	0.0732621	-0.518019	-1.65953	-8.99027	0.00944707	-0.0011312	-0.0239093	0.592529	0.210938	1.09155	-0.153698	-0.745134	0.0349426	-0.648021	9.56495	1.64274	-1.04291	-0.0456343	0.0158744	-0.00250744	-0.904053	-0.315918	0.549561	0.212232	-0.940263	-0.247019	0.0992185	-0.802159	-4.44569	-8.64132	0.00475974	0.00534848	-0.00295541	0.460693	0.443359	0.845947	
32	0.181251	0.671386	0.241519	-0.676799	-9.75041	-0.739502	-0.135641	-0.00817001	0.031244	-0.0150252	1.073	0.249023	-0.215088	0.0650054	0.108886	0.0538296	-0.990465	-2.11759	-0.774962	9.82369	0.00495044	0.0216698	-0.0160627	-0.0275879	0.0454102	-0.952393	0.427331	-0.517508	-0.363623	-0.646028	9.6799	0.253187	1.82119	-0.0372744	0.00438683	-0.00888549	-1.05908	0.296875	-0.0166016	0.277827	-0.635191	-0.334953	-0.638084	9.7589	0.646609	-0.277346	-0.0286446	-0.00206402	-0.00228478	-0.990234	0.317383	0.324951	-0.564972	-0.309683	0.640924	-0.417276	9.76114	-1.77203	-0.0131871	-0.00984859	0.0138792	-0.00890567	-1.02222	-0.156738	-0.106689	0.162403	-0.51342	-0.172138	-0.82486	9.74831	1.40657	4.28515	-0.00386453	0.018822	-0.0216741	-0.948486	-0.441406	0	0.0572351	-0.305035	-0.0254761	-0.950278	6.03419	0.0283154	8.36526	0.017363	0.00654945	-0.0128956	-0.878662	0.0146484	-0.531494	0.207301	-0.712559	-0.10446	-0.662098	9.53992	-1.88213	-0.359178	0.0320325	0.0123732	-0.0157849	-0.948975	0.42041	0.557129	0.0393451	-0.723571	-0.685222	0.0732621	-0.518019	-1.65953	-8.99027	0.00944707	-0.0011312	-0.0239093	0.592529	0.210938	1.09155	-0.153751	-0.745143	0.0350491	-0.647992	9.54259	1.52763	-1.13735	-0.0029943	0.00605182	0.00486597	-0.899658	-0.313477	0.556396	0.212232	-0.940263	-0.247019	0.0992185	-0.802159	-4.44569	-8.64132	0.00475974	0.00534848	-0.00295541	0.460693	0.443359	0.845947	
33	0.181789	0.67158	0.241456	-0.676485	-9.78962	-0.718845	-0.10575	-0.0168801	-0.0187554	0.026416	1.073	0.249023	-0.217285	0.0653785	0.108434	0.0534322	-0.990511	-2.04919	-0.776393	9.89065	-0.0126255	0.0141725	-0.00727186	-0.0275879	0.0432129	-0.95459	0.427814	-0.517286	-0.363797	-0.645787	9.76619	0.314038	1.85262	0.0321215	0.00182889	0.0101892	-1.06543	0.292725	-0.0187988	0.277635	-0.635268	-0.334916	-0.63811	9.748	0.752327	-0.468871	-0.0100664	-0.00139372	-0.00635867	-0.994873	0.31958	0.316162	-0.564926	-0.310156	0.640326	-0.417906	9.71435	-1.8122	-0.104406	0.0411707	0.0174988	-0.0169221	-1.02441	-0.156982	-0.104248	0.162404	-0.513268	-0.172144	-0.824953	9.79701	1.27993	4.33886	-0.00552138	0.0202933	-0.0210817	-0.944092	-0.441406	0.00219727	0.0573152	-0.305438	-0.0253217	-0.950148	6.16303	0.0881951	8.57283	0.033123	-0.0273726	-0.00891567	-0.882812	0.00610352	-0.53125	0.207871	-0.71266	-0.10525	-0.661685	9.7649	-1.40682	-0.344271	0.00661376	-0.000756242	-0.0262356	-0.948486	0.411621	0.55957	0.0393818	-0.723283	-0.68552	0.0733034	-0.519037	-1.64551	-9.00519	0.0047534	0.000171896	-0.0188235	0.587891	0.210938	1.08716	-0.153384	-0.74525	0.0346482	-0.647978	9.56446	1.77748	-1.00011	0.00437812	0.00918213	-0.00235426	-0.897705	-0.306885	0.556152	0.211869	-0.940336	-0.247139	0.0990072	-0.791263	-4.45156	-8.63289	-0.00525739	0.0073982	-0.00564623	0.456299	0.438965	0.848389	
34	0.182212	0.671495	0.241415	-0.67647	-9.7225	-0.750447	-0.0820022	-0.0216032	-0.0149819	0.0229046	1.073	0.246826	-0.219482	0.065513	0.108266	0.0531933	-0.990534	-2.08731	-0.668575	9.83533	0.00567987	0.00156548	-0.00620134	-0.0253906	0.0432129	-0.952148	0.427033	-0.517613	-0.364067	-0.645891	9.70293	0.28197	1.88881	-0.0125843	-0.0214243	-0.0296337	-1.06348	0.299072	-0.0166016	0.277723	-0.635202	-0.335105	-0.638039	9.74995	0.809942	-0.30179	0.000601533	0.00555375	0.00672	-0.992432	0.315186	0.318359	-0.564547	-0.310694	0.640246	-0.418139	9.78653	-1.77981	-0.0269922	0.034461	-0.00675282	-0.0236925	-1.03076	-0.156982	-0.102051	0.16227	-0.513216	-0.17243	-0.824952	9.81625	1.38075	4.29266	0.0212857	0.0133674	-0.0261484	-0.946289	-0.441406	0	0.0574274	-0.306065	-0.0257485	-0.949928	6.08654	0.125861	8.46037	0.0486966	-0.00778228	-0.0160333	-0.88501	0.0102539	-0.53125	0.20637	-0.713001	-0.104188	-0.661956	9.6238	-1.87117	-0.426751	-0.0613992	0.0267034	-0.0287934	-0.955078	0.411621	0.564209	0.0392792	-0.723285	-0.685526	0.0732797	-0.521407	-1.64625	-9.01805	0.00991406	0.0036986	-0.0220624	0.583252	0.210938	1.08716	-0.153606	-0.745169	0.034724	-0.648014	9.56375	1.69835	-1.09006	0.00121993	0.012304	-0.00128087	-0.895508	-0.306885	0.549316	0.211672	-0.940403	-0.24709	0.0989082	-0.800344	-4.45065	-8.63071	-0.00785018	0.00589153	0.00103476	0.460693	0.441162	0.852783	
35	0.182867	0.671089	0.241187	-0.676778	-9.68661	-0.903392	-0.144514	3.79503e-05	-0.0378878	0.0140982	1.0752	0.249023	-0.217285	0.0655645	0.108206	0.0531053	-0.990542	-2.08368	-0.637639	9.83714	-0.0113388	0.0165981	-0.0170583	-0.0319824	0.045166	-0.95459	0.427113	-0.517574	-0.364461	-0.645647	9.80406	0.270064	1.85699	0.0133362	-0.00431906	0.00357235	-1.06128	0.294678	-0.0231934	0.27812	-0.635054	-0.335621	-0.637741	9.86911	0.76756	-0.32682	0.0500649	0.00176852	-0.00602996	-0.990479	0.321777	0.32251	-0.564572	-0.311121	0.640105	-0.418005	9.63603	-1.81312	-0.0313894	-0.0206395	0.00734539	-0.0301227	-1.02661	-0.156982	-0.102051	0.161821	-0.51347	-0.171655	-0.825044	9.69473	1.35442	4.4006	-0.0691499	0.00734528	-0.0116029	-0.944336	-0.439209	0	0.0575084	-0.3077	-0.0263297	-0.949379	6.09612	0.137221	8.48516	0.0235769	-0.0693589	-0.0135158	-0.884766	0.00610352	-0.529053	0.20725	-0.712645	-0.104868	-0.661958	9.64532	-1.42017	-0.381318	0.0448339	0.0251119	-0.00988052	-0.948486	0.413818	0.571045	0.0392515	-0.723318	-0.685504	0.073177	-0.503219	-1.63815	-9.02876	0.00531434	0.00459597	-0.020762	0.587891	0.210938	1.08716	-0.1536	-0.74509	0.0346612	-0.64811	9.50216	1.75776	-1.04178	0.00736761	0.0200867	-0.000634566	-0.897461	-0.313477	0.556396	0.211487	-0.940434	-0.24716	0.0988346	-0.79246	-4.44338	-8.64792	-0.00208883	0.00885401	-0.00360339	0.458252	0.445557	0.848145	
36	0.182699	0.670748	0.240684	-0.67734	-9.52396	-0.762397	-0.103383	0.0259324	-0.0233016	-0.00484468	1.073	0.246826	-0.219482	0.0654214	0.108441	0.0535198	-0.990503	-2.10112	-0.682495	9.79491	-0.0208097	0.0195242	-0.0158881	-0.0253906	0.0454102	-0.949951	0.42731	-0.517464	-0.364742	-0.645446	9.71884	0.286037	1.89874	0.0260306	0.00542497	-0.000980229	-1.06543	0.294922	-0.0163574	0.278439	-0.634743	-0.33588	-0.637775	9.76511	0.766798	-0.271867	0.0152716	0.0154041	-0.000274474	-0.988525	0.323975	0.315918	-0.564358	-0.31126	0.640313	-0.417872	9.68604	-1.94524	-0.0622398	0.0248301	-0.00642539	-0.00771922	-1.02441	-0.156982	-0.102051	0.161188	-0.513859	-0.170224	-0.825222	9.76254	1.30157	4.34881	-0.0595983	0.0084841	-0.00902543	-0.952393	-0.447998	0.00244141	0.0575916	-0.309049	-0.0266567	-0.948926	6.11192	0.116769	8.4442	0.0375422	-0.0211495	-0.0130105	-0.891113	0.00390625	-0.524902	0.207095	-0.712653	-0.104464	-0.662061	9.58742	-1.70409	-0.326741	0.0270564	0.024432	-0.0103737	-0.950684	0.413818	0.561768	0.0392579	-0.723364	-0.685465	0.0730815	-0.509965	-1.65302	-9.00359	0.00855794	0.00710703	-0.0209083	0.590088	0.215332	1.09375	-0.153731	-0.744925	0.034949	-0.648254	9.53614	1.66321	-1.04643	0.0100967	0.0037452	0.00176115	-0.895508	-0.309082	0.556152	0.211586	-0.940414	-0.247174	0.0987788	-0.798657	-4.43563	-8.64	0.0039879	0.00707495	-0.00152488	0.45874	0.438965	0.852783	
37	0.182489	0.670702	0.240563	-0.677486	-9.53208	-0.669162	-0.159775	0.0204727	-0.0105031	-0.00873593	1.0686	0.249023	-0.219482	0.0655324	0.108655	0.0535606	-0.99047	-2.1137	-0.736688	9.93055	-0.0121871	0.0220751	-0.0133113	-0.0234375	0.0495605	-0.954834	0.427566	-0.517324	-0.364831	-0.645338	9.74247	0.350024	1.9882	0.0280909	0.0119071	0.00941947	-1.06348	0.296875	-0.0187988	0.27856	-0.634513	-0.336307	-0.637726	9.79364	0.950899	-0.3442	0.0239289	0.0043417	-0.00719294	-0.996826	0.315186	0.316162	-0.564236	-0.311498	0.640271	-0.417923	9.76548	-1.9042	-0.0348177	-0.00832636	0.00928661	-0.0206983	-1.02661	-0.154785	-0.0998535	0.160872	-0.514024	-0.169424	-0.825346	9.78	1.35199	4.4609	-0.00764921	0.0155316	-0.0111251	-0.948486	-0.443604	0.00219727	0.0578792	-0.310736	-0.0276834	-0.948329	6.22431	0.0977212	8.4369	0.052537	-0.0481917	-0.0100821	-0.9021	0.00805664	-0.524902	0.207543	-0.712535	-0.105075	-0.661951	9.73985	-1.5277	-0.27984	0.0299866	0.0259138	-0.0277468	-0.950684	0.413818	0.564209	0.0392316	-0.723385	-0.685445	0.0730784	-0.520114	-1.65764	-8.98595	0.0103615	0.00247397	-0.020458	0.594727	0.215576	1.08496	-0.152971	-0.745025	0.0344225	-0.648346	9.5714	1.67913	-1.05609	0.0427105	0.0155191	0.00406053	-0.897705	-0.311279	0.556396	0.211694	-0.940378	-0.247206	0.0988154	-0.803418	-4.46101	-8.63782	0.0112318	0.00614003	-0.00496666	0.456299	0.441162	0.855225	
38	0.182826	0.671111	0.240777	-0.676913	-9.75623	-0.784481	-0.0746409	-0.0129788	0.0270715	0.0109311	1.0752	0.246826	-0.219482	0.0657295	0.108579	0.0533946	-0.990474	-2.10683	-0.720538	9.86841	0.00110265	0.0124216	-0.00756312	-0.0251465	0.0388184	-0.959229	0.426926	-0.517475	-0.364957	-0.645569	9.7486	0.348154	1.85582	-0.00906897	-0.00555259	-0.0139177	-1.06323	0.290527	-0.0209961	0.278735	-0.634522	-0.336373	-0.637606	9.83762	0.591804	-0.284615	0.0110841	0.00489947	0.00402054	-0.999268	0.317383	0.313965	-0.564263	-0.312008	0.639767	-0.418277	9.72581	-1.76409	-0.050483	0.0288975	0.0125749	-0.0193864	-1.02417	-0.161377	-0.106689	0.161158	-0.513906	-0.170136	-0.825217	9.78478	1.29563	4.29107	0.0214666	0.0129872	-0.016625	-0.948242	-0.445801	-0.00415039	0.0579952	-0.311708	-0.0279542	-0.947994	6.15036	0.0811054	8.39686	0.019297	-0.042569	-0.0129159	-0.891357	0.00805664	-0.520752	0.207766	-0.712293	-0.10503	-0.662149	9.57699	-1.53037	-0.379021	0.00497545	0.0297199	-0.0160697	-0.948486	0.409424	0.564209	0.0391809	-0.723395	-0.685437	0.0730768	-0.496023	-1.65275	-8.9906	0.00882162	0.00148296	-0.021849	0.587891	0.210938	1.08716	-0.152974	-0.744936	0.0346097	-0.648438	9.54379	1.75564	-1.07004	-0.0323084	0.0106622	0.00884392	-0.9021	-0.309326	0.547119	0.211778	-0.940367	-0.247161	0.0988467	-0.807596	-4.45142	-8.62878	0.00237262	0.00704448	-0.00071751	0.45874	0.43457	0.850586	
39	0.183324	0.670923	0.240577	-0.677036	-9.75609	-0.677121	-0.0853293	-0.0125538	-0.0265307	0.0188414	1.07935	0.251221	-0.219482	0.0660907	0.108764	0.0533329	-0.990433	-2.11099	-0.710951	9.76761	-0.0110659	0.0300443	-0.0022595	-0.0231934	0.0432129	-0.952148	0.426884	-0.517318	-0.364996	-0.645701	9.74862	0.310981	1.91217	0.00619402	0.00418121	-0.00822939	-1.06567	0.294922	-0.0231934	0.279194	-0.634265	-0.33668	-0.637499	9.81104	0.825079	-0.253357	0.0273664	0.0144206	0.00286297	-0.994629	0.312988	0.324951	-0.564326	-0.312434	0.639395	-0.418443	9.672	-1.8783	-0.0625538	0.0195162	0.00921568	-0.0201263	-1.02612	-0.165771	-0.104248	0.161431	-0.513778	-0.170776	-0.825111	9.76	1.22659	4.50546	0.0447784	0.0143844	-0.023012	-0.952881	-0.441406	0.00219727	0.0579409	-0.313517	-0.0269538	-0.94743	6.22503	0.106055	8.36707	-0.0217716	-0.0403288	0.000168613	-0.893555	0.00805664	-0.51416	0.207024	-0.712459	-0.104339	-0.662311	9.69585	-1.73664	-0.371109	-0.0497616	0.0238144	-0.0139343	-0.948486	0.411621	0.55957	0.0391182	-0.72341	-0.685422	0.0731075	-0.512427	-1.65084	-9.01551	0.0087824	-0.00159748	-0.0200579	0.587891	0.210938	1.08936	-0.153486	-0.744734	0.0348879	-0.648534	9.57134	1.63177	-1.00065	-0.00511973	0.0213723	-0.00528046	-0.897705	-0.311279	0.549561	0.211778	-0.940367	-0.247161	0.0988467	-0.807596	-4.45142	-8.62878	0.00237262	0.00704448	-0.00071751	0.45874	0.43457	0.850586	
40	0.183847	0.670547	0.240727	-0.677213	-9.71189	-0.765708	-0.0991513	-0.0142858	-0.0194324	-0.00645074	1.07739	0.249023	-0.219482	0.0666651	0.109185	0.0530335	-0.990365	-2.11998	-0.657486	9.95015	-0.00642216	0.037292	0.0126489	-0.0297852	0.0432129	-0.952148	0.427075	-0.516875	-0.365652	-0.645559	9.73728	0.22324	1.8011	0.0404295	0.0074982	-0.01353	-1.06982	0.294922	-0.0187988	0.279403	-0.634123	-0.336767	-0.637503	9.77661	0.827383	-0.317954	0.0226548	0.0167585	0.00286664	-0.992676	0.317383	0.313965	-0.564375	-0.312971	0.639009	-0.418566	9.74418	-1.74915	-0.0212859	0.0212707	0.0069266	-0.0236946	-1.02417	-0.15918	-0.104248	0.161387	-0.513798	-0.171014	-0.825058	9.73105	1.34299	4.2134	-0.00134157	0.00666559	-0.0158512	-0.950684	-0.441406	0.00219727	0.0581237	-0.314062	-0.0269415	-0.947238	6.20533	0.0486334	8.44884	0.0211365	-0.0310834	0.00199424	-0.897705	0.00585938	-0.516357	0.207623	-0.712347	-0.105009	-0.662139	9.61634	-1.54034	-0.269825	0.0724525	0.000695475	-0.022416	-0.950684	0.413818	0.564209	0.0389719	-0.723441	-0.685401	0.0730678	-0.515107	-1.63759	-9.00171	0.00353985	0.00160166	-0.0213917	0.590088	0.213135	1.08936	-0.153433	-0.744652	0.0347955	-0.648645	9.53818	1.56372	-1.04341	0.0124154	0.0215066	0.000468859	-0.897705	-0.311279	0.556396	0.21173	-0.940372	-0.247241	0.0987068	-0.791667	-4.44343	-8.60889	-0.00515311	0.00498061	-0.00368843	0.456299	0.438965	0.852783	
41	0.183677	0.670113	0.240982	-0.677598	-9.74622	-0.654481	-0.0951654	-0.00142885	-0.0219688	-0.0193345	1.0752	0.249023	-0.22168	0.0678561	0.109407	0.0534005	-0.990239	-2.12751	-0.846425	9.81938	-0.0390742	0.0255891	0.0338	-0.0231934	0.0432129	-0.959229	0.42743	-0.51612	-0.366719	-0.645322	9.76768	0.200307	1.78548	0.0649514	0.00288619	-0.0265182	-1.06348	0.294922	-0.0231934	0.280232	-0.633711	-0.337173	-0.637335	9.86837	0.718808	-0.346228	0.0617687	0.0166729	0.0130408	-0.990479	0.321777	0.311523	-0.56396	-0.314276	0.638243	-0.419316	9.71959	-1.85838	-0.0378457	0.06453	0.00656223	-0.0314513	-1.03052	-0.165771	-0.104248	0.16134	-0.513971	-0.171387	-0.824882	9.80773	1.24452	4.52923	0.0250279	0.00226733	-0.0263381	-0.948242	-0.445801	0.0065918	0.0587151	-0.315804	-0.0239564	-0.946703	6.212	-0.0201829	8.36274	-0.0727226	-0.0289306	0.0343397	-0.893555	0.0102539	-0.516357	0.207339	-0.712415	-0.1046	-0.662219	9.6254	-1.67852	-0.295046	-0.0353268	0.0237739	-0.0174806	-0.952881	0.413818	0.566406	0.0388133	-0.723466	-0.685391	0.0730119	-0.518675	-1.6557	-9.03395	0.00268103	0.000830172	-0.020634	0.592529	0.210938	1.08496	-0.153601	-0.744583	0.0349606	-0.648676	9.54832	1.92138	-0.999287	-0.0293864	0.0107823	0.00257905	-0.895264	-0.315674	0.551758	0.211534	-0.940433	-0.247216	0.098604	-0.803728	-4.44811	-8.6518	-0.00600606	0.0089428	-0.000810829	0.465332	0.441162	0.848389	
42	0.183742	0.669732	0.24125	-0.677862	-9.73144	-0.525136	-0.103004	-0.0180802	-0.0345686	-0.0228122	1.073	0.249023	-0.223877	0.0678561	0.109407	0.0534005	-0.990239	-2.12751	-0.846425	9.81938	-0.0390742	0.0255891	0.0338	-0.0231934	0.0432129	-0.959229	0.427902	-0.515435	-0.367629	-0.645039	9.82537	0.296747	1.99799	0.102716	0.0108306	-0.0237869	-1.06128	0.294678	-0.0209961	0.281443	-0.6331	-0.337576	-0.637194	9.85343	0.742096	-0.291533	0.0447049	0.0323796	0.00727605	-0.992676	0.321777	0.311523	-0.563937	-0.314638	0.637949	-0.419523	9.69881	-1.95577	-0.102406	0.037756	0.0140084	-0.030328	-1.02637	-0.163574	-0.104248	0.16131	-0.51397	-0.171966	-0.824767	9.74629	1.27506	4.44972	0.0431845	0.00207672	-0.0392728	-0.950439	-0.445801	0.00219727	0.0589393	-0.31677	-0.0230685	-0.946388	6.23015	-0.0498746	8.41136	-0.0459159	-0.0625981	0.0289933	-0.893799	0.0146484	-0.512207	0.207293	-0.712282	-0.104697	-0.662361	9.65207	-1.66177	-0.243588	0.010138	0.0282044	-0.029924	-0.948486	0.413818	0.564209	0.0387329	-0.7235	-0.685362	0.0729804	-0.498167	-1.64134	-9.01819	0.00410418	0.0013763	-0.0201665	0.585693	0.206299	1.08716	-0.154304	-0.744295	0.0355814	-0.648806	9.55655	1.59086	-1.02743	-0.00784928	0.0192835	0.00234594	-0.897705	-0.311279	0.549561	0.211609	-0.940389	-0.247299	0.0986601	-0.797534	-4.44013	-8.66194	0.00868096	0.00526359	-0.00573811	0.460693	0.443359	0.852783	
43	0.185268	0.669094	0.242677	-0.677567	-9.65604	-0.684291	-0.00355164	-0.10967	-0.00868074	0.011448	1.06836	0.251221	-0.22168	0.0698592	0.109529	0.0531454	-0.9901	-1.99665	-0.679415	9.88113	0.011339	0.0193207	0.0360014	-0.0231934	0.0454102	-0.94751	0.428256	-0.514685	-0.368266	-0.645039	9.5947	0.336243	1.7717	0.0122035	0.0119283	-0.0104019	-1.06543	0.286133	-0.0231934	0.282728	-0.63227	-0.338622	-0.636894	9.64965	0.779205	-0.431242	0.0767662	0.0194501	0.000942394	-0.999512	0.321777	0.309326	-0.563111	-0.316762	0.63685	-0.420702	9.82382	-1.56312	-0.103261	0.107043	-0.0127425	-0.0349293	-1.03052	-0.165771	-0.0974121	0.160998	-0.513916	-0.17314	-0.824616	9.8725	1.34442	4.08809	0.035627	-0.00405049	-0.0416029	-0.948486	-0.441406	0.00439453	0.059595	-0.316354	-0.0223669	-0.946503	6.32274	0.195495	8.13853	0.00322021	0.113525	0.016432	-0.900635	0.0209961	-0.510254	0.207319	-0.712398	-0.105016	-0.662178	9.6634	-1.62424	-0.435449	0.0293366	-0.0022953	-0.0192741	-0.952637	0.405029	0.564209	0.0388576	-0.723143	-0.685719	0.0731017	-0.508963	-1.65041	-8.98848	0.00797096	6.58604e-06	-0.0206433	0.587891	0.210938	1.09155	-0.153579	-0.744247	0.0348943	-0.64907	9.57406	1.62343	-1.06301	0.0419128	0.017169	0.0008217	-0.9021	-0.311523	0.549316	0.211659	-0.940362	-0.247351	0.0986735	-0.785876	-4.44119	-8.59557	0.00291214	0.00381018	-0.00209526	0.45874	0.438965	0.855225	
44	0.187676	0.668287	0.243313	-0.677472	-9.72828	-1.00956	-0.0987926	-0.0735879	-0.0516915	0.0494759	1.07495	0.251221	-0.223877	0.0705814	0.109794	0.0524823	-0.990055	-2.11725	-0.585071	9.84613	0.0117428	0.0224235	0.0100086	-0.0234375	0.0495605	-0.952393	0.428632	-0.514145	-0.3695	-0.644515	9.80783	0.643918	1.9488	0.0360678	-0.0124525	-0.0254064	-1.06543	0.290527	-0.0231934	0.283646	-0.631841	-0.339301	-0.63655	9.84606	0.938388	-0.221029	0.0525131	0.00821071	0.00517763	-0.99292	0.323975	0.309326	-0.563197	-0.317049	0.636875	-0.420333	9.55276	-1.98768	-0.0837322	0.00432993	0.010626	-0.0301931	-1.02832	-0.163574	-0.0952148	0.160539	-0.514522	-0.172197	-0.824526	9.6277	1.38681	4.35294	-0.038309	-0.00727696	-0.0152147	-0.948486	-0.443604	0.00439453	0.060126	-0.31745	-0.0238676	-0.946066	6.28354	0.13166	8.44622	0.0780799	0.0126618	-0.0140957	-0.904541	0.0146484	-0.512207	0.207047	-0.712334	-0.104567	-0.662403	9.59955	-1.45029	-0.229502	-0.0367598	0.0377659	-0.020387	-0.950439	0.409424	0.56665	0.0388564	-0.723168	-0.685702	0.0730208	-0.506253	-1.64581	-9.02855	0.00875026	0.00498459	-0.0211652	0.590332	0.20874	1.08936	-0.153493	-0.744158	0.0349697	-0.649189	9.52683	1.83806	-0.989466	-0.0264713	0.00841939	0.0118037	-0.900146	-0.306885	0.547119	0.211268	-0.940474	-0.247306	0.0985613	-0.810559	-4.42312	-8.65688	-0.0311121	0.00992099	0.00527722	0.458496	0.441162	0.850586	
45	0.188614	0.66778	0.242766	-0.677909	-9.62279	-0.955867	-0.115862	0.00968845	-0.0346193	0.0191411	1.0708	0.249023	-0.22168	0.070912	0.109765	0.0524546	-0.990036	-2.16186	-0.537971	9.90159	-0.0117446	0.0133441	0.00805968	-0.0231934	0.0410156	-0.95459	0.428176	-0.513902	-0.3701	-0.644668	9.77573	0.348242	1.93162	0.0165377	0.00511872	-0.0289328	-1.06104	0.28833	-0.0253906	0.284189	-0.631792	-0.339209	-0.636406	9.82134	0.623367	-0.23767	0.0115634	0.0110692	0.0185052	-0.99292	0.326172	0.309326	-0.562604	-0.318078	0.636557	-0.420831	9.8722	-1.6968	0.0695463	0.0419597	-0.0149799	-0.0211332	-1.02808	-0.170166	-0.0974121	0.160583	-0.514685	-0.172571	-0.824337	9.85046	1.47065	4.31512	0.0193596	5.25009e-05	-0.0178334	-0.950439	-0.447998	0.00463867	0.0607311	-0.318177	-0.0249677	-0.945755	6.3004	0.165432	8.20109	0.067043	-0.0373306	-0.00470213	-0.900391	0.0146484	-0.510254	0.206548	-0.712427	-0.104062	-0.662538	9.65376	-1.6502	-0.327218	-0.0177287	0.00979023	-0.0194951	-0.950928	0.416016	0.568848	0.0387998	-0.723181	-0.685691	0.0730168	-0.50045	-1.63628	-9.00876	0.0103141	0.00299625	-0.0218171	0.594727	0.210938	1.09155	-0.153972	-0.743977	0.0354988	-0.649254	9.53508	1.55877	-0.974306	-0.0136737	0.0165817	0.00326605	-0.9021	-0.309326	0.553955	0.211256	-0.940482	-0.247378	0.0983331	-0.808042	-4.42696	-8.63968	-0.00279627	0.0073448	0.00259704	0.45874	0.438965	0.852783	
46	0.188249	0.667595	0.242284	-0.678365	-9.58838	-0.767708	-0.107886	0.0276385	-0.0126434	-0.00801155	1.07104	0.242432	-0.223633	0.0711521	0.10962	0.0525015	-0.990033	-2.1673	-0.635145	9.79633	-0.00598433	-0.00175596	-0.00770179	-0.0231934	0.0454102	-0.949951	0.428165	-0.513807	-0.370034	-0.644788	9.68834	0.360896	1.88582	-0.00387741	0.00664261	0.00980025	-1.06323	0.286133	-0.0300293	0.284719	-0.631612	-0.339209	-0.636347	9.73217	0.672559	-0.380296	0.00246908	0.0147898	0.0123647	-0.990723	0.323975	0.309326	-0.562561	-0.318575	0.63636	-0.420809	9.65295	-1.75011	-0.0380729	0.00713782	0.0141614	-0.0283858	-1.02612	-0.167969	-0.0974121	0.160943	-0.514948	-0.172876	-0.824039	9.66843	1.38215	4.35347	0.0243957	-0.000878849	-0.00589883	-0.944092	-0.443604	0.00878906	0.0611829	-0.318972	-0.0259877	-0.94543	6.26614	0.0850567	8.40757	0.0550986	-0.0102593	-0.00577849	-0.900635	0.0209961	-0.506104	0.207309	-0.712161	-0.10468	-0.662489	9.56849	-1.70698	-0.3448	0.0898495	0.0162482	-0.00988841	-0.955078	0.416016	0.561768	0.038785	-0.723223	-0.685659	0.0729054	-0.529272	-1.656	-9.00689	0.0057421	0.00640537	-0.0210063	0.592529	0.20874	1.08716	-0.153844	-0.743896	0.0353308	-0.649386	9.53531	1.78091	-1.02745	0.0175237	0.0160754	0.00490814	-0.899658	-0.313477	0.549561	0.211193	-0.940481	-0.247395	0.0984336	-0.799962	-4.439	-8.63781	0.000733589	0.00350667	-0.00255827	0.460938	0.438965	0.855225	
47	0.187606	0.667521	0.242235	-0.678633	-9.62162	-0.604652	-0.04546	0.0126707	-0.00835006	-0.019376	1.073	0.246826	-0.223633	0.0711955	0.109111	0.0524437	-0.990089	-2.09588	-0.776009	9.89798	0.000163608	-0.000670875	-0.0213427	-0.0253906	0.0454102	-0.952393	0.428455	-0.513928	-0.369844	-0.644608	9.73772	0.442678	2.00368	0.00310674	0.00109898	0.00446284	-1.06348	0.294922	-0.0302734	0.284306	-0.63192	-0.338667	-0.636515	9.79945	0.924656	-0.148163	-0.0152195	0.00233636	0.00379963	-0.990723	0.326172	0.304932	-0.562389	-0.318754	0.636191	-0.42116	9.80101	-1.90365	-0.0787551	0.0264648	0.0148226	-0.00576815	-1.02612	-0.167969	-0.0996094	0.161523	-0.514971	-0.173207	-0.823841	9.88279	1.13161	4.58328	0.0625462	0.0175266	0.00108615	-0.948242	-0.443604	0.00878906	0.0612533	-0.319135	-0.0261098	-0.945367	6.31987	0.10033	8.33513	0.0250894	-0.0021765	-0.0198534	-0.902588	0.0166016	-0.505859	0.207272	-0.71235	-0.104942	-0.662256	9.70551	-1.32536	-0.225923	0.00841788	-0.0065795	-0.0150268	-0.952881	0.411621	0.564209	0.0387486	-0.723312	-0.685576	0.0728269	-0.501813	-1.64291	-9.02719	0.00816927	0.00409648	-0.0198022	0.585938	0.204102	1.09399	-0.153519	-0.743959	0.035259	-0.649394	9.54324	1.62716	-0.990712	0.0259802	0.0103418	0.00416381	-0.895264	-0.313477	0.549561	0.211437	-0.940408	-0.247439	0.0985002	-0.794987	-4.44401	-8.66068	0.0112887	0.00342708	-0.00297804	0.458496	0.441162	0.848389	
48	0.187775	0.667456	0.242636	-0.678506	-9.53255	-0.796846	-0.0950119	-0.0141549	0.00886162	-0.00823894	1.07275	0.251221	-0.22168	0.071084	0.108992	0.0523493	-0.990115	-2.10904	-0.772569	9.82026	-0.00333474	0.00728437	-0.0268737	-0.0275879	0.0454102	-0.95459	0.428282	-0.514014	-0.369823	-0.644667	9.69561	0.500468	1.94437	-0.0090178	-0.00236943	-0.00807713	-1.06543	0.286133	-0.0185547	0.284157	-0.631992	-0.33854	-0.636577	9.76957	0.835316	-0.201147	-0.0142593	0.00309877	-0.000522802	-0.988525	0.326172	0.307129	-0.562173	-0.318877	0.635881	-0.421822	9.65713	-1.80281	-0.0256018	0.0555997	0.0244719	0.00816002	-1.01978	-0.161377	-0.102051	0.162033	-0.514772	-0.17381	-0.823739	9.67193	1.48813	4.41675	0.0683482	0.0224652	-0.00839216	-0.950439	-0.443604	0.0065918	0.061119	-0.318963	-0.0261378	-0.945433	6.32248	0.0429713	8.31404	0.0189532	0.0287977	-0.0259498	-0.900391	0.0146484	-0.505859	0.206556	-0.712425	-0.104235	-0.66251	9.65717	-1.68865	-0.353464	-0.0750287	0.0311048	-0.0196322	-0.952637	0.409424	0.564209	0.0387638	-0.723301	-0.685588	0.0728152	-0.497246	-1.64389	-9.01338	0.0115417	0.00463418	-0.0223769	0.594727	0.210938	1.08936	-0.153227	-0.744046	0.0350083	-0.649378	9.55246	1.669	-1.03828	0.0369497	0.00683836	0.0016591	-0.895508	-0.306885	0.553955	0.211872	-0.940263	-0.247531	0.0987154	-0.793956	-4.42935	-8.60427	0.0231718	0.0060991	-0.00711941	0.460693	0.441162	0.848389	
49	0.18677	0.667804	0.243389	-0.678172	-9.59933	-0.630402	-0.0567564	0.00527554	0.0372243	-0.0486086	1.0752	0.249023	-0.22583	0.0711577	0.108813	0.0525482	-0.990119	-2.09486	-0.715009	9.9492	-0.0269752	0.00830095	-0.0110718	-0.0231934	0.0432129	-0.952148	0.427947	-0.514005	-0.369531	-0.645063	9.78958	0.158464	1.85708	-0.00234138	0.0167833	-0.00941564	-1.06763	0.286377	-0.0275879	0.28385	-0.632282	-0.338054	-0.636685	9.86091	0.527357	-0.235727	-0.00307253	0.00477437	0.00777272	-0.997314	0.321777	0.307129	-0.562482	-0.318923	0.635527	-0.421909	9.85367	-2.03373	0.0199257	0.00782812	0.0142506	-0.0312528	-1.02588	-0.170166	-0.0996094	0.162021	-0.514584	-0.17416	-0.823785	9.76335	1.27528	4.19223	0.01189	0.0207854	-0.0252474	-0.944092	-0.441406	0.00439453	0.0610452	-0.318777	-0.026115	-0.945501	6.31473	-0.104049	8.46747	0.0167374	0.0302058	-0.0199244	-0.897949	0.0124512	-0.51001	0.207675	-0.711853	-0.104711	-0.6627	9.57923	-1.66022	-0.392632	0.0668656	0.0366695	-0.00135967	-0.952881	0.413818	0.557129	0.0387638	-0.723301	-0.685588	0.0728152	-0.497246	-1.64389	-9.01338	0.0115417	0.00463418	-0.0223769	0.594727	0.210938	1.08936	-0.153081	-0.744157	0.0352989	-0.64927	9.58292	1.79045	-1.02524	-0.0320217	-0.00235983	0.015465	-0.890869	-0.311279	0.553955	0.21197	-0.940245	-0.247553	0.0986176	-0.786324	-4.4664	-8.62851	0.00736466	0.0172671	-0.00506959	0.454102	0.441162	0.848389	
50	0.186335	0.668112	0.244022	-0.67776	-9.6637	-0.604586	-0.0420692	-0.0141136	0.0542905	-0.0460987	1.073	0.249023	-0.219482	0.0711577	0.108813	0.0525482	-0.990119	-2.09486	-0.715009	9.9492	-0.0269752	0.00830095	-0.0110718	-0.0231934	0.0432129	-0.952148	0.428965	-0.512756	-0.370679	-0.644723	9.71248	0.242022	1.90869	0.0953088	0.0343345	-0.0072415	-1.06982	0.290527	-0.0253906	0.284516	-0.631586	-0.3387	-0.636736	9.80099	0.614708	-0.251485	0.0425924	0.0312254	-0.0160136	-0.99292	0.323975	0.302734	-0.562404	-0.31918	0.635194	-0.42232	9.75846	-1.92203	-0.138212	0.0460279	0.0217001	-0.0149027	-1.02612	-0.165771	-0.104248	0.162045	-0.514408	-0.17476	-0.823763	9.84784	1.27859	4.28569	0.00804826	0.00889664	-0.0340942	-0.950195	-0.450195	0.00878906	0.0608157	-0.318784	-0.0239085	-0.945572	6.37933	-0.197366	8.29857	-0.0318732	0.00566292	0.00565828	-0.902588	0.0187988	-0.506104	0.207909	-0.71204	-0.104794	-0.662413	9.67507	-1.56334	-0.208076	-0.0207042	-0.0143145	-0.0164023	-0.952881	0.413818	0.561768	0.0389954	-0.722981	-0.685909	0.0728441	-0.507747	-1.65503	-9.00916	0.00818368	0.003938	-0.0206534	0.592285	0.215576	1.09375	-0.153707	-0.744052	0.036019	-0.649202	9.59747	1.56286	-1.10223	-0.0125955	0.00933546	0.000976081	-0.895508	-0.309082	0.551758	0.21197	-0.940245	-0.247553	0.0986176	-0.786324	-4.4664	-8.62851	0.00736466	0.0172671	-0.00506959	0.454102	0.441162	0.848389	
51	0.186616	0.668491	0.245854	-0.676646	-9.79528	-0.478531	-0.000970477	-0.0912762	0.0400708	-0.0181271	1.07471	0.255615	-0.219482	0.0731726	0.109552	0.0530798	-0.989862	-2.06788	-0.752507	9.79212	-0.00122812	0.0161906	0.0428828	-0.0212402	0.0476074	-0.947754	0.43012	-0.511537	-0.372117	-0.644093	9.69973	0.475283	1.94164	0.0932191	0.00472416	-0.00444828	-1.06543	0.290527	-0.034668	0.284939	-0.630733	-0.3395	-0.636966	9.76157	0.896917	-0.371555	0.0315196	0.0258797	-0.0242113	-0.992676	0.321777	0.304932	-0.561848	-0.320566	0.634406	-0.423194	9.77796	-1.57512	-0.0320004	0.084437	-0.00174545	-0.034197	-1.02808	-0.172363	-0.0996094	0.162261	-0.514037	-0.176462	-0.823589	9.81434	1.37414	4.21799	0.0933852	0.0183431	-0.0437693	-0.947998	-0.452393	0.0109863	0.0611649	-0.319918	-0.0244788	-0.945152	6.3495	-0.04421	8.41899	0.0945526	-0.0388473	-0.0133725	-0.902588	0.0166016	-0.503906	0.207368	-0.712186	-0.104549	-0.662464	9.66187	-1.84663	-0.297229	-0.0190003	0.0323889	-0.0321936	-0.955078	0.411621	0.561768	0.0390127	-0.722855	-0.686031	0.0729333	-0.509572	-1.65437	-9.00043	0.00989169	-0.00152126	-0.0189565	0.590088	0.210938	1.09155	-0.152893	-0.743895	0.0351928	-0.649619	9.60449	1.70906	-1.01287	0.0508306	0.0349819	0.00244586	-0.897461	-0.313477	0.549561	0.211954	-0.940284	-0.247486	0.0984463	-0.784355	-4.45724	-8.62984	-0.0214563	0.00408756	0.00497649	0.456543	0.436768	0.855225	
52	0.189245	0.668255	0.247812	-0.675434	-9.91591	-0.931442	0.0401133	-0.13774	1.4113e-05	0.0345101	1.073	0.249023	-0.212891	0.0741267	0.109299	0.0528619	-0.989831	-2.06387	-0.658576	9.88848	-0.00381036	0.00379116	0.0106452	-0.0231934	0.0454102	-0.957031	0.430223	-0.511035	-0.373083	-0.643863	9.71588	0.60568	2.04046	0.0154986	-0.000572945	-0.0268019	-1.06543	0.28418	-0.0344238	0.284791	-0.630452	-0.339516	-0.637302	9.78137	0.818236	-0.0421069	-0.015797	0.0156251	-0.00683701	-0.990723	0.326172	0.304932	-0.561824	-0.320849	0.634098	-0.423473	9.74617	-1.6282	0.0518298	-0.00866697	0.0224574	-0.0168986	-1.02393	-0.167969	-0.0927734	0.162302	-0.513601	-0.177257	-0.823682	9.75377	1.54416	4.30937	0.0317479	0.0186408	-0.0258876	-0.948242	-0.443604	0.0107422	0.0614735	-0.31895	-0.025933	-0.94542	6.35047	0.235927	8.16147	0.0685101	0.0783443	-0.0257017	-0.894043	0.0209961	-0.503906	0.207129	-0.711963	-0.104562	-0.662777	9.6587	-1.5481	-0.280837	-0.0048263	0.0274755	-0.0252417	-0.94873	0.418213	0.557129	0.0388442	-0.722885	-0.686008	0.0729546	-0.515877	-1.6555	-9.00571	0.00611503	-0.00186475	-0.0192341	0.590088	0.213135	1.09155	-0.153833	-0.743392	0.0356059	-0.649951	9.52932	1.70073	-1.02135	-0.0561438	0.0196945	-0.00756259	-0.899902	-0.311279	0.547119	0.211219	-0.940473	-0.247433	0.098354	-0.796252	-4.43245	-8.65893	-0.0266937	0.00544052	0.00327729	0.460938	0.438965	0.850586	
53	0.191556	0.667214	0.248424	-0.675587	-9.75982	-1.15331	-0.124853	-0.0626549	-0.0670604	0.0290064	1.06616	0.253174	-0.213135	0.0739887	0.10953	0.0529811	-0.989809	-2.11755	-0.547427	9.88656	-0.0237407	0.028444	-0.0308748	-0.0212402	0.0473633	-0.959473	0.429768	-0.510943	-0.372967	-0.644308	9.77325	0.405573	1.8929	-0.0379147	0.0109538	-0.017216	-1.06543	0.281982	-0.0275879	0.284404	-0.630636	-0.339176	-0.637473	9.79549	0.694444	-0.434506	-0.00997606	0.000256542	0.00207609	-0.99292	0.323975	0.302734	-0.561723	-0.320714	0.634112	-0.423688	9.74205	-1.79843	0.00992261	-0.0103322	0.013469	0.00509069	-1.02612	-0.165771	-0.104248	0.162692	-0.513233	-0.177309	-0.823823	9.79238	1.39819	4.52037	0.0266346	0.0346725	-0.00665635	-0.947998	-0.452393	0.0090332	0.0613725	-0.318365	-0.0275423	-0.945578	6.33035	0.260773	8.47426	0.0897959	0.01439	-0.0433103	-0.900146	0.0124512	-0.508057	0.207182	-0.712127	-0.105087	-0.6625	9.73444	-1.5178	-0.306074	0.0202254	-0.00685883	-0.0314232	-0.950684	0.409668	0.55249	0.0388128	-0.72288	-0.686012	0.0729722	-0.510492	-1.63654	-9.00164	0.00968214	0.000650494	-0.0226069	0.587646	0.215576	1.08716	-0.154213	-0.743327	0.0355673	-0.649937	9.55021	1.63441	-0.974492	0.0209682	0.0126448	-0.00982065	-0.902344	-0.307129	0.547119	0.210766	-0.940557	-0.247541	0.0982509	-0.798649	-4.44233	-8.6627	-0.0145895	0.00460631	-0.00255932	0.456543	0.436768	0.855225	
54	0.191462	0.66633	0.248224	-0.676559	-9.56227	-1.18411	-0.211063	0.0112037	-0.0517759	-0.0136838	1.07251	0.255371	-0.217285	0.0735219	0.109233	0.0534304	-0.989852	-2.20474	-0.636954	9.80847	-0.0329059	-0.00124801	-0.0442805	-0.0234375	0.0473633	-0.957031	0.429657	-0.511242	-0.373214	-0.644001	9.78998	0.65186	1.87772	0.0249921	-0.0183695	0.00591404	-1.06982	0.288574	-0.0300293	0.283884	-0.630969	-0.338844	-0.637552	9.82929	0.826656	-0.211502	-0.0272914	-0.00793601	0.000296357	-0.994873	0.31958	0.304932	-0.561541	-0.320224	0.634483	-0.423745	9.74247	-1.77828	-0.0341308	-0.00522719	-0.00350581	0.003832	-1.02368	-0.172363	-0.0996094	0.162911	-0.512897	-0.177248	-0.824002	9.74331	1.39975	4.25735	0.0136373	0.029598	-0.0101575	-0.943848	-0.447998	0.0065918	0.0607312	-0.316324	-0.027999	-0.946291	6.19698	0.236458	8.28888	0.0231211	0.0916395	-0.0411448	-0.897949	0.0124512	-0.508057	0.207416	-0.711926	-0.105222	-0.662622	9.66008	-1.41571	-0.3583	0.0168278	0.0474164	-0.0168518	-0.955078	0.413818	0.561768	0.038797	-0.722761	-0.686139	0.0729715	-0.511557	-1.6508	-8.99888	0.0040543	0.00130204	-0.0202383	0.592529	0.210938	1.08276	-0.153683	-0.743143	0.035239	-0.65029	9.51886	1.93895	-0.947947	0.00344763	0.0281475	0.0110366	-0.9021	-0.309326	0.549316	0.210524	-0.940608	-0.247486	0.0984205	-0.806143	-4.41423	-8.63837	-0.00215442	0.000511498	0.00476941	0.456543	0.436768	0.848389	
55	0.189299	0.666725	0.247466	-0.677056	-9.6498	-0.870338	-0.0105618	0.0846591	0.013814	-0.0229561	1.06836	0.251221	-0.22168	0.0726277	0.108644	0.0524435	-0.990036	-1.93176	-0.535101	9.92071	0.0316822	0.0123253	-0.0584786	-0.0231934	0.0429688	-0.964111	0.429188	-0.511536	-0.373124	-0.644133	9.57624	0.741731	1.95927	-0.0333843	-0.016244	-0.016359	-1.06543	0.283936	-0.0253906	0.283911	-0.631221	-0.3388	-0.637313	9.6572	0.841376	-0.188325	0.0034201	-0.0183336	0.0163027	-0.997314	0.326172	0.309326	-0.561541	-0.320224	0.634483	-0.423745	9.74247	-1.77828	-0.0341308	-0.00522719	-0.00350581	0.003832	-1.02368	-0.172363	-0.0996094	0.163039	-0.512838	-0.177186	-0.824027	9.84512	1.50226	4.24995	0.0047894	0.0214073	-0.00586964	-0.950439	-0.447998	0.0065918	0.0605269	-0.315423	-0.0292678	-0.946566	6.31785	0.20766	8.35913	0.114228	0.0832157	-0.0653348	-0.895752	0.0102539	-0.514404	0.206998	-0.711904	-0.1047	-0.662859	9.67102	-1.62765	-0.281944	-0.0467505	0.0346003	-0.0150575	-0.94873	0.416016	0.561768	0.0387717	-0.72279	-0.686109	0.0729788	-0.495733	-1.65788	-8.98675	0.00941666	0.00219185	-0.0211112	0.585449	0.210693	1.09619	-0.153922	-0.742906	0.0356067	-0.650485	9.59598	1.68579	-0.952999	-0.0311086	0.0298564	0.0140097	-0.899902	-0.309082	0.547119	0.210594	-0.940624	-0.247316	0.0985509	-0.825905	-4.42027	-8.64996	0.00739044	0.00584454	0.00407311	0.460938	0.436768	0.855225	
56	0.188404	0.666835	0.246548	-0.677532	-9.68038	-0.860883	-0.0485075	0.108933	-0.0179894	-0.00546125	1.07251	0.257568	-0.223877	0.0726277	0.108644	0.0524435	-0.990036	-1.93176	-0.535101	9.92071	0.0316822	0.0123253	-0.0584786	-0.0231934	0.0429688	-0.964111	0.4273	-0.512516	-0.372781	-0.644807	9.92177	0.192959	1.85559	-0.0631327	-0.0334135	-0.0439481	-1.06763	0.28418	-0.0253906	0.283948	-0.63213	-0.338271	-0.636677	9.96601	0.869886	-0.375008	-0.0161337	-0.0253046	0.027392	-0.99292	0.326172	0.307129	-0.5614	-0.319801	0.634973	-0.423518	9.74647	-1.5272	0.0867144	-0.0216141	-0.00590657	0.00717046	-1.03052	-0.163574	-0.102051	0.163015	-0.512978	-0.175985	-0.824202	9.63617	1.6709	4.4435	-0.0721385	0.0236661	0.0111036	-0.948242	-0.443604	0.0107422	0.0598291	-0.313177	-0.030065	-0.947331	6.20837	0.163823	8.27951	-0.00707708	0.0752718	-0.0476862	-0.897705	0.00585938	-0.516357	0.207571	-0.711838	-0.105035	-0.662698	9.68103	-1.52269	-0.283626	0.0567597	0.0107296	-0.0135541	-0.955078	0.413818	0.564209	0.0388065	-0.722801	-0.686101	0.0729194	-0.515552	-1.65235	-9.00423	0.0097629	0.00858275	-0.0193644	0.592529	0.210938	1.09155	-0.153714	-0.742676	0.0358106	-0.650785	9.54267	1.52181	-0.907894	0.0109334	0.0190105	0.0145611	-0.906738	-0.309326	0.54248	0.210594	-0.940624	-0.247316	0.0985509	-0.825905	-4.42027	-8.64996	0.00739044	0.00584454	0.00407311	0.460938	0.436768	0.855225	
57	0.186387	0.667314	0.244367	-0.678408	-9.53932	-0.622809	-0.0805308	0.124733	0.00588546	0.0017741	1.07031	0.255615	-0.226074	0.0703262	0.109457	0.0528367	-0.990092	-2.10268	-0.677115	9.87734	-0.00595967	0.0308525	-0.0669424	-0.0253906	0.045166	-0.957031	0.426492	-0.512809	-0.372382	-0.645339	9.69597	0.450062	1.90295	-0.0388485	0.0155154	-0.0120764	-1.06543	0.283936	-0.0253906	0.283521	-0.632395	-0.33803	-0.636732	9.84078	0.644612	-0.12876	-0.0382379	-0.011982	-0.00354023	-0.990723	0.323975	0.311523	-0.562197	-0.316889	0.636654	-0.422123	9.75674	-2.16681	-0.182421	-0.0313461	0.00745215	0.0221869	-1.02417	-0.161377	-0.0974121	0.162816	-0.513172	-0.174257	-0.824488	9.86829	1.15253	4.24666	-0.0289063	0.0174818	0.00647564	-0.948242	-0.445801	0.00219727	0.0594849	-0.31229	-0.0298318	-0.947653	6.18471	0.103954	8.26533	-0.00325826	0.0902614	-0.0381212	-0.897949	0.00805664	-0.518555	0.207401	-0.711685	-0.104643	-0.662978	9.64104	-1.68527	-0.335511	-0.029507	0.0384323	-0.0107417	-0.955078	0.411621	0.55957	0.0392529	-0.72242	-0.686461	0.073082	-0.511713	-1.65287	-8.9944	0.0148142	0.00508956	-0.0224589	0.587891	0.213135	1.08716	-0.153066	-0.742661	0.0356718	-0.650964	9.60634	1.83861	-0.92056	0.0102346	0.0120437	0.0145845	-0.900146	-0.306885	0.547119	0.211402	-0.940399	-0.247456	0.0986078	-0.798714	-4.42918	-8.6459	0.0222205	0.00521497	-0.00713268	0.45874	0.43457	0.846191	
58	0.184906	0.668148	0.2429	-0.678519	-9.6978	-0.43438	-0.0420578	0.0663204	0.0163572	0.0092079	1.07056	0.253418	-0.223877	0.0697684	0.109489	0.0525796	-0.990141	-2.1053	-0.732041	9.88829	-0.00453001	0.0187433	-0.0394763	-0.0231934	0.0432129	-0.949951	0.42618	-0.51294	-0.371886	-0.645727	9.80044	0.480986	1.89366	-0.00974593	0.00659911	0.00220702	-1.06738	0.28418	-0.0229492	0.282963	-0.632581	-0.337298	-0.637183	9.87385	0.848787	-0.37328	-0.00915285	0.0127798	-0.00817603	-0.999756	0.326172	0.311523	-0.561901	-0.316348	0.637421	-0.421766	9.75364	-1.63466	-0.00208682	-0.0594282	-0.00474432	0.00122485	-1.02637	-0.161377	-0.104248	0.162978	-0.513297	-0.173719	-0.824491	9.74791	1.45924	4.35955	-0.0291895	0.0137377	0.00536714	-0.950439	-0.445801	0.0065918	0.0591083	-0.309669	-0.0312992	-0.948489	6.16129	0.0678894	8.36263	0.0390032	0.0948203	-0.0306297	-0.888916	-0.000488281	-0.522461	0.207668	-0.711228	-0.104601	-0.663391	9.62464	-1.61302	-0.253521	0.0271853	0.0295699	-0.0212554	-0.959229	0.411621	0.56665	0.0391052	-0.722477	-0.686424	0.0729403	-0.504263	-1.64119	-9.0409	0.00122414	0.00214142	-0.0203845	0.587891	0.213135	1.08936	-0.153433	-0.742452	0.0362884	-0.651081	9.5618	1.53722	-1.00098	-0.0133995	0.0226814	0.00588575	-0.904541	-0.307129	0.547119	0.211472	-0.940389	-0.247481	0.0984988	-0.791225	-4.43838	-8.61865	0.00247439	0.00814842	-0.00384298	0.460938	0.436768	0.846191	
59	0.185092	0.668469	0.242592	-0.678262	-9.74087	-0.65028	-0.0178179	-0.0104283	0.0033471	0.0168665	1.07275	0.251221	-0.219482	0.0694458	0.109488	0.0525723	-0.990165	-2.12111	-0.798099	9.7937	-0.0101129	0.0178012	-0.0285386	-0.0231934	0.0454102	-0.95459	0.426179	-0.512835	-0.372065	-0.645708	9.68353	0.533067	1.89345	0.0273486	0.00852002	-0.00472774	-1.06763	0.286377	-0.0275879	0.282766	-0.632454	-0.337248	-0.637424	9.72655	0.746235	-0.285775	-0.00640426	0.00971017	-0.00812456	-0.990479	0.321777	0.307129	-0.561941	-0.315596	0.637885	-0.421574	9.66508	-1.999	-0.109705	0.0141499	0.00923035	0.00546375	-1.03076	-0.161377	-0.0996094	0.163403	-0.513303	-0.173279	-0.824496	9.72225	1.16817	4.34686	0.0214433	0.0201205	0.00511711	-0.946289	-0.441406	0.00854492	0.0590427	-0.308507	-0.0314493	-0.948867	6.13758	0.108793	8.40887	0.0132634	0.0672431	-0.0216119	-0.888916	0.00170898	-0.526855	0.207814	-0.711048	-0.104795	-0.663507	9.59908	-1.57476	-0.353658	0.0138523	0.0111683	-0.0235161	-0.946289	0.411865	0.554932	0.0390087	-0.722513	-0.686397	0.072884	-0.499968	-1.65416	-8.98295	0.00810494	0.00404614	-0.0198768	0.590088	0.213135	1.09375	-0.152581	-0.74245	0.0354413	-0.65133	9.61021	1.72221	-0.945238	0.066331	0.0230149	0.00316124	-0.900146	-0.304688	0.547119	0.211349	-0.940377	-0.247622	0.098516	-0.785031	-4.43321	-8.6196	-0.000482369	0.0053744	-0.00706554	0.45874	0.43457	0.850586	
60	0.185464	0.668338	0.242864	-0.678192	-9.67005	-0.781442	-0.0953941	-0.0221386	-0.00881274	-0.000640705	1.07056	0.251221	-0.223877	0.0690817	0.109585	0.0523738	-0.99019	-2.17091	-0.631572	9.81801	0.00418131	0.0123875	-0.0226004	-0.0251465	0.0410156	-0.94751	0.425698	-0.513096	-0.371757	-0.645996	9.87845	0.292285	1.90502	-0.0283134	-0.00120176	-0.0109272	-1.06763	0.286133	-0.0229492	0.282043	-0.632863	-0.336537	-0.637713	9.9509	0.689224	-0.179836	-0.0458545	0.00207623	0.00123528	-0.99292	0.323975	0.311523	-0.561644	-0.31558	0.637922	-0.421925	9.74763	-1.76728	-0.0069316	0.00966206	0.00605911	-0.00014993	-1.02637	-0.161377	-0.102051	0.164267	-0.513061	-0.174089	-0.824304	9.77909	1.40706	4.36781	0.0339345	0.0183722	-0.00488288	-0.948486	-0.439209	0.00415039	0.05921	-0.307395	-0.032688	-0.949175	6.11143	0.245126	8.36383	0.0850357	0.0825448	-0.0237019	-0.88916	0.00805664	-0.5271	0.207885	-0.711085	-0.105125	-0.663394	9.6788	-1.36009	-0.280729	-0.000153433	0.021494	-0.0238108	-0.95752	0.418213	0.557129	0.03901	-0.722538	-0.686371	0.0728834	-0.503691	-1.6471	-9.00392	0.0107397	0.00373186	-0.0194588	0.585449	0.210938	1.09155	-0.152815	-0.742201	0.0353976	-0.651561	9.50289	1.72752	-0.874743	-0.034074	0.0202984	-0.00797345	-0.902344	-0.307129	0.553955	0.211253	-0.940398	-0.247635	0.0984924	-0.787455	-4.44093	-8.60996	-0.00611503	0.00700143	-0.00323642	0.460938	0.436768	0.850586	
61	0.185331	0.668357	0.243226	-0.67808	-9.68866	-0.866392	-0.108842	0.00230148	0.00967696	-0.0176248	1.06836	0.250977	-0.219482	0.068936	0.109589	0.0525877	-0.990188	-2.10374	-0.66614	9.90225	-0.0188243	0.0242656	-0.0232661	-0.0212402	0.0495605	-0.954834	0.42587	-0.512776	-0.371737	-0.646148	9.65237	0.49377	1.87313	-0.00505576	0.0259478	0.00139292	-1.06958	0.28418	-0.0297852	0.282105	-0.63271	-0.336493	-0.637862	9.70247	0.695775	-0.314189	-0.000198467	0.0138475	0.000863056	-0.992676	0.321777	0.307129	-0.56166	-0.315151	0.638167	-0.421855	9.66823	-1.85899	-0.0775228	-0.0159513	0.0126739	-0.00599166	-1.03296	-0.15918	-0.102051	0.164608	-0.513044	-0.173893	-0.824288	9.71765	1.30691	4.41783	0.00904105	0.0183293	-0.00372229	-0.94873	-0.435059	0.00195312	0.059384	-0.305775	-0.0333018	-0.949666	6.16826	0.213478	8.50887	0.021093	0.0716498	-0.0173428	-0.882568	0.00390625	-0.53125	0.207477	-0.711006	-0.104602	-0.663688	9.62807	-1.71692	-0.351087	0.030188	0.0205283	-0.0098185	-0.950684	0.413818	0.554932	0.0389734	-0.722338	-0.686575	0.0729675	-0.506632	-1.64625	-9.02081	0.00639878	-0.00269428	-0.0216405	0.590332	0.20874	1.08716	-0.152936	-0.741991	0.0355319	-0.651764	9.59115	1.59203	-0.971703	-0.00599187	0.0160678	0.0031782	-0.904297	-0.309326	0.547119	0.210977	-0.940463	-0.247661	0.098402	-0.792461	-4.43096	-8.61836	-0.0109939	0.00474274	-0.000745337	0.456543	0.43457	0.848389	
62	0.184495	0.66835	0.242785	-0.678473	-9.64653	-0.772655	-0.11408	0.0515735	-0.0129857	-0.0147152	1.07495	0.253418	-0.22168	0.0687864	0.110085	0.0525507	-0.990145	-2.18498	-0.703857	9.81843	-0.00200278	0.0284212	-0.0138901	-0.0209961	0.045166	-0.959473	0.42624	-0.5125	-0.372156	-0.645882	9.77699	0.601206	1.8727	0.0404787	0.0034418	-0.00372148	-1.07178	0.281982	-0.0229492	0.281851	-0.632928	-0.335993	-0.638021	9.86144	0.924649	-0.162701	-0.0240446	0.00625589	0.00853929	-0.990479	0.321777	0.315918	-0.56195	-0.314854	0.638165	-0.421692	9.68235	-1.98946	-0.0937165	-0.0142148	0.0147482	-0.00843694	-1.02441	-0.156982	-0.0996094	0.164486	-0.512915	-0.17386	-0.8244	9.75499	1.22412	4.40208	-0.00266463	0.0126627	-0.0135233	-0.950684	-0.437012	0.00415039	0.0589621	-0.303976	-0.0314731	-0.950332	6.02609	0.0902465	8.34736	-0.0594099	0.0964676	-0.0116846	-0.882324	-0.000488281	-0.533203	0.207636	-0.710741	-0.104808	-0.66389	9.66122	-1.30794	-0.273086	0.0143939	0.0191364	-0.0137152	-0.948486	0.409668	0.550293	0.0391952	-0.722037	-0.686884	0.0729171	-0.508356	-1.65297	-9.01774	0.00665289	0.0053102	-0.0198553	0.585449	0.210938	1.08936	-0.15235	-0.741867	0.035404	-0.65205	9.55303	1.84162	-0.907695	0.000986347	0.0264547	0.0193058	-0.9021	-0.309326	0.549316	0.211053	-0.940471	-0.247645	0.0981976	-0.791572	-4.43113	-8.64475	0.00117603	0.00800365	-0.00207591	0.463135	0.438965	0.852783	
63	0.183866	0.668774	0.242307	-0.678397	-9.6661	-0.513187	-0.0062983	0.015558	0.0223408	0.00805595	1.07715	0.253418	-0.219482	0.0692386	0.109902	0.0523986	-0.990142	-2.08553	-0.690687	9.96175	-0.00224737	0.00625246	-0.000856987	-0.0231934	0.0410156	-0.956787	0.426177	-0.512204	-0.372638	-0.64588	9.74941	0.502971	1.83883	0.0372541	0.00153605	-0.0314828	-1.06519	0.277588	-0.0319824	0.282121	-0.632911	-0.335799	-0.638021	9.68744	0.762663	-0.414062	0.0164704	0.0115502	0.0115815	-0.988525	0.326172	0.307129	-0.561569	-0.315535	0.637694	-0.422403	9.8456	-1.73573	-0.0707584	0.0463943	0.00280526	-0.00838884	-1.02881	-0.156982	-0.102051	0.164667	-0.512857	-0.17444	-0.824277	9.91335	1.4832	4.24607	0.0296042	0.0120097	-0.0188552	-0.942139	-0.439209	0.00415039	0.0587662	-0.302408	-0.0311938	-0.950854	6.09048	0.268683	8.47927	0.0220748	0.0627032	-0.0229611	-0.873779	0.00170898	-0.539551	0.206528	-0.711037	-0.103954	-0.664053	9.68599	-1.95194	-0.265629	-0.0763851	0.031131	-0.0305796	-0.950439	0.407471	0.557373	0.0391656	-0.722033	-0.686888	0.0729283	-0.498442	-1.64732	-9.01018	0.00974732	0.00105525	-0.0217532	0.585693	0.208496	1.09155	-0.152576	-0.741305	0.035968	-0.652606	9.56909	1.56305	-1.00641	-0.0133606	0.0403766	0.0140355	-0.900146	-0.306885	0.549316	0.211053	-0.940471	-0.247645	0.0981976	-0.791572	-4.43113	-8.64475	0.00117603	0.00800365	-0.00207591	0.463135	0.438965	0.852783	
64	0.185375	0.668859	0.242483	-0.677839	-9.81843	-0.797125	-0.000262405	-0.0623829	-0.0140045	0.0467709	1.07056	0.251221	-0.223877	0.0693282	0.109893	0.0520241	-0.990157	-2.05897	-0.665859	9.86392	0.0173048	0.0136448	-0.00796952	-0.0251465	0.0410156	-0.952148	0.425569	-0.511746	-0.373208	-0.646315	9.62998	0.409688	1.79524	0.00539806	0.0039239	-0.041548	-1.06519	0.277588	-0.0273438	0.28246	-0.63296	-0.335707	-0.637871	9.71102	0.574087	-0.512475	0.0184263	0.0059318	0.0266207	-0.995117	0.326172	0.311523	-0.561448	-0.315524	0.637776	-0.422449	9.78882	-1.58074	0.120553	0.00260864	0.000392383	-0.00635693	-1.02197	-0.15918	-0.0974121	0.164805	-0.512923	-0.174361	-0.824225	9.79734	1.40339	4.3353	0.00240595	0.0103298	-0.00233303	-0.946289	-0.441406	0.0065918	0.0586873	-0.301992	-0.031046	-0.950996	6.08412	0.346005	8.42232	0.0080422	0.0495329	-0.0184302	-0.880371	0.00390625	-0.541748	0.206528	-0.710737	-0.103831	-0.664393	9.65558	-2.07469	-0.381505	0.00222615	0.0522432	-0.0195218	-0.952881	0.413818	0.557129	0.0391825	-0.722021	-0.686888	0.0730458	-0.508751	-1.66181	-8.98479	0.0185709	-0.00262797	-0.0219743	0.587891	0.213135	1.08716	-0.152615	-0.741224	0.0360433	-0.652684	9.56909	1.55462	-0.933864	-0.00244935	0.0184961	0.00531596	-0.904541	-0.304932	0.54248	0.210833	-0.940541	-0.247551	0.0982369	-0.784385	-4.40194	-8.63863	-0.000342586	0.00226374	-0.00693185	0.45874	0.436768	0.859863	
65	0.186074	0.668554	0.242484	-0.677948	-9.77739	-0.931465	-0.0589541	-0.0394079	-0.0381091	0.0297538	1.0686	0.249023	-0.22168	0.069364	0.110327	0.0515973	-0.990128	-2.13563	-0.532051	9.86048	-0.00445489	0.0391054	-0.0140328	-0.0253906	0.0432129	-0.952148	0.425911	-0.511426	-0.374119	-0.645816	9.90194	0.341881	2.10709	0.0810935	0.00871116	0.014954	-1.07178	0.279785	-0.0297852	0.282765	-0.632853	-0.335826	-0.637779	9.92053	0.629761	-0.0312643	0.00510862	0.012484	-0.0160331	-0.99292	0.323975	0.315918	-0.561492	-0.315264	0.637992	-0.422257	9.54931	-1.87471	-0.144856	-0.0103468	0.00959313	-0.0127056	-1.02417	-0.161377	-0.0974121	0.164954	-0.51298	-0.173917	-0.824254	9.67464	1.14173	4.34823	-0.0182926	0.0200639	-0.00653049	-0.952881	-0.439209	0.00634766	0.0586338	-0.300818	-0.0307275	-0.951381	5.99331	0.183028	8.41284	0.0273625	0.0775595	-0.0130126	-0.882812	0.00830078	-0.535645	0.207408	-0.710644	-0.104401	-0.664129	9.67317	-1.21657	-0.162374	-0.0156954	0.00656974	-0.010641	-0.952881	0.413818	0.557129	0.0394468	-0.721862	-0.68704	0.0730409	-0.485065	-1.64544	-9.02542	0.00947752	0.0051173	-0.0207656	0.587646	0.215576	1.08936	-0.152568	-0.741183	0.0359737	-0.652746	9.57986	1.7238	-0.897896	0.023725	0.0192802	-4.23402e-05	-0.904541	-0.304932	0.544678	0.210813	-0.940531	-0.247614	0.0982132	-0.782031	-4.42152	-8.6169	-0.000148588	0.00782821	-0.00651113	0.45874	0.438965	0.852783	
66	0.186197	0.668022	0.242665	-0.678374	-9.67116	-0.868999	-0.145287	-0.00415094	-0.0192059	-0.0184507	1.0708	0.249023	-0.223877	0.0694295	0.110456	0.0518097	-0.990098	-2.18909	-0.654078	9.82206	-0.0216206	0.0158535	-0.0181743	-0.0231934	0.0429688	-0.96167	0.426075	-0.511007	-0.373808	-0.64622	9.70945	0.362252	1.69081	-0.00796278	0.0241069	-0.0175927	-1.06958	0.277588	-0.0297852	0.283198	-0.632663	-0.335688	-0.637848	9.78257	0.798622	-0.441879	0.0314107	0.0205829	0.0257358	-0.997559	0.328369	0.304932	-0.561186	-0.315408	0.638164	-0.422297	9.7967	-1.86861	0.00301955	0.00534848	-0.00906162	-0.00266439	-1.02856	-0.161377	-0.102051	0.164949	-0.513038	-0.173913	-0.824219	9.80416	1.49812	4.38815	0.00730164	0.00879349	-0.012645	-0.950439	-0.443604	0.00878906	0.0589355	-0.299663	-0.0311974	-0.951712	5.87625	0.279598	8.46983	0.0190932	0.0667838	-0.00990978	-0.882568	0.00390625	-0.541748	0.206606	-0.710962	-0.103776	-0.664137	9.60953	-1.73266	-0.252756	-0.0278764	0.0224887	-0.015951	-0.952881	0.411621	0.55957	0.0392929	-0.72192	-0.686996	0.0729626	-0.513258	-1.64519	-9.03346	0.00150803	0.000913284	-0.0171718	0.587891	0.210938	1.08496	-0.152682	-0.741032	0.0361892	-0.652878	9.50438	1.62387	-0.946884	-0.00357488	0.0123907	0.00723336	-0.902344	-0.307129	0.547119	0.210805	-0.940522	-0.247675	0.0981695	-0.809836	-4.42461	-8.67129	0.00198855	0.00698697	-0.00382862	0.463135	0.438965	0.850586	
67	0.185489	0.667618	0.242905	-0.678879	-9.51494	-0.777415	-0.0958162	0.0215871	-0.00816525	-0.034701	1.06836	0.253174	-0.223877	0.0694517	0.109773	0.05182	-0.990172	-2.11206	-0.674644	9.73835	0.00627582	-0.018745	-0.0145827	-0.0231934	0.0432129	-0.949951	0.426559	-0.510823	-0.374306	-0.645757	9.69253	0.647324	2.02022	-0.0198551	-0.00480794	0.00504341	-1.06738	0.277588	-0.0297852	0.283191	-0.632711	-0.335581	-0.63786	9.79716	0.796295	-0.154014	-0.0260477	0.000569636	-0.00232325	-0.990967	0.330566	0.311523	-0.561426	-0.315204	0.638124	-0.422191	9.67438	-2.15445	-0.234928	0.00560629	0.0234144	-0.0158805	-1.02417	-0.161377	-0.0996094	0.165271	-0.513173	-0.173723	-0.824111	9.82965	1.10056	4.41221	0.00945127	0.00833181	-0.00415541	-0.952881	-0.437012	0.00415039	0.0590913	-0.298926	-0.031086	-0.951938	5.98293	0.102007	8.60225	0.0297791	0.0557329	-0.009408	-0.878418	0.00390625	-0.546143	0.207378	-0.710537	-0.104353	-0.664261	9.64173	-1.5247	-0.300061	0.0668971	0.0219255	-0.0187358	-0.96167	0.416016	0.55957	0.039242	-0.721957	-0.686963	0.0729312	-0.504152	-1.6629	-8.98285	0.0106602	0.00278647	-0.0229564	0.587891	0.210938	1.08496	-0.152545	-0.741074	0.0361798	-0.652863	9.58927	1.63554	-0.882374	0.00788772	0.00441515	0.00308376	-0.906738	-0.307129	0.54248	0.210898	-0.940454	-0.247805	0.0982873	-0.787772	-4.42144	-8.64839	0.00795784	0.00176769	-0.00314919	0.460938	0.436768	0.848389	
68	0.185017	0.6678	0.242921	-0.678823	-9.58439	-0.745399	-0.0929531	0.0185069	0.00532368	-0.0111592	1.07251	0.255371	-0.219482	0.0692383	0.109612	0.0514698	-0.990223	-2.10147	-0.636617	9.86429	0.00886522	0.00136199	-0.016599	-0.0273438	0.0388184	-0.956787	0.426064	-0.511157	-0.373643	-0.646203	9.70682	0.284533	1.92761	-0.00196739	0.014341	0.00644886	-1.07178	0.28418	-0.0253906	0.283106	-0.632899	-0.335248	-0.637886	9.7586	0.561136	-0.21794	-0.00746037	0.00408312	0.00886818	-0.986084	0.321777	0.307129	-0.561081	-0.315095	0.63833	-0.422419	9.65577	-1.76766	-0.00845399	-0.00271396	0.00687037	0.00197413	-1.02417	-0.15918	-0.0974121	0.165652	-0.513011	-0.174387	-0.823995	9.68037	1.42538	4.43086	0.032013	0.019223	-0.0158107	-0.950684	-0.441406	0.0065918	0.05938	-0.297241	-0.031153	-0.952445	5.88671	0.23355	8.42287	0.00816168	0.0809896	-0.00521664	-0.873779	0.00170898	-0.545898	0.207579	-0.710756	-0.104752	-0.663901	9.57436	-1.47386	-0.257045	0.0271598	-0.0150597	-0.0194514	-0.957275	0.411621	0.554932	0.0392354	-0.721983	-0.686938	0.0729128	-0.496295	-1.65973	-8.98399	0.00843596	0.00488978	-0.0197163	0.590332	0.20874	1.08936	-0.152577	-0.741175	0.0363024	-0.652734	9.56092	1.66873	-0.936868	0.00165393	0.00325663	0.00395168	-0.904541	-0.307129	0.544678	0.210957	-0.940428	-0.247803	0.0984184	-0.813771	-4.41582	-8.65198	0.00444697	0.00424171	-0.0010472	0.460938	0.436768	0.855225	
69	0.184983	0.668043	0.243007	-0.678563	-9.48901	-0.669421	-0.157144	-0.0118118	0.0194146	0.00744043	1.07056	0.253418	-0.223877	0.0691699	0.109586	0.051452	-0.990232	-2.1162	-0.678389	9.89859	-0.00971871	0.0153494	-0.0235617	-0.0273438	0.0388184	-0.952148	0.426014	-0.511561	-0.37292	-0.646334	9.78274	0.549108	1.87973	-0.0427255	0.00602858	0.00972482	-1.06543	0.281982	-0.0297852	0.282951	-0.633047	-0.335166	-0.637851	9.86453	0.888128	-0.282402	0.00564755	-0.00240711	0.00140337	-0.990967	0.330566	0.315918	-0.561396	-0.314423	0.638424	-0.42236	9.7691	-1.8784	-0.123475	-0.0340126	0.0281422	-0.00512256	-1.02441	-0.156982	-0.104248	0.165435	-0.513017	-0.173892	-0.82414	9.84201	1.2759	4.28801	-0.0309687	0.0159773	-0.0188861	-0.950684	-0.439209	0.00634766	0.0593473	-0.296767	-0.0303531	-0.952621	5.96884	0.170662	8.48	-0.0245648	0.0540635	-0.0101675	-0.874023	0.00610352	-0.54834	0.206593	-0.71123	-0.103658	-0.663872	9.7184	-1.53969	-0.286162	-0.0762618	0.00760102	-0.00878566	-0.954834	0.405273	0.552734	0.0390876	-0.722047	-0.686893	0.0727892	-0.499197	-1.66054	-9.03944	0.00333092	0.00294571	-0.0216731	0.585449	0.210938	1.08936	-0.152236	-0.741277	0.036047	-0.652712	9.59972	1.58797	-0.957594	0.0306449	0.00571864	0.00436555	-0.904541	-0.307129	0.54248	0.211242	-0.94029	-0.248026	0.0985657	-0.802889	-4.43371	-8.6573	0.0199312	0.00272384	-0.0115192	0.45874	0.438965	0.852783	
70	0.185131	0.669201	0.243224	-0.677303	-9.77646	-0.837636	-0.13667	-0.00526664	0.0734713	0.0194713	1.07275	0.253418	-0.219482	0.068878	0.109015	0.0511954	-0.990329	-2.15858	-0.653594	9.79467	-0.011168	-0.0252286	-0.0140565	-0.0251465	0.0366211	-0.954346	0.425666	-0.51191	-0.372679	-0.646427	9.7733	0.378887	1.85516	-0.00946047	0.00167993	-0.000766537	-1.06958	0.281982	-0.0229492	0.282614	-0.633376	-0.334718	-0.637909	9.83034	0.657906	-0.292158	-0.0276468	0.000155991	0.00703337	-0.997559	0.328369	0.315918	-0.561363	-0.314268	0.638462	-0.422461	9.69959	-1.85038	-0.107706	0.00453016	0.00689398	-0.0107093	-1.02197	-0.15918	-0.102051	0.165237	-0.51304	-0.173962	-0.82415	9.75301	1.38316	4.31446	0.00210169	0.010072	-0.0233676	-0.946289	-0.441406	-0.00219727	0.0585113	-0.295413	-0.026829	-0.953199	5.88672	0.121293	8.48778	-0.131903	0.0730075	-0.000370376	-0.874023	0.00610352	-0.55249	0.206296	-0.711207	-0.103416	-0.664027	9.58346	-1.63434	-0.27421	0.013503	0.026535	-0.0264475	-0.954834	0.409424	0.55957	0.0390255	-0.722073	-0.686877	0.0727177	-0.506928	-1.66188	-9.00873	0.00954266	0.00356379	-0.0206924	0.587646	0.215576	1.08496	-0.152016	-0.741447	0.0360983	-0.652567	9.55497	1.74627	-0.990618	-0.0100584	0.000894607	0.00746119	-0.9021	-0.309326	0.544922	0.211358	-0.940243	-0.248071	0.0986469	-0.788585	-4.43914	-8.61382	0.0126306	0.00283546	-0.00529265	0.45874	0.438965	0.852783	
71	0.18524	0.67042	0.242226	-0.676424	-10.0228	-0.768817	0.0637643	0.0326029	0.0278193	0.0561459	1.07275	0.251221	-0.215088	0.0692802	0.107633	0.0511535	-0.990454	-2.04238	-0.690651	9.9325	-0.0259557	-0.0274862	-0.00415012	-0.0273438	0.0388184	-0.954346	0.425665	-0.512025	-0.372328	-0.646538	9.73902	0.411235	1.79468	-0.0188531	0.000402294	0.00599352	-1.06738	0.279785	-0.0251465	0.282609	-0.633391	-0.33475	-0.63788	9.89102	0.629914	-0.338165	0.00546551	0.00217807	-0.000727558	-0.999756	0.326172	0.309326	-0.561152	-0.315153	0.637853	-0.423001	9.74291	-1.77054	-0.0638581	0.057576	0.00616168	-0.0332952	-1.02856	-0.161377	-0.0974121	0.164958	-0.513096	-0.1742	-0.824121	9.78042	1.43139	4.14828	-0.00163561	0.0038432	-0.0321921	-0.942139	-0.439209	0.00854492	0.0579353	-0.295342	-0.023016	-0.953355	6.00053	0.0922433	8.74761	-0.0936494	-0.00136479	0.005035	-0.874756	0.0212402	-0.557129	0.206553	-0.711418	-0.103892	-0.663646	9.6868	-1.59339	-0.223061	0.0234871	-0.0121497	-0.0173803	-0.952881	0.413818	0.554932	0.0389709	-0.722084	-0.686865	0.0727516	-0.51312	-1.66173	-9.01433	0.00897425	-0.001285	-0.0209198	0.578613	0.213135	1.08936	-0.1523	-0.741363	0.0364124	-0.65258	9.57853	1.61581	-0.966356	-0.0288814	0.0122932	0.00602832	-0.906738	-0.304932	0.544678	0.211446	-0.940229	-0.248096	0.0985339	-0.807485	-4.43574	-8.63657	0.00208286	0.00579826	-0.00212573	0.45874	0.438965	0.852783	
72	0.186014	0.66998	0.240883	-0.677127	-9.95995	-0.511825	-0.0249914	0.0012795	-0.082149	0.0441562	1.0752	0.249023	-0.219482	0.0695476	0.107324	0.0512187	-0.990465	-2.02872	-0.762706	9.82865	-0.0207099	-0.00836404	0.00096799	-0.0319824	0.0429688	-0.957031	0.42577	-0.511988	-0.372601	-0.646341	9.6298	0.142343	1.79342	0.0300669	-0.00786479	2.68348e-06	-1.06543	0.279785	-0.0366211	0.283185	-0.63306	-0.335057	-0.637792	9.68919	0.570413	-0.248866	0.035365	0.0212445	0.00703957	-0.99292	0.326172	0.313721	-0.561188	-0.315522	0.63771	-0.422894	9.74844	-1.63416	-0.0857937	0.0152842	0.00220486	-0.0429692	-1.02832	-0.165771	-0.0952148	0.164594	-0.513365	-0.173954	-0.824078	9.78091	1.38822	4.17665	-0.0312198	-0.0069095	-0.0253026	-0.944336	-0.439209	0.00634766	0.0576905	-0.295679	-0.0216278	-0.953299	5.98504	-0.0259307	8.78071	-0.093527	-0.00689799	-0.000378545	-0.878662	0.010498	-0.552734	0.206581	-0.711666	-0.103716	-0.663399	9.74002	-1.67335	-0.270984	-0.00383826	-0.00939146	-0.00101677	-0.950928	0.416016	0.55957	0.0389294	-0.722045	-0.686905	0.072777	-0.4952	-1.66741	-8.98854	0.00970383	-0.000972875	-0.0226174	0.585693	0.20874	1.08716	-0.152651	-0.741325	0.0366373	-0.652528	9.61751	1.6512	-0.902934	-0.0154034	0.00104235	-0.000102606	-0.904541	-0.304932	0.549316	0.211382	-0.94025	-0.248105	0.098446	-0.794201	-4.45923	-8.63306	-0.00523004	0.0130775	-0.00279498	0.461182	0.43457	0.850586	
73	0.18699	0.669127	0.240686	-0.677772	-9.70217	-0.582036	-0.088526	-0.0412353	-0.105041	0.0370172	1.06885	0.244629	-0.223633	0.0697501	0.107099	0.051305	-0.990471	-2.12838	-0.672719	9.89317	-0.0105388	-0.000498713	-0.00196952	-0.0253906	0.0454102	-0.95459	0.426596	-0.511555	-0.372997	-0.64591	9.93868	0.732759	2.00963	0.00524482	0.0146416	0.00855462	-1.07397	0.279785	-0.0297852	0.283476	-0.632732	-0.335468	-0.637772	10.036	0.92089	-0.122926	0.0147341	0.00900158	-0.0115996	-1.00195	0.328369	0.309326	-0.561282	-0.31626	0.637402	-0.422683	9.69972	-1.99829	-0.0815841	0.0378204	0.000530031	-0.0426167	-1.02661	-0.156982	-0.0927734	0.164276	-0.513554	-0.174064	-0.824001	9.78737	1.07667	4.58578	0.0333128	0.0112508	-0.0260304	-0.948486	-0.443604	0	0.0575706	-0.296512	-0.020619	-0.953069	5.85767	-0.00569362	8.37555	-0.0144548	-0.0171647	-0.00342009	-0.876953	0.0234375	-0.550781	0.206215	-0.711788	-0.10373	-0.66338	9.6293	-1.49374	-0.297961	-0.00799231	0.00206618	-0.0187984	-0.957031	0.411621	0.564209	0.0389424	-0.721934	-0.687045	0.072556	-0.488367	-1.64194	-9.05571	0.000326408	-0.000720688	-0.0205045	0.590088	0.210938	1.08936	-0.153075	-0.741356	0.036933	-0.652376	9.54064	1.58072	-0.908982	-0.00834082	0.00645504	-0.00763682	-0.902344	-0.307129	0.544678	0.211125	-0.940332	-0.248078	0.0982806	-0.795975	-4.42984	-8.6482	-0.0108759	0.00816874	0.000350179	0.463135	0.438965	0.855225	
74	0.188412	0.667971	0.241553	-0.678209	-9.49581	-0.856047	-0.113628	-0.0630949	-0.034936	-0.0154089	1.0752	0.249023	-0.223633	0.0699698	0.106598	0.0519693	-0.990475	-2.02336	-0.685198	9.87158	-0.034178	-0.0101234	-0.00449334	-0.0339355	0.0410156	-0.95459	0.426518	-0.511395	-0.373258	-0.645938	9.51957	0.422091	1.82627	0.0304185	-0.0018009	-0.00353503	-1.06958	0.277588	-0.0273438	0.283908	-0.63242	-0.335755	-0.637738	9.5648	0.624535	-0.436957	0.0260201	0.0152431	0.00635829	-0.99292	0.326172	0.304932	-0.560941	-0.317244	0.636849	-0.423232	9.79092	-1.52108	0.0438494	0.0330812	-0.000600232	-0.0320485	-1.02637	-0.163574	-0.0974121	0.164119	-0.513511	-0.174727	-0.823919	9.78515	1.38245	4.23358	0.0169606	0.00727647	-0.0299564	-0.950439	-0.443604	0.00878906	0.0575858	-0.297959	-0.0191536	-0.952648	5.9793	-0.0267615	8.67462	-0.0406724	-0.0460511	0.0039656	-0.876953	0.0212402	-0.544434	0.206306	-0.711637	-0.103927	-0.663483	9.63385	-1.7551	-0.280354	0.0615797	0.0187652	-0.0177506	-0.954834	0.409424	0.55957	0.0386762	-0.721914	-0.687069	0.0726632	-0.507768	-1.66995	-8.96326	0.00641742	-0.00452717	-0.0220636	0.590088	0.213135	1.09155	-0.15263	-0.74148	0.0361655	-0.652383	9.65187	1.70348	-0.964484	0.0474867	0.0136091	-0.00790558	-0.906982	-0.302734	0.54248	0.211052	-0.940338	-0.24811	0.0983025	-0.79339	-4.44248	-8.64824	-0.00171255	0.00271693	-0.000554289	0.454346	0.436768	0.846191	
75	0.188875	0.667321	0.242405	-0.678417	-9.43531	-0.902263	-0.0722589	-0.0295744	-0.016352	-0.00941372	1.073	0.246826	-0.22583	0.0698653	0.106291	0.0516784	-0.99053	-1.99577	-0.638069	9.85556	0.00543121	-0.00434867	-0.0127854	-0.0297852	0.0432129	-0.949951	0.42658	-0.511635	-0.373191	-0.645746	9.89313	0.583597	2.00598	-0.0210485	-0.00822308	0.00400627	-1.06543	0.286133	-0.0231934	0.283683	-0.632448	-0.335857	-0.637757	9.97698	0.743956	-0.171527	0.000633773	-0.0013066	-0.00885742	-0.986328	0.326172	0.311523	-0.561362	-0.317368	0.636663	-0.42286	9.69058	-1.84075	-0.00599107	-0.0087827	0.0125767	-0.0283103	-1.02612	-0.165771	-0.0974121	0.164068	-0.513701	-0.174668	-0.823823	9.6846	1.29991	4.41754	-0.00851341	0.00410472	-0.0146732	-0.950684	-0.441406	0.00219727	0.0578488	-0.298132	-0.0208091	-0.952543	6.01437	0.0870928	8.58995	0.0756993	-0.0041117	-0.0166857	-0.876953	0.0212402	-0.542236	0.207321	-0.711291	-0.105115	-0.66335	9.72873	-1.30075	-0.398211	0.0507603	0.0187776	-0.0244679	-0.952881	0.411621	0.561768	0.0385887	-0.721939	-0.687046	0.0726811	-0.506224	-1.64476	-9.03012	0.00632031	-0.00100586	-0.0213677	0.590088	0.210938	1.08936	-0.15303	-0.741368	0.0362846	-0.65241	9.54781	1.78847	-0.955844	-0.0333407	0.0105291	-0.0068419	-0.908936	-0.307129	0.544678	0.210545	-0.940465	-0.248044	0.0983403	-0.803683	-4.40145	-8.64683	-0.0154591	0.00183994	0.00301443	0.45874	0.43457	0.853027	
76	0.18861	0.66791	0.242272	-0.677958	-9.53624	-0.929979	-0.0365396	0.0287126	0.0391727	0.00279533	1.0708	0.246826	-0.22583	0.0695951	0.105901	0.0522415	-0.990562	-1.97387	-0.661765	9.8712	-0.0413669	0.00680874	-0.0365352	-0.036377	0.045166	-0.95459	0.426033	-0.511909	-0.372654	-0.6462	9.66225	0.405198	1.94909	-0.0212426	0.0189572	-0.000896249	-1.07178	0.281982	-0.0319824	0.28335	-0.632669	-0.33547	-0.637889	9.67911	0.547935	-0.1931	-0.0351224	0.00122143	0.00522727	-0.99292	0.323975	0.307129	-0.561304	-0.317384	0.636597	-0.423024	9.8198	-1.66122	0.0583829	0.00627743	0.0105978	-0.0131956	-1.02417	-0.161377	-0.102051	0.164016	-0.513487	-0.174908	-0.823916	9.80671	1.36453	4.44466	0.00568161	0.0301147	-0.0187703	-0.950439	-0.447998	0.0065918	0.0576985	-0.298941	-0.019995	-0.952316	6.00079	0.0834681	8.55918	-0.0339672	-0.0259881	-0.0110198	-0.874756	0.019043	-0.544189	0.206821	-0.711516	-0.104473	-0.663367	9.63791	-1.59945	-0.213697	-0.0142582	0.0243201	-0.0107536	-0.957275	0.413818	0.561768	0.0385416	-0.721964	-0.687028	0.0726284	-0.506159	-1.66733	-8.96989	0.00660071	0.00539508	-0.0196443	0.590332	0.20874	1.08276	-0.153175	-0.741473	0.0366367	-0.652237	9.59403	1.58532	-0.968561	0.0190597	0.00351542	0.0114361	-0.904541	-0.307129	0.544678	0.210657	-0.940432	-0.248081	0.0983196	-0.811076	-4.42033	-8.67653	0.00772818	0.0103268	-0.00720666	0.460693	0.443359	0.850586	
77	0.187579	0.668705	0.241509	-0.677732	-9.65147	-0.863829	-0.080132	0.0586924	0.0278505	0.00222497	1.06641	0.246826	-0.22583	0.06874	0.105898	0.0524988	-0.990608	-2.01943	-0.724675	9.85619	-0.012121	0.0109166	-0.0442483	-0.0341797	0.0454102	-0.94751	0.425945	-0.512193	-0.371846	-0.646498	9.79375	0.493693	1.78046	-0.0570351	0.0121829	0.0128397	-1.07593	0.281982	-0.0161133	0.282678	-0.632895	-0.335375	-0.638013	9.86509	0.883531	-0.40808	-0.0187204	-0.00351985	-0.0170866	-0.990723	0.323975	0.309326	-0.561634	-0.316426	0.636857	-0.422912	9.64143	-1.84866	-0.174361	-0.0268759	0.0216624	0.00196865	-1.02832	-0.163574	-0.102051	0.164038	-0.513431	-0.174635	-0.824004	9.83662	1.41104	4.49173	-0.0130106	0.0253863	-0.00402234	-0.944092	-0.443604	0.0065918	0.0573858	-0.29935	-0.0198236	-0.95221	6.02666	-0.116791	8.56842	0.0163601	0.00929266	-0.0223134	-0.876465	0.0124512	-0.544189	0.206495	-0.711271	-0.103919	-0.663818	9.68031	-1.67455	-0.350289	-0.00904749	0.0344202	-0.0165592	-0.952881	0.413818	0.557129	0.0385416	-0.721964	-0.687028	0.0726284	-0.506159	-1.66733	-8.96989	0.00660071	0.00539508	-0.0196443	0.590332	0.20874	1.08276	-0.152689	-0.74151	0.0361747	-0.652335	9.56929	1.67235	-0.906087	0.0278942	0.0120335	-2.16653e-05	-0.899902	-0.309082	0.544922	0.211097	-0.940283	-0.248247	0.09838	-0.79983	-4.42726	-8.663	0.0184424	0.00462227	-0.00859394	0.461182	0.43457	0.850586	
78	0.185892	0.669819	0.24075	-0.677367	-9.90867	-0.655526	0.0492692	0.070147	0.0430187	-0.0172645	1.07324	0.244629	-0.219482	0.0684561	0.105488	0.0527761	-0.990657	-2.04475	-0.804349	9.84237	-0.0257641	0.0142064	-0.0300162	-0.0297852	0.0432129	-0.952148	0.425237	-0.512904	-0.371365	-0.646677	9.68418	0.249989	1.91106	0.00375673	-0.0169607	0.00442431	-1.06738	0.281982	-0.0229492	0.282329	-0.633116	-0.335203	-0.638039	9.74231	0.761468	-0.287901	-0.0127712	-0.00467769	-0.00544942	-0.997314	0.321777	0.313721	-0.561587	-0.316435	0.636762	-0.423111	9.7536	-1.7557	0.0281801	-0.00767118	0.00910443	-0.0113143	-1.02637	-0.161377	-0.0996094	0.164692	-0.512736	-0.176008	-0.824015	9.79813	1.37975	4.4006	0.0589803	0.0239207	-0.0167059	-0.955078	-0.439209	0.00634766	0.0572115	-0.299878	-0.0197022	-0.952057	5.94426	-0.0392981	8.67635	-0.0112829	-0.0134307	-0.0202854	-0.87915	0.0212402	-0.546387	0.207181	-0.71149	-0.104339	-0.663303	9.60364	-1.376	-0.132247	0.0404213	-0.00443596	-0.00422095	-0.952881	0.411621	0.557129	0.0390314	-0.721461	-0.687521	0.0726966	-0.504715	-1.65424	-9.00447	0.0103146	0.00555529	-0.0208107	0.585449	0.210938	1.09155	-0.152411	-0.741565	0.0360739	-0.652343	9.55268	1.77914	-0.96994	0.0111791	0.00230618	0.00520448	-0.904541	-0.304932	0.547119	0.211148	-0.940292	-0.248232	0.0982308	-0.797809	-4.44366	-8.61063	0.00139073	0.0102541	-0.00183509	0.45874	0.436768	0.853027	
79	0.185892	0.669819	0.24075	-0.677367	-9.90867	-0.655526	0.0492692	0.070147	0.0430187	-0.0172645	1.07324	0.244629	-0.219482	0.0683984	0.104669	0.0523109	-0.990772	-2.00081	-0.594093	9.88478	0.0152307	-0.0275059	-0.0131596	-0.0361328	0.0410156	-0.95459	0.424933	-0.513074	-0.370901	-0.647008	9.77079	0.460484	1.94987	-0.0530044	0.0171222	-0.0150854	-1.06104	0.281738	-0.0229492	0.28137	-0.633306	-0.334973	-0.638395	9.84079	0.493907	-0.181116	-0.0311655	0.00260643	-0.0146575	-0.994873	0.321777	0.307129	-0.56157	-0.316294	0.636596	-0.423488	9.64663	-1.93093	-0.121223	0.063011	0.0227727	-0.00633978	-1.02637	-0.15918	-0.0952148	0.165439	-0.51221	-0.17754	-0.823863	9.76827	1.16364	4.37765	0.0937979	0.0265228	-0.0295309	-0.946289	-0.443604	0.0065918	0.0564811	-0.300019	-0.0181421	-0.952087	6.0076	-0.106358	8.56246	-0.0587324	0.00511535	-0.0164784	-0.876953	0.0212402	-0.544434	0.206114	-0.711481	-0.103446	-0.663785	9.6999	-1.625	-0.236588	-0.052853	0.0242567	-0.0161626	-0.952637	0.405029	0.56665	0.0390422	-0.721484	-0.687494	0.072726	-0.506104	-1.65002	-9.05512	0.0131893	0.00240457	-0.0187519	0.587646	0.215576	1.08936	-0.153206	-0.741443	0.0367624	-0.652256	9.67413	1.55524	-0.989776	-0.0364592	0.0144222	0.00217415	-0.9021	-0.309326	0.549316	0.211224	-0.940272	-0.248248	0.0982109	-0.792493	-4.43114	-8.64174	0.00916571	0.00830579	-0.00577015	0.45874	0.436768	0.853027	
80	0.184958	0.669477	0.240274	-0.678129	-9.85543	-0.531075	0.00195827	0.028692	-0.0170297	-0.0145979	1.073	0.246826	-0.219482	0.0684784	0.104399	0.0523413	-0.990794	-1.95635	-0.699842	9.94766	-0.0160887	-0.00458351	-0.0134461	-0.0339355	0.0410156	-0.956787	0.424591	-0.513238	-0.370434	-0.647369	9.66165	0.271418	1.78317	-0.0500596	0.0165661	-0.00621571	-1.06738	0.277588	-0.0273438	0.281265	-0.633339	-0.334924	-0.638434	9.72344	0.68804	-0.359854	-0.00638992	0.00327581	-0.00258202	-0.995117	0.323975	0.313721	-0.561313	-0.316553	0.63633	-0.424035	9.71708	-1.54333	-0.04612	0.0551989	0.0133831	-0.00156968	-1.02637	-0.15918	-0.0952148	0.165723	-0.511887	-0.178248	-0.823854	9.7078	1.52964	4.16523	0.065848	0.0295978	-0.0304792	-0.950439	-0.443604	0.0129395	0.0561355	-0.29876	-0.0160097	-0.952541	5.99548	-0.0651712	8.51627	-0.146104	0.130125	0.00629582	-0.879395	0.027832	-0.548828	0.206259	-0.711381	-0.10346	-0.663845	9.54213	-1.75395	-0.367883	0.0173998	0.0249055	-0.0132127	-0.952881	0.409668	0.554932	0.0391348	-0.72128	-0.687691	0.0728353	-0.493872	-1.67848	-8.9895	0.0106104	0.000215333	-0.0225293	0.588135	0.204102	1.08716	-0.15315	-0.741319	0.0367555	-0.652411	9.56557	1.58813	-0.928158	0.00734158	0.0259682	0.00652021	-0.906738	-0.309326	0.544922	0.211248	-0.940267	-0.248273	0.098147	-0.78184	-4.42306	-8.61132	0.00231425	0.0124605	-0.00525413	0.45874	0.436768	0.850586	
81	0.185709	0.668442	0.240436	-0.678887	-9.6877	-0.634669	-0.0504509	-0.0318777	-0.0651599	0.00578946	1.073	0.246826	-0.228027	0.0686814	0.104139	0.0518778	-0.990831	-2.00598	-0.782133	9.93166	0.0171656	0.00486385	-0.0060041	-0.0383301	0.0410156	-0.949707	0.424765	-0.513168	-0.370699	-0.647159	9.70671	0.362643	1.87873	0.0184064	-0.00291582	0.000134198	-1.06738	0.281982	-0.0229492	0.280883	-0.633041	-0.335225	-0.638739	9.76846	0.701588	-0.335562	0.000940418	0.0135579	-0.0307817	-0.997314	0.323975	0.311523	-0.561712	-0.31622	0.636218	-0.423923	9.79548	-2.03701	-0.00312241	-0.0281558	0.0294822	-0.0189402	-1.02881	-0.156982	-0.104248	0.165609	-0.511871	-0.177424	-0.824065	9.85113	1.28942	4.47445	-0.0444978	0.0196988	0.00302657	-0.950684	-0.437012	0.00854492	0.0562573	-0.299913	-0.0166147	-0.952161	6.01506	-0.147935	8.8161	0.0598126	-0.0119786	-0.0190348	-0.879395	0.0256348	-0.540283	0.206457	-0.711489	-0.104022	-0.66358	9.67957	-1.53645	-0.342471	0.0477729	-0.0137316	-0.0346361	-0.950684	0.409424	0.55957	0.0389548	-0.721329	-0.687649	0.0728323	-0.508115	-1.66673	-9.00191	0.00667732	-0.00214554	-0.0219929	0.587646	0.215576	1.08936	-0.153361	-0.741118	0.0364979	-0.652605	9.59924	1.67324	-0.922792	0.0210281	0.021646	-0.0156548	-0.904541	-0.304932	0.537842	0.211072	-0.940306	-0.248298	0.0980935	-0.789868	-4.42942	-8.62291	-0.0134286	0.00812296	-0.00265946	0.45874	0.436768	0.848389	
82	0.186913	0.667775	0.240488	-0.679195	-9.59907	-0.809434	-0.086692	-0.027106	-0.027463	0.0224868	1.0708	0.246826	-0.22583	0.0690871	0.103793	0.0513349	-0.990868	-1.99321	-0.528635	9.9653	-0.00672574	-0.0012033	-0.00353646	-0.0380859	0.0366211	-0.956787	0.424621	-0.51328	-0.370729	-0.647149	9.78751	0.577627	1.9042	0.00344456	-0.00783276	-0.00412684	-1.07178	0.28418	-0.0297852	0.280632	-0.632839	-0.335476	-0.638918	9.84388	0.826771	-0.182077	-0.00782999	0.00584041	-0.0106206	-0.992676	0.317383	0.30957	-0.561303	-0.31659	0.635863	-0.42472	9.65063	-1.73519	-0.0940721	0.0463417	0.00427588	-0.00924627	-1.02832	-0.163574	-0.0996094	0.165813	-0.511622	-0.177708	-0.824117	9.69174	1.39565	4.16939	0.0446589	0.0246808	-0.0249436	-0.948242	-0.445801	0.0109863	0.0562528	-0.301156	-0.0165109	-0.951771	6.03178	0.101328	8.50968	0.00660885	-0.0442724	-0.0103075	-0.883545	0.0234375	-0.540039	0.205931	-0.711331	-0.104013	-0.663914	9.66917	-1.61823	-0.213582	0.00703775	0.01942	-0.0175279	-0.957275	0.416016	0.55957	0.0389548	-0.721329	-0.687649	0.0728323	-0.508115	-1.66673	-9.00191	0.00667732	-0.00214554	-0.0219929	0.587646	0.215576	1.08936	-0.153567	-0.740932	0.0366718	-0.652757	9.5589	1.78424	-0.923004	-0.0135621	0.0156782	0.00552805	-0.906738	-0.307129	0.54248	0.210504	-0.94044	-0.248328	0.0979444	-0.791689	-4.42273	-8.64351	-0.0154961	0.00275706	6.53718e-05	0.463135	0.436768	0.857422	
83	0.18756	0.667489	0.240393	-0.679331	-9.53048	-0.812694	-0.0765989	-0.0144881	-0.0173393	0.0144082	1.06885	0.244629	-0.232422	0.0690848	0.103566	0.0514222	-0.990887	-1.95205	-0.652359	9.87551	-0.0199578	0.0161784	-0.0271513	-0.0383301	0.0407715	-0.96167	0.424627	-0.513103	-0.370765	-0.647264	9.64565	0.615844	1.90607	-0.00949964	0.0183646	-0.00279023	-1.07178	0.281982	-0.0251465	0.280532	-0.632717	-0.33554	-0.639049	9.70056	0.631503	-0.309507	0.0130671	0.0106015	-0.0049374	-0.997314	0.323975	0.309326	-0.56132	-0.316609	0.635923	-0.424595	9.75079	-1.72179	0.160752	-0.039816	0.0141576	-0.0140909	-1.02661	-0.156982	-0.102051	0.165736	-0.511571	-0.177583	-0.824191	9.78055	1.55754	4.35032	-0.00731434	0.0216612	-0.0165027	-0.950684	-0.439209	0.00415039	0.0563697	-0.303107	-0.0175704	-0.951126	6.09127	0.114059	8.57139	0.0705107	-0.0734098	-0.0255869	-0.881348	0.0212402	-0.531494	0.205377	-0.711586	-0.103831	-0.66384	9.7701	-1.47441	-0.417666	-0.0406122	0.00068671	-0.0240049	-0.955078	0.416016	0.561768	0.0391182	-0.721011	-0.687969	0.0728816	-0.496457	-1.66426	-8.98925	0.0112919	0.00701879	-0.0231557	0.587891	0.210938	1.08936	-0.153366	-0.740962	0.0364009	-0.652786	9.60492	1.66252	-0.941802	0.0484785	0.00885164	-0.00487014	-0.9021	-0.311523	0.540283	0.210361	-0.940454	-0.248435	0.097846	-0.803511	-4.41231	-8.6835	0.000415771	0.0107955	-0.00781369	0.454346	0.436768	0.853027	
84	0.187354	0.667746	0.240307	-0.679166	-9.5683	-0.900198	-0.119249	0.0188982	0.0125224	-0.00494564	1.07324	0.244629	-0.22583	0.0685343	0.103445	0.0512173	-0.990949	-2.00012	-0.531203	9.83472	-0.000895297	0.0108567	-0.0417035	-0.0361328	0.0432129	-0.952148	0.42409	-0.513783	-0.370166	-0.64742	9.83624	0.439751	1.84941	-0.0260196	-0.0142811	0.0115465	-1.06543	0.283936	-0.0275879	0.28055	-0.632789	-0.335542	-0.638969	9.66664	0.892746	-0.466781	0.00462588	-0.0024393	0.004535	-0.994873	0.321777	0.309326	-0.561364	-0.316316	0.63612	-0.424459	9.61522	-1.82134	-0.0614204	-0.00617389	0.00529986	-0.00759114	-1.02637	-0.163574	-0.104248	0.165456	-0.511481	-0.176469	-0.824542	9.72981	1.17659	4.42047	-0.0311967	0.0200438	-0.00661379	-0.948486	-0.443604	0.00219727	0.0560346	-0.304578	-0.0186543	-0.950655	6.06922	0.102041	8.76823	0.0210329	-0.0417399	-0.0358909	-0.885254	0.0168457	-0.531494	0.205338	-0.71156	-0.103644	-0.66391	9.54774	-1.65199	-0.227552	0.0152992	0.0138042	-0.0179961	-0.952881	0.413818	0.557129	0.0391464	-0.7211	-0.687892	0.0727145	-0.509973	-1.64218	-9.06663	0.0133615	0.00839037	-0.021853	0.592773	0.206299	1.0918	-0.152449	-0.741088	0.0358546	-0.652887	9.53091	1.75279	-0.900284	0.0540389	0.0140318	0.0157558	-0.906738	-0.304932	0.544678	0.210361	-0.940454	-0.248435	0.097846	-0.803511	-4.41231	-8.6835	0.000415771	0.0107955	-0.00781369	0.454346	0.436768	0.853027	
