40	Head	00b4120a												Throax	00b411e8												LUpArm	00b411d9												LFoArm	00b41148												RUpArm	00b411db												RFoArm	00b41204												Waist	00b411f7												Lthigh	00b411f4												Lshank	00b4111b												Rthigh	00b411c8												Rshank	00b411ee												
PacketCount	q0	q1	q2	q3	accX	accY	accZ	gyrX	gyrY	gyrZ	magX	magY	magZ	q0	q1	q2	q3	accX	accY	accZ	gyrX	gyrY	gyrZ	magX	magY	magZ	q0	q1	q2	q3	accX	accY	accZ	gyrX	gyrY	gyrZ	magX	magY	magZ	q0	q1	q2	q3	accX	accY	accZ	gyrX	gyrY	gyrZ	magX	magY	magZ	q0	q1	q2	q3	accX	accY	accZ	gyrX	gyrY	gyrZ	magX	magY	magZ	q0	q1	q2	q3	accX	accY	accZ	gyrX	gyrY	gyrZ	magX	magY	magZ	q0	q1	q2	q3	accX	accY	accZ	gyrX	gyrY	gyrZ	magX	magY	magZ	q0	q1	q2	q3	accX	accY	accZ	gyrX	gyrY	gyrZ	magX	magY	magZ	q0	q1	q2	q3	accX	accY	accZ	gyrX	gyrY	gyrZ	magX	magY	magZ	q0	q1	q2	q3	accX	accY	accZ	gyrX	gyrY	gyrZ	magX	magY	magZ	q0	q1	q2	q3	accX	accY	accZ	gyrX	gyrY	gyrZ	magX	magY	magZ	
0	0.890953	0.0148598	-0.45346	0.0188937	8.47063	0.11364	6.22168	0.00454432	-0.0141866	0.0131402	-0.587646	-0.0344238	-0.853027	0.840522	-0.0449088	-0.539881	0.00583252	9.14197	-0.832952	4.15681	-0.00603677	0.0014851	-0.0145952	-0.623047	-0.0178223	-0.691895	0.898701	-0.00660392	-0.438387	0.0104488	8.21327	-0.134805	6.37698	-0.0221196	0.00130196	0.00572491	-0.675293	-0.0671387	-0.881836	0.887011	0.00640273	-0.455564	-0.0750447	7.93028	0.83274	5.78697	0.00110161	-0.00203299	0.00146559	-0.539062	0.0231934	-0.898682	0.849831	-0.0956097	-0.51819	0.0111615	8.76071	-1.66007	4.40349	0.00837892	0.00166593	-0.00738834	-0.666504	0.19165	-0.812256	0.821817	0.136824	-0.320666	0.450633	8.05122	-0.704489	9.2861	-0.0124377	0.0133197	-0.0160237	-0.600342	0.0166016	-0.988037	0.624363	0.268859	-0.709844	0.184413	9.56752	0.524085	-1.46632	0.00214258	-0.0103697	-0.0119617	-1.03906	-0.0996094	-0.17749	0.981714	0.0473024	-0.183316	0.0198748	3.9668	1.026	10.2742	0.00952666	0.000737325	-0.0136327	-0.0454102	-0.104492	-1.06055	-0.0637099	0.445633	-0.882436	0.136601	0.0721236	-2.8248	-8.75627	0.00496101	0.00277841	-0.0169689	-0.375732	0.33252	0.969238	0.984712	0.0226788	-0.170362	0.0283605	3.52302	0.385226	9.84493	-0.0036999	-0.00387951	0.00314592	0.0175781	-0.0720215	-1.14893	-0.027078	0.167287	-0.974052	0.150012	-0.0535614	-2.67711	-9.37366	0.00178033	0.00713808	-0.00450359	-0.460205	0.320801	0.999512	
1	0.890753	0.0149833	-0.453847	0.0189113	8.49475	0.153373	6.23389	0.00184213	-0.0227632	-0.006135	-0.585938	-0.027832	-0.853271	0.840389	-0.0445498	-0.540115	0.00613417	9.06239	-0.800551	4.03763	0.0144282	0.000187594	-0.0148327	-0.625	-0.0178223	-0.687256	0.898624	-0.00698311	-0.438546	0.0101582	8.26429	-0.0998266	6.38752	-0.023865	0.0017226	-0.00377319	-0.67334	-0.0649414	-0.881836	0.886964	0.00628434	-0.455667	-0.0749806	7.97037	0.82104	5.73563	0.00620727	0.00179427	0.00750961	-0.545654	0.0229492	-0.89209	0.84984	-0.0954578	-0.518202	0.0112578	8.67668	-1.72136	4.41628	0.0121259	0.00378668	-0.0141231	-0.668213	0.182861	-0.810059	0.821801	0.136827	-0.320688	0.450645	8.09222	-0.733135	9.30595	0.00239397	0.0127258	-0.0143137	-0.595703	0.0144043	-0.983643	0.624612	0.268815	-0.709593	0.184597	9.63925	0.498801	-1.52692	0.0146504	0.0240442	-0.00899852	-1.03491	-0.0952148	-0.175537	0.981678	0.0472963	-0.183506	0.0199029	3.96851	1.00858	10.3203	0.00629814	0.00108532	-0.0142876	-0.0476074	-0.104492	-1.06519	-0.0637091	0.445544	-0.882501	0.13647	0.072519	-2.82411	-8.765	0.00209003	-0.000801268	-0.016452	-0.375732	0.327881	0.964844	0.984649	0.0226678	-0.170717	0.0284182	3.53362	0.385326	9.89608	0.00327584	-0.000143806	0.00813367	0.0195312	-0.0654297	-1.14453	-0.0271757	0.167257	-0.974057	0.149999	-0.0524146	-2.66806	-9.35996	0.00244981	0.00240432	-0.00296946	-0.460205	0.322998	0.999512	
2	0.890651	0.0148602	-0.454052	0.0188992	8.48675	0.105784	6.18997	-0.00867544	-0.0216925	0.00341804	-0.590332	-0.0280762	-0.848877	0.840273	-0.0444674	-0.540301	0.00622489	9.10255	-0.815257	4.05637	-0.000280633	-0.00338124	-0.0150547	-0.623047	-0.015625	-0.687256	0.898623	-0.00733209	-0.438544	0.0100909	8.23435	-0.149836	6.35744	-0.022785	0.00506388	0.00798925	-0.675293	-0.0693359	-0.875	0.886957	0.00627741	-0.455693	-0.0749146	7.97389	0.862162	5.76802	0.00546198	0.00366335	0.00557428	-0.54126	0.0251465	-0.894287	0.84993	-0.0950138	-0.51813	0.0115606	8.71207	-1.66811	4.40044	0.0430655	0.0147274	-0.0104286	-0.66626	0.187256	-0.814697	0.821848	0.136819	-0.320646	0.450591	8.08414	-0.772	9.28058	0.00234792	0.00988509	-0.00754491	-0.589111	0.0100098	-0.983643	0.624869	0.268599	-0.709433	0.184657	9.62459	0.528906	-1.51212	0.0228486	0.02961	-0.0156589	-1.03491	-0.0952148	-0.171143	0.981642	0.0472796	-0.183709	0.0198686	3.98244	1.04408	10.3088	0.00792779	0.0120225	-0.0196517	-0.0429688	-0.111084	-1.05811	-0.06375	0.445439	-0.882567	0.136365	0.0547188	-2.79473	-8.76257	0.00662143	0.000349626	-0.0154734	-0.37793	0.325684	0.962646	0.98462	0.02255	-0.170903	0.0284062	3.5863	0.370063	9.86217	0.000769598	0.00418417	0.00769569	0.0197754	-0.0698242	-1.14648	-0.0271757	0.167257	-0.974057	0.149999	-0.0524146	-2.66806	-9.35996	0.00244981	0.00240432	-0.00296946	-0.460205	0.322998	0.999512	
3	0.890339	0.0146849	-0.454667	0.018917	8.47147	0.0975256	6.16191	-0.00511668	-0.0347153	0.00525325	-0.594482	-0.0302734	-0.84668	0.840213	-0.0444277	-0.540398	0.00622911	9.09731	-0.824853	4.08323	-0.000491086	0.0105667	-0.0187024	-0.625244	-0.015625	-0.689697	0.898616	-0.00749465	-0.438557	0.0100382	8.20343	-0.185853	6.35168	-0.00949889	0.00401615	0.00249582	-0.67749	-0.0649414	-0.881836	0.887008	0.00641424	-0.4556	-0.0748662	7.94206	0.824884	5.71517	0.00944255	0.00837565	0.000911578	-0.543701	0.0251465	-0.889893	0.849964	-0.0946431	-0.518138	0.0117242	8.72024	-1.66065	4.36168	0.0323747	0.00769172	-0.0175064	-0.664062	0.185059	-0.810059	0.82173	0.137001	-0.320626	0.450766	8.06043	-0.682633	9.27214	0.00334366	0.0127302	-0.014197	-0.595947	0.0166016	-0.990234	0.625148	0.26823	-0.709336	0.184622	9.63398	0.507754	-1.48748	0.00546556	0.0167473	-0.00704221	-1.03931	-0.0974121	-0.17749	0.981638	0.0472971	-0.183731	0.0198397	3.98636	1.04525	10.2836	0.00672272	0.0140655	-0.0199971	-0.0429688	-0.108887	-1.06055	-0.0637745	0.445563	-0.882485	0.136483	0.0640142	-2.80766	-8.74534	0.00848139	0.00141103	-0.01643	-0.37793	0.325439	0.969482	0.984608	0.0225848	-0.170938	0.028592	3.55009	0.415556	9.86112	0.00471668	0.00779134	0.00944029	0.0131836	-0.0744629	-1.14429	-0.0270498	0.167393	-0.974074	0.149759	-0.0530071	-2.68124	-9.38024	-0.0062165	0.00408125	-0.00553695	-0.464844	0.320801	1.00195	
4	0.889981	0.0145163	-0.455368	0.019042	8.49673	0.0782197	6.15368	-0.00327395	-0.0332163	0.00733412	-0.594727	-0.0258789	-0.848877	0.840216	-0.0445307	-0.540384	0.00621659	9.08881	-0.808572	4.08267	-0.0183447	0.0186592	-0.0135766	-0.618408	-0.0200195	-0.684814	0.898659	-0.00754229	-0.438468	0.0100371	8.20638	-0.168874	6.3851	0.00402844	0.00406486	0.00168683	-0.67749	-0.0627441	-0.879639	0.887018	0.00641955	-0.455588	-0.0748181	7.93322	0.808548	5.72321	0.0033326	0.0060612	0.00239882	-0.543457	0.0229492	-0.896484	0.850027	-0.0945991	-0.518041	0.0117783	8.71837	-1.62843	4.38968	0.000272779	0.0157428	-0.00695159	-0.664062	0.185059	-0.814697	0.821767	0.136991	-0.32056	0.450748	8.07011	-0.666462	9.30689	0.00671636	0.01701	-0.0167196	-0.598145	0.0166016	-0.988037	0.625271	0.268205	-0.709209	0.184729	9.60226	0.507357	-1.4855	0.0201934	0.0228062	-0.0173355	-1.03687	-0.0996094	-0.17749	0.981654	0.0473815	-0.183642	0.0196229	3.97448	1.01839	10.2828	0.0066949	0.0186729	-0.0175072	-0.0432129	-0.106689	-1.06055	-0.0637444	0.445699	-0.882407	0.136556	0.0763277	-2.83151	-8.74114	0.00587011	0.00258368	-0.0168232	-0.380127	0.321045	0.967285	0.98458	0.0225971	-0.171087	0.0286589	3.51811	0.400847	9.84085	0.00471425	-0.000650432	0.00927808	0.0241699	-0.0698242	-1.14429	-0.027101	0.167408	-0.974074	0.149732	-0.0544465	-2.67142	-9.37062	0.000970894	0.0024779	-0.00547838	-0.460205	0.320801	0.997314	
5	0.889625	0.014339	-0.456068	0.0190696	8.52707	0.0827894	6.14293	-0.00750411	-0.0351352	0.0033983	-0.594482	-0.0324707	-0.851074	0.840293	-0.0443487	-0.540279	0.00628915	9.09701	-0.796941	4.07239	0.000177121	0.0262923	-0.0206034	-0.62085	-0.015625	-0.689697	0.898696	-0.00764681	-0.43839	0.0100467	8.21424	-0.104965	6.37642	-0.00746303	0.0108622	0.00322902	-0.675293	-0.0649414	-0.881836	0.887061	0.0064622	-0.455509	-0.0747821	7.91366	0.835905	5.73521	0.00367813	0.00640976	0.000970877	-0.554932	0.0317383	-0.898926	0.850132	-0.0947052	-0.517857	0.01144	8.6864	-1.644	4.4233	-0.010082	0.0139012	-0.0152178	-0.668213	0.185059	-0.810059	0.821751	0.136879	-0.320567	0.450806	8.04233	-0.678782	9.27741	-0.00576864	0.0159684	-0.010835	-0.602539	0.0187988	-0.988037	0.625111	0.268271	-0.709317	0.184757	9.58665	0.519538	-1.46449	0.0248902	0.000674189	-0.0135685	-1.04126	-0.0996094	-0.17749	0.981661	0.0474589	-0.183576	0.0197223	3.97852	1.03169	10.3043	0.00927292	0.01862	-0.0154287	-0.0407715	-0.111084	-1.06055	-0.0637208	0.445627	-0.88245	0.136521	0.0694376	-2.80769	-8.74127	0.00614948	0.00416493	-0.0167996	-0.375732	0.330078	0.964844	0.984611	0.0226023	-0.170882	0.028799	3.53321	0.384679	9.84006	-0.00408969	0.0088472	0.00260662	0.015625	-0.0742188	-1.14648	-0.0271196	0.167485	-0.974039	0.149871	-0.0623608	-2.6814	-9.36626	0.00189849	0.00540643	-0.00599621	-0.4646	0.318604	0.999512	
6	0.889458	0.014242	-0.456401	0.0189703	8.57679	0.0673136	6.16819	-0.00290015	-0.0100274	-0.00287263	-0.596924	-0.0280762	-0.848877	0.840222	-0.0442393	-0.540398	0.0063511	9.06427	-0.800064	4.06181	0.00524618	0.00463117	-0.0148449	-0.623047	-0.015625	-0.687256	0.898665	-0.00804816	-0.438455	0.0097021	8.21109	-0.138081	6.38675	-0.0199027	0.00244044	-0.010556	-0.67749	-0.0627441	-0.88208	0.887078	0.00644053	-0.455481	-0.0747531	7.92703	0.824189	5.73624	0.00341342	0.00797741	0.00348648	-0.545898	0.0251465	-0.896484	0.850122	-0.0945481	-0.517899	0.0115999	8.67968	-1.66588	4.41818	0.0129329	0.00703438	-0.00976588	-0.668213	0.182861	-0.812256	0.821781	0.13689	-0.320516	0.450784	8.05921	-0.70887	9.30805	0.0068016	0.0156012	-0.0176462	-0.595947	0.0144043	-0.992188	0.624854	0.268448	-0.709454	0.184846	9.66736	0.519581	-1.48885	0.0310028	0.00863091	-0.0182906	-1.03296	-0.0952148	-0.17749	0.981654	0.0473692	-0.183638	0.0197278	3.96914	1.00744	10.2957	-0.000413315	0.00910622	-0.0149826	-0.0410156	-0.104492	-1.05811	-0.0637208	0.445627	-0.88245	0.136521	0.0694376	-2.80769	-8.74127	0.00614948	0.00416493	-0.0167996	-0.375732	0.330078	0.964844	0.984607	0.0226251	-0.170914	0.0287249	3.54167	0.369869	9.86542	0.00737703	0.0111953	0.000851091	0.0244141	-0.0742188	-1.14648	-0.0271679	0.167482	-0.974034	0.149895	-0.050589	-2.67474	-9.37813	0.0054089	0.00446253	-0.0028429	-0.455566	0.318604	0.997314	
7	0.88938	0.0143284	-0.456552	0.018936	8.52016	0.0480861	6.11698	0.00629289	-0.0120524	-0.00265543	-0.598633	-0.034668	-0.855469	0.840215	-0.0445355	-0.540385	0.00624493	9.15075	-0.83314	4.15643	-0.0270944	0.0262447	-0.0114121	-0.625244	-0.015625	-0.685059	0.898664	-0.00794373	-0.438455	0.00985568	8.28965	-0.23056	6.41875	0.0277153	0.00791356	0.00899053	-0.675537	-0.0627441	-0.88208	0.887086	0.00642725	-0.455463	-0.0747678	7.97954	0.811758	5.76692	0.00265199	0.00677218	-0.000739176	-0.548096	0.0273438	-0.892334	0.850116	-0.0943493	-0.517937	0.0118996	8.68996	-1.5885	4.42505	0.00636371	0.00368566	-0.00783848	-0.659668	0.189453	-0.810059	0.82181	0.136889	-0.320486	0.450753	8.06447	-0.681777	9.29523	0.00503875	0.0146121	-0.0165728	-0.5979	0.0144043	-0.98584	0.625217	0.26834	-0.709141	0.184975	9.5869	0.513991	-1.4079	0.0198501	0.0350308	-0.0142045	-1.03271	-0.0974121	-0.17749	0.981658	0.0473737	-0.183612	0.0197712	4.00621	1.01689	10.3187	0.0100932	0.0200343	-0.0167211	-0.0368652	-0.104492	-1.06299	-0.0636463	0.445909	-0.882286	0.136695	0.075018	-2.8135	-8.75202	0.0057361	0.00324269	-0.0162626	-0.380127	0.323242	0.97168	0.9846	0.0226921	-0.17095	0.0287082	3.54959	0.368907	9.83884	0.0081677	0.00729427	0.00181786	0.0244141	-0.0720215	-1.14429	-0.0270637	0.16752	-0.974044	0.149807	-0.0590137	-2.67125	-9.36788	-0.00296722	0.00703402	-0.00452429	-0.460205	0.320801	0.999512	
8	0.889278	0.0145191	-0.456735	0.0191461	8.56376	0.103216	6.1435	0.00934108	-0.00838368	0.00910997	-0.598877	-0.0302734	-0.851074	0.840388	-0.0446642	-0.540104	0.00632311	9.07883	-0.813142	4.08516	-0.00584157	0.0241088	-0.0122987	-0.623047	-0.015625	-0.685059	0.898686	-0.00748199	-0.438411	0.0101423	8.20188	-0.0924469	6.40129	0.0217346	0.00504838	0.00140484	-0.67749	-0.0671387	-0.879639	0.88707	0.00647068	-0.455491	-0.074787	7.91411	0.815858	5.76536	0.00675356	0.00366061	-0.00218024	-0.54126	0.0253906	-0.896484	0.850026	-0.0950069	-0.517972	0.0115924	8.65871	-1.75064	4.45422	-0.0220631	0.00676294	-0.00730469	-0.659668	0.187256	-0.810059	0.821803	0.136973	-0.320447	0.450769	8.0657	-0.685501	9.33206	0.00962648	0.0140289	-0.0171794	-0.598145	0.0166016	-0.988037	0.625231	0.268386	-0.709065	0.185156	9.64641	0.512132	-1.45833	0.0333388	0.0199869	-0.0115977	-1.03931	-0.0974121	-0.175537	0.98169	0.0475796	-0.183374	0.019884	3.9575	1.0009	10.2857	0.0147662	0.0266476	-0.0135581	-0.0454102	-0.106689	-1.06055	-0.0636345	0.44586	-0.882312	0.136696	0.0729422	-2.82164	-8.7404	0.00737308	0.00397318	-0.0158815	-0.375732	0.327881	0.97168	0.984622	0.0228018	-0.170797	0.0287817	3.54067	0.390386	9.87105	0.00667458	0.0113527	0.00404008	0.0219727	-0.067627	-1.14673	-0.0270957	0.167514	-0.97406	0.149706	-0.0470524	-2.67132	-9.38756	0.00144966	0.00462622	-0.00396674	-0.458008	0.322998	0.999512	
9	0.889298	0.0144891	-0.45669	0.0193294	8.57367	0.103576	6.1403	0.0049061	0.00104243	0.0134327	-0.598877	-0.0324707	-0.84668	0.840458	-0.0447324	-0.53999	0.00631027	9.08526	-0.825779	4.1181	-0.0137202	0.0253492	-0.0145354	-0.623047	-0.0178223	-0.691895	0.898694	-0.00729995	-0.438396	0.0102152	8.21072	-0.15808	6.37806	0.0199294	0.00618965	-0.000552972	-0.675293	-0.0649414	-0.884277	0.887051	0.00642271	-0.455529	-0.0747855	7.92167	0.84769	5.73707	0.00189002	0.00365164	0.00198771	-0.546143	0.029541	-0.890137	0.849945	-0.0951402	-0.518081	0.0115936	8.69483	-1.69026	4.41733	-0.00920462	-0.00250194	-0.00825358	-0.67041	0.185059	-0.807861	0.821846	0.13711	-0.320433	0.450659	8.06381	-0.709975	9.29943	0.00300687	0.0112959	-0.0223975	-0.59375	0.0166016	-0.988037	0.625329	0.268589	-0.708796	0.185557	9.62364	0.539727	-1.4635	0.0361799	0.0318905	-0.0161621	-1.03296	-0.0952148	-0.181885	0.981707	0.0476244	-0.183267	0.0199229	3.96245	1.02453	10.3041	0.0105659	0.0250572	-0.0154365	-0.0429688	-0.11084	-1.06519	-0.0635484	0.44596	-0.882279	0.136619	0.0932741	-2.82062	-8.73277	-0.000653559	0.000889009	-0.0175443	-0.380127	0.325439	0.969238	0.984629	0.0229539	-0.170739	0.0287467	3.55705	0.373194	9.86718	0.0105247	0.0140614	0.00204065	0.0222168	-0.0720215	-1.14648	-0.0271319	0.167496	-0.974059	0.149729	-0.0506878	-2.67096	-9.37455	0.004508	0.00509758	-0.00367281	-0.458008	0.322998	0.999512	
10	0.889413	0.0142665	-0.456469	0.0193971	8.53997	0.0757518	6.16108	-0.00988737	0.00726752	0.00198692	-0.594482	-0.0302734	-0.842529	0.840599	-0.0445034	-0.539788	0.00640658	9.11703	-0.843368	4.07975	-0.00235815	0.0276542	-0.0193128	-0.627197	-0.0178223	-0.689697	0.89876	-0.00633801	-0.438264	0.0106628	8.23942	-0.18987	6.36873	0.0447878	0.00769977	-0.000471221	-0.67749	-0.0693359	-0.881836	0.88705	0.00648506	-0.455523	-0.07483	7.95162	0.840421	5.75234	0.0102643	0.00675904	-0.00434123	-0.543457	0.0229492	-0.896484	0.849883	-0.0958952	-0.518057	0.010954	8.71731	-1.62972	4.44528	-0.0521814	0.015783	-0.0220062	-0.66626	0.189453	-0.810059	0.821727	0.137551	-0.320358	0.450793	8.07633	-0.632473	9.29548	0.0222837	0.00549304	-0.0133353	-0.598145	0.0187988	-0.990234	0.625283	0.268979	-0.708506	0.186255	9.60825	0.503811	-1.39627	0.0655733	0.0197209	-0.0137981	-1.03906	-0.0996094	-0.179688	0.981715	0.0477448	-0.183186	0.0199564	3.98465	1.05642	10.2793	0.0122653	0.0186369	-0.0179164	-0.0432129	-0.106445	-1.07227	-0.0635243	0.445852	-0.882339	0.136595	0.0705076	-2.8196	-8.74521	0.00943111	0.00400461	-0.0160197	-0.380371	0.330078	0.971436	0.984662	0.0230708	-0.170529	0.0287742	3.54625	0.409359	9.85918	0.00498366	0.0187781	0.00390251	0.0197754	-0.067627	-1.14429	-0.027151	0.167495	-0.974062	0.149708	-0.0506756	-2.68142	-9.37477	-0.000353154	0.00589155	-0.00563002	-0.455811	0.320801	1.00195	
11	0.889555	0.0142299	-0.456201	0.0192534	8.51878	0.0539768	6.1571	0.000410062	0.00869685	-0.00558551	-0.592285	-0.0324707	-0.848877	0.840898	-0.0445958	-0.539316	0.00632033	9.1007	-0.813005	4.06968	-0.0155907	0.0358322	-0.0145939	-0.621094	-0.0112305	-0.689941	0.898776	-0.00493269	-0.438234	0.011292	8.21526	-0.0864914	6.41034	0.0614111	0.0017578	-0.00495762	-0.679688	-0.0693359	-0.881836	0.887045	0.00652684	-0.455514	-0.0749366	7.93902	0.80113	5.74571	0.00105749	0.00411806	-0.00199633	-0.54126	0.0229492	-0.894287	0.849625	-0.0966449	-0.51835	0.0104546	8.68545	-1.73634	4.37636	-0.0280972	-0.00825166	-0.0117871	-0.668457	0.187256	-0.816895	0.821673	0.137872	-0.320344	0.450804	8.05685	-0.748794	9.3012	0.0177851	0.00885935	-0.0195004	-0.59375	0.0144043	-0.990234	0.624627	0.269936	-0.708548	0.186912	9.65774	0.533839	-1.34642	0.0660907	-0.0256223	-0.0254311	-1.03491	-0.0996094	-0.175293	0.981749	0.0478238	-0.182984	0.0199827	3.95285	0.993338	10.2994	0.00936587	0.0247485	-0.0170565	-0.0344238	-0.108643	-1.06274	-0.0635402	0.44579	-0.882371	0.136582	0.0662378	-2.81979	-8.73227	0.0069771	0.00142026	-0.0153232	-0.377686	0.323242	0.969482	0.984688	0.023107	-0.170383	0.0287177	3.52001	0.389343	9.85413	0.00807049	0.0176981	0.00355163	0.0175781	-0.0720215	-1.13965	-0.0271671	0.167485	-0.974061	0.14972	-0.040514	-2.66275	-9.39529	0.0036616	0.00679502	-0.00426851	-0.458008	0.320801	0.999512	
12	0.889689	0.0143707	-0.455927	0.0194118	8.48139	0.0625031	6.15108	0.0118184	0.00748582	0.00435506	-0.59668	-0.0324707	-0.851074	0.841217	-0.0447723	-0.538804	0.0062255	9.11298	-0.806064	4.17814	-0.0166117	0.0465452	-0.0161228	-0.623047	-0.0134277	-0.689697	0.898808	-0.003766	-0.438167	0.0118113	8.23519	-0.163819	6.39696	0.0599769	0.0102882	0.00168098	-0.677246	-0.0756836	-0.879395	0.887022	0.00644233	-0.455549	-0.0750052	7.92249	0.872529	5.77854	-0.00291016	0.00439576	-0.00200052	-0.548096	0.0273438	-0.890137	0.849437	-0.0975128	-0.518507	0.00996121	8.69822	-1.6367	4.42079	-0.040575	-0.00279814	-0.00580996	-0.662109	0.19165	-0.810059	0.821578	0.138414	-0.320223	0.450896	8.08188	-0.64874	9.2776	0.0224159	0.00873119	-0.0178606	-0.59375	0.0166016	-0.994385	0.624171	0.270995	-0.708326	0.187743	9.64449	0.52517	-1.62305	0.0880279	0.0273459	-0.0234155	-1.04346	-0.0974121	-0.179688	0.981793	0.04796	-0.182693	0.0201164	3.95956	1.08504	10.3091	0.0140672	0.0279705	-0.0136529	-0.0366211	-0.106689	-1.06055	-0.0634913	0.445892	-0.882328	0.136549	0.0698296	-2.80924	-8.74906	0.00653313	0.00354106	-0.0169803	-0.373047	0.321045	0.969482	0.984726	0.0233108	-0.170117	0.0288216	3.5619	0.371427	9.85143	0.0101358	0.0235396	0.00643368	0.0222168	-0.0720215	-1.14893	-0.0270888	0.167578	-0.974037	0.149787	-0.0521371	-2.67404	-9.37009	0.00221024	0.00441732	-0.00464433	-0.451416	0.325195	0.997314	
13	0.889803	0.0146726	-0.455681	0.0197371	8.57496	0.109482	6.15929	0.0158477	0.010624	0.00447923	-0.599121	-0.0280762	-0.848877	0.84161	-0.0448252	-0.538186	0.00619551	9.04625	-0.800662	4.06115	-0.00811183	0.0380373	-0.0150604	-0.618652	-0.015625	-0.692139	0.898853	-0.0021139	-0.438067	0.0124558	8.20531	-0.0108877	6.41419	0.0672206	0.00695998	-0.00866828	-0.675293	-0.0737305	-0.884033	0.886954	0.0061593	-0.455649	-0.0752231	7.94001	0.836932	5.72937	-0.008728	-0.00102931	-0.000157621	-0.545898	0.0273438	-0.896729	0.849116	-0.0990092	-0.518763	0.00917981	8.69386	-1.79021	4.32496	-0.0649536	-0.00401714	-0.00701899	-0.668701	0.193848	-0.807861	0.82145	0.138944	-0.320127	0.451035	8.07941	-0.634799	9.32252	0.0249	0.00691771	-0.0178315	-0.5979	0.0144043	-0.983643	0.623737	0.271952	-0.708186	0.188325	9.56505	0.462241	-1.36656	0.0585401	-0.034827	-0.0321208	-1.03687	-0.0996094	-0.175293	0.981859	0.0480933	-0.182288	0.0202535	3.95343	1.01674	10.3041	0.0106494	0.0324063	-0.0143471	-0.0366211	-0.108887	-1.06055	-0.0634523	0.445818	-0.882374	0.136514	0.0778331	-2.80289	-8.74739	0.00547877	0.00432304	-0.017289	-0.377686	0.323242	0.967285	0.984762	0.0234609	-0.169874	0.0289367	3.51581	0.419498	9.88579	0.011028	0.0215099	0.00636225	0.0219727	-0.0698242	-1.15112	-0.0271134	0.167586	-0.974046	0.149715	-0.0497747	-2.66916	-9.37887	0.00383637	0.00612583	-0.00552264	-0.460449	0.325195	1.00171	
14	0.890111	0.0146364	-0.455073	0.0198947	8.47982	0.114559	6.14428	-0.00198549	0.0256488	0.00229213	-0.594482	-0.0302734	-0.848877	0.841736	-0.044891	-0.537984	0.0061858	9.07534	-0.791854	4.10748	-0.0133912	0.0333684	-0.0142192	-0.618652	-0.0134277	-0.696777	0.898802	-0.000840753	-0.438167	0.0128065	8.18632	-0.143399	6.39216	0.0631438	-0.00127365	-0.00746173	-0.675049	-0.0778809	-0.881592	0.886906	0.00581844	-0.455722	-0.075378	7.89567	0.812028	5.77828	-0.012473	0.00192038	0.000812329	-0.543457	0.0231934	-0.900879	0.848881	-0.0997167	-0.519019	0.00874746	8.71172	-1.64235	4.3888	-0.0387601	-0.00442839	-0.017206	-0.671143	0.200439	-0.807861	0.821509	0.139407	-0.319857	0.450978	8.0966	-0.653978	9.27388	0.020475	0.00818268	-0.0181854	-0.595703	0.0100098	-0.985596	0.622393	0.273075	-0.709003	0.188071	9.69566	0.546222	-1.63977	0.0486415	-0.0153625	-0.0308901	-1.04126	-0.101807	-0.175293	0.981919	0.0480426	-0.18198	0.0202558	3.93975	1.03998	10.3233	0.00461132	0.0260512	-0.0180297	-0.0410156	-0.108643	-1.06738	-0.0634493	0.445744	-0.882416	0.136484	0.0798943	-2.8164	-8.73813	0.00651925	0.00355644	-0.0169876	-0.373535	0.33252	0.969238	0.984792	0.0235297	-0.169685	0.0289394	3.55596	0.379716	9.85977	0.0053284	0.0190391	0.00315818	0.0222168	-0.0720215	-1.14648	-0.0272127	0.167582	-0.974021	0.149864	-0.0518584	-2.67184	-9.36502	0.00715217	0.00449247	-0.00465895	-0.458008	0.322998	0.999512	
15	0.890387	0.0144446	-0.45455	0.0196761	8.55015	0.115144	6.17516	-0.0149107	0.0220234	-0.00517465	-0.592529	-0.0280762	-0.848877	0.842264	-0.0449265	-0.537158	0.00582202	9.01908	-0.813901	4.09862	-0.0059969	0.0298432	-0.0200475	-0.618652	-0.0134277	-0.692139	0.898816	0.000714452	-0.438119	0.0134513	8.22534	0.0346463	6.42607	0.0653459	0.0082327	-0.00203412	-0.673096	-0.0800781	-0.885986	0.886877	0.00566324	-0.455757	-0.0755153	7.92688	0.785654	5.77469	-0.0123666	0.000626906	-0.00350681	-0.550537	0.029541	-0.892334	0.848567	-0.101104	-0.519278	0.00792569	8.66541	-1.80842	4.32877	-0.0606008	-0.00272374	-0.0111699	-0.666748	0.198242	-0.807861	0.821359	0.139831	-0.319873	0.451107	8.03379	-0.661318	9.29687	0.0137901	0.00450518	-0.0156186	-0.599854	0.00561523	-0.991943	0.622589	0.273484	-0.708587	0.188397	9.56277	0.497919	-1.46626	0.0380581	0.0106852	-0.0278805	-1.03271	-0.0996094	-0.175293	0.981959	0.0481817	-0.18171	0.0203878	3.94616	1.04044	10.2988	0.0127777	0.0297707	-0.0131807	-0.0322266	-0.11084	-1.06982	-0.0634312	0.445679	-0.882453	0.136467	0.079332	-2.81563	-8.74692	0.00525256	0.0040129	-0.015774	-0.37793	0.325439	0.97168	0.984823	0.0235646	-0.169501	0.0289288	3.51139	0.377101	9.84025	0.006572	0.0256973	0.00251368	0.0202637	-0.0786133	-1.14185	-0.0272387	0.167561	-0.974044	0.149731	-0.0455295	-2.67027	-9.40857	-0.00342548	0.00556917	-0.00427701	-0.458008	0.320801	1.00195	
16	0.890864	0.0140718	-0.453635	0.0194548	8.48395	0.0653383	6.17897	-0.0143175	0.0404798	-0.00300794	-0.592285	-0.0302734	-0.853271	0.842324	-0.0449015	-0.537066	0.00585388	9.04646	-0.804789	4.09841	-0.00531518	0.0232147	-0.0156275	-0.616455	-0.015625	-0.694336	0.898821	0.000980326	-0.438108	0.0134895	8.20948	0.0418543	6.41136	0.0251718	0.00508468	-0.00599226	-0.683838	-0.0800781	-0.883789	0.886775	0.00523501	-0.455925	-0.0757247	7.92051	0.851464	5.74144	-0.0193765	-0.00197824	0.00214407	-0.550537	0.029541	-0.896729	0.848411	-0.101483	-0.51946	0.00777531	8.68564	-1.77862	4.33903	-0.0328638	-0.00903824	-0.00883604	-0.666748	0.198242	-0.810059	0.821314	0.140034	-0.319842	0.451148	8.06835	-0.704324	9.28694	0.017689	0.00831798	-0.0174285	-0.593506	0.0100098	-0.983643	0.622088	0.273981	-0.708828	0.188425	9.61426	0.494567	-1.49057	0.053635	-0.0352286	-0.0303256	-1.03662	-0.108154	-0.166748	0.981987	0.0482225	-0.181544	0.0204358	3.91584	1.0419	10.3092	0.0102887	0.0288738	-0.0146626	-0.0302734	-0.106445	-1.06519	-0.0633784	0.445612	-0.882514	0.136316	0.0822465	-2.79518	-8.74183	0.00154124	0.00319042	-0.0167451	-0.377686	0.321045	0.967285	0.984852	0.0236721	-0.169326	0.0288915	3.50017	0.407975	9.88946	0.00816388	0.0149381	0.00291439	0.0222168	-0.0720215	-1.14648	-0.0272387	0.167561	-0.974044	0.149731	-0.0455295	-2.67027	-9.40857	-0.00342548	0.00556917	-0.00427701	-0.458008	0.320801	1.00195	
17	0.891247	0.0138477	-0.452892	0.0193992	8.50221	0.0866383	6.24337	-0.00845999	0.0282596	0.00345477	-0.588135	-0.027832	-0.853271	0.842524	-0.0449163	-0.536751	0.00584972	9.06268	-0.814804	4.19905	-0.0137248	0.0333115	-0.0169221	-0.616211	-0.0200195	-0.694336	0.898738	0.00176987	-0.43827	0.0136274	8.23612	-0.117005	6.3845	0.0474269	-0.000217429	-0.00636881	-0.679199	-0.0866699	-0.87915	0.886678	0.00482194	-0.456074	-0.0759961	7.92908	0.819342	5.73397	-0.0109096	-0.00156406	-0.00250692	-0.545898	0.0273438	-0.894531	0.848173	-0.10233	-0.519689	0.00735502	8.72504	-1.66436	4.36208	-0.0423142	0.00213527	-0.013281	-0.664795	0.204834	-0.803223	0.8212	0.140497	-0.319773	0.45126	8.08521	-0.612933	9.27616	0.0184182	0.0076379	-0.0141946	-0.595459	0.00561523	-0.987793	0.621789	0.274659	-0.708768	0.188652	9.61048	0.544027	-1.57873	0.0410863	0.0218766	-0.0271634	-1.03442	-0.105957	-0.162354	0.982024	0.0482296	-0.181338	0.020476	3.94078	1.04529	10.2901	0.00815577	0.0220425	-0.0148739	-0.0344238	-0.108643	-1.06519	-0.0633822	0.445546	-0.882555	0.136264	0.0663967	-2.80922	-8.74891	0.00672934	0.00245923	-0.016704	-0.375732	0.330078	0.969238	0.984882	0.0238298	-0.169122	0.0289207	3.53784	0.408994	9.85779	0.00904733	0.0205175	0.00396669	0.0241699	-0.067627	-1.14429	-0.0271547	0.167649	-0.974013	0.149851	-0.0424084	-2.67427	-9.36437	0.00286661	0.00584692	-0.0049397	-0.455566	0.318604	0.999512	
18	0.891778	0.0135727	-0.451851	0.0194751	8.4616	0.057657	6.20962	-0.00552917	0.0486057	0.00482308	-0.587891	-0.0322266	-0.855225	0.842622	-0.0445401	-0.536626	0.00613438	9.06872	-0.800711	4.11442	-0.00342219	0.0177926	-0.0158522	-0.614258	-0.0178223	-0.691895	0.898719	0.00317325	-0.438289	0.0140599	8.20162	-0.019369	6.38317	0.0238516	0.00223786	-0.00878464	-0.677246	-0.0866699	-0.87915	0.88658	0.00445476	-0.456224	-0.0762607	7.93493	0.804016	5.73453	-0.0141323	-0.00315074	-0.000574206	-0.546143	0.029541	-0.894531	0.847772	-0.103532	-0.520115	0.0065963	8.70979	-1.77036	4.34384	-0.0103701	-0.00806325	-0.010697	-0.668945	0.202637	-0.801025	0.821111	0.140741	-0.31986	0.451285	8.06651	-0.660586	9.24658	0.0075546	0.00569322	-0.0183771	-0.604004	0.00341797	-0.987549	0.621442	0.275002	-0.708998	0.188428	9.62969	0.511526	-1.6125	0.0278332	-0.00969945	-0.0250601	-1.04102	-0.10376	-0.170898	0.982071	0.0483104	-0.181057	0.0205332	3.90655	1.03095	10.3121	0.0101747	0.0308062	-0.0168078	-0.0366211	-0.108643	-1.06274	-0.0633903	0.445492	-0.882584	0.13625	0.0856783	-2.80937	-8.73233	0.00652398	0.00201666	-0.0162557	-0.375488	0.325684	0.969482	0.984912	0.0237575	-0.168979	0.0288134	3.49657	0.423049	9.88589	-0.00287748	0.012445	-0.000647953	0.0246582	-0.076416	-1.14648	-0.0271547	0.167649	-0.974013	0.149851	-0.0424084	-2.67427	-9.36437	0.00286661	0.00584692	-0.0049397	-0.455566	0.318604	0.999512	
19	0.892028	0.0136144	-0.451357	0.0194346	8.42243	0.0341382	6.23713	0.00184054	0.0410863	-0.00595626	-0.585938	-0.0234375	-0.855469	0.842561	-0.0446199	-0.536716	0.00606023	8.98034	-0.802409	4.12383	-0.0180413	0.00602254	-0.0188848	-0.616455	-0.0178223	-0.696777	0.898657	0.00336875	-0.438413	0.0140702	8.20534	0.0442705	6.36411	0.0188287	-0.00621613	-0.00541785	-0.674805	-0.0910645	-0.878906	0.886516	0.00416578	-0.456323	-0.0764309	7.94651	0.78217	5.72467	-0.00556239	0.00173046	-0.000885767	-0.550537	0.029541	-0.890137	0.847752	-0.103445	-0.520164	0.00669207	8.65052	-1.73787	4.32727	0.0100854	0.00353604	-0.0105705	-0.671143	0.202637	-0.803223	0.820944	0.141205	-0.31985	0.451451	8.0048	-0.582076	9.28975	0.0216273	0.00516813	-0.0109225	-0.595459	0.0078125	-0.98999	0.621388	0.275489	-0.708827	0.188539	9.59534	0.522885	-1.49976	0.0295924	0.021143	-0.0300043	-1.03467	-0.10376	-0.173096	0.98213	0.0484315	-0.18072	0.0203812	3.94257	1.03561	10.3009	0.00701162	0.0212821	-0.0161787	-0.0366211	-0.108887	-1.06055	-0.0633929	0.445549	-0.882552	0.136267	0.0545436	-2.81537	-8.76342	0.00646511	0.00383841	-0.01486	-0.380371	0.330078	0.971436	0.984923	0.0238439	-0.168895	0.0288407	3.48064	0.399746	9.8697	0.00834623	0.0154073	0.00580978	0.0219727	-0.067627	-1.14429	-0.0270736	0.167703	-0.973983	0.150002	-0.0598441	-2.67482	-9.377	0.004515	0.00510633	-0.00367882	-0.462402	0.318604	1.00195	
20	0.892466	0.0135453	-0.450486	0.0195721	8.40364	0.100448	6.27311	-0.00640419	0.0316181	0.0101323	-0.583496	-0.0300293	-0.857422	0.842403	-0.0439287	-0.537011	0.00681675	9.17661	-0.785572	4.22312	0.0208001	0.0202384	-0.00623108	-0.616455	-0.015625	-0.692139	0.898645	0.00317541	-0.438445	0.0138973	8.25783	-0.0646055	6.35803	0.0160708	0.0104456	-0.000323247	-0.677246	-0.0822754	-0.885986	0.886433	0.00391253	-0.456456	-0.0766055	7.9836	0.792509	5.77376	-0.0114578	-0.00150217	0.000235911	-0.545898	0.0273438	-0.896729	0.847608	-0.103424	-0.520404	0.00664286	8.83126	-1.6952	4.31637	-0.017338	-0.00211733	-0.0108591	-0.671143	0.202637	-0.80542	0.820813	0.141515	-0.319861	0.451585	8.18197	-0.721611	9.28603	0.0188057	0.00833568	-0.011512	-0.601807	0.00341797	-0.989746	0.621985	0.275565	-0.708141	0.189036	9.59621	0.579457	-1.54052	0.0479192	0.041799	-0.0161865	-1.03882	-0.10376	-0.170898	0.982146	0.048366	-0.180643	0.0204366	3.92194	1.03876	10.3327	0.00649343	0.0226968	-0.0134439	-0.0322266	-0.108643	-1.06763	-0.0633784	0.445503	-0.882579	0.136252	0.0755262	-2.8045	-8.75527	0.00566367	0.00324866	-0.0170187	-0.380127	0.323242	0.960449	0.984921	0.0238103	-0.168928	0.0287451	3.55735	0.376605	9.90901	0.00613878	0.0122095	0.00255196	0.0222168	-0.0720215	-1.14429	-0.0270736	0.167703	-0.973983	0.150002	-0.0598441	-2.67482	-9.377	0.004515	0.00510633	-0.00367882	-0.462402	0.318604	1.00195	
21	0.892672	0.0135713	-0.450074	0.0196482	8.4079	0.0870941	6.27554	0.00497378	0.0101055	-0.00248369	-0.585938	-0.027832	-0.855225	0.842634	-0.0433564	-0.536688	0.00729872	9.00354	-0.80231	4.09408	0.0326778	0.0288975	-0.0127172	-0.618652	-0.015625	-0.689697	0.898638	0.00454477	-0.438435	0.0142675	8.21769	0.0780789	6.40566	0.0541428	0.00666858	-0.015982	-0.672852	-0.0910645	-0.881348	0.886436	0.00367367	-0.456455	-0.0765909	7.94604	0.861788	5.75075	-0.00680783	0.00518677	0.0050901	-0.548096	0.0273438	-0.894531	0.84743	-0.104457	-0.520493	0.00611757	8.6466	-1.83669	4.30771	-0.0466223	0.00139641	-0.00885738	-0.673584	0.207031	-0.803223	0.820657	0.141936	-0.319794	0.451784	8.05056	-0.527869	9.30545	0.0183492	0.0085164	-0.0155073	-0.599609	0.00341797	-0.985596	0.621376	0.275732	-0.708678	0.188786	9.62289	0.488575	-1.53683	0.0201437	-0.0567809	-0.0173547	-1.03442	-0.105957	-0.166748	0.982212	0.0482763	-0.180312	0.0203983	3.92558	1.0552	10.3356	-0.00331864	0.0277591	-0.0206255	-0.0319824	-0.113037	-1.06519	-0.0633648	0.445614	-0.882533	0.136194	0.0813436	-2.79589	-8.7629	0.00469895	-0.000785052	-0.0161721	-0.375488	0.325684	0.967041	0.984982	0.0239425	-0.168531	0.0288839	3.46323	0.464187	9.89297	0.00619123	0.0276223	0.0057074	0.0222168	-0.076416	-1.14404	-0.0269204	0.167781	-0.973993	0.149875	-0.046292	-2.66808	-9.37888	-0.00317398	0.00553211	-0.0041404	-0.460449	0.325195	1.00415	
22	0.892813	0.0133594	-0.449791	0.0198651	8.43294	0.0892611	6.2728	-0.00582063	0.0108975	0.0145149	-0.581543	-0.0256348	-0.855225	0.842717	-0.0427636	-0.536599	0.00775012	9.06076	-0.844326	4.16448	0.00879694	0.0203645	-0.0150522	-0.618408	-0.0200195	-0.698975	0.898675	0.00467682	-0.438363	0.0141116	8.20626	-0.0469371	6.36053	0.00316879	0.00657271	-0.00562698	-0.679199	-0.0908203	-0.878906	0.886455	0.00330986	-0.456392	-0.0767619	7.95384	0.792268	5.73284	-0.012496	0.00758506	-0.00167421	-0.546387	0.0361328	-0.896729	0.847334	-0.104648	-0.520613	0.00600691	8.75696	-1.74004	4.3145	4.64677e-05	0.00629411	-0.0174725	-0.671387	0.207031	-0.803223	0.820511	0.142223	-0.31975	0.451989	8.11038	-0.667625	9.22782	0.0236351	0.00963699	-0.00745783	-0.602051	0.0078125	-0.983398	0.620089	0.276789	-0.709346	0.188958	9.54715	0.553529	-1.52278	0.0460696	-0.0308267	-0.0186633	-1.03882	-0.108154	-0.166748	0.982262	0.0481188	-0.180093	0.0203125	3.93813	1.06005	10.3199	-0.000266579	0.0256793	-0.0200883	-0.0300293	-0.108643	-1.06055	-0.063386	0.445521	-0.882574	0.136222	0.0697337	-2.79398	-8.74638	0.00997841	0.00388438	-0.0166682	-0.380127	0.325439	0.964844	0.985034	0.0238797	-0.168236	0.0288991	3.53952	0.396661	9.8611	0.00673896	0.02536	0.00635074	0.0268555	-0.076416	-1.15088	-0.0268396	0.167856	-0.973976	0.149913	-0.0606432	-2.67377	-9.39093	0.00138927	0.00445189	-0.00418963	-0.458252	0.325195	1.00171	
23	0.892874	0.0128948	-0.449669	0.0201743	8.43191	0.120166	6.30862	-0.0152908	-0.00208159	0.0201138	-0.58374	-0.0256348	-0.859619	0.842868	-0.0423191	-0.536395	0.00795234	9.03855	-0.812456	4.15462	0.0163977	0.021733	-0.0200329	-0.618408	-0.0244141	-0.694092	0.898738	0.00537118	-0.438219	0.0143036	8.24964	0.0259723	6.37699	0.0389402	0.0110167	-0.00331053	-0.670654	-0.0888672	-0.885986	0.886487	0.00330262	-0.456311	-0.0768751	7.95641	0.779791	5.73752	0.00624086	0.00768366	-0.00216338	-0.550537	0.029541	-0.894531	0.847212	-0.104912	-0.52076	0.00587634	8.70652	-1.74649	4.29502	-0.0173534	0.00228532	-0.00761021	-0.673584	0.207031	-0.803223	0.820446	0.142427	-0.319701	0.452079	8.08825	-0.616052	9.24074	0.0210276	0.00974909	-0.0131769	-0.602051	0.00561523	-0.985596	0.619612	0.276977	-0.709714	0.188867	9.69016	0.509566	-1.66217	0.0258481	0.00588872	-0.0161358	-1.04077	-0.110352	-0.164551	0.982296	0.0480924	-0.179911	0.0203369	3.88487	0.997546	10.3039	0.00538537	0.0249998	-0.0155666	-0.0344238	-0.108643	-1.06519	-0.0633957	0.445475	-0.882593	0.136248	0.0822099	-2.81007	-8.76197	0.00958436	0.00287131	-0.0168411	-0.373047	0.323242	0.969482	0.985068	0.0239275	-0.168006	0.0290248	3.48471	0.421961	9.92231	0.00668984	0.0198364	0.00781078	0.0266113	-0.0742188	-1.13965	-0.0268293	0.167945	-0.973944	0.150027	-0.0416962	-2.66002	-9.39676	0.00557494	0.00437526	-0.00666745	-0.460205	0.318604	1.00415	
24	0.892788	0.0118371	-0.449863	0.0202944	8.41653	0.102039	6.27365	-0.039082	-0.0139795	0.0221902	-0.579346	-0.0256348	-0.855225	0.843042	-0.042038	-0.536142	0.00803717	9.06325	-0.806953	4.11348	0.00152261	0.0289967	-0.0199484	-0.616455	-0.015625	-0.694336	0.898795	0.00621877	-0.438082	0.0146094	8.2133	-0.00066356	6.42029	0.0436844	0.010678	-0.00276348	-0.674805	-0.0996094	-0.885498	0.886515	0.00326916	-0.456259	-0.0768673	7.95078	0.816278	5.7437	0.00109097	0.0102653	0.00260538	-0.546143	0.029541	-0.894531	0.847022	-0.105558	-0.520943	0.00548857	8.71898	-1.7887	4.33886	-0.0260165	-0.00337541	-0.0166744	-0.673584	0.209229	-0.803223	0.820539	0.14277	-0.319349	0.45205	8.09054	-0.616127	9.28207	0.0179609	0.0135752	-0.0169484	-0.604004	0.00341797	-0.987549	0.619777	0.277009	-0.709525	0.188987	9.61567	0.514609	-1.60442	0.0277827	0.0333427	-0.0184869	-1.04077	-0.108154	-0.166748	0.982333	0.0481018	-0.179705	0.020372	3.91842	1.01312	10.3331	0.00779644	0.0327775	-0.0154785	-0.0322266	-0.11084	-1.06519	-0.0633602	0.445632	-0.882504	0.136321	0.0684513	-2.8117	-8.74615	0.00585727	0.00287864	-0.017648	-0.375488	0.323242	0.967285	0.985088	0.0239937	-0.167865	0.0291181	3.47813	0.367082	9.86638	0.0102086	0.0222394	0.0102725	0.0266113	-0.0720215	-1.14429	-0.0269317	0.167943	-0.973924	0.150143	-0.0577154	-2.66851	-9.369	0.0134279	0.00122198	-0.00396242	-0.462402	0.318604	0.995117	
25	0.892712	0.0111695	-0.450034	0.020243	8.40047	0.0694052	6.26256	-0.0495549	-0.0172108	0.0200286	-0.585938	-0.0234375	-0.855469	0.843269	-0.0420658	-0.535784	0.00790208	9.01648	-0.76243	4.18727	-0.0148267	0.0488427	-0.0238859	-0.618652	-0.015625	-0.694336	0.898835	0.00680588	-0.437984	0.0148349	8.17233	0.0680448	6.4009	0.0539017	0.0125014	-0.00390746	-0.677002	-0.0952148	-0.878906	0.886541	0.0030355	-0.456196	-0.0769509	7.88812	0.764691	5.72264	-0.00511663	0.00707137	0.00107275	-0.543945	0.0317383	-0.892334	0.846986	-0.105541	-0.521005	0.00549984	8.69723	-1.80013	4.28403	0.00171766	0.00274039	-0.0135474	-0.667236	0.211426	-0.807861	0.820454	0.143125	-0.319215	0.452187	8.06983	-0.644598	9.27534	0.018901	0.00965297	-0.0148958	-0.604004	0.00146484	-0.985352	0.619038	0.27746	-0.709988	0.18901	9.51846	0.521766	-1.53391	0.0382924	-0.0423694	-0.0168205	-1.04297	-0.108154	-0.168701	0.982456	0.0481444	-0.179039	0.0201925	3.89844	1.03635	10.3084	0.00375497	0.0345713	-0.0173864	-0.0300293	-0.11084	-1.06982	-0.0633352	0.445535	-0.882561	0.136285	0.069164	-2.80877	-8.73238	0.00581807	0.00385401	-0.016416	-0.380127	0.325439	0.967041	0.98516	0.0239626	-0.167449	0.0291039	3.48634	0.37423	9.86767	0.00391288	0.0310863	0.00352615	0.0246582	-0.0808105	-1.14624	-0.0269465	0.168021	-0.97389	0.150269	-0.0596378	-2.68076	-9.36869	0.00645113	0.0032129	-0.0059538	-0.460205	0.320801	0.999512	
26	0.89264	0.0105792	-0.450197	0.0201046	8.4889	0.00334074	6.27824	-0.0470676	-0.0163171	0.0110067	-0.585938	-0.0234375	-0.857422	0.843353	-0.0422205	-0.535643	0.00768468	8.98403	-0.763673	4.16999	-0.0142985	0.0109155	-0.0146082	-0.614014	-0.0222168	-0.691895	0.898823	0.00690263	-0.438005	0.0148594	8.20489	0.0403282	6.40968	-0.00364476	0.0071855	0.000655089	-0.674805	-0.0996094	-0.881104	0.886513	0.00284311	-0.456224	-0.0771139	7.90267	0.79325	5.73474	-0.0096931	0.00281488	-0.00365465	-0.546387	0.0361328	-0.896729	0.846897	-0.105928	-0.521072	0.00531976	8.62152	-1.7768	4.25684	-0.0186764	0.00013789	-0.0150881	-0.669189	0.209229	-0.798584	0.820422	0.143144	-0.31914	0.452291	8.06291	-0.547015	9.24674	-0.000941383	0.0190949	-0.014906	-0.601807	0.00341797	-0.985596	0.618068	0.277895	-0.710666	0.188997	9.61231	0.5263	-1.72668	0.0515286	-0.0149458	-0.0158154	-1.03638	-0.110352	-0.160156	0.98249	0.048197	-0.178822	0.0203048	3.87415	1.01284	10.3206	0.00715668	0.0212284	-0.0134154	-0.0280762	-0.106445	-1.06299	-0.0632581	0.445458	-0.882615	0.136221	0.0795186	-2.8121	-8.74411	0.00356202	0.00314163	-0.0179829	-0.377686	0.321045	0.969482	0.985189	0.023932	-0.167286	0.0290661	3.44524	0.440714	9.89146	-0.00425932	0.00845942	-0.000426515	0.0246582	-0.0786133	-1.14648	-0.0269595	0.168031	-0.973887	0.150274	-0.05429	-2.66253	-9.376	0.00310197	0.00624407	-0.00596601	-0.453613	0.322998	0.999512	
27	0.892803	0.00907927	-0.449923	0.0197282	8.45478	-0.105486	6.25118	-0.0255162	0.0140934	0.000545502	-0.586426	-0.0148926	-0.855469	0.843421	-0.0430018	-0.535481	0.00727828	9.07165	-0.807139	4.25457	-0.0492661	0.0295286	-0.0123352	-0.612061	-0.0178223	-0.696777	0.89879	0.00718616	-0.438056	0.0151917	8.23162	0.0659629	6.47888	0.0213285	0.000862543	0.00556346	-0.681152	-0.0952148	-0.874268	0.886439	0.00253718	-0.456346	-0.0772439	7.96668	0.813129	5.78457	-0.00712584	-0.00246041	0.000718223	-0.546143	0.029541	-0.896729	0.846791	-0.10647	-0.521136	0.00513732	8.73011	-1.69692	4.33931	-0.0261612	0.0122776	-0.00622013	-0.676025	0.211426	-0.796387	0.820511	0.142826	-0.319171	0.452208	8.09097	-0.651318	9.32221	-0.00604299	0.0189682	-0.0126861	-0.597656	0.0078125	-0.985596	0.618245	0.277851	-0.710563	0.188869	9.61103	0.516442	-1.57783	0.00631151	0.0185903	-0.0217037	-1.04077	-0.110352	-0.158203	0.982527	0.0483246	-0.178574	0.0204178	3.89028	1.07513	10.3578	0.0135083	0.028514	-0.0149313	-0.0302734	-0.106445	-1.06519	-0.0632178	0.445377	-0.882669	0.136152	0.083412	-2.81367	-8.74357	0.00521814	0.00240321	-0.0161415	-0.37793	0.325684	0.964844	0.985173	0.0238345	-0.167424	0.0289072	3.46883	0.381311	9.895	0.00663067	0.00981139	0.00221608	0.0268555	-0.076416	-1.14648	-0.0269425	0.168061	-0.973861	0.150414	-0.043599	-2.68895	-9.37104	0.00608804	0.00581075	-0.00424837	-0.460205	0.320801	1.00195	
28	0.893055	0.00867824	-0.449431	0.0197396	8.48369	-0.025839	6.29528	-0.0131356	0.0213796	0.0114161	-0.57959	-0.019043	-0.859619	0.843611	-0.0438178	-0.535119	0.0069246	9.03743	-0.79267	4.20558	-0.0490272	0.0329206	-0.0111957	-0.609863	-0.015625	-0.699219	0.898741	0.00718282	-0.438148	0.0154473	8.17989	0.0516526	6.39689	0.0145184	0.00149165	0.0118654	-0.679199	-0.0930176	-0.878906	0.886314	0.00215671	-0.456538	-0.0775553	7.8906	0.760006	5.73299	-0.0170903	-0.00576594	-0.00213798	-0.543945	0.0339355	-0.892334	0.846689	-0.107593	-0.521077	0.00451156	8.68243	-1.93098	4.28717	-0.0400994	0.00477145	-0.0107287	-0.667236	0.211426	-0.803223	0.820553	0.142467	-0.319293	0.452158	8.07086	-0.629601	9.26847	-0.0145908	0.0158928	-0.0171252	-0.599609	0.00146484	-0.987549	0.61826	0.27781	-0.710578	0.188828	9.58185	0.53475	-1.66961	0.0292413	0.018698	-0.0135119	-1.04297	-0.108154	-0.158203	0.982572	0.0484141	-0.178292	0.0204873	3.85381	1.0213	10.311	0.0095192	0.0275607	-0.0152175	-0.0322266	-0.11084	-1.06055	-0.0632178	0.445377	-0.882669	0.136152	0.083412	-2.81367	-8.74357	0.00521814	0.00240321	-0.0161415	-0.37793	0.325684	0.964844	0.985163	0.0237521	-0.167504	0.0288295	3.46187	0.429908	9.87973	-0.00491628	0.00504535	-0.000577711	0.0285645	-0.067627	-1.13525	-0.0269663	0.168042	-0.973887	0.150261	-0.0640355	-2.67937	-9.38141	-0.00500983	0.00501917	-0.00207557	-0.455566	0.318604	1.00195	
29	0.893455	0.008155	-0.448642	0.0198317	8.42252	-0.00926786	6.32268	-0.0199587	0.0350019	0.00850251	-0.581787	-0.019043	-0.859619	0.843702	-0.0439909	-0.534964	0.00667929	9.00336	-0.843946	4.15905	-0.0046018	0.0127016	-0.0248413	-0.612061	-0.0200195	-0.698975	0.898728	0.00669241	-0.438194	0.0151702	8.21489	0.0665323	6.34002	-0.0333019	0.00540469	-0.00370926	-0.679199	-0.0952148	-0.883301	0.886195	0.00181273	-0.456756	-0.077651	7.91508	0.786542	5.71844	-0.00507505	-0.00319438	0.00413845	-0.548584	0.0339355	-0.887939	0.846576	-0.108116	-0.521155	0.00425239	8.71904	-1.78459	4.29513	-0.0279971	0.00785119	-0.0144333	-0.667236	0.213623	-0.801025	0.820552	0.142458	-0.31933	0.452137	8.09623	-0.569024	9.2923	0.00389402	0.0113233	-0.014731	-0.601562	-0.000732422	-0.985352	0.618255	0.27775	-0.710591	0.188882	9.58139	0.544496	-1.78462	0.0174413	0.0282058	-0.0112238	-1.03687	-0.104004	-0.158203	0.982576	0.0485254	-0.178234	0.0205474	3.85855	1.08907	10.3502	0.0114705	0.0158776	-0.015223	-0.0300293	-0.113037	-1.06274	-0.063208	0.445842	-0.882411	0.136308	0.0750806	-2.8081	-8.74555	0.00463532	0.000522193	-0.0159459	-0.375488	0.325439	0.973877	0.985151	0.0238222	-0.167575	0.028794	3.48595	0.433858	9.88419	0.00814577	0.0103197	0.00333294	0.0266113	-0.0742188	-1.14648	-0.027035	0.168044	-0.973883	0.150276	-0.0576539	-2.67082	-9.3807	0.0054982	0.00539979	-0.00427399	-0.462646	0.322998	0.994873	
30	0.893864	0.0075529	-0.447853	0.0194649	8.41778	-0.0875184	6.35239	-0.0263879	0.0324734	-0.00868481	-0.57959	-0.019043	-0.864014	0.843732	-0.0436588	-0.534946	0.0066179	9.01836	-0.799981	4.17072	-0.00294455	0.0166771	-0.0242929	-0.612061	-0.015625	-0.694336	0.89869	0.00694747	-0.43826	0.0153945	8.2475	-0.0134852	6.33392	0.0373836	0.00136726	0.00615251	-0.677002	-0.0932617	-0.878906	0.886173	0.00179699	-0.456785	-0.0777221	7.97614	0.809586	5.69621	0.000105375	0.00281953	-0.00393832	-0.543701	0.029541	-0.896729	0.846629	-0.108199	-0.521055	0.00384117	8.68501	-1.87321	4.2709	0.000348292	0.0111464	-0.0273026	-0.66748	0.21582	-0.801025	0.82046	0.142564	-0.319475	0.452169	8.0377	-0.635235	9.28992	0.00537646	0.00603902	-0.0135383	-0.595459	0.00561523	-0.985596	0.618447	0.277445	-0.710551	0.188849	9.57726	0.510917	-1.67624	0.00403074	0.0104064	-0.0107378	-1.04321	-0.104004	-0.162598	0.982529	0.0484864	-0.178504	0.020531	3.89927	1.0409	10.314	0.0035983	0.000968505	-0.0178191	-0.0300293	-0.11084	-1.06519	-0.0632864	0.445932	-0.882341	0.136432	0.0607095	-2.8068	-8.74588	0.00969943	0.000145849	-0.0145237	-0.380127	0.325439	0.973877	0.985156	0.0236854	-0.167586	0.0286796	3.46489	0.388167	9.878	-0.00428722	0.00760478	0.000574573	0.0266113	-0.0698242	-1.14209	-0.0269889	0.168076	-0.97387	0.150332	-0.0553236	-2.67218	-9.38032	0.00303142	0.00533319	-0.00454764	-0.460205	0.322998	0.999512	
31	0.894261	0.00750536	-0.447073	0.0191579	8.36244	-0.144311	6.34764	0.00199003	0.0291677	-0.00931594	-0.581787	-0.019043	-0.861816	0.843628	-0.0434925	-0.535121	0.00671161	9.0684	-0.799296	4.20051	0.00204134	0.00522237	-0.0176275	-0.609863	-0.0200195	-0.696533	0.898633	0.00705141	-0.438364	0.0156941	8.24954	0.083099	6.39062	0.00607307	0.00204763	0.0092612	-0.679199	-0.0974121	-0.881104	0.886215	0.00231906	-0.456715	-0.0776397	7.9707	0.743572	5.67638	0.0213382	0.0073913	-0.00617554	-0.548584	0.0361328	-0.901123	0.846586	-0.107523	-0.521264	0.0039955	8.72383	-1.82544	4.1893	0.0291675	-0.00286991	-0.0198335	-0.673584	0.209229	-0.805664	0.820409	0.142729	-0.319481	0.452205	8.0846	-0.66106	9.2612	0.0146752	0.00674095	-0.0158444	-0.599854	0.0078125	-0.985596	0.618671	0.277173	-0.710478	0.188791	9.61992	0.533879	-1.7257	0.000278747	0.0315699	-0.0090252	-1.04297	-0.110352	-0.158203	0.982458	0.0485187	-0.178877	0.0206218	3.90122	1.00215	10.3413	0.0110276	0.00506534	-0.0114847	-0.0300293	-0.108643	-1.06982	-0.0633173	0.445884	-0.882359	0.136455	0.066345	-2.81294	-8.731	0.0103868	0.00172236	-0.0161083	-0.375488	0.325684	0.969482	0.985139	0.0236461	-0.167687	0.0286746	3.45984	0.419138	9.88406	0.000453535	0.00278922	0.00476371	0.0266113	-0.0742188	-1.14648	-0.0269889	0.168076	-0.97387	0.150332	-0.0553236	-2.67218	-9.38032	0.00303142	0.00533319	-0.00454764	-0.460205	0.322998	0.999512	
32	0.894348	0.00830433	-0.446865	0.0196083	8.34685	-0.0886809	6.34012	0.0489342	-0.00281582	0.00386875	-0.579346	-0.0234375	-0.859619	0.84373	-0.043495	-0.53496	0.0068077	9.02472	-0.765681	4.18932	-0.0117133	0.0306107	-0.0111517	-0.616455	-0.015625	-0.703857	0.898659	0.00726811	-0.438289	0.0161902	8.22857	0.0243998	6.37913	0.0269688	0.0135273	0.0188465	-0.677002	-0.0952148	-0.878906	0.886263	0.00276862	-0.456666	-0.0773785	7.98313	0.734601	5.74594	0.0208497	0.0100004	0.00384105	-0.546143	0.0317383	-0.896729	0.846705	-0.107591	-0.521056	0.00394489	8.69155	-1.75729	4.25806	-0.0145861	0.0219148	-0.0160722	-0.669434	0.213623	-0.798584	0.820381	0.142886	-0.319504	0.452189	8.08124	-0.682397	9.24884	0.00723424	0.0104602	-0.0158748	-0.601807	-0.000732422	-0.989746	0.619353	0.276898	-0.709923	0.189045	9.56703	0.505762	-1.56545	0.0190147	0.0506012	-0.01367	-1.03662	-0.108154	-0.170898	0.982448	0.048626	-0.178896	0.0206983	3.90447	1.02153	10.3789	0.0160773	0.0142084	-0.0125174	-0.0300293	-0.11084	-1.06519	-0.0633173	0.445884	-0.882359	0.136455	0.066345	-2.81294	-8.731	0.0103868	0.00172236	-0.0161083	-0.375488	0.325684	0.969482	0.98512	0.0237749	-0.167766	0.028772	3.49857	0.35707	9.88362	0.0116577	0.0111598	0.0087882	0.0244141	-0.0720215	-1.14429	-0.0268839	0.168162	-0.973884	0.150163	-0.0420446	-2.66477	-9.37084	-0.0128738	0.0063803	-0.00411719	-0.464844	0.320801	1.00415	
33	0.894335	0.00892239	-0.446861	0.0200202	8.41756	-0.0507141	6.35792	0.058546	-0.00384077	0.00673094	-0.581787	-0.0212402	-0.859619	0.843837	-0.0434308	-0.534793	0.00698049	8.96848	-0.78486	4.11105	0.00335336	0.0293822	-0.00767352	-0.62085	-0.0178223	-0.696777	0.898683	0.00730247	-0.43823	0.0164529	8.21081	0.119351	6.37135	0.0162125	0.010204	0.0181931	-0.679199	-0.0908203	-0.883545	0.88631	0.0033375	-0.456629	-0.0770297	7.92268	0.780636	5.69543	0.031672	0.0101738	0.00431167	-0.550293	0.0273438	-0.896729	0.8467	-0.10765	-0.521053	0.00380726	8.66567	-1.83774	4.23004	-0.00926997	0.00965563	-0.0200483	-0.669434	0.211426	-0.807861	0.820331	0.142716	-0.319591	0.452273	8.07039	-0.553341	9.25676	-0.0126798	0.0168684	-0.0124197	-0.605957	0.00146484	-0.983398	0.619605	0.276487	-0.709832	0.189161	9.57814	0.478162	-1.62269	0.00727798	0.0182566	-0.00456333	-1.03662	-0.108154	-0.166748	0.982414	0.0488517	-0.178994	0.0208968	3.89497	1.0413	10.3128	0.0168706	0.013338	-0.00994722	-0.0319824	-0.117432	-1.06274	-0.0632431	0.44618	-0.8822	0.136553	0.0871282	-2.80186	-8.74002	0.000668664	0.00122536	-0.0171412	-0.382324	0.323242	0.973877	0.985108	0.0238141	-0.167824	0.0288219	3.46187	0.395392	9.90881	0.00728352	0.00627986	0.00780009	0.0266113	-0.0720215	-1.13965	-0.0268839	0.168162	-0.973884	0.150163	-0.0420446	-2.66477	-9.37084	-0.0128738	0.0063803	-0.00411719	-0.464844	0.320801	1.00415	
34	0.894475	0.0103756	-0.446515	0.0207736	8.36857	0.0351911	6.3407	0.0661055	0.0143747	-0.00347916	-0.579346	-0.0234375	-0.857422	0.843658	-0.0437687	-0.535046	0.00708464	9.0486	-0.773777	4.18069	-0.043985	0.0132688	-0.00376539	-0.612061	-0.0178223	-0.694336	0.898609	0.00726197	-0.438364	0.0169279	8.25233	-0.0442042	6.42227	0.0333627	-0.00352823	0.0212588	-0.672852	-0.095459	-0.892578	0.886397	0.00400942	-0.456512	-0.0766829	7.95316	0.83428	5.71147	0.0312742	0.0134496	-0.000964483	-0.543701	0.0273438	-0.890137	0.84686	-0.107352	-0.520853	0.00398813	8.72676	-1.80281	4.2471	0.0178445	0.0205522	-0.00963209	-0.673828	0.213623	-0.803223	0.820416	0.142133	-0.319768	0.452178	8.09049	-0.632118	9.27896	-0.016344	0.0195597	-0.00959602	-0.602051	0.00561523	-0.989746	0.620243	0.276058	-0.709425	0.189227	9.54903	0.510459	-1.61949	0.00582716	0.0503257	-0.0111469	-1.03687	-0.10376	-0.166748	0.982377	0.0490275	-0.179151	0.0208876	3.91279	1.06619	10.3276	0.00892912	0.00965586	-0.0208317	-0.0322266	-0.108643	-1.06763	-0.063256	0.446078	-0.882259	0.136502	0.0702607	-2.79484	-8.7424	0.00661598	0.00269718	-0.0156862	-0.384766	0.321045	0.964844	0.985019	0.0236545	-0.168391	0.0286671	3.52538	0.391736	9.8754	-0.00114971	-0.0162859	-0.00197167	0.0288086	-0.0720215	-1.14429	-0.0268731	0.168248	-0.973878	0.150108	-0.0614106	-2.66435	-9.37336	0.00665594	0.00501806	-0.00611384	-0.453613	0.322998	0.999512	
35	0.89451	0.0114684	-0.446398	0.0211762	8.40133	0.123241	6.36676	0.0395722	-0.00147352	-0.00289054	-0.581543	-0.0234375	-0.859619	0.843344	-0.0441741	-0.535505	0.0073141	9.08778	-0.857156	4.14651	0.00743365	-0.0121045	-0.00208657	-0.614258	-0.015625	-0.692139	0.898611	0.00711698	-0.438348	0.0172444	8.25015	0.146754	6.43408	0.00509456	0.00559746	0.0283956	-0.677002	-0.0930176	-0.883545	0.8864	0.00448282	-0.456523	-0.076564	7.92366	0.812437	5.75866	0.0225879	0.0051205	-0.00691615	-0.543701	0.0251465	-0.896484	0.847038	-0.106382	-0.520758	0.00448168	8.71218	-1.80059	4.28156	0.0431647	0.00556845	-0.0182891	-0.671387	0.207031	-0.803223	0.820508	0.14147	-0.319989	0.452062	8.10656	-0.703047	9.25332	-0.029318	0.0195686	-0.0134347	-0.597412	0.00366211	-0.983398	0.620442	0.275436	-0.709505	0.189179	9.66874	0.472475	-1.57234	-0.00243844	0.0232012	0.00271242	-1.04346	-0.0996094	-0.171143	0.982362	0.0490029	-0.179248	0.0208436	3.86635	1.04029	10.349	0.00391705	0.012803	-0.0180051	-0.027832	-0.11084	-1.05811	-0.0632159	0.446037	-0.882283	0.136493	0.0704733	-2.81551	-8.75588	0.00551933	0.00503276	-0.0167449	-0.375488	0.325684	0.962646	0.984934	0.0234126	-0.16898	0.0283276	3.49879	0.398416	9.85208	-0.0111485	-0.0142935	-0.00711611	0.0197754	-0.067627	-1.14673	-0.0268307	0.168267	-0.973902	0.149938	-0.0367635	-2.67151	-9.37213	-0.0093503	0.00764789	-0.00586132	-0.458008	0.318604	0.997314	
36	0.894251	0.0114112	-0.446908	0.0214035	8.3674	0.0911735	6.33884	-0.00851048	-0.0336908	0.00935417	-0.57959	-0.0212402	-0.868408	0.843482	-0.0443696	-0.53527	0.00741572	9.08672	-0.849917	4.22121	-0.0190087	0.0284517	-0.0141635	-0.612305	-0.0112305	-0.697021	0.898655	0.00536951	-0.438296	0.0169384	8.27927	-0.014081	6.38806	0.0155091	0.00761359	0.00639763	-0.674805	-0.0932617	-0.885742	0.886429	0.00445033	-0.456457	-0.0766274	7.9608	0.797585	5.72237	0.0146577	0.0104325	0.00363762	-0.545898	0.0251465	-0.89209	0.847185	-0.1068	-0.520434	0.00447806	8.79992	-1.80761	4.33124	-0.0420799	0.0254789	-0.00514439	-0.671387	0.204834	-0.803223	0.820592	0.141055	-0.319961	0.452059	8.11504	-0.60239	9.31869	-0.0108862	0.0242805	-0.0139286	-0.593506	0.012207	-0.98584	0.621835	0.274869	-0.708356	0.189738	9.6011	0.540748	-1.58609	0.0159097	0.101283	-0.0123079	-1.03638	-0.112549	-0.170898	0.982369	0.0491027	-0.179175	0.0208863	3.88941	1.09028	10.314	0.0143966	0.02169	-0.0176237	-0.0300293	-0.11084	-1.06738	-0.0630209	0.446157	-0.882257	0.136365	0.0878321	-2.79972	-8.74497	0.000695557	-0.000325721	-0.0164021	-0.382324	0.320801	0.97168	0.984868	0.023546	-0.16933	0.0284359	3.532	0.422343	9.87731	0.0120319	0.00302702	0.00899581	0.0244141	-0.0742188	-1.14185	-0.0267882	0.168326	-0.973928	0.149713	-0.0455206	-2.6745	-9.38062	-0.00797661	0.00351801	-0.00478646	-0.462402	0.318604	0.995117	
37	0.893923	0.0107406	-0.447585	0.0213203	8.45909	0.0249344	6.32283	-0.0325741	-0.0281685	0.0115764	-0.581543	-0.0256348	-0.859619	0.843546	-0.043992	-0.535197	0.00767701	9.01039	-0.832258	4.12656	0.0123904	0.0153413	-0.0196536	-0.614502	-0.0134277	-0.69458	0.898753	0.00549771	-0.438091	0.017026	8.17833	0.0265445	6.39039	0.0084232	0.0141936	0.00141164	-0.677002	-0.0888672	-0.881348	0.886526	0.00485655	-0.456302	-0.076403	7.92138	0.863036	5.73496	0.0202422	0.0147443	-0.0020425	-0.543701	0.0273438	-0.894531	0.84716	-0.107153	-0.520404	0.0042573	8.70199	-1.93793	4.33931	-0.0338517	0.0115924	-0.0130629	-0.671631	0.213623	-0.803223	0.820792	0.140482	-0.320146	0.451743	8.02843	-0.763164	9.29931	-0.0115319	0.017454	-0.021183	-0.595947	0.0144043	-0.98584	0.622475	0.274156	-0.708085	0.18968	9.61949	0.497421	-1.55442	-0.0102269	0.0374535	-0.00313031	-1.04126	-0.0996094	-0.17749	0.982392	0.049117	-0.179044	0.0208849	3.88369	1.08846	10.3725	-0.000157906	0.0162349	-0.020087	-0.0322266	-0.11084	-1.06738	-0.0630565	0.446061	-0.882312	0.136304	0.0850485	-2.79759	-8.76285	0.00765393	0.00195735	-0.0153857	-0.377686	0.323242	0.964844	0.984855	0.0235443	-0.169384	0.0285404	3.51014	0.446093	9.89369	0.00437268	0.00557381	0.00749667	0.0153809	-0.0720215	-1.14429	-0.0267377	0.168371	-0.973931	0.149647	-0.0660755	-2.65324	-9.38465	-0.00174413	0.00468108	-0.00469376	-0.460205	0.318604	1.00195	
38	0.893775	0.00985825	-0.447906	0.0211848	8.41453	-0.0529584	6.31164	-0.0317246	-0.0142192	0.00905496	-0.581543	-0.0234375	-0.861816	0.843468	-0.0440134	-0.535321	0.00751535	9.037	-0.821082	4.18356	-0.0111852	0.00589546	-0.0266977	-0.616455	-0.0178223	-0.696777	0.898773	0.00474993	-0.438078	0.0164968	8.22995	-0.00685312	6.40535	-0.0449617	0.006617	-0.00733132	-0.675049	-0.0888672	-0.883545	0.886663	0.00525654	-0.456038	-0.0763591	7.94065	0.742919	5.71869	0.0216691	0.0187191	-0.00450159	-0.543701	0.0273438	-0.896729	0.847499	-0.105632	-0.520158	0.00471054	8.71953	-1.85224	4.28795	0.0573752	0.0109214	-0.0268803	-0.671143	0.202637	-0.803223	0.820829	0.14062	-0.320017	0.451724	8.11878	-0.567886	9.27321	0.00469225	0.0170256	-0.0220162	-0.595459	0.0078125	-0.985596	0.623639	0.273499	-0.707251	0.189916	9.58699	0.541226	-1.49485	-0.00898969	0.0707818	-0.0105209	-1.03882	-0.105957	-0.181641	0.982376	0.0489306	-0.179234	0.0204532	3.89121	1.04477	10.3086	-0.0073387	-0.000302273	-0.023826	-0.0258789	-0.106445	-1.06519	-0.0631455	0.445949	-0.882347	0.136402	0.0622215	-2.79229	-8.75191	0.0117818	0.00204468	-0.0156524	-0.375488	0.321045	0.97168	0.984858	0.0235376	-0.169362	0.0285789	3.50228	0.419624	9.8834	-0.00613743	0.0107012	0.000684059	0.0222168	-0.0720215	-1.14209	-0.0268688	0.168447	-0.973887	0.149828	-0.0611191	-2.65741	-9.37926	0.0126458	0.00264729	-0.00786846	-0.458008	0.320801	0.999512	
39	0.893609	0.00947362	-0.448254	0.0210139	8.42144	-0.110303	6.27536	-0.0112678	-0.0192111	-0.00241932	-0.57959	-0.019043	-0.861816	0.843372	-0.0438257	-0.53549	0.00734983	9.08176	-0.784746	4.19638	-0.0100282	0.0132749	-0.0253899	-0.614258	-0.015625	-0.696777	0.898859	0.00414625	-0.437913	0.0163648	8.2345	-0.0340514	6.37989	-0.00328835	0.0132014	0.00903737	-0.670654	-0.0866699	-0.883545	0.886769	0.00581046	-0.455858	-0.076163	7.94972	0.8027	5.73053	0.0266147	0.0141322	-2.03913e-05	-0.545898	0.0253906	-0.905518	0.847704	-0.104739	-0.520003	0.00499488	8.71134	-1.74721	4.31393	0.0149618	0.0161604	-0.0193498	-0.671387	0.207031	-0.803223	0.820905	0.140635	-0.319889	0.451671	8.03317	-0.683708	9.28375	0.0063108	0.0196452	-0.0188744	-0.602051	0.00561523	-0.987793	0.624439	0.273	-0.706733	0.189935	9.66131	0.494622	-1.42117	0.0109503	0.05275	-0.0139329	-1.04541	-0.105957	-0.179443	0.98234	0.0489516	-0.179414	0.0205559	3.89972	1.02607	10.3236	0.0112275	0.0128737	-0.0130318	-0.0300293	-0.108643	-1.06982	-0.0631246	0.445882	-0.882385	0.136387	0.066967	-2.81695	-8.75547	0.00740915	0.00296863	-0.0167652	-0.377686	0.321045	0.973877	0.984871	0.0235391	-0.169265	0.0287169	3.50595	0.363535	9.84666	0.0104657	0.0161131	0.0120198	0.0244141	-0.0720215	-1.14429	-0.0269324	0.168462	-0.97387	0.149907	-0.0496842	-2.66214	-9.40408	0.00961479	0.00337919	-0.00628014	-0.460205	0.320801	1.00195	
40	0.893367	0.00983722	-0.44873	0.0209928	8.44982	-0.093542	6.27803	0.0196177	-0.0265018	-0.00942114	-0.586182	-0.0212402	-0.859619	0.843553	-0.0435865	-0.535226	0.00722417	9.0555	-0.802831	4.15671	0.00137021	0.0201028	-0.0174822	-0.618408	-0.0200195	-0.696533	0.898937	0.00428362	-0.437745	0.0165153	8.18716	0.0277424	6.40272	0.00639459	0.0146343	0.00292283	-0.677246	-0.0844727	-0.87915	0.886817	0.00598856	-0.455779	-0.0760596	7.93898	0.877907	5.74114	0.0195574	0.0135721	0.00177491	-0.54126	0.0251465	-0.894287	0.84775	-0.104735	-0.519928	0.00513935	8.69731	-1.68339	4.39164	-0.00535773	0.00737089	-0.0114226	-0.664795	0.202637	-0.80542	0.820955	0.140477	-0.319852	0.451657	8.0481	-0.643304	9.29443	-0.00135877	0.0182915	-0.0132344	-0.600098	0.012207	-0.98584	0.624787	0.272773	-0.706494	0.190007	9.63023	0.500191	-1.45003	0.00944012	0.0492197	-0.0100936	-1.03687	-0.101562	-0.17749	0.982343	0.0489748	-0.179392	0.0205584	3.87369	1.07146	10.3163	0.00567635	0.0174853	-0.0162669	-0.0302734	-0.106689	-1.06055	-0.0631246	0.445882	-0.882385	0.136387	0.066967	-2.81695	-8.75547	0.00740915	0.00296863	-0.0167652	-0.377686	0.321045	0.973877	0.984867	0.0235441	-0.169276	0.0287812	3.5142	0.389606	9.84943	0.00483098	0.0099414	0.00925784	0.0244141	-0.0742188	-1.14429	-0.0269989	0.168575	-0.973821	0.15009	-0.0562362	-2.66531	-9.37705	0.0051206	0.00417714	-0.00721448	-0.459961	0.316406	0.997314	
41	0.893274	0.0103159	-0.448899	0.0210848	8.47573	-0.0692989	6.29407	0.0374903	-0.0189039	-0.010974	-0.58374	-0.0234375	-0.861816	0.843518	-0.0435631	-0.535282	0.00726903	8.97312	-0.83303	4.21686	-0.00596377	0.00926102	-0.0151084	-0.614258	-0.015625	-0.696777	0.898928	0.00414625	-0.437767	0.0164644	8.22372	0.0186526	6.43557	-0.00667671	0.00346099	0.00176939	-0.677246	-0.0844727	-0.888184	0.886905	0.00619533	-0.45563	-0.0759059	7.91073	0.838708	5.72025	0.0155258	0.0109055	0.00259359	-0.539307	0.0275879	-0.896729	0.847849	-0.104546	-0.519804	0.00517584	8.68695	-1.82344	4.32972	0.0150674	0.020251	-0.0174847	-0.669189	0.204834	-0.803223	0.820941	0.140451	-0.319839	0.451699	8.07153	-0.613721	9.32112	0.00291947	0.0163657	-0.0118847	-0.597656	0.0078125	-0.987793	0.625201	0.272274	-0.706333	0.189957	9.58859	0.458609	-1.35108	0.00561446	0.0208521	-0.00908673	-1.03906	-0.0996094	-0.181885	0.982352	0.048895	-0.179363	0.0205749	3.88752	1.04802	10.3124	0.000721015	0.0183292	-0.0146693	-0.0324707	-0.106445	-1.06763	-0.0630543	0.445956	-0.882336	0.136493	0.0733097	-2.81298	-8.73161	0.00503454	0.0058598	-0.0155371	-0.382568	0.327881	0.969238	0.984867	0.023505	-0.169288	0.0287588	3.50571	0.397795	9.87352	0.000326456	0.0108497	0.00189768	0.0222168	-0.076416	-1.14404	-0.0269989	0.168575	-0.973821	0.15009	-0.0562362	-2.66531	-9.37705	0.0051206	0.00417714	-0.00721448	-0.459961	0.316406	0.997314	
42	0.893271	0.0113006	-0.448862	0.0215129	8.46806	0.0152556	6.29796	0.0432102	0.00395529	-0.00193703	-0.583984	-0.0212402	-0.857666	0.843424	-0.043682	-0.535422	0.00720836	9.03005	-0.827863	4.21981	-0.030678	0.0124781	-0.0198745	-0.609863	-0.0200195	-0.691895	0.898936	0.00383886	-0.437755	0.0164098	8.2247	-0.0522792	6.42198	0.00143719	0.00321886	0.0100045	-0.679199	-0.0866699	-0.87915	0.886965	0.00634262	-0.455542	-0.0757283	7.91836	0.780632	5.75408	0.0122316	0.00996889	0.00667697	-0.547852	0.0229492	-0.896484	0.84798	-0.103873	-0.519721	0.00558889	8.67468	-1.75003	4.35194	0.0387259	0.00841824	-0.00749545	-0.671387	0.204834	-0.807861	0.820936	0.140339	-0.31986	0.451728	8.05841	-0.678693	9.27999	-0.00031605	0.0169166	-0.0140288	-0.602295	0.012207	-0.98999	0.625158	0.272361	-0.706291	0.19013	9.62061	0.504534	-1.42227	0.036403	0.014485	-0.0129393	-1.04126	-0.101562	-0.190186	0.982329	0.0488583	-0.1795	0.0205406	3.89547	1.03442	10.3146	0.00975998	0.00911166	-0.0149084	-0.027832	-0.11084	-1.06738	-0.0630179	0.445848	-0.882405	0.136418	0.0786005	-2.80411	-8.73939	0.00186338	0.00118818	-0.0151623	-0.379883	0.318604	0.967285	0.984871	0.0234248	-0.1693	0.0286091	3.49535	0.392783	9.86339	0.00184315	0.00909388	-0.000502923	0.0222168	-0.0742188	-1.14648	-0.0269271	0.168646	-0.973808	0.150103	-0.052825	-2.66589	-9.38767	0.00139401	0.00608055	-0.0058241	-0.460205	0.318604	1.00195	
43	0.893399	0.0122718	-0.448572	0.0216957	8.46285	0.0944584	6.33382	0.0328653	0.00970521	-0.0114823	-0.583496	-0.027832	-0.857422	0.843405	-0.0438836	-0.535436	0.00715854	9.0506	-0.836648	4.19945	0.00483018	0.00581158	-0.0139147	-0.616699	-0.0112305	-0.697021	0.898932	0.00374257	-0.437759	0.0165766	8.23388	-0.0216309	6.45344	-0.0118331	0.00515794	0.00896177	-0.675049	-0.0888672	-0.883545	0.886969	0.00657929	-0.455552	-0.0756043	7.90754	0.872344	5.78188	0.00915516	0.00434457	-0.00207331	-0.543457	0.0229492	-0.896484	0.848034	-0.103834	-0.51964	0.00554265	8.71801	-1.77643	4.37529	-0.0144583	0.0155351	-0.01531	-0.668945	0.202637	-0.80542	0.82093	0.140308	-0.319836	0.451766	8.05438	-0.62883	9.31088	0.000299246	0.0162023	-0.0165824	-0.597656	0.0078125	-0.992188	0.625484	0.272032	-0.706151	0.19005	9.65537	0.497259	-1.44128	0.00302573	0.0105206	-0.00634848	-1.03687	-0.101562	-0.179688	0.982303	0.0488983	-0.179619	0.0206489	3.91226	1.08655	10.341	0.00908085	0.0118841	-0.0131338	-0.0300293	-0.108643	-1.06519	-0.0629689	0.445783	-0.882459	0.136301	0.0880712	-2.80648	-8.75141	0.00368365	0.00235725	-0.0155944	-0.380127	0.321045	0.960449	0.984842	0.0234052	-0.16948	0.0285653	3.51073	0.39152	9.88927	-5.91403e-05	0.00211034	0.00254919	0.0244141	-0.0720215	-1.14209	-0.0268645	0.168677	-0.97382	0.150001	-0.0411094	-2.64796	-9.37567	-0.00492989	0.0059304	-0.00351892	-0.458008	0.318604	0.997314	
44	0.893578	0.0125302	-0.448208	0.0216861	8.43102	0.0799878	6.3333	0.00330515	0.0136936	-0.00615132	-0.577148	-0.0256348	-0.857422	0.843351	-0.0440552	-0.535508	0.00700818	9.0411	-0.817338	4.17566	-0.00729111	0.0107209	-0.0211878	-0.616211	-0.0200195	-0.691895	0.898898	0.00315126	-0.437843	0.0163055	8.17479	0.0179406	6.41581	-0.0359668	0.00177667	-0.0049424	-0.672852	-0.0822754	-0.885986	0.886936	0.00656039	-0.45561	-0.0756342	7.88743	0.886803	5.76493	0.000430683	0.00226982	-0.000344301	-0.54126	0.0251465	-0.894287	0.848112	-0.103592	-0.519559	0.00577706	8.74825	-1.74879	4.34919	0.0119885	0.00992573	-0.0156573	-0.666748	0.200439	-0.80542	0.820944	0.14043	-0.319745	0.451767	8.11253	-0.65497	9.28728	0.0104719	0.0151412	-0.0175594	-0.602051	0.0078125	-0.98999	0.62553	0.271746	-0.706279	0.189832	9.63613	0.550835	-1.41724	-0.00368833	0.00923955	-0.0138011	-1.03662	-0.105957	-0.181641	0.982279	0.0489884	-0.179718	0.0207177	3.88885	1.06559	10.3183	0.00844439	0.00952599	-0.0163063	-0.0341797	-0.113037	-1.06738	-0.0629735	0.445723	-0.882493	0.136281	0.0745993	-2.81116	-8.75798	0.00617545	0.00185888	-0.0148073	-0.380127	0.325439	0.97168	0.984833	0.0235442	-0.169504	0.028615	3.53399	0.412293	9.88819	0.0136729	0.0146412	0.00712214	0.0246582	-0.076416	-1.14648	-0.0269217	0.168668	-0.973823	0.149981	-0.0548095	-2.66101	-9.40376	0.0034266	0.00521766	-0.00516905	-0.460205	0.318604	0.999512	
45	0.893764	0.0122165	-0.447862	0.0213502	8.39913	0.0380208	6.32077	-0.0199559	0.0125708	-0.0120012	-0.583496	-0.0300293	-0.864014	0.84322	-0.0438882	-0.535731	0.00673995	9.05103	-0.812981	4.17119	-0.0168172	0.00815587	-0.028633	-0.612061	-0.0178223	-0.696777	0.898907	0.00268525	-0.437846	0.0157843	8.23559	-0.0912949	6.36169	-0.00185938	0.0019262	-0.00851685	-0.672852	-0.0844727	-0.881348	0.886925	0.00652367	-0.455624	-0.0756912	7.95206	0.84095	5.70563	0.00612859	0.00645292	-0.00110009	-0.548096	0.0251465	-0.898926	0.848161	-0.103132	-0.51957	0.00586648	8.67388	-1.75383	4.3195	0.0260122	0.010055	-0.0198221	-0.666992	0.204834	-0.810059	0.820929	0.140492	-0.319797	0.451738	8.07417	-0.585491	9.31074	-0.000160203	0.0112777	-0.0192064	-0.597656	0.0078125	-0.987793	0.625679	0.271442	-0.706339	0.189553	9.65742	0.480134	-1.43475	0.00939341	0.0129287	-0.0155467	-1.03247	-0.10376	-0.181641	0.982279	0.0488937	-0.179772	0.0204856	3.89415	1.06789	10.326	-0.00236615	0.00549896	-0.016967	-0.0302734	-0.106445	-1.06982	-0.0630601	0.445763	-0.882458	0.136335	0.0830545	-2.79584	-8.76421	0.00809351	-0.000224019	-0.0148132	-0.382568	0.325439	0.97168	0.984844	0.0234947	-0.169448	0.0285897	3.4987	0.419422	9.89251	-0.00420581	0.0131683	-0.000947572	0.0197754	-0.0698242	-1.14893	-0.0269217	0.168668	-0.973823	0.149981	-0.0548095	-2.66101	-9.40376	0.0034266	0.00521766	-0.00516905	-0.460205	0.318604	0.999512	
46	0.893874	0.0120565	-0.447672	0.0208243	8.39623	-0.000691745	6.33554	-0.011942	0.00312559	-0.0164018	-0.583496	-0.027832	-0.859619	0.843168	-0.0439561	-0.53581	0.00655134	9.03483	-0.797651	4.17382	-0.0151559	0.00769572	-0.0222014	-0.618652	-0.015625	-0.694336	0.898891	0.00295327	-0.437873	0.0159035	8.23618	-0.0236317	6.44622	0.0144643	0.00457377	0.00286328	-0.679443	-0.0822754	-0.881592	0.886918	0.00656169	-0.455619	-0.0757912	7.93959	0.782242	5.74437	0.0031518	0.00481311	-0.00456601	-0.543701	0.0251465	-0.896484	0.848336	-0.102711	-0.519367	0.00589757	8.69902	-1.74203	4.36533	0.00422183	0.0209441	-0.0191596	-0.671143	0.200439	-0.807861	0.820922	0.140491	-0.319818	0.451736	8.06703	-0.670484	9.26018	0.008953	0.0125723	-0.0149053	-0.597656	0.00561523	-0.991943	0.6259	0.270978	-0.706371	0.189366	9.58857	0.518581	-1.45933	0.00517818	0.0213375	-0.00693483	-1.03711	-0.0996094	-0.183838	0.982236	0.0487294	-0.180064	0.0203695	3.92849	1.02239	10.3125	0.00538719	0.00417225	-0.0179586	-0.0344238	-0.108643	-1.06519	-0.0631659	0.445634	-0.882513	0.136351	0.057689	-2.80092	-8.74505	0.00703024	0.000541398	-0.0151271	-0.373291	0.325684	0.97168	0.984883	0.0234244	-0.169244	0.0285166	3.50472	0.383797	9.86297	0.00525639	0.0211318	0.00457596	0.0222168	-0.076416	-1.13965	-0.0267948	0.168784	-0.973776	0.150183	-0.0539017	-2.66369	-9.38359	0.00422946	0.00462106	-0.00417836	-0.459961	0.316406	1.00415	
47	0.893879	0.012318	-0.44766	0.0207344	8.40333	0.0146113	6.3285	0.0135872	-0.00459376	-0.00399913	-0.579102	-0.027832	-0.861816	0.84309	-0.044029	-0.53593	0.00639443	9.04208	-0.833003	4.19024	-0.0128235	0.0092044	-0.0185903	-0.616455	-0.015625	-0.696777	0.898894	0.00217857	-0.437882	0.0155957	8.23994	-0.037442	6.39659	-0.0375022	0.0043989	0.00106029	-0.672852	-0.0822754	-0.881592	0.886908	0.0065619	-0.455642	-0.0757754	7.95116	0.804277	5.75795	0.00448362	0.00341418	0.00172085	-0.543701	0.0253906	-0.901123	0.848358	-0.102554	-0.51936	0.00608491	8.6859	-1.70741	4.34181	0.0160788	0.0124242	-0.00493303	-0.668945	0.200439	-0.810059	0.820975	0.140315	-0.319859	0.451667	8.0729	-0.701391	9.29802	-0.002925	0.0172017	-0.0164963	-0.5979	0.0100098	-0.98999	0.626305	0.271004	-0.705984	0.189437	9.66784	0.490525	-1.44225	0.0113384	0.027828	-0.0143681	-1.03906	-0.101562	-0.190186	0.982215	0.0488783	-0.180123	0.020517	3.91121	1.05291	10.3301	0.0146371	0.014412	-0.0130861	-0.0344238	-0.11084	-1.06274	-0.0631333	0.445596	-0.882543	0.136294	0.0777586	-2.79788	-8.75936	0.0021757	0.00367898	-0.0168373	-0.382568	0.327637	0.971436	0.984879	0.0234122	-0.169272	0.0285081	3.4845	0.39881	9.87361	0.00197842	0.00870768	0.00340049	0.0178223	-0.076416	-1.14185	-0.026737	0.168856	-0.973771	0.150143	-0.0427688	-2.66284	-9.38244	-0.00054182	0.00543532	-0.00548442	-0.460205	0.320801	0.999512	
48	0.893752	0.0127827	-0.447886	0.0210378	8.40966	0.0521482	6.31685	0.0230214	-0.0161905	0.00275272	-0.577148	-0.0256348	-0.864014	0.843053	-0.0440348	-0.535987	0.00638452	9.05885	-0.814251	4.15142	-0.00850743	0.0125998	-0.0170516	-0.616455	-0.0178223	-0.696777	0.89889	0.00186935	-0.437895	0.015497	8.21615	-0.0488392	6.35993	0.00525275	0.00297429	0.00191532	-0.675049	-0.0822754	-0.883789	0.886906	0.00656317	-0.45565	-0.0757429	7.94469	0.869211	5.74761	0.00181478	0.00535581	0.00222454	-0.545898	0.0273438	-0.896729	0.848441	-0.102459	-0.519242	0.00613065	8.70088	-1.78747	4.39917	0.0118577	0.0093562	-0.0158268	-0.671143	0.200439	-0.810059	0.820948	0.14037	-0.319807	0.451734	8.08821	-0.639342	9.28558	0.0100399	0.0156396	-0.0124774	-0.593506	0.0100098	-0.996338	0.626441	0.270909	-0.705889	0.189476	9.62084	0.502394	-1.4473	0.0157815	0.0265563	-0.0129835	-1.03687	-0.10376	-0.183838	0.982214	0.0489149	-0.180114	0.0205375	3.90477	1.0715	10.2923	0.00947424	0.016646	-0.0161513	-0.0344238	-0.11084	-1.06519	-0.0630872	0.445517	-0.882598	0.136221	0.0776366	-2.80821	-8.75965	0.00485629	0.00364138	-0.0165063	-0.37793	0.325439	0.973877	0.98486	0.0235503	-0.169353	0.028561	3.51634	0.392555	9.87918	0.0118411	0.0109503	0.00515946	0.0222168	-0.076416	-1.14648	-0.0267743	0.168858	-0.973789	0.150015	-0.0532602	-2.66235	-9.37731	-0.00376705	0.00554468	-0.00536625	-0.458008	0.318604	1.01099	
49	0.893549	0.0130221	-0.448271	0.0212987	8.41168	0.0949896	6.32069	0.00849057	-0.0222532	0.0031585	-0.588135	-0.0256348	-0.861816	0.843036	-0.0440292	-0.536013	0.00641974	9.05441	-0.787731	4.18159	-0.00735433	0.0117987	-0.0149964	-0.616455	-0.0178223	-0.689697	0.898886	0.00186947	-0.437904	0.0155369	8.22821	-0.0321464	6.38362	0.00605559	0.00399485	0.00345354	-0.670654	-0.0844727	-0.881348	0.886936	0.00672762	-0.455611	-0.0756149	7.94358	0.826222	5.74887	0.0140931	0.00799156	0.00314774	-0.545898	0.0251465	-0.896484	0.848447	-0.102242	-0.519274	0.00625165	8.71351	-1.73129	4.32533	0.0198385	0.00546897	-0.0142171	-0.662598	0.202637	-0.807861	0.820928	0.140382	-0.319808	0.451767	8.07608	-0.590305	9.2921	0.00426177	0.0128787	-0.0133158	-0.599854	0.0100098	-0.987793	0.62667	0.270687	-0.705741	0.189586	9.66006	0.501719	-1.36334	0.0183094	0.0229287	-0.0128679	-1.03906	-0.10376	-0.192383	0.982202	0.0488083	-0.180212	0.0205198	3.90967	1.04065	10.3179	0.00238732	0.0101865	-0.0172167	-0.0297852	-0.115234	-1.06519	-0.0630331	0.445446	-0.882649	0.136145	0.0857117	-2.79226	-8.73601	0.00466312	0.00307857	-0.0171317	-0.380127	0.325439	0.967041	0.984865	0.023529	-0.169333	0.0285414	3.51116	0.426486	9.85311	-0.000415019	0.0102626	0.00230158	0.0266113	-0.0742188	-1.14648	-0.026814	0.168871	-0.973805	0.149894	-0.0533108	-2.65927	-9.38668	0.00034317	0.00488266	-0.00381683	-0.458008	0.320801	0.999512	
50	0.893429	0.0130231	-0.448513	0.0212391	8.42741	0.0709877	6.30552	-0.00189193	-0.0244555	-0.00448003	-0.581543	-0.0256348	-0.864014	0.843009	-0.0439904	-0.536058	0.00647787	9.04454	-0.794548	4.14448	-0.00274369	0.013524	-0.0155653	-0.618652	-0.015625	-0.699219	0.898923	0.0021816	-0.43782	0.0157131	8.18176	0.0531984	6.45707	0.0148089	0.00640102	0.000138209	-0.672852	-0.0822754	-0.883789	0.88698	0.00678379	-0.455542	-0.0755121	7.8799	0.855977	5.76333	0.00499814	0.00710429	0.00341807	-0.545898	0.0251465	-0.894287	0.848565	-0.101949	-0.519137	0.00640156	8.70553	-1.75295	4.32503	0.0143837	0.0153725	-0.0136653	-0.668945	0.200439	-0.80542	0.821035	0.140437	-0.319595	0.451706	8.07197	-0.61868	9.30438	0.00674531	0.0154567	-0.01583	-0.599854	0.0078125	-0.985596	0.626806	0.270404	-0.705753	0.189495	9.60331	0.515875	-1.41954	0.00360237	0.0149479	-0.00933829	-1.03931	-0.0974121	-0.183838	0.982197	0.0487389	-0.180257	0.0205371	3.90464	1.06856	10.326	0.00423964	0.0129928	-0.0133027	-0.0322266	-0.11084	-1.06519	-0.0629877	0.445564	-0.882582	0.136211	0.0727	-2.8073	-8.74932	0.00527867	0.0030477	-0.0161294	-0.382812	0.330078	0.969238	0.984866	0.023569	-0.169315	0.0285754	3.50232	0.435403	9.87724	0.00532263	0.012932	0.00646172	0.0244141	-0.0720215	-1.14893	-0.0268449	0.168872	-0.973802	0.149902	-0.0467561	-2.64983	-9.40775	0.00343158	0.0052229	-0.00517241	-0.455811	0.325195	1.00171	
51	0.893254	0.0129512	-0.44888	0.020879	8.46857	0.0661006	6.30677	-0.0110578	-0.0164614	-0.0128909	-0.581543	-0.0256348	-0.859619	0.842866	-0.0440577	-0.536279	0.00632618	9.08065	-0.791158	4.14737	-0.0236425	0.00998158	-0.0187185	-0.616211	-0.0200195	-0.691895	0.898926	0.00167185	-0.437824	0.0154323	8.22939	-0.0633919	6.39196	-0.00974251	0.00569699	-0.00052236	-0.677246	-0.0844727	-0.885986	0.88698	0.00675114	-0.455543	-0.0755074	7.94565	0.889965	5.74984	0.00130455	0.00579191	0.000884035	-0.541504	0.0275879	-0.896729	0.848575	-0.101825	-0.519144	0.00646768	8.69396	-1.71376	4.36478	0.00122571	0.00681964	-0.0157477	-0.668945	0.200439	-0.80542	0.821064	0.140255	-0.319662	0.451662	8.06564	-0.61132	9.283	-0.00615091	0.0154696	-0.0139547	-0.599854	0.0078125	-0.98999	0.627217	0.269984	-0.705559	0.189457	9.64642	0.517172	-1.3799	0.0111207	0.0388555	-0.0127226	-1.03687	-0.10376	-0.192383	0.982164	0.0486442	-0.180455	0.020594	3.9118	1.06797	10.3252	0.00219505	0.00726167	-0.014967	-0.0300293	-0.108643	-1.06763	-0.0629633	0.445488	-0.882628	0.136177	0.0777488	-2.80892	-8.7638	0.00733662	0.00305237	-0.0168041	-0.377686	0.323242	0.967285	0.984861	0.0235046	-0.169359	0.0285269	3.51458	0.405622	9.87534	-0.00270677	0.00829394	0.00261785	0.0200195	-0.0742188	-1.14429	-0.0268872	0.168852	-0.973798	0.149947	-0.0535769	-2.67004	-9.38682	0.00625635	0.0053184	-0.00384851	-0.462646	0.322998	1.00635	
52	0.893168	0.0130681	-0.449062	0.0206042	8.46604	0.036921	6.29946	-0.000638665	-0.0098845	-0.0120567	-0.585938	-0.027832	-0.855225	0.842526	-0.0444719	-0.536783	0.00607284	9.04373	-0.821245	4.16392	-0.00409788	-0.0220408	-0.0140317	-0.618652	-0.015625	-0.694336	0.898873	0.000910382	-0.43795	0.0150442	8.22618	0.0103658	6.44911	-0.0542254	-0.00088491	-0.00502269	-0.681641	-0.0800781	-0.885986	0.886951	0.00672821	-0.45559	-0.0755674	7.90432	0.851574	5.75011	0.00201213	0.00236322	-0.00232745	-0.545898	0.0273438	-0.896729	0.848753	-0.10112	-0.518986	0.00685633	8.64192	-1.73146	4.3564	0.0371178	0.0146865	-0.0158399	-0.666504	0.196045	-0.810059	0.821128	0.139937	-0.319722	0.451603	8.05546	-0.671806	9.29164	-0.0163135	0.019209	-0.0154704	-0.595947	0.0144043	-0.990234	0.62721	0.269757	-0.705714	0.189228	9.71331	0.471703	-1.46382	0.00350073	0.0197486	-0.0114618	-1.03906	-0.0996094	-0.188232	0.982129	0.0484818	-0.18069	0.0205841	3.91017	1.05813	10.3289	-0.00244189	0.0041765	-0.0141815	-0.0385742	-0.11084	-1.06982	-0.062992	0.445592	-0.882547	0.136347	0.074842	-2.80503	-8.75473	0.0104495	0.0024714	-0.0155504	-0.382324	0.321045	0.967285	0.984834	0.023336	-0.169555	0.0284448	3.51129	0.419236	9.87069	-0.00381417	-0.000208713	0.00271198	0.0222168	-0.0742188	-1.15332	-0.0268971	0.168911	-0.973765	0.150094	-0.0627744	-2.65931	-9.37757	0.00539133	0.00579959	-0.00635037	-0.458008	0.318604	1.00195	
53	0.893107	0.0128973	-0.449183	0.0206852	8.45276	0.0329416	6.26518	-0.00450642	-0.00839268	0.00544463	-0.583496	-0.0300293	-0.859619	0.842307	-0.0443997	-0.537131	0.00609281	9.09707	-0.821175	4.1865	-0.0134421	0.000443201	-0.020362	-0.618896	-0.0112305	-0.692139	0.898866	3.72261e-05	-0.437984	0.014512	8.23014	-0.0924709	6.41591	-0.0131229	-0.00120143	-0.00218159	-0.673096	-0.078125	-0.883789	0.886938	0.00658457	-0.455608	-0.075624	7.93212	0.841016	5.75596	0.00110161	0.00518251	0.00411686	-0.543457	0.0229492	-0.896484	0.848865	-0.101006	-0.518823	0.00702634	8.72189	-1.74082	4.42268	0.000463617	0.0157959	-0.00935138	-0.668701	0.193848	-0.810059	0.821214	0.139569	-0.319777	0.45152	8.08097	-0.622028	9.32455	-0.0110129	0.0191673	-0.0151191	-0.599854	0.0100098	-0.985596	0.629176	0.268516	-0.704528	0.188885	9.63354	0.519036	-1.49364	-0.0577605	0.0936086	-0.0209444	-1.03247	-0.10376	-0.194336	0.982089	0.0482814	-0.180957	0.0205872	3.91734	1.0319	10.3217	-0.00179897	0.00733324	-0.0167734	-0.036377	-0.113037	-1.0603	-0.0630374	0.445708	-0.882468	0.136459	0.0765606	-2.80392	-8.74684	0.00875015	0.000688676	-0.0155107	-0.380371	0.327881	0.967041	0.984796	0.023283	-0.169789	0.0284098	3.49687	0.385127	9.89701	0.000807835	0.00459808	0.00105384	0.0222168	-0.0742188	-1.14429	-0.0268971	0.168911	-0.973765	0.150094	-0.0627744	-2.65931	-9.37757	0.00539133	0.00579959	-0.00635037	-0.458008	0.318604	1.00195	
54	0.893102	0.0128199	-0.449206	0.0204317	8.44487	0.0673588	6.28992	-0.0111798	-0.00268212	-0.009292	-0.588135	-0.0234375	-0.861816	0.842061	-0.0441592	-0.537537	0.00613408	9.0408	-0.800074	4.12958	-0.0038185	-0.00947851	-0.0229327	-0.62085	-0.015625	-0.692139	0.898888	-0.00087945	-0.437956	0.0139306	8.22854	-0.0547079	6.41521	-0.0548986	0.0080707	0.000279953	-0.675049	-0.0800781	-0.883789	0.886929	0.00648425	-0.455618	-0.0756802	7.95349	0.819443	5.75594	-0.000356485	0.00428601	0.000824169	-0.545654	0.020752	-0.896484	0.849064	-0.0999625	-0.518689	0.00768956	8.69072	-1.76666	4.39747	0.05945	0.0161707	-0.00881151	-0.668701	0.193848	-0.807861	0.82125	0.139268	-0.319895	0.451464	8.08067	-0.70762	9.27563	-0.00595122	0.0147641	-0.0136697	-0.602051	0.00561523	-0.989746	0.630137	0.267403	-0.704302	0.188101	9.63406	0.462883	-1.34152	-0.0150117	0.0321047	-0.0107814	-1.03491	-0.0993652	-0.190186	0.982045	0.048078	-0.18126	0.0205027	3.93598	1.03146	10.3231	0.000259161	0.00672979	-0.0176775	-0.0322266	-0.108643	-1.06274	-0.0630904	0.445806	-0.882396	0.136581	0.0572896	-2.80368	-8.74907	0.00905521	0.000648886	-0.0152808	-0.375244	0.318604	0.97168	0.984801	0.0231124	-0.169779	0.0284333	3.53156	0.399127	9.85298	-0.00507109	0.0107159	0.00898559	0.0244141	-0.0720215	-1.15112	-0.0268616	0.169005	-0.973722	0.150271	-0.0483817	-2.66732	-9.3799	-0.00149913	0.00507374	-0.00573567	-0.465088	0.327393	1.00171	
55	0.893052	0.0126455	-0.449326	0.0201306	8.41349	0.0211288	6.28454	-0.00824382	-0.0101672	-0.00763079	-0.576904	-0.0300293	-0.861816	0.841852	-0.0443367	-0.537851	0.00598743	9.07886	-0.842711	4.14585	-0.012716	0.00262081	-0.0180663	-0.614258	-0.015625	-0.694336	0.898892	-0.00195597	-0.43796	0.0133938	8.23089	-0.113825	6.36294	-0.0375946	0.00708248	-0.00209446	-0.675049	-0.0778809	-0.881592	0.886947	0.0063954	-0.455574	-0.0757357	7.93268	0.815262	5.72317	0.00123433	0.00747525	0.00112149	-0.545898	0.0251465	-0.896484	0.849202	-0.0989197	-0.518654	0.00830626	8.68135	-1.63794	4.38644	0.0212282	0.00698719	-0.016144	-0.666504	0.196045	-0.812256	0.821244	0.139162	-0.31986	0.451533	8.06405	-0.658509	9.28592	0.000258431	0.0179922	-0.0134048	-0.597656	0.0078125	-0.98999	0.631018	0.266759	-0.703794	0.187963	9.64247	0.502089	-1.29529	-0.0151224	0.0549895	-0.0131169	-1.03687	-0.101562	-0.19458	0.982019	0.0480234	-0.181424	0.0204307	3.92822	1.01352	10.3188	0.00321053	0.00908689	-0.0188923	-0.0344238	-0.106445	-1.06519	-0.0631328	0.445737	-0.882432	0.136554	0.0765418	-2.79788	-8.76034	0.00655176	0.00114578	-0.0160756	-0.378174	0.330078	0.962646	0.984791	0.0231784	-0.169811	0.0285136	3.50641	0.377667	9.8633	0.00716633	0.00599791	0.0058454	0.0219727	-0.0698242	-1.14648	-0.0269483	0.169032	-0.973725	0.150207	-0.0373415	-2.67002	-9.38371	0.000868557	0.00301712	-0.00592021	-0.4646	0.318604	0.995117	
56	0.892905	0.0125585	-0.449615	0.0202447	8.43419	0.0310923	6.26939	0.00122061	-0.0170791	0.008449	-0.583984	-0.0212402	-0.857666	0.841771	-0.044257	-0.537984	0.00605726	9.07647	-0.804582	4.14171	-0.00690176	0.0104172	-0.0154241	-0.618652	-0.0178223	-0.696777	0.898917	-0.00235038	-0.437912	0.0132876	8.23333	-0.15895	6.33991	0.00263229	0.00835617	0.0063675	-0.679443	-0.0778809	-0.88623	0.886959	0.00644862	-0.455559	-0.075678	7.96396	0.814082	5.72619	0.00947298	0.00743161	0.00286738	-0.543701	0.0251465	-0.896484	0.849296	-0.0988615	-0.518508	0.00850602	8.68475	-1.72714	4.36008	0.00860642	0.0170447	-0.0049359	-0.673096	0.193848	-0.80542	0.821303	0.139039	-0.319837	0.45148	8.06152	-0.692119	9.283	0.00262285	0.0175388	-0.0182016	-0.600098	0.0144043	-0.988037	0.63118	0.266605	-0.703723	0.187902	9.63458	0.486919	-1.25696	0.00665145	0.026146	-0.0143316	-1.03662	-0.105957	-0.194336	0.982021	0.0480263	-0.181416	0.0204313	3.93197	1.03993	10.3009	0.00871586	0.0189948	-0.0177833	-0.0344238	-0.108643	-1.06519	-0.0631228	0.445705	-0.882454	0.136521	0.0708248	-2.80833	-8.73915	0.00424587	0.00197453	-0.0184013	-0.37793	0.325684	0.962646	0.984769	0.023183	-0.169936	0.0285448	3.49899	0.426005	9.88014	0.00425808	0.000753325	0.00700314	0.0197754	-0.0720215	-1.14648	-0.0270334	0.169068	-0.973725	0.150149	-0.0470152	-2.6654	-9.38896	0.00333679	0.0030942	-0.00564173	-0.455811	0.322998	1.00415	
57	0.892803	0.0125171	-0.449813	0.0203633	8.41834	0.0440601	6.28244	0.00200015	-0.0207082	0.00971753	-0.58374	-0.0234375	-0.859619	0.841812	-0.0442421	-0.53792	0.0060913	9.07063	-0.827949	4.12188	-0.00674394	0.0199863	-0.0152754	-0.625244	-0.0134277	-0.689697	0.898929	-0.00221476	-0.437883	0.0133961	8.21271	-0.108896	6.39175	0.0177339	0.00729297	0.00360659	-0.681641	-0.0756836	-0.88623	0.887032	0.00662607	-0.45544	-0.0755346	7.92955	0.831105	5.7187	0.0103752	0.00882254	0.00236027	-0.54126	0.0253906	-0.898926	0.84935	-0.0987352	-0.518442	0.0086023	8.69003	-1.65574	4.42534	0.0131819	0.0150092	-0.0113228	-0.66626	0.189697	-0.816895	0.821292	0.139119	-0.319752	0.451536	8.06906	-0.65128	9.26904	0.0127423	0.0175251	-0.0146537	-0.595947	0.0144043	-0.988037	0.631409	0.266304	-0.70366	0.187797	9.65247	0.489461	-1.33703	0.00873684	0.0244232	-0.0120142	-1.03491	-0.097168	-0.19873	0.982028	0.0480374	-0.181373	0.0204308	3.91476	1.05456	10.2973	0.00726391	0.0191056	-0.0174435	-0.0344238	-0.11084	-1.06982	-0.0631048	0.445597	-0.88252	0.136456	0.0753779	-2.79948	-8.74699	0.00385522	0.00130442	-0.0153371	-0.382568	0.327881	0.967041	0.984772	0.0233301	-0.169882	0.0286381	3.52249	0.371356	9.86789	0.00994442	0.0139143	0.00427287	0.0241699	-0.0698242	-1.14648	-0.0270955	0.169082	-0.973717	0.150173	-0.05636	-2.65332	-9.37161	0.00506067	0.00327709	-0.0057965	-0.460205	0.318604	0.999512	
58	0.892567	0.0123923	-0.450281	0.0204514	8.47318	0.0140465	6.28113	-0.0048554	-0.0245888	0.00201786	-0.58374	-0.0234375	-0.861816	0.841834	-0.0438761	-0.537915	0.00616641	9.00507	-0.81276	4.14438	-0.00386743	0.0131416	-0.0253254	-0.616455	-0.015625	-0.692139	0.898938	-0.00248352	-0.437869	0.0131976	8.18849	-0.100123	6.39627	-0.0188209	0.00579098	-0.00281748	-0.673096	-0.078125	-0.88623	0.887063	0.00673523	-0.455393	-0.0754447	7.93489	0.860147	5.73	0.00643377	0.00695875	0.000594416	-0.543701	0.0253906	-0.898926	0.849368	-0.0986434	-0.518429	0.00862882	8.69771	-1.67009	4.43588	0.0077065	0.0113233	-0.0120035	-0.668701	0.193848	-0.816895	0.821238	0.139098	-0.319733	0.451653	8.03367	-0.640226	9.29613	0.00382285	0.0149694	-0.00833361	-0.597656	0.0078125	-0.987793	0.630759	0.266585	-0.704112	0.187887	9.59794	0.535829	-1.27501	0.0268913	-0.0382781	-0.0147521	-1.03271	-0.0993652	-0.196777	0.982036	0.0480644	-0.181315	0.0204952	3.92566	1.05288	10.3086	0.00948396	0.0206046	-0.0148494	-0.0344238	-0.11084	-1.06738	-0.0630337	0.445512	-0.88258	0.136377	0.0704373	-2.79741	-8.74349	0.00416532	0.00390711	-0.0159318	-0.380371	0.327881	0.969238	0.984776	0.0233014	-0.16986	0.0286646	3.49282	0.4065	9.86705	0.00241077	0.0122468	0.00613431	0.0244141	-0.0720215	-1.15112	-0.0270402	0.169124	-0.973712	0.150169	-0.0531726	-2.66468	-9.37385	0.000683619	0.00555131	-0.00452708	-0.458008	0.318604	1.00195	
59	0.892542	0.0124083	-0.450335	0.0203201	8.47055	0.0268502	6.25885	-0.00246851	0.0013822	-0.00534549	-0.588135	-0.0234375	-0.864014	0.841748	-0.043665	-0.538064	0.00635227	9.07665	-0.811552	4.1506	0.000251956	0.00511079	-0.0156674	-0.62085	-0.0134277	-0.69458	0.898944	-0.00270336	-0.437857	0.0131837	8.17372	-0.112909	6.38711	0.00462938	0.00707988	0.00749642	-0.679443	-0.0734863	-0.884033	0.887108	0.00692203	-0.455316	-0.0753555	7.90146	0.824732	5.78077	0.0139465	0.00878849	0.000396406	-0.545898	0.0253906	-0.901123	0.849493	-0.0983545	-0.518279	0.00867707	8.66982	-1.71328	4.35526	0.0138508	0.0161298	-0.0135303	-0.664307	0.193848	-0.807861	0.821233	0.139097	-0.319726	0.451668	8.05733	-0.668907	9.26491	-0.000691189	0.016709	-0.0169829	-0.5979	0.0100098	-0.985596	0.629701	0.266919	-0.70502	0.187557	9.66665	0.533517	-1.34442	0.0263559	-0.038557	-0.0146674	-1.02832	-0.101562	-0.192383	0.982006	0.0480193	-0.181484	0.0205212	3.90424	1.0468	10.2996	0.00312104	0.00669	-0.0141379	-0.0344238	-0.108643	-1.06519	-0.0629979	0.445451	-0.882613	0.136379	0.0676945	-2.81833	-8.73536	0.00616093	0.00565978	-0.0157456	-0.380127	0.325439	0.969238	0.984813	0.0232094	-0.169662	0.0286186	3.5157	0.424504	9.8584	-0.00195922	0.013457	0.000700034	0.0244141	-0.0720215	-1.14648	-0.0270761	0.169158	-0.973712	0.150125	-0.0617862	-2.66099	-9.36808	0.00140995	0.00609145	-0.00584353	-0.459961	0.316406	0.999756	
60	0.892509	0.0126524	-0.450399	0.0201997	8.45428	0.0149202	6.25804	0.0105876	-0.0103925	-0.0100092	-0.585938	-0.0256348	-0.859619	0.841785	-0.0440361	-0.537979	0.00608697	9.071	-0.811595	4.1692	-0.0248776	0.0220405	-0.0184388	-0.623047	-0.0134277	-0.6875	0.898944	-0.00274309	-0.437857	0.0131928	8.23569	-0.0966888	6.45452	0.00028314	0.00764814	-0.000742348	-0.675293	-0.0737305	-0.88623	0.887117	0.00706425	-0.455303	-0.0753174	7.93273	0.884536	5.76192	0.00722225	0.00545798	-0.00153373	-0.543457	0.0229492	-0.89209	0.849517	-0.0983116	-0.518247	0.00870692	8.72762	-1.67748	4.44223	-0.00628481	0.0103107	-0.0167571	-0.664307	0.196045	-0.807861	0.821243	0.138976	-0.31971	0.451699	8.06399	-0.638436	9.31578	-0.000477403	0.0172317	-0.0132624	-0.595947	0.0144043	-0.988037	0.629124	0.266768	-0.705756	0.18694	9.67216	0.51528	-1.34677	-0.00577214	-0.0260707	-0.0150857	-1.03296	-0.0930176	-0.19458	0.981987	0.0480752	-0.181557	0.0206633	3.93572	1.08014	10.3262	0.00992481	0.0147615	-0.0134965	-0.0344238	-0.106445	-1.06982	-0.0629435	0.44551	-0.882587	0.136379	0.0864543	-2.8133	-8.76753	0.00609063	0.00184072	-0.0159345	-0.379883	0.318604	0.967285	0.984795	0.0232254	-0.16977	0.0285807	3.50315	0.388461	9.88477	0.0035217	0.00625843	0.00296951	0.0197754	-0.0720215	-1.14648	-0.0271258	0.169133	-0.973715	0.150127	-0.0636887	-2.67226	-9.34652	0.00212194	0.00613574	-0.00375052	-0.460205	0.320801	1.00195	
61	0.892472	0.0128711	-0.450466	0.0202003	8.47957	0.0599649	6.25116	0.00586917	-0.00318576	-0.00442339	-0.585693	-0.0300293	-0.857422	0.84175	-0.0440877	-0.538032	0.00591745	9.0396	-0.821758	4.13359	-0.0194483	0.0125128	-0.0208906	-0.62085	-0.0178223	-0.694336	0.898957	-0.00315586	-0.437836	0.0128824	8.18741	-0.049708	6.437	-0.0179839	0.00357922	-0.00364964	-0.670898	-0.0759277	-0.88623	0.887094	0.00697829	-0.455335	-0.0754031	7.91736	0.850905	5.7748	-0.00238016	0.00345835	0.000263423	-0.54126	0.0253906	-0.898926	0.849579	-0.0982143	-0.518161	0.00883192	8.67777	-1.70819	4.40368	0.0206577	0.0145614	-0.0094413	-0.66626	0.189453	-0.810059	0.821289	0.138955	-0.319715	0.451618	8.07262	-0.713869	9.29465	0.00592635	0.0148664	-0.0181572	-0.593506	0.0100098	-0.994385	0.628843	0.26663	-0.706151	0.186589	9.66159	0.531904	-1.37454	0.00693593	0.00398865	-0.0155995	-1.04346	-0.0996094	-0.192383	0.981969	0.0479553	-0.181694	0.0206235	3.92046	1.04653	10.3221	8.79328e-05	0.00984767	-0.0171406	-0.036377	-0.113037	-1.0603	-0.0630106	0.445386	-0.882644	0.136384	0.0805759	-2.80486	-8.74101	0.00882891	0.000362106	-0.0137656	-0.382812	0.330078	0.967041	0.984806	0.0232361	-0.169711	0.0285644	3.52684	0.407799	9.86784	0.0096606	0.0177024	0.00643648	0.0222168	-0.0742188	-1.14429	-0.0271771	0.169127	-0.973718	0.150103	-0.062182	-2.65964	-9.38551	0.00379668	0.00525316	-0.0041357	-0.462646	0.322998	1.00171	
62	0.892518	0.0128929	-0.45038	0.0200672	8.43919	0.0600418	6.29244	-0.00410503	-0.000224229	-0.00904976	-0.585938	-0.027832	-0.855225	0.841668	-0.0438845	-0.538177	0.00582468	9.0796	-0.795193	4.13845	0.00128619	0.00532478	-0.0256374	-0.618652	-0.0178223	-0.689697	0.898968	-0.0035996	-0.437823	0.0124215	8.25438	-0.181017	6.3603	-0.00458772	0.00685415	-0.00206757	-0.677246	-0.0756836	-0.88623	0.887098	0.00692352	-0.455314	-0.0754856	7.94937	0.822796	5.73216	0.00165982	0.00716674	-0.0024679	-0.543457	0.0229492	-0.894287	0.849558	-0.0979688	-0.518243	0.00886385	8.70171	-1.70136	4.3962	0.010207	-0.00140361	-0.0184412	-0.668701	0.19165	-0.814697	0.821324	0.13893	-0.319747	0.451539	8.07375	-0.645444	9.26386	-0.00640064	0.0134006	-0.0200914	-0.591309	0.00561523	-0.994141	0.628595	0.26652	-0.706481	0.186332	9.61008	0.516571	-1.4158	0.0151877	-0.0071872	-0.0131997	-1.03711	-0.0974121	-0.192383	0.981971	0.0479243	-0.18171	0.0204113	3.93139	1.03789	10.3039	0.000121131	0.00687848	-0.0167303	-0.0366211	-0.106689	-1.06519	-0.0630546	0.445263	-0.882705	0.136374	0.0720324	-2.80289	-8.74617	0.00963652	0.00061816	-0.0148366	-0.380127	0.321045	0.967285	0.984811	0.0231717	-0.169706	0.0284699	3.52102	0.401698	9.86482	-0.00799175	0.00233535	-0.000848196	0.0246582	-0.0786133	-1.14648	-0.0272011	0.169122	-0.973709	0.15016	-0.0639111	-2.65918	-9.39416	0.00709218	0.00614352	-0.00485206	-0.455566	0.318604	0.999512	
63	0.892521	0.0130818	-0.450385	0.0196945	8.45225	0.0232655	6.26844	0.00350202	-0.00279334	-0.0179753	-0.587891	-0.0300293	-0.859619	0.841676	-0.0438609	-0.538167	0.00573503	9.07023	-0.816345	4.13343	-0.00833736	0.0169475	-0.018204	-0.618652	-0.0134277	-0.692139	0.898982	-0.00330416	-0.437792	0.0125869	8.22556	-0.0807502	6.41741	0.0143907	0.00455763	-0.000981745	-0.675293	-0.0737305	-0.877197	0.887112	0.0071669	-0.45529	-0.0754494	7.9472	0.826573	5.73462	0.0155331	0.00889095	-0.00157823	-0.543457	0.020752	-0.894287	0.849554	-0.0979115	-0.51826	0.00881866	8.7153	-1.65085	4.41458	0.00193405	0.00742888	-0.0187517	-0.664551	0.198486	-0.814697	0.821267	0.139149	-0.319695	0.451612	8.05943	-0.64751	9.33702	0.01634	0.0111949	-0.0151158	-0.595459	0.00561523	-0.989746	0.62799	0.266619	-0.707065	0.186016	9.7076	0.501825	-1.35305	0.0159247	-0.0166107	-0.015362	-1.04126	-0.0996094	-0.188232	0.981948	0.0479159	-0.181837	0.0204388	3.93582	1.00934	10.3173	0.00649522	0.0117331	-0.0153469	-0.0388184	-0.108643	-1.06519	-0.0631157	0.44515	-0.882761	0.136349	0.0716335	-2.80457	-8.75428	0.00750643	0.00213028	-0.0154669	-0.380371	0.327881	0.967041	0.984814	0.0231968	-0.16969	0.0284314	3.50659	0.38892	9.89895	0.0071701	0.0144038	0.00486935	0.0222168	-0.0720215	-1.14648	-0.0272188	0.16917	-0.97368	0.150289	-0.0493688	-2.65732	-9.37453	0.00570964	0.00476658	-0.00554418	-0.462402	0.318604	0.995117	
64	0.892445	0.0135263	-0.45052	0.019768	8.44925	0.0263306	6.28018	0.0218115	-0.00942024	-0.000752019	-0.587891	-0.0322266	-0.859619	0.841649	-0.0436614	-0.538226	0.00580743	9.06166	-0.79802	4.13282	-9.57814e-05	0.0132996	-0.0190498	-0.618408	-0.0200195	-0.691895	0.898961	-0.0032344	-0.437835	0.0125801	8.23273	-0.0879395	6.39988	0.00919147	0.00126199	-0.00233913	-0.673096	-0.0759277	-0.881592	0.887133	0.00729179	-0.455255	-0.0753918	7.93444	0.847567	5.74565	0.0140949	0.00956175	0.00028517	-0.545654	0.0229492	-0.89209	0.849674	-0.0974437	-0.518151	0.0088977	8.6744	-1.63244	4.40433	0.0181065	0.00418322	-0.0101579	-0.664307	0.193848	-0.812256	0.821268	0.139233	-0.319707	0.451576	8.05282	-0.692144	9.26577	0.00551324	0.0099497	-0.0207818	-0.5979	0.012207	-0.98999	0.627982	0.266579	-0.707104	0.185952	9.62413	0.538766	-1.45782	0.0141014	0.00897566	-0.0159555	-1.03467	-0.101562	-0.187988	0.981928	0.0479262	-0.181938	0.0204729	3.94441	1.03293	10.2978	0.00753959	0.00788299	-0.0141877	-0.0322266	-0.11084	-1.06738	-0.0631157	0.44515	-0.882761	0.136349	0.0716335	-2.80457	-8.75428	0.00750643	0.00213028	-0.0154669	-0.380371	0.327881	0.967041	0.984828	0.0232355	-0.169607	0.0284279	3.50576	0.398422	9.87231	0.00667904	0.0175549	0.00317107	0.0244141	-0.0742188	-1.14185	-0.0272676	0.16915	-0.973705	0.150147	-0.0500257	-2.65561	-9.38354	-0.00571752	0.00496106	-0.00421429	-0.462402	0.316406	0.999756	
65	0.892374	0.0141317	-0.450623	0.0201989	8.45077	0.0867224	6.26886	0.0302767	-0.00758664	0.00442597	-0.585693	-0.0322266	-0.861816	0.841632	-0.0436054	-0.538255	0.00590263	9.05617	-0.798261	4.10374	-0.00155917	0.0112615	-0.0131727	-0.62085	-0.0178223	-0.691895	0.898979	-0.00328209	-0.437799	0.0125504	8.21446	-0.072694	6.41076	-0.00404052	0.00437921	-0.00271422	-0.677246	-0.0800781	-0.885986	0.887162	0.00747546	-0.455213	-0.075297	7.90752	0.841511	5.75722	0.0140986	0.0090562	0.00124699	-0.546143	0.029541	-0.898926	0.849669	-0.0971973	-0.518203	0.0090011	8.71119	-1.74585	4.42712	0.0140256	0.00488075	-0.0159822	-0.668457	0.187256	-0.814697	0.821189	0.139443	-0.319646	0.451697	8.07419	-0.635622	9.28193	0.0143885	0.0137091	-0.0110237	-0.593506	0.012207	-0.98999	0.627802	0.26659	-0.707289	0.185843	9.65041	0.501052	-1.40358	0.0186665	-0.00128739	-0.0154992	-1.03247	-0.10376	-0.190186	0.981913	0.0479529	-0.181999	0.0206068	3.94377	1.05719	10.2887	0.00739472	0.0136473	-0.0141534	-0.0429688	-0.113037	-1.06738	-0.0630315	0.445248	-0.88272	0.136332	0.0670085	-2.81482	-8.74179	0.00250428	0.00309727	-0.0170558	-0.37793	0.325439	0.969482	0.984815	0.0233718	-0.169645	0.0285305	3.51069	0.418724	9.88716	0.00901862	0.00675255	0.00625655	0.0222168	-0.076416	-1.14404	-0.027316	0.169147	-0.973731	0.149972	-0.0571878	-2.66996	-9.39433	-0.00314581	0.00345129	-0.0037557	-0.460205	0.320801	1.00195	
66	0.892341	0.0143953	-0.450674	0.0203453	8.44547	0.120245	6.26225	0.0240127	-0.00849728	0.000423965	-0.590332	-0.027832	-0.857422	0.841663	-0.0434635	-0.53822	0.00574233	9.06958	-0.785076	4.12796	-0.0030952	0.00932176	-0.0169245	-0.623047	-0.0134277	-0.692139	0.898979	-0.00328025	-0.437798	0.0125994	8.21958	-0.156245	6.40505	0.00548912	0.00495708	0.00399404	-0.673096	-0.0715332	-0.884033	0.887183	0.00763975	-0.455178	-0.0752336	7.92618	0.86202	5.77103	0.00831365	0.00858267	-0.00161746	-0.541504	0.029541	-0.894531	0.849697	-0.0971067	-0.518172	0.00909328	8.7048	-1.64149	4.36728	0.00994187	0.0109651	-0.010368	-0.664307	0.196045	-0.812256	0.821201	0.139553	-0.319657	0.451634	8.05855	-0.677503	9.30336	0.00106894	0.0113617	-0.0200986	-0.595703	0.0100098	-0.98999	0.627461	0.266728	-0.70758	0.185685	9.65408	0.534389	-1.42542	0.0123436	-0.00660129	-0.0181493	-1.03711	-0.0996094	-0.186035	0.981904	0.0479587	-0.182037	0.0206513	3.93803	1.05385	10.334	0.00694045	0.013389	-0.0138262	-0.0319824	-0.113037	-1.06738	-0.0630129	0.445214	-0.882745	0.13629	0.0749624	-2.81698	-8.75386	0.00375009	0.00280488	-0.0172012	-0.377686	0.323242	0.964844	0.984818	0.0234683	-0.169616	0.0285281	3.52417	0.398748	9.87397	0.0118865	0.0163997	0.00263931	0.0219727	-0.067627	-1.15112	-0.027316	0.169147	-0.973731	0.149972	-0.0571878	-2.66996	-9.39433	-0.00314581	0.00345129	-0.0037557	-0.460205	0.320801	1.00195	
67	0.892198	0.0145478	-0.450953	0.0203058	8.46421	0.109957	6.26296	-0.000372629	-0.0171704	-0.00649707	-0.585449	-0.0344238	-0.857422	0.841716	-0.0434636	-0.538138	0.0056908	9.06855	-0.797128	4.13838	-0.0100518	0.0169161	-0.0182034	-0.623047	-0.0178223	-0.689697	0.899016	-0.00315952	-0.437722	0.0126442	8.23006	-0.0553995	6.41472	0.00808225	0.00953092	-0.00137468	-0.679443	-0.0756836	-0.879395	0.887195	0.00770036	-0.455156	-0.0752293	7.91169	0.859594	5.77811	0.00788234	0.00528894	0.000654997	-0.545654	0.0229492	-0.896484	0.849687	-0.0971887	-0.518175	0.0090248	8.68747	-1.73156	4.38846	-0.00289739	0.00328666	-0.0161394	-0.666504	0.19165	-0.810059	0.821207	0.139621	-0.319592	0.451649	8.0988	-0.615102	9.30073	0.00528978	0.0159099	-0.0191639	-0.599854	0.0078125	-0.992188	0.627323	0.26664	-0.707777	0.185528	9.64582	0.512588	-1.41593	0.0178404	-0.00168492	-0.0139202	-1.03931	-0.0974121	-0.188232	0.981895	0.0479901	-0.182069	0.0207134	3.93803	1.0406	10.297	0.00827016	0.0165895	-0.0144785	-0.0344238	-0.11084	-1.06519	-0.0629364	0.44552	-0.882572	0.136446	0.0690983	-2.81521	-8.75319	0.00538593	0.00305611	-0.0165703	-0.37793	0.327881	0.969238	0.984801	0.0234306	-0.169722	0.0284992	3.50893	0.412393	9.8914	-0.00657121	0.0018298	0.0003123	0.0268555	-0.076416	-1.14404	-0.0272562	0.169187	-0.973717	0.150028	-0.0508983	-2.66233	-9.37831	0.00300507	0.00615751	-0.00466219	-0.466797	0.316406	0.999756	
68	0.892087	0.0145194	-0.451188	0.019968	8.46096	0.0798033	6.24273	-0.00750125	-0.0133757	-0.0121317	-0.588135	-0.0258789	-0.853271	0.841748	-0.0434386	-0.538092	0.00556228	9.06761	-0.799163	4.14376	-0.0138791	0.0161193	-0.0231116	-0.616455	-0.0178223	-0.687256	0.899026	-0.00309923	-0.437703	0.0125755	8.18896	-0.0748239	6.41264	0.00984432	0.00411152	-0.0051786	-0.670898	-0.078125	-0.883789	0.887206	0.00769527	-0.455134	-0.0752221	7.91191	0.873894	5.75628	0.00130725	0.00631868	-8.65202e-05	-0.543457	0.020752	-0.894287	0.849743	-0.0970765	-0.518104	0.00902092	8.67952	-1.67173	4.41409	0.00169858	0.0188934	-0.012255	-0.66626	0.189697	-0.816895	0.821215	0.139664	-0.319582	0.451628	8.05059	-0.646429	9.29541	0.00467712	0.0134053	-0.0163893	-0.5979	0.0100098	-0.985596	0.627147	0.266718	-0.707919	0.185467	9.64302	0.532385	-1.41835	0.0169279	0.00548271	-0.0173093	-1.04102	-0.10376	-0.183838	0.981891	0.0479219	-0.182114	0.0207031	3.93406	1.05013	10.3155	0.00347625	0.013824	-0.0168568	-0.0344238	-0.108643	-1.06519	-0.0629582	0.445395	-0.882641	0.136401	0.0769832	-2.7978	-8.76596	0.0062312	0.00245863	-0.0153377	-0.375488	0.325439	0.97168	0.984837	0.0234768	-0.169517	0.0284539	3.49527	0.388086	9.85856	0.00815666	0.021776	0.00379925	0.0222168	-0.0720215	-1.14648	-0.0271612	0.169273	-0.973683	0.150167	-0.0512398	-2.65529	-9.39022	0.00411183	0.00499929	-0.00441209	-0.460205	0.318604	0.999512	
69	0.891948	0.0144592	-0.451476	0.0197488	8.48677	0.0547698	6.25994	-0.00535696	-0.0158997	-0.0058893	-0.588135	-0.027832	-0.855469	0.841714	-0.0433987	-0.538148	0.00555037	9.02173	-0.801846	4.10578	0.00793347	0.00783026	-0.0177929	-0.620605	-0.0200195	-0.694336	0.899044	-0.00308117	-0.437671	0.0124313	8.20031	-0.0613543	6.42612	-0.00704094	0.00629009	-0.00441775	-0.679443	-0.0778809	-0.883789	0.887211	0.00763451	-0.455118	-0.0752767	7.91789	0.86347	5.76919	-0.00223708	0.00523853	-0.0017837	-0.545654	0.0229492	-0.896484	0.849721	-0.0970205	-0.51815	0.00905584	8.69393	-1.65932	4.41825	-0.00132884	0.00205713	-0.0155407	-0.664062	0.187256	-0.810059	0.82126	0.139612	-0.3196	0.451548	8.07411	-0.677398	9.29194	0.00370787	0.0153433	-0.0201913	-0.595703	0.0100098	-0.985596	0.627038	0.266577	-0.708144	0.185182	9.61808	0.526536	-1.42682	0.00691525	0.00395074	-0.0156469	-1.03711	-0.0974121	-0.181885	0.98191	0.0478986	-0.18204	0.0205008	3.93229	1.04294	10.3158	0.000809327	0.0104322	-0.0164202	-0.0344238	-0.108643	-1.06274	-0.0629785	0.445512	-0.882564	0.136508	0.0738483	-2.80935	-8.75512	0.00800738	0.00173787	-0.0158667	-0.375488	0.325439	0.97168	0.984836	0.0234564	-0.169525	0.0284359	3.51248	0.407965	9.87586	-5.33418e-06	0.00613998	0.00398897	0.0244141	-0.076416	-1.15088	-0.0272244	0.169275	-0.973683	0.150154	-0.0464089	-2.67487	-9.393	0.00202913	0.00400663	-0.00421792	-0.455566	0.314209	1.00415	
70	0.891927	0.0146537	-0.451515	0.0196605	8.46548	0.0536228	6.24009	0.00955002	-0.00389652	-0.00651415	-0.587891	-0.0322266	-0.857422	0.841697	-0.0437378	-0.53815	0.00527525	9.03244	-0.780245	4.18364	-0.0407976	0.0294854	-0.0174018	-0.623047	-0.015625	-0.696777	0.899063	-0.00309985	-0.437634	0.0123952	8.19863	-0.11821	6.39045	0.00542146	0.00795886	0.000332677	-0.675293	-0.0778809	-0.890625	0.887217	0.0076579	-0.455107	-0.0752651	7.91563	0.824037	5.74904	0.00759754	0.00841339	0.000277156	-0.545654	0.0229492	-0.896484	0.849756	-0.0969587	-0.518104	0.00907377	8.69325	-1.75032	4.36105	0.0114769	0.0150115	-0.00960565	-0.668457	0.187256	-0.814697	0.821288	0.139602	-0.319618	0.451487	8.03952	-0.665934	9.318	-0.00109917	0.0138059	-0.0174956	-0.597656	0.0078125	-0.98999	0.626821	0.266713	-0.708307	0.185098	9.62583	0.499946	-1.37921	0.0212929	-0.00422818	-0.0195946	-1.04346	-0.0996094	-0.181885	0.981908	0.0478738	-0.182057	0.0204998	3.93807	1.02118	10.3056	0.00430957	0.014174	-0.0166508	-0.0344238	-0.11084	-1.06738	-0.0629734	0.445467	-0.88259	0.136487	0.0755582	-2.80103	-8.75212	0.00578269	0.00301435	-0.0162693	-0.375732	0.327881	0.969238	0.984832	0.0235046	-0.169548	0.0284119	3.4829	0.398628	9.86783	0.00667435	0.0137314	0.00264118	0.0246582	-0.0786133	-1.14648	-0.0271953	0.169337	-0.973655	0.150269	-0.053087	-2.65883	-9.37523	0.00584158	0.00557991	-0.00511256	-0.459961	0.316406	1.00195	
71	0.891942	0.0151268	-0.451458	0.0198837	8.47639	0.14324	6.25838	0.0214999	-0.00134515	0.00402413	-0.587891	-0.0322266	-0.857422	0.841381	-0.0437272	-0.538642	0.00547648	9.08672	-0.807213	4.13785	0.0135322	-0.0155927	-0.00687183	-0.627441	-0.0134277	-0.692139	0.899025	-0.00377247	-0.437715	0.0120358	8.21231	-0.128338	6.37853	-0.0337765	0.00702299	-0.00155681	-0.673096	-0.0693359	-0.884033	0.887218	0.00784882	-0.455103	-0.0752552	7.91954	0.855052	5.77475	0.00860304	0.00648967	-0.0031574	-0.543457	0.020752	-0.894287	0.849875	-0.0961696	-0.518049	0.00948397	8.67769	-1.64086	4.38615	0.0331246	0.00493392	-0.0191337	-0.664307	0.19165	-0.812256	0.821285	0.139578	-0.319605	0.451511	8.09207	-0.679273	9.25449	-0.000492125	0.0164117	-0.0144789	-0.5979	0.0100098	-0.992188	0.626725	0.266644	-0.70848	0.184856	9.69837	0.532965	-1.48931	0.0191822	0.0233997	-0.0167543	-1.03467	-0.101562	-0.17749	0.981924	0.048023	-0.181946	0.0203891	3.92706	1.03438	10.3006	0.00817321	0.0118931	-0.0141894	-0.036377	-0.11084	-1.06274	-0.0629126	0.445551	-0.88255	0.136497	0.0635436	-2.79766	-8.74498	0.00246691	0.00312796	-0.0170782	-0.384766	0.323242	0.969482	0.984811	0.0234868	-0.169671	0.0284065	3.52074	0.396122	9.8696	-0.000901646	-0.000193336	0.00498763	0.015625	-0.0742188	-1.14648	-0.0271316	0.169414	-0.973651	0.150224	-0.0504492	-2.66427	-9.38607	-0.000893858	0.00549395	-0.00573019	-0.457764	0.316406	1.00195	
72	0.891866	0.0152685	-0.451594	0.0200972	8.44008	0.115001	6.24427	0.00919802	-0.0119485	-0.000547042	-0.587646	-0.0344238	-0.857422	0.841368	-0.0434879	-0.538681	0.00564045	9.11048	-0.814007	4.09065	0.00955047	0.0156231	-0.0155021	-0.62085	-0.0178223	-0.691895	0.899036	-0.00383207	-0.437695	0.0119506	8.25896	-0.0708813	6.42808	0.00531304	0.00581889	-0.00648252	-0.673096	-0.0759277	-0.881592	0.887237	0.00791188	-0.455069	-0.0752319	7.95944	0.850997	5.77642	0.00861082	0.00909163	7.46515e-05	-0.543213	0.0187988	-0.898682	0.849845	-0.0963125	-0.51807	0.00947101	8.73737	-1.65845	4.42023	-0.0096476	0.0136758	-0.0117881	-0.66626	0.1875	-0.816895	0.821302	0.139568	-0.319585	0.451497	8.08901	-0.64041	9.36054	0.00326827	0.0137537	-0.0172481	-0.593506	0.0100098	-0.98999	0.626965	0.26646	-0.70836	0.18477	9.65605	0.533397	-1.49762	0.00257642	0.033187	-0.0158202	-1.03906	-0.0996094	-0.17749	0.98193	0.0481025	-0.181907	0.0202202	3.95198	1.0427	10.3427	0.00416906	0.0170617	-0.0203625	-0.0388184	-0.104492	-1.06299	-0.0629118	0.445522	-0.882571	0.136454	0.0651961	-2.79838	-8.74474	0.00440789	0.00106313	-0.0170726	-0.37793	0.327881	0.97168	0.984779	0.0234681	-0.169866	0.0283767	3.54472	0.406137	9.89551	0.00110299	-0.00442227	0.00233896	0.0244141	-0.0742188	-1.14429	-0.0271769	0.169419	-0.973671	0.15008	-0.0424035	-2.65329	-9.39681	-0.000777667	0.0051219	-0.00365998	-0.458008	0.322998	1.00415	
73	0.891751	0.0152072	-0.45183	0.0199594	8.47894	0.0919033	6.23618	-0.010199	-0.0123783	-0.00142177	-0.585693	-0.0322266	-0.859619	0.841247	-0.0430378	-0.538902	0.00594522	9.06308	-0.793932	4.09988	0.00280732	0.00105041	-0.0174052	-0.622803	-0.0222168	-0.689453	0.899063	-0.00427161	-0.437643	0.0116718	8.17665	-0.106715	6.39891	-0.0184837	0.00711709	0.000366205	-0.67749	-0.0715332	-0.888672	0.887276	0.00787573	-0.454995	-0.0752289	7.90475	0.859265	5.77156	0.001821	0.010536	0.000637705	-0.538818	0.0187988	-0.903076	0.849957	-0.0957223	-0.51799	0.0098332	8.67179	-1.69316	4.38448	0.0516493	0.00704587	-0.0125501	-0.666504	0.19165	-0.814697	0.821279	0.139736	-0.319528	0.451526	8.0605	-0.686806	9.28453	0.0109373	0.0134254	-0.0158538	-0.602051	0.0078125	-0.991943	0.62746	0.266431	-0.707894	0.184921	9.66013	0.538006	-1.45684	0.0185067	0.0306949	-0.0188338	-1.03906	-0.101562	-0.183838	0.981948	0.0480451	-0.181835	0.0201361	3.91655	1.04719	10.2931	0.00669651	0.0171194	-0.0182057	-0.034668	-0.104248	-1.06763	-0.0629231	0.44547	-0.882604	0.136406	0.0839146	-2.80581	-8.75051	0.00422119	0.000721499	-0.0155354	-0.382324	0.323242	0.969482	0.984789	0.0235041	-0.169792	0.0284275	3.4968	0.4195	9.90217	0.00458227	0.016948	0.00533175	0.0219727	-0.0698242	-1.14648	-0.0272655	0.16943	-0.973673	0.150037	-0.0536353	-2.6608	-9.3718	-4.55324e-05	0.00380055	-0.00511662	-0.462402	0.318604	1.00195	
74	0.891711	0.0151449	-0.451914	0.0198823	8.46349	0.0745662	6.23454	-0.00707873	-0.0110076	-0.00370097	-0.587891	-0.0322266	-0.857422	0.841215	-0.0430831	-0.538949	0.00589596	9.08272	-0.798994	4.11128	-0.0147071	0.0102743	-0.0185196	-0.620605	-0.0222168	-0.689453	0.89907	-0.00453189	-0.437631	0.0114256	8.19997	-0.13305	6.39136	-0.0228453	0.00619599	-0.00802386	-0.673096	-0.0715332	-0.88623	0.887348	0.00800009	-0.454861	-0.075176	7.94568	0.875274	5.73982	0.00984716	0.0129756	-0.000126767	-0.541016	0.0187988	-0.896484	0.849965	-0.0951965	-0.518068	0.0101288	8.70885	-1.61173	4.37048	0.0485979	0.000715848	-0.0155228	-0.664062	0.187256	-0.812256	0.821258	0.139821	-0.319477	0.451575	8.08216	-0.677991	9.26079	0.0108224	0.0148119	-0.0149325	-0.593506	0.0078125	-0.987793	0.627742	0.266291	-0.707695	0.184923	9.61381	0.546512	-1.45315	0.00998893	0.0404003	-0.0163293	-1.03906	-0.0996094	-0.183838	0.981934	0.0480577	-0.181912	0.0201072	3.94334	1.05122	10.2978	0.00735197	0.00915943	-0.0189032	-0.0344238	-0.108643	-1.06738	-0.062903	0.445793	-0.882422	0.136542	0.0722395	-2.80556	-8.75212	0.00562359	0.00138168	-0.0167553	-0.380127	0.325439	0.967041	0.984796	0.0235217	-0.169738	0.0285009	3.51819	0.386858	9.8743	0.00594343	0.0117345	0.00702097	0.0244141	-0.0720215	-1.14429	-0.0273049	0.169447	-0.973682	0.149952	-0.0538388	-2.66889	-9.39423	-0.00369508	0.00288267	-0.00545169	-0.462402	0.318604	0.997314	
75	0.891576	0.0151302	-0.45218	0.0199032	8.46904	0.0792761	6.2371	0.00122512	-0.0165976	0.00268272	-0.594482	-0.0324707	-0.853271	0.841174	-0.0429279	-0.539025	0.00592105	9.10576	-0.778405	4.12565	-0.00396011	0.0131368	-0.0182945	-0.623047	-0.0178223	-0.687256	0.899113	-0.00466911	-0.437544	0.0113732	8.22314	-0.122676	6.38849	0.0116157	0.00794733	0.00534804	-0.673096	-0.0693359	-0.886475	0.887411	0.00815371	-0.454734	-0.0751765	7.9244	0.835102	5.75854	0.0104945	0.0101995	-0.00116936	-0.547852	0.0229492	-0.898682	0.850082	-0.0951432	-0.517885	0.0101616	8.69957	-1.63846	4.41505	-0.0117284	0.0206364	-0.0089147	-0.668457	0.189453	-0.812256	0.821395	0.139868	-0.319168	0.451529	8.06002	-0.637858	9.30635	0.00681085	0.0178505	-0.0143065	-0.597656	0.0078125	-0.992188	0.627932	0.266194	-0.70757	0.184897	9.62571	0.531791	-1.36456	0.0188824	0.0141311	-0.0172369	-1.03687	-0.101562	-0.186035	0.98193	0.0479774	-0.181956	0.020082	3.93715	1.02049	10.2968	0.00271478	0.0175532	-0.0166573	-0.0344238	-0.108643	-1.06738	-0.0628836	0.445916	-0.882344	0.136654	0.0702473	-2.81297	-8.75868	0.00740386	0.00294196	-0.0164251	-0.380371	0.327881	0.967041	0.984782	0.0236069	-0.169782	0.0286714	3.5073	0.416312	9.85238	0.00683351	0.00827196	0.0109683	0.0219727	-0.0698242	-1.14648	-0.0273049	0.169447	-0.973682	0.149952	-0.0538388	-2.66889	-9.39423	-0.00369508	0.00288267	-0.00545169	-0.462402	0.318604	0.997314	
76	0.891407	0.0152403	-0.452504	0.0200395	8.46786	0.0732175	6.20035	0.00622136	-0.018179	-0.000655085	-0.590332	-0.027832	-0.855469	0.841234	-0.0427688	-0.538944	0.00600741	9.08835	-0.76845	4.10807	0.00900587	0.0184087	-0.0168507	-0.623047	-0.0178223	-0.689697	0.899163	-0.00446652	-0.437443	0.0114239	8.19319	-0.117753	6.42234	0.0140007	0.00721394	-0.00175009	-0.679443	-0.0756836	-0.884033	0.887447	0.00821021	-0.454675	-0.0751139	7.89391	0.870705	5.76206	0.00391722	0.00867768	0.00288718	-0.543457	0.0231934	-0.900879	0.850066	-0.0952607	-0.517891	0.0101033	8.6879	-1.63633	4.4619	0.00520587	0.00746725	-0.0148254	-0.668213	0.180664	-0.812256	0.821417	0.139866	-0.319108	0.451532	8.07186	-0.664872	9.26775	0.00295166	0.0162894	-0.014374	-0.595703	0.012207	-0.98999	0.628074	0.266161	-0.707435	0.184982	9.60149	0.518241	-1.40647	0.0196923	0.0243511	-0.0155378	-1.03711	-0.0996094	-0.183838	0.981942	0.0480099	-0.181876	0.020129	3.92853	1.03884	10.2847	0.00848851	0.0199444	-0.0142928	-0.0280762	-0.106445	-1.06299	-0.0628816	0.445882	-0.882366	0.136618	0.0646823	-2.80202	-8.74812	0.00456989	0.00154247	-0.017544	-0.380371	0.327881	0.971436	0.984796	0.0235932	-0.169704	0.0286525	3.51937	0.394706	9.83991	0.00350771	0.0138369	0.00295403	0.0153809	-0.0698242	-1.14209	-0.0273229	0.169632	-0.973627	0.150097	-0.0545279	-2.65963	-9.3892	0.00656761	0.00308677	-0.00493315	-0.462402	0.316406	1.00195	
77	0.891291	0.0153264	-0.452728	0.0200457	8.47101	0.0926263	6.20827	0.00691523	-0.0234138	-0.00284452	-0.590088	-0.0322266	-0.855225	0.841324	-0.0427087	-0.538808	0.00592302	9.07054	-0.797002	4.13303	-0.013488	0.0162126	-0.0203399	-0.623047	-0.0178223	-0.694336	0.899179	-0.0045146	-0.437409	0.0113841	8.19076	-0.11617	6.42546	0.000655115	0.00285317	-0.00284062	-0.673096	-0.0715332	-0.888672	0.887484	0.00815503	-0.454602	-0.0751129	7.88483	0.887641	5.74277	0.00485617	0.00792589	0.000649342	-0.543701	0.0253906	-0.898926	0.85013	-0.095137	-0.517807	0.0101605	8.61581	-1.67105	4.40912	0.00658363	0.0140011	-0.0134096	-0.661865	0.189453	-0.812256	0.821388	0.139899	-0.319055	0.451613	8.02338	-0.63836	9.30213	0.00439593	0.0159077	-0.0135055	-0.595703	0.012207	-0.98999	0.62805	0.26618	-0.707437	0.185023	9.64587	0.508771	-1.36965	0.025405	0.0104744	-0.0152047	-1.04102	-0.10376	-0.190186	0.981966	0.0480062	-0.181748	0.0201402	3.92967	1.04123	10.2862	0.00278493	0.0176663	-0.0175496	-0.0344238	-0.106445	-1.06763	-0.0628134	0.445965	-0.882325	0.136642	0.0775989	-2.81874	-8.74168	0.0069106	0.00446163	-0.0161216	-0.380371	0.327881	0.969238	0.984814	0.0235975	-0.169603	0.0286235	3.48893	0.390133	9.86183	0.00263323	0.0159112	0.00295488	0.0222168	-0.076416	-1.14185	-0.027279	0.169699	-0.973609	0.150149	-0.0490003	-2.66832	-9.37555	0.00308278	0.00529637	-0.00541271	-0.462402	0.318604	1.00635	
78	0.891244	0.0157046	-0.452808	0.0200447	8.53113	0.106737	6.224	0.00638383	0.00500275	-0.000733359	-0.594238	-0.0344238	-0.853271	0.841316	-0.0426753	-0.538824	0.00598747	9.09291	-0.800095	4.15807	-0.012613	0.0119524	-0.0160044	-0.625	-0.0178223	-0.691895	0.899177	-0.00440882	-0.437412	0.0114523	8.21403	-0.132362	6.44726	0.0191435	0.00218493	0.00547686	-0.679443	-0.0734863	-0.88623	0.887496	0.0081508	-0.454574	-0.0751482	7.90782	0.818503	5.76423	0.00391278	0.00556499	0.000620033	-0.543701	0.0253906	-0.898926	0.850107	-0.0953618	-0.517806	0.0100824	8.69019	-1.67183	4.42632	-0.0113787	0.00775228	-0.0104653	-0.666504	0.19165	-0.810059	0.821422	0.139781	-0.319074	0.451575	8.06302	-0.674052	9.28588	-0.00132928	0.0157882	-0.0168665	-0.595703	0.0100098	-0.992188	0.628019	0.266226	-0.707421	0.185125	9.62299	0.52517	-1.40103	0.0220638	0.0115704	-0.0151614	-1.03711	-0.0974121	-0.183838	0.981954	0.0478956	-0.181839	0.0201572	3.92814	1.01884	10.2937	0.00484558	0.0138868	-0.0129899	-0.0366211	-0.108643	-1.06519	-0.0627619	0.445879	-0.882378	0.136609	0.0776496	-2.79814	-8.74568	0.00403726	0.00379284	-0.018165	-0.380371	0.330078	0.969238	0.98481	0.0235973	-0.169632	0.0285873	3.49969	0.44461	9.86077	0.00357131	0.00645089	0.00390247	0.0246582	-0.076416	-1.14648	-0.027279	0.169699	-0.973609	0.150149	-0.0490003	-2.66832	-9.37555	0.00308278	0.00529637	-0.00541271	-0.462402	0.318604	1.00635	
79	0.891344	0.0159762	-0.452597	0.0201752	8.49327	0.130466	6.22062	0.0125618	0.00431363	-0.000215562	-0.59668	-0.0324707	-0.857422	0.841466	-0.0429166	-0.538571	0.00589096	9.05485	-0.808343	4.1407	-0.012859	0.0256959	-0.0162994	-0.625	-0.0200195	-0.689453	0.899194	-0.00406528	-0.437377	0.0116314	8.21788	-0.121117	6.43841	0.0175873	0.00581717	-0.000415578	-0.67334	-0.0671387	-0.893311	0.887485	0.00829359	-0.454604	-0.0750794	7.92525	0.876135	5.79013	0.0100542	0.00328357	-0.000195446	-0.543457	0.0231934	-0.900879	0.850062	-0.0956335	-0.517832	0.00994626	8.69934	-1.64694	4.44508	-0.0168745	0.0073447	-0.0135543	-0.664062	0.185059	-0.810059	0.821423	0.139875	-0.319064	0.45155	8.06666	-0.651529	9.34158	0.00489998	0.0103294	-0.0171827	-0.5979	0.0100098	-0.98999	0.627807	0.266318	-0.70755	0.18522	9.6587	0.514011	-1.40806	0.0278558	-0.000125578	-0.0127712	-1.03467	-0.101562	-0.187988	0.98195	0.0480711	-0.181796	0.0203149	3.91352	1.06496	10.3122	0.0159096	0.019037	-0.0128281	-0.034668	-0.104248	-1.07227	-0.0627225	0.445834	-0.882411	0.136558	0.0725305	-2.81687	-8.74687	0.00198012	0.00382426	-0.0169518	-0.37793	0.327881	0.967041	0.984805	0.0236162	-0.169671	0.0285178	3.49833	0.38241	9.88496	0.00398039	0.0120918	0.000690099	0.0202637	-0.0786133	-1.14185	-0.0271765	0.169801	-0.97358	0.150235	-0.0416383	-2.65424	-9.38761	0.00804079	0.00539209	-0.00567766	-0.460205	0.320801	1.00195	
80	0.89146	0.0158363	-0.452364	0.0204004	8.47398	0.129998	6.23652	-0.00412465	0.00952142	0.00885788	-0.592285	-0.0322266	-0.857422	0.84161	-0.0429218	-0.538346	0.00584479	9.07225	-0.820328	4.15964	-0.0114841	0.0292604	-0.0189238	-0.618408	-0.0200195	-0.691895	0.899214	-0.00346665	-0.437331	0.011958	8.20065	-0.0624037	6.43425	0.03769	0.00639145	-0.000479358	-0.670898	-0.0737305	-0.88623	0.887478	0.00833526	-0.45461	-0.0751161	7.89064	0.900537	5.78464	0.00557644	0.00498645	-0.00350946	-0.543213	0.0187988	-0.900879	0.849968	-0.0960213	-0.517921	0.00963259	8.69588	-1.69924	4.4171	-0.0142289	0.00327785	-0.0155353	-0.664062	0.187256	-0.812256	0.821399	0.139959	-0.319079	0.451558	8.05778	-0.650453	9.31547	0.00788331	0.00979299	-0.0164771	-0.595703	0.0100098	-0.983643	0.627741	0.266417	-0.707522	0.185407	9.6278	0.532693	-1.4422	0.0366352	0.0120445	-0.0115964	-1.03711	-0.0996094	-0.188232	0.981953	0.0481513	-0.18176	0.0203393	3.92026	1.05957	10.3192	0.013622	0.018359	-0.0161	-0.0341797	-0.115234	-1.06738	-0.0627401	0.445961	-0.88234	0.136598	0.0719428	-2.80044	-8.75774	0.00543414	0.00041902	-0.0162409	-0.380371	0.327637	0.973877	0.984818	0.0236467	-0.169597	0.0284908	3.5223	0.409793	9.87318	0.0051493	0.0169431	0.00100741	0.0266113	-0.0742188	-1.15112	-0.0271387	0.169813	-0.97358	0.150232	-0.0554536	-2.66588	-9.37807	0.000830421	0.00511359	-0.00330748	-0.455811	0.320801	1.00195	
81	0.891583	0.0154973	-0.452134	0.020352	8.47674	0.0899189	6.23668	-0.0139887	0.00519105	0.00148761	-0.587646	-0.0344238	-0.853027	0.841716	-0.0424856	-0.538213	0.00589316	9.08432	-0.786336	4.08487	0.00844657	0.0186853	-0.0267433	-0.620605	-0.0222168	-0.694092	0.899255	-0.00245572	-0.43725	0.0121567	8.25524	-0.116189	6.36133	0.051136	0.00780398	-0.00983576	-0.675049	-0.0778809	-0.881592	0.887492	0.00843143	-0.454578	-0.0751327	7.90377	0.824813	5.76888	0.00955734	0.00784948	-0.0011951	-0.543457	0.0229492	-0.896484	0.849775	-0.0967209	-0.518117	0.00911798	8.70344	-1.66231	4.48476	-0.0417365	-0.000795983	-0.0189951	-0.664307	0.19165	-0.810059	0.821264	0.140701	-0.319	0.451629	8.06443	-0.590978	9.30314	0.0273691	0.00236037	-0.0191603	-0.5979	0.012207	-0.98999	0.627569	0.266752	-0.707405	0.185951	9.63945	0.529834	-1.35388	0.0509214	0.00880115	-0.0113755	-1.03687	-0.101562	-0.190186	0.981936	0.0481639	-0.18185	0.0203236	3.94136	1.04604	10.3081	0.00815659	0.0118921	-0.0183875	-0.0366211	-0.108643	-1.06738	-0.0628062	0.44585	-0.882398	0.136554	0.0699793	-2.80776	-8.75079	0.00586979	-0.000176115	-0.0158572	-0.380127	0.325439	0.969238	0.984831	0.0237044	-0.169506	0.0285077	3.52696	0.421065	9.88323	0.00748983	0.0138343	0.00511693	0.0244141	-0.0742188	-1.14429	-0.027191	0.16981	-0.973567	0.150305	-0.0470298	-2.67332	-9.39709	0.00893748	0.00476748	-0.00483223	-0.455566	0.318604	0.997314	
82	0.891634	0.0152943	-0.452044	0.0202843	8.4136	-0.00595274	6.20987	-0.0035054	-0.00177645	8.58034e-05	-0.585938	-0.027832	-0.855225	0.841996	-0.0420294	-0.537813	0.00583403	9.08521	-0.813503	4.19194	0.00875017	0.0384361	-0.0291971	-0.618408	-0.0200195	-0.689453	0.899319	-0.000931703	-0.437105	0.0128093	8.19874	-0.104057	6.38456	0.0817772	0.012531	-0.00168245	-0.672852	-0.0866699	-0.885986	0.887517	0.00862652	-0.454539	-0.0750508	7.9516	0.845473	5.75311	0.0204799	0.0105464	-0.000509314	-0.545654	0.020752	-0.898682	0.849559	-0.0965533	-0.518505	0.00888064	8.70553	-1.64276	4.41379	0.00156777	-0.010145	-0.0263799	-0.668457	0.189453	-0.814697	0.821013	0.141756	-0.318865	0.451849	8.0871	-0.708586	9.33537	0.0533134	-0.00372853	-0.0163717	-0.597412	0.00366211	-0.981201	0.627437	0.267835	-0.706649	0.187708	9.63626	0.552389	-1.45916	0.106332	0.0382508	-0.0125533	-1.03247	-0.101562	-0.187988	0.981926	0.048194	-0.181892	0.0203295	3.95309	1.07068	10.3009	0.0068902	0.0142659	-0.0154319	-0.0344238	-0.108643	-1.06519	-0.0628774	0.445728	-0.882464	0.136493	0.0781714	-2.80307	-8.73997	0.00675341	-0.00126376	-0.014002	-0.378174	0.330078	0.964844	0.984867	0.0237173	-0.169316	0.0283827	3.50952	0.41424	9.86168	0.000667332	0.0238287	-0.00338818	0.0244141	-0.0720215	-1.14429	-0.0272468	0.16982	-0.973531	0.150517	-0.0568935	-2.67563	-9.37893	0.00164655	0.00413985	-0.00361481	-0.459961	0.314209	0.997314	
83	0.891568	0.0154447	-0.452166	0.0203465	8.41219	-0.0364773	6.21544	0.0136384	-0.0145498	-0.00135615	-0.585693	-0.0322266	-0.851074	0.842155	-0.0415678	-0.537598	0.00590187	9.06909	-0.788964	4.16461	0.0259911	0.0354852	-0.031679	-0.620605	-0.0200195	-0.689453	0.899366	0.000140714	-0.436997	0.0132031	8.17817	-0.053295	6.41336	0.0944781	0.0129189	-0.00868937	-0.670898	-0.078125	-0.888428	0.88771	0.00957538	-0.454193	-0.0747474	7.8969	0.898357	5.75427	0.0277378	0.0175919	-0.00491738	-0.536621	0.0166016	-0.898682	0.849439	-0.0966979	-0.518679	0.00867298	8.70646	-1.69486	4.41905	-0.0194171	-0.00667229	-0.0225618	-0.67041	0.182861	-0.810059	0.820812	0.142515	-0.318717	0.45208	8.04799	-0.651171	9.29557	0.065385	-0.00567953	-0.0145746	-0.599609	-0.000732422	-0.987549	0.627292	0.268406	-0.70639	0.188352	9.61412	0.536182	-1.44086	0.0913417	0.0220362	-0.0191657	-1.03955	-0.0930176	-0.19043	0.981914	0.0482392	-0.181934	0.0204237	3.96129	1.0637	10.3075	0.0112878	0.0123337	-0.00999055	-0.0388184	-0.108887	-1.06055	-0.0628774	0.445728	-0.882464	0.136493	0.0781714	-2.80307	-8.73997	0.00675341	-0.00126376	-0.014002	-0.378174	0.330078	0.964844	0.984959	0.0238953	-0.168728	0.0285423	3.49253	0.42522	9.87253	0.0182829	0.0349639	0.0147425	0.0266113	-0.0742188	-1.14648	-0.0272656	0.169819	-0.973537	0.150481	-0.0522946	-2.66665	-9.37832	0.000209107	0.00541538	-0.00425948	-0.459961	0.316406	1.00195	
84	0.891377	0.0163628	-0.452493	0.0207497	8.50808	0.0319645	6.24013	0.0468964	-0.0164631	-0.00233199	-0.587646	-0.0366211	-0.853027	0.842425	-0.0409742	-0.537219	0.00602444	9.04713	-0.702807	4.12974	0.00699368	0.0307119	-0.0229741	-0.620605	-0.0222168	-0.696533	0.899411	0.00239389	-0.436872	0.0140407	8.22913	0.0106842	6.48464	0.0937868	0.00580214	-0.00776121	-0.675049	-0.0844727	-0.888184	0.887777	0.0101174	-0.454063	-0.0746755	7.91614	0.916233	5.81262	0.0212277	0.0127904	-0.00624745	-0.538574	0.0144043	-0.903076	0.849245	-0.0967458	-0.518986	0.00873977	8.67259	-1.59714	4.31059	0.00281609	-0.00649273	-0.009921	-0.677002	0.185059	-0.812256	0.820616	0.143608	-0.318524	0.452226	8.06924	-0.575696	9.25141	0.0383681	0.00166834	-0.0249013	-0.601807	-0.000732422	-0.989746	0.626336	0.269505	-0.706857	0.188212	9.65404	0.46541	-1.2748	0.0407104	-0.0561844	-0.0435738	-1.04321	-0.10376	-0.181641	0.981885	0.0482746	-0.182058	0.0206583	3.9403	1.06326	10.3269	0.0102553	0.0105377	-0.00605381	-0.0344238	-0.108643	-1.06738	-0.0628276	0.446	-0.882289	0.13676	0.0926034	-2.80028	-8.75866	0.0102401	0.00251661	-0.0178231	-0.382812	0.330078	0.971436	0.985006	0.0241189	-0.168387	0.0287597	3.47527	0.456322	9.86858	0.0247069	0.0381335	0.0174856	0.0200195	-0.076416	-1.14648	-0.0274071	0.169828	-0.973506	0.150646	-0.0481143	-2.66918	-9.39917	0.0140242	0.00320313	-0.00574788	-0.458008	0.320801	0.999512	
