40	Head	00b4120a												Throax	00b411e8												LUpArm	00b411d9												LFoArm	00b41148												RUpArm	00b411db												RFoArm	00b41204												Waist	00b411f7												Lthigh	00b411f4												Lshank	00b4111b												Rthigh	00b411c8												Rshank	00b411ee												
PacketCount	q0	q1	q2	q3	accX	accY	accZ	gyrX	gyrY	gyrZ	magX	magY	magZ	q0	q1	q2	q3	accX	accY	accZ	gyrX	gyrY	gyrZ	magX	magY	magZ	q0	q1	q2	q3	accX	accY	accZ	gyrX	gyrY	gyrZ	magX	magY	magZ	q0	q1	q2	q3	accX	accY	accZ	gyrX	gyrY	gyrZ	magX	magY	magZ	q0	q1	q2	q3	accX	accY	accZ	gyrX	gyrY	gyrZ	magX	magY	magZ	q0	q1	q2	q3	accX	accY	accZ	gyrX	gyrY	gyrZ	magX	magY	magZ	q0	q1	q2	q3	accX	accY	accZ	gyrX	gyrY	gyrZ	magX	magY	magZ	q0	q1	q2	q3	accX	accY	accZ	gyrX	gyrY	gyrZ	magX	magY	magZ	q0	q1	q2	q3	accX	accY	accZ	gyrX	gyrY	gyrZ	magX	magY	magZ	q0	q1	q2	q3	accX	accY	accZ	gyrX	gyrY	gyrZ	magX	magY	magZ	q0	q1	q2	q3	accX	accY	accZ	gyrX	gyrY	gyrZ	magX	magY	magZ	
0	-0.458302	0.0869143	0.683023	0.562036	6.83562	6.54904	0.698928	0.0475157	0.276175	-0.0181841	-0.824463	-0.398193	-0.23877	-0.670386	0.114058	0.562411	0.470392	8.59557	3.69221	3.51585	-0.0414875	-0.0241457	-0.0177358	-0.677734	-0.16748	-0.516846	-0.876022	-0.354642	-0.288044	0.154418	-6.34025	5.30314	6.04947	-0.00503781	-0.0415642	-0.0075734	0.82666	-0.362793	-0.353027	-0.247626	-0.731052	-0.127597	0.622867	-9.67599	1.85202	-1.33116	-0.0792431	-0.017469	0.00726023	0.978027	0.0637207	-0.262695	-0.713915	-0.60305	-0.257566	0.245592	-6.44351	7.27147	1.52225	0.0803254	-0.0249061	-0.0823847	0.912842	-0.437256	-0.059082	-0.924886	-0.174773	-0.22793	-0.249173	-3.90722	5.69667	10.7275	0.103138	-0.0369954	0.050604	0.684326	-0.57373	-0.4104	-0.53149	0.414638	0.588478	0.446415	9.68955	0.882397	-0.234696	0.0139803	0.0411243	0.00958032	-0.942139	0.281982	-0.078125	-0.570513	0.411527	0.577729	0.413993	9.92887	-0.0918178	-0.108823	-0.00944451	0.00308914	-0.0115232	-1.00562	0.332275	-0.125732	-0.58482	0.40416	0.577099	0.401992	9.88779	-0.136295	0.0381548	0.0391758	-0.0198202	-0.0137028	-1.00928	0.328613	-0.142334	-0.552393	0.496814	0.54434	0.389527	9.74951	-1.41037	-0.592893	-0.0241788	-0.00711876	0.0184567	-0.908447	0.499756	-0.0100098	0.584806	-0.448033	-0.606355	-0.299336	9.68037	-1.4757	-1.31968	-0.0346937	-0.0067912	7.6249e-05	-0.970459	0.562988	-0.0664062	
1	-0.460326	0.0840733	0.681988	0.562072	6.85265	6.40531	0.731956	0.0431556	0.0960655	-0.0437737	-0.822266	-0.398193	-0.245361	-0.669461	0.11559	0.562536	0.471184	8.65951	3.77308	3.27012	-0.0693664	-0.0320436	-0.0217751	-0.682129	-0.165283	-0.512207	-0.875108	-0.356488	-0.28819	0.155074	-6.25177	5.80856	6.14317	0.0833885	0.0247208	-0.0131666	0.82666	-0.360596	-0.353027	-0.248668	-0.730221	-0.128493	0.623242	-9.67619	2.14311	-1.07743	-0.059101	-0.0244069	-0.00763036	0.986816	0.065918	-0.258301	-0.71106	-0.60543	-0.257541	0.248035	-6.59343	7.13774	1.42287	0.13656	-0.00765398	-0.0646718	0.917236	-0.435059	-0.059082	-0.924386	-0.177427	-0.227857	-0.249221	-4.13932	5.93192	10.3815	0.0679111	0.00131753	-0.00395394	0.684326	-0.571533	-0.4104	-0.531498	0.415218	0.588069	0.446406	9.90515	0.634238	-0.446345	-0.0204182	0.0187213	0.00746753	-0.942139	0.286133	-0.0739746	-0.570211	0.412181	0.577402	0.414214	9.81847	-0.151504	0.0239031	-0.0216592	-0.00261747	-0.00622799	-1.01001	0.332031	-0.111572	-0.58431	0.404772	0.577196	0.401978	9.841	-0.250168	0.0273545	-0.00112029	-0.0157606	-0.0148524	-1.00952	0.333008	-0.140137	-0.552513	0.496795	0.544379	0.389327	9.58481	-1.21652	-1.00197	-0.00126255	0.0238865	0.00475158	-0.908447	0.497559	-0.012207	0.584157	-0.448734	-0.606299	-0.299667	9.63612	-1.68017	-1.31938	0.000596062	-0.0123294	-0.00349606	-0.977295	0.564941	-0.0664062	
2	-0.459935	0.0818506	0.68241	0.562208	7.05922	6.75511	0.706752	0.0382258	0.00814598	-0.0780954	-0.819824	-0.400391	-0.247314	-0.669072	0.116536	0.562297	0.471788	8.61432	3.62918	3.43411	-0.0562941	-0.0184301	-0.0193083	-0.679932	-0.169678	-0.509766	-0.874933	-0.356505	-0.288096	0.156194	-6.24908	5.45613	6.27659	0.0277007	0.0113696	-0.0371015	0.831055	-0.360596	-0.35083	-0.248617	-0.729835	-0.128581	0.623697	-9.49562	1.97211	-0.762522	0.0060458	-0.00659893	-0.00463019	0.977783	0.0681152	-0.262939	-0.710716	-0.605558	-0.2575	0.248751	-6.59898	7.19475	1.24721	0.00426034	-0.0116661	-0.00959441	0.910645	-0.435059	-0.059082	-0.924249	-0.177457	-0.228392	-0.249219	-4.13589	5.92246	10.3051	-0.0212182	0.0411173	-0.0238455	0.684326	-0.575928	-0.4104	-0.531812	0.415347	0.588398	0.445478	9.79322	0.869588	-0.28413	0.0606529	-0.00816707	0.00243662	-0.946533	0.283936	-0.0695801	-0.570435	0.411986	0.577608	0.413812	9.88121	0.0310443	-0.0801726	0.0201308	0.0231326	-0.00810639	-1.00342	0.332031	-0.116455	-0.584229	0.404778	0.577648	0.40144	9.92415	-0.1397	0.062088	0.012719	-0.0111813	-0.0136065	-1.00488	0.333008	-0.135742	-0.552389	0.49695	0.544581	0.389022	9.70153	-1.3175	-0.701235	0.00977516	-0.00810278	-0.000615216	-0.913086	0.499756	-0.012207	0.584101	-0.448529	-0.606827	-0.299012	9.71113	-1.42087	-1.38514	0.00609863	-0.0141664	-0.00335263	-0.972412	0.55835	-0.0617676	
3	-0.458884	0.0815452	0.682858	0.562567	7.26289	6.77449	0.520054	-0.0069286	-0.0420169	-0.0311316	-0.817627	-0.402588	-0.24292	-0.668866	0.117323	0.56247	0.471678	8.45187	3.69236	3.47574	0.00582767	-0.0116644	0.00258143	-0.68457	-0.163086	-0.507568	-0.875016	-0.356065	-0.288237	0.156477	-6.247	5.38629	6.06888	-0.0240055	-0.0134189	-0.0108727	0.82666	-0.356201	-0.348633	-0.250224	-0.729503	-0.129285	0.623297	-9.36744	2.2415	-0.645955	-0.114395	0.00711246	0.0317871	0.982178	0.0703125	-0.258545	-0.709692	-0.60652	-0.257204	0.249633	-6.30734	7.15439	1.36199	0.0996473	-0.0163942	-0.0340043	0.915039	-0.437256	-0.0568848	-0.924273	-0.176821	-0.228994	-0.249027	-3.96857	5.98724	10.0744	-0.0490285	0.0441803	-0.0351672	0.688477	-0.567139	-0.404053	-0.532942	0.41444	0.589082	0.444066	9.80078	0.702814	-0.26032	0.104545	0.0246612	0.00218226	-0.941895	0.279785	-0.0759277	-0.570483	0.412024	0.577801	0.413438	9.7685	0.125455	0.102481	0.0121728	-0.00189918	-0.0176098	-1.00537	0.327637	-0.109375	-0.584091	0.404902	0.578037	0.400956	9.83044	-0.038368	-0.0120637	0.0120142	-0.0144861	-0.012316	-1.00952	0.335449	-0.144775	-0.552247	0.497307	0.544541	0.388824	9.69004	-1.17844	-1.00735	-0.00679876	-0.00572362	0.0119143	-0.910645	0.497559	-0.00756836	0.583707	-0.448837	-0.607032	-0.298905	9.66451	-1.67343	-1.4491	0.0335999	-0.0111321	-0.00711216	-0.972656	0.560547	-0.0664062	
4	-0.458971	0.081173	0.683249	0.562073	7.2879	6.67717	0.533704	0.042375	0.0111997	0.0115876	-0.824463	-0.395996	-0.243164	-0.668408	0.118454	0.56302	0.471389	8.6276	3.7316	3.47115	-0.0365853	-0.0137754	-0.00398799	-0.688721	-0.163086	-0.505371	-0.875989	-0.354095	-0.288538	0.154941	-6.28959	5.2006	5.88405	-0.0991516	0.00788939	0.0390668	0.830811	-0.354004	-0.346436	-0.252018	-0.729191	-0.130538	0.622678	-9.44373	1.82175	-0.947639	-0.0762174	0.0244025	-0.000228565	0.984619	0.0681152	-0.262939	-0.709977	-0.606536	-0.256799	0.249203	-6.61293	7.04494	1.34622	0.0246362	0.0185594	-0.00437722	0.910645	-0.435059	-0.0568848	-0.924142	-0.17644	-0.229211	-0.249586	-4.09405	5.9778	10.3963	0.0483793	0.0295641	0.00997791	0.688477	-0.569336	-0.40625	-0.532968	0.414785	0.589361	0.443342	9.80945	0.872694	-0.327628	0.0209812	-0.0189777	-0.0010033	-0.946533	0.286133	-0.0761719	-0.570487	0.412088	0.577861	0.413286	9.86305	-0.0921256	-0.269778	-0.00413116	0.0178419	-0.00594823	-1.00122	0.330078	-0.121094	-0.584121	0.404879	0.578347	0.400487	9.89088	-0.232025	-0.0192181	0.0302904	-0.00424008	-0.0137948	-1.00952	0.333008	-0.135742	-0.552262	0.497123	0.545014	0.388376	9.62591	-1.36888	-0.976296	0.00215244	-0.00854885	-0.00573413	-0.910889	0.499756	-0.0100098	0.583475	-0.449018	-0.607271	-0.298601	9.63183	-1.6433	-1.35653	-0.0323925	-0.0110765	0.00487672	-0.970459	0.562988	-0.0595703	
5	-0.459573	0.0819134	0.68349	0.561182	7.14586	6.5459	0.549856	0.00952347	-0.0200183	0.0488048	-0.81543	-0.402344	-0.24292	-0.668173	0.118529	0.563528	0.471096	8.55055	3.61169	3.48518	0.0204052	-0.0289591	-0.0133265	-0.686768	-0.160889	-0.507812	-0.876163	-0.354	-0.28808	0.15502	-6.41364	5.16154	6.00395	-0.000214827	-0.0359671	0.00841038	0.82666	-0.358398	-0.348633	-0.252065	-0.729288	-0.13052	0.622549	-9.59118	1.8001	-1.01036	-0.000807287	0.0181329	0.00865746	0.982178	0.0725098	-0.260742	-0.709977	-0.606536	-0.256799	0.249203	-6.61293	7.04494	1.34622	0.0246362	0.0185594	-0.00437722	0.910645	-0.435059	-0.0568848	-0.924198	-0.175942	-0.229017	-0.249906	-4.1787	5.81169	10.2324	-0.0454986	0.0141415	0.00183238	0.682129	-0.57373	-0.406006	-0.533708	0.413976	0.589959	0.442412	9.88359	0.848093	-0.216966	0.137304	0.0186835	-0.0090565	-0.948975	0.290527	-0.0825195	-0.570688	0.411967	0.578334	0.412465	9.8675	0.0128769	0.0818427	0.0458954	-0.00762401	-0.0088692	-1.00562	0.329834	-0.121094	-0.584137	0.404893	0.578452	0.400297	9.88985	-0.0736073	-0.0264104	0.0173381	-0.00225265	-0.0123994	-1.00928	0.330811	-0.135742	-0.552082	0.497411	0.544974	0.388319	9.77447	-1.29658	-0.99949	-0.0179431	-0.00526515	0.0133304	-0.913086	0.499756	-0.000976562	0.583441	-0.448971	-0.607595	-0.298078	9.66073	-1.43528	-1.40621	0.00111578	-0.0122366	0.000518014	-0.974854	0.560547	-0.0617676	
6	-0.4592	0.0817428	0.684199	0.560647	7.29191	6.5741	0.524849	0.0447708	-0.0226447	-0.0257386	-0.822266	-0.398193	-0.243164	-0.667491	0.119075	0.564013	0.471346	8.56	3.78924	3.45514	-0.0412766	0.0283106	-0.0381617	-0.682129	-0.165283	-0.498047	-0.87597	-0.354842	-0.28779	0.154726	-6.32153	5.55513	6.11975	0.0325754	0.00336257	0.0229944	0.824463	-0.356201	-0.355469	-0.252589	-0.729381	-0.130428	0.622247	-9.42513	2.10775	-0.934608	-0.0142123	0.0135466	0.0111978	0.986572	0.0703125	-0.260742	-0.709736	-0.606905	-0.257128	0.248648	-6.3431	7.23513	1.10084	-0.0628214	0.0208148	0.00636778	0.915283	-0.44165	-0.0615234	-0.92393	-0.17737	-0.228946	-0.249954	-3.77741	6.03742	10.3037	0.0573088	0.00450043	0.0119969	0.682373	-0.575928	-0.408203	-0.533978	0.413326	0.591107	0.44116	9.71686	0.822919	-0.212252	0.0818011	-0.0430754	-0.0201667	-0.948975	0.290527	-0.0739746	-0.57079	0.411998	0.578481	0.412088	9.86974	0.085158	-0.154591	0.0280003	0.000726741	0.000164473	-1.00562	0.329834	-0.118652	-0.584472	0.404634	0.578638	0.399802	9.87952	-0.16574	0.0313687	0.054796	0.0124513	-0.0101435	-1.00708	0.335449	-0.146973	-0.552666	0.496811	0.54553	0.387474	9.63493	-1.17206	-1.02313	0.0546405	0.00598428	0.000142326	-0.91748	0.497559	-0.00756836	0.583421	-0.449128	-0.607719	-0.297626	9.63125	-1.61723	-1.51278	0.0291177	-0.00188261	0.00538252	-0.96582	0.560791	-0.0732422	
7	-0.458959	0.0808969	0.68505	0.559927	7.28853	6.57209	0.485764	0.0661855	-0.0127003	-0.0242751	-0.823975	-0.404785	-0.240967	-0.665952	0.119933	0.56654	0.470274	8.61677	3.61936	3.5212	0.0279962	-0.0592694	-0.0028207	-0.692871	-0.171631	-0.495605	-0.877115	-0.353036	-0.287214	0.153437	-6.244	5.4392	6.30826	-0.0833805	-0.0220535	0.0459925	0.822266	-0.356201	-0.35083	-0.254854	-0.728954	-0.131581	0.62158	-9.62535	1.97536	-1.07675	-0.118161	0.0170286	0.0378503	0.984619	0.0681152	-0.258545	-0.709624	-0.607287	-0.25707	0.248093	-6.65874	7.21288	1.23123	0.0324188	0.0259704	-0.002826	0.914795	-0.432861	-0.0478516	-0.923727	-0.177461	-0.228755	-0.250814	-4.14804	5.88981	10.3805	-0.00429016	0.0170252	0.0231114	0.677979	-0.575928	-0.403809	-0.534799	0.412247	0.592467	0.439346	9.78995	0.711691	-0.373303	0.157999	0.00749357	-0.0146271	-0.946533	0.28833	-0.0739746	-0.570529	0.412504	0.57889	0.411368	9.95243	0.184262	0.10385	-0.0454202	-0.00261468	-0.00957653	-1.00586	0.334229	-0.123291	-0.584638	0.404675	0.578761	0.399339	9.79903	-0.0340127	0.102913	0.00217358	-0.0036874	-0.00608856	-1.00244	0.330811	-0.137939	-0.552148	0.497321	0.545764	0.38723	9.60923	-1.27655	-0.99014	-0.00842319	0.0136358	-0.00731452	-0.910645	0.495361	-0.00292969	0.583317	-0.449543	-0.607514	-0.297623	9.65987	-1.56439	-1.3955	-0.0595296	0.00488826	0.0108267	-0.972656	0.565186	-0.0664062	
8	-0.458771	0.0804107	0.685776	0.559263	7.28338	6.73841	0.397282	0.0866986	-0.023714	-0.0179819	-0.819824	-0.402588	-0.236572	-0.665436	0.120384	0.56737	0.469887	8.64747	3.71802	3.23656	0.0129189	-0.07391	-0.00469537	-0.688721	-0.165283	-0.50293	-0.877628	-0.352094	-0.287457	0.152206	-6.24961	5.45018	6.1414	-0.0790615	0.0238961	0.0331634	0.828613	-0.351807	-0.35791	-0.256612	-0.72895	-0.131912	0.620791	-9.62619	2.41088	-0.826892	-0.0765062	0.0292741	0.0441098	0.984619	0.065918	-0.267334	-0.710143	-0.606899	-0.257714	0.246889	-6.45523	7.23047	1.22704	-0.0423079	0.0409263	0.0130396	0.912842	-0.435059	-0.059082	-0.923347	-0.177476	-0.228891	-0.252074	-3.92769	6.41798	10.2052	-0.0375532	0.0470625	0.0218992	0.686768	-0.580322	-0.406006	-0.534855	0.411899	0.594293	0.437133	9.8336	0.885904	-0.366434	0.0876276	-0.0754745	-0.00844008	-0.944336	0.286133	-0.0695801	-0.57032	0.413173	0.578239	0.411902	10.1097	-0.0533741	-0.133974	-0.0800923	0.0314553	0.00390226	-1.01001	0.334229	-0.111816	-0.584355	0.405287	0.57875	0.39915	10.0139	-0.387557	0.0168348	0.00722521	-0.0106316	-0.00609142	-1.00244	0.333252	-0.142334	-0.551929	0.497643	0.545593	0.387369	9.57651	-1.32627	-1.02171	-0.0330358	0.00590213	0.010629	-0.90625	0.499756	-0.00756836	0.583299	-0.449711	-0.607393	-0.297651	9.63266	-1.69926	-1.47386	-0.0106801	0.00862626	0.00598126	-0.9729	0.56958	-0.0620117	
9	-0.459771	0.0799223	0.686639	0.557449	7.3182	6.72216	0.427215	0.0797709	0.0263577	0.0486301	-0.826416	-0.404785	-0.236572	-0.664623	0.121345	0.56823	0.469751	8.62258	3.75997	3.21104	-0.0315575	-0.0212881	-0.010268	-0.695312	-0.163086	-0.49585	-0.877613	-0.352254	-0.287898	0.151084	-6.3078	5.47462	5.79661	0.0482508	0.0498259	0.0324722	0.833008	-0.356201	-0.351074	-0.258454	-0.728573	-0.132891	0.62026	-9.50098	1.71649	-1.17835	-0.0551923	0.0100925	0.00660516	0.984619	0.0681152	-0.260742	-0.710731	-0.606701	-0.257169	0.24625	-6.25804	7.33513	1.64959	0.0113522	0.0152392	0.00375945	0.915283	-0.44165	-0.059082	-0.923435	-0.175542	-0.228934	-0.253065	-3.96981	5.54085	10.4773	0.00799597	0.0364325	0.000610932	0.682373	-0.575928	-0.406006	-0.535219	0.411513	0.594579	0.436662	9.76293	0.694077	-0.528865	-0.0264039	0.0371221	-0.0169624	-0.939941	0.286133	-0.0739746	-0.570312	0.413676	0.578096	0.411609	9.6885	-0.210622	-0.0515623	0.0151135	-0.0269409	0.00729532	-1.00562	0.332031	-0.121094	-0.584369	0.40553	0.578798	0.398812	9.88625	-0.0588975	-0.121083	-0.0331034	0.00344249	-0.00425014	-1.00708	0.335205	-0.131348	-0.551274	0.498621	0.545566	0.387082	9.67017	-1.37057	-0.787703	-0.0217836	-0.0227752	0.0146852	-0.911133	0.506348	-0.00561523	0.582981	-0.450486	-0.607007	-0.297889	9.63866	-1.49009	-1.26433	-0.0578339	-0.000650792	0.0156223	-0.970459	0.562988	-0.0595703	
10	-0.460482	0.0799475	0.686777	0.556688	7.14242	6.80807	0.416431	0.000443056	0.000546801	0.0228497	-0.824219	-0.400391	-0.23877	-0.663669	0.122366	0.568327	0.470718	8.70597	3.6504	3.20391	-0.0547609	-0.0316063	-0.0302682	-0.697266	-0.167236	-0.490967	-0.877536	-0.352852	-0.287078	0.151697	-6.54102	5.24224	6.03127	0.0458269	-0.0582676	-0.0120355	0.82666	-0.360596	-0.353027	-0.258083	-0.728571	-0.133275	0.620335	-9.56793	1.65975	-0.940934	-0.00162142	0.00939218	-0.0142911	0.982422	0.0637207	-0.258301	-0.711038	-0.606776	-0.256878	0.245481	-6.65211	7.41524	1.31719	-0.0311604	-0.0182082	0.0226724	0.913086	-0.44165	-0.0568848	-0.923411	-0.175881	-0.228764	-0.253071	-4.10485	5.93068	10.2885	0.0196196	-0.0122273	-0.0185319	0.68457	-0.578125	-0.406006	-0.534548	0.412265	0.594141	0.43737	9.84321	0.732003	-0.220683	0.00357094	0.0140928	-0.0217781	-0.94873	0.286133	-0.0761719	-0.570482	0.413686	0.578776	0.410405	9.95374	-0.0134717	-0.0967075	0.056663	-0.00182423	-0.00291483	-1.00586	0.334229	-0.118652	-0.584828	0.405168	0.579073	0.398108	9.85729	-0.176539	0.103866	0.0672223	0.00435265	-0.00932149	-1.00952	0.335449	-0.137939	-0.551273	0.498613	0.545921	0.386592	9.73535	-1.41049	-0.590245	0.0242251	0.0082053	0.00835875	-0.908936	0.506348	-0.000976562	0.582582	-0.451028	-0.607189	-0.297477	9.65162	-1.66439	-1.31114	0.0317322	-0.0270635	0.00686636	-0.970459	0.562988	-0.0617676	
11	-0.46063	0.0809201	0.686259	0.557064	7.31427	6.63388	0.462238	-0.0446427	-0.0200619	0.0209844	-0.819824	-0.400391	-0.23877	-0.66314	0.122425	0.568406	0.471351	8.54644	3.67932	3.2044	-0.0380638	0.00236053	-0.0395668	-0.693359	-0.160889	-0.498291	-0.876954	-0.354686	-0.286098	0.152632	-6.08021	5.7178	6.30926	0.0709761	-0.0143921	-0.00285635	0.824707	-0.364746	-0.353027	-0.257977	-0.728754	-0.132508	0.620328	-9.54052	2.14581	-1.10295	0.00315791	-0.0044888	0.0376358	0.986816	0.065918	-0.262695	-0.710796	-0.607019	-0.256843	0.245619	-6.51548	7.31735	1.13233	0.0166718	0.0096441	-0.0196194	0.913086	-0.439453	-0.0546875	-0.92361	-0.177461	-0.22812	-0.25182	-3.84708	6.07283	10.4222	0.0336383	-0.0371561	-0.0486883	0.680176	-0.575928	-0.408203	-0.534948	0.411949	0.593731	0.437736	9.7469	0.76513	-0.520536	0.0320833	0.0407687	-0.0183386	-0.942383	0.28833	-0.0761719	-0.570878	0.413282	0.579001	0.409944	9.93975	0.0423533	0.0781365	0.0263363	0.015977	-0.0109699	-1.00562	0.334229	-0.116455	-0.584987	0.405197	0.579371	0.397409	9.90967	-0.165132	0.121373	0.0212897	-0.0117876	-0.00241158	-1.00977	0.339844	-0.138184	-0.551819	0.497983	0.546422	0.385916	9.6317	-1.19829	-1.07655	0.0325986	0.0140265	0.000621498	-0.910645	0.497559	-0.00317383	0.582105	-0.451511	-0.607449	-0.29715	9.67172	-1.46055	-1.5569	-0.0485773	-0.017681	0.00575303	-0.970703	0.567383	-0.0595703	
12	-0.460601	0.0820021	0.685995	0.557255	7.20912	6.26506	0.406521	-0.0123091	-0.0235498	0.01752	-0.820068	-0.398193	-0.230225	-0.662619	0.122838	0.568933	0.471341	8.72351	3.79534	3.2221	-0.0154067	0.00190966	-0.0175208	-0.695557	-0.158691	-0.489014	-0.878049	-0.3526	-0.28553	0.152234	-6.28089	5.61138	6.47293	-0.117004	-0.0201287	0.0269348	0.82666	-0.356201	-0.355469	-0.259759	-0.728211	-0.132116	0.620306	-9.62237	2.40562	-0.772373	-0.0894146	-0.0176129	0.0653116	0.982422	0.065918	-0.264893	-0.711166	-0.606778	-0.256078	0.245943	-6.47184	7.0697	1.18652	0.0127935	-0.0360721	0.0121768	0.913086	-0.44165	-0.0522461	-0.923981	-0.176418	-0.227787	-0.251494	-4.03458	5.9803	10.2812	-0.0839303	0.022366	-0.044014	0.680176	-0.578125	-0.406006	-0.535878	0.411067	0.593647	0.43754	9.7789	0.864241	-0.361953	0.022768	0.0489513	-0.00923492	-0.940186	0.28833	-0.0803223	-0.571484	0.412775	0.579077	0.409504	9.76067	-0.00855893	-0.106679	0.0415987	0.0236802	-0.0156327	-0.999268	0.334229	-0.118652	-0.585195	0.405117	0.579889	0.396428	9.89041	-0.120143	-0.0451438	0.0333937	-0.0127022	-0.00445509	-1.00244	0.335449	-0.137939	-0.551443	0.498588	0.546083	0.386154	9.55639	-1.08076	-0.935787	-0.0652889	-0.00396334	0.0194388	-0.913086	0.499756	-0.000976562	0.581393	-0.452523	-0.607076	-0.297765	9.68765	-1.51081	-1.52128	-0.108907	-0.0121656	0.012242	-0.972656	0.565186	-0.0595703	
13	-0.460114	0.0819369	0.687089	0.556319	7.31914	6.54941	0.358207	0.059014	-0.0404619	0.00267141	-0.824219	-0.400391	-0.234375	-0.662499	0.124101	0.568562	0.471626	8.55606	3.73263	3.26765	-0.0554745	-0.000618153	0.00561955	-0.695557	-0.158691	-0.493652	-0.87896	-0.350569	-0.285781	0.151192	-6.14238	5.10622	5.94463	-0.0550275	-0.00616095	0.00232323	0.82666	-0.360596	-0.357666	-0.262094	-0.727837	-0.132204	0.619743	-9.41092	2.16425	-0.979642	-0.0358138	0.00466904	0.0449119	0.982422	0.0681152	-0.258545	-0.711453	-0.606812	-0.255195	0.245945	-6.44646	7.58562	1.41296	-0.00670972	-0.00641978	-0.0107875	0.913086	-0.44165	-0.0546875	-0.924204	-0.175679	-0.227639	-0.251325	-3.96955	5.66273	10.5922	0.00859843	0.00481765	-0.00906166	0.680176	-0.575928	-0.408203	-0.535707	0.411616	0.593443	0.437511	9.74323	0.717027	-0.449222	-0.0301806	-0.0146556	-0.00884741	-0.937988	0.28833	-0.0739746	-0.571246	0.4135	0.578911	0.40934	9.81523	0.0496528	-0.152818	-0.0431304	-0.00771119	0.0127897	-1.00122	0.329834	-0.116455	-0.58476	0.405886	0.579824	0.396379	9.86086	-0.269814	-0.0604489	-0.0294533	-0.0128469	-0.00540182	-1.00488	0.333008	-0.137939	-0.550671	0.4998	0.545191	0.386948	9.58712	-1.45618	-1.08997	-0.0426539	0.0252765	0.0126351	-0.908691	0.50415	-0.00317383	0.580324	-0.454157	-0.60637	-0.298798	9.60156	-1.52816	-1.56959	-0.0772747	0.00288013	0.0126138	-0.968262	0.562988	-0.0549316	
14	-0.460964	0.0812325	0.687657	0.555015	7.34148	6.75874	0.410765	0.0602126	0.0393214	0.0215368	-0.81958	-0.404785	-0.240967	-0.661949	0.125179	0.568906	0.471698	8.68995	3.61343	3.07923	-0.0194182	-0.0161262	-0.0155392	-0.699951	-0.156494	-0.489014	-0.878725	-0.351371	-0.285585	0.15107	-6.33922	5.63287	6.20054	0.0386161	0.0197701	0.0199844	0.824463	-0.358154	-0.362305	-0.263345	-0.727343	-0.133148	0.619591	-9.61656	2.04922	-0.985307	-0.0652526	0.00673568	-0.00852382	0.984619	0.065918	-0.258301	-0.711372	-0.606942	-0.255199	0.245854	-6.52961	7.08307	1.51815	0.0137904	0.00243753	-0.00221051	0.910889	-0.443848	-0.0500488	-0.924244	-0.175235	-0.227603	-0.25152	-3.8738	5.90079	10.6075	-0.036084	0.0233063	-0.00945769	0.684326	-0.571533	-0.408203	-0.535068	0.412513	0.593514	0.437353	9.78636	0.805622	-0.346845	0.0211108	-0.0191992	-0.00938681	-0.94458	0.290527	-0.0783691	-0.570987	0.4142	0.578436	0.409664	9.90886	0.026495	-0.0345775	-0.0674576	0.0137686	0.00819648	-0.999023	0.332031	-0.109375	-0.584605	0.406209	0.58007	0.395917	9.84011	-0.123983	0.0476928	0.00299489	-0.0163704	-0.00727301	-1.00952	0.337646	-0.135742	-0.550652	0.500063	0.545124	0.386728	9.69352	-1.38549	-0.894836	0.0064577	0.00408768	0.0125677	-0.911133	0.506348	0.0012207	0.579765	-0.455186	-0.605843	-0.299388	9.67929	-1.66783	-1.47303	-0.0180102	0.00684003	0.00749449	-0.963623	0.562988	-0.0595703	
15	-0.461374	0.081562	0.687286	0.555086	7.21605	6.67994	0.430002	-0.0314358	-0.00738934	0.0107432	-0.822266	-0.395996	-0.236572	-0.661743	0.125239	0.568984	0.471878	8.75994	3.67042	3.23442	-0.0153881	0.000876964	-0.0341671	-0.697998	-0.1521	-0.491455	-0.878627	-0.35148	-0.285598	0.151362	-6.2082	5.50751	6.21242	0.02101	0.00133645	-0.0184774	0.828613	-0.356201	-0.360107	-0.263095	-0.727349	-0.133378	0.61964	-9.45077	2.03263	-0.957001	0.00457189	0.0108713	-0.0244433	0.97998	0.0681152	-0.265137	-0.71157	-0.606723	-0.25523	0.245791	-6.34275	7.48927	1.45718	-0.0238129	0.00173053	-0.0122771	0.915039	-0.437256	-0.0546875	-0.924248	-0.174483	-0.227937	-0.251726	-4.02561	5.61562	10.2797	-0.031594	0.0302463	-0.00870917	0.686523	-0.575928	-0.406006	-0.535007	0.41247	0.593697	0.437218	9.83802	0.740214	-0.376901	0.0254715	-0.00252443	-0.0218344	-0.946533	0.286133	-0.0739746	-0.570703	0.415006	0.577442	0.410645	9.81023	-0.228787	-0.144136	-0.0598633	0.0275214	-0.000391277	-1.00171	0.343018	-0.116455	-0.584377	0.406617	0.580039	0.39588	9.89829	-0.134704	-0.02796	-0.0210688	-0.0150304	-0.00451306	-1.00757	0.342041	-0.126953	-0.550697	0.500149	0.545158	0.386506	9.80221	-1.27551	-0.853777	0.010073	0.00118279	0.0156286	-0.901855	0.502197	0.00366211	0.5798	-0.455238	-0.605824	-0.299278	9.74069	-1.45496	-1.43567	0.00415675	0.00428529	0.00460508	-0.975098	0.567383	-0.0505371	
16	-0.460906	0.0830389	0.686842	0.555804	7.22259	6.49964	0.320563	-0.0601616	-0.0508977	0.0159408	-0.822266	-0.398193	-0.236572	-0.6615	0.125377	0.568988	0.472177	8.77896	3.67777	3.19101	-0.0206781	0.0222708	-0.0217202	-0.699951	-0.158691	-0.489014	-0.878556	-0.351575	-0.285359	0.152004	-6.15056	5.3285	6.3155	0.0382322	1.49511e-05	0.00213626	0.82666	-0.358398	-0.355469	-0.262922	-0.727454	-0.133325	0.619602	-9.41409	2.10646	-0.961268	0.0123661	0.0107476	0.00695354	0.982422	0.065918	-0.264893	-0.71171	-0.606634	-0.255181	0.245654	-6.48392	7.26931	1.5783	-0.0136661	0.00493724	-0.00205925	0.912842	-0.437256	-0.0615234	-0.924219	-0.175561	-0.227889	-0.251126	-3.95599	5.85691	10.4791	0.0364701	-0.00871151	-0.0339769	0.68457	-0.580322	-0.410156	-0.534503	0.412908	0.593863	0.437195	9.87444	0.704979	-0.468775	0.0054776	-0.0110037	-0.0172557	-0.944336	0.286133	-0.0717773	-0.57093	0.414983	0.577424	0.410378	9.89739	-0.0807155	-0.0386165	0.0208863	0.0259106	-0.00625238	-1.01245	0.338623	-0.121094	-0.584435	0.406721	0.580424	0.395122	9.85906	-0.224904	-0.0268625	0.0458233	-0.0118736	-0.00554304	-1.00513	0.342041	-0.12915	-0.5504	0.50055	0.544772	0.386955	9.61987	-1.09565	-0.896317	-0.0434512	0.0163026	-0.000172895	-0.910889	0.501953	0.00146484	0.578918	-0.456486	-0.605343	-0.300057	9.65406	-1.73976	-1.43557	-0.0786013	-0.00771514	0.00545269	-0.968262	0.567383	-0.0505371	
17	-0.460569	0.0837715	0.686846	0.555968	7.32149	6.39838	0.32352	-0.0370036	-0.0548488	0.0167835	-0.829102	-0.391846	-0.236816	-0.661431	0.125717	0.56895	0.472229	8.70608	3.69502	2.96045	-0.0254108	0.0107327	-0.0122006	-0.695312	-0.160889	-0.48877	-0.87863	-0.351515	-0.285262	0.151898	-6.27332	5.4972	6.31722	-0.0250469	-0.001083	0.00670958	0.826416	-0.351807	-0.360107	-0.263991	-0.727001	-0.133648	0.61961	-9.49965	2.341	-0.810387	-0.0729691	-0.00513675	0.0173546	0.982178	0.0703125	-0.256348	-0.710507	-0.607666	-0.255086	0.246686	-6.38682	7.19084	1.3382	-0.00132171	-0.00907507	-0.00523015	0.919678	-0.44165	-0.0568848	-0.924265	-0.176053	-0.227732	-0.250756	-3.96254	5.8509	10.297	0.00609275	0.00972218	-0.0211386	0.68457	-0.578125	-0.406006	-0.534431	0.41309	0.593796	0.437202	9.72489	0.726316	-0.528866	0.000765711	0.00498876	-0.0089348	-0.94458	0.290527	-0.0739746	-0.57114	0.415027	0.57723	0.410314	9.86875	-0.000964395	-0.0317024	0.00291791	0.0257074	-0.00950217	-0.999268	0.334229	-0.114014	-0.584256	0.407192	0.58065	0.39457	9.87326	-0.200864	-0.0226598	-0.00535595	-0.0209588	-0.00323782	-1.00732	0.337646	-0.135742	-0.550138	0.501363	0.544176	0.387111	9.63622	-1.62313	-0.843307	-0.0225414	0.00802928	0.0298911	-0.908936	0.506348	0.00366211	0.578679	-0.456741	-0.605531	-0.299752	9.57631	-1.5331	-1.47254	-0.00366124	-0.0153714	0.00058594	-0.963867	0.567383	-0.0480957	
18	-0.460711	0.0845945	0.686913	0.555644	7.36783	6.483	0.270589	0.00265123	-0.0151182	0.0315488	-0.820068	-0.395996	-0.232422	-0.661942	0.125706	0.568643	0.471886	8.69656	3.63045	3.23616	0.0200111	0.0343548	0.00142522	-0.695312	-0.160889	-0.491211	-0.878562	-0.351621	-0.2851	0.152346	-6.12282	5.14847	6.1258	0.0406209	-0.0282403	-0.0239994	0.830811	-0.358398	-0.360107	-0.264734	-0.727022	-0.133942	0.619205	-9.40368	2.04875	-0.969561	0.0158271	0.0131292	0.0168956	0.986816	0.0681152	-0.258545	-0.710811	-0.60741	-0.254775	0.24676	-6.35065	7.35265	1.40166	-0.00577976	-0.00587849	-0.0125913	0.913086	-0.44165	-0.0522461	-0.924367	-0.175709	-0.227651	-0.250692	-3.98217	5.73571	10.317	-0.0139074	0.00989762	-0.0180774	0.690918	-0.575928	-0.406006	-0.534619	0.413263	0.593578	0.437106	9.81163	0.672615	-0.409276	0.0306897	0.0289681	-0.00102672	-0.948975	0.290527	-0.0783691	-0.571005	0.415594	0.57654	0.410898	9.8391	-0.157004	-0.181825	-0.0381089	0.0372048	-0.00867101	-1.00366	0.336426	-0.109375	-0.5839	0.407805	0.580862	0.394152	9.87637	-0.205742	-0.122743	-0.00167755	-0.019551	-0.00284705	-1.00757	0.344482	-0.126953	-0.550446	0.501429	0.543723	0.387226	9.68387	-1.18231	-0.977863	-0.00215235	0.0335551	0.018263	-0.908691	0.50415	0.0012207	0.578275	-0.457219	-0.605654	-0.299554	9.62623	-1.48885	-1.4256	-0.0219769	-0.0178089	0.00481817	-0.968506	0.571777	-0.0437012	
19	-0.461272	0.0844198	0.687116	0.554953	7.47609	6.52473	0.297725	0.0423913	0.0220881	0.0111124	-0.824463	-0.395996	-0.234619	-0.66291	0.124855	0.568812	0.470547	8.6408	3.7049	3.12624	0.0528461	0.0402576	0.0217218	-0.693359	-0.158691	-0.493652	-0.878235	-0.352615	-0.284826	0.152447	-6.19486	5.59862	6.25368	-0.00196004	0.013354	0.0275021	0.824463	-0.358398	-0.355469	-0.266668	-0.726901	-0.134376	0.618422	-9.49572	2.29549	-1.02007	-0.114442	0.0175135	0.0538951	0.984375	0.0703125	-0.256348	-0.711242	-0.607021	-0.254584	0.246671	-6.47412	7.19734	1.26181	-0.00509017	-0.014163	-0.0154289	0.917236	-0.439453	-0.0568848	-0.924471	-0.17548	-0.2274	-0.250699	-3.93738	5.90034	10.3799	-0.0222709	-0.00125206	-0.0168343	0.68457	-0.578125	-0.406006	-0.534691	0.413887	0.593128	0.437037	9.82683	0.684249	-0.536405	-0.0111883	0.00446451	0.0118636	-0.942383	0.290527	-0.0739746	-0.571089	0.415869	0.576022	0.41123	9.78465	-0.173151	-0.0828216	-0.00173764	0.0252829	-0.00877275	-1.0061	0.345215	-0.114258	-0.583716	0.408279	0.580975	0.393767	9.85178	-0.184969	-0.162293	0.00444825	-0.00943294	-0.00383152	-1.00269	0.339844	-0.126953	-0.550393	0.502047	0.543136	0.387324	9.63594	-1.28015	-0.916423	-0.0241222	0.0120879	0.0170682	-0.906494	0.501953	0.00585938	0.578405	-0.457155	-0.605916	-0.298868	9.66456	-1.50809	-1.68717	0.0603807	-0.00314949	0.00522706	-0.966064	0.56958	-0.0480957	
20	-0.462633	0.0836937	0.686904	0.554192	7.28694	6.49567	0.327464	0.0342502	0.0572693	0.0225825	-0.824463	-0.395996	-0.236572	-0.663744	0.124201	0.569782	0.468365	8.83762	3.49915	3.01709	0.0635929	0.00932991	0.0303919	-0.699707	-0.160889	-0.491211	-0.879238	-0.350611	-0.284971	0.151013	-6.34548	5.58108	6.30194	-0.109854	0.00250273	0.0276891	0.824463	-0.356201	-0.355469	-0.268878	-0.72639	-0.134813	0.617971	-9.65789	2.14627	-0.84788	-0.0754204	0.00659824	0.0500247	0.987061	0.0637207	-0.258301	-0.710908	-0.607354	-0.254349	0.247059	-6.52661	7.40552	1.33789	0.0133776	-0.0219178	-0.00806577	0.913086	-0.443848	-0.059082	-0.92451	-0.175089	-0.227184	-0.251024	-4.04538	5.86103	10.323	-0.0703324	0.0153227	0.00311352	0.686523	-0.57373	-0.4104	-0.535324	0.413812	0.592759	0.436835	9.62682	0.687897	-0.304646	0.0234348	0.0211582	-0.00926709	-0.940186	0.290527	-0.0761719	-0.571486	0.415636	0.576089	0.410818	9.83868	-0.150846	-0.233782	0.0393978	0.027615	-0.0107609	-1.0061	0.34082	-0.118896	-0.583814	0.408477	0.580908	0.393514	9.90692	-0.310353	-0.199539	0.0213591	0.0101356	-0.00686124	-1.00757	0.344482	-0.12915	-0.550011	0.502483	0.543093	0.387361	9.61315	-1.45527	-1.11775	-0.007908	-0.00341529	0.00611598	-0.906494	0.50415	0.00366211	0.578365	-0.457597	-0.605576	-0.29896	9.62108	-1.86032	-1.52783	0.00412357	0.0127445	0.00762696	-0.968506	0.571777	-0.0483398	
21	-0.463294	0.0832455	0.686836	0.553791	7.27298	6.52429	0.438387	0.0410061	0.0514899	0.0176161	-0.82251	-0.391846	-0.232422	-0.664526	0.123535	0.570055	0.467099	8.74062	3.71719	3.16227	0.105923	-0.00870509	0.0155937	-0.699707	-0.163086	-0.491211	-0.879314	-0.350309	-0.285096	0.151034	-6.26889	5.34017	6.0787	0.0493871	0.0200229	-0.014019	0.82666	-0.358398	-0.357666	-0.270242	-0.726249	-0.134868	0.61753	-9.54454	2.0356	-1.08753	-0.0135583	0.00733438	0.0289772	0.985107	0.0571289	-0.258301	-0.711474	-0.606661	-0.254449	0.247027	-6.47523	7.3154	1.37081	-0.05738	0.00137364	-0.00341117	0.915283	-0.443848	-0.0568848	-0.924602	-0.174663	-0.227171	-0.250991	-4.01825	5.76723	10.4593	-0.052221	0.0194997	-0.0205198	0.684326	-0.571533	-0.4104	-0.536112	0.413064	0.593269	0.435882	9.92674	0.678818	-0.483805	0.0994283	0.0207446	-0.00885851	-0.937988	0.28833	-0.0698242	-0.571949	0.41558	0.575989	0.410371	9.85787	-0.0906892	-0.175342	0.00655619	0.015885	0.00632858	-0.999512	0.343018	-0.111816	-0.584467	0.408058	0.580877	0.393025	9.90641	-0.202958	-0.172345	0.0408809	0.0257008	-0.00662249	-1.00049	0.342285	-0.131348	-0.550428	0.502355	0.543403	0.386498	9.75578	-1.35193	-0.879955	0.0591775	-0.00404886	0.0154536	-0.906494	0.506348	0.00585938	0.578997	-0.457169	-0.605706	-0.298126	9.7491	-1.39089	-1.56172	0.0116127	0.010892	0.0126744	-0.966309	0.571777	-0.0458984	
22	-0.465143	0.0820909	0.686499	0.552831	7.19708	6.48565	0.480222	0.0421601	0.0484253	0.00655197	-0.826904	-0.391846	-0.234619	-0.665747	0.121648	0.57086	0.464867	8.632	3.72382	3.2657	0.0916514	0.0423147	0.0194031	-0.693359	-0.156494	-0.496094	-0.879093	-0.350754	-0.285028	0.151417	-6.16617	5.50267	6.07632	0.0510337	-0.00121994	-0.0166367	0.82666	-0.362793	-0.353027	-0.269897	-0.72668	-0.134502	0.617253	-9.46047	2.32994	-0.663926	-0.00955759	0.0269587	0.0102371	0.982666	0.0593262	-0.260498	-0.712188	-0.605875	-0.254437	0.246913	-6.47745	7.40977	1.39388	-0.081407	-0.0195214	-0.00844147	0.910889	-0.44165	-0.0615234	-0.92464	-0.174378	-0.226951	-0.251251	-4.03721	5.59118	10.4091	-0.0291513	0.00743784	0.00159582	0.686523	-0.571533	-0.408203	-0.536876	0.41246	0.593556	0.435124	9.75755	0.767219	-0.528407	0.0450771	0.0306814	8.06208e-05	-0.944824	0.294922	-0.0783691	-0.572369	0.415092	0.576323	0.40981	9.81256	-0.115245	-0.145392	0.0658974	0.0200843	-0.0198027	-0.999512	0.34082	-0.116455	-0.585019	0.407877	0.580623	0.392768	9.80934	-0.239822	-0.0613382	0.0389917	0.0262631	-0.00627016	-1.00073	0.349121	-0.135986	-0.551321	0.501394	0.544232	0.385306	9.55024	-1.28494	-0.96488	0.0652426	-0.00659243	0.00839075	-0.906494	0.506348	0.00366211	0.579526	-0.456938	-0.605678	-0.29751	9.56496	-1.83189	-1.44541	0.0690672	0.00960258	0.0068702	-0.966309	0.571777	-0.0505371	
23	-0.465711	0.0819755	0.686608	0.552234	7.22947	6.56889	0.465642	0.0157977	0.000407334	0.0249824	-0.826904	-0.394043	-0.23877	-0.666136	0.121098	0.57137	0.463825	8.64975	3.62497	3.1264	0.094602	0.0147253	0.0208815	-0.693115	-0.165283	-0.49585	-0.879368	-0.350344	-0.284484	0.151791	-6.26812	5.31444	6.33658	-0.0076923	-0.0122606	-0.00756738	0.824463	-0.358398	-0.360107	-0.270432	-0.726684	-0.134732	0.616963	-9.56906	2.18647	-0.992846	-0.0450552	0.0230997	0.0210459	0.987061	0.0593262	-0.260498	-0.71146	-0.606671	-0.25431	0.247186	-6.44729	7.19499	1.23567	0.0751919	-0.00139358	-0.0119369	0.910645	-0.437256	-0.0568848	-0.924617	-0.174941	-0.226862	-0.251023	-3.91109	5.92682	10.2808	-0.00807341	0.00633521	-0.0221766	0.679932	-0.569336	-0.412598	-0.537194	0.412242	0.593644	0.434818	9.66819	0.796289	-0.362662	0.050542	0.0201223	-0.00646105	-0.94043	0.292725	-0.0761719	-0.572722	0.414625	0.576507	0.409531	9.82511	-0.100283	0.0665671	0.0561993	0.0302787	-0.0204885	-1.00171	0.34082	-0.123535	-0.585286	0.407835	0.580487	0.392613	9.90436	-0.20267	-0.0203568	0.0182799	0.0228764	-0.00152332	-1.00317	0.349121	-0.12915	-0.551652	0.501136	0.544383	0.384955	9.65831	-1.25447	-0.843851	0.0460871	0.0140622	0.0107114	-0.906494	0.506348	0.00366211	0.580256	-0.456208	-0.606008	-0.296532	9.55923	-1.44562	-1.5383	0.11803	0.00866579	0.01063	-0.970703	0.571777	-0.0527344	
24	-0.465709	0.0823139	0.68674	0.552021	7.17997	6.49196	0.43492	0.00593578	-0.025551	0.0228603	-0.828857	-0.39624	-0.236572	-0.666906	0.120212	0.571539	0.46274	8.72231	3.69633	3.18122	0.0301138	0.0413777	0.00168221	-0.695312	-0.165283	-0.500488	-0.879115	-0.350861	-0.284543	0.151946	-6.09054	5.59425	6.18593	0.034585	0.0131775	-0.000764311	0.822266	-0.358154	-0.364502	-0.270729	-0.726712	-0.134049	0.61695	-9.4185	2.20223	-0.908066	-0.000940592	0.00462162	0.0309449	0.985107	0.0549316	-0.258301	-0.71212	-0.606149	-0.253719	0.247175	-6.42962	7.21028	1.48351	-0.0527841	-0.0114058	0.0149611	0.919434	-0.439453	-0.059082	-0.924892	-0.17442	-0.226728	-0.250491	-4.05561	5.8702	10.5064	-0.0396776	0.0124746	-0.0488068	0.682373	-0.575928	-0.412354	-0.537934	0.411561	0.593866	0.434244	9.88526	0.833476	-0.437433	0.0518504	0.0348064	-0.00911888	-0.942627	0.297119	-0.0783691	-0.573382	0.414549	0.576158	0.409175	9.81336	0.00912531	-0.0145586	0.0101014	0.0271453	0.00808316	-1.00391	0.34082	-0.118896	-0.585557	0.407766	0.580384	0.392434	9.90027	-0.326477	-0.0602694	0.0229387	0.0222137	-0.0025629	-1.00977	0.342041	-0.131348	-0.552085	0.500819	0.544532	0.384536	9.68928	-1.19369	-1.11741	0.0137872	0.000411558	0.0135667	-0.911133	0.508545	-0.00341797	0.580278	-0.456882	-0.605426	-0.296642	9.6079	-1.79336	-1.53908	-0.00670789	0.0157122	0.0215581	-0.970703	0.56958	-0.0527344	
25	-0.464928	0.0827604	0.687061	0.552213	7.44623	6.42933	0.362984	-0.0110384	-0.0321011	-0.0257221	-0.826904	-0.391846	-0.23877	-0.667312	0.119776	0.571794	0.461953	8.6565	3.79716	3.1904	0.031906	0.0164677	-0.00652451	-0.690918	-0.163086	-0.49585	-0.879308	-0.350686	-0.283866	0.152504	-6.28348	5.27758	6.21015	0.014347	-0.0360564	-0.00374822	0.828613	-0.354004	-0.362305	-0.270789	-0.726996	-0.133438	0.616721	-9.43298	2.42528	-0.669449	0.00881445	0.0111416	0.0211558	0.985107	0.0571289	-0.256104	-0.712872	-0.605454	-0.253593	0.246838	-6.33344	7.31755	1.2411	-0.0274149	0.000597465	0.000881432	0.910889	-0.439453	-0.0615234	-0.925117	-0.173797	-0.226276	-0.250503	-3.87994	5.77758	10.3904	-0.00638084	0.00491506	-0.0118947	0.684326	-0.571533	-0.414795	-0.537663	0.412417	0.593169	0.43472	9.75034	0.733689	-0.471668	-0.0632438	-0.00760051	0.00469504	-0.94043	0.292725	-0.0783691	-0.573427	0.414846	0.576166	0.408799	9.92675	0.0762254	0.0213701	-0.00966098	0.0134372	-0.000555579	-1.00366	0.338623	-0.116455	-0.585918	0.408197	0.579441	0.39284	9.87701	-0.199122	0.0797993	-0.0328856	0.0248336	0.00181258	-1.00757	0.344482	-0.131348	-0.552237	0.501232	0.543954	0.384597	9.60411	-1.23147	-0.891863	-0.0335518	0.029264	0.0193037	-0.908936	0.510742	-0.0012207	0.58082	-0.457013	-0.604983	-0.296281	9.62482	-1.41074	-1.51701	-0.040722	0.0283835	0.0245891	-0.968506	0.573975	-0.0551758	
26	-0.464564	0.0816221	0.687155	0.552573	7.42921	6.626	0.403794	0.018568	0.0116899	-0.0462371	-0.82666	-0.39624	-0.234619	-0.667325	0.120176	0.572139	0.461402	8.6221	3.52281	3.24886	-0.0230761	-0.0345471	0.0060447	-0.695312	-0.163086	-0.48877	-0.879284	-0.351417	-0.283221	0.152153	-6.21022	5.34562	6.33856	0.0346889	-0.0122373	0.0280818	0.82666	-0.356201	-0.362305	-0.271286	-0.726994	-0.133628	0.616464	-9.4583	2.28951	-0.863961	-0.0404882	0.0195244	0.020924	0.984863	0.0593262	-0.260498	-0.713231	-0.60534	-0.25326	0.246424	-6.60009	7.31849	1.21381	-0.0144979	0.0168498	-0.000609973	0.910889	-0.44165	-0.059082	-0.925105	-0.173558	-0.226107	-0.250868	-4.07092	6.00665	10.3619	-0.023278	0.017812	0.00512068	0.682373	-0.578125	-0.414551	-0.537072	0.413777	0.592451	0.435137	9.74313	0.76143	-0.560699	-0.0637796	-0.0264229	0.00840088	-0.94043	0.294922	-0.0742188	-0.573256	0.415918	0.574833	0.409825	9.83903	0.029371	0.126042	-0.0829709	0.036554	0.0052822	-0.997559	0.347412	-0.116699	-0.585401	0.409567	0.578492	0.393583	9.97045	-0.137878	0.0463203	-0.108949	0.00697629	0.00495202	-0.998535	0.349121	-0.135986	-0.551499	0.502601	0.542705	0.385633	9.71125	-1.25834	-1.07676	-0.101533	0.0244765	0.0288611	-0.906982	0.512939	0.0012207	0.580904	-0.457865	-0.60392	-0.296967	9.65231	-1.62169	-1.61916	-0.00607804	0.0404359	0.0183451	-0.970703	0.56958	-0.0527344	
27	-0.464847	0.0814483	0.68704	0.552504	7.30144	6.36669	0.480452	0.00502665	0.0111214	0.0103487	-0.829102	-0.394043	-0.236816	-0.666953	0.120405	0.573323	0.46041	8.74807	3.68784	3.11362	0.0353698	-0.0193008	-0.00649288	-0.695312	-0.162842	-0.486328	-0.879795	-0.35069	-0.283079	0.151142	-6.11585	5.55314	6.28529	-0.0884464	0.018309	0.0392551	0.820068	-0.358154	-0.360107	-0.273499	-0.726964	-0.133883	0.615465	-9.36123	2.2001	-0.868867	-0.0427543	0.0214533	0.0490703	0.98291	0.0571289	-0.256104	-0.714586	-0.604259	-0.252808	0.245614	-6.38806	6.89122	1.53121	-0.0654281	-0.0229316	0.0316061	0.910645	-0.437256	-0.0637207	-0.925307	-0.170923	-0.225858	-0.252152	-4.06607	5.69509	10.3208	-0.105709	0.0444927	-0.0028729	0.686523	-0.57373	-0.412598	-0.536779	0.414076	0.592677	0.434906	9.91888	0.703106	-0.250036	0.0486336	0.00873005	-0.0213383	-0.936035	0.294922	-0.0761719	-0.573027	0.417326	0.573231	0.410957	9.8647	-0.303073	-0.208508	-0.0662934	0.051118	0.00803428	-0.999756	0.345215	-0.112061	-0.58544	0.410313	0.578008	0.393459	9.88585	-0.115749	-0.0484636	0.0154706	0.00925642	0.00632886	-1.00317	0.353516	-0.129395	-0.549666	0.505005	0.541303	0.387076	9.61646	-1.04622	-0.97622	-0.174933	-0.0212515	0.0146861	-0.911133	0.508545	0.00341797	0.580792	-0.459427	-0.601988	-0.298694	9.68029	-1.57482	-1.49838	-0.137157	0.0697724	0.0296531	-0.966553	0.580566	-0.0507812	
28	-0.464837	0.0806352	0.687437	0.552137	7.20317	6.4061	0.472146	0.0403619	0.000637707	-0.0282812	-0.824463	-0.398193	-0.236572	-0.667008	0.120053	0.573683	0.459973	8.72728	3.76482	3.12289	0.0285108	0.0206145	-0.0204868	-0.704102	-0.163086	-0.491211	-0.880728	-0.348992	-0.282979	0.149818	-6.26339	5.0316	5.91835	-0.0646224	-0.0171339	0.034603	0.822266	-0.358154	-0.364502	-0.275275	-0.727174	-0.134244	0.614346	-9.32481	2.14882	-0.810145	-0.0600923	0.0410225	0.0418224	0.987549	0.0527344	-0.255859	-0.715526	-0.603845	-0.252124	0.244594	-6.21315	7.34025	1.60268	-0.046237	-0.0111014	0.0389038	0.908447	-0.437256	-0.0615234	-0.925572	-0.16907	-0.225089	-0.253112	-3.9114	5.40309	10.4261	-0.0481972	-0.00513065	0.0110781	0.688721	-0.578125	-0.416748	-0.536255	0.414701	0.592862	0.434704	9.69834	0.599536	-0.302706	-0.0116503	-0.0352027	-0.00781428	-0.948975	0.292725	-0.0739746	-0.573081	0.417935	0.572707	0.410993	9.75791	-0.256729	-0.0137616	-0.00648438	0.0181544	0.00505329	-1.00415	0.347412	-0.121338	-0.585348	0.411279	0.577234	0.393723	9.81198	-0.263199	-0.186843	-0.0151431	0.0151208	0.0063294	-1.00317	0.353516	-0.127197	-0.548147	0.506679	0.540452	0.388229	9.55737	-1.27279	-0.91604	-0.210608	-0.0213815	0.0118702	-0.904785	0.515137	0.0124512	0.5809	-0.460631	-0.600146	-0.300331	9.54657	-1.9826	-1.37138	-0.0364048	0.0674542	0.0194483	-0.966553	0.578369	-0.0505371	
29	-0.464263	0.0804394	0.687881	0.552096	7.36572	6.63611	0.454853	-0.00280856	-0.0305999	-0.018242	-0.822266	-0.395996	-0.234375	-0.667057	0.120073	0.573428	0.460215	8.82517	3.46709	3.10009	-0.0190126	0.0335426	-0.0321343	-0.695312	-0.165039	-0.48877	-0.880325	-0.350773	-0.28222	0.149461	-6.28322	5.56195	6.09379	0.0905012	0.00481405	0.0405873	0.824463	-0.364746	-0.366699	-0.275643	-0.727507	-0.134467	0.613737	-9.54668	2.08728	-0.969686	0.0167503	0.0342376	0.0038792	0.987305	0.0549316	-0.251709	-0.715365	-0.604502	-0.25131	0.244283	-6.51729	7.4726	1.44069	0.0393348	-0.0058139	0.0144487	0.908691	-0.443848	-0.065918	-0.925651	-0.169681	-0.224306	-0.253111	-4.07428	5.72396	10.396	-0.00126815	-0.0283453	-0.00316101	0.679932	-0.571533	-0.421143	-0.535345	0.416023	0.592376	0.435226	9.84282	0.560931	-0.46862	-0.0541345	-0.00738107	-0.00705089	-0.947021	0.297119	-0.0742188	-0.572973	0.418883	0.572014	0.411143	9.81939	0.00926438	-0.176301	-0.0345981	0.00448964	0.0108368	-0.997803	0.351807	-0.114502	-0.585522	0.411894	0.576277	0.394225	9.86723	-0.438095	-0.0729274	-0.0316427	0.0380023	0.000367167	-0.996338	0.35376	-0.131592	-0.546872	0.508527	0.539251	0.389281	9.7805	-1.61072	-0.982234	0.00670928	0.0218841	0.00434727	-0.902344	0.510742	0.0126953	0.581277	-0.461145	-0.599119	-0.300862	9.67687	-1.77842	-1.26641	-0.0499108	0.0404436	0.0190709	-0.966553	0.580566	-0.0529785	
30	-0.463354	0.0806849	0.687814	0.552905	7.38355	6.64603	0.335241	-0.0353375	-0.030451	-0.0328244	-0.828857	-0.398438	-0.236572	-0.667405	0.118884	0.573429	0.460018	8.79253	3.53986	3.26194	0.0419164	0.0400958	-0.0267674	-0.695312	-0.165039	-0.48877	-0.880284	-0.351702	-0.280647	0.150477	-6.2599	5.39787	6.51837	0.0643777	-0.0668371	-0.0030228	0.820312	-0.362549	-0.364502	-0.27485	-0.728245	-0.133588	0.61341	-9.67109	2.30104	-0.906369	0.0510258	0.0268448	0.0312799	0.987305	0.0549316	-0.253906	-0.715268	-0.604983	-0.250392	0.244317	-6.44488	7.10688	1.39111	0.0376377	-0.00592307	0.00932849	0.906738	-0.446045	-0.0637207	-0.92581	-0.171102	-0.223164	-0.252582	-4.00678	6.05234	10.4988	0.0505971	-0.0454487	-0.0291854	0.680176	-0.575928	-0.425293	-0.535554	0.415901	0.592134	0.435414	9.87837	0.492742	-0.409667	0.0247542	0.0423821	-0.014996	-0.938232	0.292725	-0.067627	-0.572794	0.419555	0.571351	0.41163	9.85405	-0.297941	0.140783	-0.0462308	0.0375822	-0.0118898	-0.995605	0.349365	-0.109619	-0.586091	0.411906	0.575847	0.393994	9.82557	-0.082539	0.151583	-0.00431018	0.0244486	0.00103458	-0.996338	0.351562	-0.138184	-0.547954	0.507775	0.539354	0.388598	9.8053	-1.11777	-0.830995	0.067327	0.0254263	0.0191465	-0.906738	0.508545	0.0102539	0.581435	-0.461586	-0.598519	-0.301076	9.68233	-1.62673	-1.37249	0.00686771	0.0172325	0.0129193	-0.959717	0.578369	-0.0461426	
31	-0.462805	0.0809262	0.687845	0.553292	7.44358	6.59305	0.305588	-0.00145444	-0.0221556	-0.00861695	-0.820068	-0.398193	-0.234375	-0.667724	0.118651	0.573429	0.459614	8.7263	3.52034	3.17589	0.0281412	0.0335062	0.00387833	-0.69751	-0.165283	-0.490967	-0.880284	-0.351702	-0.280647	0.150477	-6.2599	5.39787	6.51837	0.0643777	-0.0668371	-0.0030228	0.820312	-0.362549	-0.364502	-0.275496	-0.728411	-0.133203	0.613007	-9.64237	2.57741	-0.745623	-0.0185745	0.0226978	0.0671355	0.987549	0.0505371	-0.255859	-0.715521	-0.604894	-0.250078	0.244121	-6.46631	7.63567	1.19525	-0.0150642	-0.00957662	0.01623	0.913086	-0.44165	-0.0637207	-0.926006	-0.171143	-0.222656	-0.252282	-3.85105	6.1357	10.4684	-0.00282822	-0.0306985	-0.0341246	0.682129	-0.575928	-0.425293	-0.535429	0.416216	0.591782	0.435746	9.69182	0.528779	-0.645508	-0.0315905	0.0211809	-0.00893399	-0.947021	0.294922	-0.0742188	-0.57296	0.419692	0.570758	0.412081	10.0209	-0.227026	0.014246	0.00885754	0.0529119	-0.0100356	-1.0022	0.354004	-0.121338	-0.58606	0.412313	0.575548	0.394051	9.86827	-0.401412	0.0890412	-0.02814	0.00944663	0.00575224	-1.00317	0.353516	-0.131592	-0.547731	0.508206	0.538535	0.389485	9.50147	-1.3792	-0.961349	-0.0791051	0.0315177	0.00295194	-0.902588	0.519531	0.0168457	0.581154	-0.462494	-0.597713	-0.301825	9.62648	-1.87944	-1.51354	-0.073652	0.0267148	0.0104995	-0.955566	0.583008	-0.0507812	
32	-0.463672	0.0816306	0.687717	0.552621	7.42423	6.69061	0.364168	0.00065138	0.0165833	0.068088	-0.828857	-0.398438	-0.236572	-0.668208	0.119214	0.572918	0.459403	8.66693	3.64637	3.11928	-0.0272622	0.02402	-0.00588227	-0.69751	-0.163086	-0.49585	-0.881385	-0.349742	-0.280275	0.149288	-6.189	5.48927	6.37111	-0.154668	0.0115613	0.0260297	0.813721	-0.364502	-0.364502	-0.280096	-0.727364	-0.133229	0.612158	-9.70909	2.40305	-1.13596	-0.0554213	-0.0255293	0.0609738	0.983154	0.0483398	-0.253662	-0.716753	-0.603779	-0.249205	0.244158	-6.40734	7.00085	1.54823	-0.0186768	-0.0454737	-0.00666316	0.906494	-0.44165	-0.0683594	-0.926498	-0.169636	-0.222144	-0.251947	-3.99117	5.8818	10.807	-0.0689646	0.0162284	-0.0503431	0.684082	-0.569336	-0.425537	-0.535208	0.416409	0.591817	0.435785	9.83691	0.791528	-0.356348	0.0139135	0.0152981	-0.0203826	-0.942627	0.294922	-0.0720215	-0.573409	0.41959	0.569956	0.41267	9.75487	-0.283705	-0.0548513	-0.0111156	0.0447765	-0.010038	-1.00024	0.356201	-0.123779	-0.586104	0.412791	0.575477	0.393588	9.86991	-0.571095	-0.165273	-0.0284067	0.00767558	-0.00721393	-0.994141	0.358154	-0.122559	-0.546675	0.509665	0.537519	0.390464	9.58949	-1.61185	-1.02896	-0.0822385	-0.000478993	0.0188883	-0.902344	0.512939	0.0170898	0.581029	-0.463288	-0.596718	-0.302813	9.62022	-1.74351	-1.38423	-0.0734702	0.0356983	0.00612689	-0.962158	0.580566	-0.0483398	
33	-0.464383	0.0822714	0.687363	0.55237	7.30055	6.58799	0.369438	-0.0199953	0.0181686	0.0756012	-0.826416	-0.400391	-0.240967	-0.668387	0.119125	0.57234	0.459885	8.78556	3.66488	3.20084	-0.0425363	0.0607414	-0.0365995	-0.693115	-0.16748	-0.498047	-0.881905	-0.347728	-0.281224	0.14914	-6.37449	5.44713	5.98364	-0.063399	0.0187745	-0.0480152	0.820068	-0.358154	-0.373779	-0.279971	-0.727279	-0.132997	0.612367	-9.62434	2.3702	-0.943973	0.0196112	-0.0137875	0.00389985	0.987793	0.0439453	-0.253662	-0.716286	-0.604222	-0.248933	0.244709	-6.24285	7.43025	1.71414	0.064298	-0.0184416	-0.0317781	0.908936	-0.448242	-0.065918	-0.926899	-0.168606	-0.222232	-0.251082	-3.92772	5.25343	10.7802	0.0228186	0.0165457	-0.0627112	0.686279	-0.567139	-0.42334	-0.535079	0.416667	0.591677	0.435887	9.78037	0.56863	-0.325844	-0.0165304	0.012435	-0.0146931	-0.946777	0.292725	-0.0656738	-0.573287	0.419998	0.569625	0.41288	9.75718	-0.307973	-0.151044	-0.0392464	0.0192212	-0.00150911	-0.997803	0.349609	-0.121338	-0.586225	0.412788	0.575367	0.393572	9.88921	-0.386429	-0.198212	0.00815696	0.0191899	-0.0115797	-0.998535	0.35376	-0.133789	-0.546478	0.509938	0.537403	0.390543	9.62904	-1.62595	-0.86395	-0.0251708	0.00386727	0.0090619	-0.902588	0.515137	0.0102539	0.581169	-0.463336	-0.596475	-0.302951	9.58332	-1.93403	-1.39111	-0.00637028	0.0290504	0.00398769	-0.962158	0.582764	-0.0529785	
34	-0.46507	0.0834761	0.686417	0.552787	7.53396	6.63893	0.427408	-0.0665984	0.00455905	0.0322855	-0.83374	-0.389648	-0.232422	-0.668766	0.118991	0.570982	0.461057	8.77251	3.64945	3.17543	-0.0501746	0.0550862	-0.0440214	-0.695557	-0.158691	-0.498291	-0.880404	-0.350056	-0.281558	0.151902	-6.32964	5.34406	6.24707	0.200703	0.00948726	-0.0921575	0.815918	-0.360352	-0.364502	-0.277575	-0.727347	-0.133259	0.613319	-9.6673	2.40104	-1.08583	0.107165	-0.00792149	-0.0966513	0.981201	0.0461426	-0.255859	-0.714972	-0.604819	-0.249569	0.246424	-6.47786	7.22997	1.58805	0.097027	0.0359898	-0.087372	0.913086	-0.439453	-0.0615234	-0.9267	-0.171458	-0.22301	-0.249189	-4.05563	5.72796	10.8852	0.148207	0.0082193	-0.0677488	0.679688	-0.565186	-0.419189	-0.533879	0.418323	0.591051	0.436621	9.95312	0.59018	-0.572641	-0.0596857	-0.0295529	0.00280663	-0.944824	0.294922	-0.0656738	-0.573042	0.420642	0.569365	0.412924	9.90282	-0.2128	0.0191062	-0.0199246	0.00589798	-0.00448133	-0.995605	0.349609	-0.119141	-0.586487	0.412693	0.574938	0.393909	9.91336	-0.406685	0.0606105	-0.00512881	0.0306154	-0.0187035	-1.00098	0.355957	-0.133789	-0.547037	0.50961	0.537324	0.390296	9.66793	-1.45568	-0.797427	0.0428083	0.0254322	0.0128711	-0.902588	0.515137	0.0102539	0.58128	-0.463494	-0.59613	-0.303177	9.63775	-1.78118	-1.2696	-0.0101229	0.0131091	-7.0049e-06	-0.962158	0.578369	-0.0483398	
35	-0.465814	0.0842474	0.684579	0.554321	7.42392	6.42872	0.445689	-0.0924412	0.0546585	0.00467036	-0.83374	-0.389648	-0.236816	-0.669086	0.119385	0.568847	0.463124	8.66901	3.57403	3.26868	-0.118419	0.11609	-0.0404604	-0.686523	-0.165283	-0.498047	-0.878419	-0.35298	-0.282332	0.155158	-6.20159	5.65691	6.55634	0.121176	0.0411386	-0.103056	0.824463	-0.358154	-0.364502	-0.274841	-0.727132	-0.133437	0.614764	-9.5974	2.64573	-0.887909	0.0409403	-0.0288954	-0.0764001	0.98291	0.0571289	-0.251709	-0.713379	-0.605602	-0.250567	0.248098	-6.34256	7.27056	1.29625	0.0422618	0.0204883	-0.0956816	0.908447	-0.437256	-0.0637207	-0.926369	-0.174251	-0.224348	-0.247275	-3.83874	6.02454	10.4985	0.137818	0.036775	-0.0677202	0.690674	-0.571533	-0.421143	-0.53319	0.419259	0.59055	0.437243	9.70736	0.592972	-0.387596	-0.0452812	0.004224	-0.0122161	-0.945068	0.299072	-0.0637207	-0.572954	0.420889	0.568871	0.413477	9.87705	-0.189285	0.237436	-0.0135008	0.0444226	-0.0287403	-0.995605	0.349609	-0.121338	-0.586714	0.412486	0.574864	0.393895	9.80034	-0.222152	0.0856299	0.0132328	0.0134294	-0.018647	-0.991943	0.360596	-0.138184	-0.547835	0.508897	0.537455	0.389927	9.71469	-1.33381	-0.892439	0.0345368	0.0477123	0.00921599	-0.904785	0.515137	0.0146484	0.581489	-0.46308	-0.59645	-0.302779	9.59439	-1.66383	-1.31682	0.0258035	0.000552011	-0.00946002	-0.958008	0.587402	-0.0507812	
36	-0.467182	0.0846372	0.682777	0.555332	7.37606	6.29824	0.465433	-0.0570829	0.0663928	0.0363318	-0.824707	-0.389404	-0.245361	-0.669335	0.119708	0.568084	0.463618	8.67376	3.53126	3.15071	-0.0361842	0.0291871	-0.00690815	-0.688965	-0.158691	-0.500732	-0.878116	-0.351723	-0.284123	0.156451	-6.14004	5.34074	6.4333	-0.0731494	0.0409054	-0.0837832	0.824219	-0.349609	-0.364746	-0.274646	-0.726065	-0.134105	0.615967	-9.38086	2.32296	-0.897042	-0.004478	-0.0539023	-0.0266832	0.985352	0.0505371	-0.260254	-0.712588	-0.605494	-0.251546	0.24964	-6.53627	7.24084	1.38462	0.0114582	-0.0119259	-0.0855357	0.912842	-0.437256	-0.0637207	-0.92628	-0.174207	-0.226194	-0.245954	-4.09176	5.94784	10.2843	0.00392374	0.0805107	-0.0802844	0.692627	-0.564941	-0.412842	-0.53319	0.419598	0.590478	0.437014	9.85561	0.59028	-0.357352	0.0597743	0.0349707	-0.00681204	-0.944824	0.297119	-0.0615234	-0.573704	0.419837	0.569073	0.413227	9.81149	-0.286724	-0.191064	0.0620508	0.0414645	-0.0186805	-1	0.349609	-0.116699	-0.586783	0.412383	0.574921	0.393817	9.87293	-0.398423	-0.0722927	0.035741	0.0122488	-0.0229588	-0.998535	0.351318	-0.126953	-0.54783	0.509251	0.536655	0.390572	9.602	-1.24082	-0.964541	-0.0531715	0.0193153	0.00803252	-0.897949	0.513184	0.0124512	0.581589	-0.462845	-0.596646	-0.302559	9.61412	-1.58583	-1.43909	0.0301019	0.00621172	-0.00730379	-0.957764	0.582764	-0.0529785	
37	-0.46859	0.0845359	0.681957	0.555168	7.32885	6.45265	0.458235	0.00340946	0.0440164	0.0317601	-0.822998	-0.383057	-0.245361	-0.670626	0.119538	0.567059	0.46305	8.60363	3.61255	3.36238	-0.00927215	0.0786473	0.0326695	-0.684814	-0.156494	-0.503174	-0.877753	-0.350551	-0.286092	0.15753	-6.24224	5.307	6.10127	-0.0203269	0.0454246	-0.0756354	0.830811	-0.351807	-0.35791	-0.276204	-0.725159	-0.134973	0.616148	-9.31256	2.3611	-0.863384	-0.0745627	-0.0186432	0.0063537	0.985107	0.0571289	-0.258301	-0.712509	-0.604696	-0.252772	0.250559	-6.42873	7.20977	1.29226	-0.0422361	0.0168278	-0.0675703	0.908447	-0.435059	-0.072998	-0.926287	-0.173551	-0.227761	-0.244945	-4.00031	5.62769	10.3614	0.00346417	0.0711382	-0.0600063	0.69043	-0.565186	-0.416992	-0.533951	0.419396	0.590356	0.436443	9.72142	0.516086	-0.417409	0.0124789	0.00581959	0.0160381	-0.938477	0.299316	-0.0615234	-0.573826	0.419474	0.56924	0.413196	9.81823	-0.115374	0.0915733	0.00608615	0.0193705	-0.0260378	-1	0.354004	-0.121338	-0.586813	0.412318	0.574706	0.394154	9.87102	-0.409847	-0.136798	-0.00647068	0.0266437	-0.0243051	-1.00122	0.358154	-0.131592	-0.547795	0.509441	0.536135	0.391089	9.63831	-1.62035	-1.11416	-0.00177847	0.0435193	0.00468131	-0.900391	0.517578	0.0124512	0.581807	-0.462526	-0.596766	-0.302392	9.6033	-1.75058	-1.37827	0.0589459	0.011197	-0.00667115	-0.962158	0.580566	-0.0551758	
38	-0.470391	0.0841601	0.681298	0.554511	7.40174	6.53424	0.547415	0.0207623	0.0687722	0.04435	-0.824951	-0.385254	-0.245361	-0.671851	0.119588	0.566425	0.462035	8.72051	3.54975	3.26852	0.00691814	0.0702757	0.0311204	-0.687012	-0.156494	-0.498535	-0.877348	-0.350256	-0.287489	0.157899	-6.32941	5.33613	6.22734	0.00856338	0.0604352	-0.0222917	0.832764	-0.347656	-0.362549	-0.276941	-0.724215	-0.135853	0.616734	-9.4604	2.27121	-0.731238	-0.0474081	-0.0267757	-0.0199998	0.982666	0.0593262	-0.264893	-0.712791	-0.604066	-0.253308	0.250736	-6.45801	7.20541	1.35265	-0.056921	0.0104958	-0.05657	0.908691	-0.439453	-0.0705566	-0.92621	-0.173126	-0.228535	-0.244814	-4.0474	5.73154	10.405	-0.011013	0.0808064	-0.0419329	0.696777	-0.560791	-0.410889	-0.534441	0.419581	0.590037	0.436097	9.78047	0.704977	-0.3851	0.0392723	0.0149799	-2.46763e-05	-0.938477	0.30127	-0.0656738	-0.573958	0.419194	0.569233	0.413308	9.83664	-0.244601	-0.182655	0.00777981	0.0277597	-0.025798	-0.997803	0.351807	-0.123779	-0.587183	0.411747	0.574596	0.39436	9.88532	-0.324123	-0.0105769	0.00938663	0.0325257	-0.0302944	-0.991699	0.35376	-0.133789	-0.548889	0.508295	0.536686	0.390289	9.68724	-1.50739	-0.780505	0.0917443	0.00678824	-0.00396131	-0.902344	0.512939	0.0102539	0.582894	-0.460931	-0.597553	-0.301176	9.61731	-1.76056	-1.48659	0.096715	0.00798325	-0.0133202	-0.964355	0.582764	-0.0576172	
39	-0.471354	0.0842947	0.680948	0.554103	7.34692	6.56277	0.578165	0.0088627	0.0535976	0.0650095	-0.831787	-0.380859	-0.249756	-0.67242	0.11949	0.566001	0.461753	8.70045	3.51112	3.40859	0.00211604	0.0636755	0.0170878	-0.682617	-0.154297	-0.510254	-0.877139	-0.350002	-0.288312	0.158118	-6.38817	5.4056	6.19556	-0.0132557	0.0579743	-0.0460196	0.826416	-0.345215	-0.353516	-0.277502	-0.723641	-0.136422	0.617029	-9.5005	2.26221	-0.818669	-0.0693799	-0.0319678	-0.0158889	0.980713	0.0571289	-0.260498	-0.712407	-0.603712	-0.254551	0.251418	-6.56935	7.12816	1.53278	0.0115986	0.03807	-0.0780609	0.912598	-0.432861	-0.0661621	-0.925959	-0.172796	-0.230046	-0.24458	-4.25956	5.78411	10.4775	0.0216602	0.0727371	-0.0359706	0.694824	-0.564941	-0.412842	-0.534606	0.419479	0.590265	0.435684	9.8139	0.693507	-0.409657	0.0511521	-0.000586381	-0.00638756	-0.942871	0.299072	-0.0656738	-0.573947	0.419151	0.569211	0.413395	9.89002	-0.328356	0.0494701	0.00100785	0.0211081	-0.0229049	-0.997803	0.349609	-0.123779	-0.587447	0.41141	0.574514	0.394438	9.93339	-0.359032	-0.0731953	0.0235936	0.0375052	-0.0275101	-0.994141	0.355957	-0.131592	-0.549161	0.507952	0.537008	0.38991	9.68802	-1.36731	-0.993909	0.0539882	0.00532244	-0.000360735	-0.908936	0.508545	0.00341797	0.583159	-0.460588	-0.597607	-0.301081	9.70293	-1.43549	-1.39932	0.0337778	0.0219995	-0.0119917	-0.966797	0.582764	-0.0576172	
40	-0.472741	0.0851571	0.680318	0.553563	7.41066	6.41147	0.610716	-0.014805	0.0212479	0.0594451	-0.825195	-0.383057	-0.249756	-0.67419	0.118488	0.564664	0.461066	8.67775	3.47356	3.52233	0.0204824	0.113651	0.026648	-0.687012	-0.1521	-0.505615	-0.876985	-0.349018	-0.289763	0.158498	-6.17875	5.33142	6.27653	-0.0182765	0.0491424	-0.0427636	0.830811	-0.343262	-0.34668	-0.274537	-0.723986	-0.134618	0.618346	-9.42958	2.2594	-0.975345	0.240051	-0.0236793	-0.0368049	0.982666	0.0615234	-0.264893	-0.712871	-0.602473	-0.256247	0.251354	-6.49182	7.17409	1.40484	-0.0949906	0.0465744	-0.0543397	0.914795	-0.432861	-0.0661621	-0.925678	-0.172693	-0.231452	-0.244391	-4.21836	5.43238	10.2234	0.0460951	0.0668663	-0.0191818	0.69873	-0.558594	-0.408691	-0.535155	0.418921	0.591286	0.434161	9.8161	0.532312	-0.488247	0.0871408	-0.00766483	-0.0029921	-0.945068	0.299072	-0.0700684	-0.574139	0.418802	0.569434	0.413176	9.81537	-0.159126	0.134753	0.0437223	0.0189388	-0.0240445	-0.999756	0.345215	-0.121338	-0.588096	0.410711	0.574342	0.39445	9.80885	-0.227162	0.101661	0.0218848	0.038439	-0.0217655	-0.998779	0.355957	-0.140381	-0.550057	0.506804	0.537664	0.389236	9.78731	-1.04023	-0.65978	0.0537498	0.02928	-0.00888083	-0.904785	0.517334	0.0102539	0.583552	-0.460168	-0.59761	-0.300956	9.64182	-1.69282	-1.27899	0.0568436	0.0159674	-0.00833256	-0.964355	0.582764	-0.0507812	
41	-0.474414	0.0851657	0.679775	0.552797	7.50427	6.18077	0.665031	0.0336951	0.0606989	0.0519569	-0.832275	-0.37207	-0.251953	-0.675543	0.118526	0.564438	0.459351	8.63422	3.48438	3.09403	0.0692706	0.0117103	0.0669662	-0.687012	-0.1521	-0.508057	-0.876409	-0.349002	-0.291266	0.158961	-6.55051	5.19237	6.41757	0.0196826	0.067724	-0.0308138	0.834961	-0.341064	-0.35376	-0.273528	-0.723949	-0.134326	0.6189	-9.63061	2.48914	-0.72761	0.0045574	-0.00638397	-0.0221929	0.985107	0.0571289	-0.260498	-0.713637	-0.601021	-0.258509	0.250339	-6.77333	7.0451	1.21768	-0.0978663	0.0705527	-0.0394913	0.916992	-0.428467	-0.0637207	-0.924949	-0.172561	-0.233599	-0.2452	-4.23041	6.08684	10.3435	-0.0430868	0.13005	0.0132528	0.69458	-0.560791	-0.4021	-0.534736	0.419247	0.592517	0.432682	9.82974	0.754066	-0.678067	0.077945	-0.0528472	-0.0116724	-0.942871	0.30127	-0.0656738	-0.574992	0.417255	0.569839	0.412997	9.95939	0.0580412	0.106118	-0.00505651	0.0533941	-0.0305979	-0.997803	0.349609	-0.123779	-0.588144	0.410885	0.573861	0.394898	9.91367	-0.247896	0.123822	-0.0209814	0.0234766	-0.0175993	-0.996338	0.355957	-0.133789	-0.550165	0.506815	0.537228	0.389671	9.55402	-1.35597	-0.990508	-0.0310267	0.0328386	0.00587892	-0.902344	0.512939	0.00341797	0.583783	-0.459962	-0.597578	-0.300887	9.67991	-1.65037	-1.453	-0.00964397	0.0153095	-0.00236741	-0.964355	0.582764	-0.0598145	
42	-0.476551	0.0845252	0.680131	0.550615	7.32499	6.08112	0.739762	0.106957	0.0488838	0.0637934	-0.829834	-0.376465	-0.258545	-0.677386	0.117902	0.564961	0.456143	8.59698	3.5824	3.3812	0.0923724	0.0379451	0.0865459	-0.685059	-0.149902	-0.510498	-0.876342	-0.34747	-0.293887	0.157859	-6.29779	5.46028	6.07947	-0.13381	0.10453	-0.0136331	0.832764	-0.338867	-0.346924	-0.273962	-0.72354	-0.134462	0.619156	-9.40451	2.24043	-0.731844	-0.0336629	-0.0130671	0.00828234	0.98291	0.0549316	-0.264893	-0.715462	-0.598498	-0.260721	0.248874	-6.44975	7.13607	1.41878	-0.174814	0.0554303	-0.0274582	0.921143	-0.428467	-0.0705566	-0.924507	-0.168854	-0.235939	-0.247199	-4.0991	5.86679	10.2365	-0.144909	0.161628	0.00972297	0.69458	-0.558594	-0.400146	-0.53545	0.418159	0.593714	0.431209	9.72247	0.574438	-0.41995	0.0828105	0.00608552	-0.0159898	-0.938477	0.30127	-0.0615234	-0.575025	0.416849	0.569641	0.413633	9.77637	-0.121932	0.0999449	-0.0111336	0.0317808	-0.0425667	-0.995605	0.349609	-0.123779	-0.587861	0.411523	0.573222	0.395581	9.77383	0.0162983	0.112511	-0.073148	0.0172989	-0.012854	-0.999023	0.360596	-0.140625	-0.55011	0.506869	0.536992	0.390003	9.74813	-1.40039	-0.957838	-0.0183551	0.0196798	0.00242081	-0.904785	0.517334	0.00561523	0.583999	-0.459974	-0.59721	-0.301179	9.64007	-1.65647	-1.2958	0.0235668	0.0272822	-0.00116242	-0.962158	0.580566	-0.0598145	
43	-0.477834	0.0831923	0.681729	0.547721	7.3314	6.45652	0.72004	0.141288	0.00492569	0.0392078	-0.832031	-0.374268	-0.247803	-0.678788	0.11806	0.56517	0.453753	8.7573	3.53858	3.30457	0.0537596	0.0298623	0.0629266	-0.687256	-0.147705	-0.510498	-0.876683	-0.345504	-0.295825	0.156658	-6.63843	4.93085	5.74783	-0.0546826	0.0557819	-0.00352505	0.836914	-0.33252	-0.351562	-0.274366	-0.72292	-0.134768	0.619635	-9.47556	1.64145	-1.05427	0.0400857	-0.0332747	-0.0160056	0.980713	0.0549316	-0.26709	-0.717463	-0.595924	-0.262468	0.247451	-6.61527	7.05517	1.61878	-0.126556	0.0375529	-0.03447	0.914551	-0.42627	-0.072998	-0.92422	-0.165468	-0.237894	-0.248687	-4.26958	5.59207	10.1451	-0.110374	0.112348	0.00232205	0.698975	-0.562988	-0.406494	-0.535144	0.418044	0.59424	0.430974	9.77813	0.543475	-0.609308	0.0190617	-0.0145135	-0.0204306	-0.944824	0.296875	-0.0593262	-0.574917	0.416439	0.569271	0.414704	9.8485	-0.260688	-0.0643524	-0.0111729	0.0525388	-0.0456649	-0.999756	0.345215	-0.125977	-0.586618	0.413221	0.572009	0.397409	9.90226	-0.461943	-0.00203055	-0.0880153	0.00807774	-0.0244144	-0.998779	0.355957	-0.140381	-0.550236	0.506444	0.537404	0.389811	9.6295	-1.47939	-0.613329	0.0441194	-0.00599902	-0.0182651	-0.900146	0.513184	0.00341797	0.584755	-0.459314	-0.597176	-0.300786	9.61085	-1.76945	-1.33399	0.0554873	0.0282388	-0.00300351	-0.962158	0.580566	-0.0598145	
44	-0.477801	0.0834039	0.683154	0.54594	7.4555	6.50489	0.609167	0.0565835	-0.0517363	0.0188634	-0.832275	-0.374512	-0.243408	-0.680233	0.117339	0.564976	0.452014	8.70358	3.60044	3.30204	0.0386258	0.0599345	0.0376508	-0.685059	-0.149902	-0.508057	-0.875963	-0.346829	-0.2962	0.157049	-6.42336	5.25613	5.8296	0.0909802	0.0146578	-0.00505841	0.830322	-0.330322	-0.351562	-0.273444	-0.722347	-0.134616	0.620742	-9.36021	1.76163	-0.593685	0.00870807	-0.029178	-0.03235	0.980469	0.0595703	-0.271484	-0.717977	-0.594922	-0.26348	0.247295	-6.68829	7.13955	1.57952	-0.0386062	0.0277559	-0.0227532	0.920898	-0.419678	-0.0683594	-0.923941	-0.164756	-0.239162	-0.248978	-4.46421	5.7727	10.1657	0.0160072	0.0634165	-0.0307943	0.698975	-0.560791	-0.397949	-0.536011	0.417199	0.594241	0.430714	9.87308	0.609777	-0.620529	0.0145272	0.0353566	-0.0134705	-0.940674	0.30127	-0.0615234	-0.575067	0.415827	0.569234	0.41516	9.94483	-0.321535	0.204035	0.0249902	0.0334033	-0.0344314	-0.999756	0.343018	-0.123535	-0.587101	0.412664	0.572058	0.397203	9.97122	-0.434906	-0.0306851	0.0808219	0.0264072	-0.0205112	-0.998779	0.358398	-0.138184	-0.550881	0.505489	0.537906	0.389446	9.67909	-1.40907	-0.862705	0.0701432	0.0345967	-0.000135993	-0.902344	0.510742	0.00341797	0.585003	-0.459219	-0.596947	-0.300903	9.61603	-1.77402	-1.25181	0.00855519	0.015528	-0.00733793	-0.964355	0.580566	-0.0576172	
45	-0.47721	0.084018	0.683617	0.545784	7.46613	6.5845	0.567199	-0.0217794	-0.0436855	0.0130933	-0.834473	-0.374512	-0.243408	-0.680853	0.116791	0.564533	0.451775	8.86582	3.56985	3.46924	0.0171966	0.0799824	-0.0208904	-0.680664	-0.1521	-0.510498	-0.875383	-0.348491	-0.295546	0.157832	-6.60826	5.34032	6.09389	0.0891472	0.00594109	-0.00772765	0.830566	-0.33667	-0.349121	-0.27156	-0.722787	-0.133162	0.621371	-9.59256	2.16175	-0.710931	0.111845	0.00184671	0.00236395	0.980469	0.0593262	-0.26709	-0.71903	-0.59362	-0.263841	0.246978	-6.63034	6.80903	1.57451	-0.0660883	-0.015401	-0.0142828	0.914307	-0.41748	-0.0683594	-0.924064	-0.164672	-0.239414	-0.248335	-4.47886	5.71856	10.0199	0.00542459	0.012287	-0.0350517	0.690186	-0.558594	-0.400146	-0.536208	0.416964	0.594159	0.430809	9.79965	0.79387	-0.0811157	0.0607464	0.0203215	-0.0231567	-0.94043	0.297119	-0.0634766	-0.575813	0.414623	0.569943	0.414358	9.90156	-0.246808	-0.00674488	0.0819676	0.0202997	-0.0201485	-0.997314	0.338867	-0.132812	-0.587305	0.412529	0.571507	0.397835	9.90295	-0.63723	0.0216829	0.00602503	0.0371678	-0.0267975	-1.00122	0.358398	-0.140625	-0.551719	0.504235	0.538633	0.388881	9.7135	-1.40524	-1.0713	0.0298294	0.0230818	-0.015196	-0.904541	0.510742	0.00585938	0.585257	-0.458755	-0.597226	-0.300565	9.6696	-1.70073	-1.30172	0.00502189	0.00647195	-0.0103482	-0.966797	0.582764	-0.0666504	
46	-0.476269	0.085974	0.683798	0.546074	7.5789	6.23906	0.500776	-0.0394531	-0.0797426	0.0224345	-0.834473	-0.370117	-0.245605	-0.682073	0.117499	0.562779	0.45194	8.53344	3.31798	3.54211	-0.0891763	0.0670498	0.0344064	-0.680908	-0.143555	-0.52002	-0.874202	-0.350491	-0.295646	0.159748	-6.2244	5.50157	5.63762	0.103141	-0.00988776	-0.0703706	0.834961	-0.339111	-0.349121	-0.266944	-0.724412	-0.131055	0.621927	-9.49636	1.70371	-1.49754	0.349242	0.0395546	-0.0806937	0.98291	0.0571289	-0.26709	-0.719136	-0.593668	-0.263655	0.246755	-6.57574	7.37354	1.42675	-0.0189003	0.0124955	0.000147094	0.921143	-0.424072	-0.0705566	-0.924334	-0.163815	-0.239556	-0.247757	-4.24504	5.32484	10.3891	-0.0482314	0.0304169	-0.0361596	0.703125	-0.556396	-0.402344	-0.536176	0.417176	0.593973	0.430901	9.87127	0.314787	-0.726919	-0.0371511	0.0204443	-0.00843329	-0.942627	0.297119	-0.0615234	-0.57645	0.413772	0.570409	0.413682	9.78793	0.202551	0.293185	0.0464658	0.0262068	-0.0198811	-1.00195	0.345215	-0.128174	-0.587834	0.411844	0.571551	0.3977	9.75074	-0.128286	0.261237	-0.00498583	0.0245738	-0.0222304	-0.998535	0.35376	-0.140381	-0.552209	0.503936	0.53828	0.38906	9.6418	-1.23268	-0.727105	0.0239793	0.0343039	-0.00106862	-0.906738	0.510742	-0.00341797	0.584567	-0.459585	-0.59675	-0.301583	9.67229	-1.79706	-1.39076	-0.0521584	0.0137061	-0.0106966	-0.957764	0.584961	-0.0576172	
47	-0.475802	0.0865592	0.684252	0.545819	7.71098	6.28757	0.477831	0.00484489	-0.0368458	0.00723743	-0.839111	-0.365723	-0.241455	-0.682102	0.118364	0.562402	0.45214	8.52315	3.39655	3.43374	-0.0745476	0.00564125	0.013516	-0.685059	-0.145508	-0.508301	-0.873902	-0.3513	-0.294335	0.162022	-6.78186	4.69281	5.90028	0.139589	-0.132904	-0.106175	0.834961	-0.336914	-0.35376	-0.261076	-0.725998	-0.127516	0.623302	-9.72237	2.2248	-0.8032	0.564826	-0.00886587	-0.098118	0.978516	0.0549316	-0.264893	-0.720415	-0.592206	-0.264206	0.245947	-6.45931	7.72327	1.49042	-0.172856	0.0204368	0.00136952	0.921143	-0.428467	-0.0661621	-0.924107	-0.164848	-0.239585	-0.247892	-4.10192	5.56206	10.2501	0.078963	0.00317993	0.0191395	0.698975	-0.560791	-0.4021	-0.535858	0.417753	0.593305	0.431657	9.67926	0.481127	-0.758425	-0.0800006	0.0310206	-0.0104415	-0.945068	0.30127	-0.0615234	-0.576157	0.413851	0.569892	0.41472	10.0511	-0.221321	0.073874	-0.0564013	0.0598126	-0.0321484	-1.00195	0.343018	-0.130615	-0.58762	0.412049	0.571365	0.39807	9.90231	-0.388846	0.176201	-0.0345492	0.0129036	-0.0278225	-0.993896	0.35376	-0.140381	-0.552156	0.503843	0.53827	0.38927	9.40352	-1.32583	-0.839021	-0.00653336	0.0217312	-0.0119609	-0.904541	0.510742	0.0012207	0.585316	-0.458505	-0.597066	-0.301149	9.69295	-1.61364	-1.37439	0.0395679	0.0261471	-0.0157097	-0.959961	0.582764	-0.0620117	
48	-0.476178	0.0874242	0.684604	0.544911	7.60914	6.29908	0.50154	0.012036	-0.0215314	0.0459364	-0.834717	-0.36792	-0.237061	-0.683002	0.117798	0.561931	0.451515	8.77261	3.43052	3.59716	0.0229919	0.0842484	0.00114739	-0.678955	-0.13916	-0.513184	-0.870827	-0.358666	-0.292669	0.165419	-6.45572	5.60695	6.26016	0.359587	0.0290064	0.00415828	0.834961	-0.341064	-0.351318	-0.255367	-0.726483	-0.124168	0.625773	-9.49889	2.17273	-0.636559	0.177476	-0.0672657	-0.0494184	0.983154	0.0529785	-0.269287	-0.721118	-0.591006	-0.26496	0.245962	-6.71008	6.66782	1.35074	0.0216383	-0.000832382	-0.054707	0.920898	-0.419678	-0.0705566	-0.92405	-0.165086	-0.240347	-0.247207	-4.19401	6.29284	10.3816	-0.0864874	0.0557813	-0.0744572	0.703125	-0.556396	-0.400146	-0.535941	0.417565	0.593607	0.43132	9.921	0.802911	-0.334501	0.049298	0.0110574	-0.0228544	-0.945068	0.30127	-0.0593262	-0.575714	0.414887	0.568953	0.41559	9.79479	-0.0925762	0.0684673	-0.0510732	-0.00227273	-0.00449237	-0.997559	0.343018	-0.128174	-0.58769	0.411689	0.571671	0.397901	9.93199	-0.181976	0.0396607	0.015891	0.00656759	-0.0250126	-0.998779	0.355957	-0.135986	-0.551566	0.504368	0.538024	0.389768	9.8951	-1.45774	-0.985045	-0.0259289	0.0110784	0.00198227	-0.906738	0.510742	0.00341797	0.584306	-0.459866	-0.596082	-0.302979	9.66837	-1.87469	-1.24269	-0.0941334	0.0233699	-0.0138014	-0.966797	0.584961	-0.0598145	
49	-0.476444	0.0875439	0.684518	0.544769	7.68263	6.24971	0.528069	0.0024716	0.00898397	0.0205122	-0.834473	-0.370117	-0.241211	-0.682846	0.118918	0.561196	0.45237	8.62589	3.63317	3.39472	-0.0600738	-0.00744972	-0.010987	-0.680908	-0.143555	-0.515381	-0.871918	-0.35616	-0.292998	0.164506	-6.41987	5.61399	6.03575	-0.229723	-0.00129077	0.00702711	0.830566	-0.33667	-0.349121	-0.251147	-0.726386	-0.119927	0.628415	-9.48364	2.05107	-0.541484	0.233628	-0.0806712	-0.0045018	0.974121	0.0549316	-0.273682	-0.721821	-0.589717	-0.265375	0.246547	-6.38229	6.75034	1.70688	-0.0883686	0.00361471	-0.0394898	0.916504	-0.41748	-0.0751953	-0.924441	-0.163616	-0.240298	-0.246771	-4.37413	5.54469	10.1126	-0.0165806	0.019816	-0.0433429	0.69873	-0.556396	-0.400146	-0.534691	0.418858	0.593059	0.432372	9.73979	0.527897	-0.709479	-0.0936151	-0.00885758	-0.01278	-0.94043	0.297119	-0.0615234	-0.575416	0.414978	0.569124	0.415677	9.86707	-0.0525133	-0.0209459	-0.00795619	-0.00507537	-0.0326009	-0.997803	0.347412	-0.133057	-0.587569	0.411773	0.571387	0.3984	9.83926	-0.414388	0.0504572	0.0171621	0.0172416	-0.0275334	-0.996338	0.355957	-0.138184	-0.552162	0.503982	0.537625	0.389974	9.51399	-1.21098	-0.484626	0.0116913	0.0384352	0.00685112	-0.908936	0.506348	-0.0078125	0.584782	-0.459043	-0.596515	-0.302457	9.52815	-1.82337	-1.42307	0.094603	0.0102256	-0.023943	-0.962158	0.580566	-0.0620117	
50	-0.476834	0.0877018	0.683897	0.545182	7.36375	6.26411	0.535764	-0.0338788	0.00590739	0.000759489	-0.828125	-0.36792	-0.241211	-0.683115	0.119042	0.559734	0.45374	8.61498	3.19622	3.52606	-0.0751218	0.126336	-0.0557049	-0.680908	-0.143555	-0.517822	-0.872279	-0.354632	-0.293271	0.165405	-6.49811	4.8659	5.73578	0.0505736	-0.0205768	-0.065641	0.836914	-0.336914	-0.344727	-0.250335	-0.726425	-0.119184	0.628836	-9.35688	1.80964	-0.824402	0.0771286	-0.00335103	-0.0153953	0.980713	0.057373	-0.271484	-0.721765	-0.589901	-0.264691	0.247003	-6.31946	7.0659	1.75815	0.0383845	-0.0278727	-0.0274555	0.922852	-0.417236	-0.0751953	-0.925014	-0.161798	-0.240102	-0.246009	-4.22545	5.19032	10.2075	-0.100676	0.00756761	-0.0550717	0.705322	-0.560791	-0.4021	-0.534239	0.419038	0.593308	0.432413	9.84485	0.550319	-0.0299273	0.0576986	0.00913327	-0.0276552	-0.936279	0.299316	-0.0634766	-0.575725	0.414636	0.568722	0.41614	9.72456	-0.248895	0.274419	-0.025534	0.0563102	-0.0206823	-0.997314	0.338867	-0.130615	-0.587646	0.411011	0.571855	0.398402	9.82236	-0.232369	0.139991	0.0293893	0.00717886	-0.0336581	-1.00073	0.349121	-0.142578	-0.551235	0.50449	0.537519	0.390773	9.7816	-1.54945	-1.19387	-0.064643	-0.0102668	-0.018726	-0.906738	0.510742	-0.00561523	0.584256	-0.459586	-0.595975	-0.303709	9.69034	-1.75368	-1.20185	-0.103344	0.0268908	-0.0154903	-0.966797	0.584961	-0.0576172	
51	-0.476705	0.0880452	0.683459	0.545787	7.61162	6.23397	0.492326	-0.0259988	0.00580243	-0.0105446	-0.834717	-0.36792	-0.243408	-0.682948	0.118877	0.560363	0.453259	8.8152	3.45442	3.34748	0.0563633	-0.0440078	-0.0164799	-0.680908	-0.145752	-0.517578	-0.870219	-0.359114	-0.29264	0.167686	-6.50663	5.47464	6.24227	0.215676	0.0087236	-0.0245173	0.836914	-0.334717	-0.351562	-0.247787	-0.727074	-0.117654	0.629383	-9.47289	2.27871	-0.238409	0.0697486	0.00596374	-0.00703676	0.974365	0.048584	-0.282227	-0.722273	-0.589548	-0.264739	0.246309	-6.92551	7.05544	1.49348	-0.0404841	0.00102906	0.0286318	0.918701	-0.421631	-0.0773926	-0.924926	-0.163003	-0.240584	-0.245072	-4.48044	6.09524	10.369	0.0409637	0.0162795	-0.0456721	0.704834	-0.547607	-0.402588	-0.533677	0.420354	0.591825	0.433859	9.71077	0.540057	-0.69748	-0.109751	0.0246837	-0.0019611	-0.938721	0.303467	-0.0593262	-0.574956	0.415199	0.568575	0.416842	10.04	0.0632144	-0.0503043	-0.0361179	0.0115449	-0.0349536	-1.00171	0.338867	-0.130615	-0.587089	0.411498	0.571442	0.399312	9.95734	-0.535279	-0.0393938	-0.0396081	0.0180006	-0.0334351	-0.998779	0.355957	-0.138184	-0.551881	0.503886	0.537306	0.390933	9.52948	-1.26115	-0.360707	0.0594691	0.0442888	-0.00599884	-0.904541	0.510742	-0.00561523	0.584559	-0.45883	-0.596398	-0.303438	9.6336	-1.781	-1.36573	0.0681778	0.00743563	-0.0219436	-0.959717	0.573975	-0.0710449	
52	-0.477022	0.0880515	0.683426	0.545551	7.54565	6.3424	0.473005	0.0142721	-0.00370949	0.0227807	-0.832275	-0.372314	-0.243408	-0.68419	0.11832	0.559207	0.452959	8.60832	3.18642	3.78217	-0.00752451	0.0794867	0.0247901	-0.676758	-0.141357	-0.517822	-0.871192	-0.357112	-0.292176	0.167718	-6.26178	5.37164	6.25666	-0.164176	-0.0375357	-0.0041121	0.834961	-0.339111	-0.346924	-0.250013	-0.7268	-0.118172	0.628722	-9.541	2.12317	-0.903554	-0.0835917	0.0105282	0.046698	0.974365	0.0505371	-0.273438	-0.72176	-0.58991	-0.264866	0.246809	-6.51151	7.16696	1.28532	0.0453798	0.0340699	-0.0289393	0.914307	-0.421631	-0.0820312	-0.925135	-0.16299	-0.240516	-0.244358	-4.1554	5.85166	10.2891	0.0294446	0.0123696	-0.0478581	0.71167	-0.554199	-0.400391	-0.534034	0.420148	0.591382	0.434224	9.69721	0.495847	-0.681608	-0.0118489	0.0273026	-0.0207485	-0.940918	0.303467	-0.057373	-0.575045	0.414692	0.568865	0.416829	9.68754	-0.33421	0.229475	0.0361117	0.000851149	-0.026133	-1.00171	0.338623	-0.128174	-0.5875	0.410448	0.572064	0.398896	9.86237	-0.0998553	0.177103	0.0345909	0.00881532	-0.036762	-0.998535	0.349121	-0.144775	-0.551192	0.504514	0.536477	0.392231	9.71232	-1.36903	-1.1293	-0.103916	0.0367423	0.00601161	-0.911133	0.508545	-0.00341797	0.584458	-0.458739	-0.59646	-0.303648	9.6576	-1.76547	-1.28425	-0.0233321	0.00732701	-0.0102823	-0.968506	0.573975	-0.0620117	
53	-0.477733	0.0883523	0.683569	0.544701	7.64178	6.32174	0.433331	0.0208436	0.0196723	0.0430027	-0.836914	-0.365723	-0.245605	-0.684403	0.118962	0.559296	0.452358	8.72888	3.41803	3.42919	0.00201045	0.041765	0.0102985	-0.674561	-0.13916	-0.518066	-0.872905	-0.353158	-0.293026	0.165687	-6.63295	5.3757	5.95546	-0.178047	0.0244559	0.0114581	0.828369	-0.334473	-0.356201	-0.252981	-0.725859	-0.118148	0.628626	-9.63294	2.14221	-0.73516	-0.132729	-0.0156619	0.0671691	0.97876	0.0507812	-0.280273	-0.722812	-0.588562	-0.264716	0.247112	-6.42768	6.95851	1.78546	-0.0798386	-0.020792	-0.0483536	0.918701	-0.41748	-0.072998	-0.925401	-0.161743	-0.240744	-0.243957	-4.25867	5.78775	10.5714	-0.0509567	0.039685	-0.0469236	0.700439	-0.545654	-0.402588	-0.534112	0.42019	0.591196	0.434341	9.93319	0.511629	-0.205807	0.0148179	0.045322	-0.0126606	-0.942871	0.303467	-0.0615234	-0.57523	0.414039	0.569198	0.416768	9.84853	-0.257609	0.0492815	0.0318312	0.0351877	-0.0431313	-0.99292	0.33667	-0.130615	-0.587094	0.410416	0.571963	0.399672	9.85568	-0.6437	-0.0552835	0.0142772	0.015007	-0.0437915	-1.00073	0.349121	-0.140381	-0.551095	0.504375	0.536457	0.392574	9.72643	-1.62766	-0.630815	-0.0128836	-0.00186916	-0.0243128	-0.902344	0.510742	0.0012207	0.585227	-0.457252	-0.597319	-0.302721	9.63705	-1.81194	-1.37729	0.118095	0.00726419	-0.02506	-0.95752	0.576172	-0.0598145	
54	-0.478913	0.0880935	0.683165	0.544213	7.42105	6.29096	0.471362	0.0125917	0.0351835	0.0114502	-0.83667	-0.372314	-0.252197	-0.684978	0.11871	0.559294	0.451557	8.85812	3.49014	3.40542	0.0154009	0.00263376	0.00547299	-0.674561	-0.13916	-0.524902	-0.873163	-0.35241	-0.292805	0.166309	-6.4291	5.43755	6.00846	0.0361448	0.00277459	-0.0111229	0.834717	-0.334717	-0.351562	-0.254799	-0.725078	-0.118414	0.628743	-9.62551	2.01914	-0.853383	-0.035623	-0.0144979	0.02064	0.976562	0.0507812	-0.282471	-0.723372	-0.587655	-0.265111	0.247206	-6.50271	7.14097	1.83478	-0.0615861	-0.021029	-0.0200721	0.912109	-0.419434	-0.079834	-0.925725	-0.159939	-0.241216	-0.24345	-4.36307	5.34143	10.2264	-0.04923	0.0407515	-0.0563433	0.707031	-0.547607	-0.400391	-0.534283	0.419696	0.591421	0.434302	9.89319	0.49213	-0.557006	0.0284008	0.0108844	-0.0371754	-0.945068	0.30127	-0.0615234	-0.576484	0.412157	0.57043	0.415213	9.93627	-0.250004	-0.0265646	0.151181	0.0261181	-0.0161168	-1.00171	0.338867	-0.135254	-0.58769	0.408873	0.572753	0.399246	9.89277	-0.0871849	0.124303	0.037848	0.0257395	-0.0483159	-1.00073	0.349121	-0.144775	-0.550902	0.504521	0.536253	0.392935	9.78879	-1.62958	-0.753053	-0.0343414	0.0230666	-0.00549461	-0.9021	0.506348	0.0012207	0.586039	-0.455664	-0.598413	-0.301381	9.70603	-1.55583	-1.12803	0.113225	-0.00734826	-0.0243055	-0.966553	0.576172	-0.0620117	
55	-0.479066	0.0878704	0.683052	0.544256	7.45846	6.3424	0.438082	0.00321917	0.0179819	-0.00893544	-0.83252	-0.36792	-0.245605	-0.685584	0.118382	0.558898	0.451213	8.83563	3.5601	3.43378	0.0194246	0.0702459	0.0107714	-0.674561	-0.141357	-0.524902	-0.873127	-0.352339	-0.292805	0.166646	-6.47942	5.42272	6.04267	0.00791662	-0.00495846	-0.0250249	0.839111	-0.328369	-0.349365	-0.254767	-0.725032	-0.118276	0.628835	-9.55784	2.12946	-0.946686	0.00934103	-0.00367559	0.00595384	0.976807	0.0441895	-0.282227	-0.723969	-0.586909	-0.265087	0.247257	-6.51886	7.13936	1.69774	-0.0699334	-0.0245866	-0.0194318	0.916504	-0.419434	-0.0773926	-0.92573	-0.160082	-0.241343	-0.243209	-4.36639	5.45	10.3662	0.0190587	0.01874	-0.0319769	0.706787	-0.543457	-0.402832	-0.534727	0.419191	0.591495	0.434143	9.91267	0.542088	-0.317802	0.0606933	0.0419989	-0.0212738	-0.940674	0.299072	-0.0593262	-0.57691	0.411077	0.571296	0.414502	9.81415	-0.168189	0.0039776	0.12899	0.00826729	-0.0479691	-1.00391	0.343018	-0.132812	-0.587876	0.408274	0.572971	0.399272	9.83086	-0.469116	0.00845652	0.0448683	0.0264018	-0.0491759	-1.00073	0.349121	-0.142578	-0.55163	0.503464	0.53655	0.392864	9.65956	-1.33979	-0.718173	0.044985	0.0304984	-0.0144591	-0.904541	0.508545	0.0012207	0.586159	-0.454973	-0.599182	-0.300663	9.55368	-1.7973	-1.24385	0.0937114	-0.0326784	-0.0289673	-0.966553	0.576172	-0.064209	
56	-0.48097	0.0873169	0.682206	0.543726	7.55975	6.37011	0.525429	0.000455099	0.0635473	0.0606216	-0.834717	-0.365723	-0.247803	-0.68633	0.11853	0.558063	0.451073	8.67989	3.33482	3.4579	-0.00287681	0.0329944	0.00448822	-0.674561	-0.141357	-0.522461	-0.873408	-0.351482	-0.292578	0.167383	-6.27953	5.42098	6.24114	-0.00524828	0.0149904	-0.0114555	0.839111	-0.330322	-0.354004	-0.257294	-0.724224	-0.119064	0.628589	-9.52289	2.32939	-0.764399	-0.15122	-0.00323273	0.0437078	0.976807	0.0463867	-0.282227	-0.723513	-0.587043	-0.265499	0.247831	-6.7931	7.14662	1.77682	0.0129059	0.000255147	-0.0536727	0.920654	-0.412842	-0.079834	-0.925782	-0.16073	-0.241926	-0.242002	-4.34742	5.96589	10.5057	0.0097233	0.029049	-0.0598968	0.715576	-0.54541	-0.400635	-0.534623	0.41924	0.591861	0.433724	9.72419	0.812835	-0.462378	0.0463198	-0.0196207	-0.01786	-0.94043	0.297119	-0.0615234	-0.577541	0.409279	0.572641	0.413545	9.89778	0.084014	0.185752	0.0971383	0.0336699	-0.0242679	-1.00146	0.334473	-0.132812	-0.58844	0.406797	0.57347	0.399233	9.93209	0.0770072	0.192526	0.00127841	0.0352592	-0.0467475	-1.00513	0.342285	-0.146973	-0.552701	0.502105	0.53733	0.39203	9.60341	-1.63889	-1.04698	0.0847833	0.0201146	-5.1264e-05	-0.906494	0.50415	-0.000976562	0.588544	-0.450693	-0.601984	-0.296827	9.65171	-1.57247	-1.43302	0.297031	-0.0176534	-0.0420959	-0.966309	0.573975	-0.0732422	
57	-0.482731	0.0869943	0.681122	0.543577	7.5669	6.10736	0.626735	-0.0039514	0.0731357	0.0206046	-0.832764	-0.361328	-0.25	-0.687199	0.117485	0.55771	0.450461	8.64421	3.37741	3.63837	0.0380556	0.0420907	-0.00314415	-0.670166	-0.141357	-0.524902	-0.874092	-0.349056	-0.293521	0.167241	-6.43328	5.11333	6.0984	-0.100344	0.0129735	-0.0315726	0.83252	-0.328125	-0.356201	-0.259126	-0.723343	-0.119225	0.62882	-9.47979	2.32753	-0.588758	-0.0524393	-0.0448228	0.0412017	0.976562	0.048584	-0.282227	-0.723789	-0.586171	-0.26626	0.248272	-6.61444	6.92925	1.6049	-0.0366131	0.0154842	-0.0313809	0.920654	-0.412842	-0.0751953	-0.92583	-0.160075	-0.242657	-0.24152	-4.50969	5.40836	10.3068	0.019713	0.0484269	-0.039343	0.711182	-0.543457	-0.402832	-0.535747	0.417947	0.592337	0.432935	9.83351	0.723469	-0.352285	0.0606584	0.0416495	-0.00955761	-0.940674	0.299072	-0.0634766	-0.577767	0.408493	0.573452	0.412882	9.93716	0.209977	0.211574	0.0268935	-0.0130148	-0.0432789	-1.00366	0.334473	-0.137451	-0.589015	0.405439	0.574057	0.398923	9.89571	-0.323769	0.163054	0.149238	0.0156795	-0.0425747	-0.99585	0.342529	-0.14917	-0.553915	0.500411	0.538393	0.391025	9.71123	-0.684992	-0.41949	0.108094	0.0209444	-0.022473	-0.906982	0.515137	-0.0148926	0.588138	-0.450574	-0.60241	-0.29695	9.69967	-1.70525	-1.3257	-0.106797	-0.00669463	-0.021457	-0.966064	0.56958	-0.0732422	
58	-0.483395	0.0865912	0.680682	0.543602	7.54046	6.03614	0.669005	0.000834319	0.0677094	0.00554101	-0.834717	-0.36792	-0.25415	-0.687599	0.117371	0.558221	0.449244	8.61035	3.43172	3.55344	0.0359927	-0.024876	0.0155691	-0.674805	-0.134766	-0.522705	-0.874287	-0.348206	-0.294409	0.16643	-6.41829	5.24259	6.15978	-0.057654	0.0459042	-0.00608919	0.836914	-0.325928	-0.354004	-0.261325	-0.722844	-0.120182	0.628301	-9.43486	2.39995	-0.43661	-0.0950243	0.00488078	0.0315032	0.979004	0.0441895	-0.286621	-0.724518	-0.584968	-0.267549	0.247596	-6.79171	6.93707	1.67347	-0.0719489	0.0363257	-0.0228732	0.918213	-0.410645	-0.0820312	-0.92559	-0.158628	-0.243777	-0.242266	-4.59418	5.50762	10.2121	-0.0476313	0.0704565	0.00126463	0.711426	-0.547607	-0.400391	-0.535515	0.418157	0.59222	0.433179	9.79998	0.871604	-0.593565	0.0149543	0.011175	-0.0320339	-0.942871	0.299072	-0.0615234	-0.577497	0.408633	0.57334	0.413276	9.79043	0.209737	0.163868	-0.00331984	0.031985	-0.0177275	-0.999023	0.330078	-0.132812	-0.588401	0.405824	0.573899	0.399663	9.84313	-0.214841	0.119786	-0.0713801	-0.00111903	-0.0350642	-1.00269	0.340088	-0.146973	-0.553953	0.500428	0.538435	0.390891	9.66325	-1.33114	-0.775088	-0.000583928	0.00311146	0.010626	-0.904541	0.512939	-0.00561523	0.588712	-0.449084	-0.603345	-0.296169	9.74742	-1.4001	-1.36507	0.058799	0.00464757	-0.0318899	-0.966064	0.565186	-0.0800781	
59	-0.484539	0.0854286	0.680091	0.543508	7.39985	6.08139	0.720593	0.0202084	0.0594032	-0.0102069	-0.828125	-0.363525	-0.256348	-0.687423	0.116909	0.558934	0.448747	8.54462	3.54771	3.57671	0.0189151	0.026115	-0.0298149	-0.670166	-0.141357	-0.522705	-0.87468	-0.346454	-0.295994	0.165205	-6.30819	4.86039	5.8322	-0.0786621	0.0645789	0.0203593	0.834717	-0.32373	-0.351807	-0.2636	-0.72277	-0.122092	0.627066	-9.21318	2.10648	-0.633349	-0.114677	0.0498365	0.00511184	0.974365	0.0463867	-0.282227	-0.724169	-0.58544	-0.26794	0.247079	-6.44037	6.72756	1.88493	0.0123358	0.0351416	0.000813127	0.92041	-0.408447	-0.0751953	-0.925322	-0.15787	-0.244648	-0.242905	-4.3776	5.09943	10.2666	0.00622562	0.0559457	0.00177067	0.713623	-0.547607	-0.398438	-0.535648	0.417534	0.592131	0.433736	9.75026	0.693739	-0.376576	-0.031743	0.0307128	-0.0355336	-0.94043	0.294922	-0.0612793	-0.576861	0.408929	0.573359	0.413845	9.84431	0.134615	0.173058	-0.0505211	-0.00598454	-0.0397629	-1.00342	0.332275	-0.132812	-0.588322	0.405559	0.574514	0.399165	9.87134	0.0403869	0.211394	0.0054095	-0.011435	-0.0204655	-1.00757	0.342285	-0.142578	-0.553699	0.500173	0.538636	0.3913	9.64766	-1.07033	-0.69076	-0.00939846	0.0273163	-0.0197724	-0.906494	0.506348	-0.0100098	0.588339	-0.449323	-0.603169	-0.296906	9.64708	-1.59454	-1.23006	-0.08439	0.0135852	-0.0140154	-0.966064	0.567383	-0.0686035	
60	-0.484574	0.0840285	0.679932	0.543893	7.41724	6.32855	0.706199	0.00812395	0.0246363	-0.0588026	-0.821533	-0.365479	-0.256348	-0.686354	0.116968	0.559623	0.44951	9.00151	3.56469	3.33996	-0.0165667	-0.0172339	-0.0749169	-0.678711	-0.143555	-0.52002	-0.874886	-0.346304	-0.296407	0.16368	-6.66125	5.14444	5.81364	-0.0282914	0.0298123	0.052717	0.834717	-0.328125	-0.354004	-0.264848	-0.722844	-0.124874	0.625906	-9.28698	1.89972	-0.58629	-0.0921587	0.0789966	-0.0564815	0.974365	0.0507812	-0.278076	-0.72396	-0.586069	-0.268068	0.246057	-6.62381	6.83527	1.87962	0.00452504	0.0256478	0.0234375	0.914307	-0.41748	-0.0751953	-0.924969	-0.158309	-0.244634	-0.243975	-4.55151	5.48212	10.1116	-0.00304504	0.00773008	0.0396109	0.715576	-0.547607	-0.400391	-0.535128	0.418113	0.590443	0.436116	9.85455	0.851622	-0.268824	-0.0791895	0.0663919	-0.0370366	-0.944824	0.297119	-0.0678711	-0.57647	0.409373	0.57287	0.414628	9.88097	-0.101675	0.135009	-0.0280017	0.0196529	-0.0228405	-1.00122	0.330078	-0.130371	-0.587634	0.406237	0.574401	0.399652	9.9638	-0.241258	0.00978143	-0.0148804	-0.00675428	-0.0238464	-1.00049	0.340088	-0.144775	-0.553841	0.500004	0.538667	0.391272	9.61359	-1.3731	-0.678106	0.0235256	0.0084888	-0.000420113	-0.904297	0.506348	-0.0124512	0.588114	-0.449415	-0.603214	-0.297122	9.63896	-1.58852	-1.33175	0.0144668	0.00394663	-0.0117133	-0.966064	0.567383	-0.0754395	
61	-0.483349	0.08386	0.679768	0.545213	7.5533	6.31282	0.626	-0.0481057	-0.0387536	-0.0646592	-0.832275	-0.369873	-0.256348	-0.686378	0.116292	0.559128	0.450263	8.76293	3.45891	3.65344	-0.0198065	0.0732967	-0.08497	-0.674561	-0.141357	-0.520264	-0.874233	-0.348901	-0.295274	0.1637	-6.23349	5.26571	6.15011	0.154223	-0.0062538	0.0585101	0.834717	-0.33252	-0.354004	-0.264343	-0.723813	-0.126253	0.624722	-9.37754	2.22187	-0.670547	-0.0133405	0.076058	-0.0212355	0.97876	0.0507812	-0.273438	-0.722281	-0.588556	-0.267568	0.245601	-6.59772	7.17605	1.62188	0.124511	0.0569676	0.0239417	0.914062	-0.415283	-0.072998	-0.924654	-0.161342	-0.243827	-0.243993	-4.38321	5.62423	10.1861	0.124298	-0.0521578	0.0285776	0.709229	-0.547607	-0.402588	-0.535661	0.417948	0.588685	0.437991	9.71697	0.744765	-0.579825	-0.11106	0.0987743	-0.0166659	-0.942627	0.294922	-0.0678711	-0.575864	0.409938	0.57288	0.414897	9.8594	0.058103	0.157253	-0.0274267	-0.0106989	-0.0163737	-0.997314	0.33667	-0.130371	-0.587282	0.406672	0.574236	0.399964	9.96175	-0.185929	0.18845	-0.0471174	0.000210091	-0.0157719	-1.00269	0.340088	-0.144775	-0.55362	0.500238	0.538104	0.39206	9.60158	-1.17987	-0.797419	-0.0489855	0.0414057	0.00933862	-0.908691	0.501953	-0.0100098	0.587268	-0.450421	-0.602799	-0.298112	9.634	-1.64511	-1.40688	-0.0630898	0.00335929	-0.00391331	-0.963867	0.56958	-0.0754395	
62	-0.482015	0.0832179	0.679405	0.546941	7.60441	6.26245	0.638901	-0.0360762	0.000712931	-0.0867565	-0.827881	-0.37207	-0.251953	-0.685186	0.115532	0.559302	0.452056	8.72989	3.39541	3.51486	0.00139483	0.0359075	-0.0643752	-0.674316	-0.145752	-0.522461	-0.874432	-0.349449	-0.295046	0.16187	-6.65114	5.2188	6.24978	-0.0581632	-0.00365329	0.0710013	0.841309	-0.334717	-0.35376	-0.264445	-0.724828	-0.128197	0.623105	-9.61468	2.41269	-0.742717	-0.0693428	0.0948926	-0.0266306	0.978271	0.0571289	-0.264893	-0.721866	-0.589865	-0.2669	0.244405	-6.66388	6.85862	1.35068	0.0467518	0.0312582	0.0463239	0.914307	-0.419678	-0.072998	-0.924224	-0.163181	-0.24277	-0.245449	-4.33274	5.85712	10.4112	0.0687351	-0.0197279	0.0694437	0.702881	-0.549805	-0.391846	-0.535866	0.418296	0.586725	0.440034	9.84347	0.593852	-0.262351	-0.00485433	0.0923426	-0.0139952	-0.938232	0.292725	-0.0720215	-0.575729	0.410322	0.572274	0.415543	9.72727	-0.0158577	0.191893	-0.05123	0.0312019	-0.0216728	-1.00562	0.332275	-0.130371	-0.586902	0.406976	0.574456	0.399896	9.81005	0.0241	0.171209	-0.0101069	-0.018187	-0.0193451	-1.00049	0.342285	-0.144775	-0.552881	0.500855	0.53787	0.392636	9.72106	-1.28765	-0.755748	-0.0482585	-0.00592341	-0.00288177	-0.906494	0.50415	-0.00561523	0.586438	-0.451468	-0.602093	-0.299585	9.60872	-1.67817	-1.37409	-0.0888161	0.0223912	-0.0114852	-0.968506	0.571777	-0.0710449	
63	-0.481571	0.0826161	0.679361	0.547479	7.53315	6.35727	0.654528	-0.0102323	0.00472483	-0.0755019	-0.827637	-0.374268	-0.256348	-0.684922	0.115193	0.55971	0.452037	8.6362	3.27171	3.76609	0.0261331	-0.00872633	-0.0463338	-0.672119	-0.147949	-0.52002	-0.87473	-0.349574	-0.294693	0.160628	-6.48446	5.29049	6.31987	-0.0202659	0.0095868	0.104674	0.830566	-0.33252	-0.346924	-0.265314	-0.724989	-0.129544	0.622268	-9.75287	2.33321	-0.921347	-0.121848	0.0816175	-0.0136173	0.980469	0.0595703	-0.271484	-0.721302	-0.590906	-0.266793	0.243669	-6.64542	7.06729	1.55317	0.0729826	0.067485	0.0453386	0.920898	-0.421875	-0.0661621	-0.924106	-0.162915	-0.242477	-0.246356	-4.30821	6.10893	10.327	-0.0403274	0.0129192	0.0531643	0.700928	-0.558594	-0.395752	-0.535975	0.418132	0.586412	0.440473	9.52755	0.677123	-0.402673	-0.0070533	0.0508424	-0.0288879	-0.942627	0.294922	-0.0698242	-0.575374	0.410674	0.572044	0.416001	9.84004	-0.00902655	0.154419	-0.0521112	0.0143178	-0.0261073	-1.00366	0.334473	-0.132812	-0.586321	0.407728	0.574138	0.400439	9.8781	-0.110149	0.0311159	-0.0845936	-0.0099843	-0.0183852	-1.00049	0.342285	-0.142578	-0.552415	0.501455	0.537396	0.393175	9.66209	-1.48521	-0.9144	-0.0817373	0.016139	0.00871495	-0.906494	0.501953	-0.0100098	0.58602	-0.451992	-0.601737	-0.300329	9.66792	-1.61864	-1.22788	-0.0814075	0.0178109	-0.0115681	-0.966309	0.571777	-0.064209	
64	-0.480402	0.0809281	0.680135	0.547797	7.54114	6.38123	0.648371	0.0485442	0.00931803	-0.071062	-0.823242	-0.376465	-0.25415	-0.683901	0.115102	0.561154	0.451816	8.68362	3.36703	3.43262	0.0296597	-0.0453003	-0.0412611	-0.680664	-0.149902	-0.517578	-0.874658	-0.350162	-0.295186	0.158826	-6.41657	5.44077	6.04145	-0.0240837	0.0471194	0.0388224	0.832764	-0.341064	-0.346924	-0.266546	-0.725485	-0.131058	0.620845	-9.61108	2.28572	-0.836358	-0.0738267	0.0683244	0.0179405	0.980469	0.0593262	-0.262695	-0.721733	-0.59105	-0.266458	0.242408	-6.56021	7.00675	1.63432	-0.00519672	0.0311406	0.0184595	0.918701	-0.419678	-0.0705566	-0.92374	-0.163571	-0.241858	-0.247898	-4.30812	5.96857	10.561	0.0817643	-0.00578868	0.0498955	0.702881	-0.554199	-0.398193	-0.535991	0.417629	0.586821	0.440388	9.90505	0.506986	-0.26383	0.048622	0.0293696	-0.0367571	-0.942627	0.297119	-0.0742188	-0.574466	0.411887	0.571127	0.417314	9.79686	-0.185167	0.020352	-0.0475085	0.0123359	-0.0185247	-0.99707	0.334473	-0.130371	-0.586104	0.407823	0.574447	0.400216	9.88669	-0.228234	0.0513081	0.0365721	-0.00689963	-0.0236161	-1.00269	0.337646	-0.137939	-0.551668	0.502271	0.536606	0.394259	9.58713	-1.28016	-0.72464	-0.0693131	0.00277301	0.00710639	-0.910889	0.501953	-0.00317383	0.585962	-0.452136	-0.601248	-0.301201	9.62481	-1.75132	-1.33266	0.018304	0.0212463	-0.0118167	-0.9729	0.571777	-0.0710449	
65	-0.480112	0.0800086	0.68046	0.547783	7.51842	6.491	0.683737	0.0492271	0.00855819	-0.0671927	-0.823242	-0.376465	-0.256348	-0.683244	0.114895	0.56158	0.452332	8.70529	3.58546	3.41985	-0.013005	-0.0400975	-0.041158	-0.676025	-0.156494	-0.510254	-0.874966	-0.34984	-0.295571	0.157111	-6.58259	5.50922	5.83933	-0.0145962	0.0456336	0.0447768	0.832764	-0.341064	-0.344482	-0.268471	-0.725711	-0.13384	0.619155	-9.74539	1.87077	-1.22335	-0.12343	0.0952591	-0.0307793	0.987305	0.057373	-0.264893	-0.720318	-0.592959	-0.266429	0.241986	-6.54907	7.49921	1.54337	0.0471465	0.0324233	0.0107893	0.918945	-0.42627	-0.0661621	-0.923523	-0.163276	-0.241381	-0.249364	-4.25635	5.35054	10.3162	-0.00866981	0.0153275	0.052515	0.69873	-0.554199	-0.400146	-0.535717	0.417612	0.58671	0.440884	9.7943	0.74016	-0.405892	-0.0160639	0.00594189	-0.0223765	-0.938232	0.292725	-0.0761719	-0.574249	0.412153	0.570961	0.417578	9.83754	-0.226941	0.095264	-0.0326566	0.0138686	-0.0189784	-1.00146	0.332275	-0.128174	-0.585814	0.408136	0.574145	0.400755	9.96124	-0.322013	-0.12994	-0.0199537	0.0209831	-0.0262591	-1.00293	0.342285	-0.135742	-0.551394	0.502403	0.536811	0.394196	9.68414	-1.57499	-0.857607	0.0248287	0.0176496	-0.0120222	-0.910889	0.50415	-0.0078125	0.586221	-0.451804	-0.601299	-0.301094	9.64778	-1.59027	-1.16258	0.0335127	0.0213008	-0.0111041	-0.968506	0.571777	-0.0756836	
66	-0.479345	0.0795713	0.680828	0.54806	7.33826	6.55453	0.585205	-0.00957146	-0.0368661	-0.0344446	-0.822998	-0.380615	-0.258301	-0.682542	0.113656	0.563066	0.451858	8.71998	3.45988	3.46649	0.0474293	-0.0106664	-0.0638976	-0.676025	-0.154297	-0.519775	-0.874273	-0.351284	-0.295088	0.158646	-6.54953	5.3916	6.30316	0.113001	-0.0129231	-0.0354538	0.834961	-0.345459	-0.34668	-0.266407	-0.726885	-0.134332	0.618563	-9.63913	2.09669	-0.715363	0.0638127	0.060838	-0.0431504	0.982666	0.0615234	-0.264893	-0.71943	-0.594182	-0.26658	0.241461	-6.42754	6.96246	1.58573	0.0719916	0.0525371	-0.00241415	0.92334	-0.428467	-0.0637207	-0.923172	-0.164295	-0.241272	-0.250095	-4.15876	5.94365	10.4211	0.00913684	0.00750904	0.00840727	0.705322	-0.556396	-0.402344	-0.536955	0.415978	0.586798	0.440807	9.82428	0.628292	-0.221553	0.0724394	0.0803726	-0.0379502	-0.936035	0.294922	-0.0761719	-0.574191	0.411639	0.571884	0.4169	9.7892	-0.253406	0.0136916	0.0439184	-0.0168012	-0.0208178	-0.99707	0.334473	-0.128174	-0.586552	0.407045	0.574285	0.400584	9.86338	-0.106709	0.0525021	0.0487393	0.0401931	-0.0298922	-1.00293	0.342285	-0.140381	-0.551925	0.501568	0.537362	0.393764	9.778	-1.31396	-0.588285	0.0582043	0.0117896	-0.00475789	-0.904297	0.50415	-0.00317383	0.58651	-0.45124	-0.601657	-0.300661	9.61891	-1.82474	-1.25213	0.0859913	-0.000834615	-0.0130849	-0.966064	0.567383	-0.0686035	
67	-0.478221	0.0796179	0.68092	0.54892	7.57394	6.4918	0.5603	-0.0227552	-0.0267278	-0.0449929	-0.822754	-0.387207	-0.251709	-0.682004	0.113901	0.56357	0.45198	8.64923	3.50433	3.25383	-0.0100536	-0.0487509	-0.0166921	-0.684814	-0.1521	-0.517578	-0.87396	-0.351363	-0.29571	0.159041	-6.40404	5.15561	6.14136	-0.0590596	0.0107163	-0.0320059	0.839111	-0.339111	-0.342285	-0.26751	-0.727185	-0.136329	0.617296	-9.53719	2.5661	-1.07749	-0.138139	0.0469964	-0.00764915	0.982422	0.0637207	-0.253906	-0.719094	-0.594563	-0.267053	0.241	-6.44282	7.21032	1.16743	-0.0157312	0.0333504	-0.0134097	0.921143	-0.42627	-0.0615234	-0.922767	-0.166032	-0.24141	-0.25031	-3.95012	6.22822	10.307	0.102774	0.012607	0.0147802	0.701172	-0.564941	-0.397705	-0.536938	0.416201	0.586236	0.441364	9.92716	0.521392	-0.361724	0.0285634	0.0364076	-0.00743933	-0.942627	0.294922	-0.0827637	-0.574638	0.410983	0.572739	0.415757	9.93291	0.0289639	0.0733791	0.0736411	0.014806	-0.0147015	-1.00122	0.327881	-0.130371	-0.587173	0.406047	0.574454	0.400446	9.83364	-0.412482	0.206918	0.0777628	0.0268083	-0.0324892	-1.00024	0.337891	-0.142578	-0.552349	0.50092	0.537616	0.393648	9.62904	-1.1467	-0.755974	0.0173558	0.0234557	-0.0134865	-0.908691	0.50415	-0.00317383	0.5864	-0.4511	-0.602024	-0.30035	9.66455	-1.74951	-1.35258	-0.0716996	-0.00957635	-0.00567878	-0.966064	0.56958	-0.0664062	
68	-0.477377	0.0801109	0.680911	0.549595	7.34178	6.54992	0.45814	-0.0374585	-0.0470645	-0.00589696	-0.825195	-0.380859	-0.25415	-0.681887	0.113655	0.563996	0.451687	8.78701	3.43986	3.54677	0.0188843	0.0317067	-0.0130698	-0.676025	-0.154297	-0.517334	-0.874469	-0.350344	-0.296162	0.157641	-6.38569	5.45194	6.338	-0.042768	0.027762	0.0436833	0.837158	-0.341309	-0.346924	-0.269329	-0.726636	-0.137763	0.616833	-9.52043	1.82808	-1.05144	-0.0741604	0.0144416	0.022643	0.984619	0.0637207	-0.256104	-0.718411	-0.595342	-0.266621	0.241593	-6.56569	7.24361	1.54425	0.0699686	-0.00897464	-0.0381601	0.914551	-0.424072	-0.0568848	-0.92286	-0.164484	-0.241253	-0.251142	-4.40329	5.31773	10.4267	-0.0650851	0.0214059	0.00495092	0.698975	-0.560791	-0.397949	-0.537746	0.415315	0.586249	0.441197	9.82645	0.738884	-0.254082	0.0862827	0.0742947	-0.0232591	-0.938232	0.292725	-0.0805664	-0.575134	0.409892	0.573796	0.41469	9.82532	0.0725325	0.354251	0.0587597	0.0115411	-0.0243322	-1.00146	0.334473	-0.125732	-0.587468	0.405436	0.574724	0.400245	9.82152	0.00779345	0.174783	-0.0228258	0.0138667	-0.0229317	-1.00513	0.342285	-0.144775	-0.552137	0.501081	0.537702	0.393623	9.78423	-1.52602	-0.769616	-0.000258841	0.000246573	0.00923418	-0.908936	0.506348	-0.0078125	0.586583	-0.450443	-0.602584	-0.299856	9.66076	-1.36989	-1.23179	0.0279418	-0.00413158	-0.0183726	-0.968262	0.567383	-0.0710449	
69	-0.476506	0.0810024	0.680988	0.550124	7.6165	6.39695	0.443991	-0.0259569	-0.0335044	-0.0180371	-0.820557	-0.382812	-0.251953	-0.681317	0.113645	0.565294	0.450926	8.76771	3.60832	3.12097	0.0374664	-0.0589097	-0.029664	-0.673828	-0.156494	-0.510254	-0.8753	-0.347844	-0.296951	0.157078	-6.72799	5.28404	5.95338	-0.1397	0.0231222	-0.0104999	0.830566	-0.33667	-0.344727	-0.272045	-0.726155	-0.139088	0.61591	-9.60531	2.26712	-0.930993	-0.118634	0.0205634	0.0217282	0.982422	0.0637207	-0.258301	-0.718147	-0.595368	-0.267652	0.241172	-6.60772	7.14144	1.48584	-0.0512546	0.0209681	-0.00656819	0.916748	-0.42627	-0.0637207	-0.922719	-0.164772	-0.241485	-0.251246	-4.22789	5.65454	10.4023	-0.0650561	0.0316912	-0.00585594	0.696777	-0.560791	-0.395752	-0.53909	0.413242	0.586436	0.441255	9.90081	0.706634	-0.260336	0.0415476	0.0566786	-0.0469796	-0.944824	0.297119	-0.0827637	-0.574817	0.410198	0.57398	0.414572	9.94807	0.276436	-0.0948591	-0.00329354	0.00318469	-0.0170566	-1.00342	0.330078	-0.130371	-0.587401	0.40528	0.574962	0.400158	9.906	-0.121746	0.152745	0.000925846	-0.000270381	-0.0236028	-1.00513	0.340088	-0.14917	-0.552699	0.500525	0.537796	0.393413	9.69666	-1.06728	-0.690388	0.0498691	0.0214714	-0.00126808	-0.906494	0.50415	-0.0124512	0.58708	-0.449223	-0.603501	-0.298869	9.71851	-1.47008	-1.39142	0.146899	-0.00385946	-0.0245963	-0.975098	0.567139	-0.0732422	
70	-0.477226	0.0805413	0.679877	0.55094	7.53483	6.39226	0.646994	-0.0413341	0.0737105	-0.0131219	-0.824951	-0.38501	-0.260498	-0.680847	0.113761	0.56515	0.451788	8.58079	3.64125	3.4862	-0.0344358	-0.0205101	-0.0561791	-0.682373	-0.160889	-0.514893	-0.875016	-0.347818	-0.297867	0.156988	-6.41579	5.06334	5.84436	0.0540969	0.0249532	-0.0306926	0.832764	-0.334717	-0.351562	-0.271969	-0.725866	-0.14098	0.615854	-9.50656	2.2722	-1.02409	-0.0193035	0.0102671	-0.0800155	0.986816	0.0681152	-0.25415	-0.718038	-0.595309	-0.267933	0.241328	-6.47	7.01684	1.52439	-0.000568961	0.0169083	-0.039117	0.916504	-0.419678	-0.059082	-0.922488	-0.165099	-0.241759	-0.251617	-4.26266	5.23867	10.6607	0.0269032	0.0385847	0.0197075	0.696777	-0.562744	-0.399902	-0.539555	0.412464	0.586032	0.441951	9.79222	0.79416	-0.173105	0.0259174	0.0470857	-0.0274179	-0.938232	0.292725	-0.0805664	-0.57427	0.410705	0.573663	0.415267	9.8193	-0.119599	0.148088	-0.0634328	0.0156309	-0.0160817	-1.00146	0.332275	-0.128174	-0.587279	0.405332	0.575009	0.400218	9.88562	-0.156153	0.122014	-0.00203437	0.00689664	-0.0217798	-1.00024	0.337891	-0.142578	-0.552857	0.500091	0.538336	0.393005	9.62509	-1.19738	-0.875105	0.048074	-0.00258896	-0.0115555	-0.908936	0.506348	-0.0124512	0.586347	-0.449924	-0.603262	-0.299734	9.67124	-1.73258	-1.28225	-0.0869355	0.00286743	-0.00786974	-0.9729	0.567383	-0.0710449	
71	-0.477274	0.0799206	0.678581	0.552585	7.20206	6.37717	0.664498	-0.0638747	0.0221456	-0.0602826	-0.820557	-0.387207	-0.258301	-0.680399	0.1135	0.565325	0.452308	8.71537	3.65702	3.34494	-0.0134519	-0.00234863	-0.0765683	-0.678223	-0.158691	-0.507812	-0.874435	-0.348989	-0.297857	0.157641	-6.48712	5.15858	6.00905	0.117871	0.0154305	-0.0235966	0.834961	-0.336914	-0.342285	-0.270807	-0.725701	-0.141716	0.616392	-9.40502	2.12779	-0.785516	0.0342787	-0.00402672	-0.111886	0.982178	0.0703125	-0.251953	-0.715406	-0.59768	-0.269139	0.241944	-6.42995	7.54172	1.67621	0.0911265	0.0577421	-0.0576806	0.918701	-0.419678	-0.0522461	-0.921781	-0.166153	-0.243152	-0.252171	-4.19822	5.51995	10.6047	0.0530721	0.0592208	0.0209457	0.697021	-0.567139	-0.391357	-0.539586	0.412204	0.586254	0.441861	9.74404	0.739168	-0.174844	0.0390986	0.0102992	-0.0317377	-0.946533	0.28833	-0.0847168	-0.57396	0.411238	0.573605	0.415247	9.82337	-0.132519	0.00450418	-0.0314536	-0.0134807	-0.000158799	-0.999023	0.330078	-0.12793	-0.587214	0.405407	0.575	0.400249	9.87555	-0.104662	0.138153	-0.00211361	0.00445685	-0.0189052	-1.00952	0.335449	-0.144775	-0.552924	0.499875	0.538465	0.39301	9.84528	-1.25802	-0.815776	0.0168893	0.0162432	-0.010393	-0.910889	0.50415	0.0012207	0.586401	-0.449753	-0.603433	-0.299541	9.70363	-1.62331	-1.24342	0.0259974	-0.0011975	-0.0085068	-0.970703	0.567383	-0.0732422	
72	-0.476801	0.0795212	0.67819	0.55353	7.30071	6.4934	0.680158	-0.055928	0.00919551	-0.0784347	-0.818115	-0.391602	-0.256104	-0.679431	0.114271	0.5647	0.454345	8.7472	3.58595	3.19579	-0.09155	-0.0125828	-0.0677938	-0.678223	-0.158691	-0.507812	-0.873114	-0.351592	-0.298686	0.157616	-6.49242	5.49507	6.11604	0.0820739	0.0427771	0.0160349	0.834961	-0.336914	-0.342285	-0.269496	-0.725208	-0.143925	0.617034	-9.49871	2.13119	-1.08138	-0.0416082	-0.000994475	-0.101116	0.979736	0.074707	-0.258545	-0.714248	-0.598239	-0.271299	0.241571	-6.70719	6.89008	1.15045	0.0324297	0.0882223	-0.0557332	0.918701	-0.419678	-0.0478516	-0.920728	-0.168704	-0.244392	-0.253125	-4.18161	6.23809	10.2281	0.108429	0.0510191	0.0452906	0.697021	-0.564941	-0.38916	-0.538539	0.413425	0.585247	0.443331	9.80761	0.707149	-0.44365	-0.102818	0.0139498	-0.0176267	-0.938232	0.292725	-0.0847168	-0.57386	0.410977	0.574114	0.414942	9.93957	0.0816792	0.18584	0.0189373	0.00456857	-0.0302232	-0.994873	0.330078	-0.123291	-0.587043	0.405555	0.575211	0.400047	9.94543	-0.11567	0.149883	0.00568675	-0.00748521	-0.0164094	-1.00244	0.333252	-0.151367	-0.55269	0.500386	0.537797	0.393602	9.42998	-1.17625	-0.713414	-0.061489	0.0154533	0.010656	-0.904297	0.50415	-0.00561523	0.586043	-0.449988	-0.603574	-0.299607	9.59316	-1.70598	-1.40644	0.0102355	-0.00826541	-0.00691938	-0.970703	0.567383	-0.0664062	
73	-0.47466	0.0800923	0.677933	0.555599	7.29695	6.54062	0.622468	-0.0534744	-0.0567373	-0.0377893	-0.82251	-0.387207	-0.262695	-0.678877	0.114775	0.564401	0.455416	8.7572	3.43079	3.4197	-0.0536705	-0.00470935	-0.0392728	-0.682617	-0.156494	-0.514893	-0.872575	-0.352507	-0.299319	0.157355	-6.44721	5.50237	6.13668	0.0547445	0.0695223	0.00310661	0.837158	-0.341309	-0.335449	-0.268994	-0.724914	-0.14573	0.617174	-9.60174	1.85601	-0.971309	-0.027892	0.0360883	-0.0518807	0.983887	0.0812988	-0.249756	-0.712815	-0.599515	-0.272198	0.241629	-6.64442	7.16057	1.20513	0.0391557	0.0550731	-0.0155521	0.916504	-0.419678	-0.0454102	-0.920233	-0.168811	-0.245095	-0.25417	-4.3606	6.10803	9.72017	-0.00882449	0.0475815	0.0137406	0.695068	-0.567139	-0.382812	-0.538986	0.412962	0.585132	0.44337	9.81628	0.716076	-0.351579	0.0218802	0.0215686	-0.0211204	-0.946777	0.292725	-0.0825195	-0.573709	0.411421	0.573569	0.415463	9.80736	-0.033898	0.101017	-0.021854	0.0148396	-0.0150456	-1.00562	0.332275	-0.12793	-0.586512	0.406075	0.575235	0.400264	9.88978	-0.109106	0.0899347	-0.0329014	-0.00959226	-0.0233042	-1.00269	0.337891	-0.144775	-0.551823	0.501317	0.53729	0.394325	9.69634	-1.46626	-0.829847	-0.0419914	-0.00134372	0.00445651	-0.910889	0.501953	-0.00317383	0.585593	-0.450476	-0.603457	-0.299988	9.66601	-1.31652	-1.30917	0.0793472	0.0036342	-0.00465084	-0.968262	0.567383	-0.0686035	
74	-0.474189	0.080185	0.678019	0.555883	7.61983	6.42144	0.658591	-0.0172619	-0.0352811	-0.030184	-0.820068	-0.393799	-0.262451	-0.678437	0.115075	0.56424	0.456196	8.5537	3.54558	3.386	-0.0250131	0.00205975	-0.0356987	-0.68042	-0.158691	-0.512451	-0.872558	-0.35232	-0.299622	0.157288	-6.4186	5.1581	5.9562	-0.0120491	0.00333039	0.0217965	0.828613	-0.341064	-0.337646	-0.269382	-0.724891	-0.14619	0.616924	-9.42735	2.03503	-0.658236	-0.0371489	0.00772764	0.00857009	0.986328	0.074707	-0.251953	-0.712483	-0.599744	-0.272727	0.241445	-6.41047	7.17906	1.21888	0.0322286	0.0562195	-0.0382047	0.922852	-0.415283	-0.0385742	-0.919958	-0.169881	-0.245379	-0.25418	-3.99351	6.16058	10.2351	0.0593785	0.0205573	-0.00549688	0.692871	-0.571533	-0.386963	-0.539935	0.412129	0.585109	0.44302	9.71221	0.575403	-0.369496	0.0269569	0.0367405	-0.00791045	-0.938232	0.292725	-0.0869141	-0.573627	0.411429	0.573502	0.415661	9.8241	0.0840601	-0.119148	-0.0102491	0.02202	-0.0261922	-1.00146	0.33667	-0.130371	-0.585885	0.406807	0.574986	0.400795	9.79727	-0.0567196	0.0766754	-0.0250267	-0.00119328	-0.023966	-1.00269	0.340088	-0.137939	-0.552142	0.501014	0.53734	0.394196	9.58091	-1.16375	-0.671607	0.0308651	0.0347045	-0.00255448	-0.906494	0.506348	-0.00561523	0.584686	-0.451585	-0.603013	-0.30098	9.6393	-1.45806	-1.26126	-0.140237	-0.00681089	-0.00351072	-0.968506	0.571777	-0.0664062	
75	-0.473934	0.0797768	0.678277	0.555845	7.41937	6.70659	0.672892	0.0116136	-0.00896882	-0.00121492	-0.817871	-0.393555	-0.262451	-0.678022	0.115853	0.563857	0.457088	8.71623	3.52556	3.3867	-0.0626981	0.015481	-0.0292286	-0.680664	-0.149902	-0.510498	-0.873365	-0.350844	-0.299869	0.155631	-6.66506	5.3611	5.90309	-0.125557	0.014234	0.029311	0.841553	-0.343506	-0.339844	-0.271782	-0.724199	-0.147505	0.616371	-9.63673	1.86071	-1.11741	-0.101543	0.00101388	0.0283937	0.979736	0.074707	-0.25415	-0.71245	-0.599706	-0.272764	0.241594	-6.75301	6.51372	1.42608	0.0270073	-0.0113142	-0.0300229	0.918457	-0.415283	-0.0454102	-0.919799	-0.170272	-0.245269	-0.254599	-4.42451	5.9112	10.2891	0.0661472	0.014118	-0.00490179	0.699463	-0.57373	-0.380371	-0.540176	0.411592	0.585706	0.442437	9.90802	0.87313	-0.00700361	0.0981775	0.0260125	-0.02972	-0.940674	0.297119	-0.0869141	-0.573628	0.411087	0.573349	0.416207	9.99678	-0.13269	0.0777022	0.00153217	0.0485494	-0.0337036	-0.999023	0.327881	-0.132568	-0.585302	0.407474	0.574711	0.401364	9.89403	-0.199968	0.100715	-0.0796698	-0.0082208	-0.0249043	-1.00732	0.340088	-0.146973	-0.551889	0.501131	0.537318	0.394431	9.78517	-1.49801	-0.78414	-0.0190948	-0.00252193	0.00400249	-0.906494	0.50415	-0.00561523	0.584873	-0.451126	-0.603422	-0.300483	9.68701	-1.46684	-1.39852	0.0838871	-0.000386007	-0.0142943	-0.970703	0.567383	-0.0710449	
76	-0.474038	0.0805363	0.678246	0.555684	7.35084	6.52071	0.665311	-0.0130343	-0.0215699	0.0193389	-0.820557	-0.387207	-0.256104	-0.677402	0.11595	0.563768	0.458092	8.66075	3.63205	3.34995	-0.0530099	0.00394285	-0.0579769	-0.68042	-0.154297	-0.512695	-0.873894	-0.35017	-0.299379	0.155124	-6.46252	5.24811	5.8372	0.00478002	-0.0203396	0.018603	0.837158	-0.339111	-0.340088	-0.271782	-0.724087	-0.147226	0.616568	-9.42237	2.0177	-0.646435	0.0213426	0.00615265	0.00209495	0.986328	0.0769043	-0.249756	-0.711802	-0.600506	-0.272674	0.241617	-6.49495	7.66214	1.44629	-0.0436029	0.00911692	0.00702293	0.920898	-0.41748	-0.0410156	-0.920039	-0.16936	-0.244747	-0.254842	-4.2778	5.18618	9.99393	-0.0100581	-0.0114772	-0.00143033	0.695068	-0.569336	-0.384766	-0.540875	0.410512	0.586164	0.441979	9.74791	0.625238	-0.250898	0.0470485	0.0282581	-0.0234945	-0.942383	0.28833	-0.0866699	-0.57383	0.410907	0.573403	0.416032	9.63164	-0.173231	-0.0469319	0.0310394	-0.00495143	-0.0114126	-1.00146	0.334473	-0.130371	-0.585492	0.406946	0.575	0.40121	9.84612	-0.234335	-0.0834427	-0.0377483	0.022749	-0.0189428	-1.00732	0.337646	-0.137939	-0.552459	0.500345	0.537812	0.393956	9.66515	-1.16875	-0.80249	0.052591	0.0219299	-0.0112431	-0.906494	0.50415	-0.0100098	0.584545	-0.451499	-0.603255	-0.300898	9.61732	-1.78536	-1.30833	-0.0321548	0.0079732	-0.00717879	-0.970703	0.567383	-0.0686035	
77	-0.473912	0.0810512	0.677869	0.556176	7.48162	6.55217	0.713287	-0.0411133	-0.00745196	-0.00618137	-0.818115	-0.387207	-0.258301	-0.676478	0.116526	0.563634	0.459475	8.55077	3.64643	3.35353	-0.0726206	-0.022392	-0.0705698	-0.687012	-0.154297	-0.508057	-0.873715	-0.351016	-0.298991	0.154965	-6.61546	5.13244	5.81885	0.0505281	0.0203092	0.0306755	0.833008	-0.345459	-0.342041	-0.271767	-0.724057	-0.14752	0.61654	-9.45811	2.24422	-0.641873	-0.0141747	0.0123589	-0.0162552	0.981934	0.074707	-0.258545	-0.71109	-0.60139	-0.272617	0.241581	-6.68245	6.66193	1.30547	0.148696	0.025043	-0.0226807	0.920654	-0.415283	-0.0410156	-0.919688	-0.171926	-0.244304	-0.254817	-4.20705	5.76157	10.5725	0.0798785	-0.0221273	0.0107462	0.693115	-0.575928	-0.384521	-0.540361	0.410751	0.586573	0.441842	9.90165	0.785115	-0.167812	0.0122929	-0.0208496	-0.0257754	-0.942627	0.292725	-0.0910645	-0.573918	0.41074	0.57394	0.415336	9.9874	0.170228	0.0158541	0.0148762	0.0121932	-0.00777923	-0.999268	0.332031	-0.118652	-0.585933	0.406303	0.575059	0.401132	9.89591	-0.157384	0.108044	0.0175025	0.0262457	-0.0250386	-1.00024	0.337891	-0.142578	-0.552632	0.500067	0.538238	0.393485	9.6981	-1.36469	-0.815539	0.0244692	-0.0120835	-0.0037377	-0.908936	0.508545	-0.0102539	0.58503	-0.450759	-0.603638	-0.300295	9.71007	-1.5334	-1.37496	0.0368739	0.00901067	-0.0103159	-0.9729	0.567383	-0.0664062	
78	-0.473773	0.0813929	0.676823	0.557516	7.36955	6.48821	0.712545	-0.0746098	0.00710766	-0.025952	-0.820312	-0.387207	-0.262695	-0.675107	0.116999	0.563647	0.461351	8.62976	3.50204	3.42515	-0.0578199	0.000974303	-0.0792651	-0.678223	-0.154297	-0.512695	-0.873367	-0.352108	-0.298819	0.154781	-6.57853	5.27682	5.77453	0.0877903	0.0202384	0.0399698	0.833008	-0.347656	-0.335205	-0.270435	-0.72332	-0.149626	0.617483	-9.77015	2.23408	-0.825859	0.00833551	-0.00476387	-0.0909899	0.983643	0.0878906	-0.252197	-0.709342	-0.603099	-0.272715	0.242348	-6.63793	7.52368	1.43773	0.19588	0.0464058	-0.057819	0.923096	-0.419678	-0.0341797	-0.919397	-0.173639	-0.244241	-0.254765	-4.28947	5.76816	10.477	0.131014	-0.019085	0.0212115	0.691162	-0.578125	-0.382324	-0.540766	0.409949	0.587257	0.441184	9.73623	0.550711	-0.398782	0.0543544	0.000423156	-0.0261758	-0.946533	0.286133	-0.0888672	-0.573609	0.410981	0.573954	0.415504	9.83147	-0.0239168	0.219697	0.000518995	0.0108821	-0.0249287	-0.999023	0.327881	-0.125732	-0.586227	0.405927	0.575119	0.400999	9.76731	0.105709	0.255429	0.00389469	0.0137884	-0.0218091	-1.00244	0.335449	-0.140137	-0.553087	0.499556	0.538329	0.39337	9.67023	-1.22006	-0.717025	0.039041	0.0440522	0.00197021	-0.906494	0.50415	-0.0146484	0.584963	-0.450894	-0.6035	-0.3005	9.58505	-1.56209	-1.20995	-0.0163209	0.006807	-0.00315798	-0.970703	0.567383	-0.064209	
79	-0.473613	0.0811387	0.675751	0.558988	7.43052	6.50241	0.819355	-0.0509294	0.0253751	-0.036346	-0.818115	-0.387207	-0.262695	-0.673756	0.117981	0.563974	0.462673	8.36947	3.65294	3.35489	-0.118904	-0.0890699	-0.098995	-0.68457	-0.158691	-0.507812	-0.872874	-0.353316	-0.298726	0.154991	-6.704	5.65005	6.08716	0.0365712	0.0129034	-0.00444096	0.830811	-0.347656	-0.335205	-0.269788	-0.723027	-0.150775	0.617829	-9.86671	2.24013	-0.925282	-0.0207884	0.00403486	-0.107463	0.981201	0.0900879	-0.256592	-0.708893	-0.602984	-0.274476	0.241958	-6.73072	6.89266	1.00943	-0.0612761	0.0618921	-0.0463934	0.925049	-0.41748	-0.0410156	-0.918416	-0.17736	-0.244594	-0.255402	-4.08516	6.41344	10.2872	0.170458	0.0246944	0.0441094	0.691162	-0.580078	-0.380127	-0.540209	0.410463	0.587302	0.441328	9.76437	0.832284	-0.442954	-0.0320473	-0.0297625	-0.01982	-0.942383	0.28833	-0.0888672	-0.573674	0.410794	0.574028	0.415498	9.87231	0.00217733	-0.0855665	0.0176728	0.0221442	-0.0254323	-1.00562	0.332031	-0.123291	-0.585995	0.406269	0.574843	0.401387	9.916	-0.282862	0.0701135	-0.0451323	0.0124207	-0.0198637	-1.00269	0.337646	-0.142578	-0.553381	0.499225	0.538458	0.393201	9.55073	-1.16399	-0.572169	0.0383954	0.022661	-0.000474154	-0.908691	0.50415	-0.0100098	0.585168	-0.450533	-0.603759	-0.300123	9.67487	-1.85388	-1.3828	0.0522416	-9.30491e-05	-0.00887188	-0.968506	0.56958	-0.0664062	
80	-0.473087	0.0817465	0.675238	0.559965	7.19758	6.51093	0.695439	-0.0511997	-0.0379433	-0.0148892	-0.818115	-0.387207	-0.260498	-0.671302	0.1181	0.56532	0.464564	8.95654	3.76985	3.44694	-0.0442367	-0.0319627	-0.119171	-0.68457	-0.158691	-0.507812	-0.872362	-0.353861	-0.299564	0.155012	-6.3787	5.43436	6.13967	0.0566583	0.0511705	-0.00711154	0.839355	-0.343506	-0.333008	-0.26901	-0.722065	-0.152876	0.618777	-9.62274	1.74316	-0.979666	-0.0475903	-0.0218194	-0.0709644	0.983398	0.0900879	-0.256592	-0.707151	-0.604443	-0.274817	0.243027	-6.65717	7.15288	1.30929	0.131328	0.0219613	-0.0639375	0.923096	-0.41748	-0.036377	-0.918004	-0.178008	-0.24534	-0.255714	-4.27684	6.2226	10.0765	0.0308286	0.0341934	-0.0142436	0.693604	-0.584473	-0.38208	-0.540768	0.409223	0.587749	0.4412	9.91674	0.793063	-0.0691707	0.0602333	0.0438706	-0.0452775	-0.940186	0.286377	-0.0910645	-0.573992	0.410195	0.574387	0.415154	9.88425	-0.136306	0.226921	0.0496249	0.00351838	-0.0195857	-1.00977	0.327881	-0.125732	-0.586637	0.405409	0.575266	0.400711	10.0085	-0.128976	0.0797827	0.0537267	0.0190885	-0.0169271	-1.00952	0.337646	-0.142578	-0.553497	0.499009	0.538559	0.393173	9.82337	-1.26666	-0.741236	0.0199528	0.0184499	-0.00617091	-0.910889	0.50415	-0.0100098	0.585583	-0.44988	-0.604031	-0.299744	9.72275	-1.43009	-1.35536	0.00525041	0.0148688	-0.00962628	-0.975098	0.564941	-0.0732422	
81	-0.472441	0.0818477	0.675331	0.560383	7.36596	6.50688	0.681479	-0.0258371	-0.04374	-0.0426597	-0.818115	-0.389404	-0.260498	-0.670059	0.119043	0.565514	0.465879	8.52701	3.57714	3.25363	-0.0483714	-0.0630524	-0.0427626	-0.682373	-0.163086	-0.50293	-0.872736	-0.352598	-0.300051	0.154841	-6.31597	5.50818	6.03552	-0.0844243	0.00114363	-0.0115556	0.834961	-0.339111	-0.330811	-0.270103	-0.720959	-0.154055	0.619298	-9.49226	1.98755	-0.88175	-0.0825471	-0.0327575	-0.00723494	0.985596	0.0922852	-0.256592	-0.706031	-0.605018	-0.27566	0.243895	-6.53418	7.32682	0.906755	-0.00475436	0.0213273	-0.052014	0.925049	-0.413086	-0.0385742	-0.917801	-0.179629	-0.246062	-0.254614	-3.93708	6.25703	9.82479	0.0479357	0.0256366	-0.0393798	0.693359	-0.580078	-0.380127	-0.54033	0.409705	0.587775	0.441255	9.59906	0.55152	-0.495247	-0.0220855	-0.0373258	-0.0141738	-0.940186	0.28833	-0.0932617	-0.573582	0.410391	0.574917	0.414794	9.76461	0.231292	0.0625597	-0.00861564	-0.0253911	-0.0251426	-1.00562	0.330078	-0.123291	-0.586716	0.405303	0.575023	0.401052	9.86822	-0.0993031	0.151476	-0.00853981	0.0194558	-0.0264585	-1.00024	0.337891	-0.151367	-0.553542	0.498845	0.538462	0.393451	9.5521	-1.25155	-0.708467	0.0127659	0.0362265	-0.00176163	-0.908691	0.50415	-0.0100098	0.585674	-0.449704	-0.60405	-0.299793	9.56637	-1.73834	-1.3775	0.0324845	0.0114434	-0.00998166	-0.970703	0.56958	-0.0710449	
82	-0.472219	0.0816267	0.675408	0.560509	7.40405	6.69063	0.746949	0.0077208	0.00993015	0.00831559	-0.824707	-0.389404	-0.260498	-0.668997	0.120781	0.565665	0.466774	8.71001	3.71672	3.30704	-0.0633081	-0.0317206	-0.0130882	-0.691162	-0.158691	-0.503174	-0.873383	-0.351142	-0.300241	0.15413	-6.49087	5.52282	6.02431	-0.135458	0.00415477	0.0186926	0.834961	-0.341309	-0.342285	-0.272302	-0.719772	-0.155108	0.619452	-9.57229	1.72404	-0.968941	-0.0948823	-0.0248652	0.0234353	0.979004	0.0922852	-0.252197	-0.706173	-0.604755	-0.275447	0.244379	-6.92247	6.60391	1.02763	0.0479862	-0.0190158	-0.0317288	0.922852	-0.415283	-0.036377	-0.917851	-0.179619	-0.246425	-0.254088	-4.29964	6.41886	10.0733	0.00141782	0.0288516	-0.0478777	0.693359	-0.582275	-0.382324	-0.540068	0.410112	0.587599	0.441431	9.9648	0.986732	-0.077302	0.00476959	0.0254982	-0.00983904	-0.942383	0.290527	-0.0888672	-0.573389	0.410693	0.574253	0.415681	9.85849	-0.169422	0.0852305	-0.0365841	0.0393484	-0.0233128	-1.00562	0.329834	-0.121094	-0.586768	0.404931	0.575249	0.401028	9.89687	-0.192985	0.175128	0.0395993	0.00848715	-0.0312897	-1.00269	0.337646	-0.142578	-0.553481	0.498731	0.538904	0.393076	9.79581	-1.54088	-0.867157	-0.00700784	-0.0136419	-0.00144565	-0.911133	0.506348	-0.0078125	0.585873	-0.449172	-0.604335	-0.299629	9.71953	-1.48208	-1.24215	0.0152922	0.00944611	-0.0160719	-0.975098	0.564941	-0.0732422	
83	-0.472689	0.0827964	0.675329	0.560036	7.22164	6.57645	0.772779	-0.0129744	-0.0315441	0.0473485	-0.816162	-0.38501	-0.258301	-0.668266	0.121372	0.565752	0.467562	8.6636	3.68671	3.40732	-0.0459369	0.00072063	-0.0455875	-0.688965	-0.160889	-0.505371	-0.874316	-0.348887	-0.300156	0.154129	-6.47132	5.34855	5.86416	-0.0143312	-0.0141743	-0.0301842	0.839355	-0.341309	-0.337646	-0.273237	-0.719384	-0.154506	0.619641	-9.44606	1.77005	-0.685926	0.00700823	-0.0144343	0.0332444	0.983154	0.0966797	-0.26123	-0.705493	-0.605231	-0.274779	0.245911	-6.39444	7.17783	1.27775	0.00714309	-0.0259295	-0.0313604	0.922607	-0.406494	-0.0385742	-0.918487	-0.178165	-0.245983	-0.253243	-4.19508	5.61546	9.93526	-0.0451309	-0.00721006	-0.0605728	0.693359	-0.577881	-0.380127	-0.540698	0.409435	0.587707	0.441144	9.75663	0.64016	-0.171692	0.0328133	0.0187833	-0.0178086	-0.94043	0.294922	-0.0847168	-0.573181	0.410722	0.574743	0.415262	9.92056	0.0974146	0.179284	0.03826	-0.00763583	-0.0169015	-1.00342	0.332275	-0.128174	-0.586472	0.40536	0.574819	0.401643	9.90749	-0.203446	-0.000427395	-0.0302971	0.0159458	-0.019722	-1.00269	0.337891	-0.146973	-0.554204	0.498206	0.538729	0.392964	9.77219	-0.908971	-0.527369	0.0117829	0.0483148	0.00874268	-0.90625	0.499756	-0.0100098	0.585891	-0.448846	-0.604632	-0.299483	9.63616	-1.46465	-1.3408	0.0573117	-0.00102109	-0.0147771	-0.970459	0.565186	-0.0710449	
84	-0.472514	0.0839696	0.675212	0.56015	7.34985	6.62716	0.809573	-0.0342545	-0.0290346	0.0154039	-0.824951	-0.382812	-0.262695	-0.667315	0.122097	0.565682	0.468814	8.56322	3.71056	3.38556	-0.0656237	-0.00325947	-0.0667052	-0.690918	-0.163086	-0.500488	-0.875296	-0.346993	-0.299691	0.153749	-6.64156	5.32531	6.04349	-0.105879	-0.0313824	0.0118389	0.837158	-0.339111	-0.342285	-0.274669	-0.71914	-0.155083	0.619148	-9.59251	2.14311	-0.494741	-0.104802	0.0261579	0.0185027	0.97876	0.0966797	-0.259033	-0.705862	-0.604878	-0.274451	0.246086	-6.89	7.02343	1.11421	-0.0279203	-0.0348293	-0.00740123	0.922607	-0.408936	-0.0317383	-0.918811	-0.178909	-0.245555	-0.251955	-4.2138	5.92276	10.113	0.0181981	-0.0124142	-0.0623728	0.689209	-0.582275	-0.380127	-0.540519	0.409848	0.587178	0.441685	9.83592	0.846801	-0.0745451	0.00626644	0.0392276	-0.0186962	-0.940186	0.28833	-0.0910645	-0.573413	0.410295	0.575007	0.414997	9.76396	0.0925322	-0.0265958	0.0100183	0.0138151	-0.0269978	-1.00562	0.330078	-0.125732	-0.58677	0.404813	0.575195	0.401221	9.81689	-0.000551443	0.244025	0.0301801	0.00229228	-0.0213832	-1.00488	0.333252	-0.140137	-0.553648	0.498564	0.538747	0.393267	9.62165	-1.20449	-0.864038	-0.0468249	-0.0213805	-0.0107619	-0.910889	0.50415	-0.0168457	0.585654	-0.449112	-0.604493	-0.299827	9.68964	-1.87019	-1.43979	-2.21777e-05	0.0113081	-0.00694997	-0.968262	0.565186	-0.0710449	
85	-0.471988	0.0861137	0.674639	0.560958	7.33842	6.49439	0.799506	-0.0883658	-0.060963	0.0369514	-0.824951	-0.382812	-0.258301	-0.666579	0.123129	0.565637	0.469644	8.55595	3.71023	3.39112	-0.060259	-0.00580716	-0.0122311	-0.691162	-0.158691	-0.503174	-0.875395	-0.346834	-0.299406	0.154093	-6.10289	5.19425	6.08605	0.0498518	-0.00367174	-0.0148612	0.834961	-0.339111	-0.342285	-0.274634	-0.71929	-0.155366	0.618918	-9.42877	2.26936	-0.930168	0.0503326	0.0192049	-0.00222202	0.97876	0.0966797	-0.254639	-0.704731	-0.606288	-0.273396	0.247028	-6.7523	7.2844	1.03797	0.0163307	-0.000410702	-0.00988262	0.92041	-0.408936	-0.0317383	-0.918895	-0.18	-0.245417	-0.251005	-4.1978	6.01706	10.2687	0.0726535	-0.00675528	-0.0246702	0.690918	-0.571533	-0.380371	-0.540419	0.409971	0.587101	0.441796	9.78996	0.712774	-0.177784	-0.023388	-0.00871025	-0.00915179	-0.940186	0.290527	-0.0869141	-0.573084	0.410857	0.574523	0.415565	9.89703	0.263585	0.191779	-0.0599035	0.0246391	-0.00908249	-1.00757	0.327881	-0.123291	-0.586341	0.405395	0.574974	0.401577	9.84929	-0.197481	0.117836	-0.00689466	0.0012712	-0.0192396	-1.00708	0.335449	-0.142334	-0.553434	0.498761	0.53855	0.393588	9.75701	-1.314	-0.758413	0.0344766	0.0402768	-0.00204898	-0.91333	0.50415	-0.0124512	0.585478	-0.449552	-0.604111	-0.30028	9.66477	-1.46479	-1.33703	-0.0838925	0.0159983	0.00319742	-0.970459	0.562988	-0.0754395	
