40	Head	00b4120a												Throax	00b411e8												LUpArm	00b411d9												LFoArm	00b41148												RUpArm	00b411db												RFoArm	00b41204												Waist	00b411f7												Lthigh	00b411f4												Lshank	00b4111b												Rthigh	00b411c8												Rshank	00b411ee												
PacketCount	q0	q1	q2	q3	accX	accY	accZ	gyrX	gyrY	gyrZ	magX	magY	magZ	q0	q1	q2	q3	accX	accY	accZ	gyrX	gyrY	gyrZ	magX	magY	magZ	q0	q1	q2	q3	accX	accY	accZ	gyrX	gyrY	gyrZ	magX	magY	magZ	q0	q1	q2	q3	accX	accY	accZ	gyrX	gyrY	gyrZ	magX	magY	magZ	q0	q1	q2	q3	accX	accY	accZ	gyrX	gyrY	gyrZ	magX	magY	magZ	q0	q1	q2	q3	accX	accY	accZ	gyrX	gyrY	gyrZ	magX	magY	magZ	q0	q1	q2	q3	accX	accY	accZ	gyrX	gyrY	gyrZ	magX	magY	magZ	q0	q1	q2	q3	accX	accY	accZ	gyrX	gyrY	gyrZ	magX	magY	magZ	q0	q1	q2	q3	accX	accY	accZ	gyrX	gyrY	gyrZ	magX	magY	magZ	q0	q1	q2	q3	accX	accY	accZ	gyrX	gyrY	gyrZ	magX	magY	magZ	q0	q1	q2	q3	accX	accY	accZ	gyrX	gyrY	gyrZ	magX	magY	magZ	
0	0.50841	-0.489402	-0.479482	-0.521634	9.83336	-0.107019	0.458153	-0.0631083	-0.0579133	-0.0136203	-0.878418	0.419189	-0.0581055	0.4045	-0.569899	-0.630358	-0.337999	8.67336	-0.351896	-4.64467	-0.0347549	0.0393844	-0.0134135	-0.733887	0.353027	0.458496	0.773028	0.0909061	-0.102445	-0.61941	0.579428	2.71397	10.4568	-0.0515243	-0.0235776	-0.0158741	-0.0141602	0.0441895	-1.04614	0.759219	0.0459681	-0.0198187	-0.648907	-0.21492	0.813733	9.86594	0.028172	-0.0076988	-0.021771	0.148193	0.41333	-0.954102	0.747255	0.0279079	-0.0286318	-0.663333	0.111573	0.910608	9.87815	0.0512397	-0.0122769	-0.0303874	0.0979004	0.324707	-0.951172	0.782944	0.135351	-0.0669029	-0.603493	-0.104403	2.81107	13.0705	-0.00191053	-0.00334398	-0.025573	0.177979	0.158447	-1.05786	0.265483	-0.636407	-0.689234	-0.222398	6.0302	-0.386817	-6.85437	0.0443341	-0.0692303	-0.013451	-0.648926	0.402588	0.696289	0.772784	-0.103698	-0.111948	-0.616051	3.31835	-0.410221	10.5529	-0.112603	0.0630143	-0.0333082	-0.193848	0.390381	-0.966064	0.451071	-0.517263	-0.669007	-0.285311	8.61376	-1.06168	-4.09119	0.0181947	0.0101088	-0.0176269	-0.932129	0.43042	0.280273	0.733695	-0.0541546	-0.186945	-0.651007	3.66987	1.49144	9.66526	0.00178523	0.0163932	-0.0140953	-0.259766	0.209473	-0.998535	-0.367044	0.575558	0.656375	0.321223	8.39912	-0.298474	-5.16101	0.0251954	0.0154683	-0.0255972	-0.920166	0.490967	0.463379	
1	0.507689	-0.489856	-0.479851	-0.521571	9.92307	-0.0714256	0.415279	-0.028397	-0.0673245	-0.0266092	-0.882812	0.418945	-0.0495605	0.404223	-0.56974	-0.630356	-0.338602	9.02631	-0.291864	-4.11504	-0.00768408	0.0969059	-0.0335255	-0.738281	0.355225	0.456055	0.77236	0.0938189	-0.105249	-0.619339	0.579499	3.50056	10.6309	0.195879	-0.00937539	-0.0287701	-0.0119629	0.0356445	-1.05298	0.758746	0.0461787	-0.0205389	-0.649423	-0.269183	1.15024	9.96659	-0.00990868	-0.018599	-0.0157163	0.148193	0.408936	-0.953857	0.747236	0.0269999	-0.0285069	-0.663398	0.0730711	0.488701	9.82921	-0.0378555	-0.0113641	-0.00879527	0.0996094	0.331299	-0.953613	0.782718	0.135904	-0.068272	-0.603508	-0.172222	2.88724	13.1714	0.0939551	-0.0229399	-0.0323698	0.171875	0.151855	-1.05762	0.265314	-0.636674	-0.689491	-0.221033	6.269	-0.172276	-7.26245	0.0224603	-0.0102013	0.00932681	-0.640625	0.411377	0.696045	0.773001	-0.102682	-0.113039	-0.61575	3.53914	-0.180061	10.4768	0.0867823	-0.00180176	-0.00837618	-0.191895	0.394775	-0.970703	0.450972	-0.516859	-0.669336	-0.28543	8.60458	-0.70551	-4.06393	0.00829418	0.00222362	-0.0301254	-0.936768	0.430176	0.282471	0.734163	-0.0534976	-0.186675	-0.650611	3.66636	1.96695	9.69033	-0.00946777	0.033685	0.0219278	-0.266602	0.213867	-1.00098	-0.367391	0.574931	0.656917	0.320841	8.39035	0.293425	-5.0955	-0.00745044	0.00685959	-0.0191795	-0.924316	0.481934	0.46582	
2	0.50763	-0.489811	-0.480537	-0.521039	10.0521	0.0109186	0.425102	0.0430789	5.05349e-05	-0.0030948	-0.882812	0.421143	-0.0559082	0.404135	-0.570201	-0.629626	-0.339289	8.66455	-0.395352	-4.18779	-0.0704818	0.0258627	0.00440963	-0.733887	0.35083	0.456299	0.772117	0.092251	-0.104558	-0.619994	0.629842	2.76385	10.4227	-0.0732774	-0.00902597	-0.0115628	-0.0100098	0.0397949	-1.04834	0.758391	0.0461	-0.0208359	-0.649833	-0.189965	0.984956	9.9721	0.030637	0.00273845	-0.0272424	0.152588	0.411133	-0.953857	0.747166	0.0283002	-0.029587	-0.663375	0.112269	1.29674	9.7962	0.0361285	0.016543	-0.0199867	0.0932617	0.329102	-0.951172	0.782824	0.135224	-0.0681159	-0.60354	0.0209859	2.82647	13.2521	-0.0589871	0.0190283	-0.00746669	0.169678	0.154053	-1.06201	0.265753	-0.636842	-0.68882	-0.222113	5.77157	-0.535465	-6.92969	0.0082985	0.023058	-0.00700515	-0.642578	0.406982	0.696289	0.773183	-0.102892	-0.112498	-0.615586	3.51961	-0.241997	10.5868	-0.0412132	0.0335926	-0.00606728	-0.189697	0.392334	-0.963623	0.450562	-0.516542	-0.669746	-0.28569	8.59013	-0.969751	-4.20972	0.0440435	-0.000693847	-0.0497623	-0.93457	0.43042	0.278076	0.733475	-0.0537103	-0.186262	-0.651488	3.56094	1.68398	9.63157	-0.00708157	0.0136178	-0.0572445	-0.266357	0.209473	-0.996338	-0.366818	0.575551	0.656318	0.321608	8.31378	0.188713	-5.09455	-0.0403692	0.00828556	0.0184476	-0.922119	0.484131	0.470215	
3	0.508828	-0.488909	-0.480754	-0.520517	9.73042	0.198771	0.547067	0.0546532	0.0189684	0.018139	-0.878418	0.419189	-0.0581055	0.404728	-0.570456	-0.628859	-0.339576	8.72149	-0.479839	-4.32787	0.00872247	0.0281541	0.0133289	-0.740234	0.348633	0.463379	0.771997	0.0935629	-0.105413	-0.619803	0.456224	3.22751	10.6004	0.0525968	0.00958674	0.00478128	-0.0141602	0.0334473	-1.04834	0.757709	0.0459196	-0.0203422	-0.650658	-0.317311	0.956748	9.90515	-0.0170201	0.0112576	-0.0436937	0.150391	0.411133	-0.953857	0.747007	0.0270274	-0.0280425	-0.663674	0.0509281	0.542432	9.72744	-0.046156	0.0258416	-0.0303076	0.0976562	0.331299	-0.948975	0.783094	0.135804	-0.0676724	-0.60311	-0.0782891	2.98521	13.1901	0.0162976	0.0551191	-0.00665563	0.171631	0.154053	-1.05981	0.266217	-0.636673	-0.689457	-0.220056	6.09439	-0.221231	-7.29461	0.100003	0.0007736	-0.0134463	-0.638672	0.411377	0.696045	0.773534	-0.102854	-0.11288	-0.61508	3.67793	-0.257522	10.329	0.0358187	0.017843	0.01232	-0.193848	0.390381	-0.966064	0.450451	-0.51591	-0.670224	-0.285884	8.56149	-0.81424	-4.07057	-0.0257542	0.00615924	-0.061179	-0.936768	0.427979	0.282471	0.732199	-0.0536811	-0.186359	-0.652896	3.8724	1.73137	9.64147	-0.017734	0.00353364	-0.074604	-0.261719	0.207275	-1.00073	-0.366895	0.57656	0.655423	0.321539	8.35717	-0.0576716	-5.27458	-0.0298587	0.0115483	0.0410202	-0.920166	0.48877	0.470215	
4	0.509976	-0.48904	-0.48034	-0.519651	9.74292	0.139964	0.605733	0.018112	0.00920291	0.0536138	-0.878418	0.421387	-0.0581055	0.405315	-0.571032	-0.62811	-0.339294	8.64942	-0.222683	-4.31221	0.0279169	0.0319441	0.0132439	-0.736328	0.357422	0.448975	0.772275	0.0920561	-0.103856	-0.619944	0.576804	3.0414	10.2407	-0.107331	0.023181	-0.00656552	-0.0078125	0.0441895	-1.04639	0.757408	0.0445919	-0.018943	-0.651142	-0.143598	0.799915	9.74556	-0.0776259	0.017633	-0.0160836	0.152588	0.41333	-0.949707	0.746767	0.0275147	-0.0279529	-0.663929	0.160243	0.73245	9.72963	0.0239144	0.0370273	-0.0440726	0.0932617	0.326904	-0.948975	0.783327	0.135581	-0.0668403	-0.60295	-0.106591	2.9253	13.076	-0.0508009	0.0601437	-0.00924428	0.176025	0.151855	-1.05762	0.265161	-0.636838	-0.689531	-0.22062	5.72571	-0.244106	-6.8878	-0.0585689	-0.0178789	-0.0322162	-0.638428	0.406982	0.691895	0.774131	-0.10204	-0.113051	-0.614433	3.49894	-0.0681558	10.6099	0.0383531	0.0152926	0.00780264	-0.185547	0.394531	-0.963867	0.450323	-0.515194	-0.670707	-0.286244	8.63567	-0.489475	-4.24169	0.00693922	0.0158211	-0.0470279	-0.939209	0.427979	0.275879	0.731436	-0.0534011	-0.186272	-0.653798	3.75771	1.63759	9.63108	-0.0141856	0.0363599	-0.0411599	-0.261719	0.205078	-0.989258	-0.367253	0.577119	0.654684	0.321633	8.36528	-0.0400202	-5.11348	0.0178083	0.0238724	0.0263521	-0.915527	0.486572	0.465576	
5	0.510355	-0.48913	-0.479989	-0.519519	9.77879	0.0941521	0.68235	0.00224533	0.0168084	0.0363477	-0.883057	0.42334	-0.0581055	0.405346	-0.57135	-0.627754	-0.339379	8.59632	-0.253767	-4.13945	-0.0308627	0.0208078	0.0112356	-0.733643	0.348633	0.45166	0.772393	0.0917367	-0.103059	-0.619978	0.711761	2.74694	10.114	-0.0568622	0.0386035	-0.00226521	-0.0141602	0.0441895	-1.04858	0.757267	0.0447717	-0.0185644	-0.651305	-0.106562	0.773177	9.60587	-0.0072981	0.0375999	-0.0189219	0.154541	0.415527	-0.949707	0.746522	0.0275966	-0.0269917	-0.66424	0.135082	0.769157	9.63116	-0.058782	0.0406541	-0.0245463	0.104004	0.331299	-0.955811	0.783277	0.135629	-0.0657872	-0.60312	-0.0611097	2.83721	12.985	-0.0194269	0.0448451	-0.0430083	0.18042	0.154053	-1.05981	0.264404	-0.636993	-0.689955	-0.219754	5.76703	-0.485211	-7.16958	0.0270461	-0.0872137	-0.0247119	-0.63623	0.404785	0.702637	0.774279	-0.10142	-0.113968	-0.614181	3.72363	-0.0597918	10.5231	0.0903906	-0.00878757	-0.00971967	-0.195801	0.385986	-0.96582	0.450476	-0.515134	-0.670582	-0.286405	8.64127	-0.468117	-4.22909	0.000884199	0.0278182	-0.0184384	-0.93457	0.43042	0.275879	0.731183	-0.0529243	-0.185714	-0.654279	3.47484	1.69751	9.56434	-0.00947455	0.0695707	-0.0447045	-0.263916	0.205078	-1.00073	-0.367178	0.57751	0.65426	0.321879	8.39657	0.112256	-4.95511	-0.0362143	0.0164257	0.0261038	-0.917725	0.486572	0.472412	
6	0.510426	-0.49061	-0.479107	-0.518868	9.52142	-0.0558395	0.678757	-0.0215256	-0.0706182	0.0468083	-0.876465	0.425537	-0.0581055	0.405036	-0.572421	-0.628387	-0.336763	9.16961	-0.492262	-4.36499	-0.0500143	-0.0296396	0.00368406	-0.736328	0.357422	0.458496	0.771704	0.0945151	-0.105113	-0.620073	0.610807	3.2212	10.4331	0.0906727	-0.0271503	-0.0183411	-0.0119629	0.0356445	-1.04614	0.756822	0.0458591	-0.0189819	-0.651734	-0.346313	1.12829	9.59844	0.0223324	-0.0124818	-0.0196051	0.148193	0.41333	-0.954102	0.746362	0.0263099	-0.0252418	-0.664541	0.0241933	0.823868	9.73663	-0.106832	0.0158246	-0.0343237	0.0996094	0.335693	-0.951172	0.783434	0.134253	-0.0638784	-0.603429	-0.165882	2.6199	12.8491	-0.0845253	0.0349215	-0.0323298	0.180176	0.160645	-1.06006	0.263325	-0.636891	-0.69197	-0.214962	6.0273	0.0263292	-7.1571	0.108663	-0.0745203	-0.0438958	-0.634033	0.40918	0.702637	0.773926	-0.0999927	-0.113896	-0.614872	3.10602	-0.237925	10.5	0.0674331	0.0775059	-0.00946502	-0.19165	0.388184	-0.970703	0.450945	-0.515047	-0.670148	-0.286839	8.57942	-1.05518	-4.00251	0.0256744	0.0129725	-0.038821	-0.934082	0.421143	0.27832	0.729255	-0.0525913	-0.185917	-0.656396	3.98287	1.33926	9.71373	0.0363685	-0.042125	-0.0726494	-0.263916	0.205078	-0.996094	-0.3668	0.57965	0.652265	0.322511	8.34768	-0.843705	-5.33373	0.00694681	0.0117697	0.0360452	-0.920166	0.493164	0.472412	
7	0.509227	-0.493018	-0.479864	-0.517061	9.99378	-0.0820233	0.458576	-0.0268251	-0.124733	0.0332566	-0.881104	0.429932	-0.0495605	0.405812	-0.571924	-0.628442	-0.336571	8.84561	0.0797839	-4.14109	0.0775202	-0.0351677	-0.0285702	-0.731934	0.357422	0.456055	0.771641	0.0938561	-0.10508	-0.620257	0.511414	3.33942	10.3793	-0.0400981	-0.0275295	-0.0115527	-0.0141602	0.0378418	-1.05054	0.756714	0.0446458	-0.0188122	-0.651949	-0.303432	1.06765	9.71436	-0.0809439	-0.0473841	-0.0172364	0.148193	0.41333	-0.951904	0.746239	0.0249044	-0.0245173	-0.66476	0.321111	0.64739	9.80961	-0.0206382	-0.0209277	-0.0232001	0.097168	0.342285	-0.948975	0.783264	0.133149	-0.0638536	-0.603897	0.0242112	2.63072	12.935	-0.0226197	-0.0257525	-0.0371468	0.177979	0.160645	-1.06006	0.262213	-0.636803	-0.692317	-0.21546	6.12039	0.211449	-6.71961	-0.0619381	-0.0313807	-0.0689222	-0.63208	0.411377	0.702637	0.774786	-0.0990573	-0.115451	-0.613649	3.93222	0.200913	10.6447	0.0358149	-0.0341201	0.017175	-0.184814	0.381592	-0.970459	0.451126	-0.514546	-0.670372	-0.286932	8.69184	-0.649797	-4.20098	0.0308918	0.0244163	-0.0534545	-0.938965	0.425537	0.284912	0.72967	-0.0496652	-0.186023	-0.656133	3.25965	1.98165	9.99955	0.0617491	0.08642	0.00885526	-0.263672	0.200684	-1.00293	-0.367951	0.579644	0.652056	0.321633	8.35762	0.462148	-5.08309	-0.062985	0.0132759	0.0241064	-0.915527	0.490967	0.463379	
8	0.508528	-0.493701	-0.480098	-0.51688	10.0336	-0.112092	0.381933	-0.0379631	-0.0747875	-0.00665625	-0.874512	0.432129	-0.045166	0.406558	-0.571448	-0.627948	-0.337401	8.60992	-0.248852	-4.14477	-0.0122565	0.117259	-0.0273815	-0.731934	0.359619	0.448975	0.772251	0.0906809	-0.103458	-0.620243	0.615003	2.90741	10.1845	-0.138783	-0.0235114	0.021706	-0.0144043	0.048584	-1.04858	0.756189	0.0439737	-0.0191861	-0.652593	-0.255388	0.891604	9.60763	0.0225511	-0.0130861	-0.0397096	0.143555	0.413086	-0.94751	0.746296	0.0240778	-0.0252443	-0.664699	-0.161647	0.595722	9.72405	0.00340041	-0.0328996	-0.00296252	0.097168	0.340088	-0.946777	0.783001	0.132616	-0.0655109	-0.604177	-0.285788	2.70184	13.1828	0.0484372	-0.0534389	-0.027178	0.167236	0.160645	-1.05566	0.262188	-0.636878	-0.692387	-0.215041	5.91643	-0.835238	-7.3568	0.0703697	-0.0187158	-0.00578043	-0.634033	0.406982	0.700439	0.774673	-0.0994301	-0.114996	-0.613817	4.17297	-0.0127393	10.4449	-0.0451464	0.028442	-0.0287682	-0.194092	0.392334	-0.968506	0.451494	-0.514125	-0.67023	-0.287439	8.642	-0.652841	-4.13016	0.0178661	0.0312568	-0.0204879	-0.936768	0.425781	0.273682	0.729169	-0.0503594	-0.185605	-0.656755	3.23173	1.999	9.63888	-0.0735646	-0.00311463	-0.0490114	-0.261719	0.207275	-1.00537	-0.366486	0.580849	0.650831	0.323607	8.46523	-0.261052	-5.26624	-0.235572	0.0265272	0.0194164	-0.915527	0.48877	0.463379	
9	0.508163	-0.493565	-0.480175	-0.517297	9.76966	-0.123614	0.480269	0.00372415	0.0153451	-0.0137386	-0.876709	0.429932	-0.045166	0.406127	-0.572141	-0.628203	-0.336269	8.68591	-0.50362	-4.19479	0.0387425	-0.0287437	0.00717822	-0.731934	0.359619	0.458252	0.772517	0.0912128	-0.104669	-0.619631	0.484427	3.23254	10.4183	0.100942	0.000900166	0.0116717	-0.0163574	0.0422363	-1.05078	0.755598	0.0428029	-0.0189387	-0.653361	-0.308802	0.936048	9.80663	-0.0648524	-0.022972	-0.0280302	0.143311	0.421875	-0.94751	0.746299	0.0247019	-0.0261379	-0.664639	0.0734695	0.872848	9.73694	0.0171714	0.00561184	-0.0187879	0.0930176	0.337891	-0.951172	0.783245	0.131921	-0.0655745	-0.604006	-0.0389125	2.70007	13.1544	-0.0484571	0.012806	-0.0045624	0.173584	0.162842	-1.06006	0.262561	-0.636434	-0.692804	-0.21456	5.63228	0.165143	-7.02137	0.0243689	0.00603905	-0.0284676	-0.634033	0.40918	0.704834	0.774653	-0.0992155	-0.114041	-0.614056	2.83209	-0.150193	10.5135	0.0430566	0.0375853	-0.00963822	-0.193848	0.385986	-0.9729	0.452016	-0.514002	-0.669874	-0.287668	8.64264	-0.543346	-4.11769	-0.00530367	0.037104	-0.0124074	-0.936523	0.42334	0.275879	0.729292	-0.0515504	-0.18511	-0.656666	4.3858	1.14004	9.19431	0.0466031	0.0220156	0.0469593	-0.259521	0.205078	-0.996094	-0.368523	0.579532	0.651447	0.322413	8.36885	0.0437436	-4.98011	0.18753	0.038687	-0.0109751	-0.917969	0.490967	0.463379	
10	0.508874	-0.493403	-0.480769	-0.516199	9.67963	0.0500192	0.491453	0.0606107	-0.0377698	0.0371533	-0.878906	0.429932	-0.0473633	0.406231	-0.57195	-0.628594	-0.335736	8.67358	-0.487585	-4.56962	-0.00281726	-0.00824988	-0.0240579	-0.729736	0.355225	0.453613	0.772308	0.0902622	-0.104628	-0.620038	0.70099	2.74215	10.3843	-0.0540584	-0.0275674	-0.0253428	-0.0144043	0.048584	-1.04858	0.75562	0.0420612	-0.0191556	-0.653378	-0.0905098	0.876941	9.7256	0.00690688	-0.0165844	0.000889857	0.143066	0.424316	-0.956299	0.746168	0.023916	-0.025737	-0.66483	0.218469	0.653442	9.84971	-0.0344396	-0.00565262	-0.015975	0.0908203	0.335693	-0.951172	0.783561	0.131447	-0.0653746	-0.603722	-0.0664976	2.61879	13.1291	-0.00385723	0.00161625	-0.00235758	0.166992	0.165039	-1.05786	0.262561	-0.636333	-0.693272	-0.213347	6.05429	-0.75039	-7.29983	0.0627822	-0.00331386	-0.0255611	-0.627686	0.40918	0.704834	0.774528	-0.0986952	-0.114578	-0.614197	3.94192	0.0722982	10.4211	-0.033516	0.0389093	-0.0529662	-0.187256	0.383789	-0.96582	0.452199	-0.51461	-0.668892	-0.288577	8.65126	-0.80304	-3.76983	-0.0176629	0.0342356	0.0075644	-0.936768	0.430176	0.275879	0.729996	-0.0475648	-0.186278	-0.655853	2.83533	1.89117	9.7526	0.121614	0.0599817	-0.0153365	-0.263672	0.198486	-1.00293	-0.368003	0.57992	0.650816	0.323582	8.32991	-0.0686895	-5.13321	-0.164148	0.0227461	-0.00339962	-0.915527	0.48877	0.465576	
11	0.509388	-0.494396	-0.48123	-0.51431	9.91751	0.0127963	0.452682	0.0189601	-0.0646456	0.0591845	-0.876953	0.434326	-0.0495605	0.406362	-0.571651	-0.62895	-0.335421	8.81352	-0.349152	-4.28585	0.031926	0.0368637	-0.0317313	-0.731934	0.359619	0.453613	0.772069	0.0908745	-0.105661	-0.620071	0.707371	3.16257	10.5367	0.0358809	-0.0108316	-0.00509531	-0.0166016	0.048584	-1.04858	0.755199	0.0403338	-0.0186056	-0.653989	-0.165126	0.816745	10.0733	-0.100625	-0.0289646	-0.0386837	0.143311	0.422119	-0.956299	0.745905	0.023334	-0.0260202	-0.665135	0.133571	0.189845	9.76104	0.0284656	-0.0134106	-0.0368254	0.088623	0.335693	-0.944336	0.783373	0.13186	-0.0674297	-0.60365	-0.0158699	2.8932	13.192	0.0703443	-0.0429185	-0.0297313	0.171387	0.160645	-1.05786	0.263491	-0.635652	-0.693169	-0.214559	5.86847	-0.042537	-7.08022	0.0013581	0.0807639	-0.033888	-0.631836	0.406982	0.702637	0.774475	-0.098155	-0.114082	-0.614442	2.96558	-0.114152	10.5953	0.0414575	0.0179801	-0.000993623	-0.193848	0.385986	-0.968262	0.452817	-0.514526	-0.668789	-0.287995	8.69688	-0.720652	-4.11922	0.0431774	0.0172377	-0.000976073	-0.946289	0.432373	0.273438	0.729973	-0.0470174	-0.186661	-0.65581	4.0652	2.16087	9.55195	-0.00532497	0.00507963	0.023871	-0.259277	0.198486	-0.996094	-0.369272	0.579359	0.65099	0.322791	8.46677	0.158551	-4.94541	0.121436	0.0225145	0.00891754	-0.918213	0.497559	0.460938	
12	0.508698	-0.49581	-0.480873	-0.513965	9.96921	-0.167733	0.331872	-0.0585232	-0.0352585	0.0106093	-0.874756	0.434326	-0.0410156	0.406421	-0.571267	-0.629434	-0.335096	8.84041	-0.283607	-4.28699	0.0374268	-0.0045362	-0.0484282	-0.729736	0.355225	0.456055	0.772528	0.0896486	-0.104282	-0.61991	0.611835	2.62415	10.4152	-0.0328117	0.0272716	0.025837	-0.020752	0.0444336	-1.05298	0.75409	0.0405355	-0.0185544	-0.655257	-0.234415	0.745349	10.0206	0.0377076	0.0258934	-0.0778418	0.141113	0.419678	-0.951904	0.745377	0.0270555	-0.0291152	-0.665458	0.185368	1.18144	9.92329	0.15641	0.017905	-0.040819	0.0932617	0.331299	-0.951172	0.782936	0.131933	-0.067836	-0.604155	0.0886788	2.85177	13.4839	0.00531932	0.0146345	-0.0457816	0.162842	0.158447	-1.05347	0.263518	-0.635423	-0.693143	-0.215288	5.97331	-0.475478	-7.11853	-0.0247766	0.0374232	-0.0283047	-0.634033	0.406982	0.700439	0.774398	-0.0977001	-0.114349	-0.614562	3.88647	-0.00968743	10.7603	0.00449351	0.0344592	-0.0475692	-0.189209	0.381592	-0.968262	0.452817	-0.51492	-0.668309	-0.288405	8.58328	-0.827244	-4.02429	-0.0209665	0.0176624	-0.0106294	-0.936523	0.42334	0.275879	0.730409	-0.0487105	-0.183984	-0.655957	3.22559	1.13158	9.5357	-0.0731887	0.0432649	0.0150287	-0.257324	0.205078	-1.00293	-0.368449	0.579963	0.650344	0.323947	8.36614	-0.439264	-5.1848	-0.101759	0.0224245	-0.00819965	-0.922363	0.488525	0.463379	
13	0.508138	-0.495453	-0.480827	-0.514905	9.87325	-0.302058	0.380964	0.00238395	0.0297826	-0.0507865	-0.874268	0.427734	-0.0429688	0.407008	-0.57055	-0.629277	-0.335898	8.70614	-0.225453	-4.15664	-0.0115319	0.00805227	-0.0240605	-0.731689	0.35083	0.449219	0.773271	0.0910369	-0.103871	-0.61885	0.402218	3.41485	10.3582	-0.0059625	0.068257	0.0388328	-0.0100098	0.048584	-1.04639	0.752937	0.0406023	-0.0171802	-0.656615	-0.263641	0.627474	10.034	-0.0413718	0.0586798	-0.0634001	0.134277	0.424072	-0.956299	0.745418	0.0267081	-0.0282149	-0.665465	0.055511	1.26135	9.96809	-0.0691339	0.0421949	-0.014434	0.0932617	0.331299	-0.946777	0.782885	0.131946	-0.0674338	-0.604263	-0.0337237	2.87101	13.4186	-0.014153	0.0404059	-0.0353116	0.165283	0.15625	-1.05762	0.263419	-0.635693	-0.693085	-0.214798	5.82811	-0.208732	-7.18304	0.0483837	-0.0225611	0.00120182	-0.634277	0.411377	0.70459	0.774241	-0.0984174	-0.113375	-0.614826	3.26112	-0.102225	10.373	-0.0260359	0.0217664	-0.0121471	-0.187256	0.383789	-0.970703	0.453522	-0.514859	-0.668042	-0.288025	8.58715	-0.472983	-4.11104	0.0379607	0.0290472	0.00077146	-0.939453	0.437256	0.27124	0.73022	-0.0463551	-0.185693	-0.655857	3.8747	1.71411	9.75019	0.142369	0.0117009	-0.00970566	-0.256836	0.194092	-1.00269	-0.368906	0.579578	0.650329	0.324145	8.41743	0.00809176	-5.07894	-0.035658	0.0374944	-0.0203171	-0.92041	0.495361	0.465576	
14	0.508858	-0.493939	-0.481065	-0.515427	9.72858	-0.0183731	0.549168	0.0436609	0.0481945	-0.0178207	-0.878906	0.429932	-0.045166	0.406268	-0.57085	-0.628915	-0.336962	8.65488	-0.408351	-4.33769	-0.0730714	-0.00163637	-0.0284344	-0.729492	0.35083	0.449219	0.773529	0.090633	-0.102571	-0.618803	0.542146	3.16742	10.3299	-0.0869379	0.0674438	0.00701014	-0.0141602	0.0441895	-1.04614	0.753	0.0439425	-0.0174447	-0.65632	-0.253552	0.830658	9.82108	0.12534	0.091467	0.0267594	0.145508	0.419678	-0.94751	0.746021	0.0231045	-0.023749	-0.665098	0.121009	0.378396	9.60005	-0.210906	0.0510493	0.0102531	0.097168	0.342285	-0.944336	0.783426	0.130471	-0.0650136	-0.604147	-0.0618762	2.59874	13.1151	-0.112276	0.0628648	-0.00949322	0.17334	0.167236	-1.05811	0.263329	-0.635847	-0.693031	-0.214623	5.91194	-0.247463	-7.19123	0.0153689	-0.00458061	-0.00373891	-0.63208	0.411377	0.70459	0.773743	-0.0988832	-0.1129	-0.615465	3.37363	-0.102863	10.639	-0.0783765	0.0170039	-0.0654952	-0.187256	0.385986	-0.966064	0.453458	-0.515307	-0.66752	-0.288534	8.67687	-0.486644	-3.91468	-0.0541747	0.0335552	0.00680169	-0.93457	0.43042	0.269043	0.730754	-0.0449177	-0.185083	-0.655534	3.38011	1.72755	9.71819	0.0143661	0.0823009	0.0176739	-0.254639	0.194092	-1.00269	-0.36872	0.579366	0.65038	0.324633	8.42152	-0.318651	-5.09613	-0.0239892	0.0236172	-0.0375343	-0.917969	0.493164	0.467773	
15	0.509137	-0.493345	-0.481263	-0.515536	9.70367	0.0281125	0.619089	0.0401176	0.0285876	-0.0256669	-0.878662	0.427734	-0.0473633	0.405827	-0.570929	-0.628892	-0.337402	8.73916	-0.486982	-4.30595	-0.0522803	0.00916322	-0.0400935	-0.736084	0.353027	0.456299	0.772932	0.0928522	-0.101691	-0.619365	0.558341	2.67849	10.4166	0.121227	0.0907972	-0.0560502	-0.0100098	0.048584	-1.04639	0.753195	0.0455834	-0.0175837	-0.65598	-0.324775	0.834756	9.51778	0.107416	0.0855441	0.0290896	0.145752	0.413086	-0.94751	0.746046	0.0243601	-0.0228313	-0.665057	0.128133	0.686877	9.81544	0.058545	0.0722698	-0.024251	0.0993652	0.342285	-0.944336	0.78379	0.130731	-0.0634511	-0.603786	-0.0584956	2.50752	12.966	0.00969973	0.0721858	-0.00551648	0.177734	0.162842	-1.05566	0.263046	-0.636316	-0.692644	-0.214832	5.8856	-0.39697	-7.16586	0.00556225	0.014678	0.00169358	-0.623291	0.40918	0.702637	0.773245	-0.09929	-0.112692	-0.616064	3.20477	-0.277968	10.4553	-0.041574	0.0116587	-0.0753739	-0.19165	0.388184	-0.970703	0.453945	-0.516066	-0.666776	-0.288131	8.81344	-0.774324	-3.99517	0.0358451	0.0199904	0.0375743	-0.93457	0.43042	0.271484	0.731106	-0.0444831	-0.184977	-0.655202	3.27246	1.87666	9.79227	0.0261527	0.0469471	0.0334622	-0.25	0.194336	-1.00513	-0.368758	0.578428	0.650749	0.325521	8.39771	0.0831478	-5.00625	-0.00220897	0.0317623	-0.0480598	-0.922119	0.486328	0.45874	
16	0.508603	-0.493123	-0.481919	-0.515661	9.74703	0.106982	0.512274	-0.00552769	-0.0351996	-0.0291461	-0.878662	0.425537	-0.045166	0.405566	-0.571107	-0.628497	-0.338149	8.92209	-0.461021	-4.63987	-0.0218545	0.0354293	-0.0107138	-0.733887	0.353027	0.453857	0.771992	0.0988411	-0.104508	-0.619142	0.409786	3.34923	10.4947	0.226771	0.0441551	-0.0176468	-0.00317383	0.0266113	-1.0481	0.753573	0.0466174	-0.016981	-0.655489	-0.498091	0.956876	9.57852	-0.0116536	0.0420853	0.017704	0.145752	0.417725	-0.954102	0.746037	0.0236444	-0.0211465	-0.665149	0.00492936	0.775138	9.77972	-0.111857	0.0177315	-0.0130891	0.103516	0.344482	-0.942139	0.785007	0.130308	-0.0619516	-0.60245	-0.196281	2.48045	12.8922	-0.0369351	0.0568266	0.0530874	0.175293	0.171387	-1.0603	0.263218	-0.636567	-0.69244	-0.214534	6.19349	-0.462512	-7.16718	0.00414815	0.0273177	-0.00228155	-0.627686	0.411377	0.70459	0.772558	-0.0992098	-0.112221	-0.617023	3.24954	-0.0833836	10.6279	-0.0439644	0.0500112	-0.0670068	-0.19165	0.388184	-0.966064	0.453813	-0.51738	-0.66593	-0.287939	8.63529	-0.749647	-3.90922	-0.0689837	-0.00316386	0.0369239	-0.937012	0.432617	0.275879	0.7319	-0.0444037	-0.18468	-0.654404	3.30834	1.82397	9.50408	0.0170192	0.0196201	0.0330469	-0.25708	0.198486	-1.00977	-0.368249	0.578134	0.650973	0.326171	8.47458	-0.0122434	-4.93667	0.0163523	0.00493839	-0.026507	-0.919922	0.484131	0.461182	
17	0.507976	-0.493904	-0.482094	-0.515369	10.0173	-0.0350114	0.410206	-0.0161824	-0.0288586	0.0053644	-0.874023	0.421143	-0.045166	0.406325	-0.570794	-0.628235	-0.338253	8.77746	-0.4897	-4.12526	-0.0224589	0.0883918	-0.0109267	-0.729736	0.355225	0.444336	0.772865	0.095586	-0.101922	-0.618995	0.620839	3.18708	10.4175	-0.273483	0.00885765	0.0389948	-0.0100098	0.0419922	-1.04614	0.753725	0.0460917	-0.0158746	-0.65538	-0.337453	0.861682	9.80059	-0.0519403	0.0230836	0.00239506	0.150146	0.417725	-0.949707	0.746239	0.0234348	-0.02094	-0.664936	-0.0748601	0.17885	9.67236	0.0671571	0.0133949	-0.00317354	0.0991211	0.348877	-0.944336	0.785582	0.131603	-0.0626184	-0.601349	-0.265067	2.75024	13.0747	0.0727628	0.0294607	0.0188641	0.177734	0.165039	-1.05786	0.264692	-0.635887	-0.691915	-0.216426	5.74457	-0.174092	-6.98281	0.0143652	0.091619	-0.0351051	-0.634277	0.411377	0.698242	0.772087	-0.0995259	-0.112137	-0.617578	3.21513	-0.428678	10.5518	-0.0290467	0.00855282	-0.0727392	-0.19165	0.388184	-0.963623	0.454071	-0.518283	-0.665562	-0.286758	8.74274	-0.867922	-3.96527	0.0383587	-0.0197614	0.0400313	-0.932129	0.43042	0.271484	0.731998	-0.0446028	-0.184567	-0.654313	3.59199	2.0232	9.69351	-0.0295004	-0.0140286	0.0164045	-0.248047	0.196533	-1.00513	-0.368523	0.577981	0.651097	0.325885	8.35419	0.056667	-5.14918	-0.0458924	0.0160297	-0.00692929	-0.922119	0.486328	0.45874	
18	0.508174	-0.494243	-0.48108	-0.515796	9.84064	-0.071848	0.471416	-0.0419258	0.0393696	0.0225882	-0.874512	0.429932	-0.045166	0.407188	-0.569947	-0.628959	-0.337295	8.61222	-0.282146	-4.12777	0.0529397	0.025914	-0.0403263	-0.736084	0.355225	0.448975	0.773763	0.093108	-0.0993635	-0.618667	0.255054	2.55887	10.3232	-0.0260346	0.0347964	0.0252942	-0.00366211	0.0483398	-1.05103	0.753628	0.0460672	-0.0148043	-0.655518	-0.444884	0.713798	9.75665	0.0020187	0.0473996	-0.0129373	0.149902	0.419922	-0.949707	0.746194	0.0254431	-0.0227514	-0.664853	-0.259286	0.90313	9.87432	0.0557099	0.0066721	-0.0118062	0.101562	0.337891	-0.946777	0.785824	0.132274	-0.0630001	-0.600845	-0.442519	2.78115	13.1967	0.0382836	0.0229488	-0.00330273	0.177734	0.165039	-1.05786	0.264567	-0.63622	-0.691379	-0.21731	6.02678	-0.443309	-7.25	-0.0203931	0.0646754	0.000367171	-0.63623	0.40918	0.698242	0.771658	-0.099136	-0.11179	-0.618239	3.56994	-0.156532	10.547	-0.0431125	0.0537902	-0.0114344	-0.189453	0.388184	-0.968262	0.453857	-0.518948	-0.665203	-0.286727	8.52886	-1.01345	-4.18745	-0.00109772	-0.00188372	-0.00141164	-0.932617	0.439453	0.273438	0.732898	-0.0457073	-0.183206	-0.653611	3.52277	1.79429	9.71347	-0.0548129	0.0511419	0.0519321	-0.250244	0.19873	-1.00049	-0.369166	0.577624	0.651458	0.32507	8.52846	0.395533	-5.03512	0.0798573	0.0145849	0.00902111	-0.919922	0.484131	0.458984	
19	0.508304	-0.493819	-0.480032	-0.517049	9.83403	-0.116141	0.628203	-0.0272522	0.0601366	-0.0176986	-0.869873	0.427979	-0.0537109	0.406438	-0.570079	-0.628813	-0.338249	8.46538	-0.460172	-4.33609	-0.0164266	0.061788	-0.0429491	-0.736084	0.355225	0.453857	0.773572	0.0959893	-0.100268	-0.618319	0.224445	3.2153	10.3304	0.0759762	0.0448465	-0.0129795	-0.00341797	0.0419922	-1.05078	0.75371	0.0468732	-0.0136365	-0.655392	-0.472347	0.700189	9.69632	0.00387519	0.0687557	0.01433	0.154541	0.419922	-0.951904	0.746633	0.0252755	-0.0223221	-0.664381	0.195167	0.480316	9.52087	0.00348173	0.0253422	0.0129759	0.0993652	0.337891	-0.944336	0.785306	0.133278	-0.0634572	-0.601253	-0.0709801	2.87325	13.1291	0.0362516	0.0287895	-0.0569367	0.177734	0.162842	-1.05371	0.264996	-0.636063	-0.691064	-0.218248	5.77144	-0.680742	-7.10632	-0.0179959	0.0914556	-0.0219754	-0.634277	0.40918	0.698242	0.771679	-0.0997969	-0.111108	-0.618228	3.59893	-0.503395	10.381	-0.0259761	0.0344719	-0.010365	-0.194092	0.394531	-0.961426	0.454377	-0.518706	-0.665198	-0.286351	8.62285	-0.946342	-4.05152	0.033054	0.0176516	-0.0228359	-0.925781	0.441895	0.27124	0.73277	-0.0463987	-0.182731	-0.653839	3.5855	1.5863	9.78298	-0.0215034	-0.00392431	0.00357732	-0.252686	0.202881	-1.00073	-0.369068	0.577925	0.651083	0.325396	8.3612	-0.339594	-5.14199	0.0121962	0.0156044	0.00281207	-0.917725	0.484375	0.463379	
20	0.508567	-0.49319	-0.479518	-0.517867	9.61135	-0.162099	0.646349	0.00445016	0.0261123	-0.0237041	-0.876465	0.427734	-0.0495605	0.405546	-0.5704	-0.629728	-0.337076	8.84695	-0.35713	-4.28925	-0.0141723	0.00669265	-0.0295093	-0.73584	0.348633	0.454102	0.773542	0.0966189	-0.0997105	-0.618349	0.558463	3.08577	10.3853	-0.00598608	0.0368604	-0.00521901	0.00292969	0.0395508	-1.04858	0.754123	0.0488524	-0.0136532	-0.654771	-0.373363	0.89998	9.56735	0.0543438	0.048968	0.0280699	0.152344	0.417725	-0.949707	0.746711	0.0258892	-0.022424	-0.664266	-0.0696653	1.02977	9.91239	-0.0246499	0.0183555	-0.0168956	0.0993652	0.342285	-0.948975	0.785498	0.132272	-0.0619939	-0.601377	-0.146028	2.55201	13.0046	-0.0558474	0.0358747	-0.0127813	0.177734	0.167236	-1.05371	0.264554	-0.636024	-0.691385	-0.217879	6.16098	-0.319115	-7.38358	0.031993	0.0344344	-0.00968352	-0.638672	0.413574	0.70459	0.772542	-0.0989382	-0.111614	-0.617197	3.4249	0.0746885	10.6962	0.0377554	0.0317645	0.0401616	-0.189453	0.388184	-0.970703	0.454531	-0.51834	-0.665259	-0.28663	8.73877	-0.729393	-4.01089	-0.0214603	0.0340509	-0.0296616	-0.932373	0.434814	0.273682	0.733469	-0.0464211	-0.18318	-0.652927	3.49455	1.83992	9.70637	0.011404	0.0117227	0.0378684	-0.254639	0.198486	-1.00049	-0.369617	0.577653	0.65133	0.324759	8.57677	0.00377472	-4.99289	0.00439331	0.00477845	-0.00120657	-0.924316	0.484131	0.463379	
21	0.508299	-0.493278	-0.480395	-0.517233	9.84849	-0.0209124	0.514554	0.0214907	-0.0564766	0.0056773	-0.876465	0.427734	-0.0473633	0.405455	-0.570064	-0.629963	-0.337312	8.80108	-0.471998	-4.4255	-0.0136804	0.0687269	-0.0279205	-0.733887	0.35083	0.453857	0.773655	0.0961003	-0.0993222	-0.618351	0.430192	2.95965	10.4745	-0.0488575	0.00395373	0.00405766	0.00512695	0.0395508	-1.05078	0.754259	0.0490754	-0.013866	-0.654594	-0.476452	1.0612	9.54604	-0.0278407	-0.0116046	0.00403992	0.154785	0.411133	-0.953857	0.746756	0.0253104	-0.0220222	-0.664251	-0.0218497	0.571645	9.82546	-0.0563778	0.000576869	-0.0110723	0.0993652	0.340088	-0.946777	0.785557	0.132764	-0.062374	-0.601152	-0.221615	2.57659	12.9867	0.0544013	0.0178867	-0.00253943	0.179932	0.162842	-1.05371	0.26541	-0.635373	-0.691267	-0.219108	5.93962	-0.387896	-6.95104	0.00728591	0.0504609	-0.0405714	-0.63208	0.411377	0.702637	0.772683	-0.0989314	-0.111233	-0.61709	3.3186	-0.125726	10.6186	0.00164077	0.0259737	-0.0295781	-0.183105	0.392578	-0.963867	0.454971	-0.517943	-0.665319	-0.286509	8.7739	-0.750937	-3.92751	0.0320247	0.0175163	-0.0127783	-0.93042	0.441895	0.27124	0.733748	-0.0475929	-0.181915	-0.652882	3.42718	1.33681	9.64844	-0.0637935	0.0158977	0.0355407	-0.253174	0.21167	-1.00781	-0.369405	0.577548	0.651543	0.324763	8.45861	-0.319529	-5.13252	0.042913	0.00106852	-0.0195882	-0.917725	0.486572	0.45874	
22	0.508322	-0.493092	-0.481246	-0.516595	9.83908	0.0248712	0.432695	0.0387294	-0.0161575	-0.0152818	-0.878662	0.425537	-0.0495605	0.405365	-0.570031	-0.630377	-0.336701	8.58465	-0.487786	-4.38003	0.032231	-0.0320836	-0.0222298	-0.729492	0.348633	0.456299	0.773999	0.0957008	-0.0995132	-0.617951	0.424041	2.97582	10.3466	0.00331854	-0.0124461	0.028883	-0.0012207	0.0375977	-1.04395	0.754242	0.0481719	-0.0137092	-0.654684	-0.398365	0.751036	9.613	-0.0619966	-0.031488	-0.00478456	0.152344	0.417725	-0.951904	0.746514	0.0283452	-0.0243989	-0.664318	-0.00134523	0.672921	9.74637	0.219722	0.0303856	-0.0261844	0.0976562	0.331299	-0.948975	0.785102	0.134153	-0.063194	-0.601353	-0.199564	2.85703	13.125	0.0674485	0.0130977	-0.0270346	0.175781	0.160645	-1.05786	0.265578	-0.635242	-0.691297	-0.219191	5.97372	-0.142222	-7.05243	0.0219392	0.0266764	-0.0256811	-0.638184	0.402588	0.696289	0.772824	-0.0989882	-0.111171	-0.616916	3.22266	-0.03841	10.4262	-0.000294886	0.0192433	-0.000486862	-0.19165	0.390137	-0.963623	0.455106	-0.517937	-0.665274	-0.286408	8.62623	-0.722849	-4.02146	0.0146314	0.0122773	-0.0104262	-0.932617	0.441895	0.27124	0.734245	-0.0475199	-0.181971	-0.652314	3.68597	1.43446	9.68387	0.0183446	0.0195671	0.059936	-0.250488	0.200928	-1.00293	-0.369632	0.576898	0.652177	0.324385	8.49876	0.164333	-5.103	0.0153892	0.00650061	-0.0254368	-0.917725	0.48877	0.463379	
23	0.508526	-0.492903	-0.48139	-0.516442	9.8918	0.0872164	0.444937	0.0281359	0.000571085	-0.000290706	-0.876465	0.427734	-0.0495605	0.405112	-0.56972	-0.631187	-0.336015	8.69642	-0.362389	-4.25923	-0.0395804	-0.0255675	-0.0174293	-0.738037	0.348633	0.45874	0.774798	0.0936862	-0.0988594	-0.617364	0.345452	2.99372	10.3432	-0.0936049	-0.0183962	0.0386979	0.000732422	0.0505371	-1.04419	0.754624	0.0469324	-0.0141349	-0.654325	-0.480069	0.688215	9.82024	-0.0223009	-0.0166778	0.0329227	0.154541	0.419922	-0.949707	0.746541	0.0285009	-0.0245979	-0.664274	-0.126211	0.980326	9.76053	-0.0716981	0.000420426	-0.00479561	0.0996094	0.333496	-0.944336	0.784829	0.133834	-0.0630439	-0.601796	-0.284075	2.72004	13.1699	0.00741991	0.0113581	-0.0390739	0.180176	0.160645	-1.06006	0.266148	-0.635073	-0.690841	-0.220423	5.83645	-0.444256	-7.08727	-0.013803	0.0429517	-0.0135085	-0.640381	0.404785	0.696289	0.772724	-0.0987815	-0.111088	-0.61709	3.33361	-0.272467	10.5371	0.0275167	0.0290923	-0.0367263	-0.178711	0.390381	-0.968506	0.455464	-0.518218	-0.664813	-0.286404	8.78918	-0.760736	-4.02286	0.0227375	0.0197787	0.00651337	-0.935059	0.44165	0.273438	0.735112	-0.048727	-0.180916	-0.651541	3.65539	1.40169	9.59284	-0.0761944	0.0032859	0.030846	-0.250488	0.205322	-0.998535	-0.369309	0.576741	0.652277	0.324831	8.39046	-0.218749	-5.19756	0.0166842	0.0084977	-0.0230681	-0.924316	0.484131	0.456543	
24	0.50915	-0.492511	-0.480791	-0.516758	9.81851	-0.0326754	0.537234	0.00209937	0.0369526	0.0096304	-0.878662	0.425537	-0.0495605	0.404867	-0.569795	-0.631394	-0.335793	8.67047	-0.414582	-4.3775	-0.00290677	-0.0183223	-0.023881	-0.73584	0.348633	0.45874	0.77524	0.0925838	-0.0985495	-0.617025	0.352944	2.68704	10.3597	-0.00653091	-0.00922043	0.0231609	-0.00561523	0.0461426	-1.04639	0.754867	0.0472948	-0.0145331	-0.654009	-0.456032	0.704249	9.73104	0.0436362	0.00278391	0.0329834	0.154785	0.41333	-0.951904	0.746789	0.0266306	-0.0227469	-0.664138	0.147959	0.385526	9.61744	-0.0763341	0.0163106	-0.00335609	0.10376	0.340088	-0.946777	0.78456	0.133267	-0.0626353	-0.602314	-0.068866	2.65483	13.0488	-0.0286031	0.00944456	-0.053085	0.177979	0.160645	-1.05566	0.26426	-0.635694	-0.69098	-0.220468	6.07893	-0.218226	-7.02873	-0.0558863	-0.0276547	-0.0221697	-0.638184	0.402588	0.700684	0.772601	-0.0988876	-0.111392	-0.617172	3.23472	0.0701198	10.672	0.00990836	-0.00645784	-0.0323585	-0.196289	0.392578	-0.970703	0.455505	-0.518446	-0.664543	-0.286551	8.63778	-0.853401	-4.0366	-0.0157367	0.020454	0.000339197	-0.932861	0.446289	0.27124	0.735379	-0.0483922	-0.181112	-0.651209	3.73368	1.51704	9.60777	0.0357533	0.0225896	0.029587	-0.243896	0.205322	-1.00293	-0.369981	0.57625	0.652673	0.324142	8.48896	0.182021	-4.98934	0.0939526	0.0105786	-0.010261	-0.922119	0.486328	0.456543	
25	0.509202	-0.491951	-0.480501	-0.51751	9.82621	-0.0524455	0.610377	-0.0070424	0.0284268	-0.0217115	-0.874268	0.427734	-0.0539551	0.404804	-0.569663	-0.632104	-0.334757	8.72181	-0.351311	-4.32399	0.00741542	0.0172677	-0.0228641	-0.729736	0.355225	0.460693	0.775114	0.0952243	-0.100634	-0.616444	0.50026	3.23161	10.4734	0.146257	0.00794349	-0.00180415	-0.0078125	0.0397949	-1.04614	0.755612	0.0478027	-0.0151894	-0.653096	-0.474728	0.993708	9.73995	0.0100583	-0.00394586	0.0555287	0.150146	0.417725	-0.949707	0.746852	0.0275872	-0.0235249	-0.664002	-0.0322951	0.93008	9.77318	0.0326213	0.00221985	-0.00787456	0.0993652	0.337891	-0.946777	0.7845	0.132554	-0.0621179	-0.602603	-0.181302	2.52742	12.9477	-0.0218678	0.0130048	-0.0254871	0.173828	0.158447	-1.05127	0.263713	-0.636202	-0.690802	-0.220217	5.86918	-0.229268	-6.93182	0.0124485	-0.0649791	0.00938097	-0.642578	0.404785	0.702637	0.772394	-0.100043	-0.11032	-0.617436	3.32352	-0.29779	10.5308	-0.0597742	0.0360372	-0.0258187	-0.185303	0.392578	-0.966064	0.455608	-0.518855	-0.6641	-0.286673	8.67089	-0.904369	-3.95339	-0.0057757	0.015137	-0.00514818	-0.932617	0.439453	0.269043	0.735585	-0.0480874	-0.181085	-0.651007	3.27283	1.8818	9.90352	-0.0381979	0.000175031	0.0103924	-0.248291	0.205322	-1.00073	-0.36975	0.576455	0.652324	0.324742	8.47034	-0.216078	-5.08017	-0.0465188	0.0214065	-0.00197201	-0.917725	0.484375	0.458984	
26	0.509144	-0.491413	-0.480616	-0.51797	9.70463	-0.108053	0.562574	0.0120108	0.00468991	-0.0371996	-0.878906	0.429932	-0.0561523	0.403442	-0.570409	-0.632014	-0.335301	8.83161	-0.314896	-4.34148	-0.0682661	-0.0241787	-0.0362091	-0.731689	0.348633	0.45874	0.775485	0.0939515	-0.100289	-0.616229	0.481117	2.94066	10.4259	-0.0738449	-0.0189788	0.0272093	-0.00561523	0.0375977	-1.04614	0.756391	0.0479879	-0.0158823	-0.652164	-0.444863	1.01866	9.5979	0.0508736	-0.00482418	0.0457667	0.154785	0.41333	-0.954102	0.746865	0.0269329	-0.0235959	-0.66401	-0.0534815	0.661023	9.79792	-0.00758436	-0.0148545	-0.0157223	0.0996094	0.335693	-0.944336	0.784812	0.132313	-0.0625234	-0.602208	-0.198931	2.65593	13.0017	-0.00106545	-0.00538715	0.00859382	0.179932	0.162842	-1.05786	0.260936	-0.637521	-0.690724	-0.219954	6.0607	-0.383694	-7.28664	-0.0720191	-0.0511582	-0.00372157	-0.629639	0.402588	0.704834	0.772186	-0.0999862	-0.110751	-0.617629	3.52187	-0.0909511	10.6834	0.0354506	-0.00160909	-0.0263568	-0.183105	0.392578	-0.966064	0.455832	-0.518898	-0.664022	-0.286421	8.61676	-0.744254	-4.03842	0.0238997	0.0106281	0.00155788	-0.935059	0.439453	0.269043	0.735732	-0.0484558	-0.180738	-0.650911	3.63049	1.48819	9.5287	0.0303509	0.0232404	0.0200289	-0.25293	0.209473	-0.996338	-0.370272	0.576181	0.652568	0.324144	8.4503	0.132486	-4.98662	0.0171036	-0.0029661	-0.00206806	-0.926758	0.488525	0.461182	
27	0.509099	-0.491098	-0.481014	-0.517944	10.0091	0.0665868	0.520324	0.00863944	0.00161146	0.00298316	-0.878662	0.425537	-0.0517578	0.4031	-0.570519	-0.632053	-0.335451	8.62436	-0.531742	-4.44592	-0.0141179	0.00158633	-0.0124781	-0.731689	0.353027	0.463135	0.775544	0.0938874	-0.100936	-0.616059	0.396097	3.01292	10.4559	0.0133847	-0.0158001	-0.00260195	0.00512695	0.0461426	-1.04639	0.757027	0.0468071	-0.0160874	-0.651506	-0.389809	0.836392	9.8298	-0.0334059	-0.0325365	0.0285848	0.1521	0.419922	-0.949707	0.746869	0.0271725	-0.0248848	-0.66395	0.023747	0.660343	9.73105	0.0843408	-0.0212152	-0.0119885	0.104004	0.335693	-0.951172	0.784968	0.132525	-0.0637805	-0.601826	-0.194182	2.81723	13.1452	0.0571262	-0.0158276	-0.00280808	0.171631	0.158447	-1.06201	0.260267	-0.63805	-0.690467	-0.220017	5.91231	-0.16673	-7.02827	-0.00552446	-0.0127364	-0.00871596	-0.634033	0.40918	0.704834	0.771958	-0.101058	-0.110047	-0.617865	3.29265	-0.305158	10.5095	-0.0483304	0.00762844	-0.0291347	-0.189697	0.390381	-0.963623	0.456024	-0.519103	-0.66377	-0.286328	8.65692	-0.791764	-4.02891	0.0217715	0.00450919	-0.00696858	-0.932861	0.444092	0.275635	0.735632	-0.0483624	-0.18103	-0.650949	3.28601	1.87826	9.82709	-0.0212587	-0.0121186	-0.00892123	-0.248291	0.205322	-0.993896	-0.370252	0.576405	0.652301	0.324306	8.39653	-0.195414	-5.10953	-0.00957909	0.0192447	0.00450354	-0.922363	0.488525	0.451904	
28	0.50962	-0.490385	-0.480515	-0.51857	9.76502	0.0643676	0.604941	0.000138195	0.0466318	-0.0134984	-0.874023	0.42334	-0.0517578	0.401924	-0.571092	-0.631948	-0.336085	8.86124	-0.356362	-4.38639	-0.049756	-0.00843789	-0.031428	-0.731445	0.344238	0.461182	0.775989	0.0933943	-0.101412	-0.615495	0.349245	3.00316	10.449	0.0178273	-0.0184946	0.0377761	-0.0078125	0.048584	-1.04639	0.757054	0.0468023	-0.0164995	-0.651464	-0.444843	0.888205	9.72108	0.0229313	-0.0184448	0.00566295	0.156982	0.415527	-0.954102	0.746697	0.0269996	-0.0255433	-0.664125	0.0527699	0.814449	9.84614	-0.0301396	-0.0181508	-0.0244752	0.0974121	0.335693	-0.946777	0.784991	0.132343	-0.0646518	-0.601743	-0.129535	2.78886	13.2772	0.0351892	-0.0148294	-0.0176814	0.17334	0.165039	-1.05371	0.258028	-0.638743	-0.690717	-0.21986	5.93357	-0.411785	-7.20398	-0.0498755	-0.0823088	-0.0227857	-0.633789	0.400391	0.709229	0.771958	-0.100845	-0.110844	-0.617758	3.68324	-0.0536834	10.6206	0.0187013	-0.0037522	-0.0239689	-0.193848	0.390381	-0.970703	0.456027	-0.519671	-0.663252	-0.286493	8.66831	-0.897398	-3.99837	-0.0211833	0.0169015	0.0053411	-0.93042	0.444092	0.273438	0.735834	-0.0497494	-0.180502	-0.650762	3.86988	1.57943	9.6602	-0.0513574	0.0162501	0.0344572	-0.246338	0.211914	-1.00317	-0.370268	0.576438	0.65226	0.324311	8.4647	0.0420042	-5.08522	-0.0396364	0.00991874	-0.00488624	-0.924561	0.488525	0.45874	
29	0.509967	-0.490273	-0.479603	-0.519179	9.93888	-0.0331216	0.640291	-0.0252909	0.042694	0.0117452	-0.878418	0.421387	-0.0581055	0.401247	-0.571299	-0.63249	-0.335521	8.75115	-0.42761	-4.2999	-0.0189604	-0.0502019	-0.0338471	-0.733398	0.342285	0.468262	0.776478	0.0910519	-0.100242	-0.61542	0.741056	2.81318	10.3581	-0.133733	-0.0122298	0.0130765	-0.00805664	0.0527344	-1.04639	0.757122	0.0453904	-0.0164383	-0.651487	-0.19266	0.675839	9.74896	0.022546	-0.00557037	-0.00367352	0.154541	0.417725	-0.951904	0.746517	0.0259953	-0.0248415	-0.664394	0.0403336	0.718513	9.82967	-0.0629753	0.00906812	-0.0309875	0.0993652	0.337891	-0.951172	0.784984	0.131704	-0.0643673	-0.601923	-0.110348	2.839	13.1989	-0.0509335	0.0153023	-0.0330204	0.177979	0.160645	-1.05786	0.25707	-0.638837	-0.691058	-0.219641	5.88187	-0.158516	-6.94433	0.00181415	0.00207371	-0.0314558	-0.627197	0.39624	0.713623	0.77182	-0.1018	-0.109922	-0.617938	3.13348	-0.435544	10.6089	-0.0324868	0.0153688	-0.00690617	-0.189697	0.394531	-0.968506	0.456435	-0.519481	-0.663253	-0.286186	8.6794	-1.09129	-4.09006	0.0258054	0.00982319	-0.0192119	-0.935303	0.446289	0.268799	0.736044	-0.0492772	-0.181183	-0.650372	3.19309	1.6236	9.7922	0.0651007	-0.00891218	0.00217725	-0.250732	0.211914	-0.998535	-0.371034	0.575948	0.652641	0.323539	8.50863	0.1302	-5.0753	0.11032	0.0107711	0.00275656	-0.922363	0.488525	0.456543	
30	0.510184	-0.48981	-0.478957	-0.519999	9.54705	-0.0665164	0.655156	-0.00799723	0.0243396	-0.017118	-0.878418	0.42334	-0.0603027	0.401173	-0.571107	-0.632329	-0.33624	8.84375	-0.296594	-4.32911	-0.0434439	0.0524267	-0.0462916	-0.727051	0.342285	0.463623	0.776604	0.091218	-0.100702	-0.615162	0.458388	2.45329	10.392	0.0380696	-0.0122907	0.0224562	0.000732422	0.0461426	-1.04639	0.756969	0.0459752	-0.0169773	-0.651611	-0.374058	0.822883	9.71105	0.0652738	0.00336821	-0.0146231	0.1521	0.419922	-0.951904	0.746394	0.0258551	-0.0246371	-0.664545	-0.00793081	0.621708	9.89202	-0.0197948	0.0111048	-0.0306087	0.0974121	0.335693	-0.946777	0.784849	0.131486	-0.0640954	-0.602176	-0.190673	2.77716	13.2105	-0.022648	0.0182619	-0.0456795	0.177979	0.160645	-1.06006	0.256518	-0.638995	-0.691283	-0.219117	5.75029	-0.235677	-7.08284	0.0164659	-0.0536315	-0.0190272	-0.627197	0.398438	0.715576	0.772294	-0.101415	-0.111074	-0.617203	3.75033	-0.141416	10.4475	0.0315708	0.0083618	-0.00271868	-0.191895	0.394531	-0.968506	0.456655	-0.519247	-0.66337	-0.285988	8.65917	-0.825262	-4.04182	0.0351232	0.0119505	-0.0234018	-0.930664	0.446289	0.269043	0.735907	-0.0495178	-0.182268	-0.650206	3.81923	1.67419	9.65305	-0.00592649	-0.0145969	0.000625859	-0.254883	0.202881	-0.998291	-0.370455	0.576322	0.652269	0.324286	8.41109	-0.355013	-5.11157	-0.03624	0.00984926	-0.00704359	-0.926758	0.488525	0.463379	
31	0.510148	-0.489866	-0.479113	-0.519837	9.69553	-0.0796657	0.650553	0.00931876	-0.0197935	-0.000823566	-0.878418	0.42334	-0.0559082	0.401003	-0.570751	-0.633235	-0.33534	8.8073	-0.439889	-4.25615	0.00386226	-0.0194946	-0.028769	-0.729248	0.344238	0.46582	0.776857	0.0932656	-0.102616	-0.614219	0.637359	3.50141	10.5087	0.0590991	0.00497406	0.0329301	-0.0078125	0.0419922	-1.04395	0.757026	0.0449485	-0.0169037	-0.651617	-0.198811	0.831249	9.77268	-0.0621412	-0.0255889	0.0152377	0.1521	0.419922	-0.956299	0.746024	0.0261047	-0.024239	-0.664965	0.00597992	0.650342	9.80931	-0.0118152	0.0309258	-0.0305182	0.0996094	0.335693	-0.948975	0.784279	0.131819	-0.0640867	-0.602846	-0.187319	2.77708	13.2151	0.0168573	0.0187855	-0.062183	0.173584	0.160645	-1.06006	0.255426	-0.639274	-0.691911	-0.217592	5.96454	-0.266306	-7.22311	0.0325285	-0.0290811	-0.024254	-0.627197	0.398438	0.715576	0.77239	-0.101658	-0.110531	-0.61714	3.26737	-0.164359	10.7429	-0.0371452	0.0405869	-0.00353278	-0.189697	0.394531	-0.966064	0.45648	-0.519082	-0.663344	-0.286628	8.60894	-1.21107	-4.06399	0.021305	0.0171999	-0.0437159	-0.932861	0.444092	0.275635	0.735907	-0.0495178	-0.182268	-0.650206	3.81923	1.67419	9.65305	-0.00592649	-0.0145969	0.000625859	-0.254883	0.202881	-0.998291	-0.371032	0.575891	0.652635	0.323656	8.44737	-0.13975	-5.02865	0.0847305	0.00808409	-0.0103509	-0.924561	0.488525	0.45874	
32	0.510744	-0.489577	-0.479181	-0.519461	9.86394	0.0489238	0.64633	0.0294826	0.0205087	0.0145304	-0.878906	0.432129	-0.0539551	0.400705	-0.570922	-0.6333	-0.335283	8.45994	-0.349026	-4.45673	0.0637156	-0.0564401	-0.0283781	-0.73584	0.348633	0.46582	0.777541	0.0901309	-0.100935	-0.6141	0.373671	2.45934	10.4012	-0.106868	-0.0178783	0.0256763	-0.0102539	0.0527344	-1.04883	0.75757	0.0443459	-0.0171697	-0.65102	-0.254905	0.774499	9.72647	0.0246242	-0.0089192	0.0312918	0.147705	0.419922	-0.954102	0.745625	0.0261702	-0.023417	-0.66544	0.066719	0.721809	9.69318	-0.031957	0.0294216	-0.0404937	0.101562	0.337891	-0.948975	0.784009	0.131325	-0.0629275	-0.603427	-0.0947126	2.60229	12.9643	-0.0573619	0.0397625	-0.0442341	0.175537	0.169189	-1.05591	0.253742	-0.639842	-0.692222	-0.216901	5.7983	-0.347652	-7.20346	-0.00341489	-0.107759	-0.0077347	-0.622803	0.398438	0.721924	0.772761	-0.101694	-0.111556	-0.616485	3.69333	0.0330015	10.4772	0.060338	-0.0207496	0.00188645	-0.191895	0.390381	-0.968262	0.457218	-0.518394	-0.663615	-0.286066	8.63214	-0.502958	-3.84585	-0.00672507	0.0181998	-0.0221317	-0.93042	0.444092	0.269043	0.736192	-0.04991	-0.182544	-0.649775	3.54165	1.61668	9.71597	0.00327551	-0.038912	0.0164313	-0.25293	0.207275	-0.996338	-0.370654	0.576051	0.652471	0.324134	8.32204	-0.0944221	-5.05876	-0.0689053	6.46466e-05	-0.0137242	-0.917725	0.486572	0.454346	
33	0.511079	-0.490223	-0.478649	-0.519013	9.82535	0.0271351	0.612622	-0.026046	-0.0221489	0.039093	-0.876465	0.427734	-0.0559082	0.400348	-0.570929	-0.634059	-0.334261	8.77371	-0.38805	-4.42452	-0.0146955	0.00666344	-0.0254776	-0.73584	0.348633	0.4729	0.777605	0.0910656	-0.101497	-0.613788	0.732269	2.70459	10.3297	0.0916785	0.0190595	0.0172886	-0.00146484	0.0461426	-1.04639	0.757933	0.0440429	-0.017247	-0.650615	-0.0709907	0.651359	9.79141	-0.00828655	0.000232952	0.0183909	0.150146	0.417725	-0.954102	0.745161	0.0265272	-0.0233274	-0.665948	0.0483435	0.50918	9.76025	0.0351806	0.0175319	-0.0363204	0.095459	0.331299	-0.946777	0.783634	0.131571	-0.0628831	-0.603865	-0.11994	2.63057	12.9424	0.0182345	0.00998452	-0.049134	0.166992	0.165039	-1.05786	0.254136	-0.639563	-0.692719	-0.215674	5.91521	-0.244145	-7.17591	0.0475505	0.00610403	-0.0301448	-0.616455	0.400635	0.717773	0.772704	-0.102652	-0.110899	-0.616516	3.12346	-0.468994	10.4269	-0.0419231	0.0127703	-0.0117522	-0.194092	0.394531	-0.963867	0.45707	-0.518436	-0.66347	-0.286564	8.73821	-1.16145	-4.01221	0.049774	0.013433	-0.0197246	-0.93042	0.444092	0.269043	0.736181	-0.0497828	-0.183107	-0.649639	3.43266	1.70492	9.74392	0.0339513	0.00729286	0.0130895	-0.255127	0.205078	-0.998535	-0.371047	0.575677	0.652887	0.323508	8.43223	0.0277216	-5.03509	0.0612781	0.00237479	-0.00934813	-0.924561	0.486328	0.45874	
34	0.509878	-0.491181	-0.478493	-0.519432	9.87883	-0.0584733	0.443618	-0.0565179	-0.0310607	-0.0272424	-0.878662	0.425537	-0.0581055	0.400247	-0.570601	-0.634054	-0.334952	8.82162	-0.288158	-4.62156	-0.0228095	0.0576996	-0.0382011	-0.729492	0.348633	0.46582	0.778406	0.0917747	-0.102101	-0.612566	0.269065	2.70777	10.571	0.082798	0.00717743	0.0459038	-0.00561523	0.0441895	-1.04395	0.758197	0.0455017	-0.0184104	-0.650176	-0.629201	1.04403	9.84315	0.0603991	-0.0025445	0.0296584	0.152588	0.411133	-0.95166	0.745064	0.0256736	-0.0229132	-0.666105	-0.222396	0.860893	9.86156	-0.0947529	-0.00848427	-0.020069	0.0993652	0.340088	-0.948975	0.783771	0.13009	-0.0622531	-0.604073	-0.313771	2.48448	13.1032	-0.0595307	-0.00404505	-0.0146073	0.17749	0.169189	-1.05591	0.253531	-0.639815	-0.692816	-0.215325	5.83967	-0.215312	-7.13965	0.0171976	-0.0157087	-0.00333565	-0.62085	0.402588	0.721924	0.773021	-0.101814	-0.112883	-0.615898	3.61988	0.107425	10.5967	0.0970937	-0.0147751	0.00172201	-0.193848	0.388184	-0.968262	0.457078	-0.518319	-0.663682	-0.286272	8.72257	-0.770448	-3.85208	-0.0541823	-0.00175405	-0.0251803	-0.935303	0.446289	0.266602	0.736327	-0.0503042	-0.183319	-0.649373	3.53996	1.93271	9.65234	-0.0262786	-0.000548248	0.0105172	-0.25293	0.207275	-0.998535	-0.371149	0.575642	0.653063	0.323099	8.48216	0.133133	-4.99658	0.0151057	-0.00602848	0.000690474	-0.917725	0.48877	0.451904	
35	0.509593	-0.491806	-0.478251	-0.519344	9.8882	-0.238775	0.436243	-0.000147002	-0.0157675	0.0196458	-0.874268	0.425537	-0.0537109	0.399324	-0.57087	-0.634065	-0.335573	8.67449	-0.370853	-4.26386	-0.0940913	0.00276882	-0.0316634	-0.729248	0.342285	0.468262	0.778398	0.09132	-0.102275	-0.612615	0.805479	3.31951	10.3218	-0.154305	-0.0290849	-0.0179851	-0.0100098	0.0463867	-1.05078	0.759592	0.0451706	-0.0190018	-0.648551	-0.158733	0.668168	9.81397	0.0594988	-0.00354219	0.0959995	0.150146	0.415527	-0.958496	0.745126	0.0243083	-0.0220312	-0.666116	-0.0556176	0.330023	9.8026	-0.129118	-0.0131444	-0.0113463	0.097168	0.337891	-0.944336	0.783574	0.129933	-0.062869	-0.604299	-0.0476472	2.76883	13.3146	0.0114332	-0.00670741	-0.0314474	0.173096	0.171387	-1.05396	0.254343	-0.639555	-0.692869	-0.21497	5.83182	-0.267541	-7.21239	0.0379822	0.0326178	-0.0246071	-0.627197	0.398438	0.719971	0.772803	-0.102908	-0.111859	-0.616176	3.17581	-0.270257	10.3901	-0.0695789	0.0276624	-0.0402592	-0.185547	0.398926	-0.963867	0.456612	-0.518543	-0.663862	-0.286191	8.67678	-0.753477	-3.88317	0.0115929	-0.0201039	-0.0123962	-0.932861	0.444092	0.269043	0.735842	-0.0511254	-0.182799	-0.650005	3.56513	1.27209	9.58595	-0.0171649	0.0091611	-0.0250849	-0.257324	0.209473	-1.00537	-0.37056	0.576278	0.652803	0.323168	8.35054	-0.503177	-5.08955	-0.0109489	-0.0158537	0.00747679	-0.922363	0.490723	0.465576	
36	0.510713	-0.490794	-0.478541	-0.518934	9.82883	0.00764084	0.512337	0.0661018	0.0414489	-0.000601121	-0.874268	0.427734	-0.0559082	0.398293	-0.571138	-0.634117	-0.336244	8.79979	-0.136338	-4.43517	-0.0337029	-0.00897019	-0.0444108	-0.731445	0.344482	0.4729	0.778425	0.0930659	-0.103876	-0.612048	0.320983	2.69976	10.4063	0.291552	0.0356595	0.0172081	-0.00976562	0.0375977	-1.05298	0.760214	0.047117	-0.0204817	-0.647638	-0.439795	1.21827	9.82239	0.0618617	0.0105582	0.0342904	0.152588	0.411133	-0.95166	0.745226	0.0231505	-0.0213266	-0.666069	-0.0693642	0.871834	9.9672	-0.141112	-0.00323861	-0.000357049	0.0993652	0.342285	-0.946777	0.784211	0.128074	-0.0615204	-0.604008	-0.182722	2.41096	13.2217	-0.0708583	0.0194383	0.00829805	0.170654	0.177979	-1.05615	0.255586	-0.639259	-0.692533	-0.215458	5.72828	-0.162598	-7.04786	0.0439087	0.0757338	-0.00501201	-0.62085	0.402588	0.717773	0.772876	-0.103173	-0.112178	-0.615982	3.64817	-0.27648	10.5015	0.0160481	-0.00720701	-0.00383263	-0.194336	0.398926	-0.963867	0.456246	-0.518975	-0.663906	-0.28589	8.62308	-0.880285	-4.04179	0.00960115	-0.0101069	-0.00808936	-0.928223	0.444092	0.273438	0.736106	-0.0508775	-0.183355	-0.64957	3.57766	1.93769	9.73923	0.00211813	0.00236757	0.0285854	-0.250732	0.209717	-1.00073	-0.37116	0.57572	0.653713	0.32163	8.38468	0.345315	-4.96661	0.0131669	-0.0162248	-0.011482	-0.920166	0.490967	0.456543	
37	0.511538	-0.489726	-0.478077	-0.519558	9.75786	0.0605742	0.620468	-0.00421956	0.0613454	-0.0206588	-0.876709	0.429932	-0.0581055	0.399504	-0.570304	-0.633592	-0.33721	8.67881	-0.423641	-4.27164	0.0121821	0.095622	-0.024248	-0.738037	0.346436	0.463379	0.778105	0.0954556	-0.105111	-0.611876	0.55541	3.78833	10.5422	0.2163	0.0440303	-0.0175534	-0.00756836	0.0354004	-1.0437	0.760971	0.0478736	-0.0203088	-0.646699	-0.476388	0.97073	10.0342	0.0259141	0.0421656	0.0534732	0.148438	0.406738	-0.960449	0.745428	0.0220489	-0.0205405	-0.665904	-0.133882	0.244175	9.73201	-0.10854	-0.00431425	0.00608299	0.0969238	0.34668	-0.944336	0.784442	0.128154	-0.0614785	-0.603696	-0.303855	2.56609	13.2802	0.00698338	0.0261866	0.00996855	0.175293	0.173584	-1.05396	0.257395	-0.638744	-0.692606	-0.214596	6.01713	-0.456435	-7.35128	0.116716	0.0463923	-0.0218392	-0.621094	0.404785	0.711182	0.772877	-0.102595	-0.113066	-0.615915	3.57549	-0.313769	10.4615	0.063419	0.00992972	-0.0182656	-0.189453	0.385986	-0.970703	0.45592	-0.51909	-0.664094	-0.285766	8.64582	-1.14646	-4.06181	0.0108491	-0.0100755	-0.0279831	-0.930664	0.44873	0.273438	0.735716	-0.0524521	-0.182578	-0.650104	3.73093	1.55299	9.59519	-0.0706175	-0.00132045	-0.0211597	-0.26001	0.216064	-1.00317	-0.369741	0.576643	0.653215	0.32262	8.37602	-0.325196	-5.21789	-0.0215064	-0.0140821	0.00172069	-0.924561	0.486328	0.456543	
38	0.511722	-0.489114	-0.477171	-0.520783	9.77176	0.0225029	0.700994	-0.0300084	0.0510879	0.00177192	-0.878662	0.425537	-0.0625	0.40027	-0.569935	-0.632997	-0.338042	8.62434	-0.376301	-4.35295	-0.00948618	0.0591169	-0.00819085	-0.733643	0.346436	0.463379	0.778601	0.0914781	-0.101853	-0.612403	0.270157	2.76464	10.4989	-0.22563	0.0097925	-0.00372179	-0.0078125	0.0463867	-1.04395	0.761673	0.0490394	-0.0200368	-0.645792	-0.26777	1.20573	9.8925	0.00251872	0.0469024	0.0413376	0.159424	0.406738	-0.956055	0.745514	0.0239667	-0.0218182	-0.665701	0.180774	0.670832	9.75879	0.105852	0.0310082	-0.0120514	0.103516	0.34668	-0.944336	0.784729	0.128393	-0.0611721	-0.603302	-0.0643945	2.65623	13.1859	0.00666356	0.0364459	-0.00962065	0.168701	0.175781	-1.05615	0.259263	-0.637877	-0.692482	-0.215322	5.99476	-0.237723	-7.12008	0.0854502	0.168934	-0.0418752	-0.621094	0.406982	0.708984	0.773613	-0.103042	-0.112475	-0.615024	3.58484	0.0537221	10.5658	-0.0804721	0.02424	0.0350721	-0.194092	0.392334	-0.961426	0.456022	-0.518698	-0.66446	-0.285464	8.65816	-0.943959	-4.075	0.0476149	-0.00388328	-0.0416733	-0.926025	0.44873	0.268799	0.73597	-0.0511716	-0.183267	-0.649725	3.55919	1.59305	9.73202	0.0974192	0.0325277	0.0108243	-0.25293	0.209473	-1.00317	-0.370565	0.576203	0.653871	0.32113	8.39483	0.11881	-5.01228	0.0382158	-0.00826959	0.00149449	-0.922363	0.490723	0.460938	
39	0.512892	-0.488538	-0.476358	-0.520917	9.61275	-0.106453	0.744988	0.0353641	0.0468227	0.0274254	-0.874023	0.423584	-0.0688477	0.400149	-0.569948	-0.632851	-0.338435	8.83072	-0.220717	-4.28956	0.00270524	-0.00367581	-0.0404937	-0.729004	0.340088	0.466064	0.77788	0.0934609	-0.101602	-0.613062	0.647133	3.0509	10.4075	0.0757356	0.0595215	-0.0522152	-0.00976562	0.0397949	-1.04395	0.761792	0.0496179	-0.019643	-0.64562	-0.236585	1.00132	9.83313	0.0161013	0.0609433	0.0138849	0.161621	0.406738	-0.956055	0.745666	0.0237662	-0.0208655	-0.665568	-0.0380914	0.988878	9.86507	-0.0958877	0.0273095	-0.00857429	0.097168	0.340088	-0.948975	0.785353	0.127834	-0.0594813	-0.602777	-0.18678	2.67372	13.083	-0.0820004	0.0669947	0.0121434	0.175049	0.175781	-1.05615	0.262952	-0.636396	-0.69175	-0.217574	5.76215	-0.417997	-6.97904	0.0744378	0.167355	-0.0270779	-0.638428	0.40918	0.696289	0.773603	-0.103795	-0.111524	-0.615083	3.44752	-0.243211	10.5326	0.00352136	0.0210284	-0.0332813	-0.194092	0.394531	-0.963867	0.455684	-0.518442	-0.664809	-0.285654	8.71891	-0.69512	-4.09744	-0.00729072	0.00111177	-0.0333694	-0.9375	0.446289	0.27124	0.73585	-0.0509315	-0.183191	-0.649901	3.54912	1.70754	9.7732	-0.051703	0.0199056	-0.00279502	-0.255127	0.205078	-1.00757	-0.36955	0.576874	0.653364	0.322125	8.4454	-0.190005	-5.12472	-0.0365559	5.46339e-05	-0.00466902	-0.917725	0.48877	0.461182	
40	0.513564	-0.488279	-0.4764	-0.520461	9.6514	-0.0345693	0.759016	0.0561306	0.013378	0.0333724	-0.874268	0.425781	-0.0625	0.400584	-0.569517	-0.632484	-0.339332	8.73391	-0.239974	-4.33627	-0.0277283	0.0994847	-0.0414026	-0.735596	0.342041	0.463623	0.777808	0.0937173	-0.100767	-0.613252	0.679751	2.76804	10.3266	0.00260496	0.0311693	-0.00811142	-0.00146484	0.0461426	-1.04858	0.761157	0.0518585	-0.0192051	-0.646205	-0.282185	1.19247	9.57156	0.0489633	0.0752325	-0.0520392	0.159668	0.404541	-0.956055	0.745896	0.022497	-0.0189869	-0.665411	0.0143209	0.0681399	9.56688	0.00336814	0.0351824	-0.00623361	0.103516	0.344482	-0.944336	0.785353	0.127834	-0.0594813	-0.602777	-0.18678	2.67372	13.083	-0.0820004	0.0669947	0.0121434	0.175049	0.175781	-1.05615	0.267452	-0.634392	-0.691253	-0.219513	6.03887	-0.25802	-6.99906	0.0799726	0.233207	-0.043849	-0.640625	0.40918	0.694092	0.77346	-0.103612	-0.111626	-0.615275	3.43385	-0.102031	10.5204	0.0165145	0.0217819	-0.0399945	-0.185547	0.398926	-0.961426	0.455743	-0.518692	-0.664879	-0.284943	8.65929	-0.847004	-3.9242	0.0104987	-0.0152551	0.00700145	-0.937256	0.44165	0.27124	0.735857	-0.0514381	-0.183168	-0.64986	3.7367	1.46142	9.72512	-0.0307084	-0.0113294	0.0118736	-0.257324	0.209473	-0.998535	-0.36955	0.576874	0.653364	0.322125	8.4454	-0.190005	-5.12472	-0.0365559	5.46339e-05	-0.00466902	-0.917725	0.48877	0.461182	
41	0.514491	-0.488161	-0.47645	-0.519609	9.75705	-0.0515309	0.716118	0.0270104	0.000761817	0.0221576	-0.874512	0.430176	-0.0668945	0.400853	-0.568994	-0.632645	-0.339592	8.65152	-0.155225	-4.22053	0.0463644	0.0127778	-0.0351212	-0.737549	0.335693	0.463867	0.778226	0.0927412	-0.0984404	-0.613247	0.329995	3.19839	10.4779	-0.161547	0.0513404	0.013347	0.00268555	0.0505371	-1.04639	0.760486	0.0515988	-0.0173243	-0.647069	-0.418386	0.600421	9.53336	-0.049131	0.0551252	-0.0362268	0.164062	0.402344	-0.953857	0.745953	0.0243313	-0.0197117	-0.665262	-0.0886709	0.892287	9.76182	0.00962357	0.0286896	-0.00627641	0.103271	0.348877	-0.942139	0.785055	0.128423	-0.0577603	-0.603208	-0.19916	2.48453	13.0563	-0.0151048	0.0401028	-0.0356267	0.183838	0.175781	-1.05615	0.27065	-0.633094	-0.690664	-0.221187	5.8261	-0.278292	-7.09818	0.0416695	0.124728	-0.0195672	-0.644775	0.406982	0.687744	0.773344	-0.103436	-0.111077	-0.615551	3.38992	-0.200268	10.5078	0.01873	0.0346523	-0.0283248	-0.194336	0.398926	-0.966064	0.455896	-0.518942	-0.664875	-0.284253	8.62	-0.789394	-3.98683	0.0161348	-0.0019897	0.000953033	-0.932861	0.444092	0.27124	0.736324	-0.0507461	-0.183394	-0.649321	3.47419	1.65989	9.6185	0.040146	0.036187	0.0257814	-0.255371	0.21167	-0.998535	-0.369923	0.576282	0.654055	0.321352	8.4514	0.151666	-5.13328	-0.0124593	0.00546903	-0.0110043	-0.919922	0.486328	0.465576	
42	0.514346	-0.488621	-0.476305	-0.519453	9.85505	-0.113641	0.700174	-0.0255107	-0.0241325	0.00797234	-0.874512	0.430176	-0.0646973	0.400798	-0.569118	-0.63258	-0.339572	8.84033	-0.279135	-4.37281	-0.00790257	0.00658049	-0.00321241	-0.735596	0.340088	0.463623	0.778898	0.0906435	-0.0957968	-0.613127	0.473439	2.69604	10.234	-0.0527182	0.0395316	0.0104622	-0.00170898	0.0571289	-1.04663	0.760281	0.0517094	-0.0160892	-0.647333	-0.269114	1.04075	9.53291	-0.0572939	0.0418821	-0.00417176	0.16626	0.406738	-0.958252	0.746205	0.0236482	-0.018769	-0.665031	0.138125	0.479558	9.74632	-0.0375703	0.01445	-0.007093	0.105469	0.351074	-0.946777	0.784936	0.129274	-0.0577173	-0.603185	-0.130813	2.53681	13.0887	0.0493267	0.0333874	-0.0229005	0.179443	0.175781	-1.0498	0.271721	-0.63287	-0.690149	-0.222119	6.18847	-0.53224	-7.01871	0.0281265	0.0492947	-0.0117687	-0.64502	0.411377	0.689697	0.773186	-0.104212	-0.110234	-0.615769	3.5974	-0.420336	10.4399	-0.0559455	0.0322311	-0.0267588	-0.194092	0.394531	-0.963867	0.455531	-0.519558	-0.664551	-0.284471	8.69712	-1.07245	-4.14992	-0.00463038	0.000721296	0.00152475	-0.935059	0.444092	0.273438	0.735939	-0.0503061	-0.183421	-0.649784	3.6598	1.79525	9.81216	0.0135516	0.0114315	-0.0312606	-0.25293	0.207275	-0.998535	-0.369777	0.576572	0.653952	0.321211	8.46079	0.122307	-5.07691	0.0204812	0.000562281	0.016359	-0.922363	0.488525	0.45874	
43	0.513691	-0.488713	-0.476365	-0.51996	9.99283	-0.199682	0.583275	-0.016236	0.00108363	-0.0321521	-0.876465	0.427979	-0.0668945	0.401934	-0.568623	-0.63289	-0.338477	8.67751	-0.244737	-4.3581	0.0441492	0.0380668	-0.020185	-0.731445	0.346436	0.461182	0.778674	0.0912289	-0.0956384	-0.61335	0.499361	2.81697	10.545	0.0170868	0.0118078	-0.0169063	0.00268555	0.0546875	-1.04883	0.760817	0.0532046	-0.0157505	-0.64659	-0.300955	0.849432	9.65573	0.0696989	0.0561044	0.0442078	0.168457	0.404541	-0.953857	0.746119	0.0250269	-0.0199939	-0.665041	-0.0911944	0.665439	9.93063	0.0974489	0.00690166	-0.0171254	0.10376	0.337891	-0.946777	0.785155	0.129848	-0.0580216	-0.602747	-0.219463	2.57757	13.2227	0.0277334	0.0174286	0.00520354	0.183838	0.173584	-1.05615	0.273592	-0.632463	-0.68962	-0.222626	6.28294	-0.263443	-7.12667	0.0402898	0.104037	0.00313758	-0.651611	0.411377	0.681152	0.773052	-0.103926	-0.109667	-0.616087	3.42944	-0.252215	10.5602	-0.00563785	0.0347306	-0.0213577	-0.192139	0.398926	-0.966064	0.45558	-0.519608	-0.664621	-0.284135	8.62187	-0.962633	-4.01568	-0.00245283	0.00206691	-0.0218431	-0.9375	0.446289	0.268799	0.735587	-0.0517681	-0.183082	-0.650164	3.58653	1.54225	9.80414	-0.0632062	-0.021117	0.0034955	-0.255127	0.207275	-0.998535	-0.370055	0.576663	0.653829	0.320977	8.46498	-0.227287	-5.14021	0.05589	0.00537886	0.000181872	-0.922363	0.488525	0.461182	
44	0.513449	-0.488494	-0.476704	-0.520093	10.0057	-0.0377606	0.464733	0.00580434	-0.0118376	-0.0145685	-0.876465	0.425781	-0.0646973	0.401645	-0.568911	-0.632236	-0.339558	8.69376	-0.166831	-4.50372	-0.0409286	0.0888694	-0.0221342	-0.738037	0.344238	0.46582	0.778028	0.0936336	-0.0971308	-0.613572	0.468665	3.01378	10.3885	0.131289	0.00952841	-0.0345274	0.00268555	0.0505371	-1.04639	0.761641	0.0534979	-0.0158792	-0.645592	-0.301511	1.09217	9.41024	-0.0085088	-0.00186756	0.0543721	0.173096	0.402588	-0.960449	0.746331	0.0260012	-0.0210458	-0.664734	0.0660554	0.536167	9.85936	0.0716124	-0.00187711	0.00483076	0.101562	0.342285	-0.942139	0.785174	0.130831	-0.0594251	-0.602373	-0.193088	2.60387	13.1596	0.0830627	-0.0124296	-0.00396179	0.181885	0.171387	-1.05396	0.272772	-0.633149	-0.68897	-0.223692	6.10482	-0.336604	-6.98259	-0.0604548	-0.0566464	0.00177123	-0.651611	0.411377	0.689697	0.773227	-0.104501	-0.109773	-0.615751	3.43456	-0.0983249	10.6407	-0.00822956	-0.0172603	-0.00813769	-0.185791	0.398926	-0.970947	0.45546	-0.519731	-0.664574	-0.284214	8.69212	-0.859543	-4.05414	0.0174582	0.00400648	-0.0128275	-0.925537	0.437256	0.275879	0.73536	-0.0513868	-0.184223	-0.650129	3.69619	1.49966	9.84932	0.0749843	-0.00762114	-0.00920582	-0.255127	0.207275	-0.998535	-0.369917	0.576902	0.653402	0.321577	8.34097	-0.254488	-5.1863	-0.0809327	0.0263	-0.0035408	-0.917725	0.48877	0.45874	
45	0.513132	-0.488258	-0.476058	-0.521218	10.0709	-0.0353741	0.477907	-0.0521986	0.0545109	-0.0239886	-0.87207	0.427979	-0.0688477	0.401592	-0.56814	-0.633217	-0.339082	9.0182	-0.303911	-4.10128	0.0563525	0.0221298	-0.0679597	-0.73584	0.344238	0.456543	0.77793	0.0929268	-0.0970577	-0.613815	0.0929687	2.66684	10.536	-0.0364729	-0.025155	0.0174986	-0.00366211	0.0505371	-1.04883	0.761893	0.0534599	-0.0167061	-0.645276	-0.643547	0.925189	9.52142	0.0579885	-0.0238252	-0.00402347	0.170898	0.402588	-0.958252	0.746374	0.0265447	-0.021973	-0.664634	-0.217608	0.768747	9.95395	0.0815138	-0.019104	-0.00516879	0.105957	0.340088	-0.942139	0.785303	0.130835	-0.0600806	-0.60214	-0.308853	2.66426	13.1505	0.0358572	-0.0228368	0.00718637	0.179932	0.167236	-1.05151	0.273446	-0.633595	-0.688127	-0.224199	6.32672	-0.39092	-7.14404	-0.00194039	0.0421341	0.0253686	-0.655762	0.411377	0.68335	0.772252	-0.107416	-0.108385	-0.616718	3.58739	-0.21827	10.5331	-0.175267	-0.000572977	-0.0693779	-0.19458	0.405273	-0.949951	0.455231	-0.520805	-0.663768	-0.284499	8.64218	-0.818009	-4.02937	-0.0559409	0.013324	0.0265882	-0.928223	0.444092	0.27124	0.735271	-0.0526263	-0.184028	-0.650186	3.50462	2.12171	9.72071	-0.113634	-0.0188798	0.0108889	-0.257568	0.213867	-0.998535	-0.370381	0.576604	0.653462	0.321456	8.39789	0.193682	-5.1073	0.0105268	0.0146359	0.00148673	-0.92041	0.495361	0.456543	
46	0.513362	-0.487149	-0.4746	-0.523354	9.88135	-0.0544593	0.762813	-0.0378142	0.109278	-0.0317253	-0.878662	0.427979	-0.0710449	0.401864	-0.568106	-0.632992	-0.339237	8.64859	-0.277185	-4.38138	-0.0194535	-0.0258877	0.00637719	-0.742188	0.342041	0.458984	0.77825	0.0931709	-0.0977214	-0.613267	0.402236	2.91936	10.4119	0.0532632	-0.0170494	0.0515174	0.00292969	0.0483398	-1.05103	0.761785	0.0522493	-0.0170979	-0.645493	-0.412158	0.877529	9.86328	-0.0531535	-0.0385185	-0.000802224	0.166016	0.408936	-0.956055	0.746821	0.026158	-0.0227943	-0.66412	0.131809	0.548591	9.60997	0.0304331	-0.0281003	0.0180339	0.0974121	0.333496	-0.944336	0.785465	0.131616	-0.0621356	-0.601549	-0.0454146	2.66012	13.271	0.123629	-0.0217509	0.00754262	0.175537	0.167236	-1.06445	0.273903	-0.633792	-0.687663	-0.224509	6.10976	-0.476104	-7.02218	0.00761979	0.0579429	0.0190684	-0.651123	0.404785	0.685547	0.771405	-0.107795	-0.108974	-0.617608	3.26805	-0.704107	10.5583	0.0692768	-0.0256392	-0.0551468	-0.19043	0.409668	-0.949951	0.455648	-0.521336	-0.66341	-0.283693	8.65854	-0.90302	-4.02476	0.0302922	-0.00375439	0.0178768	-0.930908	0.453125	0.270996	0.734605	-0.0545113	-0.18345	-0.650946	3.81578	1.30503	9.47079	-0.00802111	-0.00740124	-0.0416453	-0.255371	0.21167	-0.996338	-0.37025	0.577073	0.652746	0.322218	8.41219	-0.0838846	-5.01268	-0.0132434	0.0269666	0.0102291	-0.917969	0.495361	0.45874	
47	0.513915	-0.485808	-0.473997	-0.524604	9.53317	-0.0389783	0.948761	0.0182911	0.0491749	-0.0324178	-0.874268	0.425781	-0.0710449	0.402147	-0.568165	-0.63255	-0.339627	8.77743	-0.286665	-4.334	-0.0226767	0.0530834	-0.00366726	-0.735596	0.342041	0.454102	0.778766	0.0921458	-0.098014	-0.612721	0.406	2.97535	10.5145	-0.0404125	-0.0344137	0.0339965	0.00268555	0.0505371	-1.04639	0.762386	0.0517391	-0.0181032	-0.644796	-0.362247	1.20441	9.87996	0.0106101	-0.0408099	0.055555	0.164062	0.406738	-0.956055	0.746925	0.027588	-0.0245166	-0.663884	0.210576	0.947746	9.8226	0.0525832	0.00109004	-0.0120245	0.101807	0.333496	-0.951172	0.785747	0.131929	-0.0625295	-0.601071	0.0252675	2.90878	13.267	0.0426337	0.0124041	0.0257507	0.171387	0.165039	-1.05786	0.273418	-0.634628	-0.686755	-0.225516	6.12161	-0.429836	-6.92526	-0.0177165	0.0355953	0.012902	-0.658203	0.41333	0.678955	0.771276	-0.108341	-0.109674	-0.617549	3.60074	-0.0879501	10.6022	-0.0497281	-0.00121782	-0.00548205	-0.196777	0.407715	-0.959229	0.454792	-0.522021	-0.663121	-0.284479	8.53859	-1.36537	-4.05945	-0.0313685	-0.00400277	-0.0313836	-0.928467	0.450928	0.275635	0.734033	-0.0541743	-0.184319	-0.651373	3.38811	1.72851	9.70156	0.0183927	-0.0223398	-0.0236978	-0.261963	0.21167	-0.998535	-0.370543	0.577475	0.652245	0.322175	8.36728	-0.0734833	-5.00178	-0.0411981	0.0116885	0.0204275	-0.917969	0.490967	0.45874	
48	0.514067	-0.485613	-0.474197	-0.524454	9.60284	0.0196527	0.98383	0.0287441	-0.00313266	-0.00485831	-0.876221	0.423584	-0.0754395	0.402341	-0.568397	-0.632195	-0.339671	8.59351	-0.340852	-4.52518	-0.0176944	0.029455	0.0127287	-0.737793	0.339844	0.454346	0.778628	0.0925422	-0.0990492	-0.612669	0.576422	2.98751	10.468	0.0480993	-0.012997	-0.0162304	-0.00146484	0.0483398	-1.05103	0.762879	0.0508192	-0.0181497	-0.644286	-0.254415	1.02884	10.0283	-0.0534502	-0.0410733	0.0579947	0.163818	0.408936	-0.953857	0.746867	0.0280383	-0.0252302	-0.663903	0.099326	0.757934	9.83486	0.0420553	-0.00253804	-0.0224358	0.104004	0.333496	-0.953613	0.786811	0.133004	-0.0625872	-0.599434	-0.165075	2.88362	13.1295	0.0512786	0.035372	0.0295381	0.182373	0.158447	-1.05566	0.273572	-0.634837	-0.686586	-0.225256	6.04979	-0.439657	-6.9035	-0.0176377	-0.018134	-0.0100174	-0.647461	0.415527	0.6875	0.771229	-0.10937	-0.108753	-0.617589	3.41938	-0.603475	10.3306	-0.106272	0.0244568	-0.00636941	-0.198975	0.409668	-0.959229	0.455179	-0.521568	-0.663522	-0.283755	8.6962	-0.913633	-4.06821	0.0846054	-0.00655712	-0.0243816	-0.930664	0.446289	0.275635	0.73372	-0.0544054	-0.184628	-0.65162	3.61691	1.62798	9.70582	-0.00224666	-0.0198998	-0.0269141	-0.259766	0.209473	-0.998535	-0.370624	0.577636	0.652082	0.322124	8.47067	-0.254261	-4.98895	-2.09195e-05	0.00908644	0.0149607	-0.920166	0.48877	0.463379	
49	0.513574	-0.485733	-0.475396	-0.52374	9.64726	0.039072	0.799389	0.0269164	-0.0631028	-0.028053	-0.876465	0.425781	-0.0688477	0.402826	-0.568133	-0.631777	-0.340313	8.85656	-0.316997	-4.35841	-0.0419334	0.119434	-0.0219698	-0.737793	0.339844	0.458984	0.778607	0.0934715	-0.100397	-0.612335	0.633359	3.01997	10.4581	0.0879052	-0.00977284	0.0202571	-0.00146484	0.0483398	-1.04639	0.763221	0.0505908	-0.0186864	-0.643883	-0.342419	1.3211	9.82637	-0.00761471	-0.0128134	0.0136743	0.161865	0.404541	-0.956055	0.746723	0.0294338	-0.026028	-0.663974	-0.0734462	0.766934	9.80404	0.0711116	0.0302315	-0.0225132	0.101807	0.333496	-0.946777	0.786837	0.134245	-0.0632646	-0.599053	-0.325987	3.0274	13.2172	0.0583514	0.0268469	-0.0179921	0.177979	0.158447	-1.05347	0.274055	-0.63494	-0.686318	-0.225196	6.15111	-0.443814	-6.77649	0.0636913	0.0427951	0.00464043	-0.649658	0.415527	0.68335	0.771427	-0.108761	-0.110019	-0.617225	3.73893	-0.339006	10.4753	0.0783055	-0.0114568	-0.0130365	-0.197021	0.411865	-0.957031	0.454594	-0.521686	-0.663617	-0.284254	8.63806	-0.994118	-3.9975	-0.0370129	-0.00337966	-0.0348285	-0.928467	0.44873	0.277832	0.733332	-0.0557074	-0.183561	-0.652247	3.54555	1.39537	9.78571	-0.0899778	0.010511	-0.00854785	-0.259766	0.213867	-0.996338	-0.37036	0.577962	0.651918	0.322175	8.37216	-0.218586	-5.07527	-0.0397356	-0.00101051	-0.00428531	-0.920166	0.493164	0.45874	
50	0.513203	-0.48586	-0.476494	-0.522988	9.83846	-0.0490637	0.777012	0.0279301	-0.0483268	-0.0123462	-0.880615	0.421387	-0.0646973	0.40369	-0.567949	-0.631647	-0.339839	8.6237	-0.399856	-4.15192	0.0516395	-0.0157621	0.00609397	-0.735596	0.342041	0.456543	0.779025	0.0912191	-0.0992276	-0.612334	0.484949	3.06273	10.2514	-0.184817	-0.0134676	0.0151197	-0.00146484	0.0549316	-1.04883	0.763159	0.0492473	-0.0179743	-0.644081	-0.264641	0.881115	9.74627	-0.0361118	0.00164991	-0.0175266	0.159424	0.408936	-0.953857	0.746633	0.0300465	-0.0253572	-0.664074	0.260403	0.726667	9.5602	-0.0215516	0.0496585	-0.0171625	0.0998535	0.329102	-0.951172	0.786337	0.134659	-0.0625983	-0.599685	0.0254394	2.8408	13.0135	-0.0122971	0.0463964	-0.0704261	0.182373	0.15625	-1.05566	0.274046	-0.634812	-0.68697	-0.223574	6.01223	-0.406676	-7.03169	0.0321092	-0.0580178	-0.0270808	-0.649414	0.413574	0.681152	0.771505	-0.108647	-0.109775	-0.617192	3.37619	-0.248517	10.5019	-0.0408583	0.0238703	-0.021364	-0.19873	0.40332	-0.956787	0.454688	-0.521426	-0.663748	-0.284275	8.64536	-0.872526	-4.13939	0.031309	0.0122227	-0.0257152	-0.93042	0.444092	0.273438	0.733724	-0.0558591	-0.184076	-0.651647	3.79694	1.41154	9.59721	0.0702548	0.0107171	0.0441321	-0.261963	0.213867	-0.996338	-0.370698	0.577052	0.652672	0.321891	8.4346	0.0328081	-5.06477	0.074398	0.00481422	-0.0414322	-0.917969	0.490967	0.465576	
51	0.513293	-0.485571	-0.477848	-0.521931	9.86073	0.142648	0.791125	0.0552055	-0.0449823	0.000390311	-0.876221	0.423584	-0.0732422	0.403604	-0.568384	-0.631071	-0.340284	8.97382	-0.243388	-4.23156	-0.0336811	0.0241428	0.00054328	-0.738037	0.344238	0.456543	0.779374	0.0909039	-0.0991342	-0.611951	0.44545	2.64229	10.4685	0.145964	0.00516945	0.0138236	-0.00146484	0.0549316	-1.04419	0.76247	0.0502686	-0.0183173	-0.644807	-0.447792	1.16451	9.66543	0.039441	0.01404	-0.0338517	0.161621	0.408936	-0.949463	0.746362	0.0285127	-0.022943	-0.664534	-0.260956	0.866854	9.86574	-0.192366	0.0317378	-0.0425387	0.0996094	0.335693	-0.944336	0.786211	0.133981	-0.0610644	-0.60016	-0.351362	2.57983	12.9538	-0.0526561	0.0393017	-0.0355344	0.182129	0.162842	-1.04932	0.274133	-0.634498	-0.687358	-0.223165	6.21418	-0.454402	-7.12303	0.0495271	0.00328365	-0.0338814	-0.651611	0.413574	0.678955	0.771579	-0.108435	-0.110255	-0.61705	3.58303	-0.296383	10.5447	0.0349745	0.0135355	-0.00984405	-0.199219	0.411865	-0.964111	0.454757	-0.521271	-0.66381	-0.284304	8.58196	-0.971164	-3.96116	-0.000545397	0.00445663	-0.0266829	-0.926025	0.446533	0.27124	0.734235	-0.0546526	-0.185107	-0.650883	3.47761	1.89061	9.69174	0.0526324	0.00359115	0.018797	-0.26001	0.216064	-0.994141	-0.370184	0.576641	0.653029	0.322493	8.4218	-0.265511	-5.06059	-0.0099067	0.0122927	-0.0359896	-0.919922	0.486328	0.463379	
52	0.513248	-0.486623	-0.478192	-0.520679	9.731	-0.0815564	0.847375	-0.00369846	-0.0707608	0.0275705	-0.878174	0.419189	-0.0688477	0.403227	-0.568819	-0.630943	-0.340242	8.89619	-0.347634	-4.63836	-0.042861	-0.0740035	-0.023401	-0.73584	0.346436	0.45874	0.778839	0.090794	-0.100436	-0.612436	0.589352	3.05146	10.6108	-0.062054	-0.0644381	-0.0306725	-0.0078125	0.0463867	-1.04395	0.762359	0.0505	-0.0193589	-0.64489	-0.284179	0.935517	9.61805	0.0735128	-0.0248449	0.00290306	0.161865	0.402344	-0.958252	0.745867	0.0285872	-0.0232392	-0.665076	0.0679166	0.254387	9.89816	0.138431	-0.00776037	-0.0440497	0.102051	0.329102	-0.944336	0.785693	0.134272	-0.061729	-0.600705	-0.291954	2.52137	12.8978	0.0559314	-0.022307	-0.0522814	0.182129	0.160645	-1.05566	0.273762	-0.634163	-0.687949	-0.222751	6.18334	-0.267315	-7.07624	0.011398	0.0089793	-0.0403507	-0.647217	0.40918	0.677002	0.771786	-0.108744	-0.110315	-0.616727	3.2987	-0.300325	10.6167	-0.00280573	-0.00541418	-0.0113432	-0.203125	0.40332	-0.956787	0.454711	-0.520787	-0.664084	-0.284624	8.67099	-0.824154	-4.05661	0.00452447	0.00958817	-0.034113	-0.933105	0.450928	0.275635	0.734613	-0.055718	-0.185097	-0.650368	3.92008	1.47746	9.6413	-0.00807054	-0.000491732	0.0361825	-0.264404	0.216064	-1.00098	-0.370436	0.575829	0.653761	0.322172	8.50928	0.143806	-5.05875	0.0132479	0.00343139	-0.0396811	-0.924805	0.49292	0.460938	
53	0.511954	-0.48865	-0.479519	-0.518832	10.0077	-0.180515	0.80696	-0.00355563	-0.14212	0.0354645	-0.878662	0.427734	-0.0625	0.40406	-0.567544	-0.630817	-0.341614	8.9281	-0.249729	-4.49118	0.0417972	0.103913	-0.0613907	-0.73999	0.339844	0.456543	0.778387	0.0902797	-0.10112	-0.612975	0.775096	2.63712	10.5641	0.00375144	-0.0700447	-0.0482592	-0.00585938	0.0483398	-1.04858	0.762377	0.0502434	-0.0200285	-0.644868	-0.222512	1.22225	9.85381	0.0198972	-0.0476002	0.00564	0.159668	0.402344	-0.958252	0.745538	0.0297426	-0.024832	-0.665336	0.0800415	0.620887	10.1553	0.15306	-0.0277631	-0.0456527	0.0996094	0.331299	-0.951172	0.785143	0.134536	-0.063239	-0.601208	-0.0830983	2.45085	13.1549	0.0967117	-0.075057	-0.0638051	0.179932	0.162842	-1.05371	0.273706	-0.633976	-0.68798	-0.223254	6.43619	-0.399431	-7.1664	-0.0117425	0.0355876	-0.0405621	-0.649414	0.413574	0.678955	0.771199	-0.109215	-0.110674	-0.617313	3.56009	0.104407	10.6054	-0.0286899	-0.00909463	-0.0611678	-0.198975	0.409668	-0.95459	0.454657	-0.520988	-0.663938	-0.284684	8.67784	-0.665123	-4.00569	-0.0118417	0.00785897	-0.00527615	-0.928223	0.446289	0.275635	0.734398	-0.0563426	-0.185877	-0.650335	3.61185	1.84443	9.75119	-0.0259834	-0.0515999	-0.0109213	-0.266846	0.220459	-0.998779	-0.369912	0.576057	0.653211	0.323478	8.42998	-0.0476129	-5.29027	-0.0618953	0.0285234	-0.0117727	-0.924561	0.488525	0.45874	
54	0.510693	-0.490134	-0.481877	-0.516485	9.67608	-0.18103	0.501845	0.0579953	-0.159845	-0.0192457	-0.883057	0.427734	-0.0539551	0.40439	-0.567138	-0.63086	-0.341817	8.69151	-0.306011	-4.37942	0.0130167	0.0485771	-0.0390967	-0.735596	0.342041	0.449463	0.777983	0.0898851	-0.102851	-0.613257	0.417118	2.92876	10.6358	-0.013018	-0.0601409	0.0133467	-0.012207	0.0529785	-1.04419	0.761581	0.0491971	-0.0206803	-0.645868	-0.389344	0.67907	9.92866	0.0173526	-0.0331805	-0.0729503	0.159912	0.400146	-0.956055	0.745591	0.0297827	-0.0266227	-0.665205	-0.0399131	0.911906	9.92842	0.0167193	-0.0559347	0.00467287	0.102295	0.324707	-0.946777	0.783928	0.135449	-0.0669953	-0.602182	-0.0634898	2.94642	13.4549	0.0714669	-0.0782575	-0.0517344	0.171875	0.151855	-1.05981	0.274519	-0.633603	-0.687824	-0.223796	6.16437	-0.479121	-7.25627	0.0145989	0.0483281	-0.0139477	-0.651611	0.415527	0.678955	0.769952	-0.110617	-0.111426	-0.618484	3.6088	-0.638172	10.566	0.0134728	-0.0437715	-0.0807265	-0.205322	0.405273	-0.952148	0.454887	-0.521665	-0.663283	-0.284604	8.63158	-0.74117	-4.15116	-0.0108353	0.0175673	0.0235921	-0.928223	0.446533	0.27124	0.73421	-0.0573274	-0.186059	-0.650409	4.04458	1.59171	9.6807	-0.0493212	-0.0505931	0.00169207	-0.269043	0.218018	-1.00342	-0.370337	0.575534	0.653217	0.323912	8.46194	0.0537714	-5.04863	0.0383677	0.0380582	-0.012326	-0.926514	0.484131	0.456543	
55	0.509121	-0.49146	-0.484434	-0.514379	10.0344	0.057288	0.36344	0.0216134	-0.131966	-0.00919206	-0.876465	0.425537	-0.0495605	0.404896	-0.566681	-0.631209	-0.341333	8.59581	-0.448603	-3.9937	0.0565194	0.0631776	-0.0352403	-0.73584	0.344238	0.454102	0.778343	0.0878742	-0.102706	-0.613116	0.61153	3.13078	10.3531	-0.0875128	-0.0266589	0.00569341	-0.0187988	0.057373	-1.04883	0.761003	0.0481151	-0.0205481	-0.646635	-0.308447	0.858764	10.0016	-0.0354414	-0.0228335	-0.0374282	0.157227	0.406738	-0.956055	0.745336	0.0294361	-0.0276252	-0.665466	-0.107598	0.519966	9.64305	0.0700516	-0.0256489	-0.0376998	0.0996094	0.331299	-0.946777	0.783826	0.136053	-0.0686538	-0.60199	-0.180715	2.63164	13.3222	0.10681	-0.00267016	-0.00086923	0.169922	0.147705	-1.05957	0.27377	-0.633921	-0.687041	-0.226205	6.11424	-0.426585	-6.73395	-0.0749561	0.0338563	-0.0237378	-0.653564	0.411377	0.685547	0.769137	-0.109645	-0.11493	-0.61903	3.97567	-0.289025	10.5617	0.116844	-0.0680368	-0.069858	-0.211914	0.405273	-0.95459	0.455845	-0.52205	-0.662427	-0.284357	8.63709	-1.1258	-4.22624	0.0109497	0.0440096	0.0172121	-0.926025	0.44873	0.275635	0.734093	-0.0569866	-0.187797	-0.650071	3.69293	1.72431	9.72086	0.0831185	-0.0372017	-0.00818509	-0.266602	0.213867	-0.996338	-0.370656	0.575131	0.652699	0.325303	8.42244	-0.188049	-5.13736	-0.0361764	0.0623122	-0.0302765	-0.924316	0.481934	0.454346	
56	0.50855	-0.491733	-0.48495	-0.514198	9.84134	0.0716776	0.38558	-0.00475151	-0.0646351	-0.0280933	-0.881104	0.427734	-0.0432129	0.403985	-0.567152	-0.631324	-0.341416	8.49254	-0.132359	-4.24967	-0.0104097	0.0176734	-0.0258459	-0.73999	0.342041	0.454346	0.778257	0.0871962	-0.102526	-0.613352	0.246598	2.54096	10.3727	0.0764433	0.00828872	-0.0114151	-0.012207	0.0507812	-1.04883	0.761118	0.0500225	-0.0216055	-0.646321	-0.462347	0.938655	9.70909	0.123918	0.0309922	0.025911	0.152832	0.406738	-0.958252	0.744647	0.0330742	-0.0313879	-0.665899	0.0532905	1.05532	9.60533	0.204788	0.00677927	-0.0400036	0.0981445	0.313721	-0.951172	0.784245	0.137891	-0.0694031	-0.60094	-0.151297	2.76338	13.0473	0.0782308	0.0354134	0.0317979	0.167969	0.143311	-1.06152	0.272047	-0.634353	-0.687811	-0.224727	6.02272	-0.363099	-6.94646	0.00369409	-0.129597	-0.0191074	-0.64917	0.406982	0.681396	0.768811	-0.110093	-0.115743	-0.619204	3.77857	0.121717	10.583	0.01214	-0.0548842	-0.0478531	-0.209473	0.398926	-0.956787	0.456513	-0.522166	-0.66156	-0.285092	8.58354	-0.989607	-3.98348	-0.054075	0.0575331	-0.0128953	-0.926025	0.450928	0.270996	0.733882	-0.059358	-0.188041	-0.650026	3.91591	1.27249	9.58267	-0.0814849	-0.0596767	0.0388623	-0.280029	0.213623	-0.989502	-0.371059	0.574571	0.652771	0.325688	8.42099	-0.235551	-5.02784	0.0195239	0.0575997	-0.037763	-0.928711	0.479736	0.454346	
57	0.506565	-0.493419	-0.485265	-0.514245	9.90565	0.129582	0.0207818	-0.0880168	-0.0929717	-0.013757	-0.878662	0.425537	-0.0410156	0.403279	-0.567523	-0.632239	-0.339938	8.61954	-0.228919	-3.95874	-0.00655521	-0.0133672	-0.0217292	-0.739746	0.337646	0.454346	0.777258	0.0908364	-0.104665	-0.61373	0.680541	3.1014	10.2253	0.086312	0.0152641	-0.0406263	-0.0119629	0.0397949	-1.04395	0.761725	0.0515678	-0.0219865	-0.64547	-0.367291	0.768307	9.49971	0.0673662	0.0424686	0.0305078	0.15332	0.397949	-0.953857	0.744146	0.0353433	-0.0341181	-0.666209	-0.210302	0.931028	9.46019	0.160936	-0.0328864	-0.0341265	0.0917969	0.311523	-0.953613	0.784982	0.139659	-0.0705405	-0.599435	-0.364514	2.9324	12.5427	0.050807	0.0290369	0.052334	0.172119	0.143311	-1.06152	0.271004	-0.634644	-0.688144	-0.224148	6.04959	-0.340007	-6.63902	0.0216126	-0.0300711	-0.0253251	-0.647217	0.40918	0.685547	0.768576	-0.112628	-0.114849	-0.619206	3.23804	-0.919282	10.4591	-0.0733276	-0.0165028	-0.000481674	-0.211914	0.405273	-0.95459	0.457337	-0.521274	-0.661448	-0.285663	8.61092	-1.3053	-4.03082	0.0898592	0.0464552	-0.0539205	-0.928467	0.450928	0.268799	0.734466	-0.0588718	-0.189947	-0.648857	3.54317	1.44475	9.56076	0.0741353	-0.0344044	0.0424331	-0.279785	0.211426	-0.987305	-0.371709	0.573243	0.653215	0.326398	8.49309	0.200407	-4.8989	0.00595394	0.0477698	-0.0472591	-0.926514	0.484131	0.456543	
58	0.50627	-0.493048	-0.483468	-0.516579	10.0233	-0.0613628	0.260217	-0.0641707	0.145888	-0.0346725	-0.876709	0.427734	-0.0429688	0.402717	-0.567901	-0.632991	-0.338568	8.58571	-0.278436	-4.04289	0.0496721	-0.0368328	-0.010571	-0.737793	0.339844	0.461426	0.777598	0.0918349	-0.104861	-0.613116	0.702876	3.19683	10.2935	0.0311028	0.0351652	0.035456	-0.0100098	0.0507812	-1.05103	0.761932	0.0520877	-0.0221019	-0.64518	-0.284137	1.31513	9.66907	-0.0735915	0.00139684	0.0131284	0.159668	0.402344	-0.960449	0.74355	0.0377554	-0.0377225	-0.666547	0.0691212	0.833465	9.50184	0.162523	-0.0324734	-0.0396903	0.092041	0.304932	-0.958008	0.785495	0.142869	-0.0738261	-0.597609	-0.118431	2.75446	12.8926	0.289075	-0.00671141	0.0501185	0.177002	0.130371	-1.05908	0.269861	-0.634923	-0.688872	-0.222493	6.05522	-0.258281	-6.82905	0.0287472	-0.0553862	-0.0128006	-0.64502	0.40918	0.691895	0.769487	-0.111917	-0.116851	-0.617827	3.7468	-0.138722	10.3105	0.0593946	0.000464311	0.0424552	-0.21167	0.403076	-0.95459	0.456896	-0.520403	-0.661811	-0.28711	8.57213	-1.07958	-3.75534	-0.0726663	0.0160993	-0.101066	-0.935059	0.444092	0.266602	0.734496	-0.060009	-0.190746	-0.648484	3.81734	1.65814	9.54925	-0.0375262	-0.0435633	0.0286795	-0.277588	0.213623	-0.991943	-0.371554	0.572572	0.653406	0.327368	8.38193	-0.0510944	-4.87344	0.0105118	0.0249758	-0.040131	-0.93335	0.481934	0.449707	
59	0.507678	-0.491203	-0.48192	-0.518397	9.52042	-0.0892728	0.65052	0.0197711	0.0971064	-0.00663981	-0.876465	0.42334	-0.0517578	0.402441	-0.568291	-0.633363	-0.337548	8.79783	-0.32326	-4.51924	0.00870353	-0.00831574	-0.00183417	-0.73584	0.344238	0.456543	0.778548	0.0889699	-0.102539	-0.612726	0.616767	2.93273	10.2934	-0.145705	0.00974393	0.0379723	-0.0100098	0.048584	-1.04639	0.762109	0.0512857	-0.0214643	-0.645058	-0.316068	0.93014	9.69508	0.00368316	0.00803327	0.007025	0.159912	0.400146	-0.953857	0.742856	0.0436711	-0.0436681	-0.666596	0.198828	1.40289	9.65439	0.357532	-0.0147626	-0.030532	0.0864258	0.282959	-0.964844	0.785877	0.145259	-0.0759333	-0.596264	-0.0328608	3.28567	13.0225	0.0304672	0.0245995	0.0405294	0.173096	0.121582	-1.05664	0.269122	-0.635188	-0.689269	-0.221399	6.21936	-0.509534	-6.99704	0.041684	-0.0347069	-0.0162962	-0.642578	0.406982	0.691895	0.770328	-0.111755	-0.117247	-0.616733	3.33197	-0.109406	10.3997	0.0222204	-0.00889202	0.025431	-0.209473	0.403076	-0.956787	0.457143	-0.518794	-0.662939	-0.287028	8.67678	-0.525024	-3.94766	0.0757696	0.00755602	-0.069238	-0.932861	0.444092	0.266846	0.73474	-0.0595457	-0.191155	-0.648129	3.31893	1.75114	9.70785	0.0163713	0.0201658	0.00345333	-0.275635	0.21582	-0.996338	-0.37163	0.571895	0.654122	0.327035	8.56028	0.0971364	-4.8456	0.0301003	-0.00817848	-0.029552	-0.931152	0.481934	0.452148	
60	0.508747	-0.489978	-0.482315	-0.518142	9.60042	0.117902	0.639754	0.068622	0.00843258	-0.00437204	-0.876221	0.419189	-0.0537109	0.403297	-0.568261	-0.632968	-0.337316	8.64451	-0.307652	-4.31931	0.0178964	0.0458972	0.00308719	-0.735596	0.337891	0.461426	0.778572	0.0901703	-0.10311	-0.612424	0.772939	3.10698	10.3925	0.0526579	0.00948496	-0.00986715	-0.0078125	0.048584	-1.04858	0.762938	0.0510026	-0.0213141	-0.644105	-0.235916	1.0378	9.83749	-0.0176556	0.00757242	0.0569848	0.157471	0.400146	-0.95166	0.743179	0.0442918	-0.0449398	-0.66611	0.146632	1.13785	9.7151	-0.0259052	-0.0112198	0.0224512	0.0905762	0.287354	-0.967285	0.786024	0.145964	-0.0770211	-0.595758	0.0237633	3.20384	12.9268	0.0801903	-0.00819557	-0.014028	0.170898	0.119385	-1.06079	0.269889	-0.634684	-0.68969	-0.220599	6.0059	-0.177688	-6.81151	0.0406139	0.00637526	-0.0286024	-0.647217	0.411377	0.691895	0.770555	-0.112058	-0.116927	-0.616455	3.50084	-0.0108139	10.5012	-0.0308827	0.0422529	-0.000257085	-0.21167	0.40332	-0.961426	0.455938	-0.519038	-0.663239	-0.287809	8.65575	-0.863895	-3.86598	-0.0575093	-0.0196022	-0.0456848	-0.932861	0.446289	0.27124	0.734765	-0.0598981	-0.191366	-0.648005	3.83089	1.43009	9.49427	0.0181939	-0.011087	0.02149	-0.275146	0.209229	-0.987061	-0.371029	0.571323	0.65504	0.32688	8.36939	-0.113699	-4.91629	0.033819	-0.0233462	-0.0513562	-0.935303	0.475342	0.454346	
61	0.509341	-0.489962	-0.48286	-0.517063	9.72812	0.117836	0.551331	0.035417	-0.0244938	0.0259152	-0.878418	0.42334	-0.0559082	0.404082	-0.568332	-0.632667	-0.336821	8.85965	-0.219724	-4.44997	0.00379026	0.0548594	0.00490768	-0.733398	0.342041	0.451904	0.778237	0.0909356	-0.103479	-0.612674	0.548174	2.74818	10.4345	0.0698105	0.0146244	-0.037662	-0.0163574	0.0441895	-1.04858	0.763485	0.0521414	-0.0219073	-0.643345	-0.423645	1.389	9.7734	0.0399986	0.0187837	0.0322084	0.159668	0.404541	-0.962646	0.743406	0.043932	-0.0450847	-0.665872	0.29679	1.31781	9.63428	-0.0138558	-0.0193831	0.0133305	0.088623	0.280762	-0.969482	0.786223	0.145221	-0.0767205	-0.595717	-0.0204577	3.37965	12.9888	-0.0592115	0.000746596	-0.00694354	0.170898	0.119385	-1.06079	0.269746	-0.634688	-0.689798	-0.220426	6.03586	-0.157148	-6.98908	0.0185309	-0.0084812	-0.0209883	-0.64502	0.411377	0.691895	0.770547	-0.11148	-0.117632	-0.616436	3.53394	-0.482331	10.3576	0.123619	-0.000899839	-0.0261806	-0.21167	0.398926	-0.956787	0.455488	-0.519118	-0.663783	-0.287123	8.67289	-0.735357	-3.94771	0.0025528	-0.0320659	-0.0185725	-0.935059	0.44165	0.27124	0.735631	-0.059376	-0.19127	-0.647099	3.76906	1.74139	9.59176	-0.0169652	0.0574063	0.0394496	-0.268799	0.213867	-0.989502	-0.370383	0.570577	0.656376	0.326234	8.49843	0.0317035	-5.06038	0.04997	-0.0375599	-0.054166	-0.928467	0.475342	0.456787	
62	0.509737	-0.489839	-0.482933	-0.516722	9.91133	0.146282	0.523203	0.013684	0.00997154	0.00447041	-0.876465	0.427734	-0.0581055	0.404617	-0.568409	-0.632449	-0.336458	8.72338	-0.409063	-4.12707	0.0071346	-0.0131171	0.00712873	-0.731689	0.348633	0.45874	0.777353	0.0950633	-0.104963	-0.612917	0.516751	3.28132	10.4372	0.103956	0.0582078	-0.0266724	-0.00341797	0.0354004	-1.04834	0.763131	0.05246	-0.0213523	-0.643757	-0.323695	1.21033	9.89931	0.0112695	0.0452018	-0.0451409	0.157715	0.400146	-0.958252	0.743889	0.0420396	-0.0440045	-0.665526	-0.0754973	1.16872	9.76531	-0.0857462	-0.0133258	0.0175077	0.0905762	0.289551	-0.960449	0.786214	0.144568	-0.0771013	-0.595838	-0.175815	3.07347	13.0209	0.0627296	-0.0145147	-0.0341709	0.172852	0.123779	-1.05884	0.270234	-0.634471	-0.689836	-0.220334	5.8897	-0.396157	-6.9195	0.0604101	0.0244362	-0.0166928	-0.647217	0.413574	0.6875	0.770682	-0.110976	-0.117966	-0.616294	3.90629	0.000784669	10.4136	-0.0549243	0.0402526	-0.00944713	-0.205078	0.401123	-0.956787	0.454669	-0.519405	-0.664185	-0.286972	8.60542	-1.025	-3.98179	-0.0169358	-0.0286515	-0.0277573	-0.93042	0.444092	0.27124	0.735693	-0.059156	-0.190816	-0.647183	3.81168	1.88404	9.64548	-0.00753018	0.0119529	-0.00945773	-0.277588	0.209229	-0.994141	-0.369911	0.570244	0.657313	0.325465	8.43551	0.276384	-5.18698	0.0299137	-0.0250765	-0.018487	-0.935303	0.477539	0.454346	
63	0.51018	-0.489442	-0.482605	-0.516967	9.93858	0.125828	0.617181	0.0105128	0.0530638	0.003286	-0.878174	0.416992	-0.0537109	0.405051	-0.568714	-0.631876	-0.336497	8.66957	-0.24775	-4.27543	-0.0137383	0.0471307	0.0324446	-0.733643	0.346436	0.45874	0.777889	0.094988	-0.103469	-0.612503	0.360151	3.25159	10.2999	-0.0109212	0.059844	0.026008	-0.00756836	0.0332031	-1.0437	0.762833	0.0530636	-0.0208462	-0.644078	-0.437624	1.30927	9.73584	0.012917	0.0668343	-0.0376234	0.162109	0.397949	-0.958252	0.744431	0.0422947	-0.0451409	-0.664828	-0.165414	1.5002	9.66297	0.0301337	-0.043749	0.00814728	0.0861816	0.287354	-0.962646	0.786503	0.144235	-0.0766086	-0.595601	-0.229498	3.19002	13.0943	-0.0548998	0.0397441	0.0102003	0.175049	0.125977	-1.06543	0.269545	-0.634737	-0.69023	-0.219176	5.88405	-0.127464	-7.0098	0.0440594	-0.0996129	-0.00922582	-0.645264	0.413574	0.691895	0.770826	-0.111571	-0.116961	-0.616198	3.58697	-0.407787	10.5144	-0.0807841	0.0510765	0.00837839	-0.21167	0.403076	-0.959229	0.454574	-0.519072	-0.664666	-0.286609	8.68015	-0.90892	-4.16788	0.0427899	-0.022662	-0.0453123	-0.92334	0.441895	0.273438	0.735812	-0.0595185	-0.190615	-0.647074	4.23133	1.67223	9.58572	-0.0295466	0.00833097	0.0209662	-0.277588	0.213623	-0.998779	-0.369336	0.570364	0.657432	0.325667	8.47389	0.191974	-5.13893	-0.03496	-0.0213654	-0.0243788	-0.933105	0.475342	0.456787	
64	0.510968	-0.489571	-0.4819	-0.516724	9.64086	0.114577	0.583866	-0.0013406	-0.00614163	0.0427687	-0.878662	0.425537	-0.0539551	0.404691	-0.56914	-0.631985	-0.336005	8.77744	-0.284288	-4.34216	-0.00411113	-0.021235	0.00181803	-0.738037	0.348633	0.456299	0.778517	0.0918799	-0.100944	-0.612601	0.541021	2.75237	10.2895	-0.17862	-0.000359981	0.00890753	-0.00805664	0.0505371	-1.05322	0.762529	0.0536611	-0.0196167	-0.644426	-0.391793	1.1496	9.63954	-0.0225083	0.0500424	-0.0187069	0.162109	0.400146	-0.956055	0.744668	0.0404125	-0.0445462	-0.664719	0.293878	1.14133	9.66423	-0.0892962	-0.0220345	0.00932508	0.0861816	0.289551	-0.962646	0.787259	0.143942	-0.0758529	-0.594769	0.00859112	2.99092	12.9604	0.0247634	0.0347435	0.018259	0.173096	0.121582	-1.06323	0.268319	-0.635264	-0.690306	-0.21891	6.13153	-0.538338	-7.07668	0.00935194	0.0232789	-0.0135097	-0.640869	0.415771	0.689697	0.771243	-0.111793	-0.117298	-0.615571	3.86834	-0.130551	10.5182	-0.00608144	-0.00692121	0.00066823	-0.207275	0.400879	-0.95459	0.453714	-0.519268	-0.66494	-0.286982	8.65024	-0.792096	-3.9802	-0.0513144	-0.00825029	-0.0371295	-0.935059	0.44165	0.275635	0.736061	-0.0586406	-0.190682	-0.646851	3.51706	1.58406	9.66271	0.0561905	0.0404323	-0.0125372	-0.268799	0.213867	-0.989502	-0.369628	0.569902	0.658252	0.324487	8.44546	0.278497	-5.06351	0.0743126	-0.0172718	-0.005995	-0.928467	0.475342	0.452148	
65	0.511267	-0.49012	-0.48131	-0.516458	9.85519	0.103323	0.642581	-0.0166273	0.00869179	0.0303026	-0.883057	0.427734	-0.0539551	0.404959	-0.56962	-0.631604	-0.335586	8.82356	-0.195769	-4.4135	0.0139174	0.00740043	0.0134417	-0.740479	0.35083	0.456299	0.778163	0.0934761	-0.101525	-0.612713	0.505194	3.35912	10.3604	0.0951438	0.0190018	-0.0215181	-0.00561523	0.0461426	-1.04858	0.762587	0.0535207	-0.018804	-0.644393	-0.466566	1.1508	9.4048	-0.025301	0.0194771	0.0151686	0.162354	0.393555	-0.949219	0.745011	0.0400971	-0.0448087	-0.664337	0.0930018	1.13121	9.78021	0.00647828	-0.00418541	0.00267289	0.088623	0.282959	-0.960449	0.787878	0.143197	-0.0752899	-0.5942	-0.16167	3.09286	12.8506	-0.0706912	0.0115545	0.00493408	0.177246	0.123779	-1.06323	0.267277	-0.635734	-0.690905	-0.216923	5.99659	-0.197577	-7.18079	0.0211565	-0.12067	-0.0047427	-0.638672	0.411377	0.694092	0.771818	-0.111363	-0.116989	-0.614987	3.55123	-0.476478	10.3505	0.064054	0.0279383	0.0257228	-0.204834	0.394531	-0.956787	0.453947	-0.518278	-0.665939	-0.286086	8.66844	-0.683813	-4.1911	0.10737	-0.00989685	-0.0356103	-0.932617	0.437256	0.275635	0.735834	-0.0581903	-0.191359	-0.64695	4.01584	1.85771	9.59632	-0.0111531	-0.000586857	0.00763376	-0.268799	0.21167	-0.998535	-0.369199	0.570024	0.65845	0.324359	8.44867	0.0307496	-4.98624	0.0304778	-0.0179027	-0.00575989	-0.928711	0.477539	0.461182	
66	0.511318	-0.491176	-0.480662	-0.516008	9.77654	-0.0467323	0.464835	-0.0218934	-0.0294503	0.0420068	-0.876709	0.429932	-0.0517578	0.405365	-0.569713	-0.631781	-0.334603	8.64199	-0.454037	-4.33783	0.053561	-0.0222152	0.0064341	-0.731689	0.35083	0.45166	0.77812	0.0907484	-0.100243	-0.613389	0.45541	2.69251	10.3542	-0.120885	-0.0322703	-0.0235832	-0.00585938	0.0505371	-1.04419	0.762787	0.0531625	-0.0187003	-0.64419	-0.407795	1.20527	9.59342	-0.00640121	-0.00543489	0.00307907	0.164307	0.397949	-0.956055	0.745541	0.0398438	-0.0450374	-0.663741	0.326989	1.28517	9.8421	-0.0192697	0.00324441	0.0185874	0.0930176	0.282959	-0.962646	0.788034	0.141975	-0.0750133	-0.594321	0.0955933	3.10734	13.0961	-0.0415871	-0.00689686	-0.021637	0.172852	0.125977	-1.06323	0.268069	-0.635437	-0.691054	-0.216341	5.87753	-0.46663	-6.92349	0.0795582	0.029648	-0.0209718	-0.64502	0.413574	0.696045	0.772703	-0.110801	-0.116799	-0.614012	3.56013	0.0269896	10.5078	-0.0892296	0.0597433	0.0275132	-0.209473	0.403076	-0.956787	0.452418	-0.518635	-0.66613	-0.287415	8.67191	-1.16107	-3.90003	-0.0766041	-0.0168305	-0.0653658	-0.929932	0.432617	0.275879	0.73577	-0.0584048	-0.190385	-0.647291	3.52406	1.48597	9.58213	-0.0116725	0.0306296	-0.0189329	-0.270996	0.211426	-0.994141	-0.369289	0.569932	0.658948	0.323406	8.39802	0.0734475	-5.05368	0.0364893	-0.0220982	-0.00100183	-0.92627	0.477539	0.456787	
67	0.51185	-0.491799	-0.479951	-0.515549	9.71916	-0.150715	0.533189	-0.00405619	0.0107071	0.0419884	-0.874512	0.432129	-0.0539551	0.405722	-0.570071	-0.63172	-0.333675	8.65982	-0.240462	-4.23976	-0.0436738	0.0129689	0.00885043	-0.731689	0.35083	0.458496	0.777747	0.0906076	-0.10049	-0.613841	0.607598	3.3353	10.2479	-0.0492127	-0.00746879	-0.0231476	-0.0078125	0.0463867	-1.04395	0.762711	0.0512274	-0.017763	-0.644463	-0.332091	0.993484	9.825	-0.101285	-0.014087	-0.018347	0.164062	0.406738	-0.953857	0.746413	0.0322729	-0.0360245	-0.663723	0.113586	1.63695	9.86152	-0.655294	0.0880816	0.0259823	0.0939941	0.311523	-0.953613	0.789192	0.135963	-0.0707548	-0.594714	-0.0548868	3.53837	13.2938	-0.465027	0.0200927	0.00382657	0.169922	0.143311	-1.06152	0.267145	-0.635616	-0.691461	-0.215657	5.9493	-0.427127	-7.18722	0.0162354	-0.0277818	-0.0145988	-0.632324	0.417969	0.693848	0.77341	-0.11032	-0.116474	-0.61327	3.68268	-0.44139	10.4303	0.105755	0.00114558	0.0185446	-0.205322	0.40332	-0.963867	0.452709	-0.517669	-0.667228	-0.286146	8.68533	-0.393085	-4.03449	0.0333156	-0.0173604	-0.0321412	-0.932373	0.434814	0.275879	0.735757	-0.0575615	-0.190934	-0.64722	3.89753	1.66444	9.5843	0.0360807	0.0343356	-0.00141004	-0.268555	0.21167	-0.994141	-0.369806	0.569637	0.659664	0.321871	8.40858	0.261705	-5.09264	0.0470903	-0.0194898	0.000563646	-0.921875	0.477539	0.454346	
68	0.512204	-0.491986	-0.479626	-0.51532	9.83676	-0.07198	0.52494	-0.00225945	-0.00245802	0.0194132	-0.874512	0.429932	-0.0559082	0.405292	-0.570999	-0.631891	-0.332283	8.75197	-0.322439	-4.24887	0.0368534	-0.0980738	0.0343669	-0.727539	0.359619	0.458252	0.777765	0.0876404	-0.0988153	-0.614522	0.41955	2.61494	10.2987	-0.0523903	-0.0128477	-0.0223861	-0.00390625	0.0612793	-1.04443	0.761971	0.05211	-0.0177355	-0.645267	-0.332518	1.26788	9.73386	0.0374034	0.0372197	-0.044889	0.161621	0.406738	-0.95166	0.74827	0.0198567	-0.0242874	-0.662652	0.236033	0.479264	9.51459	-0.630294	0.0357499	0.0429787	0.0925293	0.34668	-0.948975	0.79207	0.126633	-0.0619908	-0.593925	0.03788	2.25798	13.1032	-0.371849	0.0938162	0.0528933	0.181885	0.169434	-1.05176	0.267067	-0.635733	-0.691609	-0.214931	5.80911	-0.134361	-7.00403	0.00287121	-0.0152064	-0.0101014	-0.638916	0.417725	0.689697	0.773804	-0.109324	-0.116946	-0.612861	4.08357	-0.0619434	10.4222	0.0953727	0.0379948	0.0125739	-0.205078	0.398926	-0.959229	0.452147	-0.517318	-0.667862	-0.286191	8.57696	-1.08898	-4.09012	0.0663776	-0.0185281	-0.0530296	-0.925537	0.435059	0.273682	0.736148	-0.0571113	-0.190584	-0.646917	3.89515	1.60309	9.64888	0.0154671	0.0297132	0.018913	-0.268555	0.207275	-0.996338	-0.368515	0.57037	0.659467	0.322456	8.38599	-0.133989	-5.12987	-0.0289345	-0.0168511	-0.00483678	-0.922119	0.481934	0.456543	
69	0.512415	-0.492647	-0.478484	-0.515541	9.83994	-0.28442	0.645498	-0.0442237	0.0143844	0.029327	-0.874756	0.436523	-0.0561523	0.404384	-0.571816	-0.631636	-0.332469	8.8442	-0.542219	-4.59038	-0.0554379	-0.0673332	-0.0315047	-0.725342	0.355225	0.460693	0.777276	0.0875269	-0.0987166	-0.615171	0.768122	2.88215	10.4136	-0.00965994	-0.00334011	-0.066182	-0.0124512	0.0615234	-1.04663	0.760913	0.0525878	-0.017155	-0.646492	-0.281668	0.948178	9.66376	0.0285687	0.0336231	-0.0813321	0.164062	0.406738	-0.956055	0.748261	0.018565	-0.0226902	-0.662756	0.0494343	-0.453256	9.70214	-0.162809	0.0339191	-0.0215786	0.098877	0.353271	-0.939941	0.792865	0.125611	-0.0602467	-0.59326	-0.261826	2.43902	13.0654	-0.148669	0.0872278	0.0477091	0.181641	0.173584	-1.04956	0.266039	-0.636013	-0.691876	-0.214519	6.12525	-0.688874	-7.51695	0.0260238	-0.00171384	-0.019087	-0.62793	0.413574	0.702393	0.774707	-0.1086	-0.115802	-0.612067	3.81943	0.00856762	10.5713	0.00718725	0.0112142	0.010131	-0.194336	0.401123	-0.952148	0.451769	-0.517181	-0.668253	-0.286125	8.67794	-0.541189	-4.01144	-0.0667445	-0.00932268	-0.0283698	-0.930176	0.434814	0.284668	0.736373	-0.0557507	-0.190344	-0.646851	3.55324	1.92062	9.61082	0.0350607	0.0527357	-0.00780178	-0.275391	0.213623	-0.996338	-0.36901	0.570257	0.660009	0.320978	8.34287	0.34733	-5.07325	0.0370091	-0.0256947	0.0160472	-0.926514	0.481934	0.458984	
70	0.511434	-0.492566	-0.479817	-0.515354	9.76032	-0.206791	0.535976	0.0400742	-0.0816936	-0.0618704	-0.876709	0.432129	-0.0517578	0.40446	-0.571501	-0.632167	-0.331909	9.02873	-0.499276	-4.55955	0.049551	-0.0177199	-0.039301	-0.727539	0.355225	0.460693	0.776888	0.0873194	-0.0987164	-0.615692	0.639982	2.80196	10.5988	0.0339734	0.00264327	-0.00758397	-0.012207	0.0529785	-1.04883	0.760243	0.0524229	-0.0170194	-0.647297	-0.370014	1.03241	9.74457	-0.0138859	0.00182083	-0.0839402	0.164062	0.404541	-0.956055	0.747382	0.0278986	-0.0297824	-0.663141	0.0942752	0.890907	10.1502	0.525492	0.043512	-0.0358128	0.0979004	0.324707	-0.946777	0.79313	0.127677	-0.0610789	-0.592379	-0.158722	2.60187	13.1233	0.140303	0.0182324	-0.00789061	0.181885	0.167236	-1.05591	0.266845	-0.635889	-0.691698	-0.214459	6.12343	-0.447981	-7.26638	0.0589682	0.0588703	-0.000554836	-0.630127	0.415771	0.691895	0.775186	-0.10941	-0.113153	-0.611811	3.12589	-0.722061	10.5691	-0.0584266	0.0868772	0.0278215	-0.201172	0.409668	-0.959229	0.451234	-0.517365	-0.668374	-0.286353	8.58926	-1.1914	-3.97411	-0.0324535	-0.0199043	-0.0346678	-0.932373	0.432617	0.278076	0.736078	-0.0561775	-0.189867	-0.647289	3.78616	2.04818	9.78676	-0.0567545	0.0177388	-0.0301204	-0.272705	0.202637	-0.996094	-0.368424	0.571265	0.659355	0.321202	8.35323	-0.0913848	-5.26488	-0.0162855	0.00112069	0.0219813	-0.919678	0.479736	0.461182	
71	0.510666	-0.493102	-0.481364	-0.51416	9.98132	-0.00938406	0.401972	0.0153731	-0.0690397	0.00971568	-0.874512	0.429932	-0.0473633	0.404346	-0.571252	-0.632093	-0.332615	8.7291	-0.102911	-4.39431	-0.0835572	0.0600158	-0.0302369	-0.736084	0.355225	0.456055	0.777114	0.0856034	-0.097948	-0.61577	0.472933	3.00944	10.543	-0.13107	-0.0157233	0.00839532	-0.0124512	0.065918	-1.04224	0.75929	0.0509132	-0.0162617	-0.648554	-0.386228	0.758264	9.85415	-0.0596993	-0.00811308	-0.0481681	0.163818	0.408936	-0.949463	0.748277	0.0303423	-0.0319998	-0.661919	0.328365	1.18182	9.81358	0.0236577	-0.00155565	0.0496586	0.0979004	0.320312	-0.955811	0.792112	0.128357	-0.0627386	-0.593419	0.092471	3.00783	13.2999	0.0256975	-0.0312342	-0.0812832	0.182129	0.165039	-1.05786	0.265885	-0.63611	-0.691493	-0.215655	6.0103	-0.0724314	-7.02969	-0.0546531	0.00950968	-0.0182107	-0.643066	0.413574	0.694092	0.776193	-0.107045	-0.115985	-0.610421	4.02617	0.313608	10.5718	0.157382	-0.0177987	0.0104472	-0.198975	0.405518	-0.963867	0.451473	-0.516546	-0.669347	-0.285178	8.63614	-0.211002	-4.17329	0.0377579	-0.0124528	-0.0325123	-0.94165	0.432617	0.278076	0.735852	-0.0571378	-0.188674	-0.647811	3.89568	1.45129	9.60396	-0.0250328	0.0427523	0.00292719	-0.266357	0.207275	-0.996338	-0.36873	0.57183	0.659146	0.320273	8.27177	-0.109232	-5.18037	-0.00203248	-0.0159905	0.0330049	-0.924561	0.486328	0.468018	
72	0.510489	-0.493269	-0.481545	-0.514005	9.90801	-0.0665935	0.371679	0.000676429	-0.0300295	-0.00366332	-0.872314	0.429932	-0.0495605	0.403682	-0.571646	-0.631844	-0.333219	8.60351	-0.628464	-4.25901	-0.0156871	0.0319021	-0.0227351	-0.727539	0.357422	0.463135	0.777257	0.0842858	-0.0965986	-0.615983	0.641189	2.43742	10.4065	-0.00438049	0.0208081	-0.00791873	-0.00830078	0.065918	-1.04224	0.75911	0.0508999	-0.0160096	-0.648772	-0.277676	0.678496	9.94752	0.0156636	0.022415	-0.00323598	0.161621	0.408936	-0.953857	0.749517	0.0243016	-0.0270577	-0.660985	-0.169448	0.798284	9.76835	-0.398681	-0.00840425	0.0481832	0.0949707	0.342285	-0.951172	0.79175	0.125003	-0.0608153	-0.594818	-0.246879	2.57923	13.2499	-0.146978	-0.00552195	-0.0740522	0.177246	0.175781	-1.0498	0.266418	-0.636066	-0.691124	-0.216309	5.84891	-0.521495	-6.99401	0.0208725	0.0573654	-0.0164701	-0.630127	0.415771	0.700439	0.775927	-0.10751	-0.115042	-0.610856	3.89106	0.265928	10.5036	-0.0771875	0.0555002	-0.0458282	-0.198486	0.398926	-0.959229	0.450744	-0.517403	-0.668919	-0.285781	8.57083	-0.899601	-4.2206	0.00535276	-0.00154922	0.00511775	-0.937256	0.439453	0.282471	0.73562	-0.0561564	-0.189039	-0.648054	3.45784	1.43163	9.76668	0.0403018	-0.00304968	-0.0296013	-0.272949	0.204834	-0.998535	-0.36886	0.571951	0.659022	0.320163	8.40205	-0.266148	-5.24149	0.00802864	0.00932002	0.0135272	-0.924316	0.481934	0.454346	
73	0.510117	-0.493404	-0.481221	-0.514548	9.73229	-0.156225	0.48047	-0.0338307	0.0108578	-0.00959399	-0.867676	0.427734	-0.0495605	0.403327	-0.571771	-0.632065	-0.333014	8.66518	-0.517981	-4.41366	0.0263602	0.0130674	-0.0262983	-0.729492	0.35083	0.460938	0.776566	0.087749	-0.098061	-0.61614	0.695908	2.7961	10.4722	0.161722	0.0521264	-0.0307975	-0.00585938	0.0593262	-1.04907	0.759157	0.0523575	-0.016085	-0.648599	-0.280935	0.814944	9.88739	0.0418622	0.0445941	0.00466392	0.163818	0.408936	-0.953857	0.749522	0.0244078	-0.0261962	-0.661011	0.10373	0.357785	9.65027	0.13804	0.0543783	-0.0454503	0.0974121	0.333496	-0.948975	0.791428	0.124905	-0.0605798	-0.59529	-0.216781	2.59821	13.3578	-0.0124945	0.0189668	-0.0660983	0.177246	0.175781	-1.05396	0.265161	-0.636523	-0.691096	-0.216597	5.91913	-0.380694	-7.15062	-0.0232508	-0.0207082	-0.0165814	-0.63623	0.40918	0.698242	0.775309	-0.108621	-0.114279	-0.611587	3.43229	-0.414105	10.5214	0.0223691	-0.0212606	-0.0390025	-0.194336	0.398926	-0.963867	0.45157	-0.517975	-0.668392	-0.284673	8.57102	-0.495938	-4.08704	-0.0219875	0.0148817	0.0384929	-0.925293	0.432617	0.278076	0.736324	-0.0564265	-0.188599	-0.647359	4.07891	1.68237	9.60872	-0.0372652	0.0622044	0.0704559	-0.268799	0.213867	-0.996338	-0.369179	0.571665	0.659367	0.319596	8.43846	0.14989	-4.99281	0.0144985	-0.00646343	-0.0074319	-0.924072	0.477539	0.463623	
74	0.510055	-0.493247	-0.48147	-0.514527	9.68092	-0.128525	0.484499	0.0232525	-0.0147541	-0.00424138	-0.876465	0.427734	-0.0495605	0.403523	-0.571134	-0.632829	-0.33242	8.80244	-0.366033	-4.36177	-0.00610775	0.00460237	-0.0316824	-0.727295	0.353027	0.458496	0.776962	0.0887335	-0.0975487	-0.615582	0.663906	2.94888	10.4853	-0.0101208	0.0471935	0.0265876	-0.00585938	0.0593262	-1.04443	0.759386	0.0537852	-0.0158448	-0.64822	-0.329055	0.939859	9.57205	0.0322628	0.0461976	0.0252184	0.168457	0.404541	-0.95166	0.748485	0.0299805	-0.0290672	-0.661836	0.217884	0.992314	9.85998	0.211285	0.0646963	-0.0620752	0.0979004	0.324707	-0.946777	0.790439	0.126858	-0.0594369	-0.596305	-0.100707	2.6035	13.1308	0.0250743	0.0663304	-0.0569584	0.179443	0.173584	-1.05615	0.265206	-0.63628	-0.691633	-0.21554	6.02012	-0.368298	-6.93915	0.0589786	-0.0379103	-0.0332575	-0.634521	0.415771	0.700195	0.774881	-0.108455	-0.11355	-0.612293	3.52297	-0.331655	10.5116	-0.0472696	0.0732857	-0.0491603	-0.198975	0.405518	-0.957031	0.451196	-0.519207	-0.667525	-0.285055	8.63814	-1.20473	-4.03178	-0.0144795	0.000731016	0.0166565	-0.932129	0.43042	0.275879	0.736708	-0.0559439	-0.188162	-0.647091	3.12035	1.54417	9.65354	0.0243807	0.00410159	0.00290216	-0.264404	0.213867	-0.998779	-0.369033	0.571679	0.659545	0.319373	8.38446	-0.174	-5.1269	0.0539932	-0.00752977	-0.00688532	-0.924316	0.484131	0.46582	
75	0.510031	-0.493309	-0.481896	-0.514093	9.65918	-0.135057	0.426782	0.031391	-0.0410803	0.000471166	-0.872559	0.434326	-0.045166	0.403585	-0.571019	-0.632682	-0.332823	8.64158	-0.373277	-4.35162	0.0114813	-0.0225336	-0.0309185	-0.731934	0.357422	0.460693	0.777752	0.0873541	-0.0954776	-0.615106	0.2856	2.56499	10.4029	-0.0939816	0.0305079	0.0313298	-0.00390625	0.0612793	-1.0376	0.760173	0.0534352	-0.0147143	-0.647353	-0.486048	0.708416	9.59713	-0.0293257	0.0364006	0.0481128	0.170654	0.406738	-0.95166	0.74821	0.0297937	-0.0275381	-0.66222	0.0906725	0.696423	9.85859	-0.125281	0.0527883	-0.0176914	0.0998535	0.326904	-0.951172	0.789591	0.127157	-0.0588383	-0.597423	-0.208444	2.52344	13.1287	-0.0207908	0.0235716	-0.0903428	0.181885	0.169189	-1.05811	0.264525	-0.636075	-0.691914	-0.216079	5.8814	-0.50274	-7.26145	-0.00409057	0.0200113	-0.0425081	-0.640625	0.411377	0.700439	0.775286	-0.108429	-0.113078	-0.611873	3.56225	-0.629264	10.4006	0.0463778	0.016916	0.0242286	-0.19458	0.407715	-0.963867	0.451937	-0.518681	-0.667921	-0.283909	8.60601	-0.771431	-4.08421	0.0535244	0.00663726	-0.016314	-0.934814	0.434814	0.282471	0.736901	-0.0550477	-0.188832	-0.646753	4.02952	1.88343	9.68699	0.0302004	0.0628924	0.00925098	-0.261963	0.21167	-1.00098	-0.368977	0.572158	0.659427	0.318822	8.44697	0.265786	-5.04403	-0.0538404	-0.015468	0.0278111	-0.924316	0.484131	0.461182	
76	0.509957	-0.493132	-0.483352	-0.512967	9.94756	0.0152555	0.35254	0.0301741	-0.00831321	-0.00408632	-0.876709	0.429932	-0.0495605	0.403996	-0.570811	-0.632309	-0.333388	8.50358	-0.397709	-4.36478	-0.0412924	0.0580281	-0.00944131	-0.729492	0.35083	0.458496	0.778245	0.089373	-0.0960341	-0.614105	0.459783	2.78464	10.3628	0.107035	0.0470847	0.0299339	-0.00390625	0.0593262	-1.04663	0.761085	0.0542864	-0.0144521	-0.646215	-0.508144	0.880763	9.71436	-0.00434872	0.034233	0.0629591	0.177246	0.406982	-0.956055	0.749613	0.0284638	-0.0245448	-0.660808	0.072441	0.279617	9.67329	-0.0761791	0.0682012	0.085555	0.104004	0.331299	-0.951172	0.787894	0.123477	-0.0562611	-0.600676	-0.175173	2.54961	13.0844	-0.234521	-0.0189209	-0.189312	0.179199	0.18457	-1.04565	0.264768	-0.635583	-0.69242	-0.215609	5.93369	-0.286336	-6.89978	0.0492776	-0.0270909	-0.035246	-0.63623	0.40918	0.694092	0.776177	-0.106718	-0.113202	-0.61102	3.47211	-0.0921694	10.6137	0.034998	0.0738613	0.0157284	-0.194092	0.394531	-0.954346	0.451414	-0.518597	-0.668102	-0.284468	8.66813	-0.906878	-4.20097	4.1955e-05	0.00269762	-0.0388493	-0.927979	0.439453	0.280273	0.736708	-0.0554164	-0.188032	-0.647174	3.69086	1.2596	9.514	-0.0170936	-0.000554302	-0.0044718	-0.266357	0.207275	-0.996338	-0.368796	0.572586	0.659343	0.318438	8.32925	-0.432662	-5.28981	0.0774834	-0.00592701	0.00586097	-0.922119	0.481934	0.458984	
77	0.510237	-0.493071	-0.482806	-0.513262	9.69635	-0.111849	0.526577	-0.0252053	0.0167899	0.0118366	-0.872314	0.429932	-0.0473633	0.403332	-0.571376	-0.632795	-0.332299	8.65287	-0.424923	-4.42167	0.0035677	-0.0560602	-0.0122227	-0.731689	0.353027	0.463135	0.778516	0.0901097	-0.0961811	-0.61363	0.206509	2.98195	10.4556	0.0585004	0.0378378	0.0368725	0.000488281	0.0568848	-1.05127	0.762363	0.0559002	-0.0148827	-0.644559	-0.355993	1.03121	9.45701	0.0905658	0.0376128	0.0900544	0.177734	0.398193	-0.956055	0.750693	0.0278355	-0.0225654	-0.659678	-0.00772238	1.06997	9.95557	-0.143271	0.0972115	0.107102	0.114746	0.337891	-0.948975	0.787302	0.119675	-0.0536653	-0.602456	-0.23123	2.23819	13.0622	-0.362813	-0.0244405	-0.168613	0.180664	0.199707	-1.05469	0.264283	-0.635308	-0.692714	-0.216067	5.89177	-0.451988	-7.4112	-0.0109908	0.0405815	-0.0422759	-0.642822	0.411377	0.700439	0.776338	-0.107072	-0.112238	-0.610931	3.57951	-0.228606	10.702	-0.0425848	0.0293658	-0.0203115	-0.194824	0.411865	-0.959473	0.451986	-0.518093	-0.668433	-0.283701	8.56904	-0.625567	-4.20985	0.094998	0.00573901	-0.0186036	-0.932373	0.434814	0.273682	0.737623	-0.053412	-0.188572	-0.646143	3.94281	1.59343	9.64121	0.0700856	0.0869437	0.0408318	-0.259521	0.205078	-1.00073	-0.368244	0.5728	0.659279	0.318823	8.38707	0.0510525	-5.18498	-0.111078	0.0014445	-0.0113478	-0.926758	0.486328	0.461182	
78	0.509702	-0.493456	-0.482667	-0.513554	9.78002	-0.274916	0.57705	-0.0178155	-0.0169514	-0.0252494	-0.878906	0.429932	-0.0495605	0.40389	-0.571024	-0.633702	-0.330494	8.7451	-0.488598	-4.55575	0.130493	-0.0239679	-0.026621	-0.731934	0.355225	0.460693	0.779005	0.0898235	-0.0956391	-0.613136	0.824853	2.72815	10.3672	-0.0193283	0.0160224	0.0183191	0.000488281	0.059082	-1.04224	0.763828	0.0563744	-0.015262	-0.642772	-0.307174	0.953826	9.61757	0.0197641	0.00637173	0.0864162	0.17749	0.404785	-0.956055	0.751911	0.0209567	-0.0155519	-0.658748	-0.147929	0.689335	9.44132	-0.397887	0.0134996	0.0159183	0.111572	0.359863	-0.939941	0.787459	0.115414	-0.0505337	-0.603352	-0.0764935	1.94335	13.2386	-0.155964	0.0239958	-0.0035755	0.177979	0.212646	-1.05078	0.264291	-0.635125	-0.69268	-0.216703	5.96161	-0.337532	-7.00049	-0.000973985	0.0142006	-0.0258131	-0.629883	0.40918	0.702637	0.7762	-0.106514	-0.111593	-0.611323	3.35186	-0.439894	10.559	0.0231091	0.0521105	-0.0370466	-0.187988	0.401123	-0.96167	0.452294	-0.518317	-0.668035	-0.283737	8.5875	-0.94505	-4.15925	0.0010061	0.0131328	-0.00267877	-0.932617	0.44165	0.280029	0.737986	-0.0518836	-0.188811	-0.645783	3.57132	2.00534	9.71469	0.0491561	0.0242383	0.00615775	-0.261719	0.202881	-0.998291	-0.368369	0.572585	0.659403	0.318806	8.41115	0.210586	-5.14192	0.0497634	0.0193975	-0.00702635	-0.922119	0.481934	0.463379	
79	0.509401	-0.493323	-0.483025	-0.513644	9.73703	-0.204003	0.550375	0.00519231	-0.0203969	-0.0373613	-0.878906	0.429932	-0.0473633	0.403999	-0.570593	-0.634147	-0.330252	8.75925	-0.355782	-4.33796	0.0360422	0.00400247	-0.0502566	-0.727295	0.353027	0.463135	0.779199	0.0912678	-0.0962879	-0.612575	0.429045	2.61013	10.3981	0.0973743	0.0277706	0.0231481	0.00488281	0.0546875	-1.05127	0.764167	0.0571554	-0.0158346	-0.642286	-0.48881	1.01801	9.59059	0.0779749	0.0139242	0.048235	0.17334	0.395996	-0.955811	0.751464	0.0231725	-0.0167156	-0.659155	0.0396603	-0.0561518	9.57472	0.304198	0.0271995	-0.0487871	0.10791	0.344482	-0.942139	0.788939	0.115746	-0.0495507	-0.601433	-0.143426	2.0456	13.1968	0.0371209	0.0740681	0.0885878	0.173828	0.208252	-1.04858	0.264118	-0.635105	-0.692779	-0.216656	5.91457	-0.353543	-7.13656	0.0106478	-0.00243078	-0.0259127	-0.636475	0.411377	0.696045	0.776207	-0.106127	-0.111837	-0.611336	3.49014	-0.415921	10.5282	0.039157	0.022123	-0.0247962	-0.187988	0.401123	-0.963867	0.45259	-0.51838	-0.667915	-0.283433	8.59488	-0.86583	-4.12946	0.0279662	0.0135567	0.0074758	-0.927979	0.437256	0.280273	0.738085	-0.0527601	-0.188001	-0.645835	3.82032	1.87606	9.7885	-0.0938115	0.0180483	0.0205209	-0.257324	0.205078	-1.00293	-0.368262	0.572733	0.659256	0.318969	8.41588	0.244435	-5.19323	-0.0189451	0.00893651	0.00250665	-0.917725	0.484375	0.46582	
80	0.508886	-0.492868	-0.484629	-0.51308	9.89242	-0.157009	0.442827	0.0588939	-0.0496879	-0.0466111	-0.876709	0.429932	-0.045166	0.403175	-0.570966	-0.634442	-0.330047	8.6807	-0.302905	-4.3949	0.0336378	-0.0693375	-0.0318115	-0.733887	0.353027	0.463135	0.77991	0.0928287	-0.0970484	-0.611314	0.320513	3.3459	10.5055	-0.0015626	0.0154109	0.0501515	0.00268555	0.0505371	-1.04419	0.764448	0.0573759	-0.0161444	-0.641924	-0.676839	1.23242	9.73607	0.0296635	0.00110421	0.0386842	0.177734	0.398193	-0.951416	0.750237	0.0310035	-0.0235861	-0.660021	0.00379368	1.22667	9.96846	0.325565	0.00889494	-0.0706134	0.108643	0.324707	-0.946777	0.790767	0.119276	-0.0507477	-0.598235	-0.154027	2.32237	13.0003	0.142455	0.0744844	0.130433	0.187256	0.199707	-1.04834	0.262992	-0.635491	-0.692668	-0.217249	6.00255	-0.22564	-7.08409	-0.0401168	-0.00506354	-0.015712	-0.63623	0.406982	0.700439	0.775956	-0.106102	-0.111377	-0.611743	3.4255	-0.16631	10.6501	-0.0325746	0.0379439	-0.0377417	-0.192383	0.40332	-0.968506	0.452732	-0.518458	-0.667688	-0.283598	8.60214	-1.01133	-4.04807	-0.00864745	0.0140206	-0.0212528	-0.932617	0.437256	0.278076	0.738131	-0.052887	-0.18719	-0.646008	3.64843	1.19299	9.59901	0.0364772	0.0286816	-0.0106638	-0.259766	0.209473	-1.00073	-0.368437	0.572624	0.659151	0.31918	8.33227	-0.127384	-5.11629	0.0263576	0.023521	-0.0117566	-0.924561	0.490723	0.45874	
81	0.508623	-0.49185	-0.486527	-0.512521	9.87147	0.109683	0.36983	0.06049	-0.0317773	-0.0537284	-0.880615	0.418945	-0.0495605	0.403048	-0.570681	-0.634986	-0.329647	8.75487	-0.304682	-4.34507	-0.0111426	0.0185051	-0.0220788	-0.725342	0.355225	0.463135	0.780606	0.0922978	-0.0964369	-0.610602	0.381718	2.90101	10.4517	0.050829	0.020935	0.0354799	0.00708008	0.0524902	-1.03979	0.76574	0.0578288	-0.0166946	-0.640328	-0.460757	1.2683	9.84955	0.0586069	0.00820083	0.0685876	0.175537	0.395996	-0.953613	0.750763	0.0312791	-0.025392	-0.659341	-0.0276341	0.460002	9.81889	0.0408296	-0.0469043	0.0505777	0.106445	0.324707	-0.948975	0.791884	0.12049	-0.0520266	-0.596402	-0.271882	2.61722	13.1625	0.0471654	-0.00242728	0.0400442	0.185303	0.193115	-1.05029	0.263427	-0.635603	-0.692185	-0.217933	6.07759	-0.457585	-7.17516	0.00273674	0.0529469	-0.00351264	-0.642578	0.402588	0.702637	0.776048	-0.107049	-0.110631	-0.611597	3.5016	-0.420258	10.6816	-0.00556939	0.00185286	-0.0017483	-0.192383	0.40332	-0.96167	0.452997	-0.518286	-0.667632	-0.283621	8.66029	-0.760284	-4.10947	-0.00769294	0.0204531	-0.019836	-0.930176	0.437256	0.278076	0.738591	-0.0514324	-0.187823	-0.645415	3.5634	2.02526	9.72954	0.0118983	0.0202201	0.0313826	-0.257568	0.213867	-1.00317	-0.368498	0.572387	0.659137	0.319563	8.44566	0.104603	-5.03018	-0.0239565	0.0226852	-0.0189397	-0.921875	0.479736	0.458984	
82	0.508209	-0.490758	-0.487882	-0.512691	9.89784	0.174334	0.346412	0.0370946	-0.00438455	-0.0660258	-0.880859	0.42334	-0.0517578	0.402466	-0.57126	-0.635016	-0.329301	8.63789	-0.552648	-4.53827	-0.0234706	-0.0306895	-0.00669955	-0.727295	0.35083	0.465576	0.780296	0.0941499	-0.0976161	-0.610529	0.23152	2.98813	10.5362	0.0623239	-0.00124986	-0.0180753	0.00708008	0.0524902	-1.04663	0.767028	0.0590091	-0.017876	-0.638644	-0.729047	1.27744	9.76265	0.0649259	0.00302824	0.0832497	0.179932	0.398193	-0.956055	0.752949	0.0292052	-0.026205	-0.656908	-0.0219104	0.825742	9.78241	-0.0881697	-0.0880783	0.136998	0.106201	0.331299	-0.946777	0.79166	0.119655	-0.0532499	-0.596759	-0.203392	2.60292	13.1648	-0.00953336	-0.0607157	-0.0452563	0.178711	0.195312	-1.05249	0.264087	-0.635697	-0.691785	-0.218131	5.92626	-0.319258	-7.03559	0.018331	0.0388933	-0.0074705	-0.633789	0.402588	0.700684	0.775975	-0.106227	-0.11114	-0.611741	3.30148	-0.327512	10.5243	0.0428707	0.0190824	-0.0280363	-0.19458	0.405518	-0.96167	0.45307	-0.518295	-0.667547	-0.283689	8.7	-0.975023	-4.02382	0.0167029	0.00498697	-0.0158602	-0.93042	0.444092	0.282471	0.738641	-0.0523632	-0.187043	-0.64551	3.61882	1.69011	9.72902	-0.0952222	0.0126154	0.0160967	-0.25708	0.202881	-0.998291	-0.368732	0.571937	0.659463	0.319426	8.44441	-0.17388	-5.06826	0.0690783	0.0186121	-0.0192667	-0.917725	0.484131	0.454346	
83	0.507759	-0.490686	-0.488555	-0.512564	9.85412	0.165353	0.241973	-0.00293245	-0.0344664	-0.00920691	-0.87207	0.42334	-0.0407715	0.40162	-0.572007	-0.634878	-0.329301	8.78833	-0.507143	-4.2826	-0.0683121	-0.0238024	-0.00618831	-0.725098	0.353027	0.472656	0.780027	0.0956711	-0.0991263	-0.610393	0.601474	3.18682	10.4357	0.0512342	-0.0124662	0.00713131	0.00512695	0.0461426	-1.04639	0.767816	0.0591423	-0.0184534	-0.637667	-0.457609	1.25846	9.61315	-0.0106731	-0.00412347	0.0314121	0.175781	0.391602	-0.953613	0.754873	0.0252057	-0.0250473	-0.654908	0.128206	1.13923	9.75522	-0.193544	-0.0464329	0.0860049	0.106201	0.335693	-0.948975	0.792151	0.11636	-0.0522092	-0.596851	0.0293195	2.29575	13.2894	-0.115068	-0.0181745	-0.000205874	0.180664	0.19751	-1.05249	0.264929	-0.635596	-0.691252	-0.219092	6.09525	-0.287903	-7.03216	0.0142994	0.0920102	-0.0108779	-0.638184	0.404785	0.698486	0.776174	-0.106069	-0.111493	-0.611451	3.42762	0.0574851	10.5878	-0.00700857	0.00350507	-0.00485266	-0.192383	0.40332	-0.96167	0.452782	-0.518452	-0.667413	-0.284178	8.67911	-0.789958	-4.03133	-0.0341193	0.00940888	-0.0239071	-0.932617	0.439453	0.277832	0.739356	-0.0512578	-0.18692	-0.644814	3.52532	1.91429	9.78584	0.0589033	0.0396552	0.0327699	-0.252686	0.205078	-1.00073	-0.368741	0.571507	0.659868	0.319349	8.54139	0.322191	-4.97304	0.00201359	0.00287952	-0.0243549	-0.922119	0.484131	0.461182	
84	0.507849	-0.490063	-0.488231	-0.513379	9.97381	0.169855	0.339567	-0.0123241	0.061328	-0.0184255	-0.880371	0.416748	-0.0473633	0.401964	-0.572177	-0.634255	-0.329786	8.71453	-0.340246	-4.47431	0.0146689	0.0187986	-0.00393186	-0.731934	0.357422	0.465332	0.78065	0.0936099	-0.0982622	-0.610055	0.544833	3.01305	10.4274	-0.169027	-0.0344205	0.0595654	0.00512695	0.0461426	-1.04419	0.767691	0.0581117	-0.0183557	-0.637916	-0.45104	1.23439	9.68895	-0.042751	-0.0226917	-0.0112549	0.180176	0.393799	-0.958008	0.755839	0.0232285	-0.0243627	-0.653891	-0.0943183	0.456948	9.84323	0.024529	-0.00656061	0.0163544	0.108398	0.333496	-0.946777	0.792592	0.116166	-0.0522775	-0.596297	-0.258633	2.67881	13.4366	-0.000297533	0.023521	0.0124176	0.176514	0.19751	-1.04614	0.265045	-0.635302	-0.691145	-0.220139	5.95174	-0.427067	-7.1197	-0.00592846	0.00027251	-0.0341052	-0.640381	0.404785	0.696289	0.775968	-0.107024	-0.110102	-0.611798	3.25572	-0.603825	10.4942	-0.0349234	0.0328266	-0.0308322	-0.186035	0.405518	-0.96167	0.452623	-0.518499	-0.667523	-0.284086	8.64766	-0.963318	-4.07366	0.0273468	-0.00235243	-0.020763	-0.937256	0.439453	0.273438	0.739065	-0.051645	-0.186108	-0.645352	3.57517	1.5999	9.67733	-0.0512519	0.0217931	-0.0326068	-0.259521	0.205078	-0.996094	-0.368502	0.571585	0.65997	0.319274	8.38276	-0.250881	-5.21938	0.0439803	-0.00757503	-0.0076392	-0.926514	0.479736	0.461182	
85	0.50864	-0.489288	-0.48733	-0.514191	9.83405	0.0145457	0.441592	0.0059073	0.0598207	0.00154543	-0.880615	0.418945	-0.0559082	0.402732	-0.57156	-0.634599	-0.329258	8.61008	-0.297631	-4.49485	0.0370997	0.0261169	-0.0305565	-0.723145	0.355225	0.465576	0.781768	0.0909764	-0.0968328	-0.60925	0.497621	2.96965	10.4633	-0.116407	-0.00986058	0.0565504	0.00488281	0.0568848	-1.04443	0.768024	0.0567128	-0.018015	-0.637651	-0.379921	0.823883	9.78365	-0.00891681	-0.00600272	0.0207401	0.173096	0.402588	-0.960449	0.755834	0.0250332	-0.0254903	-0.653788	0.0116669	0.580336	9.91992	0.167256	0.0330681	-0.0100535	0.108398	0.333496	-0.948975	0.792693	0.116129	-0.0520561	-0.596189	-0.135076	2.59893	13.4041	-0.00964552	0.029361	-0.00981983	0.180664	0.19751	-1.04614	0.265311	-0.635193	-0.691049	-0.220433	6.08489	-0.0695871	-7.23044	0.0121728	0.0440907	-0.0196241	-0.638428	0.406982	0.698486	0.776216	-0.105793	-0.11161	-0.611425	3.6048	-0.124115	10.5118	0.0731096	-0.0018162	-0.00479283	-0.194336	0.401123	-0.959229	0.452354	-0.518549	-0.66766	-0.2841	8.61938	-0.826332	-4.14872	-0.0272296	-0.00325985	-0.0300008	-0.927734	0.434814	0.280273	0.739206	-0.0512453	-0.186515	-0.645105	3.70141	1.60862	9.6294	0.0481526	0.0156178	0.0158007	-0.252686	0.205078	-1.00073	-0.368683	0.571395	0.660388	0.31854	8.46715	0.113293	-5.08004	-0.0275601	-0.00874383	-0.0102741	-0.919922	0.484131	0.463379	
