40	Head	00b4120a												Throax	00b411e8												LUpArm	00b411d9												LFoArm	00b41148												RUpArm	00b411db												RFoArm	00b41204												Waist	00b411f7												Lthigh	00b411f4												Lshank	00b4111b												Rthigh	00b411c8												Rshank	00b411ee												
PacketCount	q0	q1	q2	q3	accX	accY	accZ	gyrX	gyrY	gyrZ	magX	magY	magZ	q0	q1	q2	q3	accX	accY	accZ	gyrX	gyrY	gyrZ	magX	magY	magZ	q0	q1	q2	q3	accX	accY	accZ	gyrX	gyrY	gyrZ	magX	magY	magZ	q0	q1	q2	q3	accX	accY	accZ	gyrX	gyrY	gyrZ	magX	magY	magZ	q0	q1	q2	q3	accX	accY	accZ	gyrX	gyrY	gyrZ	magX	magY	magZ	q0	q1	q2	q3	accX	accY	accZ	gyrX	gyrY	gyrZ	magX	magY	magZ	q0	q1	q2	q3	accX	accY	accZ	gyrX	gyrY	gyrZ	magX	magY	magZ	q0	q1	q2	q3	accX	accY	accZ	gyrX	gyrY	gyrZ	magX	magY	magZ	q0	q1	q2	q3	accX	accY	accZ	gyrX	gyrY	gyrZ	magX	magY	magZ	q0	q1	q2	q3	accX	accY	accZ	gyrX	gyrY	gyrZ	magX	magY	magZ	q0	q1	q2	q3	accX	accY	accZ	gyrX	gyrY	gyrZ	magX	magY	magZ	
0	-0.516409	0.511538	0.438572	0.528494	9.73138	-0.571118	0.938242	0.00101599	0.0447485	-0.0171052	-0.823486	0.467285	-0.0322266	-0.663233	0.328891	0.366897	0.56333	8.4449	-0.00445549	5.20854	-0.0183834	0.0151138	-0.0266641	-0.622559	0.312988	-0.449463	-0.793914	0.107259	0.301228	0.517163	6.3567	1.66065	8.51191	0.0321083	0.0367089	-0.00711863	-0.52002	0.129395	-0.905762	-0.0871285	-0.215145	0.0413867	0.971807	-3.94048	1.04062	8.94161	-0.0139189	-0.0151043	-0.0233598	0.0371094	-0.017334	-1.01245	-0.550067	0.244571	0.227624	0.765375	6.00278	0.819911	7.74593	-0.0414536	0.00376637	-0.00609619	-0.670654	0.298584	-0.661621	-0.991174	-0.101495	-0.0692946	-0.049708	-2.37227	2.52293	12.7869	0.0173217	0.0384349	-0.00858691	0.649414	-0.228027	-0.808838	-0.405262	0.57949	0.561132	0.430215	9.12675	0.091084	-2.84655	0.0217452	-0.032856	-0.0567533	-0.870605	0.383057	0.300537	-0.915627	0.157543	0.251715	0.271013	6.22933	-1.73218	8.8192	-0.0246876	-0.0824531	-0.00390452	-0.271973	0.343994	-0.948486	-0.0769329	0.0993139	0.989038	0.0776005	1.23109	1.34994	-8.84182	0.0504261	-0.0458299	-0.0842201	-0.562744	-0.0915527	0.927979	-0.490386	0.558133	0.543966	0.390013	9.2445	-0.857736	-1.86149	0.019943	0.021246	-0.0446574	-0.880371	0.526611	0.215332	-0.637627	0.454826	0.546267	0.296914	9.53457	-2.60966	-0.372486	-0.211078	0.0255203	0.0145532	-0.9021	0.65625	-0.161133	
1	-0.516896	0.510834	0.438492	0.528764	9.75188	-0.513409	0.975423	0.0230908	0.0250369	-0.00487315	-0.821045	0.465332	-0.0410156	-0.66301	0.328974	0.366666	0.563693	8.46375	-0.138913	5.18911	-0.0261285	0.0257505	-0.0295816	-0.618164	0.312988	-0.44458	-0.79415	0.107344	0.299663	0.517692	6.2629	1.63322	8.3456	-0.0602852	0.0588398	-0.00101623	-0.520264	0.133789	-0.9104	-0.0870191	-0.214833	0.0409237	0.971905	-3.99381	1.15273	8.78148	-0.0348078	-0.0158357	-0.0150457	0.0393066	-0.017334	-1.00586	-0.550799	0.244288	0.227396	0.765006	6.08207	0.759721	7.64343	0.0388164	0.0275167	0.0242186	-0.672607	0.294189	-0.652588	-0.991107	-0.101826	-0.0697082	-0.0497997	-2.36002	2.53489	12.7895	0.0329839	0.0466158	-0.0100609	0.645264	-0.230225	-0.798096	-0.404903	0.579354	0.561999	0.429603	9.09631	0.246951	-2.94588	0.0609161	-0.0577335	-0.0557499	-0.866211	0.378662	0.300781	-0.915521	0.156422	0.253368	0.270479	6.15757	-1.3452	9.15332	0.0526122	-0.0260757	-0.0227246	-0.269287	0.337646	-0.946045	-0.0752405	0.0980642	0.989333	0.0770924	1.87619	1.46708	-9.16356	-0.0179633	-0.0270748	-0.0242901	-0.5625	-0.09375	0.925781	-0.489401	0.558815	0.543545	0.39086	9.44296	-0.949752	-1.82223	-0.119796	0.00185206	-0.012812	-0.875732	0.524414	0.212891	-0.636372	0.457332	0.544283	0.299392	9.56353	-2.76122	-0.113817	-0.188321	0.0528275	0.00825995	-0.899902	0.65625	-0.156494	
2	-0.51755	0.510405	0.438396	0.528619	9.7729	-0.491047	0.968289	0.0194889	0.0113725	0.0163307	-0.821289	0.469727	-0.0388184	-0.662889	0.329096	0.366842	0.56365	8.64089	0.0806908	5.23576	-0.000724239	-0.00410156	-0.0193163	-0.622314	0.310791	-0.45166	-0.794427	0.107084	0.298811	0.517813	6.32666	1.42153	8.24742	0.0336046	0.0267064	0.00779635	-0.52002	0.131592	-0.912598	-0.0870226	-0.214644	0.0406435	0.971958	-3.98987	1.19765	8.72769	-0.0216917	-0.00678378	-0.00317067	0.0412598	-0.0107422	-1.0105	-0.551234	0.244687	0.226746	0.764759	6.27771	0.848164	7.70934	-0.0564704	0.00149507	0.0166009	-0.671143	0.307373	-0.661865	-0.99105	-0.101777	-0.0703365	-0.050135	-2.51112	2.3733	12.8083	-0.0129181	0.0325642	-0.00430527	0.649658	-0.234375	-0.806641	-0.403392	0.579774	0.562755	0.429469	9.29746	0.51266	-3.04614	-0.0307419	-0.0317922	-0.0410502	-0.868408	0.380859	0.300781	-0.915248	0.156855	0.25316	0.271342	6.17046	-1.37867	9.18553	-0.0544081	0.0357925	-0.0447779	-0.273926	0.343994	-0.948486	-0.0749329	0.0986216	0.989278	0.0773757	1.92258	1.43384	-9.13519	-0.0248111	-0.00017986	0.0104583	-0.566895	-0.0983887	0.923584	-0.488537	0.559665	0.543038	0.39143	9.47523	-1.50099	-1.97829	-0.0197731	0.00200883	0.00825772	-0.880127	0.524414	0.219727	-0.636549	0.457546	0.543469	0.300165	9.49311	-2.52965	-0.113364	-0.0237827	0.0406666	-0.00141684	-0.900146	0.662842	-0.158936	
3	-0.51744	0.510784	0.438416	0.528344	9.76006	-0.522416	0.923271	-0.0123231	-0.0286589	0.00221809	-0.814453	0.467529	-0.0344238	-0.662453	0.329299	0.367414	0.563671	8.63317	0.0544747	5.22494	-0.0187078	-0.0119556	-0.0355292	-0.626953	0.315186	-0.449463	-0.79466	0.106317	0.299758	0.517066	6.29641	1.68909	8.29697	0.0399529	-0.0201794	0.0154468	-0.517822	0.131592	-0.901123	-0.0874382	-0.215297	0.0416697	0.971733	-4.00263	1.33624	8.81843	0.0435765	0.0378975	0.0199904	0.0349121	-0.017334	-1.01025	-0.55191	0.24546	0.226642	0.764054	6.25494	0.771215	7.62355	0.0301968	-0.0161052	0.0318633	-0.666748	0.307373	-0.657227	-0.991124	-0.100596	-0.0705223	-0.0507965	-2.37399	2.38945	12.9138	-0.0519828	0.0259453	0.00593739	0.651611	-0.228027	-0.80249	-0.401798	0.580791	0.562798	0.429533	9.21325	0.185336	-2.96349	-0.0336208	-0.0541318	-0.0256506	-0.868164	0.376465	0.311523	-0.915052	0.157734	0.252218	0.272371	6.17181	-1.63261	9.05458	-0.048384	0.0455116	-0.0477059	-0.271729	0.341797	-0.946289	-0.0754635	0.0993338	0.989152	0.0775662	1.83562	1.32639	-9.04507	0.00873011	0.0339368	0.0132765	-0.564697	-0.0983887	0.925781	-0.489285	0.559404	0.542652	0.391401	9.42658	-1.12764	-1.78525	0.0222096	0.0415095	0.0252687	-0.871338	0.524414	0.212891	-0.636108	0.458787	0.542268	0.301373	9.54302	-2.71116	-0.197129	-0.058021	0.0299544	0.00801396	-0.897705	0.658447	-0.156738	
4	-0.516443	0.511731	0.438662	0.528199	9.85833	-0.605663	0.860416	-0.0341062	-0.0507281	-0.0121898	-0.816895	0.469727	-0.0388184	-0.661858	0.3295	0.36772	0.564054	8.66537	-0.0217635	5.18871	-0.0159772	-0.00907504	-0.0340449	-0.628906	0.312988	-0.44458	-0.794651	0.106965	0.300479	0.516527	6.39683	1.5727	8.37062	0.00978752	-0.0362894	0.0276221	-0.520264	0.135986	-0.901367	-0.0877814	-0.21647	0.0425033	0.971405	-4.13303	1.25915	8.79687	0.0374118	0.0550251	0.0230137	0.0437012	-0.017334	-1.00806	-0.553036	0.245185	0.227767	0.762993	6.22194	1.04037	7.67985	0.0560943	-0.0134921	0.0323448	-0.668701	0.302979	-0.657227	-0.991137	-0.10013	-0.0706145	-0.0513401	-2.25191	2.39972	12.9033	-0.018959	0.020094	0.0022635	0.649414	-0.230225	-0.80249	-0.400709	0.581665	0.562541	0.429705	9.25725	0.346166	-2.97907	-0.0305272	-0.000620883	-0.0105588	-0.868408	0.378662	0.309326	-0.91526	0.156876	0.251534	0.272799	6.05745	-1.45667	8.96994	0.0309924	0.0551423	-0.0307647	-0.271973	0.344238	-0.955566	-0.0761355	0.0999966	0.98901	0.0778704	1.54184	1.38563	-9.03979	-0.0146154	0.0284917	0.0106531	-0.571777	-0.0961914	0.930176	-0.489163	0.559814	0.542095	0.391741	9.57273	-0.947682	-1.78971	-0.0533363	0.0303296	0.0279916	-0.875732	0.526611	0.222168	-0.634977	0.460803	0.540542	0.303775	9.57593	-2.60075	-0.206382	-0.222415	0.0506268	-0.00215227	-0.891113	0.660645	-0.147461	
5	-0.515443	0.512309	0.439304	0.528082	9.7878	-0.699622	0.801587	-0.00594382	-0.0470063	-0.0285357	-0.814697	0.467529	-0.0300293	-0.661608	0.329549	0.368184	0.564014	8.54014	0.0276426	5.24829	-0.0104784	-0.00120898	-0.0285082	-0.624756	0.315186	-0.439941	-0.79479	0.106651	0.301843	0.515582	6.39508	1.69097	8.46088	0.0593386	-0.0281451	0.022306	-0.522217	0.129395	-0.9104	-0.0880657	-0.2169	0.0428685	0.971268	-4.15783	1.28545	8.83951	0.0289908	0.0409549	0.028872	0.041748	-0.0239258	-1.01685	-0.553211	0.245698	0.228474	0.762489	6.19378	0.888139	7.69956	0.00932672	-0.0240885	-0.00821455	-0.668701	0.305176	-0.657227	-0.99125	-0.0989923	-0.0702686	-0.0518253	-2.24478	2.44561	12.8946	-0.0422797	0.000504754	0.00215124	0.651855	-0.234375	-0.800049	-0.399668	0.582529	0.562409	0.429676	9.09275	0.165431	-3.00505	-0.0222163	-0.0260389	-0.00664212	-0.866211	0.378662	0.313477	-0.915134	0.156723	0.251	0.273801	5.92962	-1.42849	8.87006	-0.027499	0.0393586	-0.0588499	-0.267578	0.343994	-0.946289	-0.076481	0.100772	0.98889	0.0780573	1.52131	1.33745	-8.76342	-0.0108952	0.0132054	0.00971433	-0.564941	-0.09375	0.930176	-0.487828	0.562099	0.539519	0.393685	9.34771	-1.08656	-2.0114	-0.105556	0.0428358	0.0201772	-0.873535	0.526611	0.222168	-0.63216	0.465078	0.537685	0.308172	9.55413	-2.25455	-0.337905	-0.382582	0.0573967	-0.00305468	-0.897949	0.665039	-0.145264	
6	-0.515108	0.512206	0.439938	0.527981	9.74959	-0.642636	0.78973	0.0221252	-0.0407225	-0.0411497	-0.825684	0.467529	-0.0366211	-0.661403	0.329845	0.368226	0.564056	8.47984	-0.0018783	5.14002	-0.0275754	-0.00568425	-0.0223955	-0.624756	0.312988	-0.449463	-0.794852	0.10677	0.302234	0.515234	6.24157	1.74354	8.53092	0.0218235	-0.0259836	0.0258154	-0.52002	0.131592	-0.9104	-0.0885168	-0.217499	0.0437601	0.971053	-4.14947	1.14549	8.82918	0.000251165	0.00967915	0.00917617	0.041748	-0.0239258	-1.00586	-0.553303	0.245673	0.228797	0.762333	6.12256	0.818938	7.65823	0.0252729	-0.00667791	-0.00699409	-0.670654	0.300781	-0.657227	-0.991262	-0.0986775	-0.0701403	-0.0523661	-2.33422	2.46161	12.8435	0.00244059	0.0163993	0.00225371	0.649414	-0.22583	-0.80249	-0.39918	0.583054	0.562277	0.429591	9.07278	0.268865	-2.93873	-0.0241234	-0.0293838	-0.00134354	-0.868164	0.378662	0.319824	-0.915062	0.156529	0.250996	0.274154	5.84887	-1.39225	8.91409	0.0104282	0.0241311	-0.0472623	-0.269531	0.341797	-0.946289	-0.0764574	0.101142	0.988818	0.0785137	1.52952	1.24401	-8.76384	-0.0337306	0.00561492	0.0101114	-0.567139	-0.0961914	0.927979	-0.486622	0.563576	0.53796	0.395197	9.34847	-1.34873	-2.05154	-0.108847	0.0203331	0.0234522	-0.875488	0.522217	0.226807	-0.630682	0.467361	0.536062	0.310566	9.53434	-3.05002	-0.246747	-0.309895	0.0582898	-0.00386583	-0.897949	0.665039	-0.143066	
7	-0.515019	0.511547	0.441189	0.527662	9.74209	-0.453601	0.834217	0.0466676	-0.0164323	-0.0285206	-0.821289	0.467529	-0.0322266	-0.661013	0.330737	0.368396	0.563878	8.38647	-0.0293041	5.18627	-0.0339771	-0.0239907	-0.010751	-0.624756	0.315186	-0.437744	-0.794835	0.107243	0.302214	0.515173	6.24301	1.76102	8.50167	-0.0250016	-0.0142257	0.0161617	-0.518066	0.133789	-0.908203	-0.0884526	-0.217511	0.0438348	0.971053	-4.11284	1.04231	8.83039	0.00850309	0.00733231	-0.00258762	0.0461426	-0.0217285	-1.00806	-0.553754	0.244938	0.229402	0.762061	6.13256	0.767633	7.49817	0.0422325	0.0197881	-0.00692536	-0.666504	0.305176	-0.659424	-0.991238	-0.0987906	-0.0702623	-0.0524558	-2.35021	2.46444	12.7939	0.0141974	0.0236678	-0.00922326	0.647461	-0.232422	-0.808838	-0.398055	0.584164	0.561779	0.429778	8.96562	0.287724	-3.00164	-0.0427119	-0.0300316	-0.00315508	-0.863525	0.370117	0.322266	-0.914634	0.156854	0.250915	0.27547	6.08309	-1.48572	8.94883	-0.0235355	0.0330368	-0.0713562	-0.269775	0.343994	-0.948486	-0.076427	0.102197	0.98871	0.078528	1.69411	1.47203	-8.88209	-0.001054	0.000453368	0.0297228	-0.564941	-0.09375	0.921387	-0.486557	0.563794	0.537609	0.395442	9.40727	-1.34926	-1.92089	-0.0313868	0.0269651	0.0164529	-0.87793	0.524414	0.224365	-0.630582	0.468159	0.534168	0.312823	9.44973	-2.12087	0.048764	-0.140093	0.107483	-0.0125497	-0.895752	0.665039	-0.147705	
8	-0.515064	0.511234	0.441848	0.527369	9.81102	-0.390468	0.918005	0.0169923	-0.0188509	-0.00878312	-0.823242	0.465332	-0.0322266	-0.660032	0.332154	0.368275	0.564274	8.51297	-0.0260322	5.18477	-0.0626149	-0.0306042	-0.0193808	-0.626953	0.315186	-0.444824	-0.794407	0.108724	0.301635	0.515861	6.20806	1.61665	8.44994	-0.0282143	-0.00251551	-0.00614866	-0.524414	0.131592	-0.907959	-0.0877299	-0.217348	0.0446621	0.971117	-4.06288	1.11743	8.71858	0.0430894	-0.00900056	-0.0213961	0.0439453	-0.0195312	-1.00806	-0.553686	0.245219	0.229287	0.762054	6.16925	0.879302	7.50149	-0.0474852	-0.00598291	-0.0113168	-0.668457	0.300781	-0.654785	-0.991264	-0.0983083	-0.0707172	-0.0522431	-2.44186	2.38842	12.6886	-0.0164107	0.0333474	-0.0366871	0.649414	-0.230225	-0.80249	-0.396308	0.585452	0.56209	0.429233	9.18343	0.171266	-3.15184	-0.0222796	-0.0792138	-0.0233629	-0.86377	0.376465	0.320068	-0.914349	0.156992	0.250468	0.276739	6.13516	-1.76719	8.93544	0.00617081	0.0421675	-0.0543326	-0.280518	0.342041	-0.953125	-0.0764631	0.102623	0.98851	0.0804348	1.83022	1.33713	-9.01183	-0.0867554	0.0172971	-0.0248068	-0.569336	-0.0961914	0.925781	-0.486657	0.56409	0.5357	0.397482	9.68399	-0.886374	-1.57797	-0.108373	0.104729	0.0193731	-0.869385	0.531006	0.221924	-0.627691	0.472481	0.52975	0.319578	9.58675	-2.21851	-0.192912	-0.371557	0.112091	-0.038179	-0.897949	0.665039	-0.140869	
9	-0.514486	0.511968	0.44207	0.527037	10.0003	-0.539122	0.91906	-0.0239464	-0.0475534	0.00367415	-0.81665	0.463135	-0.0322266	-0.65899	0.333996	0.367807	0.56471	8.854	-0.170671	5.43242	-0.108372	0.00245376	-0.0155343	-0.626709	0.312988	-0.4375	-0.793908	0.109836	0.302082	0.516132	6.53389	1.4582	8.47553	-0.0186868	-0.0532859	-0.000722614	-0.524414	0.133789	-0.901367	-0.0872941	-0.21698	0.0461143	0.971171	-4.04967	1.33602	8.9303	0.0671997	-0.0131901	0.00479463	0.0422363	-0.0305176	-1.01221	-0.553341	0.246266	0.22882	0.762108	6.23925	0.76929	7.54334	-0.0828265	-0.0407593	-0.00732103	-0.668945	0.307373	-0.659424	-0.991389	-0.0971494	-0.0713536	-0.051176	-2.37712	2.41624	12.9588	-0.0478418	0.0413241	-0.0730698	0.647217	-0.228027	-0.804688	-0.39533	0.585843	0.562431	0.429155	9.54324	0.106822	-2.9302	0.00566731	-0.00475054	-0.0384806	-0.864014	0.378662	0.324219	-0.914724	0.155198	0.250474	0.276506	5.95508	-1.68598	9.13669	0.0890315	0.0211746	-0.0163027	-0.273926	0.342041	-0.950928	-0.0760347	0.101455	0.988523	0.0821432	1.50755	0.943643	-9.11058	-0.0236025	-0.00867657	-0.0720357	-0.569336	-0.100586	0.916992	-0.484173	0.566694	0.532795	0.400703	9.51873	-1.2954	-1.95787	-0.241479	0.010994	0.0217943	-0.875488	0.522217	0.224365	-0.622541	0.478865	0.525406	0.327229	9.79385	-2.23824	-0.618365	-0.451987	0.0513255	-0.0468161	-0.897949	0.665039	-0.122559	
10	-0.514025	0.512932	0.442178	0.526458	9.87594	-0.62507	0.82004	-0.0111103	-0.0374257	0.0275806	-0.825439	0.465088	-0.0302734	-0.658629	0.335408	0.367862	0.564258	8.5798	-0.132954	5.35004	0.00105458	-0.0344094	0.0128191	-0.62915	0.315186	-0.435303	-0.793452	0.111063	0.303765	0.515582	6.40759	1.51016	8.55653	-0.00221705	-0.0788216	0.0216182	-0.526611	0.135986	-0.903564	-0.087229	-0.216898	0.048508	0.971078	-3.91156	1.25149	9.08637	0.0977997	-0.00463418	0.0210893	0.0422363	-0.0327148	-1.01001	-0.551793	0.249885	0.229037	0.761987	6.31964	0.635002	7.90745	-0.0374965	-0.0882885	-0.0282827	-0.67749	0.307373	-0.652588	-0.991583	-0.0950788	-0.0723342	-0.0499032	-2.52822	2.44161	12.9941	-0.073267	0.0495803	-0.0738246	0.651367	-0.221436	-0.804688	-0.394498	0.586308	0.562849	0.428737	9.15472	0.269691	-2.85135	0.017466	-0.0564223	-0.0130752	-0.865723	0.36792	0.32666	-0.914691	0.153861	0.252114	0.275872	5.96635	-1.13377	9.02173	0.0371371	-0.0419413	-0.0095217	-0.273682	0.333252	-0.953125	-0.0752552	0.100955	0.988709	0.0812357	1.75188	1.55924	-8.78776	0.0411718	-0.0274372	-0.0276319	-0.571533	-0.10083	0.925781	-0.483604	0.566827	0.53253	0.401554	9.33645	-1.9231	-2.08254	0.0778191	0.0410342	-0.0261905	-0.875488	0.52002	0.229004	-0.621105	0.480131	0.524301	0.329865	9.31688	-3.00124	-0.373918	0.0913429	0.0254915	-0.0418106	-0.904541	0.660645	-0.11792	
11	-0.514261	0.513391	0.441994	0.525934	9.54353	-0.768374	0.75666	0.00784628	-0.01356	0.0157877	-0.823486	0.467285	-0.0302734	-0.65852	0.335957	0.368172	0.563856	8.32217	-0.152397	4.95653	-0.00514131	-0.00923368	-0.00954931	-0.631348	0.315186	-0.428223	-0.79349	0.113691	0.302368	0.515772	6.22986	1.56638	8.32417	-0.147084	0.0212995	0.0344363	-0.531006	0.140381	-0.901367	-0.0871356	-0.216275	0.0494668	0.971177	-3.93514	1.24844	8.87273	0.00121263	-0.0275828	0.00561523	0.0397949	-0.0305176	-1.01221	-0.551561	0.250346	0.230234	0.761643	6.12441	0.486404	7.9007	0.0451565	-0.00711192	-0.0139339	-0.677734	0.311768	-0.652588	-0.991699	-0.0937739	-0.0724339	-0.0499347	-2.59237	2.57946	12.7572	-0.0232941	0.0102703	0.00119564	0.653564	-0.223633	-0.79834	-0.393662	0.587421	0.563669	0.426901	8.73404	0.249561	-3.15203	0.0289827	-0.065139	0.00303325	-0.852783	0.372314	0.330811	-0.914158	0.156246	0.251957	0.276443	6.02496	-1.49859	9.16286	-0.11318	0.0131827	-0.0341059	-0.271729	0.343994	-0.946289	-0.0749289	0.101412	0.9886	0.0822869	2.23209	1.32775	-8.97368	-0.017826	0.00973543	0.00853603	-0.566895	-0.103027	0.925781	-0.485044	0.56521	0.533691	0.400555	9.16751	-1.03813	-1.70442	0.0557785	0.0035008	0.000190622	-0.875488	0.522217	0.224365	-0.621253	0.480153	0.523679	0.330542	9.20816	-2.72765	-0.236891	-0.0377121	0.0332504	-0.0040166	-0.900391	0.667236	-0.120361	
12	-0.514206	0.513225	0.442798	0.525473	9.71637	-0.739644	0.777044	0.0372556	-0.0317221	-0.0156432	-0.818848	0.465332	-0.0280762	-0.658871	0.335619	0.368919	0.563158	8.48644	-0.155928	4.98069	0.0373324	-0.00876983	0.00234302	-0.631592	0.321777	-0.435547	-0.793843	0.114284	0.300873	0.515973	6.2485	1.12739	8.03373	0.0321449	0.0462385	0.0165981	-0.522461	0.142334	-0.906006	-0.0878626	-0.215854	0.0480842	0.971275	-3.90788	1.20874	8.79985	-0.0585044	0.013447	0.0262152	0.0422363	-0.0327148	-1.01001	-0.552811	0.248419	0.230603	0.761256	6.23203	0.676682	7.55463	0.0642018	0.0768198	0.0255571	-0.67749	0.305176	-0.652588	-0.991521	-0.0953922	-0.0720796	-0.0509074	-2.67432	2.44026	12.7924	0.0646439	0.00094877	0.0308696	0.655762	-0.22583	-0.806885	-0.393033	0.588368	0.56411	0.42559	9.15383	0.329095	-2.98969	0.0247904	-0.0492665	0.00626222	-0.868164	0.376465	0.334961	-0.914237	0.15658	0.250613	0.277211	5.80066	-1.43008	8.98716	-0.00686885	0.0759795	-0.0155329	-0.273926	0.343994	-0.948486	-0.0757959	0.101945	0.988496	0.0820804	1.71378	1.43634	-8.85192	-0.000656963	0.0402229	-0.000744685	-0.564453	-0.102783	0.923584	-0.484423	0.566166	0.532886	0.401027	9.60709	-1.12273	-1.74027	-0.063037	0.00679968	0.0283694	-0.880127	0.524414	0.231201	-0.621484	0.480032	0.523284	0.33091	9.55504	-2.22699	-0.137197	-0.0313726	0.0302585	-0.00558852	-0.900146	0.662842	-0.11792	
13	-0.514219	0.512827	0.444075	0.524772	9.90731	-0.609824	0.757258	0.0475157	-0.0358708	-0.0157232	-0.818848	0.465332	-0.0300293	-0.659174	0.335792	0.36886	0.562739	8.77954	-0.135385	5.34721	-0.0129922	0.0124837	0.00178583	-0.62915	0.31958	-0.433105	-0.794243	0.112493	0.301947	0.515122	6.33628	1.23028	8.20813	0.186335	0.0123497	0.0188675	-0.528809	0.135986	-0.898926	-0.0883692	-0.216369	0.0480707	0.971115	-3.96671	1.32733	8.8016	-0.00405322	0.0515157	0.039411	0.0397949	-0.026123	-1.01245	-0.553489	0.248143	0.230031	0.761026	6.29441	0.81583	7.46843	-0.00497811	0.0577813	0.0453782	-0.668701	0.305176	-0.657227	-0.991492	-0.094881	-0.0724579	-0.0518716	-2.48663	2.26837	12.8663	-0.0400977	0.0457092	0.0120184	0.651367	-0.223633	-0.806885	-0.392615	0.58899	0.563864	0.425443	9.34016	0.083474	-3.0589	-0.0140685	-0.00389981	-0.000489182	-0.855225	0.376465	0.334961	-0.914401	0.156275	0.250234	0.277185	5.95023	-1.6365	8.93515	0.0401954	0.0173229	-0.0192612	-0.27002	0.348389	-0.953369	-0.0760004	0.101998	0.988485	0.0819606	1.34502	1.33818	-8.81378	0.01638	0.0203398	-0.010634	-0.567139	-0.0961914	0.930176	-0.484201	0.56673	0.532663	0.400795	9.43845	-1.36597	-1.924	0.0124982	-0.00847072	0.00496089	-0.871338	0.524414	0.224365	-0.621146	0.480576	0.522753	0.331592	9.68217	-2.65814	-0.214912	-0.079554	0.0317018	-0.00373873	-0.902344	0.660645	-0.120117	
14	-0.51403	0.512737	0.445043	0.524224	9.86906	-0.581716	0.701026	0.0221722	-0.0342441	-0.0178744	-0.821045	0.465088	-0.0236816	-0.659253	0.33582	0.368549	0.562834	8.70629	-0.205968	5.38054	-0.0236914	0.0346788	-0.0108925	-0.633545	0.317383	-0.433105	-0.794703	0.109728	0.304398	0.513565	6.39497	1.72806	8.60577	0.111996	-0.0237844	0.0148564	-0.526611	0.133789	-0.901367	-0.0897707	-0.218511	0.0486454	0.970478	-4.02783	1.32021	8.87433	0.00317703	0.0485709	0.0243375	0.0466309	-0.0305176	-1.01221	-0.553885	0.249668	0.228091	0.760823	6.37993	0.663268	7.62398	-0.0993772	-0.00586427	0.0311195	-0.668945	0.30957	-0.652588	-0.991463	-0.0943532	-0.0730435	-0.0525574	-2.41487	2.31126	12.9182	0.000883449	0.0391929	0.0100165	0.651367	-0.221436	-0.804688	-0.392595	0.589472	0.564119	0.424454	8.99979	0.163029	-3.21622	0.0517021	-0.0448921	-0.00509679	-0.861572	0.376465	0.334961	-0.914284	0.154944	0.251793	0.276906	6.02978	-1.08533	9.00913	0.050825	-0.0290637	-0.0396208	-0.273682	0.335449	-0.948486	-0.0758036	0.102193	0.988553	0.0810729	1.42225	1.46676	-8.80487	0.0449982	-0.014706	-0.00363837	-0.566895	-0.103027	0.932617	-0.484404	0.565821	0.533469	0.400761	9.48843	-0.88535	-1.66648	0.0323597	0.023943	-0.0326343	-0.873535	0.524414	0.222168	-0.621567	0.480062	0.522893	0.331328	9.61614	-2.58361	-0.303008	0.0588373	0.0213961	-0.00604146	-0.902344	0.662842	-0.122559	
15	-0.514112	0.512347	0.445234	0.524362	9.85904	-0.577889	0.715733	0.0120106	0.0215105	-0.00888282	-0.825684	0.469482	-0.0280762	-0.659913	0.335328	0.368135	0.562625	8.3286	-0.17871	5.07108	-0.000725998	0.0285257	-0.00493045	-0.626953	0.317383	-0.433105	-0.794971	0.111538	0.303085	0.513537	6.25398	1.49972	8.54251	-0.0794324	0.0435654	0.026552	-0.524414	0.138184	-0.901367	-0.0897905	-0.218124	0.0476603	0.970612	-4.04865	1.17807	8.87528	-0.0490914	-0.0192057	-0.0121396	0.0488281	-0.0327148	-1.00562	-0.554875	0.248989	0.228617	0.760167	6.19371	0.642932	7.72699	0.0990909	0.0308983	0.0145948	-0.67334	0.311768	-0.657227	-0.991284	-0.0956235	-0.0731638	-0.0534739	-2.47441	2.46477	12.7278	0.0670419	0.0143026	0.0263456	0.653809	-0.228027	-0.800293	-0.391674	0.590041	0.564428	0.424104	8.98812	0.434739	-3.10642	-0.0210539	-0.0192649	-0.0181203	-0.857422	0.378662	0.341309	-0.913731	0.156641	0.251798	0.277772	6.1277	-1.4476	9.07918	-0.0948716	0.0109311	-0.0352506	-0.271729	0.339844	-0.950928	-0.0751984	0.102248	0.988571	0.0813511	1.9437	1.59419	-8.98166	-0.0389036	-0.0140975	-0.0176514	-0.569336	-0.0961914	0.918945	-0.483797	0.566265	0.532909	0.401611	9.37722	-1.31295	-1.81255	-0.0680685	0.0216113	0.00442978	-0.882324	0.522217	0.224365	-0.621758	0.480035	0.522705	0.331306	9.43406	-2.75139	-0.0730054	-0.0758639	0.00505796	0.00920064	-0.904785	0.667236	-0.118164	
16	-0.514478	0.512043	0.445014	0.524488	9.68944	-0.582051	0.752333	0.0146736	0.0367416	0.00674973	-0.823242	0.465332	-0.0344238	-0.660024	0.335245	0.368212	0.562494	8.5487	-0.110649	5.09504	0.00719419	0.0141187	-0.0110388	-0.627197	0.31958	-0.440186	-0.795174	0.111809	0.302192	0.513689	6.24312	1.43733	8.36255	-0.0510997	0.0571418	0.0148098	-0.524658	0.140381	-0.903809	-0.0897115	-0.217615	0.046853	0.970773	-4.05207	1.0919	8.82703	-0.0642438	-0.0303359	-0.0182484	0.0437012	-0.017334	-1.00806	-0.555702	0.247393	0.229034	0.759958	6.24584	0.754299	7.53939	0.0278779	0.050225	-0.0027379	-0.671143	0.307373	-0.654785	-0.991202	-0.0963384	-0.073054	-0.0538657	-2.52801	2.441	12.7562	0.0588848	0.00548144	0.0199186	0.651611	-0.228027	-0.804688	-0.391303	0.590355	0.564287	0.424197	9.01687	0.186281	-3.0175	-0.019413	-0.00790128	-0.0118855	-0.855225	0.376465	0.336914	-0.913731	0.156641	0.251798	0.277772	6.1277	-1.4476	9.07918	-0.0948716	0.0109311	-0.0352506	-0.271729	0.339844	-0.950928	-0.0752911	0.102735	0.98845	0.0821207	1.87828	1.26786	-9.07485	-0.00996844	0.019344	0.0119143	-0.567139	-0.0961914	0.927979	-0.483385	0.566705	0.532705	0.401759	9.30128	-1.41265	-1.97442	-0.0475601	-0.00570245	0.0118312	-0.882324	0.524414	0.229004	-0.621959	0.480086	0.522591	0.331034	9.41754	-2.48906	-0.260055	-0.0144707	0.0127657	0.0081639	-0.900391	0.669434	-0.120361	
17	-0.51474	0.51182	0.444989	0.524469	9.81211	-0.575334	0.803645	0.00676753	-0.00245117	-0.00517174	-0.820801	0.460938	-0.0300293	-0.660007	0.334744	0.367519	0.563266	8.64069	-0.0943553	5.29315	-0.0181838	0.0468708	-0.0283455	-0.62915	0.317383	-0.440186	-0.795601	0.110929	0.301168	0.51382	6.24995	1.4893	8.3145	0.0321406	0.0601876	-0.000359588	-0.520264	0.140137	-0.903809	-0.0894797	-0.217104	0.0459608	0.970951	-4.06023	1.22197	8.82283	-0.0205124	-0.000850426	-0.0127097	0.0415039	-0.017334	-1.00806	-0.555934	0.247467	0.22779	0.760138	6.17799	0.7489	7.58753	-0.0529457	0.0321703	0.00747492	-0.666748	0.311768	-0.657227	-0.991101	-0.0970723	-0.0731742	-0.054232	-2.46687	2.49061	12.8795	0.0215138	0.0244705	-0.00608547	0.651611	-0.230225	-0.80249	-0.391017	0.590661	0.564396	0.423889	9.13125	0.269105	-3.09829	0.0146008	-0.0140197	-0.0117446	-0.857422	0.378662	0.334717	-0.913837	0.155324	0.250931	0.278945	5.98851	-1.46965	8.8949	0.0648402	0.0335777	-0.0448494	-0.273926	0.339844	-0.948486	-0.0759018	0.103777	0.98832	0.081814	1.63179	1.38754	-8.84214	0.00317591	0.02592	0.0272568	-0.564697	-0.0983887	0.927979	-0.483978	0.566478	0.532911	0.40109	9.43442	-1.16609	-1.82562	0.0547016	0.0158939	0.0163891	-0.873291	0.522217	0.226807	-0.621835	0.480603	0.522223	0.331097	9.59132	-2.41629	-0.215656	-0.0133901	0.00909276	0.00963756	-0.900391	0.669434	-0.120361	
18	-0.514504	0.511595	0.444968	0.524938	9.99477	-0.577085	0.811557	-0.0118895	0.0135039	-0.0223627	-0.821045	0.465088	-0.0236816	-0.660068	0.334583	0.367052	0.563593	8.60562	-0.0868965	5.30801	-0.0287498	0.0569571	-0.0254293	-0.62915	0.315186	-0.435303	-0.795811	0.109432	0.301468	0.51364	6.3515	1.5849	8.43732	0.0644029	0.017455	-0.0107798	-0.524414	0.138184	-0.906006	-0.089361	-0.217235	0.0457677	0.970942	-4.09072	1.23951	8.80397	-0.00915899	0.0183122	-0.0122811	0.0419922	-0.026123	-1.01025	-0.556291	0.247833	0.22653	0.760134	6.1715	0.671628	7.72068	-0.0280525	0.0280048	0.0110309	-0.669189	0.313965	-0.650391	-0.991027	-0.0973837	-0.0737183	-0.0542853	-2.41491	2.43664	12.8554	0.0179591	0.0370515	-0.0147424	0.653809	-0.228027	-0.804688	-0.390435	0.591345	0.564328	0.423562	9.23179	0.169166	-3.31576	-0.0103914	-0.0126465	-0.00470828	-0.855469	0.380859	0.341064	-0.913818	0.154795	0.250999	0.27924	5.89748	-1.2169	9.01369	-0.0176942	0.0067404	-0.0296786	-0.267334	0.342041	-0.948486	-0.0759534	0.104313	0.988269	0.0816905	1.47297	1.35313	-8.90044	0.0127154	-0.0025297	-0.00197541	-0.567139	-0.09375	0.923584	-0.483829	0.566429	0.532994	0.401229	9.68139	-0.970549	-1.76811	-0.0257599	0.0154199	-0.00611266	-0.875732	0.524414	0.229004	-0.621389	0.481231	0.521857	0.331599	9.71328	-2.26222	-0.104217	-0.0783031	0.010463	-0.00857136	-0.902588	0.667236	-0.120361	
19	-0.514696	0.510984	0.444845	0.525449	9.9942	-0.593338	0.837	0.016189	0.029251	-0.012649	-0.823242	0.465332	-0.0302734	-0.660054	0.334677	0.365977	0.564253	8.60481	-0.196674	5.36385	-0.0324293	0.0278588	-0.00779389	-0.620361	0.315186	-0.437744	-0.795534	0.109421	0.301836	0.513855	6.32076	1.64755	8.58498	-0.0214505	-0.0121342	-0.0115108	-0.524414	0.138184	-0.89917	-0.0889618	-0.217774	0.0456181	0.970865	-4.029	1.15995	8.85961	0.00324719	0.0078997	-0.0102496	0.0441895	-0.026123	-1.01025	-0.556335	0.247566	0.226653	0.760152	6.22091	0.759555	7.7604	0.0134706	0.0115498	-0.0219854	-0.671143	0.311768	-0.661865	-0.990967	-0.0977321	-0.0739543	-0.0544458	-2.43939	2.50759	12.8291	0.0191344	0.0182488	-0.00798833	0.656006	-0.230225	-0.800293	-0.390047	0.59141	0.564133	0.42409	9.17325	0.2486	-3.17333	-0.0172713	0.0108969	-0.0173413	-0.857178	0.374268	0.343506	-0.913291	0.156419	0.2511	0.279966	6.0328	-1.59454	9.0938	-0.0549101	0.000168942	-0.024038	-0.275879	0.339844	-0.948486	-0.075234	0.104428	0.988267	0.0822334	1.62524	1.36823	-8.95999	-0.0306122	-0.0253798	-0.0178988	-0.567139	-0.0961914	0.927979	-0.48235	0.567696	0.532105	0.402397	9.53354	-1.12193	-1.98157	-0.109532	-0.000998676	-0.00148783	-0.871094	0.524414	0.23584	-0.619723	0.482964	0.520866	0.333749	9.71188	-2.25606	-0.328794	-0.137395	0.0149523	-0.0316583	-0.900391	0.669434	-0.122559	
20	-0.515702	0.509896	0.444591	0.525735	10.0247	-0.500754	0.951461	0.0345058	0.0555	0.00465151	-0.821045	0.465332	-0.0302734	-0.660085	0.33509	0.365564	0.564238	8.57396	-0.143808	5.33796	-0.02819	0.0136462	-0.00480572	-0.62915	0.317383	-0.440186	-0.795188	0.111049	0.301546	0.514213	6.31403	1.52342	8.63276	-0.0567274	-0.0204744	0.0112282	-0.524414	0.133789	-0.898926	-0.088863	-0.217311	0.0456546	0.970976	-4.00642	1.09145	8.96541	0.00561488	-0.016565	0.000431682	0.0463867	-0.026123	-1.00781	-0.555933	0.247616	0.22675	0.760401	6.16448	0.609584	7.72683	-0.00756141	-0.0061731	-0.031569	-0.671143	0.311768	-0.657227	-0.99096	-0.0979636	-0.0737833	-0.054379	-2.52473	2.59778	12.8418	0.0071252	0.00204148	-0.0218479	0.660156	-0.230225	-0.80249	-0.389546	0.591795	0.563589	0.424735	9.1621	0.146631	-3.23232	-0.0192541	0.0146822	-0.0179333	-0.861816	0.380859	0.336914	-0.912948	0.156101	0.252439	0.280059	6.22962	-1.64294	8.97518	0.0775471	-0.0281234	-0.0430406	-0.273926	0.343994	-0.943848	-0.074305	0.104405	0.988368	0.0818909	1.68875	1.34946	-9.07458	0.0438238	-0.0370635	-0.0189967	-0.567139	-0.0961914	0.923584	-0.480908	0.56859	0.531231	0.404012	9.62025	-1.23413	-2.02768	-0.0911394	0.0286977	-0.00965806	-0.879883	0.515625	0.233643	-0.616764	0.485988	0.518608	0.338326	9.70498	-2.66715	-0.272686	-0.231194	0.0628189	-0.0588381	-0.900391	0.669434	-0.108887	
21	-0.516797	0.50879	0.443594	0.526572	9.66851	-0.482084	0.989852	-0.000520551	0.0845119	0.00268491	-0.821045	0.463135	-0.0366211	-0.659619	0.336358	0.365109	0.564323	8.42255	-0.0689497	5.20935	-0.0707962	-0.0128019	-0.00836945	-0.625244	0.326172	-0.437988	-0.795067	0.112246	0.301686	0.514057	6.20508	1.55516	8.5564	-0.0237224	-0.0266887	0.0182682	-0.520264	0.144531	-0.90625	-0.0886397	-0.216778	0.0465692	0.971072	-4.04844	1.10675	8.93896	0.0451345	-0.0183024	-0.00140317	0.0419922	-0.0283203	-1.01001	-0.555636	0.248015	0.226892	0.760445	6.16579	0.583728	7.6542	-0.00590571	-0.0094134	-0.0163215	-0.671387	0.316162	-0.654785	-0.991022	-0.0974434	-0.0739754	-0.053923	-2.58282	2.56897	12.8428	-0.0168663	0.0135033	-0.028403	0.651367	-0.22583	-0.79834	-0.390275	0.591466	0.562536	0.425918	9.05099	0.421701	-3.2479	-0.00231555	0.106741	0.00472558	-0.857422	0.376465	0.339111	-0.912639	0.155502	0.253245	0.280672	6.02921	-1.32949	9.05969	-0.0184719	-0.00159083	-0.0590166	-0.273682	0.335449	-0.948486	-0.0733671	0.105033	0.988392	0.0816485	1.88511	1.43137	-8.95342	-0.00362126	-0.0294563	0.017447	-0.562256	-0.0983887	0.930176	-0.480483	0.568899	0.530425	0.40514	9.11921	-1.47597	-1.88986	-0.0308942	0.0391784	0.00330607	-0.873047	0.515625	0.236084	-0.616435	0.485712	0.518121	0.340063	9.2651	-2.898	-0.328245	0.0611764	0.0415765	-0.0401653	-0.911377	0.6604	-0.111084	
22	-0.517108	0.508443	0.442919	0.527169	9.44059	-0.520872	1.03629	-0.0216568	0.0746638	0.0022213	-0.818848	0.465332	-0.0388184	-0.659067	0.337345	0.364806	0.564576	8.40106	-0.129577	5.04889	-0.0959551	-0.0233965	-0.0203606	-0.627197	0.31958	-0.433105	-0.795033	0.112862	0.30141	0.514136	6.17408	1.61023	8.43046	-0.0478537	-0.00310007	0.0122916	-0.528809	0.140381	-0.908203	-0.0876063	-0.216403	0.0474013	0.97121	-4.02998	1.23403	8.82001	0.0320985	-0.0143887	-0.0439806	0.0419922	-0.0283203	-1.01001	-0.555568	0.24822	0.226843	0.760443	6.17219	0.611138	7.62397	-0.013073	-0.00381858	-0.011909	-0.671143	0.311768	-0.659424	-0.991054	-0.0969382	-0.0743909	-0.0536762	-2.49285	2.40231	12.7538	0.000545281	0.0363555	-0.025561	0.649414	-0.230225	-0.80249	-0.394165	0.589555	0.560407	0.427788	8.7227	-0.0638934	-2.78008	0.0902827	0.223115	0.0314515	-0.857422	0.376465	0.328369	-0.912344	0.156005	0.253085	0.281495	5.99127	-1.41968	9.07121	-0.0574216	0.021249	-0.0711731	-0.280518	0.343994	-0.953125	-0.0733175	0.105852	0.988287	0.0819046	1.98851	1.38598	-8.8194	-0.0207314	-0.00118426	0.0473254	-0.564697	-0.0961914	0.925781	-0.480595	0.568737	0.530565	0.405052	9.20757	-1.29489	-1.99633	0.0166614	0.0098748	0.00124673	-0.88208	0.52002	0.231445	-0.616948	0.484828	0.518497	0.339822	9.18019	-2.74147	-0.315269	0.0858753	0.0248571	-0.0281468	-0.906982	0.662842	-0.108887	
23	-0.517098	0.508385	0.442438	0.527639	9.25171	-0.578042	0.990611	-0.0341111	0.0377927	-0.00395625	-0.819092	0.469727	-0.0388184	-0.658155	0.33885	0.364192	0.565134	8.38341	-0.332197	5.07837	-0.0822779	0.00124175	-0.022096	-0.629395	0.323975	-0.43335	-0.794798	0.114309	0.299323	0.515397	6.2111	1.41253	8.20227	-0.104804	0.0588486	-0.0274959	-0.526855	0.146729	-0.899414	-0.0876063	-0.216403	0.0474013	0.97121	-4.02998	1.23403	8.82001	0.0320985	-0.0143887	-0.0439806	0.0419922	-0.0283203	-1.01001	-0.555904	0.248012	0.225997	0.760517	6.08667	0.680952	7.46903	-0.0224124	0.0501521	0.00534729	-0.668945	0.30957	-0.657227	-0.990862	-0.098404	-0.0752705	-0.0533187	-2.45524	2.31089	12.6554	0.081363	0.0487618	-0.0328496	0.660156	-0.22998	-0.800293	-0.395361	0.589057	0.560136	0.427726	8.63632	0.201913	-2.94189	0.0819944	0.0866144	0.0165668	-0.857666	0.380859	0.33252	-0.911865	0.156777	0.251936	0.283642	5.88152	-1.40564	8.78675	-0.0469125	0.0754545	-0.0796568	-0.275879	0.339844	-0.950684	-0.0739012	0.107902	0.987979	0.08242	1.77479	1.20866	-8.78137	-0.00129932	0.0270816	0.0626675	-0.569336	-0.0983887	0.930176	-0.481027	0.56847	0.530388	0.405146	9.31426	-0.994574	-1.83481	0.0211182	0.0496913	0.00979262	-0.875488	0.52002	0.233643	-0.617912	0.483443	0.519108	0.339108	9.43333	-2.25392	-0.125857	0.0405347	0.0157178	-0.00558362	-0.897949	0.660645	-0.11792	
24	-0.516281	0.509635	0.44229	0.527358	9.84816	-0.567657	0.885239	-0.0209468	-0.0505677	0.019811	-0.820801	0.460938	-0.0344238	-0.657851	0.339366	0.36385	0.5654	8.64023	-0.152899	5.11688	-0.00908171	0.000793239	-0.0193536	-0.631592	0.326172	-0.430908	-0.794491	0.113551	0.298106	0.516743	6.19237	1.17007	8.24879	0.0304795	0.0519751	-0.0501716	-0.520264	0.144531	-0.89917	-0.0857115	-0.216069	0.045257	0.971555	-3.88442	1.23483	8.62144	-0.045271	0.00835056	-0.0594828	0.0375977	-0.0305176	-1.0144	-0.555909	0.248006	0.224363	0.760999	6.23483	0.698014	7.49807	-0.0692617	0.0412485	-0.0125753	-0.664795	0.313965	-0.654785	-0.990759	-0.0992545	-0.0757807	-0.0529318	-2.53721	2.3042	12.6887	0.077271	0.0480981	-0.0451464	0.657959	-0.228027	-0.796143	-0.395393	0.589574	0.559202	0.428205	9.33194	0.163578	-3.11942	-0.0422142	0.0538061	0.00882854	-0.857666	0.380859	0.326172	-0.911697	0.15747	0.250934	0.284681	5.89	-1.66358	8.74403	-0.0365479	0.0295139	-0.0419096	-0.276123	0.343994	-0.946289	-0.0740368	0.10918	0.987787	0.082914	1.30456	1.25856	-8.78775	-0.0199984	0.00203586	0.021596	-0.564941	-0.09375	0.927979	-0.481213	0.568575	0.53034	0.404841	9.62395	-1.31396	-1.62121	0.0186919	0.00650727	0.00385395	-0.875732	0.524414	0.231201	-0.620342	0.480894	0.520231	0.336566	9.6637	-2.58436	0.00464488	0.285931	0.00770353	0.0192476	-0.897705	0.65625	-0.126953	
25	-0.515958	0.511282	0.441412	0.526815	9.86181	-0.539349	0.801016	-0.06189	-0.0320334	0.0540759	-0.823242	0.465332	-0.0322266	-0.656957	0.340284	0.363278	0.566254	8.61722	-0.314445	5.16731	-0.091661	0.0217864	-0.0416938	-0.631836	0.328369	-0.431152	-0.794136	0.111765	0.299205	0.517042	6.28636	1.566	8.40086	0.0619334	-0.00872336	-0.0380153	-0.524658	0.140381	-0.906006	-0.0844894	-0.216445	0.0456557	0.97156	-3.88023	1.23766	8.63476	0.051295	0.0185379	-0.0381204	0.0419922	-0.0283203	-1.00781	-0.554821	0.249269	0.223524	0.761627	6.2239	0.693741	7.56758	-0.0623747	-0.0291712	-0.0521747	-0.666992	0.313965	-0.657227	-0.990792	-0.0991194	-0.0762925	-0.0518306	-2.40733	2.35382	12.709	-0.0175656	0.0214708	-0.0674818	0.653809	-0.22998	-0.791748	-0.396057	0.589145	0.558116	0.429597	9.12659	-0.0868439	-3.00983	0.0166239	0.102066	-0.0210642	-0.859619	0.380859	0.328369	-0.911762	0.155977	0.251818	0.284515	6.11565	-1.60567	9.04257	0.0985199	-0.0079277	-0.0227466	-0.27832	0.341797	-0.943848	-0.0735499	0.109488	0.987749	0.0833907	1.7481	1.55	-8.99343	-0.0360495	-0.00985104	-0.0149406	-0.560303	-0.09375	0.923584	-0.482415	0.566922	0.532029	0.40351	9.50991	-1.41959	-1.6304	0.148554	-0.0012242	-0.035498	-0.880371	0.526611	0.224365	-0.625874	0.474365	0.52422	0.329322	9.61687	-2.74785	0.26066	0.518061	-0.0435171	0.0414095	-0.900146	0.660645	-0.13623	
26	-0.515384	0.513273	0.439758	0.526823	9.86012	-0.67432	0.790714	-0.0913854	-0.0174735	0.0627052	-0.821533	0.47168	-0.0302734	-0.656611	0.340396	0.363839	0.566228	8.55173	-0.417727	5.10734	0.0666791	-0.0219597	-0.0232362	-0.631836	0.330566	-0.433594	-0.79316	0.113333	0.299022	0.518304	6.39674	1.38654	8.29984	-0.0948642	-0.0225406	-0.0423745	-0.526855	0.142578	-0.906006	-0.0836483	-0.21631	0.0466278	0.971617	-3.96289	1.33239	8.74604	0.0312188	-0.0123251	-0.0176717	0.0397949	-0.026123	-1.01245	-0.553536	0.249214	0.224775	0.762211	6.14335	0.607842	7.63362	0.0583953	-0.0272143	-0.0860695	-0.671143	0.311768	-0.652588	-0.99095	-0.0986732	-0.0757833	-0.0503912	-2.44005	2.39082	12.6595	-0.00448673	-0.0201878	-0.0738866	0.657715	-0.223633	-0.80249	-0.39611	0.588368	0.55973	0.428512	9.1459	0.245181	-3.13908	0.105663	-0.083103	-0.0626146	-0.857422	0.376709	0.326416	-0.912414	0.1532	0.251868	0.283888	6.54688	-1.2483	9.26013	0.111865	0.079534	-0.00867664	-0.278076	0.335449	-0.950684	-0.0741085	0.109337	0.987557	0.0853512	2.14894	1.46754	-9.23751	-0.0726863	0.0343209	-0.0171398	-0.566895	-0.103027	0.928223	-0.485836	0.563487	0.535374	0.399776	9.60944	-1.64291	-1.94616	0.326778	-0.0295736	-0.010633	-0.882324	0.522217	0.219971	-0.635705	0.461413	0.532389	0.3155	9.78533	-2.1081	-0.44135	0.95345	-0.0912055	0.030484	-0.897705	0.65625	-0.161133	
27	-0.515725	0.514838	0.43801	0.526419	9.96225	-0.824794	0.786817	-0.0331204	0.00912462	0.0789433	-0.815186	0.480469	-0.0280762	-0.65727	0.339071	0.365985	0.564873	8.71708	-0.321403	5.21561	0.117713	-0.0232739	-0.0103038	-0.635742	0.31958	-0.435547	-0.792165	0.114005	0.300224	0.518982	6.54329	1.12842	8.31045	0.0482977	-0.079457	-0.0354324	-0.528809	0.142578	-0.89917	-0.0836779	-0.216103	0.0468728	0.971648	-3.97918	1.38198	8.78604	0.0192271	-0.0111224	0.00800489	0.0400391	-0.0327148	-1.01001	-0.551586	0.249452	0.22713	0.762849	6.27307	0.634261	7.81807	0.0180363	-0.0659755	-0.109414	-0.675537	0.313965	-0.652588	-0.991195	-0.0974572	-0.0748234	-0.0493636	-2.68643	2.50802	12.9518	-0.0582595	-0.0252871	-0.0471842	0.657715	-0.223633	-0.80249	-0.396916	0.586285	0.561196	0.428704	9.24058	0.620098	-2.81309	0.0774979	0.0972225	-0.0977943	-0.865723	0.372314	0.322266	-0.91365	0.151644	0.24892	0.283348	5.92243	-1.11468	9.11976	0.0220383	0.158422	0.0323054	-0.269287	0.335449	-0.953125	-0.0754203	0.110169	0.987323	0.0858305	1.25438	0.977396	-9.14282	0.0526913	0.0494501	0.0143356	-0.566895	-0.0983887	0.921387	-0.491338	0.558522	0.539809	0.394014	9.2354	-0.0512406	-1.92877	0.428244	0.0157167	-0.000286888	-0.87793	0.524414	0.212891	-0.643236	0.449957	0.539356	0.304766	9.58215	-1.42893	-0.280164	0.640845	-0.0503093	-0.0145815	-0.901855	0.649414	-0.186035	
28	-0.517335	0.515256	0.436484	0.525697	10.0775	-0.791235	0.915996	0.0139212	0.0387752	0.0837071	-0.815186	0.480469	-0.0280762	-0.658046	0.337618	0.368682	0.563083	8.58958	0.0295913	5.08045	0.105716	-0.0370202	-0.0200909	-0.62915	0.317383	-0.430664	-0.791781	0.112441	0.303294	0.518124	6.2249	1.69311	8.59619	0.112844	-0.0593546	0.00257477	-0.528809	0.135986	-0.898926	-0.0840923	-0.216989	0.0492725	0.971296	-3.90661	1.32725	9.05372	0.0626831	0.0225106	0.0246374	0.0419922	-0.0283203	-1.01001	-0.55036	0.249605	0.22881	0.763182	6.15686	0.35968	7.82955	0.0578708	-0.0337782	-0.05467	-0.670898	0.307373	-0.647949	-0.991381	-0.0957	-0.0742427	-0.0499258	-2.79857	2.5244	12.9253	-0.0547178	0.00828619	0.0127358	0.653564	-0.223633	-0.804688	-0.396135	0.585107	0.562192	0.42973	9.13941	0.632187	-3.05842	-0.00619356	-0.0119096	-0.0906564	-0.861572	0.372314	0.315918	-0.913933	0.153235	0.248198	0.282213	6.32016	-1.5302	8.51111	-0.0633842	-0.0111075	0.053512	-0.267578	0.344238	-0.953125	-0.0764004	0.108925	0.987566	0.0837314	0.946163	1.5156	-8.62565	0.0686492	0.0281461	-0.0980518	-0.567139	-0.0959473	0.921387	-0.491873	0.558946	0.539363	0.393356	9.7525	-0.318696	-1.70091	-0.15933	0.060206	0.039122	-0.880371	0.531006	0.217285	-0.641075	0.453826	0.537075	0.307597	9.89006	-2.55947	-0.198814	-0.35304	0.0374651	0.00963022	-0.897705	0.658447	-0.174805	
29	-0.518361	0.514789	0.435263	0.526156	9.76338	-0.648971	1.00566	-0.0135705	0.0635467	0.0092416	-0.814941	0.476318	-0.0366211	-0.657451	0.337596	0.371269	0.562091	8.73128	0.284546	5.23819	0.039003	-0.0825384	-0.0490724	-0.635498	0.315186	-0.435303	-0.791658	0.114089	0.304178	0.517432	6.42005	1.73673	8.62078	-0.0569547	-0.0491264	0.049824	-0.537354	0.142822	-0.89917	-0.0845814	-0.21799	0.0499482	0.970995	-4.09734	1.06457	8.92256	0.0478198	0.0373368	0.0204442	0.0446777	-0.0371094	-1.01221	-0.551187	0.249005	0.231291	0.762033	6.24477	0.84809	7.70329	0.103044	-0.0345188	0.0235391	-0.679688	0.304932	-0.650391	-0.991372	-0.095281	-0.0742945	-0.0508353	-2.55324	2.61027	12.8879	-0.0309119	0.0201827	0.0200409	0.655762	-0.223633	-0.800537	-0.39523	0.584766	0.561386	0.432073	9.14131	0.0915594	-3.20638	-0.0805591	0.0974229	-0.0470883	-0.865479	0.365723	0.318115	-0.914292	0.153415	0.249804	0.279521	5.73758	-1.48086	8.90601	0.0382371	-0.088643	0.0677861	-0.276123	0.339844	-0.955566	-0.075308	0.106125	0.988004	0.0831574	1.17478	1.46111	-8.77404	0.0680025	-0.049661	-0.124766	-0.560059	-0.0983887	0.925781	-0.487601	0.562922	0.536203	0.397303	9.62015	-1.53464	-2.09399	-0.282105	-0.00198652	-0.00121222	-0.873291	0.517822	0.219971	-0.63775	0.458882	0.534069	0.312206	9.7467	-2.17989	0.00081156	-0.401998	0.0344429	0.000661802	-0.902344	0.658447	-0.163574	
30	-0.518233	0.514705	0.434784	0.52676	9.61255	-0.677318	1.01948	-0.0424217	0.0404097	-0.0149237	-0.811035	0.482666	-0.0302734	-0.656896	0.33801	0.371639	0.562246	8.70663	0.158807	5.20392	-0.0332056	-0.0359841	-0.0495014	-0.633545	0.31958	-0.428467	-0.791941	0.114947	0.303867	0.516993	6.4195	1.53599	8.51658	-0.0486023	-0.00720213	0.065445	-0.531006	0.142578	-0.896973	-0.0849879	-0.217951	0.0512864	0.970899	-4.19088	1.20108	8.88368	0.028464	-0.00763667	0.0319057	0.0471191	-0.0437012	-1.01196	-0.551506	0.249277	0.231741	0.761576	6.19277	1.07628	7.66466	0.030466	-0.031943	0.0232615	-0.677734	0.309326	-0.650391	-0.991493	-0.0938256	-0.074121	-0.0514149	-2.30239	2.5036	12.8756	-0.0361544	0.00633609	-0.00573331	0.653564	-0.223633	-0.80249	-0.39475	0.584621	0.561358	0.432744	8.82606	-0.0447831	-2.93278	-0.0328763	0.025937	-0.0593337	-0.87207	0.370117	0.322266	-0.914152	0.152882	0.251375	0.278861	6.00717	-1.30079	8.88537	0.0895741	-0.0965454	-0.000668393	-0.271729	0.339844	-0.953125	-0.0744724	0.105078	0.988183	0.0831102	1.66935	1.8019	-8.7655	0.00959339	-0.0547302	-0.106785	-0.560303	-0.09375	0.930176	-0.487128	0.562468	0.535777	0.399097	9.44176	-1.43725	-2.04586	-0.0461304	0.0516187	-0.0411404	-0.880127	0.522217	0.219971	-0.635624	0.462169	0.531827	0.315502	9.51983	-2.66346	-0.0761847	-0.438927	0.0700652	-0.00283837	-0.904541	0.658203	-0.158936	
31	-0.517175	0.514805	0.435086	0.527453	9.64473	-0.739884	0.986965	-0.0161606	-0.0283574	-0.0459796	-0.817383	0.478516	-0.0388184	-0.656182	0.339091	0.371946	0.562226	8.53399	-0.294383	4.97044	-0.0464495	-0.0332621	-0.0194193	-0.635498	0.31543	-0.418945	-0.79279	0.114762	0.303503	0.515945	6.41429	1.65686	8.37176	0.0260141	0.0344836	0.0430461	-0.535156	0.138428	-0.896729	-0.0857169	-0.217192	0.0512785	0.971005	-4.23198	1.36669	8.72709	-0.000738305	-0.0214831	0.0256551	0.0449219	-0.0415039	-1.00757	-0.552091	0.249752	0.23157	0.761049	6.30905	0.883975	7.60882	0.00730701	0.00875439	0.0182566	-0.67749	0.307129	-0.650391	-0.99157	-0.0936069	-0.0734528	-0.0513031	-2.4008	2.33963	12.9493	-0.0091891	-0.0172412	-0.0175181	0.655762	-0.223633	-0.804688	-0.393589	0.583987	0.563077	0.432425	9.20387	0.459613	-2.98351	0.0409014	-0.0388425	-0.0848319	-0.871826	0.363525	0.324463	-0.913772	0.15353	0.252658	0.27859	6.14205	-1.3869	9.17425	-0.0439243	-0.0261327	-0.0132636	-0.277832	0.331055	-0.950684	-0.0729852	0.103539	0.988381	0.0840028	2.01252	1.40533	-9.18018	0.00247812	-0.0368053	-0.0672562	-0.559814	-0.105225	0.93042	-0.486141	0.563026	0.535406	0.40001	9.28012	-1.56448	-1.89343	-0.0508015	0.00136459	-0.00165497	-0.879883	0.517822	0.222168	-0.633197	0.465782	0.528537	0.320559	9.30182	-3.0761	-0.183495	-0.112863	0.0792409	-0.0248183	-0.897949	0.665039	-0.154541	
32	-0.516673	0.514955	0.436167	0.526906	9.55333	-0.6464	0.903985	0.0251087	-0.0566498	-0.0128107	-0.810547	0.474121	-0.0322266	-0.655679	0.33924	0.373025	0.562009	8.67082	0.0569845	4.95958	0.0246643	-0.0173446	-0.0424453	-0.642334	0.317383	-0.428223	-0.79332	0.114241	0.302855	0.515627	6.25758	1.53242	8.13466	0.0141388	0.0470346	0.00973442	-0.526611	0.142578	-0.89917	-0.0857276	-0.21706	0.0514991	0.971022	-4.11735	1.43228	8.77509	0.0173099	-0.00536714	0.00633037	0.0427246	-0.0415039	-1.01416	-0.552133	0.249765	0.2313	0.761096	6.30386	0.965702	7.61637	-0.0269907	0.00887216	-0.0139945	-0.673096	0.305176	-0.650391	-0.991641	-0.0930934	-0.0730257	-0.0514607	-2.37664	2.29135	12.9878	-0.0397409	-0.0170259	-0.00417778	0.646973	-0.221436	-0.802734	-0.393043	0.583651	0.563992	0.432184	9.04868	0.576299	-3.01778	0.0284942	-0.0162822	-0.0364275	-0.869629	0.363525	0.318115	-0.913748	0.153019	0.252841	0.278784	6.06008	-1.37896	9.34967	0.0609526	0.0241539	-0.0252133	-0.280029	0.335449	-0.955322	-0.0730645	0.103778	0.988391	0.0835176	2.22948	1.52507	-9.00616	0.0315016	0.0227677	0.006918	-0.557373	-0.107422	0.932617	-0.48654	0.562695	0.535448	0.399936	9.34619	-1.40907	-1.82714	0.0370411	0.0344347	0.00252445	-0.879883	0.517822	0.217773	-0.633407	0.465987	0.52767	0.321273	9.27843	-2.86598	0.0632597	0.0455445	0.0259118	0.00906782	-0.902344	0.658447	-0.1521	
33	-0.515449	0.515777	0.43804	0.525744	9.80601	-0.589556	0.797319	0.0120857	-0.117507	-0.0328274	-0.821289	0.467529	-0.0302734	-0.655261	0.338678	0.374007	0.562182	8.83557	0.0580498	4.93315	0.0167501	0.00673788	-0.0534705	-0.635742	0.31958	-0.428467	-0.793328	0.113506	0.302325	0.516088	6.39514	1.55353	8.12717	0.00926219	0.0367469	-0.0201431	-0.528809	0.138184	-0.896729	-0.0855391	-0.217655	0.0511672	0.970923	-4.11568	1.59139	8.68547	-0.0205358	0.0433671	-0.0110698	0.0424805	-0.0371094	-1.00342	-0.552482	0.248891	0.231021	0.761214	6.38986	0.694534	7.57777	0.053603	0.0566245	-0.00508815	-0.670898	0.302979	-0.650391	-0.99165	-0.09328	-0.0721824	-0.0521477	-2.40846	2.22712	12.98	0.0263972	-0.0158843	0.0190914	0.655518	-0.221436	-0.806885	-0.392741	0.583948	0.563324	0.432927	9.28758	0.413026	-3.00623	-0.0386277	0.0360154	-0.0129742	-0.867676	0.365723	0.320312	-0.914108	0.153546	0.251397	0.27862	5.9356	-1.18516	9.17688	-0.08155	0.0677107	0.0142553	-0.269531	0.337646	-0.948486	-0.0742563	0.103632	0.988301	0.0837098	1.73127	1.35843	-9.04824	0.0212892	0.0579887	-0.0322935	-0.560059	-0.100586	0.932617	-0.487377	0.562597	0.535081	0.399547	9.71647	-1.00819	-1.64843	0.00370275	0.0360239	0.0399988	-0.87793	0.524414	0.219727	-0.632929	0.467225	0.526572	0.322215	9.68954	-2.3879	0.0223896	-0.141686	0.0318014	0.0127602	-0.900391	0.665039	-0.154541	
34	-0.513453	0.517009	0.439822	0.525	10.0698	-0.627845	0.694515	-0.0203881	-0.1082	-0.0436538	-0.819336	0.47168	-0.0258789	-0.654941	0.338295	0.374764	0.562281	8.89077	-0.0509022	5.25605	0.0161978	-0.00394537	-0.0398319	-0.639893	0.311035	-0.42334	-0.793004	0.112413	0.304281	0.515675	6.48833	1.48865	8.33721	0.118892	-0.0645677	-0.0123277	-0.535156	0.138428	-0.896729	-0.0852608	-0.219419	0.0513325	0.970542	-4.24759	1.50137	8.77133	0.038048	0.0844173	-0.011414	0.0471191	-0.0415039	-1.01196	-0.553178	0.246984	0.232537	0.760868	6.30981	1.15201	7.61124	0.0793894	0.0197416	-0.0294629	-0.668457	0.300781	-0.654785	-0.991625	-0.0936744	-0.0714151	-0.0529622	-2.27791	2.30309	13.0365	0.00115576	-0.0117769	0.0201021	0.655518	-0.221436	-0.809082	-0.392511	0.584183	0.562866	0.433413	9.45556	0.110491	-3.05167	-0.0026875	0.025414	-0.00840955	-0.865479	0.363525	0.324463	-0.914208	0.154799	0.250259	0.278625	5.93899	-1.64402	8.99992	-0.0156894	0.0319248	0.00537635	-0.265381	0.343994	-0.946289	-0.0749697	0.102925	0.988405	0.0827145	1.25776	1.69012	-8.7402	0.0362527	0.0216489	-0.039942	-0.56665	-0.105225	0.928223	-0.486415	0.564151	0.533513	0.400621	9.51959	-1.13553	-1.72511	-0.1034	0.0231862	0.0280085	-0.88208	0.517822	0.219971	-0.630456	0.470736	0.524446	0.325407	9.64023	-2.39628	0.00991171	-0.267744	0.01976	-0.00530819	-0.895508	0.658447	-0.143066	
35	-0.512114	0.517447	0.441253	0.524675	9.83267	-0.691368	0.618883	0.0120661	-0.0583219	-0.043665	-0.817139	0.47168	-0.0151367	-0.654882	0.337999	0.375368	0.562126	8.5129	-0.190157	4.97124	0.0134419	0.00728937	-0.0250267	-0.644043	0.308838	-0.42334	-0.792325	0.111568	0.30662	0.515517	6.44423	1.91053	8.66885	0.0310359	-0.0480591	-0.0314688	-0.535156	0.131836	-0.898926	-0.0843858	-0.221002	0.0520284	0.970222	-4.25786	1.27269	8.89563	0.03249	0.0520976	-0.0355313	0.0537109	-0.0390625	-1.01001	-0.552245	0.246465	0.232926	0.761594	6.18149	0.886744	7.71658	0.00708821	0.00919232	-0.0597205	-0.672852	0.300781	-0.654785	-0.991676	-0.093132	-0.0706634	-0.0539543	-2.35112	2.43512	12.8495	-0.00270707	-0.0146746	0.0280931	0.64917	-0.223633	-0.80249	-0.393339	0.583497	0.562541	0.434008	8.97208	0.253607	-2.98246	0.0441764	0.0656918	-0.0224667	-0.869873	0.365723	0.320312	-0.914316	0.15272	0.251776	0.278051	6.01753	-1.40066	8.83652	0.129216	-0.0203147	-0.0340256	-0.271484	0.337646	-0.955566	-0.0748419	0.1021	0.988482	0.0829259	1.62204	1.42627	-8.89937	0.0114336	-0.000863805	-0.0536043	-0.560059	-0.0983887	0.93042	-0.486057	0.564181	0.533128	0.401525	9.40594	-1.4303	-1.75653	-0.00826034	0.0379675	-0.0223332	-0.87085	0.517822	0.224609	-0.628836	0.472851	0.523219	0.327444	9.45796	-2.76521	-0.0731081	-0.0795097	0.0184875	-0.0101841	-0.898193	0.669434	-0.143066	
36	-0.512182	0.516572	0.442703	0.524249	9.67014	-0.551211	0.636966	0.0711563	-0.0142991	-0.0331423	-0.816895	0.469482	-0.0192871	-0.655205	0.337692	0.375945	0.561548	8.45171	-0.000640475	4.91618	0.0234411	0.00436758	-0.00379144	-0.637695	0.315186	-0.428223	-0.791533	0.113139	0.305151	0.51726	6.27864	1.49428	8.41756	-0.113843	0.0390243	-0.0469582	-0.539551	0.138428	-0.906006	-0.0832143	-0.22107	0.0508245	0.970371	-4.05937	1.08875	8.90322	-0.0605857	-0.00274763	-0.0598584	0.0537109	-0.0390625	-1.00781	-0.552698	0.243283	0.234586	0.761779	6.02629	0.808489	7.48415	0.141428	0.0902295	-0.0441844	-0.675049	0.296387	-0.664062	-0.991496	-0.0947301	-0.070221	-0.0550563	-2.42894	2.52021	12.7021	0.085917	0.00513322	0.0318553	0.646973	-0.223633	-0.806885	-0.394395	0.58256	0.562804	0.433969	8.93112	0.390526	-2.81586	0.0559879	0.0518526	-0.0249498	-0.871826	0.361328	0.316162	-0.914485	0.151153	0.252212	0.277954	5.87284	-1.0471	9.09761	0.0149912	0.0296732	-0.0379993	-0.27124	0.32666	-0.952881	-0.0747489	0.102156	0.988454	0.0832812	1.94812	1.42122	-8.83716	-0.0422842	0.00966754	-0.00458707	-0.564697	-0.10083	0.932617	-0.486523	0.563427	0.533836	0.401079	9.33919	-1.16245	-1.93611	0.0569901	0.00771938	-0.00873214	-0.882324	0.52002	0.215332	-0.62886	0.472993	0.523014	0.32752	9.47599	-2.46795	-0.109257	-0.0050289	0.00900717	0.00446823	-0.897949	0.665039	-0.138428	
37	-0.512719	0.515389	0.4441	0.523706	9.932	-0.373552	0.68492	0.0701291	-0.00842685	-0.0264873	-0.818848	0.465088	-0.0214844	-0.655309	0.337713	0.3758	0.561511	8.59189	0.0511606	5.05819	-0.0117945	0.0232816	-0.00772593	-0.64209	0.312988	-0.428223	-0.791437	0.112573	0.30377	0.518342	6.24681	1.40294	8.34437	0.014248	0.065311	-0.0275608	-0.528809	0.138184	-0.896729	-0.0824902	-0.220625	0.0490342	0.970627	-3.93617	1.12401	8.71025	-0.0541245	-0.00508161	-0.0337488	0.0512695	-0.0371094	-1.00781	-0.553124	0.241872	0.233434	0.762273	5.99442	0.914877	7.44771	-0.0637867	0.0753433	0.0023334	-0.67041	0.294189	-0.659424	-0.991246	-0.0967148	-0.0705477	-0.055683	-2.48855	2.54195	12.6341	0.0706814	0.0356477	0.00419005	0.649414	-0.230225	-0.808838	-0.395086	0.581766	0.562962	0.434199	9.23943	0.449627	-2.7654	0.0307876	0.0361045	-0.025888	-0.867676	0.363525	0.318115	-0.91432	0.152171	0.251267	0.278797	5.96313	-1.47322	8.89425	-0.070884	0.0398515	-0.0159055	-0.271729	0.339844	-0.953125	-0.0750231	0.10232	0.988417	0.0832704	1.52989	1.22346	-8.87527	0.0307529	0.0153695	-0.0151941	-0.566895	-0.103027	0.928223	-0.486926	0.563152	0.534086	0.400644	9.54824	-1.01693	-1.71525	-0.00701708	0.00174737	0.0119709	-0.880127	0.522217	0.222168	-0.628155	0.474341	0.521965	0.328593	9.76476	-2.61054	-0.112954	-0.0859294	0.0308027	0.000938994	-0.893799	0.669434	-0.13623	
38	-0.512978	0.515025	0.444289	0.52365	10.1649	-0.333217	0.751161	0.0365032	0.0111887	-0.00885407	-0.821289	0.469482	-0.0236816	-0.655461	0.337783	0.374776	0.561975	8.7082	0.0721372	5.21502	-0.0336785	0.0411174	-0.00310351	-0.637695	0.311035	-0.425781	-0.7916	0.111904	0.303703	0.518277	6.31538	1.47506	8.40559	0.0475763	0.0407283	-0.00297757	-0.528809	0.135986	-0.901367	-0.0824644	-0.220458	0.0486582	0.970686	-4.00244	1.17442	8.74526	-0.0285116	-0.00489197	-0.00722296	0.0466309	-0.0324707	-1.0188	-0.553077	0.242612	0.231932	0.762531	6.08561	0.781946	7.53665	-0.130118	0.0330506	0.0160701	-0.666016	0.294189	-0.66626	-0.991161	-0.0970244	-0.0715033	-0.0554315	-2.46477	2.47115	12.7723	-0.000435216	0.0529371	-0.0362519	0.64917	-0.221436	-0.79834	-0.394954	0.581891	0.562947	0.434171	9.33873	0.424685	-2.97464	0.00731771	-0.00065132	-0.0142319	-0.871826	0.361328	0.313965	-0.914322	0.152629	0.251241	0.278564	5.99946	-1.69367	8.91494	-0.0247125	0.00562238	0.0108843	-0.275635	0.331055	-0.952881	-0.0748835	0.102013	0.988474	0.0830992	1.30408	1.29521	-8.89809	0.0200344	-0.00553686	-0.0412675	-0.56665	-0.105225	0.928223	-0.486404	0.563654	0.533807	0.400942	9.67537	-1.06984	-1.87916	-0.0632856	-0.00219423	0.00834796	-0.875488	0.517822	0.224609	-0.628148	0.474399	0.521659	0.32901	9.74252	-2.43512	-0.120762	-0.0244108	0.0368755	-0.0124735	-0.897949	0.665039	-0.138428	
39	-0.513801	0.514265	0.443103	0.524595	10.0877	-0.520218	0.837491	-0.0193051	0.0906589	0.00814368	-0.821289	0.469482	-0.0236816	-0.655471	0.338496	0.373994	0.562056	8.59494	-0.105207	5.11217	-0.049764	0.0060786	0.000850694	-0.635498	0.311035	-0.42334	-0.792064	0.111611	0.303999	0.517458	6.30344	1.67758	8.6138	0.00905949	-0.00336324	0.0434315	-0.528809	0.133789	-0.901367	-0.082461	-0.220091	0.049543	0.970724	-4.02837	1.19486	8.83053	0.0548972	-0.0153121	0.0128263	0.046875	-0.0349121	-1.01001	-0.553031	0.244815	0.230675	0.762241	6.06294	0.694162	7.74555	-0.0517597	-0.0518002	0.025311	-0.670654	0.298584	-0.659424	-0.991208	-0.0962173	-0.0720423	-0.0553034	-2.40693	2.53331	12.8071	-0.0563998	0.0589076	-0.0341425	0.651611	-0.228027	-0.800293	-0.394587	0.582382	0.56298	0.433803	9.25722	0.289085	-3.11117	0.00356003	-0.0126327	-0.00335042	-0.872314	0.370117	0.315918	-0.91433	0.151815	0.25306	0.277333	6.0795	-1.34197	9.15693	0.0876725	-0.061102	0.00879092	-0.273438	0.328857	-0.950684	-0.0739137	0.101286	0.988692	0.0822596	1.68491	1.47707	-9.00033	0.0424807	-0.0390676	-0.0488268	-0.55542	-0.0983887	0.93042	-0.485707	0.564036	0.533527	0.401623	9.54358	-1.22959	-1.81809	-0.0262249	0.0226616	-0.0132385	-0.882324	0.52002	0.219971	-0.627205	0.475526	0.520634	0.3308	9.65289	-2.30124	-0.106428	-0.138834	0.0358576	-0.0222616	-0.893555	0.662842	-0.13623	
40	-0.51502	0.513047	0.441258	0.526145	9.65807	-0.742675	0.95626	-0.00615286	0.112691	0.00295644	-0.821289	0.469727	-0.0344238	-0.655087	0.339832	0.373739	0.561867	8.63927	-0.158607	5.00272	-0.0712555	-0.00653807	0.00244129	-0.635742	0.31958	-0.428467	-0.792519	0.113622	0.302918	0.516956	6.34357	1.61511	8.47475	-0.0971199	0.00271973	0.0578052	-0.526855	0.142578	-0.903809	-0.082728	-0.21844	0.0504199	0.971029	-4.14962	1.18194	8.84322	-0.00041483	-0.0431048	0.0123749	0.0424805	-0.0393066	-1.01001	-0.553541	0.24545	0.231814	0.761321	6.18839	0.736353	7.80712	0.0621358	-0.0302002	0.0205195	-0.668457	0.296387	-0.657227	-0.991192	-0.0955433	-0.0730001	-0.0554975	-2.48678	2.57161	12.8742	0.00775026	0.0335917	-0.00210101	0.651611	-0.230225	-0.800293	-0.394589	0.582733	0.563274	0.432947	9.08479	0.394905	-2.95926	0.0461217	-0.0218295	-0.00510171	-0.865723	0.370117	0.315918	-0.914136	0.15241	0.253925	0.276855	6.17988	-1.19168	9.18203	-0.0467263	-0.00395532	-0.00210854	-0.275391	0.328857	-0.943604	-0.0732835	0.100639	0.98882	0.0820743	2.02142	1.47344	-9.20902	0.00927811	-0.00835892	-0.035388	-0.560059	-0.0961914	0.930176	-0.484706	0.564873	0.53284	0.402568	9.40753	-1.40141	-1.8109	-0.0454878	0.00560203	0.0212813	-0.882324	0.522217	0.226807	-0.626062	0.476808	0.519416	0.333028	9.52384	-2.71986	-0.0347387	-0.114859	0.0358718	-0.023361	-0.902588	0.665039	-0.138428	
41	-0.516458	0.511696	0.440481	0.526702	9.56024	-0.641818	1.0487	0.0403668	0.0627299	0.0206347	-0.819092	0.471924	-0.0366211	-0.654964	0.340782	0.374036	0.561237	8.68647	-0.0839647	4.87783	0.031649	-0.0192519	0.00905534	-0.637939	0.321777	-0.426025	-0.793029	0.115404	0.301389	0.516673	6.35049	1.37581	8.20202	-0.0518052	0.0372891	0.0384407	-0.528809	0.142578	-0.89917	-0.0828903	-0.217918	0.0502435	0.971142	-4.07454	1.22542	8.96026	-0.0188595	-0.0335259	0.0120526	0.0444336	-0.0349121	-1.01221	-0.554268	0.24508	0.232066	0.760834	6.23639	0.846808	7.70099	-0.000891037	0.0195066	0.0130319	-0.670654	0.298584	-0.657227	-0.991151	-0.0956381	-0.073269	-0.0557231	-2.56916	2.49583	12.8908	0.011765	0.0368932	0.000327715	0.653564	-0.223633	-0.800537	-0.393727	0.583609	0.563812	0.431852	9.11302	0.381371	-2.90448	0.0345974	-0.0657677	-0.00131387	-0.867676	0.363525	0.32251	-0.913924	0.153871	0.252869	0.277713	6.03987	-1.58379	9.05322	-0.0512833	0.0565251	-0.0336746	-0.276123	0.339844	-0.953125	-0.0736684	0.101061	0.988744	0.0821311	1.77167	1.40566	-8.96246	-0.00311928	0.0259817	0.00822494	-0.562256	-0.103027	0.932617	-0.484737	0.565009	0.532675	0.402556	9.42697	-1.32956	-1.88421	-0.0073536	0.0147353	0.0174152	-0.873535	0.524414	0.219727	-0.625599	0.477307	0.518726	0.334257	9.51623	-2.51164	-0.0162331	-0.0504021	0.0310002	-0.0106409	-0.900146	0.662842	-0.134033	
42	-0.51707	0.511393	0.44064	0.526263	9.51814	-0.600644	0.96983	0.0231126	-0.017273	0.00259353	-0.821533	0.473877	-0.0324707	-0.65527	0.340664	0.374289	0.560782	8.65704	-0.126297	4.92433	0.0121042	0.0132898	-0.00743802	-0.639893	0.313232	-0.421143	-0.793902	0.113939	0.30105	0.515855	6.31361	1.3353	8.19424	0.0962485	0.0483887	0.0344886	-0.522461	0.142334	-0.901611	-0.0832355	-0.218186	0.0501379	0.971058	-4.11432	1.40614	8.77517	0.0103583	0.0364745	0.0137584	0.0424805	-0.0371094	-1.00781	-0.554736	0.246155	0.230367	0.760662	6.23735	0.805502	7.59913	-0.0795531	0.0199591	0.0346248	-0.666504	0.305176	-0.661621	-0.991098	-0.0953543	-0.0740741	-0.0560866	-2.43765	2.4428	12.9476	-0.0211983	0.0552105	-0.00180647	0.653809	-0.228027	-0.804688	-0.393447	0.584419	0.564211	0.430488	9.12914	0.320803	-3.03247	0.0247954	-0.0262648	0.0108693	-0.865479	0.365723	0.32666	-0.914127	0.153268	0.252339	0.277861	5.86961	-1.45835	8.91817	0.018006	0.0374583	-0.0139502	-0.27124	0.331055	-0.950684	-0.074158	0.101616	0.988674	0.0818407	1.60933	1.2794	-8.7781	0.0271241	0.0184426	0.00439767	-0.5625	-0.0961914	0.930176	-0.485655	0.564522	0.532978	0.401733	9.41037	-1.22502	-1.67138	0.066139	0.0113406	0.0151758	-0.875732	0.524414	0.226562	-0.62629	0.476532	0.518942	0.333733	9.56572	-2.81546	0.0640579	0.123927	0.0116676	0.00262434	-0.900146	0.662842	-0.13623	
43	-0.516548	0.511948	0.441107	0.525845	9.71324	-0.636762	0.85106	-0.0117558	-0.0461994	-0.00495651	-0.817139	0.474121	-0.0344238	-0.655934	0.339878	0.374635	0.560252	8.66486	-0.0953907	4.97603	0.0336236	0.0296442	-0.0136098	-0.639893	0.315186	-0.423584	-0.794909	0.109567	0.302646	0.514316	6.22028	1.582	8.304	0.210651	0.0467088	0.00286831	-0.52002	0.131592	-0.905762	-0.0827109	-0.219689	0.0519733	0.970667	-4.02541	1.42681	8.76967	0.0870044	0.0682923	-0.014587	0.0515137	-0.043457	-1.00977	-0.555852	0.245474	0.229818	0.760233	6.35975	0.722122	7.58794	0.0514109	0.0511569	0.0302726	-0.664307	0.302979	-0.657227	-0.991043	-0.0948098	-0.0749269	-0.0568409	-2.48427	2.25616	12.8755	-0.00912165	0.050586	0.013098	0.658203	-0.230225	-0.800293	-0.393603	0.584825	0.564243	0.429751	9.11666	0.191475	-2.99787	0.0448825	-0.00861197	-0.00142162	-0.859131	0.365723	0.322266	-0.914263	0.153581	0.25208	0.277475	5.97802	-1.31972	8.90286	-0.0371559	0.0190128	0.00873338	-0.273926	0.342041	-0.950928	-0.0745596	0.101485	0.988675	0.0816338	1.66068	1.46322	-8.84225	-0.0120458	0.021405	-0.028646	-0.564697	-0.0983887	0.930176	-0.486307	0.56398	0.53371	0.400732	9.524	-1.0946	-1.53351	0.0584208	-0.00681206	0.00309625	-0.875732	0.524414	0.224365	-0.627877	0.474715	0.520257	0.331284	9.57398	-2.27272	0.0508703	0.0629197	-0.0186136	0.0204712	-0.900391	0.669434	-0.145508	
44	-0.515911	0.512407	0.441652	0.525564	9.96217	-0.665527	0.754159	-0.00219809	-0.0356657	-0.0105165	-0.816895	0.469727	-0.0302734	-0.656095	0.339534	0.374167	0.560585	8.79878	-0.180052	5.12626	-0.0136775	0.0399926	-0.020901	-0.633545	0.31958	-0.426025	-0.794952	0.108394	0.303174	0.514187	6.26766	1.73	8.51231	-0.010529	0.00259258	-0.0135958	-0.522217	0.131592	-0.903564	-0.082123	-0.221211	0.0515136	0.970396	-4.08578	1.38963	8.71825	-0.0283171	0.0662066	-0.0314798	0.0537109	-0.0412598	-1.01196	-0.556721	0.244485	0.229289	0.760076	6.21072	0.958144	7.6122	-0.024021	0.0522042	0.00258335	-0.664551	0.307373	-0.659424	-0.990897	-0.095274	-0.0757211	-0.0575557	-2.45813	2.27463	12.6974	0.046781	0.0451615	0.00680178	0.658203	-0.230225	-0.80249	-0.393776	0.5847	0.564595	0.429301	9.15154	0.252428	-2.96292	0.0606252	-0.00975677	-0.0186517	-0.865479	0.365723	0.32666	-0.914442	0.153785	0.252014	0.276831	6.12561	-1.5492	8.89814	0.0322597	0.0123513	0.0193762	-0.275879	0.337646	-0.953125	-0.0744874	0.100468	0.98879	0.0815564	1.40231	1.28506	-8.94705	0.0325178	-0.00290297	-0.0606086	-0.564453	-0.105225	0.928223	-0.486126	0.56398	0.534103	0.400428	9.51177	-1.005	-1.84668	-0.00406183	-0.0181173	-0.000631573	-0.88208	0.515625	0.224609	-0.628707	0.473781	0.521306	0.329392	9.68693	-2.3376	-0.085305	0.0721784	-0.0180094	0.0124253	-0.893555	0.667236	-0.138428	
45	-0.515851	0.512415	0.441897	0.52541	10.0531	-0.654642	0.772592	0.0100731	-0.0022956	-0.00293133	-0.823486	0.467285	-0.0302734	-0.656321	0.339004	0.373658	0.56098	8.6987	-0.0830165	5.22415	-0.00829255	0.0510764	-0.0251172	-0.640137	0.31958	-0.428467	-0.794405	0.109526	0.303372	0.514675	6.38611	1.45383	8.54242	-0.0223224	-0.0324886	-0.00404928	-0.528809	0.133789	-0.905762	-0.0817178	-0.221932	0.0508668	0.970299	-4.05869	1.15825	8.83462	0.00314319	0.0265151	-0.0190587	0.0534668	-0.034668	-1.01001	-0.55657	0.244851	0.228522	0.7603	6.17386	0.78789	7.64059	-0.0701814	0.0208938	-0.0103026	-0.666748	0.30957	-0.659424	-0.990769	-0.0962677	-0.0760492	-0.0576693	-2.46611	2.49155	12.7964	0.0151983	0.0203306	-0.0122552	0.651855	-0.234375	-0.797852	-0.393627	0.584207	0.565473	0.428952	9.12963	0.433918	-3.13692	0.00413511	-0.00609719	-0.0339313	-0.865723	0.372314	0.324219	-0.914829	0.152542	0.253233	0.27512	6.25385	-1.38612	8.97757	0.0746479	-0.0255476	0.027064	-0.275879	0.335449	-0.948486	-0.0743795	0.0998981	0.988892	0.0811264	1.4898	1.35843	-8.96271	0.0431567	-0.00355349	-0.061119	-0.560059	-0.100586	0.93042	-0.486077	0.563801	0.534493	0.40022	9.51919	-1.03044	-1.87889	0.016884	0.0159886	-0.00873623	-0.875488	0.52002	0.219971	-0.628474	0.474161	0.521067	0.329667	9.68188	-2.3579	-0.0487336	-0.0415053	0.0101477	-0.00023781	-0.898193	0.667236	-0.140869	
46	-0.516035	0.512038	0.441818	0.525663	10.0135	-0.700462	0.78308	0.0120368	0.0328348	-0.0138916	-0.819092	0.467529	-0.0366211	-0.656257	0.339028	0.373379	0.561226	8.58789	-0.0698884	5.06367	-0.0306114	0.0328414	-0.0260671	-0.637939	0.317383	-0.428223	-0.794403	0.109772	0.303572	0.514508	6.36609	1.53321	8.59348	0.00132743	-0.0187986	0.0166967	-0.528809	0.133789	-0.905762	-0.0815549	-0.221663	0.0512188	0.970356	-4.12163	1.18283	8.87473	0.0168605	-0.014281	0.00388457	0.0537109	-0.0390625	-1.01221	-0.556231	0.245238	0.228675	0.760377	6.04247	0.659297	7.71025	0.022807	-0.0174642	-0.0261804	-0.664551	0.307373	-0.657227	-0.990777	-0.096107	-0.076113	-0.0577197	-2.46567	2.58168	12.7602	-0.00854083	0.0206702	-0.0140775	0.649658	-0.232178	-0.802246	-0.393101	0.584446	0.565666	0.428855	9.03708	0.376264	-3.08075	-0.00514706	-0.0324229	-0.0301913	-0.865967	0.374268	0.328613	-0.914963	0.152255	0.253629	0.274471	6.1321	-1.26276	9.07113	0.0487738	-0.0108121	0.024045	-0.280029	0.333252	-0.953125	-0.0741055	0.0983804	0.989107	0.0805982	1.61447	1.50265	-9.04284	0.0205525	-0.00525565	-0.0762232	-0.560059	-0.0983887	0.932617	-0.48546	0.564193	0.534029	0.401035	9.59573	-1.06757	-1.85221	-0.0716061	0.0221838	0.000764202	-0.879883	0.517822	0.224609	-0.627521	0.475263	0.520316	0.331081	9.63588	-2.5107	-0.00461288	-0.084742	0.0259403	-0.0218663	-0.898193	0.667236	-0.13623	
47	-0.516478	0.510401	0.441899	0.526751	9.8672	-0.678352	0.927019	0.031193	0.0626516	-0.0545956	-0.821289	0.469727	-0.0366211	-0.656223	0.339181	0.373324	0.56121	8.66717	-0.0403321	5.1072	-0.015408	0.0127462	-0.014506	-0.639893	0.312988	-0.43042	-0.794642	0.110607	0.303328	0.514103	6.35449	1.61437	8.4601	-0.0296219	-0.00270447	0.0348593	-0.528809	0.133789	-0.908203	-0.0815549	-0.221663	0.0512188	0.970356	-4.12163	1.18283	8.87473	0.0168605	-0.014281	0.00388457	0.0537109	-0.0390625	-1.01221	-0.556328	0.245374	0.229261	0.760086	6.17293	0.752096	7.68391	0.00781294	-0.0100606	0.00270773	-0.662354	0.30957	-0.657227	-0.990796	-0.0959633	-0.0763625	-0.0573029	-2.56166	2.58418	12.7949	-0.00158747	0.0160978	-0.0262153	0.658203	-0.232178	-0.793701	-0.391918	0.585049	0.566109	0.428531	9.1572	0.311924	-3.17206	0.00509366	-0.0320421	-0.0297799	-0.861328	0.370117	0.328613	-0.914945	0.152686	0.254015	0.273931	6.08098	-1.33637	9.11392	-0.000426207	-0.000965882	-0.00271668	-0.280029	0.333252	-0.948242	-0.0737123	0.0975465	0.989181	0.0810697	1.755	1.64783	-9.02496	-0.037328	-0.00455574	-0.043627	-0.562256	-0.103027	0.928223	-0.484974	0.564632	0.53346	0.401759	9.54845	-1.1024	-1.85282	-0.0863518	0.0317281	0.00367993	-0.880127	0.524414	0.229004	-0.625106	0.478026	0.518378	0.334689	9.69458	-2.62689	0.151847	-0.251115	0.0345793	-0.0308863	-0.900391	0.665039	-0.134033	
48	-0.516924	0.508193	0.442772	0.527715	9.7056	-0.594261	1.00233	0.0651952	0.0519884	-0.0716754	-0.823242	0.467529	-0.045166	-0.655849	0.34046	0.372347	0.561522	8.63614	-0.0454067	4.97549	-0.0806523	0.00502471	0.00254191	-0.637939	0.31958	-0.423584	-0.794965	0.111323	0.303388	0.513414	6.44704	1.57172	8.34797	-0.00251279	-0.013477	0.0376843	-0.528809	0.133789	-0.9104	-0.0823408	-0.221066	0.0523471	0.970366	-4.16593	1.33891	8.83706	0.0440131	-0.00500372	0.0322218	0.0539551	-0.0437012	-1.00317	-0.556243	0.24709	0.228566	0.759801	6.20841	0.814458	7.62417	-0.089772	-0.0417212	0.0139178	-0.671143	0.30957	-0.657227	-0.990861	-0.0949029	-0.0772217	-0.0567839	-2.5382	2.42552	12.8654	-0.0517715	0.0563333	-0.0468564	0.654053	-0.234375	-0.795898	-0.390502	0.585876	0.566754	0.427842	9.11358	0.264121	-3.20484	-0.00113353	-0.0753587	-0.0232055	-0.856934	0.365723	0.337158	-0.914777	0.153411	0.253448	0.274613	6.19643	-1.77958	9.08521	-0.0250822	0.041102	-0.0375489	-0.278076	0.337646	-0.953125	-0.0737038	0.0969605	0.98913	0.0823941	1.88631	1.51372	-8.90771	-0.0412	0.0143948	-0.0445089	-0.564453	-0.103027	0.932617	-0.484892	0.564966	0.532138	0.40314	9.30585	-1.68946	-1.86816	-0.0204106	0.0707421	0.0166415	-0.880127	0.522217	0.219971	-0.623174	0.480501	0.516527	0.337599	9.33446	-2.76027	-0.318313	-0.12103	0.0102142	-0.0161121	-0.900391	0.665039	-0.129395	
49	-0.517332	0.506124	0.444255	0.528056	9.39455	-0.556363	0.948278	0.076388	0.0253558	-0.0660647	-0.825195	0.45874	-0.045166	-0.655393	0.341969	0.372186	0.561244	8.56281	-0.184766	4.80307	-0.0401534	-0.0248775	0.00344421	-0.637939	0.321777	-0.423828	-0.795154	0.112524	0.302696	0.513268	6.36097	1.50419	8.15798	-0.0644923	0.0199928	0.0218255	-0.522461	0.138184	-0.89917	-0.0825149	-0.221039	0.0531202	0.970315	-4.14677	1.38603	8.77184	0.058521	0.000942646	0.0288229	0.0495605	-0.0456543	-1.01416	-0.556256	0.249181	0.227466	0.759439	6.2314	0.599839	7.59205	-0.0465804	-0.0237282	0.0271877	-0.671387	0.316162	-0.654785	-0.990941	-0.0933203	-0.0782975	-0.0565398	-2.50666	2.26975	12.7918	-0.0493377	0.058607	-0.0264821	0.664307	-0.22583	-0.796143	-0.39096	0.586147	0.566937	0.426807	8.83601	0.202748	-3.0739	0.0716096	0.017939	0.0147419	-0.863525	0.36792	0.333008	-0.91519	0.150723	0.253496	0.274682	5.69366	-1.24831	8.99266	0.14629	0.0521738	-0.0483213	-0.27124	0.328857	-0.955322	-0.0741567	0.0972531	0.988949	0.083806	1.85469	1.1186	-8.74636	-0.0144403	0.0324081	0.0110732	-0.55957	-0.112061	0.928223	-0.486067	0.563781	0.532521	0.402879	9.05909	-1.33612	-1.76071	0.0764084	0.0212483	-0.00668763	-0.875488	0.522217	0.219971	-0.623098	0.480428	0.51693	0.337225	9.30614	-2.71339	-0.298786	0.0122355	-0.0111063	0.00164582	-0.902344	0.662842	-0.127197	
50	-0.516453	0.505401	0.447069	0.527233	9.61189	-0.429548	0.829132	0.0700269	-0.107038	-0.0726772	-0.822754	0.454346	-0.0407715	-0.655675	0.34223	0.371936	0.560921	8.73095	-0.20437	4.98663	-0.00524562	0.0277247	0.00645429	-0.63623	0.328369	-0.42627	-0.795046	0.113541	0.301145	0.514123	6.31675	1.20619	8.17265	-0.054869	0.0327738	-0.0141082	-0.526611	0.140381	-0.901367	-0.083202	-0.220929	0.0518535	0.97035	-4.04371	1.53471	8.5741	-0.0758236	0.0128921	0.00706172	0.0517578	-0.0456543	-1.00977	-0.55737	0.248461	0.227385	0.758882	6.27979	0.861435	7.51505	0.0366825	0.0508287	0.0284024	-0.662598	0.313965	-0.659424	-0.990769	-0.0944068	-0.0790759	-0.0566728	-2.48482	2.25447	12.7894	0.0782418	0.0372416	-0.00832564	0.664551	-0.228027	-0.793945	-0.39195	0.586189	0.566971	0.425795	9.08915	0.452729	-2.86476	0.0321035	0.0122228	0.0154598	-0.863525	0.370117	0.333008	-0.915335	0.150327	0.252828	0.275032	5.85669	-1.01383	8.74771	-0.0599848	0.0567969	-0.0116814	-0.269043	0.331055	-0.948242	-0.0749501	0.0981025	0.98889	0.0828	1.44511	1.31508	-8.83547	0.0686176	0.0214445	0.0146728	-0.566895	-0.103027	0.928223	-0.486695	0.563236	0.533448	0.401655	9.60202	-0.83713	-1.78441	0.0474297	-0.014005	0.00223961	-0.882568	0.528809	0.219727	-0.624779	0.478007	0.518449	0.335219	9.65234	-1.94593	-0.0180108	0.133562	0.00444013	-0.0112933	-0.902832	0.671631	-0.13623	
51	-0.515379	0.505517	0.449586	0.526031	10.1754	-0.390447	0.76479	0.0444377	-0.0817988	-0.0375047	-0.824951	0.454346	-0.0385742	-0.656054	0.342078	0.371642	0.560765	8.79063	-0.158067	5.11135	0.00175423	0.043647	0.00956892	-0.635986	0.323975	-0.421387	-0.795089	0.112986	0.301402	0.514028	6.32587	1.19199	8.27836	0.0530369	0.0121392	-0.00601779	-0.528809	0.142578	-0.901611	-0.083653	-0.221233	0.050884	0.970293	-4.01908	1.29351	8.70246	-0.0133656	0.0279787	0.0101686	0.0534668	-0.0371094	-0.999023	-0.557226	0.249159	0.226062	0.759154	6.27461	0.668645	7.52926	-0.0921861	-0.00361895	-0.0139111	-0.669189	0.318359	-0.652588	-0.990652	-0.0952092	-0.0795572	-0.056697	-2.63705	2.32521	12.7446	0.0145955	0.0303113	-0.0150771	0.664307	-0.223633	-0.791992	-0.39129	0.587118	0.566726	0.425449	9.23673	0.192001	-3.28411	-0.0166893	-0.0409217	0.0015593	-0.86377	0.374268	0.339111	-0.914885	0.153175	0.252369	0.275379	6.08596	-1.75204	8.86029	-0.0979008	-0.0288559	-0.011504	-0.273926	0.339844	-0.953125	-0.0749409	0.0981013	0.988934	0.0822745	1.19286	1.52382	-8.68084	0.0468412	-9.42758e-05	-0.0134145	-0.562256	-0.102783	0.925781	-0.486205	0.563701	0.53313	0.402018	9.61802	-1.02678	-1.62984	-0.0564661	0.0147298	-0.00194601	-0.875732	0.524414	0.222168	-0.624255	0.478733	0.518047	0.335779	9.54714	-2.38686	0.054508	-0.0867135	0.00697505	-0.00155078	-0.902588	0.667236	-0.129395	
52	-0.515262	0.505299	0.450169	0.525858	9.86526	-0.474825	0.765203	0.00790163	-0.0045718	-0.0117302	-0.824951	0.454346	-0.0366211	-0.655699	0.342673	0.370133	0.561815	8.69164	-0.230078	5.13526	-0.0490948	0.0284508	-0.0101627	-0.635742	0.31958	-0.421387	-0.794784	0.113176	0.303525	0.513207	6.28142	1.68031	8.65534	-0.0552606	-0.0633051	0.0110808	-0.526611	0.140381	-0.901367	-0.0835654	-0.22169	0.0517653	0.97015	-4.14115	1.2141	8.85447	0.0469568	0.0136526	0.00152274	0.0490723	-0.0371094	-1.00562	-0.556541	0.250564	0.225932	0.759233	6.24538	0.453658	7.66224	-0.0101791	-0.0461801	-0.0242926	-0.664795	0.313965	-0.650391	-0.990717	-0.0944594	-0.0799053	-0.0563295	-2.58198	2.46064	12.757	-0.031229	0.0289794	-0.0381733	0.660156	-0.228027	-0.796143	-0.391228	0.587417	0.566565	0.425307	9.13393	0.16204	-3.23787	0.0236099	0.0249924	-0.00880543	-0.857178	0.374512	0.337158	-0.914859	0.151526	0.254403	0.274505	6.09364	-1.38565	9.04128	0.136886	-0.0446587	-0.00901607	-0.275879	0.335449	-0.953125	-0.073592	0.0969081	0.989154	0.082259	1.61672	1.4232	-9.12445	0.0633018	-0.040209	-0.042506	-0.55957	-0.107422	0.93042	-0.484808	0.564081	0.533286	0.402965	9.49412	-1.30742	-1.95868	-0.0391631	-0.0159464	-0.0417058	-0.88208	0.515625	0.219971	-0.624189	0.478569	0.51821	0.335884	9.62458	-2.54261	-0.0724787	0.045731	0.00959101	-0.0111561	-0.897949	0.660645	-0.129395	
53	-0.515062	0.505248	0.450141	0.526127	9.76546	-0.534098	0.783586	-0.0104877	0.00376187	-0.0129069	-0.827148	0.454346	-0.0322266	-0.655551	0.34291	0.369658	0.562155	8.5514	-0.292145	5.05909	-0.0346754	0.0315891	-0.0239369	-0.633789	0.323975	-0.421387	-0.794309	0.115564	0.302626	0.513941	6.31929	1.25213	8.44614	-0.0831331	-0.000397344	0.00320142	-0.529053	0.151123	-0.899414	-0.0829302	-0.221295	0.0527622	0.970241	-4.07163	1.27174	8.94518	0.0346487	-0.0186512	-0.0188246	0.0517578	-0.0456543	-1.01196	-0.556405	0.250527	0.226814	0.759081	6.22617	0.490839	7.7035	0.0548078	-0.0352157	-0.0324673	-0.671387	0.316162	-0.657227	-0.990828	-0.0935074	-0.0799317	-0.0559207	-2.64101	2.47991	12.8398	-0.0223117	0.0148174	-0.0360308	0.664307	-0.221436	-0.796143	-0.390832	0.587383	0.567256	0.424797	8.90425	0.487364	-3.04924	0.0224612	-0.0541154	-0.0370717	-0.85498	0.372314	0.337158	-0.914717	0.150142	0.255547	0.274673	6.27143	-1.03329	9.21169	0.0204353	0.010557	-0.059729	-0.275635	0.328857	-0.950684	-0.0730852	0.0974215	0.989165	0.0819756	2.08203	1.6489	-9.04407	-0.0203416	-0.00372429	0.0111438	-0.564209	-0.107422	0.928223	-0.4855	0.562941	0.534379	0.402276	9.42874	-1.25069	-1.78683	0.0986861	0.0220861	-0.0156293	-0.877686	0.52002	0.222168	-0.62521	0.477259	0.519159	0.33438	9.42486	-2.63861	0.0406315	0.126954	-0.0145223	0.00510972	-0.897949	0.665039	-0.138428	
54	-0.514944	0.505142	0.450066	0.526407	9.74162	-0.556129	0.816908	-0.00236927	0.000725482	-0.00756258	-0.829346	0.454346	-0.0388184	-0.655462	0.34295	0.369507	0.562334	8.61206	-0.0999415	4.86903	-0.0242254	0.0229802	-0.0265791	-0.635986	0.328369	-0.419189	-0.794417	0.115365	0.302392	0.513956	6.30347	1.24904	8.36073	0.00920806	0.0311015	0.00278515	-0.531006	0.146973	-0.899414	-0.082403	-0.220829	0.0524052	0.970411	-4.08048	1.34274	8.84445	-0.0120073	-0.00545882	-0.0218641	0.0446777	-0.0371094	-1.00781	-0.556124	0.250513	0.227692	0.75903	6.2335	0.713003	7.65375	-0.0121453	-0.0083702	-0.0299803	-0.671387	0.318359	-0.647949	-0.990814	-0.0937716	-0.0802679	-0.0552393	-2.74156	2.44722	12.836	0.0223708	0.0285813	-0.0467306	0.662354	-0.22583	-0.796143	-0.38948	0.588336	0.567251	0.424726	9.17883	0.362121	-3.23794	-0.0362653	-0.026693	-0.00916486	-0.854736	0.365723	0.341553	-0.914573	0.151447	0.253966	0.275901	5.96872	-1.38254	9.10063	-0.0909595	0.0680497	-0.0326096	-0.269287	0.335449	-0.953125	-0.0732647	0.0978228	0.989058	0.082631	1.93397	1.44635	-9.08505	-0.0477162	0.0223592	0.0127395	-0.562256	-0.103027	0.93042	-0.48573	0.562994	0.53426	0.402083	9.5038	-1.02049	-1.72251	-0.035835	-0.0031199	0.0278758	-0.884521	0.524414	0.217529	-0.625227	0.477431	0.519157	0.334106	9.4882	-2.47403	-0.023307	0.00637871	-0.00782045	0.0167246	-0.902344	0.660645	-0.133789	
55	-0.514773	0.505144	0.450205	0.526454	9.83702	-0.536118	0.817763	-0.0020326	-0.0133723	-0.0159923	-0.827148	0.454346	-0.0407715	-0.654961	0.343051	0.369157	0.563085	8.82825	-0.175864	5.08378	-0.0557181	0.0461013	-0.0485822	-0.635986	0.323975	-0.421387	-0.794592	0.113887	0.302305	0.514067	6.35828	1.47903	8.26842	0.0436513	0.0375766	-0.021284	-0.524414	0.138184	-0.901367	-0.0820148	-0.221426	0.052728	0.970291	-4.10328	1.41877	8.81009	0.0281415	0.0416652	-0.00823187	0.0539551	-0.0458984	-1.00317	-0.555498	0.251929	0.226444	0.759392	6.30828	0.562864	7.63304	-0.0822334	-0.0142572	-0.00583345	-0.671387	0.315918	-0.645752	-0.990849	-0.0932468	-0.0809436	-0.0545117	-2.61211	2.40934	12.888	-0.0208358	0.0445598	-0.0489725	0.664307	-0.221436	-0.796143	-0.389473	0.588311	0.567233	0.424792	9.20254	0.257918	-3.15596	0.0139829	0.0148674	-0.0193804	-0.856934	0.36792	0.341553	-0.914467	0.151782	0.253421	0.27657	5.98721	-1.57205	8.9329	-0.0470235	0.054693	-0.0539601	-0.275635	0.331055	-0.950684	-0.0739833	0.0986366	0.988942	0.0824073	1.59907	1.38097	-8.94396	0.0114556	0.0278179	0.0273413	-0.564453	-0.103027	0.934814	-0.485264	0.563637	0.533968	0.402132	9.56329	-1.26779	-1.85379	-0.0113085	0.007529	0.00541866	-0.880127	0.522217	0.219971	-0.62553	0.477179	0.519432	0.333472	9.64822	-2.35764	-0.0213349	0.0479201	-0.00323113	0.0026494	-0.900391	0.665039	-0.13623	
56	-0.514176	0.505021	0.450558	0.526853	9.93629	-0.390446	0.744981	-0.0141508	-0.00454063	-0.0281376	-0.82251	0.452148	-0.0407715	-0.654822	0.342632	0.369254	0.563438	8.63009	-0.232536	5.11687	0.0405007	0.012398	-0.030918	-0.640137	0.31958	-0.421387	-0.794495	0.112966	0.302748	0.51416	6.45175	1.39194	8.42448	0.0473094	0.00293909	-0.0193324	-0.526611	0.140381	-0.906006	-0.0818764	-0.221888	0.0528204	0.970192	-4.11604	1.4502	8.79577	0.0144826	0.0429707	-0.00918246	0.0493164	-0.043457	-1.01196	-0.555407	0.253226	0.225841	0.759207	6.21144	0.543002	7.68318	-0.0277987	-0.0186913	0.00358672	-0.673584	0.316162	-0.650391	-0.990856	-0.0929882	-0.0813712	-0.0541907	-2.57252	2.36304	12.8011	-0.0120114	0.0470359	-0.0462413	0.664307	-0.221436	-0.794189	-0.388723	0.589045	0.56683	0.424999	9.14568	0.306365	-3.08153	-0.0386291	-0.0145462	-0.00286602	-0.850586	0.370117	0.339355	-0.91453	0.150436	0.253591	0.276939	6.00183	-1.29437	8.96712	0.0465103	0.0157144	-0.038563	-0.277832	0.331055	-0.952881	-0.0741079	0.0994164	0.988823	0.0827885	1.51578	1.37524	-8.8632	-0.0221174	0.00580264	0.00137127	-0.564209	-0.107422	0.928223	-0.485264	0.563637	0.533968	0.402132	9.56329	-1.26779	-1.85379	-0.0113085	0.007529	0.00541866	-0.880127	0.522217	0.219971	-0.625344	0.477479	0.519469	0.333333	9.64437	-2.32096	-0.0701233	-0.0398544	-0.000630104	-0.000890303	-0.902832	0.669434	-0.13623	
57	-0.514031	0.504751	0.450179	0.527577	9.86715	-0.453335	0.745581	-0.0148398	0.0303505	-0.0198243	-0.831787	0.456543	-0.0344238	-0.654988	0.341716	0.369622	0.56356	8.65473	-0.201879	5.07265	0.0152259	0.0359853	-0.0374536	-0.635742	0.321777	-0.423828	-0.794304	0.112496	0.302887	0.514475	6.2877	1.58033	8.47978	-0.00686797	0.00365797	-0.0130658	-0.528809	0.138184	-0.901367	-0.0815361	-0.222541	0.0531085	0.970055	-4.09694	1.37879	8.70989	0.0179279	0.0259462	-0.0109589	0.0515137	-0.0415039	-1.00537	-0.5554	0.253294	0.226466	0.759003	6.28867	0.638767	7.70082	0.0270806	-0.00374552	-0.0140291	-0.671387	0.318115	-0.645752	-0.990876	-0.0927179	-0.0815598	-0.054002	-2.64374	2.38702	12.8105	-0.00468615	0.0120911	-0.0153073	0.66626	-0.221436	-0.796143	-0.388083	0.589552	0.566582	0.425212	9.06111	0.247154	-3.29476	-0.00750048	0.0165422	-0.0190688	-0.857178	0.370117	0.341309	-0.914326	0.150398	0.253938	0.277316	5.96236	-1.27776	9.03102	-0.00405399	0.00582689	-0.0309822	-0.273438	0.331055	-0.950684	-0.0738055	0.0995519	0.988864	0.082399	1.64758	1.35869	-8.87724	0.0398447	-0.0105015	-0.0123604	-0.562256	-0.103027	0.932617	-0.485472	0.563343	0.534039	0.402198	9.40121	-0.984223	-1.65945	-0.0305745	0.0058145	-0.000706258	-0.88208	0.517822	0.219971	-0.624965	0.477829	0.519415	0.333627	9.54896	-2.52457	-0.047935	-0.00424867	-0.000365754	-0.00846819	-0.895752	0.665039	-0.134033	
58	-0.514283	0.503967	0.449841	0.528369	9.8648	-0.448798	0.813506	0.00514894	0.0430978	-0.0167331	-0.829346	0.454346	-0.0344238	-0.655307	0.340731	0.369511	0.563858	8.62618	-0.14834	5.07078	0.0194198	0.0412012	-0.0228674	-0.633545	0.31958	-0.430664	-0.794222	0.112953	0.302494	0.514733	6.35075	1.49884	8.39724	-0.0476339	0.0120116	-0.00317957	-0.528809	0.140381	-0.89917	-0.0813403	-0.222669	0.0526594	0.970067	-4.10637	1.33268	8.78118	-0.0142626	0.00939451	-0.0114337	0.0559082	-0.0412598	-1.00537	-0.555319	0.253152	0.226332	0.75915	6.15884	0.66281	7.56929	-0.0187628	0.0174065	-0.0204889	-0.673828	0.324707	-0.645752	-0.990834	-0.0933351	-0.0813544	-0.0540169	-2.62254	2.41014	12.7152	0.0403674	0.00781578	-0.0158024	0.668701	-0.22583	-0.793945	-0.387728	0.58951	0.566548	0.425638	9.02488	0.313484	-3.1039	0.00935327	0.0113875	-0.0361601	-0.861328	0.36792	0.345703	-0.914152	0.150745	0.25424	0.277423	6.09101	-1.45666	9.04101	0.000358417	-0.00121903	-0.0189488	-0.275635	0.333252	-0.948242	-0.0733717	0.099567	0.988848	0.0829582	1.68041	1.23281	-9.0235	-0.024863	-0.00927195	-0.0281708	-0.564209	-0.107422	0.93042	-0.484715	0.563916	0.533692	0.40277	9.52302	-1.27364	-1.85402	-0.0345953	0.0197955	0.000230833	-0.884277	0.515625	0.217773	-0.624138	0.478741	0.518955	0.334581	9.55883	-2.57258	-0.117473	-0.0837642	0.00943863	-0.0120094	-0.900391	0.665039	-0.134033	
59	-0.514966	0.502719	0.449637	0.529066	9.89602	-0.419054	0.924815	0.0273985	0.0557756	-0.020835	-0.831543	0.452148	-0.0429688	-0.655733	0.34016	0.368797	0.564176	8.67369	-0.135809	5.18558	-0.00418711	0.0575597	-0.0123425	-0.635742	0.317383	-0.426025	-0.794264	0.113046	0.302487	0.514652	6.31065	1.47287	8.32579	0.0305851	-0.00139069	0.0106431	-0.526611	0.138184	-0.908203	-0.08155	-0.22279	0.0519139	0.970061	-4.03171	1.29587	8.78354	-0.0211389	0.0213958	0.00681199	0.0559082	-0.0390625	-1.01001	-0.555314	0.253953	0.225701	0.759073	6.17458	0.552047	7.45762	-0.0345565	-0.0140246	0.0110825	-0.671631	0.322754	-0.647949	-0.990789	-0.0936823	-0.0816996	-0.0537221	-2.60976	2.46083	12.7842	0.00277723	0.038403	-0.0339417	0.666504	-0.221436	-0.789795	-0.387258	0.589604	0.566854	0.42553	9.10716	0.17377	-3.21476	0.0143156	-0.00928114	-0.0213534	-0.856934	0.365723	0.345703	-0.914215	0.150334	0.254561	0.277144	5.99994	-1.42807	9.05362	0.0277021	0.0131237	-0.00926116	-0.277588	0.328857	-0.952881	-0.0731007	0.0995204	0.988908	0.0825348	1.64093	1.44169	-8.92845	0.0070284	-0.00385685	-0.0153569	-0.557617	-0.102783	0.932617	-0.484372	0.563938	0.534001	0.402742	9.51281	-1.2195	-1.97344	0.0093976	-0.00534146	-0.0156881	-0.884277	0.517822	0.226807	-0.623396	0.479233	0.518705	0.335645	9.68025	-2.45821	-0.180076	-0.0490573	0.0135971	-0.0305451	-0.893311	0.660645	-0.126953	
60	-0.515763	0.501222	0.449525	0.529805	9.75004	-0.402842	0.969164	0.0335582	0.0617792	-0.0262441	-0.828857	0.443604	-0.045166	-0.656702	0.3392	0.368233	0.563996	8.61519	-0.165886	5.07736	0.0343563	0.0628266	0.00442927	-0.635986	0.323975	-0.42627	-0.794501	0.112971	0.303841	0.513504	6.27918	1.3754	8.22108	0.0643976	-0.0523984	0.0454728	-0.533203	0.140381	-0.906006	-0.082394	-0.22404	0.0520074	0.969697	-4.05165	1.30503	8.67985	0.0123499	0.0721809	0.0395378	0.0583496	-0.0456543	-1.00757	-0.555324	0.254711	0.22528	0.758937	6.1815	0.676185	7.42223	-0.0566601	-0.0225603	0.0159461	-0.676025	0.324707	-0.645752	-0.990724	-0.093703	-0.0831164	-0.0526959	-2.65741	2.34924	12.6561	0.0156938	0.0744456	-0.0684792	0.668457	-0.217041	-0.790039	-0.387524	0.589292	0.567661	0.424642	9.04989	0.29608	-3.24791	0.0706043	-0.0152542	-0.0240536	-0.861084	0.365723	0.34375	-0.91402	0.150046	0.255003	0.277536	6.04553	-1.39907	9.07219	0.00285355	0.00770978	-0.0439309	-0.275391	0.32666	-0.952881	-0.0728133	0.0998417	0.988862	0.0829584	1.74519	1.40587	-8.96229	-0.0149988	-0.00604038	-0.00654396	-0.564453	-0.103027	0.93042	-0.484151	0.563658	0.534527	0.402701	9.44515	-1.31723	-1.78381	0.0124464	-0.00504929	-0.0195026	-0.879883	0.517822	0.222168	-0.622882	0.47937	0.51867	0.336458	9.44296	-2.64956	-0.100705	0.0297562	0.00631919	-0.0269397	-0.902588	0.667236	-0.134033	
61	-0.516428	0.499904	0.449682	0.530269	9.57063	-0.461833	1.00158	0.0383794	0.0324003	-0.0218336	-0.831055	0.445801	-0.0493164	-0.657888	0.337772	0.367886	0.563696	8.49195	-0.12519	4.96191	0.0467031	0.0621464	0.0091959	-0.638184	0.323975	-0.43335	-0.794642	0.112473	0.305276	0.512544	6.2508	1.60478	8.20483	0.0466776	-0.0230153	0.0101201	-0.533203	0.140381	-0.906006	-0.0832281	-0.225799	0.0524523	0.969194	-4.1874	1.34108	8.65684	0.017298	0.0763458	0.0349559	0.060791	-0.0478516	-1.00757	-0.5553	0.257162	0.22416	0.758461	6.1245	0.514932	7.46369	-0.0842395	-0.0507052	0.0370934	-0.66748	0.324707	-0.638916	-0.990726	-0.0922314	-0.0851912	-0.051942	-2.75156	2.31788	12.5191	-0.0691762	0.104768	-0.0518456	0.668213	-0.214844	-0.792236	-0.388161	0.58913	0.56812	0.423669	8.92387	0.324226	-3.16854	0.0613965	0.000245172	0.000259934	-0.863281	0.365723	0.34375	-0.913923	0.150023	0.255094	0.277784	5.96844	-1.39475	8.9723	0.0120193	0.014538	-0.0231183	-0.275391	0.32666	-0.952881	-0.0726837	0.0999828	0.988823	0.0833664	1.835	1.37209	-8.90145	-0.0291045	-0.0026918	-0.00867087	-0.557617	-0.100586	0.932617	-0.484621	0.562826	0.535371	0.402178	9.36094	-1.22433	-1.73533	0.054728	0.000918399	-0.0121914	-0.88208	0.517822	0.224609	-0.623167	0.478809	0.519237	0.335854	9.46375	-2.86299	0.00292172	0.0637898	-0.00751161	-0.00231459	-0.902344	0.662842	-0.131592	
62	-0.516888	0.498931	0.450561	0.52999	9.78027	-0.437887	0.952972	0.0579933	-0.0028955	-0.0217087	-0.831055	0.445801	-0.0515137	-0.658994	0.336637	0.367884	0.563084	8.54356	-0.238597	5.19541	0.0376792	0.0500771	0.00188532	-0.631348	0.31958	-0.433105	-0.794504	0.112319	0.305835	0.512457	6.23039	1.45891	8.11615	0.0385426	-0.0280076	-0.00705442	-0.532959	0.135986	-0.896729	-0.0841107	-0.228056	0.0523656	0.968594	-4.31067	1.45043	8.62103	0.00493763	0.108654	0.0393854	0.0627441	-0.0412598	-1.00977	-0.555399	0.260158	0.223971	0.757421	6.33112	0.310855	7.44412	-0.053962	-0.0897257	0.0436448	-0.67627	0.331299	-0.638916	-0.9907	-0.0907689	-0.0873763	-0.0513872	-2.74537	2.34695	12.8559	-0.0414554	0.100362	-0.055122	0.676758	-0.212646	-0.790039	-0.389089	0.588628	0.568334	0.42323	9.08438	0.280271	-3.20215	0.0617623	0.023767	-0.012652	-0.857178	0.374268	0.341309	-0.914237	0.148858	0.254971	0.277493	6.01256	-1.42384	9.04786	0.0602954	0.0293613	-0.00871524	-0.273193	0.324463	-0.948242	-0.0728254	0.100211	0.988785	0.0834196	1.74461	1.40356	-8.91631	0.0125828	0.0127983	-0.0122328	-0.566406	-0.112061	0.928223	-0.48537	0.562004	0.536227	0.401284	9.4231	-1.38657	-1.71119	0.0816292	0.00908251	-0.00107139	-0.884277	0.515625	0.222412	-0.624204	0.477524	0.52009	0.334435	9.50343	-2.72296	0.197351	0.188462	-0.0123475	0.00840783	-0.902344	0.660645	-0.129395	
63	-0.517407	0.497997	0.450926	0.530052	9.76262	-0.337663	0.945198	0.0271259	0.0255979	-0.0117973	-0.831299	0.447998	-0.0515137	-0.659903	0.335352	0.367432	0.563082	8.58851	-0.201824	5.19094	0.0321516	0.0615104	-0.0014449	-0.62915	0.317383	-0.442383	-0.794236	0.110629	0.308726	0.511506	6.58383	1.40168	8.28052	0.158724	-0.0622728	-0.00807921	-0.535156	0.129639	-0.898926	-0.084697	-0.22932	0.0525374	0.968235	-4.14491	1.40492	8.77546	0.0145917	0.112924	0.0466641	0.0629883	-0.0478516	-1.01196	-0.555603	0.262616	0.22436	0.756307	6.50537	0.729627	7.59493	-0.0405849	-0.0820853	0.0242931	-0.678711	0.335693	-0.638916	-0.990742	-0.0890589	-0.0891807	-0.0504552	-2.61998	2.31299	12.7849	-0.0614826	0.0744604	-0.0650048	0.676758	-0.212646	-0.783691	-0.389861	0.588051	0.569023	0.422395	8.9778	0.194857	-3.28539	0.0855465	0.000312779	-0.0256212	-0.861328	0.370117	0.334961	-0.914989	0.146611	0.254531	0.276612	6.23093	-1.31834	9.02063	0.106343	0.0762788	0.0099321	-0.270752	0.320312	-0.95752	-0.0732104	0.0999696	0.988725	0.0840739	1.82936	1.47474	-8.95412	-0.0258161	0.0310082	-0.0292441	-0.55957	-0.109619	0.928223	-0.487795	0.559668	0.538307	0.398813	9.49632	-1.37219	-1.86498	0.223534	0.00957492	-0.00901408	-0.877686	0.517822	0.217773	-0.628172	0.472635	0.523506	0.32857	9.5156	-2.56178	0.11551	0.411135	-0.0551199	0.032669	-0.899902	0.658447	-0.147461	
64	-0.517503	0.497782	0.450983	0.530111	9.77761	-0.367693	0.950758	0.0139105	0.00925719	-0.00984669	-0.833252	0.445801	-0.0537109	-0.660412	0.334715	0.367436	0.562862	8.58447	-0.267421	5.12753	0.0450577	0.0518097	-0.00310982	-0.626953	0.317383	-0.440186	-0.794117	0.108374	0.311699	0.510369	6.45819	1.66029	8.48437	0.134744	-0.0412901	-0.00468464	-0.534912	0.12085	-0.89624	-0.0859973	-0.23158	0.0530018	0.967557	-4.23319	1.39307	8.71708	0.0157692	0.0985986	0.0527939	0.0715332	-0.0412598	-1.01196	-0.554604	0.265076	0.223628	0.756399	6.5411	0.436303	7.62534	-0.0955034	-0.0427577	-0.0256901	-0.683105	0.337891	-0.63208	-0.990781	-0.0885097	-0.0895231	-0.0500494	-2.85552	2.25738	12.7774	-0.0353084	0.0406662	-0.0549501	0.680908	-0.206299	-0.781738	-0.390207	0.587415	0.56965	0.422115	9.13436	0.277476	-3.19678	0.0855003	0.0143617	-0.0542614	-0.85498	0.372314	0.339111	-0.915498	0.145386	0.253976	0.276086	6.13408	-1.25102	9.09206	0.0975233	0.0885315	0.0147824	-0.275146	0.320312	-0.955078	-0.0741945	0.0994921	0.98862	0.085012	1.69302	1.36018	-9.038	-0.0206147	0.0532483	-0.0432282	-0.561768	-0.112061	0.932617	-0.489734	0.557757	0.5398	0.397095	9.62246	-1.08893	-1.69516	0.284465	0.0211425	-0.0176741	-0.884277	0.515625	0.210938	-0.633552	0.465613	0.528576	0.320037	9.77812	-1.93567	-0.00236663	0.472949	-0.0860557	0.0377096	-0.895752	0.662842	-0.156738	
65	-0.517569	0.497595	0.451215	0.530026	9.93893	-0.355767	0.928315	0.0133917	-0.00558066	-0.00250237	-0.82666	0.443604	-0.0559082	-0.661425	0.333165	0.367678	0.562433	8.77586	-0.148966	5.29207	0.0600845	0.0555153	-0.010467	-0.626953	0.315186	-0.439941	-0.793498	0.108437	0.313043	0.510496	6.52946	1.664	8.50881	-0.00417655	-0.0504058	-0.0242749	-0.537109	0.123047	-0.891846	-0.0870076	-0.232511	0.0530356	0.967241	-4.37839	1.40792	8.89076	0.00419386	0.0401013	0.0344751	0.0759277	-0.0412598	-1.00977	-0.554123	0.265298	0.223875	0.756601	6.60135	0.500762	7.54497	0.0224932	-0.00026423	-0.032459	-0.674072	0.331299	-0.629883	-0.990842	-0.0884043	-0.0893592	-0.0493068	-2.87914	2.24143	12.9972	0.00271083	0.000352837	-0.0421813	0.678711	-0.206299	-0.783936	-0.39067	0.585749	0.570825	0.422414	9.34685	0.556771	-3.19535	0.0482733	0.0369113	-0.0792318	-0.852539	0.365723	0.341553	-0.916467	0.144105	0.252777	0.274637	6.13471	-1.15971	8.95756	0.0531962	0.0717862	0.052538	-0.268555	0.318115	-0.95752	-0.0751797	0.0979004	0.988753	0.0844499	1.35144	1.24326	-8.90216	0.0716217	0.0390503	-0.0845979	-0.564209	-0.107422	0.928223	-0.492651	0.554995	0.542178	0.394104	9.3624	-0.748896	-1.96694	0.19806	-0.00110665	-0.00222797	-0.875488	0.517822	0.206299	-0.635514	0.462898	0.530864	0.316277	9.78216	-2.4469	-0.315386	0.43181	-0.0968821	0.0356121	-0.897705	0.65625	-0.158936	
66	-0.517779	0.497513	0.451131	0.529968	9.80104	-0.296823	0.923517	0.000395144	0.00492964	0.00524573	-0.831299	0.450195	-0.0537109	-0.662097	0.331825	0.367422	0.562602	8.51846	0.0829133	5.28424	0.00815143	0.0672598	-0.02966	-0.624756	0.315186	-0.442383	-0.793276	0.107612	0.314122	0.510352	6.50191	1.80906	8.50349	0.0592012	0.00539907	-0.0127813	-0.539062	0.118896	-0.894043	-0.0868437	-0.233116	0.0529512	0.967115	-4.40039	1.37523	8.97235	-0.00184239	0.0278145	-0.0230744	0.0783691	-0.0456543	-1.00317	-0.553552	0.265834	0.223239	0.757018	6.35806	0.452947	7.59541	-0.0607279	0.00371071	-0.0237137	-0.678711	0.335693	-0.63208	-0.990831	-0.0885188	-0.0895903	-0.0488993	-2.75078	2.34707	12.9487	0.00877249	0.0333237	-0.0277553	0.678955	-0.212646	-0.787842	-0.390899	0.584552	0.570677	0.424057	8.76239	0.352851	-3.12828	-0.00128953	0.0691334	-0.0604021	-0.865479	0.365723	0.333008	-0.917008	0.14346	0.253258	0.272721	5.91246	-1.18817	8.86132	0.0558051	-0.0292042	0.0473673	-0.266357	0.318115	-0.959717	-0.075525	0.0961719	0.989033	0.0828276	1.25268	1.50206	-8.66397	0.0763389	0.0102664	-0.0824458	-0.56665	-0.107422	0.928223	-0.493444	0.554108	0.543385	0.392695	9.47246	-0.805647	-1.81312	0.0368399	0.00258262	0.00382621	-0.88208	0.517822	0.204102	-0.638152	0.458704	0.534664	0.310625	9.48358	-2.40697	0.0408859	-0.181942	-0.00400916	0.00563076	-0.899902	0.658447	-0.167969	
67	-0.517596	0.497567	0.450562	0.530581	9.89847	-0.336098	0.983004	-0.0350174	0.0205609	-0.0115693	-0.828857	0.443604	-0.0559082	-0.662164	0.331103	0.366789	0.563361	8.51538	-0.0454217	5.18295	-0.0126925	0.0499852	-0.040042	-0.622314	0.310791	-0.449219	-0.7931	0.107726	0.312749	0.511445	6.31341	1.83636	8.29416	-0.0648148	0.0527796	-0.0309502	-0.541504	0.123291	-0.898682	-0.0858734	-0.233238	0.0513113	0.967261	-4.43749	1.16172	8.62453	-0.0674751	0.00918538	-0.057718	0.0759277	-0.0412598	-1.00757	-0.553325	0.266336	0.222626	0.757188	6.2786	0.261466	7.56714	-0.0140421	0.00860186	-0.00773078	-0.680908	0.337891	-0.629883	-0.990645	-0.0895252	-0.0907907	-0.0486275	-2.8273	2.41319	12.6768	0.0685263	0.064895	-0.0273077	0.678955	-0.210449	-0.783691	-0.390598	0.584171	0.570893	0.42457	9.2469	0.51638	-3.26078	-0.0133308	0.0434006	-0.0351762	-0.871826	0.361328	0.337402	-0.917085	0.14354	0.253886	0.271834	5.97603	-1.08896	8.87702	0.0307421	-0.0397529	0.0450635	-0.266113	0.311523	-0.957275	-0.0748468	0.0941345	0.989321	0.0823505	1.54201	1.47333	-8.93851	0.0287186	-0.0266968	-0.102056	-0.562012	-0.107422	0.926025	-0.491667	0.555658	0.542064	0.394556	9.46622	-1.02045	-1.87948	-0.18224	-0.00158584	0.00592362	-0.884521	0.522217	0.213135	-0.635904	0.461703	0.533063	0.313528	9.64224	-2.32215	-0.219587	-0.199449	0.0203683	-0.0208116	-0.9021	0.65625	-0.16333	
68	-0.517277	0.497281	0.449953	0.531675	9.76215	-0.413196	0.994345	-0.0266985	0.0307575	-0.0227538	-0.833252	0.443604	-0.0581055	-0.662151	0.330411	0.36626	0.564125	8.53722	-0.000512622	5.49107	-0.0272248	0.0649945	-0.046352	-0.626953	0.312988	-0.44458	-0.792861	0.106774	0.312215	0.51234	6.40185	1.54607	8.09765	0.0549032	0.0370795	-0.0453365	-0.539307	0.121094	-0.900879	-0.0850033	-0.23351	0.0504952	0.967315	-4.28402	1.21101	8.68783	-0.00759538	0.0269766	-0.0313742	0.0803223	-0.0388184	-1.01001	-0.553579	0.266662	0.222776	0.756844	6.29407	0.633848	7.551	-0.017605	-0.0155908	0.00620723	-0.685303	0.335693	-0.63208	-0.990557	-0.0896488	-0.0918618	-0.0481812	-2.70713	2.49077	12.7843	-0.0116128	0.0555331	-0.0414486	0.680908	-0.206299	-0.783936	-0.390967	0.583561	0.569714	0.426646	8.97788	0.263373	-3.11782	-0.0262924	0.0785358	-0.0277555	-0.861084	0.363525	0.335205	-0.916794	0.145021	0.255077	0.270911	6.07345	-1.32772	9.11076	-0.00306489	-0.0332011	-0.0259771	-0.272949	0.318115	-0.955078	-0.0739372	0.0933337	0.989519	0.0816996	1.75604	1.66216	-8.91794	0.0132061	-0.0308704	-0.0275746	-0.56665	-0.107422	0.926025	-0.490409	0.556542	0.541528	0.395611	9.33445	-1.69479	-2.04161	-0.00371569	0.00831945	-0.00936678	-0.88208	0.517822	0.208496	-0.634936	0.463153	0.531945	0.315246	9.41632	-2.90173	-0.0720717	-0.0488804	0.0257958	-0.0067648	-0.899902	0.658447	-0.158936	
69	-0.517257	0.496675	0.449851	0.532348	9.80551	-0.357329	1.04404	0.00661236	0.0243764	-0.0256938	-0.826416	0.441406	-0.0559082	-0.662117	0.329802	0.365461	0.56504	8.46454	-0.0444229	5.13339	0.00201174	0.0468168	-0.0347641	-0.622559	0.312988	-0.44458	-0.792602	0.104368	0.31331	0.512568	6.34818	1.84186	8.26119	0.0937228	0.0173851	-0.044475	-0.54126	0.112305	-0.898438	-0.0847391	-0.234754	0.0500868	0.967058	-4.39925	1.32942	8.55448	-0.00576362	0.061036	-0.0146402	0.0844727	-0.0322266	-1.01001	-0.553044	0.26797	0.22119	0.757238	6.38792	0.327465	7.55423	-0.0855136	0.0106777	-0.00599949	-0.68335	0.340088	-0.627441	-0.990524	-0.0894145	-0.0928163	-0.0474537	-2.81986	2.31536	12.7128	0.0099118	0.0445707	-0.0477791	0.685059	-0.204102	-0.775391	-0.391752	0.583185	0.569045	0.427333	9.00886	0.458133	-3.11903	0.0130019	0.0635508	-0.00270499	-0.867432	0.361328	0.331055	-0.916608	0.144731	0.255513	0.271285	6.13283	-1.11741	9.29223	0.0115695	0.0228146	-0.0350652	-0.272949	0.318115	-0.95752	-0.0736574	0.0941559	0.989446	0.0818942	1.97253	1.47894	-9.08803	0.00454309	-0.000308382	0.0227918	-0.550293	-0.109619	0.93042	-0.491404	0.555296	0.542257	0.395127	9.47316	-1.03615	-1.73839	0.0603102	0.0366908	-0.0132646	-0.882324	0.522217	0.213135	-0.636161	0.461676	0.532389	0.314191	9.52402	-2.45249	0.0505049	0.0856158	0.0210888	0.00282285	-0.902588	0.665039	-0.161377	
70	-0.517274	0.496026	0.449858	0.532929	9.91403	-0.2453	1.05626	0.000562668	0.0236176	-0.0284928	-0.833252	0.443604	-0.0581055	-0.662	0.329614	0.36547	0.56528	8.49793	-0.147555	5.23516	-0.00776577	0.0254299	-0.0421434	-0.628906	0.312988	-0.442383	-0.792402	0.103493	0.313434	0.512979	6.53273	1.84662	8.19268	0.0530475	0.0323423	-0.0550486	-0.539062	0.112305	-0.905273	-0.0850116	-0.235679	0.0489093	0.966869	-4.31841	1.43488	8.74937	-0.0562909	0.0445804	0.00578819	0.0847168	-0.0366211	-1.00781	-0.553004	0.268343	0.220853	0.757233	6.36731	0.374931	7.51293	-0.0376512	-0.000916966	-0.000853565	-0.685547	0.344482	-0.625244	-0.990468	-0.0895491	-0.0935323	-0.0469583	-2.83339	2.17603	12.7706	0.0194721	0.0398227	-0.0356185	0.685303	-0.206299	-0.777344	-0.392579	0.582656	0.568112	0.428535	9.25058	0.458114	-3.23018	-0.00742119	0.0757241	-0.00323837	-0.869873	0.36792	0.322266	-0.916358	0.145667	0.254337	0.272731	6.03716	-1.3071	9.16971	-0.0596445	0.0634603	-0.0562475	-0.264648	0.324707	-0.959961	-0.0738298	0.0946498	0.98939	0.0818399	1.86748	1.56577	-9.06741	0.00828942	0.016769	0.0229682	-0.564453	-0.103027	0.928223	-0.491505	0.555629	0.54186	0.39508	9.56921	-1.12835	-1.63153	-0.0280599	0.0175053	0.0253405	-0.882324	0.52002	0.206299	-0.636561	0.461315	0.532554	0.313632	9.51725	-2.64538	0.0803166	0.0653461	0.00406711	0.0120875	-0.900146	0.660645	-0.158936	
71	-0.516866	0.495833	0.449539	0.533773	9.78361	-0.197926	1.07012	-0.0341122	0.00835041	-0.016571	-0.830811	0.441406	-0.0559082	-0.661964	0.329306	0.365643	0.56539	8.66625	-0.0538046	5.27464	0.0432627	-0.014674	-0.0126793	-0.626709	0.308594	-0.446777	-0.792446	0.100454	0.314676	0.512755	6.59554	1.74977	8.4395	0.130098	0.0257606	-0.0096961	-0.536865	0.105957	-0.909668	-0.0855707	-0.236259	0.0480268	0.966723	-4.38682	1.33503	8.76691	-0.0250063	0.0255356	0.0132265	0.0822754	-0.0324707	-1.00122	-0.552844	0.268988	0.220513	0.75722	6.42398	0.492327	7.43816	-0.0286096	-0.014988	-0.00622662	-0.681152	0.342285	-0.625244	-0.990416	-0.0893527	-0.0945592	-0.0463702	-2.92679	2.23167	12.7997	-0.0155098	0.054874	-0.0440299	0.685059	-0.201904	-0.781738	-0.393124	0.582757	0.566371	0.430201	9.26917	0.196646	-2.97371	-0.0222922	0.0714473	0.0132577	-0.870117	0.370117	0.326416	-0.916207	0.145464	0.253731	0.273907	6.03429	-1.47251	9.05682	0.0335577	0.0461635	-0.0559026	-0.273193	0.324463	-0.955322	-0.0742977	0.0957218	0.989208	0.0823739	1.55552	1.45071	-8.92929	-0.0291132	0.020727	0.0271849	-0.56665	-0.107422	0.928223	-0.491509	0.555882	0.541497	0.395215	9.54958	-1.30608	-1.91331	0.0164817	0.022582	0.00476564	-0.88208	0.517822	0.208496	-0.637135	0.460661	0.532996	0.312676	9.63128	-2.64825	-0.0859105	0.0541081	0.00064274	0.00248734	-0.897705	0.658447	-0.167969	
72	-0.516451	0.496081	0.449539	0.533945	9.70869	-0.307911	1.06316	-0.0320279	-0.0219718	-0.0172197	-0.833252	0.443604	-0.0559082	-0.662076	0.329077	0.365942	0.5652	8.6537	-0.114835	5.26197	0.0259335	0.00736461	-0.0175111	-0.626953	0.315186	-0.449463	-0.792606	0.0995351	0.314897	0.512552	6.41258	2.02942	8.47097	0.0777894	0.0312126	-0.00382458	-0.532471	0.105713	-0.900635	-0.0856849	-0.236332	0.0481338	0.966689	-4.39009	1.29179	8.71849	0.00878002	0.0128464	0.0117662	0.0866699	-0.0322266	-1.00781	-0.552617	0.2701	0.220546	0.756981	6.51085	0.315364	7.53054	-0.00946032	-0.0273194	-0.0024306	-0.681152	0.344482	-0.620605	-0.990416	-0.0893527	-0.0945592	-0.0463702	-2.92679	2.23167	12.7997	-0.0155098	0.054874	-0.0440299	0.685059	-0.201904	-0.781738	-0.393917	0.58243	0.565787	0.430686	9.20685	0.271203	-3.07181	0.0215148	0.0986005	0.00732279	-0.869873	0.365723	0.320312	-0.91615	0.145011	0.253966	0.27412	5.90487	-1.25936	9.08966	0.0379531	0.0110812	-0.0443502	-0.270996	0.324707	-0.959961	-0.0744497	0.0964285	0.989118	0.0824891	1.55902	1.29533	-8.87332	0.00688191	0.00506917	0.00264943	-0.566895	-0.103027	0.928223	-0.491861	0.555567	0.541543	0.395158	9.55207	-0.89861	-1.75425	0.0335678	0.032427	0.000620071	-0.882324	0.522217	0.213135	-0.636693	0.461105	0.532696	0.313432	9.74035	-2.31533	-0.0515741	-0.120692	0.0319615	-0.0207972	-0.897949	0.660645	-0.161133	
73	-0.515605	0.496389	0.45038	0.533767	9.77205	-0.267398	0.962613	0.0107601	-0.0483194	-0.0245387	-0.835205	0.439209	-0.0581055	-0.662641	0.32861	0.365732	0.564945	8.36881	-0.0212987	5.2104	0.0232535	0.034255	0.00400657	-0.622314	0.308594	-0.449219	-0.792765	0.100304	0.313803	0.512826	6.28428	1.94678	8.36863	-0.072576	0.0313293	0.00550363	-0.532471	0.10791	-0.900635	-0.085697	-0.236217	0.0479873	0.966724	-4.4707	1.31526	8.67538	-0.010321	-0.00204283	-0.000723169	0.0847168	-0.0368652	-1.00342	-0.552863	0.270511	0.220693	0.756612	6.41187	0.425253	7.5805	-0.0137406	-0.00258312	0.00344484	-0.681152	0.344482	-0.625244	-0.990323	-0.0891494	-0.0960071	-0.0457791	-2.89974	2.32522	12.7703	0.0302049	0.0474797	-0.0221511	0.685059	-0.199707	-0.777588	-0.395347	0.581724	0.564572	0.431922	8.99957	0.448769	-2.96608	-0.000407396	0.0952536	0.000584696	-0.869629	0.363525	0.315918	-0.915967	0.144862	0.254216	0.274577	5.94045	-1.20764	8.98332	0.00306875	0.0250728	-0.038038	-0.268799	0.32251	-0.95752	-0.074297	0.0966395	0.989145	0.0820531	1.68728	1.50048	-8.81087	0.00962193	-0.00426643	-0.00915646	-0.569092	-0.105225	0.921387	-0.491157	0.556378	0.540583	0.396204	9.38681	-1.23201	-1.64716	-0.0969672	0.0167291	0.0131455	-0.880127	0.522217	0.206299	-0.635723	0.462225	0.531809	0.315251	9.4478	-2.43549	-0.0867516	-0.0852572	0.0198469	-0.019924	-0.900146	0.660645	-0.158936	
74	-0.515755	0.496342	0.450994	0.533148	9.80069	-0.168922	0.965357	0.0302722	-0.0172554	0.00841156	-0.833252	0.443604	-0.0515137	-0.662518	0.328909	0.365529	0.565047	8.46711	-0.0616929	5.27599	-0.0261065	0.0109794	-0.0206226	-0.626953	0.317383	-0.449463	-0.792634	0.100739	0.312468	0.513758	6.27157	1.72774	8.13192	-0.0270305	0.0404251	-0.0263956	-0.532715	0.110107	-0.907471	-0.0846825	-0.235861	0.0470822	0.966945	-4.44048	1.24785	8.64347	-0.029724	0.00599164	-0.0371371	0.0844727	-0.0302734	-1.00122	-0.553255	0.270532	0.219826	0.75657	6.34454	0.35795	7.45099	-0.0166965	0.0348615	0.0104435	-0.681396	0.34668	-0.625244	-0.990191	-0.0897521	-0.0966822	-0.0460332	-2.85761	2.38753	12.7223	0.0340514	0.0426406	-0.00549197	0.689453	-0.206299	-0.777344	-0.396616	0.581351	0.563574	0.432562	9.13016	0.259792	-2.91857	0.028842	0.0702562	0.0112299	-0.869873	0.36792	0.315918	-0.91569	0.145484	0.254317	0.275079	6.04551	-1.27888	9.02073	-0.0114647	0.00938284	-0.0310319	-0.275146	0.320068	-0.952881	-0.0740797	0.0973016	0.989016	0.0830225	1.72878	1.24877	-8.91521	-0.0194798	-0.0013242	0.010682	-0.562012	-0.105225	0.928223	-0.490538	0.556992	0.539975	0.396937	9.43027	-1.35493	-1.95284	-0.0203316	0.0139713	0.00252322	-0.879883	0.517822	0.213135	-0.634694	0.463722	0.531064	0.316382	9.53695	-2.56938	-0.181414	-0.0440988	0.000222105	0.000660154	-0.897705	0.658447	-0.161133	
75	-0.51596	0.496489	0.451352	0.532509	9.87975	-0.209477	0.982409	0.0207601	-0.0210743	0.0123198	-0.833008	0.441406	-0.0515137	-0.662768	0.328826	0.365052	0.56511	8.59855	-0.0974128	5.43198	-0.0242465	0.0434522	-0.00584038	-0.622559	0.312988	-0.447021	-0.792378	0.0992855	0.312792	0.514237	6.37936	1.76416	8.36727	0.0728001	0.0151195	-0.0370203	-0.534668	0.10376	-0.907227	-0.0842508	-0.236239	0.0459341	0.966945	-4.38204	1.1769	8.60222	-0.0230329	0.0285191	-0.0224562	0.0825195	-0.0366211	-1.01001	-0.55353	0.270455	0.218751	0.756707	6.36693	0.370419	7.51269	-0.0325597	0.0317909	0.00631699	-0.676758	0.340088	-0.623047	-0.989992	-0.0910095	-0.0975691	-0.0459672	-2.89257	2.36458	12.6964	0.0519874	0.0517431	-0.0193026	0.689453	-0.206299	-0.775391	-0.397777	0.580825	0.562808	0.4332	9.18272	0.32746	-2.87686	0.0158684	0.0640054	-0.00436887	-0.869873	0.36792	0.313721	-0.915625	0.14557	0.25414	0.275413	6.03284	-1.27479	9.07669	-0.00824169	0.0149502	-0.0272373	-0.272949	0.320068	-0.952881	-0.0739653	0.0977355	0.988972	0.0831339	1.5306	1.40467	-8.90333	-0.0109921	0.000603743	-0.0129382	-0.564209	-0.107422	0.926025	-0.490728	0.556791	0.539962	0.397002	9.53767	-0.859615	-1.67198	-0.0113084	0.0262438	0.0019533	-0.88208	0.517822	0.208496	-0.63305	0.466067	0.529582	0.318703	9.68437	-2.34686	-0.103492	-0.223905	0.0259815	-0.00885614	-0.897949	0.660645	-0.154297	
76	-0.516354	0.496469	0.451286	0.532201	10.0386	-0.302466	1.02489	0.0124064	0.0129361	0.0145395	-0.835205	0.441406	-0.0600586	-0.662987	0.329456	0.364316	0.564961	8.4738	-0.0318705	5.3937	-0.0625123	0.00670361	0.0105748	-0.615967	0.315186	-0.447021	-0.792369	0.0982421	0.313693	0.513903	6.43213	2.00406	8.591	0.0318845	-0.00437835	0.00826156	-0.534668	0.105713	-0.907471	-0.0839848	-0.236183	0.0461981	0.96697	-4.32004	1.20774	8.70635	0.0141983	-0.00779858	-0.000732149	0.0776367	-0.0280762	-1.01001	-0.553487	0.271154	0.217814	0.756759	6.40914	0.302252	7.55533	-0.0471678	0.00336169	-0.00392708	-0.679199	0.34668	-0.625244	-0.989931	-0.0909129	-0.098288	-0.0459376	-2.89702	2.34428	12.6521	0.00258957	0.0385644	-0.0224088	0.69165	-0.206055	-0.770996	-0.398456	0.580601	0.562194	0.433675	9.33692	0.328665	-2.98898	0.0215222	0.05908	0.0028056	-0.87207	0.36792	0.311523	-0.915396	0.14554	0.254785	0.275597	5.9368	-1.28465	9.05973	0.0284954	-0.0173198	-0.0269282	-0.272949	0.320312	-0.95752	-0.0734253	0.097731	0.989026	0.082975	1.49581	1.44192	-8.92195	0.0188988	-0.0240347	-0.0130294	-0.562012	-0.105225	0.93042	-0.489062	0.55834	0.538698	0.398596	9.49741	-1.28166	-1.74817	-0.124725	0.0087847	0.00394938	-0.884277	0.515625	0.213135	-0.63089	0.468847	0.527921	0.321652	9.49126	-2.69394	-0.0928101	-0.118362	0.019478	-0.0197491	-0.900146	0.660645	-0.149902	
77	-0.517225	0.495917	0.450761	0.532314	9.74215	-0.29567	1.07713	0.0176117	0.0355742	0.0180698	-0.832764	0.437012	-0.0578613	-0.662847	0.330635	0.363878	0.564719	8.46499	-0.14541	5.36584	-0.0409973	-0.00548606	0.00982357	-0.622803	0.31958	-0.442627	-0.792399	0.100813	0.312254	0.514235	6.32427	1.86077	8.51033	-0.144149	0.0143857	0.0294465	-0.536865	0.108154	-0.907471	-0.0837544	-0.234764	0.0467836	0.967307	-4.39198	1.11584	8.74026	0.0262672	-0.0698084	-0.00441739	0.0866699	-0.0322266	-1.00781	-0.553371	0.271331	0.217831	0.756776	6.34229	0.176651	7.5946	0.0117523	0.0041194	-0.0133434	-0.681396	0.348877	-0.620605	-0.989949	-0.0907538	-0.0982008	-0.0460619	-2.9533	2.4118	12.6741	-0.00980044	0.00592115	-0.00717795	0.689453	-0.204102	-0.768799	-0.399403	0.580406	0.561468	0.434005	9.07808	0.3095	-2.8148	0.0115858	0.0409287	0.00633832	-0.869873	0.365723	0.311768	-0.915106	0.14539	0.255827	0.275671	6.10459	-1.14099	9.15847	0.0190085	-0.00898689	-0.0210581	-0.275391	0.32666	-0.95752	-0.0728826	0.097676	0.989084	0.0828274	1.80357	1.50269	-9.02156	0.0067728	-0.0193794	-0.012223	-0.557373	-0.105225	0.928223	-0.488197	0.558983	0.537647	0.400172	9.51957	-1.09087	-1.8566	-0.0741756	0.0380227	-0.00539499	-0.882324	0.52002	0.213135	-0.62769	0.472946	0.525386	0.32603	9.59757	-2.54552	-0.104873	-0.32633	0.0348672	-0.0210168	-0.897949	0.662842	-0.138428	
78	-0.517633	0.49578	0.450558	0.532218	9.84137	-0.284777	1.09545	0.0172225	0.0216923	0.0236016	-0.830566	0.437012	-0.0559082	-0.662832	0.33114	0.363612	0.564612	8.48275	-0.195831	5.33084	-0.0434206	0.00267903	0.00839515	-0.626953	0.315186	-0.447021	-0.792463	0.102056	0.311056	0.514618	6.26934	1.7087	8.39578	-0.132839	0.0351471	0.0210529	-0.530518	0.110107	-0.900635	-0.083437	-0.232749	0.047078	0.967807	-4.34539	1.17384	8.7139	0.000336406	-0.0760513	-0.00397181	0.0756836	-0.0368652	-1.00562	-0.553572	0.27092	0.218188	0.756673	6.35059	0.207116	7.57378	0.0461989	0.0179782	-0.0106544	-0.681152	0.344482	-0.627441	-0.989952	-0.0908605	-0.0978701	-0.0464824	-2.99557	2.40856	12.7224	0.0157641	0.00445825	0.000910316	0.683105	-0.206299	-0.773193	-0.399354	0.580535	0.561225	0.434192	9.20373	0.237392	-2.8746	-0.00621896	0.0202746	-0.00716845	-0.867432	0.361328	0.307617	-0.914963	0.145832	0.255709	0.276024	6.13489	-1.16534	9.09696	-0.0389119	0.0166793	-0.0342099	-0.273193	0.324463	-0.955322	-0.0727017	0.0979678	0.989056	0.0829716	1.8367	1.48473	-8.99348	-0.00915965	-0.00939292	0.00374141	-0.564453	-0.105225	0.93042	-0.487764	0.559483	0.537108	0.400724	9.51057	-1.14078	-1.77589	-0.0789532	0.0227042	0.0126576	-0.884277	0.517822	0.208496	-0.62598	0.475011	0.524024	0.328501	9.53323	-2.50839	-0.0570543	-0.304298	0.0433062	-0.0349029	-0.900391	0.667236	-0.138672	
79	-0.518675	0.495631	0.449909	0.53189	9.8373	-0.279148	1.14216	0.013266	0.02723	0.0484001	-0.833008	0.439209	-0.0559082	-0.662773	0.33239	0.363012	0.564333	8.47427	-0.151206	5.34212	-0.0511414	-0.0106689	0.0131911	-0.622803	0.321777	-0.440186	-0.792884	0.102798	0.310198	0.514339	6.31227	1.6422	8.28096	0.00627172	0.0179533	0.0340425	-0.532715	0.116699	-0.905273	-0.083437	-0.232749	0.047078	0.967807	-4.34539	1.17384	8.7139	0.000336406	-0.0760513	-0.00397181	0.0756836	-0.0368652	-1.00562	-0.553797	0.270673	0.218384	0.75654	6.35665	0.324349	7.51258	-0.00550898	0.000745053	-0.00644345	-0.678955	0.344482	-0.627441	-0.989951	-0.0907819	-0.0978904	-0.0466182	-3.01302	2.42222	12.7497	-0.00234754	0.0183074	-0.00627521	0.69165	-0.206299	-0.777344	-0.399736	0.580544	0.56087	0.434288	9.25684	0.267694	-2.89232	0.01379	0.0264532	-0.000238331	-0.870117	0.370117	0.311523	-0.914541	0.146824	0.255272	0.277297	5.96514	-1.3819	9.0363	-0.0345458	0.0201529	-0.0515	-0.275391	0.32666	-0.955322	-0.0726075	0.0986403	0.988934	0.083718	1.73535	1.52425	-8.91713	-0.0451108	0.00241384	0.00857105	-0.564209	-0.107422	0.926025	-0.487211	0.560157	0.536071	0.401842	9.35423	-1.53719	-1.63861	-0.0439015	0.0222196	0.00970186	-0.88208	0.517822	0.213135	-0.624503	0.476512	0.522788	0.331096	9.4317	-3.02173	-0.193333	0.00140065	0.0271764	-0.0301257	-0.900146	0.662842	-0.129395	
80	-0.519637	0.496227	0.448958	0.531199	9.55271	-0.432252	1.09713	-0.00241183	-0.00529832	0.0619366	-0.826904	0.450195	-0.0559082	-0.662625	0.33346	0.363049	0.563851	8.53893	-0.249696	5.22899	-0.0237601	-0.00734228	0.00306452	-0.622803	0.31958	-0.444824	-0.793182	0.102971	0.30943	0.514307	6.32947	1.77543	8.26478	-0.0442638	0.0325786	0.00790672	-0.526123	0.114258	-0.905273	-0.083166	-0.230871	0.0478539	0.968242	-4.22973	1.30323	8.76479	0.0119028	-0.0322414	0.00330462	0.0756836	-0.034668	-1.00562	-0.553663	0.27135	0.217921	0.756529	6.40663	0.167494	7.55938	-0.0210374	0.00311121	-0.00170498	-0.681396	0.34668	-0.620605	-0.989989	-0.0900116	-0.0980445	-0.0469691	-2.97921	2.39114	12.7722	-0.0234806	0.0254022	-0.00177789	0.691895	-0.210449	-0.775146	-0.401097	0.580103	0.560562	0.434018	9.12172	0.219327	-2.73551	0.07183	0.0515611	0.00879384	-0.870117	0.372314	0.298828	-0.914365	0.1462	0.255237	0.278237	5.95416	-1.35107	9.1127	0.0525653	0.0381826	-0.0638812	-0.270996	0.324463	-0.952881	-0.0727747	0.0996536	0.988796	0.0839961	1.75178	1.28304	-8.87719	0.018745	0.00876963	0.0288874	-0.562012	-0.105225	0.928223	-0.487608	0.559566	0.536581	0.401504	9.38814	-1.07462	-1.85382	0.0551999	0.0192958	-0.00958747	-0.884277	0.515625	0.215576	-0.624867	0.475814	0.52313	0.330874	9.45432	-2.65596	-0.0357088	-0.0046281	0.0102063	-0.00669382	-0.902344	0.662842	-0.134033	
81	-0.519578	0.497261	0.449124	0.530148	9.71256	-0.528721	1.02685	0.00490995	-0.0632452	0.0252643	-0.828857	0.445801	-0.0559082	-0.663126	0.333593	0.362737	0.563384	8.48058	-0.145055	5.21889	-0.00944448	0.0264206	0.0147133	-0.62085	0.328369	-0.44043	-0.793429	0.103505	0.308131	0.514599	6.25469	1.56284	8.22894	-0.0235342	0.0448216	0.0130651	-0.530518	0.118652	-0.898682	-0.0831911	-0.230323	0.0473897	0.968393	-4.22514	1.31238	8.63093	-0.0304293	-0.0104592	-0.00265326	0.0690918	-0.0368652	-1.01001	-0.554636	0.270258	0.217899	0.756214	6.39015	0.271821	7.51605	0.0467899	0.0663935	0.0192475	-0.679199	0.348877	-0.625244	-0.989871	-0.0904768	-0.0983985	-0.0478152	-2.99303	2.2649	12.6225	0.0447939	0.030651	0.0245015	0.691895	-0.212646	-0.772949	-0.401843	0.58015	0.560111	0.433847	9.14018	0.278109	-2.70487	0.010021	0.025535	0.0136481	-0.866211	0.378906	0.296387	-0.914387	0.14538	0.255182	0.278646	5.93351	-1.04888	8.92673	0.0052437	0.0311784	-0.027429	-0.275146	0.320312	-0.95752	-0.073096	0.100547	0.98869	0.0839057	1.6359	1.37721	-8.87951	-0.00899439	0.0153183	0.0115872	-0.562256	-0.103027	0.928223	-0.488011	0.559261	0.536964	0.400926	9.57463	-1.06633	-1.69742	0.0171766	-0.0042094	0.0037522	-0.879883	0.515625	0.213135	-0.625943	0.474223	0.524175	0.329467	9.72591	-2.19969	-0.0840583	0.0809512	0.00180473	-0.0103889	-0.897949	0.660645	-0.131592	
82	-0.519391	0.498023	0.449792	0.529049	9.92193	-0.505224	0.940799	0.0179476	-0.0513597	0.0187364	-0.831299	0.450195	-0.0537109	-0.663444	0.334027	0.361628	0.563465	8.51098	-0.190088	5.39108	-0.0509053	0.0345134	0.00360431	-0.616211	0.321777	-0.445068	-0.79377	0.102753	0.308205	0.51418	6.31174	1.71626	8.35528	0.0418008	0.0137565	0.0114588	-0.52832	0.116455	-0.903076	-0.0832336	-0.230039	0.0467011	0.96849	-4.27143	1.2015	8.65726	-0.0160042	-0.00252788	-0.00346016	0.0756836	-0.0368652	-1.00781	-0.55548	0.269652	0.21724	0.756	6.33533	0.415112	7.43374	-0.0159332	0.0264853	0.0150084	-0.683594	0.34668	-0.623047	-0.989692	-0.091606	-0.0987078	-0.0487425	-2.90261	2.31926	12.6225	0.0214479	0.0317254	0.0218633	0.691895	-0.210449	-0.768799	-0.40238	0.580288	0.559814	0.433548	9.34637	0.192419	-2.86111	0.0356762	0.00324449	0.00816041	-0.870117	0.370117	0.301025	-0.914055	0.147101	0.254693	0.279279	5.88581	-1.41151	8.92635	-0.0743266	0.0021277	-0.0176625	-0.277344	0.320312	-0.95752	-0.0727841	0.100951	0.988698	0.0835944	1.43511	1.49421	-8.79532	0.0167735	-0.0173934	0.00155692	-0.557617	-0.100586	0.93042	-0.487706	0.559454	0.537107	0.400836	9.49408	-1.14232	-1.68676	-0.00568162	-0.00864292	-0.000830315	-0.884277	0.517822	0.215332	-0.627191	0.472548	0.525363	0.327602	9.51671	-2.65066	-0.17716	0.1975	-0.0188674	0.00387699	-0.906982	0.662842	-0.143066	
83	-0.519606	0.498112	0.450149	0.52845	9.84816	-0.514554	0.902029	0.0259294	-0.0116026	0.00488622	-0.824707	0.452393	-0.0537109	-0.663975	0.333928	0.360943	0.563338	8.40327	-0.365087	5.33826	0.0102375	0.0471488	0.00414743	-0.62085	0.328369	-0.442871	-0.793846	0.102927	0.307989	0.514156	6.24686	1.67862	8.45705	-0.0173052	0.00468464	0.00464032	-0.528564	0.12085	-0.90332	-0.0832518	-0.229709	0.0466367	0.96857	-4.20645	1.17215	8.67141	-0.00483177	-0.0108248	0.00365162	0.0688477	-0.0302734	-1.00342	-0.55549	0.26982	0.216875	0.756038	6.30349	0.18841	7.4818	0.00576319	0.0121644	-0.0121319	-0.679199	0.348877	-0.629883	-0.989641	-0.0915408	-0.0989423	-0.0494181	-2.86075	2.44805	12.6414	0.00862463	0.0225172	0.00465461	0.694336	-0.214844	-0.770752	-0.402797	0.580471	0.559641	0.433139	9.11924	0.195971	-2.8168	0.0252233	0.00396352	0.00194549	-0.870361	0.374512	0.300781	-0.913931	0.146478	0.255778	0.279018	6.21963	-1.37688	8.94696	0.0735646	-0.010133	-0.0208249	-0.279785	0.324463	-0.955078	-0.0723178	0.101055	0.988729	0.0835086	1.77273	1.34112	-9.00199	0.0243884	-0.0116814	-0.0199611	-0.559814	-0.103027	0.932617	-0.487987	0.558576	0.538262	0.40017	9.41066	-1.14383	-1.77417	0.0662159	0.000746412	-0.0252121	-0.877441	0.51123	0.215576	-0.629074	0.470124	0.527237	0.324454	9.5486	-2.71092	-0.105681	0.172439	-0.028498	0.015768	-0.902344	0.660645	-0.147461	
84	-0.520427	0.497493	0.45025	0.52814	9.95919	-0.37921	0.982645	0.039275	0.0279667	0.0145615	-0.828857	0.445801	-0.0559082	-0.664819	0.333406	0.360925	0.562662	8.32602	-0.189565	5.26337	0.0421707	0.0125863	0.0121194	-0.623047	0.326172	-0.452148	-0.793943	0.103407	0.307147	0.514415	6.28858	1.72715	8.46553	-0.0328137	0.0219078	0.00418802	-0.528564	0.118652	-0.907715	-0.0834758	-0.228643	0.0462036	0.968824	-4.22717	1.14409	8.80024	-0.0238103	-0.043377	0.0100304	0.0688477	-0.0324707	-1.01001	-0.55587	0.268701	0.217459	0.755989	6.36873	0.240419	7.54232	0.0464873	0.0347893	-0.0169409	-0.677246	0.351074	-0.634277	-0.989585	-0.0920305	-0.0988726	-0.0497577	-3.02545	2.38783	12.5917	0.0270253	0.00644988	-0.00176577	0.691895	-0.212646	-0.770752	-0.403099	0.580246	0.55997	0.432735	9.08284	0.257362	-2.83473	0.0370922	-0.00347374	-0.021977	-0.868164	0.374512	0.305176	-0.914235	0.145608	0.255561	0.27868	6.07774	-1.13795	9.05334	0.0192212	0.0449986	-0.00753965	-0.275146	0.318115	-0.962158	-0.0721764	0.101065	0.988815	0.0825961	1.62428	1.39646	-8.98657	0.0414097	-0.00232892	-0.00887765	-0.562256	-0.0983887	0.930176	-0.48835	0.557999	0.539585	0.398748	9.5067	-1.16308	-1.85015	0.0844762	-0.0293293	-0.00393062	-0.88208	0.517822	0.213135	-0.632028	0.465907	0.530184	0.319964	9.55705	-2.10122	-0.19945	0.287922	-0.0373783	-0.000824557	-0.902344	0.658447	-0.149902	
85	-0.521723	0.496606	0.449407	0.528413	9.96304	-0.403456	1.12308	0.016545	0.0694411	0.0162777	-0.827148	0.456787	-0.0666504	-0.664575	0.334503	0.360497	0.562574	8.41897	-0.180403	5.38521	-0.0731385	0.00863394	-0.00414506	-0.614014	0.31958	-0.440186	-0.794372	0.103451	0.306487	0.514138	6.1803	1.62082	8.42884	0.0135389	0.0169555	0.0308727	-0.526123	0.114258	-0.907715	-0.0838223	-0.227644	0.0459856	0.969039	-4.15287	1.16592	8.80307	-0.0145404	-0.0359509	0.0131479	0.0668945	-0.0368652	-1.01001	-0.555871	0.268596	0.217509	0.756012	6.33721	0.311692	7.54716	0.00699208	0.0116568	-0.0169886	-0.675049	0.353271	-0.63208	-0.989586	-0.0919435	-0.0988334	-0.0499741	-3.03876	2.40777	12.6935	-0.00216433	0.0195879	-0.0119136	0.691895	-0.210449	-0.770752	-0.402889	0.58031	0.560564	0.432075	9.26434	0.388777	-2.98863	0.0206159	-0.0187988	-0.022071	-0.870361	0.378662	0.300781	-0.914146	0.146606	0.255473	0.278529	6.07573	-1.35223	8.91236	-0.0397363	-0.0093525	0.00352821	-0.273193	0.32666	-0.950684	-0.0720837	0.101154	0.98883	0.0823782	1.43777	1.28857	-8.90897	0.0211162	-0.00480536	-0.00920364	-0.55542	-0.0983887	0.93042	-0.488737	0.557301	0.540556	0.397932	9.57607	-0.814036	-1.73379	0.020882	-0.01133	-0.00524607	-0.875488	0.517822	0.210938	-0.632446	0.465228	0.530861	0.319002	9.61385	-2.13006	-0.10313	0.11137	-0.0275881	0.000919534	-0.900391	0.665039	-0.149902	
86	-0.522252	0.496241	0.448798	0.528752	9.85236	-0.368541	1.1936	-0.00186767	0.0695403	0.0174323	-0.82251	0.452393	-0.0603027	-0.664488	0.334773	0.360926	0.562241	8.5615	-0.219449	5.29781	0.00397878	-0.031927	-0.00815118	-0.616455	0.323975	-0.449707	-0.794606	0.103473	0.306514	0.513755	6.23236	1.72145	8.43777	0.0147005	0.00523627	0.0359695	-0.526367	0.118652	-0.907715	-0.0839334	-0.227227	0.0468205	0.969088	-4.21991	1.18099	8.7861	0.0369743	-0.00833836	0.0138702	0.0666504	-0.0302734	-1.01221	-0.555717	0.269057	0.216992	0.756109	6.33855	0.296056	7.50241	-0.0568955	0.00159446	-0.0079148	-0.677246	0.351074	-0.629883	-0.989625	-0.0910836	-0.0992286	-0.0499938	-3.10312	2.29321	12.7113	-0.0391941	0.0268855	-0.0199964	0.687744	-0.212646	-0.772949	-0.402523	0.580554	0.56083	0.431744	9.29531	0.362597	-2.94282	0.0147624	-0.0387995	-0.0201097	-0.872314	0.370117	0.307373	-0.914142	0.147126	0.255755	0.278008	6.15781	-1.48321	8.89026	-0.0164121	-0.0219363	0.0295755	-0.281738	0.320068	-0.955078	-0.0718135	0.100115	0.98901	0.08173	1.43991	1.31292	-8.9711	0.0476829	-0.00965357	-0.0756679	-0.557617	-0.102783	0.93042	-0.4877	0.558039	0.540157	0.398712	9.57481	-1.05072	-1.88774	-0.0742989	-0.000351615	-0.00549273	-0.879639	0.51123	0.20874	-0.631781	0.466026	0.530488	0.319773	9.71999	-2.44759	-0.156585	-0.0383555	0.0101756	-0.0158937	-0.902344	0.658447	-0.156738	
