40	Head	00b4120a												Throax	00b411e8												LUpArm	00b411d9												LFoArm	00b41148												RUpArm	00b411db												RFoArm	00b41204												Waist	00b411f7												Lthigh	00b411f4												Lshank	00b4111b												Rthigh	00b411c8												Rshank	00b411ee												
PacketCount	q0	q1	q2	q3	accX	accY	accZ	gyrX	gyrY	gyrZ	magX	magY	magZ	q0	q1	q2	q3	accX	accY	accZ	gyrX	gyrY	gyrZ	magX	magY	magZ	q0	q1	q2	q3	accX	accY	accZ	gyrX	gyrY	gyrZ	magX	magY	magZ	q0	q1	q2	q3	accX	accY	accZ	gyrX	gyrY	gyrZ	magX	magY	magZ	q0	q1	q2	q3	accX	accY	accZ	gyrX	gyrY	gyrZ	magX	magY	magZ	q0	q1	q2	q3	accX	accY	accZ	gyrX	gyrY	gyrZ	magX	magY	magZ	q0	q1	q2	q3	accX	accY	accZ	gyrX	gyrY	gyrZ	magX	magY	magZ	q0	q1	q2	q3	accX	accY	accZ	gyrX	gyrY	gyrZ	magX	magY	magZ	q0	q1	q2	q3	accX	accY	accZ	gyrX	gyrY	gyrZ	magX	magY	magZ	q0	q1	q2	q3	accX	accY	accZ	gyrX	gyrY	gyrZ	magX	magY	magZ	q0	q1	q2	q3	accX	accY	accZ	gyrX	gyrY	gyrZ	magX	magY	magZ	
0	-0.545457	0.457597	0.452827	0.536684	9.91453	-0.298791	1.77931	0.0136912	-0.0226705	-0.0291152	-0.827637	0.431152	-0.148438	-0.685157	0.303398	0.374147	0.546372	8.53067	-0.0548509	5.32369	0.040683	-0.00266908	-0.0414112	-0.593994	0.30835	-0.491699	-0.814545	0.0912142	0.282748	0.498247	5.85582	1.76188	8.84677	0.0439026	-0.0474996	-0.00621168	-0.455566	0.124023	-0.937744	-0.110932	-0.197432	0.00425361	0.974011	-3.86133	0.453728	9.06004	-0.00127425	0.091602	0.0296904	0.0168457	0.0834961	-1.01416	-0.593241	0.197963	0.228413	0.746126	5.55049	1.10994	8.07675	0.0165071	0.0195871	-0.0114222	-0.580811	0.283936	-0.732422	-0.981585	-0.188056	-0.00302438	-0.0334197	-2.00044	3.13351	12.7172	-0.00471995	-9.86726e-05	0.013985	0.609375	-0.351318	-0.781494	-0.485395	0.511302	0.590099	0.393377	9.55426	-0.329798	-2.23897	0.0172309	-0.0206869	-0.0257008	-0.893799	0.411621	0.121094	-0.923608	0.100513	0.242744	0.279143	5.50632	-0.812079	9.16529	0.08868	0.0194533	0.0372605	-0.213135	0.233643	-0.993408	-0.13788	0.0850211	0.980847	0.108163	2.30661	1.76762	-8.49067	0.0862825	0.035832	-0.0500215	-0.652832	-0.153564	0.857178	-0.51896	0.510979	0.576433	0.370548	9.47349	-0.527286	-1.75385	-0.074523	0.0303365	0.0177128	-0.907959	0.490967	0.113281	-0.660747	0.399931	0.581077	0.25655	9.75163	-2.37109	-0.116217	-0.155366	0.0166277	0.00132724	-0.93042	0.576416	-0.26001	
1	-0.545335	0.456395	0.453689	0.537103	9.9854	-0.0844326	1.85708	0.0403224	0.0190999	-0.0551853	-0.822754	0.42041	-0.161133	-0.684908	0.303366	0.374186	0.546676	8.39578	-0.0140568	5.36264	0.0107612	-0.00665593	-0.0260618	-0.585205	0.304199	-0.489258	-0.81428	0.0918193	0.283876	0.497927	5.87844	1.5467	9.03392	0.016867	-0.0467903	0.0158866	-0.459961	0.126221	-0.939941	-0.111386	-0.199083	0.00438207	0.973622	-3.95769	0.400443	8.97041	0.0165722	0.0622936	0.0171938	0.0212402	0.0812988	-1.00977	-0.593792	0.197246	0.228989	0.7457	5.50516	1.05436	8.04643	0.0461452	0.0195186	-0.00114722	-0.585205	0.283936	-0.734863	-0.981605	-0.187811	-0.00276811	-0.0342344	-2.05326	3.21675	12.642	-0.00732075	0.0110184	0.0174329	0.602783	-0.353516	-0.781494	-0.484249	0.512143	0.590355	0.393312	9.40088	-0.374562	-2.06664	-0.0442734	-0.0499341	-0.0174566	-0.893799	0.411621	0.131836	-0.923994	0.0995982	0.243627	0.27742	5.52606	-0.404023	9.18296	0.0144924	-0.0222287	0.019227	-0.221924	0.23584	-0.98877	-0.137282	0.083475	0.981134	0.10753	2.14497	1.74258	-8.50348	0.0540489	-0.0333197	-0.0758973	-0.65332	-0.144531	0.859131	-0.516719	0.513492	0.574451	0.373273	9.58649	-0.7014	-1.95445	-0.234203	0.0254725	0.00889462	-0.905762	0.491211	0.11792	-0.656285	0.40735	0.577828	0.263573	9.78833	-1.27289	-0.339407	-0.71555	0.0436611	-0.0142914	-0.92627	0.583008	-0.248779	
2	-0.545756	0.455484	0.454001	0.537185	9.8127	-0.0351471	1.8689	0.0309662	0.0124929	-0.00852991	-0.821045	0.429199	-0.154785	-0.685046	0.303435	0.374704	0.54611	8.60153	-0.229972	5.4946	-0.0149477	0.0079545	-0.00744904	-0.591797	0.306152	-0.493896	-0.814294	0.0915599	0.28477	0.497441	5.9728	1.59625	9.06826	0.0234961	-0.0143311	0.0129697	-0.459961	0.124023	-0.933105	-0.111679	-0.199233	0.00470472	0.973556	-3.81647	0.362553	9.21683	0.0129188	-0.000588117	0.0149833	0.0256348	0.0856934	-1.01001	-0.594131	0.196974	0.229495	0.745346	5.58034	1.25597	8.01667	0.00373888	-0.00659216	-0.00888051	-0.578369	0.281738	-0.734619	-0.981639	-0.187568	-0.00264809	-0.0345886	-2.03854	3.21496	12.7342	-0.00642571	0.0148412	-0.0133138	0.60498	-0.351562	-0.785889	-0.482814	0.513272	0.590412	0.393518	9.59914	-0.419762	-2.12819	-0.0473322	-0.0434048	-0.00967612	-0.893799	0.413818	0.129639	-0.923448	0.10086	0.245249	0.277352	5.26317	-0.350805	9.35479	-0.0367669	-0.0901649	-0.0264399	-0.226318	0.240234	-0.984131	-0.135056	0.0827422	0.981544	0.107172	2.13454	1.88292	-8.40207	-0.00687194	-0.0998479	-0.0488532	-0.650635	-0.151367	0.861572	-0.512051	0.518019	0.57069	0.379173	9.45726	-0.747587	-1.82916	-0.41902	0.0314878	-0.00818779	-0.909668	0.482422	0.138672	-0.648211	0.420076	0.571081	0.277896	9.76585	-2.76239	-0.040676	-0.784593	0.105108	-0.0804906	-0.928467	0.585205	-0.230713	
3	-0.546375	0.4553	0.453844	0.536844	9.82228	-0.0857387	1.86379	0.0121693	0.0102725	0.028619	-0.827148	0.418213	-0.154785	-0.685095	0.304104	0.374421	0.54587	8.3241	-0.0718426	5.33678	-0.0343883	0.00278532	0.00188721	-0.587402	0.306396	-0.491699	-0.814386	0.092785	0.284179	0.497403	5.81431	1.59518	9.08393	-0.069789	0.0127628	0.018137	-0.457764	0.126221	-0.935547	-0.111703	-0.198305	0.00511095	0.973741	-3.781	0.351025	9.16666	0.0201834	-0.0418951	-0.00414138	0.0187988	0.0856934	-1.00781	-0.593744	0.198205	0.228561	0.745616	5.62237	0.938966	7.995	-0.0727639	-0.00995139	-0.0140454	-0.589355	0.283936	-0.734863	-0.98168	-0.187438	-0.00329731	-0.0340724	-2.16682	3.23683	12.705	0.00465689	0.0409218	-0.0478897	0.609375	-0.353516	-0.779297	-0.480499	0.515542	0.589985	0.394023	9.20703	-0.443894	-2.15535	-0.0921268	-0.0739491	0.00485025	-0.889404	0.409424	0.135986	-0.921996	0.103317	0.248335	0.278529	5.75539	-0.658885	9.47924	-0.0757288	-0.130526	-0.091163	-0.235107	0.238037	-0.991211	-0.132224	0.0831125	0.981953	0.106662	2.6391	2.05875	-8.553	0.0195075	-0.110083	0.00125939	-0.644043	-0.146729	0.865967	-0.50679	0.523056	0.567293	0.384389	9.4047	-1.73108	-1.87579	-0.324773	-0.00446403	-0.00951289	-0.911865	0.47998	0.145508	-0.643647	0.426495	0.567015	0.286904	9.50934	-2.27793	-0.173095	-0.448784	0.0772694	-0.070776	-0.924316	0.591797	-0.22168	
4	-0.547244	0.455578	0.452642	0.536738	9.57606	-0.2249	1.8563	-0.0219812	0.0341711	0.0458367	-0.821045	0.429199	-0.15918	-0.684324	0.305959	0.373673	0.546314	8.29131	-0.184311	5.24629	-0.10829	-0.0190366	-0.0180396	-0.585205	0.304199	-0.489258	-0.814751	0.0947305	0.281587	0.497912	5.7045	1.4816	8.83059	-0.131056	0.0713549	0.0196432	-0.455811	0.136963	-0.935791	-0.110779	-0.196619	0.00532647	0.974187	-3.72157	0.406864	9.02841	0.00124155	-0.0678123	-0.0474326	0.0078125	0.083252	-1.00757	-0.593724	0.198738	0.228145	0.745617	5.56224	0.839634	8.02398	-0.0523501	-0.00482185	-3.12051e-05	-0.584961	0.281738	-0.727783	-0.981652	-0.187701	-0.00460143	-0.0332703	-2.20691	3.18959	12.6193	0.014813	0.0508383	-0.0499931	0.609375	-0.353516	-0.7771	-0.478456	0.518052	0.590033	0.393145	9.33381	-0.363612	-2.18946	-0.0501047	-0.0955485	0.0271213	-0.891602	0.413818	0.144531	-0.920287	0.1047	0.250405	0.281794	5.57414	-0.439041	9.60329	-0.0392384	-0.0575432	-0.153242	-0.239746	0.246582	-0.991211	-0.13107	0.0841386	0.981975	0.107081	2.98851	2.10106	-8.57432	-0.0473551	-0.0913855	0.0491301	-0.644043	-0.144531	0.868164	-0.504333	0.525017	0.56545	0.387649	9.42397	-1.4185	-1.83144	-0.134536	0.0249409	-0.0129621	-0.905029	0.478027	0.145508	-0.641544	0.429693	0.564992	0.290809	9.50748	-2.5468	0.0273622	-0.45771	0.075284	-0.0412812	-0.931152	0.593994	-0.22168	
5	-0.547437	0.456634	0.451351	0.536731	9.54367	-0.305974	1.90935	-0.0548066	-0.0109793	0.0481333	-0.821045	0.429199	-0.154785	-0.683775	0.306991	0.373372	0.546628	8.32736	-0.192216	5.19525	-0.103473	-0.0226345	-0.0236715	-0.593994	0.306396	-0.482178	-0.814889	0.0954478	0.279997	0.498446	5.683	1.33689	8.65984	-0.117999	0.0874304	-6.2875e-05	-0.451416	0.134766	-0.935791	-0.109353	-0.195034	0.00460842	0.97467	-3.6659	0.5042	8.93723	-0.0314683	-0.0480672	-0.06221	0.012207	0.0854492	-1.00562	-0.594015	0.199373	0.227058	0.745548	5.61211	1.01869	7.87366	-0.0515609	0.0281003	0.0110699	-0.587158	0.281738	-0.730225	-0.981469	-0.188769	-0.00583059	-0.0324297	-2.17358	3.03729	12.6368	0.0633766	0.0484559	-0.067936	0.609131	-0.349365	-0.781738	-0.475813	0.52122	0.589186	0.393436	9.30626	-0.39714	-2.17677	-0.136126	-0.0703215	0.0265377	-0.880615	0.409424	0.148926	-0.919546	0.105919	0.250545	0.283626	5.58916	-0.513272	9.63352	-0.12468	-0.0206119	-0.147167	-0.239746	0.246582	-0.981934	-0.129412	0.0877471	0.981769	0.108085	3.25086	1.63007	-8.94093	-0.0165066	-0.0587159	0.134794	-0.641357	-0.153564	0.872803	-0.504775	0.525122	0.565468	0.386904	9.44774	-1.11378	-1.513	0.0382781	-0.00881516	0.03334	-0.909668	0.482422	0.143311	-0.64293	0.427951	0.565056	0.290191	9.35748	-2.63845	-0.00423998	0.278248	0.0318344	-0.00874923	-0.928711	0.587402	-0.22168	
6	-0.547437	0.456634	0.451351	0.536731	9.54367	-0.305974	1.90935	-0.0548066	-0.0109793	0.0481333	-0.821045	0.429199	-0.154785	-0.682649	0.308544	0.372878	0.547497	8.60873	-0.262021	5.21165	-0.0866237	0.000713512	-0.0447034	-0.598633	0.310791	-0.47998	-0.815141	0.0948631	0.277993	0.499266	5.8423	1.24642	8.52712	0.00832392	0.0804051	-0.0261099	-0.449463	0.138916	-0.94043	-0.108215	-0.194615	0.00368742	0.974885	-3.68235	0.592377	8.87539	-0.0140284	0.00772396	-0.0489986	0.0124512	0.0812988	-1.00757	-0.59401	0.200453	0.225112	0.745851	5.73631	1.125	7.89859	-0.0932042	0.0136337	0.00207292	-0.583252	0.294922	-0.730225	-0.981313	-0.189836	-0.00724849	-0.0305847	-2.07108	3.0514	12.7021	0.0313363	0.0544542	-0.106941	0.615723	-0.353516	-0.779297	-0.474708	0.522565	0.588967	0.393313	9.52746	-0.511	-2.29722	-0.0829138	-0.0811806	0.0253803	-0.882812	0.411621	0.159424	-0.918387	0.108275	0.248722	0.288062	5.93317	-0.94393	9.61044	-0.127972	0.0950362	-0.159538	-0.233398	0.253174	-0.979736	-0.129497	0.0899709	0.9816	0.107691	3.24147	1.80068	-8.80637	0.0116154	-0.00803056	0.163752	-0.639404	-0.144287	0.870361	-0.504774	0.525573	0.565052	0.3869	9.53152	-0.888026	-1.5638	-0.0293485	0.0138746	0.0398335	-0.905273	0.480225	0.147949	-0.644791	0.426288	0.565318	0.287992	9.52068	-2.93496	0.28255	0.0961427	0.0299797	0.0474269	-0.924316	0.591797	-0.22168	
7	-0.546055	0.459838	0.449517	0.536943	9.94329	-0.49041	1.79915	-0.102342	-0.0264369	0.0226648	-0.823486	0.43335	-0.148438	-0.681751	0.309142	0.372758	0.54836	8.59961	-0.282328	5.25937	-0.0422336	-0.00967313	-0.0561931	-0.598633	0.312988	-0.477783	-0.81488	0.0937134	0.277794	0.500019	5.8277	1.46162	8.61779	0.0192397	0.0218528	-0.0445767	-0.45166	0.134766	-0.940186	-0.10765	-0.194888	0.00389759	0.974892	-3.71464	0.618967	8.81272	0.0292526	0.026001	-0.0402966	0.019043	0.0834961	-1.00757	-0.593077	0.20276	0.223043	0.746592	5.68467	0.999679	8.0232	-0.140463	-0.0252558	-0.03337	-0.581055	0.292725	-0.723389	-0.981336	-0.189855	-0.00787194	-0.0295528	-2.13019	3.01402	12.6629	0.00834801	0.0455842	-0.108107	0.613525	-0.347168	-0.777344	-0.473499	0.524531	0.588119	0.393423	9.5763	-0.4863	-2.34561	-0.0635352	0.00790357	0.0279785	-0.891602	0.413574	0.155029	-0.91806	0.108541	0.246824	0.290623	5.8084	-1.09445	9.46068	-0.0356687	0.0924461	-0.0911855	-0.233398	0.253174	-0.982178	-0.131388	0.0959597	0.980778	0.107718	2.63909	1.50336	-8.84701	-0.00643926	0.0557581	0.136686	-0.64209	-0.137451	0.868164	-0.505626	0.52593	0.565119	0.385202	9.93344	-1.27696	-1.59907	0.0875123	-0.00709737	0.0472863	-0.910156	0.48877	0.147705	-0.648583	0.420804	0.568245	0.281712	9.92623	-1.3979	-0.00154737	0.2554	-0.0226467	0.0285587	-0.928711	0.591797	-0.235352	
8	-0.544592	0.46152	0.449215	0.537238	9.8611	-0.508805	1.70436	-0.0616464	-0.06635	-0.0121243	-0.821533	0.437744	-0.148438	-0.681389	0.309134	0.372789	0.548794	8.75509	-0.247541	5.39915	-0.0294614	0.0135886	-0.060534	-0.594238	0.312988	-0.47998	-0.814051	0.0943863	0.278422	0.500893	6.02263	1.35919	8.80347	-0.0257269	-0.0525416	-0.0365601	-0.449463	0.136719	-0.933594	-0.106831	-0.195623	0.00474805	0.974831	-3.78057	0.680226	8.97097	0.0440686	0.0311278	-0.0180848	0.0124512	0.0812988	-1.01196	-0.592074	0.204285	0.223242	0.746913	5.6438	0.962545	8.16229	-0.00625298	-0.0519073	-0.0430806	-0.585693	0.297119	-0.732422	-0.981499	-0.189254	-0.00839028	-0.0277894	-2.04702	3.08273	12.757	-0.0199015	0.0133109	-0.083065	0.619873	-0.349365	-0.777344	-0.472759	0.525627	0.587713	0.393456	9.62698	-0.449432	-2.24704	-0.0207687	-0.0359751	-0.00808711	-0.881104	0.417969	0.161377	-0.918195	0.107751	0.245402	0.291696	5.6562	-0.890641	9.20526	0.0148503	0.079156	-0.0424546	-0.231201	0.250977	-0.986816	-0.132153	0.0971838	0.980592	0.10738	2.48164	1.53412	-8.75197	0.0219045	0.0543687	0.0906674	-0.646729	-0.137695	0.872559	-0.507217	0.524776	0.566083	0.383263	9.58499	-0.597936	-1.7062	0.097493	0.00390801	0.00763219	-0.905518	0.486816	0.145508	-0.649956	0.418363	0.569961	0.2787	9.75484	-2.21024	-0.109994	0.217142	-0.0333912	-0.0037926	-0.928711	0.5896	-0.237549	
9	-0.54345	0.46253	0.449784	0.53705	9.90736	-0.329553	1.67849	-0.017328	-0.0516721	-0.0160635	-0.825684	0.43335	-0.144043	-0.68098	0.308958	0.371993	0.549939	8.43268	-0.0623288	5.31273	-0.038078	0.0272794	-0.0269207	-0.596436	0.312988	-0.482422	-0.813263	0.0950647	0.280078	0.50112	5.85449	1.49106	8.92613	0.010712	-0.0699639	-0.0144644	-0.453613	0.130371	-0.926514	-0.106175	-0.196001	0.00595119	0.97482	-3.78062	0.471259	9.01814	0.058	0.00790861	-0.0186758	0.0168457	0.0812988	-1.01196	-0.591004	0.204297	0.225051	0.747214	5.73982	1.01644	8.20666	0.03896	-0.038465	-0.0723948	-0.593994	0.290283	-0.723389	-0.981678	-0.188486	-0.00796013	-0.026788	-2.23925	3.15146	12.7184	-0.0254881	-0.021648	-0.0426696	0.619873	-0.347168	-0.779541	-0.470114	0.527646	0.587974	0.393533	9.25088	-0.378402	-2.44708	-0.0847735	-0.0969852	-0.0176469	-0.883057	0.415771	0.174316	-0.918251	0.107535	0.245536	0.291484	5.66172	-0.927374	9.06005	0.0225586	-0.00194359	-0.00808167	-0.233398	0.253174	-0.986816	-0.132823	0.0972089	0.980566	0.106764	2.2304	1.4094	-8.59853	0.0190646	0.0178251	-0.000941698	-0.651367	-0.137695	0.86792	-0.507442	0.524482	0.566798	0.38231	9.37799	-0.964404	-1.75143	0.0128119	-0.0169461	0.00430461	-0.905518	0.486816	0.138672	-0.649424	0.418589	0.57079	0.277905	9.55793	-2.30021	-0.0915236	-0.0629151	-0.0392279	0.00312649	-0.933105	0.585205	-0.237549	
10	-0.542791	0.46271	0.450018	0.537365	9.73827	-0.19422	1.65207	-0.0196969	-0.0135992	-0.0272241	-0.821289	0.435547	-0.141846	-0.68051	0.309329	0.371569	0.550598	8.36001	-0.165697	5.25835	-0.0462849	0.0227373	-0.0400224	-0.596436	0.310791	-0.482422	-0.81279	0.0970994	0.279389	0.501883	5.81092	1.56618	8.91128	-0.123691	0.00568031	-0.00904497	-0.453857	0.141113	-0.935791	-0.105002	-0.195398	0.00651309	0.975065	-3.79758	0.387911	9.2305	0.0102311	-0.0301107	-0.0486506	0.0168457	0.0812988	-1.01196	-0.590377	0.203678	0.225736	0.747672	5.49532	0.917017	8.16402	0.0229547	0.0292537	-0.0519924	-0.592041	0.294678	-0.728027	-0.9817	-0.188418	-0.00675906	-0.0267849	-2.16719	3.34454	12.7181	0.0163319	-0.0342797	0.000822878	0.61084	-0.340576	-0.786133	-0.468837	0.528855	0.588264	0.393	9.20003	-0.42117	-2.25309	0.00885358	-0.0530218	-0.00270995	-0.883057	0.413574	0.169922	-0.918418	0.107295	0.246513	0.290219	5.59889	-0.775279	9.13836	0.0407015	-0.0283412	0.0301648	-0.233398	0.248779	-0.981934	-0.13245	0.0960998	0.980795	0.106131	2.44159	1.44665	-8.60016	0.0167791	-0.0135699	-0.0665099	-0.64209	-0.137451	0.868164	-0.506619	0.5247	0.56713	0.382611	9.43337	-0.942109	-2.02299	-0.0174875	-0.0148221	-0.0245259	-0.90332	0.489014	0.140869	-0.649094	0.41853	0.571444	0.27742	9.71038	-2.06238	-0.234058	-0.00441054	-0.0144247	-0.00939108	-0.928467	0.583008	-0.237549	
11	-0.542234	0.46296	0.450034	0.537698	9.9459	-0.245351	1.71224	-0.0168045	-0.0106366	-0.0127365	-0.823486	0.43335	-0.141846	-0.680483	0.309454	0.370757	0.551108	8.54688	-0.343212	5.32911	-0.0339308	0.0454237	-0.0164497	-0.598633	0.314941	-0.480225	-0.812627	0.0978036	0.277761	0.502913	5.92297	1.18642	8.78775	-0.0160715	0.0503484	-0.0300411	-0.453857	0.141113	-0.933594	-0.104279	-0.194506	0.00493808	0.97533	-3.76009	0.366785	9.23486	-0.0583442	-0.0272604	-0.0413507	0.012207	0.0856934	-1.01001	-0.590366	0.202224	0.225279	0.748213	5.56785	0.94365	8.01754	0.0117939	0.0662761	-0.0313595	-0.587646	0.290527	-0.730225	-0.981356	-0.190209	-0.0060604	-0.026902	-2.20412	3.31479	12.7393	0.0899718	-0.00646963	-0.0153652	0.613281	-0.347168	-0.781738	-0.467784	0.529755	0.589141	0.391728	9.35425	-0.349526	-2.40315	0.0108283	-0.0779274	-0.00698821	-0.883057	0.417969	0.178467	-0.918385	0.107939	0.247675	0.289092	5.73289	-0.629447	9.28718	-0.0137254	-0.0376361	0.0199229	-0.237793	0.253174	-0.986816	-0.131267	0.0951802	0.981193	0.104742	2.41622	1.52118	-8.69398	0.078314	-0.0524149	-0.0451297	-0.639893	-0.133057	0.86792	-0.505709	0.5252	0.567279	0.382906	9.6206	-0.640914	-1.92593	-0.0552199	-0.0155282	-0.0075587	-0.907715	0.486816	0.145508	-0.647546	0.420724	0.570537	0.279576	9.88554	-1.89105	-0.181973	-0.212872	0.0132919	-0.0133519	-0.924072	0.587402	-0.230713	
12	-0.542815	0.462623	0.44967	0.537707	9.9866	-0.285457	1.79347	0.0198495	0.0313612	0.0185824	-0.821777	0.442139	-0.144043	-0.680712	0.309735	0.370237	0.551017	8.55111	-0.199742	5.44184	-0.0271907	0.015699	0.00111151	-0.598633	0.314941	-0.484863	-0.81258	0.0958481	0.278313	0.503059	5.9149	1.40809	8.95914	0.0756314	0.0188825	-0.023576	-0.453857	0.141113	-0.935791	-0.104016	-0.194335	0.00464913	0.975394	-3.64575	0.448512	9.14317	0.0167685	0.00529634	-0.0069044	0.012207	0.083252	-1.00537	-0.590045	0.202711	0.223794	0.74878	5.64206	0.924584	8.03235	-0.0976382	0.0182011	-0.0186722	-0.589844	0.294922	-0.728027	-0.981329	-0.190368	-0.00664149	-0.0266321	-2.29399	3.22082	12.6918	-0.0156123	0.0410742	-0.0351637	0.611328	-0.351318	-0.777344	-0.466344	0.531005	0.589539	0.391153	9.52397	-0.319168	-2.5869	-0.0286912	-0.0482989	-0.00905302	-0.878906	0.417969	0.180664	-0.918136	0.109727	0.248984	0.288085	5.91603	-0.819091	9.42394	-0.0466647	-0.0630625	0.0282886	-0.233398	0.250977	-0.984375	-0.129991	0.0942009	0.981635	0.103058	2.41246	1.91311	-8.74636	0.0664791	-0.0463154	-0.0589292	-0.644287	-0.135254	0.872559	-0.503689	0.527063	0.56607	0.384794	9.42881	-1.0736	-1.79323	-0.154474	-0.00906708	0.00783414	-0.909912	0.486572	0.147705	-0.645486	0.423952	0.568734	0.283116	9.64001	-2.41481	-0.117792	-0.179653	0.0305496	-0.0200562	-0.928711	0.587402	-0.230713	
13	-0.54404	0.462072	0.449192	0.537343	9.87179	-0.243503	1.88777	0.0311026	0.0297783	0.0322612	-0.823486	0.43335	-0.144043	-0.680586	0.310277	0.370025	0.551011	8.56968	-0.192137	5.38352	-0.051813	-0.00130209	-0.00429025	-0.596436	0.314941	-0.487305	-0.812554	0.0957413	0.278411	0.503067	5.88533	1.49415	8.96095	0.0136208	0.00255867	-0.00377961	-0.449463	0.141113	-0.94043	-0.103955	-0.194088	0.00547435	0.975445	-3.60475	0.575252	9.12664	0.0272914	-0.0155239	0.00786232	0.012207	0.083252	-1.00757	-0.589873	0.203485	0.222911	0.748969	5.65327	0.751643	8.01077	-0.0972787	0.00276361	-0.00640622	-0.589844	0.294922	-0.728027	-0.98147	-0.189643	-0.00762947	-0.0263464	-2.28211	3.08732	12.6362	-0.0220751	0.0503407	-0.0372099	0.62207	-0.347168	-0.777344	-0.46491	0.532216	0.590118	0.390339	9.33662	-0.519679	-2.6717	0.0058893	-0.0919474	-0.00927014	-0.874756	0.422363	0.186768	-0.917638	0.110904	0.250571	0.287846	5.99101	-0.832086	9.43068	0.00643566	-0.053576	-0.0189659	-0.241943	0.250977	-0.984375	-0.129408	0.0937402	0.981725	0.103352	2.52888	1.87084	-8.89979	-0.0175606	-0.0354333	-0.06184	-0.642334	-0.130615	0.870117	-0.501671	0.528847	0.564394	0.387434	9.70718	-0.972182	-1.90847	-0.163317	0.0217862	-0.00759335	-0.909912	0.486572	0.154541	-0.644162	0.425945	0.567712	0.285183	9.85348	-1.94688	-0.027884	-0.263868	0.023536	-0.0159166	-0.930664	0.583008	-0.217041	
14	-0.544485	0.462017	0.448933	0.537155	9.81631	-0.221795	1.87276	0.0152084	0.0189531	0.0324708	-0.823486	0.435547	-0.14624	-0.680164	0.311691	0.369598	0.55102	8.57043	-0.277328	5.2901	-0.0585199	-0.0182992	0.00638632	-0.59668	0.317139	-0.480225	-0.812474	0.0978508	0.277544	0.50327	5.95896	1.26263	9.00173	-0.10013	-0.00801908	0.0292278	-0.456055	0.141357	-0.933594	-0.104019	-0.192793	0.00621898	0.975691	-3.60331	0.560096	9.13321	0.0293846	-0.059417	0.00489805	0.00805664	0.0788574	-1.00757	-0.590163	0.204247	0.222767	0.748576	5.69009	0.868315	8.00978	0.0035638	-0.0147119	0.0143603	-0.587891	0.296875	-0.725586	-0.98154	-0.189247	-0.00857465	-0.026279	-2.29791	3.0216	12.6398	-0.0128434	0.0484771	-0.0222589	0.626221	-0.342773	-0.777588	-0.463033	0.533395	0.590956	0.389694	9.35181	-0.34504	-2.57133	-0.0292477	-0.0633505	-0.0265366	-0.876465	0.411377	0.189209	-0.917508	0.111169	0.251009	0.287775	5.85674	-0.717258	9.51	-0.005384	-0.0249733	-0.0155605	-0.246826	0.259521	-0.979736	-0.12791	0.0935036	0.981824	0.104491	2.70253	1.77603	-9.00428	-0.0627154	-0.0528823	-0.027598	-0.637695	-0.130615	0.870117	-0.499254	0.531077	0.562635	0.390057	9.24991	-1.17522	-2.10318	-0.163288	0.0028258	0.00147932	-0.907471	0.482422	0.154541	-0.640107	0.431903	0.564173	0.292286	9.8965	-2.33403	-0.130725	-0.420102	0.0656743	-0.0471911	-0.924072	0.587402	-0.210205	
15	-0.544958	0.462833	0.44807	0.536693	9.45994	-0.327979	1.79398	-0.0301791	-0.0127935	0.0555695	-0.818848	0.431396	-0.150391	-0.679563	0.313786	0.369252	0.550804	8.51402	-0.195846	5.14265	-0.0877745	-0.0307717	0.0046495	-0.590332	0.321533	-0.478027	-0.813083	0.0995029	0.276103	0.502754	5.87805	1.2127	8.7873	-0.0603812	0.0391186	0.0583539	-0.45166	0.141113	-0.933594	-0.103939	-0.191834	0.00653564	0.975886	-3.57308	0.566993	9.11371	0.0200653	-0.0738614	-0.0022242	0.00366211	0.0766602	-1.00317	-0.59055	0.205229	0.222764	0.748003	5.74746	0.922743	7.97087	-0.0255041	-0.023993	0.0193493	-0.587646	0.294678	-0.725586	-0.981605	-0.188884	-0.00897526	-0.0263454	-2.27128	3.02736	12.6912	-0.0232628	0.0444017	-0.0182912	0.619873	-0.347168	-0.779541	-0.461994	0.534176	0.591201	0.389486	9.06535	-0.187631	-2.64137	-0.039654	-0.0809495	-0.0152775	-0.876465	0.411377	0.191406	-0.91705	0.111708	0.251235	0.288828	5.99042	-0.798267	9.35045	-0.0610986	0.0231386	-0.0901918	-0.248535	0.253174	-0.986816	-0.127004	0.0947082	0.981729	0.105395	2.84859	1.38926	-8.63723	-0.0121258	-0.00898439	0.0343492	-0.639404	-0.14209	0.872559	-0.499306	0.531236	0.562531	0.389924	9.10225	-1.76187	-2.00631	0.000145101	0.00693227	0.0202871	-0.905273	0.484619	0.15918	-0.64015	0.431657	0.563673	0.293518	9.22268	-2.7057	-0.0536658	0.0160172	0.0367439	-0.0224581	-0.931152	0.591797	-0.210205	
16	-0.544508	0.464885	0.447476	0.535872	9.48149	-0.498637	1.62188	-0.0580141	-0.0666913	0.0463688	-0.819336	0.442139	-0.144043	-0.678598	0.315362	0.369902	0.550658	8.33008	-0.290328	4.80353	-0.0679157	-0.0483669	-0.0369151	-0.594482	0.31958	-0.475586	-0.813965	0.100144	0.273426	0.502663	5.72612	1.27642	8.53521	-0.0691803	0.0860802	0.0386259	-0.44751	0.154053	-0.929443	-0.103417	-0.189946	0.00628778	0.976312	-3.5972	0.601956	8.93592	-0.0259172	-0.0648268	-0.0288336	-0.000976562	0.0810547	-1.00757	-0.591027	0.205496	0.222869	0.747521	5.76996	0.932156	7.89905	0.0191919	0.00871106	0.0121005	-0.592285	0.30127	-0.725586	-0.981609	-0.188801	-0.00964656	-0.0265537	-2.20347	3.00236	12.6168	0.0133788	0.0363138	-0.0114806	0.62207	-0.347168	-0.770996	-0.461392	0.535534	0.590776	0.388979	8.97188	-0.419906	-2.51462	0.00842613	0.00554299	0.0271036	-0.874756	0.420166	0.191162	-0.916901	0.112537	0.249787	0.290233	5.60505	-0.752096	9.18297	-0.0708108	0.0745929	-0.0439328	-0.240234	0.259521	-0.97998	-0.128543	0.0964103	0.981402	0.105036	2.85443	1.6894	-8.5694	0.000249473	0.0745669	0.0569364	-0.639648	-0.135254	0.874756	-0.501892	0.529266	0.563353	0.388091	9.17797	-1.1843	-1.45478	0.167546	0.0437837	0.0137824	-0.90332	0.486816	0.149902	-0.643151	0.427497	0.565387	0.289724	9.33095	-2.5303	-0.0332189	0.356113	0.00662985	0.00968701	-0.92627	0.587402	-0.219238	
17	-0.543065	0.466716	0.447535	0.535695	9.72878	-0.490323	1.53616	-0.0615097	-0.0804071	-0.00666122	-0.817383	0.442139	-0.135498	-0.677794	0.316145	0.370438	0.550838	8.74763	-0.285664	5.12729	-0.00318006	-0.0272527	-0.0322735	-0.601074	0.321533	-0.470947	-0.814505	0.0999994	0.27124	0.503002	5.84427	1.07003	8.3469	0.00657623	0.0627944	0.000340514	-0.443359	0.151855	-0.936279	-0.103269	-0.189248	0.00479258	0.976472	-3.73185	0.76243	8.79658	-0.0650491	0.00664592	-0.00729199	-0.000976562	0.0810547	-1.00977	-0.591939	0.204973	0.222211	0.747139	5.77853	1.12552	7.84438	-0.0129299	0.0477372	0.0199755	-0.585693	0.297119	-0.730225	-0.981369	-0.190025	-0.00997893	-0.0265657	-2.1047	2.93399	12.7074	0.0701511	0.0205525	-0.0247181	0.620117	-0.351318	-0.772949	-0.462507	0.535035	0.590672	0.388499	9.57663	-0.575332	-2.50593	0.0685779	0.0482065	-0.00655057	-0.876709	0.417969	0.187012	-0.916989	0.113392	0.247078	0.291934	5.6469	-0.968528	9.2128	-0.0583029	0.124363	-0.0578765	-0.244629	0.261719	-0.982178	-0.130465	0.0979661	0.980978	0.105186	2.38109	1.51686	-8.76021	0.00975898	0.0645433	0.0428872	-0.644531	-0.130859	0.870117	-0.50377	0.527706	0.564422	0.386226	9.54358	-0.499701	-1.71465	0.138316	0.0102747	0.00876348	-0.910156	0.490967	0.147461	-0.646738	0.422692	0.567646	0.284323	9.71017	-2.24062	0.119355	0.337107	-0.0150187	0.0326067	-0.928467	0.585205	-0.228271	
18	-0.541132	0.468888	0.448302	0.535113	9.98735	-0.513721	1.39487	-0.0506906	-0.119843	-0.00821724	-0.823975	0.442139	-0.131348	-0.678257	0.315235	0.370816	0.550536	8.86333	-0.385924	5.43928	0.0247709	0.0465732	-0.020606	-0.596436	0.312988	-0.468262	-0.814287	0.097248	0.273314	0.50277	5.9324	1.32768	8.64303	0.154168	-0.0406592	-0.041386	-0.445557	0.154053	-0.938477	-0.103579	-0.190569	0.00460455	0.976183	-3.66586	0.723208	8.91777	0.0308238	0.0775559	0.0179772	0.0012207	0.0810547	-1.01196	-0.591595	0.205517	0.221505	0.747471	5.81094	1.14977	7.95445	-0.0407605	0.0036742	-0.0149404	-0.585693	0.297119	-0.728027	-0.981381	-0.190017	-0.0101118	-0.0261205	-2.05059	2.91011	12.7904	-0.0258723	0.0124172	-0.0359692	0.62207	-0.347168	-0.773193	-0.465234	0.53312	0.589338	0.3899	9.38	-0.371197	-2.46922	0.0472694	0.169752	-0.0248877	-0.876709	0.420166	0.18042	-0.91737	0.112323	0.246126	0.291956	5.86734	-1.08796	9.18416	0.0810379	0.0548169	-0.00709447	-0.238281	0.261719	-0.982178	-0.131742	0.0981328	0.980786	0.105226	2.25247	1.60148	-8.56157	-0.0145174	0.054041	-0.0260842	-0.646973	-0.130859	0.870117	-0.506421	0.525152	0.566485	0.383207	9.79796	-1.29	-1.73332	0.247267	0.0145403	-0.000416994	-0.905273	0.482422	0.143311	-0.651061	0.416091	0.571109	0.277168	9.8961	-1.47174	-0.212324	0.347292	-0.0234556	0.0154497	-0.924072	0.585205	-0.239746	
19	-0.539704	0.470149	0.449344	0.534575	10.2125	-0.46555	1.33811	-0.0119916	-0.0706551	-0.0203636	-0.819336	0.437744	-0.131104	-0.679241	0.313572	0.371602	0.549742	8.6781	-0.277817	5.27166	0.0972821	0.0275836	-0.00951757	-0.598633	0.312988	-0.4729	-0.813204	0.0974452	0.276142	0.502941	5.96276	1.43345	8.92649	0.00107998	-0.116425	-0.032702	-0.45166	0.141113	-0.933594	-0.104265	-0.192599	0.00556398	0.975707	-3.67128	0.67643	8.98437	0.0391138	0.0810795	0.0384003	0.000976562	0.0854492	-1.01001	-0.590641	0.205758	0.222312	0.74792	5.8143	0.837203	8.16567	0.0341509	-0.0247565	-0.064546	-0.590332	0.303467	-0.71875	-0.981611	-0.188894	-0.00947496	-0.0258829	-2.18589	3.02433	12.7252	-0.0295229	-0.0249782	-0.0179038	0.619629	-0.342773	-0.777588	-0.46803	0.530652	0.588713	0.390862	9.58202	-0.485579	-2.36617	0.111614	0.150097	-0.041793	-0.881104	0.417969	0.174072	-0.918088	0.109736	0.246871	0.290047	5.62928	-0.715781	9.21379	0.134261	0.0025669	0.0368985	-0.233643	0.255371	-0.986816	-0.131815	0.0962985	0.980994	0.104891	2.16628	1.60055	-8.68917	0.0561704	-0.00100044	-0.101737	-0.648926	-0.135254	0.865723	-0.507612	0.523396	0.567598	0.382386	9.50637	-0.180438	-1.67842	0.0184237	0.0166456	-0.023256	-0.909912	0.486572	0.143066	-0.650583	0.416761	0.571062	0.277382	9.73715	-2.1974	-0.0278601	-0.0953142	-0.00355216	-0.0022963	-0.930908	0.587402	-0.23291	
20	-0.539766	0.469441	0.449625	0.534896	10.0616	-0.344154	1.44463	0.0244999	0.0400262	-0.0292792	-0.81958	0.442139	-0.12915	-0.679598	0.31289	0.372285	0.549227	8.54652	-0.146564	5.39541	0.081622	0.00560473	-0.0137202	-0.596436	0.315186	-0.477783	-0.812438	0.0992524	0.278308	0.502632	5.88622	1.32655	9.10973	0.00171888	-0.0989902	0.0212763	-0.460205	0.143555	-0.929199	-0.104573	-0.193551	0.0070521	0.975476	-3.70247	0.432858	9.13845	0.0658483	0.0201332	0.01733	0.00366211	0.0766602	-1.00757	-0.590304	0.203893	0.225078	0.747869	5.6055	0.948677	8.22459	0.13229	0.00704534	-0.0647593	-0.594238	0.29248	-0.725586	-0.981781	-0.187964	-0.00756698	-0.0267874	-2.28761	3.19502	12.6389	-0.0404315	-0.0656113	0.0491469	0.619629	-0.340576	-0.781982	-0.469235	0.529382	0.588552	0.391382	9.30138	-0.253731	-2.59209	0.0231735	0.0651949	-0.0287771	-0.880859	0.413574	0.172119	-0.918191	0.108573	0.248843	0.288469	5.8051	-0.457059	9.31294	0.0529348	-0.0522757	0.00619197	-0.239746	0.248779	-0.984375	-0.130862	0.0943534	0.981297	0.105019	2.44029	1.60513	-8.72066	-0.00132153	-0.0285972	-0.0960368	-0.648682	-0.14209	0.868164	-0.505811	0.524659	0.566964	0.38398	9.50442	-0.864672	-1.96707	-0.13489	0.0118165	-0.0168345	-0.907715	0.484619	0.147705	-0.648381	0.419702	0.570119	0.28003	9.61173	-1.80411	-0.246016	-0.334036	0.000700332	-0.0105525	-0.92627	0.585205	-0.235107	
21	-0.540636	0.467764	0.449292	0.535767	9.79622	-0.207406	1.62441	0.0293644	0.0753642	-0.0223265	-0.825684	0.435547	-0.133301	-0.679707	0.312724	0.372511	0.549034	8.51661	-0.0888047	5.29661	0.00862019	0.00414731	-0.00791621	-0.596436	0.315186	-0.477783	-0.812407	0.0999475	0.278807	0.502266	5.91583	1.46508	9.18291	-0.0139852	-0.0582509	0.0355891	-0.456055	0.149902	-0.936035	-0.10446	-0.192316	0.00787318	0.975726	-3.76102	0.314573	9.35651	0.0196405	-0.0662951	-0.00193577	0.00610352	0.0725098	-1.01416	-0.590296	0.202892	0.226047	0.747856	5.5953	0.925061	8.07372	0.103703	0.0213806	-0.048543	-0.591797	0.290283	-0.728027	-0.981808	-0.187701	-0.0052128	-0.028173	-2.23499	3.29217	12.7101	0.00224266	-0.0657165	0.0485409	0.615723	-0.349365	-0.783691	-0.470369	0.528673	0.587768	0.392157	9.3148	-0.37125	-2.33996	0.0169422	0.0660595	-0.0084867	-0.881104	0.417969	0.165527	-0.917961	0.10969	0.249807	0.287945	5.65199	-0.686125	9.3609	-0.0546948	-0.039279	-0.000823856	-0.23999	0.250977	-0.986816	-0.130347	0.0935185	0.981453	0.104945	2.52729	1.67067	-8.69656	0.0168987	-0.0305485	-0.0873281	-0.639893	-0.133057	0.870117	-0.503536	0.526452	0.565337	0.386903	9.41482	-0.951128	-2.03684	-0.177228	0.0321484	-0.0208223	-0.905273	0.482422	0.145508	-0.64569	0.423742	0.568359	0.283716	9.56939	-2.26551	-0.294273	-0.505473	0.00859648	-0.0131526	-0.930908	0.5896	-0.226074	
22	-0.541089	0.467143	0.448991	0.536104	9.68583	-0.196883	1.70288	0.0193679	0.0648528	-0.00851863	-0.823486	0.435547	-0.133301	-0.67961	0.313493	0.372435	0.548766	8.53014	-0.240109	5.19265	-0.0263804	0.000602435	-0.00224772	-0.59668	0.317383	-0.475586	-0.812731	0.101418	0.278054	0.501864	5.97573	1.36721	9.07142	-0.0603334	0.0202258	0.0338107	-0.456055	0.143311	-0.931396	-0.104057	-0.190208	0.00817736	0.976179	-3.6445	0.326494	9.38482	0.010416	-0.0751508	-0.0212788	-0.000732422	0.0744629	-1.00537	-0.590453	0.201257	0.227305	0.747792	5.69304	0.977948	7.88265	0.0644971	0.0298037	-0.0313232	-0.591797	0.288086	-0.727783	-0.98176	-0.187938	-0.00444126	-0.0284125	-2.15299	3.28429	12.8178	0.0114095	0.0069384	-0.0194433	0.609131	-0.347168	-0.779541	-0.470631	0.528662	0.587255	0.392625	9.33774	-0.493516	-2.40769	-0.0111701	0.0617801	-0.00556135	-0.87915	0.422363	0.169922	-0.917705	0.109912	0.250525	0.288053	5.75075	-0.727639	9.30183	-0.000310722	-0.0455799	-0.034741	-0.244385	0.253174	-0.982178	-0.129111	0.0929904	0.98166	0.105008	2.4883	1.76282	-8.75948	-0.0167231	-0.0469922	-0.0230076	-0.64209	-0.137695	0.872559	-0.501745	0.528088	0.564395	0.388373	9.36257	-1.36234	-1.98338	-0.0955323	-0.0112748	0.0129414	-0.914062	0.477783	0.154785	-0.642482	0.428455	0.565709	0.289165	9.52392	-3.05152	-0.073451	-0.228212	0.0517037	-0.0325013	-0.926758	0.596191	-0.224121	
23	-0.541698	0.466682	0.447968	0.536745	9.71407	-0.251442	1.7809	-0.0245069	0.0469045	0.015121	-0.825684	0.435547	-0.137695	-0.678986	0.315151	0.371848	0.548987	8.36638	-0.200952	5.16646	-0.0856853	-0.0212805	-0.00576882	-0.598877	0.317383	-0.468506	-0.813102	0.102342	0.276001	0.50221	5.62531	1.39438	8.85017	-0.0746789	0.0651244	0.0125001	-0.454102	0.156494	-0.931641	-0.103565	-0.189443	0.00833712	0.976379	-3.67573	0.344302	9.17083	0.0154786	-0.0574478	-0.0367185	0.00390625	0.0722656	-1.00537	-0.590425	0.201773	0.226365	0.747961	5.64273	1.06606	7.85893	-0.0927545	0.0152099	0.00084043	-0.587646	0.290527	-0.727783	-0.981765	-0.187951	-0.0048589	-0.0280778	-2.18429	3.13418	12.6878	0.00697324	0.0404465	-0.0503159	0.613281	-0.347168	-0.781738	-0.470893	0.528838	0.586896	0.392611	9.25979	-0.35413	-2.62857	0.0389645	0.00495689	0.00293515	-0.878906	0.420166	0.169922	-0.917105	0.109816	0.25149	0.289156	5.79507	-0.574457	9.5034	-0.0233295	-0.014511	-0.0797474	-0.23999	0.255371	-0.982178	-0.12823	0.0945336	0.981657	0.104736	2.74934	1.80164	-8.72862	-0.00551923	-0.0303508	0.0571406	-0.64209	-0.137451	0.868164	-0.501588	0.528348	0.564037	0.388742	9.31211	-1.3359	-1.88709	-0.0428145	0.0264199	0.00990957	-0.907471	0.480225	0.147949	-0.642648	0.428528	0.564778	0.290504	9.4266	-2.57487	0.0369635	-0.0392303	0.0527216	-0.0179236	-0.926514	0.591797	-0.219482	
24	-0.54154	0.46713	0.446616	0.537641	9.61516	-0.347338	1.81679	-0.0669504	0.0217354	0.00501531	-0.81958	0.442139	-0.137695	-0.67781	0.317077	0.371429	0.549614	8.52934	-0.252097	5.0651	-0.0999231	-0.029437	-0.041169	-0.598877	0.317383	-0.470703	-0.813107	0.102846	0.27376	0.503324	5.72322	1.31002	8.66628	-0.0600837	0.070628	-0.0327807	-0.449707	0.158447	-0.931885	-0.102134	-0.1883	0.00840365	0.97675	-3.67	0.497644	8.92746	0.0107612	-0.0360958	-0.0611333	-0.000488281	0.0700684	-1.00513	-0.59012	0.203399	0.224827	0.748224	5.71805	0.982258	7.86667	-0.0756444	-0.0110526	-0.00803465	-0.587646	0.290527	-0.727783	-0.98176	-0.188139	-0.00629962	-0.0266609	-2.12352	3.0293	12.639	0.00998229	0.0587705	-0.0931981	0.617676	-0.344971	-0.788086	-0.471212	0.529535	0.585839	0.392868	9.26527	-0.42674	-2.39589	-0.0302794	0.0383701	0.0207287	-0.883301	0.422363	0.167725	-0.916374	0.111349	0.250689	0.291574	5.92925	-0.826442	9.42867	-0.0747082	0.0525855	-0.0969006	-0.244385	0.253174	-0.982178	-0.128572	0.0967607	0.981283	0.105781	2.89188	1.71253	-8.90871	-0.0740867	0.0274579	0.0669153	-0.637451	-0.137451	0.865723	-0.502769	0.527449	0.564295	0.388062	9.62306	-0.892907	-1.6397	0.0690184	0.0476017	0.011665	-0.911865	0.482178	0.152344	-0.644837	0.425707	0.565604	0.288186	9.69657	-2.17074	0.00183898	0.115479	0.0375719	0.0116362	-0.928711	0.591797	-0.226318	
25	-0.540448	0.468677	0.445604	0.538233	9.80363	-0.39444	1.72661	-0.0915909	-0.0341543	0.0107293	-0.821533	0.439941	-0.137695	-0.676558	0.31853	0.371133	0.550516	8.76027	-0.344994	5.15811	-0.0752571	-0.0132651	-0.0478023	-0.601074	0.321777	-0.466309	-0.812661	0.102088	0.273064	0.504576	5.84714	1.15078	8.60618	0.0161222	0.0321726	-0.0608125	-0.44751	0.154053	-0.927002	-0.100484	-0.187949	0.00856054	0.976988	-3.58593	0.723941	8.94029	0.020761	0.000688903	-0.0629508	-0.00512695	0.0744629	-1.00757	-0.58919	0.20516	0.223829	0.748776	5.823	1.24461	7.95979	-0.0967273	-0.0375615	-0.0434411	-0.598633	0.296875	-0.725586	-0.981731	-0.188552	-0.00753296	-0.0244147	-2.0006	2.96262	12.8039	0.015977	0.0399022	-0.123142	0.619629	-0.342773	-0.781738	-0.471144	0.530132	0.585252	0.393019	9.65111	-0.442928	-2.38738	-0.00732291	0.0162585	0.00615862	-0.885254	0.417969	0.165527	-0.916138	0.111553	0.248798	0.293847	5.83254	-0.988891	9.37616	-0.0514693	0.0829938	-0.0850804	-0.244385	0.257568	-0.984375	-0.129327	0.0987468	0.98093	0.106305	2.59898	1.51116	-8.78819	-0.0123571	0.0329468	0.0614463	-0.644531	-0.133057	0.874756	-0.503303	0.527637	0.563836	0.387781	9.46087	-0.95959	-1.62211	-0.000530817	0.0184059	0.0334301	-0.909912	0.484375	0.147705	-0.646383	0.424002	0.565992	0.286469	9.68467	-2.56184	0.152349	0.127946	0.0229986	0.0145128	-0.921875	0.5896	-0.235352	
26	-0.538918	0.470631	0.444877	0.538664	9.80058	-0.431576	1.59821	-0.0934377	-0.0557094	5.71639e-05	-0.821777	0.442139	-0.12915	-0.67548	0.319063	0.371422	0.551335	8.70647	-0.289001	5.16731	-0.0440469	-0.0002579	-0.0693305	-0.603271	0.323975	-0.463867	-0.811646	0.101915	0.273609	0.505948	5.88596	1.37247	8.74603	-0.0185638	-0.0236943	-0.0674565	-0.449707	0.15625	-0.934082	-0.0985687	-0.188269	0.0095854	0.977112	-3.65449	0.731554	8.87786	0.0676617	0.013867	-0.0696863	-0.00268555	0.0700684	-1.00952	-0.587299	0.206575	0.223615	0.749935	5.83644	0.97006	8.22901	-0.0383526	-0.0276834	-0.0936155	-0.587891	0.296875	-0.720947	-0.981904	-0.187905	-0.0074764	-0.0223611	-2.11195	2.98837	12.7827	-0.0216629	-0.0250703	-0.0809137	0.617676	-0.344971	-0.783936	-0.471989	0.530073	0.584236	0.393596	9.36771	-0.489399	-2.34313	0.00945692	0.0728651	-0.00321039	-0.876953	0.422363	0.15918	-0.916404	0.11034	0.248097	0.294069	5.91453	-0.833215	9.27677	0.0551349	0.0551964	-0.0234271	-0.242188	0.257568	-0.982178	-0.130459	0.0996371	0.980703	0.10618	2.58166	1.54562	-8.7856	0.0135194	0.0467212	0.00744052	-0.644287	-0.135254	0.872559	-0.504953	0.526471	0.564389	0.386413	9.57799	-1.15805	-1.64416	0.130755	0.0430444	0.0115603	-0.910156	0.48877	0.145264	-0.648817	0.420534	0.567629	0.282816	9.71687	-1.77402	-0.0454382	0.137919	-0.000726285	0.0161229	-0.923828	0.583008	-0.239746	
27	-0.537025	0.472384	0.444813	0.539072	9.93283	-0.47452	1.52952	-0.0742942	-0.0635855	-0.0267852	-0.819336	0.439941	-0.126953	-0.674779	0.319067	0.37159	0.552078	8.61443	-0.295381	5.12679	-0.0107952	0.0104319	-0.0493982	-0.603027	0.317383	-0.461426	-0.810289	0.103737	0.273647	0.507728	5.95423	1.28529	8.78857	-0.0911568	-0.0445425	-0.0654249	-0.456299	0.156494	-0.924805	-0.0968146	-0.188181	0.00976185	0.977302	-3.62215	0.643298	9.13142	0.000990089	-0.00136939	-0.0640189	-0.00244141	0.0678711	-1.00732	-0.585753	0.205208	0.224967	0.751115	5.69536	0.933735	8.17786	0.0681292	0.0248707	-0.116159	-0.598389	0.288086	-0.720947	-0.981824	-0.188502	-0.00557503	-0.0214048	-2.13537	3.12287	12.7548	0.0511585	-0.0800653	-0.0318796	0.613037	-0.340576	-0.781982	-0.472363	0.529886	0.583948	0.393824	9.40168	-0.518925	-2.25924	0.0183405	0.0536643	-0.0108016	-0.883545	0.424561	0.16333	-0.916892	0.10961	0.24689	0.293838	5.67067	-0.79281	9.25725	0.0141328	0.0767718	-0.0058567	-0.241943	0.250977	-0.981934	-0.131513	0.0993877	0.980565	0.106392	2.43205	1.64658	-8.6098	-0.0228246	0.0488266	-0.0327602	-0.648926	-0.135254	0.865723	-0.506664	0.524788	0.565433	0.384935	9.62405	-0.66792	-1.7244	0.109534	0.0179569	-0.0021613	-0.905518	0.489014	0.140869	-0.650182	0.418334	0.568924	0.28033	9.76967	-1.73312	-0.129317	0.176807	-0.0163759	-0.00648715	-0.92627	0.587402	-0.239746	
28	-0.535846	0.472735	0.445127	0.539678	9.89232	-0.423268	1.54046	-0.0179615	-0.0173667	-0.042755	-0.823975	0.441895	-0.124756	-0.674534	0.31861	0.371647	0.552603	8.62497	-0.28234	5.19329	-0.00205646	0.0191444	-0.0370314	-0.607422	0.31958	-0.461426	-0.809194	0.104626	0.27419	0.508998	5.98869	1.1693	8.85825	-0.00306822	-0.0341068	-0.0479445	-0.458252	0.156494	-0.931641	-0.0954874	-0.188214	0.00983864	0.977426	-3.61265	0.525172	9.22399	0.0299632	0.00780863	-0.0475507	-0.00463867	0.0634766	-1.01392	-0.584792	0.202898	0.226401	0.752059	5.56242	1.04173	8.05716	0.0631554	0.0448322	-0.0909476	-0.596191	0.28833	-0.732422	-0.981718	-0.189118	-0.00348675	-0.0212734	-2.21216	3.24644	12.7541	0.00526332	-0.0630448	-0.000352192	0.613037	-0.338379	-0.792725	-0.473771	0.52842	0.583906	0.394166	9.38671	-0.352071	-2.36914	0.0299778	0.0514646	-0.0271259	-0.883545	0.424561	0.156982	-0.917351	0.109082	0.246842	0.292638	5.67096	-0.725844	9.16186	0.028722	0.00955935	0.034799	-0.237793	0.255371	-0.984375	-0.131799	0.0982955	0.980607	0.106664	2.26099	1.497	-8.67388	0.0366998	0.0131076	-0.0658929	-0.644287	-0.139893	0.868164	-0.506877	0.524714	0.565326	0.384912	9.42636	-0.754454	-1.79314	-0.0389822	0.00663076	0.00856117	-0.905273	0.480225	0.141113	-0.649348	0.419665	0.56843	0.281274	9.61938	-2.47169	-0.143444	-0.0655574	0.00280815	-0.00344759	-0.930664	0.583008	-0.237549	
29	-0.53554	0.472032	0.445998	0.539878	9.94625	-0.286911	1.58786	0.0373195	-0.00368433	-0.0404301	-0.821533	0.435547	-0.122559	-0.674561	0.318723	0.371189	0.552813	8.58167	-0.216134	5.22532	-0.028539	0.0276938	-0.0111238	-0.603271	0.321777	-0.463867	-0.80889	0.104409	0.274664	0.50927	5.97112	1.275	8.93776	0.0277347	-0.0210716	-0.037826	-0.458252	0.154297	-0.933838	-0.0945954	-0.188257	0.0103078	0.977499	-3.56498	0.464142	9.32887	0.0156633	0.00222608	-0.0226992	-0.00244141	0.0656738	-1.00732	-0.584372	0.202416	0.226309	0.752543	5.54426	0.94264	8.00142	-0.000884882	0.0403834	-0.0710533	-0.598389	0.288086	-0.723389	-0.981737	-0.18902	-0.00285813	-0.0213417	-2.21028	3.23441	12.7075	-0.00330915	-0.0355816	-0.00236808	0.611084	-0.340576	-0.783936	-0.47414	0.528122	0.58361	0.394561	9.45186	-0.440161	-2.3105	0.0212401	0.0220672	-0.0180819	-0.883545	0.424561	0.161133	-0.917666	0.108822	0.247495	0.291191	5.65836	-0.684534	9.22782	0.0392795	-0.0146053	0.0277901	-0.238037	0.259766	-0.984619	-0.131813	0.0975788	0.980711	0.106345	2.34981	1.64448	-8.51552	0.0383099	0.00918087	-0.0702909	-0.646729	-0.135254	0.872559	-0.505712	0.525701	0.56434	0.386542	9.60874	-0.655364	-1.92498	-0.102074	0.0442829	-0.0107478	-0.909912	0.484375	0.138672	-0.648599	0.420646	0.568091	0.282221	9.82733	-1.52961	-0.266418	-0.125148	0.000412764	-0.0139498	-0.928711	0.587402	-0.237549	
30	-0.536041	0.470921	0.446462	0.539969	9.8879	-0.150458	1.66708	0.038689	0.0275273	-0.0121027	-0.823486	0.431152	-0.126709	-0.674501	0.319384	0.370284	0.553111	8.57595	-0.225504	5.25707	-0.0477772	0.020235	0.00196874	-0.601074	0.31958	-0.463867	-0.808545	0.104966	0.274588	0.509743	5.96815	1.28283	9.07581	-0.0387604	0.00121349	-0.00935814	-0.460449	0.154297	-0.933838	-0.0941308	-0.187545	0.0103327	0.977681	-3.5072	0.425251	9.24659	0.0111187	-0.0314244	-0.0181857	-0.000244141	0.0656738	-1.00732	-0.58411	0.202361	0.225706	0.752942	5.52659	0.806576	7.99432	-0.0236186	0.0183692	-0.0174636	-0.598145	0.285889	-0.728027	-0.981628	-0.189578	-0.00311265	-0.0213853	-2.25301	3.2056	12.7028	0.00972206	0.0350001	-0.0131851	0.608887	-0.340576	-0.78833	-0.474106	0.528188	0.58325	0.395045	9.38584	-0.459557	-2.2796	-0.0222869	0.0267577	-0.0158548	-0.881348	0.422363	0.161377	-0.917658	0.108763	0.249267	0.289726	5.59169	-0.538725	9.24128	0.0179056	-0.0601218	0.0167684	-0.246338	0.250977	-0.981934	-0.130927	0.0956603	0.981059	0.105975	2.19745	1.80216	-8.68937	0.030458	-0.0407853	-0.0997444	-0.64917	-0.133057	0.870117	-0.503176	0.527831	0.562465	0.389669	9.3501	-0.820389	-1.76204	-0.215646	0.012595	-0.0106088	-0.905273	0.480225	0.152344	-0.64367	0.428044	0.564172	0.290133	9.73688	-2.2601	-0.187421	-0.511604	0.051215	-0.0487545	-0.926514	0.5896	-0.22168	
31	-0.536321	0.470592	0.446409	0.540021	9.74109	-0.158435	1.68334	0.0209991	0.0246669	-0.00200742	-0.825684	0.43335	-0.131104	-0.674436	0.320094	0.369775	0.553121	8.56863	-0.31593	5.13392	-0.072463	0.00936018	0.0104452	-0.60791	0.325928	-0.466309	-0.808703	0.1058	0.273457	0.509928	5.85387	1.20056	9.06116	-0.0530696	0.0364249	0.0169414	-0.454102	0.158447	-0.925049	-0.0934743	-0.18612	0.0105254	0.978014	-3.47479	0.455599	9.20578	0.000357587	-0.0556667	-0.0271197	-0.00683594	0.0634766	-1.00732	-0.584487	0.202742	0.225281	0.752675	5.61755	0.92397	8.04447	-0.0187082	0.00568356	0.0152705	-0.593994	0.288086	-0.727783	-0.981632	-0.189524	-0.00410729	-0.0214819	-2.16219	3.17898	12.6578	0.0103943	0.0584747	-0.0221885	0.615234	-0.342773	-0.786133	-0.473441	0.528945	0.582895	0.395353	9.21885	-0.417012	-2.30218	-0.0156595	-0.00937354	-0.00569084	-0.883301	0.417969	0.157227	-0.917278	0.109318	0.250306	0.289824	5.73052	-0.581953	9.37155	-0.0176738	-0.0785873	-0.0325862	-0.244385	0.257324	-0.982178	-0.128953	0.0947701	0.981429	0.105772	2.46646	1.84815	-8.62875	0.00344362	-0.073035	-0.0408531	-0.639648	-0.137451	0.872559	-0.500508	0.530129	0.561143	0.391885	9.31802	-1.63172	-1.90224	-0.126182	0.00325098	-0.00270284	-0.912109	0.484375	0.154541	-0.640906	0.431636	0.561933	0.295231	9.41903	-2.87935	-0.0547798	-0.201216	0.0517787	-0.0436002	-0.928711	0.587402	-0.217041	
32	-0.53657	0.470576	0.446144	0.540006	9.68265	-0.197446	1.69591	-0.000753017	0.0163861	0.0185648	-0.821533	0.439941	-0.126953	-0.674315	0.320703	0.369594	0.553036	8.3568	-0.409029	5.0671	-0.0508788	-0.00785663	0.00185989	-0.603271	0.323975	-0.46167	-0.809259	0.106532	0.27117	0.510114	5.70188	1.24862	8.80718	-0.078958	0.0831695	0.0247134	-0.447754	0.166992	-0.92749	-0.0930907	-0.185253	0.0102597	0.978218	-3.43207	0.426438	9.08009	-0.0200487	-0.0625815	-0.0341107	-0.00927734	0.0678711	-1.00513	-0.585021	0.203185	0.224563	0.752355	5.56462	0.89632	8.01296	-0.0237455	0.022052	0.0213685	-0.593994	0.28833	-0.734863	-0.981565	-0.189847	-0.00467561	-0.0215937	-2.18547	3.17898	12.5973	0.0323975	0.0581057	-0.0171532	0.613281	-0.342773	-0.786133	-0.473392	0.529177	0.582933	0.395046	9.09513	-0.345896	-2.25003	0.0197094	-0.0140986	0.00261608	-0.883545	0.424561	0.154785	-0.916465	0.110502	0.251667	0.290765	5.84871	-0.639859	9.40406	-0.0545632	-0.0337992	-0.0496423	-0.246582	0.257568	-0.986816	-0.127864	0.0954473	0.981427	0.106494	3.00434	1.79267	-8.87887	-0.050957	-0.0243599	0.00853518	-0.63501	-0.137451	0.872559	-0.500539	0.530166	0.560916	0.392119	9.33001	-1.49165	-1.8733	-0.0158999	0.0308262	0.00462693	-0.909668	0.480225	0.156982	-0.641049	0.431581	0.561324	0.296158	9.30437	-2.68192	-0.0845846	0.096714	0.0355711	-0.0110712	-0.931152	0.591797	-0.214844	
33	-0.537069	0.4707	0.444881	0.540443	9.80144	-0.350558	1.7123	-0.0190848	0.0212519	0.0258954	-0.81958	0.442139	-0.131104	-0.673681	0.322201	0.36904	0.553308	8.61717	-0.28209	5.06298	0.0476717	-0.0243388	-0.00419038	-0.603516	0.326172	-0.46167	-0.809883	0.106856	0.268171	0.510642	5.79161	1.04243	8.57923	-0.0538728	0.108427	0.0045905	-0.447754	0.166992	-0.929688	-0.092422	-0.183442	0.00909332	0.978634	-3.46418	0.569367	8.963	-0.0616482	-0.0615325	-0.0302129	-0.00927734	0.0700684	-1.00952	-0.585786	0.203096	0.223451	0.752115	5.64605	1.00321	7.91002	-0.0294563	0.0367849	0.020694	-0.593994	0.288086	-0.723389	-0.981335	-0.190992	-0.00559518	-0.0217421	-2.20105	3.10522	12.5405	0.0593936	0.0453081	-0.0254881	0.617432	-0.342773	-0.781738	-0.472202	0.530629	0.582752	0.394789	9.5249	-0.537972	-2.42527	-0.0398369	-0.0367474	-0.00022274	-0.883545	0.424561	0.161133	-0.916203	0.111976	0.250715	0.291846	5.76499	-0.885361	9.44708	-0.0720371	0.057938	-0.0385769	-0.246826	0.261719	-0.982178	-0.127727	0.0967957	0.981358	0.106078	2.83485	1.52979	-8.89422	0.0542649	0.00163855	0.0481594	-0.648926	-0.135498	0.876953	-0.501271	0.529656	0.560972	0.391793	9.52333	-0.493654	-1.65502	0.00250107	0.00930964	0.0165139	-0.907471	0.480225	0.150146	-0.641782	0.430952	0.561044	0.296017	9.74192	-2.16307	-0.0202605	-0.0489169	0.0431203	0.000402904	-0.931152	0.593994	-0.219482	
34	-0.537041	0.471379	0.444381	0.540291	9.92483	-0.340938	1.65547	-0.0257692	-0.0146355	0.0174281	-0.819092	0.43335	-0.128906	-0.673545	0.322416	0.36941	0.553101	8.7056	-0.393062	5.1933	-0.0156982	-0.00400856	-0.0214551	-0.605469	0.323975	-0.46167	-0.810267	0.105787	0.26782	0.51044	5.6914	1.00121	8.6532	0.0682307	0.0073258	0.0112518	-0.449951	0.162842	-0.927246	-0.0926365	-0.182951	0.0086789	0.978709	-3.41828	0.643843	8.94739	0.0156963	0.010937	0.0140546	-0.0158691	0.0656738	-1.00732	-0.585894	0.204498	0.222428	0.751954	5.68898	1.06862	7.99767	-0.0713714	-0.0233692	0.00879832	-0.587402	0.290283	-0.720947	-0.981302	-0.191201	-0.00633057	-0.0211979	-2.0813	3.12395	12.7589	-0.0163287	0.0371404	-0.0458806	0.617676	-0.344971	-0.779541	-0.471343	0.531479	0.582441	0.395131	9.49669	-0.505107	-2.48344	-0.013411	-0.00294487	-0.0146397	-0.883545	0.426758	0.169678	-0.91628	0.11227	0.249509	0.292526	5.97151	-0.923804	9.31286	-0.0246506	0.0528286	-0.0292729	-0.244629	0.261719	-0.984619	-0.127921	0.0976879	0.981264	0.105897	2.6715	1.85647	-8.73416	0.0103683	0.0121317	0.0562322	-0.640137	-0.128418	0.870117	-0.501148	0.530381	0.560653	0.391428	9.56656	-1.32332	-1.60871	0.00659891	0.0075201	0.0323489	-0.909912	0.486572	0.152344	-0.643264	0.428785	0.561916	0.294287	9.53361	-2.10352	0.114311	0.137325	0.00792309	-0.00294907	-0.928711	0.5896	-0.219238	
35	-0.537002	0.472115	0.443319	0.54056	9.87056	-0.400374	1.61054	-0.047374	0.0131867	0.028542	-0.821777	0.442139	-0.12915	-0.673698	0.322266	0.369745	0.552779	8.64816	-0.506844	5.08663	0.0208169	0.0118079	-0.0162356	-0.601318	0.328369	-0.452393	-0.810167	0.105247	0.269247	0.50996	5.89839	1.42869	8.81765	0.0203571	-0.0433955	-0.00190431	-0.451904	0.160645	-0.931885	-0.0929418	-0.183528	0.0099828	0.97856	-3.53365	0.625053	9.05951	0.0504696	0.0253732	0.0242344	-0.0090332	0.0634766	-1.01172	-0.585568	0.205138	0.222691	0.751955	5.73947	0.924933	8.05345	0.0212768	-0.0212835	-0.0285282	-0.596436	0.294678	-0.723389	-0.981537	-0.190044	-0.00651268	-0.020644	-2.13802	2.98232	12.6921	-0.0310048	0.00707355	-0.0394173	0.621582	-0.338379	-0.781982	-0.471502	0.531404	0.582615	0.394785	9.50015	-0.745077	-2.30772	0.0573355	0.0023053	-0.0157042	-0.874756	0.424561	0.16333	-0.916573	0.111663	0.248193	0.292959	5.703	-0.908156	9.3371	0.0376892	0.084699	-0.0236105	-0.237793	0.253174	-0.979736	-0.128884	0.0992327	0.98078	0.107762	2.37332	1.58462	-8.70787	-0.0436353	0.0368184	-0.00294545	-0.646729	-0.135254	0.870117	-0.502187	0.529413	0.561126	0.390727	9.62092	-0.979456	-1.67319	0.0846293	0.0377461	-0.0144662	-0.907715	0.484619	0.149902	-0.643034	0.4289	0.562257	0.293972	9.74882	-2.09069	-0.00934568	-0.0133666	-0.0180242	-0.00450935	-0.924072	0.5896	-0.22168	
36	-0.536958	0.472618	0.442783	0.540603	9.71284	-0.496602	1.63915	-0.0107619	-0.012906	0.0103781	-0.821777	0.442139	-0.126953	-0.674254	0.321452	0.369889	0.552479	8.65336	-0.348324	5.21614	0.038522	0.0416283	-0.00911025	-0.607666	0.321777	-0.459229	-0.809602	0.107043	0.269411	0.510396	5.92926	1.0212	8.86417	-0.0561054	-0.031029	-0.0110789	-0.454102	0.165039	-0.929688	-0.0931664	-0.183676	0.010308	0.978507	-3.56235	0.674911	9.12377	0.0248205	0.0165367	0.0233433	-0.0114746	0.0700684	-1.00073	-0.585248	0.204801	0.223641	0.752015	5.61301	1.10423	8.07672	0.0134238	0.0047751	-0.0403509	-0.591797	0.290283	-0.723389	-0.981594	-0.189763	-0.00615433	-0.0206075	-2.11941	3.13168	12.7653	0.00257209	-0.00085792	-0.00752903	0.615234	-0.340576	-0.783936	-0.472314	0.530301	0.583397	0.394143	9.34708	-0.35004	-2.25514	0.0680667	0.017271	-0.0376407	-0.881104	0.417969	0.161377	-0.916753	0.110263	0.248395	0.292755	5.56341	-0.757955	9.08093	0.065168	0.0186324	-0.0237122	-0.242432	0.259521	-0.97998	-0.129225	0.0988015	0.980837	0.107224	2.38261	1.58847	-8.47364	0.032155	0.0147324	-0.0314733	-0.639893	-0.133057	0.872559	-0.502769	0.528473	0.5621	0.389851	9.46197	-0.530741	-1.81453	0.0466843	-0.0167586	-0.00770376	-0.912109	0.484375	0.147705	-0.64308	0.42831	0.562975	0.293356	9.70325	-1.90733	-0.108998	0.0167234	-0.00832357	-0.0181063	-0.930908	0.5896	-0.22168	
37	-0.53705	0.472732	0.442978	0.540252	9.76058	-0.494708	1.59841	0.0201093	-0.0270553	0.013092	-0.821777	0.441895	-0.124756	-0.674758	0.320886	0.369751	0.552285	8.58625	-0.255881	5.14871	0.0340571	0.0575984	-0.000152223	-0.605713	0.328125	-0.464111	-0.80952	0.106936	0.269725	0.510383	5.89911	0.992686	8.92093	0.0224992	-0.0125304	-0.00634446	-0.451904	0.160645	-0.929443	-0.0935867	-0.183682	0.00989236	0.978471	-3.49048	0.611838	9.25328	-0.018192	0.00548409	0.0137122	-0.0136719	0.0700684	-1.00732	-0.584961	0.204919	0.22344	0.752265	5.65664	0.906293	8.0882	-0.0282817	0.00850303	-0.0381827	-0.596436	0.29248	-0.720947	-0.981474	-0.19032	-0.00597616	-0.0212585	-2.34319	3.23249	12.7535	0.0306224	0.0153045	0.0166157	0.617432	-0.340576	-0.781982	-0.472345	0.530028	0.583754	0.393945	9.3013	-0.309621	-2.29474	0.047203	-0.00189045	-0.0360838	-0.87915	0.424561	0.161133	-0.916864	0.109893	0.24852	0.292441	5.58026	-0.722147	9.19802	0.0421099	0.0156635	-0.00136148	-0.240234	0.257568	-0.984619	-0.129159	0.0985752	0.980829	0.107588	2.29374	1.61588	-8.53845	-0.0225882	0.00528788	-0.0393539	-0.64209	-0.137695	0.874756	-0.502383	0.528675	0.562125	0.390038	9.52076	-0.786072	-1.82974	-0.0304997	-0.00559776	-0.00952734	-0.909912	0.486572	0.149902	-0.64245	0.429117	0.562676	0.29413	9.64516	-2.07625	-0.138937	-0.102675	0.00186576	-0.0127013	-0.933105	0.587402	-0.22168	
38	-0.537629	0.472363	0.443684	0.539419	9.9248	-0.37776	1.62599	0.0552834	-0.00933379	0.00337608	-0.81958	0.442139	-0.126953	-0.675607	0.32024	0.368976	0.552139	8.52976	-0.238374	5.12242	-0.00955488	0.0536497	-0.00032408	-0.603516	0.325928	-0.46875	-0.809915	0.10613	0.269971	0.509794	5.76958	1.30279	9.10175	0.0215867	0.0291137	0.022005	-0.449951	0.165039	-0.931885	-0.0939792	-0.18317	0.00865756	0.978541	-3.44697	0.381601	9.32628	-0.0435915	-0.00730521	0.00324535	-0.0136719	0.0678711	-1.00952	-0.585512	0.204098	0.22344	0.752059	5.57329	0.778194	8.07337	0.0438994	0.0461217	0.0117265	-0.594238	0.29248	-0.71875	-0.9813	-0.19108	-0.00638532	-0.0223191	-2.3097	3.30307	12.6483	0.0477712	0.0440141	0.0143899	0.619873	-0.347168	-0.779541	-0.472186	0.529836	0.584342	0.39352	9.34501	-0.476625	-2.33844	0.0239048	-0.0045204	-0.0269434	-0.889648	0.420166	0.165527	-0.916861	0.110105	0.24954	0.291501	5.756	-0.77129	9.18177	0.0180961	-0.0330731	0.0104361	-0.23999	0.255371	-0.982178	-0.128442	0.0975207	0.981107	0.10687	2.29153	1.60627	-8.68183	0.0653114	-0.029979	-0.0629668	-0.641846	-0.139893	0.868164	-0.500259	0.529952	0.561524	0.391895	9.37349	-0.90108	-1.93773	-0.0879476	-0.0157463	-0.0242654	-0.911865	0.482178	0.156982	-0.640609	0.431491	0.561625	0.296671	9.73355	-2.18091	-0.230638	-0.161887	0.0117644	-0.0254603	-0.926514	0.5896	-0.212402	
39	-0.538344	0.471884	0.443624	0.539174	9.82152	-0.288271	1.6691	0.0123807	0.0234534	0.0164515	-0.82373	0.439697	-0.124756	-0.676108	0.320069	0.368305	0.552073	8.56368	-0.421814	5.25181	-0.0145327	0.0456209	-0.00472495	-0.601318	0.326172	-0.46167	-0.810339	0.106491	0.268898	0.509613	5.74981	1.12526	9.01511	-0.0248773	0.0393317	0.0239582	-0.445801	0.169189	-0.929688	-0.0942061	-0.182759	0.00802286	0.978601	-3.42709	0.335481	9.1781	-0.00988535	-0.00738058	0.00332952	-0.013916	0.0744629	-1.00977	-0.586325	0.204065	0.22299	0.751569	5.64608	0.926759	8.02703	-0.0253785	0.00960532	0.0286841	-0.594238	0.294678	-0.728027	-0.981224	-0.191381	-0.00746861	-0.0227389	-2.23526	3.29337	12.6468	-0.00505409	0.0597487	-0.0125564	0.615234	-0.340576	-0.777588	-0.471903	0.529945	0.585043	0.392671	9.41764	-0.434136	-2.40788	0.0420636	-0.0319768	-0.0127154	-0.87915	0.424561	0.167725	-0.916472	0.110303	0.251154	0.291265	5.78825	-0.678595	9.33114	0.011351	-0.0685043	-0.0338592	-0.244385	0.257568	-0.986816	-0.127506	0.0966289	0.981393	0.106176	2.42564	1.86233	-8.61129	-0.00292825	-0.0309906	-0.0492092	-0.63501	-0.135254	0.874756	-0.500189	0.52952	0.561743	0.392254	9.51561	-1.2775	-1.92377	0.00359149	0.0143094	-0.0216675	-0.909668	0.480225	0.156982	-0.640136	0.431722	0.561519	0.297554	9.4053	-2.72748	-0.0350528	0.0916413	0.00580284	-0.0266866	-0.935547	0.591797	-0.214844	
40	-0.538641	0.472104	0.442671	0.539468	9.66349	-0.450902	1.69959	-0.0314138	0.0200345	0.0190814	-0.824219	0.446289	-0.12915	-0.676194	0.320115	0.367761	0.552304	8.47173	-0.409575	5.24821	-0.0401704	0.0509612	-0.0132556	-0.601318	0.328125	-0.464111	-0.810909	0.105928	0.267738	0.509432	5.73462	1.10435	8.89089	0.00622715	0.069552	0.0125066	-0.447754	0.166992	-0.932129	-0.094214	-0.182497	0.00803735	0.978649	-3.44144	0.425198	9.10595	0.00132113	-0.0145983	0.000785986	-0.00952148	0.0722656	-1.00317	-0.586914	0.204752	0.222069	0.751195	5.72372	0.906522	7.98802	-0.0340029	0.017641	0.0200378	-0.592041	0.297119	-0.730225	-0.981293	-0.191007	-0.00791835	-0.0227736	-2.18358	3.18193	12.6017	-0.0240086	0.049268	-0.0218516	0.619873	-0.347168	-0.777344	-0.470911	0.530843	0.585438	0.39206	9.24863	-0.312261	-2.3893	-0.019895	-0.051807	-0.00905405	-0.883301	0.422363	0.167725	-0.91595	0.111332	0.252316	0.291511	5.83865	-0.637482	9.35935	-0.0550783	-0.0250973	-0.023367	-0.250732	0.253174	-0.984375	-0.126755	0.0962349	0.98156	0.105886	2.71754	1.74584	-8.82	0.0345967	-0.0213524	-0.0260294	-0.634766	-0.14209	0.874756	-0.500645	0.528911	0.562075	0.392021	9.32742	-0.881534	-1.67026	0.0668583	0.0283233	-0.0160457	-0.909668	0.482422	0.152344	-0.640607	0.430922	0.561768	0.297228	9.58383	-2.37072	-0.0109167	0.0202634	0.0172728	-0.0085785	-0.928711	0.5896	-0.217041	
41	-0.538722	0.472716	0.441966	0.539429	9.70477	-0.532695	1.67727	-0.0208718	-0.00742341	0.0242533	-0.821777	0.444336	-0.12915	-0.675932	0.319756	0.367582	0.552952	8.54049	-0.350796	5.17642	0.000167911	0.0132412	-0.0377732	-0.603271	0.321777	-0.463867	-0.81119	0.105338	0.267082	0.509452	5.71119	1.11041	8.79767	0.0167804	0.0778556	0.003974	-0.445557	0.164795	-0.931885	-0.094332	-0.181814	0.00712797	0.978772	-3.44333	0.5608	9.02073	-0.0504465	-0.0146623	-0.00431653	-0.0180664	0.0656738	-1.00732	-0.587217	0.204873	0.221394	0.751125	5.7341	1.03109	8.02869	-0.0207734	0.0258016	-0.003627	-0.594238	0.294678	-0.725586	-0.981183	-0.191591	-0.00832723	-0.0224493	-2.16411	3.03978	12.6937	0.0385237	0.0176563	-0.0339378	0.619873	-0.347168	-0.779541	-0.470228	0.531318	0.585766	0.391746	9.36037	-0.553444	-2.47107	0.0269988	-0.0247006	-0.0267668	-0.87915	0.424561	0.174072	-0.915696	0.112184	0.252083	0.292179	5.95036	-0.89592	9.40282	0.00508684	0.0308814	-0.0356185	-0.250977	0.257324	-0.984375	-0.126633	0.0967758	0.981465	0.106418	2.82217	1.60884	-8.86966	-0.0156968	0.00794363	0.0083429	-0.641846	-0.139893	0.874756	-0.500831	0.528553	0.562531	0.391611	9.43877	-0.962858	-1.68889	0.042157	0.0075033	-0.00017902	-0.911865	0.47998	0.150146	-0.643473	0.426832	0.563434	0.293766	9.50987	-2.52235	0.206887	0.325951	0.0202636	0.00511333	-0.928467	0.585205	-0.223877	
42	-0.538693	0.473534	0.44141	0.539196	9.84507	-0.481687	1.5967	-0.0313515	-0.0153742	0.0277806	-0.81958	0.444336	-0.131348	-0.675544	0.319353	0.367963	0.553405	8.65987	-0.421579	5.09531	0.00340867	0.012478	-0.058061	-0.599121	0.328125	-0.46875	-0.811663	0.102881	0.265843	0.50985	5.69591	1.1894	8.69048	0.0473511	0.0525474	-0.0335119	-0.441406	0.171387	-0.932129	-0.0941364	-0.181661	0.00567145	0.978829	-3.49629	0.601791	8.9727	-0.0535326	0.0154479	-0.0197518	-0.0119629	0.0810547	-1.00757	-0.586904	0.204751	0.220852	0.751562	5.76543	0.984342	8.06229	-0.0149914	0.0186859	-0.0412128	-0.589844	0.294922	-0.728027	-0.981023	-0.192457	-0.0080145	-0.0221466	-2.14459	3.05905	12.7119	0.0390544	-0.0104382	-0.023213	0.619873	-0.344971	-0.775391	-0.469632	0.531357	0.586456	0.391377	9.42154	-0.415565	-2.53208	0.0157739	-0.0206492	-0.031404	-0.877197	0.426758	0.165527	-0.916139	0.111094	0.251092	0.292064	5.86527	-0.873711	9.48994	0.051264	0.0767864	-3.03181e-05	-0.248535	0.25293	-0.977295	-0.127823	0.0971396	0.981287	0.106302	2.82121	1.80167	-8.88009	-0.00900319	0.062518	-0.00727437	-0.639648	-0.135254	0.872559	-0.503439	0.526128	0.564339	0.388922	9.78869	-1.50778	-1.64682	0.245291	0.0368514	0.00230126	-0.909668	0.482422	0.143311	-0.648333	0.419725	0.567032	0.286305	9.65696	-2.27809	0.0976701	0.485841	-0.0275134	0.0299093	-0.926025	0.580811	-0.244141	
43	-0.538026	0.474595	0.440716	0.539497	9.86311	-0.515003	1.54593	-0.0626465	-0.0187245	0.000754069	-0.820068	0.450684	-0.126953	-0.675577	0.317369	0.369175	0.553699	8.68129	-0.265583	5.21846	0.0823446	0.0392569	-0.0746368	-0.599121	0.32373	-0.46875	-0.81128	0.101565	0.266148	0.510563	5.79523	1.18203	8.73921	0.0479517	0.0146001	-0.0478517	-0.439209	0.1604	-0.934082	-0.0937468	-0.182454	0.004806	0.978723	-3.55115	0.558371	9.02293	-0.0167192	0.0465306	-0.0221737	-0.0141602	0.0766602	-1.00537	-0.586593	0.20439	0.221087	0.751834	5.81647	0.981102	8.06816	0.0195981	0.0168354	-0.0561957	-0.592285	0.299316	-0.730225	-0.98096	-0.192844	-0.00677326	-0.0219774	-2.15697	3.12587	12.7509	0.0128952	-0.0484262	-0.00909282	0.613281	-0.342773	-0.781738	-0.470486	0.530083	0.586943	0.391348	9.39594	-0.520036	-2.26443	0.0789548	0.0510005	-0.0565827	-0.883057	0.413574	0.172119	-0.917364	0.108519	0.249533	0.290518	6.04344	-0.809847	9.36371	0.118796	0.134459	0.0331584	-0.23999	0.255371	-0.986816	-0.129221	0.0974342	0.980821	0.108626	2.74551	1.72827	-9.00945	-0.0826342	0.0729945	-0.00391544	-0.644287	-0.139893	0.876953	-0.508059	0.521534	0.567418	0.384597	9.58088	-0.589711	-1.52548	0.336111	0.0181263	-0.00558689	-0.911865	0.47998	0.134033	-0.65323	0.412032	0.571299	0.277736	9.7974	-1.86164	0.153789	0.489871	-0.0497766	0.026905	-0.935059	0.578613	-0.250977	
44	-0.536793	0.475564	0.440193	0.540298	9.89213	-0.587543	1.49393	-0.0665437	-0.0149062	-0.0279114	-0.81958	0.444092	-0.122559	-0.675678	0.315057	0.369792	0.554484	8.67333	-0.233989	5.16048	0.055795	0.0669133	-0.0822014	-0.596436	0.315186	-0.470703	-0.810638	0.0995217	0.267539	0.511257	5.80602	1.2212	8.86809	0.102398	-0.0107745	-0.0631649	-0.443359	0.160645	-0.934082	-0.0934096	-0.183887	0.00441013	0.978489	-3.55682	0.507539	9.16979	-0.0103226	0.0713255	-0.0124772	-0.0163574	0.0788574	-1.00977	-0.585556	0.201415	0.223379	0.752767	5.78636	1.12326	8.21403	0.0889985	0.0321859	-0.0847592	-0.593994	0.28833	-0.730225	-0.980924	-0.193084	-0.00460407	-0.0220418	-2.17179	3.21154	12.8525	0.0138321	-0.0776653	0.00631778	0.611084	-0.344971	-0.783936	-0.470787	0.528574	0.588343	0.390925	9.4916	-0.235505	-2.4789	0.0800725	0.0117398	-0.0667342	-0.883301	0.422363	0.167725	-0.918798	0.105772	0.246502	0.289584	5.76237	-0.576049	9.45404	0.0714682	0.170612	0.0243418	-0.229004	0.246582	-0.989014	-0.131551	0.0979535	0.980297	0.11008	2.64244	1.68526	-8.70132	-0.0417013	0.113756	0.000321752	-0.646484	-0.14209	0.863525	-0.512428	0.517312	0.570413	0.380047	9.48389	-1.23559	-1.81723	0.365701	0.021175	0.000187873	-0.907471	0.482422	0.127197	-0.659079	0.402484	0.576487	0.266992	9.66746	-2.21395	-0.0102214	0.738751	-0.0747891	0.0356945	-0.927979	0.572021	-0.264648	
45	-0.535829	0.475432	0.43996	0.54156	9.83934	-0.440619	1.47783	-0.0347209	0.0172138	-0.0495732	-0.821777	0.439697	-0.120361	-0.675649	0.312663	0.37063	0.555315	8.50661	-0.124937	5.21527	0.0501766	0.0541231	-0.0974545	-0.594238	0.310791	-0.4729	-0.810304	0.0983166	0.268513	0.511509	5.75953	1.3715	8.93164	0.113819	-0.0137693	-0.0623329	-0.447754	0.15625	-0.938477	-0.0929368	-0.185777	0.00374322	0.97818	-3.56167	0.443943	9.23968	-0.025444	0.0893554	-0.0268392	-0.00952148	0.0766602	-1.00757	-0.585164	0.200208	0.223881	0.753244	5.73768	1.08269	8.19665	0.0702321	0.0572374	-0.090438	-0.5896	0.286133	-0.730225	-0.980839	-0.193495	-0.00182989	-0.022599	-2.14737	3.28463	12.7927	0.0256198	-0.0944295	0.0321509	0.609131	-0.351318	-0.783691	-0.471341	0.527063	0.588954	0.391377	9.23064	-0.219654	-2.40772	0.0465155	0.0506286	-0.0676753	-0.885498	0.420166	0.169922	-0.920283	0.103589	0.243821	0.287924	5.58615	-0.592412	9.22809	0.0775967	0.146764	0.0524521	-0.219971	0.242432	-0.991211	-0.132865	0.0979016	0.980031	0.110914	2.46704	1.67235	-8.67298	-0.0522563	0.117972	-0.0163013	-0.655762	-0.14209	0.861328	-0.51826	0.511393	0.574144	0.37449	9.5449	-0.72533	-1.75417	0.418844	0.0415756	-0.00722005	-0.912109	0.482178	0.113525	-0.661909	0.397639	0.579149	0.26143	9.56587	-1.91026	-0.169828	0.662306	-0.0784014	0.0394203	-0.929932	0.567383	-0.271484	
46	-0.535045	0.474882	0.439906	0.542859	9.9037	-0.267554	1.59932	-0.0282437	0.0237136	-0.057571	-0.825928	0.439697	-0.124756	-0.675649	0.312663	0.37063	0.555315	8.50661	-0.124937	5.21527	0.0501766	0.0541231	-0.0974545	-0.594238	0.310791	-0.4729	-0.809635	0.0966115	0.269272	0.512493	5.75194	1.41638	8.92888	0.0371989	0.0182686	-0.0667691	-0.445557	0.154053	-0.938477	-0.0925564	-0.187946	0.00175139	0.977807	-3.60728	0.366779	9.1863	-0.0708767	0.107237	-0.0288848	0.00341797	0.0854492	-1.01221	-0.584929	0.196999	0.22429	0.754151	5.66454	1.01838	8.151	0.0762238	0.113756	-0.0692057	-0.587158	0.281738	-0.730225	-0.980422	-0.195506	0.000869598	-0.0234181	-2.03031	3.31841	12.7708	0.0900099	-0.0807693	0.0349157	0.609375	-0.355713	-0.783691	-0.470887	0.526433	0.589553	0.391868	9.41641	-0.241939	-2.38858	-0.00383002	-0.00477311	-0.0579628	-0.887451	0.415771	0.165771	-0.92096	0.102624	0.242547	0.28718	5.49747	-0.616282	9.18933	0.0656341	0.139143	0.0430827	-0.226807	0.246582	-0.989014	-0.135127	0.0979221	0.979749	0.110655	2.23614	1.79715	-8.49276	0.0463895	0.0895945	0.00812166	-0.651123	-0.139893	0.861328	-0.521764	0.50827	0.576302	0.370539	9.4726	-0.395834	-1.68891	0.200731	0.0213418	0.0183737	-0.907715	0.486816	0.111084	-0.666093	0.390739	0.58267	0.253258	9.61582	-1.97912	-0.0870378	0.4614	-0.0492177	0.0358656	-0.929932	0.562988	-0.278076	
47	-0.534646	0.474542	0.439741	0.543683	9.96308	-0.220674	1.65547	-0.0363835	0.0353994	-0.0604523	-0.821777	0.444092	-0.122559	-0.675269	0.309032	0.371694	0.557095	8.65368	-0.0870556	5.19997	0.0392868	0.0549306	-0.0922097	-0.596191	0.304199	-0.477295	-0.809236	0.0943075	0.269968	0.513186	5.82994	1.31343	8.94491	0.116568	0.0289694	-0.0531536	-0.440918	0.145264	-0.940674	-0.0924131	-0.189147	0.000931645	0.97759	-3.68045	0.362549	9.14902	-0.0507963	0.10937	-0.0219203	0.0012207	0.0810547	-1.00977	-0.585222	0.19395	0.224403	0.75468	5.39191	1.16886	8.04841	0.0607663	0.0957649	-0.0429466	-0.591064	0.272949	-0.734619	-0.980294	-0.196077	0.00182733	-0.0239565	-1.99998	3.27511	12.6646	0.0496438	-0.0560285	0.0399061	0.602783	-0.353516	-0.785889	-0.470343	0.526427	0.589733	0.392258	9.41666	-0.318385	-2.47983	-0.019898	-0.00572751	-0.0567335	-0.887207	0.411621	0.165771	-0.921657	0.101625	0.241168	0.28646	5.53095	-0.446712	9.10124	0.012483	0.0630005	0.00626401	-0.224365	0.242432	-0.996094	-0.13674	0.0976539	0.979608	0.110154	1.91042	1.8048	-8.42783	0.0441217	0.0613204	-0.0303588	-0.655762	-0.139893	0.859131	-0.522068	0.508121	0.576403	0.370158	9.40669	-0.664855	-1.64055	0.0410321	0.0101554	0.0160716	-0.907959	0.48877	0.104248	-0.668677	0.38667	0.584546	0.248323	9.57275	-2.02416	0.0627964	0.208445	-0.01192	0.028606	-0.929932	0.565186	-0.289551	
48	-0.533922	0.473341	0.439663	0.545502	9.91079	-0.249575	1.74064	-0.00841357	0.0490135	-0.0788892	-0.821533	0.439941	-0.122559	-0.675026	0.307607	0.371905	0.558036	8.50396	-0.0231266	5.30636	0.0211443	0.0415124	-0.0647936	-0.604492	0.297607	-0.477051	-0.809262	0.0913031	0.271668	0.512792	5.84686	1.71228	9.16126	0.116957	0.0045386	-0.0160631	-0.442871	0.136719	-0.937988	-0.0922403	-0.191319	-8.61088e-06	0.977184	-3.75048	0.34394	9.10814	-0.0265838	0.094779	-0.0121713	0.0078125	0.0854492	-1.01001	-0.585859	0.19212	0.223876	0.75481	5.272	1.10628	7.94881	0.0295838	0.0748304	0.00250228	-0.58252	0.277344	-0.737061	-0.980057	-0.197108	0.00282193	-0.025079	-1.85814	3.32494	12.5804	0.0475657	-0.00371306	0.0301184	0.598633	-0.355713	-0.783447	-0.469027	0.526526	0.589988	0.393316	9.34043	-0.351142	-2.42919	-0.0272772	-0.001316	-0.0541473	-0.884766	0.407227	0.172363	-0.921579	0.102035	0.241863	0.285979	5.58492	-0.675833	9.13812	0.00286043	-0.0367642	-0.00126549	-0.222168	0.242432	-0.986572	-0.136941	0.0963521	0.979699	0.110239	2.15112	1.82326	-8.57968	-0.0017691	0.000999077	-0.071435	-0.658203	-0.139893	0.859131	-0.521534	0.508906	0.575578	0.371116	9.70088	-0.839016	-1.88921	-0.0610111	0.0180945	0.00796045	-0.912109	0.484375	0.111328	-0.668677	0.38667	0.584546	0.248323	9.57275	-2.02416	0.0627964	0.208445	-0.01192	0.028606	-0.929932	0.565186	-0.289551	
49	-0.534152	0.471523	0.440495	0.546179	9.72806	-0.225736	1.77771	0.073033	0.0296675	-0.0560401	-0.825928	0.435547	-0.131104	-0.675578	0.30662	0.372595	0.557451	8.44759	0.0232495	5.28805	0.0155106	0.027347	-0.011419	-0.600342	0.299805	-0.484375	-0.80933	0.0917253	0.270832	0.513051	5.83396	1.58265	9.1115	-0.0740969	0.0282466	0.0122475	-0.442871	0.134521	-0.937988	-0.0924634	-0.191673	-0.000943154	0.977093	-3.7203	0.277954	9.05588	-0.0346097	0.00542451	0.00452881	0.000976562	0.0854492	-1.00562	-0.58666	0.191517	0.223554	0.754437	5.23069	1.21439	7.93254	-0.000749428	0.0252533	0.0182883	-0.578125	0.275146	-0.746094	-0.979918	-0.197694	0.00248212	-0.0259069	-1.83862	3.32756	12.4944	0.0198467	0.0417512	0.00760078	0.598633	-0.355713	-0.785645	-0.467883	0.526603	0.590205	0.39425	9.24225	-0.198278	-2.54522	-0.0359361	-0.0104705	-0.0558215	-0.886963	0.407227	0.172363	-0.921271	0.10171	0.243263	0.2859	5.404	-0.508843	9.33896	0.0283314	-0.0431286	-0.0414449	-0.224609	0.244629	-0.993652	-0.13561	0.0957294	0.980003	0.109729	2.4098	1.83322	-8.44412	0.0296855	-0.058826	-0.0404906	-0.653564	-0.139893	0.870361	-0.518504	0.512078	0.573242	0.374598	9.52531	-0.617126	-1.98019	-0.280023	0.013849	0.0123155	-0.905518	0.486816	0.113525	-0.662559	0.397961	0.579304	0.258938	9.64757	-1.23871	-0.507459	-0.75365	0.0477828	-0.0229511	-0.930176	0.571777	-0.269287	
50	-0.535233	0.469497	0.441783	0.545826	9.67371	0.0751836	1.80209	0.0948711	0.0268549	-0.0183192	-0.821533	0.439941	-0.135498	-0.675766	0.306953	0.372604	0.557034	8.46068	0.121144	5.21134	-0.0114739	-0.0016776	0.00119128	-0.600342	0.302002	-0.481934	-0.809988	0.0924366	0.269014	0.512842	5.66012	1.33327	9.01782	-0.0233538	0.0646394	0.0393253	-0.438965	0.151855	-0.940674	-0.0928765	-0.190305	-0.00163752	0.97732	-3.64975	0.240467	9.04903	-0.0346474	-0.0599823	0.00956733	0.00561523	0.0854492	-1.01001	-0.587318	0.19228	0.222875	0.753932	5.53762	1.13751	7.94522	-0.0395064	-0.00506574	0.0314636	-0.578369	0.277344	-0.739258	-0.979881	-0.197846	0.00149689	-0.0262483	-2.00248	3.20253	12.5854	0.0198966	0.0549748	-0.0225867	0.605225	-0.35791	-0.790039	-0.466083	0.528131	0.589544	0.395324	9.43488	-0.0855099	-2.40165	-0.102973	-0.0188146	-0.000359338	-0.886963	0.407227	0.182861	-0.920198	0.102881	0.245755	0.286803	5.40204	-0.334239	9.24824	-0.0483153	-0.0991252	-0.0637287	-0.226562	0.240234	-0.989014	-0.133216	0.0956506	0.980373	0.109423	2.40508	1.69075	-8.6356	0.031645	-0.0969939	-0.0198625	-0.650879	-0.146729	0.865967	-0.512833	0.518132	0.568319	0.381517	8.81556	-1.63576	-1.66519	-0.503642	0.011158	0.0251223	-0.914062	0.477783	0.127441	-0.656048	0.40992	0.572594	0.271482	8.85311	-5.06638	0.136648	-0.327165	0.109645	-0.0185375	-0.93042	0.578613	-0.253418	
51	-0.535853	0.469236	0.441667	0.545536	9.72636	0.067264	1.79145	-0.0113238	0.00336843	0.0187875	-0.825684	0.43335	-0.133301	-0.674952	0.308006	0.372159	0.557737	8.34317	0.0851623	5.20882	-0.0639343	-0.0074908	-0.0261176	-0.604736	0.304199	-0.479736	-0.811267	0.0913986	0.26712	0.511995	5.44704	1.60884	8.8412	-0.00220316	0.111321	0.0478251	-0.43457	0.143066	-0.94043	-0.0924264	-0.188419	-0.00188059	0.977728	-3.72808	0.324333	8.96836	-0.00465775	-0.0695734	-0.0332597	0.000732422	0.092041	-1.00781	-0.587795	0.193194	0.222306	0.753494	5.45423	1.15247	8.01356	-0.0317652	-0.00963156	0.0299606	-0.580566	0.281738	-0.737061	-0.979908	-0.197723	0.00027878	-0.026174	-1.92005	3.26035	12.5938	-0.00398317	0.0620595	-0.030407	0.607422	-0.360107	-0.78125	-0.464537	0.53032	0.588183	0.396241	8.98635	-0.579689	-2.39453	-0.0925622	-0.0243872	0.0293819	-0.893555	0.40918	0.176514	-0.918575	0.105188	0.247493	0.28966	5.85093	-0.559165	9.60372	-0.0977797	-0.086402	-0.117623	-0.235107	0.240234	-0.986572	-0.132045	0.0978005	0.98033	0.109331	3.28489	2.23824	-8.73355	-0.0811474	-0.0298161	0.089267	-0.641846	-0.139893	0.868164	-0.511419	0.51979	0.567113	0.382951	9.43832	-1.8775	-1.91886	0.0245862	0.0695248	-0.00353315	-0.909912	0.486572	0.13623	-0.656716	0.409492	0.572	0.271765	9.50543	-2.12144	0.225497	-0.134197	0.0548249	0.023052	-0.928467	0.583008	-0.251221	
52	-0.535244	0.47023	0.440552	0.546179	9.91774	-0.221751	1.80425	-0.0774103	-8.80288e-06	0.00552877	-0.823486	0.431152	-0.133301	-0.674269	0.308666	0.371976	0.55832	8.59393	-0.257561	5.17776	-0.0438752	-0.00525854	-0.0289554	-0.600586	0.306396	-0.470459	-0.811691	0.0919225	0.26451	0.512584	5.62272	1.44707	8.78471	-0.0731176	0.0620416	-0.00394777	-0.432373	0.143066	-0.942871	-0.0916666	-0.186931	-0.00284646	0.978083	-3.74586	0.347383	8.88834	-0.0368535	-0.0393229	-0.0341438	-0.00341797	0.0876465	-1.01221	-0.588227	0.19421	0.222001	0.752985	5.4956	1.18396	8.01646	-0.0195075	-0.0241571	0.0172736	-0.576172	0.281738	-0.741699	-0.979748	-0.198585	-0.00119808	-0.0256198	-1.90765	3.23268	12.6793	0.0497696	0.0642163	-0.0582146	0.607178	-0.355713	-0.785645	-0.463293	0.531706	0.588348	0.395593	9.77453	-0.331347	-2.47932	-0.00105499	-0.0366898	-0.0098063	-0.88916	0.405029	0.178711	-0.91746	0.106561	0.246347	0.293642	5.5876	-0.565636	9.76081	-0.0998653	0.0684615	-0.142185	-0.235352	0.248779	-0.989014	-0.131841	0.101312	0.979724	0.111784	3.04745	1.59037	-9.27045	-0.092231	-0.0065067	0.105205	-0.65332	-0.142334	0.870361	-0.513596	0.517614	0.567894	0.381827	9.7667	-0.372967	-1.35413	0.127978	0.056817	0.00924857	-0.910156	0.490967	0.124756	-0.657745	0.408238	0.572317	0.270495	9.82924	-1.68676	-0.00617416	0.0973061	0.0117232	0.000107247	-0.92627	0.583008	-0.255615	
53	-0.534944	0.470693	0.440088	0.546449	9.9387	-0.338792	1.80369	-0.0606093	-0.00464442	0.00698244	-0.823486	0.435547	-0.131104	-0.67426	0.308786	0.372059	0.558208	8.8087	-0.19007	5.39282	-0.00872492	0.00229358	-0.0127157	-0.606934	0.302002	-0.481934	-0.811574	0.0919804	0.264564	0.512731	5.64786	1.29442	8.83846	-0.00289031	-0.0021812	-0.0128389	-0.432373	0.147217	-0.940674	-0.0909386	-0.186682	-0.00172312	0.978201	-3.61165	0.387303	9.09464	0.0765798	0.000513145	-0.0165451	-0.00585938	0.0898438	-1.00781	-0.588126	0.19491	0.22203	0.752875	5.57676	1.3018	8.08626	-0.0330017	-0.0402538	-0.00433213	-0.587402	0.28833	-0.743896	-0.979954	-0.197683	-0.00255029	-0.0246112	-1.99051	3.30829	12.751	-0.0527383	0.0562989	-0.0687337	0.607178	-0.355713	-0.781494	-0.463293	0.531706	0.588348	0.395593	9.77453	-0.331347	-2.47932	-0.00105499	-0.0366898	-0.0098063	-0.88916	0.405029	0.178711	-0.917101	0.107361	0.245528	0.295154	5.79632	-1.0351	9.65832	-0.106804	0.0637114	-0.115258	-0.237793	0.253174	-0.979736	-0.131791	0.102772	0.979591	0.111674	2.81431	1.61949	-9.0655	-0.00348289	-0.0110989	0.0985058	-0.646484	-0.139893	0.861328	-0.512126	0.52014	0.566238	0.382826	9.66815	-0.980028	-1.54491	-0.209788	0.000241262	0.0626092	-0.912354	0.490967	0.131592	-0.656967	0.409798	0.571489	0.271774	9.74094	-2.24109	0.214229	-0.181125	0.0237715	0.00896646	-0.923828	0.578613	-0.253418	
54	-0.535147	0.471926	0.439732	0.545471	9.8345	-0.24725	1.71733	0.00183565	-0.0211366	0.0372691	-0.819092	0.43335	-0.128906	-0.674136	0.30875	0.371216	0.558939	8.48361	0.126826	5.40377	-0.0277139	0.0359711	-0.0275371	-0.600342	0.304199	-0.475098	-0.811034	0.0924405	0.265814	0.512855	5.63918	1.55929	9.06736	-0.0177282	-0.0566856	-0.013457	-0.43457	0.147461	-0.940674	-0.0900586	-0.186772	-1.1919e-05	0.978267	-3.55441	0.245835	9.20714	0.0705687	0.00118699	-0.0272303	-0.00317383	0.0810547	-1.00757	-0.587018	0.197701	0.221457	0.75318	5.63213	1.01124	8.25851	-0.103846	-0.0793848	-0.0288341	-0.587402	0.286133	-0.734863	-0.980275	-0.196194	-0.00335892	-0.0236077	-2.18159	3.34683	12.7479	-0.0413582	0.0321786	-0.0554695	0.609375	-0.353516	-0.783691	-0.463026	0.532783	0.585886	0.398103	9.33186	-0.29833	-2.32371	-0.0567386	0.0282033	0.0306652	-0.886963	0.407227	0.182861	-0.917612	0.103404	0.2447	0.295663	5.50048	-0.536088	9.33956	0.102752	0.0726144	-0.0307307	-0.237549	0.246582	-0.986572	-0.131763	0.104214	0.979421	0.111855	2.80914	1.69343	-8.74717	-0.0264093	-0.0066347	0.0953486	-0.648926	-0.135498	0.872559	-0.511078	0.522498	0.563995	0.384324	9.48654	-1.44757	-1.76396	-0.059026	0.0285214	0.038179	-0.910156	0.493164	0.124756	-0.655465	0.412189	0.570562	0.273723	9.5408	-2.41366	0.135251	-0.12419	0.000977881	-0.00187261	-0.92627	0.587402	-0.249023	
55	-0.535049	0.472073	0.439564	0.545577	9.82534	-0.194653	1.72884	-0.0205182	-0.00241551	0.00057356	-0.823486	0.435547	-0.131104	-0.673831	0.308839	0.370814	0.559524	8.41287	0.106319	5.33245	-0.0573264	0.038097	-0.0526873	-0.602539	0.302002	-0.474854	-0.810787	0.0950887	0.26458	0.5134	5.51299	1.41549	9.05883	-0.130809	0.00792733	0.0217613	-0.432373	0.149414	-0.936035	-0.0893928	-0.186723	0.000502987	0.978337	-3.61439	0.294915	9.19643	0.0514472	-0.00204323	-0.0442555	-0.00756836	0.0788574	-1.00757	-0.586817	0.198415	0.222648	0.752799	5.41098	0.894625	8.3762	0.0607125	-0.0252715	-0.00628238	-0.589355	0.283936	-0.732422	-0.980275	-0.196194	-0.00335892	-0.0236077	-2.18159	3.34683	12.7479	-0.0413582	0.0321786	-0.0554695	0.609375	-0.353516	-0.783691	-0.463122	0.533316	0.585354	0.398061	9.22289	-0.668075	-2.317	-0.0147391	0.0158894	0.035501	-0.883057	0.413574	0.180664	-0.917559	0.103784	0.244276	0.296048	5.40877	-0.261042	9.29409	-0.0412757	0.041445	-0.0367522	-0.235352	0.246582	-0.984375	-0.133332	0.105847	0.979141	0.110918	2.43079	1.66841	-8.57212	0.0395329	0.0392454	0.00911621	-0.651611	-0.130859	0.861084	-0.511456	0.522351	0.563924	0.384126	9.54752	-1.05899	-1.6449	0.0296699	0.0267416	0.0176128	-0.907715	0.486816	0.129395	-0.654026	0.414434	0.569744	0.275475	9.83333	-2.03778	-0.172403	-0.129359	0.0087053	-0.00929742	-0.921631	0.585205	-0.241943	
56	-0.534076	0.47225	0.439181	0.546683	9.99727	-0.23925	1.77504	-0.0513819	0.00535467	-0.0406065	-0.825928	0.435547	-0.128906	-0.673691	0.309488	0.36963	0.560117	8.57825	-0.23367	5.48777	-0.0619932	0.0358318	0.00461859	-0.600586	0.306396	-0.479736	-0.811194	0.0952154	0.264229	0.512914	5.75453	1.35543	9.12276	0.0488895	0.0123071	0.0239467	-0.432617	0.153809	-0.936279	-0.0887166	-0.186398	-0.000245499	0.978461	-3.76669	0.133002	9.20898	-0.0442701	-0.00528673	-0.023597	-0.000976562	0.083252	-1.00757	-0.587691	0.197691	0.222715	0.752287	5.34946	1.17393	8.24634	0.00419768	0.0375463	0.0171561	-0.589355	0.283936	-0.730225	-0.98003	-0.197363	-0.0041674	-0.0239211	-1.97004	3.53011	12.6677	0.0788235	0.0360387	-0.000422629	0.607178	-0.355713	-0.779297	-0.462635	0.534052	0.585508	0.397414	9.53674	-0.322625	-2.42974	0.00727751	-0.034557	-0.0104645	-0.88916	0.407227	0.189209	-0.917162	0.106708	0.243144	0.297167	5.59984	-0.72656	9.19396	-0.158144	0.0247658	-0.0348209	-0.229004	0.248779	-0.986816	-0.133345	0.106268	0.979056	0.111246	2.37689	1.71892	-8.5886	-0.0263842	0.00604289	0.0128739	-0.651367	-0.133057	0.863525	-0.510107	0.523907	0.563042	0.385093	9.57804	-0.317632	-1.60344	-0.14197	-0.0121142	0.0193232	-0.914551	0.48877	0.140869	-0.650206	0.420682	0.566235	0.2822	9.77194	-1.82749	0.126523	-0.534694	0.081261	-0.0329364	-0.926514	0.5896	-0.237549	
57	-0.534409	0.471646	0.438959	0.547059	10.2178	-0.273209	1.85294	0.0327586	0.0357808	0.00269111	-0.827881	0.433105	-0.122559	-0.674181	0.310561	0.368442	0.559716	8.66944	-0.235957	5.53833	-0.0564033	0.0240511	0.035192	-0.602783	0.310791	-0.475342	-0.81117	0.0949935	0.264994	0.512599	5.67934	1.58031	9.34395	-0.00721642	-0.0252859	0.000329828	-0.43457	0.151611	-0.936279	-0.0887716	-0.185715	-0.000242756	0.978585	-3.64487	0.0828066	9.19782	0.0239323	-0.0303979	0.0116366	-0.0078125	0.0854492	-1.01001	-0.587484	0.198616	0.221528	0.752556	5.46558	1.12029	8.12522	-0.0846357	-0.0100752	-0.0206285	-0.5896	0.28833	-0.734863	-0.979989	-0.197544	-0.00512652	-0.0239143	-2.10138	3.49359	12.6148	-0.0182941	0.0515102	-0.0367067	0.61377	-0.355713	-0.7771	-0.461962	0.534999	0.58512	0.397494	9.62539	-0.42826	-2.47831	-0.0305535	-0.0177734	0.0046253	-0.880615	0.411377	0.187012	-0.916723	0.107836	0.244377	0.297104	5.59689	-1.16835	9.23511	0.0462383	-0.0724977	-0.00414457	-0.235352	0.248779	-0.981934	-0.13188	0.105166	0.97936	0.111359	2.14693	1.69797	-8.52189	0.00450085	-0.0565158	-0.113168	-0.646729	-0.133057	0.865723	-0.505736	0.527876	0.559372	0.390745	9.92	-0.701663	-1.57529	-0.41183	0.0603352	-0.0236777	-0.905518	0.486816	0.143066	-0.643419	0.429705	0.561229	0.293917	10.0776	-2.01619	-0.25709	-0.684557	0.0696559	-0.120056	-0.928955	0.593994	-0.223877	
58	-0.536181	0.470795	0.438624	0.546325	9.89284	-0.199296	1.83378	0.0577575	0.0414794	0.0449174	-0.821533	0.437744	-0.133301	-0.674668	0.311994	0.36746	0.558978	8.55852	-0.105678	5.51451	-0.0614508	0.00468225	0.0489355	-0.600586	0.308594	-0.477539	-0.81075	0.0981084	0.264486	0.51294	5.67447	1.25989	9.44434	-0.12833	-0.0468346	0.0246705	-0.437012	0.162598	-0.931885	-0.0889265	-0.184063	0.00179883	0.978882	-3.47383	0.206903	9.40198	0.0872709	-0.0796703	0.0161599	-0.0183105	0.0722656	-1.00977	-0.586571	0.201419	0.220282	0.752888	5.66031	0.736563	8.1878	-0.103771	-0.0592729	-0.00877686	-0.592041	0.292725	-0.730225	-0.980316	-0.196006	-0.00630062	-0.0228756	-2.33154	3.36678	12.742	-0.0649999	0.0525033	-0.0722461	0.613525	-0.349365	-0.777344	-0.461606	0.535678	0.584704	0.397607	9.43056	-0.480132	-2.48396	-0.00420001	0.00463591	-0.0035326	-0.882812	0.409424	0.187256	-0.916627	0.104384	0.24942	0.294429	5.55041	-0.521756	9.49842	0.225317	-0.156365	0.0171582	-0.239502	0.244385	-0.986572	-0.128751	0.101923	0.980173	0.110885	2.30673	1.85892	-8.71974	0.0289677	-0.127767	-0.152583	-0.644287	-0.139893	0.874756	-0.499257	0.533495	0.554761	0.397952	9.2561	-1.34735	-1.95615	-0.458283	0.0137136	-0.0198106	-0.909668	0.480225	0.156982	-0.635477	0.439545	0.555938	0.306434	9.44804	-3.07525	0.0731727	-0.696304	0.0656654	-0.0973905	-0.928955	0.593994	-0.198975	
59	-0.538303	0.470562	0.437215	0.545568	9.58161	-0.276921	1.7539	0.0156148	0.066498	0.0846957	-0.821533	0.439941	-0.14209	-0.67429	0.314698	0.365568	0.559158	8.07681	-0.201532	5.02663	-0.151267	-0.00280065	0.0219023	-0.598877	0.321533	-0.475586	-0.811163	0.100582	0.261975	0.513095	5.35576	1.26429	9.04263	-0.135135	0.0764304	0.0410601	-0.437012	0.164795	-0.943359	-0.0876505	-0.18147	0.00338906	0.979477	-3.41232	0.284296	9.30544	0.0392902	-0.107705	-0.0568228	-0.00952148	0.0744629	-1.01196	-0.586751	0.202058	0.220035	0.752649	5.55835	0.722662	8.06986	-0.00428149	0.0154314	0.00852759	-0.587402	0.28833	-0.727783	-0.980431	-0.195447	-0.00774004	-0.0222698	-2.3827	3.2621	12.5804	0.013048	0.0692479	-0.0453099	0.622314	-0.351318	-0.779541	-0.460667	0.537256	0.584544	0.3968	8.69582	-0.287146	-2.39607	-0.0183887	-0.0678405	0.0341996	-0.878662	0.413574	0.193359	-0.915185	0.10617	0.252977	0.29524	5.96992	-0.0588775	9.37871	-0.133199	-0.106941	-0.0762	-0.250488	0.246582	-0.984375	-0.126347	0.101426	0.9806	0.110326	3.18459	1.84564	-8.45599	0.0219871	-0.0636692	-0.010558	-0.639648	-0.137695	0.876953	-0.497014	0.535214	0.553534	0.400152	9.09882	-2.21757	-1.84138	-0.0268707	0.00435345	-0.0134681	-0.907471	0.480225	0.156982	-0.633797	0.441176	0.554744	0.309716	9.21021	-2.34128	-0.0248541	-0.110133	0.0268557	-0.033385	-0.933594	0.596191	-0.198975	
60	-0.539949	0.47086	0.434674	0.545714	9.22176	-0.489469	1.77573	-0.0451226	0.0703046	0.0792698	-0.81958	0.442139	-0.14209	-0.673596	0.316868	0.364714	0.559328	8.1773	-0.417138	4.88853	-0.0723469	-0.0182322	-0.00120687	-0.599121	0.325928	-0.46875	-0.811689	0.102477	0.256814	0.514497	5.45464	0.963878	8.4833	-0.174794	0.163931	-0.00445382	-0.428467	0.171143	-0.938965	-0.0858642	-0.178896	0.00154911	0.980113	-3.30665	0.352576	8.93485	-0.0859458	-0.083593	-0.0887219	-0.0231934	0.0808105	-1.00977	-0.587469	0.202298	0.218152	0.752572	5.4085	0.874774	7.88164	-0.0859768	0.062187	0.0312266	-0.592285	0.299316	-0.730225	-0.980006	-0.197477	-0.0096777	-0.022307	-2.2493	3.27301	12.4148	0.0998027	0.0916933	-0.0250206	0.624512	-0.353516	-0.772949	-0.461263	0.538092	0.584395	0.39519	9.07776	-0.374651	-2.44873	0.0720676	0.0201981	0.0413799	-0.880859	0.413574	0.193359	-0.913863	0.112438	0.251589	0.298185	5.63935	-1.01831	9.32716	-0.270167	0.0169252	-0.067143	-0.248779	0.259521	-0.979736	-0.1267	0.102412	0.980342	0.111302	3.42223	1.62257	-8.82239	-0.0406657	0.0175257	0.027483	-0.639404	-0.14209	0.876953	-0.498663	0.533223	0.554475	0.399457	9.13755	-0.666549	-1.53278	0.122247	0.0402452	-0.0203881	-0.911865	0.477783	0.152344	-0.635398	0.4393	0.555509	0.307725	9.36012	-2.48515	-0.261644	0.294731	0.00154209	0.0191822	-0.931152	0.591797	-0.203369	
61	-0.54024	0.47135	0.433793	0.545704	9.37882	-0.608563	1.81513	-0.0482506	0.022451	0.0613233	-0.815186	0.444336	-0.14209	-0.673483	0.317486	0.364401	0.559317	8.44091	-0.401444	5.04541	-0.0591448	0.000728054	0.00130408	-0.59668	0.31958	-0.473145	-0.811978	0.102032	0.254808	0.515125	5.45333	0.719956	8.39177	-0.0611176	0.164546	-0.0208841	-0.424316	0.173096	-0.936768	-0.0850724	-0.177897	-0.000930446	0.980364	-3.23468	0.5079	8.87614	-0.093215	-0.00431663	-0.0293097	-0.027832	0.0852051	-1.00781	-0.587914	0.20257	0.216352	0.752672	5.49119	0.871965	7.79744	-0.117006	0.0852619	0.0414015	-0.581543	0.301514	-0.728027	-0.979496	-0.199883	-0.0119543	-0.0221513	-2.26517	3.11519	12.5047	0.10367	0.0976022	-0.0507295	0.626709	-0.353516	-0.772949	-0.462358	0.537837	0.583824	0.395103	9.14313	-0.4248	-2.34315	0.0587031	0.0871693	0.0336142	-0.881348	0.424561	0.188965	-0.91373	0.11367	0.250331	0.299185	5.7784	-1.39733	9.26063	-0.137032	0.0852766	-0.0586851	-0.251221	0.263916	-0.982178	-0.127235	0.103439	0.980186	0.111113	3.08193	1.40806	-8.92859	0.0122123	0.0384004	0.0709823	-0.639648	-0.137451	0.870361	-0.499627	0.53269	0.556046	0.396771	9.66604	-0.908623	-1.82776	0.112377	-0.057766	0.0422347	-0.911865	0.47998	0.154785	-0.637563	0.436435	0.556991	0.304628	9.64245	-2.12263	-0.135836	0.397789	-0.0101405	0.0270471	-0.933105	0.587402	-0.203369	
62	-0.54025	0.472717	0.433144	0.545028	10.0511	-0.63145	1.80287	-0.0247006	-0.0401536	0.0458922	-0.813477	0.453125	-0.133545	-0.673864	0.318078	0.363638	0.559018	8.93191	-0.299901	5.37533	-0.00215376	0.01942	0.0212878	-0.601074	0.321533	-0.473389	-0.812325	0.0984408	0.254805	0.515279	5.68053	0.966261	8.79881	0.154118	0.0495791	-0.0310562	-0.422119	0.164551	-0.943359	-0.0850724	-0.177897	-0.000930446	0.980364	-3.23468	0.5079	8.87614	-0.093215	-0.00431663	-0.0293097	-0.027832	0.0852051	-1.00781	-0.588521	0.203926	0.213154	0.752743	5.74052	0.958273	7.91774	-0.127085	0.0240161	0.0345091	-0.58374	0.303711	-0.725586	-0.97936	-0.200535	-0.0130725	-0.0216691	-2.25051	3.05798	12.6087	0.0614029	0.0911991	-0.0718612	0.626709	-0.35791	-0.766357	-0.464206	0.537289	0.582618	0.395461	9.75216	-0.427048	-2.45018	0.0383026	0.0986821	0.0170312	-0.883057	0.417969	0.187012	-0.914628	0.110598	0.248769	0.298894	5.83004	-0.845209	9.39845	0.160199	0.102702	-0.0110464	-0.246582	0.257568	-0.986816	-0.128857	0.105581	0.980007	0.108786	2.28005	1.80097	-8.6056	0.0773299	0.0538883	0.0715381	-0.646729	-0.133057	0.874756	-0.500632	0.531953	0.556886	0.395312	9.59468	-1.17392	-1.52467	0.165927	-0.0159943	0.0238919	-0.912109	0.486572	0.152344	-0.64132	0.431506	0.559661	0.298816	9.69718	-2.44307	0.353362	0.32728	-0.015486	0.03739	-0.928711	0.5896	-0.22168	
63	-0.540341	0.473734	0.432591	0.544493	10.0645	-0.655528	1.74448	-0.0203263	-0.0138344	0.0302679	-0.815186	0.446533	-0.135498	-0.673953	0.318563	0.362623	0.559294	8.80878	-0.485937	5.49918	-0.0526403	0.0542996	-0.0115391	-0.594727	0.32373	-0.470947	-0.812187	0.0970399	0.257015	0.514664	5.73461	1.33396	9.21858	0.0607135	-0.0655233	0.00246876	-0.424316	0.168945	-0.938965	-0.085653	-0.179437	-0.00023078	0.980034	-3.38126	0.524536	9.03554	0.0861177	0.0459472	0.0297051	-0.0234375	0.0852051	-1.01001	-0.587867	0.206946	0.212338	0.75266	5.78025	0.731663	8.24356	-0.0787244	-0.0940903	-0.00752022	-0.588135	0.308105	-0.728027	-0.979636	-0.199179	-0.0147391	-0.0205802	-2.38259	3.04592	12.6109	-0.0856413	0.0580369	-0.0644322	0.626709	-0.353516	-0.766602	-0.466941	0.535983	0.581776	0.395252	9.75021	-0.533855	-2.65461	0.124025	0.099071	0.0166894	-0.878906	0.420166	0.17627	-0.915301	0.108525	0.249193	0.297237	5.89727	-0.560951	9.34522	0.0814523	0.0157578	0.0427015	-0.242188	0.253174	-0.982178	-0.129393	0.105201	0.979845	0.109976	2.10148	1.7856	-9.00635	-0.0583634	0.0154563	-0.0674963	-0.644287	-0.135254	0.870117	-0.502739	0.529817	0.558492	0.393235	9.83303	-0.652978	-1.55817	0.135439	0.0363632	-0.00675907	-0.905518	0.489014	0.149902	-0.644034	0.427168	0.562479	0.293879	9.90123	-1.91427	0.0267061	0.223287	-0.038175	0.010221	-0.930908	0.5896	-0.226074	
64	-0.540073	0.474105	0.432779	0.544287	9.78436	-0.50985	1.67704	-0.00188017	-0.0292246	0.00273246	-0.817627	0.450928	-0.133545	-0.674573	0.318063	0.363497	0.558263	8.54894	-0.257052	5.25065	0.0853651	-0.0200295	0.0160974	-0.601074	0.321777	-0.468506	-0.811569	0.100439	0.257775	0.514607	5.74565	1.19633	9.28203	-0.127487	-0.0869139	0.0276692	-0.426514	0.171143	-0.93457	-0.0851916	-0.179465	0.00271968	0.980065	-3.49666	0.474087	9.3215	0.103743	-0.027531	-0.00745515	-0.0209961	0.0830078	-1.00977	-0.587864	0.206807	0.214874	0.751981	5.68934	0.756456	8.38301	0.144863	-0.0323309	-0.0258587	-0.590332	0.303467	-0.723389	-0.980036	-0.197191	-0.0145237	-0.0208199	-2.27678	3.29972	12.7381	-0.0595074	-0.00837271	0.010027	0.630615	-0.342773	-0.769043	-0.469742	0.533832	0.58091	0.396117	9.24663	-0.494207	-2.29732	0.0633855	0.130251	-0.0370961	-0.875	0.426758	0.169678	-0.915673	0.108389	0.249514	0.295866	5.89979	-0.791376	9.26762	0.0245259	0.0139001	0.0235139	-0.244385	0.255371	-0.986816	-0.129159	0.104418	0.979928	0.110254	2.40195	1.68983	-8.86905	-0.0100543	-0.00453889	-0.0843836	-0.646729	-0.133057	0.872314	-0.503359	0.528626	0.560038	0.391845	9.58087	-0.740319	-1.75661	0.0813116	-0.00809379	-0.0245871	-0.909912	0.486572	0.147705	-0.645282	0.424316	0.564883	0.290644	9.67491	-1.92325	-0.173984	0.134558	-0.0496821	-0.0138682	-0.937744	0.591797	-0.223877	
65	-0.540075	0.474411	0.43292	0.543906	9.68069	-0.516203	1.6309	0.00682708	-0.0126569	0.00465479	-0.817627	0.450928	-0.133545	-0.675316	0.31788	0.36342	0.557518	8.40237	-0.347138	5.07835	0.000954597	0.0304933	0.0119662	-0.601318	0.325928	-0.471191	-0.811629	0.103201	0.255837	0.514932	5.68148	1.06108	9.10927	-0.116627	0.0398969	0.0243218	-0.432861	0.177734	-0.93457	-0.0846666	-0.177429	0.0020963	0.980483	-3.48788	0.301864	9.42195	-0.0679332	-0.081695	-0.0283971	-0.0231934	0.0786133	-1.00977	-0.588166	0.204705	0.21644	0.751871	5.66006	0.928656	8.19415	0.0607703	0.056653	-0.0308946	-0.587891	0.301514	-0.725586	-0.979809	-0.198307	-0.0131734	-0.0218118	-2.33566	3.45258	12.7305	0.0805907	-0.0383689	0.0364923	0.626709	-0.355713	-0.770752	-0.472104	0.531704	0.580888	0.396205	9.29508	-0.280423	-2.34015	0.110063	0.120504	-0.024855	-0.883301	0.420166	0.165527	-0.916222	0.108434	0.249332	0.2943	5.60323	-0.746322	9.11753	0.0240336	0.0210133	0.0696888	-0.242188	0.253174	-0.984375	-0.129508	0.101296	0.980194	0.110391	2.50118	1.40571	-8.60195	0.0507554	0.0353003	-0.0980572	-0.646484	-0.139893	0.870361	-0.504123	0.527495	0.560983	0.391032	9.26994	-0.953639	-1.95783	0.0729736	0.00442689	-0.0162333	-0.907715	0.484619	0.143066	-0.645068	0.423877	0.565961	0.289662	9.41151	-2.43752	-0.110409	0.0281985	-0.0331908	-0.00696663	-0.928711	0.587402	-0.223877	
66	-0.540141	0.474324	0.433027	0.543831	9.72222	-0.534969	1.65075	0.0070955	-0.00365055	-0.00693256	-0.817627	0.450928	-0.133545	-0.675935	0.317208	0.363741	0.556941	8.36527	-0.210757	5.12934	0.0243788	0.024411	-0.0122197	-0.594482	0.321533	-0.478027	-0.812284	0.102509	0.253264	0.51531	5.45114	1.15135	8.89324	-0.00112341	0.128866	0.00531465	-0.424316	0.17749	-0.937012	-0.0838285	-0.17543	0.000511912	0.980916	-3.44044	0.172301	9.25649	-0.0431664	-0.0574843	-0.0472592	-0.0253906	0.0830078	-1.00757	-0.588536	0.20322	0.215515	0.75225	5.447	0.747866	8.05248	-0.00114809	0.084509	-0.0108175	-0.581543	0.301514	-0.732422	-0.979458	-0.199953	-0.0124288	-0.0229632	-2.33764	3.45637	12.6165	0.0560489	0.00256164	0.0353292	0.624512	-0.355713	-0.764404	-0.475305	0.529261	0.579961	0.397005	9.10528	-0.523432	-2.28175	0.114693	0.152822	-0.0165513	-0.87915	0.424561	0.154785	-0.917035	0.107085	0.249658	0.291979	5.64213	-0.747141	9.18637	0.106961	0.0112061	0.0424375	-0.239746	0.248779	-0.986572	-0.130225	0.0994532	0.980543	0.1081	2.40713	2.03101	-8.43195	0.0850875	0.0262616	-0.0670976	-0.648926	-0.137695	0.86792	-0.504988	0.526422	0.562047	0.389834	9.4178	-1.08783	-1.69496	0.0941817	-0.00137073	-0.0118599	-0.912109	0.482178	0.147705	-0.646397	0.421653	0.567494	0.286932	9.51273	-2.3286	-0.0720268	0.198031	-0.0189511	0.00924087	-0.933105	0.585205	-0.228271	
67	-0.540145	0.473566	0.433442	0.544156	9.94939	-0.525458	1.79076	0.0261238	0.0145998	-0.0353918	-0.820068	0.452881	-0.131348	-0.676255	0.317177	0.363658	0.556624	8.60501	-0.35264	5.29326	-0.00189283	0.0127373	0.00229206	-0.592529	0.323975	-0.46875	-0.812826	0.100417	0.251659	0.515654	5.53064	1.13752	8.82765	0.0354952	0.10475	-0.0140711	-0.420166	0.17749	-0.943848	-0.0835524	-0.174968	-0.00108567	0.981022	-3.369	0.346763	9.05179	-0.0646666	0.00806494	-0.0114164	-0.0302734	0.0895996	-1.00562	-0.589726	0.202079	0.214269	0.751982	5.46985	0.854088	7.97217	0.00171701	0.0689726	0.0338505	-0.58374	0.303711	-0.725586	-0.979177	-0.201174	-0.0128704	-0.0239801	-2.20925	3.34687	12.5389	0.0595095	0.0461546	0.0115156	0.624756	-0.360107	-0.770508	-0.478428	0.526882	0.579928	0.396467	9.55371	-0.597492	-2.31188	0.144691	0.106622	-0.0169896	-0.883301	0.420166	0.150635	-0.91745	0.106145	0.250009	0.290712	5.73891	-0.393573	9.25161	0.0350821	0.00810811	0.0290545	-0.243896	0.246582	-0.986572	-0.130726	0.0978148	0.980647	0.108052	2.35549	1.83398	-8.67134	0.0157738	0.030535	-0.0921255	-0.650879	-0.144531	0.872559	-0.506103	0.524643	0.563676	0.388431	9.60674	-0.791842	-1.76988	0.11325	0.0108165	-0.0275196	-0.907471	0.480225	0.143311	-0.647835	0.419264	0.569014	0.284167	9.76736	-2.26056	-0.0701796	0.155545	-0.0132833	0.00280808	-0.935059	0.580811	-0.230713	
68	-0.540588	0.472406	0.434278	0.544058	9.86587	-0.441925	1.85143	0.0630533	0.00229406	-0.0215485	-0.819824	0.446533	-0.131348	-0.677063	0.316895	0.363568	0.555862	8.70646	-0.393638	5.36786	0.0337368	0.032251	0.0207578	-0.596924	0.325928	-0.46875	-0.812867	0.0987108	0.252491	0.515512	5.54943	1.04269	9.10326	0.0930915	-0.00825046	-0.00534724	-0.415771	0.170898	-0.938965	-0.0840814	-0.17565	-0.00147804	0.980854	-3.29877	0.40125	9.07739	0.00511859	0.0376405	0.0242289	-0.027832	0.0874023	-1.00342	-0.590102	0.201868	0.213802	0.751876	5.55394	0.942702	8.09082	-0.0110031	0.047364	0.0177287	-0.572754	0.301514	-0.734863	-0.9791	-0.201428	-0.0135011	-0.0246694	-2.24736	3.25034	12.5981	-0.00137326	0.0371661	0.00613256	0.624756	-0.35791	-0.766357	-0.480673	0.524993	0.580125	0.395967	9.47654	-0.478443	-2.15798	0.0901965	0.0728084	-0.0164813	-0.885498	0.422363	0.14209	-0.917449	0.107947	0.250223	0.289867	5.94461	-0.910501	9.35439	-0.0514809	-0.0326689	0.015676	-0.244141	0.250977	-0.989014	-0.130643	0.0967361	0.980706	0.108587	2.26594	1.69153	-8.90724	-0.0255321	0.0117017	-0.108932	-0.641602	-0.144287	0.868164	-0.506808	0.523095	0.565375	0.387127	9.60312	-0.827409	-1.78104	0.101081	-0.00881159	-0.0340644	-0.911621	0.473389	0.136475	-0.648641	0.417611	0.570159	0.282461	9.72532	-1.97583	-0.0489539	0.00575421	-0.00784554	-0.00779424	-0.930908	0.587402	-0.235352	
69	-0.541371	0.47155	0.435086	0.543376	9.87984	-0.323466	1.81397	0.0569026	0.00440314	0.00618282	-0.822021	0.44873	-0.137695	-0.677388	0.316935	0.363404	0.555549	8.54121	-0.395278	5.38473	-0.00116493	0.0238273	0.0168608	-0.594971	0.330322	-0.468994	-0.812893	0.0984441	0.253061	0.515241	5.54939	1.18872	9.23331	0.0499119	-0.0228844	0.00939773	-0.417969	0.170898	-0.941406	-0.0846911	-0.175744	-0.00142153	0.980785	-3.29931	0.301662	9.13842	-0.00871662	-0.00181589	0.0217202	-0.027832	0.0830078	-1.00977	-0.590341	0.201889	0.213318	0.75182	5.62703	0.913262	8.16352	-0.0270874	0.0315492	0.0103993	-0.575195	0.305908	-0.730225	-0.979127	-0.201168	-0.0133059	-0.0257961	-2.34205	3.3288	12.453	0.00342426	0.00267073	0.0358854	0.624756	-0.35791	-0.766357	-0.482507	0.523256	0.581101	0.394603	9.43854	-0.292617	-2.31222	0.153614	0.0197765	-0.0247995	-0.883789	0.428955	0.139893	-0.917533	0.107239	0.251045	0.289152	5.97555	-1.0101	9.34515	0.0903416	-0.031719	0.0148095	-0.244141	0.248779	-0.984375	-0.130343	0.0949865	0.980995	0.107877	2.63539	1.85201	-8.71047	0.0417759	0.00139424	-0.077525	-0.648682	-0.144531	0.872559	-0.506877	0.522678	0.565685	0.387147	9.36427	-0.946943	-1.77136	0.0121296	0.0254092	-0.00896188	-0.911865	0.47998	0.136475	-0.648207	0.418126	0.570088	0.282839	9.67878	-2.29387	0.049323	-0.0569528	-0.00792112	-0.00952671	-0.932617	0.576416	-0.23291	
70	-0.541778	0.471266	0.435035	0.543258	9.77507	-0.343101	1.85039	0.0300435	0.0206739	0.012628	-0.815674	0.453125	-0.133545	-0.677926	0.316793	0.363576	0.554862	8.40517	-0.256248	5.23588	0.0237385	0.0115746	0.000839866	-0.594727	0.325928	-0.473389	-0.813129	0.0998618	0.252592	0.514826	5.47873	1.11678	9.18097	-0.0703617	0.00691414	0.0407645	-0.419922	0.173096	-0.936768	-0.0851996	-0.174578	-0.00207471	0.980948	-3.31973	0.176617	9.23949	-0.0363097	-0.0430836	0.0169635	-0.0302734	0.0917969	-1.00342	-0.590915	0.200678	0.213986	0.751504	5.54982	0.646978	8.17155	0.100004	0.0242333	-0.00946408	-0.577148	0.301514	-0.727783	-0.979007	-0.20164	-0.0120362	-0.0272369	-2.2885	3.4396	12.5655	0.024031	-0.0319291	0.0501132	0.622803	-0.364502	-0.770508	-0.48376	0.522139	0.581318	0.394229	9.27239	-0.577968	-2.15399	0.0644547	0.0436607	-0.0233803	-0.881592	0.428955	0.133545	-0.918248	0.104579	0.252087	0.286944	5.8601	-0.526057	9.44471	0.119068	0.018584	0.0409209	-0.241699	0.244385	-0.991211	-0.130567	0.0933528	0.981008	0.108907	2.81208	1.79556	-8.9592	-0.0495354	0.0323873	-0.0845668	-0.64624	-0.144531	0.870361	-0.508133	0.521039	0.566894	0.385941	9.60054	-1.17846	-1.811	0.153215	0.014224	-0.0101364	-0.909668	0.482178	0.136475	-0.649317	0.416172	0.57122	0.280884	9.53615	-2.24822	-0.100464	0.191064	-0.00727945	-0.003388	-0.930664	0.583008	-0.239746	
71	-0.541879	0.47127	0.434731	0.543398	9.68479	-0.486572	1.80357	-0.0138677	-0.00511302	-0.00275507	-0.815186	0.444336	-0.131104	-0.678235	0.316471	0.363491	0.554723	8.51829	-0.380406	5.28293	0.000658109	0.0345003	-0.0148402	-0.592773	0.328125	-0.473633	-0.81379	0.099919	0.25149	0.51431	5.53372	0.963809	8.94015	0.0218322	0.0482779	0.0330645	-0.413574	0.175049	-0.943848	-0.0861171	-0.173938	-0.00270732	0.98098	-3.35384	0.218173	9.21044	-0.0199674	-0.000299865	0.0350727	-0.0283203	0.0939941	-1.00562	-0.591875	0.198443	0.215714	0.750847	5.5475	1.03787	8.11031	0.0944654	0.0379177	-0.00172001	-0.574463	0.292725	-0.730225	-0.978966	-0.201769	-0.0109257	-0.0282063	-2.29363	3.39687	12.7166	-0.00676745	-0.020078	0.0215903	0.620361	-0.360107	-0.770508	-0.484116	0.52159	0.581911	0.393642	9.44464	-0.444962	-2.16532	0.0975782	-0.00369511	-0.0339008	-0.879395	0.428955	0.137695	-0.918751	0.104188	0.250856	0.286553	5.8717	-0.509292	9.44138	-0.00451496	0.0817404	0.000867086	-0.235352	0.244385	-0.986572	-0.131484	0.0924101	0.980987	0.108794	2.67323	1.78977	-8.68871	0.0157157	0.0504697	-0.0348044	-0.64624	-0.146729	0.865967	-0.510669	0.518682	0.568494	0.383407	9.42578	-0.963107	-1.70482	0.201192	0.0137588	0.00309529	-0.911865	0.47998	0.129639	-0.651176	0.413474	0.572535	0.277871	9.52114	-2.67675	0.0171442	0.247489	-0.00585388	0.0140826	-0.937256	0.578369	-0.246582	
72	-0.541626	0.471517	0.435013	0.543209	9.89297	-0.53331	1.67209	0.00701096	-0.0236592	-0.00289987	-0.822021	0.44873	-0.137695	-0.678519	0.315294	0.363781	0.554856	8.56979	-0.315989	5.35859	0.0352503	0.031581	-0.0282407	-0.594727	0.325928	-0.478271	-0.814412	0.0975057	0.252252	0.513414	5.37439	1.17974	8.9167	0.121689	0.0228418	0.00541098	-0.413574	0.166504	-0.943604	-0.0864477	-0.174421	-0.00251329	0.980866	-3.35754	0.345669	9.19625	0.016249	0.0445213	0.0297213	-0.0256348	0.0874023	-1.00562	-0.59205	0.198313	0.215041	0.750936	5.621	0.915229	8.22348	-0.0412058	0.0298332	-0.00666536	-0.570557	0.303711	-0.739258	-0.979064	-0.201256	-0.0104567	-0.028638	-2.28514	3.35792	12.7309	-0.0370174	-0.0162934	0.0237555	0.618652	-0.366455	-0.770508	-0.485273	0.520373	0.582472	0.392999	9.52318	-0.477211	-2.25333	0.0893868	0.0417892	-0.0243634	-0.881592	0.428955	0.131348	-0.919465	0.10421	0.249371	0.285551	5.83526	-0.936227	9.22203	0.0141061	0.0645124	0.0416109	-0.235352	0.246826	-0.996094	-0.132921	0.0918356	0.980642	0.110634	2.48036	1.62597	-8.79697	-0.0896738	0.0763519	-0.0559544	-0.643799	-0.148926	0.865967	-0.511796	0.517514	0.569149	0.382509	9.62974	-0.601298	-1.67876	0.157142	0.0343379	-0.00683332	-0.916504	0.482178	0.125	-0.653856	0.409483	0.574308	0.273802	9.75995	-1.63792	-0.0723698	0.11272	0.0099489	0.0162972	-0.932373	0.571777	-0.246338	
73	-0.541924	0.471406	0.435335	0.542751	9.919	-0.541793	1.60522	0.0258042	-0.00539095	0.00687816	-0.819824	0.450928	-0.14209	-0.678962	0.312912	0.36414	0.555427	8.55066	-0.169053	5.39701	0.0618358	0.0783777	-0.0737602	-0.592285	0.319336	-0.482666	-0.814442	0.0960792	0.253278	0.513131	5.40158	1.24506	8.89981	0.0521399	-0.0112908	-0.00837287	-0.417725	0.166504	-0.938965	-0.0869082	-0.176575	-0.00279234	0.980439	-3.3265	0.392172	9.13397	-0.0218705	0.112839	0.0180701	-0.0236816	0.0895996	-1.01001	-0.592108	0.198199	0.21403	0.75121	5.6634	0.812265	8.33095	-0.0140333	0.0411726	-0.0119871	-0.574707	0.299316	-0.739258	-0.979195	-0.200491	-0.00931409	-0.0298881	-2.29988	3.31117	12.7023	-0.00213025	-0.0280063	0.0456913	0.614014	-0.364502	-0.772705	-0.48628	0.51939	0.58318	0.392005	9.52604	-0.318138	-1.9716	0.0756532	0.0142939	-0.0188766	-0.885498	0.422363	0.133545	-0.920461	0.102484	0.249199	0.283106	5.61117	-0.771547	9.25685	0.128651	0.0246011	0.0786577	-0.235107	0.238037	-0.99585	-0.133963	0.0894193	0.980868	0.109347	2.35775	1.57601	-8.52125	0.119494	0.0489757	-0.108409	-0.653076	-0.151367	0.868164	-0.512926	0.516576	0.569869	0.38119	9.57097	-0.901079	-1.65832	0.0628818	0.00668861	0.00967467	-0.909912	0.484375	0.127197	-0.655182	0.407601	0.575066	0.271839	9.75322	-2.07527	-0.036718	0.142898	0.00415285	0.000989571	-0.932373	0.56958	-0.253174	
74	-0.542767	0.470427	0.435444	0.54267	9.96198	-0.520492	1.64579	0.0423454	0.0457098	-0.00340573	-0.817383	0.446533	-0.135498	-0.679221	0.310303	0.364479	0.55635	8.4321	-0.196859	5.23813	0.0630326	0.0715416	-0.0718199	-0.592285	0.317139	-0.484863	-0.814434	0.0944922	0.255337	0.512417	5.58984	1.03905	8.95501	0.147175	-0.0287715	0.000100123	-0.422119	0.164551	-0.947998	-0.0876526	-0.179645	-0.00394226	0.979811	-3.50141	0.275474	9.12768	-0.0413405	0.136187	0.0275047	-0.0214844	0.0939941	-1.00562	-0.592968	0.195707	0.214767	0.750975	5.37549	0.94569	8.31129	0.117511	0.0847361	-0.019205	-0.570557	0.301514	-0.739258	-0.979009	-0.201198	-0.00721132	-0.0317713	-2.02131	3.52812	12.6026	0.0222902	-0.0648361	0.0858915	0.609863	-0.366699	-0.774658	-0.485848	0.519493	0.583799	0.391482	9.36359	-0.509959	-2.13916	0.0239728	-0.0330587	-0.0280934	-0.883789	0.428955	0.133545	-0.921423	0.101555	0.250036	0.27955	5.69419	-0.288415	9.25232	0.055871	-0.0196291	0.114022	-0.234863	0.23584	-0.986572	-0.134805	0.0864422	0.981079	0.108812	2.49919	1.73478	-8.61609	0.0374802	0.0453148	-0.129981	-0.653076	-0.14917	0.865967	-0.51398	0.515489	0.570684	0.380021	9.5124	-0.943722	-1.75358	0.121012	0.0214995	-0.0083259	-0.914307	0.482178	0.125	-0.656054	0.406369	0.575615	0.270415	9.63579	-2.11374	0.000821352	0.0861616	-0.000475053	0.00758043	-0.927979	0.574219	-0.26001	
75	-0.544083	0.468298	0.434983	0.543563	9.71635	-0.443582	1.83362	0.0469406	0.0999689	-0.0288978	-0.81958	0.446533	-0.14209	-0.679906	0.307389	0.365143	0.556696	8.37686	-0.341359	5.25679	0.104137	0.0799795	-0.0645015	-0.590088	0.314941	-0.484863	-0.814597	0.090836	0.258019	0.511475	5.59122	1.42901	9.03135	0.169226	-0.00490269	-0.0112495	-0.415283	0.153564	-0.945557	-0.0891737	-0.182442	-0.00564082	0.979148	-3.52895	0.190174	9.08463	-0.0722471	0.123158	0.0582	-0.0107422	0.0986328	-1.00806	-0.59397	0.191319	0.215705	0.751045	5.32876	0.943421	8.12894	0.145205	0.131145	-0.0286986	-0.565674	0.28833	-0.748535	-0.978708	-0.20236	-0.00407892	-0.0341242	-2.02768	3.50868	12.5433	0.0620413	-0.096678	0.101689	0.605957	-0.375244	-0.772217	-0.484689	0.519433	0.58519	0.39092	9.34728	-0.599543	-2.32371	0.0298268	-0.0595559	-0.0582251	-0.887939	0.424561	0.137695	-0.922024	0.103149	0.249294	0.27764	5.70379	-0.613221	9.3121	-0.0431416	0.0403656	0.0710003	-0.228516	0.240234	-0.989014	-0.135661	0.0838341	0.981324	0.107566	2.57317	2.07856	-8.56031	0.0723948	0.0467463	-0.097797	-0.653076	-0.151367	0.865967	-0.515555	0.513749	0.572082	0.378136	9.52966	-0.989962	-1.57492	0.129784	-0.00971223	-0.00277443	-0.914062	0.47998	0.118164	-0.657422	0.404553	0.576514	0.26789	9.61567	-2.21072	0.0298916	0.146902	-0.00741992	0.0220325	-0.927979	0.572021	-0.253174	
76	-0.545055	0.466283	0.434944	0.544352	9.62808	-0.359065	2.0123	0.0469263	0.0559956	-0.0360536	-0.815186	0.446533	-0.148438	-0.681213	0.303483	0.366211	0.556539	8.46075	-0.147636	5.33717	0.143504	0.0826071	-0.047008	-0.593994	0.30835	-0.496338	-0.814645	0.0884854	0.259585	0.511018	5.6084	1.23231	9.10048	0.121752	-0.0012465	-0.00868999	-0.426025	0.147217	-0.949707	-0.0911428	-0.184758	-0.00741845	0.978521	-3.52806	0.229917	9.12402	-0.0632962	0.105146	0.0719367	-0.00610352	0.0942383	-1.01001	-0.594884	0.18765	0.216138	0.751122	5.30212	1.0432	8.05011	0.0807557	0.107885	-0.0197381	-0.565674	0.28833	-0.746094	-0.978485	-0.203094	-0.0013591	-0.0362966	-2.02147	3.34801	12.5123	0.0266922	-0.0703397	0.0870033	0.606201	-0.384033	-0.782715	-0.483723	0.518941	0.586866	0.390257	9.4473	-0.511485	-2.12711	0.0512312	-0.0490865	-0.0693466	-0.887695	0.422363	0.14209	-0.922301	0.103444	0.248822	0.277035	5.63979	-0.722948	9.27796	-0.0136634	0.0450523	0.0420222	-0.22876	0.244385	-0.986572	-0.13676	0.0820259	0.981318	0.107628	2.52873	1.9299	-8.67702	0.011159	0.0548325	-0.082398	-0.653076	-0.151367	0.859375	-0.516902	0.512109	0.573293	0.376685	9.53436	-0.811611	-1.71706	0.104366	0.0182666	-0.0089824	-0.909912	0.484375	0.120361	-0.658458	0.403508	0.57705	0.265759	9.76697	-2.29633	0.0612233	0.0625408	-0.00184052	0.0317469	-0.927979	0.574219	-0.264648	
77	-0.545226	0.465384	0.435276	0.544685	9.76503	-0.380924	2.12785	0.0491204	0.039516	-0.0531906	-0.815186	0.44458	-0.155029	-0.681607	0.302269	0.36673	0.556377	8.62836	-0.0300686	5.29191	0.09327	0.0482284	-0.0423614	-0.591797	0.306152	-0.493896	-0.814859	0.0870934	0.260708	0.510345	5.66181	1.3454	9.20183	0.155506	-0.0110504	0.0171381	-0.419678	0.14502	-0.952148	-0.093065	-0.186716	-0.00789835	0.977964	-3.63915	0.249586	9.11353	-0.0122301	0.0821965	0.0745625	-0.00610352	0.0986328	-1.01025	-0.595346	0.186757	0.215888	0.751051	5.27754	0.99918	8.05088	0.034714	0.0801256	0.00511626	-0.561279	0.286377	-0.755371	-0.978447	-0.202907	0.000143687	-0.0383389	-1.90637	3.35499	12.5549	-0.019937	-0.0116919	0.0684249	0.597656	-0.381836	-0.778564	-0.483722	0.517589	0.587986	0.390368	9.54089	-0.332674	-2.05168	0.0475244	0.0171714	-0.0708279	-0.891846	0.417969	0.140137	-0.923087	0.100597	0.248768	0.275507	5.76235	-0.646398	9.31774	0.125198	0.0432095	0.0278244	-0.232666	0.233643	-0.993408	-0.137149	0.0813187	0.981318	0.10767	2.51345	1.91898	-8.70542	0.0118103	0.0423118	-0.0700874	-0.652832	-0.155762	0.859375	-0.517566	0.511334	0.573941	0.375839	9.63335	-0.888244	-1.84663	0.0473112	0.00469898	0.00685927	-0.918701	0.47998	0.118164	-0.659284	0.402394	0.577484	0.264455	9.67009	-2.15131	-0.141801	0.156492	0.0035519	0.0157415	-0.93042	0.576416	-0.262451	
78	-0.544738	0.464028	0.437362	0.544658	9.65446	-0.239868	2.07354	0.0698641	-0.0581266	-0.0773641	-0.82373	0.437744	-0.152832	-0.682096	0.301077	0.367812	0.555708	8.46373	0.0135898	5.40009	0.134562	0.00718666	-0.0232441	-0.591553	0.299805	-0.500732	-0.81547	0.0856536	0.262704	0.508585	5.68488	1.6382	9.31691	0.0795306	-0.0321345	0.05719	-0.427979	0.138672	-0.945068	-0.0938608	-0.187217	-0.00773594	0.977794	-3.7141	0.174107	9.14445	0.00608923	0.0469384	0.0668181	-0.00170898	0.0986328	-1.00342	-0.59658	0.185423	0.217158	0.750035	5.18772	0.984575	8.0095	0.110627	-0.00130498	0.027982	-0.561279	0.288574	-0.75293	-0.978605	-0.201757	0.000390019	-0.0403371	-1.93974	3.36752	12.5296	-0.0387256	0.0233971	0.0590582	0.599854	-0.384033	-0.780518	-0.483727	0.517139	0.588201	0.390634	9.51477	-0.245884	-2.23039	0.0275178	0.0274248	-0.0569726	-0.887695	0.422363	0.133545	-0.923647	0.0979196	0.248904	0.274472	5.60558	-0.229065	9.52109	0.100722	0.0304747	-0.0113388	-0.232422	0.227051	-0.995605	-0.137441	0.0807495	0.981358	0.107357	2.49609	1.81721	-8.63183	0.0238451	0.0159068	-0.0243773	-0.655518	-0.148926	0.859131	-0.517892	0.511177	0.573876	0.375704	9.61884	-0.777938	-1.81962	0.0258238	0.028183	0.013867	-0.911865	0.47998	0.115967	-0.659094	0.403542	0.576712	0.264864	9.62177	-2.27296	0.0111882	-0.087397	0.0149822	0.0218491	-0.930176	0.574219	-0.26001	
79	-0.543809	0.463156	0.43962	0.544511	10.0181	-0.0250355	2.02077	0.0439933	-0.0266978	-0.0650091	-0.821289	0.433594	-0.150635	-0.682661	0.299542	0.368148	0.555621	8.17481	0.159328	5.53592	0.0500709	0.0199266	-0.0128485	-0.587402	0.306152	-0.496338	-0.816371	0.0866215	0.2616	0.507544	5.54209	1.47265	9.28662	-0.0591287	0.0552631	0.0653103	-0.419434	0.140625	-0.951904	-0.0949488	-0.186533	-0.00801931	0.977817	-3.74584	0.139096	9.23656	-0.0418749	-0.0395125	0.0311798	-0.00390625	0.0986328	-1.00562	-0.598014	0.184566	0.218444	0.74873	5.33448	1.25762	8.07009	0.054159	0.00677119	0.0451099	-0.556885	0.28418	-0.757568	-0.978573	-0.201767	0.000191076	-0.0410387	-1.8283	3.43504	12.6565	0.00708722	0.0389211	0.0345538	0.595215	-0.379639	-0.780762	-0.483062	0.516944	0.588411	0.391397	9.40408	-0.287596	-2.28002	-0.0169579	0.00407423	-0.0427643	-0.889648	0.417969	0.135742	-0.923601	0.0989785	0.248356	0.274743	5.62367	-0.288273	9.36803	-0.0991146	0.0321895	-0.0184198	-0.232666	0.23584	-0.993408	-0.137562	0.0809857	0.981407	0.106574	2.60058	2.0006	-8.61185	0.0284706	8.21275e-05	0.00253195	-0.657715	-0.14917	0.861572	-0.517221	0.512677	0.572112	0.377269	9.35274	-0.677449	-1.71215	-0.165763	0.0358766	0.0299096	-0.907715	0.484619	0.118164	-0.655921	0.409551	0.573819	0.269755	9.70951	-2.06875	-0.0213704	-0.485043	0.03451	0.0201602	-0.92627	0.587402	-0.251221	
80	-0.544077	0.462818	0.439542	0.544594	9.83085	-0.153934	1.85779	0.00171807	0.0190316	0.00299052	-0.825684	0.433594	-0.152832	-0.68284	0.298727	0.368635	0.555518	8.4069	0.0486418	5.49881	-0.00196876	0.0370123	-0.0462566	-0.591553	0.297607	-0.498291	-0.817769	0.0855381	0.258707	0.506959	5.27926	1.50738	9.10574	0.0139669	0.147859	0.0461398	-0.413086	0.146973	-0.945312	-0.0951447	-0.184546	-0.0100587	0.978156	-3.67902	-0.00602051	9.14836	-0.086346	-0.0624377	-0.0178043	-0.0065918	0.105225	-1.00806	-0.598539	0.185899	0.217816	0.748163	5.36164	1.20141	8.25476	-0.0763896	-0.0230764	0.0282448	-0.561279	0.286133	-0.750732	-0.978417	-0.20241	-0.000837924	-0.0416004	-1.87582	3.48489	12.6827	0.0347418	0.0600423	-0.00920661	0.599854	-0.384033	-0.776367	-0.4818	0.518248	0.587749	0.392224	9.38475	-0.329905	-2.11984	-0.0688336	-0.0389664	-0.00560381	-0.885254	0.413818	0.135986	-0.922951	0.101174	0.247592	0.27681	5.61228	-0.65422	9.40905	-0.0603123	0.0145732	-0.0939339	-0.228271	0.231445	-0.98877	-0.137274	0.0831083	0.981189	0.107318	2.67752	1.88655	-8.64847	-0.0439801	-0.0154782	0.0790961	-0.660156	-0.14917	0.859131	-0.515544	0.514906	0.570608	0.378805	9.66913	-1.78671	-1.90952	-0.0624474	0.00328727	0.028323	-0.912109	0.484375	0.120361	-0.656493	0.40936	0.573332	0.269689	9.48677	-2.48794	0.0540629	0.201212	0.028648	0.000244983	-0.93042	0.576416	-0.253174	
81	-0.543735	0.463029	0.43919	0.54504	9.97044	-0.232876	1.86219	-0.0349849	-0.00605291	-0.00850393	-0.821289	0.433594	-0.148438	-0.682666	0.298161	0.36877	0.555946	8.37792	-0.0153542	5.46604	0.00114754	0.0210937	-0.0482253	-0.59375	0.299805	-0.493652	-0.818883	0.0834808	0.257177	0.506282	5.18289	1.6625	9.1303	0.0556844	0.091041	0.0221004	-0.408936	0.144775	-0.952148	-0.0943069	-0.183681	-0.0115562	0.978383	-3.75073	-0.0486776	9.02111	-0.0277922	-0.00976301	-0.0504771	-0.0109863	0.107422	-1.01025	-0.598574	0.187668	0.216306	0.748133	5.40394	1.00734	8.27185	-0.0807902	-0.00597611	0.00700395	-0.559082	0.288574	-0.75293	-0.978421	-0.202359	-0.00149937	-0.0417249	-1.87733	3.65951	12.6862	0.00344394	0.0661019	-0.0181981	0.599854	-0.385986	-0.77832	-0.47997	0.520245	0.587107	0.392784	9.50023	-0.508164	-2.24497	-0.0877791	-0.0311489	0.00721367	-0.887451	0.415771	0.144287	-0.922561	0.101247	0.246907	0.278688	5.6745	-0.518285	9.59174	-0.0542879	0.0536741	-0.0838207	-0.228516	0.240234	-0.99585	-0.137322	0.0858552	0.980901	0.107728	2.86963	1.93954	-8.70719	-0.0404795	0.00478553	0.08746	-0.653076	-0.148926	0.861572	-0.517062	0.514385	0.57014	0.378147	9.4681	-0.56996	-1.46119	0.0261614	0.0504421	0.032284	-0.909912	0.482178	0.118164	-0.655621	0.411913	0.571517	0.271766	9.66814	-2.45459	0.0316131	-0.178278	0.0432699	0.0206764	-0.923828	0.583008	-0.253418	
82	-0.543297	0.462847	0.438513	0.546175	9.99589	-0.255987	1.90589	-0.0375156	0.0371413	-0.0333849	-0.825684	0.435547	-0.154785	-0.681821	0.298876	0.368368	0.556865	8.47966	0.0169012	5.61049	-0.082675	0.00768087	-0.0459603	-0.5896	0.302002	-0.498535	-0.819034	0.0837246	0.256355	0.506415	5.38153	1.66217	9.21186	-0.0535917	0.00592162	-0.00248453	-0.406738	0.148926	-0.952148	-0.0931134	-0.183878	-0.0120878	0.978454	-3.77439	-0.0121144	9.02363	0.00476612	0.0226986	-0.046464	-0.00927734	0.115967	-1.00391	-0.598735	0.188679	0.215357	0.748023	5.25111	1.20594	8.25477	-0.0595246	-0.00120085	0.00446321	-0.557129	0.290527	-0.746094	-0.978365	-0.202697	-0.00357848	-0.0412705	-1.87795	3.61085	12.5855	0.00202211	0.0579227	-0.0498323	0.597412	-0.379639	-0.77417	-0.478481	0.521989	0.586259	0.393553	9.58128	-0.37804	-2.14424	-0.080069	-0.0144883	-0.000201346	-0.883057	0.416016	0.144287	-0.922084	0.101201	0.245806	0.281247	5.64871	-0.653063	9.46266	0.012465	0.0611678	-0.11508	-0.230713	0.240234	-0.993652	-0.137581	0.0887595	0.980578	0.107977	2.58459	1.78611	-8.71265	-0.00340912	0.00436318	0.102708	-0.660156	-0.144531	0.861328	-0.515186	0.517342	0.56781	0.380174	9.70011	-0.645799	-1.5748	-0.23147	0.00259514	0.0562905	-0.905518	0.489014	0.127197	-0.654425	0.414523	0.569673	0.274538	9.92552	-1.95902	0.084988	-0.255049	0.0551388	-0.0112082	-0.921631	0.585205	-0.244385	
83	-0.543039	0.462592	0.43824	0.546866	10.0184	-0.241079	2.00814	-0.0345819	0.0356025	-0.0421877	-0.823486	0.43335	-0.148438	-0.680909	0.300302	0.368013	0.557448	8.6929	-0.0634181	5.70424	-0.0676191	-0.016142	-0.0269108	-0.595947	0.299805	-0.496094	-0.818371	0.0855676	0.256545	0.507081	5.55856	1.40629	9.34856	-0.0441105	-0.0532166	-0.0155814	-0.410889	0.146973	-0.949951	-0.0919688	-0.184044	-0.0107581	0.978547	-3.74693	-0.00237909	9.09848	0.0899221	-0.00188091	-0.0344501	-0.00415039	0.10083	-1.00806	-0.597926	0.190827	0.214744	0.748301	5.31911	1.11556	8.32592	-0.0658169	-0.0665474	-0.034134	-0.563721	0.294922	-0.748535	-0.978608	-0.201724	-0.00460523	-0.0401644	-1.83079	3.58607	12.6482	-0.0637193	0.0407947	-0.0730013	0.605957	-0.375244	-0.776611	-0.477001	0.523783	0.585112	0.394671	9.70362	-0.41623	-2.20113	-0.0957511	-0.0147862	0.00733947	-0.885254	0.417969	0.152832	-0.921577	0.101085	0.245569	0.283149	5.65082	-0.557877	9.34697	-0.0388949	0.010314	-0.0872656	-0.230713	0.238037	-0.986572	-0.137193	0.0909917	0.980359	0.1086	2.33331	1.74543	-8.59125	-0.0357194	-0.0233847	0.0435316	-0.651367	-0.135254	0.859131	-0.511495	0.522252	0.563541	0.384769	9.90409	-0.850926	-1.71488	-0.376784	0.0651548	0.0458444	-0.90332	0.489014	0.131592	-0.647639	0.425471	0.56328	0.286799	9.95316	-1.8046	0.0800429	-0.915905	0.106647	-0.0574295	-0.922119	0.591797	-0.226318	
84	-0.542887	0.461675	0.437802	0.548141	9.976	-0.196132	2.0613	0.000587439	0.0734211	-0.0256769	-0.818848	0.431396	-0.150391	-0.680283	0.301883	0.366742	0.558195	8.26284	0.0125386	5.4984	-0.101914	0.0121869	-0.00870404	-0.591553	0.302002	-0.493896	-0.817799	0.0869839	0.25737	0.507345	5.44623	1.55122	9.42627	-0.0444317	-0.0582652	-0.0102633	-0.408936	0.14917	-0.94751	-0.090937	-0.183041	-0.00876451	0.978851	-3.66055	0.0298186	9.25053	0.074302	-0.0514953	-0.0301414	-0.00854492	0.0986328	-1.00342	-0.597252	0.191633	0.215036	0.748549	5.53826	1.14368	8.31124	-0.0369338	-0.0626864	-0.0570395	-0.561768	0.297119	-0.741699	-0.978878	-0.200789	-0.00506964	-0.0381623	-1.80685	3.59651	12.7341	-0.00527584	0.0131288	-0.108774	0.605957	-0.377441	-0.774414	-0.475572	0.525503	0.584062	0.395662	9.26109	-0.680548	-2.26774	-0.0724729	-0.0216749	0.00551399	-0.880859	0.416016	0.150879	-0.920534	0.102588	0.24616	0.285478	5.51719	-0.967952	9.26575	-0.0396542	-0.0307465	-0.11092	-0.23291	0.240234	-0.989014	-0.136557	0.0914946	0.980325	0.109289	2.18922	1.8055	-8.63307	-0.0602381	-0.0431518	0.00879545	-0.65332	-0.14209	0.863525	-0.506951	0.527378	0.558837	0.390607	9.37956	-1.48185	-1.67029	-0.393707	0.0248467	0.0206842	-0.909912	0.484375	0.140869	-0.643437	0.431679	0.559697	0.293908	9.69894	-2.74276	0.0957403	-0.864362	0.103673	-0.0677635	-0.928955	0.598389	-0.217285	
85	-0.543574	0.460753	0.436977	0.548894	9.31108	-0.156699	2.00538	-0.000996639	0.0295837	0.00349977	-0.823242	0.429199	-0.152588	-0.679832	0.303288	0.366098	0.558405	8.01144	-0.0977099	5.43316	-0.132589	-0.020943	0.00486803	-0.593994	0.30835	-0.489258	-0.817431	0.0884815	0.256896	0.50792	5.23502	1.64235	9.35229	-0.128358	-0.0286254	-0.017878	-0.415527	0.157959	-0.947754	-0.0886532	-0.180755	-0.00769666	0.979494	-3.567	-0.0977333	9.15029	0.0393166	-0.103862	-0.0988976	-0.0170898	0.0939941	-1.00781	-0.595718	0.192591	0.215416	0.749417	5.22648	0.960368	8.27464	-0.0366753	-0.0272677	-0.0833531	-0.570312	0.294922	-0.741699	-0.97889	-0.201085	-0.00537751	-0.0361945	-2.12621	3.50109	12.4222	0.032791	0.00226847	-0.0904042	0.608154	-0.375244	-0.778809	-0.474747	0.52678	0.583717	0.395464	9.0939	-0.476693	-2.15078	-0.00970721	-0.0148413	0.017673	-0.883057	0.415771	0.155029	-0.919224	0.102433	0.248253	0.287934	5.59127	-0.658495	9.27363	0.0123299	-0.0529087	-0.130036	-0.237061	0.238037	-0.986572	-0.134571	0.0925741	0.98031	0.11096	2.65119	1.56008	-8.49905	-0.0871762	-0.0718347	0.0174611	-0.650879	-0.146729	0.86377	-0.504082	0.529907	0.556654	0.394001	9.17199	-1.34467	-1.99757	-0.154428	0.025163	-0.0173874	-0.909912	0.484375	0.143066	-0.639677	0.436334	0.557061	0.300183	9.46146	-1.9939	-0.349446	-0.284956	0.034363	-0.0587893	-0.931396	0.600586	-0.210449	
86	-0.543638	0.460951	0.436743	0.548851	9.54722	-0.138618	2.02525	-0.014149	-0.00124087	0.0185293	-0.823486	0.433594	-0.154785	-0.678806	0.305692	0.364396	0.559455	8.2915	-0.275628	5.32228	-0.12724	0.0146615	-0.0227509	-0.589844	0.310791	-0.487061	-0.816506	0.0922969	0.252908	0.510722	5.30692	1.23446	9.01878	-0.24324	0.077874	-0.0692967	-0.406982	0.164307	-0.947998	-0.0873069	-0.179229	-0.00807476	0.979893	-3.46916	0.0331745	9.12359	-0.0194373	-0.115178	-0.113747	-0.0195312	0.0983887	-1.00806	-0.594389	0.192164	0.215121	0.750665	5.29943	0.786402	8.12065	-0.0163884	0.0311164	-0.0830789	-0.565918	0.294922	-0.748535	-0.978764	-0.201877	-0.00545749	-0.0351833	-2.18606	3.55937	12.4738	0.0703562	0.000297239	-0.0969497	0.604004	-0.381836	-0.776367	-0.474248	0.527622	0.583815	0.394796	9.23385	-0.307033	-2.07576	-0.00324014	-0.0716871	0.0279206	-0.883301	0.420166	0.161377	-0.918739	0.102966	0.248672	0.288926	5.47673	-0.456341	9.34706	-0.0492067	-0.027773	-0.0951778	-0.239258	0.238037	-0.98877	-0.133187	0.0942565	0.980234	0.111881	2.94096	1.27736	-8.49307	-0.0482115	-0.0550944	0.0463712	-0.64624	-0.148926	0.868164	-0.503709	0.530174	0.55629	0.394631	9.24164	-1.22611	-1.82652	-0.0643571	0.0276995	-0.00764738	-0.909912	0.484375	0.143066	-0.636564	0.440829	0.554167	0.30554	9.30717	-2.99249	-0.272302	-0.133893	0.0409059	-0.0259548	-0.931396	0.602783	-0.198975	
