40	Head	00b4120a												Throax	00b411e8												LUpArm	00b411d9												LFoArm	00b41148												RUpArm	00b411db												RFoArm	00b41204												Waist	00b411f7												Lthigh	00b411f4												Lshank	00b4111b												Rthigh	00b411c8												Rshank	00b411ee												
PacketCount	q0	q1	q2	q3	accX	accY	accZ	gyrX	gyrY	gyrZ	magX	magY	magZ	q0	q1	q2	q3	accX	accY	accZ	gyrX	gyrY	gyrZ	magX	magY	magZ	q0	q1	q2	q3	accX	accY	accZ	gyrX	gyrY	gyrZ	magX	magY	magZ	q0	q1	q2	q3	accX	accY	accZ	gyrX	gyrY	gyrZ	magX	magY	magZ	q0	q1	q2	q3	accX	accY	accZ	gyrX	gyrY	gyrZ	magX	magY	magZ	q0	q1	q2	q3	accX	accY	accZ	gyrX	gyrY	gyrZ	magX	magY	magZ	q0	q1	q2	q3	accX	accY	accZ	gyrX	gyrY	gyrZ	magX	magY	magZ	q0	q1	q2	q3	accX	accY	accZ	gyrX	gyrY	gyrZ	magX	magY	magZ	q0	q1	q2	q3	accX	accY	accZ	gyrX	gyrY	gyrZ	magX	magY	magZ	q0	q1	q2	q3	accX	accY	accZ	gyrX	gyrY	gyrZ	magX	magY	magZ	q0	q1	q2	q3	accX	accY	accZ	gyrX	gyrY	gyrZ	magX	magY	magZ	
0	0.869598	0.0336577	-0.492602	0.00312438	8.71608	0.285212	6.12541	0.257117	-0.199137	0.00292253	-0.677979	-0.133545	-0.818115	0.531735	0.0619088	-0.843043	0.051993	9.07167	-0.337204	-4.12192	0.0384777	-0.0507778	0.0077427	-1.07056	-0.279297	0.274658	0.474388	-0.263472	-0.282675	0.79097	-1.53746	-7.67772	7.47942	-0.180715	0.103922	-0.00751761	-0.0314941	0.538574	-0.94751	0.47372	-0.131128	-0.0513063	0.869346	-2.02489	-2.30719	9.04677	0.00410175	0.127228	-0.0691772	0.156494	-0.000732422	-1.03027	0.560222	0.333344	-0.246607	-0.71709	-1.86551	6.61099	6.34725	-0.0710869	-0.110462	-0.0275733	0.239014	-0.457764	-0.955078	0.611135	0.231682	-0.0362904	-0.755989	-2.35929	3.3495	12.3171	-0.217396	-0.0217295	-0.170731	0.267334	0.0285645	-1.08203	0.00383654	0.0523673	-0.99862	-0.000760578	-0.0177638	-0.192878	-9.11761	0.0144777	-0.00707802	-0.0195386	-0.188232	-0.14209	1.08691	-0.00554336	-0.109772	-0.993792	-0.0172321	-0.473282	0.168976	-8.41067	0.0474719	0.0211084	-0.021028	-0.290039	0.160645	1.01709	-0.197819	-0.00360952	-0.958163	0.206828	-3.54041	-4.00357	-7.33961	0.126155	0.1245	-0.0881767	-0.0124512	0.581299	0.944824	-0.033741	0.0945976	-0.994135	0.0401043	-0.731632	-0.922149	-9.0424	0.0244676	-0.00288498	0.00585793	-0.354736	0.0688477	1.12305	-0.253952	0.193311	-0.942787	-0.096392	-4.91251	0.992013	-8.2393	-0.03874	-0.00479922	0.0372958	0.182129	-0.225586	1.12061	
1	0.868262	0.0363147	-0.494752	0.00485551	8.8038	0.451988	6.1326	0.227123	-0.217444	0.00487016	-0.682129	-0.138184	-0.80957	0.530946	0.0617394	-0.843543	0.0521621	9.10233	-0.33405	-4.19282	-0.00425355	-0.0619306	0.00445337	-1.07275	-0.279297	0.279297	0.474185	-0.264827	-0.282834	0.790582	-1.69723	-7.28933	7.50348	-0.0663974	0.110147	0.00611026	-0.0270996	0.536377	-0.94751	0.474283	-0.132085	-0.0511254	0.868905	-2.05656	-2.26105	8.96168	-0.0176139	0.0871161	-0.0487402	0.158691	0.00146484	-1.03271	0.559354	0.334032	-0.248338	-0.71685	-1.7675	7.05488	6.67733	0.157935	-0.0406346	-0.0217375	0.239258	-0.462158	-0.952637	0.610624	0.230069	-0.0351294	-0.75695	-2.55493	3.78804	12.1972	-0.127239	-0.0397436	-0.136346	0.269287	0.0285645	-1.08398	0.00361066	0.0523999	-0.998619	-0.00078349	-0.0100098	-0.176246	-9.07972	0.0133966	-0.00637016	-0.0180524	-0.181641	-0.146484	1.08276	-0.00560759	-0.109619	-0.993817	-0.0167189	-0.467364	0.150458	-8.42728	0.0251313	0.0158193	-0.0207611	-0.290039	0.160645	1.01489	-0.194853	-0.00345002	-0.958396	0.208559	-3.60903	-3.94086	-7.6085	0.0640275	0.118951	-0.0528424	-0.0168457	0.57666	0.947266	-0.0339928	0.0946249	-0.994093	0.0408668	-0.743557	-0.941601	-9.00975	0.0549754	-0.00297432	0.00261161	-0.356689	0.0666504	1.12988	-0.253413	0.192109	-0.94295	-0.0985955	-5.01552	1.23435	-8.0343	-0.133682	0.0173176	0.0484733	0.187012	-0.234375	1.11865	
2	0.864602	0.0392081	-0.500873	0.00724108	8.8665	0.325496	5.96437	0.112793	-0.334858	0.0202026	-0.69751	-0.140625	-0.801025	0.530456	0.0619002	-0.843785	0.053036	9.08289	-0.207209	-4.25022	0.0241251	-0.0111607	-0.0021084	-1.06836	-0.279297	0.279297	0.474613	-0.265126	-0.283121	0.790122	-1.64999	-7.60746	7.2441	0.0212191	0.021851	-0.052728	-0.0251465	0.53833	-0.952148	0.475703	-0.131481	-0.0498232	0.868296	-2.01676	-2.31619	8.42616	0.104273	-0.00869035	-0.0509734	0.165283	0.00146484	-1.03052	0.55873	0.33321	-0.250909	-0.716824	-2.16244	7.51022	6.26742	0.0195456	-0.0796044	0.0278912	0.237305	-0.46875	-0.952637	0.613811	0.219727	-0.0265742	-0.757793	-2.54246	3.95802	12.48	-0.477481	-0.0535632	0.0296893	0.266113	0.0588379	-1.08081	0.00312643	0.0524828	-0.998617	-0.000653912	-0.0139527	-0.192756	-9.04609	0.0206831	0.00200196	-0.0176914	-0.181641	-0.144287	1.08911	-0.00601672	-0.109358	-0.993849	-0.0163963	-0.472786	0.148923	-8.42927	-0.00631022	0.00503168	-0.0195967	-0.290039	0.160645	1.01709	-0.192917	-0.00380515	-0.959188	0.206706	-3.78042	-4.03642	-7.90722	-0.092572	0.0778903	0.00947016	-0.0214844	0.57666	0.938232	-0.0341755	0.0944533	-0.994068	0.0417161	-0.734346	-0.973447	-8.97972	0.0309338	0.00173738	0.00759368	-0.361572	0.0754395	1.1228	-0.252235	0.191367	-0.943241	-0.10026	-5.02753	1.03784	-8.0507	-0.0467864	0.0367111	0.0159589	0.187256	-0.243164	1.11646	
3	0.85952	0.0414208	-0.509351	0.00837635	8.61544	0.206147	5.6223	0.06953	-0.443154	-0.0199273	-0.708496	-0.14502	-0.788086	0.530507	0.0615953	-0.843768	0.0531363	8.95378	-0.196615	-4.08836	-0.0165529	0.0270149	-0.00879805	-1.07275	-0.279297	0.281738	0.475362	-0.262648	-0.283884	0.790226	-1.39185	-7.49593	7.26222	0.00586772	-0.0923336	-0.0779018	-0.0314941	0.542969	-0.949951	0.476964	-0.128589	-0.0497655	0.86804	-1.79254	-2.54745	8.80442	0.0643624	-0.0922782	-0.0535284	0.158691	0.00146484	-1.03271	0.560186	0.330074	-0.251508	-0.716929	-1.96524	7.57588	6.34662	-0.120169	-0.0929709	0.0566886	0.23291	-0.46875	-0.955078	0.616135	0.215831	-0.0232203	-0.757136	-2.67891	3.14225	12.7352	-0.418702	-0.0358909	0.0807752	0.26123	0.0720215	-1.07886	0.00302009	0.0524636	-0.998618	-0.000623549	-0.028774	-0.193836	-9.10956	0.0173179	0.00339202	-0.0139859	-0.181641	-0.146484	1.08691	-0.00646392	-0.109175	-0.993863	-0.0165961	-0.462436	0.165603	-8.41134	-0.0361762	0.00860312	-0.0153094	-0.290283	0.164795	1.01489	-0.192757	-0.00450053	-0.95967	0.204591	-3.76985	-3.91347	-7.77327	-0.0618795	0.0180403	0.0295905	-0.0214844	0.57666	0.94043	-0.0342817	0.0943003	-0.994071	0.0419049	-0.747547	-0.962688	-8.99551	0.00492547	0.0113766	0.00889467	-0.359131	0.0688477	1.12769	-0.251011	0.190902	-0.943603	-0.100816	-4.97905	1.13294	-8.09791	-0.0355788	0.0623493	0.00128224	0.177979	-0.236816	1.11865	
4	0.853226	0.0441444	-0.519599	0.0086179	8.90576	0.243724	5.2248	0.0805613	-0.50369	-0.0425467	-0.734863	-0.147705	-0.770996	0.531109	0.0608486	-0.843472	0.0526894	8.76872	-0.328887	-4.22678	-0.0282357	0.0280747	-0.00378453	-1.07275	-0.2771	0.276855	0.475495	-0.259272	-0.284859	0.790909	-1.51557	-7.02778	7.30138	0.0587371	-0.110972	-0.0652524	-0.0380859	0.542969	-0.954346	0.477006	-0.124377	-0.0498071	0.868628	-1.58503	-2.31048	9.25729	0.0535723	-0.151893	0.0239641	0.149902	-0.00537109	-1.03467	0.560308	0.330227	-0.253478	-0.716069	-1.76671	7.04191	6.48034	0.128871	-0.000358992	0.0339936	0.230469	-0.464355	-0.950439	0.61973	0.211906	-0.0209072	-0.755377	-2.3298	4.23761	12.6897	-0.196906	-0.0182173	0.084248	0.256836	0.0720215	-1.07471	0.00302009	0.0524636	-0.998618	-0.000623549	-0.028774	-0.193836	-9.10956	0.0173179	0.00339202	-0.0139859	-0.181641	-0.146484	1.08691	-0.00661594	-0.109	-0.993863	-0.017644	-0.482165	0.176083	-8.42368	-0.0496801	0.0110679	-0.010541	-0.290039	0.162598	1.01953	-0.192747	-0.00518037	-0.959941	0.203311	-3.68523	-3.88382	-7.60529	-0.0456594	0.013274	0.0273879	-0.0185547	0.565186	0.947266	-0.0338654	0.0942904	-0.994102	0.041515	-0.737344	-0.986658	-8.98559	-0.0371071	0.0309619	0.00282906	-0.361328	0.0688477	1.12085	-0.248431	0.191205	-0.943867	-0.104109	-5.07026	0.87335	-8.20914	-0.197146	0.0887096	0.0161123	0.180908	-0.252197	1.11646	
5	0.846427	0.0463508	-0.5304	0.00938657	8.9146	0.269827	4.8855	0.0829253	-0.545535	0.00334991	-0.750244	-0.150391	-0.745361	0.530882	0.0603831	-0.843691	0.0519975	8.79137	-0.352008	-4.00744	-0.0371268	-0.00501295	-0.0222132	-1.07056	-0.281494	0.279297	0.475247	-0.255373	-0.284659	0.792398	-1.44281	-7.09084	7.4763	0.161713	-0.108865	-0.00338022	-0.0463867	0.534424	-0.954102	0.47486	-0.121549	-0.051565	0.8701	-1.69364	-2.07813	9.71833	-0.0615141	-0.129138	0.118012	0.145264	-0.000976562	-1.03247	0.55923	0.330201	-0.254419	-0.716589	-1.68231	7.8716	6.41251	-0.0293239	-0.0266674	-0.0552086	0.226318	-0.4646	-0.945801	0.622903	0.206213	-0.0150071	-0.754482	-2.30644	4.08761	12.3281	-0.36045	0.00748789	0.013602	0.260254	0.0935059	-1.07959	0.00285242	0.052824	-0.9986	8.34754e-05	-0.0249945	-0.193277	-9.04365	0.0233239	-0.00296358	-0.0135028	-0.185791	-0.148682	1.08911	-0.00696627	-0.108956	-0.993856	-0.0181807	-0.478718	0.220955	-8.42645	-0.0278685	0.0152609	-0.00935424	-0.293945	0.151855	1.01733	-0.192339	-0.00639662	-0.959872	0.203986	-3.55042	-3.36811	-7.24281	0.0240373	0.0442739	0.0194436	-0.019043	0.572021	0.947266	-0.0338654	0.0942904	-0.994102	0.041515	-0.737344	-0.986658	-8.98559	-0.0371071	0.0309619	0.00282906	-0.361328	0.0688477	1.12085	-0.24648	0.190635	-0.944498	-0.104063	-5.0436	1.17196	-8.32266	0.00908262	0.0822971	0.0115373	0.174316	-0.256592	1.12354	
6	0.839866	0.047925	-0.540554	0.0113898	9.0674	0.244454	4.69258	0.0754192	-0.492129	0.0451183	-0.772217	-0.157227	-0.72168	0.531008	0.0607098	-0.843582	0.0521056	8.7405	-0.396339	-3.70994	-0.0218482	0.0191697	-0.0282502	-1.07056	-0.281494	0.279297	0.474007	-0.252668	-0.286175	0.793461	-1.23335	-7.16965	7.90157	-0.037821	-0.0984324	-0.000882526	-0.048584	0.536621	-0.956543	0.471632	-0.119874	-0.0529666	0.872002	-1.57862	-2.15567	9.73475	0.018284	-0.081047	0.148977	0.136719	-0.00756836	-1.03027	0.560267	0.325927	-0.251448	-0.718781	-1.68605	6.88725	6.20684	-0.187338	-0.0751007	-0.0398557	0.223633	-0.455566	-0.952637	0.623287	0.201112	-0.0088589	-0.755638	-2.24607	3.43109	12.3629	-0.221647	0.00886032	-0.141554	0.261963	0.108887	-1.07788	0.00265731	0.0528167	-0.998601	0.000146749	-0.0446095	-0.212317	-9.13259	0.0204054	-0.00355134	-0.0149683	-0.187988	-0.146484	1.08276	-0.00720623	-0.108937	-0.993863	-0.0177809	-0.483605	0.22995	-8.42029	0.0104731	0.0128422	-0.0141846	-0.291748	0.154053	1.01733	-0.191118	-0.00730161	-0.96034	0.202898	-3.58099	-3.6619	-7.39686	-0.0138077	0.0775445	0.00808866	-0.0234375	0.569824	0.940674	-0.0321052	0.0942913	-0.994211	0.0402968	-0.724569	-0.935048	-9.00637	-0.0293398	0.0354698	0.000412417	-0.359131	0.0666504	1.12769	-0.243747	0.189925	-0.945141	-0.105947	-5.11313	1.14584	-8.37341	-0.119187	0.102835	0.0442592	0.172119	-0.258789	1.1167	
7	0.833153	0.0488318	-0.550707	0.0139204	9.46026	0.237168	4.53158	0.0572022	-0.491856	0.0842998	-0.783447	-0.155273	-0.70459	0.531301	0.0606813	-0.84343	0.0516087	8.95172	-0.365961	-4.28263	-0.0456281	0.0351311	-0.0409306	-1.06836	-0.279297	0.281738	0.473236	-0.251786	-0.286921	0.793932	-1.2229	-7.15284	7.63403	-0.0116589	-0.0877021	0.0130763	-0.0529785	0.534668	-0.954102	0.468431	-0.118628	-0.0531827	0.873883	-1.72711	-1.87477	9.58065	0.0243662	-0.0483401	0.132382	0.13623	0.0012207	-1.03271	0.559103	0.324247	-0.250953	-0.720618	-1.90915	7.32031	6.26444	-0.073946	-0.0940536	-0.0760162	0.221191	-0.448975	-0.955078	0.621053	0.198867	-0.00690491	-0.758088	-2.4247	3.42125	12.3518	-0.06501	-0.025997	-0.202162	0.25293	0.115234	-1.07812	0.00232575	0.0529933	-0.998592	0.000436135	-0.0439818	-0.215754	-9.1424	0.0157354	-0.00871627	-0.0144706	-0.179443	-0.144287	1.08691	-0.00728359	-0.108912	-0.993872	-0.0174173	-0.472204	0.231676	-8.41065	0.0151786	0.015658	-0.0128209	-0.294189	0.158203	1.02417	-0.188656	-0.00793451	-0.960506	0.204385	-3.40721	-3.36014	-7.46101	0.0507694	0.112339	-0.0319716	-0.0256348	0.565186	0.940674	-0.0317814	0.0944121	-0.9942	0.0405271	-0.684964	-0.923743	-8.97594	0.00932437	0.0209717	-0.000500761	-0.363525	0.0666504	1.13232	-0.242274	0.189456	-0.945457	-0.107336	-4.80036	1.10825	-8.50695	-0.130233	0.0995349	0.0565149	0.161133	-0.263428	1.1167	
8	0.827644	0.0489339	-0.558878	0.0163317	9.48913	0.157739	4.35506	0.0255935	-0.37993	0.0818072	-0.798828	-0.155518	-0.689453	0.531191	0.061177	-0.84345	0.0518208	8.98035	-0.393808	-4.04291	-0.0189238	-0.0288052	-0.0285716	-1.07251	-0.281494	0.286377	0.472053	-0.249336	-0.286412	0.795591	-1.40624	-7.30708	7.79035	0.0730311	-0.0863298	0.0367752	-0.0571289	0.534668	-0.956543	0.466529	-0.11756	-0.0531962	0.875043	-1.83733	-1.65631	9.56797	0.0182427	-0.0427623	0.0685723	0.134521	-0.00537109	-1.03247	0.558176	0.323158	-0.251081	-0.721781	-1.72848	7.3635	6.38315	-0.0412017	-0.10961	-0.0945194	0.221436	-0.453369	-0.961914	0.619022	0.195657	-0.00564273	-0.760591	-2.49861	3.54969	12.3768	-0.159306	-0.0731116	-0.179731	0.248291	0.124023	-1.08057	0.00234967	0.0531879	-0.998581	0.000718576	-0.0332781	-0.208359	-9.06831	0.01855	0.0074375	-0.015575	-0.179443	-0.144287	1.09546	-0.00751693	-0.108748	-0.993904	-0.0165089	-0.473961	0.227152	-8.42615	0.0286223	0.0122288	-0.0202272	-0.291992	0.15625	1.01489	-0.18574	-0.00731198	-0.961042	0.204562	-3.58922	-3.52083	-7.67952	-0.000822366	0.115935	-0.0578568	-0.0375977	0.576416	0.94043	-0.0316017	0.0944076	-0.994219	0.0402217	-0.702537	-0.945676	-8.99906	-0.0334692	0.0236712	0.0041399	-0.365723	0.0666504	1.12305	-0.240844	0.188999	-0.945748	-0.108782	-4.78401	0.988395	-8.41644	-0.13487	0.0950717	0.0548439	0.164062	-0.276611	1.1123	
9	0.82513	0.0489471	-0.562556	0.0172049	9.57068	0.127401	4.26431	0.0148513	-0.370226	0.0628415	-0.803223	-0.155762	-0.676514	0.5318	0.061509	-0.843042	0.051819	9.11784	-0.420961	-4.28614	0.00713099	0.0383497	-0.0267342	-1.07031	-0.285889	0.2771	0.470783	-0.247466	-0.287219	0.796636	-1.4446	-7.2707	7.9575	0.00669055	-0.0734463	0.0102788	-0.0615234	0.52832	-0.960938	0.466136	-0.116858	-0.0531253	0.875351	-1.68505	-1.39603	9.68627	0.0315559	-0.044884	0.0378529	0.13208	-0.00537109	-1.03247	0.556786	0.320018	-0.251405	-0.724136	-1.95117	7.35481	6.2487	-0.100202	-0.13897	-0.0600027	0.2146	-0.448975	-0.957275	0.617947	0.194136	-0.00557522	-0.761854	-2.4343	2.55252	12.51	-0.0478557	-0.0850378	-0.174969	0.241699	0.125977	-1.07837	0.00221506	0.053198	-0.998581	0.000696398	-0.0434564	-0.213372	-9.12895	0.013415	0.000926985	-0.01642	-0.177246	-0.146484	1.09106	-0.0074331	-0.108335	-0.993964	-0.0156352	-0.481189	0.21691	-8.42174	0.0288027	0.0121562	-0.0219964	-0.293945	0.154053	1.01489	-0.184216	-0.00690246	-0.96138	0.204365	-3.47474	-3.67325	-7.80744	-0.0248347	0.125694	-0.070811	-0.0422363	0.576416	0.938232	-0.0311604	0.0942485	-0.994283	0.0393314	-0.700601	-0.897848	-9.02126	-0.0405216	0.0202071	0.00902603	-0.363281	0.0622559	1.12769	-0.238569	0.187459	-0.946608	-0.108984	-4.75544	1.35453	-8.42025	-0.0423973	0.0667264	0.042589	0.150391	-0.274414	1.1145	
10	0.820318	0.0494759	-0.569472	0.0182308	9.46542	0.068259	4.08487	0.0194276	-0.345694	0.0150951	-0.818848	-0.153809	-0.663818	0.532278	0.0612751	-0.842754	0.0518689	9.00699	-0.355691	-4.24585	-0.00997243	0.0395934	-0.00949824	-1.07495	-0.279297	0.272217	0.4704	-0.24666	-0.288561	0.796628	-1.26885	-7.25652	7.84486	-0.0452299	-0.0141414	-0.0382056	-0.065918	0.539307	-0.961182	0.46653	-0.115643	-0.0532692	0.875293	-1.74073	-1.66249	9.54922	0.0585052	-0.0327483	-0.0306729	0.130127	-0.00756836	-1.03027	0.554554	0.318898	-0.25331	-0.725677	-1.68802	7.03099	6.48231	0.0423303	-0.113437	-0.0706717	0.210205	-0.448975	-0.964111	0.616395	0.193403	-0.00862144	-0.763268	-2.3877	3.40914	12.4669	0.0219353	-0.0907828	-0.0782335	0.242188	0.115234	-1.08008	0.00221506	0.053198	-0.998581	0.000696398	-0.0434564	-0.213372	-9.12895	0.013415	0.000926985	-0.01642	-0.177246	-0.146484	1.09106	-0.00751208	-0.108179	-0.993991	-0.0149268	-0.476179	0.207255	-8.42885	0.0438354	0.0125127	-0.0253977	-0.292236	0.164795	1.01953	-0.181434	-0.00571613	-0.961999	0.203979	-3.47281	-3.63726	-7.78698	-0.0426472	0.102693	-0.0828225	-0.0422363	0.571777	0.94043	-0.0310997	0.0942351	-0.994296	0.039086	-0.697203	-0.9016	-9.01122	-0.0271384	0.0148612	0.00524044	-0.358887	0.0644531	1.12549	-0.236378	0.186572	-0.946878	-0.112859	-4.73738	1.32945	-8.37596	-0.213077	0.063265	0.0616255	0.150635	-0.278809	1.11914	
11	0.81569	0.0500349	-0.575998	0.0193053	9.36732	0.0995329	3.88887	0.01901	-0.332328	0.0341712	-0.83252	-0.149902	-0.653076	0.532632	0.0616474	-0.842463	0.0525267	8.8331	-0.322487	-4.04133	0.00937327	0.00412366	-0.0203015	-1.06836	-0.281494	0.272217	0.470859	-0.246132	-0.289532	0.796167	-1.11653	-7.20174	7.75856	-0.0254505	0.00164295	-0.062476	-0.0593262	0.52832	-0.963135	0.467864	-0.1146	-0.0532478	0.87472	-1.5473	-1.90974	9.51085	0.0179727	-0.0243234	-0.066717	0.125488	-0.00537109	-1.03027	0.552811	0.317306	-0.256477	-0.726593	-1.47784	7.35637	6.69296	0.055181	-0.118228	-0.0191128	0.206055	-0.449219	-0.952637	0.615575	0.190926	-0.0104183	-0.76453	-2.23433	3.05733	12.6858	0.0576808	-0.110284	-0.0786795	0.239502	0.125977	-1.07837	0.00267462	0.0538616	-0.998544	0.00114199	-0.0449046	-0.193187	-9.08719	0.0120994	0.012588	-0.0171866	-0.179443	-0.144287	1.08691	-0.00734197	-0.107596	-0.994076	-0.0134623	-0.470516	0.160312	-8.41452	0.024602	0.0157496	-0.0229387	-0.291992	0.15625	1.01025	-0.180169	-0.00457712	-0.962448	0.203008	-3.48512	-3.96003	-7.83856	-0.0241015	0.0367262	-0.0570305	-0.046875	0.571777	0.94043	-0.0307195	0.0941197	-0.99436	0.0380347	-0.70683	-0.88963	-8.99376	-0.046576	0.0202401	0.00694829	-0.365479	0.0600586	1.12549	-0.234671	0.18584	-0.94723	-0.114671	-4.94393	1.40891	-8.29098	-0.0504209	0.057483	0.0267898	0.148438	-0.28125	1.12158	
12	0.811001	0.0502527	-0.58251	0.0208216	9.43018	0.159123	3.75843	0.016382	-0.334201	0.0546509	-0.843506	-0.149902	-0.640381	0.53309	0.0617212	-0.842225	0.0516029	8.82606	-0.29814	-4.02109	-0.0351975	0.0237362	-0.0336011	-1.07251	-0.281494	0.274658	0.471682	-0.246157	-0.28938	0.795727	-1.35278	-6.93024	7.50846	0.00861524	0.0449578	-0.0515902	-0.0615234	0.536865	-0.954102	0.469041	-0.11413	-0.0532119	0.874153	-1.47649	-1.66718	9.72239	-0.0338044	0.00356803	-0.0412724	0.129883	-0.00317383	-1.02808	0.552177	0.314437	-0.257368	-0.728005	-1.68402	6.7089	6.43439	-0.0499231	-0.123402	-0.0102384	0.197266	-0.449219	-0.959473	0.614811	0.189127	-0.0127328	-0.765556	-2.17777	2.81941	12.838	0.115328	-0.0819455	-0.0868374	0.229248	0.117432	-1.08228	0.00268246	0.0539158	-0.998541	0.00106384	-0.0416739	-0.204143	-9.05786	0.0105951	0.00434556	-0.0179688	-0.183838	-0.144287	1.08691	-0.00707043	-0.107247	-0.994125	-0.0128232	-0.473167	0.171135	-8.41638	0.021002	0.0205418	-0.0196695	-0.292236	0.164795	1.01489	-0.17947	-0.00412745	-0.962418	0.203779	-3.36139	-3.7354	-7.79039	0.0342249	0.0356881	-0.0371146	-0.046875	0.576172	0.947021	-0.030126	0.0940634	-0.994427	0.0368752	-0.690424	-0.854418	-9.01998	-0.0518434	0.0253053	0.00486087	-0.363037	0.0578613	1.12329	-0.233995	0.185468	-0.947461	-0.114743	-4.80128	1.3522	-8.34727	-0.0205644	0.0587405	0.0147769	0.144043	-0.285645	1.11255	
13	0.806992	0.0498974	-0.588017	0.0225865	9.87637	0.143914	3.65087	0.00209327	-0.266537	0.0712865	-0.850098	-0.152344	-0.627441	0.532701	0.062272	-0.842398	0.052128	8.99484	-0.364478	-4.01885	0.0325377	-0.000502488	-0.0283055	-1.06836	-0.281494	0.2771	0.471795	-0.246799	-0.290576	0.795026	-1.09774	-7.32785	7.76465	-0.0350144	0.0374371	-0.0257585	-0.0593262	0.534668	-0.949463	0.470219	-0.114234	-0.0534057	0.873495	-1.43915	-2.16866	9.39452	0.0382336	0.0104117	-0.0486466	0.130371	-0.0119629	-1.03027	0.550867	0.314096	-0.259641	-0.728337	-1.66722	7.20767	6.73495	0.0631791	-0.090855	-0.0346521	0.195068	-0.451416	-0.955078	0.614386	0.188531	-0.015742	-0.765988	-2.23771	3.12293	12.809	0.0834442	-0.0692452	-0.0508606	0.220703	0.113037	-1.08228	0.00254973	0.0539508	-0.99854	0.00103288	-0.0383462	-0.191358	-9.07803	0.0132282	0.00510233	-0.0171311	-0.179443	-0.144287	1.08472	-0.00715912	-0.107026	-0.994155	-0.0122361	-0.471731	0.16745	-8.42149	0.0108175	0.0182034	-0.0189209	-0.290039	0.164795	1.02173	-0.179066	-0.00381858	-0.962884	0.201929	-3.33144	-3.983	-7.90038	-0.0836188	0.0258335	-0.0226671	-0.0512695	0.567139	0.947266	-0.030147	0.0941179	-0.99442	0.036899	-0.677661	-0.846018	-9.02974	0.0113609	0.00642261	0.00123566	-0.363281	0.0600586	1.12329	-0.232526	0.184957	-0.948221	-0.11225	-4.74704	1.49463	-8.45155	0.00875771	0.0654886	-0.0122613	0.137207	-0.283447	1.12378	
14	0.804441	0.0501756	-0.591429	0.0238552	9.67735	0.128249	3.60572	0.0134905	-0.176906	0.0216167	-0.856934	-0.148193	-0.614502	0.532723	0.0625988	-0.84234	0.0524562	9.0263	-0.21688	-3.9641	0.0197952	0.056515	-0.0200122	-1.07251	-0.285889	0.2771	0.471131	-0.246861	-0.292662	0.794635	-1.23226	-7.60342	7.65329	-0.0945435	-0.0410191	-0.0280511	-0.0681152	0.543457	-0.954346	0.470616	-0.114448	-0.0551571	0.873144	-1.57698	-2.52511	9.36365	-0.0481745	-0.0245883	-0.0181067	0.12793	-0.00976562	-1.03467	0.550291	0.31326	-0.26143	-0.728494	-1.7295	7.48851	6.81351	0.0336402	-0.0432898	0.00523643	0.195312	-0.458008	-0.961914	0.614316	0.187332	-0.0178557	-0.766292	-2.3623	3.15187	12.9246	0.00858755	-0.0703182	-0.0307466	0.220703	0.113037	-1.08447	0.00245629	0.0539943	-0.998538	0.00103396	-0.0385321	-0.196663	-9.12359	0.0139644	0.0144015	-0.0177133	-0.181885	-0.14209	1.08887	-0.00728692	-0.106926	-0.994168	-0.0119972	-0.458903	0.164938	-8.41991	0.00521285	0.0133887	-0.0179717	-0.294434	0.164795	1.01709	-0.179131	-0.00408109	-0.9628	0.202264	-3.37697	-3.65698	-7.76523	0.0230484	-0.00539105	-0.000640054	-0.0444336	0.573975	0.947021	-0.0302818	0.0941709	-0.994401	0.0371611	-0.675837	-0.839161	-9.01984	0.0148737	0.00362607	0.00202314	-0.367432	0.0554199	1.12573	-0.232526	0.184957	-0.948221	-0.11225	-4.74704	1.49463	-8.45155	0.00875771	0.0654886	-0.0122613	0.137207	-0.283447	1.12378	
15	0.802017	0.0505526	-0.594628	0.0250984	9.56851	0.0543102	3.58119	0.0204132	-0.175537	0.0301237	-0.856934	-0.148193	-0.610352	0.533146	0.0625737	-0.842037	0.0530337	8.87242	-0.280601	-4.07032	0.03256	0.059161	-0.00848191	-1.07251	-0.283691	0.2771	0.47109	-0.245422	-0.29125	0.795623	-1.15658	-7.4001	7.42365	0.131283	-0.0148096	0.00610846	-0.0656738	0.530518	-0.958496	0.470698	-0.113595	-0.0551256	0.873213	-1.34792	-2.17718	9.58394	-0.0115184	-0.0191226	-0.00585551	0.13208	-0.00537109	-1.03247	0.550197	0.31246	-0.262685	-0.728456	-1.49939	6.93293	6.567	0.0730791	-0.0252054	0.0146514	0.188721	-0.458008	-0.966309	0.614208	0.187824	-0.0205337	-0.766191	-2.18936	3.30055	12.7427	0.126486	-0.0217075	-0.0249336	0.214355	0.108643	-1.08423	0.00245629	0.0539943	-0.998538	0.00103396	-0.0385321	-0.196663	-9.12359	0.0139644	0.0144015	-0.0177133	-0.181885	-0.14209	1.08887	-0.00743265	-0.106524	-0.994213	-0.0117744	-0.463428	0.162458	-8.40889	-0.00436479	0.0112412	-0.0194994	-0.290039	0.162598	1.01709	-0.180442	-0.00409625	-0.962663	0.201752	-3.38035	-3.71177	-7.8309	-0.0181537	-0.0459729	0.00661637	-0.0463867	0.5625	0.945068	-0.0308541	0.0941419	-0.994331	0.0386279	-0.699309	-0.858571	-9.02792	0.0420847	-0.00151376	0.00144654	-0.363281	0.0600586	1.12085	-0.231836	0.185244	-0.94848	-0.111003	-4.74545	1.51676	-8.47064	-0.00136488	-0.00241046	-0.0245493	0.141602	-0.28125	1.12378	
16	0.799456	0.0516454	-0.597926	0.0262147	9.558	0.117994	3.51651	0.0373939	-0.185828	0.00408874	-0.86792	-0.150635	-0.599609	0.533314	0.0626046	-0.841897	0.0535433	8.96342	-0.288926	-4.15702	0.0184991	0.0436527	-0.009749	-1.07495	-0.279297	0.274658	0.470138	-0.244237	-0.291482	0.796466	-1.11543	-7.02325	7.78728	-0.0164361	-0.0362284	0.0173279	-0.065918	0.539307	-0.954346	0.470054	-0.11296	-0.0552278	0.873636	-1.37292	-1.95955	9.67996	-0.0144072	-0.0306657	0.0506976	0.127686	-0.00317383	-1.03247	0.549712	0.312922	-0.264297	-0.728041	-1.60586	7.27517	6.60249	0.0236616	-0.0240872	-0.010599	0.180176	-0.460205	-0.957275	0.615358	0.186807	-0.0209901	-0.765504	-2.20771	3.13745	12.8361	0.00852792	-0.00739709	-0.00360727	0.21875	0.106445	-1.08423	0.00245629	0.0539943	-0.998538	0.00103396	-0.0385321	-0.196663	-9.12359	0.0139644	0.0144015	-0.0177133	-0.181885	-0.14209	1.08887	-0.00760004	-0.106438	-0.99422	-0.0118194	-0.4832	0.166576	-8.44901	-0.0165663	0.0123012	-0.0167739	-0.296387	0.1604	1.01733	-0.181788	-0.00432049	-0.962367	0.201953	-3.38288	-3.72835	-7.76461	0.0257519	-0.0350611	-0.000619561	-0.0397949	0.571777	0.947266	-0.0312377	0.0942616	-0.994267	0.0396525	-0.704661	-0.884989	-9.00703	0.0310615	-0.000568837	-0.00164029	-0.361084	0.0600586	1.13013	-0.23207	0.185393	-0.948322	-0.111615	-4.79573	1.32472	-8.44865	-0.0580156	-0.0206166	-0.0264788	0.141602	-0.28125	1.11914	
17	0.798229	0.0520644	-0.599501	0.0267947	9.52956	0.167618	3.49321	0.0263014	-0.173324	0.0163675	-0.872559	-0.148438	-0.597412	0.533249	0.0625251	-0.841939	0.0536072	8.79106	-0.251403	-3.89482	-0.00881564	0.00586811	-0.0110727	-1.06812	-0.283691	0.2771	0.469377	-0.243976	-0.292128	0.796757	-1.15164	-7.22588	7.55148	-0.0327772	-0.0425635	0.0231925	-0.065918	0.539307	-0.951904	0.468451	-0.11299	-0.0555863	0.87447	-1.50716	-2.19728	9.42802	0.0386612	0.00117471	0.0778005	0.125488	-0.00561523	-1.02808	0.550152	0.312525	-0.264123	-0.727942	-1.58325	7.28863	6.57933	-0.0376085	0.00370839	0.0171501	0.18457	-0.462402	-0.966309	0.61643	0.18603	-0.0212481	-0.764824	-2.22091	3.23683	12.8029	-0.0232185	0.000853428	0.00435806	0.214355	0.11084	-1.08862	0.00273804	0.0548597	-0.998489	0.0018416	-0.0486768	-0.187669	-9.05824	0.0142825	0.0109266	-0.0162	-0.179688	-0.14209	1.08691	-0.00748023	-0.106223	-0.994244	-0.0117857	-0.461519	0.185003	-8.42793	-0.00353802	0.0171186	-0.0155037	-0.294434	0.162598	1.01489	-0.182816	-0.00453152	-0.962134	0.202126	-3.45141	-3.48245	-7.59823	-0.0216885	-0.0288501	-0.00515748	-0.046875	0.571533	0.95166	-0.031412	0.0942905	-0.994245	0.0400018	-0.699049	-0.88226	-9.02566	0.0225466	0.00120184	0.000484182	-0.367676	0.0598145	1.12329	-0.233492	0.185264	-0.948205	-0.109846	-4.85278	1.37553	-8.47447	0.0967573	-0.0403406	-0.0421022	0.141357	-0.276855	1.1145	
18	0.795499	0.0525917	-0.603006	0.0282723	9.35003	0.0683495	3.3675	0.0277902	-0.194205	0.0424351	-0.872314	-0.152832	-0.58667	0.533428	0.062658	-0.841763	0.0544332	8.85928	-0.442796	-4.14402	0.0125055	0.0202288	-0.00166612	-1.0752	-0.272949	0.269775	0.46841	-0.242975	-0.291248	0.797954	-1.05365	-7.37426	7.54318	0.117911	0.00269545	0.0315708	-0.0678711	0.530518	-0.95166	0.467665	-0.113033	-0.0555683	0.874886	-1.36505	-1.7297	9.7862	-0.00292704	0.00256242	0.0720402	0.118652	-0.00341797	-1.03467	0.550773	0.311688	-0.263376	-0.728103	-1.53545	6.77684	6.50463	-0.028405	0.00383156	-0.00956477	0.182373	-0.458008	-0.957275	0.616466	0.186712	-0.0221973	-0.764602	-2.11568	3.19499	12.8192	0.107617	0.0217609	-0.02644	0.212158	0.108643	-1.08643	0.00268697	0.0548755	-0.998488	0.00183278	-0.0493804	-0.189613	-9.10388	0.014216	0.00769382	-0.0169154	-0.181641	-0.146484	1.08911	-0.00767152	-0.106083	-0.994264	-0.0112488	-0.472611	0.176424	-8.43357	0.00929569	0.0138223	-0.0172818	-0.291992	0.15625	1.01733	-0.183465	-0.00447472	-0.962094	0.20173	-3.40599	-3.58856	-7.63391	-0.0299276	-0.0415028	-0.00593957	-0.0444336	0.569336	0.944824	-0.0315854	0.0943722	-0.994206	0.0406399	-0.69383	-0.893121	-8.9847	0.0146116	0.00972553	-0.00299955	-0.361328	0.0710449	1.12061	-0.234064	0.185132	-0.948216	-0.108751	-4.71977	1.15146	-8.31084	0.0548141	0.000788101	-0.0316678	0.148193	-0.276611	1.12158	
19	0.79276	0.0531519	-0.606467	0.0300583	9.73681	0.130322	3.24891	0.0323249	-0.167532	0.0505028	-0.885986	-0.146729	-0.580322	0.532792	0.0629249	-0.842102	0.0551125	8.87184	-0.368405	-4.16954	0.0182658	-0.0227617	-0.016584	-1.07275	-0.274902	0.276855	0.466548	-0.24249	-0.290676	0.799399	-1.22398	-6.60454	7.98899	-0.0631997	-0.0247699	0.066954	-0.0634766	0.530518	-0.958496	0.466382	-0.113902	-0.0552935	0.875475	-1.36635	-1.99525	9.34931	0.0430354	0.0439765	0.0703653	0.127686	-0.00537109	-1.03467	0.550281	0.313524	-0.264496	-0.727279	-1.46892	7.2644	6.4555	0.0921559	0.0424315	-0.021125	0.189209	-0.4646	-0.959473	0.617127	0.187635	-0.0226464	-0.763829	-2.0166	3.40417	12.6241	0.0389132	0.0542891	-0.00963272	0.212646	0.100098	-1.07959	0.00270535	0.0548932	-0.998487	0.00182973	-0.0414828	-0.199153	-9.08139	0.0144083	0.0132647	-0.0171225	-0.181641	-0.146484	1.09106	-0.007822	-0.105965	-0.994284	-0.0104926	-0.474609	0.178286	-8.44104	0.024652	0.0181207	-0.0181293	-0.292236	0.162842	1.01245	-0.184191	-0.00449365	-0.962003	0.201505	-3.49972	-3.67587	-7.58656	-0.014731	-0.0467787	-0.000646877	-0.0373535	0.56958	0.95166	-0.031738	0.0945499	-0.99416	0.0412285	-0.697017	-0.90548	-8.98859	0.0203722	0.0085188	-0.00124344	-0.365723	0.0664062	1.12085	-0.234712	0.184809	-0.948197	-0.108063	-4.71154	1.18107	-8.26515	-0.00554994	-0.0191682	-0.00953868	0.145752	-0.274658	1.11914	
20	0.790917	0.0523548	-0.608787	0.0329715	9.32693	-0.0580646	3.17745	0.0128414	-0.129809	0.120669	-0.881592	-0.144531	-0.571533	0.532675	0.0628271	-0.842198	0.0548862	8.89315	-0.30659	-3.94589	-0.00236887	0.00521707	-0.0224681	-1.07056	-0.281494	0.281738	0.464077	-0.244275	-0.293411	0.799295	-1.12097	-7.39799	7.59644	-0.112378	-0.00136266	0.0752158	-0.0615234	0.534668	-0.951904	0.464498	-0.115516	-0.0564838	0.876189	-1.49639	-1.95849	9.58027	-0.114914	0.0330334	0.072652	0.127441	-0.000976562	-1.03467	0.549774	0.314222	-0.264872	-0.727225	-1.57939	7.49991	6.46714	0.000583293	0.0127418	-0.0203233	0.189209	-0.466797	-0.952637	0.617503	0.187628	-0.022214	-0.76354	-2.06258	3.35836	12.4142	-0.046175	0.0232555	-0.0407714	0.2146	0.106445	-1.09058	0.00287815	0.0553102	-0.998462	0.00231947	-0.036926	-0.195151	-9.08925	0.0177275	0.00923746	-0.0163421	-0.175293	-0.14209	1.08252	-0.00802311	-0.105829	-0.994305	-0.00965913	-0.446503	0.165567	-8.4015	0.0179102	0.0122954	-0.0192567	-0.294434	0.160645	1.01025	-0.186159	-0.00406501	-0.961748	0.20092	-3.35569	-3.78447	-7.68561	-0.0432919	-0.0425151	-0.0129234	-0.0371094	0.564941	0.947266	-0.0317846	0.0946466	-0.99413	0.0416766	-0.707635	-0.908359	-9.01085	0.00813963	0.0138544	-0.000623425	-0.358887	0.0622559	1.12329	-0.235506	0.184337	-0.948184	-0.107259	-4.71716	1.3237	-8.21557	0.0116009	-0.0127432	-0.0115153	0.147949	-0.27002	1.12354	
21	0.789111	0.0518564	-0.611038	0.0353053	9.53648	-0.259208	3.18773	0.0135714	-0.125889	0.0667669	-0.890869	-0.138184	-0.567383	0.531886	0.0631613	-0.842682	0.054734	8.7349	-0.364563	-3.9319	0.00523509	-0.0355084	-0.0278736	-1.07275	-0.2771	0.281494	0.462066	-0.245279	-0.293095	0.800268	-1.23225	-6.75354	7.5374	-0.0192192	0.0446083	0.0676837	-0.0593262	0.534668	-0.951904	0.462717	-0.117094	-0.0558679	0.876961	-1.40669	-1.69878	9.46271	-0.0238861	0.0749114	0.0919503	0.127686	-0.00317383	-1.03467	0.549497	0.31396	-0.264101	-0.727827	-1.46391	6.65419	6.30898	0.0173047	0.00678755	-0.0521692	0.191162	-0.462402	-0.959473	0.617325	0.189388	-0.0243144	-0.763185	-2.15183	3.46474	12.4589	0.140224	0.0299042	-0.0361135	0.215088	0.0935059	-1.08594	0.0026008	0.0553189	-0.998462	0.00241136	-0.0543835	-0.189138	-9.01617	0.0182327	-0.00872389	-0.0157591	-0.183838	-0.144287	1.08472	-0.00831033	-0.105744	-0.994317	-0.00911513	-0.46678	0.172311	-8.42579	0.0125157	0.0125537	-0.0148265	-0.290039	0.162598	1.01953	-0.186502	-0.00401214	-0.961419	0.202174	-3.55042	-3.8029	-7.70897	0.0656322	0.00316555	-0.0256376	-0.0375977	0.571777	0.947266	-0.0315818	0.0946363	-0.99415	0.0413713	-0.69182	-0.905534	-9.00067	-0.0243209	0.0186389	0.00660595	-0.361084	0.0622559	1.12549	-0.235571	0.183686	-0.948447	-0.105897	-4.6156	1.07219	-8.31525	0.0958753	0.0248011	-0.00368357	0.147705	-0.267822	1.11914	
22	0.786756	0.0528333	-0.613955	0.035829	9.64393	-0.214537	3.12047	0.0180846	-0.180991	-0.0306651	-0.89502	-0.140381	-0.558838	0.530736	0.0634793	-0.843399	0.0544754	8.94588	-0.258803	-4.05204	-0.0184736	-0.0529068	-0.0314626	-1.06812	-0.285889	0.286621	0.459858	-0.246307	-0.2945	0.800708	-1.27522	-7.3067	7.75679	-0.0721041	-0.0125046	0.0623536	-0.0595703	0.545654	-0.952148	0.461533	-0.118604	-0.0553232	0.877417	-1.83422	-1.69938	8.90091	0.01917	0.0488241	0.0512579	0.13208	-0.000976562	-1.02808	0.547802	0.316331	-0.266709	-0.727128	-1.62962	7.46655	6.37901	0.153017	0.00870128	-0.0389985	0.189209	-0.466797	-0.959473	0.617403	0.190705	-0.0259785	-0.762739	-2.26428	3.20348	12.3753	0.134036	0.0205349	-0.0262391	0.219238	0.0935059	-1.08813	0.0026008	0.0553189	-0.998462	0.00241136	-0.0543835	-0.189138	-9.01617	0.0182327	-0.00872389	-0.0157591	-0.183838	-0.144287	1.08472	-0.00846609	-0.105734	-0.994323	-0.00838961	-0.470039	0.151836	-8.43105	0.0195701	0.0124054	-0.0155208	-0.291992	0.158447	1.01733	-0.186675	-0.00426537	-0.961107	0.203488	-3.45018	-3.55379	-7.64618	0.0287538	-0.00123369	-0.00878446	-0.0395508	0.567139	0.945068	-0.0316614	0.0945676	-0.994153	0.0414017	-0.690788	-0.898563	-9.02475	-0.00244205	0.00689924	0.00909859	-0.365723	0.0644531	1.11865	-0.234489	0.182469	-0.949082	-0.104704	-4.81945	1.4232	-8.49991	0.0109679	0.0637041	0.0305716	0.143311	-0.267822	1.12134	
23	0.78548	0.0536999	-0.615519	0.0356978	10.0862	-0.087171	3.08799	0.02045	-0.178379	-0.0496255	-0.897217	-0.142578	-0.554443	0.529841	0.0636282	-0.843973	0.0541326	9.1214	-0.232994	-4.27169	-0.0161713	-0.0206313	-0.0323678	-1.0769	-0.285889	0.286621	0.458545	-0.246873	-0.297067	0.800338	-1.37816	-7.37958	7.45705	-0.147766	-0.0356189	-0.0151156	-0.0617676	0.552002	-0.949951	0.460889	-0.119901	-0.05864	0.877363	-1.78543	-2.25811	9.02275	-0.146501	-0.01595	-0.0161821	0.131592	0.00561523	-1.03491	0.547209	0.316947	-0.268244	-0.72674	-1.7679	7.29193	6.43937	0.0502859	-0.0217676	0.0159259	0.193848	-0.475586	-0.955078	0.617955	0.191919	-0.0291324	-0.761873	-2.3862	3.18659	12.56	0.15323	-0.0182561	0.00304993	0.219727	0.0869141	-1.0835	0.0021078	0.0557534	-0.998438	0.00281184	-0.051485	-0.195415	-9.0894	0.0163318	-0.00861912	-0.0167702	-0.179443	-0.144287	1.09106	-0.0088941	-0.105672	-0.994329	-0.00798662	-0.458318	0.151733	-8.4214	-0.00223131	0.00370111	-0.0184805	-0.294189	0.160645	1.01489	-0.187681	-0.00397513	-0.961295	0.201673	-3.5428	-3.84435	-7.69432	-0.0820015	-0.0325569	-0.00571097	-0.0300293	0.560547	0.951904	-0.0319223	0.0943932	-0.994146	0.0417579	-0.693219	-0.890508	-8.98608	0.00705695	0.00319718	0.00529583	-0.365723	0.0644531	1.12549	-0.233284	0.181696	-0.949446	-0.105438	-4.72392	1.32492	-8.65801	-0.0329772	0.0384805	0.0196042	0.145508	-0.267822	1.11914	
24	0.782804	0.0552873	-0.618809	0.0351649	9.84676	-0.110623	2.99515	0.0234126	-0.179744	-0.0493809	-0.903564	-0.147217	-0.541504	0.529812	0.0636078	-0.844007	0.0539023	9.10681	-0.187531	-4.18543	-0.0261518	0.00705804	-0.0275913	-1.06812	-0.283691	0.288818	0.458397	-0.246388	-0.298032	0.800214	-1.40116	-7.72771	7.49769	-0.0451931	-0.0466064	-0.0415436	-0.0595703	0.552002	-0.947754	0.462492	-0.118442	-0.0588683	0.876702	-1.579	-1.76033	9.50464	-0.0390576	-0.0600443	-0.1043	0.129639	0.0012207	-1.03271	0.547099	0.317365	-0.269361	-0.726228	-1.79349	7.33904	6.40954	0.0947332	-0.00670998	0.0225255	0.187256	-0.473389	-0.952637	0.619177	0.193021	-0.0327052	-0.760456	-2.11832	3.82911	12.6322	0.0922219	-0.0276535	0.0708932	0.21582	0.0761719	-1.0896	0.0021078	0.0557534	-0.998438	0.00281184	-0.051485	-0.195415	-9.0894	0.0163318	-0.00861912	-0.0167702	-0.179443	-0.144287	1.09106	-0.00908446	-0.105635	-0.994331	-0.00797307	-0.476189	0.153713	-8.42517	-0.00866362	0.00906621	-0.0183733	-0.294434	0.160645	1.01025	-0.18822	-0.00394732	-0.961234	0.20146	-3.53594	-3.91336	-7.67625	-0.0149538	-0.0335663	-0.00951424	-0.0371094	0.562744	0.949463	-0.0321077	0.0943165	-0.994144	0.0418455	-0.709561	-0.914229	-9.02089	0.00301725	-0.00154567	0.00828153	-0.365479	0.0600586	1.12329	-0.23332	0.181439	-0.949423	-0.106012	-4.85981	1.28054	-8.70354	-0.0465137	-0.00528487	0.0101034	0.141357	-0.274658	1.12134	
25	0.779239	0.0574982	-0.623096	0.0350956	9.77804	0.0625023	2.75553	0.0365006	-0.251222	-0.0353922	-0.908203	-0.14502	-0.535156	0.529693	0.0636255	-0.844082	0.0538756	8.90377	-0.388054	-4.29476	-0.0107223	-0.0127179	-0.0204652	-1.07251	-0.283691	0.288818	0.458695	-0.244454	-0.298051	0.800629	-1.23644	-7.32806	7.64096	0.0173155	-0.054993	-0.0306844	-0.0617676	0.549805	-0.943115	0.463865	-0.117596	-0.0592576	0.876065	-1.74297	-2.67573	9.48773	0.0157695	-0.0554648	-0.12653	0.127197	0.00561523	-1.03491	0.546991	0.317719	-0.270933	-0.72557	-1.56703	7.58614	6.35881	0.0435664	-0.0252051	0.00893556	0.191895	-0.477783	-0.952637	0.621953	0.191758	-0.0336935	-0.758464	-2.22843	3.96506	12.6157	-0.0545177	-0.0227315	0.0802265	0.21582	0.0761719	-1.08765	0.00180563	0.0563786	-0.998402	0.00348293	-0.0547123	-0.200498	-9.0837	0.0174471	-0.0023585	-0.0164008	-0.17749	-0.14209	1.08691	-0.00949203	-0.105492	-0.994341	-0.0082286	-0.462863	0.159432	-8.4234	-0.0252182	0.00897193	-0.0202605	-0.289795	0.15625	1.01489	-0.188658	-0.00380364	-0.960991	0.202214	-3.5114	-3.73302	-7.48733	0.030259	-0.0154584	-0.0171081	-0.0305176	0.571777	0.95166	-0.0323577	0.094158	-0.994161	0.0416003	-0.717953	-0.90134	-9.03954	-0.0185104	0.00416466	0.00980931	-0.358887	0.0644531	1.12549	-0.234437	0.181105	-0.949207	-0.106049	-4.81153	1.45074	-8.57257	0.00775934	-0.0457392	-0.0183669	0.143311	-0.265625	1.1189	
26	0.775614	0.0588066	-0.627461	0.0354725	9.76913	-0.0335953	2.55522	0.0247439	-0.235648	-0.022745	-0.9104	-0.149658	-0.515869	0.529832	0.0639609	-0.843974	0.0538016	8.82655	-0.288057	-4.00446	-0.0121458	0.00445843	-0.0351947	-1.07446	-0.288086	0.289062	0.45729	-0.244607	-0.302202	0.799829	-1.24987	-7.34612	7.52268	-0.212299	-0.0677092	-0.0287504	-0.0661621	0.556396	-0.943359	0.464757	-0.116799	-0.0609481	0.875582	-1.44647	-2.38445	9.62404	-0.116764	-0.0499798	-0.0286585	0.122803	0.00756836	-1.03052	0.547079	0.317304	-0.271455	-0.72549	-1.57401	7.43908	6.40932	-0.00898898	-0.0087391	0.0177372	0.185303	-0.477783	-0.955078	0.622548	0.191721	-0.0343924	-0.757954	-2.05296	3.75707	12.8303	0.0479885	-0.00659958	0.0154813	0.21582	0.0739746	-1.08105	0.00180563	0.0563786	-0.998402	0.00348293	-0.0547123	-0.200498	-9.0837	0.0174471	-0.0023585	-0.0164008	-0.17749	-0.14209	1.08691	-0.00964284	-0.105271	-0.994358	-0.008737	-0.479971	0.177409	-8.42164	-0.0246418	0.00839968	-0.0159693	-0.294434	0.162598	1.01489	-0.188658	-0.00380364	-0.960991	0.202214	-3.5114	-3.73302	-7.48733	0.030259	-0.0154584	-0.0171081	-0.0305176	0.571777	0.95166	-0.0324019	0.0941622	-0.99417	0.0413573	-0.715455	-0.884993	-9.02217	-0.0122281	0.00396852	0.00278997	-0.358887	0.0644531	1.12305	-0.236148	0.180779	-0.948933	-0.105259	-4.86117	1.38142	-8.36465	0.0630088	-0.0635737	-0.023497	0.143066	-0.263428	1.12134	
27	0.772587	0.0600839	-0.631051	0.0357005	9.8419	-0.0390721	2.47832	0.013028	-0.194087	-0.0121775	-0.92334	-0.151855	-0.515869	0.530055	0.0644032	-0.843795	0.0538867	8.90539	-0.370618	-4.13585	0.0179661	0.0537607	-0.0338398	-1.07471	-0.283691	0.286621	0.456622	-0.24368	-0.302914	0.800225	-1.19993	-7.63883	7.32312	0.0962686	-0.0200864	0.000668844	-0.0683594	0.552246	-0.945557	0.463756	-0.116337	-0.0618448	0.876111	-1.37048	-2.32856	9.76093	-0.0260281	-0.0272181	0.056045	0.126953	0.0100098	-1.03271	0.546572	0.31789	-0.271908	-0.725445	-1.60556	7.65141	6.49703	0.0282457	-0.000324872	-0.0450923	0.185303	-0.47998	-0.955078	0.623154	0.191518	-0.0346383	-0.757496	-2.15134	4.29598	12.7365	-0.0842138	0.0105402	-0.033848	0.211426	0.0783691	-1.08984	0.00176038	0.0568446	-0.998374	0.00374916	-0.0772943	-0.186904	-9.07994	0.00842423	0.00804328	-0.0174547	-0.17749	-0.144287	1.09106	-0.00993848	-0.105259	-0.994356	-0.00879239	-0.467902	0.205297	-8.39823	-0.0103995	0.0120672	-0.0162336	-0.290039	0.162598	1.01709	-0.188526	-0.00473293	-0.961086	0.201864	-3.44614	-3.51146	-7.44159	-0.00980997	0.0331202	0.0140066	-0.0253906	0.558105	0.949707	-0.0329111	0.0942527	-0.994093	0.0425662	-0.722031	-0.906778	-9.01008	0.0536044	-0.00205122	-0.00473002	-0.358887	0.0644531	1.12549	-0.237068	0.180444	-0.948608	-0.10668	-4.76177	1.29915	-8.14818	-0.0764106	-0.0319469	0.00164937	0.150146	-0.272217	1.1145	
28	0.769899	0.0615923	-0.634184	0.0356861	9.90891	-0.0615453	2.43544	0.0227656	-0.167362	-0.0449299	-0.92334	-0.156494	-0.498535	0.530157	0.0651658	-0.843668	0.0539534	8.93809	-0.246919	-4.14492	0.00971352	0.0282533	-0.0499109	-1.07495	-0.279297	0.283936	0.455425	-0.242334	-0.302354	0.801526	-1.16375	-7.29622	7.72146	0.0173362	-0.0502481	0.0564511	-0.074707	0.550293	-0.947754	0.463105	-0.116501	-0.0626555	0.876377	-1.48473	-2.44395	9.72519	-0.0655209	-0.019283	0.0510852	0.120361	0.0119629	-1.03052	0.546194	0.316987	-0.270384	-0.726693	-1.64268	7.75036	6.50097	-0.0956516	0.0104144	-0.073176	0.187256	-0.471191	-0.952637	0.62263	0.191026	-0.0335893	-0.758098	-2.22439	4.12057	12.7581	-0.0312536	0.0326486	-0.104042	0.211426	0.0739746	-1.0918	0.00171212	0.0568592	-0.998374	0.0036893	-0.060469	-0.194976	-9.08514	0.0101946	0.007734	-0.016887	-0.179688	-0.139893	1.09106	-0.0104164	-0.105149	-0.994361	-0.0090265	-0.483875	0.199602	-8.40494	-0.0220564	0.00576084	-0.0167766	-0.291992	0.158447	1.01489	-0.187425	-0.00501922	-0.961415	0.201316	-3.52839	-3.54617	-7.55566	-0.0208524	0.0519187	-0.00334239	-0.0327148	0.56958	0.945068	-0.0331357	0.0943536	-0.994055	0.043055	-0.740828	-0.914298	-9.00266	0.00417028	0.00829509	0.000521707	-0.361328	0.0666504	1.12769	-0.237184	0.18062	-0.948354	-0.108373	-4.702	1.20865	-8.0791	-0.0695172	-0.0140847	-0.00235938	0.145752	-0.274658	1.1145	
29	0.767844	0.0636624	-0.636484	0.0353694	9.77433	0.030875	2.34743	0.0300441	-0.137085	-0.0634591	-0.921143	-0.15625	-0.500732	0.530591	0.0657351	-0.843356	0.0538746	8.91719	-0.288181	-4.17559	-0.00937993	0.036483	-0.0418945	-1.07422	-0.294434	0.284668	0.453043	-0.241958	-0.304441	0.802199	-1.12684	-7.54397	7.45548	-0.0906806	-0.0669113	0.0487366	-0.0661621	0.560791	-0.943359	0.460766	-0.116622	-0.0633456	0.877543	-1.45045	-2.48924	9.55969	-0.101517	-0.00991393	0.0766854	0.124756	0.0119629	-1.03271	0.546219	0.315049	-0.267454	-0.7286	-1.53817	7.06243	6.24369	-0.124419	0.000915988	-0.0618017	0.191406	-0.468994	-0.959473	0.621369	0.190577	-0.0317818	-0.759322	-2.13992	3.28443	12.625	0.0418748	0.054594	-0.155225	0.211182	0.0827637	-1.08569	0.0018713	0.0570906	-0.998359	0.00402768	-0.0622135	-0.190817	-9.061	0.0154021	0.00683445	-0.0167371	-0.183838	-0.14209	1.08887	-0.0107415	-0.105036	-0.994369	-0.00909992	-0.485544	0.217221	-8.42525	-0.00605753	0.0139735	-0.0182022	-0.298584	0.158203	1.01953	-0.186159	-0.00522514	-0.961374	0.202674	-3.53634	-3.45375	-7.7122	0.0723167	0.0627349	-0.0342484	-0.032959	0.571777	0.949463	-0.0330935	0.0944127	-0.994049	0.0430906	-0.727105	-0.898653	-8.98926	-0.00400331	0.0148731	-0.00282965	-0.361084	0.0622559	1.12769	-0.236791	0.180122	-0.948465	-0.10909	-4.66988	1.28943	-8.15544	-0.0318139	0.0235538	0.00975473	0.157227	-0.278809	1.11914	
30	0.766441	0.0659231	-0.637959	0.0350811	10.1732	0.210719	2.21031	0.0332521	-0.0716764	-0.066652	-0.925049	-0.167236	-0.494141	0.53113	0.066258	-0.842965	0.0540561	8.93981	-0.400144	-4.08724	0.0256075	0.0290625	-0.030834	-1.07422	-0.294434	0.289307	0.451041	-0.24049	-0.304637	0.803693	-1.2267	-7.5496	7.49807	0.0624117	-0.064223	0.0502612	-0.074707	0.552246	-0.936279	0.458442	-0.116134	-0.0628325	0.87886	-1.45307	-1.99992	9.58703	-0.00247931	-0.0245342	0.110719	0.111572	0.00756836	-1.03052	0.545039	0.315851	-0.266865	-0.729352	-1.54946	7.14184	6.44964	-0.000184773	0.00428183	-0.0804827	0.191406	-0.466797	-0.955078	0.620501	0.190662	-0.030293	-0.760072	-2.14811	3.27212	12.5662	-0.0654261	0.0540149	-0.113617	0.213135	0.0849609	-1.09009	0.00188161	0.0571026	-0.998358	0.00403221	-0.0640024	-0.18623	-9.10018	0.0151115	0.0127002	-0.0166942	-0.179443	-0.148682	1.08691	-0.0105749	-0.104785	-0.994401	-0.00866539	-0.485361	0.228223	-8.42359	0.0143187	0.0168924	-0.0199358	-0.296387	0.15625	1.01489	-0.185154	-0.00476424	-0.961739	0.201876	-3.53386	-3.46336	-7.70682	-0.0673023	0.0367359	-0.0424187	-0.0371094	0.562744	0.949463	-0.0330935	0.0944127	-0.994049	0.0430906	-0.727105	-0.898653	-8.98926	-0.00400331	0.0148731	-0.00282965	-0.361084	0.0622559	1.12769	-0.235297	0.179697	-0.948648	-0.111405	-4.78006	1.20632	-8.24928	-0.114053	0.0568072	0.0315725	0.144043	-0.287842	1.11475	
31	0.766237	0.0672026	-0.638078	0.0349416	9.77214	0.224655	2.23742	-0.00137796	-0.0269032	-0.0361843	-0.927246	-0.165283	-0.489746	0.531372	0.0665813	-0.842768	0.0543438	8.92741	-0.317901	-4.09605	0.0231266	0.0365107	-0.0310903	-1.07031	-0.285889	0.28418	0.450247	-0.239548	-0.304205	0.804583	-1.11964	-7.37837	7.52978	0.0720699	-0.0625054	0.0527302	-0.0769043	0.554443	-0.936279	0.456278	-0.115253	-0.0626339	0.880116	-1.58608	-2.03969	9.35244	0.0637814	-0.0345046	0.0986641	0.115723	0.0119629	-1.02612	0.545196	0.315615	-0.265455	-0.729851	-1.70368	7.36411	6.59461	-0.0915407	0.0175973	-0.0269086	0.193604	-0.466797	-0.959473	0.620391	0.190644	-0.0292861	-0.760205	-2.21241	3.30238	12.466	-0.0450976	0.0407549	-0.0519159	0.219971	0.0805664	-1.08984	0.00207299	0.0573107	-0.998345	0.0042324	-0.0640693	-0.196069	-9.08112	0.0149938	0.013996	-0.0162399	-0.177246	-0.146484	1.08472	-0.0106023	-0.104732	-0.99441	-0.00817067	-0.48635	0.21344	-8.41988	0.0327488	0.0174229	-0.0224895	-0.291992	0.158447	1.01953	-0.184072	-0.00401282	-0.962083	0.20124	-3.45074	-3.6128	-7.78166	-0.0157025	0.0511525	-0.0563545	-0.0395508	0.564941	0.947266	-0.0320738	0.0943596	-0.994148	0.0416866	-0.701535	-0.898137	-9.01797	-0.0398053	0.0261246	0.00256881	-0.365479	0.0600586	1.12769	-0.234374	0.17931	-0.948867	-0.112104	-4.75051	1.20441	-8.31375	-0.0628206	0.0687255	0.0351939	0.14624	-0.283447	1.11475	
32	0.765843	0.0674823	-0.638521	0.034942	9.66652	0.197445	2.25444	-0.0102242	-0.0611886	-0.0183849	-0.932129	-0.158691	-0.48999	0.532141	0.0671333	-0.84222	0.0546308	8.8841	-0.311808	-4.16701	0.0022632	0.0493348	-0.0340173	-1.0769	-0.285889	0.279541	0.448275	-0.238173	-0.304611	0.805937	-1.18614	-7.16323	7.49771	-0.011145	-0.0583448	0.0445788	-0.0769043	0.55249	-0.947754	0.454371	-0.114949	-0.0640985	0.881036	-1.53832	-2.04891	9.26393	-0.0460743	-0.0329276	0.0603468	0.115723	0.0119629	-1.03052	0.545712	0.314835	-0.264328	-0.730211	-1.55193	6.97559	6.31024	-0.122543	0.012799	-0.0110373	0.189209	-0.466797	-0.961914	0.621808	0.189781	-0.0281267	-0.759307	-2.27979	3.41617	12.2891	-0.0662427	0.0268567	0.0185534	0.219727	0.0869141	-1.08569	0.00207299	0.0573107	-0.998345	0.0042324	-0.0640693	-0.196069	-9.08112	0.0149938	0.013996	-0.0162399	-0.177246	-0.146484	1.08472	-0.0106859	-0.104481	-0.994444	-0.00713384	-0.471299	0.190422	-8.41357	0.0348438	0.0160067	-0.0223312	-0.287598	0.15625	1.01953	-0.184072	-0.00401282	-0.962083	0.20124	-3.45074	-3.6128	-7.78166	-0.0157025	0.0511525	-0.0563545	-0.0395508	0.564941	0.947266	-0.0317535	0.0943144	-0.994189	0.0410484	-0.701458	-0.882117	-9.01429	-0.0579494	0.0333385	0.00412341	-0.36084	0.0556641	1.12573	-0.233345	0.178898	-0.949127	-0.112712	-4.80141	1.30833	-8.35276	-0.0576698	0.0794526	0.0369065	0.141846	-0.287842	1.10791	
33	0.7647	0.0678526	-0.639841	0.0351184	10.0481	0.104572	2.27774	-0.00585322	-0.0723756	-0.00771291	-0.925049	-0.165039	-0.491943	0.532405	0.068047	-0.841948	0.0551272	8.96611	-0.335957	-4.24508	0.0523398	0.0230329	-0.0427919	-1.07007	-0.290283	0.279785	0.447496	-0.237662	-0.304985	0.80638	-1.19043	-7.30836	7.44752	-0.00762562	-0.0546701	0.030666	-0.0791016	0.554688	-0.943115	0.454078	-0.114189	-0.0634232	0.881335	-1.52068	-1.7314	9.29907	0.0765599	-0.0277978	0.0352289	0.120605	0.00537109	-1.02832	0.54616	0.314941	-0.26422	-0.729869	-1.60606	6.96575	6.48113	0.00947004	0.00992245	-0.00249021	0.187012	-0.466797	-0.959473	0.623388	0.188988	-0.0282657	-0.758203	-2.32154	3.33906	12.3068	0.0465218	-0.00390955	0.00548445	0.215332	0.0869141	-1.08154	0.00286199	0.058177	-0.99829	0.0049859	-0.05232	-0.196257	-9.07904	0.0143106	0.0156098	-0.0170653	-0.17749	-0.144287	1.09106	-0.0107663	-0.104338	-0.994465	-0.00611104	-0.467401	0.18652	-8.39813	0.0365983	0.0183721	-0.0201513	-0.296631	0.162842	1.01245	-0.184072	-0.00401282	-0.962083	0.20124	-3.45074	-3.6128	-7.78166	-0.0157025	0.0511525	-0.0563545	-0.0395508	0.564941	0.947266	-0.0312182	0.0942253	-0.994268	0.0397191	-0.695515	-0.829033	-9.03347	-0.0518106	0.0261632	0.00541512	-0.365234	0.0556641	1.12109	-0.230283	0.177631	-0.950248	-0.111564	-4.70683	1.50737	-8.46015	0.0296585	0.0802305	0.0262024	0.130615	-0.285645	1.11938	
34	0.764222	0.069516	-0.640196	0.0358032	9.7656	0.184875	2.3457	0.0297258	-0.0341948	-0.0263933	-0.936035	-0.165283	-0.485596	0.533205	0.0686628	-0.841376	0.0553553	9.01789	-0.133561	-4.00047	0.0135046	0.0642755	-0.0393515	-1.06567	-0.290283	0.279785	0.446448	-0.235407	-0.305288	0.807507	-1.05054	-7.26241	7.77216	-0.0185129	-0.0629992	0.00326198	-0.0810547	0.55249	-0.938477	0.454304	-0.112562	-0.063774	0.881403	-1.45905	-1.54045	9.64108	0.0474004	-0.0373077	-0.00947	0.116211	0.00317383	-1.02612	0.547589	0.313778	-0.264815	-0.729084	-1.72081	7.37363	6.29814	-0.0891225	-0.023816	0.0496283	0.186768	-0.460205	-0.959473	0.625364	0.186878	-0.0281631	-0.757102	-2.31495	3.24654	12.3769	-0.0364425	-0.0314645	0.0316657	0.213135	0.0869141	-1.0835	0.00303388	0.0584223	-0.998274	0.00518123	-0.0420799	-0.190994	-9.08327	0.0148362	0.0132145	-0.0177051	-0.177246	-0.148682	1.08911	-0.0108813	-0.10415	-0.994494	-0.00395342	-0.456609	0.135695	-8.41019	0.0423135	0.0138872	-0.0205599	-0.290039	0.162598	1.01709	-0.180035	-0.00100753	-0.962573	0.202581	-3.37927	-3.81886	-7.78084	-0.0180897	0.0330267	-0.0505716	-0.0559082	0.566895	0.947266	-0.0309269	0.0941176	-0.994286	0.0397549	-0.676606	-0.840377	-9.04346	0.0223372	0.010775	0.000117144	-0.36084	0.0578613	1.12793	-0.229219	0.176731	-0.95071	-0.111246	-4.65603	1.81961	-8.62306	-0.0370427	0.0483841	0.0238305	0.130371	-0.283447	1.12158	
35	0.764043	0.0702327	-0.640317	0.0360636	9.81363	0.233819	2.32299	0.0310491	-0.0304612	-0.0272516	-0.931641	-0.165283	-0.487793	0.534068	0.0689678	-0.840788	0.0555964	8.86816	-0.243627	-3.96623	0.00960852	0.0492558	-0.0252098	-1.06787	-0.29248	0.282227	0.446169	-0.234611	-0.30584	0.807684	-0.968155	-7.10162	7.76993	-0.00226367	-0.00457732	-0.0279317	-0.083252	0.554688	-0.940918	0.454212	-0.112548	-0.0652729	0.881342	-1.33596	-1.87708	9.62319	-0.105246	-0.0507619	-0.00660813	0.111572	0.00976562	-1.02612	0.547589	0.313778	-0.264815	-0.729084	-1.72081	7.37363	6.29814	-0.0891225	-0.023816	0.0496283	0.186768	-0.460205	-0.959473	0.626354	0.18645	-0.0291741	-0.756351	-2.22422	3.62516	12.4503	0.0420062	-0.0377176	0.0473236	0.213135	0.0869141	-1.0835	0.00312733	0.0584373	-0.998273	0.00512687	-0.0401029	-0.184361	-9.09639	0.0100684	0.0190894	-0.0170221	-0.17749	-0.144287	1.09106	-0.0108999	-0.104101	-0.994501	-0.00349768	-0.476342	0.148152	-8.43992	0.0302166	0.0187605	-0.019967	-0.292236	0.162598	1.01709	-0.179856	-0.000815108	-0.962491	0.203131	-3.4348	-3.81215	-7.75471	0.0418812	0.0199922	-0.0428335	-0.0581055	0.564697	0.945068	-0.0310544	0.0941507	-0.994269	0.0400112	-0.686429	-0.83885	-9.00906	0.01649	0.00562518	0.00265455	-0.365234	0.0534668	1.12329	-0.228255	0.176387	-0.950837	-0.112675	-4.71481	1.56712	-8.57274	-0.0297619	0.027153	0.00635894	0.128418	-0.290039	1.11475	
36	0.764142	0.0711139	-0.640065	0.036703	9.72896	0.327218	2.36349	0.00681067	0.00938703	0.00139643	-0.933838	-0.16748	-0.481201	0.53478	0.0691718	-0.840323	0.0555182	8.76155	-0.261337	-3.86878	-0.0103023	0.0480773	-0.0317932	-1.06812	-0.285889	0.274902	0.446183	-0.23362	-0.306165	0.80784	-1.04528	-7.21517	7.54003	0.0325378	-0.0252302	-0.028055	-0.0854492	0.554688	-0.938721	0.454565	-0.111639	-0.0655818	0.881253	-1.28925	-1.72471	9.58913	0.0323301	-0.0271793	-0.024825	0.111572	0.00756836	-1.03052	0.547673	0.312852	-0.266727	-0.728721	-1.59875	7.04482	6.40522	0.0498383	-0.052344	0.00571322	0.184814	-0.4646	-0.959473	0.628288	0.184228	-0.0298621	-0.755263	-2.18786	3.4773	12.4256	-0.0307571	-0.0562844	0.00822463	0.219727	0.0869141	-1.08569	0.00323058	0.0584943	-0.998269	0.00516197	-0.0392193	-0.196379	-9.09179	0.0152395	0.0165451	-0.019221	-0.17749	-0.14209	1.08472	-0.0107644	-0.103814	-0.994534	-0.0028071	-0.472226	0.126796	-8.41431	0.0251971	0.0144871	-0.020746	-0.288086	0.169189	1.01929	-0.179665	-0.000509553	-0.962291	0.204247	-3.33485	-3.91117	-7.70418	0.0551916	0.0102725	-0.0387743	-0.0510254	0.564697	0.945068	-0.0313175	0.0941191	-0.994222	0.041039	-0.691612	-0.837902	-9.04423	0.0400446	-0.000335888	0.00013367	-0.367432	0.0554199	1.12329	-0.228118	0.17635	-0.950864	-0.112786	-4.67461	1.63376	-8.54178	-0.0148083	0.0176389	-0.0120121	0.125977	-0.285645	1.11938	
37	0.764565	0.0715729	-0.639503	0.0367854	9.38793	0.287288	2.3763	-0.0110642	0.0101276	-0.0339978	-0.927002	-0.171875	-0.481201	0.53469	0.069026	-0.840411	0.0552417	8.69664	-0.128279	-3.90277	-0.0339777	0.000182165	-0.0202163	-1.07031	-0.285889	0.27002	0.44617	-0.233114	-0.306461	0.807881	-0.849062	-6.9449	7.62025	-0.0308366	-0.00908665	-0.0317464	-0.083252	0.548096	-0.938477	0.454947	-0.111131	-0.0660489	0.881085	-1.20503	-1.83649	9.44071	0.0500676	-0.00825915	-0.0164433	0.109131	0.00976562	-1.02393	0.54764	0.311705	-0.267733	-0.728869	-1.68538	7.24174	6.21053	-0.0301342	-0.0620356	0.00539622	0.182373	-0.462402	-0.957275	0.628704	0.18284	-0.0310402	-0.755206	-2.15725	3.56741	12.2067	-0.00887919	-0.0515091	-0.0441615	0.213135	0.0849609	-1.08789	0.00356558	0.0585514	-0.998265	0.00503471	-0.0505515	-0.191513	-9.09246	0.00873641	0.0255462	-0.017991	-0.179443	-0.146484	1.08911	-0.0109349	-0.103712	-0.994544	-0.00251821	-0.468022	0.120374	-8.42244	-0.0012732	0.019581	-0.0195514	-0.292236	0.162842	1.01245	-0.179448	-0.000931525	-0.961142	0.209771	-3.42188	-3.92056	-7.51724	0.290873	0.0153287	-0.0414537	-0.0539551	0.578613	0.935791	-0.0319808	0.0943168	-0.994096	0.0430772	-0.702827	-0.880748	-9.02728	0.0904267	-0.00987659	-0.0122824	-0.367676	0.0620117	1.12329	-0.226499	0.177565	-0.950554	-0.116691	-4.60769	1.68156	-8.28675	-0.190648	0.0476318	-0.013651	0.124512	-0.30127	1.10596	
38	0.764016	0.0719079	-0.640126	0.0367149	9.43044	0.216652	2.37796	-0.0168912	-0.0690302	-0.00317983	-0.936035	-0.16748	-0.485596	0.535011	0.0687077	-0.840275	0.0546017	8.69154	-0.208459	-3.84885	-0.0336111	0.0185178	-0.0137037	-1.06372	-0.285889	0.274902	0.447276	-0.233479	-0.306384	0.807193	-1.06061	-7.11534	7.37909	0.0136847	0.0637171	-0.0587327	-0.083252	0.548096	-0.940674	0.455637	-0.112117	-0.0673166	0.880508	-1.30582	-1.98824	9.31337	-0.0824041	0.0328764	-0.0538791	0.109131	0.0119629	-1.02832	0.547065	0.310429	-0.26895	-0.729397	-1.62224	6.9064	6.28067	0.0292268	-0.0758623	-0.0257932	0.178223	-0.466797	-0.957275	0.628605	0.182251	-0.0325745	-0.755367	-2.12832	3.65008	12.4088	0.0381015	-0.0316535	-0.0647297	0.199951	0.0935059	-1.08594	0.00382001	0.0588255	-0.998248	0.00499494	-0.0323769	-0.174615	-9.05216	0.0053226	0.0159491	-0.0189398	-0.181396	-0.150879	1.08911	-0.011042	-0.103699	-0.994544	-0.00274424	-0.466497	0.140849	-8.43521	-0.0167667	0.019809	-0.0183691	-0.29248	0.166992	1.01465	-0.179421	-0.00126035	-0.959919	0.215318	-3.2912	-3.57005	-7.64911	0.177002	0.00393891	-0.0456109	-0.0568848	0.589844	0.93335	-0.0328245	0.0946022	-0.993917	0.0458434	-0.691347	-0.922097	-8.98987	0.112025	-0.0112891	-0.0165507	-0.361572	0.0732422	1.13428	-0.226499	0.177565	-0.950554	-0.116691	-4.60769	1.68156	-8.28675	-0.190648	0.0476318	-0.013651	0.124512	-0.30127	1.10596	
39	0.762982	0.0723966	-0.641257	0.0375026	9.951	0.129217	2.34224	0.0216815	-0.0629608	0.0133329	-0.933838	-0.16748	-0.479004	0.534637	0.0687459	-0.840498	0.0547711	8.85331	-0.236929	-4.05041	0.00468136	-0.0221029	-0.0117217	-1.07007	-0.290283	0.274902	0.447725	-0.233994	-0.306927	0.806588	-0.976904	-7.23021	7.70098	-0.057517	0.054095	-0.0645509	-0.0812988	0.556885	-0.940918	0.458067	-0.112408	-0.0676212	0.879185	-1.31898	-1.51874	9.5021	-0.0807873	0.00894593	-0.115893	0.111328	0.0141602	-1.03076	0.545256	0.310666	-0.271532	-0.729694	-1.51515	7.4417	6.68282	0.0740381	-0.0677566	-0.0487402	0.178223	-0.466797	-0.957275	0.62737	0.182463	-0.035173	-0.756226	-2.23721	3.52613	12.7548	0.159636	-0.0419251	-0.118316	0.206787	0.0827637	-1.08765	0.00355717	0.0588789	-0.998246	0.00496639	-0.026524	-0.180414	-9.1116	0.0121813	0.00797949	-0.0179484	-0.179443	-0.144287	1.08057	-0.0111744	-0.103612	-0.994551	-0.00295232	-0.461529	0.152986	-8.44055	-0.0232677	0.0147899	-0.0211127	-0.292236	0.165039	1.01245	-0.178767	-0.000775197	-0.959798	0.216402	-3.33416	-3.78803	-7.93748	0.0197296	0.0403568	-0.0483341	-0.0615234	0.592285	0.928955	-0.0329768	0.0949441	-0.993836	0.0467868	-0.702372	-0.996991	-8.97737	-0.000357889	0.0157359	-0.0065515	-0.363525	0.0688477	1.12305	-0.224275	0.180231	-0.949974	-0.121518	-4.62669	1.33678	-8.41536	-0.152265	0.0412781	-0.0402798	0.125	-0.314453	1.1084	
40	0.76275	0.0728533	-0.641437	0.0382585	9.86235	0.122004	2.32079	0.0415333	-0.0327122	0.0167682	-0.933838	-0.16748	-0.477051	0.533665	0.0687119	-0.841123	0.0547087	9.07766	-0.159803	-3.96915	-0.0370107	-0.0486706	-0.0177036	-1.07227	-0.288086	0.279541	0.448484	-0.235398	-0.309011	0.804961	-0.962785	-7.18374	7.60434	-0.128202	0.0462055	-0.0851024	-0.0834961	0.561035	-0.936523	0.460297	-0.112483	-0.0693806	0.877873	-1.40828	-2.34358	9.2242	0.027961	-0.0144553	-0.0994407	0.106689	0.0163574	-1.03296	0.54451	0.310021	-0.27205	-0.730331	-1.61008	7.52249	6.57707	0.00472095	-0.0845338	-0.0559386	0.17627	-0.468994	-0.964111	0.626299	0.181656	-0.0360987	-0.757263	-2.13575	3.48301	12.898	-0.0215484	-0.0330525	-0.107781	0.196045	0.0827637	-1.09424	0.00339597	0.0588915	-0.998246	0.00497293	-0.0385457	-0.176363	-9.03753	0.0178067	0.0012252	-0.0162463	-0.179443	-0.146484	1.08911	-0.0112218	-0.103539	-0.994559	-0.00234916	-0.452846	0.159165	-8.44618	0.0368092	0.0205648	-0.0175394	-0.294678	0.166992	1.01465	-0.179023	-0.00045162	-0.959727	0.216506	-3.32348	-3.79646	-8.0175	0.0130997	-0.0229909	-0.0214261	-0.0568848	0.590088	0.928955	-0.0329167	0.0949105	-0.993856	0.0464717	-0.707351	-0.978279	-9.00338	-0.0291539	0.0152731	0.00389085	-0.365723	0.0666504	1.13232	-0.224661	0.180559	-0.950054	-0.119677	-4.61153	0.97014	-8.51689	0.135985	0.0108101	-0.0783409	0.124756	-0.307861	1.1106	
41	0.76182	0.0742569	-0.642274	0.0399929	9.89195	0.16098	2.25396	0.0658608	-0.072755	0.0151779	-0.935791	-0.174072	-0.479004	0.533217	0.0685656	-0.841442	0.0543564	9.04011	-0.137094	-4.16791	0.00936773	-0.0124363	-0.0186618	-1.06787	-0.29248	0.279785	0.449604	-0.235958	-0.310701	0.803521	-1.04057	-7.56833	7.30597	-0.0107103	0.0384464	-0.0783317	-0.0854492	0.561279	-0.931885	0.461049	-0.112308	-0.0703679	0.877422	-1.26803	-2.28221	9.38231	-0.0568387	-0.034141	-0.0791033	0.111084	0.0163574	-1.02856	0.543406	0.309019	-0.272591	-0.731376	-1.49822	7.20022	6.56326	0.0188905	-0.0562579	-0.0597469	0.167725	-0.473389	-0.959473	0.625806	0.181874	-0.0371518	-0.757567	-2.16246	3.25669	12.7712	0.0977889	-0.0204211	-0.0972244	0.198242	0.0847168	-1.09204	0.00310789	0.0589072	-0.998246	0.00497905	-0.0269494	-0.176401	-9.09856	0.016849	-0.0111199	-0.0169551	-0.179199	-0.152832	1.08911	-0.0112345	-0.103482	-0.994567	-0.00102038	-0.451833	0.112007	-8.41806	0.0399563	0.0136946	-0.0188067	-0.296875	0.169189	1.01709	-0.179997	-0.00021357	-0.959598	0.21627	-3.19245	-3.79456	-7.99322	-0.0181797	-0.0697832	-0.0148284	-0.0615234	0.589844	0.93335	-0.0329513	0.0945759	-0.993903	0.0461142	-0.718325	-0.933554	-9.03904	-0.00600396	0.00790117	0.00998456	-0.36377	0.0710449	1.12061	-0.226869	0.179483	-0.950662	-0.112064	-4.58717	1.59386	-8.56094	0.0993942	-0.0158561	0.00723833	0.133057	-0.290039	1.11719	
42	0.761329	0.0758632	-0.642583	0.0413528	9.99541	0.211845	2.1076	0.0569985	-0.00694958	-0.0154984	-0.937988	-0.174072	-0.472656	0.532666	0.0686533	-0.84181	0.0539381	9.03454	-0.131001	-3.96642	-0.0204684	0.00585288	-0.0265214	-1.07007	-0.290283	0.281982	0.450953	-0.23499	-0.310623	0.803078	-0.973559	-7.43021	7.5488	0.0129937	0.00150068	-0.0775616	-0.0898438	0.561279	-0.936523	0.462022	-0.111614	-0.0721735	0.876852	-1.27841	-2.46842	9.45426	-0.0424779	-0.0551063	-0.0423796	0.108398	0.0251465	-1.03296	0.541309	0.309316	-0.274329	-0.732155	-1.49663	7.51365	6.57167	0.0436649	-0.0566235	-0.0822196	0.172119	-0.473389	-0.959473	0.624975	0.181643	-0.0378881	-0.758272	-2.09049	3.44537	13.0787	0.0182578	-0.00307394	-0.100074	0.198242	0.0805664	-1.09399	0.00272002	0.058859	-0.998249	0.00518462	-0.0595561	-0.18397	-9.07791	0.0256231	-0.00121318	-0.0127229	-0.181641	-0.144287	1.08911	-0.011336	-0.103515	-0.994563	-0.000572268	-0.46411	0.116011	-8.44072	0.0300449	0.0115922	-0.0168703	-0.290527	0.171387	1.01929	-0.182427	0.000601332	-0.959019	0.2168	-3.41559	-4.01953	-7.84131	0.0452315	-0.0978192	-0.0418319	-0.0500488	0.592285	0.928955	-0.0332001	0.0943951	-0.993915	0.0460514	-0.706771	-0.95035	-8.99047	-0.00685275	0.00197457	0.0114152	-0.361084	0.0644531	1.12305	-0.227021	0.178044	-0.950674	-0.113936	-4.63819	1.35173	-8.51617	-0.0840344	-0.0167512	0.0638313	0.131104	-0.296875	1.12183	
43	0.761476	0.0772679	-0.642192	0.0421198	9.58269	0.271069	2.10959	0.0256193	-0.00342136	-0.0218036	-0.935791	-0.17627	-0.472656	0.53259	0.0679815	-0.841975	0.052963	8.72017	-0.203076	-4.02838	-0.0455962	0.0180438	-0.0168984	-1.07007	-0.292236	0.289307	0.450829	-0.234911	-0.312178	0.802567	-0.970489	-7.63241	7.48026	-0.0706655	-0.0194523	-0.0180254	-0.0898438	0.565674	-0.932129	0.462178	-0.111668	-0.075273	0.876502	-1.32874	-2.71239	9.69907	-0.106144	-0.0416449	-0.0135627	0.0996094	0.0270996	-1.02856	0.539583	0.310069	-0.274305	-0.73312	-1.52468	7.42932	6.53745	-0.0021863	0.00487552	-0.100962	0.169678	-0.471191	-0.961914	0.624072	0.182644	-0.0381816	-0.75876	-2.05374	3.78982	12.8402	0.0276663	0.0542378	-0.0987981	0.194092	0.0783691	-1.09399	0.00226623	0.0588148	-0.998252	0.005394	-0.0629132	-0.188054	-9.07126	0.0239968	-0.00586529	-0.0132302	-0.17749	-0.14209	1.08691	-0.0113418	-0.103191	-0.994597	0.000565571	-0.451439	0.100999	-8.41812	0.0339104	0.0133187	-0.0210844	-0.294434	0.162598	1.01489	-0.184167	0.00161117	-0.958348	0.218287	-3.42957	-3.72931	-7.30609	0.0316756	-0.0637826	-0.0554564	-0.0566406	0.583008	0.931396	-0.0333051	0.0941024	-0.993982	0.045116	-0.711373	-0.946745	-8.97263	-0.0623279	0.00982923	0.016614	-0.361084	0.0644531	1.12549	-0.227407	0.176347	-0.950842	-0.114396	-4.69831	1.28665	-8.38971	0.0578244	-0.0219401	0.0407778	0.124268	-0.296875	1.11719	
44	0.761308	0.0782229	-0.642236	0.0427129	9.7314	0.266588	2.17151	0.0162657	-0.0125254	-0.00174628	-0.937988	-0.174072	-0.474854	0.531926	0.0674888	-0.842464	0.0524797	8.75451	-0.32388	-4.00019	-0.036123	-0.0222537	-0.00888385	-1.07227	-0.288086	0.281982	0.450194	-0.235144	-0.312606	0.802689	-0.899152	-7.53976	7.39611	-0.00807515	0.0160224	0.0104501	-0.0898438	0.567871	-0.934326	0.460818	-0.113155	-0.0784423	0.87675	-1.16246	-2.80232	9.71703	-0.154461	0.00853168	0.0528126	0.103271	0.0402832	-1.02881	0.537997	0.310709	-0.273102	-0.734462	-1.44606	7.19172	6.43685	0.0108292	0.0271562	-0.114106	0.171875	-0.468994	-0.959473	0.622497	0.184423	-0.0371458	-0.759675	-2.17372	3.72021	12.4487	0.0350939	0.0981465	-0.153974	0.200684	0.0739746	-1.09399	0.00186382	0.0587667	-0.998255	0.00550025	-0.0609517	-0.186975	-9.05241	0.0212312	-0.00251264	-0.013297	-0.183838	-0.146484	1.08472	-0.0115827	-0.103141	-0.994598	0.00126088	-0.449443	0.0860216	-8.40528	0.0159991	0.00863951	-0.0214283	-0.290283	0.166992	1.01465	-0.185511	0.0028057	-0.958313	0.21729	-3.45297	-4.09516	-7.17469	-0.0395503	-0.0484877	-0.0486694	-0.0500488	0.592285	0.931152	-0.0327671	0.0937656	-0.99414	0.042655	-0.713251	-0.871251	-9.04045	-0.102979	0.0282375	0.0140976	-0.365479	0.0622559	1.12769	-0.228206	0.174821	-0.951129	-0.112754	-4.6982	1.56747	-8.28542	0.0696304	-0.00859953	0.0216543	0.128662	-0.294678	1.11255	
45	0.761067	0.0782778	-0.642428	0.0440083	9.73706	0.21564	2.2054	0.00657237	-0.0325652	0.0425156	-0.938232	-0.169922	-0.468262	0.531523	0.067159	-0.842771	0.052065	8.88442	-0.329305	-4.20785	-0.0398985	-0.0161702	-0.0153565	-1.07446	-0.290283	0.279785	0.449004	-0.235881	-0.312435	0.803206	-1.11376	-7.44169	7.46058	-0.00811533	0.0347385	0.0442846	-0.0854492	0.561279	-0.938721	0.458648	-0.115067	-0.0791857	0.877571	-1.27708	-2.5489	9.75331	-0.0649746	0.0585937	0.109627	0.105469	0.0405273	-1.0332	0.536706	0.311329	-0.271974	-0.735562	-1.52486	7.10061	6.22792	-0.0252987	0.0173204	-0.0964748	0.17627	-0.468994	-0.955078	0.620648	0.18649	-0.0363342	-0.760721	-2.15053	3.44908	12.3609	0.107002	0.0973317	-0.16177	0.207031	0.0805664	-1.08984	0.00172483	0.0589561	-0.998242	0.00577213	-0.0654631	-0.203242	-9.10213	0.0188256	0.000950958	-0.0156044	-0.177246	-0.146484	1.08472	-0.0118213	-0.102987	-0.994611	0.00143128	-0.445839	0.0744037	-8.40032	-0.0074695	0.0132716	-0.0187886	-0.299072	0.169189	1.01245	-0.185905	0.00332185	-0.957423	0.220837	-3.38911	-3.9947	-7.09157	0.195655	-0.00371417	-0.0588829	-0.0500488	0.592285	0.928955	-0.032246	0.0935886	-0.994249	0.0408589	-0.699852	-0.828811	-9.02851	-0.0639011	0.0236546	0.00549741	-0.367432	0.0554199	1.12329	-0.228062	0.173613	-0.9514	-0.112621	-4.62107	1.73534	-8.33468	-0.0316991	0.0152667	0.0332087	0.133301	-0.296631	1.11719	
46	0.76036	0.0779012	-0.643217	0.045344	9.84687	0.147615	2.15301	-0.00492897	-0.0496054	0.044864	-0.94043	-0.172119	-0.470459	0.531113	0.0670106	-0.843022	0.0523712	9.02718	-0.322767	-4.24022	-0.000455393	-0.00827015	-0.00587295	-1.06812	-0.288086	0.284424	0.447662	-0.236828	-0.312293	0.803731	-1.08028	-7.74833	7.44087	-9.21451e-05	0.0197249	0.0659298	-0.0856934	0.56543	-0.932129	0.456642	-0.116733	-0.0785398	0.878455	-1.52848	-2.48958	9.39058	0.0131411	0.0614091	0.0885864	0.105713	0.0383301	-1.0332	0.535672	0.312513	-0.271994	-0.735806	-1.70187	7.28276	6.27857	0.00795729	0.010862	-0.0558903	0.176025	-0.466797	-0.955078	0.619042	0.187665	-0.0352141	-0.761793	-2.29766	3.2361	12.2447	0.0195675	0.0648782	-0.144228	0.209229	0.0783691	-1.0918	0.00159428	0.0589536	-0.998243	0.00580451	-0.0567207	-0.18372	-9.08956	0.0154197	0.00669477	-0.0165817	-0.177246	-0.146484	1.08691	-0.0121652	-0.103013	-0.994604	0.00151495	-0.459359	0.0849005	-8.40979	0.00668664	0.00760242	-0.0188513	-0.28833	0.173584	1.01221	-0.185395	0.00341372	-0.957348	0.221588	-3.36158	-4.00297	-7.27196	-0.0325645	0.0390388	-0.027066	-0.0500488	0.596924	0.928955	-0.0318756	0.0934674	-0.994314	0.0398316	-0.696378	-0.793511	-9.03308	-0.0401148	0.0248284	0.00429052	-0.360596	0.0512695	1.12573	-0.227907	0.172707	-0.951512	-0.113386	-4.66901	1.58352	-8.28358	-0.00200141	-0.00136143	0.0214082	0.126221	-0.29248	1.11938	
47	0.759468	0.0772127	-0.644275	0.0464462	9.97529	0.0388276	2.12735	-0.0204837	-0.0696746	0.0513762	-0.938232	-0.169922	-0.466064	0.530967	0.0670053	-0.843074	0.053014	9.08613	-0.264203	-4.31046	0.045186	0.014437	-0.0022465	-1.06812	-0.285889	0.286621	0.446002	-0.237241	-0.312046	0.804628	-1.15443	-7.48963	7.39869	-0.0289004	-0.00859387	0.05856	-0.0878906	0.567627	-0.929932	0.455347	-0.118077	-0.078367	0.878963	-1.47481	-2.62054	9.21484	-0.00878614	0.046464	0.0499643	0.110107	0.0405273	-1.03101	0.535549	0.312349	-0.271573	-0.736121	-1.67539	7.28091	6.55228	-0.0255772	-0.00955914	-0.0177582	0.174072	-0.468994	-0.955078	0.618341	0.187717	-0.0344412	-0.762385	-2.37022	3.32815	12.2426	-0.00953322	0.0258507	-0.072728	0.205078	0.0739746	-1.0874	0.00158565	0.0589726	-0.998241	0.0058573	-0.0697008	-0.191045	-9.07409	0.0194543	0.0113772	-0.0174911	-0.175293	-0.144287	1.08911	-0.0123585	-0.10291	-0.994612	0.00170253	-0.475845	0.10531	-8.41642	0.00880931	0.00619821	-0.0186708	-0.290527	0.173584	1.01709	-0.183819	0.00310325	-0.957775	0.221061	-3.3588	-4.12395	-7.53235	-0.0154544	0.079721	-0.0127961	-0.0546875	0.594482	0.935547	-0.0317047	0.0934648	-0.994331	0.0395544	-0.683502	-0.804654	-9.02563	-0.0264071	0.0249971	0.00278104	-0.367432	0.0534668	1.12793	-0.228045	0.171922	-0.951628	-0.113325	-4.59101	1.63998	-8.42601	0.0241718	0.00646628	0.00661433	0.126465	-0.294678	1.11719	
48	0.758434	0.077219	-0.64541	0.0475368	9.91804	0.0435477	1.9968	0.0122481	-0.0678068	0.0242133	-0.942627	-0.172119	-0.459717	0.531012	0.0669206	-0.843049	0.0530606	8.97288	-0.23173	-4.03898	-0.00999844	0.0167028	-0.0117345	-1.07227	-0.288086	0.286621	0.444993	-0.237383	-0.312484	0.804975	-1.07146	-7.58366	7.4686	-0.0391557	-0.0211936	0.061566	-0.0812988	0.56543	-0.929688	0.45447	-0.11829	-0.0778797	0.879431	-1.42508	-2.51689	9.23906	-0.00238863	0.00778208	0.045896	0.110107	0.0405273	-1.03101	0.535496	0.312323	-0.272744	-0.735738	-1.58475	7.1635	6.44801	0.100365	0.00789587	0.00986003	0.176514	-0.473389	-0.961914	0.618745	0.188474	-0.0369806	-0.761751	-2.37233	3.60939	12.512	0.103628	-0.0193213	0.00571641	0.202881	0.0761719	-1.0918	0.00195267	0.0594162	-0.998211	0.00630688	-0.0541111	-0.19964	-9.09601	0.0164359	0.0143584	-0.0171363	-0.17749	-0.144287	1.08691	-0.0123469	-0.102414	-0.994664	0.00172257	-0.464945	0.0886655	-8.4085	-0.00108685	0.00804355	-0.0180935	-0.292725	0.171387	1.01245	-0.182326	0.00276777	-0.957876	0.221862	-3.39497	-4.05406	-7.70718	0.0323759	0.0651907	-0.016807	-0.0593262	0.596924	0.924316	-0.031266	0.0933489	-0.994361	0.0394237	-0.674918	-0.795439	-9.01788	-0.00568013	0.0158037	0.00284958	-0.365234	0.0534668	1.12109	-0.228045	0.171922	-0.951628	-0.113325	-4.59101	1.63998	-8.42601	0.0241718	0.00646628	0.00661433	0.126465	-0.294678	1.11719	
49	0.758434	0.077219	-0.64541	0.0475368	9.91804	0.0435477	1.9968	0.0122481	-0.0678068	0.0242133	-0.942627	-0.172119	-0.459717	0.532068	0.0665846	-0.842387	0.0534174	8.87522	-0.268867	-4.16384	-0.0292628	0.0467241	-0.00411227	-1.07007	-0.288086	0.284424	0.443599	-0.236726	-0.312335	0.805995	-1.09031	-7.43948	7.36125	0.0290933	-0.0348002	0.0343132	-0.0834961	0.56543	-0.936523	0.453872	-0.117996	-0.077383	0.879824	-1.41351	-2.45443	9.19998	0.0450115	-0.00426787	0.060245	0.112061	0.0427246	-1.03345	0.535494	0.312879	-0.273941	-0.735058	-1.65692	7.40581	6.43699	0.107714	0.00527392	0.0315401	0.169922	-0.475586	-0.950439	0.620176	0.186969	-0.0364926	-0.760981	-2.32323	3.33705	12.4886	-0.104254	-0.0280991	0.0567042	0.207275	0.0717773	-1.09375	0.0020127	0.0594233	-0.998211	0.00632277	-0.0646584	-0.195314	-9.07336	0.0161444	0.0167017	-0.0164902	-0.175049	-0.148682	1.08911	-0.012561	-0.102374	-0.994666	0.00148654	-0.487254	0.115417	-8.42604	-0.0239921	0.00769051	-0.0187603	-0.290527	0.171387	1.01465	-0.181919	0.00256452	-0.957893	0.222125	-3.45546	-3.93142	-7.80448	0.0236396	0.0454639	-0.0131172	-0.0546875	0.596924	0.926514	-0.0312244	0.0933739	-0.99436	0.0394368	-0.667696	-0.787617	-9.01767	-0.00231896	0.0167786	0.00122628	-0.367188	0.0512695	1.12793	-0.227061	0.171731	-0.951765	-0.114432	-4.6253	1.53966	-8.43807	-0.0115885	0.0244924	-0.0034371	0.126465	-0.294678	1.11719	
50	0.757372	0.0775501	-0.646485	0.0493014	9.81245	0.0370737	1.90069	0.0251163	-0.0249756	0.0277258	-0.940674	-0.167725	-0.45752	0.532697	0.0666453	-0.84193	0.0542741	8.77313	-0.391827	-3.97441	0.00857597	0.0229742	-0.00240441	-1.06592	-0.288086	0.277344	0.442816	-0.235221	-0.311136	0.807328	-1.04899	-7.25325	7.42434	0.0703465	-0.0409593	0.0254909	-0.0854492	0.559082	-0.934082	0.452419	-0.117625	-0.0770804	0.880647	-1.34915	-2.41455	9.27598	0.00251652	-0.0149716	0.0625986	0.114502	0.0383301	-1.03101	0.536484	0.312203	-0.274068	-0.734575	-1.52531	7.0792	6.55099	-0.0410581	0.00222499	0.0296978	0.176514	-0.475586	-0.955078	0.622861	0.186356	-0.0381408	-0.758855	-2.24375	3.67346	12.6517	0.0428222	-0.0121981	0.0771453	0.203125	0.0673828	-1.08936	0.0020127	0.0594233	-0.998211	0.00632277	-0.0646584	-0.195314	-9.07336	0.0161444	0.0167017	-0.0164902	-0.175049	-0.148682	1.08911	-0.012583	-0.102064	-0.994697	0.00146172	-0.473272	0.119331	-8.43078	-0.00312664	0.010774	-0.019643	-0.292236	0.164795	1.01489	-0.181525	0.0027501	-0.957963	0.222146	-3.43809	-3.92998	-7.82301	-0.000697005	0.019329	-0.0195119	-0.0661621	0.589844	0.928955	-0.0308982	0.0933108	-0.99439	0.0390885	-0.671699	-0.79629	-9.00997	-0.0166715	0.0183272	0.00233178	-0.367188	0.0490723	1.12817	-0.2272	0.1714	-0.951898	-0.113542	-4.69335	1.47831	-8.49693	0.0603441	0.00117146	-0.0156511	0.126465	-0.294678	1.11255	
51	0.757793	0.0781094	-0.645828	0.050551	9.76759	0.155172	2.07239	0.0174229	0.0329428	0.0135337	-0.940674	-0.16333	-0.468506	0.533033	0.0666091	-0.841672	0.0550152	8.81613	-0.239092	-4.07611	0.013536	0.0238678	-0.0018523	-1.06567	-0.290283	0.279785	0.441677	-0.234371	-0.311123	0.808204	-1.03818	-7.2925	7.43852	0.0136336	-0.0335713	0.0278029	-0.0854492	0.561279	-0.931885	0.451027	-0.117011	-0.0769026	0.881458	-1.31121	-2.04231	9.63463	-0.0462609	-0.0252156	0.0670876	0.105469	0.0405273	-1.03101	0.537612	0.312277	-0.274255	-0.733649	-1.48768	7.20417	6.34529	0.0399385	0.0409809	0.0247919	0.171875	-0.471191	-0.959473	0.624745	0.186211	-0.0386097	-0.757316	-2.15118	3.51857	12.5734	0.040835	0.0323982	0.024546	0.205078	0.0739746	-1.09399	0.0020127	0.0594233	-0.998211	0.00632277	-0.0646584	-0.195314	-9.07336	0.0161444	0.0167017	-0.0164902	-0.175049	-0.148682	1.08911	-0.0127509	-0.102064	-0.994694	0.0018811	-0.466947	0.135793	-8.4271	0.0176234	0.0149532	-0.0199492	-0.290283	0.169189	1.01929	-0.181813	0.00299163	-0.95825	0.220665	-3.39125	-3.81716	-7.84465	-0.084229	-0.00718468	-0.0171738	-0.0522461	0.590088	0.928955	-0.0306817	0.0932628	-0.994417	0.0386705	-0.666303	-0.760902	-9.04992	-0.0138512	0.0208183	0.000265948	-0.36499	0.046875	1.12817	-0.227237	0.170965	-0.952006	-0.113224	-4.63299	1.47287	-8.55286	0.000695339	0.0153793	0.00208026	0.124268	-0.296875	1.11938	
52	0.75868	0.0779984	-0.644724	0.0514993	9.68602	0.139449	2.23278	-0.00938617	0.0477453	0.0156824	-0.94043	-0.169922	-0.466064	0.532711	0.0666894	-0.841827	0.0556644	8.95228	-0.215823	-4.06465	-0.000141451	-0.00448514	-0.0150527	-1.06592	-0.285889	0.281982	0.43962	-0.234121	-0.312144	0.809004	-0.994988	-7.29967	7.5956	-0.0498792	-0.0451433	0.0634146	-0.0834961	0.561035	-0.936523	0.44958	-0.117148	-0.0771911	0.882154	-1.43835	-2.51208	9.33081	0.0535252	0.00824294	0.064908	0.108154	0.0317383	-1.03101	0.537872	0.31332	-0.27534	-0.732607	-1.62304	7.4124	6.42402	0.0374295	0.0264045	0.0251445	0.176514	-0.477783	-0.957275	0.626154	0.18666	-0.0392118	-0.756011	-2.2448	3.4912	12.6763	0.0436119	0.0329885	0.00240366	0.203125	0.0695801	-1.0874	0.00279447	0.0602209	-0.998155	0.00719914	-0.0558844	-0.194099	-9.07888	0.0163452	0.0156042	-0.0160708	-0.179443	-0.146484	1.08472	-0.0125143	-0.101792	-0.994723	0.00285982	-0.473313	0.10686	-8.42304	0.0381102	0.0170886	-0.0203381	-0.290527	0.173584	1.01709	-0.182151	0.00404429	-0.958564	0.218996	-3.42548	-3.81348	-7.79201	-0.0736973	-0.0151163	-0.0344696	-0.0568848	0.589844	0.937988	-0.0303055	0.0932034	-0.994451	0.0382466	-0.657073	-0.771349	-9.0053	-0.0196656	0.0201062	0.00238609	-0.36499	0.046875	1.12354	-0.227153	0.170343	-0.952178	-0.112875	-4.59989	1.26886	-8.56418	0.0312305	0.0101518	0.00178416	0.124268	-0.296875	1.12183	
53	0.759053	0.0775894	-0.644296	0.051972	9.80646	0.158093	2.26079	-0.0321665	0.000238995	0.0192328	-0.936279	-0.16333	-0.459717	0.532705	0.0666877	-0.841783	0.0563841	8.89238	-0.355094	-4.0168	0.032382	-0.00122574	0.00430042	-1.06812	-0.283691	0.281738	0.43821	-0.23354	-0.3123	0.809876	-1.08309	-7.54347	7.56006	0.0332412	-0.0327527	0.0260372	-0.0834961	0.56543	-0.934326	0.447384	-0.117459	-0.077032	0.883242	-1.41964	-2.33665	9.3644	-0.0273864	0.00506022	0.104266	0.108154	0.0339355	-1.0332	0.538501	0.314232	-0.275321	-0.73176	-1.60534	7.32316	6.49833	0.0425558	0.048715	0.0073669	0.180908	-0.475586	-0.950439	0.627538	0.186938	-0.0389507	-0.754807	-2.34866	3.60508	12.388	-0.0672188	0.0402835	0.017576	0.200928	0.0673828	-1.09375	0.00265138	0.0604626	-0.998139	0.00749793	-0.0430952	-0.206373	-9.15612	0.0180549	0.00898334	-0.017312	-0.17749	-0.14209	1.08472	-0.0125854	-0.101676	-0.99473	0.00410795	-0.478011	0.0706136	-8.41126	0.0483263	0.0146777	-0.0208348	-0.283691	0.167236	1.01245	-0.183695	0.0051149	-0.958637	0.217359	-3.36854	-3.9508	-7.69103	-0.0589571	-0.0705067	-0.0356846	-0.0517578	0.583008	0.935791	-0.0303098	0.0931345	-0.994476	0.0377403	-0.664925	-0.758585	-9.05478	-0.0177783	0.00817876	0.00640543	-0.36499	0.0490723	1.12817	-0.228011	0.169404	-0.952446	-0.110272	-4.66986	1.50568	-8.56513	0.110334	-0.0111879	-0.00552501	0.123779	-0.288086	1.12158	
54	0.759595	0.076756	-0.643712	0.0525164	9.73004	0.0816871	2.1933	-0.0338629	0.0314401	0.0331182	-0.942871	-0.165527	-0.461914	0.532553	0.0666396	-0.841861	0.0567192	8.92029	-0.219446	-4.12198	-0.0170831	0.0171897	-0.0159126	-1.07056	-0.279297	0.286377	0.437782	-0.232793	-0.310799	0.8109	-1.07187	-7.08053	7.40571	0.0670163	0.0170259	0.0112663	-0.083252	0.556885	-0.934082	0.444819	-0.1173	-0.0764813	0.884606	-1.4527	-2.11961	9.45177	0.015413	-0.00715601	0.117602	0.108154	0.0339355	-1.02881	0.539756	0.314217	-0.274657	-0.731091	-1.62117	7.28347	6.18324	-0.0491329	0.0440111	0.0383759	0.178711	-0.477783	-0.955078	0.628799	0.188316	-0.0404231	-0.753336	-2.28	3.78645	12.4485	0.102434	0.0477882	0.0206817	0.20752	0.0632324	-1.09351	0.00281931	0.0606902	-0.998123	0.00771854	-0.0524082	-0.187267	-9.05214	0.0159803	0.0131063	-0.0170358	-0.177246	-0.146484	1.08691	-0.0126178	-0.101627	-0.994732	0.00468535	-0.474872	0.0606839	-8.41152	0.043869	0.0154908	-0.0188138	-0.29248	0.169189	1.01465	-0.185619	0.00601681	-0.958207	0.2176	-3.38192	-4.06049	-7.71877	0.0248688	-0.0746112	-0.0398469	-0.052002	0.587646	0.937988	-0.0303455	0.0931382	-0.994482	0.0375366	-0.668706	-0.746599	-9.03337	-0.0192139	0.009814	0.00487374	-0.364746	0.0446777	1.12134	-0.228011	0.169404	-0.952446	-0.110272	-4.66986	1.50568	-8.56513	0.110334	-0.0111879	-0.00552501	0.123779	-0.288086	1.12158	
55	0.759822	0.0760489	-0.643449	0.0534794	9.83503	0.0365058	2.1623	-0.0211032	0.00352616	0.0402394	-0.945557	-0.156982	-0.468506	0.531859	0.0663599	-0.842303	0.0569911	8.90943	-0.332364	-4.12616	-0.00449739	-0.0559	0.00480984	-1.07275	-0.274902	0.279053	0.437105	-0.232265	-0.311134	0.811288	-0.988752	-7.52488	7.68136	0.0105886	-0.0194193	0.0104752	-0.0834961	0.563232	-0.932129	0.443388	-0.117081	-0.0762824	0.88537	-1.60633	-1.90507	9.29589	0.0399888	-0.0130538	0.0435063	0.101318	0.0361328	-1.0332	0.540411	0.315396	-0.275203	-0.729893	-1.54605	7.16818	6.39075	0.0624643	0.0444277	0.0151632	0.181396	-0.486572	-0.955078	0.631831	0.187839	-0.040238	-0.750925	-2.33229	3.04462	12.3781	0.0832452	0.0382358	0.0835799	0.214111	0.0654297	-1.09155	0.00281931	0.0606902	-0.998123	0.00771854	-0.0524082	-0.187267	-9.05214	0.0159803	0.0131063	-0.0170358	-0.177246	-0.146484	1.08691	-0.0122158	-0.101156	-0.994778	0.00597066	-0.464181	0.0527135	-8.41659	0.0345676	0.0146183	-0.0205575	-0.297119	0.175781	1.01929	-0.185619	0.00601681	-0.958207	0.2176	-3.38192	-4.06049	-7.71877	0.0248688	-0.0746112	-0.0398469	-0.052002	0.587646	0.937988	-0.0305275	0.0930846	-0.994464	0.0380043	-0.66052	-0.752442	-9.03301	0.0121746	0.000787331	0.0017812	-0.371582	0.0444336	1.13037	-0.230672	0.168986	-0.952156	-0.107859	-4.68193	1.59317	-8.56552	0.0553802	-0.0427074	-0.0142048	0.132324	-0.276855	1.11694	
56	0.76064	0.0753337	-0.642485	0.0544483	9.64669	-0.0423076	2.12234	-0.0216391	0.0534645	0.024377	-0.938965	-0.156738	-0.470703	0.531855	0.0664813	-0.842265	0.0574555	8.90233	-0.34328	-3.9732	0.0272795	0.0154579	-0.00764738	-1.07227	-0.288086	0.279541	0.437035	-0.232004	-0.310399	0.811681	-0.994863	-7.18778	7.40781	0.0694214	0.0163235	0.00971915	-0.0876465	0.559082	-0.938721	0.443563	-0.117013	-0.0777311	0.885165	-1.52156	-2.34186	9.24006	-0.0143621	-0.0128038	-0.0355359	0.105957	0.0339355	-1.03101	0.540781	0.316936	-0.276639	-0.728407	-1.46994	7.34478	6.26818	0.0711462	0.0437681	0.0306733	0.178955	-0.482178	-0.950439	0.63426	0.188374	-0.0412612	-0.748684	-2.18069	3.92836	12.4076	-0.0595923	0.0265501	0.0853024	0.20752	0.0654297	-1.08716	0.00318095	0.0613414	-0.998076	0.00848099	-0.0476079	-0.193994	-9.09294	0.0186497	0.0110084	-0.0170971	-0.17749	-0.14209	1.08472	-0.0122662	-0.101225	-0.994767	0.00638849	-0.472012	0.0303047	-8.41443	0.0305978	0.0156178	-0.0188503	-0.290771	0.180176	1.0144	-0.190224	0.00783118	-0.957425	0.217006	-3.4311	-4.03393	-7.62043	-0.013937	-0.0966633	-0.0173953	-0.0446777	0.578613	0.942627	-0.0307851	0.0929762	-0.994456	0.0382619	-0.654443	-0.747937	-9.04035	0.0199801	-0.00594954	0.00342095	-0.371582	0.0444336	1.12134	-0.231716	0.168931	-0.952002	-0.107066	-4.64586	1.51594	-8.45719	0.0707015	-0.0630914	-0.0374364	0.129883	-0.272461	1.12134	
57	0.761089	0.0751181	-0.641959	0.0546745	9.57314	-0.0168671	2.1669	-0.0264806	0.0459361	0.0121886	-0.945312	-0.158936	-0.470703	0.531313	0.0663736	-0.842571	0.0580944	8.70094	-0.392491	-4.08711	0.0129727	-0.0116238	0.00291987	-1.07251	-0.281494	0.28418	0.436581	-0.23225	-0.311346	0.811493	-1.08834	-7.1685	7.56508	-0.0514238	0.019763	-0.00887983	-0.092041	0.561279	-0.941162	0.443914	-0.116818	-0.0776072	0.885026	-1.43491	-1.90658	9.474	0.0194536	-0.000481189	-0.0284571	0.105713	0.0383301	-1.0376	0.540995	0.317212	-0.276573	-0.728154	-1.61413	7.30556	6.0843	0.00701033	0.0372679	0.00182771	0.18335	-0.482178	-0.950439	0.636735	0.189254	-0.0427424	-0.746274	-2.25255	4.1735	11.941	0.10723	0.0229678	0.0991732	0.214355	0.0588379	-1.08716	0.00293453	0.0615848	-0.99806	0.00860513	-0.0465884	-0.193609	-9.07329	0.0131727	-0.00367264	-0.0175862	-0.175049	-0.146484	1.08691	-0.0121133	-0.100962	-0.994792	0.00697371	-0.464548	0.03828	-8.42537	0.0221162	0.015241	-0.0175704	-0.286377	0.177979	1.01685	-0.191247	0.00783513	-0.957249	0.21688	-3.45005	-4.15621	-7.4726	-0.00532871	-0.074568	-0.00471111	-0.0378418	0.578613	0.938232	-0.0312721	0.0928968	-0.994404	0.03941	-0.677571	-0.767507	-9.0311	0.0466874	-0.00913791	-0.00032648	-0.36499	0.046875	1.12354	-0.233639	0.169022	-0.951658	-0.105793	-4.61697	1.40294	-8.32925	0.0553231	-0.053569	-0.0446222	0.136963	-0.276855	1.11914	
58	0.761997	0.074395	-0.640925	0.0551434	9.76844	-0.0670243	2.24544	-0.0327238	0.0625086	0.0119494	-0.938965	-0.152344	-0.477051	0.530102	0.0667192	-0.843204	0.0595593	8.84838	-0.368832	-4.0994	0.0706602	-0.0484428	0.0022483	-1.06836	-0.281494	0.286377	0.436332	-0.233072	-0.311929	0.811167	-0.966512	-7.34586	7.60866	-0.056434	0.0219117	0.00101613	-0.0834961	0.56543	-0.929688	0.444515	-0.118814	-0.0815045	0.884108	-1.42109	-2.42046	9.22431	-0.180262	0.0212041	-0.0599473	0.10083	0.0446777	-1.03125	0.539495	0.318462	-0.277777	-0.728263	-1.45721	7.33828	6.27797	0.114735	-0.0201483	-0.0776262	0.183594	-0.48877	-0.948242	0.638965	0.186489	-0.0412104	-0.745149	-2.29677	4.85538	11.9648	-0.24586	-0.0437539	0.118025	0.209717	0.0632324	-1.08936	0.00293453	0.0615848	-0.99806	0.00860513	-0.0465884	-0.193609	-9.07329	0.0131727	-0.00367264	-0.0175862	-0.175049	-0.146484	1.08691	-0.0119145	-0.100773	-0.994812	0.00720364	-0.457428	0.0314963	-8.42579	0.00835196	0.01869	-0.0141574	-0.295166	0.180176	1.01221	-0.19231	0.00772328	-0.957088	0.216655	-3.46807	-3.94639	-7.33906	-0.0108983	-0.0734322	0.00959729	-0.0378418	0.580811	0.947021	-0.0318305	0.0928338	-0.994346	0.0405456	-0.674752	-0.79057	-9.01753	0.0464274	-0.0115919	0.00109125	-0.356201	0.0534668	1.13037	-0.234867	0.169417	-0.951358	-0.105136	-4.68908	1.29094	-8.21973	0.00955432	-0.0291582	-0.0434806	0.136963	-0.276855	1.12134	
59	0.763016	0.0740162	-0.639714	0.0556276	9.45267	-0.0644104	2.36321	-0.0201961	0.0285974	0.0158503	-0.938965	-0.154541	-0.479248	0.52899	0.0669107	-0.843825	0.0604347	8.94637	-0.230594	-4.22969	0.0243507	-0.0114273	-0.00561097	-1.07251	-0.283691	0.286621	0.435834	-0.235019	-0.313225	0.810373	-1.00568	-7.25034	7.44847	-0.0884213	0.0498973	0.00726058	-0.0834961	0.567627	-0.936768	0.444767	-0.121641	-0.0872197	0.883051	-1.33044	-2.34114	9.44986	-0.357179	0.0113249	-0.047414	0.104248	0.0666504	-1.0249	0.537813	0.318328	-0.27926	-0.728998	-1.83459	7.71358	6.3713	0.0506791	-0.0433656	-0.0395803	0.181641	-0.493164	-0.945801	0.641355	0.183575	-0.0402812	-0.743869	-2.28561	3.27001	12.6133	0.0726362	-0.00817422	0.0171704	0.207275	0.0695801	-1.0874	0.00288216	0.0618605	-0.998042	0.00879108	-0.0565137	-0.194549	-9.08205	0.0152429	0.00420895	-0.0190695	-0.179443	-0.144287	1.09106	-0.0119789	-0.100792	-0.994809	0.00729561	-0.453357	0.0345064	-8.41819	0.00442534	0.0168304	-0.0155877	-0.292725	0.175781	1.01001	-0.194519	0.00761202	-0.956905	0.215494	-3.51111	-3.87954	-7.32816	-0.0410627	-0.081685	0.0207064	-0.0356445	0.581055	0.947021	-0.0322156	0.0929231	-0.994298	0.0412151	-0.700566	-0.802907	-9.03822	0.0532351	-0.0111177	-0.000507708	-0.367432	0.0554199	1.12329	-0.235371	0.16954	-0.951286	-0.104456	-4.76041	1.28714	-8.2549	0.0527221	-0.0214939	-0.0449628	0.134521	-0.272461	1.12134	
60	0.762206	0.0745685	-0.640591	0.0559066	9.92709	0.0431761	2.38808	0.0054918	-0.074063	-0.0183118	-0.934814	-0.150146	-0.477051	0.527823	0.066752	-0.844576	0.0603269	8.99617	-0.278752	-4.32584	-0.013051	-0.043971	-0.0127427	-1.07251	-0.283691	0.29126	0.435098	-0.236057	-0.314604	0.809933	-1.06151	-7.41987	7.40197	-0.0536518	0.0115837	-0.00725212	-0.0834961	0.572021	-0.929932	0.444637	-0.123883	-0.0905385	0.88247	-1.28676	-2.87032	9.19104	-0.0687174	0.0341062	-0.00569282	0.102051	0.0688477	-1.0271	0.536764	0.318677	-0.280221	-0.72925	-1.56577	7.47044	6.50548	0.0862246	0.00801972	-0.03666	0.179443	-0.493164	-0.950439	0.641141	0.185591	-0.0431815	-0.743391	-2.18131	3.77114	13.1486	0.117705	0.00951244	-0.0425119	0.207764	0.0588379	-1.08911	0.00232217	0.0621306	-0.998025	0.00896429	-0.0642363	-0.188855	-9.08891	0.0157786	-0.00496416	-0.0186258	-0.17334	-0.139893	1.08472	-0.012006	-0.100622	-0.994825	0.00731595	-0.465833	0.0182963	-8.41221	0.00106064	0.0146618	-0.0157286	-0.292725	0.175781	1.01685	-0.19601	0.00690953	-0.956335	0.216691	-3.52911	-3.64761	-7.22917	0.00138441	-0.00893506	-0.00462797	-0.0283203	0.57666	0.931641	-0.033162	0.0929152	-0.994168	0.0435514	-0.705782	-0.857097	-9.0032	0.0457836	-0.0130992	0.00407891	-0.363281	0.0600586	1.11865	-0.235964	0.170409	-0.951074	-0.10363	-4.68366	1.28898	-8.28937	0.0163378	-0.00756597	-0.0359426	0.145508	-0.267822	1.12134	
61	0.76071	0.0753819	-0.642273	0.0558836	9.82485	0.0939823	2.20594	0.0024492	-0.119532	-0.0187493	-0.950195	-0.152588	-0.470703	0.526883	0.066233	-0.845237	0.0598417	8.93384	-0.392552	-4.10307	-0.0444569	-0.0275443	-0.00409941	-1.07031	-0.281494	0.295898	0.435067	-0.235697	-0.314993	0.809903	-1.12925	-7.7305	7.46175	0.0267128	0.00050206	-0.0199421	-0.0856934	0.574219	-0.932373	0.444472	-0.123893	-0.0907643	0.882529	-1.54619	-2.83431	9.34233	0.0138761	-0.010202	0.00371253	0.106445	0.0688477	-1.0271	0.53544	0.321097	-0.281142	-0.728807	-1.63633	7.7275	6.50536	0.0998401	0.0452423	-0.0511648	0.181641	-0.495361	-0.945801	0.641132	0.187677	-0.0441447	-0.742817	-2.29558	3.57733	12.9371	0.0735098	0.0712946	-0.0340572	0.2146	0.0522461	-1.08691	0.00232217	0.0621306	-0.998025	0.00896429	-0.0642363	-0.188855	-9.08891	0.0157786	-0.00496416	-0.0186258	-0.17334	-0.139893	1.08472	-0.0123039	-0.100665	-0.994819	0.00704516	-0.46732	0.0380944	-8.42524	-0.0152717	0.0103981	-0.0170587	-0.292725	0.175781	1.01465	-0.195822	0.006788	-0.956411	0.216532	-3.59335	-3.89783	-7.32162	0.0200015	0.0243238	-0.0179547	-0.026123	0.578857	0.942627	-0.0336806	0.0928951	-0.99411	0.0445097	-0.722862	-0.882819	-8.99336	0.0289425	0.00219626	-0.00149181	-0.356445	0.0578613	1.13232	-0.235839	0.170815	-0.950947	-0.104415	-4.81458	1.01278	-8.34515	-0.0194732	0.0176446	-0.0228571	0.145752	-0.274658	1.12134	
62	0.758303	0.0752022	-0.645115	0.0560998	9.96819	0.101516	2.01133	-0.0372483	-0.159275	0.033802	-0.940674	-0.16333	-0.464111	0.526806	0.0661034	-0.84534	0.0592085	8.87158	-0.316161	-4.13395	-0.0489205	0.000838554	-0.0335076	-1.06836	-0.28125	0.300537	0.435102	-0.235452	-0.315261	0.809851	-1.19694	-7.57526	7.36161	-0.035009	-0.000497368	-0.0243802	-0.0878906	0.574219	-0.929932	0.444347	-0.123931	-0.0921569	0.882442	-1.51578	-3.10286	9.21094	-0.0377168	-0.00986622	-0.00610699	0.104004	0.0732422	-1.02734	0.535403	0.322946	-0.280313	-0.728336	-1.70619	7.73353	6.31377	-0.0157948	0.0740635	-0.0372138	0.181885	-0.497559	-0.950439	0.641999	0.190228	-0.0439149	-0.741433	-2.36653	4.07674	12.4101	-0.00230131	0.112343	0.0140046	0.218994	0.050293	-1.08472	0.00231949	0.0625614	-0.997994	0.00941101	-0.0671286	-0.196472	-9.09481	0.0169509	0.00453924	-0.0167149	-0.179688	-0.139893	1.08252	-0.012695	-0.100664	-0.994815	0.00699928	-0.464088	0.0544252	-8.42283	-0.00426411	0.00380321	-0.0193212	-0.28833	0.171387	1.01709	-0.195665	0.00657664	-0.956332	0.217026	-3.47204	-3.75459	-7.31766	0.043367	0.0239989	-0.0145195	-0.0285645	0.583252	0.94043	-0.0337599	0.0928246	-0.994122	0.044323	-0.706236	-0.87675	-9.00127	-0.0153646	0.0126778	0.00560177	-0.36084	0.0556641	1.12329	-0.235954	0.170571	-0.951018	-0.103903	-4.80792	1.10044	-8.34397	0.0305724	-0.000599204	-0.00730621	0.143555	-0.272461	1.11914	
63	0.756394	0.0739395	-0.647486	0.0562443	9.93435	-0.000288564	1.80431	-0.0668168	-0.116692	0.0442251	-0.947998	-0.150391	-0.457764	0.527034	0.0660144	-0.845225	0.058923	8.94108	-0.446552	-4.22166	-0.0333057	0.0314901	-0.026391	-1.06836	-0.28125	0.300537	0.434865	-0.234797	-0.31561	0.810033	-1.1393	-7.50662	7.21984	0.0227298	-0.0192347	-0.00339663	-0.0878906	0.574219	-0.927734	0.443791	-0.123464	-0.0943135	0.882559	-1.51477	-2.53152	9.0661	-0.201405	-0.0795528	0.0164838	0.0996094	0.0732422	-1.02515	0.53568	0.323358	-0.278328	-0.728711	-1.66871	7.63836	6.01363	-0.0527095	0.0558805	-0.0368488	0.19043	-0.495361	-0.945801	0.644204	0.191278	-0.0427994	-0.739312	-2.21419	4.02883	12.1413	0.00763234	0.0894047	0.0820627	0.221191	0.0480957	-1.09106	0.00231949	0.0625614	-0.997994	0.00941101	-0.0671286	-0.196472	-9.09481	0.0169509	0.00453924	-0.0167149	-0.179688	-0.139893	1.08252	-0.0131175	-0.100662	-0.994812	0.00672044	-0.460137	0.0534871	-8.43085	-0.0109751	0.00790615	-0.0172022	-0.292725	0.173584	1.01465	-0.194505	0.00644489	-0.956522	0.217238	-3.54282	-3.86228	-7.46141	0.0122596	0.0517784	-0.0139324	-0.0354004	0.578613	0.94043	-0.033642	0.0926937	-0.994153	0.0439955	-0.714753	-0.866026	-9.02528	-0.0157914	0.0177029	0.00160853	-0.363037	0.0578613	1.13013	-0.236043	0.169908	-0.951073	-0.104287	-4.74625	1.2293	-8.35674	-0.0280247	0.0079176	0.0182446	0.141357	-0.272461	1.11694	
64	0.755964	0.0711937	-0.648249	0.0567624	10.0142	-0.0003654	1.846	-0.105137	-0.00318145	0.0990913	-0.952637	-0.14624	-0.453613	0.52764	0.0666668	-0.844829	0.0584378	8.82258	-0.367996	-4.1247	0.0107365	0.0167598	-0.037373	-1.07007	-0.290039	0.300781	0.434269	-0.233425	-0.316127	0.810547	-1.2334	-7.44744	7.28053	0.00707998	-0.0680671	-0.010224	-0.0878906	0.572021	-0.929932	0.442131	-0.12377	-0.0976229	0.88299	-1.35097	-3.34863	9.57127	0.0253491	-0.0242936	0.0520692	0.0947266	0.0820312	-1.03174	0.53514	0.324083	-0.278057	-0.72889	-1.67952	7.22471	6.11948	0.0412317	0.018643	-0.0308506	0.192627	-0.495361	-0.945801	0.646602	0.190556	-0.0415486	-0.737474	-2.22291	3.54072	12.0171	-0.0051775	0.0251965	0.0490508	0.223145	0.0544434	-1.08911	0.00263749	0.0631249	-0.997951	0.0101462	-0.0637126	-0.198684	-9.0851	0.018119	0.0101353	-0.0153191	-0.17334	-0.139893	1.08472	-0.0132877	-0.100673	-0.994808	0.00671762	-0.472195	0.0441133	-8.41449	-0.00244026	0.00874383	-0.0192702	-0.28418	0.177979	1.01221	-0.193937	0.00616528	-0.956555	0.217605	-3.56279	-3.9534	-7.5382	0.0323632	0.0574033	-0.0154301	-0.0263672	0.585693	0.942627	-0.0335137	0.0926235	-0.994177	0.0437117	-0.716105	-0.853339	-9.00425	-0.0255354	0.0212557	0.00369812	-0.356201	0.0556641	1.13257	-0.235804	0.169463	-0.951149	-0.104853	-4.81391	1.28349	-8.37596	-0.0398349	0.0166896	0.0314733	0.143555	-0.274658	1.11694	
65	0.756076	0.0693415	-0.648286	0.057146	9.74325	-0.0395593	1.88967	-0.117884	0.00442787	0.111769	-0.950684	-0.144043	-0.453613	0.527734	0.0668946	-0.844761	0.058319	8.89268	-0.4734	-4.2226	-0.0072734	0.0196919	-0.0401617	-1.07227	-0.290039	0.296143	0.433486	-0.233097	-0.316992	0.810723	-1.01933	-7.7786	7.53388	-0.0516308	-0.0581798	0.0198805	-0.0900879	0.574219	-0.927734	0.441781	-0.12341	-0.0966897	0.883318	-1.4385	-2.87056	9.77072	0.0818396	0.0104472	0.0381838	0.0949707	0.0776367	-1.02734	0.534963	0.324462	-0.278401	-0.728719	-1.63209	7.57198	6.13527	0.0426887	0.0153853	-0.0149773	0.195068	-0.499756	-0.938965	0.647116	0.190778	-0.0420595	-0.736937	-2.24518	4.0632	12.1208	0.0493549	0.0141807	0.0161656	0.223145	0.0544434	-1.08691	0.00277475	0.0633502	-0.997933	0.0104185	-0.069252	-0.199249	-9.09061	0.0181414	0.0120446	-0.0169964	-0.17749	-0.139893	1.08472	-0.0134277	-0.100308	-0.994843	0.00670745	-0.472913	0.0567521	-8.42363	-0.00239713	0.00583756	-0.0183785	-0.29248	0.169189	1.01245	-0.192852	0.00606599	-0.956763	0.217662	-3.62246	-3.92345	-7.55238	0.00141455	0.0497711	-0.0146021	-0.0405273	0.587891	0.940186	-0.0329928	0.092532	-0.994242	0.0428093	-0.711777	-0.847471	-9.00473	-0.0388003	0.0244908	0.00488661	-0.362793	0.0512695	1.12793	-0.235266	0.168777	-0.951343	-0.105405	-4.76064	1.23245	-8.411	-0.0184478	0.0199481	0.0271938	0.13916	-0.276855	1.11011	
66	0.755569	0.0661874	-0.649123	0.0580885	9.76328	-0.345387	1.95833	-0.0786714	-0.0518361	0.0996488	-0.951172	-0.133057	-0.455811	0.528045	0.067355	-0.844473	0.0591385	8.86341	-0.482167	-4.22704	0.0488224	0.0379962	-0.0076313	-1.07031	-0.281494	0.295898	0.431571	-0.23301	-0.317645	0.811514	-1.00359	-7.6366	7.57865	-0.0277928	-0.0212617	0.0504009	-0.0878906	0.576416	-0.925537	0.440769	-0.123572	-0.0963358	0.883839	-1.20395	-2.85967	9.82381	-0.00490172	0.0167236	0.0506992	0.103516	0.0820312	-1.02734	0.53503	0.324035	-0.278452	-0.72884	-1.70017	7.16616	6.20068	0.0110223	-0.00304442	-0.000656092	0.188232	-0.495361	-0.943604	0.647825	0.190912	-0.0434981	-0.736195	-2.20976	3.5484	12.4456	0.142389	-0.00795653	-0.00671149	0.221191	0.0480957	-1.08472	0.00289766	0.0635967	-0.997915	0.0105917	-0.0653513	-0.203821	-9.07897	0.0142749	0.0112041	-0.0179231	-0.175293	-0.14209	1.08032	-0.0137227	-0.100318	-0.994841	0.00626251	-0.483306	0.0728585	-8.42176	-0.0153847	0.0117636	-0.0170369	-0.29248	0.171387	1.01929	-0.192408	0.00576778	-0.956755	0.218097	-3.60149	-3.96343	-7.64232	0.0192314	0.0249055	-0.0049582	-0.0310059	0.585693	0.940186	-0.0325473	0.0924094	-0.994313	0.0417364	-0.70121	-0.82235	-9.0138	-0.0490528	0.027235	0.00376339	-0.367432	0.0534668	1.12329	-0.235132	0.168192	-0.951461	-0.105575	-4.7515	1.44264	-8.42043	-0.00227509	0.0068269	0.0173006	0.143555	-0.274658	1.12134	
67	0.754498	0.0651543	-0.650313	0.0598405	9.90837	-0.370075	1.88653	0.00988656	-0.0575974	0.0708532	-0.946777	-0.130859	-0.45166	0.52817	0.067666	-0.844272	0.0605144	8.92442	-0.283183	-4.17366	0.0422129	0.0330814	-0.0032159	-1.06812	-0.287842	0.293701	0.429566	-0.232925	-0.31647	0.81306	-1.04798	-7.59714	7.47044	0.0813059	0.00272545	0.107978	-0.0856934	0.574219	-0.929932	0.439538	-0.124552	-0.0959819	0.884353	-1.37065	-2.91787	9.3997	0.00592613	0.0470228	0.0671984	0.10376	0.0776367	-1.03174	0.534613	0.324972	-0.280116	-0.728092	-1.71345	7.60855	6.22314	0.0692598	0.00260518	0.0016884	0.192871	-0.501953	-0.941162	0.648368	0.190553	-0.0441776	-0.73577	-2.37266	3.61873	12.4586	-0.0557351	-0.0127879	-0.0133288	0.223389	0.0458984	-1.08887	0.00294404	0.0636429	-0.997913	0.0105193	-0.0625982	-0.206788	-9.07033	0.0115283	0.0104542	-0.0190976	-0.172852	-0.148682	1.09326	-0.0139326	-0.1004	-0.994832	0.00589905	-0.477846	0.0924971	-8.41941	-0.0140771	0.0150805	-0.0179047	-0.286133	0.169189	1.01465	-0.192649	0.00528985	-0.956613	0.218519	-3.49815	-3.9313	-7.62349	0.017657	0.0029811	0.00251615	-0.0356445	0.583252	0.935791	-0.0321652	0.092362	-0.994365	0.0408979	-0.688747	-0.800858	-8.99973	-0.0305418	0.0229508	-0.00137973	-0.367188	0.046875	1.12134	-0.234956	0.167848	-0.951453	-0.106585	-4.67232	1.43722	-8.40078	-0.0396937	0.0114111	0.00506275	0.13916	-0.276855	1.1145	
68	0.753865	0.0654278	-0.65082	0.0619701	9.78268	-0.337176	1.89452	0.048022	-0.0323219	0.0460133	-0.955566	-0.131104	-0.449463	0.528335	0.0677376	-0.844058	0.0619717	8.80455	-0.305158	-4.00342	0.0581268	0.025264	0.00837099	-1.0769	-0.281494	0.29834	0.427959	-0.233166	-0.314989	0.814412	-1.03197	-7.32622	7.33138	0.0315745	0.0108547	0.0746782	-0.0856934	0.572021	-0.927734	0.437814	-0.125718	-0.0946633	0.885185	-1.4356	-2.6005	9.26993	0.0112336	0.0634109	0.0832756	0.10376	0.0776367	-1.02954	0.534778	0.325374	-0.280659	-0.727581	-1.67268	7.42318	6.34141	0.0394509	0.0140203	-0.000514609	0.192871	-0.499756	-0.941162	0.648711	0.191815	-0.046074	-0.735023	-2.27121	4.32291	12.5205	0.0536115	0.0150479	0.00926063	0.215088	0.0415039	-1.08643	0.00296087	0.0636911	-0.99791	0.0104759	-0.0593377	-0.213108	-9.11598	0.0148792	0.01481	-0.0179952	-0.179443	-0.146484	1.08057	-0.0141542	-0.100449	-0.994827	0.00536605	-0.468482	0.103448	-8.43289	-0.020582	0.0150497	-0.0158741	-0.290527	0.175781	1.02148	-0.192765	0.0048623	-0.956678	0.218141	-3.50454	-3.96166	-7.59285	-0.0219309	0.0139559	0.00137829	-0.0310059	0.583496	0.933594	-0.0319714	0.0923735	-0.994392	0.0403709	-0.679932	-0.782398	-9.00835	-0.0206127	0.0177191	-0.000116823	-0.365234	0.0534668	1.13257	-0.234639	0.16775	-0.951539	-0.106667	-4.71551	1.36992	-8.31633	0.00621298	0.018387	-0.0146514	0.141602	-0.279053	1.11694	
69	0.753491	0.0664274	-0.650971	0.0638497	9.7187	-0.313494	1.95844	0.0564325	-0.0192815	0.0137453	-0.955566	-0.131104	-0.449463	0.528393	0.0680581	-0.843927	0.0628994	8.7841	-0.250499	-4.07799	0.0263669	0.0202942	-0.0156214	-1.0769	-0.28125	0.30542	0.425918	-0.233557	-0.314068	0.815724	-1.13525	-7.16841	7.28706	0.0225696	0.00950907	0.0761202	-0.0791016	0.567627	-0.934326	0.436847	-0.126434	-0.0916651	0.885876	-1.33511	-2.24996	9.21062	0.0956131	0.0773374	0.0585129	0.11084	0.0688477	-1.0249	0.534767	0.325618	-0.280831	-0.727414	-1.81557	7.56421	6.07488	-0.0206113	0.0219431	0.0086706	0.195068	-0.499756	-0.938965	0.649993	0.189818	-0.0442555	-0.73452	-2.23087	3.64718	12.2608	-0.0982858	0.0139225	-0.00983027	0.223145	0.0544434	-1.08472	0.00296087	0.0636911	-0.99791	0.0104759	-0.0593377	-0.213108	-9.11598	0.0148792	0.01481	-0.0179952	-0.179443	-0.146484	1.08057	-0.0143823	-0.100529	-0.994818	0.00492715	-0.473351	0.116855	-8.42734	-0.0192474	0.0139234	-0.0149337	-0.294434	0.165039	1.01001	-0.192609	0.0040636	-0.956407	0.219479	-3.46496	-3.74934	-7.51039	0.0829994	0.021034	0.000551329	-0.0334473	0.585693	0.931396	-0.0319876	0.092454	-0.99438	0.0404625	-0.680822	-0.77058	-9.02746	0.0100193	0.0115303	-0.000205238	-0.36499	0.046875	1.12354	-0.234738	0.167853	-0.951537	-0.106306	-4.70914	1.49335	-8.41285	0.0124927	0.00340167	-0.0152543	0.136963	-0.276855	1.12134	
70	0.753268	0.0679674	-0.650943	0.0651182	9.99195	-0.17765	2.01732	0.0533527	-0.00725348	-0.00773137	-0.958008	-0.128906	-0.447266	0.527485	0.068245	-0.844452	0.0632714	8.91613	-0.321462	-4.04206	0.0190574	-0.0530526	-0.0041376	-1.07495	-0.279297	0.300537	0.42418	-0.233342	-0.313567	0.816883	-1.15255	-7.29193	7.57456	0.0282974	-0.0220635	0.0630653	-0.0812988	0.567627	-0.932129	0.437686	-0.125109	-0.0850371	0.886311	-1.56639	-2.34046	8.96166	0.380399	0.0672311	0.00333571	0.109375	0.0559082	-1.03369	0.535327	0.324584	-0.279803	-0.72786	-1.65885	7.20365	6.13541	-0.0665423	-0.014068	-0.0215155	0.192627	-0.497559	-0.941162	0.650782	0.189217	-0.0437788	-0.734005	-2.32091	3.72597	12.3145	0.00751593	0.0129002	-0.00584939	0.220947	0.0524902	-1.08911	0.00312997	0.0641308	-0.997877	0.0108651	-0.0640917	-0.202468	-9.06769	0.0152285	0.00901292	-0.0171445	-0.17749	-0.139893	1.08472	-0.0146195	-0.10071	-0.994797	0.00481884	-0.46739	0.107182	-8.43026	0.00239953	0.0102694	-0.013733	-0.288086	0.165039	1.01489	-0.192809	0.00346399	-0.956333	0.219635	-3.51271	-3.76258	-7.53164	-0.0142737	0.00401921	0.00712359	-0.0334473	0.585693	0.935791	-0.0322695	0.0924547	-0.994334	0.0413619	-0.67724	-0.790522	-9.01967	0.0375354	0.00225425	-0.00154701	-0.363037	0.0534668	1.12329	-0.234416	0.167736	-0.951566	-0.106944	-4.74836	1.39793	-8.45254	-0.0339305	0.0172528	-0.00393764	0.137207	-0.283447	1.12158	
71	0.752968	0.0694417	-0.650981	0.06663	9.77303	-0.246831	1.95408	0.0671936	-0.035377	-0.00459435	-0.955811	-0.128906	-0.447266	0.527287	0.0687207	-0.844478	0.0640586	8.96463	-0.322297	-4.17772	0.0174653	0.0043523	-0.0211462	-1.07056	-0.2771	0.298096	0.423504	-0.232778	-0.313508	0.817418	-1.19041	-7.309	7.54353	-0.0134663	-0.0256225	-0.00383046	-0.081543	0.574219	-0.93457	0.438207	-0.123686	-0.0815553	0.886581	-1.69529	-2.05802	9.052	0.0770709	-0.00103959	-0.00586599	0.109619	0.0493164	-1.03125	0.535222	0.324925	-0.281151	-0.727266	-1.81301	7.48782	6.20808	0.0501799	-0.0129365	0.0247523	0.190674	-0.499756	-0.938965	0.651025	0.188711	-0.0439573	-0.733909	-2.38391	3.60891	12.326	0.0268958	-0.00849033	-0.0280561	0.220947	0.0524902	-1.08472	0.00310351	0.0643605	-0.99786	0.0111448	-0.0604725	-0.199228	-9.08535	0.0188532	0.00554869	-0.0170682	-0.173096	-0.14209	1.08691	-0.0148548	-0.100769	-0.994786	0.00503692	-0.47453	0.123458	-8.4221	0.0111199	0.0122941	-0.0179266	-0.294678	0.171387	1.01001	-0.192811	0.00331815	-0.95631	0.219736	-3.46801	-3.76555	-7.65026	0.0115008	0.0122258	-0.00940021	-0.0332031	0.583252	0.935791	-0.0327607	0.0924548	-0.994271	0.0424658	-0.691537	-0.809551	-9.01728	0.0452945	-0.00193875	0.00134107	-0.362793	0.0512695	1.12354	-0.234446	0.167667	-0.951556	-0.107069	-4.72583	1.30593	-8.45841	-0.000910755	0.00323625	-0.0181932	0.13916	-0.279053	1.11475	
72	0.752071	0.0711812	-0.651703	0.0678671	9.77283	-0.0664676	1.87793	0.0544379	-0.0606597	-0.0105009	-0.955566	-0.131104	-0.442871	0.527238	0.0687101	-0.844488	0.0643374	8.76117	-0.460238	-4.10274	-0.000145415	0.00841206	-0.0096438	-1.07275	-0.279297	0.298096	0.42384	-0.231392	-0.312768	0.81792	-1.14399	-7.09917	7.30885	0.071888	-0.030743	-0.0363667	-0.0791016	0.56543	-0.932129	0.440461	-0.119182	-0.0734083	0.886793	-1.39405	-2.59187	9.18504	0.56041	0.0111515	-0.0761653	0.112793	0.0273438	-1.0354	0.535655	0.324664	-0.281661	-0.726866	-1.67642	7.73178	6.23105	-0.0168291	-0.0093169	0.0203056	0.19043	-0.495361	-0.943604	0.651322	0.188361	-0.0441474	-0.733724	-2.25574	4.02777	12.4764	-0.0015882	-0.0126213	-0.00153078	0.220947	0.0524902	-1.08911	0.00298204	0.0647919	-0.997827	0.0116189	-0.0740659	-0.208689	-9.08271	0.017947	0.00144706	-0.0167596	-0.17749	-0.139893	1.08887	-0.0150414	-0.100915	-0.994767	0.00533811	-0.481852	0.116018	-8.4114	0.0157587	0.0130689	-0.016288	-0.290283	0.169189	1.01465	-0.19156	0.00378729	-0.956249	0.221086	-3.61005	-3.72366	-7.50965	0.0147128	0.0342649	-0.0448297	-0.0358887	0.587891	0.933594	-0.0331584	0.092319	-0.994239	0.0431967	-0.684645	-0.819791	-9.01138	0.029707	-0.00171463	0.00415303	-0.363281	0.0600586	1.12769	-0.234698	0.167692	-0.951514	-0.106851	-4.75741	1.36764	-8.36291	0.00746853	-0.00500047	-0.019374	0.141357	-0.276855	1.11694	
73	0.751615	0.0716435	-0.652122	0.0684042	9.82052	-0.0295301	1.83042	0.0331327	-0.0578772	0.0059041	-0.958008	-0.131104	-0.438721	0.527037	0.0687419	-0.844625	0.064148	8.8258	-0.351969	-4.16287	-0.0189401	-0.00840758	-0.0275129	-1.06836	-0.279297	0.300537	0.423571	-0.230679	-0.313713	0.817899	-1.08517	-7.26068	7.47799	-0.0402423	-0.0685806	-0.0340007	-0.0856934	0.567627	-0.934326	0.442793	-0.115269	-0.065084	0.886798	-1.56959	-2.10248	9.28854	0.751963	0.0347096	-0.107508	0.111572	0.00756836	-1.02393	0.536004	0.324024	-0.281373	-0.727006	-1.68307	7.65608	6.18575	-0.058152	-0.0113933	0.0127408	0.192627	-0.495361	-0.941162	0.652843	0.185552	-0.0412651	-0.733255	-2.26947	3.92099	12.6579	-0.163639	0.00600225	0.0238209	0.218506	0.0610352	-1.08496	0.00298204	0.0647919	-0.997827	0.0116189	-0.0740659	-0.208689	-9.08271	0.017947	0.00144706	-0.0167596	-0.17749	-0.139893	1.08887	-0.0151195	-0.100913	-0.994765	0.00558049	-0.473097	0.117541	-8.43803	0.0188548	0.0134222	-0.0192294	-0.294678	0.169189	1.01245	-0.191315	0.00412712	-0.9562	0.221502	-3.55931	-3.8838	-7.52653	0.0287402	0.0224489	-0.055418	-0.0405273	0.587891	0.931396	-0.0331584	0.092319	-0.994239	0.0431967	-0.684645	-0.819791	-9.01138	0.029707	-0.00171463	0.00415303	-0.363281	0.0600586	1.12769	-0.234774	0.167739	-0.951464	-0.107052	-4.69065	1.32867	-8.40333	-0.0177564	-0.000145754	-0.0156395	0.143799	-0.276855	1.11475	
74	0.75102	0.0717052	-0.652715	0.0692139	9.83537	-0.180643	1.79387	-0.0101011	-0.0340074	0.0189837	-0.958008	-0.128906	-0.438721	0.52698	0.0687743	-0.844685	0.0637967	8.80172	-0.474687	-4.13974	-0.0103594	0.0055351	-0.0242367	-1.07275	-0.279297	0.298096	0.42411	-0.229631	-0.314622	0.817566	-1.16797	-7.37308	7.40631	0.00793023	-0.0251129	-0.063028	-0.0878906	0.567627	-0.92749	0.446621	-0.108697	-0.0517163	0.886589	-1.47099	-1.80439	9.61693	0.519422	0.0139832	-0.0922678	0.113037	-0.0253906	-1.03003	0.535868	0.324373	-0.281417	-0.726933	-1.59222	7.43582	6.24509	0.0302625	0.0142789	-0.0156027	0.197266	-0.501953	-0.941162	0.654691	0.182871	-0.0379615	-0.732459	-2.24411	3.74403	12.6714	-0.168743	0.0325606	0.0114366	0.218262	0.067627	-1.0874	0.00290011	0.0649959	-0.997811	0.0118734	-0.0645483	-0.199785	-9.07237	0.0180201	0.00328719	-0.0160709	-0.181641	-0.144287	1.08691	-0.0149391	-0.100703	-0.994786	0.00611609	-0.482542	0.106545	-8.42073	0.0223157	0.0155075	-0.0201589	-0.290039	0.164795	1.02173	-0.190961	0.00485102	-0.956137	0.222064	-3.53606	-4.01956	-7.51344	0.0135242	0.0177669	-0.0566977	-0.0383301	0.592529	0.935791	-0.0333564	0.0922895	-0.994189	0.0442423	-0.693776	-0.846724	-9.01486	0.027593	0.0020677	0.00139435	-0.36499	0.0512695	1.12573	-0.234788	0.167798	-0.951406	-0.107446	-4.76342	1.36651	-8.31284	-0.0313469	0.00669264	-0.0122514	0.148438	-0.285645	1.11938	
75	0.750832	0.0716182	-0.652928	0.0693305	9.85525	-0.205204	1.79518	-0.0216511	-0.0306939	0.00656859	-0.955566	-0.133301	-0.436523	0.526796	0.0689936	-0.844817	0.0633206	8.82499	-0.431708	-4.13583	-0.00506316	0.0236249	-0.0337845	-1.07251	-0.28125	0.302979	0.424735	-0.228426	-0.31464	0.817572	-1.18313	-7.23241	7.46042	0.0530876	-0.00493796	-0.0540736	-0.092041	0.567871	-0.929932	0.449039	-0.103719	-0.0414135	0.886505	-1.49976	-1.51949	9.72917	0.436556	0.0244105	-0.0410767	0.111816	-0.045166	-1.02734	0.535541	0.325207	-0.281017	-0.726956	-1.67567	7.76363	6.27677	-0.0365457	0.0458113	-0.0327549	0.192871	-0.499756	-0.938965	0.654917	0.183045	-0.0365432	-0.732286	-2.28283	3.97964	12.5566	-0.0250481	0.0645754	-0.0470481	0.222412	0.0698242	-1.08521	0.00304634	0.0652346	-0.997792	0.0121144	-0.0715708	-0.221067	-9.05152	0.016369	0.0106142	-0.0178297	-0.17749	-0.139893	1.08032	-0.014982	-0.100808	-0.99477	0.00676058	-0.47886	0.102345	-8.39896	0.0255853	0.0164393	-0.0189423	-0.290527	0.171387	1.01245	-0.190183	0.00542861	-0.956177	0.222546	-3.41724	-3.88875	-7.46597	-0.0200196	0.0322586	-0.0420341	-0.0405273	0.590088	0.931152	-0.0334516	0.0922235	-0.994182	0.044474	-0.693175	-0.841261	-8.99217	0.00965923	0.00947054	0.000834715	-0.363037	0.0578613	1.12549	-0.234834	0.167809	-0.951359	-0.107748	-4.74803	1.3114	-8.36457	-0.00480756	0.00268935	-0.00988701	0.136963	-0.279053	1.11694	
76	0.750462	0.071021	-0.653392	0.0695844	9.83538	-0.396891	1.77272	-0.0183052	-0.0191952	0.0070379	-0.960205	-0.126709	-0.443115	0.526512	0.0694601	-0.845006	0.0626513	8.80321	-0.364331	-4.18477	-0.0170762	-0.0104077	-0.0379816	-1.07056	-0.279053	0.305176	0.424991	-0.228115	-0.315356	0.81725	-1.00559	-7.47476	7.5684	-0.00851636	0.0125658	-0.00501272	-0.0900879	0.569824	-0.932129	0.450887	-0.101074	-0.0357845	0.886118	-1.58242	-1.5348	9.7551	0.215396	0.0194599	-0.0477307	0.112305	-0.0583496	-1.0293	0.535911	0.325021	-0.27936	-0.727405	-1.80075	7.4847	6.14125	-0.0378335	0.0430244	-0.0311021	0.197021	-0.497559	-0.938965	0.654726	0.183262	-0.0348673	-0.732484	-2.31804	3.68086	12.3647	-0.00242069	0.0615549	-0.0569675	0.224609	0.0717773	-1.07886	0.00297313	0.0652234	-0.997793	0.0121184	-0.0665596	-0.195092	-9.11672	0.0160119	0.0061641	-0.0150227	-0.175537	-0.139893	1.08252	-0.0148223	-0.100584	-0.99479	0.0074376	-0.476667	0.07452	-8.41092	0.0277347	0.0142323	-0.0184832	-0.290527	0.171387	1.01245	-0.189858	0.00571267	-0.956192	0.222753	-3.4896	-4.04054	-7.43202	0.0178234	0.0204009	-0.0293268	-0.0336914	0.590332	0.933594	-0.0333305	0.0921828	-0.994171	0.0448956	-0.697179	-0.865542	-9.01103	0.015818	0.0129638	0.000677166	-0.361084	0.0600586	1.12329	-0.234512	0.167811	-0.951459	-0.107564	-4.74532	1.33777	-8.30972	0.00393343	0.0187086	-0.00771052	0.136963	-0.279053	1.11694	
77	0.750648	0.0714585	-0.653141	0.0694788	9.85223	-0.423821	1.77001	-0.00770742	0.0105703	-0.0368456	-0.957764	-0.135498	-0.440674	0.526493	0.0697679	-0.845039	0.0620232	8.84782	-0.427017	-4.12334	-0.0353714	-0.00788334	-0.0358653	-1.07251	-0.283691	0.295898	0.425061	-0.228079	-0.316152	0.816916	-0.990437	-7.5541	7.52293	-0.0514194	-0.000263135	-0.0240218	-0.0942383	0.572266	-0.927734	0.451882	-0.099968	-0.0329474	0.885846	-1.54102	-1.25749	9.72293	0.0557633	0.0170377	-0.0252192	0.114746	-0.0627441	-1.02051	0.535363	0.325823	-0.278889	-0.727631	-1.73228	7.35186	6.21737	0.03327	0.0273105	-0.0517338	0.194824	-0.495361	-0.941162	0.654532	0.183524	-0.0334217	-0.73266	-2.44982	3.46144	12.3883	0.00138874	0.0575405	-0.065064	0.226807	0.0698242	-1.08105	0.00297313	0.0652234	-0.997793	0.0121184	-0.0665596	-0.195092	-9.11672	0.0160119	0.0061641	-0.0150227	-0.175537	-0.139893	1.08252	-0.0148223	-0.100584	-0.99479	0.0074376	-0.476667	0.07452	-8.41092	0.0277347	0.0142323	-0.0184832	-0.290527	0.171387	1.01245	-0.189744	0.00574142	-0.956141	0.223066	-3.41834	-4.0859	-7.54507	0.0259123	0.0193907	-0.0258316	-0.0407715	0.596924	0.935547	-0.0333305	0.0921828	-0.994171	0.0448956	-0.697179	-0.865542	-9.01103	0.015818	0.0129638	0.000677166	-0.361084	0.0600586	1.12329	-0.233814	0.167778	-0.951596	-0.107922	-4.66528	1.41776	-8.38427	-0.0186313	0.0296475	0.000675714	0.136963	-0.279053	1.11694	
78	0.751256	0.0729881	-0.652296	0.0692618	9.74357	-0.228104	1.84859	0.0195827	0.0279786	-0.0521914	-0.955566	-0.131104	-0.440918	0.527018	0.0700839	-0.844715	0.0616116	8.79734	-0.337279	-4.07186	-0.0103415	0.0286207	-0.0412045	-1.07031	-0.285645	0.29834	0.425035	-0.227944	-0.315868	0.817077	-1.0861	-7.31308	7.46552	0.0171255	0.0180004	-0.0117626	-0.0900879	0.569824	-0.929932	0.452012	-0.100029	-0.0332975	0.88576	-1.51206	-1.73982	9.60606	0.0400872	0.00810173	-0.00213449	0.112305	-0.0583496	-1.02051	0.535597	0.325448	-0.277414	-0.72819	-1.61261	7.48571	6.14079	-0.111346	0.0157539	-0.0291611	0.201172	-0.493164	-0.947998	0.654502	0.182934	-0.0315338	-0.732918	-2.36962	3.44784	12.496	-0.0804402	0.0505408	-0.054616	0.228516	0.0783691	-1.0791	0.00297313	0.0652234	-0.997793	0.0121184	-0.0665596	-0.195092	-9.11672	0.0160119	0.0061641	-0.0150227	-0.175537	-0.139893	1.08252	-0.0143898	-0.0999172	-0.994861	0.0078266	-0.470797	0.0678017	-8.41137	0.00863386	0.0130492	-0.0183371	-0.290283	0.169189	1.01709	-0.188843	0.0058277	-0.956235	0.223425	-3.40808	-4.12868	-7.50314	0.018558	0.0340168	-0.0243023	-0.0432129	0.596924	0.935547	-0.0330583	0.0921013	-0.994161	0.0454812	-0.683955	-0.865632	-9.01305	0.0125342	0.0115122	-0.000412441	-0.370117	0.0620117	1.12329	-0.232821	0.167798	-0.951738	-0.108775	-4.69626	1.39689	-8.43448	-0.0536371	0.0460858	-0.00114556	0.137451	-0.290039	1.12158	
79	0.751764	0.0749963	-0.651407	0.0699639	9.69539	-0.236761	1.79527	0.0746751	0.0293381	-0.0390808	-0.959717	-0.137695	-0.445068	0.527412	0.0702897	-0.844469	0.0613822	8.66072	-0.374896	-4.05517	-0.00881476	0.0345806	-0.0363585	-1.07007	-0.290039	0.303223	0.425044	-0.227705	-0.315428	0.817308	-1.01918	-7.39305	7.3836	0.0398149	0.0156259	-0.00445458	-0.0898438	0.561279	-0.934326	0.45232	-0.0999602	-0.0324803	0.885641	-1.45862	-1.57547	9.38001	0.0237121	0.0175031	-0.0177517	0.112549	-0.0627441	-1.02271	0.53539	0.325824	-0.276901	-0.728369	-1.70143	7.36245	6.09474	0.0135606	0.0400346	-0.0199693	0.201416	-0.495361	-0.945801	0.654025	0.183505	-0.0307689	-0.733233	-2.25932	3.61528	12.3525	-0.0322816	0.046431	-0.0478674	0.22876	0.0761719	-1.08105	0.00383932	0.0663078	-0.997705	0.0131735	-0.0685531	-0.204072	-9.04895	0.0208114	0.0174201	-0.0174333	-0.183838	-0.14209	1.08252	-0.014653	-0.0999918	-0.994851	0.0076151	-0.488362	0.078895	-8.3938	-0.00691617	0.0106143	-0.0181055	-0.290527	0.173584	1.01221	-0.188308	0.00552016	-0.956145	0.224268	-3.43721	-3.98283	-7.45211	0.0345014	0.0333378	-0.0153666	-0.0478516	0.596924	0.93335	-0.033021	0.0920573	-0.99417	0.0453963	-0.69424	-0.879661	-8.99866	-0.00821033	0.0151646	0.00105512	-0.361084	0.0622559	1.12329	-0.232313	0.167703	-0.951838	-0.109142	-4.71607	1.3492	-8.48059	-0.0302768	0.0128913	-0.000507979	0.128174	-0.285645	1.11694	
80	0.75258	0.0775364	-0.649908	0.0723217	9.88002	-0.0922371	1.91218	0.128421	0.0739759	0.00682197	-0.957275	-0.14209	-0.445068	0.527244	0.0704396	-0.844577	0.0611691	8.7577	-0.403133	-4.33184	-0.0162713	-0.00551554	-0.0364171	-1.07031	-0.285645	0.296143	0.424906	-0.227586	-0.31529	0.817467	-1.06112	-7.16559	7.49704	0.0161115	0.0069116	1.62906e-07	-0.0942383	0.565674	-0.929688	0.453387	-0.0980938	-0.027908	0.88546	-1.37937	-1.20643	9.51991	0.207832	0.0216312	-0.0268088	0.117676	-0.0759277	-1.02466	0.535088	0.326721	-0.276722	-0.728257	-1.68643	7.20914	6.28737	0.0316994	0.0375643	-0.0382343	0.196777	-0.493164	-0.943604	0.654366	0.184233	-0.0305183	-0.732756	-2.37196	3.44494	12.3123	0.0398821	0.0457053	-0.00663849	0.23291	0.0761719	-1.08545	0.00383932	0.0663078	-0.997705	0.0131735	-0.0685531	-0.204072	-9.04895	0.0208114	0.0174201	-0.0174333	-0.183838	-0.14209	1.08252	-0.0150178	-0.0999675	-0.99485	0.00732445	-0.477476	0.0964026	-8.42568	-0.0131094	0.00866916	-0.0177616	-0.294678	0.166992	1.01465	-0.188147	0.00533977	-0.956189	0.224222	-3.32463	-3.99742	-7.54837	-0.000652998	0.0270646	-0.00659696	-0.0429688	0.592529	0.928955	-0.0328736	0.0921302	-0.994153	0.0457234	-0.692266	-0.873132	-9.01765	0.0144736	0.0137808	-0.00269688	-0.369873	0.0598145	1.13013	-0.232339	0.167564	-0.951846	-0.109226	-4.73049	1.47771	-8.5415	-0.00592061	0.004061	-0.00528445	0.137451	-0.287842	1.11719	
81	0.753713	0.0792005	-0.647941	0.0762673	9.59722	-0.0326729	2.08205	0.129979	0.0722807	0.0718246	-0.953125	-0.139648	-0.445068	0.526529	0.0707858	-0.845002	0.0610594	8.82292	-0.217099	-3.95011	0.00633049	-0.0258434	-0.0385953	-1.07446	-0.290039	0.307861	0.424637	-0.227139	-0.315803	0.817533	-0.967382	-7.32972	7.56511	-0.00973665	-0.0106732	-0.0100514	-0.0922852	0.572266	-0.932129	0.453546	-0.097467	-0.027414	0.885463	-1.51456	-1.11062	9.4118	-0.0189882	-0.0237907	0.0067135	0.115479	-0.0759277	-1.01807	0.534942	0.327047	-0.276911	-0.728146	-1.71812	7.32875	6.25516	0.0301745	0.0173219	-0.0208386	0.201416	-0.497559	-0.943604	0.655206	0.183945	-0.0300485	-0.732098	-2.30738	3.2387	12.4313	0.0163366	0.0281539	-0.00293494	0.235352	0.0739746	-1.08105	0.00391551	0.0667902	-0.997668	0.0135199	-0.0648082	-0.213231	-9.07152	0.0145501	0.00453659	-0.0172367	-0.17749	-0.139893	1.08032	-0.0151338	-0.100102	-0.994837	0.00714104	-0.466951	0.0908388	-8.41827	-0.0129459	0.0130073	-0.0154322	-0.29248	0.169189	1.01245	-0.187429	0.00474876	-0.95603	0.225508	-3.33313	-3.97435	-7.70854	0.055366	0.0381995	-0.00734795	-0.0432129	0.599365	0.922119	-0.0328777	0.0920731	-0.994155	0.0457928	-0.682091	-0.893948	-9.00884	0.00450433	0.0128136	-0.000558109	-0.356689	0.0644531	1.12769	-0.231754	0.16758	-0.951765	-0.111129	-4.76339	1.3954	-8.52202	-0.080132	0.0199034	0.00540328	0.128418	-0.290039	1.11719	
82	0.753721	0.0795963	-0.647641	0.0782952	9.59198	-0.0628643	2.09265	0.108162	0.0202278	0.0926831	-0.955078	-0.144043	-0.449219	0.52596	0.0710948	-0.84533	0.0610548	8.71906	-0.378102	-4.04533	0.0126502	-0.00392303	-0.0202005	-1.07007	-0.290039	0.300781	0.425086	-0.226611	-0.315877	0.817418	-1.02757	-7.47646	7.27932	0.021964	0.00511867	-0.0383545	-0.0942383	0.570068	-0.932129	0.453822	-0.0972556	-0.0280538	0.885325	-1.55488	-1.25768	9.54319	-0.0345307	-0.0310019	-0.0286716	0.117676	-0.0759277	-1.01807	0.535005	0.327719	-0.277036	-0.727751	-1.85648	7.2283	6.20272	0.0358473	0.0314564	-0.00168319	0.201416	-0.497559	-0.938965	0.656119	0.183281	-0.0290415	-0.731486	-2.39501	3.35407	12.3148	-0.0867006	0.0252723	0.0114101	0.235107	0.0783691	-1.08545	0.00391551	0.0667902	-0.997668	0.0135199	-0.0648082	-0.213231	-9.07152	0.0145501	0.00453659	-0.0172367	-0.17749	-0.139893	1.08032	-0.0151338	-0.100102	-0.994837	0.00714104	-0.466951	0.0908388	-8.41827	-0.0129459	0.0130073	-0.0154322	-0.29248	0.169189	1.01245	-0.187429	0.00474876	-0.95603	0.225508	-3.33313	-3.97435	-7.70854	0.055366	0.0381995	-0.00734795	-0.0432129	0.599365	0.922119	-0.0329279	0.0921981	-0.994143	0.0457754	-0.686793	-0.868645	-9.02484	-0.00297388	0.0110013	0.000595719	-0.363281	0.0600586	1.11865	-0.231754	0.16758	-0.951765	-0.111129	-4.76339	1.3954	-8.52202	-0.080132	0.0199034	0.00540328	0.128418	-0.290039	1.11719	
83	0.753379	0.0800764	-0.647623	0.0811956	9.86243	-0.130515	2.04068	0.0529613	-0.0129552	0.0527268	-0.955078	-0.141846	-0.447266	0.525236	0.0717153	-0.845669	0.0618624	8.81844	-0.260127	-4.07137	0.0681815	-0.00385647	-0.0112756	-1.07666	-0.287842	0.314941	0.425093	-0.225925	-0.317328	0.817042	-0.990323	-7.33677	7.59237	-0.0699435	-0.0346541	-0.0634764	-0.103027	0.574463	-0.93457	0.455199	-0.0959569	-0.0284491	0.884747	-1.43446	-1.33474	9.44424	0.0347154	-0.0576877	-0.052223	0.117432	-0.0715332	-1.01587	0.535617	0.327583	-0.27708	-0.727344	-1.71197	7.33521	6.16855	-1.21137e-05	0.0130978	0.0132322	0.198975	-0.493164	-0.945801	0.656401	0.183925	-0.029851	-0.731039	-2.41777	3.19753	12.5049	0.0850308	0.0178276	0.0182308	0.239258	0.0805664	-1.08984	0.00391551	0.0667902	-0.997668	0.0135199	-0.0648082	-0.213231	-9.07152	0.0145501	0.00453659	-0.0172367	-0.17749	-0.139893	1.08032	-0.0151338	-0.100102	-0.994837	0.00714104	-0.466951	0.0908388	-8.41827	-0.0129459	0.0130073	-0.0154322	-0.29248	0.169189	1.01245	-0.187429	0.00474876	-0.95603	0.225508	-3.33313	-3.97435	-7.70854	0.055366	0.0381995	-0.00734795	-0.0432129	0.599365	0.922119	-0.0329279	0.0921981	-0.994143	0.0457754	-0.686793	-0.868645	-9.02484	-0.00297388	0.0110013	0.000595719	-0.363281	0.0600586	1.11865	-0.229042	0.168218	-0.952073	-0.113138	-4.63371	1.34494	-8.4058	-0.0502108	0.0498163	3.51916e-05	0.133301	-0.298828	1.11499	
84	0.752995	0.0799041	-0.647997	0.0819402	9.71611	-0.271783	1.92714	-0.0252883	-0.0431794	0.0100022	-0.957764	-0.133301	-0.449463	0.524982	0.0716953	-0.845872	0.0612782	8.88283	-0.133042	-4.3888	-0.0341502	0.010888	-0.0384276	-1.07227	-0.290039	0.305664	0.425289	-0.225441	-0.318695	0.816541	-1.02776	-7.52674	7.36952	-0.0152994	-0.0169104	-0.0236175	-0.103027	0.574463	-0.932373	0.45621	-0.0951303	-0.0305703	0.884245	-1.43067	-1.64855	9.67555	-0.0485397	-0.0505074	-0.0396274	0.112793	-0.0671387	-1.01831	0.535405	0.329053	-0.278918	-0.726134	-1.97138	7.8635	5.98575	0.0604607	0.0139885	0.0230378	0.20166	-0.50415	-0.941162	0.657374	0.184153	-0.0306344	-0.730075	-2.40025	3.838	12.4723	-0.0651187	0.00810262	0.044484	0.230957	0.0717773	-1.08105	0.00388074	0.0674419	-0.997615	0.0141731	-0.0649939	-0.175908	-9.07844	0.0177876	-0.00463877	-0.0170025	-0.17749	-0.144287	1.09106	-0.0147586	-0.0994378	-0.994914	0.00630897	-0.477927	0.11162	-8.43097	-0.0025248	0.0119333	-0.0148123	-0.290283	0.169189	1.01245	-0.187181	0.00427777	-0.956479	0.223813	-3.35623	-3.94503	-7.68029	-0.0511283	0.010689	0.00990718	-0.052002	0.585449	0.935791	-0.0328118	0.091998	-0.99414	0.0463184	-0.6917	-0.885375	-9.01696	-0.00883177	0.0111653	0.00580569	-0.361084	0.0644531	1.12085	-0.229445	0.167861	-0.952228	-0.111529	-4.79675	1.32618	-8.53725	0.135235	-0.000746806	-0.0175377	0.128662	-0.296875	1.11035	
