40	Head	00b4120a												Throax	00b411e8												LUpArm	00b411d9												LFoArm	00b41148												RUpArm	00b411db												RFoArm	00b41204												Waist	00b411f7												Lthigh	00b411f4												Lshank	00b4111b												Rthigh	00b411c8												Rshank	00b411ee												
PacketCount	q0	q1	q2	q3	accX	accY	accZ	gyrX	gyrY	gyrZ	magX	magY	magZ	q0	q1	q2	q3	accX	accY	accZ	gyrX	gyrY	gyrZ	magX	magY	magZ	q0	q1	q2	q3	accX	accY	accZ	gyrX	gyrY	gyrZ	magX	magY	magZ	q0	q1	q2	q3	accX	accY	accZ	gyrX	gyrY	gyrZ	magX	magY	magZ	q0	q1	q2	q3	accX	accY	accZ	gyrX	gyrY	gyrZ	magX	magY	magZ	q0	q1	q2	q3	accX	accY	accZ	gyrX	gyrY	gyrZ	magX	magY	magZ	q0	q1	q2	q3	accX	accY	accZ	gyrX	gyrY	gyrZ	magX	magY	magZ	q0	q1	q2	q3	accX	accY	accZ	gyrX	gyrY	gyrZ	magX	magY	magZ	q0	q1	q2	q3	accX	accY	accZ	gyrX	gyrY	gyrZ	magX	magY	magZ	q0	q1	q2	q3	accX	accY	accZ	gyrX	gyrY	gyrZ	magX	magY	magZ	q0	q1	q2	q3	accX	accY	accZ	gyrX	gyrY	gyrZ	magX	magY	magZ	
0	-0.222251	-0.644108	-0.188799	0.707167	-9.82927	0.0375235	1.08611	-0.012976	-0.0278766	-0.0203119	1.07007	0.136719	-0.345459	-0.135137	-0.123269	-0.00369059	0.983122	-2.35515	0.379132	9.79791	-0.0158031	0.0125756	-0.031576	0.000976562	-0.0200195	-0.957031	-0.600245	0.154513	0.674927	0.400381	9.12487	3.56853	0.270987	-0.00702542	0.0070455	0.00517131	-1.09619	-0.202148	-0.302246	-0.714562	-0.248137	0.608758	-0.239255	9.71623	0.648227	1.39188	0.0181404	0.0167292	0.00595303	-0.891357	-0.305908	-0.441406	0.518036	0.296042	-0.667844	0.444952	9.4216	-2.62504	-0.602885	0.00560667	0.012522	-0.0144509	-1.03906	-0.0649414	-0.0610352	0.500008	0.467817	-0.282259	0.671915	9.75152	0.86716	4.48678	0.0121283	0.0106242	-0.0179042	-0.959961	-0.301514	-0.396729	-0.0412322	0.421966	0.00300925	0.905669	7.77158	-0.131389	6.8627	-0.0373991	-0.105756	-0.0137637	-0.991455	0.0808105	-0.290527	-0.342088	0.571468	0.15797	0.729003	9.58886	-1.69463	3.1848	-0.0383285	0.0144243	-0.0141802	-1.01709	0.517334	0.121094	-0.0273899	0.920354	0.386571	-0.0525482	-0.914048	-0.243853	-9.14126	0.00625459	0.00348933	-0.024091	0.623047	0.146729	1.16406	0.181052	0.611559	-0.052371	0.768423	9.66604	1.3918	2.05428	0.00216727	0.0134332	0.000483092	-1.00757	-0.306396	0.291504	-0.00876937	0.998953	-0.0374896	-0.0246989	-0.492163	-0.100175	-9.73875	-0.00426669	0.00462221	-0.00810717	0.451172	-0.0336914	0.944824	
1	-0.221444	-0.643882	-0.188497	0.707706	-9.7725	0.0863619	1.07237	0.0462435	-0.0180905	-0.0216093	1.06763	0.141113	-0.347656	-0.134676	-0.123101	-0.00382079	0.983206	-2.29711	0.286326	9.84889	-0.00800771	0.0152492	-0.0385793	0.00317383	-0.0178223	-0.954834	-0.600337	0.154979	0.674871	0.400158	9.06266	3.57203	0.364826	0.00321861	-0.00509196	0.0189833	-1.09619	-0.197754	-0.302246	-0.714763	-0.24831	0.608371	-0.23946	9.71233	0.616124	1.31722	0.0343893	0.0249366	-0.00287746	-0.893555	-0.303711	-0.446045	0.518178	0.296104	-0.667809	0.444797	9.49483	-2.68031	-0.5072	-0.00264258	0.0106357	-0.0190151	-1.03882	-0.0690918	-0.0678711	0.500201	0.46763	-0.282319	0.671876	9.84844	0.758709	4.53865	-0.0178759	0.0215669	-0.017047	-0.949219	-0.30127	-0.394531	-0.0403341	0.424466	0.0019458	0.904543	7.82971	-0.1752	6.73133	-0.0229249	-0.0655487	-0.0201641	-0.993408	0.076416	-0.279785	-0.342224	0.571583	0.157868	0.728872	9.63167	-1.66317	3.18448	0.0141926	0.0107277	-0.0064339	-1.01489	0.515137	0.114014	-0.0273552	0.920322	0.386644	-0.0525841	-0.907851	-0.251896	-9.13537	0.00866573	0.00422392	-0.0241897	0.625488	0.144531	1.15747	0.181245	0.611524	-0.0526224	0.768387	9.68788	1.37016	1.98341	-0.00948352	0.00259285	0.00612898	-1.00293	-0.314941	0.287109	-0.00867222	0.998951	-0.0375147	-0.0247992	-0.507748	-0.104219	-9.74019	-0.00312244	-0.000193462	-0.00634055	0.446777	-0.0314941	0.95166	
2	-0.220889	-0.643974	-0.188055	0.707913	-9.72613	0.160299	1.10193	0.0579516	-0.00824875	-0.0111268	1.07471	0.134766	-0.341064	-0.134091	-0.123139	-0.00344745	0.983283	-2.25411	0.273164	9.76964	0.0477664	0.0115113	-0.0372189	0.00976562	-0.0222168	-0.96167	-0.600382	0.15548	0.674707	0.400173	9.10126	3.4878	0.371618	0.00637399	-0.00448915	0.0209878	-1.09619	-0.202148	-0.299805	-0.714933	-0.248269	0.60819	-0.239454	9.6888	0.835425	1.3401	-0.000319098	0.0248063	-0.00460029	-0.898193	-0.301514	-0.437256	0.51826	0.296098	-0.667859	0.444632	9.5043	-2.68597	-0.419445	-0.0124644	0.00560186	-0.0215793	-1.03003	-0.0690918	-0.0700684	0.500385	0.467339	-0.282573	0.671835	9.83075	0.850419	4.58037	-0.0526533	0.011528	-0.0108395	-0.955566	-0.30127	-0.394531	-0.0400801	0.4253	0.00169283	0.904163	7.87358	-0.240662	6.66995	-0.0123409	-0.0583533	-0.025247	-0.989014	0.076416	-0.279785	-0.342742	0.571519	0.158238	0.728598	9.55935	-1.64837	3.19767	0.0225489	0.00581719	-0.00647503	-1.01489	0.512939	0.114014	-0.0278779	0.920146	0.387003	-0.052763	-0.916318	-0.261236	-9.11871	0.0194639	0.00520393	-0.0237464	0.622803	0.14917	1.15527	0.181261	0.611617	-0.0527432	0.768301	9.68383	1.34916	2.07029	-0.00520397	0.0048053	0.00784983	-1.00513	-0.312988	0.287109	-0.00886536	0.998946	-0.0374966	-0.0249571	-0.512049	-0.108242	-9.76157	0.011766	0.0026365	-0.00346749	0.448975	-0.0314941	0.944824	
3	-0.219055	-0.644372	-0.186007	0.708661	-9.77314	-0.130736	1.15156	0.0975798	-0.0149843	-0.0159461	1.07007	0.136719	-0.345459	-0.133597	-0.123915	-0.00348002	0.983252	-2.25249	0.363358	9.83535	0.0140831	0.0580548	-0.0304357	0.0012207	-0.0222168	-0.964111	-0.600733	0.155593	0.674359	0.400188	9.11872	3.55197	0.195865	-0.00310427	0.0204073	0.0177786	-1.09399	-0.199951	-0.304443	-0.715482	-0.248332	0.607468	-0.23958	9.77104	0.746082	1.35103	-0.0113237	0.0309047	-0.0106495	-0.891602	-0.301514	-0.439453	0.519151	0.295088	-0.667992	0.444062	9.50646	-2.67742	-0.47103	-0.0490212	0.035606	-0.00576698	-1.04126	-0.0625	-0.0678711	0.500801	0.466967	-0.282954	0.671623	9.74135	0.848776	4.53945	-0.0176694	0.0181375	-0.0204339	-0.955566	-0.301514	-0.396729	-0.039441	0.424602	0.00135131	0.90452	8.0425	-0.342481	6.76451	0.0334307	0.124636	-0.0159095	-0.991211	0.0786133	-0.286133	-0.342894	0.571711	0.158187	0.728387	9.56166	-1.72975	3.18016	-0.00131849	0.00724048	-0.00733266	-1.01709	0.517334	0.116455	-0.0279061	0.92012	0.387059	-0.0527913	-0.922493	-0.247072	-9.14231	0.0131074	0.00690399	-0.0228645	0.627441	0.14917	1.16406	0.180724	0.612076	-0.0522238	0.768098	9.70097	1.35565	2.00137	0.0399045	-0.00583256	-0.00268002	-1.00757	-0.308594	0.291504	-0.0091517	0.99894	-0.0375742	-0.0249678	-0.5079	-0.105242	-9.74843	0.01584	0.00724532	-0.00609664	0.446777	-0.0336914	0.944824	
4	-0.217393	-0.644649	-0.185104	0.709158	-9.71779	0.0515002	1.17229	0.148715	-0.0046334	-0.0527069	1.06787	0.138916	-0.345459	-0.13337	-0.124183	-0.00255426	0.983252	-2.345	0.411775	9.92787	0.0686847	0.027176	-0.0263324	0.00317383	-0.0200195	-0.959473	-0.600671	0.156119	0.674188	0.400364	9.09811	3.66808	0.342958	-0.0373563	-0.00612327	0.0202464	-1.09424	-0.195557	-0.300049	-0.715736	-0.248465	0.607073	-0.239685	9.76734	0.505973	1.32405	0.017304	0.0407696	-0.0128742	-0.88916	-0.305908	-0.446045	0.519365	0.295124	-0.668039	0.443719	9.45195	-2.77596	-0.500546	0.00600509	0.0110597	-0.0188462	-1.03882	-0.0690918	-0.0678711	0.50087	0.466896	-0.282804	0.671684	9.82741	0.812028	4.4729	0.00543874	0.0251521	-0.021261	-0.953613	-0.301514	-0.398926	-0.0396655	0.422504	0.00173724	0.905491	7.96409	-0.322172	7.07639	0.0592814	0.196806	-0.0173982	-0.995605	0.076416	-0.288086	-0.342921	0.571733	0.158155	0.728363	9.62606	-1.6965	3.18318	0.00433498	0.0142592	-0.0123387	-1.01489	0.515137	0.114014	-0.0275602	0.920097	0.38715	-0.0526971	-0.90616	-0.25243	-9.12549	-0.00835322	0.00564392	-0.0206514	0.625488	0.144531	1.15747	0.180524	0.612275	-0.0518336	0.768013	9.73775	1.36733	2.03366	0.0380807	0.00502793	-0.00521035	-1.00977	-0.312988	0.284668	-0.00915387	0.99894	-0.0375774	-0.0249465	-0.501797	-0.108207	-9.72706	0.00526971	0.00867443	-0.0079967	0.451172	-0.03125	0.947021	
5	-0.214647	-0.64552	-0.182913	0.709771	-9.70886	0.231968	1.08188	0.141196	0.0105917	-0.0107058	1.07251	0.134766	-0.349854	-0.132385	-0.125154	-0.00178831	0.983264	-2.21229	0.440692	9.86192	0.0358394	0.0420787	-0.0439084	0.00756836	-0.0222168	-0.96167	-0.600674	0.157351	0.673587	0.400888	9.19881	3.26763	0.36952	-0.00944051	-0.000346139	0.0353163	-1.09619	-0.197754	-0.302246	-0.716366	-0.248436	0.606464	-0.239376	9.64083	0.698303	1.52429	-0.0323863	0.0282088	-0.0236544	-0.898193	-0.301514	-0.448242	0.519584	0.294345	-0.668682	0.443011	9.64012	-2.4729	-0.352697	-0.0672493	0.00742217	-0.00718755	-1.03906	-0.0646973	-0.0678711	0.501091	0.466797	-0.283389	0.671341	9.77829	1.14737	4.64674	-0.0292041	-0.0132687	-0.0168037	-0.955811	-0.299316	-0.401123	-0.04038	0.421578	0.00364408	0.905885	7.86109	-0.0939475	6.46382	0.0911832	0.0440716	-0.0155	-0.991211	0.0786133	-0.29248	-0.343109	0.571783	0.158577	0.728144	9.62311	-1.8017	3.21501	0.0546889	-0.00672222	-0.0128051	-1.0127	0.510742	0.109375	-0.0273518	0.920079	0.387226	-0.0525643	-0.92815	-0.24349	-9.12632	-0.00022171	0.0120534	-0.0217209	0.625244	0.146729	1.15747	0.180919	0.612265	-0.0523868	0.76789	9.68779	1.46541	2.00302	-0.0259899	0.00205906	0.00258562	-1.00073	-0.312744	0.291504	-0.009229	0.998948	-0.0373946	-0.02487	-0.520647	-0.109525	-9.75415	0.00530934	0.00656495	-0.0115438	0.446777	-0.0314941	0.944824	
6	-0.212676	-0.646447	-0.180879	0.71004	-9.72004	0.357623	1.0656	0.107537	0.0177266	0.00375443	1.06592	0.132568	-0.347656	-0.131225	-0.125608	-0.000574569	0.983363	-2.35697	0.375468	9.72146	0.0509143	0.0121545	-0.0578661	0.0078125	-0.0266113	-0.96167	-0.600851	0.158347	0.672854	0.401462	9.20295	3.52015	0.451441	-0.0777877	0.0254086	0.0123449	-1.08984	-0.197998	-0.304688	-0.716492	-0.248816	0.606071	-0.2396	9.78661	0.675606	1.39735	0.0206141	0.0202478	-0.00313175	-0.888916	-0.308105	-0.445801	0.520246	0.292463	-0.66979	0.441804	9.39874	-2.64901	-0.617136	-0.107394	0.0192356	0.00975294	-1.03491	-0.0581055	-0.0725098	0.501956	0.466415	-0.285776	0.669947	9.75831	0.704068	4.51372	-0.0747876	-0.0410806	-0.0156769	-0.955566	-0.301514	-0.403076	-0.0411312	0.415432	0.00494043	0.908681	7.4025	-0.121022	7.29498	0.0841637	0.150168	-0.0215324	-0.984619	0.0742188	-0.294434	-0.343905	0.571642	0.159586	0.727659	9.5759	-1.46674	3.29919	0.0463041	-0.00443989	-0.00980205	-1.01294	0.517334	0.111572	-0.0273991	0.920056	0.387283	-0.0525184	-0.914683	-0.23736	-9.14398	0.01227	0.0130073	-0.023326	0.623047	0.146729	1.15527	0.181934	0.61224	-0.053598	0.767587	9.64961	1.3793	2.09463	-0.0783095	0.0038164	0.00260221	-1.00732	-0.312988	0.289307	-0.00882653	0.998952	-0.0373902	-0.0248863	-0.50593	-0.0935973	-9.71614	-0.0159086	0.00446542	-0.00692678	0.446777	-0.0314941	0.942383	
7	-0.211398	-0.646938	-0.17986	0.710234	-9.9295	0.404215	1.03957	0.0519057	-0.00802536	-0.0129909	1.07251	0.132568	-0.347656	-0.13031	-0.125576	0.000159765	0.983489	-2.42645	0.366113	9.77157	0.0184141	0.00125094	-0.0417067	0.00585938	-0.0332031	-0.966064	-0.601239	0.158469	0.672144	0.402021	9.14472	3.34427	0.419982	0.0162243	0.0393296	0.000110838	-1.09644	-0.193359	-0.309326	-0.715826	-0.251001	0.605274	-0.241319	9.62457	0.951495	1.44624	0.140115	-0.00263293	-0.00922424	-0.888672	-0.3125	-0.447998	0.520768	0.291025	-0.670533	0.44101	9.45351	-2.94163	-0.628026	-0.0438314	0.0220186	0.00864957	-1.03467	-0.0625	-0.0700684	0.502411	0.466005	-0.286792	0.669457	9.80354	0.987843	4.4569	-0.0431899	0.00365585	-0.0187384	-0.953613	-0.297119	-0.398926	-0.0415409	0.411681	0.00572432	0.910363	7.69634	-0.294073	6.93191	0.0756574	0.24953	-0.0161805	-0.982422	0.0722656	-0.313721	-0.344267	0.571939	0.159799	0.727207	9.58183	-1.68497	3.14006	0.00237869	-0.000534763	-0.00374468	-1.01709	0.517334	0.116455	-0.0272763	0.919921	0.387675	-0.0520454	-0.901707	-0.245295	-9.131	-0.00487409	0.0126563	-0.0171616	0.618408	0.146729	1.15967	0.182719	0.612473	-0.0546268	0.767141	9.67726	1.39526	1.99057	-0.0355379	-0.0100836	0.00108458	-1.00269	-0.319336	0.282715	-0.00875679	0.998947	-0.0374083	-0.0250877	-0.515911	-0.11051	-9.73666	0.00297135	-0.00185369	-0.00661706	0.446777	-0.0358887	0.944824	
8	-0.210617	-0.646757	-0.180165	0.710554	-9.84293	0.415644	0.954256	-0.000694708	0.00095036	-0.0387625	1.06372	0.134766	-0.358398	-0.129959	-0.125655	0.000898042	0.983524	-2.46308	0.31436	9.85233	0.0265321	0.00694944	-0.0191358	0.00146484	-0.0288086	-0.959229	-0.601937	0.157614	0.671581	0.402254	9.13642	3.40662	0.29156	0.0112727	0.0409995	-0.0222443	-1.08765	-0.193604	-0.311523	-0.71523	-0.253346	0.604307	-0.243053	9.84054	0.149346	1.30278	0.202946	0.0235621	-0.00301259	-0.890869	-0.314697	-0.441406	0.521332	0.290447	-0.670721	0.44044	9.49869	-2.85851	-0.625463	-0.053288	0.0265094	-0.0213862	-1.03711	-0.0603027	-0.074707	0.50294	0.46567	-0.287212	0.669113	9.89272	0.85443	4.5586	-0.0373359	0.0226369	-0.0260829	-0.953613	-0.30127	-0.396729	-0.0423408	0.406276	0.00735114	0.912739	7.53076	-0.293341	7.14199	0.100557	0.21718	-0.0192507	-0.978027	0.0722656	-0.320068	-0.344727	0.572103	0.15987	0.726844	9.57849	-1.60103	3.32414	0.0133815	0.00281184	0.00185114	-1.01099	0.521729	0.116211	-0.0267886	0.919951	0.387669	-0.0518128	-0.898005	-0.248676	-9.1447	-0.023775	0.00769181	-0.0126465	0.625244	0.146729	1.15967	0.182737	0.612781	-0.0547152	0.766885	9.72261	1.24	1.97119	0.0191445	-0.000349608	0.00374231	-1.00513	-0.315186	0.289307	-0.00879535	0.998941	-0.0374462	-0.0252617	-0.520506	-0.112184	-9.75805	0.0121042	0.00149911	-0.00730935	0.44873	-0.0292969	0.942383	
9	-0.210966	-0.647123	-0.181007	0.709902	-9.79549	0.348466	1.02062	-0.044825	0.0364826	0.0126614	1.07471	0.132568	-0.347656	-0.130316	-0.125152	0.00178397	0.98354	-2.44721	0.46445	9.8588	0.012648	-0.0114199	0.000845059	0.0102539	-0.0332031	-0.961426	-0.602327	0.157025	0.671584	0.401897	9.17565	3.46831	0.324231	0.0452385	0.0165656	0.0104206	-1.09424	-0.191162	-0.311523	-0.71479	-0.255617	0.603079	-0.245012	9.81894	0.453933	1.4408	0.113594	0.0320266	-0.0125286	-0.888428	-0.316895	-0.441406	0.522189	0.290146	-0.670552	0.43988	9.48612	-2.71521	-0.600975	-0.0299136	0.0340417	-0.0438937	-1.04102	-0.0690918	-0.0793457	0.503315	0.465235	-0.286841	0.669293	9.80153	0.917758	4.45461	0.0123588	0.0374764	-0.0207331	-0.955566	-0.301514	-0.396729	-0.04296	0.402531	0.0084636	0.914358	7.45285	-0.209383	7.13973	0.0815407	0.147334	-0.0158805	-0.980225	0.0722656	-0.334961	-0.344782	0.57234	0.159932	0.726618	9.56079	-1.68383	3.13666	0.00740205	-0.00950868	-0.00709561	-1.01709	0.517334	0.111572	-0.0261944	0.919973	0.387692	-0.0515589	-0.927951	-0.21261	-9.15245	-0.0123719	0.00962579	-0.0202675	0.623047	0.146729	1.16187	0.182638	0.61359	-0.0544137	0.766283	9.68406	1.31939	1.97196	0.00148006	-0.0175557	-0.00515996	-1.00952	-0.315186	0.289307	-0.00899187	0.998939	-0.0374417	-0.0252771	-0.507749	-0.100168	-9.73763	0.0136202	0.00734324	-0.00856699	0.448975	-0.0314941	0.949219	
10	-0.212022	-0.647416	-0.181188	0.709274	-9.8289	0.194254	1.02149	-0.0287204	0.0114075	0.0342692	1.07031	0.134766	-0.349854	-0.130645	-0.124955	0.0023747	0.98352	-2.42479	0.466103	9.8409	0.0135433	0.000632922	-0.00200181	0.00390625	-0.0354004	-0.958984	-0.602882	0.156302	0.671629	0.401269	9.12753	3.46419	0.371966	0.0467944	0.0268362	-0.000152273	-1.08984	-0.193604	-0.313721	-0.714643	-0.25715	0.601974	-0.246548	9.72427	0.624205	1.3757	0.072957	0.0347738	-0.00349791	-0.888428	-0.316895	-0.445801	0.522838	0.290245	-0.670149	0.439659	9.44837	-2.55819	-0.551504	-0.0113291	0.0258865	-0.0456286	-1.03442	-0.0690918	-0.074707	0.503972	0.464785	-0.286471	0.66927	9.76111	0.843605	4.59275	-0.009237	0.0445325	-0.0384209	-0.955322	-0.310059	-0.394287	-0.0435299	0.400425	0.00924686	0.915248	7.45456	-0.0853982	7.14484	0.0514245	0.109931	-0.00981603	-0.978027	0.0700684	-0.341309	-0.345207	0.57284	0.160493	0.725899	9.57298	-1.7099	3.14341	0.055274	-0.0153082	-0.00289299	-1.0083	0.512939	0.116455	-0.0257916	0.919925	0.387837	-0.0515234	-0.914925	-0.219707	-9.10709	-0.00123218	0.0015995	-0.0245382	0.623291	0.139893	1.15747	0.182991	0.614097	-0.0543752	0.765795	9.68757	1.44632	2.0194	-0.022032	-0.0125801	-0.0200554	-1.00757	-0.310791	0.286865	-0.00901936	0.99894	-0.0374558	-0.0251988	-0.512121	-0.112561	-9.74511	0.00114802	0.0121872	-0.00694979	0.441895	-0.0270996	0.947021	
11	-0.21317	-0.64778	-0.181141	0.70861	-9.84041	0.180953	1.06181	-0.0329341	0.0192573	0.0476229	1.07031	0.132568	-0.351807	-0.131037	-0.124521	0.00298747	0.983522	-2.39568	0.510479	9.78715	0.0100634	-0.00312301	0.000337615	0.00366211	-0.0332031	-0.963623	-0.603765	0.155275	0.671639	0.400323	9.20687	3.48701	0.362361	0.0569748	0.0427038	0.0139436	-1.0918	-0.199951	-0.304443	-0.714726	-0.258226	0.600962	-0.247652	9.76995	0.637604	1.34781	0.0299928	0.0332353	-0.0118881	-0.893066	-0.316895	-0.443604	0.523451	0.290046	-0.670258	0.438893	9.48281	-2.82638	-0.536976	-0.0670972	0.0244783	-0.0535771	-1.03027	-0.0646973	-0.0793457	0.504803	0.464101	-0.285982	0.669327	9.75897	0.890681	4.68227	-0.0121495	0.0474487	-0.0399184	-0.957764	-0.301514	-0.403076	-0.0438629	0.399551	0.00977509	0.915609	7.47329	-0.157299	7.16374	0.0694177	0.0869377	-0.0112716	-0.97583	0.0700684	-0.343262	-0.345678	0.573345	0.16115	0.72513	9.56624	-1.51899	3.10965	0.0194287	-0.0183358	-0.00241348	-1.01099	0.523926	0.118652	-0.0256201	0.919906	0.387898	-0.0514906	-0.913878	-0.179686	-9.14882	-0.00325585	0.00531939	-0.0225334	0.625732	0.139893	1.16211	0.183875	0.614567	-0.0550041	0.765161	9.70121	1.32492	1.91302	-0.032396	-0.0179794	-0.00793486	-1.00952	-0.317383	0.287109	-0.00896043	0.99894	-0.0374904	-0.0251476	-0.50304	-0.0943129	-9.74622	7.5114e-05	0.0106136	-0.00386	0.44458	-0.0336914	0.95166	
12	-0.213692	-0.647809	-0.181119	0.708431	-9.90153	0.121694	1.05102	-0.0285774	8.03647e-05	0.033764	1.07275	0.130371	-0.345459	-0.131171	-0.124375	0.00335822	0.983521	-2.36489	0.540151	9.87104	0.0175169	0.000299184	-0.00375256	0.00610352	-0.0375977	-0.958984	-0.604131	0.154997	0.671554	0.400021	9.10435	3.47575	0.36219	0.0350207	0.033311	0.0128502	-1.0918	-0.202148	-0.309082	-0.715138	-0.258561	0.600215	-0.247923	9.64399	0.725695	1.45811	-0.00516686	0.0363135	-0.0211031	-0.88623	-0.321045	-0.445557	0.524228	0.290236	-0.669767	0.438589	9.55566	-2.57061	-0.458994	0.00895108	0.0325253	-0.0568642	-1.03467	-0.0646973	-0.0769043	0.505399	0.463691	-0.285308	0.669449	9.84844	0.892009	4.52575	-0.0259119	0.046792	-0.0340525	-0.959961	-0.303467	-0.400879	-0.0443341	0.397773	0.0109683	0.916347	7.43396	-0.0566345	7.1695	0.0627149	0.0814621	-0.0122451	-0.97583	0.0700684	-0.334961	-0.345494	0.573762	0.160875	0.724948	9.58493	-1.68755	3.18295	-0.0286029	-0.0117809	-0.00435951	-1.00879	0.521729	0.123291	-0.0250741	0.919869	0.388036	-0.0513746	-0.929865	-0.206709	-9.1306	-0.0083127	0.00250504	-0.0256118	0.62793	0.139893	1.16431	0.184055	0.615455	-0.0545622	0.764436	9.67817	1.41898	2.00315	0.0270909	-0.0331528	-0.0199476	-1.00049	-0.319336	0.293945	-0.00925079	0.998937	-0.0375227	-0.0251291	-0.519853	-0.113123	-9.73364	0.0186851	0.00609786	-0.00662003	0.448975	-0.0314941	0.942383	
13	-0.214311	-0.647685	-0.181357	0.708297	-9.74917	0.172609	1.06625	-0.0280519	-0.00224515	0.010735	1.06812	0.132568	-0.345459	-0.131311	-0.123958	0.00402504	0.983553	-2.30248	0.625036	9.72113	0.0165188	0.000440055	-0.0121138	-0.000488281	-0.0375977	-0.968262	-0.604971	0.154478	0.671433	0.399155	9.17469	3.47413	0.394443	0.0599527	0.0292067	0.0200523	-1.09644	-0.188965	-0.316162	-0.715359	-0.258995	0.599642	-0.248221	9.81581	0.63491	1.32719	0.0480533	0.0465971	-0.019442	-0.892578	-0.325684	-0.447754	0.525066	0.290471	-0.669487	0.437857	9.37698	-2.76496	-0.485566	-0.0179816	0.0130049	-0.051318	-1.03662	-0.0712891	-0.074707	0.505806	0.463582	-0.283893	0.669819	9.68661	1.09948	4.61589	0.060867	0.0522202	-0.0478852	-0.953369	-0.307861	-0.407227	-0.045032	0.396314	0.0121318	0.91693	7.44853	-0.0139573	7.24404	0.0661333	0.0804092	-0.010246	-0.971436	0.0678711	-0.343262	-0.345739	0.574558	0.160905	0.724194	9.64711	-1.68783	3.22043	0.0305352	-0.0250367	0.00682987	-1.00854	0.519287	0.12793	-0.0246453	0.919861	0.388099	-0.0512602	-0.909127	-0.194655	-9.15395	-0.0038621	0.00683869	-0.0189009	0.623291	0.14209	1.16211	0.184239	0.615985	-0.0545814	0.763963	9.74149	1.38407	1.94428	-0.00244705	-0.038909	-0.0151529	-0.998291	-0.314941	0.296143	-0.00965015	0.99893	-0.0376136	-0.025112	-0.504397	-0.128774	-9.78056	0.0279168	0.00831458	-0.00506198	0.446533	-0.0292969	0.94458	
14	-0.213949	-0.647468	-0.181484	0.708572	-9.78942	0.194958	1.03112	0.018218	-0.0171823	-0.0328215	1.06836	0.130371	-0.347656	-0.13153	-0.123534	0.00459807	0.983574	-2.28646	0.571163	9.8701	0.00209171	-0.0132092	-0.00306235	0.00170898	-0.0375977	-0.961182	-0.605396	0.154541	0.670942	0.399311	9.13702	3.1551	0.314832	0.00593932	0.0288714	0.00846954	-1.08984	-0.195557	-0.316162	-0.715941	-0.259048	0.599039	-0.247941	9.62339	0.499475	1.52706	0.0139657	0.0294451	-0.0165232	-0.888428	-0.318848	-0.447998	0.525694	0.291047	-0.668992	0.437478	9.41298	-2.62492	-0.330566	-0.025688	0.0266217	-0.0399709	-1.03638	-0.0756836	-0.0793457	0.505806	0.463582	-0.283893	0.669819	9.68661	1.09948	4.61589	0.060867	0.0522202	-0.0478852	-0.953369	-0.307861	-0.407227	-0.0458931	0.394485	0.0128893	0.917665	7.42563	-0.0702138	7.06209	0.0701456	0.0930902	0.00294771	-0.97583	0.065918	-0.349609	-0.345945	0.575082	0.160898	0.723681	9.58262	-1.79392	3.12625	-0.018534	-0.00643392	-0.000935675	-1.01514	0.521484	0.125488	-0.0243684	0.919753	0.388355	-0.0513922	-0.934482	-0.206587	-9.12525	0.0026314	-0.00275343	-0.0322195	0.625732	0.137695	1.16211	0.184838	0.617055	-0.0547501	0.762942	9.68838	1.3555	1.86504	-0.0207132	-0.0404941	-0.0236455	-1.00073	-0.314941	0.293945	-0.00972473	0.998923	-0.037731	-0.0251742	-0.488591	-0.116657	-9.72506	0.000301792	0.00186968	-0.0014333	0.451172	-0.0290527	0.940186	
15	-0.213032	-0.647456	-0.181637	0.70882	-9.71691	0.344521	1.0847	0.0201039	0.0061117	-0.0325436	1.07031	0.134766	-0.345459	-0.131936	-0.123339	0.0049833	0.983542	-2.30463	0.583597	9.82942	0.00924929	-0.00674232	0.00511721	0.00390625	-0.0397949	-0.963379	-0.605967	0.153908	0.67076	0.398996	9.17425	3.3498	0.406635	-0.00247854	0.0177707	-0.00731092	-1.09839	-0.195557	-0.315918	-0.716433	-0.259476	0.598231	-0.248022	9.71609	0.699133	1.46382	0.00846809	0.0372179	-0.0252753	-0.881348	-0.325439	-0.443359	0.526711	0.290476	-0.669531	0.435807	9.58773	-2.68913	-0.432934	-0.0510902	0.0107875	-0.0607435	-1.04077	-0.0756836	-0.0793457	0.507851	0.462632	-0.283697	0.66901	9.80439	1.0578	4.77273	0.000342829	0.0334896	-0.0485819	-0.953369	-0.305664	-0.403076	-0.0467927	0.393737	0.0133163	0.917935	7.43901	-0.127741	7.23542	0.0427985	0.0286103	0.0126937	-0.973389	0.0637207	-0.355957	-0.345889	0.575786	0.160774	0.723176	9.61453	-1.88179	3.13316	0.00909065	-0.0219039	-0.00242949	-1.01099	0.523682	0.125488	-0.0238765	0.91964	0.388636	-0.0515111	-0.915157	-0.188276	-9.12602	-0.00715338	-0.00320676	-0.0270435	0.628174	0.135254	1.1665	0.185228	0.6175	-0.054892	0.762477	9.71065	1.31535	1.91861	-0.0214567	-0.0347818	-0.0221408	-0.996094	-0.317139	0.298584	-0.00988198	0.998918	-0.037712	-0.0253662	-0.511572	-0.125883	-9.78299	0.0164698	0.00118141	-0.0106295	0.444336	-0.0292969	0.947021	
16	-0.212731	-0.647604	-0.181762	0.708744	-9.84156	0.430456	1.15154	0.00961115	0.0153694	-0.0203934	1.06812	0.132568	-0.345459	-0.132751	-0.122855	0.00429232	0.983497	-2.18688	0.457259	9.91186	-0.059667	0.00487232	0.0111962	0.00170898	-0.0375977	-0.961182	-0.606453	0.153034	0.670943	0.398286	9.32607	3.38753	0.558154	0.0663193	0.0230918	0.00345034	-1.09204	-0.191406	-0.307129	-0.716623	-0.260378	0.59754	-0.248195	9.84696	0.749091	1.49562	0.0437395	0.0186836	-0.0252065	-0.879395	-0.323242	-0.447754	0.527074	0.291282	-0.668904	0.435793	9.45664	-2.74522	-0.570895	0.016268	0.00978652	-0.0506383	-1.03174	-0.0800781	-0.081543	0.508604	0.462561	-0.28302	0.668774	9.77936	0.924595	4.5778	0.00309117	0.0342832	-0.0555838	-0.953369	-0.307861	-0.407227	-0.0481993	0.392873	0.0136098	0.918228	7.43335	-0.00956677	7.3024	0.0276706	0.0274441	0.0342576	-0.971924	0.0744629	-0.358398	-0.346309	0.576197	0.161558	0.722473	9.599	-1.63889	2.94524	0.0277589	-0.0132638	-0.00893026	-1.00635	0.519531	0.12793	-0.0234701	0.919543	0.388887	-0.0515427	-0.928016	-0.183695	-9.14319	-0.00425006	-0.00081614	-0.0286641	0.618652	0.137695	1.15088	0.18618	0.618722	-0.0547914	0.761261	9.68692	1.54961	1.87899	-0.00978976	-0.025968	-0.0234352	-1.00024	-0.32373	0.298584	-0.00988818	0.998921	-0.037672	-0.0252775	-0.512436	-0.115259	-9.71537	-0.00286142	0.00977177	-0.00937341	0.450928	-0.0268555	0.942383	
17	-0.213721	-0.647492	-0.182504	0.708357	-9.81553	0.467338	1.25165	-0.0713291	0.00231869	0.0348021	1.07251	0.132568	-0.347656	-0.133311	-0.122434	0.00468983	0.983471	-2.22132	0.405561	9.82483	0.0121989	-0.0213664	0.0304013	-0.000244141	-0.0419922	-0.95874	-0.607066	0.151519	0.67132	0.397294	9.15818	3.26365	0.46404	0.0855514	0.0406159	-0.0127845	-1.09204	-0.197754	-0.315918	-0.716354	-0.261603	0.597143	-0.248639	9.62076	0.878732	1.44108	0.0603339	-0.0047367	-0.0210901	-0.881592	-0.323242	-0.447754	0.527256	0.29257	-0.668472	0.435372	9.53387	-2.37615	-0.400446	0.0137495	-0.019451	-0.0733636	-1.03418	-0.0778809	-0.0769043	0.508863	0.462931	-0.281278	0.669057	9.71277	1.18472	4.69897	0.0743075	0.0441874	-0.0502937	-0.94873	-0.314453	-0.404785	-0.049175	0.392502	0.0136231	0.918335	7.65007	-0.0902588	7.12137	0.0169095	0.0552491	0.0151875	-0.969727	0.0766602	-0.362793	-0.346066	0.576713	0.161379	0.722216	9.6643	-1.65714	3.03603	-0.0243222	-0.000734181	-0.0143587	-1.00879	0.521484	0.125488	-0.0230395	0.919465	0.389102	-0.0515094	-0.922216	-0.165815	-9.1159	-0.00555796	0.00586014	-0.0249128	0.623535	0.135254	1.1665	0.186491	0.619064	-0.0546998	0.760913	9.66504	1.44976	1.83446	-0.00424379	-0.0194296	-0.0260395	-1.00269	-0.319336	0.300781	-0.00977129	0.998923	-0.0376412	-0.0253251	-0.524903	-0.131676	-9.74379	0.00107842	0.00349162	-0.0108881	0.453369	-0.03125	0.947021	
18	-0.216024	-0.647091	-0.183369	0.707801	-9.79793	0.28972	1.23287	-0.09976	-0.0129866	0.0463293	1.07495	0.130371	-0.345459	-0.134937	-0.122908	0.00538903	0.983187	-2.17851	0.534668	9.89827	-0.0124963	0.0272472	0.0300155	-0.00463867	-0.0397949	-0.961182	-0.607371	0.15013	0.671423	0.397181	9.21721	3.25259	0.488751	0.0281478	0.0320495	-0.0392201	-1.09424	-0.191162	-0.325195	-0.715858	-0.262883	0.597136	-0.248733	9.64315	0.922356	1.4601	0.0383256	-0.0251426	-0.0222204	-0.880859	-0.336426	-0.445312	0.527212	0.293632	-0.668035	0.435381	9.50767	-2.52523	-0.462963	0.0501666	-0.00525476	-0.0438248	-1.03174	-0.0800781	-0.0793457	0.509516	0.463	-0.280699	0.668755	9.75052	0.828508	4.81835	0.0167096	0.0237325	-0.0467143	-0.950928	-0.312256	-0.40918	-0.0502406	0.392062	0.0146602	0.918449	7.45407	0.0520349	7.23545	0.088375	0.0281882	0.00352471	-0.969727	0.0744629	-0.356201	-0.345729	0.577166	0.160955	0.722111	9.63303	-1.73588	2.94168	-0.00504282	0.00832185	-0.00797172	-1.01318	0.523682	0.130127	-0.0229295	0.919457	0.389134	-0.0514569	-0.928247	-0.168802	-9.14417	0.000940416	0.00866971	-0.0204194	0.623291	0.139893	1.15991	0.18599	0.61965	-0.0540264	0.760607	9.67926	1.576	1.92057	0.0202935	-0.00311967	0.00643596	-0.99585	-0.32373	0.307861	-0.00953159	0.998922	-0.0376539	-0.0254366	-0.527072	-0.106441	-9.71177	-0.00635369	0.00024621	-0.00661906	0.442139	-0.0336914	0.940186	
19	-0.21736	-0.646818	-0.18387	0.707512	-9.74405	0.156783	1.20874	-0.106976	-0.0148366	0.0499226	1.07251	0.132568	-0.338867	-0.135958	-0.123073	0.00560834	0.983024	-2.2293	0.603268	9.94052	-0.000939654	0.0336973	0.0213887	0.00415039	-0.0419922	-0.963379	-0.607564	0.149307	0.67139	0.397252	9.03228	3.62724	0.427315	-0.0231252	0.0200054	-0.0250897	-1.09399	-0.204346	-0.320312	-0.715387	-0.263635	0.59776	-0.247791	9.63046	0.830564	1.49325	-0.0117547	-0.0375621	-0.0385594	-0.881104	-0.334229	-0.443115	0.526619	0.295407	-0.667132	0.436283	9.5672	-2.58178	-0.279116	0.101994	-0.0068557	-0.0337283	-1.03833	-0.0800781	-0.0769043	0.509848	0.463207	-0.280056	0.668627	9.75606	1.20339	4.66926	-0.0123075	0.0123394	-0.0464842	-0.94873	-0.31665	-0.41333	-0.0507368	0.391797	0.0150589	0.918528	7.49485	-0.0138701	7.22594	0.0630456	0.0342594	0.00599878	-0.969482	0.0700684	-0.354004	-0.346034	0.576794	0.161126	0.722224	9.61765	-1.81116	2.95632	0.0523124	0.0334971	-0.0141326	-1.01294	0.519287	0.12793	-0.0231291	0.919325	0.389437	-0.0514281	-0.922776	-0.164516	-9.13915	0.0117179	0.00782758	-0.0225466	0.616455	0.137695	1.15991	0.18599	0.61965	-0.0540264	0.760607	9.67926	1.576	1.92057	0.0202935	-0.00311967	0.00643596	-0.99585	-0.32373	0.307861	-0.00970205	0.998919	-0.0376371	-0.0255169	-0.531016	-0.119653	-9.76001	0.0184388	-0.000356251	-0.00948144	0.444092	-0.0249023	0.937744	
20	-0.219289	-0.646335	-0.184667	0.70715	-9.78468	-0.0438478	1.14079	-0.079451	-0.0135572	0.0332636	1.07227	0.138916	-0.345459	-0.136476	-0.12306	0.00570564	0.982954	-2.15466	0.654705	9.80462	-0.007079	0.0141241	0.0246621	-0.000488281	-0.0397949	-0.968262	-0.607404	0.14932	0.670999	0.398151	9.22171	3.25216	0.319445	-0.0596812	0.0243799	-0.0431059	-1.08984	-0.202148	-0.315918	-0.715209	-0.26408	0.597913	-0.247463	9.75609	0.513608	1.36634	0.0124509	-0.0273752	-0.0324262	-0.885498	-0.336426	-0.443115	0.526434	0.295921	-0.666986	0.43638	9.4124	-2.30205	-0.288788	0.0364216	-0.0123815	-0.0341043	-1.03833	-0.0822754	-0.0725098	0.510088	0.463541	-0.280045	0.668217	9.58442	0.899548	4.73702	-0.00256978	-0.0160274	-0.0531828	-0.950684	-0.31665	-0.411377	-0.0519164	0.391159	0.0166499	0.918707	7.46768	-0.0566239	7.069	0.0867714	0.030551	0.00938747	-0.969727	0.0744629	-0.362549	-0.346246	0.576526	0.161381	0.72228	9.61651	-1.70876	3.06705	0.036901	0.0289828	-0.0200905	-1.00635	0.519531	0.12793	-0.0235749	0.91918	0.389745	-0.0514831	-0.918917	-0.163066	-9.14557	0.0221532	0.00851377	-0.0230574	0.625732	0.139893	1.16211	0.185612	0.619769	-0.0538927	0.760612	9.72343	1.4236	1.79125	0.0101904	0.00335989	0.00674221	-1.00024	-0.32373	0.305664	-0.010001	0.998921	-0.0374817	-0.025523	-0.513306	-0.129957	-9.73657	0.0139561	0.00268801	-0.00995493	0.44873	-0.0268555	0.942383	
21	-0.219211	-0.646185	-0.184925	0.707245	-9.73993	-0.0450398	1.09554	-0.0132685	-0.0110823	-0.0214238	1.06592	0.132324	-0.345459	-0.137505	-0.123343	0.00557284	0.982775	-2.26621	0.601946	9.7983	-0.023876	0.00182783	0.0226125	-0.000488281	-0.0375977	-0.963623	-0.607322	0.148683	0.670955	0.398588	9.18522	3.39766	0.566372	-0.00332384	0.018495	-0.0228075	-1.0918	-0.204346	-0.318115	-0.714889	-0.264812	0.598022	-0.247342	9.74697	0.845211	1.69349	0.0425691	-0.0329255	-0.0324929	-0.880859	-0.336426	-0.436523	0.525854	0.297166	-0.666703	0.436666	9.42565	-2.55589	-0.466553	0.0731488	-0.028504	-0.0240686	-1.03589	-0.0866699	-0.0793457	0.510477	0.464303	-0.279688	0.667541	9.6846	1.05407	4.51796	-0.012569	-0.00815042	-0.0579532	-0.946289	-0.318604	-0.404785	-0.0530716	0.390795	0.0168772	0.918791	7.37595	0.0194064	7.18213	0.0489963	0.0216426	0.0251757	-0.976318	0.0766602	-0.354248	-0.345953	0.576397	0.16133	0.722535	9.61064	-1.80877	3.09794	-0.0110282	0.024755	-0.0296193	-1.00879	0.525879	0.130127	-0.0237059	0.919112	0.389884	-0.0515985	-0.935408	-0.18239	-9.13416	0.0182269	0.0052912	-0.0242512	0.621094	0.135254	1.15991	0.185544	0.619901	-0.0537069	0.760534	9.68648	1.45397	1.75316	0.0030345	0.0143149	0.000790409	-1.00269	-0.319336	0.314453	-0.0100709	0.998925	-0.0374167	-0.0254623	-0.509523	-0.137084	-9.73667	0.00159595	0.0117032	-0.0108321	0.44873	-0.0246582	0.94458	
22	-0.217827	-0.646488	-0.185915	0.707135	-9.66424	0.39671	1.06149	-0.00590887	0.0351466	-0.0340113	1.07446	0.13916	-0.343262	-0.138334	-0.123678	0.00512768	0.982619	-2.25965	0.455503	9.86866	-0.0351143	0.0264566	0.0118776	0.00610352	-0.0375977	-0.961182	-0.607513	0.147565	0.67055	0.399394	9.15914	3.57398	0.537961	-0.0137315	0.0425054	-0.0586801	-1.08765	-0.204346	-0.322754	-0.713918	-0.26677	0.598435	-0.247044	9.76007	0.945762	1.39206	0.0796365	-0.0301911	-0.0239555	-0.881104	-0.334473	-0.434326	0.525232	0.298034	-0.666925	0.436483	9.61093	-2.60103	-0.57533	0.00471387	-0.0309433	-0.0294003	-1.03149	-0.0866699	-0.074707	0.510519	0.465376	-0.278965	0.667064	9.83883	1.28784	4.63005	0.0192426	-0.0146529	-0.0497507	-0.950439	-0.325195	-0.406738	-0.054109	0.39082	0.0166023	0.918725	7.36898	-0.0587878	7.15002	0.0144462	0.0217916	0.0251611	-0.969727	0.0766602	-0.358398	-0.346207	0.575809	0.161755	0.722786	9.61373	-1.64964	3.02911	0.0428319	0.0348525	-0.0278302	-1.01294	0.519287	0.12793	-0.0236703	0.918971	0.390231	-0.0515005	-0.909674	-0.181028	-9.13451	0.00203271	0.00665079	-0.0239082	0.625732	0.137695	1.15991	0.185374	0.619622	-0.0534744	0.760819	9.66315	1.53327	1.82266	0.0164521	0.0350222	0.00290573	-1.00464	-0.32373	0.298584	-0.00993423	0.998933	-0.0372662	-0.0254038	-0.519571	-0.132396	-9.73879	-0.00334049	0.00602639	-0.00955388	0.451172	-0.0290527	0.947021	
23	-0.218212	-0.647088	-0.186917	0.706203	-9.86971	0.39616	1.08248	-0.0557997	0.0415466	0.013895	1.07471	0.132568	-0.338867	-0.139053	-0.124243	0.00448372	0.98245	-2.26713	0.285392	9.84762	-0.028557	0.0509222	0.00777623	0.00170898	-0.0375977	-0.95874	-0.607716	0.146368	0.670605	0.399433	9.07607	3.43357	0.499776	0.0595597	0.0232725	-0.0139809	-1.0896	-0.20874	-0.317871	-0.71322	-0.267845	0.598857	-0.246875	9.65672	0.660359	1.49928	0.0334336	-0.0346686	-0.01785	-0.887451	-0.338867	-0.429932	0.524542	0.298844	-0.666982	0.436673	9.65086	-2.52768	-0.659777	0.0228255	-0.0213576	-0.0225714	-1.04053	-0.0822754	-0.0769043	0.510363	0.46619	-0.278395	0.666853	9.84078	1.07726	4.69647	0.083309	0.00214084	-0.0251781	-0.946289	-0.320801	-0.402588	-0.054647	0.391023	0.0161303	0.918616	7.43183	-0.0728706	7.21409	0.0066012	0.00334106	0.00107161	-0.969727	0.0766602	-0.352051	-0.345992	0.575584	0.161713	0.723077	9.65166	-1.61094	3.0691	-0.0121285	0.0248695	-0.0266147	-1.00439	0.523926	0.12085	-0.023554	0.91895	0.39029	-0.0514793	-0.936044	-0.180658	-9.12362	0.00141191	0.00624048	-0.0228711	0.621094	0.135498	1.15527	0.185424	0.619408	-0.0535484	0.760975	9.6951	1.6098	1.77069	-0.00745346	0.035575	0.00785034	-0.993896	-0.317139	0.303223	-0.00977614	0.998935	-0.0372434	-0.0254116	-0.522874	-0.12932	-9.74674	-0.00801123	0.00707269	-0.00956281	0.446777	-0.0336914	0.944824	
24	-0.220209	-0.647652	-0.187559	0.704894	-9.92824	0.175063	1.09301	-0.0760405	0.0349268	0.0637859	1.0813	0.132568	-0.33667	-0.139748	-0.124976	0.00435495	0.982259	-2.30711	0.451569	9.7629	-0.0108488	0.0520296	0.00858713	0.00830078	-0.0375977	-0.958984	-0.607656	0.145503	0.670836	0.399453	9.16184	3.49092	0.483745	0.0359868	0.0147168	-0.0255354	-1.08765	-0.206543	-0.320312	-0.712847	-0.268301	0.599032	-0.247032	9.69647	0.802832	1.34959	0.0399676	-0.0272391	-0.00124854	-0.885498	-0.33667	-0.429932	0.523736	0.300148	-0.666488	0.437498	9.53212	-2.16875	-0.667294	0.0556875	-0.0198039	-0.028454	-1.03833	-0.0800781	-0.074707	0.509908	0.46707	-0.277631	0.666903	9.73091	1.06695	4.53839	0.0581011	0.0023962	-0.0219659	-0.950684	-0.320801	-0.404785	-0.0545853	0.39159	0.0160948	0.918378	7.40214	-0.131581	7.22954	0.021969	-0.0127006	-0.0227356	-0.969727	0.0788574	-0.354248	-0.345783	0.575323	0.161316	0.723474	9.60288	-1.72159	3.09007	-0.00290912	0.0384004	-0.0210188	-1.01538	0.523682	0.130127	-0.024152	0.91883	0.39054	-0.0514488	-0.920024	-0.191841	-9.14679	0.0406318	0.0114473	-0.0227036	0.625732	0.137695	1.16211	0.185498	0.618634	-0.0540721	0.76155	9.70514	1.47564	1.83652	-0.0213543	0.0422458	0.0184734	-1.00244	-0.321533	0.303223	-0.00971812	0.998939	-0.0371852	-0.0253728	-0.515555	-0.120753	-9.74747	-0.00080502	0.00706878	-0.00599365	0.450928	-0.0268555	0.94458	
25	-0.222187	-0.647608	-0.187795	0.704251	-9.83192	0.0565221	1.08216	-0.0630967	-0.0124983	0.0488295	1.07471	0.132568	-0.338867	-0.140101	-0.125449	0.00412096	0.982149	-2.27427	0.506998	9.78207	-0.0192884	0.0373372	-0.0106677	0.00610352	-0.0397949	-0.95874	-0.607484	0.144668	0.671317	0.39921	9.1368	3.52809	0.587756	0.0251897	0.000300264	-0.0296739	-1.08325	-0.206543	-0.320312	-0.711645	-0.269736	0.599342	-0.248179	9.74624	0.951315	1.34261	0.0634313	-0.0153919	0.0111874	-0.887695	-0.33667	-0.425537	0.522875	0.300972	-0.666503	0.43794	9.49249	-2.47201	-0.34488	0.0666177	-0.0148907	0.00536181	-1.04248	-0.0844727	-0.0725098	0.509386	0.467532	-0.277084	0.667206	9.67744	1.10112	4.74297	0.0122174	0.00629273	-0.0142056	-0.946289	-0.318604	-0.400391	-0.0543485	0.392446	0.0160491	0.918028	7.4131	-0.00360878	7.24974	0.0068744	-0.0268355	-0.0234743	-0.971924	0.0788574	-0.352051	-0.34601	0.574697	0.161343	0.723857	9.61428	-1.74605	3.10401	0.0160916	0.0458907	-0.0183617	-1.00879	0.521729	0.12085	-0.0243949	0.918798	0.390592	-0.0515127	-0.912577	-0.197508	-9.14178	0.0139895	0.00960077	-0.0188721	0.621094	0.135498	1.15527	0.184699	0.618101	-0.0539594	0.762185	9.69609	1.39657	1.84689	0.0223593	0.0363075	0.020244	-1.00269	-0.317139	0.293945	-0.00943215	0.998936	-0.0372479	-0.025487	-0.541051	-0.108218	-9.73791	-0.00562276	0.00297197	-0.00586774	0.448975	-0.0314941	0.942383	
26	-0.223232	-0.647058	-0.188404	0.704264	-9.78403	-0.0769256	1.01595	-0.0419977	-0.0226548	-0.00789507	1.07031	0.130371	-0.338867	-0.140161	-0.125707	0.00389517	0.982109	-2.30838	0.545432	9.85312	-0.0251929	0.039023	-0.014902	0.00366211	-0.0332031	-0.961426	-0.607426	0.144067	0.671475	0.399248	9.12696	3.52942	0.459795	0.017868	0.00644113	-0.0190343	-1.08545	-0.20874	-0.32251	-0.711108	-0.270039	0.599757	-0.248388	9.71522	0.676748	1.28932	0.0265456	-0.019498	0.00872922	-0.885254	-0.338867	-0.432129	0.522731	0.301014	-0.666525	0.438049	9.60833	-2.30152	-0.452845	0.0102573	-0.000870013	-0.00584328	-1.03613	-0.0800781	-0.0700684	0.508967	0.467836	-0.277266	0.667237	9.80916	1.22465	4.57722	-0.010618	-0.00513958	-0.00187738	-0.948486	-0.320801	-0.400391	-0.0541983	0.392732	0.0158369	0.917918	7.42507	-0.0831479	7.15714	-0.00425739	-0.00990428	-0.0208914	-0.973877	0.0744629	-0.358398	-0.345704	0.574256	0.160851	0.724462	9.59633	-1.72611	3.17998	-0.0212456	0.0442136	-0.029145	-1.01074	0.519531	0.114014	-0.0244383	0.918777	0.390634	-0.0515385	-0.902729	-0.199015	-9.1307	0.0148607	0.00786098	-0.0216977	0.623291	0.14209	1.16211	0.184466	0.617793	-0.0540007	0.762488	9.69716	1.41202	1.93558	-0.0027894	0.0284801	0.0162213	-1.00708	-0.31958	0.298584	-0.00929225	0.998935	-0.037252	-0.0255798	-0.517237	-0.104584	-9.74233	-0.00663485	0.000192089	-0.00745105	0.44873	-0.0292969	0.947021	
27	-0.22262	-0.646849	-0.189005	0.704488	-9.73798	0.0582093	0.99298	0.00994605	-3.91065e-05	-0.0396684	1.07251	0.134521	-0.336914	-0.13986	-0.126239	0.00254555	0.982088	-2.29786	0.457926	9.85847	-0.0529441	0.0339777	-0.0276607	0.0100098	-0.0288086	-0.956787	-0.6072	0.14402	0.671609	0.399385	9.03779	3.57764	0.442612	0.000724012	-0.0116928	-0.018198	-1.0896	-0.210938	-0.32251	-0.710749	-0.270009	0.600214	-0.248342	9.64886	1.07759	1.38354	-0.0334868	-0.0147936	0.0034846	-0.885498	-0.334473	-0.427734	0.522281	0.300684	-0.666909	0.438228	9.47915	-2.45412	-0.529021	0.0164959	-0.0040751	0.0159151	-1.03369	-0.0866699	-0.0654297	0.508602	0.468171	-0.277687	0.667106	9.75203	1.17663	4.55255	0.0403908	-0.0144226	-0.00300667	-0.948486	-0.318604	-0.398438	-0.0538804	0.393642	0.0155134	0.917552	7.46343	-0.0696805	7.16067	-0.000459095	-0.0116497	-0.0128156	-0.967529	0.0744629	-0.352051	-0.345594	0.573791	0.160983	0.724854	9.5877	-1.79271	3.12948	0.0229054	0.0375598	-0.028552	-1.0083	0.512939	0.123291	-0.0246944	0.918699	0.390781	-0.0516953	-0.909944	-0.198295	-9.15969	0.0308039	0.00740765	-0.0269212	0.62793	0.142334	1.15967	0.184459	0.617395	-0.0540169	0.762811	9.68572	1.34594	1.86995	0.00232714	0.0409132	0.00492386	-1.00732	-0.315186	0.300781	-0.00924533	0.998936	-0.0372349	-0.0255962	-0.512445	-0.116091	-9.73411	0.000529066	0.00855273	-0.00963153	0.44873	-0.0268555	0.940186	
28	-0.222188	-0.646811	-0.188884	0.704693	-9.77356	0.141427	1.00855	0.030678	-0.0119677	-0.0228666	1.07251	0.134766	-0.341064	-0.139641	-0.126266	0.00233222	0.982116	-2.39082	0.423466	9.77808	-0.0230895	0.0199091	-0.0377801	0.0078125	-0.0288086	-0.963867	-0.60665	0.144565	0.671781	0.399734	9.08337	3.57244	0.547207	-0.0111652	-0.0277776	0.00472426	-1.0918	-0.210693	-0.320312	-0.710605	-0.269769	0.6005	-0.248324	9.71146	1.0458	1.32978	0.0237589	0.00139298	0.0171762	-0.885498	-0.334473	-0.427734	0.522084	0.300545	-0.667129	0.438223	9.52621	-2.46486	-0.575318	-0.00873407	-0.00789606	0.00611406	-1.03589	-0.0866699	-0.0700684	0.508384	0.468206	-0.278652	0.666845	9.77835	0.909877	4.60963	-0.00840088	-0.00906921	0.00901629	-0.950684	-0.318604	-0.398438	-0.0537306	0.394173	0.0152288	0.917338	7.37683	-0.0491143	7.3248	-0.0103324	-0.0313599	-0.01699	-0.97168	0.0744629	-0.349854	-0.345671	0.573406	0.161228	0.725067	9.6092	-1.6233	3.17311	0.0314521	0.041919	-0.0332467	-1.01514	0.517334	0.118652	-0.0249099	0.918622	0.390943	-0.0517371	-0.915722	-0.218514	-9.14252	0.0133363	0.00973595	-0.0248494	0.62085	0.142334	1.15747	0.184209	0.61722	-0.0538017	0.763028	9.66699	1.40145	1.88893	0.0255482	0.0400286	0.0119622	-1.00732	-0.317383	0.298584	-0.00905058	0.998941	-0.0371887	-0.025527	-0.513347	-0.113827	-9.74219	-0.00384867	0.0105562	-0.00994514	0.451172	-0.0336914	0.947021	
29	-0.221574	-0.646947	-0.187864	0.705033	-9.85586	0.147784	0.929868	0.0575334	-0.0178458	0.00522206	1.07031	0.132324	-0.338867	-0.139119	-0.126329	0.00107814	0.982184	-2.41461	0.343231	9.80601	-0.070531	0.0217267	-0.0489713	0.0078125	-0.0288086	-0.959229	-0.6063	0.144788	0.6719	0.399985	9.22009	3.74883	0.517741	-0.0166581	-0.0142051	0.000190901	-1.08521	-0.210938	-0.317871	-0.710704	-0.269254	0.600768	-0.247951	9.86552	1.00275	1.27154	-0.0521893	-0.00267107	0.0076571	-0.89209	-0.33667	-0.427734	0.521827	0.299533	-0.667925	0.438009	9.49855	-2.76431	-0.598119	-0.0306924	0.00184156	0.0135185	-1.03833	-0.0800781	-0.0725098	0.508244	0.468045	-0.279013	0.666913	9.77898	1.1247	4.60647	-0.0166422	0.00516435	0.0115863	-0.948486	-0.318604	-0.398438	-0.053241	0.395208	0.0145099	0.916933	7.32593	-0.121934	7.35914	-0.0312444	-0.0307414	-0.0232489	-0.973877	0.0722656	-0.349854	-0.34519	0.57327	0.160973	0.725461	9.55241	-1.5739	3.09263	-0.0289139	0.0324472	-0.0271181	-1.01489	0.515137	0.118652	-0.0250429	0.918507	0.39122	-0.0516228	-0.907274	-0.197668	-9.15552	0.0081091	0.0100368	-0.0212459	0.618652	0.137695	1.15991	0.184081	0.616972	-0.053643	0.763271	9.65381	1.4632	1.94145	0.00461607	0.0276098	0.00381215	-1.00049	-0.317139	0.291748	-0.00889345	0.99895	-0.0370819	-0.0253804	-0.521006	-0.109694	-9.75803	-0.00371154	0.00966728	-0.00840037	0.453125	-0.0268555	0.94458	
30	-0.220961	-0.647249	-0.187208	0.705123	-9.88535	0.0553339	1.03347	0.0236509	0.00627543	0.00550665	1.07251	0.134521	-0.338867	-0.138862	-0.126084	0.0012831	0.982252	-2.45679	0.408634	9.83515	0.0068081	-0.00630811	-0.036691	0.0100098	-0.0288086	-0.959229	-0.605652	0.145889	0.671825	0.400691	9.03075	3.51998	0.417752	-0.0671959	-0.012188	-0.0109738	-1.0896	-0.210938	-0.315674	-0.710801	-0.268523	0.600965	-0.247988	9.67867	0.831862	1.31919	-0.00629626	0.0186563	0.0232069	-0.887451	-0.338867	-0.421143	0.521612	0.299478	-0.667797	0.438498	9.50934	-2.59434	-0.66288	0.00885324	-0.00817684	-0.0177793	-1.03613	-0.0800781	-0.0678711	0.507679	0.468186	-0.279014	0.667244	9.79907	1.19487	4.4653	0.0532839	0.0131781	0.00299572	-0.952637	-0.320801	-0.402588	-0.0521546	0.397175	0.0133151	0.916163	7.48274	-0.15938	7.27908	-0.0726224	-0.0880606	-0.0377671	-0.974121	0.0766602	-0.3479	-0.34478	0.573111	0.160438	0.725899	9.59395	-1.75178	3.19767	-0.00914053	0.0355103	-0.0204083	-1.01489	0.512939	0.116455	-0.0248431	0.91846	0.391344	-0.0516098	-0.897825	-0.196033	-9.13922	0.00573417	0.00644324	-0.0228503	0.623535	0.135498	1.15991	0.183916	0.616781	-0.0535489	0.763472	9.68871	1.4772	1.90942	0.00977342	0.0296681	0.00845487	-1.00952	-0.317383	0.293945	-0.00909834	0.998948	-0.0370903	-0.0253993	-0.522441	-0.131975	-9.75722	0.0142678	0.00621066	-0.00601019	0.448975	-0.0314941	0.942383	
31	-0.217876	-0.647333	-0.186595	0.706167	-9.97592	-0.0820636	1.1035	0.138421	-0.0219189	-0.108563	1.07227	0.136719	-0.33252	-0.138505	-0.126536	0.00163516	0.982244	-2.41527	0.614563	9.81515	-0.00440043	0.00734966	-0.011466	0.00805664	-0.0332031	-0.963623	-0.604587	0.147763	0.671941	0.401418	9.19613	3.45607	0.354625	-0.062553	-0.0630884	0.0211285	-1.0874	-0.210938	-0.317871	-0.711295	-0.266897	0.601491	-0.247049	9.8424	0.450167	1.32619	-0.0554856	0.0110446	0.0173103	-0.889893	-0.334473	-0.429932	0.52087	0.300382	-0.66747	0.439259	9.43275	-2.57117	-0.55734	0.0742158	-0.0117631	-0.0108372	-1.03613	-0.0800781	-0.0632324	0.507055	0.468689	-0.278445	0.667603	9.7071	0.922011	4.57196	0.0588958	0.00364749	-0.00872823	-0.94873	-0.314453	-0.400635	-0.0515758	0.398816	0.0132424	0.915484	7.46832	-0.178416	7.30443	0.00106256	-0.0359481	-0.0316544	-0.97168	0.0722656	-0.341309	-0.344632	0.572751	0.160341	0.726275	9.52366	-1.65576	3.16676	-0.00126448	0.0341248	-0.0281989	-1.01489	0.515137	0.118652	-0.025375	0.91833	0.391577	-0.051904	-0.910567	-0.192156	-9.15733	0.0434031	0.00363242	-0.0316204	0.621094	0.139893	1.15747	0.184326	0.616472	-0.0540471	0.763587	9.70287	1.29947	1.89672	-0.0282609	0.025589	0.00513841	-1.00269	-0.317139	0.300781	-0.00902649	0.998944	-0.0372204	-0.0253665	-0.513973	-0.103001	-9.71799	0.000776359	0.00653562	-0.00238617	0.450928	-0.0268555	0.947021	
32	-0.213878	-0.646738	-0.185333	0.708264	-9.84966	0.511038	1.09198	0.138224	-0.0607912	-0.0873412	1.06812	0.134521	-0.343262	-0.13852	-0.126641	0.00142757	0.982228	-2.38525	0.47088	9.83087	-0.0289795	0.00698368	-0.0209745	0.0166016	-0.0310059	-0.963867	-0.603907	0.148846	0.672376	0.401313	9.1499	3.38773	0.475014	0.00991267	-0.0409973	0.0267034	-1.0918	-0.206543	-0.315674	-0.711424	-0.265766	0.601881	-0.246949	9.617	1.01462	1.37834	-0.0466551	0.00168747	0.0261633	-0.885742	-0.327881	-0.430176	0.51989	0.301831	-0.666927	0.440251	9.62374	-2.61746	-0.456113	0.0661212	-0.02129	-0.0130995	-1.04053	-0.078125	-0.0610352	0.505714	0.469547	-0.276952	0.668638	9.84224	1.25144	4.56837	0.0507405	0.0244372	0.00325897	-0.954834	-0.320801	-0.398193	-0.0512155	0.400728	0.0130016	0.914672	7.52612	-0.018923	7.13622	0.00846675	-0.0622965	-0.0192903	-0.976318	0.0766602	-0.345703	-0.344605	0.572567	0.160375	0.726426	9.61544	-1.79811	3.1851	0.0197217	0.017132	-0.0194704	-1.01733	0.519531	0.116211	-0.026221	0.918153	0.391873	-0.0523777	-0.918836	-0.242308	-9.09326	0.0454953	0.00440069	-0.031124	0.625488	0.144531	1.16187	0.184307	0.616437	-0.0538528	0.763633	9.69091	1.35289	1.94371	0.0116334	0.0182524	-0.00201471	-1.00513	-0.315186	0.293945	-0.00889382	0.998947	-0.0372303	-0.0252859	-0.523996	-0.121303	-9.76014	-0.00131195	0.0159289	-0.00788233	0.451172	-0.0334473	0.95166	
33	-0.213251	-0.645831	-0.183931	0.709645	-9.69096	0.556456	0.983771	0.0323413	-0.0713747	0.0246798	1.07007	0.136963	-0.349854	-0.138039	-0.126654	0.00104961	0.982295	-2.41058	0.44185	9.80826	-0.0224655	0.0201223	-0.0443586	0.0100098	-0.0266113	-0.96167	-0.603585	0.150053	0.672186	0.401664	9.0878	3.79591	0.521286	-0.0908222	-0.00812241	0.00464144	-1.08545	-0.20459	-0.306641	-0.711618	-0.265056	0.6021	-0.246618	9.77623	1.08145	1.11019	-0.0347793	0.00766714	0.00242405	-0.888184	-0.323486	-0.427979	0.519543	0.301918	-0.66697	0.440535	9.65145	-2.63223	-0.548739	-0.0130327	0.00687584	-0.00634407	-1.03833	-0.0803223	-0.0585938	0.504494	0.470179	-0.276501	0.669302	9.84872	1.29654	4.61067	0.0759108	-0.00169039	0.0181682	-0.955078	-0.318604	-0.398438	-0.0504741	0.402916	0.0118993	0.913767	7.55129	-0.0971967	7.12253	-0.0450447	-0.0743391	-0.026787	-0.982666	0.0786133	-0.330811	-0.344628	0.572517	0.160756	0.72637	9.5944	-1.43775	3.20369	-0.00583988	0.017577	-0.0243127	-1.01074	0.515137	0.114014	-0.026026	0.918102	0.392008	-0.0523633	-0.892305	-0.247394	-9.11034	-0.00978239	0.004032	-0.0216306	0.62085	0.144531	1.15527	0.184172	0.616291	-0.053661	0.763797	9.65229	1.5488	1.93773	0.00223835	0.0288796	0.00459748	-1.00269	-0.317139	0.291748	-0.00894303	0.998955	-0.0371397	-0.0250819	-0.509912	-0.103413	-9.7331	0.0046246	0.0115914	-0.0079194	0.448975	-0.0336914	0.947021	
34	-0.214752	-0.645668	-0.183111	0.709553	-9.52049	0.309629	0.909443	-0.0304181	-0.0016074	0.0714416	1.07007	0.136963	-0.347656	-0.137627	-0.126564	0.000948743	0.982364	-2.3835	0.410663	9.78844	-0.0136094	0.00903425	-0.052264	0.0078125	-0.0288086	-0.961426	-0.603321	0.150454	0.672052	0.402135	9.12786	3.43875	0.46525	-0.0481068	-0.0104493	-0.00816721	-1.0918	-0.204346	-0.313477	-0.711781	-0.264546	0.602268	-0.246286	9.58347	0.807677	1.51675	-0.0199855	0.00229407	0.00552856	-0.892334	-0.330078	-0.425781	0.519533	0.301389	-0.667057	0.440778	9.5234	-2.66484	-0.49311	-0.0114091	0.0276216	0.0271154	-1.02979	-0.0759277	-0.0585938	0.504811	0.469564	-0.278051	0.668852	9.63098	0.877278	4.54233	-0.0292408	-0.00781475	0.000567517	-0.950684	-0.318604	-0.391846	-0.049555	0.404954	0.0109441	0.912928	7.61775	-0.0957397	7.11506	-0.0501341	-0.0605192	-0.0314963	-0.982422	0.0700684	-0.328369	-0.34356	0.572825	0.159558	0.726897	9.64036	-1.75634	3.1483	-0.0591867	0.0210025	-0.0247385	-1.01929	0.515137	0.118652	-0.025622	0.91809	0.392073	-0.0522855	-0.907484	-0.227738	-9.12863	-0.0213016	0.00146217	-0.0213752	0.623047	0.146729	1.15308	0.184405	0.616083	-0.0540094	0.763885	9.70759	1.43925	1.96951	-0.025847	0.0149382	0.0118142	-1.00952	-0.315186	0.289307	-0.00886349	0.998955	-0.037187	-0.0250565	-0.516876	-0.122227	-9.74694	-0.0012566	0.00938875	-0.00439265	0.44873	-0.0292969	0.942383	
35	-0.215853	-0.646448	-0.183192	0.708486	-9.68083	0.161512	0.967717	-0.0305391	0.0447838	0.0264404	1.07471	0.134766	-0.345459	-0.136785	-0.12646	0.000625087	0.982495	-2.39158	0.459293	9.82455	-0.023866	0.0360013	-0.0349862	0.0078125	-0.0288086	-0.959229	-0.602981	0.151611	0.671781	0.402665	9.07772	3.48324	0.370896	-0.0421665	-0.0177716	0.0103789	-1.0896	-0.204346	-0.311279	-0.712001	-0.263918	0.602485	-0.245793	9.72468	0.597905	1.32354	-0.0182733	0.0111761	0.00623873	-0.890137	-0.327881	-0.43457	0.519797	0.300435	-0.667617	0.440271	9.48785	-2.67313	-0.646668	-0.0455115	0.0143001	-0.00350943	-1.03418	-0.0734863	-0.0656738	0.504661	0.469474	-0.278644	0.668782	9.81746	0.982583	4.52373	-0.033579	0.00273304	-0.00514295	-0.950928	-0.312256	-0.396484	-0.0486564	0.406847	0.00999403	0.912145	7.55752	-0.216977	7.08292	-0.026089	-0.0957418	-0.0311802	-0.982666	0.076416	-0.320068	-0.3438	0.572549	0.159987	0.726907	9.6202	-1.69153	3.20368	0.0244611	0.0115238	-0.0126487	-1.0127	0.515137	0.116455	-0.0251962	0.918101	0.392103	-0.0520565	-0.904124	-0.204735	-9.17544	-0.00494634	0.0141564	-0.0155624	0.623291	0.139893	1.15991	0.184142	0.616056	-0.0539113	0.763976	9.62809	1.35005	1.97768	0.029449	0.0174276	0.00951739	-1.00732	-0.312988	0.291504	-0.00858497	0.998955	-0.0372251	-0.0250777	-0.51763	-0.107012	-9.74185	2.78655e-05	0.00707453	-0.00488596	0.448975	-0.0314941	0.947021	
36	-0.216015	-0.647011	-0.18371	0.707789	-9.83967	0.223088	0.915217	-0.0171143	0.0352928	-0.0041853	1.07251	0.134766	-0.345459	-0.13659	-0.12694	0.000402254	0.982461	-2.50626	0.524951	9.80533	-0.012769	0.0405718	-0.0252466	0.012207	-0.0288086	-0.96167	-0.602905	0.151547	0.671935	0.402546	9.17533	3.63501	0.274373	0.0248077	-0.0035137	0.00200393	-1.0896	-0.206543	-0.311279	-0.712146	-0.263759	0.602293	-0.246013	9.8125	0.838136	1.26248	-0.00160014	0.0200743	0.00111068	-0.887939	-0.330078	-0.436768	0.519774	0.299957	-0.667723	0.440462	9.46135	-2.76626	-0.662595	-0.0157953	0.0183352	-0.0113441	-1.03198	-0.0756836	-0.0610352	0.504616	0.469519	-0.278737	0.668746	9.81936	0.980644	4.4966	0.00458313	0.0120352	-0.0151905	-0.950684	-0.318604	-0.398438	-0.0477546	0.40973	0.00894837	0.910912	7.56055	-0.0936166	6.9797	-0.0453221	-0.0885785	-0.0299507	-0.982666	0.076416	-0.320068	-0.343875	0.572614	0.160052	0.726806	9.56232	-1.671	3.21358	-0.0151852	0.0177032	-0.0156825	-1.0127	0.512939	0.116455	-0.0256084	0.918055	0.392189	-0.0520257	-0.896364	-0.2435	-9.13492	0.0208502	0.0106806	-0.0252217	0.625732	0.139893	1.15991	0.183911	0.61629	-0.0538003	0.763851	9.60508	1.41747	2.0577	0.00437398	0.00163118	0.0039778	-1.00293	-0.314941	0.291748	-0.0083206	0.998956	-0.0373311	-0.0249846	-0.510054	-0.106218	-9.74226	-0.00403897	0.00584607	-0.00263537	0.453369	-0.03125	0.947021	
37	-0.21593	-0.647307	-0.184004	0.707468	-9.95504	0.256111	0.939632	-0.0125014	0.0363287	-0.0105283	1.07227	0.136963	-0.345459	-0.136519	-0.126975	0.000306605	0.982466	-2.57417	0.52708	9.78566	-0.0155639	0.0192942	-0.0246016	0.012207	-0.0266113	-0.96167	-0.602723	0.151787	0.671995	0.402628	9.1983	3.63342	0.437245	-0.0126034	-0.0155095	0.00250984	-1.0918	-0.204346	-0.306641	-0.712267	-0.26374	0.602119	-0.246109	9.79546	0.72166	1.38511	0.00664834	0.0235051	0.00102571	-0.890381	-0.327881	-0.432373	0.519783	0.299846	-0.667754	0.440479	9.5014	-2.75263	-0.626675	-0.00489187	0.0106859	-0.00671903	-1.03638	-0.0778809	-0.0632324	0.504826	0.469229	-0.278818	0.668757	9.86781	1.00661	4.50041	-0.0229105	0.0285873	-0.017141	-0.948486	-0.31665	-0.394043	-0.0477546	0.40973	0.00894837	0.910912	7.56055	-0.0936166	6.9797	-0.0453221	-0.0885785	-0.0299507	-0.982666	0.076416	-0.320068	-0.34376	0.572684	0.159884	0.726842	9.52371	-1.76839	3.1634	-0.0119812	0.0160133	-0.0149593	-1.0127	0.515137	0.121094	-0.0254904	0.91803	0.392252	-0.0520475	-0.903093	-0.226707	-9.12508	0.00297352	0.0030913	-0.0234954	0.62085	0.144531	1.15967	0.183911	0.61629	-0.0538003	0.763851	9.60508	1.41747	2.0577	0.00437398	0.00163118	0.0039778	-1.00293	-0.314941	0.291748	-0.00834001	0.998954	-0.037329	-0.0250486	-0.509906	-0.0971054	-9.76428	0.00590498	0.00238087	-0.008366	0.446777	-0.0314941	0.947021	
38	-0.215945	-0.647815	-0.184603	0.706841	-9.90826	0.350176	1.03827	-0.0209244	0.0329634	-0.0021489	1.07031	0.134521	-0.336914	-0.136527	-0.126796	4.58225e-05	0.982488	-2.40009	0.39704	9.85631	-0.0168034	0.0151403	-0.0153734	0.0078125	-0.0288086	-0.961426	-0.60297	0.15205	0.671823	0.402446	9.13588	3.44414	0.282069	0.0290477	0.00934843	0.024522	-1.09399	-0.204346	-0.311279	-0.712497	-0.263683	0.601838	-0.246191	9.76041	0.744696	1.30741	0.00700946	0.0196216	-0.0055436	-0.885742	-0.327881	-0.436768	0.520156	0.299773	-0.667471	0.440518	9.56928	-2.5117	-0.541817	-0.00235595	0.0314566	-0.0296713	-1.03613	-0.0800781	-0.0700684	0.505277	0.468807	-0.278773	0.66873	9.8035	1.11189	4.58242	0.00508772	0.019102	-0.0276618	-0.946533	-0.312256	-0.396484	-0.0468083	0.412432	0.00768818	0.909752	7.78478	-0.217379	6.98739	-0.0127567	-0.0350925	-0.0172022	-0.982422	0.0744629	-0.311523	-0.344141	0.572739	0.160239	0.72654	9.62672	-1.67922	3.22798	0.0380284	-0.00134288	-0.00465681	-1.00415	0.515137	0.114014	-0.0252756	0.917942	0.392457	-0.0521591	-0.910078	-0.231581	-9.11942	0.000648117	0.00101914	-0.0272235	0.623291	0.139893	1.15527	0.184135	0.616418	-0.0538334	0.763692	9.70431	1.39045	1.91081	-0.00189147	0.00804605	-0.00764786	-1.00049	-0.319336	0.291748	-0.00849926	0.998949	-0.0373525	-0.0251572	-0.513768	-0.109904	-9.75014	0.0111373	0.00394116	-0.00592345	0.448975	-0.0314941	0.944824	
39	-0.216355	-0.648048	-0.18517	0.706355	-9.87194	0.381637	1.09746	-0.0317394	0.0122298	0.0043214	1.07446	0.136719	-0.334717	-0.137011	-0.126704	0.000250437	0.982433	-2.35025	0.423868	9.80856	-0.00456874	0.0144358	0.00689509	0.0144043	-0.0266113	-0.957031	-0.603161	0.151809	0.672012	0.401934	9.1505	3.29412	0.446051	0.0262417	0.0119294	0.00619505	-1.09399	-0.204346	-0.315918	-0.712641	-0.263979	0.601385	-0.246563	9.62992	0.751906	1.36152	0.0268376	0.0198506	0.00153473	-0.890137	-0.330078	-0.43457	0.520476	0.300257	-0.667167	0.44027	9.44475	-2.70617	-0.623835	0.0278406	0.00577773	-0.0382263	-1.03857	-0.0778809	-0.0656738	0.506122	0.468056	-0.278564	0.668705	9.77801	0.90725	4.52	-0.0242334	0.0564268	-0.0350903	-0.952881	-0.314453	-0.394287	-0.046637	0.41274	0.00732293	0.909625	7.71863	-0.263885	6.91527	-0.0159875	-0.0120685	-0.0159412	-0.991211	0.0786133	-0.307373	-0.344435	0.572851	0.160571	0.726239	9.62381	-1.66097	3.16304	0.00261213	0.00241399	-0.0116171	-1.01489	0.515137	0.123291	-0.0250525	0.917868	0.39263	-0.0522742	-0.912447	-0.219929	-9.12034	0.0128908	0.000354556	-0.0264255	0.618408	0.144531	1.15527	0.184343	0.616476	-0.0538735	0.763592	9.68756	1.48664	1.93973	-0.0102369	0.00792569	-0.00813653	-1.00244	-0.325928	0.289551	-0.0086059	0.998946	-0.0374303	-0.0251164	-0.514899	-0.0912663	-9.71819	0.00527498	0.0104674	-0.00470566	0.444336	-0.0292969	0.94458	
40	-0.21743	-0.647736	-0.185857	0.70613	-9.83403	0.333309	1.15358	-0.0582491	-0.0211124	0.00905739	1.07495	0.130371	-0.343262	-0.137875	-0.126908	0.000445545	0.982285	-2.29215	0.433791	9.86507	-0.00822774	0.0271948	0.0209583	0.0100098	-0.0288086	-0.966309	-0.603601	0.151173	0.672304	0.401024	9.14365	3.41881	0.415337	0.0370371	0.0116417	0.00619385	-1.0918	-0.202148	-0.315918	-0.712515	-0.264344	0.601195	-0.247	9.67121	0.857146	1.37357	0.0178193	0.0066943	0.00358543	-0.885742	-0.327881	-0.436768	0.520646	0.301156	-0.666523	0.440431	9.55281	-2.54294	-0.426575	0.0242333	0.0200416	-0.0375262	-1.04053	-0.0778809	-0.0678711	0.506304	0.468122	-0.27705	0.66915	9.70672	1.04038	4.61929	0.0447374	0.0454008	-0.0328394	-0.952637	-0.322998	-0.404541	-0.0468159	0.412466	0.00808008	0.909734	7.74429	-0.199379	6.87397	0.0672549	0.0370486	-0.0182449	-0.986816	0.0742188	-0.307373	-0.344373	0.573152	0.160451	0.726058	9.60517	-1.70146	3.17312	0.00421735	0.00640653	-0.011371	-1.0083	0.512939	0.116455	-0.0251526	0.917785	0.392798	-0.0524133	-0.904885	-0.234736	-9.13115	0.0182546	0.00398357	-0.0237098	0.616211	0.144531	1.15747	0.184844	0.616681	-0.0541769	0.763284	9.68466	1.31235	1.92827	0.0169784	-0.000541173	-0.000782474	-1.00049	-0.317139	0.293945	-0.00862362	0.998943	-0.037484	-0.0251732	-0.499534	-0.0884161	-9.73828	0.00723892	0.00377108	-0.00646574	0.444336	-0.0270996	0.949219	
41	-0.21885	-0.646933	-0.186991	0.706128	-9.72759	0.288963	1.08347	-0.0813836	-0.0214357	0.00407369	1.07471	0.132568	-0.343262	-0.138312	-0.126729	0.000695897	0.982247	-2.30851	0.439235	9.72626	0.00399316	-0.000693934	0.0193976	0.0168457	-0.0332031	-0.961426	-0.603913	0.150234	0.672675	0.400284	9.13532	3.54503	0.540591	0.0600015	0.0234844	-0.0150813	-1.0918	-0.206543	-0.311279	-0.712118	-0.265146	0.601001	-0.247759	9.67357	0.947806	1.33417	0.0682736	0.00354467	0.00737512	-0.890381	-0.325684	-0.432373	0.520905	0.301311	-0.66636	0.440265	9.44216	-2.50558	-0.449831	-0.000592452	0.00743162	-0.0302108	-1.03833	-0.0825195	-0.0610352	0.506881	0.467602	-0.276908	0.669136	9.68458	0.870664	4.66991	0.00367303	0.0358773	-0.0226045	-0.952881	-0.31665	-0.400635	-0.0470555	0.410528	0.00825303	0.910596	7.71845	-0.137277	6.89849	0.0344144	0.118856	-0.0127266	-0.980713	0.0830078	-0.30957	-0.344533	0.573356	0.16078	0.725748	9.63093	-1.66894	3.11289	0.0122826	-0.00279285	-0.0122469	-1.01489	0.515137	0.121094	-0.025111	0.917716	0.392957	-0.0524551	-0.895002	-0.21894	-9.13268	0.00682907	0.00668893	-0.0250627	0.625488	0.142334	1.15747	0.184636	0.616868	-0.0538303	0.763207	9.66898	1.39887	1.95379	0.0357453	0.00528378	-0.00248155	-1.00488	-0.319336	0.296387	-0.0087822	0.998939	-0.0375118	-0.0252505	-0.510029	-0.0982346	-9.71838	0.0135806	0.00364804	-0.00535983	0.448975	-0.0314941	0.953857	
42	-0.220229	-0.646107	-0.188463	0.706064	-9.78902	0.194424	1.12692	-0.0851899	-0.020764	-0.00520561	1.07227	0.138916	-0.345459	-0.139058	-0.126493	0.00128911	0.982171	-2.3163	0.512541	9.88964	0.0259862	-0.00420194	0.00892656	0.0146484	-0.0332031	-0.963867	-0.604126	0.149378	0.672898	0.399907	9.1205	3.41315	0.536535	0.0631959	0.00711366	-0.00786022	-1.08765	-0.204346	-0.306641	-0.711746	-0.265605	0.601162	-0.247944	9.70171	0.691283	1.41985	0.0370323	-0.00912582	0.00483699	-0.887695	-0.334473	-0.425537	0.521217	0.301021	-0.666149	0.440415	9.60227	-2.48217	-0.469312	-0.00704979	0.0286655	-0.00713447	-1.04053	-0.0825195	-0.0632324	0.50727	0.467338	-0.277037	0.668972	9.85327	1.15411	4.53503	-0.051268	0.0103556	-0.0263754	-0.950928	-0.314453	-0.398438	-0.0478613	0.407185	0.00921633	0.912044	7.46888	-0.144167	7.33976	0.0675711	0.116528	-0.00527437	-0.982666	0.0766602	-0.324463	-0.344698	0.573393	0.160855	0.725624	9.58918	-1.75884	3.10493	0.0230245	0.0148832	-0.0102235	-1.01709	0.515137	0.116455	-0.0246726	0.917691	0.393058	-0.0523552	-0.926526	-0.211424	-9.11125	-0.0139788	0.00475173	-0.0199171	0.623047	0.144531	1.15967	0.185279	0.616917	-0.0545455	0.762961	9.71398	1.2887	1.89969	-0.0484725	0.00583569	0.000132629	-1.00708	-0.31958	0.293945	-0.00880276	0.998937	-0.0374802	-0.025345	-0.512159	-0.114898	-9.76665	-0.00387675	0.00516661	-0.00870991	0.453125	-0.0268555	0.947021	
43	-0.221877	-0.645279	-0.189773	0.705955	-9.70792	-0.0128487	1.08611	-0.0789024	-0.0189857	0.00489169	1.07007	0.138916	-0.339111	-0.13921	-0.126413	0.00217462	0.982159	-2.1997	0.546616	9.86092	0.0575222	-0.000788731	0.00325009	0.0102539	-0.0354004	-0.961426	-0.604344	0.14885	0.672783	0.399969	9.13467	3.52298	0.411412	0.0251991	0.0394959	-0.0231705	-1.0896	-0.20874	-0.315674	-0.711324	-0.26613	0.601267	-0.248335	9.71947	0.73495	1.26773	0.00939124	-0.0111994	-0.00256385	-0.887939	-0.330078	-0.427979	0.521264	0.300926	-0.666367	0.440094	9.47227	-2.43677	-0.640945	-0.0294934	-0.00375847	-0.0182662	-1.03833	-0.0800781	-0.0725098	0.507125	0.467476	-0.276736	0.66911	9.69072	1.26986	4.63412	0.0310853	0.0129625	-0.015549	-0.955078	-0.31665	-0.400635	-0.0485982	0.406094	0.0101855	0.912481	7.78518	-0.146978	6.23682	0.0775546	0.0653208	-0.00580423	-0.982666	0.0766602	-0.328613	-0.344799	0.573207	0.161142	0.725659	9.68802	-1.69679	3.11062	0.00687584	0.0250202	-0.0250501	-1.01929	0.515137	0.118652	-0.0244145	0.917683	0.393102	-0.0522771	-0.922693	-0.202259	-9.12317	-0.010384	0.00610002	-0.0207144	0.621094	0.135254	1.15991	0.184923	0.616862	-0.0540584	0.763127	9.7195	1.34388	1.89335	0.024543	0.0166756	0.00211932	-1.00708	-0.321777	0.298584	-0.0088068	0.998938	-0.0374727	-0.0253364	-0.511385	-0.123132	-9.7311	0.00461636	0.00811749	-0.00823967	0.449219	-0.0358887	0.944824	
44	-0.222025	-0.645046	-0.190296	0.70598	-9.81997	0.0245647	1.0477	-0.0415534	-0.0110643	-0.0230582	1.06982	0.141113	-0.343262	-0.139197	-0.126848	0.00265082	0.982103	-2.28618	0.535471	9.84298	0.0163695	0.022519	-0.00672632	0.0100098	-0.0288086	-0.961426	-0.604064	0.148577	0.672969	0.400179	9.14515	3.41278	0.425251	0.017692	-0.0126842	-0.0150762	-1.0896	-0.204346	-0.313477	-0.710989	-0.266231	0.60163	-0.248309	9.69017	0.788526	1.39462	0.00683025	-0.015808	0.00890098	-0.892578	-0.327881	-0.427979	0.521077	0.300757	-0.666599	0.440079	9.64081	-2.50933	-0.372996	0.0105266	0.011574	0.0085977	-1.03394	-0.0822754	-0.0678711	0.507343	0.467428	-0.277333	0.66873	9.78729	0.88712	4.70396	-0.00747717	-0.00722879	-0.0123602	-0.946289	-0.320801	-0.400391	-0.0488834	0.405502	0.0102511	0.912728	7.57922	-0.0636131	6.93162	0.0333502	0.064336	0.000490595	-0.976074	0.0722656	-0.326416	-0.344734	0.573101	0.161115	0.725779	9.58289	-1.69503	3.21626	0.00246657	0.0267909	-0.0228068	-1.0105	0.515137	0.118652	-0.0241377	0.917637	0.393231	-0.0522386	-0.921968	-0.209927	-9.12863	0.00268973	0.0033846	-0.0242523	0.62085	0.144531	1.15308	0.184847	0.616869	-0.054022	0.763142	9.62151	1.54226	1.86956	0.00804917	0.0171855	0.0072803	-1.00488	-0.317139	0.300781	-0.00875397	0.998944	-0.0373842	-0.0252508	-0.514263	-0.106602	-9.73013	0.000436012	0.00705178	-0.00779439	0.44873	-0.0268555	0.94458	
45	-0.221946	-0.64508	-0.190898	0.705812	-9.77638	0.130766	1.12653	-0.0101118	0.0158247	-0.0126897	1.07422	0.141113	-0.341064	-0.139281	-0.126369	0.00290248	0.982152	-2.3542	0.486366	9.82011	0.00475348	-0.0251513	-0.009353	0.00585938	-0.0310059	-0.961426	-0.603989	0.148228	0.673132	0.40015	9.09941	3.48842	0.390755	0.0166933	0.000557244	-0.00853268	-1.0918	-0.204346	-0.313477	-0.710573	-0.266417	0.602068	-0.24824	9.76369	0.80952	1.2677	0.00346669	-0.0184185	0.000320678	-0.892334	-0.332275	-0.42334	0.520954	0.300469	-0.666956	0.43988	9.48308	-2.58842	-0.484129	-0.0209545	0.000929501	0.000319464	-1.03418	-0.0778809	-0.0654297	0.507196	0.46753	-0.278003	0.668493	9.7389	1.13012	4.58074	-0.0297688	-0.0151579	-0.00913011	-0.952881	-0.318604	-0.400391	-0.049358	0.404512	0.0106697	0.913137	7.70694	-0.0720562	6.92496	0.0404263	0.0729331	-0.00860465	-0.976074	0.0744629	-0.330811	-0.34456	0.572882	0.16093	0.726075	9.68431	-1.63047	3.13624	0.00627541	0.0280759	-0.0188473	-1.01294	0.517334	0.116211	-0.0243515	0.917494	0.393548	-0.0522596	-0.912009	-0.213215	-9.14283	0.0132378	0.00633305	-0.0230954	0.625732	0.139893	1.15747	0.184893	0.616637	-0.0541959	0.763306	9.7802	1.34595	1.93719	-0.0114289	0.0288681	0.00848681	-1.00708	-0.31958	0.291748	-0.00874226	0.99894	-0.0374099	-0.0253422	-0.519451	-0.111327	-9.75544	0.0111628	0.00236955	-0.00780735	0.449219	-0.0358887	0.940186	
46	-0.221572	-0.645247	-0.190809	0.705801	-9.81253	0.207936	1.14764	0.0164018	-0.00186631	-0.00673899	1.07007	0.136719	-0.339111	-0.139058	-0.126138	0.00326356	0.982212	-2.30774	0.51963	9.84287	0.00380728	0.0110445	-0.0175313	0.00585938	-0.0310059	-0.963867	-0.603581	0.148073	0.673078	0.400911	9.14999	3.38849	0.478149	-0.0229108	0.00547841	-0.0322889	-1.0896	-0.206543	-0.315674	-0.710573	-0.266417	0.602068	-0.24824	9.76369	0.80952	1.2677	0.00346669	-0.0184185	0.000320678	-0.892334	-0.332275	-0.42334	0.520731	0.299798	-0.667401	0.439928	9.49544	-2.40702	-0.607327	-0.0274777	-0.00795327	0.00544906	-1.03613	-0.0800781	-0.0700684	0.507196	0.46753	-0.278003	0.668493	9.7389	1.13012	4.58074	-0.0297688	-0.0151579	-0.00913011	-0.952881	-0.318604	-0.400391	-0.049541	0.402861	0.0103313	0.913861	7.58682	-0.18786	7.08922	0.0120597	0.0837512	-0.0065476	-0.971924	0.0766602	-0.328613	-0.344204	0.572641	0.160516	0.726527	9.61132	-1.74742	3.17166	-0.0299781	0.0395701	-0.0254105	-1.0105	0.512939	0.118652	-0.0243224	0.917399	0.393785	-0.0521541	-0.918041	-0.212488	-9.13787	0.00252151	0.00733422	-0.0195135	0.62085	0.139893	1.15527	0.184522	0.616359	-0.0540893	0.763628	9.66476	1.48064	1.95156	0.00396179	0.0246339	0.0164805	-1.00049	-0.317139	0.289307	-0.00886058	0.998944	-0.0372968	-0.0253317	-0.513417	-0.115339	-9.7408	0.0071178	0.00387764	-0.0089534	0.44873	-0.0268555	0.94458	
47	-0.22139	-0.645138	-0.190731	0.705978	-9.74815	0.264428	1.05482	0.0016846	-0.00654551	-0.00424627	1.07202	0.143311	-0.339111	-0.139005	-0.125689	0.00376982	0.982276	-2.34168	0.454006	9.80705	0.016628	0.00218299	-0.0149911	0.0102539	-0.0354004	-0.963623	-0.603442	0.147348	0.673373	0.400894	9.0925	3.62751	0.444332	0.0179837	0.00111267	-0.0291699	-1.0918	-0.210938	-0.313477	-0.709872	-0.266807	0.602581	-0.24858	9.68339	0.76923	1.32954	0.0150211	-0.0190098	0.00863564	-0.889893	-0.334473	-0.42334	0.520266	0.299297	-0.667911	0.440044	9.5256	-2.66298	-0.509782	0.0213188	-0.00642747	0.0159086	-1.03857	-0.0737305	-0.0610352	0.506984	0.467793	-0.278836	0.668122	9.78698	1.09793	4.65297	-0.0103942	-0.0174349	-0.00517299	-0.953125	-0.312256	-0.396484	-0.0498292	0.401188	0.0104883	0.914579	7.53772	-0.0995911	7.1462	0.0208068	0.0847128	-0.0107242	-0.971924	0.0766602	-0.337158	-0.344441	0.572194	0.160809	0.726702	9.60552	-1.6424	3.23767	0.0378832	0.0306252	-0.0191226	-1.01489	0.515137	0.114014	-0.0242568	0.917395	0.393807	-0.0520931	-0.916607	-0.20698	-9.13017	0.00455471	0.0110487	-0.019457	0.625732	0.137695	1.15527	0.184269	0.616117	-0.0541476	0.76388	9.70169	1.39635	1.9763	0.0123482	0.0313233	0.0196454	-1.00513	-0.317383	0.282471	-0.00882368	0.998945	-0.0372658	-0.0253585	-0.514642	-0.0973722	-9.76448	0.00734136	0.00614279	-0.0101196	0.44873	-0.0292969	0.947021	
48	-0.221496	-0.645212	-0.190928	0.705824	-9.77185	0.201428	1.01236	-0.0078438	0.00747086	-0.000557085	1.07446	0.138916	-0.338867	-0.138946	-0.1254	0.00397228	0.98232	-2.32546	0.495355	9.87299	-0.00717319	0.0129436	-0.0206529	0.00585938	-0.0310059	-0.958984	-0.602943	0.14707	0.673589	0.401382	9.15747	3.49244	0.401783	0.00611327	-0.0114437	-0.0205805	-1.08521	-0.210938	-0.315674	-0.7093	-0.267024	0.603088	-0.248751	9.69435	0.802861	1.31001	0.00376145	-0.0283362	0.00924494	-0.892578	-0.325684	-0.419189	0.520041	0.298527	-0.668539	0.43988	9.46115	-2.68886	-0.584404	-0.0487041	0.00112224	0.0151728	-1.04272	-0.0778809	-0.0656738	0.506619	0.468041	-0.279677	0.667874	9.74627	0.937447	4.51586	-0.015127	-0.0199087	0.00530832	-0.952881	-0.31665	-0.394043	-0.049887	0.400435	0.010378	0.914908	7.50333	-0.159225	7.10913	0.0137606	0.0792329	-0.0107892	-0.974121	0.0766602	-0.332764	-0.344089	0.571961	0.160517	0.727116	9.58226	-1.62579	3.19824	-0.0354574	0.0319399	-0.0289794	-1.01294	0.517334	0.114014	-0.0243741	0.917288	0.394066	-0.0519668	-0.914859	-0.20612	-9.10311	0.00907953	0.00630151	-0.0226132	0.618652	0.139893	1.15747	0.184096	0.615935	-0.0541127	0.764071	9.65542	1.4468	1.9073	0.0109168	0.0355382	0.0163641	-1.00732	-0.315186	0.289307	-0.0086712	0.998946	-0.0372378	-0.0254051	-0.492314	-0.113334	-9.73269	-0.00572438	0.00396636	-0.00951067	0.446777	-0.0314941	0.940186	
49	-0.22161	-0.645328	-0.191145	0.705623	-9.80631	0.207868	1.08877	-0.0111647	0.000151049	0.000795458	1.07227	0.138916	-0.334717	-0.138956	-0.125196	0.00396062	0.982345	-2.37186	0.480648	9.83131	-0.00881736	0.0147773	-0.0160626	0.00390625	-0.0397949	-0.95874	-0.602669	0.146547	0.673774	0.401674	9.13074	3.58334	0.447332	0.00645727	0.00803475	-0.0323919	-1.08521	-0.213135	-0.313232	-0.708715	-0.267219	0.603639	-0.248872	9.78313	0.800229	1.21059	0.0106818	-0.0239529	0.0107948	-0.896973	-0.325928	-0.419189	0.519432	0.298332	-0.668691	0.4405	9.47057	-2.60049	-0.640037	0.0289815	-0.0053894	0.014571	-1.03882	-0.0690918	-0.0632324	0.506242	0.468431	-0.279956	0.667769	9.77945	1.21394	4.46251	0.00734689	-0.0161571	0.000907177	-0.950684	-0.31665	-0.391846	-0.0500776	0.398106	0.0106451	0.91591	7.44315	-0.169206	7.14239	0.0255111	0.0813467	-0.00902064	-0.969727	0.0744629	-0.343506	-0.343736	0.571723	0.160335	0.72751	9.6018	-1.7446	3.16383	0.0154756	0.0368356	-0.0279105	-1.01294	0.517334	0.116211	-0.0240004	0.917292	0.394104	-0.0517815	-0.907873	-0.200919	-9.13213	-0.00861784	0.00867428	-0.0185498	0.62793	0.142334	1.15967	0.183918	0.615055	-0.0543443	0.764806	9.68616	1.37422	1.97656	-0.00444794	0.0339586	0.0135173	-1.00708	-0.31958	0.284912	-0.00830871	0.998951	-0.037222	-0.0253364	-0.503469	-0.106701	-9.77013	-0.012084	0.0126523	-0.0080887	0.446533	-0.0292969	0.94458	
50	-0.222018	-0.645262	-0.191254	0.705526	-9.84601	0.185294	0.980976	-0.0175658	-0.00425958	0.0121118	1.07251	0.134521	-0.338867	-0.138981	-0.125081	0.00407549	0.982355	-2.37095	0.491872	9.85019	-0.00226454	0.00558414	-0.0145956	0.00830078	-0.0375977	-0.963623	-0.60244	0.145819	0.674026	0.40186	9.05472	3.51582	0.349683	0.0265218	0.00792583	-0.0280454	-1.0874	-0.215332	-0.308594	-0.708047	-0.26748	0.604099	-0.249377	9.65228	0.720855	1.28913	0.024102	-0.0180985	0.0235211	-0.896973	-0.328125	-0.419189	0.519163	0.298296	-0.668942	0.440461	9.47926	-2.45239	-0.68166	-0.00607077	-0.0174554	0.00161483	-1.03662	-0.0712891	-0.0656738	0.505755	0.468862	-0.27995	0.667838	9.90336	1.00004	4.5782	0.0126609	0.00167663	-0.00359922	-0.952881	-0.31665	-0.394043	-0.050355	0.396276	0.0108031	0.916686	7.4313	-0.133411	7.17296	0.0316846	0.0943653	-0.0103656	-0.967773	0.0788574	-0.345703	-0.343977	0.571175	0.160599	0.727768	9.59878	-1.65521	3.23055	0.0183789	0.0330791	-0.0209219	-1.00854	0.515137	0.114014	-0.0238715	0.917274	0.394157	-0.0517545	-0.903321	-0.194764	-9.16092	0.000790917	0.00648616	-0.0230256	0.625732	0.139893	1.15991	0.183877	0.614803	-0.0543927	0.765015	9.66635	1.37816	1.99475	-0.00379846	0.029193	0.00607821	-1.00488	-0.319336	0.289551	-0.00801475	0.998955	-0.0372572	-0.0252498	-0.50363	-0.100382	-9.74308	-0.0186664	0.0147402	-0.00400044	0.451172	-0.0290527	0.947021	
51	-0.222283	-0.645268	-0.191243	0.70544	-9.88137	0.148369	1.00379	-0.0143934	-0.00307555	0.0160589	1.07202	0.141113	-0.334717	-0.138782	-0.124998	0.00406417	0.982394	-2.38616	0.493844	9.8219	-0.00468085	0.00430321	-0.017009	0.00585938	-0.0310059	-0.963867	-0.602452	0.145276	0.674284	0.401606	9.08891	3.62458	0.305494	0.0522497	0.00692231	-0.0196517	-1.08936	-0.219482	-0.310791	-0.707398	-0.267788	0.60444	-0.250061	9.74325	0.899044	1.22631	0.0144513	-0.0156457	0.0202849	-0.896973	-0.328125	-0.416992	0.518547	0.29848	-0.669156	0.440738	9.54388	-2.66931	-0.390378	0.0381236	-0.00650123	0.00718894	-1.03662	-0.0712891	-0.0632324	0.504978	0.469057	-0.280001	0.668268	9.78029	0.87571	4.74908	0.0442377	0.00506511	0.0201692	-0.955078	-0.314453	-0.394043	-0.0504838	0.395577	0.0108432	0.91698	7.42279	-0.131638	7.3001	0.0267578	0.0737583	-0.0106435	-0.967773	0.0788574	-0.345703	-0.343862	0.571066	0.160567	0.727916	9.57636	-1.60254	3.23671	-0.000940462	0.0280878	-0.0272158	-1.01929	0.517334	0.114014	-0.0237966	0.917223	0.394279	-0.0517717	-0.913508	-0.193747	-9.14475	0.00909426	0.00663057	-0.0239437	0.625488	0.142334	1.15967	0.183916	0.614593	-0.0544105	0.765173	9.67412	1.35226	1.95372	-0.000591971	0.0251999	0.00628318	-1.00952	-0.315186	0.287109	-0.00808498	0.998957	-0.0372191	-0.0251719	-0.509932	-0.0919858	-9.75924	0.00506826	0.00663808	-0.00542562	0.444336	-0.0314941	0.937988	
52	-0.222458	-0.645071	-0.190836	0.705675	-9.76531	0.147841	1.02908	0.00889369	-0.0171708	0.00544296	1.07007	0.136719	-0.336914	-0.138594	-0.124585	0.00432236	0.982472	-2.32415	0.534106	9.81257	-0.00343686	0.00174815	-0.0220753	0.00585938	-0.0354004	-0.963623	-0.6021	0.144832	0.674607	0.401753	9.12382	3.56156	0.431316	0.00143128	0.00197774	-0.0193971	-1.09375	-0.219482	-0.31543	-0.707023	-0.267838	0.604754	-0.250308	9.72467	0.761838	1.2597	0.0202985	-0.00692375	0.0163117	-0.896729	-0.33252	-0.414551	0.518552	0.29799	-0.66899	0.441313	9.50996	-2.77184	-0.570533	-0.00569091	0.0340402	0.0151535	-1.03662	-0.0690918	-0.0632324	0.504751	0.468543	-0.281125	0.668328	9.72455	1.06902	4.34979	-0.0604976	-0.00301428	0.0124726	-0.952881	-0.314453	-0.387695	-0.0506165	0.394019	0.0105566	0.917647	7.41097	-0.143394	7.22516	0.0218065	0.0471208	-0.0109752	-0.965576	0.0810547	-0.352051	-0.34356	0.570679	0.16057	0.728361	9.58383	-1.68759	3.23385	0.0118517	0.0344805	-0.0239298	-1.0127	0.510742	0.107178	-0.0236554	0.917156	0.394436	-0.0518145	-0.919052	-0.199177	-9.12239	0.000827461	0.00460504	-0.0241423	0.621094	0.135254	1.15991	0.183814	0.614446	-0.0541631	0.765333	9.66961	1.43164	2.04465	0.016742	0.0265787	0.00312999	-1.00977	-0.312988	0.287109	-0.0086957	0.998953	-0.0371163	-0.0253114	-0.503835	-0.121466	-9.77783	0.0323641	0.00350582	-0.0138862	0.450928	-0.0268555	0.949219	
53	-0.222266	-0.644963	-0.190683	0.705876	-9.76016	0.139044	1.00778	0.019676	-0.0199913	-0.00892178	1.06787	0.138916	-0.341309	-0.138558	-0.12442	0.00430856	0.982498	-2.28749	0.556981	9.79257	-0.0117831	0.00254031	-0.0212027	0.00146484	-0.0310059	-0.963867	-0.602032	0.14468	0.674695	0.40176	9.10818	3.51904	0.30725	0.0126872	0.000712894	-0.0116181	-1.0874	-0.213135	-0.317871	-0.706907	-0.267758	0.604946	-0.250256	9.72305	0.734351	1.27591	-0.00660518	-0.00967532	0.00803847	-0.894775	-0.328125	-0.412598	0.518499	0.297335	-0.669218	0.441473	9.37491	-2.56894	-0.779901	-0.0188134	0.00110543	-0.00649201	-1.03882	-0.0712891	-0.0678711	0.504323	0.468733	-0.280978	0.668579	9.7071	1.19245	4.3432	0.0381742	0.00790464	0.00723003	-0.953125	-0.307861	-0.392334	-0.0507506	0.393425	0.0105329	0.917894	7.45147	-0.132634	7.18783	0.0218225	0.0646693	-0.00820927	-0.969971	0.0810547	-0.345703	-0.343636	0.570534	0.160716	0.728407	9.61363	-1.56168	3.22787	0.0203716	0.0225231	-0.0214152	-1.01709	0.512939	0.118652	-0.0231813	0.917107	0.394587	-0.0517532	-0.904433	-0.182599	-9.15169	-0.00588842	0.00353099	-0.0240832	0.623291	0.142334	1.15527	0.183746	0.614371	-0.0540663	0.765416	9.70411	1.42404	2.04817	0.0102993	0.0259485	0.00443117	-1.00293	-0.312744	0.287109	-0.00873393	0.998953	-0.0370401	-0.0253873	-0.527611	-0.118193	-9.73327	-0.0038241	0.0037169	-0.00923004	0.44873	-0.0292969	0.942383	
54	-0.221588	-0.644876	-0.190662	0.706174	-9.69842	0.272978	1.05039	0.0139224	-0.00459468	-0.0222698	1.07007	0.138916	-0.341064	-0.138517	-0.124151	0.00412215	0.982539	-2.27057	0.475789	9.80111	0.00631217	-0.00468473	-0.0195012	0.00390625	-0.0354004	-0.958984	-0.601717	0.144702	0.674872	0.401927	8.97817	3.50983	0.35845	-0.00305634	-0.00923727	-0.00907154	-1.09155	-0.219482	-0.31543	-0.706527	-0.267815	0.60518	-0.250705	9.61137	0.764407	1.22572	0.0177715	-0.0064543	0.020733	-0.894531	-0.330322	-0.418945	0.518214	0.297002	-0.669542	0.441539	9.50219	-2.72667	-0.538248	-0.00747526	-0.00438977	0.0123762	-1.03003	-0.0712891	-0.0585938	0.504513	0.468307	-0.281859	0.668364	9.81325	0.794628	4.58473	-0.0278497	0.00107043	-0.00510108	-0.959717	-0.310059	-0.394287	-0.0511895	0.392029	0.0111342	0.91846	7.43018	-0.103971	7.11526	0.064369	0.0763579	-0.015602	-0.963135	0.0744629	-0.356201	-0.343216	0.57049	0.160341	0.728721	9.60722	-1.67163	3.22818	-0.0230149	0.0278321	-0.0243325	-1.01489	0.512939	0.118652	-0.0230848	0.917038	0.39474	-0.0518539	-0.913115	-0.193596	-9.13444	0.0173516	0.00428824	-0.0261571	0.621094	0.139893	1.16431	0.183756	0.614153	-0.0541828	0.765581	9.67819	1.43891	1.96854	-0.0129908	0.0215796	0.0111062	-1.00952	-0.315186	0.287109	-0.00828257	0.998955	-0.0370811	-0.0253924	-0.523788	-0.0930476	-9.74241	-0.0128516	0.00609204	-0.00571174	0.446777	-0.0336914	0.942383	
55	-0.221147	-0.644774	-0.190843	0.706357	-9.76778	0.233507	1.10192	0.0104682	-0.0121287	-0.0261567	1.07446	0.13916	-0.343262	-0.138252	-0.12332	0.00365833	0.982683	-2.30133	0.536191	9.84021	-0.0131426	-0.0166193	-0.0321153	0.00805664	-0.0310059	-0.963867	-0.601412	0.14478	0.675086	0.401996	9.07042	3.55842	0.472023	0.00340082	-0.0201706	-0.00265162	-1.09155	-0.217285	-0.313232	-0.706346	-0.26776	0.60529	-0.251005	9.6946	0.764815	1.15616	0.013691	0.00254808	0.0135455	-0.896973	-0.328125	-0.419189	0.518248	0.296215	-0.669931	0.441439	9.56557	-2.72233	-0.486775	-0.0335992	0.030221	0.0232584	-1.03687	-0.0646973	-0.0656738	0.504387	0.468197	-0.282636	0.668208	9.87139	0.953294	4.51959	-0.0557081	-0.00756141	0.00073794	-0.953369	-0.305664	-0.394531	-0.0513339	0.391269	0.0115545	0.918771	7.37669	-0.0954698	7.27258	0.0411696	0.0493071	-0.0189858	-0.967529	0.0744629	-0.360596	-0.343536	0.570097	0.160668	0.728806	9.59508	-1.6299	3.227	0.0432248	0.0245363	-0.0159215	-1.01904	0.510742	0.111816	-0.0231623	0.916972	0.39487	-0.0520076	-0.893343	-0.190364	-9.12371	0.0158399	0.00338339	-0.0235368	0.62085	0.139893	1.15527	0.183892	0.614003	-0.0545368	0.765644	9.68397	1.358	2.04262	-0.0140191	0.0176906	0.0083389	-1.00073	-0.314941	0.282471	-0.00815228	0.998952	-0.0371069	-0.0255098	-0.520381	-0.0921524	-9.75615	0.00480297	0.00409364	-0.00701543	0.448975	-0.0336914	0.940186	
56	-0.221309	-0.644881	-0.190729	0.706239	-9.72491	0.136496	1.09207	0.00205098	0.000946934	0.0148626	1.06982	0.141113	-0.339111	-0.137479	-0.123362	0.00448881	0.982782	-2.1886	0.5439	9.83645	0.0322181	0.0040186	-0.0359475	0.00170898	-0.0375977	-0.961182	-0.601203	0.144839	0.675101	0.402263	9.11865	3.71236	0.34761	-0.0222317	-0.00116464	-0.00975997	-1.09155	-0.219482	-0.310791	-0.706181	-0.26747	0.605594	-0.251047	9.81281	0.635149	1.25275	-0.00300504	-7.07339e-06	0.01152	-0.897217	-0.32373	-0.414795	0.51826	0.295237	-0.670616	0.44104	9.46262	-2.62531	-0.50859	-0.0616009	0.00546114	0.00972757	-1.03467	-0.0668945	-0.0678711	0.503993	0.468194	-0.283365	0.668199	9.71251	1.12357	4.51999	-0.00157222	-0.00869817	0.00923046	-0.961914	-0.307861	-0.394287	-0.051223	0.389664	0.0113954	0.919461	7.39273	-0.129391	6.81143	-0.0106859	0.114113	-0.0192739	-0.965332	0.0766602	-0.362793	-0.343508	0.569911	0.160743	0.728948	9.62932	-1.6157	3.21364	-0.00461811	0.0228268	-0.0232097	-1.01025	0.508545	0.109375	-0.0232371	0.916923	0.394981	-0.0519828	-0.923367	-0.193509	-9.13614	0.00753282	0.012675	-0.020446	0.618652	0.137695	1.15747	0.183687	0.613882	-0.0544753	0.765794	9.7171	1.39692	2.03349	0.0175055	0.0292078	0.0120695	-1.00952	-0.315186	0.284912	-0.00832247	0.998952	-0.0370752	-0.0255103	-0.516766	-0.106965	-9.73423	0.00794827	0.0082358	-0.00933521	0.448975	-0.0336914	0.947021	
57	-0.220748	-0.645217	-0.190049	0.706291	-9.78157	0.149421	1.01901	0.0432718	0.00658779	-0.000458627	1.07642	0.141113	-0.341064	-0.136961	-0.123412	0.00434724	0.982849	-2.27959	0.520848	9.85314	-0.0142863	-0.00432597	-0.036874	0.00170898	-0.0354004	-0.956543	-0.600905	0.14498	0.675164	0.402551	9.09724	3.53479	0.27633	0.0176429	-0.00170612	-0.00295185	-1.08936	-0.219482	-0.306396	-0.706046	-0.267012	0.606024	-0.250876	9.72351	0.860868	1.23777	-0.0404946	-0.0110566	0.00554622	-0.892822	-0.32373	-0.414795	0.517942	0.294377	-0.671059	0.441314	9.44416	-2.75301	-0.681252	0.00677251	-0.000746738	0.02413	-1.03247	-0.0646973	-0.0632324	0.503723	0.468259	-0.284474	0.667885	9.81347	0.908109	4.49351	0.0128663	-0.0157481	0.00554026	-0.959717	-0.305664	-0.390137	-0.0513878	0.388772	0.0116561	0.919826	7.37425	-0.053919	7.38849	0.0183292	0.0552073	-0.0141911	-0.967285	0.0722656	-0.358398	-0.343141	0.569884	0.160416	0.729214	9.62863	-1.59827	3.24485	-0.0325784	0.0262929	-0.0247806	-1.01685	0.508545	0.107178	-0.0233624	0.916886	0.395059	-0.0519879	-0.9126	-0.207753	-9.14724	0.0131032	0.0116396	-0.0222449	0.621094	0.137695	1.15991	0.183494	0.613717	-0.054691	0.765957	9.66227	1.35972	2.02045	0.00163202	0.0196345	0.0178031	-1.01196	-0.312988	0.282471	-0.00801022	0.998952	-0.0370813	-0.0256032	-0.522299	-0.0931946	-9.75065	-0.00747365	0.00160349	-0.0080726	0.453369	-0.03125	0.947021	
58	-0.219696	-0.645889	-0.189383	0.706184	-9.91797	0.303925	1.02876	0.0452745	0.0193104	-0.00778164	1.07422	0.141113	-0.339111	-0.136594	-0.123459	0.00452754	0.982893	-2.3405	0.511577	9.87919	-0.0113966	0.00541992	-0.0287773	0.00390625	-0.0354004	-0.966064	-0.600279	0.145984	0.674926	0.403521	9.11002	3.53613	0.249126	-0.0900603	-0.0199007	-0.00227882	-1.08936	-0.217285	-0.308594	-0.706401	-0.26577	0.606859	-0.249171	9.67684	0.962364	1.29533	-0.141056	-0.0218085	-0.0237079	-0.901611	-0.325928	-0.414795	0.517752	0.294192	-0.671239	0.441387	9.51199	-2.7885	-0.572117	-0.00554312	-0.0024794	0.0102472	-1.04126	-0.0649414	-0.0610352	0.503439	0.468164	-0.28493	0.667972	9.79806	0.831866	4.52989	0.0010713	0.0052946	0.00228525	-0.959717	-0.307861	-0.387939	-0.0513556	0.388075	0.0117481	0.920121	7.32386	-0.187316	7.25527	0.0262787	0.0408309	-0.0188245	-0.963379	0.0788574	-0.362793	-0.342793	0.569808	0.160034	0.729521	9.58524	-1.76225	3.18619	0.00810184	0.0269408	-0.023135	-1.01025	0.508545	0.111816	-0.0229686	0.916893	0.395093	-0.0517868	-0.908062	-0.205767	-9.114	-0.00677248	0.0077752	-0.019971	0.616211	0.139893	1.15967	0.183223	0.613568	-0.0546583	0.766144	9.69437	1.3848	2.03257	0.00641021	0.0281727	0.0115713	-1.00977	-0.312988	0.282471	-0.00811286	0.998952	-0.0370714	-0.0255799	-0.5252	-0.113843	-9.76331	0.01276	0.00895956	-0.00906719	0.44873	-0.0292969	0.947021	
59	-0.2192	-0.64619	-0.189013	0.706161	-9.90104	0.400851	1.05875	0.0145335	-0.0014388	0.0027694	1.07202	0.145508	-0.343506	-0.136383	-0.123423	0.00457532	0.982927	-2.37551	0.524339	9.81978	-0.010568	-0.00251421	-0.0255897	0.00390625	-0.0397949	-0.961182	-0.599869	0.146812	0.6748	0.40404	9.17493	3.43469	0.442119	-0.0105144	0.00494284	-0.0064906	-1.0979	-0.219482	-0.308594	-0.706456	-0.265428	0.607174	-0.24861	9.75413	0.770295	1.20603	0.03178	0.00173593	0.00953883	-0.899414	-0.32373	-0.419189	0.517531	0.293826	-0.671496	0.441499	9.48931	-2.82372	-0.587887	-0.00268639	0.00586831	-1.43884e-05	-1.03906	-0.0649414	-0.0610352	0.503134	0.468308	-0.285341	0.667926	9.81325	1.02044	4.40692	-0.0326078	-0.00357925	-0.00510029	-0.959961	-0.30127	-0.390137	-0.0513257	0.387863	0.0119397	0.92021	7.22908	-0.0567302	7.22507	0.0259194	0.01999	-0.0224685	-0.965332	0.0744629	-0.366943	-0.343124	0.569314	0.160284	0.729696	9.57	-1.5121	3.2981	0.00531877	0.035064	-0.017378	-1.01685	0.508545	0.109375	-0.0226767	0.916887	0.395138	-0.0516777	-0.909207	-0.19171	-9.13208	-0.0134029	0.00731697	-0.0197356	0.623291	0.137695	1.15771	0.183301	0.613217	-0.0549477	0.766386	9.63332	1.37302	2.06846	-0.0155363	0.0284762	0.00850647	-1.00977	-0.310791	0.282471	-0.00853656	0.998956	-0.0369487	-0.0254778	-0.524064	-0.112752	-9.75824	0.0119878	0.00583217	-0.00704651	0.44873	-0.0246582	0.942383	
60	-0.219342	-0.646191	-0.188914	0.706143	-9.81181	0.374349	1.08586	-0.00267169	-0.00607911	0.0135492	1.07202	0.141113	-0.341064	-0.136297	-0.123467	0.00476525	0.982933	-2.30594	0.484882	9.77422	0.00673511	0.0168522	-0.0228904	0.00170898	-0.0375977	-0.96582	-0.599859	0.146853	0.674909	0.403857	9.04536	3.68086	0.311051	0.015267	-0.00507761	0.00947759	-1.08521	-0.219727	-0.306396	-0.706456	-0.265428	0.607174	-0.24861	9.75413	0.770295	1.20603	0.03178	0.00173593	0.00953883	-0.899414	-0.32373	-0.419189	0.517307	0.293739	-0.671551	0.441735	9.40628	-2.79445	-0.719083	0.000536778	-0.00224489	-0.00845191	-1.03711	-0.0603027	-0.0632324	0.503134	0.468308	-0.285341	0.667926	9.81325	1.02044	4.40692	-0.0326078	-0.00357925	-0.00510029	-0.959961	-0.30127	-0.390137	-0.0513257	0.387863	0.0119397	0.92021	7.22908	-0.0567302	7.22507	0.0259194	0.01999	-0.0224685	-0.965332	0.0744629	-0.366943	-0.34292	0.569323	0.160082	0.729829	9.59765	-1.55132	3.22606	-0.0175595	0.0237929	-0.0221268	-1.01685	0.508789	0.104736	-0.0227211	0.916869	0.395169	-0.0517396	-0.91549	-0.194054	-9.12661	0.0166834	0.00552366	-0.0211963	0.618652	0.139893	1.15527	0.183301	0.613217	-0.0549477	0.766386	9.63332	1.37302	2.06846	-0.0155363	0.0284762	0.00850647	-1.00977	-0.310791	0.282471	-0.00853656	0.998956	-0.0369487	-0.0254778	-0.524064	-0.112752	-9.75824	0.0119878	0.00583217	-0.00704651	0.44873	-0.0246582	0.942383	
61	-0.220076	-0.645944	-0.18898	0.706122	-9.69998	0.22099	0.997648	-0.0260799	-0.0157395	0.0129624	1.06567	0.138916	-0.345459	-0.136137	-0.123428	0.0044797	0.982961	-2.25769	0.505872	9.82687	-0.0230798	0.0436194	-0.0271105	0.00585938	-0.0310059	-0.961426	-0.599606	0.147544	0.67463	0.404448	9.04904	3.44161	0.340582	-0.0354052	0.00232596	-0.000577429	-1.09155	-0.22168	-0.310791	-0.706588	-0.264926	0.607398	-0.248226	9.65901	0.851658	1.21262	-0.00877035	0.00602525	0.00209854	-0.897217	-0.321533	-0.416992	0.517015	0.29387	-0.67161	0.4419	9.45625	-2.84567	-0.470384	-0.00289632	0.00632346	0.001745	-1.03467	-0.0625	-0.0656738	0.502921	0.468514	-0.284931	0.668116	9.79911	0.950407	4.46396	-0.00517246	0.0096055	-0.015854	-0.955566	-0.30127	-0.385986	-0.0508589	0.387446	0.011986	0.92041	7.33513	-0.0697714	7.24265	0.00974959	0.0252083	-0.022531	-0.963135	0.0744629	-0.362549	-0.342634	0.569118	0.159857	0.730173	9.60506	-1.6653	3.30989	-0.00990135	0.02256	-0.0172022	-1.01685	0.510742	0.111816	-0.0229193	0.916726	0.395486	-0.051767	-0.898253	-0.187417	-9.13911	0.0191367	0.00701033	-0.0210783	0.621338	0.130859	1.16211	0.182949	0.61296	-0.0548902	0.766679	9.68125	1.41294	2.1326	0.0149766	0.0253198	0.00891075	-1.01196	-0.312988	0.277832	-0.00843882	0.998961	-0.0368899	-0.0253819	-0.504561	-0.108608	-9.74326	-0.00359865	0.0069416	-0.00462422	0.446533	-0.0270996	0.94458	
62	-0.220526	-0.645881	-0.189369	0.705936	-9.71317	0.125684	0.927953	-0.0205152	0.00466531	-0.00340847	1.07227	0.138916	-0.334717	-0.136047	-0.123728	0.00426872	0.982937	-2.3301	0.504171	9.82662	-0.0115597	0.0352879	-0.0203305	0.00366211	-0.0332031	-0.963623	-0.599436	0.147436	0.674945	0.404214	9.04088	3.67774	0.44501	0.00281781	-0.00547262	-0.00214105	-1.09814	-0.215088	-0.308594	-0.706518	-0.265042	0.607301	-0.248538	9.67977	0.847888	1.2109	0.0194109	0.00931769	0.00768471	-0.896973	-0.328125	-0.416992	0.516913	0.293545	-0.671818	0.44192	9.45737	-2.81722	-0.55341	-0.0169661	0.00896467	-0.00165445	-1.03687	-0.0625	-0.0610352	0.502921	0.468311	-0.285175	0.668155	9.81358	0.956318	4.47815	0.00342358	0.0179155	-0.00585687	-0.963867	-0.307861	-0.387939	-0.0505656	0.387489	0.0117339	0.920412	7.29856	-0.145993	7.26134	0.00723849	0.0048672	-0.0257024	-0.960938	0.0725098	-0.364746	-0.342927	0.568714	0.160116	0.730294	9.58261	-1.64934	3.27012	0.0273993	0.0294568	-0.0176634	-1.02344	0.512939	0.114014	-0.0230152	0.916629	0.395685	-0.0519209	-0.905528	-0.205708	-9.1387	0.0225519	0.00265517	-0.0275227	0.616455	0.137695	1.15747	0.183194	0.612762	-0.0552567	0.766753	9.6793	1.30406	2.01393	-0.0220102	0.0208684	0.00663558	-1.00537	-0.308594	0.277832	-0.00848997	0.99896	-0.0368502	-0.0254777	-0.528932	-0.121998	-9.7387	0.010089	0.00251469	-0.00833617	0.446777	-0.0336914	0.942383	
63	-0.220263	-0.646623	-0.189923	0.705189	-9.71313	0.168673	0.971412	-0.00466242	0.0574504	-0.011123	1.06567	0.136719	-0.339111	-0.135921	-0.123835	0.00420648	0.982941	-2.23238	0.564097	9.86649	-0.00717901	0.0252531	-0.0243596	0.00390625	-0.0354004	-0.963623	-0.599101	0.147789	0.674899	0.404656	9.17154	3.53165	0.402776	-0.0019412	-0.0107215	-0.00691323	-1.09375	-0.212891	-0.306396	-0.706504	-0.265039	0.607184	-0.248864	9.79313	0.705487	1.23351	0.0335422	0.0139014	0.0131554	-0.897217	-0.32373	-0.419189	0.516649	0.293581	-0.671762	0.44229	9.37489	-2.5618	-0.659672	0.0174681	-0.00357714	-0.006782	-1.03052	-0.0603027	-0.0610352	0.503013	0.468222	-0.285451	0.668029	9.73194	0.934424	4.42795	-0.00775484	0.00543215	-0.0116619	-0.964111	-0.305664	-0.381592	-0.0505656	0.387489	0.0117339	0.920412	7.29856	-0.145993	7.26134	0.00723849	0.0048672	-0.0257024	-0.960938	0.0725098	-0.364746	-0.343054	0.568365	0.160177	0.730492	9.60363	-1.61238	3.21498	0.000440959	0.0307248	-0.0199611	-1.0144	0.504395	0.107178	-0.0231014	0.916532	0.39588	-0.0520955	-0.904913	-0.193907	-9.13457	0.0182057	0.00206435	-0.0262074	0.618896	0.135498	1.15308	0.183185	0.612683	-0.0552436	0.766819	9.70198	1.28967	1.96316	0.0022606	0.0240321	0.00476856	-1.00732	-0.312988	0.275635	-0.00840721	0.998958	-0.0368479	-0.0255654	-0.51279	-0.0979165	-9.73244	-0.00297156	0.00385752	-0.006749	0.448975	-0.0336914	0.944824	
64	-0.219807	-0.647605	-0.190438	0.704291	-9.84112	0.18173	1.13629	-0.00258106	0.0508331	-0.00848456	1.07446	0.138916	-0.334717	-0.135712	-0.124197	0.00375095	0.982926	-2.28799	0.437799	9.84131	-0.0253132	0.0398789	-0.0281025	0.00170898	-0.0354004	-0.958984	-0.598834	0.1483	0.674973	0.404742	9.02905	3.63125	0.40781	-0.00593211	-0.0160686	0.00838082	-1.09155	-0.22168	-0.301758	-0.706646	-0.264469	0.607508	-0.248276	9.73972	0.706085	1.14987	-0.0319476	-3.01222e-05	-0.00245986	-0.897217	-0.32373	-0.419189	0.516348	0.293473	-0.671963	0.442408	9.58415	-2.7763	-0.436601	0.016082	0.00268056	0.0015245	-1.03711	-0.0603027	-0.0632324	0.502716	0.468366	-0.285335	0.668202	9.82356	1.02563	4.5749	0.0127879	0.00606959	-0.0108682	-0.955566	-0.303467	-0.390137	-0.0500951	0.387945	0.0123151	0.920238	7.39895	-0.0920057	7.31831	0.0146013	-0.00952514	-0.0226042	-0.967529	0.0766602	-0.362793	-0.342748	0.568322	0.159934	0.730722	9.62227	-1.64059	3.23942	0.00299156	0.0201862	-0.0211664	-1.01465	0.506592	0.109619	-0.0230163	0.916469	0.396032	-0.0520827	-0.899809	-0.193441	-9.14646	0.00502387	0.011249	-0.0205389	0.623291	0.139893	1.15747	0.182766	0.612422	-0.0549305	0.76715	9.69828	1.39437	1.98087	-0.00366548	0.0204706	0.0104925	-1.01416	-0.310791	0.277832	-0.00842043	0.99896	-0.0368324	-0.0255377	-0.531171	-0.10322	-9.7421	0.00837136	0.0109545	-0.00940352	0.44458	-0.0358887	0.942627	
65	-0.219485	-0.647882	-0.190364	0.704156	-9.93613	0.180976	1.08423	0.0179756	-0.00566719	-0.00435497	1.07007	0.138916	-0.33252	-0.135434	-0.124649	0.00362132	0.982908	-2.3769	0.504087	9.82587	-0.0111677	0.039166	-0.0321937	0.00610352	-0.0397949	-0.95874	-0.598511	0.148844	0.674742	0.405405	9.07788	3.60054	0.255885	-0.0441859	-0.0088246	-0.000472646	-1.0896	-0.217285	-0.313232	-0.706823	-0.263886	0.607764	-0.247766	9.74581	0.796991	1.24891	-0.0751151	-0.000800264	-0.00472028	-0.897217	-0.32373	-0.412598	0.51627	0.293144	-0.672118	0.44248	9.41877	-2.83815	-0.683265	-0.0182666	0.00801759	0.00439847	-1.03491	-0.0561523	-0.0588379	0.502723	0.468292	-0.285603	0.668134	9.81998	0.85771	4.52506	-0.017384	0.0027359	-0.00730711	-0.95752	-0.305664	-0.385742	-0.0500951	0.387945	0.0123151	0.920238	7.39895	-0.0920057	7.31831	0.0146013	-0.00952514	-0.0226042	-0.967529	0.0766602	-0.362793	-0.342495	0.568204	0.159724	0.730978	9.55713	-1.55802	3.28815	-0.0249947	0.0270957	-0.0234778	-1.0127	0.512939	0.109375	-0.0230049	0.916457	0.396065	-0.052047	-0.905013	-0.19711	-9.14106	0.00955315	0.0109675	-0.021246	0.623291	0.142334	1.15308	0.18241	0.612261	-0.0546252	0.767385	9.65456	1.32234	2.11959	0.0183819	0.0200759	0.00735388	-1.00952	-0.315186	0.280273	-0.00843322	0.998961	-0.0368379	-0.0254789	-0.515395	-0.109166	-9.74008	0.00623076	0.0114351	-0.00776448	0.451172	-0.03125	0.947021	
66	-0.219411	-0.647727	-0.189746	0.704489	-9.87412	0.106946	0.997054	0.0251887	-0.0260201	0.00830018	1.07007	0.138916	-0.334717	-0.135004	-0.124787	0.00291104	0.982952	-2.35604	0.546371	9.93299	-0.0441926	0.0305471	-0.0397003	0.00146484	-0.0332031	-0.961426	-0.598096	0.149568	0.674686	0.405845	9.04365	3.52418	0.368149	-0.0303151	0.0035381	-0.00487665	-1.09375	-0.212891	-0.306396	-0.706967	-0.263659	0.607689	-0.24778	9.65572	0.827598	1.19357	0.020282	0.0198956	0.0111904	-0.903809	-0.32373	-0.419189	0.516063	0.293017	-0.672137	0.442778	9.37167	-2.78667	-0.670969	0.0149626	0.00672582	0.0130273	-1.03711	-0.0581055	-0.0610352	0.502307	0.468327	-0.285578	0.668433	9.81284	1.05695	4.37546	0.0323785	0.00850148	-0.00351421	-0.957764	-0.299316	-0.385986	-0.0489952	0.38933	0.0123781	0.919711	7.3632	-0.103553	7.30705	0.00899227	-0.0354512	-0.0221963	-0.969482	0.0700684	-0.360352	-0.342282	0.56802	0.159548	0.73126	9.605	-1.73491	3.26415	0.0207965	0.0290372	-0.0233467	-1.01709	0.512939	0.111816	-0.0231309	0.916318	0.396385	-0.0520087	-0.915382	-0.19671	-9.1334	0.00924933	0.00726524	-0.023307	0.618652	0.139893	1.15308	0.182212	0.61221	-0.0543555	0.767492	9.65393	1.45443	2.02835	0.0139901	0.0214385	0.00616932	-1.00977	-0.310791	0.282471	-0.00832645	0.998968	-0.0367229	-0.0254034	-0.515157	-0.109928	-9.74825	-0.00756968	0.00447748	-0.00705992	0.450928	-0.0268555	0.947021	
67	-0.219112	-0.647557	-0.189342	0.704847	-9.86314	0.157583	0.937256	0.0408252	-0.0341909	-0.00532575	1.07642	0.141113	-0.339111	-0.134476	-0.124324	0.0026677	0.983083	-2.42725	0.730168	10.0641	-0.0206081	-0.00663327	-0.0431649	0.0102539	-0.0354004	-0.958984	-0.598057	0.149242	0.674745	0.405923	8.98364	3.88355	0.21804	0.0225576	0.0128479	-0.028227	-1.09595	-0.219482	-0.306396	-0.707447	-0.263915	0.606883	-0.248113	9.80621	0.418083	1.05057	0.0865131	0.059935	-0.00818793	-0.89502	-0.321533	-0.416992	0.514844	0.294488	-0.671795	0.443738	9.43281	-2.77839	-0.672544	0.096544	-0.0333082	-0.0272993	-1.03931	-0.0583496	-0.0610352	0.500867	0.469135	-0.284201	0.669533	9.79511	0.603401	4.46044	0.181128	0.0325585	0.0197521	-0.959961	-0.299316	-0.390381	-0.0485996	0.390358	0.0125953	0.919293	7.44139	-0.0917044	7.20886	0.00862555	-0.0381485	-0.0247994	-0.963379	0.0788574	-0.358398	-0.342784	0.567529	0.160302	0.731241	9.62118	-1.4612	3.28129	0.0380141	0.017813	-0.0223854	-1.01685	0.506592	0.102539	-0.0232065	0.916229	0.396574	-0.0521005	-0.91169	-0.205803	-9.12514	0.00864871	0.00854154	-0.0250733	0.621094	0.137695	1.15991	0.182386	0.612002	-0.0547837	0.767586	9.73341	1.35772	2.01964	-0.0192985	0.0246492	0.0125053	-1.01001	-0.306396	0.277832	-0.00817334	0.998967	-0.0367541	-0.0254309	-0.521357	-0.10541	-9.74261	-0.00797302	0.00548844	-0.00460217	0.446777	-0.0314941	0.944824	
68	-0.217924	-0.647454	-0.188272	0.705597	-9.81769	0.149343	0.849966	0.0654901	-0.0243934	-0.0132924	1.07202	0.141113	-0.33252	-0.134187	-0.124063	0.00173244	0.983158	-2.32454	0.583012	9.70057	-0.0828187	0.00387827	-0.0508868	0.00585938	-0.0310059	-0.963867	-0.597902	0.149702	0.67488	0.405758	9.17982	3.53961	0.471447	-0.00736845	-0.047496	0.0374794	-1.0957	-0.22168	-0.303955	-0.70849	-0.263545	0.606208	-0.247179	9.72888	0.565569	1.36172	-0.0812209	0.0317477	-0.043355	-0.890381	-0.323486	-0.425781	0.513465	0.297012	-0.670586	0.445479	9.42585	-2.67781	-0.619644	0.122333	-0.014518	-0.0217453	-1.03491	-0.0605469	-0.0517578	0.499161	0.470378	-0.282072	0.670833	9.84003	0.914527	4.3042	0.0575957	0.0176981	-0.00876659	-0.95752	-0.307861	-0.383545	-0.0485996	0.390358	0.0125953	0.919293	7.44139	-0.0917044	7.20886	0.00862555	-0.0381485	-0.0247994	-0.963379	0.0788574	-0.358398	-0.342694	0.5675	0.160312	0.731304	9.55144	-1.47614	3.33501	0.00176674	0.0182855	-0.0236983	-1.0127	0.510986	0.100098	-0.0232458	0.916016	0.397095	-0.0518656	-0.909614	-0.200366	-9.13744	0.00182612	0.00846406	-0.021298	0.625732	0.139893	1.15747	0.18243	0.611752	-0.0549513	0.767763	9.62211	1.307	2.13262	-0.0150455	0.0231642	0.00824113	-1.00513	-0.312988	0.275635	-0.00780893	0.998985	-0.0365788	-0.0250998	-0.513754	-0.106593	-9.75372	-0.00795635	0.0114555	-0.00707105	0.453369	-0.03125	0.944824	
69	-0.216844	-0.647932	-0.187111	0.705799	-9.611	0.454215	0.937584	0.0662991	0.00432111	0.0013103	1.07227	0.138916	-0.334717	-0.13311	-0.123953	0.00239031	0.983317	-2.31187	0.411947	9.78797	0.0260666	-0.000982942	-0.0489722	-0.000488281	-0.0397949	-0.963379	-0.597903	0.150254	0.67453	0.406134	9.12253	3.46442	0.604535	-0.0546415	0.00732106	0.016512	-1.08936	-0.22168	-0.306152	-0.708642	-0.263705	0.605972	-0.247152	9.61003	0.806285	1.39283	0.0114228	0.0223989	-0.0166103	-0.888184	-0.323486	-0.419189	0.513088	0.297786	-0.670762	0.445133	9.34464	-2.62501	-0.707941	0.0162269	-0.0558827	-0.0517257	-1.03906	-0.0627441	-0.0563965	0.498068	0.471399	-0.279669	0.671935	9.77927	1.00552	4.47568	0.118372	0.0350948	-0.0133346	-0.964111	-0.305664	-0.379395	-0.047488	0.392435	0.011893	0.918476	7.34539	-0.0224534	7.50805	-0.0255408	-0.0544928	-0.0241768	-0.973877	0.0722656	-0.352051	-0.341992	0.56763	0.15973	0.731659	9.60328	-1.59309	3.3197	-0.0346557	0.0152991	-0.0196904	-1.01685	0.508545	0.109375	-0.0232458	0.916016	0.397095	-0.0518656	-0.909614	-0.200366	-9.13744	0.00182612	0.00846406	-0.021298	0.625732	0.139893	1.15747	0.182408	0.611831	-0.0549081	0.767708	9.65721	1.25677	2.15263	0.00672927	0.00895095	0.00246922	-1.01196	-0.308594	0.277832	-0.00780893	0.998985	-0.0365788	-0.0250998	-0.513754	-0.106593	-9.75372	-0.00795635	0.0114555	-0.00707105	0.453369	-0.03125	0.944824	
70	-0.217265	-0.648202	-0.187102	0.705424	-9.73317	0.288058	0.926173	-0.023543	0.00560438	0.00870773	1.07471	0.134521	-0.334717	-0.132652	-0.124157	0.00229085	0.983353	-2.34335	0.498669	9.85193	-0.00843282	0.0339935	-0.0328591	0.00585938	-0.0354004	-0.963623	-0.597776	0.151707	0.673569	0.407375	8.89942	3.66346	0.176426	-0.0472021	-0.0126478	0.00653991	-1.09155	-0.215088	-0.311035	-0.709005	-0.263216	0.606019	-0.246516	9.73061	0.699405	1.21916	-0.0652131	0.0171252	-0.0178849	-0.899414	-0.321533	-0.423584	0.512565	0.29847	-0.670676	0.445406	9.41647	-2.80437	-0.429778	0.0596951	0.00281093	0.00383462	-1.03247	-0.0627441	-0.0541992	0.4985	0.471061	-0.279937	0.671741	9.79884	0.281397	4.61294	-0.0445917	0.0228322	-0.0287697	-0.95752	-0.307861	-0.381592	-0.0473033	0.393341	0.0118471	0.918098	7.4155	-0.243019	6.61009	0.00482774	-0.0646278	-0.0268071	-0.963135	0.0722656	-0.352051	-0.34207	0.567616	0.15958	0.731666	9.51233	-1.69549	3.26306	0.0273361	0.0155782	-0.00835148	-1.01685	0.508545	0.111816	-0.0230411	0.915926	0.397343	-0.0516466	-0.90887	-0.18353	-9.14498	-0.00554811	0.00881239	-0.0198224	0.623291	0.137695	1.15771	0.182288	0.611926	-0.0547988	0.767669	9.63119	1.29829	2.21374	0.0155923	0.00940011	0.00461299	-1.00977	-0.308594	0.280029	-0.00744116	0.99899	-0.0366222	-0.0249317	-0.500519	-0.064043	-9.71783	-0.00229878	0.0046346	-0.00510994	0.448975	-0.0336914	0.944824	
71	-0.21716	-0.648955	-0.187946	0.704539	-9.79989	0.217036	0.884389	-0.0179002	0.0663213	-0.0123185	1.07666	0.138916	-0.336914	-0.132475	-0.124186	0.00251091	0.983373	-2.40397	0.391732	9.89369	0.00410258	0.0251309	-0.0228774	0.00170898	-0.0375977	-0.961182	-0.597402	0.152526	0.673798	0.407238	9.21052	3.5952	0.477333	-0.00991494	-0.041921	0.0314539	-1.08521	-0.215332	-0.304199	-0.710129	-0.262734	0.605007	-0.246282	9.75182	0.722418	1.36506	-0.0523436	0.0328149	-0.0178604	-0.896973	-0.325684	-0.427979	0.512396	0.298747	-0.67028	0.446011	9.53794	-2.87037	-0.374289	0.0290926	0.0350338	0.00229976	-1.03271	-0.0583496	-0.0541992	0.498267	0.471198	-0.279042	0.672189	9.81138	1.3914	4.43116	-0.0618981	0.0191516	-0.029282	-0.957275	-0.312256	-0.37915	-0.0472262	0.395156	0.0127791	0.91731	7.41424	-0.0533694	7.23624	0.0368669	-0.0285308	-0.0241367	-0.973877	0.0744629	-0.343506	-0.342353	0.567369	0.159693	0.7317	9.60976	-1.58528	3.29864	0.00376286	0.0276512	-0.0129735	-1.01709	0.512939	0.107178	-0.0238701	0.915696	0.397779	-0.0519886	-0.91638	-0.198488	-9.14574	0.0311047	0.00533926	-0.026249	0.623291	0.137695	1.15991	0.182226	0.611778	-0.0547688	0.767804	9.66315	1.41827	2.09799	-0.0178455	0.0210097	-0.00172084	-1.01196	-0.310791	0.277832	-0.00791105	0.99898	-0.0366152	-0.0251986	-0.512765	-0.121253	-9.74237	0.0247623	-0.000906477	-0.0081637	0.447021	-0.0380859	0.947021	
72	-0.217023	-0.650217	-0.188276	0.703329	-9.90355	0.238414	1.02548	0.0036505	0.0651593	0.013226	1.07446	0.136719	-0.33252	-0.13259	-0.124009	0.00259576	0.983379	-2.306	0.535632	9.93586	-0.0037234	0.0122422	-0.0110048	0.00146484	-0.0310059	-0.961426	-0.597337	0.153738	0.672981	0.408228	9.12479	3.58116	0.374512	-0.0621018	0.0257088	0.00958645	-1.0918	-0.213135	-0.304199	-0.710241	-0.262775	0.604847	-0.246307	9.73377	0.974494	1.28753	0.00646442	0.0202062	-0.00569579	-0.899414	-0.323486	-0.430176	0.512985	0.298257	-0.670781	0.444906	9.42342	-2.89513	-0.792158	-0.0538355	-0.00536413	-0.0450366	-1.04346	-0.0605469	-0.0517578	0.49923	0.470822	-0.279473	0.671558	9.76749	0.952956	4.43446	-0.000239647	0.0196794	-0.0372535	-0.955322	-0.307861	-0.385742	-0.0468622	0.396799	0.0121498	0.916628	7.55097	-0.140138	7.16355	-0.00973646	-0.067368	-0.0191486	-0.974121	0.0766602	-0.339355	-0.342493	0.567216	0.15949	0.731798	9.60297	-1.59386	3.26168	0.00737383	0.0198131	-0.00939331	-1.0127	0.510742	0.107178	-0.0240838	0.915541	0.398116	-0.0520503	-0.907458	-0.217408	-9.1306	0.0142315	0.00493781	-0.0245911	0.618408	0.144531	1.15747	0.182445	0.611787	-0.0550989	0.76772	9.70049	1.23811	2.02513	-0.000443403	0.0110883	0.00276532	-1.00537	-0.310791	0.273193	-0.00801142	0.998975	-0.0366978	-0.0252558	-0.507093	-0.10775	-9.7298	0.00777581	0.00551892	-0.00288513	0.449219	-0.0358887	0.942627	
73	-0.217263	-0.651126	-0.187813	0.702537	-9.94028	0.259756	1.08216	0.00626176	0.0264059	0.0381202	1.07446	0.134521	-0.321777	-0.132679	-0.123642	0.00238311	0.983414	-2.31632	0.43695	9.76445	-0.0213092	0.00370198	-0.013058	0.00390625	-0.0354004	-0.963623	-0.597465	0.15383	0.672811	0.408285	9.08808	3.46274	0.384408	-0.00650372	0.00555342	0.00624605	-1.0896	-0.206543	-0.308838	-0.710547	-0.262928	0.604475	-0.246175	9.64438	0.663244	1.42356	-0.00642191	0.0123468	-0.00924008	-0.888184	-0.323486	-0.423584	0.512627	0.299093	-0.670264	0.445538	9.51164	-2.74388	-0.564297	0.0430256	-0.00156344	-0.0242181	-1.03687	-0.0627441	-0.0541992	0.499569	0.470668	-0.279044	0.671593	9.83357	0.878194	4.51141	0.0149382	0.0290025	-0.0290005	-0.955322	-0.307861	-0.390137	-0.0468703	0.398526	0.0120752	0.915879	7.46098	-0.174997	7.27672	-0.000706531	-0.0698133	-0.011043	-0.973633	0.0678711	-0.341309	-0.342284	0.567472	0.159283	0.731742	9.57784	-1.58906	3.31002	-0.016209	0.00989131	-0.0170492	-1.01685	0.506348	0.109619	-0.023764	0.91551	0.398216	-0.0519738	-0.909166	-0.200366	-9.12411	0.00321437	0.00583146	-0.0226329	0.618652	0.137695	1.15527	0.181805	0.612171	-0.0543975	0.767616	9.67135	1.34569	2.12746	0.0469974	0.00475977	0.00674187	-1.00977	-0.310791	0.273193	-0.00785208	0.998975	-0.0367199	-0.0252648	-0.514814	-0.105229	-9.74577	0.00121428	0.00580086	-0.0089993	0.449219	-0.0358887	0.947021	
74	-0.217866	-0.65119	-0.187604	0.702347	-9.87	0.220846	1.01511	-0.0172933	-0.00857532	0.0160624	1.0769	0.134521	-0.328125	-0.133029	-0.123463	0.00203701	0.98339	-2.25241	0.443452	9.80878	-0.0272604	0.0106769	-0.00200504	0.00830078	-0.0375977	-0.958984	-0.597359	0.154488	0.672588	0.408559	9.0869	3.49559	0.443552	-0.0222011	0.00223589	0.00550348	-1.09399	-0.206543	-0.306641	-0.710627	-0.262929	0.604421	-0.246075	9.67787	0.841955	1.21145	0.0169107	0.00837683	-0.000585098	-0.888184	-0.323486	-0.430176	0.512756	0.299271	-0.670189	0.445381	9.47748	-2.77785	-0.580058	-0.0169407	0.0101958	-0.0205754	-1.04126	-0.0649414	-0.0541992	0.499941	0.470441	-0.279076	0.671461	9.79465	0.911911	4.49104	-0.0279106	0.0180375	-0.0233144	-0.961914	-0.307861	-0.383545	-0.0466405	0.401245	0.0114249	0.914711	7.58352	-0.242195	6.93573	-0.0162435	-0.100479	-0.0133262	-0.971436	0.0678711	-0.332764	-0.34214	0.567586	0.159167	0.731746	9.62301	-1.65107	3.3014	0.0209488	0.0141072	-0.0152452	-1.0188	0.504395	0.10498	-0.02377	0.915477	0.398286	-0.0520061	-0.904161	-0.216092	-9.1231	0.0132556	0.00648495	-0.0239917	0.616455	0.137695	1.15527	0.181676	0.612325	-0.0542203	0.767537	9.68805	1.47589	2.12039	0.0211491	0.004261	0.00144371	-1.00977	-0.312988	0.287109	-0.00784016	0.998975	-0.0367356	-0.0252579	-0.507566	-0.107297	-9.73795	0.0039849	0.00768767	-0.00710539	0.449219	-0.0358887	0.942627	
75	-0.218136	-0.650641	-0.187972	0.702673	-9.82764	0.278759	0.975655	-0.0225114	-0.0278793	-0.0135537	1.07666	0.134521	-0.321777	-0.133658	-0.123353	0.0016351	0.983319	-2.30739	0.444014	9.83933	-0.0295711	0.0104266	0.00509328	0.00561523	-0.0288086	-0.959229	-0.597255	0.154273	0.672715	0.408584	9.1689	3.55578	0.516548	0.0135219	-0.0049971	-0.0118978	-1.09399	-0.20874	-0.302002	-0.710449	-0.263169	0.604519	-0.246091	9.75469	0.683673	1.41652	0.0335004	-0.0058739	0.00486401	-0.890381	-0.325684	-0.423584	0.512653	0.299484	-0.670019	0.445612	9.48221	-2.87913	-0.6295	0.0298255	0.00629643	-0.0158145	-1.03906	-0.0605469	-0.0541992	0.500066	0.470514	-0.278633	0.671501	9.7282	1.02951	4.49661	0.0246233	0.0215645	-0.0279167	-0.959717	-0.307861	-0.385742	-0.046341	0.40361	0.0105513	0.913696	7.54076	-0.0684151	7.05719	-0.040358	-0.0963442	-0.00993708	-0.978516	0.0786133	-0.322266	-0.342232	0.567615	0.159315	0.731648	9.58147	-1.5516	3.32285	0.00265926	0.0118927	-0.0153429	-1.01904	0.506592	0.104736	-0.0240043	0.915286	0.398707	-0.0520358	-0.914675	-0.213296	-9.15881	0.00852185	0.00510836	-0.0251803	0.618652	0.137695	1.15747	0.1821	0.612352	-0.0546892	0.767381	9.66258	1.31247	2.05379	-0.0107437	0.00505807	0.00346342	-1.00757	-0.308594	0.280029	-0.00787861	0.998979	-0.036625	-0.0252326	-0.532318	-0.111777	-9.742	0.00483246	0.00595803	-0.00926275	0.446777	-0.0336914	0.942383	
76	-0.21866	-0.649883	-0.188615	0.703039	-9.79514	0.247079	0.916846	-0.0391975	-0.0324106	-0.00882646	1.07227	0.134521	-0.328125	-0.133956	-0.123253	0.00149955	0.983291	-2.28128	0.416222	9.88341	-0.0235019	0.00934843	0.00422853	0.00561523	-0.0288086	-0.956787	-0.597547	0.153861	0.672672	0.408382	9.04963	3.73368	0.337114	0.0280944	0.0130548	0.00533457	-1.0874	-0.213135	-0.302002	-0.710046	-0.263409	0.604851	-0.246183	9.78168	0.672282	1.18829	-0.00852524	-0.0167845	0.000518222	-0.892578	-0.327881	-0.427979	0.5124	0.300124	-0.669572	0.446145	9.47639	-2.62624	-0.677823	0.0117622	0.0105495	-0.0199564	-1.03467	-0.0627441	-0.0585938	0.500335	0.470435	-0.278444	0.671435	9.82664	0.758254	4.44241	0.0132713	0.0244576	-0.0232525	-0.95752	-0.310059	-0.387939	-0.0461456	0.405007	0.0101043	0.913092	7.60803	-0.142712	7.03737	-0.0267402	-0.105806	-0.0142854	-0.976318	0.0786133	-0.322266	-0.342495	0.567496	0.15954	0.731569	9.60376	-1.65482	3.21697	0.0538194	0.0187547	-0.0101509	-1.021	0.506592	0.102539	-0.0239939	0.91526	0.398767	-0.0520372	-0.906	-0.211861	-9.13079	0.01116	0.00825257	-0.0231734	0.621338	0.133057	1.15991	0.18182	0.612566	-0.0543056	0.767304	9.66487	1.35276	2.05267	0.0327382	0.011356	0.00613537	-1.00732	-0.315186	0.275635	-0.00776143	0.998978	-0.0366869	-0.0252367	-0.510744	-0.0886424	-9.76307	0.000662496	0.00772708	-0.00463485	0.446777	-0.0358887	0.944824	
77	-0.218914	-0.649518	-0.188943	0.703209	-9.72738	0.240214	0.9016	-0.0355144	-0.0311819	-0.0119353	1.07446	0.138916	-0.33252	-0.134234	-0.123513	0.00187464	0.98322	-2.30111	0.411807	9.88736	0.0103534	0.0163111	0.00400569	0.00146484	-0.0310059	-0.956787	-0.597547	0.153861	0.672672	0.408382	9.04963	3.73368	0.337114	0.0280944	0.0130548	0.00533457	-1.0874	-0.213135	-0.302002	-0.709915	-0.263456	0.604973	-0.246207	9.72726	0.726811	1.29159	0.00631796	-0.00793847	0.00492681	-0.89502	-0.321289	-0.423584	0.511932	0.301125	-0.669243	0.446501	9.45667	-2.74625	-0.662634	0.0673849	-0.0172684	-0.0394819	-1.03491	-0.0605469	-0.0588379	0.499841	0.470832	-0.277593	0.671876	9.74763	1.08129	4.53234	0.0929431	0.0306887	-0.0123101	-0.957275	-0.312256	-0.385742	-0.0461456	0.405007	0.0101043	0.913092	7.60803	-0.142712	7.03737	-0.0267402	-0.105806	-0.0142854	-0.976318	0.0786133	-0.322266	-0.342832	0.567375	0.159862	0.731435	9.56755	-1.51392	3.29002	0.0445316	0.0115966	-0.00843551	-1.01904	0.510742	0.104736	-0.0239939	0.91526	0.398767	-0.0520372	-0.906	-0.211861	-9.13079	0.01116	0.00825257	-0.0231734	0.621338	0.133057	1.15991	0.18182	0.612566	-0.0543056	0.767304	9.66487	1.35276	2.05267	0.0327382	0.011356	0.00613537	-1.00732	-0.315186	0.275635	-0.00759526	0.998979	-0.0366892	-0.0252558	-0.50643	-0.0983911	-9.75474	-0.00844301	0.0059178	-0.00766821	0.448975	-0.0314941	0.942383	
78	-0.219764	-0.649246	-0.189847	0.702952	-9.60413	0.243982	0.883702	-0.0611802	0.00501743	0.0102466	1.07446	0.134521	-0.325928	-0.13444	-0.123869	0.00256969	0.983146	-2.27196	0.376057	9.82093	0.0227446	0.0389309	-0.00752711	0.00366211	-0.0310059	-0.963867	-0.597529	0.153711	0.672942	0.408021	9.14626	3.57178	0.393484	0.0638033	-0.00114919	0.00998901	-1.0918	-0.20874	-0.313477	-0.709806	-0.26323	0.605143	-0.246348	9.78367	0.801928	1.28801	-0.0049033	0.00331702	0.0100695	-0.897217	-0.321289	-0.425781	0.511353	0.302293	-0.668525	0.447451	9.43803	-2.6154	-0.860851	0.0759174	-0.0174847	-0.0271301	-1.04126	-0.0649414	-0.0541992	0.499107	0.471342	-0.276358	0.672573	9.83026	0.723287	4.433	0.130257	0.0371956	-0.00362494	-0.952881	-0.314453	-0.387695	-0.0439735	0.408945	0.00837168	0.91146	7.65868	-0.147469	6.95622	-0.0483052	-0.0805224	-0.0277695	-0.980469	0.0744629	-0.320068	-0.342785	0.567809	0.159229	0.731258	9.65929	-1.46511	3.24462	-0.0293706	0.00642316	0.00263127	-1.01929	0.512939	0.104736	-0.0246147	0.914858	0.399659	-0.0519768	-0.909246	-0.20605	-9.14654	0.0131867	0.00744208	-0.0248518	0.62085	0.144531	1.15967	0.182249	0.612057	-0.0551423	0.767549	9.59104	1.48149	2.14512	-0.0573626	0.0256491	0.0184774	-1.00757	-0.310791	0.275635	-0.00696419	0.998981	-0.0367271	-0.0253012	-0.50629	-0.0669268	-9.73671	-0.017814	0.00251476	-0.00651497	0.451172	-0.03125	0.940186	
79	-0.22085	-0.649326	-0.190779	0.702285	-9.77932	0.170365	0.820635	-0.0608194	0.0245076	0.0123059	1.07642	0.141113	-0.328125	-0.134606	-0.124201	0.00320265	0.983079	-2.34824	0.492289	9.81616	0.00948819	0.0250849	-0.00716926	0.00170898	-0.0375977	-0.961182	-0.597579	0.153279	0.673135	0.40779	8.96045	3.55677	0.33991	0.0146857	0.0174171	-0.00677876	-1.10034	-0.208496	-0.304199	-0.709605	-0.263173	0.605204	-0.246837	9.58911	1.02525	1.20287	-0.00677513	0.00621415	0.0163106	-0.894531	-0.330078	-0.423584	0.510889	0.303362	-0.667977	0.448074	9.5161	-2.85393	-0.591297	0.1079	-0.0188343	-0.0420155	-1.04126	-0.0649414	-0.0563965	0.498717	0.472047	-0.275003	0.672923	9.80204	1.17853	4.41141	-0.0234468	0.0078341	-0.0504541	-0.957275	-0.314453	-0.381348	-0.0431339	0.409402	0.00768511	0.911302	7.66853	-0.273177	6.98467	-0.00471909	0.0127438	-0.0325453	-0.980469	0.0744629	-0.309326	-0.342975	0.567877	0.158702	0.73123	9.59692	-1.87718	3.25293	-0.00697725	0.0228454	-0.00117713	-1.02124	0.510742	0.114014	-0.0249086	0.914841	0.39966	-0.0521334	-0.90696	-0.22218	-9.09317	0.028715	0.0069318	-0.0206092	0.618408	0.144531	1.15747	0.182979	0.611778	-0.0564514	0.767502	9.6493	1.23545	2.15316	-0.0571986	0.0112542	0.0109347	-1.01172	-0.317383	0.275635	-0.00602365	0.998986	-0.036799	-0.0252254	-0.499879	-0.0875191	-9.76844	-0.0448513	0.0172965	-0.000975375	0.446777	-0.0358887	0.940186	
80	-0.221386	-0.650226	-0.191653	0.701045	-9.95437	0.0574183	0.967026	-0.0290907	0.0610253	0.00848991	1.07178	0.145508	-0.323975	-0.13459	-0.124077	0.00348964	0.983096	-2.36739	0.649959	9.91417	-0.0140451	0.00944455	-0.0236761	0.00170898	-0.0354004	-0.961182	-0.597635	0.152845	0.673432	0.407382	9.20871	3.59287	0.392122	0.0194105	0.00565578	-0.00763653	-1.09375	-0.212891	-0.304199	-0.709542	-0.26354	0.604905	-0.247359	9.74518	0.796682	1.43216	0.0605802	0.0187914	0.0099821	-0.897217	-0.323486	-0.425781	0.511115	0.304249	-0.668007	0.44717	9.38164	-2.89663	-0.492164	-0.0161868	-0.0240602	-0.039452	-1.03687	-0.0649414	-0.0495605	0.498815	0.472431	-0.274431	0.672815	9.75007	0.786923	4.59002	-0.014685	0.0147529	-0.0251394	-0.952881	-0.314453	-0.387695	-0.043195	0.407877	0.00802735	0.911979	7.56547	-0.134857	7.13845	0.0400606	0.0877413	-0.0214501	-0.978271	0.076416	-0.315918	-0.344121	0.567377	0.159965	0.730805	9.5589	-1.72237	3.34235	0.104409	0.00784681	-0.00827031	-1.01685	0.508789	0.102539	-0.0249416	0.914818	0.399703	-0.0521919	-0.907178	-0.200492	-9.14118	0.0145918	0.00561124	-0.0213878	0.618652	0.142334	1.15308	0.18362	0.611775	-0.057048	0.767307	9.64418	1.18209	2.05702	-0.0260877	0.00879256	-0.00171761	-1.00757	-0.308594	0.275635	-0.00529487	0.998982	-0.0371309	-0.0250821	-0.514494	-0.0422935	-9.71194	-0.0204435	0.0108972	0.00374769	0.442383	-0.0358887	0.940186	
81	-0.221084	-0.650477	-0.191573	0.700929	-10.0223	0.106079	1.08772	0.0210987	-0.0126095	-0.00890933	1.07886	0.138916	-0.328125	-0.134229	-0.123655	0.00361516	0.983198	-2.37724	0.58367	9.78761	-0.0239425	0.00339565	-0.0318457	0.00170898	-0.0354004	-0.961182	-0.597752	0.153583	0.673353	0.407063	9.14097	3.71599	0.356622	0.00519445	-0.00457591	0.0292009	-1.0918	-0.210938	-0.302002	-0.709897	-0.262856	0.605137	-0.246498	9.84473	0.614241	1.1931	-0.00628802	0.0121494	-0.0104553	-0.888184	-0.325684	-0.423584	0.511274	0.304266	-0.667737	0.44738	9.56885	-2.65522	-0.560454	0.00420103	0.0231532	-0.0277193	-1.03882	-0.0693359	-0.0541992	0.498693	0.472714	-0.274054	0.672861	9.88151	0.912695	4.5895	0.0101005	0.00975939	-0.0163067	-0.954834	-0.320801	-0.385498	-0.0435107	0.406567	0.00827043	0.912547	7.67355	-0.152266	6.95951	0.0366841	0.108479	-0.00823435	-0.980469	0.0744629	-0.320068	-0.344618	0.567282	0.1605	0.730527	9.59161	-1.36394	3.41611	0.00682274	0.00362683	-0.00905684	-1.01489	0.510742	0.104736	-0.0249111	0.914781	0.399786	-0.0522247	-0.916715	-0.240455	-9.11591	0.0105236	0.00527794	-0.0248556	0.623291	0.139893	1.15527	0.183417	0.612113	-0.0566945	0.767112	9.66914	1.39447	2.02305	0.0307082	0.000114933	-0.00315163	-1.00513	-0.312988	0.277832	-0.00504732	0.998979	-0.037182	-0.0251775	-0.505819	-0.0404165	-9.75297	0.00629924	0.00119617	-0.006626	0.449219	-0.0380859	0.944824	
82	-0.219942	-0.6492	-0.191223	0.702566	-9.89029	0.43046	1.00192	0.0343768	-0.0893679	-0.0525023	1.07397	0.145508	-0.330322	-0.133922	-0.123447	0.00380671	0.983266	-2.31684	0.481079	9.81205	0.00334926	-0.00164815	-0.0204853	0.00170898	-0.0397949	-0.963379	-0.59824	0.152936	0.673336	0.406617	9.00048	3.43098	0.314383	0.0761359	0.0269385	0.00937734	-1.0874	-0.210938	-0.304199	-0.709872	-0.263115	0.604958	-0.246733	9.60033	0.685805	1.24716	-0.000892594	0.00631653	-0.00352888	-0.892578	-0.323486	-0.421387	0.511616	0.303857	-0.667977	0.446909	9.37388	-2.76388	-0.573553	-0.0588154	0.0182749	-0.0174113	-1.03662	-0.0671387	-0.0495605	0.499282	0.472314	-0.274395	0.672566	9.77822	0.90906	4.32642	-0.0146306	0.0184959	-0.0318324	-0.952881	-0.31665	-0.387695	-0.0441447	0.404295	0.00869092	0.913521	7.63226	-0.261312	7.43748	0.0565241	0.0749301	-0.00137593	-0.976318	0.0786133	-0.318115	-0.343527	0.568142	0.159293	0.730636	9.59078	-1.83385	3.27415	-0.0674198	-0.00360277	-0.0217682	-1.01904	0.508545	0.107178	-0.0246871	0.914683	0.400043	-0.0520681	-0.89181	-0.225635	-9.13092	-0.00515114	0.00617545	-0.0198596	0.621094	0.135498	1.15527	0.184056	0.612369	-0.0569786	0.766734	9.74382	1.30799	2.17553	-0.0389485	-0.00360742	-0.0156904	-1.01196	-0.310791	0.275635	-0.00483494	0.99898	-0.0372306	-0.0250737	-0.498233	-0.0411147	-9.73164	-0.0124611	0.0157751	-0.00517496	0.442383	-0.0358887	0.942627	
83	-0.220071	-0.648406	-0.19117	0.703272	-9.69552	0.416819	0.920991	-0.0073388	-0.0876876	-0.0144572	1.07422	0.143311	-0.330322	-0.134014	-0.123623	0.00435679	0.983229	-2.23815	0.500784	9.92002	0.0346524	0.0240505	-0.00486824	0.00170898	-0.0397949	-0.96582	-0.598441	0.15257	0.673393	0.406365	9.11764	3.78395	0.406906	0.0389857	0.0208392	-0.00164019	-1.09399	-0.20874	-0.304199	-0.709717	-0.26362	0.604686	-0.247309	9.72202	0.74947	1.41563	0.0100038	0.00982302	0.00311994	-0.892578	-0.325684	-0.423584	0.511619	0.30437	-0.667691	0.446984	9.47789	-2.5923	-0.77729	0.0472559	-0.0135585	-0.0474821	-1.03418	-0.0759277	-0.0495605	0.499662	0.472452	-0.273824	0.672419	9.80228	1.04632	4.43162	-0.0417742	0.0146958	-0.0441781	-0.952881	-0.314453	-0.389893	-0.0448937	0.402644	0.00920636	0.914209	7.7422	-0.254936	6.30418	0.0696461	0.0699933	-0.0019191	-0.974121	0.0766602	-0.332764	-0.343647	0.568098	0.159633	0.730539	9.62275	-2.00231	3.17423	0.0334441	0.00569086	-0.0219013	-1.0127	0.510986	0.104736	-0.0245117	0.914657	0.400118	-0.0520383	-0.908063	-0.22563	-9.12311	-0.00201374	0.00527567	-0.0238552	0.623291	0.142334	1.15527	0.184778	0.612571	-0.0571794	0.766384	9.65392	1.32039	2.06217	-0.014257	0.00599929	-0.0128287	-1.01196	-0.312988	0.277832	-0.00483494	0.99898	-0.0372306	-0.0250737	-0.498233	-0.0411147	-9.73164	-0.0124611	0.0157751	-0.00517496	0.442383	-0.0358887	0.942627	
84	-0.220649	-0.647413	-0.191218	0.703993	-9.63587	0.338121	0.84138	-0.0211434	-0.0414627	0.00753857	1.07202	0.141113	-0.334717	-0.134365	-0.123515	0.0050578	0.983191	-2.29883	0.555738	9.90028	0.0159496	0.0147168	-0.000420344	0.00390625	-0.0375977	-0.961182	-0.598484	0.152682	0.673337	0.406353	9.14263	3.47364	0.311373	0.0389569	0.000960384	0.0167044	-1.09155	-0.215088	-0.301758	-0.709529	-0.263868	0.604509	-0.248013	9.70606	0.756959	1.20279	0.0526255	0.0113795	0.0173931	-0.892578	-0.325684	-0.427979	0.511688	0.304603	-0.66812	0.446104	9.53599	-2.78376	-0.560411	-0.0177098	-0.0158335	-0.0330809	-1.03882	-0.0715332	-0.0541992	0.499527	0.472864	-0.273089	0.672529	9.81183	0.924808	4.69481	0.041918	0.0180095	-0.0197319	-0.954834	-0.320801	-0.385498	-0.045296	0.401612	0.00976894	0.914637	7.48171	-0.126819	7.28124	0.0746526	0.10084	-0.00851401	-0.974121	0.0766602	-0.332764	-0.345137	0.567287	0.161294	0.730102	9.5593	-1.32286	3.2941	0.100239	0.0159784	-0.00825817	-1.01904	0.508789	0.104736	-0.0246798	0.914428	0.400599	-0.0522659	-0.910091	-0.20314	-9.17099	0.0263256	0.00135082	-0.0272859	0.622803	0.148926	1.16406	0.184698	0.612667	-0.0569111	0.766347	9.69002	1.48233	2.06357	0.0234241	0.0118958	-0.00547779	-1.00977	-0.312988	0.268799	-0.00396902	0.99899	-0.0372842	-0.0247497	-0.501026	-0.0451335	-9.74602	-0.0318206	0.017604	-0.000636594	0.447021	-0.0424805	0.947266	
85	-0.221176	-0.647536	-0.19117	0.703727	-9.61468	0.267482	0.943874	-0.0101622	0.0147556	0.0215358	1.07422	0.141113	-0.33252	-0.134806	-0.122958	0.0056809	0.983197	-2.17608	0.510952	9.87483	0.00924717	-0.000980836	0.000597282	0.00170898	-0.0375977	-0.963623	-0.598686	0.152138	0.673592	0.405836	9.08687	3.54407	0.384154	0.0281113	0.00460355	-0.00756378	-1.0918	-0.206543	-0.304443	-0.709462	-0.263903	0.604512	-0.248162	9.68611	0.902229	1.30876	0.012736	0.00469819	0.00873726	-0.89502	-0.319336	-0.416992	0.511781	0.305089	-0.667695	0.446301	9.43336	-2.69784	-0.40363	0.0022575	0.0211586	-0.0145642	-1.03882	-0.0715332	-0.0541992	0.499691	0.472708	-0.273261	0.672447	9.76581	0.764605	4.56113	-0.0214256	0.0143429	-0.0178975	-0.950684	-0.318604	-0.383301	-0.0457198	0.400769	0.0106145	0.914976	7.60069	-0.0488605	7.01453	0.095424	0.0834292	-0.0156303	-0.976318	0.0788574	-0.328613	-0.34429	0.56794	0.160091	0.73026	9.65916	-1.56631	3.28331	-0.0955092	0.00894111	-0.0119133	-1.0127	0.515137	0.106934	-0.025039	0.914375	0.400668	-0.0524989	-0.886863	-0.204229	-9.15389	0.045299	0.00291573	-0.0262077	0.623291	0.139893	1.15527	0.185325	0.612599	-0.0576268	0.766196	9.66189	1.3333	2.05554	-0.0395352	0.00830538	0.00331653	-1.00977	-0.312988	0.275635	-0.00322442	0.998994	-0.0373435	-0.0246344	-0.509983	-0.00324695	-9.72336	-0.00350494	0.00380382	-0.0084018	0.449219	-0.0402832	0.942627	
