40	Head	00b4120a												Throax	00b411e8												LUpArm	00b411d9												LFoArm	00b41148												RUpArm	00b411db												RFoArm	00b41204												Waist	00b411f7												Lthigh	00b411f4												Lshank	00b4111b												Rthigh	00b411c8												Rshank	00b411ee												
PacketCount	q0	q1	q2	q3	accX	accY	accZ	gyrX	gyrY	gyrZ	magX	magY	magZ	q0	q1	q2	q3	accX	accY	accZ	gyrX	gyrY	gyrZ	magX	magY	magZ	q0	q1	q2	q3	accX	accY	accZ	gyrX	gyrY	gyrZ	magX	magY	magZ	q0	q1	q2	q3	accX	accY	accZ	gyrX	gyrY	gyrZ	magX	magY	magZ	q0	q1	q2	q3	accX	accY	accZ	gyrX	gyrY	gyrZ	magX	magY	magZ	q0	q1	q2	q3	accX	accY	accZ	gyrX	gyrY	gyrZ	magX	magY	magZ	q0	q1	q2	q3	accX	accY	accZ	gyrX	gyrY	gyrZ	magX	magY	magZ	q0	q1	q2	q3	accX	accY	accZ	gyrX	gyrY	gyrZ	magX	magY	magZ	q0	q1	q2	q3	accX	accY	accZ	gyrX	gyrY	gyrZ	magX	magY	magZ	q0	q1	q2	q3	accX	accY	accZ	gyrX	gyrY	gyrZ	magX	magY	magZ	q0	q1	q2	q3	accX	accY	accZ	gyrX	gyrY	gyrZ	magX	magY	magZ	
0	-0.220719	-0.648844	-0.187911	0.703544	-9.76659	0.23193	1.13788	0.0184971	0.00666182	-0.0212754	1.07446	0.136719	-0.33252	-0.135512	-0.122261	-0.00251251	0.9832	-2.19449	0.291438	9.77274	0.0430206	-0.0166237	-0.0179615	0.00537109	-0.0222168	-0.96167	-0.601908	0.148756	0.671882	0.405158	9.08998	3.67899	0.580233	0.0617777	-0.00591792	0.0238112	-1.0896	-0.210938	-0.308838	-0.708015	-0.26867	0.603694	-0.24917	9.75415	0.762178	1.19586	0.039921	0.0502768	0.0247332	-0.894287	-0.334473	-0.421143	0.522356	0.283905	-0.67511	0.43677	9.5264	-2.66023	-0.446186	-0.0223477	0.036409	-0.0276815	-1.03955	-0.0493164	-0.0725098	0.520021	0.454434	-0.294556	0.660534	9.78532	0.879232	4.61606	-0.0388135	0.0525241	-0.0109439	-0.955566	-0.301514	-0.400879	-0.0448712	0.407945	0.0145104	0.911788	7.78463	-0.105784	7.30746	-0.0124322	0.0374178	-0.0397775	-0.989014	0.076416	-0.30957	-0.337764	0.571093	0.148516	0.733288	9.65942	-1.58762	3.18945	0.0577938	-0.00367353	-0.00599659	-1.0127	0.510742	0.114014	-0.0283031	0.893098	0.446109	-0.0506163	-0.875429	-0.150725	-9.15649	0.0131028	0.00425929	-0.0260191	0.621338	0.130859	1.15552	0.179721	0.617892	-0.0505207	0.763778	9.70543	1.48684	2.05031	-0.0287796	0.00334112	-0.00532924	-1.00977	-0.308594	0.280029	-0.00588701	0.999146	-0.0323084	-0.0250784	-0.532854	-0.0729967	-9.73012	-0.0117044	0.00793607	-0.00168139	0.451172	-0.0290527	0.94458	
1	-0.220543	-0.648622	-0.187997	0.703781	-9.73609	0.16253	1.13079	-0.00103348	-0.0193892	-0.0154224	1.0769	0.132568	-0.330322	-0.134939	-0.122223	-0.0020093	0.983285	-2.10602	0.477892	9.89617	0.00467672	0.0109737	-0.0447367	0.00317383	-0.0200195	-0.964111	-0.60171	0.149507	0.671871	0.405194	9.03851	3.46645	0.428321	-0.0304197	-0.026514	0.0247514	-1.09399	-0.210693	-0.320312	-0.708402	-0.268134	0.603127	-0.25002	9.67968	0.862717	1.3064	0.00782529	0.0427931	0.02734	-0.894531	-0.330322	-0.418945	0.523329	0.282399	-0.675454	0.436049	9.54764	-2.80773	-0.395733	-0.0641641	0.0522224	0.0124649	-1.03979	-0.0471191	-0.0678711	0.520422	0.453233	-0.295317	0.660704	9.79706	1.04796	4.633	-0.066356	0.0270245	0.0072799	-0.959717	-0.305664	-0.396484	-0.0439629	0.40929	0.0140204	0.911237	8.14521	-0.148669	6.33596	-0.00848228	0.0579859	-0.0351246	-0.984863	0.076416	-0.30957	-0.337689	0.571406	0.148338	0.733115	9.59036	-1.7826	3.15275	-0.00991077	0.00144661	-0.0117554	-1.01904	0.512939	0.121094	-0.0283148	0.892992	0.4463	-0.0507933	-0.913488	-0.18129	-9.11817	0.0117489	0.00303465	-0.0262941	0.623535	0.133057	1.16211	0.180407	0.617859	-0.0511714	0.7636	9.68329	1.30407	1.96928	-0.0325994	0.00365131	-0.00165714	-1.0144	-0.308594	0.277832	-0.00594999	0.999144	-0.0323258	-0.0251206	-0.531918	-0.0746428	-9.75198	0.0134548	0.00440504	-0.00701441	0.448975	-0.0336914	0.949219	
2	-0.219513	-0.648481	-0.188345	0.704139	-9.73228	0.191288	1.12852	0.0261927	0.00218349	-0.0493938	1.08105	0.138916	-0.325928	-0.134066	-0.121842	-0.00127759	0.983453	-2.10178	0.461492	9.89767	0.0290809	0.00835884	-0.0521934	0.0012207	-0.0266113	-0.96167	-0.60139	0.150151	0.672055	0.405126	9.21372	3.38786	0.55539	-0.0210763	-0.0148929	0.00252591	-1.0896	-0.213135	-0.315674	-0.708664	-0.267392	0.602969	-0.25045	9.67487	0.911289	1.36249	-0.0161069	0.0218749	0.0288681	-0.894531	-0.332275	-0.421143	0.52382	0.280909	-0.675713	0.436021	9.44731	-2.59818	-0.563537	-0.0469999	0.0287519	0.0117443	-1.0376	-0.0471191	-0.074707	0.520426	0.452516	-0.296605	0.660615	9.74986	0.998183	4.51126	-0.00538767	0.00145323	0.0215425	-0.958008	-0.294922	-0.401123	-0.043728	0.405694	0.0144343	0.912848	7.76482	-0.135262	7.03076	0.0254448	0.163638	-0.0288956	-0.984375	0.0700684	-0.317871	-0.337982	0.571334	0.148867	0.732928	9.65738	-1.73277	3.19916	0.0261737	0.0111329	-0.0198482	-1.01489	0.512939	0.121094	-0.0280716	0.892938	0.446427	-0.0507598	-0.895948	-0.153729	-9.13253	0.00721547	0.00451107	-0.0225608	0.621338	0.133057	1.16431	0.18007	0.617691	-0.0508791	0.763835	9.71923	1.32866	1.96943	0.016996	0.0188592	0.00676442	-1.01196	-0.308594	0.275635	-0.00603192	0.99914	-0.0323549	-0.0252043	-0.537959	-0.0771796	-9.747	0.00761634	0.00342794	-0.00805862	0.453613	-0.0334473	0.942383	
3	-0.217926	-0.64861	-0.188107	0.704577	-9.75881	0.383227	1.15419	0.0564804	-0.00539499	-0.0320625	1.07642	0.143311	-0.334717	-0.13369	-0.121642	-0.00122547	0.983529	-2.10656	0.473023	9.91828	-0.00392626	-0.000776248	-0.0487045	0.00561523	-0.0244141	-0.959229	-0.60124	0.150342	0.672137	0.405141	9.23081	3.37004	0.443052	-0.00568533	-0.0143509	0.00392698	-1.0918	-0.210938	-0.313477	-0.708496	-0.266805	0.603316	-0.250716	9.67992	0.671739	1.28883	0.011274	0.00143932	0.0299469	-0.894531	-0.330078	-0.423584	0.523905	0.280335	-0.676001	0.435842	9.4644	-2.91255	-0.493297	-0.04582	0.0152144	0.013239	-1.04199	-0.0471191	-0.074707	0.520086	0.452211	-0.29782	0.660544	9.73522	0.74678	4.52245	-0.0232483	-0.0118465	0.0185762	-0.962402	-0.297119	-0.401123	-0.0436541	0.403718	0.0143085	0.913729	7.75861	-0.160287	6.84647	0.0064396	0.0688016	-0.0200879	-0.980469	0.0744629	-0.328613	-0.337474	0.571272	0.148321	0.733322	9.64463	-1.79173	3.16777	-0.0233913	0.0354999	-0.0277483	-1.01465	0.510742	0.121094	-0.0279853	0.892912	0.446487	-0.050749	-0.898382	-0.155362	-9.15625	0.00488482	0.00624977	-0.0232674	0.625732	0.135498	1.15552	0.179776	0.617571	-0.050681	0.764014	9.71933	1.32755	2.03571	0.0133713	0.0153798	0.00736469	-1.01196	-0.308594	0.280029	-0.00605254	0.999139	-0.0323979	-0.0251975	-0.545103	-0.108639	-9.76659	0.00634034	0.00807037	-0.00501163	0.453613	-0.0356445	0.947021	
4	-0.217146	-0.648565	-0.187067	0.705136	-9.76311	0.47658	1.06113	0.0497867	-0.0258357	0.00629141	1.08105	0.136963	-0.33252	-0.132995	-0.121647	-0.00099693	0.983623	-2.19439	0.358998	9.76667	0.000113568	0.0150152	-0.04341	0.0012207	-0.0222168	-0.96167	-0.600708	0.150683	0.672271	0.405583	9.07137	3.37747	0.389318	-0.0225952	-0.0125019	-0.0212657	-1.09814	-0.210693	-0.317871	-0.708255	-0.266217	0.60389	-0.250642	9.7715	0.572743	1.34434	-0.0289086	-0.0133965	0.0160154	-0.890381	-0.325684	-0.425781	0.523645	0.279424	-0.676409	0.436107	9.43703	-2.88872	-0.534189	-0.0306859	0.0102922	0.0262527	-1.03345	-0.0383301	-0.074707	0.519313	0.452277	-0.298659	0.660729	9.77977	0.984087	4.53439	-0.00894335	-0.0121513	0.0207231	-0.958252	-0.292725	-0.39917	-0.0436793	0.401793	0.0144003	0.914575	7.58085	-0.119772	7.076	0.0169231	0.0931157	-0.0213789	-0.97168	0.0744629	-0.324219	-0.336067	0.572023	0.146367	0.733775	9.6149	-1.68995	3.22656	-0.123307	0.0215971	-0.00663989	-1.01709	0.517334	0.118652	-0.0278122	0.892879	0.44658	-0.0505964	-0.900723	-0.173466	-9.10326	0.00374573	0.0125399	-0.0229343	0.616211	0.139893	1.15967	0.179043	0.617352	-0.0499661	0.76441	9.69321	1.52664	2.10602	0.0321775	0.0313461	0.0126017	-1.01001	-0.306396	0.280029	-0.00595738	0.999143	-0.0323746	-0.0250744	-0.519749	-0.0922931	-9.74337	0.00287647	0.0101447	-0.00855584	0.455811	-0.0356445	0.942627	
5	-0.21713	-0.648367	-0.186593	0.705448	-9.79349	0.479287	0.953585	0.0281217	-0.039069	0.0146347	1.07446	0.138916	-0.33252	-0.132674	-0.12191	-0.000201612	0.983634	-2.27786	0.413373	9.81734	0.0300681	0.00893091	-0.0239849	0.00366211	-0.0310059	-0.963867	-0.600043	0.150486	0.672836	0.405702	9.19513	3.469	0.530015	0.00108028	-0.0159404	-0.0299893	-1.0896	-0.210938	-0.306641	-0.707922	-0.266379	0.604001	-0.251139	9.72947	0.612916	1.37674	0.0402759	-0.00958768	0.0298255	-0.892578	-0.323486	-0.419189	0.523279	0.278525	-0.676801	0.436513	9.40059	-2.87473	-0.514311	-0.0166506	0.0083685	0.0302036	-1.03979	-0.0427246	-0.0725098	0.519152	0.45219	-0.299298	0.660626	9.77606	0.823394	4.53572	-0.0296677	-0.0157064	0.0141448	-0.960449	-0.290527	-0.39917	-0.0434455	0.401076	0.0140995	0.914905	7.54447	-0.121326	7.10844	-0.00979767	0.0778689	-0.0268197	-0.978271	0.0766602	-0.328613	-0.335758	0.57231	0.145616	0.733842	9.60707	-1.40105	3.2706	-0.0618872	0.0179705	0.00131738	-1.01489	0.512939	0.123535	-0.0277209	0.892873	0.44663	-0.0503064	-0.894773	-0.126063	-9.20411	0.0133562	0.0172298	-0.019109	0.621094	0.135254	1.16431	0.179061	0.617119	-0.0502878	0.764573	9.62352	1.62475	2.16732	-0.0223626	0.0313049	0.0215335	-1.00537	-0.308594	0.277832	-0.00590394	0.999147	-0.0323415	-0.0249975	-0.528436	-0.0798198	-9.73427	0.00345815	0.0099887	-0.00962253	0.455811	-0.0356445	0.942627	
6	-0.217363	-0.648028	-0.186624	0.70568	-9.6825	0.496084	0.852493	-0.023525	-0.00877147	-0.00227503	1.07202	0.141113	-0.33252	-0.132695	-0.121942	0.000491612	0.983627	-2.3553	0.553526	9.77983	0.0163552	0.0226264	-0.0110105	0.00341797	-0.0288086	-0.961426	-0.599837	0.149232	0.673476	0.405408	9.11342	3.61247	0.315388	0.0491601	-9.32234e-05	-0.0339141	-1.09155	-0.215088	-0.313232	-0.707047	-0.266691	0.604559	-0.251932	9.81567	0.685819	1.15242	0.055787	-0.0251592	0.0265616	-0.892578	-0.325684	-0.421387	0.523039	0.277567	-0.677316	0.436611	9.344	-3.06283	-0.606495	0.00110289	-0.00381826	0.0184366	-1.03784	-0.0383301	-0.0793457	0.518774	0.4522	-0.300227	0.660494	9.79331	0.876848	4.38964	5.07598e-06	-0.00867659	0.0058431	-0.958252	-0.292725	-0.396973	-0.0430088	0.398851	0.0138005	0.915903	7.48885	-0.16526	7.14776	0.0101191	0.105105	-0.0307075	-0.982422	0.0722656	-0.326416	-0.334234	0.573016	0.142921	0.734516	9.59641	-1.70619	3.20401	-0.129274	0.0442095	-0.00556758	-1.01904	0.510742	0.128174	-0.0279343	0.892806	0.446748	-0.0503329	-0.9011	-0.171658	-9.15453	0.0221424	0.00878973	-0.0239065	0.623535	0.133057	1.15771	0.179758	0.616205	-0.0518508	0.765042	9.61939	1.30739	2.12222	-0.0683174	0.0463312	0.0240796	-1.01221	-0.306396	0.280029	-0.00583101	0.999142	-0.0323751	-0.0251476	-0.541386	-0.0884193	-9.73695	-0.00329801	-0.00239468	-0.00582553	0.453613	-0.0334473	0.944824	
7	-0.218018	-0.648275	-0.187608	0.70499	-9.79323	0.35099	0.916328	-0.0520501	0.0249842	0.00519303	1.07446	0.138916	-0.334717	-0.132768	-0.121842	0.000805571	0.983629	-2.30426	0.489648	9.80838	0.00177309	0.0124832	-0.0154629	0.0078125	-0.0266113	-0.959229	-0.599453	0.148473	0.673736	0.405822	9.11153	3.50128	0.2658	0.0247851	0.00399513	-0.0338612	-1.0896	-0.213135	-0.308838	-0.706359	-0.267104	0.60509	-0.252148	9.7368	0.58595	1.26871	0.0146061	-0.0259547	0.00640726	-0.894531	-0.33252	-0.418945	0.522429	0.277371	-0.677572	0.437069	9.47087	-2.86522	-0.510889	-0.00623933	-0.00142973	0.0168983	-1.03564	-0.0383301	-0.0725098	0.518395	0.452578	-0.300532	0.660394	9.82245	0.938366	4.52503	-0.00302454	-0.0135718	-0.0104036	-0.9646	-0.294922	-0.396973	-0.0432094	0.397116	0.0142771	0.91664	7.54349	-0.139804	7.13562	0.0497445	0.0916912	-0.0155443	-0.973877	0.0744629	-0.337158	-0.333913	0.5729	0.142202	0.734892	9.60904	-2.15257	3.20206	0.0289661	0.0362309	-0.0157913	-1.01709	0.512939	0.123535	-0.0279082	0.89277	0.446821	-0.0503423	-0.892877	-0.164182	-9.13918	0.0112493	0.00793722	-0.0231982	0.623535	0.135498	1.15991	0.179594	0.615677	-0.0521957	0.765482	9.68149	1.0203	2.14732	0.0260022	0.0370255	0.0185213	-1.01001	-0.304199	0.273193	-0.00571483	0.999136	-0.0324396	-0.0253238	-0.527556	-0.092994	-9.76873	0.00555507	0.0031595	-0.00565887	0.453369	-0.0290527	0.942383	
8	-0.218673	-0.648599	-0.188214	0.704328	-9.82205	0.181502	0.953399	-0.0236129	0.0229147	0.0108019	1.07666	0.138916	-0.336914	-0.132854	-0.122123	0.00123846	0.983582	-2.34256	0.529757	9.73542	0.00761714	0.0269957	-0.012544	0.00561523	-0.0266113	-0.959229	-0.599267	0.147837	0.673822	0.406186	9.04171	3.66794	0.241644	-0.00729191	0.00895186	-0.0280071	-1.09155	-0.217285	-0.308594	-0.705678	-0.267827	0.605416	-0.252504	9.73898	0.787453	1.21228	0.0149421	-0.0228585	-0.00465671	-0.901367	-0.328125	-0.412598	0.522462	0.276573	-0.678238	0.436503	9.38038	-3.01691	-0.52188	-0.044116	-0.00192418	0.00975465	-1.04028	-0.0361328	-0.074707	0.518297	0.45276	-0.301337	0.65998	9.80722	0.786573	4.45147	-0.00327236	-0.0148068	-0.00909936	-0.962402	-0.292725	-0.392578	-0.0439779	0.395626	0.0149929	0.917236	7.49352	-0.164384	7.17606	0.0647563	0.0865845	0.000960907	-0.976074	0.0722656	-0.339111	-0.334723	0.572073	0.143072	0.734999	9.5659	-1.51299	3.31611	0.0412006	0.0313282	-0.0221427	-1.01685	0.508545	0.125732	-0.0278043	0.892723	0.446933	-0.0502435	-0.897694	-0.154816	-9.12585	0.00241034	0.0109813	-0.02189	0.618896	0.135254	1.16211	0.178734	0.615637	-0.0512108	0.765782	9.66771	1.41911	2.18735	0.0425667	0.0234026	0.00337191	-1.01221	-0.304199	0.273193	-0.00578224	0.999137	-0.032377	-0.0253749	-0.526254	-0.0850816	-9.75617	0.00831375	0.00585888	-0.011425	0.453613	-0.0334473	0.942383	
9	-0.21852	-0.648905	-0.188253	0.704082	-9.91525	0.269343	0.953022	0.0104569	0.00457019	-0.00658006	1.07007	0.138916	-0.334717	-0.133213	-0.122203	0.00130292	0.983524	-2.3473	0.505349	9.80959	-0.0122316	0.0168728	-0.00179319	0.00146484	-0.0288086	-0.963867	-0.599164	0.147047	0.673934	0.406438	9.11947	3.55189	0.354274	0.0261321	0.02193	-0.0308279	-1.09595	-0.219482	-0.310791	-0.705131	-0.2686	0.605715	-0.252494	9.74345	0.714179	1.24174	0.0348346	-0.0246132	-0.00999775	-0.892578	-0.328125	-0.414795	0.522048	0.276526	-0.678428	0.436731	9.35366	-2.86247	-0.703051	0.0148247	-0.0113375	-0.00613845	-1.04028	-0.0317383	-0.0725098	0.51832	0.453221	-0.301683	0.659487	9.79384	0.918038	4.36513	0.00643557	-0.011366	-0.0263231	-0.960205	-0.294922	-0.392578	-0.0449652	0.394315	0.0155427	0.917743	7.44398	-0.0438711	7.14547	0.0470766	0.0629792	0.00995409	-0.976074	0.0766602	-0.339355	-0.333964	0.572311	0.142331	0.735303	9.53295	-1.68646	3.23734	-0.0550984	0.0206184	-0.0242632	-1.0127	0.510742	0.114014	-0.0277915	0.892655	0.447068	-0.0502576	-0.897916	-0.151275	-9.14558	0.00994223	0.00572733	-0.0250989	0.616455	0.135254	1.16211	0.179074	0.615273	-0.0517699	0.765958	9.65781	1.42505	2.19412	-0.0437977	0.0248706	0.0109689	-1.01685	-0.302002	0.273193	-0.00578943	0.999138	-0.0323091	-0.0254254	-0.529533	-0.0852316	-9.72955	0.000702444	0.00451164	-0.0106151	0.451172	-0.0290527	0.940186	
10	-0.218516	-0.64884	-0.1885	0.704077	-9.88179	0.41289	0.96637	-0.0204378	-0.00202853	-0.00122291	1.07446	0.136719	-0.323975	-0.133481	-0.122082	0.00126228	0.983503	-2.39054	0.387871	9.86746	-0.0163056	0.00739501	0.00189269	0.00585938	-0.0332031	-0.958984	-0.59926	0.146008	0.674057	0.406469	9.07464	3.67109	0.427168	0.0258439	0.019513	-0.0220035	-1.09155	-0.223877	-0.310791	-0.70458	-0.269399	0.606017	-0.252456	9.74023	0.746211	1.23961	0.0206586	-0.0248513	-0.0112272	-0.901367	-0.328125	-0.4104	0.521857	0.276667	-0.678597	0.436608	9.39592	-3.03529	-0.711161	-0.00271797	-0.0182672	-0.0166251	-1.03589	-0.0317383	-0.0725098	0.518321	0.453694	-0.301402	0.659289	9.7914	0.873138	4.45233	0.018789	0.00378229	-0.031174	-0.960205	-0.292725	-0.396973	-0.0460135	0.3933	0.0162874	0.918114	7.44621	-0.239998	7.13245	0.0747096	0.0622809	0.00903142	-0.976318	0.0766602	-0.345703	-0.333932	0.572044	0.142516	0.735489	9.59156	-1.94919	3.23438	0.0444953	0.0253665	-0.0233072	-1.01465	0.510742	0.118896	-0.0274877	0.8926	0.447195	-0.050262	-0.894498	-0.14743	-9.15803	0.00281857	0.00270465	-0.0223868	0.618896	0.133057	1.15991	0.179276	0.615182	-0.0521743	0.765956	9.65878	1.10549	2.08131	-0.0176479	0.006914	0.00546202	-1.0166	-0.306396	0.270996	-0.00585526	0.999133	-0.0323221	-0.0255938	-0.546786	-0.0848905	-9.74121	0.00616939	9.61041e-06	-0.00852023	0.453613	-0.0356445	0.944824	
11	-0.219477	-0.6485	-0.18915	0.703918	-9.78629	0.287226	1.02827	-0.0521529	-0.0140573	0.00903639	1.07446	0.138916	-0.328125	-0.134394	-0.121572	0.00130051	0.983441	-2.25644	0.402377	9.90573	-0.00401707	0.00395914	0.012473	0.00561523	-0.0288086	-0.963867	-0.599353	0.144902	0.674159	0.406558	9.04413	3.58874	0.389583	0.0313351	0.0232473	-0.0301145	-1.08716	-0.223877	-0.310791	-0.703818	-0.270345	0.606335	-0.252808	9.65179	0.884604	1.26753	0.0345432	-0.0288443	0.00133057	-0.89917	-0.325928	-0.4104	0.521266	0.277563	-0.678525	0.436858	9.4433	-2.85393	-0.584911	0.0370098	-0.0192156	-0.0288406	-1.04248	-0.0317383	-0.0678711	0.518089	0.454322	-0.301037	0.659205	9.78878	1.00649	4.40868	0.00719516	-0.00408151	-0.0259583	-0.958008	-0.294922	-0.394775	-0.0472907	0.392072	0.0173982	0.918553	7.5103	-0.172798	7.23651	0.0921591	0.0550371	0.00829413	-0.973877	0.0744629	-0.354004	-0.335198	0.570697	0.144032	0.735664	9.55992	-1.7424	3.22124	0.101336	0.0451221	-0.0245931	-1.01709	0.512939	0.116455	-0.0274657	0.89255	0.447283	-0.0503784	-0.882917	-0.146757	-9.13957	0.0141792	-0.000580772	-0.0260068	0.616455	0.135254	1.15527	0.178265	0.615411	-0.0508301	0.766099	9.67738	1.40376	2.2088	0.0713235	0.019282	0.00336684	-1.01025	-0.299805	0.270752	-0.00590624	0.99913	-0.0323234	-0.0256922	-0.545482	-0.0799987	-9.76369	0.00671947	0.00285053	-0.00779154	0.453125	-0.0268555	0.94458	
12	-0.220728	-0.648016	-0.189756	0.703809	-9.71153	0.189825	1.00897	-0.0521118	-0.0189536	0.0183809	1.07007	0.136719	-0.33252	-0.134799	-0.121437	0.00113056	0.983403	-2.20051	0.416413	9.84655	-0.0280498	0.00731351	0.0115378	0.00366211	-0.0310059	-0.958984	-0.599427	0.144543	0.674242	0.406439	9.01906	3.66708	0.452149	0.0308541	0.0143491	-0.0120504	-1.08301	-0.226074	-0.315186	-0.703007	-0.271179	0.606682	-0.253338	9.72419	0.708903	1.17835	0.0786019	-0.0235911	0.0182764	-0.89917	-0.330322	-0.405762	0.520883	0.27793	-0.67854	0.437058	9.37374	-2.8194	-0.630673	0.015006	-0.00971485	-0.0118434	-1.04248	-0.0339355	-0.0678711	0.517901	0.454951	-0.300901	0.658982	9.81084	0.985293	4.4471	0.0356536	-0.0016355	-0.0245967	-0.9646	-0.290527	-0.390625	-0.0480987	0.390957	0.0181629	0.918972	7.51532	-0.0311373	7.07165	0.0513799	0.0534391	0.00747813	-0.973633	0.0700684	-0.347656	-0.335914	0.570061	0.145321	0.735578	9.60724	-1.42457	3.24606	0.0361846	0.0187627	-0.0254619	-1.01465	0.510742	0.111816	-0.027415	0.892451	0.447469	-0.0505131	-0.905256	-0.140131	-9.12779	0.0118984	0.00557324	-0.0248697	0.623291	0.137695	1.15991	0.17836	0.615262	-0.0510049	0.766185	9.69336	1.47937	2.1097	-0.035004	0.0159251	0.00460955	-1.0144	-0.308594	0.261719	-0.00593551	0.999129	-0.0323002	-0.0257398	-0.546819	-0.091211	-9.76298	0.00630934	0.00342301	-0.00948553	0.453613	-0.0356445	0.947021	
13	-0.221348	-0.647805	-0.189905	0.703768	-9.87675	0.0764432	0.919513	-0.0448495	-0.0198326	0.0239666	1.07666	0.138916	-0.330322	-0.135438	-0.120961	0.00112565	0.983374	-2.28472	0.482976	9.836	-0.039535	-0.0197558	0.0011255	0.00341797	-0.0244141	-0.96167	-0.600088	0.142474	0.674372	0.405978	9.13657	3.7899	0.391381	0.0723737	0.0587374	-0.0379392	-1.09375	-0.22583	-0.317627	-0.702099	-0.271986	0.607088	-0.254017	9.75135	0.725976	1.14013	0.0223235	-0.0285381	0.00550928	-0.901367	-0.328125	-0.403809	0.520534	0.278263	-0.678693	0.437024	9.38695	-2.89257	-0.598452	0.00570985	-0.0111552	-0.0112857	-1.04028	-0.0339355	-0.0725098	0.517993	0.455252	-0.301239	0.658547	9.84178	0.773323	4.36902	-0.0150036	-0.00982905	-0.0230729	-0.956055	-0.292725	-0.388428	-0.0483322	0.390864	0.01816	0.918999	7.40904	-0.0500012	7.33442	0.0249513	0.0223406	0.000173026	-0.974121	0.0810547	-0.345703	-0.335589	0.569979	0.145108	0.735831	9.55563	-1.71052	3.29601	-0.0231651	0.033361	-0.0332779	-1.01489	0.512939	0.116455	-0.0273848	0.892403	0.447569	-0.0504812	-0.892375	-0.151717	-9.13754	0.00710297	0.00624383	-0.0235676	0.618896	0.135254	1.15771	0.178673	0.615118	-0.051497	0.766194	9.66584	1.24903	2.1227	-0.0457937	0.0157244	0.00979362	-1.01221	-0.304199	0.275391	-0.0060623	0.999133	-0.0322092	-0.0256864	-0.552066	-0.0911671	-9.74717	0.00743813	0.00558305	-0.00801361	0.451172	-0.0336914	0.937988	
14	-0.221726	-0.647678	-0.190123	0.703707	-9.73256	0.121755	0.976895	-0.0146397	0.00971189	0.00145579	1.07666	0.136719	-0.328125	-0.135872	-0.12022	0.00129853	0.983405	-2.19608	0.316894	9.71401	0.02745	-0.00611517	0.00113921	0.00341797	-0.0288086	-0.961426	-0.600155	0.141471	0.674673	0.405728	8.90824	3.62381	0.433348	0.0312879	0.0053662	-0.0238216	-1.08936	-0.226074	-0.312988	-0.701801	-0.272281	0.607267	-0.254097	9.63621	0.657784	1.05095	0.025365	-0.0227195	0.000332462	-0.90332	-0.336914	-0.401367	0.519952	0.278651	-0.67881	0.437288	9.46807	-2.88143	-0.673191	0.0320038	-0.0169802	-0.0128528	-1.04028	-0.0317383	-0.0656738	0.517622	0.455734	-0.300814	0.658699	9.82877	0.975924	4.46965	0.0629773	0.00249015	-0.0165874	-0.958008	-0.294922	-0.388184	-0.0489549	0.390943	0.0181352	0.918933	7.48342	-0.179459	7.4051	0.0200924	0.00887799	0.00343613	-0.971924	0.0766602	-0.3479	-0.335776	0.569727	0.145648	0.735834	9.61066	-1.86418	3.2914	0.0731437	0.0124768	-0.0234657	-1.0127	0.512939	0.114014	-0.0271815	0.892391	0.447614	-0.0504128	-0.905029	-0.167853	-9.13153	-0.00522822	0.00640111	-0.0212182	0.625977	0.133057	1.15771	0.178572	0.614813	-0.0514574	0.766466	9.70129	1.27606	2.09425	0.0318448	0.031099	0.00668856	-1.01025	-0.302002	0.266357	-0.00588104	0.999134	-0.0321957	-0.0257056	-0.543827	-0.0918086	-9.72809	-0.00990586	0.00631595	-0.00898494	0.451172	-0.0336914	0.942383	
15	-0.221863	-0.647793	-0.190227	0.70353	-9.82654	0.0790112	1.02615	-0.00176714	-0.00339643	0.00293135	1.07642	0.141113	-0.328125	-0.136075	-0.120023	0.0019471	0.983399	-2.1915	0.446572	9.81955	0.0018463	0.0143532	-0.0142896	0.00146484	-0.0310059	-0.963867	-0.600014	0.140815	0.674752	0.406035	9.09634	3.73075	0.426117	0.00974701	0.00298376	-0.0219746	-1.08276	-0.230469	-0.317383	-0.701331	-0.272505	0.607657	-0.254221	9.86164	0.614387	1.12075	0.0107066	-0.0140006	0.00896523	-0.901611	-0.325928	-0.406006	0.519628	0.278459	-0.67932	0.437002	9.44534	-2.86632	-0.572685	-0.0331898	-0.00471546	0.00721551	-1.03809	-0.0361328	-0.0632324	0.517467	0.455968	-0.301414	0.658385	9.78448	0.793761	4.44194	-0.0299759	-0.0201515	-0.00834627	-0.9646	-0.294922	-0.384033	-0.0490254	0.390142	0.0178429	0.919276	7.49936	-0.155803	6.863	0.000878898	0.0851618	-0.00563856	-0.969727	0.0788574	-0.352051	-0.33616	0.5688	0.14666	0.736176	9.57135	-1.57268	3.26135	0.0514472	0.0314146	-0.0300107	-1.0127	0.512939	0.116455	-0.0271298	0.892233	0.447953	-0.0502245	-0.900215	-0.14993	-9.17613	0.00530752	0.00853379	-0.0210738	0.621094	0.135254	1.16431	0.178572	0.614813	-0.0514574	0.766466	9.70129	1.27606	2.09425	0.0318448	0.031099	0.00668856	-1.01025	-0.302002	0.266357	-0.0059243	0.99914	-0.0320825	-0.0255771	-0.543564	-0.0818986	-9.72414	0.00415448	0.00447377	-0.00797766	0.451416	-0.0358887	0.944824	
16	-0.22166	-0.647889	-0.189787	0.703624	-9.80373	0.101298	0.989316	0.0246403	0.00102819	0.00403169	1.07642	0.141113	-0.328125	-0.135842	-0.1197	0.00220535	0.98347	-2.24862	0.364325	9.8566	0.00693545	0.0133535	-0.0308559	-0.00512695	-0.0288086	-0.959229	-0.599608	0.140812	0.674913	0.406368	8.96672	3.64066	0.419031	-0.0127711	-0.00618324	-0.0113173	-1.08936	-0.230469	-0.317383	-0.700948	-0.272278	0.60822	-0.254174	9.65633	0.714177	1.06767	-0.0228948	-0.0214785	0.014971	-0.896973	-0.328125	-0.401367	0.519209	0.27793	-0.679593	0.437412	9.43745	-2.84087	-0.780411	0.00182077	0.00551471	0.0239001	-1.04028	-0.0317383	-0.0678711	0.517075	0.456352	-0.302238	0.658049	9.85667	0.998205	4.31138	-0.0224853	-0.0202944	0.000634852	-0.968994	-0.292725	-0.384033	-0.0493945	0.389007	0.0186358	0.919721	7.42528	-0.0868271	7.1643	0.0235265	0.0646292	-0.0140001	-0.969727	0.0766602	-0.354248	-0.336184	0.568384	0.146644	0.736488	9.61498	-1.68115	3.30459	0.0116834	0.0390202	-0.0201542	-1.0105	0.510742	0.114014	-0.0272814	0.892175	0.448049	-0.0503062	-0.892819	-0.158055	-9.15272	0.0188701	0.0113168	-0.0241626	0.623779	0.130859	1.15552	0.177899	0.614203	-0.0513507	0.767118	9.67666	1.2943	2.12747	-0.00169767	0.0161808	0.0110594	-1.00781	-0.306396	0.268555	-0.00592881	0.999136	-0.0321014	-0.0257089	-0.545496	-0.106312	-9.75778	0.00446099	0.00237344	-0.00759698	0.446777	-0.0358887	0.947021	
17	-0.221081	-0.647811	-0.189265	0.704019	-9.83263	0.155949	1.01564	0.0355732	-0.0242383	-0.0151286	1.07666	0.136719	-0.33252	-0.135653	-0.119495	0.00240328	0.983521	-2.26457	0.383108	9.8803	0.00593143	-0.00238014	-0.0324869	-0.00512695	-0.0266113	-0.96167	-0.599004	0.141155	0.674947	0.407082	9.0215	3.81654	0.454806	-0.0718797	-0.0278218	-0.0183145	-1.0957	-0.234619	-0.312744	-0.700729	-0.271987	0.608631	-0.254108	9.71933	0.792243	1.15551	-0.049826	-0.012971	0.0105098	-0.903564	-0.330322	-0.403564	0.518859	0.277193	-0.68021	0.437338	9.37245	-2.93153	-0.66349	-0.0227329	-0.000707641	0.0173087	-1.04272	-0.0251465	-0.0678711	0.51658	0.456554	-0.303082	0.657909	9.77953	0.945148	4.35496	-0.0203673	-0.0213331	0.00856385	-0.9646	-0.292725	-0.384033	-0.0493945	0.389007	0.0186358	0.919721	7.42528	-0.0868271	7.1643	0.0235265	0.0646292	-0.0140001	-0.969727	0.0766602	-0.354248	-0.336168	0.56802	0.146606	0.736784	9.57227	-1.71078	3.38747	0.00752434	0.0324675	-0.0234392	-1.0188	0.506348	0.116455	-0.0271481	0.892144	0.448129	-0.0502243	-0.893928	-0.149147	-9.11585	0.00503894	0.00809708	-0.0220154	0.625732	0.137695	1.15991	0.17765	0.613846	-0.0513269	0.767463	9.68382	1.2842	2.15536	0.00576462	0.0258211	0.0123903	-1.01245	-0.302002	0.268555	-0.00587778	0.999133	-0.0321385	-0.025787	-0.539535	-0.0978986	-9.73689	-0.00255503	0.00370905	-0.0074332	0.453369	-0.03125	0.942383	
18	-0.220342	-0.647606	-0.18891	0.704534	-9.85809	0.163339	0.95846	0.0318068	-0.0195366	-0.0214332	1.07422	0.143311	-0.336914	-0.134872	-0.119079	0.00279697	0.983678	-2.19794	0.355528	9.87733	0.00914293	-0.0230088	-0.0269713	-0.00292969	-0.0288086	-0.956787	-0.59893	0.14067	0.675272	0.406819	9.15426	3.63411	0.536579	0.0540796	0.0130652	-0.00732839	-1.08691	-0.236816	-0.312744	-0.700227	-0.271808	0.609091	-0.25458	9.80144	0.754911	1.11779	0.0134659	-0.0148976	0.0329469	-0.903564	-0.330322	-0.39917	0.518647	0.276815	-0.680425	0.437493	9.40108	-2.91667	-0.71471	-0.0103922	0.00282392	0.0246669	-1.04053	-0.0251465	-0.0610352	0.516151	0.456537	-0.304137	0.657771	9.88589	0.915574	4.37525	-0.032889	-0.012501	0.0129305	-0.962402	-0.290527	-0.384033	-0.0491705	0.386918	0.0194895	0.920596	7.42135	-0.0936995	7.28453	0.0383244	0.0502636	-0.0199713	-0.971924	0.0788574	-0.362793	-0.336021	0.567728	0.146343	0.737128	9.5257	-1.68478	3.27587	-0.0183095	0.0337241	-0.0204843	-1.01685	0.508545	0.109375	-0.0270632	0.892122	0.448181	-0.0501978	-0.901753	-0.147971	-9.14678	0.00477625	0.00765602	-0.0229555	0.621338	0.130859	1.16431	0.177795	0.613606	-0.0515446	0.767607	9.64961	1.25074	2.20542	-0.0107395	0.0215205	0.00462649	-1.01221	-0.306396	0.26416	-0.00560792	0.999136	-0.0321124	-0.0257687	-0.54609	-0.0862163	-9.77624	-0.00520356	0.00951178	-0.00808413	0.451416	-0.0358887	0.940186	
19	-0.219359	-0.647418	-0.188522	0.705118	-9.89499	0.221742	1.06407	0.0443524	-0.0242046	-0.0290443	1.07446	0.138916	-0.33252	-0.134812	-0.118305	0.00334889	0.983778	-2.25676	0.407721	9.80092	-0.0013315	-0.0357324	-0.0151859	-0.00292969	-0.0310059	-0.958984	-0.599062	0.139427	0.675756	0.40625	8.99696	3.78286	0.414744	0.053326	0.0212837	-0.0183456	-1.08496	-0.232666	-0.310547	-0.69919	-0.272105	0.609744	-0.255547	9.71088	0.842576	1.0916	0.0380703	-0.0323575	0.0383874	-0.905762	-0.328369	-0.394775	0.518428	0.275652	-0.680929	0.437703	9.37467	-2.98051	-0.605469	-0.0281264	0.0132957	0.0332748	-1.03638	-0.0251465	-0.0656738	0.516139	0.456248	-0.30486	0.657646	9.8109	0.771705	4.3973	-0.0490941	-0.00579488	0.0136474	-0.962646	-0.28833	-0.384277	-0.0494934	0.386002	0.0202987	0.920945	7.33486	-0.24371	7.13067	0.0556184	0.0736471	-0.0191177	-0.969727	0.0744629	-0.360596	-0.335053	0.56812	0.145035	0.737526	9.58047	-1.61826	3.41624	-0.0370321	0.0260887	-0.0151871	-1.0166	0.50415	0.111816	-0.0270165	0.892094	0.448238	-0.0502113	-0.903037	-0.162254	-9.1223	0.0090634	0.0061101	-0.0233302	0.628174	0.133057	1.16431	0.177966	0.613225	-0.0516719	0.767863	9.67552	1.33059	2.16023	-0.00638048	0.0367254	0.00547584	-1.0166	-0.306396	0.266357	-0.00560792	0.999136	-0.0321124	-0.0257687	-0.54609	-0.0862163	-9.77624	-0.00520356	0.00951178	-0.00808413	0.451416	-0.0358887	0.940186	
20	-0.218782	-0.64716	-0.188295	0.705594	-9.81224	0.339255	1.11407	0.0453329	-0.0381893	-0.0335198	1.07642	0.141113	-0.33252	-0.134855	-0.118451	0.003446	0.983754	-2.2359	0.458896	9.89082	-0.000370349	0.0265327	-0.0145772	-0.00488281	-0.0332031	-0.966064	-0.598909	0.139347	0.675743	0.406523	9.067	3.89717	0.291105	-0.00918696	0.00219822	-0.0222259	-1.08496	-0.234863	-0.310547	-0.698461	-0.272106	0.610394	-0.255986	9.66274	0.604955	1.08628	0.0296371	-0.0216658	0.0316072	-0.903809	-0.326172	-0.39502	0.518357	0.274333	-0.681289	0.438056	9.4107	-3.11954	-0.73446	0.00119574	0.0250646	0.0385189	-1.04297	-0.0229492	-0.0656738	0.515875	0.455784	-0.306342	0.657486	9.71668	1.05777	4.30753	-0.0357176	-0.011858	0.00934315	-0.964844	-0.286133	-0.38208	-0.049531	0.385405	0.0204576	0.92119	7.38393	-0.136071	7.1349	0.0323697	0.0651405	-0.0215996	-0.965332	0.0744629	-0.358398	-0.334686	0.568233	0.144565	0.737697	9.50124	-1.55474	3.33216	-0.0439476	0.0248231	-0.0193536	-1.01465	0.506348	0.116455	-0.0265761	0.891825	0.448834	-0.0498956	-0.895998	-0.146429	-9.14339	-0.0108442	0.00446051	-0.0233176	0.621338	0.130859	1.16211	0.178272	0.612917	-0.0520219	0.768014	9.67583	1.26617	2.1988	-0.0281043	0.0166106	0.00109047	-1.01685	-0.304199	0.266357	-0.0059361	0.99915	-0.0318387	-0.0254981	-0.534418	-0.0888658	-9.74641	0.010381	0.00933566	-0.0103682	0.453613	-0.0356445	0.944824	
21	-0.218554	-0.646052	-0.187946	0.706772	-9.66836	0.402096	0.982132	0.00260759	-0.0703431	-0.00829264	1.07227	0.138916	-0.33252	-0.134867	-0.118066	0.00376162	0.983797	-2.18777	0.487339	9.88754	0.00395289	0.0337105	-0.0201349	-0.00292969	-0.0310059	-0.961426	-0.598617	0.138921	0.676215	0.406315	8.95201	3.75512	0.320415	0.0426591	-0.0034492	-0.00414308	-1.08911	-0.236816	-0.317139	-0.698238	-0.271898	0.610719	-0.256043	9.69379	0.717928	1.09695	-0.00869831	-0.0175787	0.0255218	-0.906006	-0.323975	-0.390625	0.518078	0.273574	-0.681521	0.438499	9.34332	-2.83149	-0.697391	-0.037824	0.0165618	0.0187184	-1.03857	-0.020752	-0.0700684	0.515767	0.455597	-0.307004	0.657392	9.81413	0.732285	4.29515	-0.0372905	-0.00972133	0.0151744	-0.969238	-0.28418	-0.38208	-0.0496554	0.384216	0.0210218	0.921667	7.43769	-0.0375083	7.35885	0.0349163	0.0733779	-0.0219044	-0.969727	0.0744629	-0.360596	-0.333989	0.568301	0.143935	0.738084	9.63828	-1.85217	3.38204	-0.00769192	0.0270837	-0.0261307	-1.02319	0.50415	0.114258	-0.0263229	0.891764	0.448968	-0.0499058	-0.891066	-0.139115	-9.13604	-0.00597213	-0.00130984	-0.029143	0.621338	0.130859	1.16211	0.178335	0.612723	-0.0520962	0.768149	9.68456	1.18355	2.10197	-0.00865077	0.0311698	0.00625868	-1.01685	-0.299805	0.261719	-0.00590673	0.99915	-0.0318565	-0.0254973	-0.538142	-0.0910501	-9.7416	0.00251456	0.00753078	-0.00708618	0.451172	-0.0336914	0.942383	
22	-0.218901	-0.645663	-0.187895	0.707035	-9.61038	0.364986	0.950496	-0.0177147	-0.0456687	0.0111436	1.07397	0.147705	-0.336914	-0.134554	-0.118297	0.00409947	0.983811	-2.24638	0.521983	9.82217	0.00752569	0.0231092	-0.0316466	-0.00488281	-0.0354004	-0.961182	-0.598088	0.139249	0.676389	0.406692	8.98424	3.71885	0.343716	-0.0349224	-0.0201863	-0.0114439	-1.08691	-0.239014	-0.308105	-0.697943	-0.271527	0.611148	-0.256216	9.67992	0.729466	1.06822	-0.0168304	-0.00699178	0.0213494	-0.905762	-0.328369	-0.394775	0.51792	0.272677	-0.681969	0.438547	9.31579	-3.05109	-0.540906	-0.000781807	0.0173575	0.0238818	-1.04272	-0.0273438	-0.0678711	0.515206	0.455578	-0.307796	0.657475	9.75379	0.820453	4.29014	-0.0257586	-0.0131693	0.0152835	-0.969238	-0.28418	-0.384277	-0.0493993	0.383397	0.0207237	0.922029	7.3393	-0.0178758	7.29797	0.00384467	0.0436079	-0.0260926	-0.967773	0.0788574	-0.364746	-0.334659	0.567575	0.144766	0.738176	9.59531	-1.52683	3.28469	0.0531258	0.0384066	-0.0195934	-1.01904	0.508545	0.107178	-0.0262075	0.89157	0.449372	-0.0497984	-0.891928	-0.132134	-9.15581	0.014828	0.00798464	-0.0234997	0.616699	0.130615	1.15991	0.177544	0.612728	-0.0513172	0.768381	9.6643	1.36943	2.24314	0.0313609	0.0226819	0.0100045	-1.01221	-0.304199	0.266357	-0.00589549	0.999157	-0.0317481	-0.0253486	-0.527936	-0.0837339	-9.72094	-0.00590426	0.0101591	-0.0092545	0.458252	-0.0378418	0.944824	
23	-0.219619	-0.645614	-0.188056	0.706814	-9.6941	0.219744	0.957425	-0.0108041	0.0193477	0.00446043	1.07202	0.141113	-0.336914	-0.134165	-0.118741	0.00427649	0.98381	-2.27482	0.536171	9.79895	-0.00282211	0.0230191	-0.0302649	-0.00708008	-0.0354004	-0.961182	-0.597566	0.139564	0.676644	0.406927	9.03716	3.70219	0.363367	-0.000864579	-0.0176261	-0.0126397	-1.08911	-0.241211	-0.310303	-0.697763	-0.27123	0.611523	-0.256124	9.7394	0.688066	1.03997	0.00785731	-0.00480614	0.00546715	-0.908203	-0.323975	-0.397217	0.517746	0.272013	-0.68219	0.438823	9.36805	-3.10914	-0.71527	-0.0143593	0.00814751	0.0119377	-1.04077	-0.0229492	-0.0632324	0.514442	0.4559	-0.308369	0.657581	9.87486	0.932162	4.23064	0.0128205	-0.0140559	0.0129735	-0.967041	-0.28418	-0.380127	-0.0491786	0.383091	0.0204664	0.922173	7.28454	-0.0416611	7.35863	0.00911892	0.023958	-0.0203642	-0.963379	0.0766602	-0.366943	-0.334577	0.567423	0.144967	0.738292	9.57881	-1.68428	3.4269	0.0272855	0.0128734	-0.0253293	-1.01904	0.508545	0.111816	-0.026148	0.891497	0.449531	-0.0497078	-0.890257	-0.150643	-9.13155	0.00247076	0.0131761	-0.021974	0.616455	0.135254	1.15527	0.177783	0.612436	-0.0519512	0.768516	9.65257	1.38493	2.20749	-0.0395632	0.024038	0.013138	-1.01465	-0.299805	0.263916	-0.00592685	0.999156	-0.0317334	-0.0253812	-0.552738	-0.0810991	-9.74954	0.00875785	0.00616426	-0.00837624	0.451416	-0.0358887	0.947021	
24	-0.219457	-0.646148	-0.188179	0.706343	-9.87452	0.239104	1.06911	0.00862231	0.0243873	0.00151439	1.07202	0.141113	-0.339111	-0.133892	-0.118894	0.00433799	0.983828	-2.26127	0.5355	9.78452	-0.00405646	0.0111088	-0.0271522	-0.000488281	-0.0354004	-0.966064	-0.597166	0.139583	0.676752	0.407327	9.04504	3.77908	0.391002	0.00337354	0.00128069	-0.0208962	-1.08496	-0.234863	-0.310547	-0.697442	-0.271511	0.611818	-0.255999	9.81288	0.577002	0.967723	0.0419309	-0.011804	0.000113107	-0.906006	-0.323975	-0.392822	0.517307	0.271771	-0.682465	0.439062	9.31065	-3.09975	-0.634551	0.00640283	-0.00194083	0.00806097	-1.03198	-0.0229492	-0.0678711	0.514194	0.4562	-0.308954	0.657292	9.78427	0.636116	4.3757	0.00840209	-0.0146203	-0.0131212	-0.969482	-0.277588	-0.378174	-0.0490086	0.382756	0.0204056	0.922323	7.2837	0.00584832	7.33402	0.0138902	0.0307852	-0.0239884	-0.967529	0.0722656	-0.368896	-0.335103	0.566959	0.145635	0.738278	9.58095	-1.48005	3.35011	0.0348119	0.0265059	-0.0175708	-1.01904	0.508545	0.111816	-0.0259866	0.891491	0.449568	-0.0495673	-0.890355	-0.135989	-9.16359	-0.00453362	0.0131922	-0.0205314	0.626221	0.126221	1.16235	0.177721	0.611951	-0.052346	0.76889	9.65589	1.18719	2.23946	0.00243795	0.0334286	0.0197909	-1.01685	-0.299805	0.263916	-0.00548775	0.999156	-0.0317675	-0.025438	-0.552962	-0.0766088	-9.73637	-0.0182739	0.00466301	-0.00438466	0.453369	-0.03125	0.940186	
25	-0.219234	-0.646195	-0.1877	0.706497	-9.92103	0.27682	1.05677	0.0239544	-0.0181896	0.00760001	1.07227	0.136719	-0.334717	-0.133665	-0.118916	0.00394049	0.983858	-2.29767	0.506937	9.88343	-0.0385221	0.0218613	-0.0318437	-0.00488281	-0.0332031	-0.961426	-0.596899	0.13953	0.676614	0.407966	9.02469	3.77388	0.216789	-0.0216879	-0.00797679	-0.0135251	-1.09351	-0.236816	-0.310303	-0.697228	-0.271651	0.612036	-0.255912	9.76907	0.432824	1.1266	-0.00626987	-0.00627938	-0.00392706	-0.905762	-0.328369	-0.392578	0.517048	0.271553	-0.682486	0.43947	9.33094	-3.08399	-0.587677	-0.0016908	0.00687484	0.0124678	-1.03882	-0.0141602	-0.0610352	0.514024	0.456566	-0.309243	0.657035	9.80456	0.868117	4.24013	-0.0338457	-0.0127076	-0.0159434	-0.969482	-0.277588	-0.380127	-0.0489689	0.381979	0.0203843	0.922648	7.26668	-0.0791445	7.31887	0.0154164	0.0465194	-0.0183552	-0.965088	0.0703125	-0.373291	-0.335284	0.566777	0.145782	0.738306	9.52708	-1.86166	3.35292	0.0329788	0.0179911	-0.0153173	-1.01465	0.508545	0.111816	-0.0256428	0.891349	0.449908	-0.0492176	-0.89242	-0.119801	-9.15078	-0.000826	0.00702549	-0.0244763	0.618896	0.133057	1.16211	0.177589	0.611688	-0.0525141	0.769118	9.63678	1.28763	2.24725	-0.0152677	0.0226285	0.0135335	-1.01025	-0.302002	0.259521	-0.00505316	0.999153	-0.0318023	-0.0256149	-0.535684	-0.0738443	-9.74648	-0.0107004	-0.000508235	-0.00737	0.44458	-0.0380859	0.940186	
26	-0.219312	-0.64581	-0.187056	0.706995	-9.90435	0.278918	1.0298	0.0111163	-0.0383733	0.0125056	1.07446	0.136719	-0.338867	-0.133479	-0.118655	0.00390133	0.983915	-2.30215	0.473148	9.72655	-0.0263994	0.0119982	-0.0253105	-0.000488281	-0.0354004	-0.958984	-0.596691	0.139947	0.676598	0.408154	9.05878	3.8416	0.318012	-0.0182241	-0.000822313	-0.000288176	-1.08911	-0.241211	-0.310303	-0.697203	-0.271766	0.612046	-0.255833	9.71299	0.615094	1.0721	0.00459261	6.2875e-05	-0.00843241	-0.912598	-0.328369	-0.390381	0.517238	0.270579	-0.683008	0.439036	9.32893	-3.15434	-0.685081	-0.0497501	0.00855787	-0.00581109	-1.04102	-0.0163574	-0.0678711	0.514367	0.45639	-0.310257	0.656412	9.81432	0.910965	4.28894	-0.0196793	-0.00682794	-0.0182598	-0.967041	-0.283936	-0.37793	-0.0488433	0.381248	0.0201689	0.922961	7.27492	-0.074421	7.36954	0.0103046	0.0446539	-0.0219886	-0.969727	0.0766602	-0.373291	-0.336456	0.566117	0.147168	0.738005	9.57216	-1.52862	3.35143	0.0806302	0.0272131	-0.012328	-1.01245	0.506348	0.111816	-0.0257443	0.891275	0.450049	-0.0492139	-0.862638	-0.106976	-9.13876	0.0171855	0.0104556	-0.0251907	0.625977	0.130859	1.16211	0.177588	0.611475	-0.0527435	0.769272	9.62512	1.30271	2.21235	-0.00112263	0.0206361	0.00453244	-1.02124	-0.304443	0.266357	-0.00507489	0.999149	-0.0318406	-0.0257249	-0.543184	-0.0712922	-9.74152	0.0167173	0.00426059	-0.0065289	0.448975	-0.0336914	0.947021	
27	-0.219158	-0.644978	-0.186595	0.707923	-9.57777	0.376331	1.00585	0.0150411	-0.0430322	-0.0115155	1.07422	0.141113	-0.341064	-0.13358	-0.118228	0.00377194	0.983953	-2.12361	0.35434	9.69389	0.022348	0.0135763	-0.0117479	-0.00463867	-0.0397949	-0.963379	-0.596645	0.139603	0.676845	0.407929	8.93572	3.75724	0.427951	0.0389176	0.00446299	-0.00880352	-1.08691	-0.237061	-0.310303	-0.697123	-0.272064	0.612075	-0.255666	9.67846	0.831438	1.04433	0.0191047	-0.000668426	-0.00526808	-0.910645	-0.31958	-0.390625	0.517385	0.270383	-0.6831	0.438839	9.31187	-3.1601	-0.726638	-0.0255028	0.0135909	-0.0144937	-1.03882	-0.0163574	-0.0656738	0.5149	0.45596	-0.31103	0.655926	9.8455	0.56757	4.13633	-0.0231982	0.0153055	-0.0196402	-0.973877	-0.277588	-0.375977	-0.0487685	0.381403	0.0196921	0.922911	7.32261	-0.114033	7.51098	0.000553632	0.00454297	-0.0159225	-0.967285	0.0703125	-0.371094	-0.336473	0.565903	0.147017	0.738191	9.58682	-1.71419	3.36959	-0.00873354	0.0319814	-0.0148296	-1.0144	0.504395	0.10498	-0.0257293	0.891185	0.450223	-0.0492605	-0.886671	-0.131325	-9.13489	0.00668227	0.00761797	-0.0283077	0.623779	0.128418	1.16455	0.177747	0.611449	-0.0530526	0.769235	9.6998	1.11137	2.25809	-0.00509338	0.0123251	0.00454181	-1.01489	-0.297607	0.263916	-0.00512832	0.999148	-0.0318327	-0.0257509	-0.539326	-0.0876789	-9.75425	0.00209957	0.00525523	-0.00920309	0.455811	-0.0356445	0.942627	
28	-0.219582	-0.644979	-0.186514	0.707813	-9.61029	0.249694	0.944175	-0.00875209	0.00566248	0.0143025	1.07031	0.132324	-0.33667	-0.133691	-0.11855	0.00385935	0.983899	-2.14804	0.557146	9.84369	-0.0274864	0.0510118	-0.0169783	-0.00488281	-0.0375977	-0.95874	-0.596372	0.139826	0.676706	0.408483	9.02745	3.67672	0.373664	-0.0383274	-0.013726	-0.00792709	-1.08496	-0.234863	-0.310547	-0.697172	-0.272139	0.611992	-0.25565	9.72267	0.548933	1.12778	0.0143349	0.0101532	-0.00152215	-0.906006	-0.323975	-0.39502	0.51709	0.270788	-0.683161	0.438843	9.36268	-2.95884	-0.581202	-0.0161112	-0.00376326	-0.0167637	-1.03857	-0.020752	-0.0656738	0.514757	0.456117	-0.310667	0.656101	9.78385	0.968007	4.29226	-0.00408147	0.0157735	-0.0167171	-0.967041	-0.283936	-0.371338	-0.0486573	0.381136	0.01919	0.923038	7.29394	-0.118736	6.93661	0.0153837	0.00938598	-0.0125232	-0.95874	0.0725098	-0.371094	-0.335911	0.565901	0.146393	0.738573	9.52679	-1.72446	3.36932	-0.0159217	0.0203637	-0.0244937	-1.021	0.506592	0.10498	-0.025538	0.891077	0.450444	-0.0493032	-0.883954	-0.119926	-9.14318	0.0111628	0.00311393	-0.02795	0.621338	0.128418	1.16211	0.177331	0.611586	-0.0524061	0.769266	9.63061	1.29951	2.24469	0.0244626	0.0146709	0.00161923	-1.02124	-0.304443	0.254883	-0.00495518	0.99915	-0.0318259	-0.0257304	-0.541732	-0.0764923	-9.75019	-0.00899473	0.00976592	-0.00883748	0.448975	-0.0314941	0.942383	
29	-0.219572	-0.645303	-0.186674	0.707478	-9.59481	0.250168	0.963951	-0.00760838	0.0347207	0.000843766	1.07007	0.136719	-0.343262	-0.133819	-0.118256	0.00355001	0.983918	-2.18402	0.422616	9.86684	-0.0383805	-0.00394441	-0.0118764	-0.000732422	-0.0310059	-0.958984	-0.596378	0.139697	0.676797	0.408369	9.04758	3.57548	0.354335	0.0192938	0.00272054	-0.00250453	-1.08472	-0.241211	-0.310303	-0.697211	-0.272051	0.612042	-0.255516	9.72757	0.702757	1.03819	-0.0112264	0.00364606	-0.00239787	-0.905762	-0.328369	-0.392578	0.516953	0.27085	-0.683175	0.438944	9.35768	-3.19305	-0.632887	0.010465	-0.00116971	-0.00756844	-1.03882	-0.0185547	-0.0632324	0.514838	0.456036	-0.310862	0.656002	9.83258	0.657423	4.30995	-0.016747	0.00881899	-0.0145146	-0.967041	-0.281982	-0.375732	-0.0486573	0.381136	0.01919	0.923038	7.29394	-0.118736	6.93661	0.0153837	0.00938598	-0.0125232	-0.95874	0.0725098	-0.371094	-0.336011	0.565813	0.146618	0.738549	9.59297	-1.68761	3.44693	0.0257462	0.0145087	-0.0205376	-1.01685	0.506592	0.100098	-0.025459	0.89101	0.450574	-0.0493614	-0.905644	-0.118322	-9.13585	0.00844151	0.00160494	-0.0296806	0.619141	0.126221	1.16211	0.177331	0.611586	-0.0524061	0.769266	9.63061	1.29951	2.24469	0.0244626	0.0146709	0.00161923	-1.02124	-0.304443	0.254883	-0.00477592	0.999152	-0.0317932	-0.0257195	-0.537447	-0.0647968	-9.75107	-0.0099179	0.00833079	-0.00991999	0.453369	-0.03125	0.940186	
30	-0.219365	-0.646587	-0.187419	0.706172	-9.80233	0.245912	1.06863	-0.0174353	0.0790332	-0.00512164	1.0769	0.134766	-0.338867	-0.134084	-0.118495	0.00337301	0.983854	-2.19987	0.489323	9.8416	-0.0239985	0.0041118	-0.00680936	-0.00512695	-0.0310059	-0.961426	-0.59602	0.139759	0.676872	0.408744	9.0186	3.72317	0.424112	-0.0216905	0.000868098	-0.0235732	-1.08911	-0.241211	-0.310303	-0.697081	-0.27231	0.612066	-0.25554	9.72864	0.75246	0.944392	0.0156195	-0.00117994	-0.00177032	-0.908203	-0.326172	-0.390625	0.516501	0.271314	-0.682933	0.439565	9.35663	-2.97732	-0.604298	0.0170336	0.00305929	-0.00590889	-1.03662	-0.0141602	-0.0610352	0.514819	0.456238	-0.310769	0.65592	9.80904	0.95492	4.23819	-0.0197444	0.00373715	-0.0248983	-0.967041	-0.283936	-0.373535	-0.0486344	0.38091	0.0189832	0.923137	7.32223	-0.0716142	7.26519	0.0265758	0.0171861	-0.0158969	-0.965332	0.0744629	-0.375488	-0.335988	0.565538	0.146772	0.73874	9.59364	-1.5404	3.28778	0.01495	0.0289099	-0.0237239	-1.021	0.506592	0.10498	-0.0252755	0.890923	0.450754	-0.0493861	-0.869954	-0.119772	-9.1773	0.00904482	0.00560096	-0.0262574	0.624023	0.124023	1.15771	0.176972	0.611467	-0.0518674	0.76948	9.67549	1.33211	2.24662	0.0159543	0.0211532	0.00229955	-1.01465	-0.302002	0.259521	-0.004751	0.999154	-0.0317463	-0.025689	-0.541491	-0.0711742	-9.72386	0.00388589	0.00849371	-0.0106285	0.453613	-0.0356445	0.944824	
31	-0.219288	-0.647583	-0.18809	0.705104	-9.88248	0.285362	1.10777	-0.019024	0.0579358	0.00488002	1.07666	0.136719	-0.33252	-0.13433	-0.118898	0.0031596	0.983773	-2.18204	0.483663	9.81467	-0.00923603	0.02802	-0.0111919	-0.000732422	-0.0310059	-0.961426	-0.595759	0.139299	0.677031	0.409018	9.03048	3.70473	0.365313	0.0222514	0.000613055	-0.0218902	-1.08887	-0.245605	-0.305664	-0.696763	-0.272815	0.612085	-0.255822	9.7756	0.610588	1.0652	0.0378005	-0.00338034	0.000151853	-0.908203	-0.323975	-0.38623	0.516203	0.271164	-0.683243	0.439526	9.33337	-3.10016	-0.749942	0.0167843	-0.00702713	0.002092	-1.03662	-0.0141602	-0.0632324	0.515144	0.456126	-0.311348	0.655468	9.83614	0.633281	4.31051	-0.00209454	0.00712089	-0.0148198	-0.973633	-0.281982	-0.373535	-0.0486601	0.381111	0.0192614	0.923047	7.29766	-0.0283588	7.38735	0.0396415	-0.000617952	-0.024565	-0.958984	0.0766602	-0.375488	-0.336072	0.565073	0.147046	0.739003	9.59465	-1.71934	3.33593	0.0333869	0.0338577	-0.0262819	-1.02344	0.508545	0.107178	-0.02534	0.890838	0.450913	-0.0494245	-0.891055	-0.119824	-9.15373	0.0172968	0.00820019	-0.0243113	0.619141	0.128418	1.16675	0.177213	0.611274	-0.0523073	0.769548	9.63506	1.26679	2.28192	-0.0256942	0.0182624	0.00838919	-1.0127	-0.29541	0.263916	-0.00468852	0.999154	-0.0317328	-0.0257398	-0.534189	-0.0533689	-9.7255	0.00467492	0.00365415	-0.00900447	0.451416	-0.0358887	0.937988	
32	-0.219689	-0.648167	-0.188364	0.704369	-9.89785	0.206377	1.10122	-0.0161673	0.029789	0.0158665	1.06982	0.143311	-0.33252	-0.134317	-0.119017	0.00350115	0.983759	-2.21279	0.375794	9.81786	0.0193869	0.0205539	-0.0161528	-0.000732422	-0.0288086	-0.968506	-0.595628	0.139427	0.677125	0.409009	9.02666	3.84681	0.460082	-0.0120625	0.00451652	0.0043148	-1.09326	-0.239014	-0.310303	-0.696543	-0.272891	0.612193	-0.256082	9.78731	0.558603	0.989369	0.0137787	0.00150922	0.0125245	-0.90625	-0.321777	-0.392822	0.515852	0.270913	-0.682999	0.440472	9.41691	-2.96243	-0.569604	0.028639	0.0287492	0.0224599	-1.04321	-0.0163574	-0.0656738	0.51524	0.455931	-0.312108	0.655167	9.80513	1.05504	4.29771	-0.0558491	-0.00954285	-0.0156366	-0.973633	-0.281982	-0.373535	-0.0488919	0.381393	0.0203276	0.922895	7.30478	-0.0470306	7.35302	0.102559	-0.0157233	-0.0321764	-0.960938	0.0703125	-0.373047	-0.336917	0.564213	0.148258	0.739033	9.56745	-1.61015	3.26024	0.0730539	0.0274006	-0.0196555	-1.0166	0.502197	0.102539	-0.0256366	0.890768	0.451029	-0.0494752	-0.879372	-0.118656	-9.15507	0.0251336	0.0126946	-0.0241797	0.621338	0.133057	1.1665	0.177156	0.611206	-0.0523966	0.769609	9.67117	1.06206	2.23684	-0.00258694	0.0194415	0.0122366	-1.01465	-0.299805	0.261719	-0.00505366	0.999151	-0.0316563	-0.0258937	-0.556643	-0.0897707	-9.77008	0.0183096	0.00160098	-0.0109951	0.451416	-0.0380859	0.944824	
33	-0.219981	-0.648307	-0.188416	0.704134	-9.92587	0.138307	1.03513	-0.0041426	-0.00405219	0.00351803	1.07422	0.141113	-0.33252	-0.134263	-0.119277	0.00377344	0.983734	-2.26338	0.514504	9.88258	0.000747484	0.0451749	-0.0229314	-0.000732422	-0.0310059	-0.961426	-0.595559	0.13935	0.676963	0.409405	9.03585	3.86159	0.317539	0.00903647	0.00500724	-0.00861568	-1.08472	-0.239258	-0.312744	-0.696213	-0.273065	0.612372	-0.256366	9.8067	0.613329	0.980214	0.00588889	-0.0110965	0.00569373	-0.908203	-0.323975	-0.384033	0.515825	0.270548	-0.68349	0.439965	9.2616	-3.17125	-0.786635	-0.033537	-0.0117039	-0.016542	-1.04102	-0.0141602	-0.0632324	0.515074	0.456115	-0.312704	0.654884	9.74967	0.956982	4.14623	0.024966	-0.00823906	-0.00495024	-0.965088	-0.277588	-0.371582	-0.0484651	0.382428	0.0212	0.92247	7.36513	-0.0349169	7.33752	0.0150764	-0.0207521	-0.0299846	-0.960693	0.065918	-0.368896	-0.337341	0.563794	0.148665	0.739078	9.54281	-1.51805	3.36584	0.00117173	0.0282202	-0.0168424	-1.0166	0.502197	0.102539	-0.0257611	0.890727	0.451113	-0.0493824	-0.886397	-0.128864	-9.1576	0.0129746	0.0144751	-0.0206372	0.619141	0.128418	1.16431	0.17618	0.611344	-0.0516477	0.769774	9.68559	1.37126	2.2829	-0.0300488	0.0112701	0.0105782	-1.01465	-0.299805	0.261719	-0.00503558	0.999148	-0.0317077	-0.0259186	-0.531954	-0.0865552	-9.73746	-0.00118416	0.00646665	-0.00694262	0.451172	-0.0290527	0.951416	
34	-0.219801	-0.647934	-0.188445	0.704526	-9.82164	0.229643	0.951744	0.000353034	-0.0252677	-0.0121932	1.07666	0.136963	-0.336914	-0.134138	-0.119462	0.0038009	0.983728	-2.34824	0.419723	9.8494	-0.00606325	0.0307092	-0.0226036	0.00390625	-0.0354004	-0.961182	-0.595252	0.139551	0.676951	0.409802	9.02207	3.81071	0.370412	-0.0223574	-0.00511965	-0.0123847	-1.08887	-0.243408	-0.298828	-0.696108	-0.272854	0.61264	-0.256236	9.7449	0.692293	1.04751	-0.0275815	-0.00344834	0.00522816	-0.90625	-0.321777	-0.38623	0.515825	0.270548	-0.68349	0.439965	9.2616	-3.17125	-0.786635	-0.033537	-0.0117039	-0.016542	-1.04102	-0.0141602	-0.0632324	0.514737	0.456332	-0.312614	0.655041	9.82782	0.722139	4.27521	0.0542586	0.0168977	-0.00682773	-0.97168	-0.277588	-0.373779	-0.0479033	0.382976	0.0208715	0.922279	7.29663	-0.113086	7.41529	-0.0128181	-0.0160586	-0.0233076	-0.969482	0.0681152	-0.362549	-0.337087	0.563668	0.148506	0.739322	9.55194	-1.70885	3.36236	0.0126888	0.0237861	-0.0187833	-1.01855	0.5	0.0979004	-0.0257255	0.890706	0.451162	-0.0493363	-0.902296	-0.127271	-9.12689	0.00814495	0.0109942	-0.0225183	0.619141	0.126221	1.16455	0.176522	0.611176	-0.0522905	0.769785	9.65834	1.15522	2.20605	-0.0286545	0.00837608	0.00753878	-1.01489	-0.297607	0.266113	-0.00483876	0.99915	-0.0317234	-0.0258748	-0.545917	-0.0824463	-9.74946	-0.00450999	0.00886402	-0.00693692	0.448975	-0.0314941	0.942383	
35	-0.219648	-0.647262	-0.188672	0.705131	-9.80269	0.230358	0.856292	-0.00266903	-0.0368098	-0.026076	1.07178	0.147705	-0.328369	-0.134117	-0.119639	0.00383663	0.98371	-2.36973	0.45991	9.82111	-0.0059647	0.0264494	-0.0199746	0.00170898	-0.0375977	-0.95874	-0.595152	0.139369	0.677241	0.40953	8.97356	4.03387	0.369855	0.0227294	-0.00165578	0.000654008	-1.08691	-0.245605	-0.314697	-0.695985	-0.272617	0.612775	-0.2565	9.80823	0.694749	0.997068	0.00976174	0.0102723	0.0212475	-0.906006	-0.326172	-0.385986	0.515354	0.271237	-0.68304	0.440791	9.32477	-2.93685	-0.662161	0.00824026	0.0013614	-0.0218333	-1.04102	-0.0163574	-0.0678711	0.514324	0.456555	-0.312492	0.655268	9.87597	0.830332	4.15503	-0.00490581	0.00979432	-0.0074709	-0.97583	-0.279785	-0.375732	-0.0477507	0.383711	0.0205752	0.921988	7.3009	-0.165484	7.375	0.0041303	-0.0101923	-0.0161972	-0.960938	0.0703125	-0.366699	-0.337377	0.563295	0.148929	0.739389	9.48607	-1.74786	3.40889	0.0249109	0.0303322	-0.0182947	-1.021	0.506592	0.0979004	-0.0256818	0.890644	0.45129	-0.0493072	-0.883922	-0.13156	-9.12525	0.0125576	0.00752941	-0.0261208	0.616943	0.126221	1.15771	0.176448	0.611292	-0.0520365	0.769727	9.6569	1.23863	2.24563	0.0114254	0.00983189	-0.00402022	-1.02124	-0.304443	0.261719	-0.00466797	0.999153	-0.0316932	-0.0258375	-0.542474	-0.0921208	-9.76221	-0.00916351	0.0103952	-0.00970971	0.449219	-0.0358887	0.944824	
36	-0.219562	-0.647049	-0.188973	0.705273	-9.77093	0.245319	0.847143	-0.0093969	-0.000176744	-0.00539743	1.07227	0.136719	-0.334717	-0.134027	-0.119922	0.00339685	0.983689	-2.39168	0.452272	9.85124	-0.0201786	0.0214527	-0.0150362	0.00146484	-0.0310059	-0.961426	-0.594302	0.14095	0.677451	0.409875	8.94866	3.79802	0.279865	-0.0223642	-0.0611367	0.0264205	-1.08691	-0.237061	-0.308105	-0.696805	-0.270816	0.613436	-0.254594	9.77483	0.104663	1.0498	-0.0812555	0.0124553	-0.00812694	-0.915039	-0.323975	-0.388428	0.515131	0.2719	-0.682686	0.441191	9.27498	-3.05989	-0.812816	0.0317284	-0.00909558	-0.034033	-1.04102	-0.0141602	-0.0656738	0.514107	0.456768	-0.311863	0.655591	9.78596	0.976039	4.11988	0.0353942	0.0255888	-0.0187931	-0.978027	-0.279785	-0.373779	-0.0477529	0.38447	0.0200946	0.921683	7.30457	-0.0999473	7.35561	-0.00667469	-0.0222532	-0.00635276	-0.965088	0.0703125	-0.366699	-0.337792	0.562815	0.149609	0.739427	9.55759	-1.64078	3.4415	0.0466112	0.0192989	-0.0222457	-1.02124	0.508789	0.102539	-0.0258899	0.89035	0.451806	-0.049777	-0.892115	-0.129587	-9.16417	0.0338016	-0.000993255	-0.0373871	0.621338	0.128418	1.16431	0.177444	0.611391	-0.0525273	0.769386	9.65757	1.25007	2.29011	-0.0584115	0.00181901	-0.0187839	-1.0144	-0.306396	0.261719	-0.00421093	0.999171	-0.0315653	-0.025381	-0.525	-0.0743111	-9.75549	-0.0134886	0.01872	-0.00767627	0.449219	-0.0358887	0.944824	
37	-0.219433	-0.647151	-0.189027	0.705204	-9.80576	0.228239	0.890742	0.00454014	0.00880114	-0.00807326	1.07422	0.143311	-0.33252	-0.134179	-0.119817	0.00341657	0.983681	-2.30866	0.495812	9.84287	-0.0101491	0.00732164	-0.00689752	-0.000732422	-0.0288086	-0.961426	-0.594285	0.141349	0.677422	0.409811	9.01067	3.74532	0.38324	-0.0128421	-0.0096287	0.0244019	-1.08691	-0.239258	-0.298828	-0.696805	-0.270816	0.613436	-0.254594	9.77483	0.104663	1.0498	-0.0812555	0.0124553	-0.00812694	-0.915039	-0.323975	-0.388428	0.515123	0.272189	-0.682654	0.441073	9.33585	-3.24695	-0.723572	0.00659296	-0.00514833	-0.0350156	-1.03882	-0.0166016	-0.052002	0.514107	0.456768	-0.311863	0.655591	9.78596	0.976039	4.11988	0.0353942	0.0255888	-0.0187931	-0.978027	-0.279785	-0.373779	-0.0477364	0.384954	0.0198778	0.921486	7.34361	-0.0107702	7.37649	-0.000430921	-0.0272108	-0.0103343	-0.962891	0.0703125	-0.362549	-0.338055	0.562513	0.15008	0.739442	9.55026	-1.5362	3.35319	0.0531854	0.02482	-0.0259568	-1.01904	0.506592	0.0979004	-0.0262496	0.890192	0.452063	-0.050084	-0.876514	-0.144805	-9.12597	0.0486059	-0.000804921	-0.0433073	0.621338	0.128418	1.16211	0.177444	0.611391	-0.0525273	0.769386	9.65757	1.25007	2.29011	-0.0584115	0.00181901	-0.0187839	-1.0144	-0.306396	0.261719	-0.00372589	0.999176	-0.0315608	-0.0252548	-0.53344	-0.0580599	-9.74634	-0.0337525	0.0183402	-0.00744145	0.453613	-0.0334473	0.949219	
38	-0.219152	-0.647629	-0.188882	0.704892	-9.74595	0.30779	0.945099	0.0132246	0.0232347	0.00806585	1.07666	0.136719	-0.33252	-0.134395	-0.119862	0.00360074	0.983645	-2.28645	0.590648	9.83284	-0.00825228	0.00604704	-0.00922413	-0.00292969	-0.0288086	-0.963867	-0.593822	0.142555	0.677658	0.409674	9.06529	3.7624	0.457175	-0.0135208	-0.0336911	0.0107346	-1.08691	-0.237061	-0.30127	-0.697802	-0.269441	0.61314	-0.254035	9.73448	0.752172	1.05517	0.017325	0.0411639	-0.00195011	-0.908447	-0.321777	-0.392822	0.51492	0.273232	-0.682335	0.441158	9.28888	-2.8935	-0.54787	0.0143219	-0.00766561	-0.05129	-1.04297	-0.0185547	-0.0588379	0.514968	0.456668	-0.310888	0.655447	9.75633	0.734745	4.3336	0.00717884	0.0236664	-0.0409172	-0.975586	-0.28418	-0.37793	-0.0477188	0.38608	0.019591	0.921022	7.36762	-0.0379503	7.29385	0.00105276	-0.0375526	-0.0123656	-0.969482	0.0722656	-0.360352	-0.338505	0.561923	0.15075	0.739548	9.61964	-1.50291	3.47299	0.054744	0.0268104	-0.018158	-1.021	0.506592	0.095459	-0.0265621	0.890054	0.452282	-0.0503901	-0.893467	-0.128071	-9.1679	0.0453495	-0.00226399	-0.0396952	0.623291	0.137695	1.15991	0.178158	0.611556	-0.0522432	0.76911	9.65792	1.35171	2.25169	0.0162175	0.00238395	-0.0149399	-1.01245	-0.302002	0.259521	-0.00327995	0.999179	-0.0316353	-0.0250823	-0.520349	-0.0523824	-9.75162	-0.0306439	0.0222279	-0.00112319	0.451172	-0.0336914	0.940186	
39	-0.218899	-0.648134	-0.188704	0.704554	-9.81856	0.380821	1.01781	0.011792	0.0131981	0.00458455	1.07666	0.136719	-0.330322	-0.134496	-0.120076	0.0035519	0.983606	-2.29119	0.559552	9.78853	0.0153664	0.00433389	-0.0140624	-0.000488281	-0.0354004	-0.963623	-0.594108	0.142851	0.677457	0.40949	9.02213	3.87858	0.295902	0.00959375	0.00255483	0.0205451	-1.09351	-0.234619	-0.303711	-0.698283	-0.269117	0.612927	-0.25357	9.79619	0.65535	0.920087	-0.0229554	0.017219	-0.015489	-0.912842	-0.31958	-0.388428	0.515052	0.273665	-0.68222	0.440912	9.33021	-3.24106	-0.635259	0.0428109	0.00364925	-0.0287597	-1.03418	-0.0229492	-0.0610352	0.515412	0.456713	-0.310362	0.655316	9.83218	0.66325	4.30149	0.0180428	0.0294118	-0.0390456	-0.969238	-0.281982	-0.37793	-0.0477188	0.38608	0.019591	0.921022	7.36762	-0.0379503	7.29385	0.00105276	-0.0375526	-0.0123656	-0.969482	0.0722656	-0.360352	-0.339187	0.561794	0.151552	0.739169	9.56559	-1.41617	3.43121	0.0231352	0.00332181	-0.0089797	-1.02319	0.504395	0.0932617	-0.0272039	0.889773	0.452759	-0.0507367	-0.884742	-0.170348	-9.15233	0.00866512	0.00649549	-0.0241084	0.623291	0.137695	1.15771	0.178365	0.611868	-0.0523946	0.768803	9.61793	1.3987	2.31141	-0.0163441	-0.0111306	0.00159094	-1.01489	-0.297607	0.261475	-0.00266515	0.999183	-0.0317288	-0.0248811	-0.511156	-0.0194751	-9.762	0.00128752	0.00515159	-0.00399939	0.449219	-0.0358887	0.944824	
40	-0.219013	-0.6482	-0.188781	0.704438	-9.90119	0.313096	0.990798	-0.00463295	-0.00451809	-0.00695866	1.07446	0.136719	-0.33252	-0.134614	-0.12003	0.00262579	0.983598	-2.25572	0.464018	9.79629	-0.0597143	0.0351536	-0.020197	-0.00512695	-0.0288086	-0.961426	-0.59422	0.143495	0.676766	0.410243	8.9965	3.68916	0.224088	-0.0511385	0.0122202	0.00836557	-1.09351	-0.236816	-0.308105	-0.698705	-0.26935	0.612554	-0.253059	9.70775	0.732567	1.09614	-0.0407494	0.0171751	-0.0365202	-0.908447	-0.31958	-0.399414	0.515049	0.274365	-0.681902	0.440973	9.2575	-3.15349	-0.697593	0.000848558	0.00405013	-0.0349974	-1.03662	-0.0185547	-0.0656738	0.515858	0.456609	-0.30984	0.655285	9.79669	0.678662	4.23466	0.00835926	0.0352858	-0.0361389	-0.973633	-0.281982	-0.375732	-0.0470569	0.388406	0.0190523	0.920089	7.3614	-0.170959	7.42035	-0.0211701	-0.0382455	-0.0074688	-0.967285	0.0700684	-0.354004	-0.339329	0.56207	0.151298	0.738946	9.53032	-1.78985	3.46232	-0.0019074	0.00759479	0.000700817	-1.0166	0.504395	0.095459	-0.0270783	0.889726	0.452857	-0.0507348	-0.892938	-0.166619	-9.12682	0.0117093	0.0071729	-0.0217346	0.628174	0.135498	1.15771	0.178609	0.612224	-0.0526215	0.768447	9.68183	1.12416	2.18242	-0.0061577	-0.00879958	0.000521182	-1.01245	-0.302002	0.259521	-0.00257026	0.999174	-0.0318383	-0.0251307	-0.514403	-0.0181716	-9.74866	0.00130853	-0.00546969	-0.00437966	0.451416	-0.0380859	0.942627	
41	-0.219168	-0.647671	-0.18965	0.704642	-9.82724	0.395132	0.99783	-0.0495429	-0.0204685	-0.0143355	1.07202	0.141113	-0.330322	-0.1351	-0.120112	0.00320039	0.98352	-2.24427	0.410708	9.89151	0.025817	0.0422378	0.00617475	-0.000732422	-0.0310059	-0.961426	-0.594621	0.14298	0.676931	0.409569	9.0316	3.81378	0.456662	0.0549244	0.0373216	0.00179463	-1.09351	-0.234619	-0.312744	-0.698868	-0.270069	0.61196	-0.253282	9.77468	0.649722	1.05341	0.0696622	0.0253063	-0.0102926	-0.90625	-0.321777	-0.392822	0.514991	0.275451	-0.681324	0.441258	9.32569	-2.95872	-0.692705	0.0604852	-0.0019905	-0.049632	-1.03418	-0.020752	-0.0656738	0.516435	0.456632	-0.30894	0.655239	9.78508	1.10107	4.18767	0.0054756	0.0362564	-0.0534696	-0.964844	-0.28833	-0.377686	-0.0470569	0.388406	0.0190523	0.920089	7.3614	-0.170959	7.42035	-0.0211701	-0.0382455	-0.0074688	-0.967285	0.0700684	-0.354004	-0.339423	0.562119	0.151704	0.738783	9.59092	-1.68012	3.42075	0.0171535	-0.00232949	-0.0118416	-1.01904	0.508789	0.0908203	-0.0271431	0.889687	0.45293	-0.050743	-0.895622	-0.176758	-9.13826	0.0173171	0.0107689	-0.0257345	0.621094	0.137695	1.15527	0.178344	0.612707	-0.0521186	0.768158	9.69023	1.21561	2.23884	0.0254758	-0.01235	-0.00546223	-1.01685	-0.302002	0.261719	-0.00263166	0.999171	-0.0318466	-0.0252046	-0.525773	-0.0393704	-9.77733	0.00932145	0.00130944	-0.00755332	0.45166	-0.0402832	0.94043	
42	-0.219946	-0.647159	-0.19045	0.704655	-9.81164	0.145541	0.90923	-0.0393549	-0.0114983	-0.00159424	1.07642	0.143311	-0.334717	-0.135646	-0.120702	0.00362609	0.983371	-2.33859	0.453283	9.93097	0.0112535	0.0352214	0.00481166	0.00170898	-0.0354004	-0.961182	-0.594844	0.143168	0.676492	0.409905	9.06384	3.7673	0.342249	-0.0123109	0.0125317	0.00434875	-1.08911	-0.239014	-0.310303	-0.699248	-0.27042	0.61146	-0.253066	9.85097	0.532984	0.984161	0.0159757	0.0241066	-0.0260261	-0.906006	-0.326172	-0.399414	0.514897	0.276922	-0.680917	0.441076	9.40987	-3.14162	-0.67012	0.0413949	-0.0195587	-0.0622218	-1.04492	-0.0275879	-0.0563965	0.516648	0.456955	-0.307534	0.655508	9.80568	0.922888	4.29826	0.0637824	0.0443581	-0.0425172	-0.968994	-0.290527	-0.375488	-0.0484581	0.393953	0.0229266	0.917566	7.49499	-0.0264996	7.15929	0.101198	-0.112601	-0.000441079	-0.971436	0.0678711	-0.341309	-0.340283	0.561785	0.153522	0.738265	9.56267	-1.60572	3.50979	0.121826	-0.00122839	-0.024307	-1.0188	0.502197	0.0957031	-0.0275319	0.889455	0.453369	-0.0506798	-0.878399	-0.167477	-9.1646	0.000661816	0.0124934	-0.0244312	0.618652	0.137451	1.16431	0.178587	0.613358	-0.051838	0.767601	9.68791	1.15827	2.12015	0.0343051	-0.0148119	-0.0137364	-1.01685	-0.302002	0.273193	-0.00265202	0.999172	-0.031858	-0.0251499	-0.534136	-0.0281878	-9.74661	0.0014722	0.00557764	-0.00675863	0.449219	-0.0358887	0.944824	
43	-0.22067	-0.646986	-0.190592	0.704548	-9.75324	0.159465	0.962873	-0.0227863	-0.0120649	0.0206512	1.07666	0.138916	-0.328125	-0.136086	-0.120689	0.00367616	0.983311	-2.35384	0.45688	9.8665	-0.0252496	0.0178296	-0.0035471	-0.000732422	-0.0310059	-0.963867	-0.595284	0.14279	0.676247	0.409802	9.07618	3.75809	0.367215	0.0192245	0.0294521	0.00517749	-1.08911	-0.234863	-0.305908	-0.699406	-0.271244	0.610738	-0.25349	9.76394	0.81666	1.07178	0.0289281	0.0242098	-0.0192463	-0.906006	-0.326172	-0.397217	0.514833	0.277559	-0.680522	0.441359	9.34829	-2.95908	-0.523814	0.0571419	0.00377104	-0.0429782	-1.03418	-0.020752	-0.0610352	0.517558	0.456729	-0.307225	0.655091	9.81732	0.790206	4.32412	-0.0188923	0.0278659	-0.0525963	-0.968994	-0.28833	-0.379883	-0.0487531	0.397525	0.0229582	0.916008	7.46545	-0.0502862	7.22157	0.00908456	-0.148357	0.00798167	-0.976074	0.0766602	-0.330811	-0.340726	0.561614	0.154635	0.737959	9.58389	-1.49634	3.42101	0.0336073	-0.000939672	-0.0245095	-1.02124	0.506592	0.0908203	-0.0272022	0.889274	0.453774	-0.0504172	-0.887109	-0.17422	-9.15101	-0.0107393	0.00718346	-0.0265224	0.618896	0.133057	1.16431	0.178654	0.614079	-0.0511875	0.767053	9.68683	1.39058	2.19431	-0.00773121	-0.0210874	-0.0171901	-1.01685	-0.304199	0.268555	-0.00254835	0.999175	-0.0318066	-0.0251104	-0.527083	-0.0243095	-9.74955	-0.00191006	0.0052479	-0.00581847	0.453613	-0.0334473	0.937988	
44	-0.221537	-0.646797	-0.190698	0.704422	-9.75746	0.170047	0.953275	-0.0312596	-0.00700425	0.0222055	1.07446	0.138916	-0.330322	-0.136504	-0.120589	0.00350353	0.983266	-2.30212	0.340811	9.77567	-0.00472327	0.0131598	-0.000894852	0.00585938	-0.0332031	-0.956787	-0.59572	0.142583	0.676064	0.409543	8.93997	3.83247	0.412693	-0.00113442	0.0241289	0.0036387	-1.09131	-0.234619	-0.310547	-0.699611	-0.271933	0.610011	-0.253937	9.74932	0.638572	1.0553	0.046129	0.036063	-0.0107848	-0.907959	-0.332764	-0.392578	0.51521	0.278024	-0.680264	0.441025	9.40363	-3.0885	-0.777912	0.00654677	0.0113932	-0.0396664	-1.03857	-0.0229492	-0.0610352	0.51824	0.456412	-0.306541	0.655094	9.78775	0.991109	4.24922	0.0123894	0.050142	-0.0397905	-0.966797	-0.292725	-0.381836	-0.0492769	0.399375	0.023189	0.915169	7.54878	-0.12272	7.10596	0.0589398	-0.0383681	-0.00503738	-0.978027	0.0700684	-0.326416	-0.341403	0.5615	0.156066	0.737432	9.54302	-1.7282	3.34751	0.0785425	-0.00940235	-0.020908	-1.021	0.502197	0.0932617	-0.0267564	0.889241	0.453883	-0.0502475	-0.870849	-0.181823	-9.12092	-0.0254202	0.00481558	-0.02599	0.616455	0.135254	1.15991	0.178944	0.614731	-0.0509126	0.766481	9.69928	1.25118	2.19558	0.0343432	-0.014596	-0.0183603	-1.01929	-0.299805	0.266113	-0.0027327	0.999173	-0.0318107	-0.0251778	-0.528633	-0.0204456	-9.7475	0.0187532	0.00189923	-0.00791302	0.449219	-0.0380859	0.947021	
45	-0.221993	-0.646764	-0.19086	0.704264	-9.78513	0.112026	0.949488	-0.0355182	-0.00146564	0.0188103	1.07886	0.136719	-0.330322	-0.136672	-0.120479	0.00349938	0.983256	-2.31745	0.378991	9.81554	-0.0125362	0.00712164	-0.00574837	0.00146484	-0.0288086	-0.961426	-0.595875	0.142491	0.67596	0.409522	9.04442	3.76768	0.358248	0.00760252	0.0199777	0.00237432	-1.08691	-0.234863	-0.312744	-0.699784	-0.272161	0.609607	-0.254186	9.78193	0.643574	1.12705	0.0308461	0.0382576	-0.00886242	-0.903564	-0.328369	-0.394775	0.515446	0.278728	-0.679679	0.441205	9.35055	-2.92977	-0.707476	0.0163091	0.0158333	-0.0364023	-1.03833	-0.0273438	-0.0632324	0.51824	0.456412	-0.306541	0.655094	9.78775	0.991109	4.24922	0.0123894	0.050142	-0.0397905	-0.966797	-0.292725	-0.381836	-0.0493756	0.400248	0.0232697	0.91478	7.49727	-0.0794429	7.10084	0.0238383	-0.0619013	-0.00960454	-0.980225	0.0722656	-0.328613	-0.342115	0.56125	0.157032	0.737087	9.53237	-1.63427	3.3991	0.105661	-0.00284675	-0.0107687	-1.02319	0.504395	0.0932617	-0.0263927	0.889196	0.454005	-0.0501279	-0.886606	-0.149396	-9.16339	-0.0178173	0.00417269	-0.0272924	0.621094	0.135498	1.15527	0.178654	0.615147	-0.050238	0.76626	9.63344	1.23299	2.10229	0.0615632	-0.0150891	-0.0176415	-1.01636	-0.310791	0.268799	-0.00280622	0.999171	-0.03184	-0.0251945	-0.529147	-0.0249815	-9.7343	0.000588266	0.00580593	-0.00516525	0.45166	-0.0424805	0.949463	
46	-0.222744	-0.646651	-0.191162	0.704049	-9.82236	0.0754336	0.945292	-0.0287961	-0.00848372	0.0124217	1.07446	0.136719	-0.33252	-0.137003	-0.120278	0.00345005	0.983235	-2.30532	0.420583	9.87499	-0.014551	0.0157006	-0.00668982	0.00366211	-0.0310059	-0.961426	-0.59625	0.142689	0.675962	0.408903	9.04861	3.83039	0.393284	0.0190566	0.0107734	0.0295118	-1.09131	-0.228271	-0.301514	-0.700182	-0.272332	0.608891	-0.254622	9.83848	0.582107	1.08969	0.0381425	0.0435413	0.000333408	-0.901367	-0.328369	-0.394775	0.515664	0.27959	-0.67895	0.441529	9.4332	-2.98378	-0.692871	0.0380852	0.0182913	-0.0461655	-1.04688	-0.029541	-0.0610352	0.519409	0.455564	-0.305376	0.655302	9.84841	1.0487	4.3345	0.0116375	0.0577132	-0.0333835	-0.9646	-0.292725	-0.384033	-0.0492378	0.401986	0.0228013	0.914037	7.57928	-0.0570065	7.05845	-0.0104487	-0.0584903	-0.0121863	-0.980469	0.0744629	-0.328613	-0.342938	0.561317	0.158171	0.73641	9.56677	-1.37182	3.37583	0.0255441	-0.0148875	-0.00771034	-1.01685	0.508789	0.0979004	-0.0261958	0.888935	0.454531	-0.0501035	-0.903363	-0.149837	-9.17292	0.00130367	0.00326221	-0.0264718	0.616455	0.135254	1.15771	0.178362	0.615978	-0.0493324	0.765719	9.65768	1.59205	2.19351	0.0228459	-0.0178737	-0.0168679	-1.01025	-0.302002	0.273193	-0.00279681	0.999171	-0.0318515	-0.0252136	-0.531949	-0.0387749	-9.77719	0.00613912	0.00797397	-0.00716927	0.449219	-0.0402832	0.942627	
47	-0.222784	-0.646574	-0.191431	0.704033	-9.78793	0.154832	0.977199	-0.00400845	-0.000133811	-0.0129528	1.07422	0.141113	-0.330322	-0.137278	-0.120065	0.00313204	0.983224	-2.26239	0.447062	9.82795	-0.025799	0.01237	-0.0117485	-0.000732422	-0.0310059	-0.966064	-0.596547	0.143117	0.675828	0.40854	8.99609	3.82195	0.406862	-0.000627078	0.00173048	0.0266393	-1.08716	-0.230469	-0.30835	-0.700743	-0.272375	0.608128	-0.254857	9.71294	0.718602	1.08778	0.00480084	0.0414315	-0.0111924	-0.89917	-0.328125	-0.403809	0.515958	0.280273	-0.678405	0.441588	9.40719	-2.9406	-0.642903	0.0200771	0.0134578	-0.042793	-1.04028	-0.0317383	-0.0656738	0.520255	0.454801	-0.304938	0.655366	9.80956	0.834151	4.42417	-0.0148756	0.0522417	-0.0315185	-0.958008	-0.294922	-0.390381	-0.0487381	0.403943	0.0215658	0.91323	7.7057	-0.104087	6.97273	-0.0379312	-0.0514809	-0.0127396	-0.978271	0.0744629	-0.315918	-0.342549	0.562165	0.157749	0.736034	9.56439	-1.67652	3.45391	-0.0229569	-0.017788	-0.00716676	-1.01904	0.506592	0.0908203	-0.025861	0.888852	0.454719	-0.0500466	-0.888329	-0.152866	-9.11854	-0.00113592	0.00592762	-0.0255918	0.625977	0.130859	1.16431	0.179423	0.616503	-0.0501934	0.764992	9.74621	1.16805	2.02778	-0.0531769	-0.0221871	-0.0133146	-1.01221	-0.306396	0.273193	-0.00266445	0.999168	-0.0319327	-0.025246	-0.524999	-0.028891	-9.75634	-0.00100957	0.00585317	-0.00607558	0.453857	-0.0424805	0.947266	
48	-0.22266	-0.646606	-0.191553	0.70401	-9.77484	0.178072	1.00282	-3.11755e-05	0.00168615	-0.00646126	1.07227	0.138916	-0.33252	-0.137315	-0.120016	0.00302114	0.983225	-2.23874	0.422987	9.81705	-0.011225	0.0129794	-0.020787	0.00341797	-0.0288086	-0.963867	-0.596733	0.143787	0.67564	0.408346	9.06141	3.72598	0.336624	-0.0193382	-0.00240788	0.0336316	-1.08716	-0.228271	-0.30835	-0.701534	-0.271675	0.607797	-0.254216	9.73131	0.809175	1.19855	-0.085927	0.0280558	-0.0169191	-0.901367	-0.328125	-0.406006	0.516447	0.28054	-0.677819	0.441748	9.45067	-2.83901	-0.577235	-0.000540633	0.0340453	-0.0274079	-1.04053	-0.029541	-0.0678711	0.520982	0.454023	-0.304479	0.65554	9.80734	1.07453	4.39216	-0.0399439	0.05085	-0.0301804	-0.960449	-0.290527	-0.390625	-0.048356	0.404599	0.0209036	0.912976	7.60275	-0.0769959	7.03171	-0.0065926	-0.0246846	-0.0215541	-0.976074	0.0744629	-0.322266	-0.342887	0.562572	0.15821	0.735467	9.5375	-1.6352	3.29887	0.0128774	-0.00585869	-0.0088953	-1.0166	0.504395	0.0932617	-0.0255044	0.888777	0.454888	-0.050021	-0.894257	-0.130694	-9.17027	0.000826128	0.00204224	-0.0270215	0.614258	0.135254	1.15991	0.179681	0.617099	-0.0500324	0.764461	9.64939	1.40018	2.2549	0.00203876	-0.0179713	-0.0137682	-1.00781	-0.306396	0.275391	-0.00270912	0.999167	-0.0319578	-0.025244	-0.524522	-0.021599	-9.76563	0.00404415	0.00684012	-0.0061292	0.451416	-0.0380859	0.944824	
49	-0.222355	-0.646859	-0.191143	0.703986	-9.82362	0.0491151	1.02712	0.0352386	0.00468641	-0.000459485	1.07617	0.147705	-0.334717	-0.137095	-0.119972	0.00298754	0.983261	-2.14194	0.450388	9.82307	-0.00706939	0.0204429	-0.0293501	-0.000732422	-0.0310059	-0.961426	-0.596569	0.145297	0.675436	0.408386	9.01212	3.56945	0.442672	-0.0296598	-0.00616499	0.0248611	-1.09155	-0.226074	-0.306152	-0.702271	-0.271129	0.607203	-0.254184	9.70258	0.689135	1.11731	0.0238781	0.0549545	0.00615079	-0.89917	-0.328125	-0.401367	0.517277	0.280232	-0.677663	0.44121	9.3607	-2.99399	-0.62456	-0.0201879	0.0330405	-0.0341057	-1.04053	-0.029541	-0.0700684	0.521722	0.453307	-0.304884	0.65526	9.7748	0.971676	4.38346	-0.0110037	0.0247049	-0.0237468	-0.966797	-0.292725	-0.390381	-0.0479374	0.405516	0.0200889	0.912609	7.69084	-0.113974	6.96981	-0.0052257	-0.0187405	-0.0207895	-0.980469	0.0786133	-0.315918	-0.343254	0.563034	0.158524	0.734874	9.5961	-1.52569	3.29924	0.0258295	-0.0180779	0.00186845	-1.01904	0.508789	0.100098	-0.025383	0.88868	0.455077	-0.0500859	-0.889091	-0.134589	-9.14671	0.0120301	0.00580309	-0.0268128	0.621338	0.133057	1.16211	0.179922	0.617532	-0.0499449	0.76406	9.71707	1.40788	2.08596	0.0191389	-0.00154436	-0.00754447	-1.01172	-0.317383	0.278076	-0.00249572	0.999167	-0.0319498	-0.0252692	-0.529704	-0.0269858	-9.73843	-0.00580192	0.00599029	-0.00880794	0.449219	-0.0402832	0.949463	
50	-0.22115	-0.647111	-0.190365	0.704344	-9.82114	0.252832	1.07578	0.0582499	-0.00566164	-0.0165503	1.07642	0.143311	-0.33252	-0.136564	-0.120275	0.00282664	0.983299	-2.22457	0.484392	9.84339	-0.00680874	0.0205637	-0.0313797	-0.00488281	-0.0354004	-0.958984	-0.596751	0.14549	0.675704	0.407609	9.08346	3.66567	0.489424	0.0233979	-0.00737518	0.0238067	-1.08716	-0.226074	-0.30835	-0.702633	-0.271011	0.606517	-0.254945	9.73881	0.779626	1.20116	0.0378731	0.0409037	0.018205	-0.903564	-0.328125	-0.408203	0.517489	0.280324	-0.677406	0.441299	9.35929	-2.98064	-0.652231	0.0126348	0.0272734	-0.0286836	-1.03149	-0.0339355	-0.0700684	0.522424	0.452547	-0.305188	0.655084	9.83728	0.723983	4.43476	-0.027596	0.039342	-0.0186297	-0.958008	-0.294922	-0.392578	-0.0476166	0.405618	0.0195949	0.912591	7.72405	-0.11491	6.91236	-0.0175261	0.0420707	-0.0184003	-0.982666	0.076416	-0.317871	-0.343103	0.563568	0.158246	0.734595	9.61534	-1.54515	3.3654	-0.0265518	-0.0029913	-0.0053909	-1.01929	0.512939	0.100098	-0.025383	0.88868	0.455077	-0.0500859	-0.889091	-0.134589	-9.14671	0.0120301	0.00580309	-0.0268128	0.621338	0.133057	1.16211	0.179998	0.617891	-0.0498636	0.763757	9.67341	1.38461	2.02857	-0.0133204	-0.00143557	0.000871507	-1.00757	-0.308594	0.280029	-0.00254391	0.999169	-0.031901	-0.025228	-0.531683	-0.0222007	-9.74729	0.00398167	0.00512984	-0.0056457	0.453857	-0.0402832	0.94043	
51	-0.220439	-0.647299	-0.189897	0.704521	-9.78827	0.309916	1.09772	0.0259667	0.00208182	-0.00530512	1.07446	0.138916	-0.330322	-0.136432	-0.120223	0.00286539	0.983323	-2.18481	0.4196	9.89792	-0.00602277	0.0117105	-0.0290331	0.00341797	-0.0288086	-0.961426	-0.596792	0.145967	0.675524	0.407677	9.02913	3.66456	0.401913	-0.0282364	-0.00024561	0.0260381	-1.08936	-0.22168	-0.301758	-0.703026	-0.270451	0.606291	-0.254994	9.74514	0.631465	1.14431	0.00744701	0.0281126	0.0111923	-0.903564	-0.328125	-0.4104	0.517868	0.280232	-0.677258	0.44114	9.4462	-2.93183	-0.482882	-0.0109801	0.021372	-0.0248862	-1.03564	-0.0383301	-0.0610352	0.522536	0.452196	-0.305209	0.655227	9.78452	1.09171	4.50603	-0.0322816	0.020616	-0.0131238	-0.962646	-0.290527	-0.392822	-0.0477865	0.404188	0.0199855	0.913208	7.74589	-0.143866	6.98773	0.0601786	0.0992127	-0.02248	-0.980225	0.0722656	-0.317871	-0.342819	0.564043	0.157769	0.734466	9.64286	-1.76348	3.28545	-0.0119751	0.00963233	-0.0122974	-1.0166	0.504395	0.100098	-0.025397	0.888419	0.455571	-0.0502137	-0.902871	-0.127419	-9.14072	0.00814044	0.00162718	-0.0263132	0.623535	0.133057	1.16431	0.180195	0.618054	-0.0499509	0.763573	9.665	1.42467	2.15837	-0.00718351	0.00105344	-0.00362669	-1.01196	-0.310791	0.277832	-0.00259582	0.999168	-0.0318973	-0.0252798	-0.531083	-0.0290514	-9.74701	0.00811619	0.00282957	-0.00766781	0.451416	-0.0358887	0.949463	
52	-0.220241	-0.647395	-0.189817	0.704517	-9.7944	0.277331	1.10683	0.0165203	0.00351944	-0.00612886	1.07422	0.141113	-0.336914	-0.136108	-0.120213	0.00289134	0.983369	-2.15257	0.458061	9.95937	-0.0111497	0.0280617	-0.0345231	0.00341797	-0.0288086	-0.961426	-0.59665	0.146557	0.675501	0.407711	9.12283	3.59997	0.426486	0.00411884	-0.0107998	0.0136796	-1.08936	-0.223877	-0.30835	-0.703157	-0.27027	0.60619	-0.255066	9.73887	0.775177	1.28759	-0.00536612	0.0231082	0.00836844	-0.896729	-0.334717	-0.407959	0.518275	0.27988	-0.677059	0.441191	9.44272	-2.77335	-0.590439	-0.020415	0.0276378	-0.0129222	-1.04224	-0.0383301	-0.0678711	0.522617	0.451948	-0.30551	0.655194	9.78765	0.887135	4.38315	-0.0259754	0.01507	-0.00404378	-0.962646	-0.28833	-0.392822	-0.0479745	0.403623	0.0203727	0.91344	7.72868	-0.161591	7.00992	0.0536853	0.0619756	-0.0179027	-0.978271	0.0744629	-0.320068	-0.342898	0.564089	0.157902	0.734365	9.62161	-1.682	3.34536	0.0169894	0.00553991	-0.0135974	-1.01904	0.506592	0.095459	-0.025168	0.888336	0.455742	-0.0502396	-0.886293	-0.124274	-9.15113	0.00286773	0.00468666	-0.0239307	0.619141	0.130859	1.15991	0.180606	0.618186	-0.0503077	0.763345	9.73272	1.22059	2.0164	-0.0398104	-0.00945776	-0.00769694	-1.00977	-0.310791	0.282471	-0.00261631	0.999166	-0.0319345	-0.0253224	-0.513852	-0.0252958	-9.74436	0.00487149	0.00675533	-0.00635573	0.453857	-0.0402832	0.944824	
53	-0.220275	-0.647191	-0.18968	0.70473	-9.76723	0.277892	1.05632	-0.00409152	-0.0173433	0.00685255	1.07861	0.141113	-0.334717	-0.135743	-0.120204	0.00317158	0.98342	-2.2918	0.52567	9.85847	-0.00148175	0.0310107	-0.0331204	0.00585938	-0.0310059	-0.961426	-0.596519	0.147261	0.675435	0.407759	8.99777	3.72792	0.334886	-0.0275166	-0.00898493	0.0111635	-1.09375	-0.223877	-0.303955	-0.703426	-0.26941	0.606258	-0.255071	9.71339	0.777827	1.27686	-0.00927675	0.0161892	0.0126765	-0.901611	-0.32373	-0.406006	0.51854	0.279255	-0.677194	0.441068	9.40505	-3.01832	-0.553235	-0.00216839	0.0238006	0.0027268	-1.03369	-0.0339355	-0.0725098	0.522581	0.451337	-0.306367	0.655243	9.82236	0.873022	4.4493	-0.027777	0.0161249	0.00638836	-0.962402	-0.292725	-0.394775	-0.0483411	0.402536	0.02128	0.913879	7.59397	-0.110843	6.94052	0.0818182	0.0542916	-0.0242926	-0.980469	0.0744629	-0.322266	-0.342898	0.563949	0.157897	0.734473	9.60221	-1.58443	3.28574	-0.00275289	0.0234393	-0.0193319	-1.02344	0.508789	0.100098	-0.0250718	0.888307	0.455806	-0.0502266	-0.899868	-0.132985	-9.14094	0.00552251	0.00659718	-0.0235257	0.623779	0.130859	1.15332	0.180172	0.618542	-0.0496294	0.763204	9.64866	1.40128	2.10129	0.062637	0.00429248	-0.00135468	-1.00757	-0.308594	0.277832	-0.00267396	0.999167	-0.0319169	-0.0252696	-0.543725	-0.0210176	-9.74663	0.0116393	0.0074341	-0.00822525	0.451416	-0.0358887	0.942627	
54	-0.220567	-0.646675	-0.189362	0.705198	-9.78944	0.268479	1.03514	-0.00215256	-0.0394077	0.0116218	1.07446	0.136719	-0.336914	-0.135335	-0.119783	0.00320345	0.983527	-2.30561	0.302974	9.88592	0.0239355	-0.0243765	-0.0377722	-0.00683594	-0.0397949	-0.961182	-0.596232	0.147875	0.675625	0.40764	8.96399	3.71605	0.454738	0.0161369	-0.0264477	0.02511	-1.09155	-0.223877	-0.303955	-0.703651	-0.268731	0.60636	-0.254925	9.72268	0.517713	1.18853	-0.050318	0.0221811	0.0225067	-0.897217	-0.32373	-0.406006	0.519018	0.278351	-0.67733	0.440868	9.49347	-3.01943	-0.609799	-0.041098	0.0349382	0.00771266	-1.03833	-0.029541	-0.0632324	0.52249	0.451027	-0.306713	0.655367	9.87026	0.869798	4.40594	-0.021798	0.0176752	0.0148915	-0.962402	-0.292725	-0.394775	-0.049109	0.401562	0.0240323	0.914198	7.52313	0.0334214	7.05373	0.164008	0.0158673	-0.0392168	-0.976074	0.0722656	-0.322021	-0.342569	0.563763	0.157596	0.734834	9.56833	-1.74546	3.24627	-0.00264306	0.0363371	-0.0291483	-1.01489	0.510986	0.0976562	-0.025347	0.888058	0.456265	-0.0503269	-0.903918	-0.138759	-9.13203	0.021213	0.00633144	-0.0270365	0.625977	0.133057	1.15771	0.179716	0.618891	-0.049076	0.763064	9.62856	1.33763	2.07543	0.0251664	0.00638856	0.00337043	-1.00781	-0.306396	0.277832	-0.00283407	0.999164	-0.0319047	-0.0254073	-0.519265	-0.0424867	-9.76076	0.0100648	-0.00111902	-0.0104164	0.449463	-0.0424805	0.944824	
55	-0.222233	-0.646585	-0.188689	0.704938	-9.63065	-0.0112695	1.03903	-0.0237549	-0.0079891	0.0741045	1.07471	0.134521	-0.33252	-0.134145	-0.119708	0.00495653	0.983692	-2.09236	0.505506	9.94319	0.0470778	0.00731032	-0.0690077	0.00146484	-0.0332031	-0.961426	-0.595581	0.14925	0.675627	0.408088	8.97104	3.70268	0.310378	-0.0874534	-0.0368905	0.0135744	-1.09375	-0.223877	-0.306152	-0.704155	-0.267432	0.606247	-0.255168	9.62356	0.95844	1.21566	-0.0703864	0.0348275	0.0266342	-0.901611	-0.321533	-0.416992	0.519441	0.277011	-0.677637	0.440743	9.3853	-2.53218	-0.509323	-0.0818113	0.030861	0.0129415	-1.03833	-0.029541	-0.0700684	0.522002	0.450555	-0.307815	0.655564	9.69483	1.10174	4.47925	-0.0227294	-0.00693062	0.0312313	-0.967041	-0.28833	-0.39502	-0.0489642	0.401317	0.0253143	0.914279	7.80476	0.0351896	6.46658	0.0397849	0.0197907	-0.0438023	-0.977783	0.0656738	-0.328369	-0.343155	0.563133	0.15865	0.734817	9.66194	-1.49874	3.38778	0.0668537	0.0176431	-0.0254187	-1.01709	0.510986	0.095459	-0.0259292	0.88792	0.45647	-0.0506082	-0.89533	-0.164927	-9.11249	0.0304419	0.0133959	-0.0283498	0.618896	0.135254	1.16211	0.17923	0.619203	-0.0484452	0.762966	9.74029	1.40683	2.06844	0.0338922	-0.0017661	-0.000532089	-1.01196	-0.312988	0.277832	-0.00307873	0.99916	-0.0318853	-0.0255559	-0.535673	-0.0447984	-9.75089	0.0167662	0.00256728	-0.0104938	0.449219	-0.0380859	0.944824	
56	-0.222326	-0.646811	-0.187525	0.705011	-9.83091	-0.13934	0.951308	0.0556902	-0.011676	0.0111247	1.07251	0.132568	-0.338867	-0.132246	-0.119855	0.00591048	0.983926	-2.31971	0.568375	9.75886	0.0321158	-0.00285399	-0.0957301	0.00170898	-0.0397949	-0.96582	-0.594854	0.150706	0.675729	0.408444	9.16182	3.70052	0.481919	-0.0461439	-0.0298339	0.0136007	-1.09155	-0.217285	-0.299561	-0.70483	-0.266042	0.606126	-0.255046	9.80552	0.717813	1.20055	-0.0469715	0.0354932	0.0222336	-0.897461	-0.319336	-0.412598	0.520064	0.274566	-0.678468	0.440259	9.33018	-3.05682	-0.604957	-0.0594796	0.0420489	0.0414465	-1.03174	-0.029541	-0.0769043	0.521784	0.449813	-0.310189	0.655128	9.83199	0.803361	4.31835	-0.0739728	-0.0270178	0.0318563	-0.95874	-0.279785	-0.395264	-0.048284	0.401005	0.0257379	0.91444	7.51108	0.0980931	7.17994	0.0110399	0.0196174	-0.0500588	-0.977783	0.0656738	-0.324219	-0.343274	0.562855	0.158929	0.734914	9.54791	-1.45154	3.37364	0.0020016	0.0253189	-0.0206555	-1.01904	0.508789	0.095459	-0.0257913	0.887908	0.456521	-0.05043	-0.890974	-0.150779	-9.15743	0.00574418	0.0108182	-0.0209309	0.616455	0.135254	1.15991	0.178594	0.619366	-0.0479551	0.763014	9.6604	1.47648	2.03392	0.032802	0.00505616	0.00923443	-1.01196	-0.310791	0.284668	-0.00303682	0.999162	-0.0318581	-0.025525	-0.536429	-0.0278679	-9.74761	-0.00375324	0.00809079	-0.00715163	0.451416	-0.0358887	0.940186	
57	-0.219853	-0.647139	-0.186565	0.70574	-9.8725	0.126128	0.964752	0.109735	-6.82817e-05	-0.0682497	1.07471	0.134521	-0.330322	-0.130532	-0.119504	0.00622475	0.984196	-2.25792	0.523936	9.88991	-0.0051568	-0.0106088	-0.0777158	-0.000244141	-0.0419922	-0.96582	-0.594228	0.152388	0.675602	0.408942	9.12985	3.5773	0.26813	-0.0573391	-0.0362432	0.0241031	-1.09155	-0.219482	-0.299561	-0.705344	-0.264678	0.606267	-0.254706	9.70969	0.530529	1.22503	-0.0208064	0.023128	0.0214094	-0.897461	-0.319336	-0.414795	0.520595	0.272387	-0.679237	0.4398	9.35244	-3.09319	-0.574229	-0.0907721	0.0439051	0.0307453	-1.04077	-0.020752	-0.0700684	0.521711	0.449149	-0.312049	0.654758	9.79516	0.855856	4.38991	-0.0686514	-0.0166749	0.015349	-0.967041	-0.28418	-0.390869	-0.0471881	0.400322	0.0242451	0.914838	7.57258	-0.142319	6.95821	-0.0594685	0.0478494	-0.0299807	-0.982178	0.0656738	-0.328369	-0.343104	0.562948	0.158588	0.734996	9.53442	-1.60335	3.43133	-0.00385194	0.00694091	-0.0156677	-1.01904	0.508789	0.0979004	-0.0252952	0.887863	0.456651	-0.0502822	-0.897672	-0.165271	-9.12786	-0.00604915	0.00398779	-0.0229198	0.621338	0.133057	1.16431	0.178945	0.619023	-0.0486063	0.763169	9.71629	1.34769	2.07172	-0.0481056	0.0222256	0.00966988	-1.01196	-0.312988	0.284668	-0.00279015	0.999157	-0.0319236	-0.0256733	-0.545659	-0.0540167	-9.75392	-0.00748614	0.00139321	-0.00651014	0.447021	-0.0402832	0.944824	
58	-0.216306	-0.647339	-0.186422	0.70669	-9.79203	0.679858	1.00847	0.0890863	-0.00211416	-0.0999384	1.07446	0.138916	-0.336914	-0.129766	-0.119391	0.00674107	0.984307	-2.29859	0.427513	9.84767	0.0105165	0.0199842	-0.0389617	-0.000488281	-0.0397949	-0.963379	-0.593979	0.152831	0.675874	0.408688	9.177	3.62613	0.373522	0.0260988	-0.00765416	0.0096134	-1.09375	-0.215088	-0.301758	-0.705425	-0.26377	0.606548	-0.254756	9.81762	0.57255	1.20059	-0.0139741	0.00878499	0.0314136	-0.904053	-0.317139	-0.414795	0.521445	0.270866	-0.679682	0.439044	9.26841	-3.1107	-0.848156	-0.0535594	0.0287283	-0.00791213	-1.03638	-0.0251465	-0.0769043	0.52221	0.448483	-0.314115	0.653828	9.83425	0.983639	4.25866	-0.0798075	-0.0164322	-0.00552649	-0.967529	-0.275391	-0.393066	-0.0463768	0.399399	0.0232487	0.915308	7.57077	-0.290149	7.16557	-0.0174011	0.0677636	-0.0319914	-0.97583	0.0678711	-0.332764	-0.342571	0.563248	0.158038	0.735133	9.54367	-1.69398	3.36683	-0.0375679	0.0176743	-0.02257	-1.01489	0.510986	0.095459	-0.024825	0.887825	0.456767	-0.0501514	-0.901341	-0.146546	-9.14372	-0.00688759	0.00394699	-0.0226454	0.621338	0.130859	1.16431	0.1792	0.618915	-0.0489053	0.763178	9.65795	1.23811	1.99616	0.00744998	0.0119808	0.00143487	-1.01465	-0.302002	0.277588	-0.0024461	0.999162	-0.0318883	-0.0255369	-0.539064	-0.0404674	-9.75492	-0.00749874	0.0139275	-0.00842695	0.449219	-0.0358887	0.947021	
59	-0.215512	-0.647174	-0.187073	0.706911	-9.70369	0.75375	0.897108	-0.025859	0.0076037	-0.0204307	1.06787	0.138916	-0.341309	-0.129797	-0.119362	0.00736432	0.984302	-2.31715	0.411501	9.88549	0.0190566	0.00993576	-0.0122898	-0.00683594	-0.0441895	-0.963379	-0.593793	0.152982	0.676075	0.408569	8.96659	3.59438	0.224056	-0.0039009	-0.010275	0.00116525	-1.0957	-0.219482	-0.29248	-0.70528	-0.263343	0.606615	-0.255439	9.64126	0.657466	1.3094	-0.0138715	0.013025	0.0306323	-0.89502	-0.319336	-0.416992	0.521563	0.27083	-0.67948	0.439238	9.32903	-3.22164	-0.740987	0.0134818	0.0270286	-0.0121076	-1.03857	-0.020752	-0.0793457	0.523076	0.447378	-0.314966	0.653483	9.82875	0.714512	4.27639	-0.063204	0.0227129	-0.00838221	-0.965332	-0.277588	-0.386719	-0.0460723	0.398342	0.0228643	0.915794	7.51001	-0.0447731	7.10474	-0.00523817	0.0605518	-0.0246801	-0.975586	0.0615234	-0.334717	-0.342591	0.563207	0.158151	0.735131	9.57519	-1.56781	3.4557	0.0228865	0.00996621	-0.0182565	-1.01929	0.512939	0.100098	-0.0245035	0.887811	0.456818	-0.050083	-0.891436	-0.117226	-9.12956	-0.0123643	0.00241947	-0.0215495	0.625977	0.130859	1.16431	0.179183	0.618808	-0.0486244	0.763286	9.65054	1.41745	2.13329	0.00781623	0.0214491	-0.00455908	-1.00732	-0.312988	0.277832	-0.00215906	0.999166	-0.0318626	-0.0254304	-0.531706	-0.026619	-9.73413	-0.0182383	0.0161492	-0.00909944	0.449463	-0.0446777	0.944824	
60	-0.21719	-0.647667	-0.188107	0.705671	-9.8464	0.340061	0.901061	-0.0832404	0.0449071	0.0448681	1.07202	0.141113	-0.334717	-0.12988	-0.119391	0.0075333	0.984287	-2.31664	0.558875	9.79268	0.00343582	0.0170057	-0.0106035	0.00170898	-0.0397949	-0.95874	-0.593682	0.153228	0.676254	0.408343	9.04924	3.71311	0.188417	0.00872854	-0.0206959	0.0185393	-1.0957	-0.219482	-0.29248	-0.705366	-0.262965	0.606643	-0.255526	9.76344	0.411895	1.27906	-0.0177456	0.0179149	0.0229268	-0.899658	-0.319336	-0.419189	0.522125	0.270766	-0.679193	0.439054	9.37691	-3.03048	-0.556632	-0.00752996	0.0236976	-0.0220944	-1.04492	-0.0251465	-0.074707	0.522872	0.446984	-0.314582	0.654101	9.85224	0.846781	4.48403	0.0169999	0.0401397	0.00221433	-0.963135	-0.277588	-0.395264	-0.0460369	0.397037	0.0233108	0.916351	7.46502	-0.0249113	7.18612	0.046317	0.0722149	-0.027347	-0.971191	0.0637207	-0.336914	-0.342688	0.563228	0.158432	0.73501	9.5763	-1.52116	3.31162	0.0270646	0.00264432	-0.019803	-1.02319	0.506592	0.0979004	-0.02426	0.887772	0.456909	-0.0500589	-0.899947	-0.143353	-9.14391	-0.00534373	0.00195935	-0.0258923	0.623779	0.130859	1.15991	0.179714	0.61875	-0.0490778	0.76318	9.65448	1.29572	2.04308	-0.0223793	0.010653	-0.00126359	-1.00757	-0.310791	0.280029	-0.00177344	0.999171	-0.0318196	-0.0253239	-0.522504	-0.0135627	-9.74839	-0.0255109	0.0165482	-0.0111576	0.449219	-0.0402832	0.944824	
61	-0.218035	-0.647996	-0.188401	0.70503	-9.89264	0.203943	0.972222	-0.064193	0.0407107	0.0480368	1.07446	0.138916	-0.330322	-0.130101	-0.119253	0.0079485	0.984271	-2.31033	0.637339	9.83614	0.0124224	0.00988321	-0.0075817	-0.000244141	-0.0419922	-0.963379	-0.593471	0.153658	0.676415	0.408221	9.09775	3.54222	0.169257	0.00149281	-0.00813411	0.0100395	-1.09595	-0.217285	-0.290283	-0.705366	-0.262965	0.606643	-0.255526	9.76344	0.411895	1.27906	-0.0177456	0.0179149	0.0229268	-0.899658	-0.319336	-0.419189	0.522484	0.270936	-0.678617	0.439412	9.39618	-3.07072	-0.420812	0.0547334	0.0340085	-0.0213468	-1.03613	-0.029541	-0.0793457	0.522772	0.446829	-0.31444	0.654355	9.80522	0.7864	4.3974	0.0136746	0.0342176	-0.000553423	-0.965332	-0.275391	-0.393066	-0.0460369	0.397037	0.0233108	0.916351	7.46502	-0.0249113	7.18612	0.046317	0.0722149	-0.027347	-0.971191	0.0637207	-0.336914	-0.34234	0.563479	0.158328	0.735001	9.59584	-1.59762	3.37388	-0.0228469	0.011933	-0.0222287	-1.01904	0.506592	0.104736	-0.0239748	0.887515	0.457428	-0.0500196	-0.891573	-0.13188	-9.14522	0.00810734	0.00175079	-0.029096	0.621338	0.133057	1.15991	0.179714	0.61875	-0.0490778	0.76318	9.65448	1.29572	2.04308	-0.0223793	0.010653	-0.00126359	-1.00757	-0.310791	0.280029	-0.00189235	0.999182	-0.0316626	-0.0250753	-0.526429	-0.0115605	-9.7524	0.012612	0.00877555	-0.00848427	0.449219	-0.0402832	0.947266	
62	-0.218944	-0.648418	-0.188324	0.70438	-9.95112	0.113716	1.01866	-0.00807255	0.00630008	0.0289552	1.07202	0.143311	-0.33252	-0.129974	-0.119001	0.00815598	0.984316	-2.31922	0.768229	9.83603	0.00290658	-0.00345038	-0.0137459	-0.00244141	-0.0441895	-0.963379	-0.593616	0.153796	0.676399	0.407984	9.12221	3.69319	0.174212	-0.00864342	0.0104941	0.0089653	-1.09595	-0.219482	-0.297119	-0.705645	-0.262476	0.606166	-0.256387	9.78618	0.561419	1.32937	0.00567614	0.0173829	0.00162677	-0.9021	-0.312744	-0.426025	0.522894	0.270779	-0.678509	0.439189	9.24995	-3.14239	-0.55062	-0.0307512	0.0104785	-0.0286613	-1.04297	-0.020752	-0.0725098	0.522563	0.446724	-0.313998	0.654806	9.76791	0.775754	4.32581	0.0473695	0.0363524	-0.0119038	-0.974121	-0.273193	-0.397461	-0.0455053	0.39472	0.0225715	0.917396	7.4675	0.105285	7.16439	-0.0324904	0.100713	-0.011492	-0.97583	0.0678711	-0.341309	-0.342526	0.563555	0.158378	0.734845	9.61947	-1.52537	3.33206	0.0170293	0.0117374	-0.00775891	-1.02344	0.510986	0.0979004	-0.0235595	0.88744	0.457593	-0.0500293	-0.90329	-0.11411	-9.16809	-0.00167403	0.00161344	-0.0248693	0.621338	0.130859	1.15991	0.179571	0.618888	-0.0484395	0.763141	9.6569	1.40792	2.06198	0.0286373	0.00566406	-0.00174705	-1.00952	-0.317383	0.280273	-0.0022537	0.99918	-0.0316926	-0.0251039	-0.536661	-0.0262752	-9.73363	0.0183855	0.00339384	-0.00821302	0.44458	-0.0380859	0.942627	
63	-0.218578	-0.648335	-0.187914	0.70468	-9.85507	0.200553	1.0736	0.0293824	-0.0174486	-0.0143576	1.07422	0.141113	-0.339111	-0.129971	-0.118676	0.00818474	0.984356	-2.26383	0.746989	9.79893	-0.0103672	-0.0105607	-0.0193423	0.00195312	-0.0419922	-0.960938	-0.593785	0.154139	0.676145	0.40803	9.03941	3.57548	0.194839	-0.000199021	0.0126311	0.0131026	-1.09375	-0.219482	-0.303955	-0.705908	-0.262531	0.605863	-0.256323	9.67682	0.484434	1.30001	0.00154567	0.0164327	-0.00883962	-0.899658	-0.317139	-0.416992	0.522824	0.271247	-0.678226	0.43942	9.40956	-3.00853	-0.409932	0.0304217	0.00841569	-0.0175305	-1.04028	-0.0339355	-0.0839844	0.522798	0.446628	-0.313643	0.654854	9.81808	0.676103	4.41157	0.00113811	0.0247032	-0.0279203	-0.960938	-0.277588	-0.397461	-0.0455148	0.393212	0.0222165	0.918052	7.46387	0.125422	7.1677	-0.00193388	0.0734007	-0.00548878	-0.973633	0.0678711	-0.343262	-0.34258	0.56381	0.158221	0.734659	9.60935	-1.6042	3.29599	0.00375903	0.00504348	-0.00531944	-1.01489	0.510742	0.104736	-0.0234204	0.88736	0.457748	-0.0500989	-0.903278	-0.109173	-9.16414	0.0122455	0.00607839	-0.0245327	0.616699	0.130615	1.15991	0.179189	0.618983	-0.0480352	0.76318	9.65299	1.40037	2.12504	0.0234735	0.00707406	0.00395258	-1.00757	-0.308594	0.282471	-0.00218577	0.999179	-0.0317038	-0.0251267	-0.520534	-0.021408	-9.73088	-0.000782361	0.0050885	-0.00658617	0.447021	-0.0424805	0.942627	
64	-0.217698	-0.64779	-0.187424	0.705583	-9.74845	0.327494	1.01227	0.03976	-0.044785	-0.0234771	1.07886	0.136963	-0.334717	-0.12956	-0.118392	0.00824717	0.984444	-2.16356	0.659032	9.84021	-0.0101871	0.0104694	-0.0233826	-0.0065918	-0.0463867	-0.958496	-0.593906	0.154506	0.675902	0.408117	9.12251	3.51077	0.322754	-0.00824354	0.00515234	0.0108388	-1.09814	-0.215088	-0.304199	-0.706168	-0.262635	0.60567	-0.255956	9.68369	0.703619	1.31774	-0.0151908	0.00844857	-0.0178312	-0.899658	-0.317139	-0.421387	0.523179	0.270936	-0.678548	0.438692	9.38908	-3.0353	-0.455623	-0.0455944	0.0112559	-0.0222496	-1.03833	-0.029541	-0.0725098	0.522829	0.446905	-0.31343	0.654743	9.80469	0.789944	4.40976	0.0106393	0.00670849	-0.0261646	-0.962891	-0.281982	-0.390869	-0.04563	0.392526	0.0214934	0.918357	7.51037	-0.0276252	7.09842	-0.0104565	0.0472691	0.000100921	-0.978027	0.0678711	-0.347656	-0.342977	0.563754	0.15832	0.734495	9.57999	-1.59093	3.32112	0.0153593	0.012429	-0.00576296	-1.01709	0.515137	0.100098	-0.0236112	0.887265	0.457903	-0.0502727	-0.910388	-0.135129	-9.13438	0.0238566	0.00778347	-0.0267512	0.623535	0.133057	1.16895	0.179204	0.619216	-0.0480133	0.762989	9.68259	1.40216	2.03473	0.00579619	0.00452087	0.00331278	-1.01001	-0.306396	0.280029	-0.00228251	0.999179	-0.0315816	-0.025262	-0.523599	-0.0199579	-9.74398	0.00404461	-0.00137131	-0.00604319	0.449219	-0.0358887	0.944824	
65	-0.216997	-0.647606	-0.186816	0.706129	-9.7027	0.416862	1.02871	0.0352306	-0.0153204	-0.00591749	1.06982	0.141113	-0.334717	-0.129483	-0.118192	0.00802725	0.98448	-2.14435	0.553901	9.8613	-0.0140555	0.00110229	-0.0137027	-0.0090332	-0.0441895	-0.963379	-0.594043	0.154575	0.675648	0.408313	9.1292	3.51543	0.452559	0.00165432	0.0181364	-0.00584536	-1.09814	-0.212891	-0.294922	-0.706213	-0.263024	0.605612	-0.255571	9.71259	0.668743	1.25883	0.0327884	-0.000547099	-0.0153122	-0.897461	-0.317139	-0.419189	0.522998	0.271268	-0.678552	0.438695	9.35036	-2.98224	-0.596486	0.0191007	-0.00425332	-0.019029	-1.03638	-0.0251465	-0.081543	0.522937	0.447244	-0.313297	0.654488	9.78552	0.746462	4.39877	0.0249031	0.00560163	-0.0289917	-0.965088	-0.281982	-0.399414	-0.045934	0.391453	0.0212483	0.918805	7.51539	-0.0799214	7.14166	0.00612374	0.0542281	0.00447873	-0.971191	0.0615234	-0.347412	-0.343017	0.563825	0.158158	0.734457	9.58183	-1.68203	3.35758	-0.000196811	0.0164142	-0.0122642	-1.01709	0.510986	0.0976562	-0.0235694	0.88724	0.457952	-0.0502911	-0.898648	-0.124046	-9.16441	0.010814	0.00643492	-0.0230483	0.623779	0.130859	1.16431	0.179012	0.619202	-0.0479322	0.76305	9.69921	1.33635	2.06009	0.00778544	0.00883146	0.00584852	-1.00757	-0.308594	0.284668	-0.00231192	0.99918	-0.0314761	-0.0253482	-0.529266	-0.0296439	-9.74311	0.00319581	3.50351e-05	-0.00807498	0.455811	-0.0356445	0.937988	
66	-0.217046	-0.647776	-0.186522	0.706036	-9.66552	0.487809	1.05608	-0.00720603	0.00650573	0.0169754	1.07471	0.134521	-0.334717	-0.130063	-0.11805	0.00805843	0.98442	-2.11899	0.442262	9.82565	0.0065983	0.00318294	0.0088043	-0.00219727	-0.0463867	-0.960938	-0.594287	0.153847	0.675596	0.408319	9.04933	3.58187	0.404626	0.0305608	0.0197423	-0.018415	-1.09814	-0.210693	-0.299561	-0.70589	-0.263755	0.605686	-0.255534	9.74516	0.547564	1.30251	0.0435298	-0.00945781	-0.0121813	-0.9021	-0.314941	-0.419434	0.522625	0.271871	-0.678504	0.438841	9.39948	-2.98925	-0.56453	0.0190635	-0.0096198	-0.0125849	-1.03638	-0.0251465	-0.0793457	0.52298	0.447717	-0.312746	0.654394	9.81245	0.876949	4.38813	0.00297958	0.0126691	-0.0370649	-0.965332	-0.277588	-0.395264	-0.0465886	0.390978	0.0214167	0.918971	7.51088	-0.119222	7.05135	0.036731	0.0274551	0.00213299	-0.971436	0.0678711	-0.347656	-0.34314	0.563791	0.158287	0.734398	9.59218	-1.69535	3.33285	0.0198716	0.0127532	-0.0136767	-1.02319	0.506592	0.0979004	-0.0237104	0.887037	0.458332	-0.0503479	-0.906543	-0.112219	-9.14744	0.00642487	0.00851697	-0.0225742	0.628174	0.133057	1.16211	0.178357	0.619391	-0.0473096	0.76309	9.67967	1.43951	2.03049	0.0314996	0.00544867	0.00491044	-1.01196	-0.308594	0.282471	-0.00211311	0.999178	-0.0314454	-0.0254864	-0.550004	-0.0309477	-9.75895	-0.00156103	0.00420833	-0.00906568	0.453857	-0.0402832	0.947266	
67	-0.21834	-0.648044	-0.186965	0.705273	-9.88314	0.320996	1.03833	-0.0587147	0.0148952	0.0307731	1.07227	0.136719	-0.334717	-0.130755	-0.118189	0.00704768	0.98432	-2.1704	0.504968	9.87129	-0.0470716	0.0192004	0.0134248	-0.00683594	-0.0441895	-0.958496	-0.594395	0.152943	0.675656	0.408402	9.15314	3.60244	0.35264	0.0377762	0.0127224	-0.0206576	-1.09375	-0.215088	-0.294922	-0.705394	-0.264381	0.606059	-0.255373	9.81785	0.583977	1.21544	0.0158503	-0.0283356	-0.0144285	-0.9021	-0.314941	-0.419434	0.522255	0.272513	-0.678576	0.438772	9.39801	-2.97945	-0.560673	0.00224319	-0.0116613	-0.0242433	-1.03809	-0.0317383	-0.0725098	0.522931	0.448095	-0.31229	0.654392	9.83478	0.887294	4.41498	0.0194489	0.0109681	-0.023365	-0.962891	-0.28418	-0.401367	-0.0474277	0.390309	0.0218573	0.919202	7.45223	-0.0812747	7.2507	0.0344075	0.0269076	0.00889491	-0.969482	0.0722656	-0.347656	-0.343119	0.563155	0.158513	0.734847	9.54737	-1.59973	3.35946	-0.00391833	0.0302157	-0.0267264	-1.02344	0.510986	0.095459	-0.0238081	0.886869	0.45865	-0.0503643	-0.902508	-0.132122	-9.14746	0.0099111	0.0053549	-0.0241225	0.619141	0.128418	1.16211	0.178508	0.619206	-0.0474991	0.763193	9.69574	1.4057	2.09052	-0.0112807	0.026526	0.00858766	-1.01196	-0.308594	0.280029	-0.00208247	0.999184	-0.0313368	-0.0254072	-0.53519	-0.0238997	-9.76048	0.00114525	0.00687728	-0.00848214	0.451416	-0.0358887	0.942627	
68	-0.21905	-0.648092	-0.18752	0.704862	-9.79888	0.306306	1.11876	-0.0732506	0.0197224	0.0185589	1.07666	0.136719	-0.330322	-0.131232	-0.117701	0.00734344	0.984312	-2.14793	0.422213	9.77025	0.00414546	-0.0251059	0.0218036	-0.0090332	-0.0419922	-0.960938	-0.59442	0.152302	0.675908	0.408188	8.98471	3.60175	0.519055	0.0545011	0.0122476	-0.0267598	-1.0979	-0.217285	-0.297119	-0.704702	-0.264961	0.606508	-0.255614	9.7522	0.457109	1.20895	0.0259971	-0.0273787	0.00923635	-0.897461	-0.317139	-0.414795	0.52202	0.272753	-0.678465	0.439074	9.41883	-3.1477	-0.600704	0.0355026	-0.0028521	-0.00795112	-1.03833	-0.029541	-0.0700684	0.522854	0.448509	-0.31193	0.654342	9.746	0.82279	4.38852	0.0400795	0.00724396	-0.0224921	-0.965332	-0.277588	-0.390869	-0.0478295	0.390047	0.0221276	0.919286	7.43709	-0.0348132	7.19847	0.0508584	0.035932	0.00240938	-0.973877	0.0700684	-0.351807	-0.343042	0.562991	0.158423	0.735027	9.63326	-1.62751	3.31474	-0.00137539	0.0345922	-0.0234862	-1.01489	0.513184	0.0976562	-0.0237249	0.886833	0.45872	-0.0503961	-0.89503	-0.116359	-9.15288	0.00848506	0.00399576	-0.0241301	0.619141	0.128418	1.16675	0.178489	0.619046	-0.0475518	0.763323	9.69833	1.35969	2.00479	-0.00275572	0.0288245	0.00963969	-1.01221	-0.306396	0.284668	-0.00218843	0.999183	-0.0313198	-0.0254397	-0.536757	-0.0145094	-9.75223	0.0127793	0.00445807	-0.00938621	0.45166	-0.0424805	0.942627	
69	-0.220769	-0.647962	-0.188731	0.704121	-9.79272	0.0972986	1.12167	-0.0806759	0.00531514	0.0193177	1.07666	0.138916	-0.330322	-0.132055	-0.117903	0.00804194	0.984173	-2.02605	0.559388	9.78249	-0.0028195	0.00948943	0.0147285	-0.00268555	-0.0375977	-0.963623	-0.594243	0.151398	0.676168	0.408351	9.03904	3.58371	0.284742	0.0221581	-0.00513339	-0.0343208	-1.09595	-0.219482	-0.297119	-0.704295	-0.26542	0.606696	-0.255815	9.70043	0.771622	1.22664	0.0425387	-0.0296054	0.00181119	-0.897705	-0.312744	-0.410645	0.521481	0.273536	-0.678515	0.439151	9.36181	-2.83923	-0.536114	-0.0148549	-0.0165839	-0.017267	-1.03394	-0.029541	-0.0700684	0.522571	0.448824	-0.311757	0.654434	9.7402	0.895699	4.35932	0.0383681	0.00111891	-0.0109222	-0.965088	-0.281982	-0.390869	-0.0481791	0.388841	0.0222032	0.919776	7.51517	-0.0641163	6.94283	0.0189003	0.059232	0.000868098	-0.971924	0.0744629	-0.354004	-0.342901	0.562655	0.158461	0.735342	9.63327	-1.56605	3.39048	0.00388433	0.0245746	-0.0295727	-1.01904	0.506592	0.0932617	-0.0238635	0.886727	0.458909	-0.0504871	-0.901925	-0.125726	-9.13154	0.0236707	0.00953799	-0.0277825	0.619141	0.130859	1.15991	0.17801	0.618626	-0.0471315	0.763802	9.67303	1.40475	2.01861	0.0205356	0.0403117	0.0139292	-1.01196	-0.310791	0.277832	-0.00207933	0.999186	-0.0312367	-0.0254473	-0.533824	-0.0170412	-9.75238	-0.00409458	0.00854083	-0.0102192	0.447021	-0.0380859	0.93335	
70	-0.221682	-0.647521	-0.189526	0.704027	-9.81186	0.0269654	1.02227	-0.0404434	-0.0160778	-0.00292217	1.07642	0.143311	-0.330322	-0.132644	-0.118083	0.00789323	0.984073	-2.16514	0.535939	9.747	-0.0115685	0.0213103	0.00197084	-0.00683594	-0.0441895	-0.963379	-0.594063	0.150128	0.676637	0.408305	9.09905	3.7717	0.405	0.0402621	0.0185417	-0.0413847	-1.09155	-0.219482	-0.299561	-0.703466	-0.266109	0.607324	-0.255889	9.81792	0.717779	1.13408	0.0480398	-0.0379189	0.00361442	-0.904053	-0.317139	-0.412598	0.520502	0.274126	-0.678437	0.440064	9.46303	-2.95627	-0.547625	0.0703018	-0.0215828	0.00239357	-1.03833	-0.029541	-0.0700684	0.522061	0.449528	-0.311565	0.654449	9.85601	0.817445	4.4106	0.041273	-0.00439905	-0.0128551	-0.963135	-0.275391	-0.391113	-0.0487371	0.388163	0.0222026	0.920033	7.38812	0.00313366	7.17473	0.00826713	0.0493496	0.00258447	-0.973877	0.0700684	-0.354004	-0.342836	0.562143	0.158587	0.735737	9.61467	-1.58055	3.38634	0.00444947	0.0430636	-0.0285739	-1.01904	0.506592	0.095459	-0.0237472	0.886669	0.459027	-0.0504756	-0.895003	-0.135801	-9.14825	0.00519461	0.00625489	-0.024466	0.625977	0.130859	1.16431	0.177469	0.618244	-0.0469067	0.76425	9.68046	1.43278	2.12677	0.0183155	0.0369195	0.0189742	-1.01001	-0.304199	0.280029	-0.00211765	0.999188	-0.0311642	-0.0254332	-0.536696	-0.0199013	-9.78274	0.00692961	0.00914556	-0.00963464	0.451416	-0.0380859	0.944824	
71	-0.221532	-0.647357	-0.189988	0.7041	-9.76523	0.122942	0.983405	-0.00323595	0.00266095	-0.0213949	1.07886	0.136963	-0.33252	-0.132879	-0.11787	0.00786699	0.984067	-2.20252	0.538296	9.92746	-0.0160337	-0.000242523	-0.000555648	-0.00244141	-0.0397949	-0.95874	-0.593748	0.149284	0.676597	0.409138	9.01936	3.53396	0.2434	-0.00166491	0.0123313	-0.041113	-1.0957	-0.226074	-0.301514	-0.702969	-0.266553	0.607645	-0.256029	9.72746	0.709189	1.19723	0.037961	-0.0423487	0.00355009	-0.901855	-0.319336	-0.408203	0.519893	0.273872	-0.679023	0.440038	9.43303	-2.98595	-0.536925	-0.0274946	-0.0134073	0.0157915	-1.04077	-0.0229492	-0.074707	0.521897	0.449878	-0.311917	0.654172	9.80792	0.850883	4.42805	-0.000273291	-0.0165551	-0.00726289	-0.960693	-0.28418	-0.392822	-0.0489431	0.387785	0.0221366	0.920183	7.43963	-0.0859341	7.06806	0.0203091	0.0475247	-0.00153772	-0.973877	0.0700684	-0.358154	-0.342574	0.561534	0.158295	0.736387	9.60764	-1.58008	3.37041	-0.00721811	0.0485972	-0.0318699	-1.02124	0.506592	0.0932617	-0.0235288	0.886652	0.459078	-0.0504221	-0.903591	-0.152015	-9.11842	-0.00423248	0.00520225	-0.022399	0.619141	0.130859	1.16211	0.177287	0.618036	-0.0467677	0.764469	9.6666	1.32394	2.10235	0.0164485	0.0385654	0.0113553	-1.01001	-0.306396	0.273193	-0.00215168	0.999188	-0.0311444	-0.0254791	-0.539794	-0.00884428	-9.75694	0.00719939	0.00346859	-0.00964805	0.449219	-0.0358887	0.942627	
72	-0.221146	-0.647398	-0.19023	0.704119	-9.79922	0.174836	0.963797	0.00669734	-0.00363389	-0.0182595	1.07446	0.138916	-0.328125	-0.132984	-0.118284	0.00711628	0.984009	-2.27617	0.523861	9.91467	-0.0315632	0.0311353	-0.0201008	-0.000488281	-0.0375977	-0.961182	-0.593219	0.148876	0.676856	0.409626	8.98403	3.71299	0.391066	-0.0204491	-0.0075218	-0.0393359	-1.09351	-0.228271	-0.299316	-0.702355	-0.266738	0.60856	-0.25535	9.7506	0.523447	1.22748	-0.013125	-0.0467515	-0.00733598	-0.90625	-0.319336	-0.406006	0.519281	0.273612	-0.679274	0.440534	9.36242	-2.9311	-0.637291	0.00189845	-0.00501127	0.0176664	-1.03394	-0.0273438	-0.0700684	0.521166	0.450403	-0.312453	0.654138	9.81918	0.913144	4.23336	-0.00178979	-0.02323	0.0106518	-0.965088	-0.279785	-0.390869	-0.0491652	0.387129	0.0222112	0.920446	7.39161	-0.0870289	7.29847	0.0126204	0.0239193	-0.0103807	-0.97168	0.0722656	-0.356201	-0.342203	0.560948	0.157852	0.737101	9.59827	-1.65403	3.45315	-0.0246616	0.0499503	-0.0294577	-1.02124	0.506592	0.0908203	-0.0235707	0.88652	0.459339	-0.0503382	-0.895804	-0.12969	-9.15213	0.0228558	0.00948054	-0.0219058	0.618896	0.135254	1.15991	0.176612	0.617201	-0.0466499	0.765307	9.66641	1.39226	2.11254	-0.0116134	0.0398119	0.0157347	-1.00781	-0.306396	0.275391	-0.00260372	0.999195	-0.0309263	-0.0254331	-0.539301	-0.0177466	-9.74383	0.0142503	0.00697995	-0.0116075	0.453857	-0.0402832	0.944824	
73	-0.220948	-0.647451	-0.190296	0.704114	-9.67539	0.250234	0.946239	0.00765732	0.00358731	-0.0143898	1.07446	0.138916	-0.330322	-0.133009	-0.118464	0.00708255	0.983984	-2.31686	0.497023	9.91463	-0.00993256	0.0192572	-0.0189905	-0.000488281	-0.0397949	-0.961182	-0.592747	0.14825	0.6772	0.409967	9.03276	3.9546	0.443119	0.00675398	-0.00597109	-0.0428374	-1.08911	-0.230469	-0.299072	-0.701348	-0.267518	0.609408	-0.255278	9.85361	0.693359	0.973701	0.0406925	-0.0305008	-0.00499782	-0.90625	-0.321777	-0.401611	0.518562	0.273289	-0.679688	0.440942	9.35922	-2.84863	-0.649207	0.0073173	-0.0120182	0.0132265	-1.03638	-0.0229492	-0.0700684	0.520568	0.450898	-0.313035	0.653995	9.80926	0.923223	4.33527	0.00456293	-0.0200693	0.00217902	-0.964844	-0.28418	-0.386475	-0.0493137	0.387043	0.022272	0.920473	7.32368	-0.0520732	7.31633	0.0216292	0.0128252	-0.0150231	-0.969238	0.0681152	-0.358154	-0.342419	0.560178	0.15822	0.737507	9.53826	-1.49919	3.5116	0.0337577	0.0381492	-0.0283436	-1.021	0.506592	0.095459	-0.0237302	0.886511	0.459345	-0.0503743	-0.887833	-0.124709	-9.13721	0.0191085	0.0107758	-0.0185244	0.623779	0.128662	1.15991	0.176065	0.616681	-0.046512	0.765861	9.62907	1.33482	2.11063	0.0243046	0.0410591	0.0219324	-1.0144	-0.304199	0.275391	-0.0026108	0.999199	-0.0308274	-0.0253887	-0.523888	-0.0341771	-9.73975	0.000214202	0.00746978	-0.0104897	0.453613	-0.0380859	0.942627	
74	-0.220769	-0.647786	-0.190623	0.703774	-9.81802	0.216694	0.818072	-0.00461131	0.0088687	-0.00820169	1.07861	0.143311	-0.33252	-0.132937	-0.118781	0.00651524	0.98396	-2.37561	0.425493	9.85302	-0.0308341	0.0197241	-0.0262527	-0.00463867	-0.0419922	-0.960938	-0.5926	0.147149	0.67724	0.41051	9.01566	3.71379	0.290442	0.0461741	0.0232979	-0.0275612	-1.09351	-0.226074	-0.301514	-0.7006	-0.268128	0.60993	-0.255446	9.70427	0.618422	1.14946	0.00595002	-0.0331592	0.00488374	-0.908447	-0.31958	-0.403809	0.518507	0.272781	-0.680186	0.440555	9.34955	-3.08976	-0.610212	-0.0585844	-0.00733548	0.0106577	-1.03198	-0.0229492	-0.0678711	0.520293	0.450903	-0.313916	0.653788	9.87463	0.845348	4.29136	-0.0343468	-0.0114729	0.00255048	-0.967529	-0.275391	-0.386719	-0.0492487	0.386599	0.0229666	0.920646	7.32207	-0.0519045	7.29686	0.0340949	0.0246367	-0.0224563	-0.969482	0.0700684	-0.358154	-0.34226	0.559713	0.158192	0.73794	9.52157	-1.60497	3.40226	-0.00502537	0.0393859	-0.023864	-1.01855	0.495605	0.0910645	-0.0236957	0.886522	0.459333	-0.0503133	-0.90605	-0.133632	-9.13444	0.0088398	0.0127795	-0.0174789	0.625732	0.135254	1.16431	0.17614	0.616405	-0.0470208	0.766034	9.63998	1.28051	2.25292	-0.0400448	0.0185378	0.0150154	-1.01465	-0.302002	0.268555	-0.00240503	0.999202	-0.0307925	-0.0253269	-0.532301	-0.0226931	-9.76603	-0.00381813	0.0113344	-0.0103361	0.453613	-0.0358887	0.937988	
75	-0.220977	-0.648039	-0.190722	0.703448	-9.77839	0.0947575	0.750342	-0.00361795	0.0173548	0.00902528	1.07886	0.138916	-0.330322	-0.132715	-0.119151	0.00651677	0.983945	-2.3883	0.433893	9.81387	-0.00289843	0.0216666	-0.0296751	-0.00927734	-0.0354004	-0.963623	-0.592215	0.14705	0.67718	0.4112	8.89377	3.96345	0.18559	-0.0630144	-0.0107159	-0.0316397	-1.09131	-0.232666	-0.303711	-0.70026	-0.268319	0.610087	-0.255801	9.76508	0.476277	1.17052	0.00594556	0.00480565	0.0119316	-0.908203	-0.323975	-0.403809	0.518026	0.27239	-0.680238	0.441281	9.35029	-3.02573	-0.823758	0.0400528	0.00632654	0.0145424	-1.03638	-0.020752	-0.0656738	0.519806	0.450915	-0.314293	0.653986	9.85539	0.930041	4.24965	0.00395421	0.00640685	0.00818142	-0.969482	-0.277588	-0.382324	-0.0489917	0.386717	0.0229997	0.920609	7.31852	-0.126164	7.34232	0.0110807	0.00806702	-0.0297901	-0.969482	0.0722656	-0.360352	-0.342475	0.559142	0.15858	0.738189	9.50854	-1.51106	3.54781	0.029532	0.0298115	-0.0236005	-1.0188	0.504395	0.0861816	-0.0233745	0.886541	0.459335	-0.0500961	-0.873797	-0.119889	-9.17922	0.00301259	0.00896923	-0.0185486	0.621338	0.130615	1.1665	0.17603	0.616323	-0.0471265	0.766119	9.63936	1.30118	2.10459	0.0218665	0.0164962	0.00632715	-1.00781	-0.304199	0.273193	-0.00207985	0.999203	-0.0307445	-0.0253829	-0.537233	-0.0380484	-9.7732	-0.00713546	0.00320034	-0.0093409	0.447021	-0.0380859	0.935791	
76	-0.22065	-0.648895	-0.190583	0.702799	-9.873	0.0659324	0.842837	0.0213331	0.041071	0.00550415	1.08105	0.138916	-0.321777	-0.132257	-0.119244	0.00657411	0.983995	-2.34197	0.506564	9.83989	-0.00362111	0.014814	-0.0382833	-0.000244141	-0.0419922	-0.956299	-0.59174	0.147689	0.677604	0.410956	9.04542	3.83062	0.373224	0.0187403	-0.0299324	0.0205081	-1.09131	-0.230469	-0.296875	-0.700502	-0.267748	0.610021	-0.255894	9.73495	0.679121	1.0655	-0.00248006	0.0232763	0.0156884	-0.904053	-0.319336	-0.403809	0.518001	0.271483	-0.680589	0.441327	9.36263	-3.01428	-0.624405	-0.033805	0.0194071	-0.000686748	-1.04102	-0.0163574	-0.0700684	0.519786	0.450381	-0.315064	0.653999	9.80076	0.756933	4.36487	-0.0266725	0.0117182	0.00704859	-0.971924	-0.273193	-0.384521	-0.0486534	0.387095	0.0229834	0.920469	7.33235	-0.0549217	7.29987	0.00549093	-0.00547971	-0.0293696	-0.969238	0.0681152	-0.358154	-0.342671	0.558739	0.158978	0.738318	9.55138	-1.55073	3.5081	0.0254822	0.0248015	-0.0228763	-1.01636	0.498047	0.088623	-0.0235681	0.886282	0.459809	-0.0502444	-0.895232	-0.123528	-9.15612	0.0212067	0.00258802	-0.0273029	0.621338	0.133057	1.16211	0.176021	0.616329	-0.0470883	0.766119	9.64704	1.34498	2.20349	-0.015916	0.00774485	0.00465243	-1.021	-0.308594	0.270996	-0.00195776	0.999202	-0.030742	-0.0254178	-0.534285	-0.0167059	-9.76151	-0.00217193	0.00722972	-0.00758683	0.447021	-0.0380859	0.942627	
77	-0.220201	-0.649337	-0.19043	0.702573	-9.85238	0.108019	0.902915	0.0363755	0.0365503	-0.00726615	1.08105	0.136719	-0.321777	-0.132049	-0.11931	0.00654779	0.984015	-2.32238	0.502085	9.87235	-0.00883502	0.0209476	-0.0359162	0.00170898	-0.0397949	-0.961182	-0.591588	0.148053	0.677578	0.411086	9.03015	3.87196	0.370985	-0.023212	-0.0132623	0.00900834	-1.0957	-0.228271	-0.296875	-0.70071	-0.267302	0.610014	-0.255809	9.79414	0.814169	1.08896	-0.0312998	0.0237361	0.0130777	-0.906006	-0.323975	-0.399414	0.518176	0.271146	-0.680572	0.441357	9.35415	-3.20509	-0.68538	-0.0157253	0.0296679	-0.000906094	-1.03638	-0.0229492	-0.0678711	0.519668	0.450224	-0.31522	0.654125	9.84634	0.826931	4.26836	-0.00352447	0.0174449	0.0055659	-0.97168	-0.275391	-0.382324	-0.0484284	0.387282	0.022842	0.920405	7.41203	-0.0468255	7.31469	-0.000359356	-0.00154911	-0.0289917	-0.973633	0.0678711	-0.354004	-0.342832	0.558592	0.159225	0.738301	9.5451	-1.51281	3.51391	0.0317849	0.0188276	-0.0187059	-1.02295	0.498047	0.0839844	-0.0234692	0.886231	0.459907	-0.0502856	-0.88058	-0.140463	-9.14553	0.00774107	0.00269726	-0.0269315	0.621338	0.128418	1.15991	0.176317	0.616344	-0.0473612	0.766021	9.68648	1.21459	2.0728	-0.0297228	0.00471954	-0.00226548	-1.01221	-0.306396	0.275391	-0.00197905	0.999202	-0.030727	-0.0254228	-0.550651	-0.0146592	-9.77362	0.00635455	0.00644341	-0.0089933	0.444824	-0.0402832	0.940186	
78	-0.219127	-0.649894	-0.190015	0.702506	-9.90083	0.204316	0.952499	0.0443583	0.00848848	-0.0178976	1.07642	0.141113	-0.326172	-0.131556	-0.119386	0.00636585	0.984073	-2.29599	0.561193	9.84441	-0.017476	0.0164546	-0.0402602	-0.00488281	-0.0375977	-0.956543	-0.591492	0.148781	0.677393	0.411266	9.02541	3.65203	0.248616	-0.0132782	-0.000794262	0.0166247	-1.0957	-0.22168	-0.299316	-0.700857	-0.267121	0.609861	-0.255961	9.79205	0.63603	1.13117	-0.00111985	0.0290095	0.0118723	-0.904297	-0.312744	-0.404053	0.518426	0.27046	-0.680659	0.44135	9.35259	-2.9796	-0.68049	-0.0379835	0.0231774	0.000295087	-1.03223	-0.0163574	-0.0725098	0.519955	0.449463	-0.315894	0.654095	9.83127	0.715975	4.28486	-0.0344785	0.0243545	-0.00103748	-0.969727	-0.270996	-0.380371	-0.0480084	0.387773	0.022298	0.920234	7.36948	-0.0125149	7.33671	-0.0119641	-0.00813417	-0.0219988	-0.969727	0.0744629	-0.354004	-0.342591	0.558833	0.159072	0.738263	9.54523	-1.49526	3.4606	-0.0122205	0.00692019	-0.0164922	-1.021	0.502441	0.081543	-0.0228769	0.886153	0.460094	-0.0502289	-0.896825	-0.123129	-9.13982	-0.00434447	3.77401e-06	-0.0266082	0.621582	0.126221	1.15771	0.176196	0.616446	-0.0468021	0.766002	9.63595	1.36958	2.16388	0.020772	0.011305	-0.00538807	-1.0188	-0.306396	0.266357	-0.00189327	0.999204	-0.030711	-0.0253805	-0.546951	-0.0241425	-9.75137	0.00307978	0.00952215	-0.00903825	0.45166	-0.0402832	0.942627	
79	-0.21817	-0.649907	-0.189734	0.702868	-9.80414	0.29959	0.924455	0.0314269	-0.00677917	-0.0214118	1.07837	0.145508	-0.330322	-0.131007	-0.119391	0.00610391	0.984147	-2.30576	0.458525	9.86924	-0.0151178	0.012938	-0.0444068	-0.00219727	-0.0463867	-0.960938	-0.591473	0.149358	0.677414	0.41105	8.99349	3.7995	0.272797	-0.0259074	-0.0122802	0.0232565	-1.09766	-0.232422	-0.299072	-0.701427	-0.266392	0.609361	-0.256348	9.73323	0.679919	1.2022	-0.0195213	0.0349207	0.00945914	-0.904053	-0.321533	-0.408203	0.518724	0.270108	-0.680645	0.441237	9.3729	-3.12623	-0.582773	0.00693875	0.0208159	-0.0112415	-1.03662	-0.0185547	-0.074707	0.519978	0.449062	-0.31604	0.654282	9.83488	0.83301	4.30433	-0.0228586	0.0241327	-0.00419724	-0.969727	-0.270996	-0.388916	-0.0475733	0.388166	0.0218109	0.920102	7.36522	-0.0466998	7.22164	-0.00803589	-0.000986072	-0.0275664	-0.973877	0.0700684	-0.356201	-0.342433	0.559131	0.158971	0.738133	9.57229	-1.51	3.41615	-0.00880766	0.00195706	-0.012939	-1.02319	0.502197	0.088623	-0.0225027	0.886047	0.460315	-0.0502426	-0.908315	-0.119481	-9.15448	0.00217886	0.0021303	-0.027029	0.616699	0.128418	1.16895	0.176359	0.616524	-0.0466933	0.765908	9.66272	1.37282	2.18046	-0.00158933	0.0131162	-0.0039298	-1.01221	-0.306396	0.273193	-0.00182016	0.999204	-0.0307334	-0.0253657	-0.53281	-0.0182042	-9.75718	-0.000207251	0.00865737	-0.00588906	0.456055	-0.0378418	0.949463	
80	-0.217709	-0.649938	-0.189269	0.703108	-9.76599	0.271759	0.949054	0.0262833	-0.0108992	0.00432658	1.07642	0.141113	-0.328125	-0.130426	-0.119601	0.00587338	0.9842	-2.21017	0.515239	9.88008	0.00357964	0.0371218	-0.0437488	-0.00244141	-0.0419922	-0.960938	-0.591353	0.150336	0.677348	0.410976	9.0552	3.61062	0.307258	-0.00779117	-0.011791	0.0287808	-1.09351	-0.223877	-0.297119	-0.70193	-0.265682	0.609052	-0.256443	9.70218	0.621486	1.18832	-0.0124797	0.032832	0.0141733	-0.904297	-0.312744	-0.401855	0.519044	0.269653	-0.680517	0.441336	9.38223	-3.09128	-0.588529	-0.0194022	0.0315709	-0.00704	-1.03687	-0.0119629	-0.0725098	0.519932	0.448579	-0.31623	0.654559	9.85234	0.781888	4.34871	-0.00521689	0.0275471	0.00372129	-0.967773	-0.268799	-0.384766	-0.0469306	0.388544	0.0212593	0.919989	7.45508	-0.0436883	7.1979	-0.0106454	0.00208882	-0.0321392	-0.973877	0.0744629	-0.356201	-0.342655	0.559229	0.159162	0.737915	9.59749	-1.49777	3.47963	0.0210969	0.0136	-0.00822984	-1.02783	0.508789	0.0908203	-0.0222883	0.885967	0.460479	-0.0502577	-0.892676	-0.120837	-9.15248	0.00981783	0.00442681	-0.0254573	0.623779	0.130859	1.16211	0.176359	0.616524	-0.0466933	0.765908	9.66272	1.37282	2.18046	-0.00158933	0.0131162	-0.0039298	-1.01221	-0.306396	0.273193	-0.00177784	0.999202	-0.0307618	-0.0254174	-0.525046	-0.0192712	-9.74889	0.00622276	0.00588521	-0.00759835	0.447021	-0.0402832	0.94043	
81	-0.217214	-0.649949	-0.188376	0.703491	-9.77296	0.249696	0.978712	0.0503362	-0.0215767	-0.00206685	1.07666	0.136719	-0.33252	-0.129978	-0.118829	0.0053039	0.984356	-2.25221	0.556728	9.86488	-0.0337612	0.00234052	-0.0400417	-0.00488281	-0.0375977	-0.961182	-0.591219	0.151238	0.677275	0.410957	9.02426	3.69407	0.345807	-0.0339913	-0.0196031	0.0201638	-1.09375	-0.22168	-0.297119	-0.702358	-0.265161	0.608783	-0.256448	9.73595	0.655014	1.14472	-0.0169916	0.0285307	0.00324341	-0.90625	-0.319336	-0.408203	0.519394	0.269326	-0.680442	0.441238	9.31567	-3.06905	-0.635268	-9.42888e-05	0.0192538	-0.0165406	-1.04102	-0.0163574	-0.0771484	0.520067	0.448059	-0.316469	0.654691	9.80237	0.619637	4.34047	-0.00610542	0.0276477	-0.00314848	-0.971924	-0.273193	-0.384521	-0.0463812	0.389262	0.0207558	0.919724	7.41945	-0.0495961	7.29612	-0.0123777	-0.0294533	-0.0265349	-0.969238	0.065918	-0.351807	-0.342726	0.559298	0.1591	0.737842	9.54138	-1.50236	3.41354	0.0160687	0.00749191	-0.0111315	-1.02319	0.502197	0.0861816	-0.0221457	0.885886	0.460631	-0.0503343	-0.914961	-0.114264	-9.1417	0.0113185	0.00341287	-0.0242828	0.623779	0.126221	1.16455	0.176606	0.616517	-0.0469101	0.765843	9.70088	1.31892	2.10094	-0.0152746	-0.00187152	0.000414442	-1.01221	-0.304199	0.270752	-0.00178945	0.999198	-0.0307975	-0.0255124	-0.544755	-0.0177732	-9.74772	0.00419675	0.00542748	-0.00659501	0.449219	-0.0402832	0.947266	
82	-0.216874	-0.650149	-0.187716	0.703587	-9.72789	0.33445	1.01847	0.016374	-0.0062848	0.0186669	1.07666	0.136719	-0.328125	-0.129585	-0.118747	0.00599569	0.984414	-2.14586	0.59418	9.94485	0.0139299	0.0215266	-0.0319755	-0.00488281	-0.0375977	-0.95874	-0.5912	0.151369	0.677438	0.410667	9.00672	3.46678	0.31524	0.0185977	-0.0125967	0.0181109	-1.09155	-0.22168	-0.297119	-0.702611	-0.264736	0.608677	-0.256446	9.80758	0.5367	1.16814	-0.00198969	0.0199531	0.00979217	-0.906494	-0.314941	-0.410645	0.519367	0.269488	-0.680158	0.44161	9.33596	-2.934	-0.437471	0.0166121	0.00873329	-0.00819318	-1.03223	-0.0163574	-0.074707	0.519784	0.447938	-0.316081	0.655186	9.78508	0.816374	4.34565	0.00470651	0.0260468	-0.00517615	-0.974121	-0.270996	-0.388916	-0.0459045	0.389993	0.0205516	0.919443	7.55448	-0.0518839	6.8118	-0.00157897	-0.00255875	-0.0287153	-0.97583	0.0678711	-0.354004	-0.342707	0.559464	0.159237	0.737696	9.63288	-1.6003	3.41515	0.00927291	0.0107162	-0.0184039	-1.02319	0.502197	0.0861816	-0.0220113	0.88582	0.460767	-0.0503216	-0.895436	-0.120655	-9.15616	0.0086212	0.00804419	-0.025801	0.623779	0.130859	1.16211	0.176517	0.616633	-0.0468326	0.765776	9.68768	1.31597	2.13131	0.0195759	0.0136991	0.00722604	-1.00537	-0.308594	0.266357	-0.00191398	0.999203	-0.0307244	-0.0254044	-0.53477	-0.0229362	-9.76357	0.00745633	0.00761531	-0.00705328	0.45166	-0.0424805	0.944824	
83	-0.216827	-0.650129	-0.187127	0.703777	-9.7338	0.237894	0.919571	0.022123	-0.0119276	0.00467418	1.07666	0.138916	-0.328125	-0.129194	-0.118885	0.00579296	0.98445	-2.22688	0.547314	9.80456	-0.0180925	-0.000291956	-0.0363915	-0.000488281	-0.0375977	-0.963623	-0.591008	0.151968	0.677525	0.410578	9.09174	3.47814	0.217573	0.0177737	-0.0161493	0.0102727	-1.09131	-0.226074	-0.290039	-0.702784	-0.264424	0.60853	-0.256643	9.73226	0.481525	1.24841	-0.0032138	0.0166177	0.00998695	-0.904297	-0.314941	-0.415039	0.519476	0.269146	-0.680329	0.441427	9.36786	-2.96811	-0.453627	-0.0327461	0.0137667	-0.00301713	-1.03442	-0.0163574	-0.0771484	0.519789	0.44774	-0.316196	0.655262	9.79147	0.740343	4.39069	-0.00457679	0.0112751	-0.00163924	-0.967773	-0.270996	-0.391113	-0.0457492	0.390563	0.0204742	0.919211	7.40915	-0.0535197	7.22824	0.0181191	-0.0120266	-0.0190998	-0.97583	0.0678711	-0.349609	-0.342626	0.559436	0.159141	0.737776	9.53358	-1.5558	3.42397	0.01388	0.0175083	-0.0195025	-1.0188	0.504395	0.088623	-0.021855	0.885737	0.460931	-0.0503382	-0.911129	-0.101172	-9.14667	0.00716007	0.00562612	-0.0271535	0.621338	0.133057	1.16431	0.176498	0.616609	-0.0468068	0.765801	9.64406	1.36858	2.12499	0.00220779	0.00805218	0.00228362	-1.0166	-0.306396	0.273193	-0.00178832	0.999203	-0.0307173	-0.0254476	-0.528103	-0.0145517	-9.75366	0.000548213	0.00620877	-0.00876393	0.447021	-0.0402832	0.94043	
84	-0.216588	-0.650341	-0.186887	0.703718	-9.77321	0.255233	0.945471	0.0287615	0.0109063	0.00275952	1.06982	0.141113	-0.326172	-0.12905	-0.118939	0.00573197	0.984463	-2.22174	0.485944	9.84286	-0.0119419	0.02035	-0.0313124	-0.00244141	-0.0419922	-0.960938	-0.590994	0.151888	0.677789	0.410194	9.04421	3.63063	0.317467	0.0365427	-0.0109933	0.0105405	-1.09131	-0.226074	-0.296875	-0.702849	-0.264062	0.608665	-0.256518	9.75451	0.637669	1.13349	-0.0389661	0.00165514	0.000997399	-0.904053	-0.319336	-0.408203	0.519317	0.268913	-0.680302	0.441798	9.3292	-3.20974	-0.532204	0.0323347	0.010193	0.00770789	-1.03418	-0.0229492	-0.074707	0.519615	0.447711	-0.316284	0.655377	9.87164	0.715131	4.3339	0.0109643	0.0126461	-0.00543606	-0.971924	-0.270996	-0.391113	-0.0457808	0.390591	0.0205636	0.919195	7.47062	-0.055637	7.09958	0.0250903	0.0115088	-0.017812	-0.971436	0.0678711	-0.345459	-0.342523	0.559401	0.159125	0.737854	9.60843	-1.5518	3.46526	-0.000339163	0.0202921	-0.0241186	-1.02319	0.504395	0.0861816	-0.0218814	0.885669	0.461054	-0.0504035	-0.904997	-0.116248	-9.16713	0.0175284	0.00550957	-0.0297593	0.623779	0.128662	1.15991	0.17665	0.616648	-0.0469111	0.765728	9.70947	1.2833	2.18338	-0.0121084	0.00655486	-0.0017918	-1.01221	-0.306396	0.275391	-0.00180038	0.999204	-0.0306895	-0.0254281	-0.528186	-0.0250047	-9.75301	0.00579929	0.00850875	-0.0102107	0.448975	-0.0336914	0.949219	
85	-0.216133	-0.650646	-0.186312	0.703728	-9.7656	0.355529	0.967943	0.0284976	-0.00198397	0.00653568	1.07861	0.141113	-0.328125	-0.129029	-0.118769	0.00555439	0.984487	-2.17965	0.47708	9.90041	-0.0250168	0.00408766	-0.0225211	-0.00708008	-0.0375977	-0.963623	-0.590694	0.152242	0.677724	0.410601	9.11299	3.68388	0.339481	-0.0265693	-0.00466411	-0.0105303	-1.0957	-0.22168	-0.294922	-0.702754	-0.264201	0.608673	-0.256617	9.80546	0.589547	1.21152	0.0161514	0.000348947	0.00174611	-0.899902	-0.314941	-0.410645	0.519189	0.268885	-0.680239	0.442062	9.37644	-3.03578	-0.552684	0.0181755	0.00913772	0.00251424	-1.04102	-0.0141602	-0.0700684	0.519605	0.447621	-0.316461	0.655362	9.80672	0.787618	4.36043	-0.00985897	0.0104162	-0.00673155	-0.967773	-0.268799	-0.391113	-0.0457808	0.390591	0.0205636	0.919195	7.47062	-0.055637	7.09958	0.0250903	0.0115088	-0.017812	-0.971436	0.0678711	-0.345459	-0.342391	0.559243	0.159175	0.738024	9.59407	-1.54053	3.3766	0.00827514	0.0229756	-0.0236185	-1.02979	0.504395	0.088623	-0.0217134	0.885592	0.461209	-0.0504082	-0.906904	-0.11084	-9.14698	0.00403671	0.006151	-0.0236629	0.619141	0.130615	1.16431	0.176281	0.616405	-0.0464887	0.766034	9.68073	1.42042	2.08012	0.0216355	0.0242094	0.00535923	-1.01001	-0.306396	0.277832	-0.00184397	0.999206	-0.0306413	-0.0254177	-0.52757	-0.0268051	-9.73993	0.00356936	0.00594951	-0.00912733	0.447021	-0.0380859	0.947021	
