40	Head	00b4120a												Throax	00b411e8												LUpArm	00b411d9												LFoArm	00b41148												RUpArm	00b411db												RFoArm	00b41204												Waist	00b411f7												Lthigh	00b411f4												Lshank	00b4111b												Rthigh	00b411c8												Rshank	00b411ee												
PacketCount	q0	q1	q2	q3	accX	accY	accZ	gyrX	gyrY	gyrZ	magX	magY	magZ	q0	q1	q2	q3	accX	accY	accZ	gyrX	gyrY	gyrZ	magX	magY	magZ	q0	q1	q2	q3	accX	accY	accZ	gyrX	gyrY	gyrZ	magX	magY	magZ	q0	q1	q2	q3	accX	accY	accZ	gyrX	gyrY	gyrZ	magX	magY	magZ	q0	q1	q2	q3	accX	accY	accZ	gyrX	gyrY	gyrZ	magX	magY	magZ	q0	q1	q2	q3	accX	accY	accZ	gyrX	gyrY	gyrZ	magX	magY	magZ	q0	q1	q2	q3	accX	accY	accZ	gyrX	gyrY	gyrZ	magX	magY	magZ	q0	q1	q2	q3	accX	accY	accZ	gyrX	gyrY	gyrZ	magX	magY	magZ	q0	q1	q2	q3	accX	accY	accZ	gyrX	gyrY	gyrZ	magX	magY	magZ	q0	q1	q2	q3	accX	accY	accZ	gyrX	gyrY	gyrZ	magX	magY	magZ	q0	q1	q2	q3	accX	accY	accZ	gyrX	gyrY	gyrZ	magX	magY	magZ	
0	-0.265895	0.168335	0.643514	0.697748	5.72711	7.98314	1.15713	0.0538173	-0.00848909	0.00434141	-0.804199	-0.50293	-0.140625	-0.594832	-0.00975942	0.568087	0.568645	6.65819	6.46835	3.57293	0.000748506	0.0277126	-0.0130726	-0.650635	-0.416016	-0.484619	0.893583	0.366133	0.229863	-0.120914	-5.22814	6.14731	6.55525	0.00456346	-0.00806303	0.0406104	0.769531	-0.432617	-0.467529	0.400855	0.781241	0.0888892	-0.470188	-7.79973	5.35878	-2.3229	-0.00705089	0.0201124	0.0187124	0.976807	-0.24707	-0.0788574	-0.637817	-0.706039	-0.0798746	0.297184	-5.03548	8.45454	-0.16458	0.0598196	0.00715585	0.0213622	0.819092	-0.595703	-0.104736	-0.995359	-0.0623859	-0.0612195	-0.0402469	-2.58497	2.22819	12.7682	-0.0252605	-0.0164047	0.00755774	0.650879	-0.156494	-0.761719	0.00646056	-0.705844	-0.238123	-0.667113	9.13865	3.0627	-1.04282	0.0628184	-0.122788	-0.0232903	-0.974365	0.0969238	0.179688	-0.684428	0.0297276	0.728451	-0.00579438	9.73752	-0.355807	-0.602179	0.00217125	0.00791214	-0.0118626	-0.957031	0.476318	0.100586	-0.6632	0.230943	0.690742	0.172355	9.78436	-0.62041	-0.554774	0.0106819	0.00727585	-0.0108465	-0.9646	0.486572	0.0895996	0.609557	-0.492475	-0.519411	-0.340764	9.52934	-2.33222	-0.287229	0.0314691	0.00532421	-0.000806183	-0.883545	0.644775	-0.109131	0.575693	-0.493964	-0.537292	-0.368639	9.7344	-1.58606	-0.693843	-0.00129203	0.00808196	0.00176331	-0.957275	0.626953	-0.0559082	
1	-0.265822	0.168149	0.644386	0.697016	5.65993	8.14563	1.06119	0.032559	-0.018439	-0.00656655	-0.800293	-0.496582	-0.140625	-0.595146	-0.00987479	0.567959	0.568442	6.63379	6.58204	3.57626	-0.00742387	0.0233702	-0.00760358	-0.652832	-0.417969	-0.477539	0.894263	0.364986	0.229579	-0.119885	-5.30359	6.36253	6.60182	-0.0822045	-0.00481226	0.0259028	0.765381	-0.432617	-0.465088	0.402356	0.780892	0.0892024	-0.469425	-7.94296	5.37652	-2.51857	-0.0822186	0.0258875	0.0366854	0.983643	-0.249268	-0.0854492	-0.638549	-0.705668	-0.0794955	0.296595	-5.02024	8.35772	-0.0550225	-0.0277656	0.0165733	0.021056	0.814697	-0.595703	-0.109375	-0.995448	-0.0613415	-0.0604899	-0.0407652	-2.67012	2.05953	12.9102	-0.0259474	-0.00917158	-0.00149914	0.648682	-0.156494	-0.757324	0.00608425	-0.707617	-0.238937	-0.664944	9.23294	3.12725	-1.03334	0.025404	-0.088424	-0.0293699	-0.976318	0.0925293	0.188232	-0.68457	0.0298586	0.728311	-0.00590404	9.74149	-0.471885	-0.560353	0.00196634	0.0344706	-0.00588201	-0.959229	0.476318	0.105225	-0.663201	0.231199	0.690683	0.172246	9.82769	-0.696075	-0.533027	-0.00771052	0.00251132	-0.00616945	-0.964844	0.48877	0.0895996	0.609276	-0.492784	-0.519248	-0.34107	9.53674	-2.3933	-0.264705	-0.0353505	0.00900348	0.00241349	-0.885986	0.646973	-0.115967	0.575319	-0.494592	-0.536792	-0.369109	9.73716	-1.69537	-0.646667	-0.0450906	0.00991754	0.00350726	-0.957031	0.620361	-0.0581055	
2	-0.265696	0.167947	0.64484	0.696693	5.77144	7.98403	1.08136	0.0316927	0.00357856	-0.010191	-0.804199	-0.505127	-0.142578	-0.595486	-0.0100626	0.567553	0.568488	6.62811	6.55523	3.61639	-0.00958189	0.0475797	-0.0168596	-0.650635	-0.417969	-0.482178	0.89443	0.364862	0.229258	-0.119632	-5.19316	6.00382	6.41859	-0.00594573	-0.00776256	0.0128072	0.767334	-0.43042	-0.465332	0.40241	0.781049	0.0888027	-0.469194	-7.83558	5.33421	-2.4602	0.0578107	0.00135922	0.00918028	0.981201	-0.24707	-0.0788574	-0.63894	-0.705481	-0.0791476	0.296291	-4.919	8.45926	-0.0817679	0.00304677	0.00352392	-0.000399432	0.819092	-0.5979	-0.104736	-0.995507	-0.0607595	-0.0598923	-0.0410652	-2.49881	2.00179	13.1177	-0.0198054	-0.00508523	-0.00610259	0.644531	-0.158691	-0.761719	0.00574925	-0.709671	-0.239596	-0.662517	9.15488	2.97515	-1.18997	0.0416051	-0.116094	-0.0243578	-0.971924	0.0905762	0.192627	-0.68463	0.0306595	0.728227	-0.00524283	9.75436	-0.373547	-0.587212	-0.0529588	0.00970781	-0.0137712	-0.959473	0.478516	0.100586	-0.663229	0.231741	0.690417	0.172474	9.77484	-0.634112	-0.573873	-0.0179688	0.0119859	-0.00871202	-0.959961	0.486572	0.092041	0.608748	-0.493626	-0.518652	-0.3417	9.50478	-2.41631	-0.24472	-0.0283623	0.0152085	0.0155049	-0.881592	0.64917	-0.111572	0.574864	-0.495417	-0.535932	-0.36996	9.67033	-1.7679	-0.625858	-0.0526977	0.0235307	0.0053368	-0.952881	0.629395	-0.0559082	
3	-0.265732	0.167643	0.64509	0.696521	5.70867	8.30105	1.11935	-0.00296827	-0.000198118	-0.00947667	-0.799805	-0.505127	-0.140381	-0.595477	-0.00981159	0.567088	0.568966	6.68506	6.57428	3.52366	-0.0428157	0.0151834	-0.0275845	-0.64624	-0.417969	-0.479736	0.894136	0.366045	0.228697	-0.119289	-5.22902	6.48553	6.66604	0.0134058	0.00151201	0.0232238	0.769775	-0.434814	-0.465088	0.402342	0.781052	0.0889318	-0.469222	-7.91485	5.3659	-2.55799	-0.0203034	0.0120989	-0.00361327	0.981445	-0.249268	-0.0854492	-0.638824	-0.705614	-0.0793217	0.296178	-5.08551	8.43943	-0.107771	-0.00377438	0.0157071	-0.0179389	0.819092	-0.597656	-0.111572	-0.995471	-0.0617063	-0.0595166	-0.0410827	-2.68737	2.21631	12.8345	0.0443947	-0.0032668	-0.0104121	0.648926	-0.162842	-0.761475	0.00555067	-0.710931	-0.239949	-0.661038	9.27641	3.02168	-1.11184	0.0217292	-0.0639779	-0.013624	-0.969727	0.0947266	0.196777	-0.684969	0.0314333	0.72788	-0.00453879	9.72833	-0.617879	-0.518192	-0.0435873	0.0395522	-0.0121999	-0.959229	0.474121	0.109863	-0.663233	0.232309	0.690125	0.172862	9.80804	-0.731226	-0.574937	-0.0144741	0.0136148	-0.0127612	-0.964844	0.48877	0.0852051	0.60844	-0.494295	-0.518327	-0.341774	9.57065	-2.455	-0.12368	-0.0263777	0.00553949	0.0138661	-0.885986	0.644775	-0.106689	0.574547	-0.496092	-0.535327	-0.370423	9.76914	-1.77356	-0.589051	-0.0476994	0.00978886	0.0067131	-0.957275	0.626953	-0.0537109	
4	-0.265711	0.167748	0.644775	0.696795	5.64294	7.86035	1.05717	-0.000833853	-0.000837513	0.00250956	-0.802002	-0.50293	-0.142578	-0.595584	-0.0098397	0.566864	0.569077	6.69411	6.47516	3.67063	-0.00945551	0.023037	-0.0104538	-0.650635	-0.420166	-0.482178	0.894203	0.365661	0.228794	-0.119778	-5.23399	6.07244	6.58184	0.0193259	0.00468393	-0.0343121	0.767578	-0.434814	-0.469727	0.401826	0.781379	0.0885426	-0.469194	-7.94609	5.44651	-2.47423	0.0589012	0.00308095	0.00306253	0.983643	-0.24707	-0.0810547	-0.638959	-0.705544	-0.0792976	0.296058	-5.11694	8.29635	-0.0179688	-0.0104144	0.0102608	-0.00135841	0.819092	-0.5979	-0.107178	-0.995513	-0.0613091	-0.0592864	-0.0409985	-2.55089	2.10075	13.037	-0.0287864	0.0115656	-0.0208424	0.646484	-0.154297	-0.755371	0.00565296	-0.711855	-0.240474	-0.65985	9.22308	2.93549	-1.29389	0.0495218	-0.0190747	-0.02175	-0.967773	0.0947266	0.196777	-0.685075	0.0312891	0.727784	-0.00486303	9.77211	-0.351561	-0.611875	0.0219541	0.0298911	-0.0132779	-0.955078	0.478516	0.105225	-0.663121	0.232719	0.690067	0.172972	9.78299	-0.612971	-0.536831	-0.00942258	-0.00117324	-0.0116023	-0.962402	0.48877	0.0895996	0.607572	-0.49538	-0.517734	-0.342646	9.56654	-2.38137	-0.256032	-0.0744731	0.00948542	0.00439467	-0.879395	0.646973	-0.100098	0.573859	-0.497069	-0.534624	-0.371196	9.74266	-1.642	-0.608923	-0.0725204	0.0081565	0.000896752	-0.957275	0.626953	-0.046875	
5	-0.265726	0.168226	0.644949	0.696513	5.92185	8.08974	1.09386	-0.000938914	-0.0134258	0.0206024	-0.804199	-0.505127	-0.142578	-0.595748	-0.00954293	0.566533	0.569239	6.62171	6.46601	3.65742	-0.0177447	0.0195204	-0.0201957	-0.648438	-0.417969	-0.479736	0.894004	0.366001	0.22886	-0.120092	-5.28732	6.04561	6.58332	0.0386797	0.00687893	-0.0211419	0.763184	-0.434814	-0.462891	0.401436	0.781459	0.0883375	-0.469433	-7.84718	5.47286	-2.3266	0.0384496	-0.0110858	-0.00748784	0.98584	-0.24707	-0.083252	-0.638525	-0.705789	-0.0790726	0.296472	-5.08687	8.46265	0.0700543	0.0703826	0.00303916	-0.0382543	0.821289	-0.597656	-0.107178	-0.995506	-0.0612776	-0.0594663	-0.0409544	-2.53937	2.08808	13.2768	0.00216838	0.028065	-0.019733	0.650879	-0.154297	-0.757568	0.00642123	-0.711698	-0.241413	-0.659669	9.25945	3.05203	-1.28914	0.0723966	0.0352868	-0.0275283	-0.974121	0.0925293	0.196777	-0.685339	0.0313682	0.727532	-0.00477224	9.70996	-0.380614	-0.562985	-0.00347289	0.045136	-0.0164365	-0.959473	0.478516	0.100586	-0.662938	0.233098	0.690066	0.173169	9.79609	-0.632773	-0.568635	-0.0285936	-0.00710538	-0.0113276	-0.959961	0.484375	0.0898438	0.607232	-0.495901	-0.517504	-0.342843	9.50945	-2.47893	-0.297655	-0.0491318	0.00191901	0.0137121	-0.885986	0.64917	-0.104736	0.573501	-0.497559	-0.534248	-0.371631	9.71453	-1.84168	-0.64899	-0.0629308	0.0106194	0.00146583	-0.952881	0.629395	-0.0605469	
6	-0.266135	0.167744	0.644569	0.696825	5.57226	8.026	1.09465	-0.00878076	0.0291891	-0.0104451	-0.806641	-0.500977	-0.138428	-0.595673	-0.0095929	0.566315	0.569534	6.6807	6.54429	3.63569	-0.0285533	0.0239748	-0.0378112	-0.648438	-0.416016	-0.484619	0.893637	0.366513	0.229383	-0.120267	-5.2291	5.98848	6.44316	0.0344219	0.00787094	-0.00477575	0.767334	-0.43042	-0.462891	0.401893	0.781037	0.0887808	-0.469661	-7.75633	5.15799	-2.42918	-0.0026758	-0.00578912	-0.0110737	0.981445	-0.251465	-0.0810547	-0.637863	-0.706158	-0.0796852	0.296853	-5.01393	8.0701	-0.0566665	0.0236852	0.0205648	-0.0323376	0.819092	-0.595703	-0.102539	-0.995357	-0.0633324	-0.0600473	-0.0405843	-2.74381	1.95601	12.7909	0.0704717	0.0332013	-0.0200467	0.648926	-0.160645	-0.757324	0.00652521	-0.7112	-0.241323	-0.660239	9.08996	3.01883	-1.25838	0.0274934	0.00103205	-0.0141797	-0.974121	0.0925293	0.198975	-0.685253	0.0316488	0.727602	-0.004759	9.73456	-0.453586	-0.603252	0.0246153	-0.00108909	-0.00761643	-0.954834	0.474121	0.100586	-0.66276	0.233559	0.69003	0.173373	9.83217	-0.694637	-0.585346	-0.00045607	0.000260311	-0.012443	-0.967041	0.48877	0.0942383	0.606899	-0.496378	-0.517297	-0.343054	9.58329	-2.42631	-0.283974	-0.0124736	0.0127901	0.00730911	-0.881592	0.64917	-0.106934	0.573386	-0.497871	-0.533952	-0.371816	9.713	-1.7517	-0.646297	-0.00357797	0.00859132	0.00335217	-0.952881	0.631592	-0.046875	
7	-0.266012	0.168069	0.644365	0.696982	5.60374	8.08731	1.08336	-0.0271198	-0.0199598	0.00769708	-0.799561	-0.507324	-0.140381	-0.595576	-0.00950213	0.565617	0.57033	6.64135	6.45669	3.61124	-0.0397651	0.0193714	-0.0284251	-0.64624	-0.416016	-0.487061	0.893383	0.367021	0.229487	-0.120406	-5.28424	6.13939	6.52424	0.0486924	0.0171587	-0.00688739	0.765381	-0.43042	-0.462891	0.40036	0.781494	0.088664	-0.470232	-7.81746	5.28843	-2.26413	0.0604296	-0.00339741	-0.0322961	0.983398	-0.242676	-0.0856934	-0.637405	-0.706603	-0.079732	0.296766	-5.15323	8.51014	-0.0860352	0.0476736	0.0272447	-0.0178154	0.821045	-0.593506	-0.102539	-0.995318	-0.0638957	-0.0600683	-0.040624	-2.76762	2.16037	12.5714	0.0483175	0.0142161	-0.00941023	0.651123	-0.158447	-0.75293	0.00661558	-0.711379	-0.241464	-0.659993	9.18513	3.0051	-1.25271	0.0343854	-0.00931794	-0.0150644	-0.971924	0.0925293	0.198975	-0.685505	0.0321949	0.727344	-0.00422502	9.7049	-0.559614	-0.495503	-0.0252017	0.0332816	-0.0160296	-0.958984	0.471924	0.105225	-0.662546	0.234081	0.690002	0.173598	9.76387	-0.712126	-0.616317	-0.0166457	-0.00551645	-0.0118253	-0.960205	0.491211	0.0852051	0.606642	-0.496806	-0.517143	-0.343122	9.51952	-2.46573	-0.249681	-0.0315965	-0.00314016	0.00791331	-0.883789	0.64917	-0.104736	0.572883	-0.498516	-0.533528	-0.372337	9.71926	-1.90877	-0.604717	-0.0312745	0.00748002	-0.00127417	-0.955078	0.626953	-0.0537109	
8	-0.26615	0.168149	0.64406	0.697192	5.86942	7.77488	1.12013	0.00351775	0.02366	-0.00329975	-0.804199	-0.50293	-0.140625	-0.595597	-0.00963851	0.56536	0.570561	6.63912	6.52815	3.67226	-0.0235164	0.0215301	-0.0219986	-0.646484	-0.411621	-0.482422	0.893538	0.366562	0.229765	-0.120121	-5.1258	6.1181	6.59784	-0.04412	0.0142058	0.00892218	0.767578	-0.432617	-0.465088	0.400491	0.781439	0.0892185	-0.470107	-7.78618	5.32056	-2.51429	-0.043309	0.0101476	-0.00268867	0.983398	-0.242676	-0.0878906	-0.636706	-0.707141	-0.0797219	0.296988	-5.05826	8.22421	-0.0525686	0.0644138	0.00756191	-0.0154512	0.819092	-0.595703	-0.100098	-0.995308	-0.0641619	-0.059691	-0.0410153	-2.70066	2.12209	12.9487	0.0209122	0.00575896	-0.00362539	0.651123	-0.160645	-0.757324	0.00690485	-0.71149	-0.241872	-0.659722	9.27511	2.98992	-1.27334	0.0302912	0.012792	-0.0157255	-0.971924	0.0925293	0.194824	-0.685334	0.0320448	0.727509	-0.0045317	9.74458	-0.386508	-0.660378	0.00835153	0.0024119	-0.0141594	-0.959229	0.476318	0.102783	-0.662493	0.234195	0.690024	0.173557	9.77575	-0.680667	-0.605171	0.00569375	0.00293632	-0.0169686	-0.964844	0.48877	0.0917969	0.606412	-0.497031	-0.517038	-0.343361	9.55794	-2.54173	-0.238609	-0.00218392	0.0124145	-0.00194031	-0.883789	0.64917	-0.104736	0.572775	-0.498705	-0.533392	-0.372445	9.71649	-1.82433	-0.590193	0.00375648	0.00649648	-0.00228109	-0.955078	0.62915	-0.0515137	
9	-0.266337	0.16795	0.644355	0.696896	5.70759	8.076	1.10393	0.017486	-0.0120142	0.00782576	-0.797363	-0.507324	-0.140381	-0.595642	-0.00960478	0.565076	0.570796	6.66072	6.35017	3.62519	-0.00510983	0.025344	-0.0242782	-0.644043	-0.420166	-0.486816	0.893585	0.366569	0.229822	-0.119644	-5.28837	6.10385	6.53443	0.0247895	0.0101654	0.0125024	0.769531	-0.43042	-0.462891	0.400728	0.781308	0.0895257	-0.470065	-7.84917	5.2712	-2.34085	0.00506973	0.018724	-0.00643971	0.981201	-0.24707	-0.0810547	-0.637035	-0.706879	-0.0803348	0.296739	-5.17002	8.42257	-0.154393	-0.0236831	0.0217016	-0.0137424	0.81665	-0.593506	-0.0979004	-0.995287	-0.0641604	-0.0597383	-0.0414519	-2.80011	2.17112	12.6344	-0.0238495	0.0121558	0.0083313	0.646729	-0.158691	-0.757324	0.00738906	-0.710347	-0.241722	-0.661002	9.15622	2.93135	-1.21447	0.0175125	0.0955718	-0.011643	-0.972168	0.0991211	0.196777	-0.685525	0.0318538	0.727337	-0.00469672	9.70712	-0.540161	-0.601325	0.0298	0.0242357	-0.0158338	-0.959473	0.480713	0.105225	-0.662479	0.234138	0.690095	0.173408	9.82018	-0.747776	-0.710432	0.0211898	0.00156356	-0.0186839	-0.958008	0.493408	0.0917969	0.606629	-0.496614	-0.517191	-0.34335	9.50764	-2.42834	-0.300379	0.0239156	0.0136788	-0.00439822	-0.881836	0.653564	-0.0979004	0.573276	-0.498145	-0.533729	-0.371941	9.69374	-1.74589	-0.669128	0.0397961	0.00405244	-0.00166558	-0.952881	0.627197	-0.0490723	
10	-0.266591	0.167574	0.644516	0.69674	5.77107	8.02471	1.07713	0.0113713	0.0281063	-0.0101987	-0.799805	-0.505127	-0.146973	-0.595922	-0.0101178	0.565146	0.570425	6.58733	6.58096	3.68677	0.00852396	0.0381301	-0.0122633	-0.648438	-0.417969	-0.482178	0.893526	0.366931	0.229678	-0.119251	-5.27824	6.14273	6.41191	0.00232811	0.00700789	0.0216173	0.767578	-0.437012	-0.467285	0.401006	0.781367	0.0895698	-0.46972	-7.88648	5.29214	-2.34658	-0.000106574	0.0118535	0.00947735	0.979004	-0.242676	-0.083252	-0.636876	-0.707256	-0.0802448	0.296208	-5.11682	8.49787	-0.0631345	-0.0018912	0.0299112	0.00724949	0.819336	-0.602295	-0.100098	-0.995274	-0.0644338	-0.0595605	-0.0416066	-2.70819	2.13791	12.8999	0.0165598	0.00682095	-0.00829399	0.644531	-0.158691	-0.75293	0.00798675	-0.70954	-0.242443	-0.661597	9.18708	3.06069	-1.17552	0.0542968	0.0532875	-0.0315463	-0.976318	0.0947266	0.192627	-0.685304	0.031384	0.72756	-0.00542439	9.70339	-0.498124	-0.705435	0.0252915	0.0035811	-0.00940058	-0.957275	0.480713	0.102783	-0.662835	0.233809	0.689936	0.173123	9.78348	-0.697127	-0.657431	0.0260241	0.0208174	-0.0163701	-0.964844	0.48877	0.0895996	0.607059	-0.495903	-0.517762	-0.342757	9.51369	-2.48776	-0.255621	0.0613991	0.00745209	-0.00612304	-0.881592	0.64917	-0.102295	0.574235	-0.497156	-0.534189	-0.371124	9.68268	-1.75035	-0.656444	0.0947983	0.0158235	-0.00338708	-0.953125	0.633789	-0.0561523	
11	-0.267009	0.166664	0.6444	0.696907	5.77161	7.90918	1.1608	0.0179836	0.0407474	-0.0186863	-0.804199	-0.50293	-0.142822	-0.59615	-0.0100746	0.564871	0.570461	6.61278	6.4234	3.66058	-0.0126704	0.0256627	-0.01128	-0.646484	-0.413818	-0.487061	0.893401	0.367402	0.229677	-0.118735	-5.12549	6.2588	6.59818	0.0245845	0.0190732	0.0238515	0.769775	-0.437012	-0.462646	0.40082	0.781591	0.0899825	-0.469427	-7.75907	5.38439	-2.3986	0.00250631	0.0391478	-0.0105691	0.987793	-0.244873	-0.0788574	-0.637574	-0.70683	-0.0807988	0.295571	-5.09526	8.25529	-0.121209	-0.0319478	0.0328813	-0.00174546	0.81665	-0.591309	-0.0957031	-0.995283	-0.0640623	-0.0591937	-0.042473	-2.70722	2.11851	12.8178	-0.0145864	0.00177821	0.0249669	0.642578	-0.165039	-0.763428	0.00786693	-0.709924	-0.24283	-0.661044	9.114	3.02706	-1.21929	0.0350273	-0.0327301	-0.0244089	-0.973877	0.0905762	0.186279	-0.685153	0.0313709	0.727703	-0.00542589	9.7637	-0.394322	-0.537612	0.00527153	-0.00097941	-0.0175332	-0.959473	0.478516	0.102783	-0.663135	0.233297	0.689953	0.172595	9.80541	-0.581411	-0.511577	0.0253502	0.00477906	-0.0169094	-0.962402	0.48877	0.0874023	0.607543	-0.495106	-0.518229	-0.342345	9.53968	-2.334	-0.221137	0.0414695	0.0170569	-0.00616537	-0.885986	0.64917	-0.102295	0.574784	-0.496539	-0.534517	-0.370627	9.72381	-1.68949	-0.624533	0.0278989	0.00792385	-0.00599214	-0.950439	0.625	-0.0537109	
12	-0.267424	0.166231	0.644981	0.696312	5.57933	8.0463	1.14875	0.0421328	-0.011325	0.0105552	-0.799561	-0.507324	-0.14917	-0.596362	-0.0104529	0.565133	0.569971	6.68012	6.4807	3.60774	0.0214826	0.0194831	-0.00723516	-0.641846	-0.417969	-0.486816	0.893605	0.367273	0.229587	-0.117777	-5.34012	6.23015	6.54406	-0.0419529	0.00687164	0.0329093	0.765381	-0.437012	-0.467285	0.401375	0.781611	0.0903395	-0.468852	-7.90719	5.35205	-2.31813	-0.0389217	0.018768	0.0122719	0.983398	-0.242676	-0.0766602	-0.637524	-0.707224	-0.0806427	0.29478	-5.05007	8.56811	-0.0791339	-0.00121295	0.021194	0.00969409	0.823486	-0.595703	-0.100098	-0.99528	-0.0636931	-0.0590668	-0.0432663	-2.56748	2.25469	12.8605	-0.0223388	0.00814912	0.0141593	0.646973	-0.162842	-0.759277	0.00772197	-0.71043	-0.24328	-0.660337	9.15273	3.03811	-1.27114	0.0273434	-0.0286266	-0.0249743	-0.974121	0.0925293	0.192627	-0.685416	0.0309654	0.727471	-0.00561555	9.7047	-0.51586	-0.558001	0.0124515	0.0264538	-0.0119374	-0.959473	0.48291	0.102783	-0.663277	0.233186	0.689906	0.172386	9.81121	-0.68162	-0.565356	0.0242762	0.00830578	-0.0147052	-0.967041	0.486328	0.0964355	0.607519	-0.494875	-0.518502	-0.342308	9.55426	-2.35977	-0.268813	0.00962326	0.0132664	-0.00858782	-0.88623	0.651367	-0.104736	0.574885	-0.496414	-0.534637	-0.370464	9.71797	-1.6733	-0.605416	0.00778604	0.000988441	-0.00367157	-0.950439	0.627197	-0.0605469	
13	-0.267542	0.166326	0.645384	0.695871	5.7737	8.04096	1.09516	0.0166294	-0.000959177	0.000186445	-0.804199	-0.505127	-0.138428	-0.596758	-0.01045	0.564759	0.569928	6.56062	6.54334	3.66112	-0.0264079	0.035571	-0.0108684	-0.64624	-0.417969	-0.484619	0.893954	0.366427	0.229815	-0.117318	-5.20064	6.26883	6.46572	-0.0778282	0.0200993	0.0129306	0.771973	-0.439209	-0.465088	0.402043	0.781383	0.0907723	-0.468575	-7.76604	5.27637	-2.43688	-0.0652914	0.0222944	0.0068006	0.985596	-0.244873	-0.0810547	-0.637209	-0.707641	-0.0807449	0.29443	-4.9576	8.31382	-0.0170706	0.033417	0.0349338	-0.0062061	0.816895	-0.5979	-0.0979004	-0.995291	-0.063446	-0.0588394	-0.0436927	-2.52925	2.04241	12.9258	-0.0189256	-0.00111509	0.0186939	0.640625	-0.165039	-0.75708	0.00789197	-0.710616	-0.243724	-0.659971	9.17769	3.02616	-1.17647	0.0565163	-0.0156492	-0.0277734	-0.973877	0.0905762	0.19043	-0.685257	0.0309795	0.72762	-0.00562402	9.71644	-0.411561	-0.467265	0.00446851	-0.00181483	-0.0156893	-0.955078	0.478516	0.102783	-0.663333	0.233095	0.689924	0.172225	9.74076	-0.62742	-0.519317	0.0227202	0.00516331	-0.0150568	-0.960205	0.48877	0.092041	0.607549	-0.494792	-0.518608	-0.342213	9.49262	-2.49511	-0.249191	0.015644	0.00578542	-0.000290071	-0.883789	0.646973	-0.104492	0.574922	-0.49638	-0.534703	-0.370357	9.69603	-1.78228	-0.602515	0.0114902	0.000714741	-0.00217844	-0.948486	0.631592	-0.0537109	
14	-0.267519	0.166109	0.64518	0.69612	5.7218	8.00648	1.08027	-0.0163801	0.00146815	-0.00952405	-0.804199	-0.505127	-0.142578	-0.596649	-0.0106713	0.56461	0.570186	6.64714	6.49847	3.63218	-0.000400654	0.0169727	-0.0369642	-0.645996	-0.422363	-0.484375	0.894134	0.366205	0.229827	-0.116608	-5.30798	6.0889	6.51493	0.0485292	-0.00262622	0.018709	0.767578	-0.432617	-0.465088	0.402108	0.781548	0.0911807	-0.468165	-7.87296	5.11542	-2.57116	0.0399906	0.0268582	-0.0108044	0.990234	-0.249023	-0.0854492	-0.637407	-0.707639	-0.0809201	0.293956	-5.05552	8.41516	-0.135967	-0.00605027	0.0203274	-0.00569795	0.821289	-0.5979	-0.102539	-0.995252	-0.0636971	-0.0586622	-0.0444455	-2.63245	2.20067	12.8687	0.016988	0.0116351	0.00654962	0.640381	-0.162842	-0.75708	0.00736617	-0.711475	-0.243996	-0.65895	9.21999	3.09381	-1.27883	0.0133309	-0.0216634	-0.0104407	-0.974121	0.0925293	0.192627	-0.685192	0.0307513	0.727689	-0.00587127	9.78947	-0.542839	-0.557585	0.00185613	0.0173799	-0.0152554	-0.957275	0.48291	0.102783	-0.663011	0.233195	0.690249	0.172027	9.81339	-0.749805	-0.664043	0.0220788	-0.00993988	-0.0174581	-0.962646	0.495605	0.0917969	0.607411	-0.49494	-0.518647	-0.342186	9.59942	-2.42375	-0.214079	-0.0152592	0.00963259	0.000397023	-0.890381	0.646973	-0.102295	0.574725	-0.496658	-0.534681	-0.370321	9.72536	-1.74871	-0.59764	-0.0277512	-0.00610999	-0.000154722	-0.95752	0.631348	-0.0605469	
15	-0.267427	0.166008	0.645244	0.69612	5.71661	7.94274	1.11119	0.00543194	-0.00274437	-0.0124238	-0.799805	-0.50293	-0.142578	-0.596626	-0.0108262	0.564518	0.570299	6.71763	6.60626	3.69585	-0.00982814	0.0250957	-0.0312313	-0.639648	-0.417969	-0.489258	0.893941	0.366693	0.229797	-0.116614	-5.25904	6.23268	6.60078	0.0444665	0.0101943	0.006999	0.765381	-0.437012	-0.465088	0.401512	0.781941	0.0912489	-0.468006	-7.91045	5.3952	-2.38486	-0.00785971	0.0202848	-0.00431832	0.98584	-0.24707	-0.0788574	-0.637169	-0.707923	-0.080921	0.29379	-4.99433	8.42848	-0.139668	0.0277852	0.0246775	-0.00683836	0.814697	-0.593506	-0.0979004	-0.995236	-0.0640142	-0.0585247	-0.0445223	-2.53475	2.30577	12.8226	0.0281213	0.00276684	-0.00682135	0.646973	-0.165039	-0.75708	0.00738819	-0.711389	-0.244011	-0.659037	9.2072	3.01228	-1.2754	0.0161862	0.021448	-0.0167649	-0.969727	0.0927734	0.194824	-0.685143	0.0306142	0.727739	-0.00614964	9.72935	-0.474573	-0.681861	0.0442724	0.0146742	-0.0091917	-0.952637	0.471924	0.0981445	-0.663045	0.233025	0.690336	0.171776	9.81562	-0.656244	-0.60921	0.0309832	-0.000550831	-0.0169799	-0.962646	0.49585	0.0827637	0.607381	-0.494928	-0.518649	-0.342253	9.55563	-2.45446	-0.280246	0.0131233	0.0121473	-0.000678114	-0.883789	0.64917	-0.104736	0.574637	-0.496718	-0.53483	-0.370161	9.7275	-1.72709	-0.612868	0.0207119	-0.00529074	-0.00341336	-0.952881	0.629395	-0.0537109	
16	-0.267216	0.166141	0.645185	0.696225	5.83611	8.12827	1.12877	-0.0144403	-0.00850657	-0.000204418	-0.800049	-0.500732	-0.140625	-0.596938	-0.0106474	0.563997	0.570491	6.54746	6.37358	3.68202	-0.0230504	0.0309409	-0.0129934	-0.64624	-0.417969	-0.484619	0.894194	0.366048	0.229981	-0.116339	-5.15445	6.14694	6.4805	-0.0411392	0.00541702	0.00670729	0.765381	-0.437012	-0.458252	0.40157	0.781991	0.091357	-0.467852	-7.81451	5.24815	-2.51646	0.0177762	0.00950785	0.00334844	0.985596	-0.242676	-0.0788574	-0.637714	-0.707511	-0.0810166	0.293574	-5.13797	8.37967	-0.194453	-0.0285596	-0.00108127	-0.00459373	0.825684	-0.600098	-0.100098	-0.995262	-0.0636452	-0.0583843	-0.0446597	-2.66151	2.22594	12.864	-0.0135411	0.00219364	-0.00268713	0.644775	-0.165039	-0.754883	0.00728864	-0.710493	-0.243309	-0.660263	9.15878	2.99389	-1.27626	-0.00897166	0.076211	-0.00282714	-0.971924	0.0925293	0.194824	-0.685004	0.0303611	0.727878	-0.00641847	9.7086	-0.469246	-0.566501	0.00144272	0.0141291	-0.0204317	-0.959473	0.478516	0.0981445	-0.663017	0.232984	0.690423	0.171589	9.77942	-0.683206	-0.623804	0.0069646	-0.0010591	-0.0169177	-0.962646	0.491211	0.0874023	0.60742	-0.49474	-0.518862	-0.342133	9.49268	-2.40166	-0.321672	0.0130572	0.00254556	-0.00180248	-0.885986	0.646973	-0.104492	0.574669	-0.496714	-0.534988	-0.369889	9.69962	-1.74194	-0.687364	0.00404259	-0.000498582	-0.00052877	-0.959717	0.633545	-0.0493164	
17	-0.267894	0.165491	0.645027	0.696265	5.64642	7.96492	1.0973	0.0170378	0.0429829	-0.00509918	-0.804443	-0.498779	-0.142822	-0.596845	-0.0108413	0.564184	0.570399	6.64994	6.60165	3.71401	-0.00526725	0.00837718	-0.0199241	-0.648438	-0.416016	-0.491699	0.894118	0.366298	0.230102	-0.115894	-5.21875	6.23936	6.48854	0.0179819	0.0228976	0.012091	0.769531	-0.432617	-0.456055	0.401977	0.7819	0.0917981	-0.467568	-7.80531	5.23994	-2.48753	-0.0448849	0.0211355	-0.00347431	0.981201	-0.242676	-0.0766602	-0.637668	-0.707725	-0.0811878	0.29311	-5.06213	8.54243	-0.163116	-0.0125874	0.0312694	-0.000573819	0.816895	-0.5979	-0.100098	-0.995243	-0.063722	-0.0584069	-0.04495	-2.62078	2.08825	12.8915	0.00375424	0.0178743	-0.000563137	0.646973	-0.167236	-0.759277	0.00773082	-0.709877	-0.243515	-0.660844	9.13093	3.02846	-1.22135	0.0309558	0.0340894	-0.0220484	-0.967529	0.0905762	0.192627	-0.684867	0.030458	0.728004	-0.00630089	9.71984	-0.516508	-0.677013	0.00585655	0.00939882	-0.0134982	-0.950439	0.474121	0.105225	-0.663002	0.232879	0.690502	0.171473	9.80372	-0.74756	-0.639167	0.0150281	0.00250655	-0.0198107	-0.957764	0.489014	0.0830078	0.607524	-0.494578	-0.518972	-0.342017	9.5114	-2.43478	-0.348016	0.0211192	0.0207489	0.00344864	-0.885986	0.64917	-0.102295	0.574775	-0.496615	-0.535146	-0.369629	9.70525	-1.70658	-0.66669	0.013208	-0.000204027	-0.00154321	-0.955322	0.633789	-0.0537109	
18	-0.26792	0.165298	0.645086	0.696247	5.57845	8.03639	1.14843	0.00956349	0.00831642	-0.0106625	-0.802246	-0.500732	-0.140625	-0.597083	-0.0110242	0.56405	0.570278	6.58145	6.50383	3.60322	0.00455197	0.0238717	-0.0222224	-0.644043	-0.418213	-0.491699	0.894015	0.366801	0.229922	-0.115454	-5.20611	6.18604	6.58643	0.0202887	0.00540566	0.030255	0.767578	-0.439209	-0.462646	0.401759	0.782102	0.0920267	-0.467373	-7.84385	5.38335	-2.39616	-0.00213915	0.0160478	-0.00432483	0.988037	-0.24707	-0.0766602	-0.638083	-0.707483	-0.0813914	0.292733	-5.04781	8.32758	-0.103801	0.00655042	0.0185111	-0.00503745	0.816895	-0.5979	-0.100098	-0.995236	-0.0634803	-0.0582889	-0.045592	-2.59935	2.20466	12.9396	-0.0113195	0.0101041	0.00995332	0.644775	-0.165039	-0.763672	0.00763315	-0.708981	-0.242991	-0.661999	9.23282	3.02437	-1.22097	-0.0170833	0.0863081	-0.0127179	-0.97168	0.0883789	0.186279	-0.684715	0.0303705	0.72815	-0.00639293	9.77274	-0.420087	-0.597289	0.00695818	0.00544048	-0.017102	-0.957031	0.476318	0.105225	-0.66299	0.232946	0.690476	0.171533	9.82378	-0.64395	-0.55831	-0.0136268	0.00474824	-0.0172168	-0.962402	0.486572	0.0895996	0.607399	-0.494693	-0.519028	-0.341986	9.55655	-2.44142	-0.278539	-0.0109249	0.00432064	0.000690829	-0.881592	0.651367	-0.106934	0.574682	-0.496699	-0.535078	-0.369759	9.7556	-1.72041	-0.659611	-0.00450447	0.00954553	-0.00537144	-0.955322	0.631592	-0.0583496	
19	-0.267932	0.164786	0.645762	0.695737	5.54241	8.21555	1.09679	0.0185366	-0.00190396	-0.00113075	-0.802002	-0.50293	-0.144775	-0.597037	-0.0110275	0.564389	0.569991	6.65483	6.45825	3.63611	0.0117214	0.0119079	-0.00122447	-0.641846	-0.420166	-0.482178	0.894556	0.365497	0.230219	-0.114806	-5.22142	6.35594	6.50846	-0.0809623	0.0113747	-0.00709437	0.763184	-0.439209	-0.462646	0.402892	0.781771	0.0925389	-0.46685	-7.90795	5.33338	-2.66771	-0.0525731	0.0253252	0.0149569	0.981201	-0.24707	-0.0788574	-0.637708	-0.707933	-0.0812192	0.292511	-5.04255	8.43988	-0.147859	0.00373186	0.0151183	-0.00281434	0.821289	-0.595703	-0.0979004	-0.995222	-0.0636419	-0.0581553	-0.045836	-2.60171	2.29624	12.863	-0.0045224	0.0149487	-0.00530008	0.649414	-0.171631	-0.763428	0.0079011	-0.70779	-0.24265	-0.663394	9.12108	2.98179	-1.28126	0.0128432	0.0855022	-0.00797703	-0.976074	0.0905762	0.186279	-0.684864	0.0305635	0.728004	-0.00608423	9.6889	-0.570657	-0.560604	-0.0141953	0.0238396	-0.0221306	-0.959229	0.476318	0.107422	-0.662926	0.233025	0.690509	0.171539	9.77714	-0.722275	-0.616208	0.0146721	0.0024493	-0.018752	-0.964844	0.48877	0.0874023	0.607288	-0.494825	-0.51897	-0.342081	9.522	-2.35726	-0.1699	-0.00202881	0.0118834	0.00449774	-0.885986	0.64917	-0.104736	0.574459	-0.496946	-0.534952	-0.369956	9.67632	-1.73935	-0.599801	-0.010565	-0.000528513	-0.002011	-0.952881	0.627197	-0.0559082	
20	-0.267884	0.165217	0.645766	0.695649	5.86122	8.02888	1.10189	0.0025528	-0.00197706	0.0147721	-0.804199	-0.50293	-0.142822	-0.597036	-0.0110033	0.564529	0.569854	6.62472	6.59777	3.6372	0.00988551	0.00276438	-0.0217505	-0.644287	-0.416016	-0.487061	0.894641	0.365125	0.230497	-0.114774	-5.27433	6.15186	6.50195	0.0158519	0.0161747	-0.00577916	0.763184	-0.438965	-0.465088	0.40288	0.781805	0.0925544	-0.4668	-7.94753	5.29126	-2.57732	0.00295977	0.0100098	0.00140752	0.980957	-0.240479	-0.074707	-0.63838	-0.70738	-0.0811785	0.292395	-5.05663	8.48872	-0.111306	-0.0236141	-0.007644	-0.000950692	0.814697	-0.595703	-0.0957031	-0.995271	-0.0624218	-0.0584183	-0.0461061	-2.60731	2.13351	13.0376	-0.0470012	0.0251869	-0.0107632	0.646973	-0.167236	-0.76123	0.00803571	-0.707153	-0.24238	-0.66417	9.21357	3.0457	-1.29904	0.0359176	0.0420408	-0.0155287	-0.969971	0.0969238	0.184082	-0.684846	0.0305104	0.728024	-0.00611016	9.69907	-0.495939	-0.569522	0.0104783	0.0135212	-0.0179613	-0.957031	0.471924	0.105225	-0.662979	0.232817	0.690581	0.171326	9.77121	-0.697931	-0.626768	0.0297007	0.00242072	-0.0198466	-0.960205	0.48877	0.0895996	0.607133	-0.494979	-0.518984	-0.342113	9.48735	-2.43115	-0.266123	-0.0110996	0.00106972	0.00206476	-0.883789	0.646973	-0.106934	0.574354	-0.497074	-0.534955	-0.369944	9.71313	-1.7909	-0.655374	-0.00716054	-0.00330752	-0.00110578	-0.946045	0.629395	-0.0515137	
21	-0.267964	0.165409	0.645531	0.695791	5.75116	8.09735	1.10412	-0.0211409	-0.00751842	0.00151241	-0.802002	-0.50293	-0.142578	-0.59677	-0.0106086	0.564542	0.570127	6.63726	6.46891	3.67995	-0.0200231	0.00709812	-0.0192531	-0.641846	-0.420166	-0.491455	0.894486	0.365467	0.23043	-0.115023	-5.27113	6.06072	6.43576	0.0224858	-0.010143	-0.00655429	0.769775	-0.437012	-0.465088	0.402572	0.781759	0.0926016	-0.467133	-7.92289	5.19994	-2.63105	0.0253138	-0.0134212	-0.00996411	0.983398	-0.244873	-0.0744629	-0.637624	-0.707938	-0.0812778	0.292666	-5.03239	8.47132	-0.111733	0.0346275	0.0147397	-0.0305454	0.819092	-0.5979	-0.0932617	-0.99521	-0.0635603	-0.0584537	-0.0458189	-2.55118	2.23698	12.9583	0.06099	0.013851	-0.0273007	0.646973	-0.162842	-0.761475	0.00808224	-0.706142	-0.241774	-0.665465	9.12919	2.96948	-1.26875	-0.0330238	0.0512914	0.00022616	-0.969727	0.0927734	0.177734	-0.68454	0.0303991	0.728315	-0.00624686	9.70735	-0.548921	-0.635787	-0.0293704	0.00623268	-0.0191787	-0.955078	0.478516	0.102783	-0.662842	0.232738	0.690664	0.171631	9.78198	-0.748416	-0.669596	0.00280264	0.00354996	-0.0220658	-0.962402	0.486572	0.0852051	0.607093	-0.495006	-0.519018	-0.342093	9.64549	-2.49032	-0.245576	0.0176597	0.0163355	-0.000604861	-0.883789	0.64917	-0.109131	0.574724	-0.496585	-0.535367	-0.369428	9.69684	-1.80003	-0.596915	0.0550291	0.00313772	-0.00820556	-0.950439	0.627197	-0.0537109	
22	-0.268223	0.165473	0.645186	0.695996	5.59033	7.92293	1.15133	-0.00798716	0.00991053	0.00852157	-0.799805	-0.505127	-0.146973	-0.596619	-0.0101896	0.564659	0.570178	6.57953	6.49572	3.64736	-0.0208684	-0.00529467	-0.00596798	-0.64624	-0.420166	-0.489258	0.894236	0.366058	0.230326	-0.115296	-5.26428	6.22903	6.55061	0.0590832	-0.00108664	-0.00864216	0.763184	-0.439209	-0.462646	0.401906	0.781851	0.092325	-0.467608	-7.92665	5.32041	-2.45305	0.0603913	-0.0256958	-0.021059	0.985596	-0.242676	-0.0744629	-0.637864	-0.70752	-0.0815909	0.293068	-5.03552	8.28682	-0.258	-0.0162118	-0.000361146	-0.0263117	0.817139	-0.600098	-0.0979004	-0.995192	-0.063816	-0.0586316	-0.0456287	-2.62231	2.27159	12.7486	0.0259595	0.0262523	-0.0297845	0.64917	-0.167236	-0.76123	0.00832707	-0.705043	-0.241688	-0.666657	9.15997	3.01475	-1.05883	0.00596372	0.071392	-0.0179837	-0.976074	0.0905762	0.173584	-0.684422	0.0305132	0.728421	-0.00616787	9.68507	-0.634291	-0.712546	-0.00661599	0.00321012	-0.0143383	-0.957275	0.478516	0.102783	-0.662908	0.232552	0.690705	0.171463	9.81183	-0.761762	-0.773645	0.0252386	0.00519392	-0.0201894	-0.967041	0.48877	0.0895996	0.607628	-0.494379	-0.51912	-0.341895	9.40139	-2.45718	-0.290283	0.0348927	0.0192349	0.00214353	-0.885986	0.646973	-0.109131	0.575107	-0.496122	-0.535687	-0.368992	9.7016	-1.77795	-0.754096	0.0673602	0.00371333	-0.0051762	-0.946289	0.631592	-0.0537109	
23	-0.268194	0.16567	0.645273	0.69588	5.57051	7.92182	1.16795	0.00710809	-0.0186551	0.00882408	-0.802002	-0.50293	-0.142578	-0.59657	-0.0100714	0.564795	0.570096	6.56072	6.48377	3.65283	-0.0033908	0.000351529	-0.0107281	-0.644287	-0.411621	-0.487061	0.894048	0.366165	0.230633	-0.115801	-5.1144	6.23864	6.58521	-0.00724782	0.00992893	-0.0224299	0.763428	-0.439209	-0.458252	0.40152	0.781876	0.0921877	-0.467923	-7.83686	5.42732	-2.3968	0.034364	-0.0158332	-0.0143824	0.98999	-0.242676	-0.0766602	-0.638038	-0.707337	-0.081475	0.293163	-5.13598	8.47197	-0.243829	-0.0152268	-0.00987209	-0.0072732	0.818848	-0.593506	-0.0957031	-0.99521	-0.0633726	-0.0588692	-0.0455594	-2.64835	2.20705	12.8007	-0.0180614	0.0236178	-0.0130685	0.642578	-0.162842	-0.761475	0.00819366	-0.704954	-0.241508	-0.666818	9.21092	3.03016	-1.03667	-0.00440337	0.0229014	-0.0139287	-0.978271	0.0905762	0.177734	-0.684214	0.0304801	0.728616	-0.00642208	9.78425	-0.410631	-0.633538	-0.00199212	0.00695355	-0.0115921	-0.955322	0.48291	0.102783	-0.663099	0.232428	0.690562	0.171468	9.81277	-0.732918	-0.658989	0.00772586	0.0121127	-0.0202015	-0.967041	0.486572	0.0852051	0.607903	-0.494077	-0.519411	-0.3414	9.57401	-2.40583	-0.346085	0.0433605	0.00779846	0.00645636	-0.883789	0.64917	-0.106934	0.575925	-0.495191	-0.53617	-0.368263	9.72074	-1.71771	-0.608722	0.0682007	0.0116563	-0.00438978	-0.955078	0.624756	-0.0605469	
24	-0.267929	0.165911	0.646036	0.695216	5.80204	7.9923	1.10435	0.0424245	-0.0189414	-0.00230287	-0.800049	-0.498535	-0.140625	-0.596549	-0.00994102	0.565263	0.569657	6.60909	6.55815	3.66304	0.012656	0.00144915	0.00413908	-0.64209	-0.413818	-0.489502	0.894574	0.365092	0.230546	-0.115297	-5.19422	6.14755	6.54223	-0.0644587	-0.00428259	0.0213057	0.767578	-0.434814	-0.462891	0.402393	0.781367	0.0921224	-0.468038	-7.73343	5.26529	-2.27746	-0.0184162	-0.0120413	0.0181796	0.97876	-0.240479	-0.0791016	-0.638253	-0.707118	-0.0814472	0.293229	-5.03354	8.49131	-0.204357	-0.0202199	0.00821097	-0.00559911	0.818848	-0.591309	-0.100342	-0.99524	-0.0628616	-0.0587274	-0.0457949	-2.59159	2.19643	12.7596	-0.0117238	0.00525277	-0.00489963	0.646729	-0.160645	-0.761475	0.00804476	-0.70494	-0.24125	-0.666928	9.14893	3.05194	-1.13958	0.00763673	0.00408516	-0.0133166	-0.976318	0.0927734	0.175537	-0.684118	0.0306065	0.728701	-0.00642787	9.76393	-0.43647	-0.59647	-0.00374251	0.00789886	-0.0125734	-0.952881	0.480713	0.0981445	-0.663506	0.231783	0.690515	0.170955	9.80849	-0.600983	-0.534915	0.0359018	0.0177805	-0.0204162	-0.964844	0.48877	0.0874023	0.608647	-0.493165	-0.519704	-0.340948	9.51149	-2.33189	-0.262865	0.0461257	0.021417	-0.00132683	-0.888428	0.651367	-0.111572	0.576654	-0.494297	-0.536755	-0.36747	9.72844	-1.68537	-0.660814	0.0644378	0.00375389	-0.00527466	-0.948242	0.625	-0.0581055	
25	-0.268005	0.166113	0.647031	0.694213	5.5909	8.04233	1.03053	0.0545291	-0.0369478	0.0152778	-0.797852	-0.500732	-0.140625	-0.596708	-0.00954644	0.565879	0.568885	6.58659	6.43384	3.56585	0.0139877	-0.00725761	0.0116688	-0.64624	-0.415771	-0.482178	0.895377	0.363419	0.230432	-0.114578	-5.15843	6.14013	6.50763	-0.0674145	-0.00535141	0.0107732	0.765381	-0.434814	-0.458252	0.404123	0.780663	0.0922779	-0.467691	-7.84025	5.19173	-2.64062	-0.0717176	-0.00432018	0.0357588	0.981201	-0.24707	-0.0788574	-0.638965	-0.706595	-0.0813113	0.292978	-4.99473	8.27049	-0.137064	-0.0294731	-0.00276766	0.0174786	0.814941	-0.602295	-0.100098	-0.99532	-0.0615815	-0.0584084	-0.046204	-2.5372	2.33293	12.8031	-0.0727221	0.0118438	-0.00170475	0.646973	-0.167236	-0.759277	0.00804865	-0.705045	-0.24129	-0.666803	9.18149	3.04799	-1.19903	0.0226661	0.00380167	-0.0141328	-0.971924	0.0905762	0.175537	-0.684094	0.0306897	0.728719	-0.00644761	9.69916	-0.449994	-0.590446	0.01437	0.0154701	-0.0151045	-0.961426	0.476318	0.105225	-0.663712	0.231629	0.690413	0.170777	9.77172	-0.666215	-0.583	0.021123	0.00952061	-0.0136727	-0.965088	0.493408	0.0874023	0.608858	-0.49294	-0.519753	-0.34082	9.53583	-2.33239	-0.335158	0.0289199	0.0185711	0.00262208	-0.892822	0.651367	-0.109375	0.576764	-0.49422	-0.536815	-0.367314	9.68043	-1.69521	-0.628146	-0.00175088	0.00406446	-0.000552279	-0.957764	0.635986	-0.0583496	
26	-0.268095	0.166616	0.647935	0.693213	5.81276	7.97872	1.02354	0.0435492	-0.0146637	0.0125135	-0.804443	-0.500977	-0.138428	-0.596855	-0.00942016	0.566458	0.568156	6.57762	6.56029	3.55574	0.0111506	0.00250317	-0.000140025	-0.644531	-0.409424	-0.480225	0.895633	0.363024	0.230121	-0.114451	-5.11671	6.17951	6.42788	-0.00235734	-0.00782417	0.00118796	0.760986	-0.432617	-0.462891	0.404916	0.780447	0.0918174	-0.467455	-7.74753	5.20708	-2.45342	-0.018616	0.00260026	0.0381397	0.985596	-0.244873	-0.083252	-0.63969	-0.706026	-0.0807362	0.292925	-4.93066	8.54846	0.019822	-0.0190195	-0.0126008	-0.00198978	0.814697	-0.5979	-0.0957031	-0.995432	-0.0599335	-0.0582375	-0.0461602	-2.52784	1.92957	12.9744	-0.0349901	-0.00289729	-0.0270554	0.648926	-0.158691	-0.765869	0.0079425	-0.705065	-0.241199	-0.666815	9.17491	3.12536	-0.92904	0.0135645	-0.0189381	-0.0160728	-0.976318	0.0969238	0.17749	-0.684271	0.0307481	0.72855	-0.00653014	9.77482	-0.406921	-0.588022	-0.0132099	0.022712	-0.0143408	-0.952881	0.480713	0.109863	-0.663924	0.231402	0.69036	0.170475	9.80484	-0.6456	-0.579322	0.0198394	0.00779736	-0.0155293	-0.962646	0.491211	0.0852051	0.609231	-0.492732	-0.519676	-0.340572	9.50041	-2.36631	-0.217847	0.0254578	0.0106217	0.00587876	-0.881592	0.646973	-0.109131	0.576586	-0.494535	-0.536736	-0.367286	9.69376	-1.71175	-0.658766	-0.011203	-0.00191861	-0.000222787	-0.948242	0.627197	-0.0627441	
27	-0.267913	0.166722	0.648625	0.692612	5.59174	8.13226	0.977224	0.0227845	-0.0400095	-0.00143406	-0.802002	-0.505127	-0.13623	-0.596478	-0.00922695	0.566861	0.568153	6.7582	6.56869	3.61462	-0.00670755	0.000302624	-0.0250234	-0.64624	-0.415771	-0.47998	0.895564	0.363367	0.229787	-0.11457	-5.14179	5.95852	6.39404	0.0352231	-0.0187636	0.00585436	0.769775	-0.441406	-0.464844	0.404703	0.780426	0.0909752	-0.46784	-7.82387	5.33341	-2.3242	0.0534044	-0.0253412	0.0113553	0.983398	-0.244873	-0.0810547	-0.639832	-0.705905	-0.0803879	0.293003	-4.99065	8.53024	-0.0220268	-0.00136727	-0.0138906	-0.00212414	0.817139	-0.602295	-0.0979004	-0.995469	-0.0600754	-0.0577861	-0.0457487	-2.59264	2.10923	12.8074	0.00461012	-0.00590587	-0.0321637	0.642578	-0.162842	-0.759277	0.00742225	-0.705567	-0.240824	-0.666426	9.26847	3.0711	-0.993656	-0.0318266	0.0152385	-0.0106055	-0.978516	0.0947266	0.175537	-0.684223	0.031022	0.728585	-0.00633088	9.75449	-0.402887	-0.504506	-0.00822254	0.0138139	-0.0148552	-0.957275	0.478516	0.105225	-0.663891	0.231676	0.690277	0.170563	9.79817	-0.628761	-0.498332	-0.0163915	0.00132779	-0.0115511	-0.962402	0.48877	0.0895996	0.608782	-0.493416	-0.519514	-0.340632	9.57495	-2.29482	-0.398272	-0.0468625	0.00494931	0.0121916	-0.887939	0.642578	-0.113525	0.575923	-0.495437	-0.536167	-0.367939	9.75439	-1.64547	-0.674546	-0.0737914	0.00655204	0.000552276	-0.955322	0.631348	-0.0605469	
28	-0.267447	0.166799	0.648606	0.692791	5.86065	8.06539	1.04398	-0.0154284	0.00578728	-0.0194995	-0.806641	-0.500977	-0.13623	-0.596495	-0.0087316	0.566622	0.568381	6.55601	6.46705	3.61506	-0.0340262	0.00501654	-0.0107716	-0.650879	-0.413818	-0.482422	0.895315	0.364345	0.228941	-0.115109	-5.17158	6.29015	6.62376	-0.00390639	-0.0112593	-0.0127051	0.763184	-0.432617	-0.462891	0.404879	0.780429	0.0906871	-0.467739	-7.84242	5.43087	-2.50788	-0.00485997	0.00341777	0.0126277	0.983398	-0.244873	-0.0854492	-0.640596	-0.705271	-0.0800769	0.292944	-5.05135	8.38399	-0.153682	-0.0233055	-0.00675925	0.0117534	0.814941	-0.602295	-0.107178	-0.995516	-0.0599907	-0.0573674	-0.0453621	-2.56542	2.0514	13.0666	-0.00312846	0.00162679	-0.0277782	0.651123	-0.158691	-0.761719	0.00684728	-0.706111	-0.240104	-0.666117	9.18362	3.0885	-1.16732	-0.0113236	0.0098769	-0.00665736	-0.980713	0.0969238	0.17749	-0.684294	0.0317294	0.728493	-0.00578026	9.72809	-0.378532	-0.612292	-0.0406159	0.0250853	-0.0114603	-0.955078	0.480713	0.102783	-0.663352	0.232731	0.690263	0.171279	9.77706	-0.72914	-0.576415	-0.0476608	-0.0121282	-0.0134063	-0.958008	0.493408	0.0895996	0.608305	-0.494328	-0.51887	-0.341143	9.57875	-2.48685	-0.143979	-0.0392235	0.0166185	0.0134559	-0.885986	0.644775	-0.106689	0.575024	-0.496586	-0.535449	-0.368842	9.69862	-1.78595	-0.50896	-0.0549454	0.00176833	0.00210105	-0.955322	0.633789	-0.0515137	
29	-0.267261	0.167034	0.648256	0.693134	5.65363	7.99253	1.05234	-0.0228584	-0.0190062	0.00681665	-0.804199	-0.50293	-0.138428	-0.596159	-0.00847125	0.566678	0.568681	6.73174	6.52963	3.58483	-0.0202214	0.00422958	-0.0307673	-0.64624	-0.415771	-0.475098	0.895449	0.364084	0.228855	-0.115057	-5.18923	6.16179	6.49357	-0.019331	-0.00538701	0.00194643	0.765381	-0.434814	-0.467285	0.40427	0.780563	0.0902889	-0.468119	-7.80705	5.36563	-2.35409	0.02653	-0.0122376	-0.00798586	0.981445	-0.251465	-0.083252	-0.640545	-0.705322	-0.0798739	0.29299	-5.01473	8.5018	-0.0415179	0.0112455	-0.00432157	-0.00366839	0.814697	-0.5979	-0.104736	-0.995525	-0.0598367	-0.0574471	-0.0452648	-2.5243	2.05394	12.9056	-0.00291676	0.0137688	-0.0172961	0.644531	-0.156494	-0.765869	0.00625821	-0.706234	-0.239483	-0.666215	9.30597	2.99728	-1.10154	-0.0120875	0.00963614	-0.0157331	-0.980469	0.0905762	0.184082	-0.684292	0.0323677	0.728468	-0.00555231	9.72558	-0.544842	-0.63888	0.00298755	0.0103909	-0.0031234	-0.957275	0.478516	0.105225	-0.663109	0.232992	0.690472	0.171025	9.81535	-0.714751	-0.613191	0.0210762	-0.0127959	-0.00859173	-0.965088	0.493408	0.0895996	0.608217	-0.494711	-0.518287	-0.341631	9.48363	-2.3043	-0.271626	-0.0347904	0.0193869	0.0102654	-0.883789	0.64917	-0.109131	0.57473	-0.497161	-0.535181	-0.368914	9.74377	-1.68014	-0.708408	-0.0307992	-0.00246247	0.00799152	-0.948486	0.631592	-0.0537109	
30	-0.266926	0.167493	0.648543	0.692884	5.63665	7.93665	0.96644	0.0198885	-0.0335869	-0.0073258	-0.797607	-0.505127	-0.13623	-0.596054	-0.0081545	0.566453	0.56902	6.63461	6.49961	3.63223	-0.035507	0.00589681	-0.0205677	-0.648682	-0.411621	-0.482422	0.895478	0.36396	0.228787	-0.11536	-5.15516	6.18537	6.57028	0.0124523	-0.00465363	-0.0163104	0.763184	-0.432617	-0.467529	0.404359	0.780438	0.0903184	-0.468245	-7.89185	5.31674	-2.48166	-0.00784903	-0.00739995	-0.00262116	0.986084	-0.253662	-0.0810547	-0.639742	-0.705829	-0.0797538	0.293557	-4.97889	8.47213	-0.0405142	0.0261859	-0.00477592	-0.0164577	0.810547	-0.600098	-0.104736	-0.995515	-0.0604569	-0.0573562	-0.0447838	-2.59103	2.11886	12.8475	0.0324388	0.009827	-0.0350225	0.648926	-0.162842	-0.761475	0.00558719	-0.706136	-0.238454	-0.666694	9.28114	3.05175	-1.0384	-0.0327988	0.0195568	-0.0019824	-0.976318	0.0969238	0.181885	-0.684197	0.0324938	0.728551	-0.00566193	9.70967	-0.487565	-0.587397	0.00373095	0.00533615	-0.00304918	-0.961426	0.476318	0.100586	-0.662958	0.233145	0.690596	0.170903	9.78048	-0.604205	-0.575366	0.00322299	-0.014869	-0.00881769	-0.955811	0.493408	0.0895996	0.607864	-0.495246	-0.518149	-0.341693	9.53275	-2.44734	-0.308107	-0.043384	-0.0089793	0.0170269	-0.87915	0.644775	-0.106689	0.574313	-0.49774	-0.534835	-0.369286	9.74737	-1.75066	-0.723382	-0.0666344	0.00138054	0.00480182	-0.948486	0.631592	-0.0559082	
31	-0.266418	0.167792	0.648763	0.692801	5.74084	8.13113	0.964937	0.00424105	-0.0514203	-0.0146489	-0.802002	-0.50293	-0.13623	-0.596029	-0.00807593	0.566313	0.569187	6.63356	6.4245	3.61096	-0.0249645	0.0165355	-0.0237377	-0.644287	-0.413818	-0.484619	0.895458	0.364109	0.228559	-0.115505	-5.10685	6.08776	6.51849	0.0195036	-0.014468	-0.00194332	0.763184	-0.434814	-0.462891	0.403524	0.780591	0.0897269	-0.468823	-7.72913	5.31098	-2.39241	0.060893	-0.0246173	-0.00678587	0.98584	-0.249268	-0.083252	-0.640122	-0.705445	-0.0797997	0.293638	-5.09656	8.47701	-0.159524	-0.0410042	-0.00664533	-0.0122805	0.819092	-0.595703	-0.104736	-0.99552	-0.0604786	-0.0573186	-0.0446943	-2.6435	2.15468	12.9212	0.00507625	0.0099025	-0.021978	0.648926	-0.162842	-0.761475	0.00560064	-0.705672	-0.238224	-0.667267	9.19408	3.0224	-0.979733	-0.00568744	0.0696176	-0.0111953	-0.976318	0.0927734	0.171387	-0.684096	0.0333693	0.728611	-0.00504385	9.73932	-0.420566	-0.641767	-0.0413976	0.0155451	-0.00602236	-0.954834	0.476318	0.105225	-0.662484	0.234074	0.690619	0.171377	9.80572	-0.738415	-0.573659	-0.0498271	-0.000432513	-0.0100203	-0.962646	0.490967	0.0917969	0.60749	-0.496055	-0.517598	-0.342019	9.5234	-2.45253	-0.255825	-0.0295832	0.0241624	0.0160038	-0.884033	0.653564	-0.104736	0.573898	-0.498457	-0.53423	-0.369837	9.65598	-1.79098	-0.614487	-0.0343237	0.0120108	0.00716024	-0.953125	0.633789	-0.0493164	
32	-0.266385	0.167463	0.64864	0.693009	5.78668	7.90988	0.939806	0.000304489	0.0352591	-0.0160919	-0.804199	-0.505127	-0.140625	-0.595968	-0.00803227	0.566365	0.569199	6.59679	6.46743	3.62308	-0.0078214	0.00699681	-0.0192356	-0.64624	-0.415771	-0.484619	0.8955	0.364171	0.228441	-0.11521	-5.1198	6.2391	6.6541	-0.00807987	0.0100226	0.0117143	0.763184	-0.434814	-0.467285	0.403686	0.780359	0.0897873	-0.469058	-7.84606	5.33668	-2.44826	-0.0357284	0.0016104	0.00437126	0.979004	-0.244873	-0.083252	-0.639934	-0.705557	-0.0795979	0.293832	-4.99562	8.40056	-0.0130332	0.0189893	0.000412745	-0.00956355	0.817139	-0.600098	-0.107178	-0.99554	-0.0604224	-0.057057	-0.0446447	-2.62105	2.00346	12.8647	0.0151715	0.0038207	-0.019167	0.644775	-0.162842	-0.759277	0.00489782	-0.706693	-0.237727	-0.666369	9.2366	3.00004	-1.18569	-0.0104524	-0.0691075	-0.0148118	-0.973877	0.0905762	0.182129	-0.684164	0.034324	0.728508	-0.00420853	9.69665	-0.669245	-0.73726	-0.0395837	0.0187752	-0.00985713	-0.954834	0.471924	0.112305	-0.662285	0.234855	0.690409	0.171923	9.77036	-0.711352	-0.699309	-0.0259064	0.00340569	-0.0124409	-0.958008	0.493408	0.0917969	0.607202	-0.496741	-0.51708	-0.342318	9.46317	-2.46971	-0.290778	-0.0230971	0.00352498	0.017195	-0.890625	0.64917	-0.102295	0.573679	-0.499029	-0.533699	-0.370172	9.68144	-1.81902	-0.716897	-0.00999691	0.0114075	0.00762886	-0.948486	0.631592	-0.0515137	
33	-0.266369	0.167195	0.648765	0.692963	5.81354	8.08865	0.978812	0.0076859	-0.00881691	-0.00494348	-0.802246	-0.503174	-0.131836	-0.595991	-0.00793911	0.566268	0.569273	6.69841	6.40856	3.61845	0.0097946	0.0113972	-0.0123329	-0.652832	-0.418213	-0.486816	0.895446	0.364293	0.228408	-0.115307	-5.19965	6.18308	6.64395	0.0213324	0.00298348	-0.00595331	0.763184	-0.434814	-0.465088	0.403458	0.780453	0.0895488	-0.469143	-7.80273	5.49103	-2.25586	0.0199231	0.00740228	0.00178811	0.981445	-0.251465	-0.0810547	-0.640499	-0.705112	-0.0796339	0.293662	-5.04877	8.49333	-0.0625482	-0.0381931	-0.00385144	-0.0011923	0.816895	-0.5979	-0.104736	-0.995561	-0.0599935	-0.0570877	-0.0447239	-2.59403	2.10955	12.8285	-0.0393265	0.0145272	-0.00872769	0.642334	-0.158691	-0.759521	0.00451821	-0.707577	-0.237506	-0.665511	9.28925	2.96142	-1.0385	0.0217925	-0.0485682	-0.00731267	-0.969727	0.0927734	0.181885	-0.683975	0.034277	0.728687	-0.0043448	9.78089	-0.388547	-0.560669	0.0106576	0.00517282	-0.01523	-0.957031	0.476318	0.114502	-0.662213	0.235436	0.690189	0.172289	9.77341	-0.666599	-0.557846	-0.0332259	0.00832684	-0.0118206	-0.964844	0.490967	0.0917969	0.606874	-0.49745	-0.516845	-0.342226	9.52413	-2.40941	-0.252313	-0.0168517	0.00111837	0.0195319	-0.884033	0.653564	-0.102539	0.573367	-0.499637	-0.533271	-0.370453	9.69019	-1.77021	-0.60833	-0.0341726	0.00394752	0.00470165	-0.952881	0.631592	-0.0537109	
34	-0.267022	0.166475	0.648887	0.692771	5.73977	8.04811	0.966278	0.0259206	0.0390285	0.00220955	-0.804443	-0.500977	-0.13623	-0.596237	-0.00813131	0.566684	0.568598	6.69479	6.50405	3.66094	0.0213894	0.0147663	0.00494119	-0.650635	-0.415771	-0.477539	0.89545	0.364409	0.22842	-0.114891	-5.20673	6.27944	6.60655	-0.00367171	0.0129005	0.020519	0.765381	-0.437012	-0.460449	0.404572	0.780018	0.0898256	-0.468855	-7.86222	5.32477	-2.41391	-0.058809	0.00654278	0.0188752	0.983643	-0.251465	-0.0810547	-0.640635	-0.705037	-0.0796814	0.29353	-5.08714	8.5937	-0.0759994	-0.00184191	0.0157383	-0.00709197	0.816895	-0.5979	-0.102539	-0.995559	-0.0599533	-0.0570741	-0.0448406	-2.61414	2.05752	12.965	0.00970585	0.0150633	-0.00922237	0.640381	-0.162842	-0.765869	0.00463128	-0.707671	-0.237514	-0.665407	9.21349	3.00665	-1.18304	0.0405148	-0.000597723	-0.0109597	-0.976318	0.0925293	0.186279	-0.68412	0.0345516	0.72854	-0.00407551	9.78312	-0.540566	-0.574384	0.010933	0.021229	-0.0145697	-0.950684	0.480713	0.107422	-0.662088	0.235775	0.690162	0.172411	9.82696	-0.709937	-0.574042	-0.00220056	-0.00305519	-0.0146063	-0.962646	0.493408	0.0917969	0.606761	-0.497863	-0.516539	-0.342289	9.56497	-2.49634	-0.215736	-0.0128353	0.0157108	0.0116387	-0.877441	0.653809	-0.100098	0.572833	-0.500374	-0.532924	-0.370784	9.72908	-1.77991	-0.612045	-0.0295782	-0.00206128	0.000794081	-0.948486	0.631592	-0.046875	
35	-0.267642	0.166138	0.649008	0.692499	5.80911	8.04101	1.06072	0.0177244	0.0201655	0.0120068	-0.800049	-0.500732	-0.138428	-0.596441	-0.00793975	0.566867	0.568205	6.73159	6.45889	3.54432	0.00306656	0.0103928	0.00212211	-0.646484	-0.411377	-0.477783	0.89551	0.364179	0.22861	-0.114771	-5.28567	6.18198	6.63918	-0.00868129	0.00902174	-0.00324222	0.767578	-0.437012	-0.462646	0.404908	0.779891	0.0900148	-0.46874	-7.93506	5.50619	-2.36382	-0.0228742	0.00985088	0.000913291	0.979004	-0.24707	-0.0876465	-0.641293	-0.704478	-0.0800454	0.293336	-4.99532	8.33546	0.0250891	-0.0315055	0.0143551	-0.00291683	0.812744	-0.602295	-0.100098	-0.995563	-0.0593125	-0.0573113	-0.0452865	-2.59463	2.03901	12.9121	-0.0284419	0.0272959	0.00251731	0.640381	-0.165039	-0.763428	0.00497311	-0.707585	-0.237504	-0.665501	9.15482	2.94287	-0.98428	0.0238321	0.0166066	-0.00304344	-0.976318	0.0947266	0.184082	-0.684124	0.0341882	0.72855	-0.00453631	9.67305	-0.478654	-0.676599	0.0314281	0.0138433	-0.011411	-0.955322	0.482666	0.109619	-0.661968	0.235982	0.690212	0.172388	9.76457	-0.74817	-0.691977	0.00599986	-0.00219465	-0.0165691	-0.962646	0.490967	0.0964355	0.606331	-0.498521	-0.516356	-0.342368	9.46607	-2.52359	-0.392077	-0.0133414	-0.0042249	0.0144101	-0.884033	0.653564	-0.0957031	0.572516	-0.500789	-0.532773	-0.370928	9.69297	-1.81525	-0.701051	-0.0197805	-0.00374012	0.00181267	-0.946289	0.631592	-0.0490723	
36	-0.268188	0.166164	0.648983	0.692304	5.63048	7.94262	1.03104	0.00606634	-0.00650913	0.0124805	-0.804443	-0.498779	-0.13623	-0.59676	-0.00793348	0.567154	0.567583	6.68992	6.43238	3.67111	0.0143019	0.0165577	0.00301153	-0.650879	-0.413574	-0.47998	0.895661	0.363503	0.229138	-0.114684	-5.20272	6.13223	6.54012	-0.0383249	0.0196646	-0.0106669	0.760986	-0.43042	-0.460693	0.405245	0.779639	0.0904976	-0.468775	-7.82623	5.36697	-2.38613	-0.00530959	0.00120989	-0.017497	0.983887	-0.253662	-0.0854492	-0.641687	-0.704159	-0.0805444	0.293105	-5.04185	8.5238	-0.092328	-0.0326355	0.0235056	-0.0176282	0.816895	-0.595703	-0.107178	-0.995554	-0.0586064	-0.0578566	-0.0457081	-2.54495	2.07212	13.0203	-0.0285413	0.0448703	0.00170158	0.648926	-0.162842	-0.763672	0.0056723	-0.706629	-0.237662	-0.666453	9.20387	2.92235	-1.03532	-0.0135959	0.0781602	-0.00184796	-0.971924	0.0927734	0.181885	-0.683984	0.0342722	0.728678	-0.00444698	9.72918	-0.50404	-0.561428	-0.0308983	0.00820282	-0.0225522	-0.94873	0.48291	0.112061	-0.661891	0.236172	0.690216	0.172408	9.82763	-0.755193	-0.612239	0.012554	0.0030468	-0.0142817	-0.962646	0.493408	0.0961914	0.606361	-0.498833	-0.516192	-0.342106	9.54825	-2.45588	-0.220436	0.0087759	0.013683	0.0203474	-0.879639	0.653564	-0.0979004	0.571923	-0.501465	-0.532509	-0.37131	9.71589	-1.72839	-0.578255	-0.0417564	-0.00789883	-0.00208578	-0.94873	0.635986	-0.0356445	
37	-0.268457	0.166145	0.649247	0.691957	5.89073	7.93942	1.04514	0.0260721	0.0185508	0.00405248	-0.802002	-0.507324	-0.13623	-0.59685	-0.00773316	0.567363	0.567283	6.7442	6.47543	3.62079	-0.00901442	0.00105975	0.000430986	-0.648438	-0.417969	-0.479736	0.896016	0.362285	0.229827	-0.114389	-5.24128	6.17794	6.59176	-0.0579459	0.0303704	-0.0146492	0.763184	-0.437012	-0.467285	0.405582	0.779433	0.0910351	-0.468722	-7.90271	5.27164	-2.4335	-0.0379085	0.0149248	-0.00171603	0.979248	-0.249268	-0.083252	-0.641529	-0.704226	-0.0811673	0.293117	-5.03493	8.37238	0.0191079	0.0108156	0.0371087	-0.0326831	0.814697	-0.5979	-0.104736	-0.995484	-0.058921	-0.0584382	-0.0460976	-2.69109	2.08408	12.8062	0.0318591	0.0338535	-0.00469919	0.644531	-0.160645	-0.763672	0.00572735	-0.706793	-0.237504	-0.666335	9.32536	3.03527	-1.16262	0.0139784	0.052305	-0.0105533	-0.971924	0.0927734	0.175537	-0.684139	0.0337936	0.728553	-0.00473721	9.74938	-0.562557	-0.582324	0.0248576	0.0153505	-0.0143038	-0.955078	0.478516	0.109863	-0.661903	0.236055	0.690297	0.1722	9.79918	-0.748848	-0.613117	0.0128056	0.000231587	-0.0180683	-0.964844	0.48877	0.0942383	0.606237	-0.499016	-0.516229	-0.342004	9.50165	-2.5246	-0.253261	-0.00494338	0.000178634	0.00225642	-0.884033	0.653564	-0.100098	0.571519	-0.501897	-0.532567	-0.371264	9.73113	-1.90758	-0.594745	-0.00384099	-0.00929811	0.00115342	-0.950928	0.635986	-0.0446777	
38	-0.268693	0.165969	0.649383	0.69178	5.56982	8.09595	0.969445	0.0245653	0.0143439	0.00501313	-0.799805	-0.505127	-0.138428	-0.596973	-0.00753078	0.567468	0.567051	6.6829	6.38065	3.5853	-0.00238858	0.00600696	0.00820906	-0.648682	-0.409424	-0.480225	0.896143	0.361823	0.230066	-0.114371	-5.29158	5.99253	6.44333	-0.0359757	0.0153202	-0.0142326	0.763184	-0.428223	-0.467529	0.405573	0.779371	0.0911921	-0.468802	-7.88832	5.28433	-2.43181	-0.00492923	0.0024813	-0.0122308	0.983643	-0.24707	-0.0876465	-0.641823	-0.703979	-0.0815615	0.292959	-5.0692	8.40627	-0.130438	-0.0388221	0.028123	-0.0205274	0.819336	-0.604492	-0.104736	-0.995468	-0.05869	-0.0588187	-0.0462513	-2.57663	2.28438	12.8421	-0.0143632	0.0462422	-0.00567371	0.642578	-0.160645	-0.759277	0.00613331	-0.706347	-0.237637	-0.666757	9.20494	2.93375	-1.046	0.0375482	0.0665568	-0.00972143	-0.973877	0.0905762	0.179932	-0.684109	0.0336066	0.728589	-0.00497536	9.74492	-0.523288	-0.635178	0.0294557	0.0112699	-0.0142573	-0.955322	0.48291	0.107422	-0.661883	0.235965	0.690375	0.172088	9.82297	-0.780937	-0.67264	0.0172237	-0.00161315	-0.0195935	-0.960449	0.497803	0.0983887	0.606257	-0.498991	-0.516346	-0.341829	9.55898	-2.55789	-0.307521	0.0154977	5.50111e-05	0.00557866	-0.881592	0.651367	-0.102295	0.571739	-0.501635	-0.532833	-0.370898	9.71837	-1.77847	-0.700608	0.0468557	-0.00407346	-0.00276741	-0.953125	0.633789	-0.0446777	
39	-0.268596	0.166758	0.649418	0.691595	5.98384	7.98022	0.99753	-0.00652904	-0.022811	0.0208781	-0.806396	-0.505371	-0.134033	-0.597158	-0.00733945	0.567684	0.566642	6.76136	6.46711	3.58386	0.00181514	0.0138481	0.00303256	-0.648682	-0.409424	-0.477783	0.896209	0.361638	0.230093	-0.11439	-5.19683	6.0864	6.53199	-0.0115226	0.00284559	-0.00559259	0.763184	-0.432617	-0.465088	0.405516	0.779269	0.0912959	-0.469	-7.75155	5.19189	-2.33966	-3.63653e-05	-0.00730831	-0.0145403	0.976562	-0.240479	-0.0856934	-0.64237	-0.703327	-0.0819309	0.293223	-5.05138	8.40918	-0.028691	-0.0353369	-0.00401485	-0.0189093	0.81665	-0.593506	-0.104736	-0.995503	-0.0577135	-0.0590389	-0.046448	-2.70016	2.03455	12.7952	-0.0165109	0.016318	-0.0178692	0.650879	-0.154297	-0.757568	0.00655554	-0.706292	-0.237854	-0.666734	9.1872	2.87831	-0.990808	0.0522896	0.0214886	-0.00586178	-0.974121	0.0947266	0.177734	-0.684066	0.0330946	0.728649	-0.00532324	9.68932	-0.541161	-0.590965	0.0167952	0.016871	-0.023844	-0.953125	0.48291	0.10498	-0.661825	0.235748	0.690563	0.171852	9.76615	-0.667668	-0.675955	0.00556957	-0.00383392	-0.023409	-0.960449	0.493408	0.0917969	0.606436	-0.498993	-0.516288	-0.341597	9.45687	-2.58278	-0.231759	0.017103	0.00583222	0.012043	-0.88208	0.657959	-0.0957031	0.571417	-0.501915	-0.532922	-0.370888	9.69933	-1.92788	-0.692899	-0.00145996	-0.00666291	-0.00713257	-0.946289	0.633789	-0.0400391	
40	-0.269375	0.166675	0.649433	0.691298	5.70217	8.05462	0.987408	0.0146474	0.0101338	0.0268642	-0.799805	-0.507324	-0.13623	-0.597374	-0.00687091	0.567932	0.566172	6.65259	6.39507	3.63043	-0.0048256	-0.00404346	0.00557028	-0.648438	-0.415771	-0.4729	0.896247	0.361299	0.230217	-0.114907	-5.36216	6.13103	6.51187	0.0253189	-0.0022699	-0.0344286	0.765137	-0.43042	-0.472168	0.406574	0.778656	0.091091	-0.469143	-7.98123	5.43141	-2.3951	-0.000524733	-0.0156399	0.00391898	0.981445	-0.249268	-0.0854492	-0.642867	-0.702817	-0.0822741	0.293258	-5.17956	8.43202	-0.106079	-0.0550652	0.00387819	-0.0130287	0.814697	-0.597656	-0.118408	-0.995503	-0.0576978	-0.0593609	-0.0460535	-2.70817	2.24427	12.9383	-0.0123306	0.0378438	-0.0300174	0.648926	-0.160645	-0.763672	0.00782942	-0.705283	-0.238469	-0.667568	9.18178	3.0322	-1.12006	0.0558157	0.0532739	-0.00650037	-0.971924	0.0949707	0.175537	-0.683852	0.032248	0.728881	-0.00627619	9.74513	-0.510039	-0.703478	0.0611013	-0.00380352	-0.0130793	-0.955078	0.478516	0.107422	-0.661914	0.235164	0.690791	0.171396	9.82541	-0.781818	-0.668641	0.0568865	0.00343568	-0.025242	-0.962891	0.497803	0.0939941	0.606877	-0.498407	-0.516786	-0.340916	9.53542	-2.56416	-0.295597	0.0634305	0.0115204	-0.000509619	-0.884277	0.657959	-0.102539	0.572281	-0.500834	-0.533757	-0.369816	9.70925	-1.80852	-0.671567	0.0916899	0.000332143	-0.00351389	-0.957275	0.62915	-0.0490723	
41	-0.26987	0.167044	0.649167	0.691266	5.84164	7.87551	1.08708	-0.00720806	0.0104921	0.0173547	-0.804443	-0.498779	-0.134033	-0.597641	-0.00674697	0.568135	0.565688	6.71636	6.53456	3.63282	0.0053271	0.013009	0.00606904	-0.655273	-0.409424	-0.480225	0.896083	0.361393	0.230445	-0.115439	-5.19576	6.31165	6.6344	-0.0038502	0.0075063	-0.0208659	0.767334	-0.43042	-0.465332	0.406864	0.778355	0.0909423	-0.469421	-7.81132	5.33549	-2.32174	-0.03952	-0.00733841	0.0167573	0.979248	-0.249023	-0.0942383	-0.643088	-0.702401	-0.0820522	0.293835	-5.00387	8.46927	0.15853	0.0184016	-0.012381	-0.0223638	0.818848	-0.593262	-0.111572	-0.995556	-0.0566264	-0.059634	-0.045895	-2.7111	1.86991	12.9492	-0.0102967	0.0167735	-0.0334865	0.644531	-0.156494	-0.759521	0.00807751	-0.705243	-0.238555	-0.667577	9.2245	2.93692	-1.02291	0.0129172	-0.00610442	-0.0166942	-0.976318	0.0927734	0.177734	-0.683854	0.0317784	0.728896	-0.00660713	9.73031	-0.443345	-0.570312	0.00518704	0.019547	-0.0260469	-0.950684	0.478516	0.105225	-0.662	0.234805	0.690898	0.171122	9.76827	-0.624619	-0.577661	0.00383177	-0.00236782	-0.0218891	-0.965332	0.500244	0.0961914	0.607488	-0.497665	-0.517362	-0.340037	9.49105	-2.39087	-0.362543	0.0465561	-0.00886457	0.00583048	-0.881836	0.655762	-0.104736	0.572678	-0.500205	-0.534315	-0.369244	9.72674	-1.70837	-0.800158	0.0218136	-0.00274344	-0.0108645	-0.94873	0.635986	-0.0424805	
42	-0.269832	0.167395	0.649257	0.691111	5.7311	7.98454	1.02916	0.00357527	-0.03257	0.0179665	-0.804443	-0.500977	-0.13623	-0.597663	-0.00638344	0.568306	0.565496	6.62585	6.37844	3.54908	0.00242377	-0.00190729	-0.0097058	-0.651123	-0.407227	-0.484863	0.896447	0.360566	0.230312	-0.115456	-5.28154	6.09561	6.59615	-0.0169464	-0.00988786	-0.000452697	0.763184	-0.432617	-0.467529	0.40672	0.778125	0.0906468	-0.469982	-7.84912	5.42984	-2.09416	0.0199691	-0.0189291	-0.00719669	0.981445	-0.249023	-0.092041	-0.642989	-0.702352	-0.0823175	0.294094	-5.07898	8.3774	-0.0697971	-0.00339036	-0.0062522	-0.0261287	0.818848	-0.593262	-0.109375	-0.995517	-0.0569917	-0.0602516	-0.045476	-2.6553	1.9921	12.877	0.0183885	0.0301858	-0.0246952	0.648682	-0.156494	-0.757324	0.00822965	-0.705817	-0.239152	-0.666754	9.28051	3.09997	-1.01074	0.0220584	-0.00819766	-0.0157649	-0.976562	0.0991211	0.17334	-0.683478	0.0314913	0.729259	-0.00688331	9.74107	-0.434961	-0.674403	0.00881435	-0.0113085	-0.011332	-0.953125	0.48291	0.107422	-0.661953	0.23449	0.691102	0.170912	9.79495	-0.737515	-0.608792	0.0203183	0.00318361	-0.0231353	-0.964844	0.48877	0.0895996	0.607397	-0.497805	-0.517479	-0.339816	9.54109	-2.47824	-0.318231	0.000648208	0.0112165	0.00579932	-0.884033	0.655762	-0.100342	0.57275	-0.499984	-0.534421	-0.369281	9.69098	-1.84911	-0.650213	0.0146376	0.0102839	-0.0100521	-0.959961	0.638184	-0.0424805	
43	-0.270074	0.167936	0.649344	0.690804	5.62926	7.88661	0.983696	0.00596299	-0.0124211	0.0173436	-0.806641	-0.498779	-0.13623	-0.597579	-0.00564608	0.568497	0.565401	6.72252	6.47748	3.54243	-0.031328	-0.00432687	0.00864006	-0.650879	-0.409424	-0.484863	0.896582	0.359893	0.230682	-0.115776	-5.20026	6.06464	6.51325	-0.0373776	0.00327256	-0.0227645	0.765137	-0.426025	-0.465332	0.406795	0.778032	0.0907028	-0.470061	-7.87659	5.22672	-2.56787	0.0105345	-0.0095304	-0.000653419	0.985596	-0.244629	-0.0942383	-0.642845	-0.702367	-0.0820995	0.294433	-5.06557	8.29165	-0.0180172	0.0156323	-0.0106323	-0.00411047	0.818848	-0.591309	-0.107178	-0.995561	-0.0561495	-0.060326	-0.0454548	-2.61675	2.11698	13.0838	-0.0389303	0.0245685	-0.0238568	0.648682	-0.1521	-0.766113	0.00818805	-0.705624	-0.238629	-0.667146	9.22863	2.99962	-1.13373	-0.00427914	0.0371625	-0.00513393	-0.974121	0.0947266	0.175537	-0.683396	0.0318969	0.729323	-0.0063531	9.69845	-0.501053	-0.576716	-0.0319633	0.00846507	-0.0223548	-0.953125	0.48291	0.109619	-0.661945	0.23437	0.691146	0.170931	9.76036	-0.715105	-0.656351	0.00583805	0.000798572	-0.0254725	-0.964844	0.490967	0.0964355	0.607686	-0.497616	-0.517334	-0.339796	9.49876	-2.47235	-0.248515	0.0106731	0.0245395	0.00733654	-0.877441	0.653809	-0.104736	0.573094	-0.499545	-0.53465	-0.36901	9.67141	-1.7965	-0.643714	0.039463	0.011077	-0.00451425	-0.94873	0.635986	-0.0493164	
44	-0.269275	0.16894	0.649397	0.690821	5.78738	8.02231	0.962641	-0.0147237	-0.050293	0.00277748	-0.804443	-0.498779	-0.13208	-0.597281	-0.00535657	0.568575	0.565641	6.80501	6.45735	3.55695	-0.00677087	0.00158821	-0.039451	-0.650879	-0.409424	-0.475342	0.896735	0.359276	0.230746	-0.116374	-5.24888	6.06173	6.58447	-0.00836657	-0.00771796	-0.0358276	0.769531	-0.424072	-0.472168	0.406525	0.777913	0.0903353	-0.470562	-7.8622	5.32782	-2.32895	0.00148877	-0.0109887	0.0049557	0.981445	-0.249023	-0.092041	-0.642699	-0.702304	-0.0817712	0.294993	-5.03596	8.46909	0.18648	0.00188316	-0.0191142	-0.0323702	0.819092	-0.595703	-0.107178	-0.995549	-0.0563854	-0.0608302	-0.044742	-2.7388	1.9649	12.7139	0.0336499	0.0214199	-0.0493681	0.650879	-0.154297	-0.759521	0.00770659	-0.706306	-0.238259	-0.666562	9.25878	2.99503	-1.03277	-0.0147208	-0.0311719	-0.0121059	-0.969727	0.0947266	0.19043	-0.683219	0.0317569	0.729493	-0.00662957	9.7314	-0.459675	-0.632286	0.0332799	0.00487944	-0.0110809	-0.950684	0.480713	0.107422	-0.661972	0.234027	0.691309	0.170634	9.80921	-0.650567	-0.566609	0.0213365	-0.000784636	-0.0220158	-0.957764	0.48877	0.092041	0.60782	-0.497529	-0.517482	-0.339459	9.54356	-2.45702	-0.234067	0.014362	-0.00236817	0.00786144	-0.884033	0.655762	-0.102539	0.573221	-0.499345	-0.534813	-0.368847	9.75293	-1.78004	-0.707711	-0.00138082	0.00468197	-0.00755176	-0.952881	0.629395	-0.0490723	
45	-0.26904	0.169466	0.648939	0.691214	5.72971	7.97804	0.892921	-0.0331247	-0.00848237	0.00130773	-0.809082	-0.494385	-0.13208	-0.597009	-0.0050374	0.568489	0.566017	6.64026	6.46375	3.57454	-0.0329885	0.00287513	-0.020676	-0.650879	-0.409424	-0.480225	0.896387	0.359945	0.230524	-0.117424	-5.18329	6.03208	6.56255	0.0736907	-0.0157732	-0.0297325	0.765381	-0.43042	-0.465332	0.405342	0.778306	0.0894773	-0.471096	-7.76852	5.32737	-2.16542	0.10883	-0.00982	-0.0105466	0.981445	-0.251465	-0.0854492	-0.642228	-0.702602	-0.0814117	0.295408	-5.06936	8.48722	0.0638708	0.00811057	-0.00985205	-0.00701818	0.814453	-0.593262	-0.114014	-0.995538	-0.0571003	-0.0610341	-0.0437938	-2.70377	1.90686	12.8677	0.0362617	0.0253265	-0.0452254	0.650879	-0.1521	-0.755371	0.0071075	-0.706626	-0.238088	-0.666291	9.17932	3.0842	-1.09229	-0.000214246	0.00740471	-0.0181767	-0.976318	0.0969238	0.17749	-0.683111	0.0319179	0.729588	-0.00649769	9.74287	-0.396847	-0.602569	-0.0358193	0.0140457	-0.0204526	-0.957275	0.480469	0.114502	-0.661806	0.234242	0.691331	0.170898	9.77031	-0.643008	-0.598012	-0.00781037	-0.00129635	-0.0215587	-0.960449	0.495605	0.0917969	0.607715	-0.497591	-0.517362	-0.339738	9.53986	-2.36865	-0.361296	-0.00502483	0.0257802	-0.00512003	-0.879639	0.657959	-0.104736	0.573004	-0.499479	-0.534875	-0.368912	9.68661	-1.7503	-0.646692	-0.00901502	-0.00348912	-0.00598251	-0.950684	0.631592	-0.0446777	
46	-0.268829	0.169748	0.648589	0.691556	5.75043	7.85469	1.01685	-0.0131053	-0.000392285	0.00147711	-0.804688	-0.494385	-0.129883	-0.596634	-0.00498631	0.568527	0.566375	6.72491	6.43987	3.47171	-0.00577918	0.00749885	-0.0312671	-0.652832	-0.415771	-0.477539	0.89586	0.361203	0.230198	-0.118223	-5.12598	6.08106	6.66746	0.0484853	-0.00644924	-0.0051493	0.769531	-0.428467	-0.465332	0.404708	0.778613	0.0890712	-0.47121	-7.69696	5.34499	-2.29244	0.0198776	0.00101491	0.00538296	0.983643	-0.251221	-0.092041	-0.64223	-0.702529	-0.081184	0.295639	-5.06544	8.48085	-0.112284	0.00960266	-0.0118631	-0.0154403	0.821045	-0.593506	-0.104736	-0.995557	-0.0571688	-0.061062	-0.0432264	-2.59216	2.07657	12.8428	-0.0101109	0.00295694	-0.0320135	0.650879	-0.156494	-0.757324	0.00610772	-0.707369	-0.237588	-0.665691	9.24578	2.98397	-0.978219	-0.000713637	-0.0376196	-0.0261707	-0.976074	0.0905762	0.184082	-0.683139	0.0324333	0.729543	-0.00595858	9.69782	-0.522401	-0.732431	-0.0115567	0.0203979	-0.0104342	-0.955078	0.480469	0.112061	-0.661612	0.234312	0.691392	0.171301	9.80358	-0.717688	-0.692091	-0.0117654	-0.00147127	-0.0203967	-0.955322	0.486572	0.092041	0.607423	-0.497963	-0.516984	-0.34029	9.47821	-2.42699	-0.372864	-0.0362977	0.0179946	0.00137847	-0.88208	0.657959	-0.100342	0.572848	-0.499649	-0.534887	-0.368905	9.69808	-1.77422	-0.778297	-0.0109248	0.00325287	-0.0023947	-0.955322	0.631592	-0.046875	
47	-0.26871	0.16992	0.648648	0.691504	5.59679	7.86265	0.990537	0.00156352	-0.0197625	0.00121551	-0.804688	-0.496582	-0.13623	-0.596498	-0.0048012	0.56858	0.566466	6.65086	6.46772	3.55957	-0.0184895	-0.00267802	-0.0197605	-0.65332	-0.405029	-0.475586	0.895949	0.361108	0.230001	-0.118222	-5.19659	6.11515	6.67359	-0.00418957	-0.012775	0.00387958	0.765137	-0.428223	-0.465332	0.404504	0.77863	0.0887837	-0.471412	-7.83514	5.4285	-2.24333	0.0275049	-0.0148624	0.004678	0.981201	-0.244629	-0.0964355	-0.642057	-0.702597	-0.0809538	0.295916	-4.99736	8.38155	-0.0138925	0.0211809	-0.018765	-0.0162648	0.81665	-0.593262	-0.116211	-0.995558	-0.0572386	-0.061049	-0.0431293	-2.61842	1.96824	12.9734	0.00891088	0.0121115	-0.0224729	0.657227	-0.149902	-0.757568	0.00579994	-0.707748	-0.237337	-0.66538	9.19749	3.07961	-0.990152	-0.0084306	-0.0314334	-0.00987852	-0.976318	0.0947266	0.186279	-0.683043	0.0326613	0.729625	-0.00580889	9.70359	-0.587935	-0.699162	-0.0156139	0.00616121	-0.0114977	-0.950928	0.48291	0.109619	-0.66161	0.234442	0.691307	0.171475	9.77087	-0.696232	-0.657146	-0.0126556	0.0102763	-0.0196322	-0.964844	0.48877	0.0964355	0.607222	-0.498293	-0.516796	-0.340451	9.4562	-2.48213	-0.356931	-0.0321982	0.00945185	0.0098059	-0.884033	0.653564	-0.104736	0.57263	-0.499911	-0.53471	-0.369147	9.66446	-1.75058	-0.770104	-0.0336705	0.00641713	-0.00310476	-0.953125	0.633789	-0.046875	
48	-0.268119	0.170372	0.64887	0.691414	5.84746	7.97724	0.947377	-0.00263866	-0.0290439	-0.0119449	-0.806641	-0.498779	-0.13208	-0.596275	-0.00465729	0.568837	0.566444	6.75687	6.45021	3.60774	0.00931196	0.00623509	-0.018822	-0.655273	-0.40918	-0.470703	0.896439	0.359749	0.230206	-0.118249	-5.15038	6.07794	6.61108	-0.0544134	-0.00415292	-0.0179642	0.765137	-0.424072	-0.463135	0.405333	0.77825	0.0890719	-0.471274	-7.81012	5.2668	-2.48491	-0.0247866	0.0124209	0.0101553	0.983643	-0.249023	-0.0898438	-0.64206	-0.702627	-0.0806767	0.295914	-5.06615	8.42161	0.0122453	-0.0162522	0.00489238	-0.00557306	0.81665	-0.593262	-0.109375	-0.99556	-0.0573889	-0.0610867	-0.0428468	-2.73795	1.92896	12.7991	-0.00411751	0.012976	-0.0217019	0.648682	-0.156494	-0.761719	0.00539852	-0.708173	-0.237038	-0.665038	9.23762	2.90841	-1.06806	-0.00494026	-0.00983881	-0.0149634	-0.971924	0.0947266	0.192627	-0.683111	0.033082	0.729547	-0.0051294	9.74258	-0.494283	-0.703378	-0.0231096	0.0309253	-0.0243244	-0.955078	0.478516	0.109863	-0.661523	0.234999	0.691	0.172284	9.79916	-0.740333	-0.622755	-0.0321709	0.0141467	-0.0240796	-0.962646	0.493408	0.0986328	0.606564	-0.499249	-0.516534	-0.340622	9.56216	-2.52151	-0.3071	-0.042445	-0.00444233	0.01133	-0.879395	0.651367	-0.0979004	0.572029	-0.500651	-0.534172	-0.369854	9.73724	-1.77248	-0.586127	-0.0553978	0.00769039	-0.00236124	-0.955078	0.626953	-0.0446777	
49	-0.267886	0.170089	0.649372	0.691103	5.8331	7.96422	0.916262	0.0363358	-0.00354492	-0.00858218	-0.804688	-0.496582	-0.129883	-0.596147	-0.00476681	0.569607	0.565804	6.75132	6.40102	3.58057	0.0329624	-0.00552838	-0.00713249	-0.65332	-0.405029	-0.473145	0.89647	0.359931	0.229823	-0.118202	-5.2774	6.10549	6.77525	0.0195089	-0.00437179	0.0101443	0.767334	-0.428223	-0.469727	0.404807	0.778703	0.0886171	-0.471063	-7.84605	5.43009	-2.19897	0.0324794	0.011954	0.00987437	0.979004	-0.244873	-0.0898438	-0.64282	-0.702062	-0.0806464	0.295614	-5.12377	8.47661	0.0164399	-0.0277099	0.000459653	-0.00259024	0.819092	-0.599854	-0.111572	-0.995588	-0.0568902	-0.0609085	-0.0431143	-2.72649	2.12958	12.9506	-0.0170727	0.000830025	-0.00389803	0.650635	-0.149902	-0.757568	0.00512454	-0.708721	-0.236847	-0.664524	9.24844	2.94266	-1.17665	0.015507	-0.0110735	-0.0101547	-0.967773	0.0969238	0.186035	-0.683186	0.0329727	0.729482	-0.00499619	9.7532	-0.524815	-0.587502	0.0303574	0.0136371	-0.0216343	-0.955078	0.478516	0.107422	-0.661506	0.234971	0.690964	0.172532	9.79441	-0.675911	-0.625331	0.00603673	0.00639255	-0.0294107	-0.957764	0.486572	0.092041	0.606398	-0.499456	-0.516396	-0.340822	9.54816	-2.53745	-0.252617	-0.00558976	0.0162671	-0.00152164	-0.879639	0.657959	-0.102539	0.571813	-0.50082	-0.534142	-0.370001	9.70738	-1.764	-0.681477	0.0109897	-0.000645948	-0.00724309	-0.946289	0.631592	-0.0400391	
50	-0.268067	0.17006	0.649951	0.690495	5.83206	8.10748	0.948068	0.0261068	-0.00863574	0.00220689	-0.80249	-0.496582	-0.125488	-0.596185	-0.00475588	0.570189	0.565177	6.78376	6.38367	3.52443	0.0146661	0.010013	0.00270845	-0.655518	-0.405029	-0.475586	0.896566	0.359729	0.229852	-0.118033	-5.20301	6.16856	6.71492	-0.0173125	0.0073442	0.00741919	0.765137	-0.428223	-0.472168	0.406072	0.778298	0.0887686	-0.470614	-8.02573	5.34871	-2.42198	-0.0235395	0.00243019	0.0241612	0.981445	-0.251221	-0.092041	-0.643099	-0.701888	-0.0806133	0.295428	-5.07931	8.52648	0.117381	-0.0388559	0.00182899	-0.000793054	0.819092	-0.595459	-0.116211	-0.995582	-0.056931	-0.0609039	-0.0432041	-2.62404	2.04361	12.9731	0.00657647	0.0137111	-0.00756347	0.650879	-0.154297	-0.755371	0.00541813	-0.70896	-0.237343	-0.664089	9.08807	2.96443	-0.942866	0.0426236	-0.0358368	-0.0195891	-0.972168	0.0969238	0.186035	-0.683396	0.0325742	0.729303	-0.00509332	9.68357	-0.416569	-0.667323	0.0111549	0.0214836	-0.0249457	-0.959473	0.480713	0.107422	-0.661339	0.234938	0.691094	0.172698	9.80452	-0.753344	-0.735846	0.00427333	-0.00236852	-0.0258028	-0.969238	0.486328	0.0942383	0.606499	-0.499201	-0.516771	-0.340448	9.52133	-2.58969	-0.285868	0.0247763	-0.00239406	-0.00242864	-0.88208	0.662354	-0.0957031	0.571805	-0.500638	-0.534448	-0.36982	9.68341	-1.82823	-0.689562	0.0322857	-0.00140145	-0.0123184	-0.950928	0.635986	-0.0424805	
51	-0.268317	0.170066	0.649975	0.690374	5.8344	7.86776	0.972054	0.0105734	0.00162354	0.00717865	-0.809326	-0.492188	-0.129883	-0.596112	-0.00501569	0.570915	0.564519	6.72776	6.45356	3.62982	0.0294042	-0.00434116	-0.016808	-0.653076	-0.411377	-0.4729	0.89715	0.357966	0.230319	-0.118048	-5.19264	5.80654	6.50698	-0.0249182	0.0070717	-0.0171458	0.767334	-0.421875	-0.472412	0.406379	0.778263	0.0886544	-0.470428	-7.70971	5.30165	-2.22458	-0.00749889	0.00656109	0.00737308	0.979248	-0.251465	-0.0898438	-0.643555	-0.701505	-0.0808468	0.295282	-4.96876	8.39118	0.0342354	0.00152613	0.0160354	-0.0117319	0.819092	-0.595459	-0.116211	-0.995601	-0.0559162	-0.0616227	-0.0430669	-2.57961	1.82284	12.9861	0.0108857	0.0355879	-0.0139276	0.648438	-0.147705	-0.757568	0.0057205	-0.708476	-0.237688	-0.66448	9.38949	3.02564	-1.07193	-0.0172383	0.109509	-0.0123945	-0.969971	0.0947266	0.188232	-0.683197	0.0319286	0.729512	-0.00581369	9.73345	-0.511856	-0.551479	0.0379074	0.000745252	-0.0151279	-0.959473	0.480713	0.105225	-0.661442	0.234465	0.691237	0.172375	9.8239	-0.644505	-0.571379	0.0273518	0.0048515	-0.0237808	-0.960449	0.495605	0.0939941	0.607026	-0.498479	-0.517113	-0.340048	9.55252	-2.45169	-0.310015	0.0429801	0.0100419	-0.00404997	-0.879639	0.655762	-0.0979004	0.572169	-0.500071	-0.534968	-0.36927	9.77866	-1.73712	-0.629029	0.0418522	0.000658197	-0.00922594	-0.953125	0.635986	-0.0424805	
52	-0.268657	0.170117	0.650121	0.690091	5.79032	7.95876	0.980871	0.00443777	0.00590939	0.00840843	-0.806885	-0.496582	-0.129883	-0.596135	-0.00491886	0.571101	0.564307	6.71144	6.45777	3.49471	-0.00363733	0.0139683	-0.00646563	-0.653076	-0.411377	-0.475342	0.897145	0.357969	0.230413	-0.117898	-5.26987	6.0909	6.59488	-0.0128662	0.014353	-0.0013171	0.767334	-0.424072	-0.463135	0.406475	0.778295	0.0887972	-0.470266	-7.80853	5.46675	-2.27238	-0.00962142	0.0199623	0.00125489	0.979004	-0.244873	-0.0876465	-0.643157	-0.701874	-0.0809542	0.295241	-4.99257	8.4118	0.101147	0.00483534	0.0242497	-0.0208772	0.821289	-0.595459	-0.114014	-0.995582	-0.0557812	-0.0620057	-0.0431231	-2.67544	1.99173	12.7344	-0.0174665	0.0248192	-0.0150253	0.657227	-0.154297	-0.757568	0.00603665	-0.708089	-0.237914	-0.664809	9.2003	3.05127	-1.22331	0.0282789	0.00492383	-0.0276134	-0.976074	0.0905762	0.182129	-0.682888	0.0317097	0.729809	-0.0061038	9.76001	-0.439165	-0.59725	0.00870845	0.00301168	-0.0121426	-0.95752	0.484863	0.112061	-0.661316	0.234366	0.691413	0.172283	9.7714	-0.644712	-0.591087	0.00816751	-0.00658809	-0.0228685	-0.967285	0.490967	0.0895996	0.607198	-0.498201	-0.517251	-0.339937	9.52967	-2.50014	-0.269823	0.0324733	0.0147621	-0.00494789	-0.875244	0.656006	-0.100098	0.572532	-0.499485	-0.535489	-0.368747	9.70423	-1.70109	-0.773703	0.0378877	-0.00104301	-0.00843347	-0.950684	0.631592	-0.046875	
53	-0.268168	0.170523	0.650033	0.690265	5.80714	7.85703	0.927204	-0.0118805	-0.0376519	-0.0111017	-0.804932	-0.492188	-0.134277	-0.59587	-0.00472931	0.571199	0.56449	6.81145	6.42448	3.54259	-0.0181572	0.0038871	-0.0309742	-0.655273	-0.411377	-0.475342	0.897316	0.357485	0.230545	-0.117805	-5.19004	6.0023	6.52802	-0.0393039	0.00798808	-0.00547394	0.769531	-0.424072	-0.469971	0.40637	0.778313	0.0889452	-0.470298	-7.79375	5.29287	-2.31795	0.00188055	0.00442049	-0.00617388	0.981445	-0.251465	-0.0898438	-0.643708	-0.70136	-0.0810925	0.295228	-5.09251	8.33738	0.111789	-0.0216378	0.00359562	-0.00993954	0.819092	-0.597656	-0.111572	-0.995562	-0.0558446	-0.0621119	-0.0433589	-2.78816	2.05338	12.7583	0.0139141	0.0146954	-0.00999145	0.652832	-0.1521	-0.753174	0.00603661	-0.707774	-0.237736	-0.665207	9.1616	3.03987	-1.04854	-0.0235329	0.0262056	-0.00889994	-0.971924	0.0947266	0.186279	-0.682717	0.0319206	0.729963	-0.00569982	9.69681	-0.532379	-0.65586	-0.010456	0.000718516	-0.0218764	-0.957275	0.478516	0.112061	-0.661145	0.234243	0.691664	0.172099	9.77414	-0.722667	-0.663268	0.0237256	-0.00623634	-0.0213357	-0.962646	0.493408	0.0939941	0.607194	-0.498157	-0.517455	-0.339698	9.50091	-2.47391	-0.294906	0.00938118	-0.00820959	0.00843988	-0.881592	0.651367	-0.095459	0.572367	-0.499556	-0.535553	-0.368813	9.69958	-1.71084	-0.725575	-0.0082011	-0.0038822	-0.011527	-0.955322	0.633789	-0.046875	
54	-0.26821	0.170006	0.650042	0.690367	5.76674	7.98147	0.934392	0.00595877	0.0305919	-0.016534	-0.809082	-0.494629	-0.123535	-0.5959	-0.0048251	0.571156	0.5645	6.64967	6.40424	3.51701	-0.0089154	0.0132431	-0.0170446	-0.650879	-0.409424	-0.475342	0.897227	0.357736	0.230498	-0.117812	-5.33194	5.89191	6.44228	0.0528597	0.000993362	0.00160865	0.767334	-0.424072	-0.472168	0.40693	0.778146	0.0890821	-0.470065	-7.86663	5.22697	-2.37472	-0.0227317	0.0100983	0.0229837	0.981445	-0.251221	-0.0942383	-0.64348	-0.701596	-0.0810407	0.295177	-5.06107	8.52183	-0.0402899	-0.00991865	0.0126556	-0.00404106	0.814941	-0.599854	-0.114014	-0.99557	-0.0562324	-0.0618477	-0.0430444	-2.60654	2.10457	12.8543	0.0121668	0.00540229	-0.0247191	0.655029	-0.1521	-0.755371	0.00589216	-0.707583	-0.237532	-0.665485	9.21626	2.97172	-1.17822	0.025276	0.0364951	-0.0181808	-0.974121	0.0947266	0.184082	-0.682301	0.0315663	0.730365	-0.0059677	9.77267	-0.379164	-0.610287	0.0150466	-0.00515403	-0.0189316	-0.954834	0.476318	0.102783	-0.660953	0.234112	0.691923	0.171972	9.80519	-0.669276	-0.6365	0.00753243	-0.0109734	-0.0230176	-0.964844	0.48877	0.0917969	0.607024	-0.498192	-0.517791	-0.33944	9.55694	-2.45762	-0.424202	0.0020161	-0.00127834	-0.00430403	-0.875244	0.658203	-0.100342	0.572183	-0.499568	-0.535821	-0.368693	9.7439	-1.76131	-0.674581	0.0184248	-0.00533813	-0.0100819	-0.950439	0.627197	-0.0490723	
55	-0.268066	0.169848	0.649966	0.690533	5.69195	8.05621	0.979922	-0.0105193	0.00348799	-0.0204678	-0.804443	-0.500977	-0.129883	-0.595818	-0.00494915	0.571176	0.564566	6.74279	6.41291	3.53902	-0.00367381	0.0149402	-0.0305219	-0.653076	-0.411621	-0.477783	0.896906	0.358625	0.230239	-0.118056	-5.20766	6.07408	6.59242	0.0833204	-0.00713907	0.00239229	0.765137	-0.426025	-0.469971	0.406384	0.778376	0.0888929	-0.470192	-7.73922	5.31313	-2.19987	0.0375747	0.0102036	-0.0133005	0.979248	-0.249268	-0.092041	-0.644105	-0.701088	-0.0810752	0.295011	-5.11244	8.38693	0.0303961	-0.0625525	0.00210512	0.00599616	0.819092	-0.599854	-0.114014	-0.995571	-0.0560991	-0.0618964	-0.0431284	-2.78422	1.97589	12.8851	-0.00750247	0.018137	-0.00927261	0.648438	-0.149902	-0.761963	0.00595416	-0.707221	-0.237462	-0.665894	9.16548	3.00807	-1.06811	0.0086697	0.0557519	-0.0152919	-0.976318	0.0925293	0.184082	-0.68226	0.0317442	0.730398	-0.0056452	9.74749	-0.471912	-0.686722	-0.026343	0.0119822	-0.0233119	-0.959229	0.478516	0.107422	-0.660838	0.234016	0.692083	0.1719	9.78296	-0.724013	-0.670392	0.013657	-0.0105432	-0.0251908	-0.967285	0.493164	0.10083	0.607126	-0.498056	-0.517834	-0.339391	9.50416	-2.49266	-0.254016	0.0153008	0.00836068	0.00482536	-0.877441	0.653809	-0.104736	0.572279	-0.499303	-0.536093	-0.368507	9.69453	-1.7763	-0.689111	0.0245162	0.00172158	-0.00816755	-0.950684	0.631592	-0.046875	
56	-0.267789	0.169623	0.649802	0.690851	5.80371	7.88862	1.01522	-0.00263926	0.00543772	-0.0151308	-0.807129	-0.492188	-0.134277	-0.595552	-0.00533821	0.571399	0.564617	6.7012	6.48822	3.54607	0.00872274	0.00602718	-0.0332327	-0.650879	-0.411377	-0.470703	0.896881	0.358994	0.229829	-0.117924	-5.27274	5.98156	6.60276	-0.000811014	-0.014165	0.0197331	0.769531	-0.42627	-0.467529	0.406273	0.778609	0.0885168	-0.469974	-7.82225	5.35561	-2.22201	0.0321271	0.0048015	0.0169019	0.979248	-0.249268	-0.0854492	-0.643969	-0.701298	-0.0809909	0.294832	-5.05987	8.35744	0.0556627	0.00994768	0.00917725	0.000158116	0.821289	-0.595459	-0.109375	-0.995593	-0.0563704	-0.0614453	-0.042919	-2.62125	1.97282	12.9897	0.0168031	-0.00849659	-0.0196094	0.657227	-0.1521	-0.759766	0.00535051	-0.707177	-0.236887	-0.666151	9.25165	3.03659	-1.17197	-0.0230812	0.041837	-0.0150022	-0.971924	0.0949707	0.177734	-0.682117	0.0315069	0.730541	-0.00577719	9.7249	-0.504319	-0.642138	0.0266849	0.00834059	-0.0186249	-0.952881	0.480713	0.107422	-0.660797	0.233817	0.692204	0.171846	9.79985	-0.685566	-0.651873	0.0109122	0.00194903	-0.0245234	-0.960205	0.491211	0.0917969	0.606992	-0.498014	-0.518188	-0.339153	9.53097	-2.52238	-0.345398	0.00465874	-0.00799526	-0.0046493	-0.875	0.653809	-0.102539	0.572312	-0.49915	-0.53643	-0.368173	9.71857	-1.81025	-0.713644	0.016114	-0.00524616	-0.00604719	-0.948486	0.633789	-0.046875	
57	-0.267479	0.169502	0.649875	0.690931	5.78693	8.06993	0.985068	-0.00916052	-0.0122622	-0.0152309	-0.806641	-0.498779	-0.13208	-0.595224	-0.00525398	0.571614	0.564746	6.74958	6.38734	3.50131	-0.00477468	0.000883628	-0.0241346	-0.657227	-0.415771	-0.4729	0.897058	0.358863	0.229497	-0.117624	-5.20912	6.16618	6.65876	-0.0213397	-0.00417435	0.0107752	0.765137	-0.426025	-0.469971	0.40626	0.778771	0.0886433	-0.469693	-7.7853	5.34196	-2.44258	0.0137231	0.0171718	0.00344655	0.983643	-0.251221	-0.092041	-0.644327	-0.701166	-0.0809495	0.294375	-5.13325	8.51368	0.0214741	-0.0403128	0.012824	0.00683619	0.816895	-0.599854	-0.116211	-0.995599	-0.056389	-0.0611722	-0.0431473	-2.76007	2.11336	12.7999	-0.0192412	-0.00352728	0.00233256	0.650635	-0.1521	-0.759766	0.00561762	-0.706672	-0.236988	-0.666648	9.20128	2.98782	-0.916545	0.0168148	0.00856613	-0.0146581	-0.971924	0.0947266	0.181885	-0.681882	0.0312868	0.730769	-0.00594541	9.75039	-0.429582	-0.706534	0.0239737	-0.0010561	-0.0152145	-0.957031	0.476318	0.112061	-0.660692	0.233708	0.692322	0.171919	9.80737	-0.708378	-0.697754	0.0115745	-0.00222462	-0.0288782	-0.962646	0.490967	0.0917969	0.607151	-0.497599	-0.51855	-0.338923	9.49142	-2.46967	-0.390657	0.0245441	0.00761169	-0.00589355	-0.88623	0.651367	-0.102295	0.572491	-0.498746	-0.536821	-0.367871	9.70469	-1.71773	-0.761182	0.0190854	0.00198118	-0.0106687	-0.948486	0.633789	-0.046875	
58	-0.267543	0.168989	0.649944	0.690967	5.67991	7.83622	0.932749	0.0253291	0.0249359	-0.0148637	-0.802246	-0.498779	-0.127686	-0.594919	-0.00568653	0.571977	0.564695	6.73216	6.50647	3.50254	0.0158956	0.0014583	-0.0244302	-0.655029	-0.413574	-0.4729	0.897324	0.358629	0.229145	-0.116992	-5.23833	5.92868	6.55008	0.00642132	-0.00416876	0.0272907	0.760986	-0.426025	-0.472168	0.406294	0.778906	0.0886024	-0.469446	-7.90703	5.33964	-2.42244	0.00147334	0.0124548	0.00349159	0.979004	-0.244873	-0.0876465	-0.644365	-0.701223	-0.0806902	0.294226	-4.98291	8.42355	0.0224597	0.0111086	0.0082446	0.00180479	0.814453	-0.591064	-0.111572	-0.995625	-0.0561067	-0.0607051	-0.0435613	-2.61398	2.05223	12.956	0.000301075	4.10125e-05	-0.00430044	0.644531	-0.156494	-0.761719	0.00538577	-0.706903	-0.237088	-0.666369	9.28229	3.03967	-1.24931	0.0118861	-0.00250818	-0.0197902	-0.972168	0.0991211	0.179688	-0.681647	0.031546	0.730979	-0.00554358	9.70951	-0.577016	-0.673104	-0.0147314	0.0101194	-0.0224149	-0.952881	0.476318	0.107422	-0.660673	0.233629	0.692347	0.172	9.78702	-0.670698	-0.624331	-0.00587633	0.00645576	-0.0243413	-0.962646	0.490967	0.0917969	0.607016	-0.497617	-0.51873	-0.338863	9.55625	-2.54742	-0.323615	0.00276248	0.00358311	-0.00099586	-0.88208	0.660156	-0.10498	0.572572	-0.498549	-0.536973	-0.367792	9.69454	-1.82095	-0.682467	0.032508	0.00522508	-0.00972663	-0.952881	0.629395	-0.0446777	
59	-0.267171	0.168993	0.650552	0.690538	5.76779	8.11439	0.972339	0.0180288	-0.0309678	-0.00960944	-0.806641	-0.500977	-0.127686	-0.594734	-0.00562982	0.572132	0.564735	6.80396	6.42714	3.46796	-0.00396196	0.01203	-0.0243966	-0.655273	-0.411377	-0.4729	0.897123	0.359543	0.228584	-0.116823	-5.16895	6.29796	6.77808	0.023017	-0.00433746	0.0236792	0.760986	-0.428223	-0.465332	0.406116	0.778901	0.0884362	-0.469642	-7.79885	5.43088	-2.30081	-0.00350236	5.5879e-05	0.00864495	0.983643	-0.246826	-0.0898438	-0.644682	-0.70099	-0.0803963	0.294169	-5.04652	8.32162	0.140944	-0.0069451	-0.0113624	-0.00181082	0.816895	-0.597656	-0.116211	-0.995665	-0.055767	-0.0601953	-0.0438034	-2.70459	2.11016	12.7788	-0.00560723	-0.00729771	-0.00961714	0.653076	-0.158447	-0.755127	0.00510539	-0.706711	-0.236908	-0.66664	9.22354	3.0238	-0.925817	-0.00365458	-0.00531001	-0.0221656	-0.974121	0.0927734	0.179932	-0.681526	0.0310872	0.73111	-0.00588445	9.70361	-0.410131	-0.747224	0.0383283	0.00530025	-0.0185193	-0.959229	0.474121	0.109863	-0.660702	0.233301	0.692463	0.17187	9.79255	-0.65759	-0.712493	0.0259	0.00307908	-0.0256363	-0.962646	0.490967	0.0964355	0.607131	-0.497337	-0.519006	-0.338645	9.51007	-2.45912	-0.412194	0.0100716	-0.00532801	-0.00371684	-0.881836	0.653564	-0.100098	0.572497	-0.49843	-0.537267	-0.367638	9.72031	-1.7465	-0.798498	-0.000111289	-0.00528953	-0.0100532	-0.955078	0.629395	-0.0422363	
60	-0.266739	0.168713	0.650581	0.690747	5.6719	7.99445	0.88346	-0.0057976	-0.00377742	-0.0293767	-0.802002	-0.505371	-0.129639	-0.594549	-0.00589405	0.572321	0.564735	6.68329	6.49818	3.4721	-0.00122873	0.00810731	-0.0296146	-0.650879	-0.409424	-0.477783	0.897301	0.359114	0.228589	-0.116773	-5.21225	5.85922	6.41812	0.00878746	0.0027196	-0.00930105	0.765137	-0.423828	-0.465332	0.406428	0.779004	0.0881928	-0.469246	-7.84043	5.2363	-2.5179	0.0375466	0.00296132	0.0129459	0.986084	-0.251465	-0.0854492	-0.644925	-0.700979	-0.080134	0.293733	-5.05479	8.58444	0.00859645	-0.0357475	0.0114667	0.0138189	0.816895	-0.595459	-0.111572	-0.995692	-0.0557208	-0.0599684	-0.0435527	-2.63635	2.00384	13.0355	-0.00453668	0.00888611	-0.021779	0.644531	-0.156494	-0.757324	0.00450319	-0.707329	-0.237113	-0.665915	9.22467	3.10032	-1.02289	0.0122327	-0.0155969	-0.0333224	-0.976318	0.0947266	0.184082	-0.681285	0.0310036	0.731337	-0.00597093	9.74637	-0.446596	-0.633995	0.00506514	0.00491175	-0.0165922	-0.955078	0.478516	0.105225	-0.660677	0.233072	0.692591	0.171759	9.784	-0.663542	-0.588486	0.0105252	0.00185959	-0.0234635	-0.962402	0.486572	0.0986328	0.607134	-0.497146	-0.519228	-0.338579	9.52965	-2.45766	-0.302108	0.0199977	0.0121491	-0.00259365	-0.881592	0.651367	-0.104736	0.572405	-0.498442	-0.537363	-0.367627	9.73214	-1.74673	-0.682087	0.00237177	-0.00333564	-0.00948894	-0.946289	0.631592	-0.0424805	
61	-0.266473	0.168549	0.65067	0.690805	5.82059	7.94527	0.975434	0.00839093	0.00651069	-0.0116378	-0.806885	-0.498779	-0.127686	-0.594325	-0.00617709	0.572411	0.564876	6.76059	6.56622	3.45024	-0.011353	0.0115779	-0.0335096	-0.652832	-0.413574	-0.4729	0.896859	0.360571	0.227983	-0.116857	-5.14446	6.27109	6.75783	0.0602448	-0.0019885	0.0141053	0.763184	-0.434814	-0.469727	0.405599	0.779373	0.0878312	-0.469418	-7.69199	5.38622	-2.08183	0.0802609	0.00169282	-0.0101341	0.981445	-0.249268	-0.0876465	-0.6448	-0.701112	-0.0797362	0.293799	-4.9532	8.3547	0.118296	0.0542956	-0.00351266	-0.00765162	0.814697	-0.597656	-0.114014	-0.99571	-0.0558792	-0.0595583	-0.0434874	-2.69541	1.96327	12.6866	0.0399203	-0.0132352	-0.0228158	0.650879	-0.1521	-0.757568	0.00399209	-0.70787	-0.237209	-0.665309	9.2051	3.05078	-1.13586	0.013071	-0.0382915	-0.0284177	-0.976318	0.0925293	0.186279	-0.681358	0.0311391	0.731265	-0.00579917	9.7453	-0.465603	-0.604112	-0.0147153	0.0240516	-0.0175374	-0.950684	0.478516	0.112061	-0.660502	0.233358	0.692553	0.172198	9.8007	-0.662632	-0.720386	-0.0167813	0.000557486	-0.0245745	-0.9646	0.484131	0.0964355	0.607204	-0.497024	-0.51926	-0.338586	9.49831	-2.41524	-0.300851	0.0119261	0.015964	-0.00260358	-0.885986	0.64917	-0.100098	0.572506	-0.498199	-0.537572	-0.367492	9.69994	-1.73287	-0.691061	0.0152394	0.0011009	-0.00708911	-0.955078	0.62915	-0.046875	
62	-0.26589	0.168482	0.650723	0.690997	5.57908	8.05645	0.926404	-0.0153176	-0.0412529	-0.0199997	-0.802246	-0.498779	-0.129883	-0.594041	-0.00597752	0.572333	0.565256	6.73885	6.38801	3.47453	-0.0125436	0.00635334	-0.0270946	-0.655273	-0.411377	-0.468262	0.897027	0.36056	0.227316	-0.116907	-5.18643	6.11013	6.63428	-0.00348035	-0.0343881	0.00865564	0.760986	-0.426025	-0.467529	0.406104	0.779289	0.0878723	-0.469113	-7.82195	5.17859	-2.66042	-0.00246131	-0.00164189	0.0165286	0.974854	-0.253662	-0.0854492	-0.644968	-0.701022	-0.0791164	0.293812	-5.03061	8.50049	0.00379567	-0.028003	-0.019743	0.0145817	0.821289	-0.599854	-0.12085	-0.995723	-0.0561166	-0.0592415	-0.0433305	-2.59689	2.13537	12.8882	0.0219072	-0.0133786	-0.0251286	0.648682	-0.1521	-0.761719	0.00370543	-0.708093	-0.237378	-0.665013	9.21767	3.04978	-1.07026	0.0110041	0.00785615	-0.0228155	-0.969727	0.0905762	0.184082	-0.6812	0.0314079	0.731403	-0.00537656	9.7116	-0.469674	-0.709312	-0.00752605	-0.002726	-0.0207	-0.954834	0.476318	0.109863	-0.660421	0.233359	0.69262	0.172238	9.80989	-0.704416	-0.740883	0.00270151	-0.00279069	-0.0233953	-0.960205	0.490967	0.0939941	0.606841	-0.497253	-0.519246	-0.338921	9.53713	-2.47727	-0.328517	-0.00871458	0.00611353	-0.00452691	-0.88623	0.653564	-0.104736	0.572215	-0.498377	-0.537616	-0.36764	9.72081	-1.71952	-0.719662	-0.0109395	-0.0019233	-0.0086025	-0.946289	0.631592	-0.0446777	
63	-0.265412	0.16884	0.650824	0.690998	5.83071	7.95464	0.928885	-0.00763115	-0.0494703	-0.0107764	-0.797852	-0.503174	-0.125488	-0.594007	-0.00625785	0.572447	0.565173	6.77188	6.49669	3.49878	0.0149699	0.0206307	-0.0284833	-0.657227	-0.417969	-0.470459	0.897027	0.360636	0.227117	-0.117054	-5.07171	6.18896	6.70771	0.0133425	-0.0139347	-0.00419359	0.760986	-0.43042	-0.472168	0.405658	0.779506	0.0870539	-0.469291	-7.79506	5.47004	-2.36928	0.00689674	0.00125886	0.0248321	0.981934	-0.257812	-0.0895996	-0.645067	-0.700972	-0.0783692	0.293914	-4.9721	8.42229	-0.00438471	0.0298154	-0.0100208	0.00521639	0.814941	-0.599854	-0.116211	-0.995795	-0.0556601	-0.0586838	-0.0430216	-2.70008	2.02039	12.7502	-0.00899138	-0.0155614	-0.0326733	0.650635	-0.149902	-0.761963	0.00361923	-0.708508	-0.237666	-0.664469	9.18243	3.00625	-1.14706	0.0367237	-0.0429106	-0.0281406	-0.969971	0.0991211	0.183838	-0.681152	0.0311435	0.73146	-0.00539848	9.72639	-0.474836	-0.685057	0.00957001	0.00469352	-0.0152989	-0.957275	0.480469	0.112061	-0.660274	0.233333	0.692766	0.172247	9.78766	-0.66296	-0.620657	-0.00549851	-0.00286099	-0.0233141	-0.962402	0.48877	0.0964355	0.606712	-0.497309	-0.51929	-0.339002	9.50729	-2.47448	-0.298316	-0.00633892	0.00610243	-0.00161781	-0.883789	0.64917	-0.102295	0.57199	-0.498502	-0.537665	-0.36775	9.70411	-1.73973	-0.665126	-0.0103807	0.00216688	-0.00780275	-0.955322	0.633789	-0.0446777	
64	-0.265073	0.168603	0.651075	0.690949	5.70506	8.13965	0.955764	0.0048836	-0.00135031	-0.0209069	-0.804199	-0.505371	-0.129639	-0.593729	-0.00641802	0.572611	0.565297	6.6657	6.48776	3.48237	-0.00981242	-0.00141814	-0.0313842	-0.657227	-0.415771	-0.470459	0.896738	0.361781	0.226291	-0.117339	-5.16718	6.08159	6.51965	0.0606278	-0.0304271	0.0194705	0.756836	-0.43457	-0.467285	0.405325	0.779926	0.0863577	-0.46901	-7.74366	5.36802	-2.42127	0.0523687	0.0108774	0.0122053	0.977295	-0.253662	-0.0898438	-0.644995	-0.701103	-0.0779256	0.293878	-4.9899	8.54899	0.0808416	0.0216999	-0.0106195	0.0143895	0.81958	-0.606445	-0.116211	-0.995848	-0.0557953	-0.0579238	-0.0426347	-2.54756	1.95685	13.0587	0.0126972	-0.0098539	-0.0236741	0.646484	-0.154297	-0.759521	0.00316397	-0.70901	-0.23804	-0.663801	9.14826	3.10037	-1.0585	0.0210889	-0.015354	-0.0326142	-0.974121	0.0925293	0.19043	-0.681271	0.0311981	0.731346	-0.00537544	9.7015	-0.462665	-0.80708	-0.00914763	0.0172686	-0.0175327	-0.955078	0.478516	0.109863	-0.660168	0.233392	0.6928	0.172437	9.80612	-0.690168	-0.785419	0.0131814	0.00156319	-0.0234665	-0.959961	0.484131	0.0964355	0.606768	-0.497089	-0.519244	-0.339296	9.48776	-2.43737	-0.420296	0.0113394	0.0249849	-0.00716094	-0.884033	0.651367	-0.104736	0.572099	-0.49828	-0.537822	-0.36765	9.72099	-1.72969	-0.829362	0.0227804	0.00585208	-0.00869764	-0.948486	0.629395	-0.046875	
65	-0.264364	0.168945	0.650958	0.691247	5.69618	7.96521	0.932551	-0.0202585	-0.0340357	-0.0116515	-0.804688	-0.496582	-0.129883	-0.5935	-0.00681893	0.572697	0.565447	6.68437	6.50332	3.46923	-0.00855387	0.0186144	-0.0329639	-0.655029	-0.415771	-0.475098	0.896681	0.362294	0.225614	-0.117494	-5.09224	6.32448	6.70437	0.015078	-0.00944736	-0.0087736	0.765381	-0.432617	-0.474365	0.40489	0.780301	0.0857801	-0.468867	-7.8557	5.47436	-2.41603	0.0150773	0.0118573	0.0182564	0.981689	-0.255859	-0.0876465	-0.644819	-0.701363	-0.0774716	0.293762	-4.91964	8.5158	0.00850365	0.0194859	0.00576716	-0.000233187	0.816895	-0.597656	-0.116211	-0.995851	-0.0566415	-0.0574516	-0.0421027	-2.50463	2.08296	12.8182	0.0400046	-0.0132847	-0.0369709	0.644287	-0.149902	-0.761963	0.00283269	-0.709622	-0.238223	-0.663082	9.16384	3.01791	-1.05721	0.0210573	-0.0675892	-0.0317371	-0.971924	0.0905762	0.19043	-0.681061	0.0316186	0.731528	-0.00486993	9.68852	-0.474814	-0.692774	-0.0174125	-0.00117154	-0.0155831	-0.950684	0.478516	0.107422	-0.660258	0.233208	0.692806	0.172316	9.77562	-0.664127	-0.663672	0.012333	0.00942189	-0.0200993	-0.955566	0.48877	0.0964355	0.606615	-0.497148	-0.519566	-0.338988	9.5186	-2.50104	-0.328032	0.00309967	-0.00987848	0.0011587	-0.881836	0.653564	-0.100098	0.571989	-0.498397	-0.537685	-0.367865	9.69893	-1.77683	-0.721123	-0.0171649	0.0100661	-0.00605086	-0.955078	0.626953	-0.046875	
66	-0.264109	0.168847	0.65124	0.691103	5.66921	8.00945	0.963992	0.0204504	-0.00691242	-0.00717869	-0.799805	-0.50293	-0.131836	-0.59315	-0.00661623	0.572803	0.565708	6.70236	6.46329	3.44645	-0.0166883	-0.0128219	-0.0285611	-0.655029	-0.417969	-0.470459	0.896552	0.362736	0.225196	-0.117918	-5.07583	6.11746	6.64096	0.0401173	-0.0105842	0.00457969	0.763184	-0.43042	-0.472168	0.404289	0.780652	0.0851223	-0.468922	-7.72155	5.44308	-2.41677	0.0455889	-0.00777729	0.00885997	0.981689	-0.253662	-0.0876465	-0.64489	-0.701342	-0.0768893	0.29381	-4.9804	8.48785	0.0082806	0.0134696	-0.00787143	0.00636471	0.808105	-0.595459	-0.116211	-0.995894	-0.05631	-0.0572105	-0.0418511	-2.55365	2.11461	13.0034	-0.0105983	0.0124983	-0.0254718	0.646484	-0.154297	-0.761719	0.00276787	-0.711138	-0.23966	-0.660938	9.34574	3.14686	-1.13785	0.0352308	0.0255687	-0.0205823	-0.969482	0.0861816	0.197021	-0.68087	0.0316116	0.731705	-0.00496782	9.82544	-0.376835	-0.655506	0.0127518	0.0161051	-0.0119419	-0.957031	0.476074	0.116943	-0.660333	0.23316	0.69273	0.172398	9.84476	-0.640239	-0.588691	0.00587303	0.00928696	-0.020163	-0.962402	0.48877	0.0964355	0.606918	-0.496747	-0.519561	-0.339041	9.5679	-2.38743	-0.305911	0.0266514	0.0393366	-0.00737439	-0.879395	0.64917	-0.102295	0.572249	-0.498114	-0.537835	-0.367622	9.74314	-1.64978	-0.653607	0.0216383	0.00688643	-0.00363078	-0.950928	0.633789	-0.0446777	
67	-0.263674	0.169296	0.651632	0.690789	5.63817	8.16896	0.909511	0.00138226	-0.0416441	-0.00568447	-0.808838	-0.500977	-0.127686	-0.592877	-0.00648739	0.572999	0.565798	6.7168	6.62362	3.4115	-0.00857377	0.00283243	-0.0239561	-0.655029	-0.415771	-0.470459	0.896741	0.36233	0.224931	-0.118235	-5.15604	6.23535	6.59656	-0.0353959	-0.0170187	-0.0220921	0.760986	-0.436768	-0.471924	0.404965	0.780543	0.0848229	-0.468573	-7.81742	5.30506	-2.52176	-0.023388	0.00411139	0.0312419	0.979248	-0.251465	-0.0854492	-0.644732	-0.701482	-0.0761088	0.294025	-4.86269	8.4865	0.0847849	0.0200276	-0.0210063	0.00648202	0.812744	-0.599854	-0.116211	-0.995919	-0.0560869	-0.057146	-0.0416306	-2.59729	2.09556	12.7914	-0.0141715	0.00820067	-0.0336514	0.646484	-0.154297	-0.761719	0.00282481	-0.711817	-0.239548	-0.660246	9.12684	3.05777	-1.32585	0.0520018	-0.0572485	-0.0156388	-0.971924	0.0925293	0.201172	-0.680972	0.0316453	0.731608	-0.00500782	9.70101	-0.574616	-0.712805	0.0182022	0.0165353	-0.0155029	-0.956787	0.471924	0.114502	-0.660366	0.233053	0.692788	0.172186	9.78857	-0.689288	-0.703406	0.016744	0.00163237	-0.0172207	-0.967041	0.48877	0.0964355	0.606829	-0.496721	-0.519621	-0.339148	9.43714	-2.43152	-0.373564	-0.0121731	-0.0013731	-0.00245948	-0.879395	0.651367	-0.100098	0.572229	-0.498183	-0.53787	-0.36751	9.70065	-1.71455	-0.760579	-0.00730483	0.00014037	-0.00200924	-0.950439	0.627197	-0.046875	
68	-0.262924	0.169998	0.651411	0.691112	5.72458	8.01411	0.862863	-0.0259903	-0.0324237	0.00112557	-0.797363	-0.509521	-0.125244	-0.592723	-0.00627914	0.572687	0.566276	6.70255	6.53531	3.49593	-0.0349419	0.0207775	-0.0300365	-0.648438	-0.415771	-0.4729	0.896998	0.361901	0.224338	-0.11872	-5.07589	6.14849	6.67284	0.0188261	-0.0215858	-0.0106373	0.758789	-0.430176	-0.481201	0.404484	0.780698	0.0839635	-0.468885	-7.74401	5.48145	-2.42107	0.0373952	-0.0130497	0.0123488	0.981689	-0.255615	-0.0898438	-0.644899	-0.701253	-0.0755832	0.294341	-4.91509	8.45519	0.0776655	0.0185238	-0.0187954	-0.0146481	0.812744	-0.599854	-0.116211	-0.995983	-0.0562513	-0.0567958	-0.0403364	-2.54734	1.90219	13.0959	0.0382398	-0.00414938	-0.0463128	0.652832	-0.149902	-0.763916	0.00268327	-0.71259	-0.239618	-0.659387	9.15509	3.09988	-1.11604	0.0103936	-0.0508757	-0.00836113	-0.969727	0.0947266	0.198975	-0.68083	0.0316543	0.731741	-0.00490506	9.73135	-0.411064	-0.691709	0.00376746	0.00465482	-0.0199273	-0.954834	0.476318	0.116943	-0.660392	0.233122	0.692735	0.172208	9.77914	-0.635227	-0.66716	-0.0100997	0.00792514	-0.0159041	-0.967285	0.490967	0.0986328	0.606463	-0.4971	-0.51968	-0.339157	9.51576	-2.48445	-0.379716	-0.0115547	-0.000994767	0.00376217	-0.881836	0.653564	-0.100098	0.57196	-0.49852	-0.537688	-0.367737	9.69958	-1.71912	-0.748522	-0.0189109	0.00512738	-0.00252837	-0.948486	0.633789	-0.0446777	
69	-0.262791	0.170301	0.651432	0.691068	5.74065	8.03846	0.878666	-0.00385748	-0.0273031	0.00842619	-0.800293	-0.498779	-0.121094	-0.59277	-0.00630449	0.572199	0.56672	6.72337	6.53792	3.49057	-0.025623	0.0255966	-0.0236539	-0.652832	-0.415771	-0.468018	0.896577	0.363068	0.223639	-0.119652	-5.28112	6.23666	6.71497	0.0662348	-0.0311635	-0.0149065	0.76123	-0.438965	-0.471924	0.404679	0.780649	0.0838151	-0.468825	-7.86861	5.50225	-2.56001	-0.00659534	0.000787291	0.0197288	0.974854	-0.253662	-0.092041	-0.644282	-0.70173	-0.075102	0.294677	-4.98071	8.66957	-0.0696061	0.00270294	-0.0125828	-0.0117871	0.812744	-0.599854	-0.118408	-0.995964	-0.0570918	-0.0566818	-0.0397954	-2.58398	2.04973	12.9163	0.0725554	-0.00103066	-0.0539001	0.646484	-0.1521	-0.766113	0.0024428	-0.713754	-0.239919	-0.658018	9.16694	3.00768	-1.44471	0.031331	-0.0393594	-0.0265729	-0.969727	0.0925293	0.205322	-0.680754	0.0316831	0.731811	-0.00482709	9.7456	-0.355079	-0.712894	-0.00101835	0.00763491	-0.0190503	-0.954834	0.476318	0.116943	-0.660376	0.233284	0.69266	0.172351	9.77055	-0.67074	-0.636688	-0.011529	0.00802473	-0.0168119	-0.962402	0.48877	0.0942383	0.606451	-0.497117	-0.519684	-0.339146	9.52616	-2.41502	-0.339635	0.00259057	0.00949874	0.00261782	-0.884033	0.651367	-0.102295	0.571792	-0.498727	-0.537579	-0.367877	9.69391	-1.72233	-0.688686	-0.0224422	0.00280865	-0.00276893	-0.946045	0.629395	-0.046875	
70	-0.262833	0.171057	0.65122	0.691065	5.6841	8.00331	0.874895	-0.0084838	-0.0133815	0.0209375	-0.799805	-0.505371	-0.125488	-0.593152	-0.00566029	0.571662	0.56687	6.74118	6.43471	3.48015	-0.042925	0.0220009	0.00801828	-0.648682	-0.413574	-0.46582	0.896791	0.362452	0.223563	-0.120062	-5.03243	6.23504	6.75658	-0.0342619	-0.004898	-0.0215838	0.760986	-0.432373	-0.476562	0.404059	0.780652	0.0828958	-0.469518	-7.75555	5.66514	-2.35824	0.0277616	-0.034786	0.00493524	0.975098	-0.258057	-0.0895996	-0.644908	-0.700952	-0.0749074	0.295209	-5.01297	8.42374	0.00487373	-0.00699452	-0.0212677	-0.0158193	0.816895	-0.597656	-0.114014	-0.996019	-0.0567915	-0.056669	-0.0388623	-2.61699	2.08794	12.9776	-0.00916973	0.0204415	-0.0427322	0.648438	-0.149902	-0.761963	0.00251984	-0.71491	-0.240129	-0.656685	9.13535	2.98406	-1.3084	0.0362561	-0.0665438	-0.00816442	-0.969727	0.0947266	0.209473	-0.680896	0.0314677	0.731686	-0.0050842	9.68896	-0.462735	-0.757211	0.0447169	0.0185952	-0.0121685	-0.957275	0.478516	0.112061	-0.660385	0.233264	0.69271	0.172142	9.81	-0.655599	-0.700192	0.0155643	0.000456332	-0.0158307	-0.964844	0.490967	0.0939941	0.606301	-0.497359	-0.51953	-0.339294	9.53662	-2.50337	-0.295079	-0.00664228	0.0101952	0.0066075	-0.87915	0.646973	-0.095459	0.571424	-0.499211	-0.537328	-0.368159	9.73696	-1.75878	-0.73623	-0.0180884	0.000356745	-0.00066479	-0.950439	0.627197	-0.0446777	
71	-0.262928	0.171455	0.651326	0.69083	5.73802	7.97759	0.930466	0.0119022	-0.0252436	0.0284233	-0.802246	-0.500977	-0.125488	-0.593386	-0.00556591	0.571465	0.566825	6.68169	6.47735	3.50872	-0.0191246	0.0304402	-0.000861117	-0.655273	-0.411377	-0.468262	0.896894	0.362199	0.223451	-0.120263	-5.1633	6.07888	6.59962	-0.0130844	-0.0140534	-0.0156832	0.763184	-0.432617	-0.47876	0.405022	0.779945	0.0824185	-0.469947	-7.85085	5.36683	-2.39228	-0.0156697	-0.0388812	0.0281618	0.984131	-0.257812	-0.0874023	-0.644808	-0.700896	-0.0746222	0.295635	-4.89548	8.50492	0.153207	0.0128202	-0.0335619	-0.0195464	0.80835	-0.599854	-0.114014	-0.996043	-0.0565668	-0.0567497	-0.0384487	-2.56065	1.91212	12.8525	-0.0127279	0.0185677	-0.0496546	0.64624	-0.147705	-0.766113	0.00233477	-0.71585	-0.240234	-0.655623	9.14173	3.03643	-1.27431	0.0319823	-0.101342	-0.0133004	-0.971924	0.0947266	0.216064	-0.680982	0.0313735	0.731609	-0.00526369	9.68997	-0.42096	-0.716895	0.019911	0.024287	-0.0118991	-0.954834	0.476318	0.114502	-0.660371	0.233266	0.69274	0.172072	9.76355	-0.6532	-0.689643	0.00892554	0.000725378	-0.0163138	-0.962402	0.486572	0.0986328	0.606115	-0.49751	-0.519508	-0.339441	9.46276	-2.48637	-0.374182	-0.00189805	0.0112949	-0.00249204	-0.885986	0.64917	-0.0979004	0.57122	-0.499405	-0.53732	-0.368225	9.71608	-1.76584	-0.814983	-0.00567056	4.76195e-06	-0.00485907	-0.952881	0.629395	-0.0446777	
72	-0.263145	0.171688	0.650954	0.691041	5.61192	8.10351	0.984309	-0.0324531	0.00150469	-0.00107233	-0.809082	-0.498779	-0.123291	-0.593564	-0.00482292	0.570925	0.567189	6.69524	6.52618	3.56987	-0.0634421	0.00713765	-0.00459353	-0.651123	-0.405029	-0.480225	0.896947	0.361653	0.223688	-0.121067	-5.05764	6.22664	6.56868	-0.0266453	0.00147756	-0.0429338	0.765137	-0.43042	-0.48584	0.404623	0.779894	0.0820615	-0.470438	-7.74079	5.49795	-2.47017	0.0336374	-0.00955259	-0.0157337	0.979492	-0.257812	-0.0917969	-0.645034	-0.700554	-0.0746866	0.295936	-5.0024	8.48249	0.0552227	-0.0103115	0.00165061	-0.0188989	0.812744	-0.599854	-0.12085	-0.996038	-0.0566408	-0.057126	-0.0379131	-2.56707	1.90052	13.0488	0.0119134	0.0327453	-0.0327031	0.648438	-0.147705	-0.766113	0.00264843	-0.717221	-0.240874	-0.653886	9.13931	3.07292	-1.47016	0.0709628	-0.0939433	-0.0113268	-0.971924	0.0947266	0.213867	-0.680836	0.0314273	0.731744	-0.00507401	9.70498	-0.515281	-0.750624	0.000287182	0.00949321	-0.0182965	-0.959229	0.476318	0.112305	-0.660324	0.233196	0.692756	0.172279	9.79635	-0.714894	-0.671321	-0.00111294	0.00297166	-0.0175333	-0.969238	0.486328	0.0942383	0.605961	-0.497719	-0.519591	-0.339282	9.51856	-2.49622	-0.376866	-0.0058081	0.00533919	0.00748058	-0.881836	0.653564	-0.100098	0.571094	-0.499575	-0.537163	-0.368418	9.7025	-1.80619	-0.680621	-0.0116743	0.0117145	-0.00280333	-0.953125	0.633789	-0.0446777	
73	-0.262861	0.172602	0.650726	0.691135	5.79528	7.88828	0.937068	-0.00100204	-0.0355132	0.0251731	-0.802246	-0.500977	-0.125488	-0.59356	-0.00443655	0.570436	0.567688	6.73786	6.48548	3.53549	-0.0377476	0.013108	-0.0248615	-0.653076	-0.409424	-0.482422	0.897043	0.361242	0.223729	-0.121505	-5.15986	6.13648	6.77217	-0.00255607	-0.000442752	-0.018532	0.763184	-0.43042	-0.474365	0.403894	0.779963	0.0818078	-0.470994	-7.83027	5.50395	-2.22086	0.0160244	-0.00793464	-0.00756413	0.975098	-0.255859	-0.0898438	-0.644252	-0.701015	-0.0745344	0.296585	-4.96361	8.45192	0.0635321	0.0549976	-0.00448512	-0.0390487	0.814941	-0.602051	-0.116211	-0.996014	-0.0570086	-0.0573794	-0.0375972	-2.6154	1.97619	12.8668	0.0309065	0.0172859	-0.0278959	0.650879	-0.154297	-0.763916	0.00237176	-0.718238	-0.240546	-0.65289	9.10664	3.05467	-1.40991	0.00768172	-0.0687721	-0.00252553	-0.969727	0.0947266	0.216064	-0.680835	0.0315374	0.731741	-0.0049144	9.72402	-0.366443	-0.683889	-0.00563283	0.0144671	-0.0197339	-0.954834	0.474121	0.116943	-0.660304	0.23325	0.692766	0.172248	9.79808	-0.642682	-0.684938	0.00227948	0.000988141	-0.0167958	-0.957764	0.484375	0.0942383	0.605812	-0.497898	-0.519491	-0.339438	9.51905	-2.43889	-0.357773	-0.0137149	0.00324115	0.00383296	-0.881836	0.653564	-0.0957031	0.571148	-0.499588	-0.536983	-0.368581	9.70783	-1.70381	-0.746292	-0.0101246	0.0133737	-0.00341959	-0.952881	0.627197	-0.046875	
74	-0.262977	0.173563	0.650961	0.690629	5.71886	8.09178	0.888939	0.00379469	-0.0392473	0.0308123	-0.806885	-0.498779	-0.127686	-0.593958	-0.00372943	0.569708	0.568007	6.71136	6.38915	3.53008	-0.0458952	0.0301201	0.00841296	-0.655273	-0.40918	-0.468262	0.897304	0.360306	0.223982	-0.121889	-5.10152	6.04569	6.63234	-0.0385692	-0.000782693	-0.0198011	0.762939	-0.426025	-0.481201	0.403973	0.779791	0.0818245	-0.471207	-7.87695	5.42716	-2.48572	-0.00786955	-0.0150705	-0.00459957	0.977295	-0.258057	-0.0895996	-0.643697	-0.70136	-0.07441	0.297004	-5.04352	8.50787	0.0176598	-0.00277944	-0.00726357	-0.0162791	0.814941	-0.599854	-0.125244	-0.996005	-0.0569529	-0.0577735	-0.0373095	-2.6152	2.18993	12.8288	-0.0298554	0.033355	-0.0263855	0.648193	-0.145508	-0.766357	0.00233355	-0.719105	-0.240736	-0.651865	9.09133	3.03881	-1.43274	0.0265073	-0.0429755	-0.0132922	-0.963379	0.0947266	0.220215	-0.680865	0.0319264	0.731698	-0.00473919	9.71735	-0.466763	-0.617645	-0.0137827	0.0147724	-0.0102596	-0.955078	0.478516	0.112061	-0.660352	0.233355	0.692699	0.172189	9.78881	-0.645209	-0.635455	-0.001963	0.00614694	-0.014047	-0.964844	0.48877	0.0964355	0.605882	-0.498033	-0.519296	-0.339415	9.53377	-2.41958	-0.289854	-0.00818553	0.020091	0.00961803	-0.884277	0.657959	-0.0979004	0.571029	-0.499817	-0.536771	-0.368763	9.71562	-1.73633	-0.712356	-0.0105246	0.00629422	-0.000469682	-0.946289	0.631592	-0.0400391	
75	-0.263186	0.174406	0.650807	0.690482	5.87217	7.84291	0.871065	-0.0042687	-0.00421823	0.0248651	-0.808838	-0.500977	-0.119141	-0.594148	-0.00335096	0.569317	0.568203	6.71164	6.50277	3.54918	-0.0352545	0.0137731	-0.0122549	-0.653076	-0.409424	-0.475342	0.897465	0.359797	0.224047	-0.122092	-5.17423	6.04601	6.63401	-0.0154168	-0.000113027	-0.0155802	0.758545	-0.421631	-0.474609	0.403988	0.779372	0.0814896	-0.471945	-7.85067	5.34016	-2.41359	-0.0246779	-0.0164923	0.00864207	0.979736	-0.260254	-0.0895996	-0.643368	-0.701475	-0.0741165	0.297519	-4.89207	8.24904	0.106984	0.0615833	-0.00125021	-0.0160508	0.814941	-0.599854	-0.12085	-0.996006	-0.0568627	-0.0580891	-0.0369437	-2.63331	1.84056	12.9091	0.0351778	0.0261674	-0.0374955	0.645996	-0.143555	-0.76416	0.0018797	-0.720044	-0.240455	-0.650934	9.10247	3.04881	-1.49655	-9.65558e-05	-0.0343765	-0.0120265	-0.967529	0.0947266	0.222412	-0.680907	0.0326342	0.731632	-0.00395587	9.72184	-0.440811	-0.748961	-0.0167108	0.0144207	-0.0163388	-0.957275	0.478271	0.116699	-0.660255	0.233626	0.692685	0.172252	9.81494	-0.681185	-0.729395	0.000955592	-0.000146278	-0.0125403	-0.9646	0.481934	0.0964355	0.605577	-0.498436	-0.519117	-0.33964	9.52687	-2.49643	-0.302729	-0.0157047	0.00447052	0.001419	-0.884033	0.653564	-0.0979004	0.570853	-0.500125	-0.536481	-0.369039	9.67367	-1.77487	-0.696397	-0.00877181	0.0117539	-0.00111926	-0.957275	0.626953	-0.0446777	
76	-0.263238	0.174769	0.650638	0.69053	5.72302	7.94005	0.889578	-0.0125185	-0.0239005	0.00437004	-0.804443	-0.500977	-0.125488	-0.594388	-0.00297603	0.568748	0.568525	6.67923	6.42929	3.53544	-0.0335988	0.0310886	-0.016357	-0.655029	-0.413574	-0.475342	0.897427	0.359802	0.223919	-0.12259	-5.06516	5.98684	6.69882	0.0123528	-0.0106212	-0.0113038	0.762939	-0.423828	-0.481445	0.403684	0.779402	0.0812344	-0.4722	-7.69559	5.28984	-2.32301	0.0328774	-0.0166788	-0.00251017	0.983887	-0.255615	-0.0942383	-0.64348	-0.701247	-0.0741544	0.297805	-4.99182	8.44903	0.0394646	-0.0369174	-0.00584251	-0.0257991	0.81665	-0.593262	-0.118408	-0.996002	-0.0569017	-0.0582492	-0.0367221	-2.62505	1.95643	12.8429	-0.00936141	0.016756	-0.0160319	0.650391	-0.145508	-0.757812	0.00146561	-0.721416	-0.240604	-0.649358	9.24732	2.95675	-1.42765	0.0166119	-0.0633957	-0.0148194	-0.965332	0.0925293	0.226562	-0.680839	0.0324415	0.731701	-0.00446987	9.68229	-0.502091	-0.657615	0.0202249	0.00877956	-0.0117839	-0.952881	0.480469	0.114502	-0.660381	0.233593	0.692616	0.17209	9.78726	-0.580186	-0.617335	0.00146416	0.011622	-0.0154269	-0.967041	0.48877	0.10083	0.605576	-0.498473	-0.51905	-0.339692	9.52464	-2.46612	-0.352583	-0.00266711	0.0154224	0.00371321	-0.881592	0.651367	-0.100098	0.570877	-0.500195	-0.536422	-0.368993	9.69088	-1.73081	-0.793019	-0.00248181	0.00306403	0.000268186	-0.952881	0.629395	-0.0400391	
77	-0.263452	0.174874	0.650733	0.690332	5.76586	7.88045	0.869925	0.0162804	0.00448525	0.0109998	-0.808838	-0.500977	-0.119141	-0.594601	-0.00245325	0.568289	0.568763	6.73711	6.39342	3.59328	-0.0373113	0.0165438	0.00271718	-0.657471	-0.407227	-0.480225	0.897517	0.35949	0.223991	-0.122716	-5.13445	6.08119	6.67152	-0.00944062	0.00274505	-0.0155226	0.758789	-0.428223	-0.479004	0.403935	0.779113	0.0811542	-0.472475	-7.7961	5.33485	-2.44615	-0.0215974	-0.00661912	0.00567441	0.977295	-0.253662	-0.0942383	-0.642747	-0.701842	-0.0739615	0.298033	-5.01746	8.48821	0.0717235	0.0398946	0.0149707	-0.0158019	0.817139	-0.602051	-0.12085	-0.995981	-0.0574643	-0.0582821	-0.0363852	-2.63573	1.98931	12.9193	0.0179557	0.017092	-0.0261197	0.650635	-0.147705	-0.761963	0.00140776	-0.722148	-0.240707	-0.648507	9.11434	3.01872	-1.56626	0.0387771	-0.0472509	-0.0181005	-0.969727	0.0947266	0.230957	-0.680728	0.0327368	0.731793	-0.00408685	9.74268	-0.39281	-0.712564	-0.0009868	0.0101847	-0.0174856	-0.954834	0.476074	0.121582	-0.660163	0.23406	0.692601	0.17235	9.80418	-0.680352	-0.651311	-0.0096529	-0.00647106	-0.0123677	-0.9646	0.486328	0.0964355	0.60572	-0.498471	-0.518917	-0.33964	9.49065	-2.47673	-0.351767	0.00357765	0.010704	0.0068812	-0.881592	0.646973	-0.100098	0.570853	-0.500256	-0.536387	-0.368999	9.72132	-1.7584	-0.764066	-0.00209108	0.00471072	-0.00101566	-0.955078	0.626953	-0.0446777	
78	-0.263365	0.175013	0.650879	0.690193	5.7168	7.94553	0.87975	0.0121006	-0.0194441	0.00214584	-0.806885	-0.496582	-0.119141	-0.594728	-0.0022829	0.568241	0.568679	6.71173	6.34956	3.57082	-0.0136866	0.0148999	-0.000576876	-0.65332	-0.405029	-0.482666	0.897502	0.359552	0.223905	-0.122798	-5.14294	5.99719	6.6262	0.0105065	-0.00361045	-0.00379	0.758789	-0.426025	-0.481201	0.403567	0.779196	0.0809875	-0.472682	-7.74231	5.40094	-2.22654	0.0351804	-0.00811888	-0.00793661	0.977539	-0.260254	-0.0917969	-0.643106	-0.701511	-0.073979	0.298033	-5.09245	8.53643	0.0146478	-0.0368217	-0.00242048	-0.00586253	0.812744	-0.599854	-0.12085	-0.99599	-0.0571045	-0.0583867	-0.0365114	-2.65547	2.08382	12.9279	-0.0257558	0.0235796	-0.00740992	0.648438	-0.145508	-0.76416	0.00159769	-0.722173	-0.240915	-0.648401	9.19097	3.06649	-1.44284	0.0407827	0.00853874	-0.0173763	-0.963135	0.0925293	0.226562	-0.680776	0.0326462	0.73175	-0.00436339	9.74848	-0.484677	-0.730447	0.0275687	0.020221	-0.00652099	-0.955078	0.480469	0.114502	-0.660133	0.233998	0.6927	0.172149	9.84612	-0.748578	-0.715384	0.02046	-0.00532978	-0.0140939	-0.962646	0.490967	0.0964355	0.605675	-0.498546	-0.519004	-0.339477	9.5707	-2.38718	-0.234528	0.0142553	0.00730081	0.00368326	-0.884033	0.653564	-0.102539	0.570811	-0.500407	-0.536343	-0.368921	9.72338	-1.71297	-0.652075	-0.00198265	-0.00015087	0.00200244	-0.946289	0.635986	-0.0400391	
79	-0.263383	0.17494	0.651399	0.689713	5.85708	7.94338	0.850917	0.0362555	0.00399256	0.0025098	-0.811279	-0.499023	-0.119141	-0.594738	-0.00224162	0.568423	0.568487	6.7612	6.50385	3.53139	0.00227115	0.00679609	-0.00907513	-0.657471	-0.409424	-0.473145	0.897436	0.359759	0.223815	-0.122837	-5.08895	6.0991	6.78977	0.0217159	-0.000116291	0.00171253	0.762939	-0.428223	-0.476562	0.404161	0.778946	0.081019	-0.472581	-7.81755	5.44908	-2.28904	-0.0525152	0.0014128	0.0247405	0.979736	-0.26001	-0.0939941	-0.643328	-0.701244	-0.0739755	0.298183	-4.96151	8.28832	0.0893904	0.019144	0.00494275	-0.0112012	0.816895	-0.599854	-0.123047	-0.996018	-0.056828	-0.0581373	-0.0365942	-2.68511	1.99753	12.7951	0.0112501	-0.00178356	-0.0196317	0.650391	-0.143311	-0.76416	0.00191134	-0.722084	-0.240828	-0.648531	9.14231	3.00228	-1.56817	0.0277825	0.0253595	-0.00625398	-0.967773	0.0969238	0.230713	-0.680584	0.0321768	0.731945	-0.00509007	9.71702	-0.440322	-0.675884	0.0354165	-0.00388917	-0.0134273	-0.96167	0.480469	0.114502	-0.660211	0.233579	0.692942	0.171443	9.77896	-0.611981	-0.612202	0.0253913	-0.0027823	-0.0154477	-0.962402	0.484131	0.10083	0.605714	-0.498455	-0.519119	-0.339365	9.51547	-2.50608	-0.450426	-0.00179647	0.0102798	-0.00154404	-0.884033	0.653564	-0.0957031	0.570943	-0.500331	-0.536592	-0.36846	9.71194	-1.74628	-0.780873	0.0252938	-0.00424824	0.00122894	-0.946289	0.633789	-0.0446777	
80	-0.263917	0.175038	0.651945	0.688968	5.9467	8.00639	0.875918	0.0138284	-0.005335	0.00866016	-0.809082	-0.498779	-0.121338	-0.595123	-0.00177536	0.568436	0.568072	6.62405	6.40131	3.61121	-0.0215246	0.015698	0.0134219	-0.657715	-0.405029	-0.477783	0.897572	0.359495	0.223844	-0.122566	-5.13043	6.15176	6.62279	-0.00041178	0.00647749	-0.00249194	0.762939	-0.428223	-0.481201	0.404531	0.778782	0.0810289	-0.472533	-7.74655	5.44198	-2.37858	0.00311199	0.00156589	-0.00351516	0.979492	-0.253418	-0.0964355	-0.645088	-0.699842	-0.0741853	0.297622	-5.08995	8.36181	0.167106	-0.0580586	-0.0044816	0.0028523	0.818848	-0.593262	-0.125244	-0.996075	-0.0555056	-0.0581616	-0.0370232	-2.54751	2.01992	12.9375	-0.0756365	0.0225623	0.010291	0.647949	-0.13916	-0.762207	0.00287725	-0.722139	-0.241063	-0.64838	9.17897	3.09956	-1.64751	0.0306405	0.00113766	-0.00236714	-0.965332	0.0925293	0.224609	-0.680574	0.0323346	0.731949	-0.00489887	9.6797	-0.481148	-0.768925	-0.0214965	0.0124878	-0.0157288	-0.955078	0.478516	0.114502	-0.660045	0.233919	0.692942	0.171624	9.74956	-0.745483	-0.753219	-0.00728551	-0.00318922	-0.0151778	-0.960449	0.493408	0.0961914	0.605966	-0.498328	-0.519212	-0.338958	9.44555	-2.50739	-0.299869	0.0300755	0.00374826	0.0120059	-0.884033	0.653564	-0.0957031	0.571076	-0.500258	-0.536681	-0.368223	9.65529	-1.81953	-0.745435	0.0168809	0.00278255	0.00011472	-0.950928	0.633789	-0.0446777	
81	-0.264365	0.174797	0.652013	0.688793	5.86552	7.90957	0.852663	0.0251558	0.029986	0.0135545	-0.811523	-0.492432	-0.119141	-0.594944	-0.00152057	0.569154	0.567541	6.85164	6.48975	3.57737	0.00783953	-0.0234375	-0.0110795	-0.65332	-0.405029	-0.475586	0.897834	0.358861	0.223991	-0.122236	-5.1951	6.15404	6.69008	-0.0370153	0.00941465	0.0015183	0.760742	-0.426025	-0.488037	0.405802	0.778275	0.0813433	-0.472225	-7.93395	5.30663	-2.64125	-0.0649612	-0.00474801	0.0244238	0.977539	-0.262207	-0.0961914	-0.645088	-0.699842	-0.0741853	0.297622	-5.08995	8.36181	0.167106	-0.0580586	-0.0044816	0.0028523	0.818848	-0.593262	-0.125244	-0.99609	-0.0550299	-0.0582977	-0.0371234	-2.55148	1.92102	13.0502	0.0231596	0.0212671	-0.0246551	0.652588	-0.145508	-0.761963	0.0031868	-0.721763	-0.241071	-0.648794	9.25268	3.00535	-1.60933	0.0265178	0.0610784	-0.00694506	-0.968018	0.101318	0.226562	-0.680307	0.0323708	0.732194	-0.00516164	9.76293	-0.516647	-0.682248	0.0114141	-0.0018769	-0.00685203	-0.952881	0.478271	0.119141	-0.660116	0.233809	0.692981	0.171341	9.88504	-0.638058	-0.678969	0.0126349	0.00586653	-0.0154524	-0.964844	0.48877	0.0986328	0.605816	-0.498536	-0.519438	-0.338575	9.5989	-2.43754	-0.445493	-0.00575943	-0.0130221	0.00836887	-0.879395	0.651367	-0.095459	0.571156	-0.500282	-0.536684	-0.368062	9.79625	-1.71562	-0.757624	-0.00337268	0.00463077	-0.000188154	-0.952881	0.631592	-0.0400391	
82	-0.264426	0.175048	0.652115	0.688609	5.76555	8.18808	0.834668	-0.0120438	-0.0270048	0.00383364	-0.811523	-0.494629	-0.119141	-0.595248	-0.00106722	0.569087	0.567291	6.70779	6.47644	3.53317	-0.0194586	0.0122774	0.00701505	-0.659912	-0.405029	-0.477783	0.897868	0.358751	0.223855	-0.122554	-5.20108	6.29768	6.74159	0.00294144	-0.00133686	-0.0169447	0.762939	-0.426025	-0.481201	0.405673	0.77801	0.0810008	-0.472831	-7.90556	5.66113	-2.31815	-0.00411535	-0.014801	-0.00315135	0.979736	-0.257812	-0.103027	-0.645009	-0.699706	-0.0745404	0.298026	-4.94145	8.4205	0.160098	-0.046058	-0.00577867	-0.0283305	0.812744	-0.602051	-0.123047	-0.996073	-0.0552001	-0.0585577	-0.0369082	-2.62556	1.97668	12.8878	0.011048	0.0268667	-0.0282123	0.648193	-0.143311	-0.757812	0.00348271	-0.721965	-0.240877	-0.648639	9.11952	3.01681	-1.49138	0.0367538	-0.00150323	-0.00383561	-0.963379	0.0969238	0.224365	-0.680241	0.0322776	0.732258	-0.00529708	9.7061	-0.476344	-0.699476	0.0144778	0.0256014	-0.0172785	-0.959473	0.480469	0.116699	-0.660186	0.23371	0.693037	0.17098	9.742	-0.683737	-0.632184	0.0261966	0.00358532	-0.0135926	-0.965332	0.502441	0.0983887	0.605999	-0.498572	-0.51934	-0.338345	9.43312	-2.47783	-0.300298	0.0132991	0.0173457	0.013478	-0.879639	0.655762	-0.0979004	0.571144	-0.500376	-0.536701	-0.367927	9.65029	-1.76454	-0.72806	-0.00191996	-0.0023697	0.00226437	-0.948486	0.633789	-0.0446777	
83	-0.264761	0.175118	0.651557	0.688991	5.71649	7.89843	0.832469	-0.0134204	0.0264462	0.0118988	-0.813477	-0.496826	-0.116943	-0.595261	-0.000756799	0.569062	0.567302	6.69611	6.41344	3.52889	-0.023689	0.00232958	-0.00393983	-0.65332	-0.402832	-0.475586	0.897741	0.358475	0.224469	-0.12317	-5.16355	5.96021	6.63544	0.018249	0.0137974	-0.0296998	0.760742	-0.421631	-0.474609	0.405515	0.777794	0.08094	-0.473332	-7.82994	5.45987	-2.32064	0.0425006	-0.0184552	-0.0166219	0.983887	-0.255615	-0.0964355	-0.644978	-0.699513	-0.0747003	0.298504	-4.98289	8.51309	0.0487946	0.00733215	-0.00866222	-0.0240841	0.814941	-0.602051	-0.12085	-0.996057	-0.0550583	-0.0592276	-0.0364749	-2.58874	1.86366	13.0828	0.000898016	0.0496072	-0.0304167	0.652344	-0.13916	-0.764404	0.00397066	-0.721889	-0.240803	-0.648748	9.10341	3.03235	-1.54094	0.0200044	0.0169385	0.00034896	-0.961182	0.0947266	0.224609	-0.680188	0.0325615	0.732296	-0.00508094	9.68889	-0.51773	-0.699145	0.00588293	0.0106229	-0.0143821	-0.950684	0.480469	0.119141	-0.660305	0.233681	0.692984	0.170771	9.79171	-0.704248	-0.670211	0.0105307	0.00636772	-0.0128546	-0.962402	0.48877	0.0986328	0.605832	-0.498988	-0.519278	-0.338125	9.49454	-2.45807	-0.415836	-0.0103662	-0.00311872	0.0150493	-0.879639	0.655762	-0.0957031	0.571026	-0.500654	-0.536564	-0.367932	9.69894	-1.77565	-0.767385	-0.00167588	0.00329704	0.00295358	-0.952881	0.631592	-0.0446777	
84	-0.265158	0.17588	0.651696	0.688513	5.86535	8.00778	0.871744	0.0144677	-0.0248352	0.0381548	-0.811523	-0.494629	-0.121338	-0.595364	-0.000139101	0.568807	0.56745	6.87978	6.44001	3.5409	-0.0183442	0.0135473	0.00764369	-0.657715	-0.405029	-0.477783	0.897282	0.359173	0.224791	-0.123887	-5.13345	6.21792	6.87534	0.0205698	0.0162008	-0.0258459	0.760742	-0.419434	-0.481445	0.405461	0.777435	0.0811609	-0.47393	-7.79656	5.553	-2.26973	-0.0427182	-0.0182572	-0.0103493	0.977295	-0.255615	-0.103027	-0.644897	-0.699316	-0.0749735	0.299074	-5.05475	8.43947	0.0487839	0.00510849	-0.00706544	-0.0388635	0.8125	-0.597656	-0.123047	-0.996034	-0.0548644	-0.059893	-0.0363305	-2.69465	2.00262	12.8592	0.000964293	0.0314183	-0.0215915	0.652588	-0.143311	-0.76001	0.00452957	-0.7218	-0.240362	-0.649007	9.17414	2.98858	-1.5138	0.0243749	0.027402	0.0101612	-0.969971	0.0991211	0.220215	-0.680113	0.0324568	0.73237	-0.00530744	9.718	-0.421989	-0.721375	0.00968917	0.0109023	-0.0143269	-0.955078	0.478516	0.114502	-0.660392	0.23384	0.692832	0.170836	9.78508	-0.604977	-0.646541	-0.0174663	0.0117306	-0.0134949	-0.962646	0.490967	0.10083	0.605366	-0.499925	-0.518921	-0.338126	9.50192	-2.55807	-0.34317	-0.0422993	-0.00801386	0.0224181	-0.879639	0.657959	-0.0957031	0.570401	-0.501543	-0.535989	-0.368528	9.72197	-1.86121	-0.803281	-0.0537121	0.00385113	0.000891543	-0.950928	0.633789	-0.0424805	
