40	Head	00b4120a												Throax	00b411e8												LUpArm	00b411d9												LFoArm	00b41148												RUpArm	00b411db												RFoArm	00b41204												Waist	00b411f7												Lthigh	00b411f4												Lshank	00b4111b												Rthigh	00b411c8												Rshank	00b411ee												
PacketCount	q0	q1	q2	q3	accX	accY	accZ	gyrX	gyrY	gyrZ	magX	magY	magZ	q0	q1	q2	q3	accX	accY	accZ	gyrX	gyrY	gyrZ	magX	magY	magZ	q0	q1	q2	q3	accX	accY	accZ	gyrX	gyrY	gyrZ	magX	magY	magZ	q0	q1	q2	q3	accX	accY	accZ	gyrX	gyrY	gyrZ	magX	magY	magZ	q0	q1	q2	q3	accX	accY	accZ	gyrX	gyrY	gyrZ	magX	magY	magZ	q0	q1	q2	q3	accX	accY	accZ	gyrX	gyrY	gyrZ	magX	magY	magZ	q0	q1	q2	q3	accX	accY	accZ	gyrX	gyrY	gyrZ	magX	magY	magZ	q0	q1	q2	q3	accX	accY	accZ	gyrX	gyrY	gyrZ	magX	magY	magZ	q0	q1	q2	q3	accX	accY	accZ	gyrX	gyrY	gyrZ	magX	magY	magZ	q0	q1	q2	q3	accX	accY	accZ	gyrX	gyrY	gyrZ	magX	magY	magZ	q0	q1	q2	q3	accX	accY	accZ	gyrX	gyrY	gyrZ	magX	magY	magZ	
0	-0.460392	0.514378	0.398864	0.603625	9.87083	0.0250708	1.43851	0.0248883	-0.00989394	-0.0327678	-0.834961	0.432373	-0.027832	-0.5272	0.433551	0.382072	0.622988	9.44676	0.23575	3.30909	0.018855	0.0509846	-0.0458076	-0.754395	0.303467	-0.177979	0.820656	-0.132645	-0.194277	-0.520755	4.91816	-0.117153	9.47538	0.0757803	0.0125111	-0.0015404	-0.323486	0.307617	-0.897217	0.00581029	0.0443483	-0.10005	-0.993977	-0.81671	1.78041	9.65652	-0.0304652	0.0551556	0.025654	-0.312256	-0.163574	-0.91748	-0.502735	0.239589	0.238217	0.79568	6.10964	1.32924	7.7951	0.0019851	0.0482694	-0.0159166	-0.718018	0.22998	-0.63208	-0.993699	-0.00440723	-0.0508661	0.0997743	-1.25098	-1.23603	13.4306	0.00973309	-0.0275029	-0.00199251	0.554688	0.0793457	-0.888672	0.212107	-0.614812	-0.499863	-0.571974	8.69397	3.10446	-2.42259	0.0193622	0.142396	-0.032709	-0.873535	0.072998	0.465576	-0.483652	0.496008	0.475941	0.54179	9.83198	0.470561	0.258823	0.0901756	-0.0284272	-0.0192222	-0.98999	0.375	-0.0307617	-0.522018	0.433487	0.554472	0.481817	9.8267	0.643679	-0.199296	0.0927653	-0.0184947	0.0124433	-1.01733	0.29834	-0.0839844	0.440617	-0.0781873	-0.162882	-0.879325	2.88753	2.05544	9.8526	0.00109644	0.017034	0.0201566	-0.540283	0.146729	-0.91333	0.312639	-0.854046	-0.388199	-0.148876	4.92097	-4.24857	-7.24974	0.014125	-0.00219218	-0.0186503	-0.194336	0.755615	0.737793	
1	-0.460235	0.513167	0.399675	0.604237	9.83662	0.109938	1.48382	0.0304959	0.0321905	-0.0585358	-0.834961	0.430176	-0.027832	-0.526961	0.432538	0.382614	0.623562	9.31805	0.341787	3.27585	0.0178888	0.0272712	-0.0517376	-0.754639	0.305664	-0.18042	0.820893	-0.131069	-0.195126	-0.520462	4.91291	0.00486749	9.50865	0.0737022	0.00704883	-0.00573802	-0.323486	0.30542	-0.901855	0.00656388	0.0458958	-0.099329	-0.993974	-0.922587	1.8195	9.50919	-0.0258953	0.0742494	0.0200801	-0.307861	-0.15918	-0.915283	-0.503319	0.238002	0.238295	0.795764	5.95859	1.36632	7.69898	0.0578138	0.0675165	-0.0128216	-0.71582	0.232178	-0.63208	-0.993804	-0.00466801	-0.0498332	0.0992434	-1.10956	-1.27555	13.2733	0.0179822	-0.0273939	0.00691535	0.55249	0.0793457	-0.89502	0.213316	-0.612758	-0.499187	-0.574314	8.73475	2.86251	-2.51747	0.0237583	0.153159	-0.0343231	-0.875977	0.0793457	0.459229	-0.483777	0.49606	0.475867	0.541696	9.90807	0.546857	0.713401	-0.0237202	0.0334641	-0.0020468	-0.996582	0.377197	-0.0307617	-0.523174	0.432574	0.555537	0.480153	9.80978	1.06977	0.173984	0.0468912	-0.0127972	-0.00127939	-1.01733	0.298096	-0.0705566	0.441537	-0.0784244	-0.163746	-0.878682	2.89795	2.13575	9.64553	0.0543029	0.00110799	0.0492982	-0.535889	0.146729	-0.917725	0.311953	-0.853848	-0.389331	-0.14849	5.0249	-4.24886	-7.19344	-0.0135213	-0.0371557	-0.0489274	-0.191895	0.749023	0.733398	
2	-0.460249	0.51143	0.400314	0.605275	9.65168	0.18558	1.60227	0.0345772	0.0480519	-0.0614067	-0.839111	0.427979	-0.0297852	-0.526931	0.431589	0.383412	0.623755	9.28847	0.238855	3.1784	0.037669	0.0221215	-0.0507621	-0.754395	0.303467	-0.180176	0.821065	-0.129785	-0.195599	-0.520335	4.96608	-0.116504	9.46094	0.0582036	0.0225074	-0.00675598	-0.323486	0.303467	-0.904053	0.00709898	0.0471655	-0.0984086	-0.994002	-0.919488	1.8268	9.42445	-0.0430852	0.0520947	0.015145	-0.308105	-0.154785	-0.924316	-0.50395	0.236162	0.238299	0.795912	5.91319	1.45408	7.55826	0.02938	0.0684809	-0.0115437	-0.708984	0.225586	-0.63208	-0.993939	-0.00518674	-0.0484699	0.0985301	-1.08542	-1.28953	13.1443	0.0426795	-0.0400557	0.0100862	0.548096	0.0793457	-0.897217	0.215282	-0.610518	-0.500114	-0.575158	8.77134	2.93658	-2.34192	0.0866118	0.116744	-0.0467852	-0.884521	0.0751953	0.448486	-0.483421	0.496386	0.4755	0.542037	9.80551	0.332555	0.474719	0.0106665	0.00637662	-0.0229821	-0.992432	0.381592	-0.0356445	-0.523083	0.432896	0.555377	0.480147	9.75646	0.791459	0.0476917	0.0151564	0.0145485	-0.0186404	-1.01733	0.300537	-0.0773926	0.442827	-0.0781634	-0.164552	-0.877905	2.8201	2.24081	9.73965	0.0388658	0.0115216	0.0599334	-0.538086	0.144531	-0.913086	0.311814	-0.853348	-0.390771	-0.147879	4.96455	-4.04735	-7.24737	0.0232828	-0.0327844	-0.0541759	-0.194336	0.751221	0.735596	
3	-0.460311	0.510302	0.401302	0.605527	9.76059	0.221841	1.68835	0.0441518	-0.000892579	-0.0366912	-0.843262	0.421387	-0.0297852	-0.527169	0.430819	0.384108	0.623658	9.41928	0.310231	3.25673	0.0252195	0.0219112	-0.0295615	-0.75	0.299072	-0.184814	0.821243	-0.128411	-0.196247	-0.520152	4.99183	-0.120045	9.4159	0.0602132	0.00677385	-0.00193391	-0.321289	0.299072	-0.90625	0.00796012	0.047992	-0.0974442	-0.994051	-0.839123	1.87628	9.40825	-0.0288121	0.0431029	0.0367979	-0.306152	-0.152588	-0.922119	-0.504302	0.234891	0.238252	0.796079	5.93422	1.32234	7.46999	0.0286279	0.0475262	-0.0124751	-0.709229	0.230225	-0.638916	-0.994044	-0.00555513	-0.0474683	0.0979412	-1.16749	-1.3821	13.1584	0.0158011	-0.0167109	0.0058221	0.550293	0.0771484	-0.897217	0.217102	-0.608023	-0.500469	-0.576806	8.85556	3.10094	-2.40715	0.0503655	0.143396	-0.0395567	-0.880127	0.0751953	0.450684	-0.48392	0.49593	0.47673	0.540929	9.91023	0.222777	0.630002	0.0963634	-0.016031	-0.006532	-0.996582	0.379395	-0.0307617	-0.523055	0.433006	0.555668	0.479742	9.89634	0.578339	0.160008	0.0426245	-0.0148232	-0.0107374	-1.01514	0.300537	-0.0771484	0.444181	-0.0778247	-0.165122	-0.877144	2.91983	2.27943	9.82596	0.0298701	0.0271698	0.0616619	-0.535645	0.144531	-0.908691	0.311617	-0.852757	-0.392323	-0.147592	5.05286	-4.16175	-7.28831	0.0154411	-0.0261764	-0.0620836	-0.191895	0.751221	0.735596	
4	-0.460458	0.509703	0.40254	0.605098	9.90064	0.252236	1.62794	0.0524091	-0.0212175	-0.0218418	-0.845459	0.423584	-0.0319824	-0.527496	0.430381	0.38446	0.623467	9.56818	0.354696	3.23491	0.0188989	0.0134495	-0.0165965	-0.758545	0.299072	-0.177734	0.82153	-0.128298	-0.197356	-0.519307	5.16628	-0.131604	9.60485	0.0308438	-0.0429527	0.0364155	-0.321289	0.299072	-0.908447	0.00904962	0.048754	-0.0978064	-0.993969	-0.873212	1.99252	9.53371	0.0277268	0.0353116	0.0462656	-0.30127	-0.156738	-0.92627	-0.504855	0.234675	0.238849	0.795613	5.98407	1.42623	7.68491	0.027284	-0.0161308	0.0119042	-0.709229	0.230225	-0.638916	-0.994146	-0.0047366	-0.0470681	0.0971361	-1.19231	-1.42431	13.1965	-0.0377885	-0.00163621	0.0161372	0.543701	0.0812988	-0.893066	0.219358	-0.605647	-0.500439	-0.578476	9.12451	3.01279	-2.41988	0.0717896	0.15452	-0.0216849	-0.886719	0.0773926	0.435791	-0.484994	0.495439	0.478248	0.539073	10.0047	0.257145	0.506772	0.0846316	-0.0245746	-0.00471992	-0.994629	0.381592	-0.0332031	-0.523778	0.432322	0.556886	0.478155	9.93668	0.717847	0.0363757	0.0699061	-0.0187016	-0.00714337	-1.01953	0.298096	-0.0795898	0.445109	-0.0779256	-0.165356	-0.87662	2.84051	2.42607	9.77387	0.000896644	0.0104508	0.0420381	-0.529053	0.146729	-0.90625	0.311831	-0.852433	-0.393059	-0.147052	4.92065	-3.94812	-7.39109	0.0287425	-0.0222121	-0.0130402	-0.194092	0.746826	0.730957	
5	-0.460553	0.509376	0.40394	0.604368	9.77597	0.247005	1.47281	0.055419	-0.0377499	-0.0161598	-0.843018	0.419434	-0.0319824	-0.528108	0.429847	0.385471	0.622692	9.41203	0.272355	3.22698	0.0570778	-0.000277219	-0.00709687	-0.758545	0.299072	-0.187256	0.822147	-0.128862	-0.198022	-0.517935	5.13	-0.107408	9.6656	0.0125867	-0.0210471	0.0628579	-0.323242	0.296875	-0.89917	0.0102847	0.048725	-0.0985371	-0.993887	-0.877256	1.93571	9.72206	0.0208122	0.000953616	0.0513578	-0.305664	-0.15918	-0.924072	-0.505534	0.23493	0.240019	0.794754	6.05878	1.34066	7.7949	0.0555281	-0.0191509	0.0245155	-0.707031	0.22998	-0.63208	-0.9943	-0.00363589	-0.0466915	0.0957774	-1.2087	-1.35081	13.4594	-0.0303386	-0.00936452	0.0404718	0.545898	0.0812988	-0.895264	0.222591	-0.60288	-0.500809	-0.57981	8.86563	3.0401	-2.18553	0.0885827	0.174009	-0.01963	-0.886963	0.0793457	0.429443	-0.485169	0.495331	0.47889	0.538445	9.89911	0.547582	0.447676	0.0670139	-0.023249	-0.0140019	-0.994629	0.385742	-0.0332031	-0.523767	0.432661	0.556859	0.477891	9.72097	0.966764	0.146593	-0.0341419	-0.00566573	-0.00389731	-1.01758	0.304932	-0.0751953	0.445526	-0.0786284	-0.165263	-0.876363	2.97882	2.25085	9.80598	-0.0037557	-0.00390585	0.0271862	-0.540527	0.151123	-0.906494	0.311471	-0.852498	-0.393433	-0.146435	5.05911	-4.07217	-7.36873	0.00186307	-0.0213347	-0.0163419	-0.194092	0.749023	0.730957	
6	-0.460969	0.509303	0.404948	0.603437	9.91018	0.19169	1.3933	0.0485931	-0.0237161	0.00902886	-0.841064	0.421631	-0.0341797	-0.529182	0.429026	0.385691	0.622211	9.38226	0.375815	3.23197	0.0325282	0.0533163	0.00246761	-0.754395	0.299072	-0.187256	0.823014	-0.128537	-0.197674	-0.51677	4.90684	-0.0625833	9.52966	0.0307654	0.0356515	0.049894	-0.312744	0.303223	-0.897217	0.0109163	0.048554	-0.0985238	-0.99389	-0.861781	1.83597	9.8091	-0.000533308	-0.00248646	0.0522152	-0.307861	-0.15918	-0.921875	-0.506982	0.234112	0.240556	0.79391	6.09693	1.3946	7.70728	0.0469237	0.0464478	0.0417389	-0.709473	0.232178	-0.63208	-0.99448	-0.00385956	-0.0462471	0.0941056	-1.17206	-1.27233	13.5408	0.0324965	0.00431923	0.0468998	0.541748	0.0771484	-0.897217	0.224524	-0.600675	-0.500248	-0.581833	8.76799	3.07157	-2.08886	0.0138759	0.154832	-0.0123005	-0.891113	0.0793457	0.420898	-0.485099	0.495724	0.47857	0.538431	9.99181	0.417437	0.662676	-0.0334787	0.0355949	-0.00848846	-0.998779	0.377197	-0.0354004	-0.52324	0.433483	0.557113	0.477429	9.86242	0.75384	0.104859	0.0682377	-0.041198	-0.00698554	-1.01514	0.304932	-0.0795898	0.445719	-0.0787797	-0.165512	-0.876204	2.90872	2.37931	9.91075	0.0187018	-0.00412831	0.023489	-0.540527	0.148926	-0.910889	0.311165	-0.852514	-0.393686	-0.146315	5.08535	-4.01604	-7.39875	-0.0124721	-0.0192244	-0.0218609	-0.196289	0.744629	0.731201	
7	-0.461675	0.508432	0.405523	0.603245	9.99927	0.215349	1.4515	0.0472455	0.027323	-0.0122335	-0.84082	0.419434	-0.0341797	-0.529913	0.42847	0.385792	0.621908	9.46177	0.339708	3.29504	0.00789308	-0.000729509	-0.00587267	-0.747803	0.296875	-0.191895	0.82383	-0.127232	-0.197776	-0.515752	5.04331	0.0536894	9.60734	0.0633972	0.0225611	0.0376727	-0.316895	0.296631	-0.906006	0.0122281	0.0488351	-0.0973984	-0.993971	-0.987034	1.76137	9.69174	-0.0534336	0.0345744	0.0484823	-0.310791	-0.148193	-0.922119	-0.508319	0.233827	0.239779	0.793374	6.04111	1.63006	7.70129	-0.0205338	0.0307696	0.0447828	-0.704834	0.22998	-0.63208	-0.994586	-0.00490023	-0.0465189	0.0927894	-1.03291	-1.29788	13.3217	0.032616	0.0344301	0.0300756	0.543945	0.0771484	-0.899414	0.225441	-0.599941	-0.499679	-0.582724	8.93932	3.04237	-2.16475	0.0114502	0.135147	0.0088811	-0.88916	0.081543	0.422852	-0.485222	0.495685	0.478712	0.538229	9.78365	0.154581	0.368391	0.0240158	0.00770129	-0.00959652	-0.996582	0.379395	-0.0354004	-0.523241	0.43386	0.557053	0.477155	9.97676	0.749041	-0.127649	-0.026868	0.0211118	-0.00875877	-1.0105	0.300537	-0.0727539	0.445763	-0.0788367	-0.165231	-0.87623	3.00021	2.4312	9.70442	-0.026824	0.0417861	0.00235996	-0.540527	0.148926	-0.915527	0.311472	-0.852431	-0.393679	-0.14616	5.03493	-4.12889	-7.34471	0.0390994	0.0166349	0.00282951	-0.194092	0.749023	0.735596	
8	-0.462008	0.507632	0.405799	0.603477	9.77727	0.28645	1.47092	0.0496492	0.0463379	-0.0312007	-0.845459	0.421387	-0.0341797	-0.530128	0.428583	0.385751	0.621674	9.50573	0.417958	3.36727	-0.00170418	0.00837722	0.00734431	-0.752197	0.301025	-0.191895	0.824226	-0.126844	-0.197862	-0.515183	5.01497	0.0811673	9.70486	0.0458417	0.0156472	0.0456433	-0.316895	0.296631	-0.901611	0.0135307	0.049288	-0.0972208	-0.99395	-1.05137	1.75762	9.53578	0.0212845	0.0205897	0.0484164	-0.299561	-0.145996	-0.924316	-0.508759	0.233875	0.239238	0.793241	6.09745	1.49863	7.66624	-0.0256146	0.0323248	0.0332626	-0.707031	0.228027	-0.638916	-0.994621	-0.00464869	-0.0466992	0.0923414	-0.998571	-1.29791	13.2547	-0.0172015	0.0273576	0.0168429	0.550781	0.0661621	-0.892578	0.227143	-0.598516	-0.499641	-0.583561	9.07127	3.03386	-2.1113	0.0443705	0.0936416	-0.0034907	-0.893555	0.0837402	0.416504	-0.485264	0.495569	0.48127	0.536013	9.78534	0.513752	0.277842	0.127249	-0.0999214	-0.0314785	-0.994629	0.385742	-0.0214844	-0.522775	0.43454	0.555767	0.478543	9.73034	1.0874	-0.0372119	-0.150335	0.0599032	-0.0201254	-1.01733	0.302734	-0.0727539	0.445699	-0.0792497	-0.16452	-0.876359	2.99597	2.13334	9.79716	-0.0206479	0.000748008	0.00452851	-0.535889	0.146729	-0.917725	0.311444	-0.852539	-0.393497	-0.146082	4.91695	-4.04269	-7.40036	-0.0133959	-0.000589602	-0.00282843	-0.198975	0.757812	0.737793	
9	-0.462734	0.506765	0.405473	0.60387	9.88442	0.279006	1.51918	0.00669529	0.0523378	0.00960351	-0.852051	0.419189	-0.0341797	-0.530919	0.427713	0.385461	0.621777	9.30486	0.318209	3.10853	0.0166945	0.0645223	-0.01972	-0.75415	0.296875	-0.191895	0.824777	-0.126039	-0.196547	-0.515001	4.72967	0.0960286	9.48116	-0.000262456	0.0806009	0.00270377	-0.316895	0.290283	-0.906006	0.0141528	0.0485724	-0.0963064	-0.994065	-1.01844	1.81023	9.54416	-0.0696866	-0.0248704	0.014729	-0.30835	-0.150391	-0.917725	-0.509434	0.233134	0.238771	0.793167	6.04169	1.49714	7.65923	0.00781607	0.0524767	0.00569064	-0.705078	0.232422	-0.636475	-0.994668	-0.00547714	-0.0464391	0.0919138	-1.09818	-1.41588	13.3142	0.0748016	0.00180753	-0.00550994	0.54834	0.0727539	-0.896973	0.229192	-0.596708	-0.498858	-0.585279	8.67946	2.99969	-1.95717	-0.0301079	0.126195	0.000109025	-0.899902	0.0793457	0.412354	-0.484085	0.496172	0.480629	0.537094	10.1148	0.615021	0.767822	-0.116703	0.0614109	-0.0366181	-0.992432	0.381592	-0.0332031	-0.521134	0.43661	0.553261	0.481346	9.83	0.603339	0.216137	-0.148051	0.0176982	-0.0193658	-1.01758	0.302734	-0.0795898	0.445683	-0.078705	-0.165067	-0.876314	2.92049	2.4677	9.72749	0.0472967	0.0241597	-0.00910217	-0.531494	0.148926	-0.908691	0.310827	-0.852519	-0.393933	-0.146337	5.11084	-3.8448	-7.42474	-0.0299342	0.000264223	-0.0241866	-0.191895	0.749023	0.737793	
10	-0.463296	0.505858	0.404489	0.604858	9.79699	0.254892	1.65398	-0.0181201	0.0682677	-0.00356238	-0.838623	0.417236	-0.0383301	-0.53104	0.42721	0.385124	0.622227	9.43593	0.344207	3.26788	-0.00699849	0.0362108	-0.0173561	-0.75	0.299072	-0.191895	0.824683	-0.125307	-0.196021	-0.515531	4.955	0.0151356	9.47302	0.0159477	0.0229986	-0.0266253	-0.321045	0.290283	-0.9104	0.0138887	0.0483924	-0.0947403	-0.994228	-1.01561	1.77721	9.52334	-0.0266298	0.00896618	-0.0186327	-0.308594	-0.148193	-0.926514	-0.509629	0.232531	0.237756	0.793524	6.09078	1.57925	7.61118	-0.0300988	0.0455239	-0.022093	-0.703125	0.236816	-0.641113	-0.994667	-0.00663697	-0.0462583	0.091941	-1.06846	-1.34372	13.362	0.0995105	0.00834564	-0.0164235	0.548584	0.0705566	-0.89917	0.229451	-0.596491	-0.498239	-0.585925	9.24618	3.01592	-2.13824	0.0275009	0.0481337	-0.00684964	-0.895752	0.0859375	0.412109	-0.482673	0.497329	0.478706	0.53901	9.80604	0.0650821	0.343341	-0.075205	0.0108904	-0.0201279	-0.992432	0.381348	-0.0214844	-0.51943	0.438818	0.551285	0.483442	10.0644	0.419591	-0.0792453	-0.132855	0.00601742	-0.0106512	-1.01733	0.300537	-0.0749512	0.444746	-0.0789064	-0.164963	-0.876791	2.87625	2.51368	9.62829	-0.038302	-0.00432689	-0.0409589	-0.535889	0.146729	-0.908691	0.310298	-0.85297	-0.393202	-0.146795	4.82098	-3.7688	-7.34943	-0.0340398	0.0236648	0.0309951	-0.191895	0.749023	0.735596	
11	-0.463177	0.505616	0.403642	0.605717	9.81012	0.175352	1.6956	-0.0341054	0.0264881	-0.00859004	-0.845459	0.423584	-0.036377	-0.530983	0.426988	0.384235	0.622979	9.42556	0.358177	3.30299	-0.0420485	0.0609291	-0.0282694	-0.751953	0.296875	-0.191895	0.824381	-0.124927	-0.195952	-0.516131	4.92543	-0.0170271	9.65208	0.00816628	0.0249615	-0.0289147	-0.316895	0.296631	-0.906006	0.0134478	0.0485275	-0.0947763	-0.994224	-0.915854	1.75653	9.55173	-0.00782241	0.00273175	-0.0153843	-0.303955	-0.150391	-0.926514	-0.508732	0.232928	0.236461	0.794369	5.97599	1.40393	7.71887	-0.073156	0.0151617	-0.0424076	-0.705078	0.234619	-0.638916	-0.994519	-0.00721622	-0.046666	0.0932804	-1.10349	-1.29816	13.2659	0.0223367	0.0254887	-0.0652593	0.544189	0.0705566	-0.901367	0.230465	-0.595596	-0.496845	-0.587619	8.79192	3.14784	-1.94947	-0.0438711	0.0960681	0.0136351	-0.899902	0.081543	0.407959	-0.48148	0.498088	0.479963	0.538258	9.99604	0.437228	0.284155	0.00637076	-0.0646522	-0.0544377	-0.996582	0.37915	-0.026123	-0.518364	0.440776	0.548729	0.485708	9.87321	0.625872	0.0406395	-0.18466	0.0383148	0.00368368	-1.01074	0.307373	-0.0683594	0.443552	-0.0793038	-0.164422	-0.877461	3.07678	2.19867	9.92793	-0.0216516	0.0254599	-0.0410381	-0.540283	0.146729	-0.904053	0.309844	-0.853571	-0.392041	-0.14737	4.98515	-4.04277	-7.54089	-0.0244251	0.0316809	0.0267536	-0.196289	0.746826	0.735596	
12	-0.46297	0.50549	0.403343	0.606179	9.86548	0.165633	1.71188	-0.0316397	0.0273416	-0.0209191	-0.843262	0.423828	-0.0385742	-0.530541	0.427077	0.383069	0.62401	9.36765	0.341733	3.23336	-0.073732	0.0354912	-0.0272104	-0.756592	0.301025	-0.196533	0.823916	-0.124979	-0.195461	-0.517047	4.87471	0.107809	9.63015	-0.0382957	0.014707	-0.042517	-0.310547	0.298828	-0.901611	0.0125854	0.0480291	-0.0943695	-0.994298	-0.963931	1.73117	9.61071	-0.00233224	-0.0213935	-0.0382396	-0.301758	-0.150391	-0.919922	-0.507978	0.233029	0.236021	0.794953	6.03682	1.38661	7.69697	-0.00906694	0.0145311	-0.0437872	-0.707275	0.234619	-0.641113	-0.994385	-0.00790719	-0.0466643	0.0946485	-1.09235	-1.29498	13.3649	0.0269664	0.0156051	-0.0740845	0.550537	0.0705566	-0.896973	0.229719	-0.596206	-0.495102	-0.588762	9.13224	2.84484	-2.12572	-0.0536275	0.0151141	0.00861612	-0.9021	0.0793457	0.406006	-0.479501	0.49949	0.477935	0.540525	10.1267	0.642073	0.694067	-0.234127	0.0685601	-0.0204319	-0.996582	0.381348	-0.0168457	-0.516577	0.443345	0.545841	0.488519	9.8756	0.719597	0.188574	-0.201886	0.0113525	-0.00432003	-1.01514	0.304932	-0.0683594	0.442349	-0.0796392	-0.16503	-0.877924	2.87343	2.31386	9.6966	0.0162491	-0.0235926	-0.0503951	-0.538086	0.144531	-0.910889	0.308732	-0.854246	-0.391192	-0.148041	5.00328	-3.86897	-7.38344	-0.0631246	0.0170444	0.0241173	-0.193848	0.744629	0.740234	
13	-0.461996	0.505675	0.402713	0.607186	9.7955	0.191196	1.64401	-0.0361501	-0.0151387	-0.00911311	-0.847412	0.419434	-0.0427246	-0.529892	0.427628	0.381974	0.624856	9.47464	0.201667	3.42055	-0.0584132	0.0248993	-0.0247543	-0.754639	0.30542	-0.189697	0.823144	-0.125444	-0.194877	-0.518383	5.01475	-0.165479	9.61952	-0.0221222	0.022845	-0.060151	-0.3125	0.294434	-0.901611	0.0112284	0.0474859	-0.0942407	-0.994353	-0.872238	1.85315	9.72089	-0.0141111	-0.0212517	-0.0532634	-0.303955	-0.148193	-0.917725	-0.506689	0.233407	0.235131	0.795928	6.02996	1.41502	7.81151	-0.0841875	0.0101846	-0.0655254	-0.705078	0.234619	-0.641113	-0.994213	-0.00821836	-0.0468905	0.0963073	-1.17679	-1.32078	13.4213	0.0240732	0.0282945	-0.0868784	0.543945	0.0771484	-0.899414	0.230521	-0.595778	-0.494152	-0.589679	9.04332	2.93723	-2.00243	-0.00270588	0.0919064	0.00719717	-0.904541	0.0859375	0.401367	-0.477736	0.501453	0.474558	0.543238	9.62611	-0.135722	0.0685102	-0.117839	0.0292319	-0.0040539	-0.992188	0.381348	-0.0144043	-0.515733	0.444965	0.544802	0.489097	9.90982	0.427559	-0.401998	0.00278354	-0.00723381	0.00805748	-1.01538	0.307129	-0.0661621	0.440634	-0.0800237	-0.165135	-0.878731	3.15158	2.309	9.71976	-0.0080332	-0.0038898	-0.0640637	-0.544678	0.144287	-0.913086	0.307713	-0.85515	-0.389823	-0.148559	4.82501	-4.25715	-7.41108	-0.0474781	0.022588	0.0441042	-0.189453	0.744629	0.74707	
14	-0.461542	0.505792	0.402088	0.607848	9.88672	0.28082	1.65184	-0.037458	0.0271186	-0.0103615	-0.843018	0.417236	-0.0383301	-0.529385	0.427919	0.381212	0.625551	9.31416	0.397405	3.32407	-0.0532677	0.019813	-0.0240102	-0.750244	0.30542	-0.19458	0.822581	-0.125149	-0.194224	-0.519592	4.86322	0.0415145	9.57371	-0.0283685	0.0296946	-0.0472992	-0.319092	0.294678	-0.903809	0.00982456	0.047103	-0.0936495	-0.994442	-0.839845	1.73149	9.60144	-0.0153897	-0.0126845	-0.0557884	-0.312744	-0.150391	-0.926514	-0.505523	0.23396	0.234066	0.79682	5.87234	1.06089	7.76168	-0.0370904	0.0118896	-0.0429606	-0.70752	0.239014	-0.636475	-0.994049	-0.00907714	-0.047403	0.0976542	-1.19697	-1.09396	13.3297	0.0396732	0.0411035	-0.0647645	0.548584	0.0683594	-0.90332	0.229883	-0.596061	-0.493198	-0.590441	8.85583	3.13045	-1.8704	-0.0387455	-0.0128217	-0.0116438	-0.902344	0.0837402	0.397217	-0.477782	0.501516	0.477013	0.540985	10.0636	0.571984	0.523657	0.144339	-0.0794298	-0.0196225	-0.992188	0.37915	-0.0144043	-0.516273	0.444664	0.54448	0.48916	9.92871	0.878714	-0.0664497	0.0212486	0.0552927	-0.00212522	-1.01562	0.313965	-0.064209	0.43968	-0.0805482	-0.16486	-0.879213	3.02575	2.14432	9.84488	-0.02326	-0.0106554	-0.0275173	-0.540039	0.142334	-0.910889	0.307778	-0.855572	-0.38875	-0.148801	4.97181	-4.12969	-7.45818	-0.0144404	0.022932	0.0308572	-0.193848	0.744629	0.744873	
15	-0.46137	0.505778	0.401049	0.608675	9.61134	0.186066	1.67112	-0.0333883	0.0268887	-0.00603974	-0.847412	0.419434	-0.0405273	-0.528647	0.428894	0.380595	0.625883	9.2391	0.19939	3.25474	-0.0601063	-0.0078236	-0.0151287	-0.756592	0.299072	-0.187256	0.822109	-0.125609	-0.193126	-0.520636	4.94451	-0.212666	9.39702	-0.0262595	0.0308732	-0.028337	-0.3125	0.296631	-0.89917	0.00893488	0.0466546	-0.0935011	-0.994485	-0.791489	1.74729	9.43493	0.00753134	-0.0144211	-0.0236268	-0.310791	-0.148193	-0.928711	-0.50501	0.233791	0.233757	0.797286	5.80637	1.39397	7.72407	-0.0312474	0.0255284	-0.0311493	-0.70752	0.23877	-0.634277	-0.993925	-0.0093622	-0.0479469	0.0986231	-1.15651	-1.1041	13.1802	0.0121777	0.0333223	-0.0566162	0.543945	0.0749512	-0.89917	0.230068	-0.596258	-0.492461	-0.590786	8.95683	2.66075	-2.12122	0.0153109	0.0507046	0.00764538	-0.897949	0.0837402	0.407959	-0.477225	0.501681	0.476543	0.541737	10.0104	0.61557	0.666251	-0.0774968	0.0617859	-0.0391281	-0.996582	0.37915	-0.0144043	-0.513839	0.447086	0.540576	0.493823	9.74748	1.06896	0.390201	-0.195774	0.0391301	-0.0421366	-1.01074	0.307129	-0.0595703	0.438949	-0.0800548	-0.164751	-0.879643	3.21356	2.25548	9.92642	0.0035006	0.0541471	-0.0289823	-0.54248	0.142334	-0.910889	0.307772	-0.855777	-0.388105	-0.149324	5.19029	-4.35214	-7.48881	0.00734512	0.0390147	0.00432989	-0.189453	0.744629	0.740234	
16	-0.461279	0.505574	0.401209	0.608808	9.78623	0.297275	1.76296	0.0153668	-0.00975731	-0.00317224	-0.845215	0.419434	-0.0405273	-0.528486	0.429333	0.380233	0.625938	9.27882	0.227572	3.18186	-0.0522251	0.00478199	-0.00202325	-0.75	0.30127	-0.189697	0.822086	-0.125544	-0.192988	-0.520738	5.01397	-0.157373	9.38049	0.000613906	0.0176551	-0.00823272	-0.310547	0.296631	-0.903809	0.00888448	0.0464148	-0.0937031	-0.994478	-0.855349	1.85229	9.41978	0.0196576	-0.0134481	-0.000932769	-0.312744	-0.150391	-0.922119	-0.504602	0.234597	0.232089	0.797795	5.84607	1.30523	7.49552	-0.0826471	0.005648	-0.00608334	-0.705322	0.239014	-0.636475	-0.993867	-0.00958622	-0.0482629	0.0990337	-1.14624	-1.21609	13.1508	0.0227616	0.0419948	-0.0506562	0.550537	0.0749512	-0.897217	0.230295	-0.596342	-0.491968	-0.591023	9.04196	2.99879	-1.90106	-0.00221054	0.00694291	0.00561906	-0.897949	0.0859375	0.403564	-0.476358	0.501895	0.474968	0.543682	9.9239	0.424498	0.650481	-0.180859	0.11129	-0.0567923	-0.994629	0.383545	-0.012207	-0.512284	0.448529	0.539012	0.495835	9.82257	0.711374	0.168882	-0.257835	0.0171287	-0.0449229	-1.01318	0.311768	-0.0661621	0.438722	-0.0794871	-0.164499	-0.879855	2.93201	2.31208	9.88437	0.000526806	0.0603193	-0.0255424	-0.544434	0.140137	-0.901611	0.308343	-0.855588	-0.387925	-0.149696	4.99688	-4.01701	-7.4104	0.0319905	0.0551243	-0.000418638	-0.193848	0.740234	0.740234	
17	-0.461574	0.505906	0.401275	0.608265	9.87275	0.320658	1.74475	0.0212932	-0.0332379	0.0408278	-0.84082	0.417236	-0.0427246	-0.528731	0.430576	0.379357	0.625408	9.6043	0.208377	3.36107	-0.0454798	-0.00429617	0.0393653	-0.748047	0.30542	-0.1875	0.82202	-0.126252	-0.192743	-0.520762	5.003	-0.260351	9.62451	-0.0333483	-0.0139859	0.00980053	-0.319092	0.296875	-0.903809	0.00909158	0.046124	-0.0938586	-0.994475	-0.860437	1.97334	9.48487	0.0146009	-0.0151714	0.0198837	-0.312988	-0.148193	-0.917725	-0.504482	0.23544	0.231616	0.797759	5.99789	1.19102	7.52748	-0.0659445	-0.0302295	0.007011	-0.70752	0.243408	-0.643555	-0.993743	-0.00943954	-0.0496633	0.0995908	-1.32783	-1.44422	13.1523	-0.021987	0.0798848	-0.0384804	0.552734	0.0727539	-0.892822	0.230252	-0.596911	-0.491639	-0.590739	9.20597	3.02408	-1.94302	-0.000239238	-0.0239392	0.0249791	-0.9021	0.081543	0.399414	-0.474757	0.502817	0.474302	0.54481	9.80408	0.0160289	0.0414057	0.00349906	-0.0475456	-0.0348691	-1.00098	0.381348	-0.0144043	-0.510064	0.450587	0.536426	0.499053	10.0171	0.201354	-0.140186	-0.142093	0.0286828	-0.0351365	-1.01318	0.30957	-0.0639648	0.438008	-0.0790471	-0.164131	-0.880319	2.8825	2.10706	9.56411	-0.0112361	0.0192939	-0.0317381	-0.537598	0.137939	-0.903809	0.30825	-0.85581	-0.387203	-0.150482	4.67961	-3.88963	-7.25311	-0.0340304	0.032222	0.0191863	-0.196045	0.740234	0.742676	
18	-0.462335	0.507341	0.400792	0.606809	9.82636	0.279729	1.6552	-0.0115873	-0.0439917	0.0807092	-0.836914	0.428223	-0.036377	-0.52862	0.432181	0.378238	0.625073	9.32217	0.171612	3.37811	-0.073821	-0.0115602	0.0251771	-0.750244	0.303467	-0.182617	0.82228	-0.12788	-0.192436	-0.520067	4.87158	-0.0325351	9.79369	-0.0598857	-0.00940686	0.0446441	-0.314941	0.301025	-0.901611	0.00947513	0.0443325	-0.0965408	-0.994296	-0.768062	1.90474	9.59021	0.103123	-0.0675363	0.000879733	-0.3125	-0.15918	-0.915283	-0.504059	0.237773	0.23175	0.797296	5.96177	1.14537	7.78738	-0.0412945	-0.0821843	0.000974177	-0.711914	0.240967	-0.627441	-0.993646	-0.00756347	-0.0514797	0.0997975	-1.32487	-1.29426	13.2418	-0.0909909	0.0753956	-0.022652	0.556885	0.0771484	-0.892822	0.230226	-0.597844	-0.491468	-0.589948	8.84315	2.80669	-1.98386	0.0217931	-0.0388676	0.00860543	-0.897949	0.0859375	0.397217	-0.474941	0.503017	0.475215	0.543668	9.96028	0.330101	0.344346	0.0396592	-0.00133702	-0.00741729	-1.00073	0.37915	-0.00732422	-0.508957	0.451371	0.534473	0.501564	9.82231	0.603141	0.0075125	-0.167382	0.0409741	-0.0393186	-1.01099	0.313965	-0.057373	0.437683	-0.0786887	-0.163938	-0.880549	2.94744	2.26601	9.90024	0.0107678	0.0300017	-0.00105831	-0.5354	0.137939	-0.913086	0.308416	-0.855846	-0.386862	-0.150812	4.92375	-4.13827	-7.43394	0.0295731	0.0233402	-0.00188134	-0.193848	0.744629	0.742432	
19	-0.462531	0.508794	0.399526	0.606278	9.7603	0.0792401	1.6412	-0.0511877	-0.0141606	0.0546997	-0.841064	0.421631	-0.036377	-0.52857	0.433607	0.377587	0.624521	9.29129	0.144041	3.21325	-0.0364936	-0.0285868	0.0287826	-0.748291	0.309814	-0.182861	0.82225	-0.130397	-0.190587	-0.520171	4.749	-0.161107	9.53842	-0.127751	0.0119299	0.0166217	-0.314941	0.303223	-0.899414	0.00873256	0.0422839	-0.0971292	-0.994335	-0.767826	1.72522	9.66924	-0.00868071	-0.0751402	-0.0210924	-0.3125	-0.156982	-0.919678	-0.504067	0.239536	0.23211	0.796658	6.04607	1.20868	7.72187	-0.012125	-0.0570417	0.0212557	-0.709717	0.240967	-0.63208	-0.993583	-0.00757657	-0.0529525	0.0996558	-1.27032	-1.2203	13.3708	0.0338675	0.0756457	-0.018353	0.556885	0.0749512	-0.890625	0.229345	-0.59931	-0.491819	-0.588509	8.96179	2.89218	-1.98951	0.0244426	-0.0948111	-0.00795737	-0.900146	0.0881348	0.409912	-0.474564	0.503233	0.474776	0.544182	9.85377	0.598243	0.291236	-0.0611471	0.0426631	-0.0180013	-0.998535	0.374756	-0.00976562	-0.508424	0.451467	0.533647	0.502895	9.848	0.935769	0.0554258	-0.0467953	0.0324558	-0.0455869	-1.01343	0.318604	-0.0595703	0.437704	-0.0787431	-0.164085	-0.880506	2.88684	2.27388	9.72558	0.011375	0.00367393	0.00643193	-0.535645	0.144531	-0.908691	0.308313	-0.855852	-0.386937	-0.150796	5.02883	-4.14291	-7.43445	0.00119376	0.00283581	-0.0185637	-0.198486	0.744629	0.740234	
20	-0.462589	0.510534	0.398261	0.605603	9.79284	-0.10566	1.67377	-0.0476023	-0.0414363	0.0728892	-0.832764	0.432617	-0.0341797	-0.528493	0.435091	0.37721	0.623781	9.51011	0.0478697	3.29376	-0.036239	-0.0257802	0.020442	-0.748047	0.307861	-0.18042	0.822141	-0.131593	-0.189811	-0.520327	4.89648	-0.264918	9.42653	-0.0337875	0.00177768	-0.00375227	-0.310791	0.311768	-0.899658	0.00808073	0.0409216	-0.0981525	-0.994297	-0.711182	1.74403	9.57795	0.0792336	-0.0421418	-0.0137499	-0.314453	-0.163574	-0.913086	-0.503701	0.241367	0.232063	0.796351	6.14305	1.26424	7.7294	-0.0429783	-0.0581048	-0.00844751	-0.711914	0.23877	-0.625244	-0.993467	-0.00664565	-0.0549112	0.0998228	-1.2569	-1.24075	13.391	-0.0773505	0.0920952	-0.0333598	0.561035	0.081543	-0.884521	0.227767	-0.601628	-0.493098	-0.58568	9.0289	2.95276	-2.03249	0.026356	-0.155281	-0.010159	-0.886963	0.081543	0.418701	-0.474022	0.5036	0.474079	0.544922	9.93231	0.253886	0.420754	-0.0191168	0.0209361	-0.0144927	-0.996582	0.381348	-0.0144043	-0.507784	0.451852	0.532891	0.503996	9.84122	0.496141	0.110431	-0.0487047	0.00227566	-0.0287256	-1.01318	0.311768	-0.0595703	0.438307	-0.0775502	-0.164529	-0.880229	2.88325	2.35698	9.73212	0.0363254	0.0190227	0.0201152	-0.54248	0.144531	-0.910889	0.308406	-0.855503	-0.387571	-0.150962	4.84949	-3.98852	-7.34357	0.00796112	0.00695887	-0.0308321	-0.193848	0.742432	0.742432	
21	-0.462504	0.51234	0.397662	0.604535	9.74408	-0.227	1.58144	-0.0270717	-0.0636204	0.0458877	-0.84375	0.430176	-0.0319824	-0.528032	0.436248	0.376831	0.623594	9.55102	0.119596	3.29927	-0.0419266	-0.0189783	-0.00887824	-0.754883	0.312012	-0.175781	0.822018	-0.132058	-0.189856	-0.520386	4.76904	-0.293487	9.43039	-0.0270565	-0.0185971	-0.00356916	-0.314941	0.311768	-0.899658	0.00776626	0.0406432	-0.100254	-0.994101	-0.777386	2.07845	9.48184	0.0745556	-0.00046545	-0.0104374	-0.321045	-0.163574	-0.915283	-0.50275	0.243337	0.232153	0.796326	6.33298	1.20232	7.84998	-0.0437962	-0.0644776	-0.0296669	-0.720459	0.23877	-0.622803	-0.993303	-0.00490873	-0.0565257	0.100651	-1.40868	-1.46444	13.3457	-0.0557343	0.05705	-0.059827	0.562988	0.0834961	-0.893066	0.226206	-0.603156	-0.493501	-0.584372	9.17184	2.86219	-2.18513	0.0157466	-0.0746707	-0.0229284	-0.889404	0.0881348	0.41626	-0.474398	0.503612	0.473104	0.545431	9.96382	0.33458	0.546312	-0.0206283	0.0626968	0.00350328	-0.996826	0.383545	-0.012207	-0.507926	0.451199	0.533718	0.503563	9.85801	0.723318	0.296349	0.0498964	-0.00871426	-0.0407621	-1.00806	0.302734	-0.0549316	0.43843	-0.0777489	-0.165003	-0.880061	2.82345	2.49663	9.59208	-0.00907474	-0.00692503	0.000501938	-0.538086	0.144531	-0.915527	0.308506	-0.855515	-0.387561	-0.150715	4.94849	-3.82812	-7.3058	0.0147026	-0.00304024	0.0149653	-0.194092	0.746826	0.735596	
22	-0.46143	0.514217	0.398098	0.603475	9.97398	-0.182429	1.4687	-0.0290648	-0.100732	-0.00167788	-0.839355	0.430176	-0.0234375	-0.527099	0.437252	0.37678	0.62371	9.46774	0.0606118	3.20941	-0.0689225	-0.0173013	-0.0321931	-0.750732	0.316406	-0.173584	0.82112	-0.134284	-0.190399	-0.521035	4.92551	-0.301088	9.59177	-0.0506414	-0.0326119	-0.0257213	-0.317139	0.313965	-0.9021	0.00729177	0.0405311	-0.101021	-0.994032	-0.793236	2.12492	9.52793	0.0661451	-0.00667717	-0.0335664	-0.318848	-0.165771	-0.91748	-0.502077	0.243607	0.233082	0.796396	6.23366	1.2149	7.8314	0.033277	-0.0131317	-0.0401194	-0.716309	0.243164	-0.622803	-0.993297	-0.00386279	-0.0563738	0.100833	-1.4138	-1.49788	13.4038	-0.0112517	-0.00951683	-0.0180708	0.558838	0.081543	-0.893066	0.224948	-0.604954	-0.494546	-0.582111	9.01212	3.05094	-1.93052	0.0183862	-0.13233	-0.00979154	-0.887207	0.0859375	0.427002	-0.47498	0.503288	0.472913	0.545388	9.83121	0.209785	0.34674	0.0335533	0.0570846	0.0054785	-0.994385	0.37915	-0.012207	-0.509858	0.448994	0.537497	0.499546	9.82491	0.513473	-0.185648	0.284716	-0.0836251	0.00466067	-1.01074	0.307129	-0.0595703	0.438125	-0.0781352	-0.164975	-0.880184	2.92202	2.45725	9.70696	-0.0160449	-0.0165863	-0.0172325	-0.535645	0.140137	-0.910889	0.308442	-0.855757	-0.387139	-0.150556	5.03626	-3.89286	-7.37408	-0.00942898	-2.49262e-05	0.0357508	-0.196045	0.742432	0.742432	
23	-0.460005	0.515506	0.398779	0.603013	9.98349	0.00579992	1.31693	-0.0352101	-0.0595412	-0.010269	-0.841553	0.432373	-0.0192871	-0.526545	0.437662	0.376886	0.623827	9.54897	0.123983	3.21964	-0.0200324	-0.00257327	-0.0370239	-0.743896	0.312256	-0.173584	0.820504	-0.135405	-0.190893	-0.521535	5.05703	-0.323915	9.57757	-0.0213449	-0.0333978	-0.0257574	-0.321533	0.312012	-0.899658	0.00550857	0.0402853	-0.100653	-0.99409	-0.698198	1.8504	9.76726	-0.0213478	0.00140424	-0.0405005	-0.320801	-0.167969	-0.915283	-0.501536	0.243337	0.2341	0.796521	6.18896	1.27626	7.82232	0.0254724	-0.0157609	-0.0503156	-0.718506	0.240967	-0.625244	-0.993333	-0.0043839	-0.0554666	0.100967	-1.36789	-1.29149	13.4716	0.0235093	-0.0172333	-0.025403	0.558838	0.081543	-0.886475	0.222751	-0.607332	-0.494582	-0.580447	8.98433	2.90041	-2.18363	-0.0326698	-0.115788	-0.00633888	-0.880615	0.0859375	0.43335	-0.476964	0.502604	0.475832	0.541736	10.0728	0.977628	0.75289	0.0798936	-0.0357292	-0.0122337	-0.996338	0.376953	-0.00976562	-0.510907	0.447974	0.537993	0.498857	9.74501	1.62843	0.411321	-0.172829	0.0341391	-0.0201263	-1.02002	0.309326	-0.0661621	0.43676	-0.0801128	-0.165283	-0.880627	3.01634	2.37449	9.82037	-0.0175425	-0.0621684	-0.032633	-0.539795	0.135742	-0.908447	0.308021	-0.856922	-0.385177	-0.149823	5.24659	-4.03415	-7.53022	-0.0408495	-0.0158731	0.0652854	-0.187012	0.740234	0.740234	
24	-0.459611	0.515856	0.39874	0.60304	9.85198	-0.0351689	1.25251	-0.0305098	-0.0288166	-0.0087915	-0.837158	0.432373	-0.0212402	-0.526229	0.437572	0.377139	0.624004	9.35874	0.0752142	3.14901	-0.00869187	0.00452462	-0.0528635	-0.750488	0.312256	-0.175781	0.820268	-0.135654	-0.190929	-0.521829	4.90047	-0.275482	9.54604	-0.0186786	-0.00789769	-0.026648	-0.314941	0.313965	-0.895264	0.0049923	0.0404105	-0.101058	-0.994047	-0.643267	1.75542	9.72081	0.0371266	0.0119839	-0.0398686	-0.318604	-0.170166	-0.921631	-0.500961	0.242703	0.234507	0.796957	6.09453	1.13356	7.68987	0.0157123	0.0144833	-0.0426259	-0.718262	0.23877	-0.620605	-0.993355	-0.00398049	-0.0551008	0.100961	-1.3438	-1.16333	13.4782	-0.0237398	-0.0177717	-0.0199554	0.558838	0.0834961	-0.886719	0.220804	-0.609501	-0.494738	-0.578782	8.77461	2.69583	-2.33469	-0.0434362	-0.249483	0.00166197	-0.88501	0.0859375	0.439697	-0.476615	0.502948	0.475071	0.542392	9.85221	0.909058	0.571992	-0.0799939	0.0429808	-0.0124119	-0.996582	0.383545	-0.00976562	-0.510669	0.448341	0.537288	0.499529	9.65263	0.676582	0.397526	-0.0754515	0.0324379	-0.0154634	-1.01538	0.307129	-0.0617676	0.436139	-0.0803544	-0.164933	-0.880978	3.19023	2.32394	10.1676	-0.0394328	0.00207969	-0.0467438	-0.542236	0.140137	-0.910889	0.307728	-0.857252	-0.384677	-0.149823	5.50965	-4.24722	-7.61267	-0.0318345	0.00445274	0.0362012	-0.187256	0.744629	0.74707	
25	-0.45918	0.515789	0.398845	0.603357	9.85789	0.0316617	1.36895	-0.00304727	0.00670957	-0.0263766	-0.841309	0.427979	-0.019043	-0.525943	0.43724	0.377833	0.624058	9.28721	0.178563	3.0596	0.0112213	-0.000775785	-0.0365995	-0.750488	0.310059	-0.171143	0.819885	-0.135338	-0.191004	-0.522484	4.9176	-0.252267	9.4305	0.0240433	0.00871821	-0.0335496	-0.321533	0.314209	-0.892822	0.0045938	0.041142	-0.101026	-0.994022	-0.772922	1.84578	9.52555	-0.0158222	0.0409267	-0.00933464	-0.318848	-0.163574	-0.915283	-0.500945	0.242187	0.234427	0.797147	6.00855	1.29038	7.52695	0.0115979	0.0471288	-0.0277603	-0.718262	0.23877	-0.620605	-0.993338	-0.00404966	-0.0546905	0.101348	-1.28564	-1.26201	13.2024	0.0310682	0.00547972	-0.0392143	0.561035	0.0834961	-0.884521	0.217032	-0.613026	-0.494954	-0.576296	8.6782	3.16568	-2.16843	-0.0760956	-0.20436	-0.0243937	-0.876221	0.0837402	0.450439	-0.475478	0.503584	0.4725	0.54504	9.83438	0.38495	0.601493	-0.176279	0.0906169	-0.0344242	-0.992432	0.383545	-0.00976562	-0.509272	0.44997	0.535878	0.501003	9.80326	0.75505	0.106522	-0.13549	-0.012487	-0.0158651	-1.0105	0.304932	-0.0661621	0.435552	-0.0793475	-0.165264	-0.881298	2.86133	2.37957	9.90451	0.0325641	0.0306214	-0.0294025	-0.544678	0.14209	-0.908447	0.3079	-0.857242	-0.384144	-0.150889	5.09237	-4.0573	-7.38734	-0.00761754	0.0587459	0.00202221	-0.19165	0.744629	0.744873	
26	-0.458928	0.515758	0.398877	0.603553	9.86962	0.204866	1.4452	-0.0116137	-0.00820886	-0.00250339	-0.839355	0.430176	-0.019043	-0.525802	0.437339	0.378064	0.623966	9.59012	0.138491	3.22119	-0.00289763	-0.00778503	-0.0259537	-0.750488	0.312256	-0.171143	0.819453	-0.134957	-0.191829	-0.522958	5.09588	-0.364367	9.63813	0.0256219	-0.0187176	-0.0265311	-0.317139	0.313965	-0.895264	0.00456062	0.0415884	-0.101754	-0.993929	-0.708282	2.1228	9.49285	0.062843	0.0163314	-0.00137781	-0.31665	-0.165771	-0.919678	-0.500455	0.242153	0.23387	0.797629	6.25172	1.44369	7.5042	-0.0379108	-0.00209851	-0.0392087	-0.720703	0.243164	-0.620605	-0.993238	-0.00338151	-0.0546727	0.102363	-1.28916	-1.6195	13.155	-0.0463526	0.0127477	-0.0684181	0.558838	0.0834961	-0.888916	0.213275	-0.616392	-0.494167	-0.574781	9.31773	2.87791	-2.70467	-0.0792424	-0.113859	0.00690359	-0.876221	0.081543	0.458984	-0.474606	0.504117	0.472108	0.545645	9.80222	0.189422	0.179988	0.0181107	-0.0162827	-0.0269361	-0.996582	0.37915	-0.012207	-0.508918	0.450606	0.534808	0.501934	9.93191	0.580121	-0.12006	-0.073292	0.0336545	-0.0110853	-1.02026	0.313965	-0.0617676	0.434413	-0.0790465	-0.164667	-0.881999	2.94417	2.24306	9.57775	-0.0335433	0.0369438	-0.0453655	-0.544434	0.140137	-0.904053	0.308146	-0.85736	-0.383293	-0.151876	4.78273	-4.03325	-7.29758	-0.0107853	0.0479451	0.0155545	-0.193848	0.744629	0.740234	
27	-0.458529	0.516182	0.398362	0.603834	9.90923	0.123169	1.42351	-0.0339171	0.00488774	-0.0050653	-0.84375	0.430176	-0.0170898	-0.524885	0.437496	0.377278	0.625103	9.35097	0.252051	3.1874	-0.0423162	0.0448104	-0.0335768	-0.75708	0.312012	-0.175781	0.819179	-0.135489	-0.191803	-0.52326	5.02771	-0.00264482	9.65049	-0.0455876	7.89126e-05	-0.015329	-0.323486	0.309814	-0.897217	0.00384647	0.0410832	-0.102743	-0.993852	-0.830545	2.08061	9.57022	0.0154776	-0.0256615	-0.029741	-0.313965	-0.172363	-0.919434	-0.499314	0.24329	0.23371	0.798044	6.02595	1.1002	7.69664	-0.033069	-0.0301175	-0.0374831	-0.716064	0.23877	-0.625244	-0.993145	-0.00263592	-0.0546914	0.103274	-1.30101	-1.48906	13.2326	0.00508131	0.00926932	-0.0468676	0.558594	0.0900879	-0.888916	0.212184	-0.617019	-0.49316	-0.575377	8.62102	2.88849	-2.35576	-0.0568189	-0.0121041	-0.0173847	-0.874023	0.0837402	0.463379	-0.47405	0.504556	0.472649	0.545255	10.0018	0.362479	0.465612	-0.00916859	-0.00015925	-0.0287591	-0.994385	0.37915	-0.012207	-0.508302	0.451477	0.533013	0.503681	9.81929	0.727175	0.313367	-0.117823	0.0390286	-0.0208422	-1.01587	0.318604	-0.0598145	0.433594	-0.0791626	-0.164719	-0.882381	2.95676	2.15838	9.81177	0.00907517	-0.0124306	-0.026581	-0.544434	0.140137	-0.908447	0.307661	-0.857793	-0.382549	-0.152287	4.91986	-4.12125	-7.34812	-0.0348484	0.0112201	0.0184953	-0.193848	0.740234	0.744873	
28	-0.458324	0.516024	0.397644	0.604597	9.74014	0.0629313	1.49273	-0.0266909	0.0314551	-0.00469807	-0.841309	0.427979	-0.0234375	-0.524545	0.437912	0.376833	0.625366	9.18595	0.11907	3.15825	-0.0487851	-0.00431339	-0.0121181	-0.752686	0.314209	-0.176025	0.818795	-0.136528	-0.190561	-0.524043	4.95076	-0.276509	9.42443	-0.0490154	0.0311767	-0.0199393	-0.323486	0.312012	-0.89502	0.00256649	0.040094	-0.101737	-0.994	-0.778988	1.7937	9.57705	-0.0368087	-0.0387514	-0.0472933	-0.322998	-0.172363	-0.915039	-0.49937	0.243094	0.234341	0.797884	5.9687	1.29682	7.68807	0.0311149	0.00975756	-0.0135499	-0.718506	0.240967	-0.625244	-0.993146	-0.00364684	-0.0544539	0.103357	-1.19275	-1.21205	13.3162	0.0463973	0.0109581	-0.0140166	0.556152	0.0922852	-0.886963	0.21022	-0.618951	-0.493082	-0.574089	8.75355	2.85796	-2.68237	0.00151169	-0.108538	-0.00616636	-0.873779	0.0771484	0.463379	-0.473244	0.505197	0.471032	0.546759	9.87503	0.394501	0.469849	-0.122784	0.0565739	-0.0186838	-0.996338	0.376953	-0.00976562	-0.507436	0.452237	0.532182	0.504751	9.7522	0.789176	0.18836	-0.048469	-0.00514116	-0.0259928	-1.01562	0.311768	-0.0664062	0.432941	-0.0788624	-0.164827	-0.882709	2.93498	2.29354	9.74212	0.0117822	0.0295769	-0.0242196	-0.544189	0.133545	-0.908447	0.307484	-0.858	-0.382063	-0.1527	4.89119	-4.20463	-7.30055	-0.00450244	0.0245353	0.00618421	-0.193604	0.73584	0.749512	
29	-0.458468	0.516117	0.397137	0.604742	9.82368	0.0632537	1.59254	-0.0105717	-0.00237214	0.0227914	-0.843506	0.427979	-0.027832	-0.524281	0.438645	0.376511	0.625268	9.59144	0.0759541	3.25897	-0.0315434	0.00145789	-0.00184411	-0.752686	0.312012	-0.175781	0.818409	-0.136624	-0.190522	-0.524635	5.03403	-0.393506	9.41689	0.00128006	-0.00409706	-0.0286308	-0.321533	0.318359	-0.9021	0.00193679	0.0397422	-0.102041	-0.993984	-0.656998	1.89831	9.57123	0.0280797	-0.00175018	-0.00941051	-0.314209	-0.170166	-0.910645	-0.499157	0.243189	0.234075	0.798066	6.19589	1.38146	7.65141	-0.0345753	0.000730791	-0.0205105	-0.722656	0.236572	-0.622803	-0.993094	-0.00339893	-0.0547707	0.103696	-1.28877	-1.29591	13.2979	-0.0185138	0.0310414	-0.0441426	0.560547	0.0922852	-0.891113	0.209048	-0.620609	-0.493445	-0.572411	8.89134	3.02065	-2.50801	0.0188993	-0.0980756	-0.00653582	-0.873779	0.0751953	0.467773	-0.47256	0.505949	0.46994	0.547594	9.79381	0.0444192	0.168046	-0.018312	-0.00250687	-0.0117783	-0.996826	0.385742	-0.00756836	-0.507525	0.451829	0.532747	0.50443	9.91277	0.716323	0.0423526	0.0719739	0.00591289	-0.0338005	-1.01538	0.307129	-0.0639648	0.432633	-0.078784	-0.164651	-0.8829	2.90628	2.22115	9.63862	-0.0139224	0.0178034	-0.0109225	-0.546631	0.139893	-0.908447	0.307869	-0.858009	-0.381658	-0.152889	4.83509	-4.06515	-7.27798	0.00935958	0.0196371	0.0117101	-0.19165	0.742432	0.744873	
30	-0.458449	0.51671	0.39714	0.604247	9.85432	-0.0425701	1.53809	0.000974261	-0.0307213	0.0116271	-0.837158	0.432373	-0.0212402	-0.524275	0.438775	0.376112	0.625421	9.50976	0.120353	3.21971	-0.0236347	0.024977	-0.0123304	-0.750488	0.314453	-0.171143	0.818158	-0.136786	-0.19104	-0.524796	5.1001	-0.296197	9.62037	0.000827851	-0.0199594	-0.00964951	-0.325928	0.318604	-0.897461	0.00202315	0.0396584	-0.103071	-0.993881	-0.667521	2.20413	9.56197	0.0439679	-0.000816447	0.0069448	-0.318604	-0.167969	-0.910889	-0.498452	0.244101	0.233424	0.798419	6.17245	1.04502	7.71659	-0.034142	-0.00826383	-0.0206372	-0.720459	0.23877	-0.620605	-0.993026	-0.00232975	-0.0551293	0.104185	-1.42744	-1.49298	13.3039	-0.039712	0.0210141	-0.0331372	0.562744	0.0922852	-0.882568	0.207076	-0.623195	-0.493978	-0.569854	8.88381	2.80211	-2.58263	0.0239466	-0.18277	-0.00298493	-0.863037	0.0793457	0.484619	-0.473447	0.50574	0.471511	0.545667	10.0688	0.449482	0.538687	0.0924218	-0.0305412	0.00657101	-0.992432	0.385742	-0.00756836	-0.50793	0.451136	0.533264	0.504096	9.87304	0.761586	0.322049	0.0538971	0.0126697	-0.026836	-1.01733	0.30249	-0.0639648	0.432115	-0.0793523	-0.164574	-0.883117	2.86033	2.33949	9.88245	-0.0141037	-0.0161093	-0.0155419	-0.539795	0.133545	-0.908447	0.307747	-0.858411	-0.380961	-0.152615	5.02381	-4.08718	-7.37572	-0.00636186	-0.00409439	0.0321666	-0.186768	0.73584	0.747314	
31	-0.458296	0.517147	0.397704	0.603618	9.7611	-0.0421869	1.44222	0.0191864	-0.043062	0.00231163	-0.839355	0.430176	-0.0212402	-0.524445	0.439084	0.375533	0.62541	9.4421	0.0886308	3.26615	-0.0262774	0.0247067	0.003599	-0.752441	0.310059	-0.168701	0.818099	-0.137751	-0.190584	-0.524801	5.00026	-0.356334	9.61092	-0.0417801	0.0133211	0.0112801	-0.328125	0.320801	-0.893066	0.00176665	0.0391356	-0.103163	-0.993893	-0.639317	2.07941	9.66193	-0.0154693	-0.0213715	-0.0120139	-0.320557	-0.174805	-0.908447	-0.498884	0.243815	0.234183	0.798014	6.14064	1.19204	7.6606	0.0476828	0.00406926	0.00659251	-0.720215	0.234375	-0.622803	-0.993081	-0.00225395	-0.0551615	0.103646	-1.42357	-1.42549	13.299	0.0216232	0.0155924	0.0105614	0.554199	0.0922852	-0.884766	0.204586	-0.626065	-0.495062	-0.566658	8.76465	3.08176	-2.75015	0.00359897	-0.162181	-0.0189103	-0.858887	0.081543	0.490967	-0.473995	0.505223	0.471803	0.545417	10.0064	0.628784	0.522063	0.0343264	0.0187965	-0.00752842	-0.99707	0.390137	-0.012207	-0.507965	0.450888	0.533383	0.504156	9.80784	1.07248	0.263088	-0.0157888	0.00850168	-0.0274933	-1.01562	0.311768	-0.0639648	0.431814	-0.0795932	-0.164373	-0.88328	3.15933	2.24606	10.0911	-0.0111094	0.0300941	-8.99128e-05	-0.546631	0.139893	-0.908447	0.307895	-0.858622	-0.380433	-0.152444	5.30528	-4.4777	-7.57059	0.0188332	0.0159084	0.00884124	-0.189209	0.738037	0.74707	
32	-0.458267	0.51742	0.398036	0.603188	9.83806	0.0340104	1.40253	0.0192432	-0.0463782	0.00781283	-0.832764	0.432373	-0.0234375	-0.524564	0.439062	0.375321	0.625454	9.45993	0.0741223	3.17159	-0.0154321	0.0294865	-0.00662085	-0.748291	0.312256	-0.173584	0.818195	-0.137758	-0.190143	-0.52481	4.90969	-0.357718	9.56069	-0.0139971	0.0356212	0.00771009	-0.31958	0.322754	-0.893066	0.00157914	0.0387301	-0.1024	-0.993988	-0.639226	1.87385	9.61548	-0.0581047	-0.0277586	-0.0130124	-0.322998	-0.17041	-0.910645	-0.499189	0.244147	0.233973	0.797784	6.1983	1.21019	7.62791	-0.0237006	-0.000382176	0.00929358	-0.727051	0.240967	-0.622803	-0.993114	-0.0029714	-0.0551396	0.10332	-1.36075	-1.30658	13.3101	0.0612404	0.0189294	0.0112525	0.558838	0.0834961	-0.893066	0.203735	-0.626756	-0.495016	-0.56624	8.70893	3.18938	-2.66974	-0.0226552	-0.0731684	-0.0179664	-0.861084	0.081543	0.489014	-0.473882	0.505102	0.471584	0.545818	9.82907	0.545767	0.393812	-0.0205191	0.0407488	-0.0332195	-0.994629	0.383545	-0.012207	-0.507901	0.450866	0.533331	0.504296	9.85702	0.97275	0.189241	-0.00413503	0.00976735	-0.0273112	-1.01782	0.313965	-0.0595703	0.431979	-0.0792099	-0.164059	-0.883292	2.98628	2.26575	10.1222	-0.00506934	0.0535193	0.0118332	-0.541992	0.131348	-0.912842	0.30832	-0.858401	-0.38052	-0.152612	5.20721	-4.27532	-7.46966	0.0334283	0.0298941	-0.0163881	-0.187012	0.742432	0.74707	
33	-0.458568	0.518026	0.397796	0.602597	9.8801	0.0437113	1.40312	-0.0145425	0.00750705	0.0187909	-0.837402	0.438965	-0.0214844	-0.524595	0.439137	0.374956	0.625593	9.4381	0.0774972	3.12124	-0.0282166	0.0209417	-0.012725	-0.752686	0.312256	-0.173584	0.818303	-0.13768	-0.189732	-0.524811	4.93138	-0.30854	9.49203	-0.00905843	0.015007	0.00429077	-0.321533	0.316406	-0.895264	0.00145807	0.0382049	-0.102208	-0.994028	-0.643398	1.83054	9.56386	0.0272091	-0.00927523	0.00200849	-0.322998	-0.172363	-0.915039	-0.499138	0.244576	0.233729	0.797756	6.21659	1.34081	7.5902	-0.0144725	-0.00566193	-0.0112393	-0.718262	0.236572	-0.618408	-0.993131	-0.00304079	-0.0554417	0.102997	-1.28235	-1.3347	13.3455	-0.020127	0.0297127	-0.0123406	0.562988	0.0878906	-0.888916	0.199413	-0.63049	-0.495796	-0.562942	8.80649	2.81736	-2.74809	-0.0253312	-0.187494	-0.0252327	-0.850342	0.081543	0.505859	-0.473691	0.504653	0.471754	0.546252	9.97692	0.457914	0.513649	-0.00948258	0.032879	-0.040439	-0.998779	0.381348	-0.00756836	-0.507621	0.450986	0.53297	0.504851	9.81515	0.825661	0.33324	-0.0556046	0.0115112	-0.0260722	-1.0105	0.304932	-0.0595703	0.432465	-0.0782067	-0.163833	-0.883185	2.78045	2.26248	9.78958	0.0165778	0.0539777	0.0192452	-0.540039	0.137939	-0.915283	0.309118	-0.857747	-0.381087	-0.153261	4.90659	-3.98724	-7.26419	0.0250487	0.0317043	-0.040927	-0.193604	0.738037	0.74707	
34	-0.458509	0.518257	0.397492	0.602644	9.79116	-0.000231144	1.42072	-0.0266432	-0.00236681	0.0130617	-0.839355	0.432373	-0.0212402	-0.524587	0.439302	0.374875	0.625532	9.46286	0.0558203	3.26628	-0.00701004	0.0107908	-0.0148245	-0.752686	0.314209	-0.173584	0.81826	-0.137993	-0.189719	-0.5248	5.00773	-0.279524	9.53995	-0.00217651	-0.00241012	-0.00255127	-0.321533	0.320557	-0.893066	0.00157528	0.0380475	-0.103262	-0.993925	-0.753005	2.0293	9.51918	0.0403667	-0.00161575	0.00638272	-0.327148	-0.174805	-0.912842	-0.498988	0.244807	0.233581	0.797823	6.13184	1.25918	7.6992	-0.0234637	-0.00300452	-0.0160696	-0.722656	0.23877	-0.620605	-0.993076	-0.00234076	-0.055892	0.1033	-1.31424	-1.45062	13.2191	-0.0186282	0.0258641	-0.0331655	0.560547	0.0900879	-0.886963	0.198527	-0.63103	-0.496372	-0.562142	8.74957	2.81454	-2.9216	0.0209696	-0.0967957	-0.0509546	-0.852295	0.0771484	0.503906	-0.473121	0.504618	0.470723	0.547665	9.77816	0.222657	0.24956	-0.0417033	0.0446925	-0.029164	-1.00098	0.37915	-0.0144043	-0.507073	0.45137	0.5324	0.50566	9.91824	0.694147	-0.0301358	-0.0262243	0.0187352	-0.0291767	-1.02002	0.307129	-0.0595703	0.432756	-0.0777826	-0.164046	-0.883041	2.91773	2.24736	9.63536	0.0135711	0.029198	0.00834334	-0.539551	0.131348	-0.915039	0.3091	-0.857518	-0.381502	-0.153544	4.93289	-4.01072	-7.28743	0.000135428	0.00775052	-0.0217329	-0.196045	0.740234	0.742676	
35	-0.45838	0.51853	0.397167	0.602721	9.81611	-0.092549	1.41477	-0.00794374	-0.00259468	0.00251126	-0.837402	0.43457	-0.0170898	-0.524701	0.439295	0.374828	0.62547	9.36494	0.132407	3.28246	-0.0170059	0.0252467	-0.0114957	-0.750732	0.316406	-0.171387	0.818191	-0.138211	-0.189346	-0.524985	4.92169	-0.247994	9.50125	-0.0175476	0.0187389	-0.00135281	-0.321777	0.322754	-0.899902	0.00139117	0.0375478	-0.103062	-0.993965	-0.676431	2.03805	9.56222	-0.0245708	-0.0167499	-0.00919742	-0.32959	-0.174805	-0.908447	-0.498926	0.244947	0.233526	0.797834	6.05003	1.1464	7.71027	0.00491584	0.0102318	-0.00857578	-0.727051	0.240967	-0.625244	-0.9931	-0.0024496	-0.0557849	0.103122	-1.33688	-1.37602	13.2888	0.0249521	0.00795655	-0.00176031	0.565186	0.0856934	-0.886719	0.197246	-0.632006	-0.497139	-0.560817	8.56239	3.05789	-2.95145	0.00842467	-0.0671767	-0.0280957	-0.848145	0.081543	0.510254	-0.473111	0.50443	0.471374	0.547287	9.93434	0.374699	0.489305	0.0322581	0.000866599	-0.0207239	-0.994385	0.37915	-0.00732422	-0.506963	0.451138	0.531982	0.506417	9.80962	0.715544	0.225435	-0.0376708	0.0218075	-0.0349625	-1.01538	0.30957	-0.0639648	0.433003	-0.0772031	-0.164029	-0.882974	2.9794	2.26105	9.83621	0.0113557	0.0307825	0.0164409	-0.537842	0.137939	-0.919922	0.308955	-0.857325	-0.381959	-0.153778	4.90348	-4.19744	-7.3672	-0.00392566	0.00709123	-0.0311723	-0.193848	0.740234	0.740234	
36	-0.458785	0.51818	0.397125	0.602741	9.8843	0.0133974	1.52875	0.0168848	0.0266973	0.00910292	-0.837158	0.432373	-0.0234375	-0.525046	0.439404	0.37507	0.624959	9.37917	0.0820509	3.11085	0.0188961	-0.0109213	-0.00177349	-0.750732	0.31665	-0.168945	0.81811	-0.138653	-0.189016	-0.525113	4.89197	-0.317408	9.48487	-0.0219287	0.00154036	-0.00349207	-0.319336	0.318359	-0.893066	0.00109803	0.037288	-0.102233	-0.994061	-0.615473	1.81018	9.55433	-0.0171012	-0.00282043	-0.0094478	-0.322754	-0.174805	-0.912842	-0.499445	0.244529	0.233665	0.797597	6.08494	1.20362	7.58452	0.0201645	0.0152446	0.00708449	-0.725342	0.247559	-0.625244	-0.993141	-0.0033076	-0.0558346	0.102673	-1.33518	-1.26603	13.2626	0.0355245	0.0124725	0.0102528	0.558594	0.0900879	-0.886963	0.196658	-0.63238	-0.497393	-0.560377	8.68974	2.92689	-2.98004	0.0195622	-0.025195	-0.0208	-0.848145	0.081543	0.505859	-0.472921	0.504331	0.471236	0.547661	9.87211	0.330318	0.44911	-0.00625906	0.0222132	-0.0304347	-0.998779	0.37915	-0.00732422	-0.506728	0.450823	0.531874	0.507046	9.87426	1.05188	0.349949	-0.025384	0.0274697	-0.0459802	-1.01294	0.307129	-0.0683594	0.433645	-0.076775	-0.164058	-0.88269	2.85649	2.29674	9.66251	0.00226598	0.0325019	0.0265505	-0.541992	0.135742	-0.91748	0.309457	-0.856885	-0.382534	-0.153791	4.90795	-3.96318	-7.30954	0.0319996	0.0060714	-0.0213519	-0.197998	0.73584	0.742676	
37	-0.459233	0.518006	0.396878	0.602712	9.64428	0.0757078	1.56706	0.00306195	-0.000882911	0.0139902	-0.837158	0.430176	-0.0148926	-0.524763	0.440569	0.375347	0.624209	9.58264	0.0439122	3.10825	0.0172049	-0.030744	0.011343	-0.752686	0.31665	-0.166504	0.818036	-0.139333	-0.189239	-0.524968	5.01799	-0.424425	9.52279	-0.0131666	-0.0281894	0.0073865	-0.325928	0.320801	-0.890869	0.00135642	0.0372077	-0.103448	-0.993938	-0.62575	2.03113	9.53168	0.0645708	0.000765325	0.0206707	-0.327393	-0.174805	-0.910645	-0.499484	0.244788	0.233766	0.797464	6.16928	1.21227	7.47253	-0.00231456	-0.00881744	-0.0129971	-0.716064	0.234375	-0.615967	-0.99313	-0.00241594	-0.0563194	0.102545	-1.33263	-1.3656	13.1795	-0.0500732	0.0313996	-0.0254549	0.556396	0.0878906	-0.886719	0.196679	-0.63264	-0.498565	-0.559032	8.73558	2.87189	-2.99619	0.0790943	-0.0397789	-0.0314453	-0.8479	0.0773926	0.506104	-0.472981	0.504124	0.47112	0.5479	9.86209	0.260655	0.3629	0.0156148	0.0221557	-0.0133893	-0.996338	0.376953	-0.0144043	-0.506596	0.45034	0.532262	0.5072	9.88861	0.730725	0.110272	0.0700668	-0.00102468	-0.0395704	-1.0105	0.300293	-0.0661621	0.433827	-0.076387	-0.164247	-0.8826	2.87038	2.34791	9.80452	0.0186604	0.0136949	0.00297392	-0.5354	0.135742	-0.910645	0.309431	-0.856741	-0.382823	-0.153928	4.94707	-3.9682	-7.36927	-0.000170202	0.00763596	-0.0166842	-0.191406	0.740234	0.740234	
38	-0.459081	0.519404	0.396692	0.601747	9.7988	-0.107761	1.45387	-0.017284	-0.0536132	0.039495	-0.837402	0.436768	-0.0126953	-0.52509	0.440666	0.375837	0.623571	9.53947	0.0555862	3.18319	0.0151473	-0.00423264	-0.00498158	-0.750732	0.318604	-0.168945	0.818025	-0.139659	-0.189429	-0.524831	4.92773	-0.479939	9.58824	0.0059389	-0.00245791	0.0100932	-0.327881	0.318604	-0.893066	0.00182904	0.0366049	-0.1044	-0.99386	-0.515872	2.12286	9.56184	0.0306788	-0.0172602	0.0201158	-0.322754	-0.177002	-0.910645	-0.499121	0.245679	0.234069	0.797328	6.29674	1.12199	7.63875	-0.0167699	-0.0351195	-0.0125724	-0.720703	0.240967	-0.622803	-0.993077	-0.00116371	-0.0567937	0.102813	-1.50448	-1.54719	13.3126	-0.0364206	0.0256128	-0.0294804	0.564941	0.0922852	-0.886963	0.196709	-0.63251	-0.498704	-0.559044	8.76679	3.14091	-2.85519	-0.0235771	-0.0104393	-0.0184923	-0.8479	0.0793457	0.514648	-0.473142	0.503804	0.471629	0.547617	9.9573	0.488323	0.555222	0.0106535	0.0144881	-0.023537	-1.00073	0.37915	-0.012207	-0.506717	0.449536	0.532942	0.507077	9.95498	0.801832	0.382352	0.051362	0.00778507	-0.0476006	-1.01733	0.302734	-0.0683594	0.433825	-0.0761745	-0.164348	-0.8826	2.91006	2.4361	9.92006	-0.00883006	0.0279753	0.0042614	-0.537598	0.135742	-0.915283	0.309523	-0.856706	-0.382805	-0.153982	5.12012	-4.04445	-7.40333	0.0214756	0.0141278	-0.00516648	-0.198486	0.742432	0.742432	
39	-0.458952	0.520004	0.396652	0.601354	9.95396	-0.13647	1.3938	-0.0154783	-0.0497891	0.0272675	-0.835449	0.441162	-0.0148926	-0.525157	0.440738	0.376019	0.623354	9.43576	0.141908	3.16787	0.00618368	-0.00281348	-0.0100208	-0.752686	0.314453	-0.168945	0.818089	-0.139883	-0.189483	-0.524651	4.89585	-0.284649	9.58609	-0.00574208	-0.00847182	0.0164537	-0.32373	0.322754	-0.88623	0.00179845	0.036306	-0.104465	-0.993864	-0.614169	2.15704	9.58165	0.00802307	-0.0182185	0.0012582	-0.324951	-0.174805	-0.908447	-0.499055	0.246103	0.234618	0.797077	6.27093	1.18115	7.67067	0.0163192	-0.0173759	-0.00858448	-0.720459	0.23877	-0.615967	-0.993076	-0.00101312	-0.0568135	0.102819	-1.4864	-1.45319	13.3242	-0.00642072	0.0146143	-0.0199343	0.562744	0.0944824	-0.884766	0.196255	-0.632643	-0.498565	-0.559178	8.76565	2.94868	-2.97308	0.0214586	0.00932809	-0.0204642	-0.849854	0.0751953	0.516846	-0.473363	0.503477	0.471782	0.547595	10.0242	0.48319	0.640465	0.0334133	0.0314889	-0.0245652	-1.00098	0.37915	-0.0168457	-0.50701	0.448847	0.533803	0.506489	9.79098	0.843563	0.200029	0.103391	-0.0113435	-0.044101	-1.01514	0.300293	-0.0661621	0.433569	-0.0763392	-0.164252	-0.88273	2.84009	2.4534	9.82011	-0.0131118	0.00210599	-0.0162477	-0.537842	0.137939	-0.915283	0.309406	-0.856797	-0.382621	-0.154172	5.14029	-3.89482	-7.42958	-0.0161396	0.0178195	0.0051628	-0.196045	0.740234	0.740234	
40	-0.458649	0.521129	0.396296	0.600846	10.004	-0.190852	1.30572	-0.0303426	-0.036144	0.0266799	-0.830811	0.438965	-0.0126953	-0.524885	0.44117	0.376215	0.62316	9.67543	-0.0227117	3.27273	-0.0187105	-0.000567071	-0.019426	-0.752686	0.31665	-0.161865	0.817918	-0.140942	-0.18923	-0.524727	4.98408	-0.510747	9.58791	-0.0290862	-0.0105974	0.000577734	-0.330322	0.327393	-0.893311	0.00139659	0.0359694	-0.104495	-0.993874	-0.568115	1.97023	9.70358	0.00770028	-0.00370216	-0.0167579	-0.331787	-0.174805	-0.910645	-0.499036	0.246281	0.234998	0.796922	6.36299	1.25729	7.72691	0.0192124	-0.0225358	-0.010321	-0.724854	0.240967	-0.618408	-0.993094	-0.000820266	-0.0568555	0.102623	-1.41082	-1.43004	13.4716	-0.00909428	0.0144081	-0.0150186	0.55835	0.0944824	-0.886963	0.196175	-0.63254	-0.498602	-0.55929	8.80911	3.09871	-2.90814	0.0116813	0.0185283	-0.0268495	-0.849854	0.0751953	0.514648	-0.474455	0.503149	0.472042	0.546726	10.1858	0.130847	0.434789	0.0867991	0.0277871	0.0200123	-1.00073	0.376953	-0.0144043	-0.50739	0.448439	0.535608	0.504561	9.7812	0.472172	-0.0391503	0.19091	-0.105154	-0.00812977	-1.01025	0.298096	-0.0637207	0.432756	-0.0768497	-0.164329	-0.88307	2.71894	2.3328	9.70033	-0.0208291	-0.0239301	-0.0240325	-0.530762	0.133545	-0.912842	0.309173	-0.857211	-0.381788	-0.154403	4.81371	-4.04662	-7.1842	-0.0112117	0.0136849	0.0298772	-0.196045	0.738037	0.740234	
41	-0.458183	0.521637	0.395728	0.601134	10.0275	-0.219135	1.29416	-0.0351111	0.00986002	-0.00794994	-0.831055	0.443359	-0.010498	-0.524605	0.440814	0.376174	0.623672	9.54971	0.133625	3.22857	-0.00969439	0.0339874	-0.0460711	-0.755127	0.320801	-0.166748	0.817918	-0.140536	-0.189873	-0.524603	5.06129	-0.227053	9.53522	0.0354325	-0.0101563	-0.00747286	-0.328125	0.324951	-0.890869	0.00114726	0.0362565	-0.105076	-0.993802	-0.706781	1.95747	9.72373	0.0272936	0.0223299	-0.0054731	-0.324951	-0.177002	-0.910645	-0.498525	0.246357	0.235695	0.797013	6.1921	1.27079	7.96603	0.0231505	0.0154608	-0.0353444	-0.7229	0.240967	-0.620605	-0.993083	4.3557e-05	-0.0567369	0.102795	-1.27328	-1.2826	13.5531	-0.0294272	0.000493862	-0.029226	0.5625	0.0966797	-0.886963	0.195284	-0.632786	-0.498098	-0.559772	8.70341	2.90491	-2.83519	-0.0210591	-0.00895128	-0.0143514	-0.8479	0.0751953	0.508301	-0.477102	0.501497	0.472422	0.545612	9.74587	0.0292963	0.335561	0.159713	0.0467702	0.0222938	-0.996826	0.383545	-0.0168457	-0.511346	0.443669	0.545822	0.493722	10.0412	0.52944	0.00291994	0.318464	-0.108657	-0.0064814	-1.01733	0.298096	-0.0639648	0.431784	-0.078899	-0.163916	-0.883442	2.78023	2.3484	9.67247	-0.0774601	-0.0585868	-0.0247968	-0.546631	0.135498	-0.910645	0.3095	-0.857978	-0.380158	-0.153504	4.92144	-4.05718	-7.23729	0.0120088	-0.0101509	0.0931146	-0.19165	0.744629	0.744873	
42	-0.457797	0.521036	0.395482	0.602111	9.90312	-0.243452	1.26014	-0.00452173	0.037183	-0.0429914	-0.833008	0.43457	-0.0148926	-0.524636	0.439773	0.376596	0.624125	9.4737	0.0518544	3.08041	0.0367274	0.0430197	-0.0494483	-0.752686	0.312256	-0.166504	0.817863	-0.13993	-0.190411	-0.524656	5.0193	-0.401065	9.44748	0.0452004	0.00504574	-0.0133745	-0.330322	0.322998	-0.893066	0.00145987	0.0371328	-0.104842	-0.993794	-0.693635	1.96744	9.64389	-0.0189066	0.0495408	0.014411	-0.322754	-0.177002	-0.908447	-0.498578	0.245723	0.235812	0.797141	6.18457	1.21854	7.89059	0.0308475	0.0462444	-0.0276881	-0.726807	0.234375	-0.611572	-0.993139	0.000256471	-0.0557355	0.102803	-1.29382	-1.35296	13.4851	0.0129855	-0.0376446	-0.0132103	0.560303	0.10083	-0.889404	0.195361	-0.632837	-0.498865	-0.559005	8.68964	2.94066	-2.91295	0.057011	-0.00252661	-0.0329455	-0.845703	0.0751953	0.510254	-0.480616	0.498676	0.476339	0.541693	10.1497	0.823768	0.522819	0.280596	0.0110348	-0.0120648	-0.998779	0.381348	-0.0239258	-0.514642	0.440187	0.550754	0.487903	9.85178	1.20929	-0.088006	0.283763	-0.0545867	0.00411316	-1.01514	0.300293	-0.0661621	0.430661	-0.081252	-0.163303	-0.88389	2.82364	2.22263	9.9508	-0.0519072	-0.0764733	-0.026509	-0.544434	0.135742	-0.910645	0.309432	-0.859045	-0.378321	-0.152204	5.08134	-4.16547	-7.34582	-0.0190222	-0.0344919	0.0866517	-0.189209	0.740234	0.742676	
43	-0.458495	0.518879	0.395554	0.603394	9.93268	0.0125413	1.33667	0.0441927	0.106926	-0.036719	-0.835205	0.43457	-0.0148926	-0.52482	0.438645	0.377228	0.624382	9.32941	0.234831	3.18864	0.0401259	0.0399984	-0.0458157	-0.754883	0.312256	-0.168701	0.818076	-0.138023	-0.191581	-0.524402	4.96178	-0.237731	9.39851	0.0965339	0.0121058	-0.00468279	-0.328125	0.320801	-0.893066	0.00221389	0.0388156	-0.103792	-0.993839	-0.680753	2.0331	9.59052	-0.0414903	0.0730604	0.0218164	-0.322754	-0.174561	-0.915039	-0.499181	0.243459	0.23584	0.79745	6.05307	1.19069	7.63985	0.0549665	0.0984931	-0.0188419	-0.720459	0.236572	-0.622803	-0.993301	-0.000316202	-0.0540076	0.102157	-1.31909	-1.4288	13.2861	0.0437721	-0.0536923	0.0199544	0.55835	0.0944824	-0.891357	0.195195	-0.63262	-0.499268	-0.558948	8.40596	3.31724	-2.82592	0.0154193	0.0098806	-0.0345632	-0.845703	0.0751953	0.514648	-0.481974	0.497451	0.478389	0.539803	9.74587	0.833262	0.61343	0.134554	-0.0318128	-0.00449514	-0.996582	0.379395	-0.0307617	-0.517521	0.437136	0.554496	0.483341	9.68553	1.50964	0.260812	0.255409	-0.0199508	-0.00202443	-1.01489	0.295898	-0.0727539	0.430841	-0.0819692	-0.162963	-0.883799	3.01434	2.02824	10.2075	-0.0078992	0.0225823	0.0342173	-0.546631	0.139893	-0.901611	0.309509	-0.859135	-0.37829	-0.151618	5.38072	-4.48246	-7.35168	0.0357771	0.00138466	-0.0228438	-0.189209	0.740234	0.74707	
44	-0.460192	0.515702	0.394609	0.605441	9.66902	0.0428416	1.36562	0.0394694	0.173558	-0.0373872	-0.835205	0.43457	-0.0170898	-0.524863	0.43718	0.378107	0.624842	9.24214	0.251134	3.08029	0.0339827	0.0339138	-0.0661206	-0.756836	0.305664	-0.177979	0.818326	-0.136	-0.192123	-0.524343	5.0015	-0.210567	9.38057	0.0823107	0.0323962	-0.0111495	-0.315186	0.316162	-0.899902	0.00289604	0.0406778	-0.101749	-0.993974	-0.741878	1.89844	9.34312	-0.0860401	0.0792566	0.021828	-0.314209	-0.170166	-0.919434	-0.500092	0.241274	0.235892	0.797527	6.0115	1.31963	7.4506	0.0517885	0.0812963	-0.00215685	-0.720459	0.234375	-0.627441	-0.993489	-0.00173593	-0.0523921	0.101153	-1.18397	-1.29378	13.0432	0.0716051	-0.0448354	0.0248927	0.558594	0.0878906	-0.893311	0.194777	-0.632591	-0.498757	-0.559581	8.59685	2.80152	-3.14389	-0.00585777	0.00200808	-0.0122657	-0.847656	0.072998	0.506104	-0.481265	0.497729	0.47795	0.540568	9.67151	0.644214	0.526254	-0.0798082	0.044562	-0.0651538	-0.996582	0.381348	-0.026123	-0.516305	0.438357	0.553126	0.485102	9.51024	1.30235	0.136436	-0.119634	0.0246642	-0.0403022	-1.01514	0.300293	-0.0639648	0.432008	-0.080974	-0.163214	-0.883274	2.89118	2.19372	9.9544	0.0438005	0.0605053	0.0490153	-0.542236	0.137939	-0.908447	0.309901	-0.858475	-0.379415	-0.151742	5.26744	-4.22228	-7.30061	0.0296739	0.00440633	-0.0614598	-0.189209	0.738037	0.742676	
45	-0.461884	0.511534	0.393751	0.60824	9.83963	0.16711	1.51431	0.0493171	0.205306	-0.057874	-0.837158	0.43457	-0.0341797	-0.525125	0.436075	0.378425	0.625202	9.36524	0.143334	3.07606	0.0272871	0.0545344	-0.0326611	-0.754639	0.309814	-0.18042	0.818848	-0.13397	-0.19253	-0.523901	4.98375	-0.24795	9.36196	0.0920438	0.0315823	0.00405865	-0.325684	0.314209	-0.895264	0.00401853	0.0418334	-0.100461	-0.994053	-0.833512	1.9724	9.37127	-0.0434487	0.0518679	0.0427617	-0.31665	-0.163574	-0.91748	-0.501088	0.239017	0.235337	0.797746	5.96955	1.43238	7.28662	0.0288894	0.0993569	0.000788812	-0.722412	0.234375	-0.627441	-0.993639	-0.00274456	-0.0508105	0.100465	-1.12826	-1.43929	13.0114	0.0453563	-0.0422438	0.00473301	0.549805	0.0900879	-0.897461	0.196374	-0.6308	-0.498752	-0.561048	8.53377	3.10862	-2.62328	0.0124488	0.148477	-0.0306735	-0.8479	0.0751953	0.508301	-0.4802	0.497458	0.478115	0.541618	9.79908	0.426938	0.649755	-0.0039305	-0.00264565	-0.0675829	-0.996338	0.375	-0.026123	-0.51429	0.439952	0.551447	0.487703	9.66106	1.10495	0.0521158	-0.168708	-0.000739915	-0.047593	-1.01489	0.295654	-0.0637207	0.433297	-0.0787606	-0.162857	-0.882909	2.81216	2.23161	9.74461	0.0333988	0.098002	0.0403783	-0.535645	0.140137	-0.910889	0.310685	-0.857302	-0.38107	-0.152624	4.95742	-3.91232	-7.16194	0.0402503	0.0392254	-0.0860283	-0.196289	0.749023	0.742432	
46	-0.464875	0.507095	0.391578	0.611075	10.3566	0.254399	1.69491	0.0437779	0.279544	0.0126195	-0.837158	0.432617	-0.0429688	-0.525667	0.435102	0.378256	0.625526	9.69074	0.27549	3.44209	-0.00219502	0.0526525	-0.024268	-0.752441	0.307861	-0.18042	0.819031	-0.132844	-0.193653	-0.523487	5.05807	-0.149285	9.69033	0.0531968	-0.0249351	0.00606918	-0.323486	0.307617	-0.897217	0.00511738	0.0426988	-0.0997684	-0.994081	-0.791615	2.06679	9.48789	-0.0120974	0.0395225	0.0365131	-0.31665	-0.165771	-0.915283	-0.501277	0.238627	0.23475	0.797917	6.13751	1.41319	7.55619	-0.0216202	0.00982112	-0.0106369	-0.71582	0.232178	-0.629639	-0.993675	-0.00297506	-0.0501794	0.100415	-1.23317	-1.56171	13.1655	0.00279423	-0.000681878	-0.0187955	0.554443	0.0856934	-0.893066	0.197155	-0.629608	-0.497601	-0.563131	9.05909	2.95331	-3.05941	-0.00828259	0.101278	0.00196666	-0.849854	0.0751953	0.501953	-0.480155	0.497817	0.477691	0.541702	10.1719	-0.192456	0.438283	0.0049498	0.00708818	0.014407	-0.994385	0.376953	-0.0214844	-0.513457	0.440388	0.551755	0.487839	10.1112	0.375379	-0.18273	0.0814354	-0.0287274	-0.0343983	-1.01953	0.298096	-0.0639648	0.433826	-0.077777	-0.162546	-0.882794	2.97374	2.37762	9.73818	-0.00914862	0.0410752	0.0123017	-0.537842	0.137939	-0.915283	0.310808	-0.856735	-0.381963	-0.15332	4.82317	-4.1966	-7.36403	-0.00122345	0.0183646	-0.0311927	-0.196045	0.740234	0.738037	
47	-0.469147	0.501665	0.388053	0.614531	10.0487	0.0401499	1.80284	0.056501	0.338762	0.0193532	-0.839111	0.432617	-0.0644531	-0.525985	0.434332	0.377506	0.626246	9.56595	0.242104	3.44467	-0.0150513	0.0698686	-0.0202834	-0.754883	0.312012	-0.180664	0.819167	-0.132865	-0.19416	-0.523082	5.14155	-0.107543	9.84604	0.0312405	-0.0311537	0.0261744	-0.325684	0.307617	-0.904053	0.0054657	0.0427874	-0.100036	-0.994048	-0.821194	2.00357	9.61917	0.0233145	0.0161607	0.0287084	-0.316406	-0.167969	-0.913086	-0.501015	0.239655	0.235218	0.797636	6.02921	1.23475	7.95349	0.00557398	-0.0481756	-0.00466949	-0.718262	0.234375	-0.627441	-0.993734	-0.00208089	-0.0498047	0.100039	-1.19961	-1.30459	13.5019	-0.0293861	-0.0089862	0.00286446	0.547852	0.0878906	-0.897461	0.199451	-0.628007	-0.497194	-0.564468	8.73467	3.0946	-2.78981	0.0597942	0.130852	-0.000762551	-0.852295	0.0773926	0.497559	-0.48134	0.496694	0.48063	0.539074	9.95204	0.2964	0.185202	0.200181	-0.0552791	-0.0329857	-0.996094	0.370605	-0.0283203	-0.513656	0.439818	0.552934	0.486807	10.0591	0.554182	-0.170717	0.0571551	-0.0150179	-0.0247274	-1.0127	0.298096	-0.0637207	0.433935	-0.0777925	-0.162157	-0.88281	2.9619	2.3346	9.73327	-0.025093	0.0267498	0.0134486	-0.535645	0.140137	-0.913086	0.311388	-0.856604	-0.381866	-0.153116	4.71938	-4.27276	-7.38658	0.0504864	0.0125552	0.0104992	-0.196045	0.742432	0.740234	
48	-0.473598	0.495673	0.384714	0.618069	9.62113	0.221125	2.04149	0.0609636	0.34303	0.0193252	-0.841309	0.432861	-0.0817871	-0.526345	0.433877	0.377236	0.626423	9.37931	0.195406	3.2345	0.00428775	0.065298	-0.0119976	-0.750244	0.307617	-0.1875	0.819538	-0.133742	-0.194278	-0.522232	5.0426	0.0253908	9.88352	-0.0159874	-0.0212519	0.0412721	-0.319336	0.309814	-0.901855	0.00570823	0.0421636	-0.100309	-0.994046	-0.882583	1.80929	9.95838	0.000910992	-0.0263575	0.00406345	-0.31665	-0.163574	-0.915283	-0.501801	0.239046	0.23631	0.797001	6.10687	1.22812	7.97237	0.0713162	0.0352982	0.0137466	-0.718506	0.240967	-0.629639	-0.993802	-0.00202155	-0.0494624	0.0995355	-1.16715	-1.23679	13.6803	0.0013437	-0.0129112	0.0224021	0.552246	0.0812988	-0.897217	0.201228	-0.626762	-0.497368	-0.565068	8.60249	2.73026	-2.8504	0.0612677	0.0734126	-0.013981	-0.86084	0.0793457	0.495361	-0.482102	0.496272	0.481868	0.537675	10.0028	0.62794	0.345378	0.157508	-0.040904	0.00561737	-1.00073	0.376953	-0.026123	-0.513947	0.439455	0.553449	0.486243	9.71991	0.917379	-0.088656	0.0751554	-0.00974896	-0.0193131	-1.01709	0.295654	-0.0637207	0.434368	-0.0785369	-0.161285	-0.882691	2.91036	2.07975	9.89959	-0.0211646	-0.000893093	0.0306708	-0.537842	0.142334	-0.908447	0.31195	-0.856508	-0.381918	-0.152382	4.90371	-4.01719	-7.41807	0.0209928	-0.0165632	-0.00650584	-0.193848	0.744629	0.742432	
49	-0.475685	0.493195	0.382736	0.619673	9.49027	0.244378	2.18673	0.0298687	0.322796	0.043151	-0.834473	0.430664	-0.0944824	-0.527023	0.433355	0.377028	0.626339	9.21153	0.0775113	3.25231	0.0105282	0.035523	-0.00117396	-0.748047	0.307861	-0.18042	0.819788	-0.133612	-0.192855	-0.522401	4.90775	-0.2055	9.53713	-0.0096857	0.0826534	-0.00477313	-0.317139	0.307617	-0.897217	0.00555074	0.0416183	-0.0983719	-0.994264	-0.723435	1.59186	9.93345	-0.10136	-0.00645659	-0.00396219	-0.316406	-0.167969	-0.919678	-0.502432	0.238115	0.236105	0.796943	6.06324	1.33686	7.80691	0.0378246	0.0859196	0.017331	-0.716309	0.240967	-0.627441	-0.993945	-0.00365006	-0.0489334	0.0983178	-1.17711	-1.04448	13.6594	0.0946247	0.00837668	0.0289798	0.554688	0.0793457	-0.899414	0.202283	-0.625779	-0.497742	-0.565452	8.51082	2.86927	-2.82758	0.086549	0.111042	-0.0323888	-0.86084	0.0751953	0.491211	-0.482166	0.49675	0.480661	0.538256	9.72273	0.499737	0.25227	-0.102642	0.0539135	0.00950038	-0.996582	0.381348	-0.0214844	-0.514204	0.439162	0.555185	0.484252	9.61554	0.824931	-0.0644425	0.119192	-0.0670371	-0.00913562	-1.01465	0.29126	-0.065918	0.435175	-0.0785121	-0.162182	-0.882131	3.04258	2.25811	9.9187	0.0465528	0.0176418	0.0469098	-0.535889	0.146729	-0.906494	0.311244	-0.856365	-0.383009	-0.151891	5.08507	-4.41635	-7.31537	0.0131455	-0.0322327	-0.0555612	-0.196289	0.744629	0.735596	
50	-0.478927	0.489665	0.378522	0.622558	9.65792	-0.0190594	2.4658	-0.029067	0.256955	0.0500689	-0.834961	0.439453	-0.0925293	-0.527622	0.432571	0.376704	0.62657	9.40783	0.224472	3.28383	0.022075	0.0495347	-0.0175161	-0.74585	0.307617	-0.1875	0.820287	-0.130863	-0.192314	-0.522513	4.77636	-0.327521	9.25914	0.110604	0.0687966	-0.00944317	-0.317139	0.307617	-0.899658	0.00645915	0.0424395	-0.0963003	-0.994426	-0.690937	1.67256	9.37236	-0.0509261	0.0568322	0.0421372	-0.312744	-0.150391	-0.924316	-0.503013	0.23693	0.233146	0.797801	5.98674	1.25897	7.75492	-0.0549361	0.0580315	-0.000620705	-0.71167	0.234619	-0.638916	-0.993933	-0.00547772	-0.04922	0.0982055	-1.22105	-1.10654	13.1848	0.0482427	0.0387776	-0.0233014	0.550537	0.0749512	-0.897217	0.203717	-0.623647	-0.49842	-0.566693	8.79471	3.17283	-2.67675	0.0401332	0.110265	-0.0502826	-0.86084	0.0771484	0.486816	-0.482726	0.496808	0.479319	0.538897	9.92311	-0.018455	0.437239	0.0185809	0.0619762	0.0125842	-0.992188	0.379395	-0.026123	-0.514749	0.438202	0.557426	0.481963	9.99693	0.762278	-0.0100531	0.174229	-0.040346	-0.0271525	-1.01953	0.297852	-0.0549316	0.436925	-0.0781492	-0.162619	-0.881218	2.68898	2.36474	9.61944	0.0381017	0.020053	0.0762131	-0.540039	0.142334	-0.915283	0.311641	-0.85557	-0.384654	-0.151401	4.93386	-3.96744	-7.17907	0.0390492	-0.022748	-0.0549717	-0.189697	0.751221	0.740234	
51	-0.480865	0.487152	0.374896	0.625224	9.54141	-0.214408	2.57331	-0.0435251	0.187695	0.0175144	-0.828125	0.4375	-0.107422	-0.527433	0.432319	0.377614	0.626356	9.43419	0.12128	3.41197	-0.00437829	-0.0258194	-0.0391272	-0.752441	0.309814	-0.182861	0.820882	-0.128719	-0.193324	-0.521737	5.08194	-0.23872	9.34852	0.0948632	0.00415329	0.0292007	-0.314941	0.303223	-0.908691	0.00819972	0.0438361	-0.0971805	-0.994267	-0.761068	2.15861	9.21844	0.0449165	0.0670146	0.0736956	-0.316895	-0.15918	-0.915283	-0.503197	0.236773	0.232874	0.79781	5.96119	1.2358	7.76128	-0.00868441	0.0315078	0.00216024	-0.709717	0.243164	-0.634277	-0.993945	-0.00429146	-0.0492704	0.098117	-1.23861	-1.50381	13.0747	-0.0538659	-0.00174249	-0.00931659	0.554443	0.0812988	-0.897217	0.206543	-0.621502	-0.499524	-0.567056	8.96611	2.97953	-2.75574	0.167199	0.115879	-0.0278353	-0.869629	0.0793457	0.474121	-0.48507	0.494523	0.482081	0.536426	9.96156	0.320241	0.30245	0.227083	-0.00736982	-0.0216132	-0.996582	0.381592	-0.0332031	-0.516114	0.436407	0.558928	0.48039	9.88574	0.5148	-0.24088	0.147773	0.0221744	-0.0273587	-1.02393	0.293457	-0.0661621	0.438087	-0.0786828	-0.162296	-0.880653	2.88933	2.29593	9.83591	-0.0214582	0.00130345	0.0583148	-0.538086	0.146729	-0.910889	0.312011	-0.855265	-0.38548	-0.150253	4.95387	-4.14409	-7.32998	0.048852	-0.0399683	-0.0147389	-0.191895	0.751221	0.733398	
52	-0.481307	0.485366	0.374081	0.626759	9.69181	-0.163312	2.57346	0.0168519	0.0647554	-0.03931	-0.828369	0.439697	-0.114014	-0.528099	0.431048	0.379111	0.625766	9.559	0.172858	3.37779	0.0807097	0.00727799	-0.0249659	-0.752197	0.303223	-0.187256	0.821449	-0.128564	-0.194943	-0.520278	5.02178	-0.202476	9.527	0.0461081	-0.0581246	0.0526175	-0.319092	0.301025	-0.899414	0.0100542	0.0449128	-0.0970214	-0.994218	-0.753959	2.12068	9.4482	-0.0218286	0.0517254	0.065391	-0.312744	-0.152588	-0.922119	-0.504318	0.235369	0.234476	0.797048	6.00457	1.20114	7.88955	0.124962	0.0186782	0.0177488	-0.709473	0.232178	-0.636475	-0.994184	-0.00395008	-0.0476157	0.0965128	-1.31122	-1.48453	13.2199	0.0147329	-0.0696784	0.0655901	0.550537	0.0749512	-0.901367	0.210389	-0.617893	-0.500082	-0.569089	8.76729	3.21958	-2.52	0.0736458	0.239859	-0.0253331	-0.873779	0.0771484	0.469727	-0.487031	0.493188	0.484165	0.533994	9.91029	0.568273	0.470523	0.108223	-0.0110805	0.0104152	-0.994385	0.379395	-0.0332031	-0.517722	0.434695	0.560332	0.478574	9.96891	1.03906	-0.208787	0.10141	0.00549933	-0.00947005	-1.02197	0.300293	-0.0705566	0.439597	-0.0793206	-0.162215	-0.879857	2.94054	2.26474	10.0214	0.011041	0.00357701	0.0761974	-0.535645	0.144531	-0.908691	0.312108	-0.854988	-0.386526	-0.148932	5.16293	-4.20181	-7.4498	0.0307575	-0.0537924	-0.0304581	-0.196289	0.744629	0.738037	
53	-0.482269	0.483582	0.374204	0.627325	9.66879	0.0248876	2.602	0.0539769	0.0717571	-0.0103107	-0.83252	0.435303	-0.118408	-0.529031	0.429811	0.381091	0.624627	9.2132	0.315023	3.25966	0.10231	-0.0120627	-0.0182553	-0.747803	0.299072	-0.184814	0.822332	-0.128972	-0.196255	-0.518286	5.00977	-0.0650677	9.62195	0.034319	-0.0428031	0.0874785	-0.319092	0.303223	-0.901611	0.0108773	0.0452931	-0.0966594	-0.994227	-0.765786	1.95005	9.63315	-0.0280183	0.0430137	0.0616574	-0.308105	-0.154785	-0.922119	-0.506046	0.23359	0.236754	0.795802	5.93794	1.28354	7.72768	0.133016	0.024983	0.0308234	-0.705078	0.234619	-0.636475	-0.994575	-0.00372675	-0.0452319	0.0936012	-1.17115	-1.13814	13.4511	-0.00835031	-0.0789846	0.102559	0.537598	0.0749512	-0.89502	0.212451	-0.615822	-0.500523	-0.570179	8.79646	2.87627	-2.65341	0.100447	0.128839	-0.0390271	-0.871826	0.0793457	0.463379	-0.487999	0.492287	0.485768	0.532484	9.76994	0.623103	0.317394	0.107919	0.00782407	-0.0201827	-0.996582	0.37915	-0.026123	-0.519675	0.433107	0.561857	0.476102	9.72773	1.25908	-0.205703	0.152328	0.00150662	0.0102012	-1.01733	0.298096	-0.0661621	0.441385	-0.079512	-0.162243	-0.878939	2.94395	2.16746	10.0211	0.0187178	0.0210146	0.0926969	-0.538086	0.148926	-0.91333	0.312293	-0.854257	-0.388349	-0.147996	5.16359	-4.18338	-7.41909	0.051103	-0.0383787	-0.0806325	-0.191895	0.746826	0.735596	
54	-0.483616	0.481663	0.374392	0.627652	9.51011	0.0611623	2.58292	0.0638086	0.0592852	-0.00250784	-0.830078	0.433105	-0.124756	-0.529824	0.428938	0.382846	0.62348	9.29282	0.165177	3.20886	0.0807471	-0.00369193	-0.0143268	-0.75	0.30127	-0.189697	0.823376	-0.128309	-0.196866	-0.516558	4.90119	-0.121636	9.51214	0.0757621	0.00679612	0.0605712	-0.319092	0.296631	-0.89917	0.0127076	0.0462313	-0.0960896	-0.994217	-0.81655	1.66089	9.81083	-0.0239445	0.0475234	0.0685279	-0.308594	-0.145996	-0.922119	-0.508072	0.23208	0.237901	0.79461	5.88322	1.39628	7.56451	0.084065	0.0424377	0.0577095	-0.700439	0.228027	-0.634277	-0.994861	-0.00391276	-0.044181	0.0910169	-1.04403	-1.0578	13.3887	0.0173648	-0.0103258	0.0743021	0.539795	0.0727539	-0.903564	0.215305	-0.6122	-0.501723	-0.571952	8.57702	2.95758	-2.4671	0.0948121	0.177223	-0.0723309	-0.874023	0.0793457	0.452881	-0.488254	0.491722	0.486696	0.531925	9.65529	0.565733	0.341498	0.0987929	-0.00827977	-0.0419661	-0.994385	0.379395	-0.026123	-0.520717	0.432337	0.562437	0.474977	9.62092	0.888384	0.355598	0.0390307	0.000894832	-0.00777922	-1.01709	0.295898	-0.0705566	0.442466	-0.079263	-0.162808	-0.878314	2.8221	2.25082	9.73394	0.0662043	0.0206701	0.0950228	-0.535889	0.148926	-0.917725	0.31218	-0.853819	-0.389509	-0.147715	5.05763	-3.98143	-7.27142	0.0284509	-0.0416779	-0.0920021	-0.194092	0.749023	0.733398	
55	-0.48483	0.480544	0.374788	0.627337	9.65008	-0.0552754	2.60026	0.0613559	0.0221724	0.00828938	-0.828125	0.435303	-0.122559	-0.530651	0.428134	0.384466	0.622331	9.41117	0.34601	3.30682	0.0815172	-0.0069999	-0.0153871	-0.75	0.299072	-0.189453	0.824588	-0.126237	-0.197763	-0.514789	5.07758	-0.140756	9.39977	0.118095	0.0232757	0.067278	-0.314941	0.301025	-0.908447	0.0165223	0.0480878	-0.0961695	-0.994065	-0.835417	1.80757	9.43658	0.043023	0.0644887	0.109967	-0.30835	-0.152588	-0.924316	-0.509688	0.231322	0.238016	0.793761	5.94985	1.41386	7.73537	0.0342938	0.0300926	0.0457079	-0.702637	0.230225	-0.643311	-0.995026	-0.00285873	-0.0440737	0.0892871	-1.0861	-1.26817	13.2123	-0.0584969	0.00392762	0.0450483	0.541992	0.0727539	-0.901367	0.217861	-0.608863	-0.50328	-0.573177	8.87829	3.11598	-2.36189	0.127604	0.160695	-0.0646396	-0.878418	0.0837402	0.450439	-0.489367	0.490715	0.485904	0.532555	9.75298	-0.0390162	0.302985	0.000942852	0.0721609	-0.0157254	-0.996338	0.375	-0.0354004	-0.520961	0.43207	0.563144	0.474114	9.95676	0.710708	-0.363054	0.0514457	-0.00625507	-0.0163533	-1.01953	0.298096	-0.0661621	0.44527	-0.0783448	-0.163928	-0.876769	3.04241	2.51343	9.70111	0.0240931	0.0508185	0.0796433	-0.535889	0.146729	-0.908691	0.312244	-0.852435	-0.392691	-0.14715	4.98226	-4.20558	-7.38528	0.0677928	-0.0195316	-0.0629584	-0.192139	0.755615	0.72876	
56	-0.485243	0.479906	0.375331	0.627182	9.84851	-0.0696271	2.6415	0.0728796	0.014766	-0.0152428	-0.823486	0.43335	-0.124756	-0.531087	0.427605	0.38525	0.621838	9.53084	0.488925	3.32447	0.0827665	0.00368431	-0.0184756	-0.754395	0.303223	-0.192139	0.82535	-0.12519	-0.198271	-0.513627	5.06074	-0.0417731	9.38781	0.120348	0.0148081	0.0851741	-0.316895	0.290283	-0.9104	0.0180818	0.0486096	-0.0965316	-0.993978	-0.961777	2.0265	9.40631	0.0270873	0.0595921	0.12232	-0.310791	-0.143799	-0.924316	-0.510434	0.231116	0.238153	0.7933	5.89473	1.44195	7.76633	0.039001	0.0202372	0.0483204	-0.707275	0.234619	-0.645752	-0.995114	-0.00225962	-0.0438383	0.0884403	-1.0242	-1.42184	13.2402	-0.0437501	-0.00858019	0.047738	0.544434	0.0661621	-0.896729	0.219311	-0.607346	-0.503498	-0.574041	8.90857	3.34345	-2.19485	0.0884389	0.177909	-0.036569	-0.882568	0.0793457	0.442139	-0.490021	0.489982	0.487252	0.531397	9.77958	0.0296356	0.161978	0.161342	-0.0261596	-0.023954	-0.988037	0.379395	-0.0354004	-0.521662	0.43145	0.563531	0.473446	10.0424	0.697146	-0.45947	0.100206	0.0205221	-0.00634296	-1.01929	0.293457	-0.065918	0.44602	-0.0782387	-0.163517	-0.876474	2.92032	2.32543	9.78894	-0.0137523	0.0434415	0.068264	-0.531494	0.148926	-0.908691	0.31271	-0.852076	-0.393249	-0.146746	4.87387	-3.96689	-7.38761	0.0613196	-0.0171562	-0.0380822	-0.196289	0.749023	0.726562	
57	-0.485691	0.477882	0.377541	0.627054	9.89162	0.0320016	2.60104	0.118236	0.00952143	-0.0747527	-0.834717	0.435303	-0.124756	-0.532023	0.426556	0.387038	0.620648	9.4413	0.413936	3.47524	0.0799673	-0.0123485	-0.0177407	-0.75	0.301025	-0.196777	0.826638	-0.124404	-0.199914	-0.511104	4.9664	0.198382	9.62805	0.0729982	-0.0488629	0.0984434	-0.314697	0.292236	-0.906006	0.0209154	0.0497534	-0.0964086	-0.993878	-1.10167	1.96251	9.50263	0.000549345	0.0633394	0.0966183	-0.304199	-0.143799	-0.922119	-0.512326	0.23055	0.239283	0.791904	6.04492	1.46755	7.86366	0.0904602	0.00760344	0.0636384	-0.702881	0.232422	-0.650391	-0.995375	-0.00174313	-0.0427419	0.0860188	-1.01425	-1.487	13.3491	-0.0140506	-0.0405809	0.0899351	0.539795	0.0705566	-0.89917	0.221312	-0.605223	-0.503184	-0.575788	9.00751	2.88298	-2.52214	0.0473991	0.119101	-0.0227597	-0.884766	0.081543	0.435547	-0.490969	0.489244	0.490237	0.528448	10.0498	0.467858	0.417913	0.15628	-0.0743984	-0.0032515	-0.994385	0.379395	-0.0354004	-0.522864	0.430588	0.563774	0.472616	9.84108	0.795451	0.234922	0.0623899	0.0196161	-0.000273548	-1.01733	0.300293	-0.0683594	0.447103	-0.079	-0.163708	-0.875818	3.01048	2.1949	9.8195	0.0171008	-0.0238244	0.0573944	-0.535889	0.146729	-0.91333	0.312421	-0.851836	-0.394284	-0.145974	4.95158	-4.09393	-7.4326	-0.0011046	-0.0419766	-0.0407605	-0.196289	0.746826	0.730957	
58	-0.486662	0.475061	0.379587	0.627209	9.72533	0.295177	2.62395	0.116618	0.0539877	-0.0463857	-0.832031	0.426758	-0.128906	-0.532616	0.425864	0.388626	0.619621	9.28948	0.312714	3.20005	0.0692282	-0.00737834	-0.018014	-0.75	0.296875	-0.191895	0.827532	-0.125188	-0.20085	-0.509095	4.8895	0.171404	9.59297	0.00215037	-0.0301628	0.0719635	-0.321045	0.29248	-0.910645	0.0225656	0.050718	-0.0964142	-0.993792	-1.07554	1.5555	9.67109	-0.0136144	0.0455131	0.056533	-0.301758	-0.147949	-0.928711	-0.514252	0.229077	0.241469	0.790419	5.87872	1.58946	7.74499	0.131743	0.0108566	0.0385379	-0.704834	0.228027	-0.645752	-0.995681	-0.00114213	-0.0412739	0.0831485	-0.896269	-1.20532	13.3666	-0.00384239	-0.0476905	0.0888594	0.535645	0.0661621	-0.90332	0.223467	-0.60304	-0.504572	-0.576031	8.70146	3.04156	-2.29354	0.108337	0.11032	-0.0464235	-0.882812	0.0837402	0.431396	-0.490737	0.489628	0.488063	0.530317	9.87642	0.360926	0.408157	-0.118686	0.105095	-0.0285341	-0.996826	0.383789	-0.0402832	-0.522943	0.430923	0.563721	0.472286	9.78065	0.88267	-0.0698133	0.00654788	-0.00668586	-0.00522876	-1.01978	0.300293	-0.0773926	0.448483	-0.0786686	-0.164035	-0.875081	3.04129	2.43956	10.0403	0.0239735	0.0434428	0.0605872	-0.531494	0.148926	-0.915527	0.312814	-0.851172	-0.395648	-0.145313	5.21755	-4.19813	-7.51759	0.0635042	-0.0163251	-0.0504858	-0.192139	0.755615	0.726318	
59	-0.487683	0.472873	0.380824	0.62732	9.64618	0.305844	2.62901	0.0848214	0.0387171	-0.0393865	-0.827637	0.426758	-0.135498	-0.533044	0.424946	0.390401	0.618767	9.48432	0.414417	3.24823	0.0682913	-0.0103098	-0.0361152	-0.75415	0.296631	-0.194092	0.828083	-0.124396	-0.201945	-0.507959	4.94359	0.00691695	9.52619	0.0872059	-0.0255954	0.0290851	-0.321045	0.288086	-0.908203	0.0240609	0.0516927	-0.096218	-0.993726	-1.0382	1.64764	9.66963	0.0144255	0.0584982	0.0584091	-0.297852	-0.13916	-0.928955	-0.515357	0.22812	0.242654	0.789612	6.09375	1.62933	7.61203	0.0602145	0.0215775	0.0125621	-0.702881	0.234619	-0.647949	-0.995852	-0.000698987	-0.0401966	0.0816233	-0.889903	-1.22252	13.4632	-0.0227106	-0.0252958	0.0262153	0.531494	0.0639648	-0.903076	0.224972	-0.601319	-0.50539	-0.576527	8.86553	3.18008	-2.23064	0.0685746	0.0803127	-0.03227	-0.88916	0.081543	0.427246	-0.490678	0.489457	0.487521	0.531027	9.65816	0.19317	0.198793	0.00416393	0.0082652	-0.0208631	-0.994385	0.379395	-0.0354004	-0.523533	0.430751	0.563909	0.471565	9.77999	0.719038	-0.343775	0.0399054	0.00736443	0.00250433	-1.01733	0.300293	-0.0683594	0.449606	-0.078936	-0.164309	-0.874429	2.76926	2.22457	9.44443	0.0185907	-0.0119698	0.0543233	-0.531494	0.151123	-0.915527	0.313109	-0.850617	-0.396768	-0.144876	4.69497	-3.80314	-7.16201	0.0132813	-0.0199334	-0.04375	-0.19873	0.751221	0.72876	
60	-0.488121	0.471585	0.381554	0.627504	9.69126	0.340929	2.58383	0.0352755	0.0264938	-0.0221686	-0.831787	0.422363	-0.135498	-0.533079	0.42469	0.39103	0.618516	9.37239	0.438171	3.2428	0.0113806	0.00898174	-0.0277057	-0.75	0.299072	-0.189453	0.828404	-0.123822	-0.203395	-0.506996	5.07634	0.198548	9.59573	0.0428374	-0.0223559	0.020516	-0.31665	0.283691	-0.905762	0.0254324	0.0531306	-0.09755	-0.993486	-1.0782	1.87779	9.58258	0.0562722	0.0634139	0.0458442	-0.297363	-0.147949	-0.926514	-0.515553	0.227813	0.242721	0.789552	5.95749	1.56363	7.67423	-0.00676862	0.0139916	-0.0101078	-0.698486	0.234619	-0.647949	-0.995899	0.000867271	-0.0399083	0.0811918	-0.961006	-1.41815	13.2687	-0.0601377	0.00460019	-0.00884466	0.537842	0.0661621	-0.905518	0.226971	-0.599009	-0.505724	-0.577855	8.71795	2.82991	-2.21184	0.0611865	0.148837	-0.0376642	-0.891357	0.081543	0.418701	-0.491165	0.48906	0.488488	0.530054	9.93569	0.520169	0.621319	0.0664974	0.0160894	-0.0206455	-0.992188	0.377197	-0.0400391	-0.52378	0.430863	0.562732	0.472593	9.69242	1.32809	0.317789	-0.0980227	0.0738435	-0.0276527	-1.01733	0.298096	-0.0771484	0.450448	-0.0793733	-0.164635	-0.873895	3.13142	2.34197	9.72303	0.0159827	0.000963944	0.0379492	-0.533936	0.151123	-0.915527	0.312529	-0.850521	-0.397639	-0.1443	5.07774	-4.13333	-7.46763	-0.00761165	-0.0345221	-0.0241349	-0.196533	0.753418	0.735596	
61	-0.488228	0.470163	0.381855	0.628305	9.65872	0.258347	2.63272	0.0269038	0.0495902	-0.0504087	-0.831543	0.420166	-0.139648	-0.533001	0.424266	0.39193	0.618304	9.18281	0.505591	3.06726	0.0227029	-0.00400113	-0.0340021	-0.751953	0.294678	-0.196533	0.828749	-0.123346	-0.203132	-0.506653	4.92856	0.13217	9.36651	0.0143322	0.0322745	0.0138088	-0.31665	0.283691	-0.905762	0.0259625	0.0536478	-0.096998	-0.993498	-1.14428	1.91674	9.40173	-0.045547	0.0215147	0.0116376	-0.299805	-0.141602	-0.924561	-0.516121	0.227216	0.242743	0.789346	5.7597	1.38874	7.58466	0.0418821	0.0392081	0.00977677	-0.700439	0.22583	-0.647949	-0.995926	0.000990174	-0.039768	0.0809274	-0.980566	-1.3853	13.2119	-0.00458187	0.00223027	0.00177279	0.533447	0.0661621	-0.905518	0.227662	-0.598083	-0.50645	-0.577906	8.63919	3.17764	-2.13147	0.0503244	0.00494456	-0.0340713	-0.888916	0.0773926	0.420898	-0.490422	0.488741	0.486756	0.532623	9.84238	0.627451	0.642993	-0.135489	0.113303	-0.0495921	-0.998535	0.375	-0.0424805	-0.521228	0.433853	0.559657	0.476315	9.77591	0.785776	-0.00369584	-0.186429	-0.00776276	-0.0220302	-1.01733	0.300293	-0.0705566	0.451281	-0.0784032	-0.164639	-0.873552	3.10325	2.29939	9.89806	0.0537255	0.0523921	0.0254503	-0.529297	0.151123	-0.917969	0.312913	-0.849971	-0.398455	-0.144459	5.18018	-4.04914	-7.45143	0.02302	0.024753	-0.048496	-0.201172	0.755615	0.724121	
62	-0.488437	0.46896	0.382374	0.628725	9.63505	0.325112	2.62463	0.0341434	0.0170463	-0.0229181	-0.824951	0.416016	-0.135254	-0.532846	0.424843	0.392149	0.617901	9.59702	0.394329	3.13226	-0.0225195	-0.0170728	-0.00413684	-0.751953	0.296631	-0.196533	0.828781	-0.12332	-0.203503	-0.506459	5.08478	-0.0537102	9.45541	0.0164298	-0.0176399	0.00360292	-0.318848	0.281494	-0.912598	0.0262206	0.0539964	-0.0963406	-0.993537	-1.02479	1.81239	9.45538	0.00850828	0.0207795	0.0091696	-0.302002	-0.145996	-0.926514	-0.516803	0.226555	0.243127	0.788971	6.14199	1.80878	7.5107	0.0105699	0.00791061	-0.000640641	-0.696289	0.230225	-0.654785	-0.996002	-0.000128578	-0.0395101	0.0801226	-0.954404	-1.42603	13.2015	-0.007874	0.0178663	-0.00597418	0.540283	0.0617676	-0.905273	0.228063	-0.597789	-0.505984	-0.578459	9.2006	2.98137	-2.31898	0.00679779	0.0696116	0.00567643	-0.88916	0.0837402	0.418457	-0.488539	0.489286	0.484921	0.535518	9.6197	0.321068	0.284454	-0.112719	0.0210927	-0.0794666	-0.998535	0.375	-0.0354004	-0.519256	0.436387	0.556138	0.480261	9.82796	1.40446	-0.151246	-0.342855	0.0929902	-0.0258935	-1.0127	0.298096	-0.0683594	0.451249	-0.0768451	-0.164741	-0.873687	2.93879	2.55858	9.63973	0.0120597	0.0605691	-0.0230351	-0.5271	0.15332	-0.915527	0.313555	-0.849479	-0.3987	-0.145281	4.90334	-3.75581	-7.43917	0.00788071	0.0429948	-0.0155409	-0.198975	0.757812	0.728516	
63	-0.488569	0.468868	0.382624	0.62854	9.73658	0.356456	2.63846	0.027814	-0.0101465	-9.62303e-06	-0.831543	0.42041	-0.14624	-0.532466	0.425276	0.39196	0.618052	9.57023	0.418057	3.17125	-0.0341436	0.0134178	-0.0229854	-0.751953	0.29248	-0.19165	0.828659	-0.12375	-0.203816	-0.506427	5.06899	0.066961	9.62976	-0.0174813	-0.0116094	-0.00965604	-0.31665	0.281494	-0.912598	0.0261987	0.0539253	-0.0975892	-0.993419	-1.06498	1.96859	9.60514	0.0388605	-0.00483179	-0.000720645	-0.297607	-0.143555	-0.926514	-0.516035	0.227646	0.24234	0.789403	6.1563	1.53787	7.55006	-0.0646514	-0.0214346	-0.0327127	-0.705078	0.232422	-0.645752	-0.995933	0.000996792	-0.0398435	0.0807973	-0.99819	-1.56745	13.3162	-0.0228734	0.0270335	-0.0599085	0.531494	0.0661621	-0.901123	0.228875	-0.597051	-0.504752	-0.579975	8.87003	3.15778	-2.06022	-0.0452102	0.089436	-0.000740586	-0.897949	0.0837402	0.414307	-0.486557	0.491103	0.482915	0.537469	10.2267	0.0724298	0.567787	-0.182822	0.0496669	0.00575009	-0.996338	0.375	-0.0400391	-0.516589	0.439336	0.551957	0.485246	9.99202	0.180224	0.204601	-0.09621	0.043923	-0.034699	-1.01514	0.304932	-0.0617676	0.450219	-0.0759243	-0.164615	-0.874323	2.90044	2.32052	9.57351	0.0315428	0.0286885	-0.0556338	-0.526855	0.144531	-0.917725	0.313099	-0.849728	-0.39806	-0.146562	4.71935	-3.9019	-7.3092	-0.0505008	0.0492282	0.00846216	-0.201416	0.76001	0.728516	
64	-0.488308	0.469459	0.382026	0.628665	9.70546	0.299146	2.56571	-0.043684	0.00394924	-0.0156536	-0.83374	0.420166	-0.14624	-0.532195	0.425594	0.391509	0.618352	9.58596	0.459846	3.21884	-0.0633465	0.0191826	-0.0188157	-0.752197	0.301025	-0.194336	0.828432	-0.124224	-0.203822	-0.506681	5.06372	0.0737185	9.67874	-0.0344335	-0.0158647	-0.0196722	-0.318848	0.283691	-0.912598	0.0259348	0.0536774	-0.0976903	-0.99343	-1.08924	1.95908	9.56993	0.0120618	-0.0158826	-0.0181161	-0.299805	-0.143555	-0.928711	-0.515041	0.228822	0.242422	0.789687	6.08068	1.54004	7.75467	-0.0265717	-0.0355998	-0.0395127	-0.698242	0.22583	-0.645752	-0.995867	0.000991462	-0.0400938	0.0814884	-1.07135	-1.52098	13.3597	0.00626772	0.0349877	-0.0745086	0.5354	0.0727539	-0.907715	0.228925	-0.597537	-0.50272	-0.581219	9.03897	2.913	-2.35793	-0.0364551	0.0400485	0.0452862	-0.893555	0.0837402	0.410156	-0.486235	0.491367	0.481495	0.538791	10.1286	-0.0480517	0.704802	-0.131174	0.0983606	-0.015654	-0.994629	0.381592	-0.0332031	-0.515784	0.440165	0.551118	0.486303	9.9551	0.773912	0.118876	-0.135873	0.00914428	-0.0286705	-1.01733	0.300293	-0.0683594	0.449346	-0.0758543	-0.164795	-0.874744	2.98021	2.55804	9.53006	0.00655668	0.00229966	-0.0743431	-0.5271	0.148926	-0.915527	0.313156	-0.850069	-0.397162	-0.146895	4.82258	-4.02739	-7.37503	-0.0246427	0.0483077	0.0603416	-0.205566	0.751221	0.726318	
65	-0.487738	0.469745	0.381756	0.629058	9.61723	0.255768	2.51385	-0.0586482	-0.00978044	-0.0269001	-0.829834	0.426758	-0.137695	-0.531553	0.426358	0.390533	0.618994	9.37305	0.42737	3.04089	-0.0672937	0.0193941	-0.0187161	-0.75415	0.296875	-0.189453	0.828049	-0.125382	-0.203015	-0.507345	5.17727	0.14606	9.63418	-0.0681139	0.0254009	-0.0205696	-0.318848	0.283691	-0.912598	0.0244881	0.0525758	-0.0984759	-0.993448	-1.12907	1.87421	9.76218	0.0340768	-0.0539331	-0.0590489	-0.297363	-0.145752	-0.926514	-0.514576	0.229169	0.242281	0.789932	5.95076	1.64806	7.73932	-0.0373086	-0.0135666	-0.0415009	-0.698242	0.228027	-0.645752	-0.995744	0.00146028	-0.0404853	0.0827842	-0.880602	-1.35851	13.4505	-0.0112521	0.030196	-0.0712084	0.535645	0.0683594	-0.905518	0.229438	-0.597696	-0.501866	-0.581591	8.7758	2.86304	-2.18534	-0.017185	0.0573403	0.0483668	-0.900146	0.0837402	0.418457	-0.485941	0.491616	0.48197	0.538405	9.61366	0.379742	0.183409	0.0713846	-0.0693721	-0.0124027	-1.00073	0.375	-0.0354004	-0.514273	0.442003	0.548557	0.489123	9.85247	0.947841	-0.480645	-0.194971	0.047071	-0.0118073	-1.0127	0.302734	-0.0639648	0.447039	-0.0765543	-0.162559	-0.876282	3.06941	2.16536	9.92545	-0.118621	0.0366586	-0.0909593	-0.522949	0.155762	-0.917969	0.313811	-0.85108	-0.394277	-0.147414	4.98996	-4.12705	-7.43869	-0.0227992	0.0703794	0.102405	-0.192139	0.753418	0.733154	
66	-0.486415	0.470041	0.381547	0.629987	9.90066	0.218247	2.63344	-0.0417702	0.000272944	-0.0497617	-0.831543	0.416016	-0.137451	-0.530582	0.428173	0.388728	0.61971	9.50006	0.385905	3.23388	-0.116871	-0.00509149	0.0150582	-0.754395	0.299072	-0.189453	0.827315	-0.126004	-0.201565	-0.508964	4.90179	0.110569	9.64025	-0.0605366	0.0368395	-0.0693361	-0.314697	0.29248	-0.912842	0.0226623	0.0512511	-0.0975033	-0.993656	-1.07311	1.81295	9.68933	-0.0358446	-0.0494423	-0.0769542	-0.303955	-0.148193	-0.922119	-0.513374	0.23008	0.240585	0.790967	6.12753	1.53575	7.60525	-0.107515	0.0199544	-0.0490036	-0.698486	0.234619	-0.645752	-0.995553	-6.20391e-05	-0.041404	0.0846172	-0.948104	-1.41597	13.4796	0.0836058	0.0638375	-0.0994252	0.539795	0.0727539	-0.903564	0.229185	-0.59899	-0.499934	-0.582024	8.96	2.88738	-2.11788	-0.0610196	-0.018382	0.0473285	-0.893311	0.0793457	0.416504	-0.484159	0.493538	0.483418	0.536952	10.0073	0.264694	0.193219	-0.0256665	-0.119449	-0.0209943	-0.998779	0.379395	-0.0332031	-0.513575	0.443208	0.546733	0.490806	9.95308	0.64403	-0.457382	-0.21421	0.0613451	0.00123938	-1.0127	0.302734	-0.0661621	0.445064	-0.0769274	-0.162323	-0.877298	2.90404	1.9171	9.71565	0.00235688	-0.0200541	-0.0775486	-0.531494	0.151123	-0.915527	0.313345	-0.851984	-0.392402	-0.148185	4.6437	-4.09973	-7.28919	-0.0548827	0.0293362	0.0471239	-0.200684	0.746826	0.72876	
67	-0.48621	0.4701	0.380225	0.6309	9.82005	0.308692	2.72964	-0.0622743	0.0490155	0.0249826	-0.83374	0.417969	-0.135254	-0.529442	0.43015	0.387021	0.620385	9.49175	0.111978	3.20233	-0.130088	-0.00737888	-0.00815752	-0.754395	0.30127	-0.184814	0.825952	-0.127183	-0.20015	-0.511436	4.93284	0.013022	9.62799	-0.104955	0.0290526	-0.104335	-0.319092	0.294678	-0.908447	0.0196915	0.0501663	-0.0980613	-0.99372	-0.944175	1.76567	9.57015	0.0498677	-0.0535095	-0.121616	-0.299561	-0.148193	-0.919922	-0.511256	0.231658	0.238908	0.792386	5.96661	1.37983	7.72505	-0.119764	-0.0302373	-0.0886495	-0.704834	0.230225	-0.638916	-0.995257	-0.000247054	-0.0434081	0.0870558	-1.06826	-1.31646	13.2101	-0.00969246	0.101806	-0.120695	0.539795	0.0749512	-0.903564	0.229236	-0.599765	-0.498744	-0.582225	9.00894	2.73771	-2.42169	-0.0260636	0.0156008	0.0184316	-0.889404	0.0859375	0.414307	-0.483227	0.495372	0.481383	0.53793	10.1451	0.132498	0.506099	-0.140131	0.0531742	0.0259086	-0.988037	0.379395	-0.0239258	-0.512941	0.443741	0.54433	0.49365	9.83332	0.533728	0.246049	-0.0298067	0.00265332	-0.0217721	-1.0127	0.302734	-0.0661621	0.443428	-0.0773689	-0.162758	-0.878006	2.8801	2.43418	9.85711	0.000998586	-0.0145542	-0.0590612	-0.533691	0.146729	-0.908691	0.312366	-0.852937	-0.390993	-0.148493	4.91645	-4.29422	-7.33867	-0.041552	0.00888612	0.0566909	-0.19873	0.753418	0.733154	
68	-0.486166	0.470941	0.377777	0.631776	9.58858	0.129072	2.79324	-0.0983714	0.0318346	0.0334874	-0.82959	0.422363	-0.135498	-0.528253	0.43177	0.386233	0.620763	9.34805	0.178365	3.18789	-0.0848348	-0.0281855	-0.0205843	-0.754395	0.303223	-0.187256	0.824482	-0.128553	-0.198459	-0.514119	4.97025	-0.351493	9.37022	-0.0969666	0.0374079	-0.0908445	-0.325439	0.299072	-0.908447	0.018102	0.0493659	-0.0981914	-0.993778	-0.739909	1.86569	9.46205	0.0184848	-0.0707351	-0.118996	-0.306152	-0.150391	-0.924316	-0.508724	0.23325	0.23824	0.793748	6.01554	1.15433	7.79715	-0.0773374	-0.0347771	-0.0977896	-0.713867	0.234375	-0.638916	-0.994949	-0.000434547	-0.0448515	0.0898054	-1.28973	-1.22205	13.2543	0.0215531	0.0595565	-0.127057	0.543701	0.0812988	-0.903809	0.229448	-0.600118	-0.499321	-0.581284	8.84482	3.11318	-2.15676	0.0592237	-0.0244818	-0.0178919	-0.891357	0.0837402	0.416504	-0.482913	0.49601	0.480583	0.538339	9.60937	0.336263	0.0408053	0.00740386	-0.0201824	-0.00470887	-0.994385	0.379395	-0.0307617	-0.513414	0.443281	0.544107	0.493817	9.95074	0.998566	-0.140403	0.0129053	0.050576	-0.0169034	-1.0105	0.302734	-0.0661621	0.442381	-0.0783199	-0.162301	-0.878535	3.12361	2.03562	10.0116	-0.0183808	-0.00999527	-0.0288955	-0.529297	0.151123	-0.91333	0.312447	-0.85355	-0.389659	-0.148308	5.12692	-4.35115	-7.46522	0.0010442	0.0184199	0.0466012	-0.194336	0.751221	0.737793	
69	-0.485359	0.472177	0.375816	0.632644	9.57417	0.0165446	2.7775	-0.100087	-0.000663673	0.016764	-0.836182	0.420166	-0.135498	-0.527137	0.433602	0.385442	0.620927	9.43918	0.165426	3.08477	-0.0892122	-0.0279173	-0.00294735	-0.754395	0.303467	-0.173096	0.823381	-0.129889	-0.197601	-0.515874	5.07085	-0.426641	9.26409	-0.076009	-0.00666377	-0.0566917	-0.319092	0.303223	-0.90625	0.0146489	0.0473847	-0.0990426	-0.993846	-0.61902	2.04843	9.46088	0.0531976	-0.0362906	-0.0641931	-0.305908	-0.154785	-0.926514	-0.506971	0.234305	0.237821	0.794684	6.04672	1.20865	7.61391	-0.0617136	-0.0295897	-0.0611294	-0.711426	0.22998	-0.638916	-0.994711	-0.000113701	-0.0459644	0.0918572	-1.36978	-1.39137	13.206	-0.0200346	0.063373	-0.0940034	0.543945	0.0771484	-0.897217	0.228463	-0.601169	-0.49913	-0.58075	8.93337	2.86034	-2.16804	-0.0189958	-0.0429444	-0.00534949	-0.891602	0.0881348	0.418457	-0.483057	0.495946	0.482099	0.536911	10.0648	0.669907	0.566139	0.0391953	-0.0108128	-0.022413	-0.998779	0.37915	-0.0236816	-0.513983	0.442652	0.542759	0.49527	9.69441	0.854688	0.380409	-0.0435771	0.0780229	-0.0298794	-1.01733	0.302734	-0.0705566	0.442012	-0.0778637	-0.162867	-0.878656	2.79831	2.31734	9.93502	0.0347608	0.0126733	-0.0156342	-0.533447	0.144531	-0.917725	0.31206	-0.853709	-0.389445	-0.148769	5.05234	-4.08564	-7.34677	-0.0312153	0.0108415	-0.00989843	-0.194092	0.749023	0.735596	
70	-0.484545	0.474105	0.374659	0.632512	9.64146	-0.170971	2.68173	-0.0706658	-0.0582237	0.0364283	-0.829834	0.426758	-0.133301	-0.526032	0.435364	0.384929	0.62095	9.53045	0.0481846	3.09811	-0.072983	-0.0361938	-0.0119774	-0.752441	0.305664	-0.17334	0.822744	-0.131109	-0.197631	-0.51657	5.10453	-0.424241	9.34498	-0.0328747	-0.0219989	-0.0227587	-0.321289	0.301025	-0.90625	0.0139954	0.0472091	-0.099854	-0.993783	-0.616697	2.13088	9.46547	0.0707616	-0.014167	-0.046832	-0.310059	-0.161377	-0.915283	-0.505691	0.235793	0.237712	0.795092	6.01721	1.16253	7.72173	-0.0376578	-0.051522	-0.0415788	-0.709473	0.234375	-0.634277	-0.994544	0.000911388	-0.0472539	0.0929932	-1.36218	-1.4438	13.1822	-0.0387625	0.0614815	-0.0574524	0.550049	0.0856934	-0.897461	0.227841	-0.60166	-0.499442	-0.580217	9.00684	2.94155	-2.16355	0.0215174	-0.0111354	-0.0276829	-0.88916	0.0837402	0.422852	-0.482255	0.496736	0.478626	0.54	9.91128	0.291866	0.620233	-0.233714	0.146729	0.00367722	-0.994385	0.379395	-0.0285645	-0.513015	0.443411	0.541721	0.496729	9.84035	0.626571	0.345369	-0.0600936	-0.00340074	-0.0361404	-1.01758	0.304932	-0.0661621	0.44185	-0.0779043	-0.163145	-0.878682	2.88383	2.34874	9.72538	0.0192001	-0.00192341	-0.00985635	-0.529053	0.142334	-0.908447	0.311867	-0.853743	-0.389455	-0.148951	5.07523	-4.13409	-7.30524	-0.0171337	0.0108094	-0.0110724	-0.196533	0.751221	0.737793	
71	-0.483913	0.476233	0.374741	0.631348	9.86827	-0.176125	2.58391	-0.0219168	-0.0950174	0.0328599	-0.82959	0.424561	-0.126709	-0.525649	0.436023	0.385197	0.620644	9.58116	0.173758	3.16009	-0.00227013	-0.0181147	-0.018482	-0.752197	0.303467	-0.170898	0.822386	-0.132306	-0.198089	-0.51666	5.08759	-0.460804	9.50753	-0.0247339	-0.0413762	0.00953139	-0.327637	0.299072	-0.901611	0.0130484	0.0467289	-0.101404	-0.993662	-0.638465	2.03978	9.47211	0.0421227	-0.0142518	-0.00642418	-0.310303	-0.15918	-0.921875	-0.505047	0.236895	0.238626	0.7949	6.19166	1.17005	7.89103	0.0139913	-0.0497644	-0.0212774	-0.713623	0.227783	-0.63208	-0.994488	0.00193431	-0.0475924	0.0934073	-1.37663	-1.37255	13.341	-0.0402323	0.00913721	-0.0317217	0.550049	0.0834961	-0.899414	0.227463	-0.601799	-0.499062	-0.580548	9.07646	3.04216	-2.04326	-0.0160336	-0.00125135	-0.0116529	-0.889404	0.0859375	0.418457	-0.482547	0.496551	0.476314	0.54195	9.8945	0.0431514	0.437064	-0.00165279	0.0989374	0.00410857	-0.994385	0.381348	-0.0239258	-0.512369	0.44327	0.541995	0.497223	10.0186	0.741703	0.00618382	-0.0128442	0.00204575	-0.048111	-1.01978	0.300293	-0.0705566	0.440732	-0.077601	-0.163254	-0.879251	2.83513	2.43841	9.8055	-0.0143122	-0.0130988	-0.0506558	-0.53125	0.144531	-0.913086	0.312275	-0.854114	-0.388116	-0.149463	4.99496	-3.97662	-7.31643	-0.0152076	0.0375842	0.05195	-0.196533	0.751221	0.735596	
72	-0.483646	0.476976	0.375068	0.630797	9.99616	-0.125912	2.5384	-0.00524614	-0.0814856	0.0160987	-0.830078	0.430908	-0.120361	-0.525449	0.436172	0.38541	0.620577	9.65812	0.181343	3.16359	-0.00930419	-0.01081	-0.0278698	-0.756592	0.303467	-0.173096	0.822423	-0.132811	-0.198592	-0.516277	5.12838	-0.346135	9.52849	-0.00286814	-0.0519767	0.0285471	-0.325684	0.303467	-0.899414	0.0131691	0.046562	-0.10219	-0.993587	-0.734577	2.03184	9.67322	0.0659113	-0.00667345	0.0143936	-0.310059	-0.163574	-0.921875	-0.504956	0.237354	0.239914	0.794433	6.27105	1.38383	7.83722	0.0325266	-0.0373206	-0.0104176	-0.718018	0.22998	-0.634277	-0.994501	0.00276588	-0.047363	0.0933653	-1.30284	-1.3711	13.4588	-0.0587662	-0.0100311	-0.0194568	0.550049	0.0878906	-0.901855	0.226089	-0.603365	-0.498713	-0.579758	9.26071	2.97394	-2.08364	-0.0187848	-0.0614068	0.000262691	-0.88501	0.0859375	0.429199	-0.483441	0.496186	0.476609	0.541227	9.9477	0.151745	0.442808	0.0953365	0.0257131	0.0244461	-0.994629	0.381592	-0.0285645	-0.512858	0.442623	0.543197	0.495983	9.91027	0.40169	-0.237457	0.150569	-0.041852	-0.0197299	-1.01733	0.300293	-0.0683594	0.439892	-0.07818	-0.16304	-0.879659	2.81494	2.46831	9.71388	-0.043413	-0.0289196	-0.0611873	-0.537842	0.142334	-0.910889	0.312496	-0.854515	-0.387042	-0.149499	4.96704	-3.98929	-7.30132	-0.00683765	0.0363304	0.0835413	-0.194336	0.753418	0.737793	
73	-0.482787	0.478573	0.375585	0.629937	9.89681	-0.00833333	2.45592	-0.0199258	-0.0295798	-0.00484086	-0.832031	0.424561	-0.124756	-0.525098	0.435925	0.385052	0.62127	9.45738	0.303646	3.31276	-0.015856	0.0458618	-0.0477109	-0.758789	0.303467	-0.170898	0.822581	-0.133707	-0.200136	-0.515198	5.10586	-0.0846416	9.74474	0.0176033	-0.0340593	0.0220981	-0.334229	0.303467	-0.901611	0.0135554	0.0467502	-0.103584	-0.993429	-0.833433	2.00209	9.93944	0.0530002	0.0201889	0.0132018	-0.312012	-0.167969	-0.919678	-0.504824	0.237959	0.240613	0.794124	6.13774	1.34287	8.06023	0.0103909	-0.0241065	-0.00958381	-0.715576	0.223389	-0.627441	-0.99457	0.00466904	-0.0466146	0.0929316	-1.10468	-1.36337	13.692	-0.0323486	-0.011415	-0.000567507	0.549805	0.0900879	-0.897461	0.224973	-0.604307	-0.498255	-0.579605	8.84791	2.89098	-2.0777	-0.0180464	-0.0549865	-0.0143413	-0.887207	0.0859375	0.429199	-0.485198	0.49678	0.475953	0.539686	9.9173	0.139336	0.291875	0.0357332	0.0235694	0.0815875	-0.994629	0.383789	-0.0356445	-0.516147	0.439479	0.548774	0.48918	10.0517	0.773203	-0.0989589	0.449863	-0.0815131	0.0188151	-1.01489	0.298096	-0.0727539	0.438084	-0.0801636	-0.162755	-0.880436	2.8149	2.1299	9.72128	-0.0512545	-0.0809605	-0.0575548	-0.538086	0.146729	-0.91333	0.312384	-0.855691	-0.384673	-0.149116	4.73836	-4.13779	-7.26972	-0.0282012	0.00146694	0.103679	-0.193848	0.744629	0.738037	
74	-0.482491	0.478367	0.375635	0.63029	9.79052	-0.0071705	2.47768	-0.0112577	0.0103598	-0.0380574	-0.82959	0.422363	-0.126709	-0.524971	0.435461	0.385015	0.621725	9.21201	0.363013	3.14214	-0.00936759	0.0506942	-0.0562288	-0.754395	0.30127	-0.175537	0.822695	-0.133519	-0.200044	-0.5151	4.9605	0.197843	9.64242	0.0149564	0.0201932	0.00846956	-0.325684	0.307617	-0.899658	0.0131877	0.047197	-0.103574	-0.993414	-1.02616	1.74814	9.79102	-0.0168942	0.0214161	-0.0252556	-0.307617	-0.167969	-0.91748	-0.505016	0.237593	0.240956	0.794008	5.83328	1.28471	7.97649	0.0416307	0.0183366	-0.00737329	-0.711426	0.232178	-0.629639	-0.994637	0.00460131	-0.0462539	0.0923986	-0.989482	-1.18612	13.5789	0.0122417	-0.0145485	0.0234373	0.545654	0.0856934	-0.901611	0.223532	-0.605716	-0.498529	-0.578456	8.56475	2.96365	-2.04482	-0.0200264	-0.171679	-0.0190055	-0.891602	0.0859375	0.435547	-0.486271	0.497292	0.478092	0.536348	9.51242	0.461006	-0.11006	0.160144	-0.127052	0.0269265	-0.988525	0.390137	-0.0334473	-0.519588	0.436783	0.552024	0.484271	9.88338	1.19105	-0.59073	0.260203	0.00405919	0.0351723	-1.01758	0.302734	-0.0795898	0.437408	-0.0811979	-0.162648	-0.880696	3.0956	2.05365	9.96218	-0.048841	-0.0635413	-0.0391512	-0.546875	0.144287	-0.908691	0.31194	-0.856579	-0.38336	-0.148326	5.0465	-4.48556	-7.34143	-0.00538815	-0.0190443	0.0334295	-0.184814	0.742432	0.735596	
75	-0.48221	0.476936	0.375832	0.631471	9.33354	0.213488	2.54375	0.0131596	0.0511238	-0.0535427	-0.82959	0.420166	-0.128906	-0.524899	0.434709	0.385302	0.622135	9.11595	0.294863	3.12842	0.00365498	0.0251634	-0.0441181	-0.756836	0.307861	-0.17334	0.822678	-0.132724	-0.199308	-0.515618	4.90708	-0.0609203	9.30633	0.0218523	0.0544635	-0.0265026	-0.325684	0.307617	-0.901855	0.0126988	0.0477758	-0.10165	-0.993591	-0.963997	1.62024	9.44003	-0.0723203	0.0290598	-0.0222969	-0.303223	-0.163574	-0.919678	-0.505615	0.236551	0.241319	0.793828	5.89993	1.33618	7.78021	0.079752	0.0666774	0.00666179	-0.718262	0.234375	-0.634277	-0.994779	0.00294173	-0.0451687	0.0914636	-0.935853	-1.17096	13.2184	0.0736067	-0.0255897	0.0139235	0.543457	0.0900879	-0.897461	0.219419	-0.609614	-0.499102	-0.575433	8.64595	2.67148	-2.39375	-0.0336464	-0.241162	-0.0205611	-0.880615	0.081543	0.452637	-0.485215	0.497977	0.482155	0.533022	9.71948	0.973557	0.611722	0.0631948	-0.149511	-0.0731186	-0.988281	0.385742	-0.0239258	-0.521055	0.435995	0.549214	0.486595	9.30259	1.58437	0.65906	-0.193172	0.17517	-0.0264689	-1.01514	0.304932	-0.0795898	0.437851	-0.0822566	-0.163845	-0.880157	2.94701	1.90614	9.75818	0.0748899	-0.0108626	0.0370001	-0.544434	0.140137	-0.904053	0.31015	-0.8568	-0.38453	-0.147777	5.0583	-4.20652	-7.22323	-0.0531917	-0.0669348	-0.0713458	-0.187012	0.742432	0.742432	
76	-0.482467	0.476052	0.375746	0.631993	9.72263	0.222493	2.7425	0.0117232	0.0373927	-0.00834474	-0.834229	0.424561	-0.124756	-0.524673	0.434148	0.385499	0.622594	9.30941	0.242023	3.09707	-0.00382442	0.0311345	-0.0440203	-0.758789	0.303467	-0.170898	0.822546	-0.130617	-0.199037	-0.516471	4.80113	-0.109364	9.07879	0.0679127	0.043412	-0.0567167	-0.321289	0.301025	-0.904053	0.012534	0.0485706	-0.100296	-0.993692	-0.896298	1.81408	9.09554	-0.052151	0.0439014	-0.00476335	-0.307861	-0.163574	-0.921875	-0.50637	0.233105	0.239875	0.794802	5.86752	1.46305	7.28275	-0.0244126	0.104476	-0.0290904	-0.707031	0.228027	-0.638916	-0.994826	0.00204161	-0.044194	0.0914494	-1.03451	-1.39171	12.8686	0.0508846	-0.0162793	-0.0298219	0.545898	0.0834961	-0.906006	0.216129	-0.612048	-0.500165	-0.573167	8.70463	2.97671	-2.43776	-0.0293653	-0.16254	-0.0569228	-0.876221	0.0793457	0.452881	-0.483092	0.499513	0.479205	0.536164	10.1736	0.0116068	0.994778	-0.248439	0.113885	-0.02742	-0.999023	0.385742	-0.0214844	-0.519846	0.437271	0.546373	0.489929	9.83539	0.871106	0.848501	-0.112934	0.0337252	-0.0335775	-1.01758	0.307373	-0.0773926	0.439241	-0.0807293	-0.165479	-0.879299	3.07429	2.54658	9.86186	0.103275	0.0596817	0.0595894	-0.541992	0.135742	-0.910645	0.308962	-0.856101	-0.38693	-0.148052	5.19621	-4.45505	-7.40504	0.0228689	-0.00843124	-0.10087	-0.191895	0.746826	0.740234	
77	-0.482655	0.475277	0.375786	0.632409	9.87641	0.126529	2.85402	0.0170548	0.0164119	-0.0251502	-0.836182	0.420166	-0.128906	-0.524461	0.434126	0.38562	0.622714	9.55983	0.369499	3.12096	-0.0120284	0.00800996	-0.0385108	-0.758789	0.303467	-0.173096	0.82196	-0.130839	-0.200777	-0.516674	5.36338	-0.213689	9.48743	0.0091455	-0.0920789	-0.0155243	-0.327637	0.303467	-0.901611	0.0127466	0.0495704	-0.101289	-0.99354	-0.968027	2.26024	9.23342	0.0936284	0.0401413	0.00922579	-0.303223	-0.165527	-0.92627	-0.505701	0.233567	0.23975	0.795131	5.97243	1.51779	7.48661	-0.0129373	-0.0527754	-0.035964	-0.713379	0.225586	-0.636475	-0.994784	0.00322534	-0.0439278	0.0920049	-1.04647	-1.68909	12.9467	-0.0914441	0.00394459	-0.0413795	0.543457	0.0878906	-0.899658	0.213054	-0.614931	-0.501608	-0.569962	9.37515	3.20558	-2.69837	0.0352095	-0.221034	-0.0216918	-0.87207	0.0837402	0.463379	-0.483691	0.498308	0.478276	0.537572	9.84494	-0.388954	0.225745	0.0793667	0.0750889	-0.027409	-0.994629	0.383545	-0.0168457	-0.520204	0.436661	0.547026	0.489365	10.2692	0.33072	0.0801592	0.162833	-0.00680862	-0.0180786	-1.02222	0.304932	-0.0839844	0.440025	-0.0799046	-0.165098	-0.879054	2.93576	2.41816	9.70858	-0.0309384	0.046527	0.0202326	-0.544434	0.137939	-0.910645	0.310414	-0.855457	-0.387238	-0.14793	4.75024	-4.07641	-7.36029	0.0664139	0.0279386	0.0110997	-0.194336	0.751221	0.742432	
78	-0.482169	0.475243	0.377368	0.631862	9.54466	0.26686	2.54439	0.050033	-0.0707052	-0.0330663	-0.838379	0.420166	-0.128906	-0.524123	0.43404	0.386457	0.622539	9.52864	0.322072	3.16423	0.0080387	0.00607059	-0.0169253	-0.756348	0.296875	-0.172852	0.821661	-0.133271	-0.202576	-0.515825	5.41057	-0.153496	9.72904	-0.0485287	-0.0974398	0.0498816	-0.332031	0.303467	-0.904053	0.0130924	0.0490119	-0.104961	-0.993182	-0.845258	2.29039	9.70485	0.14101	-0.0360698	0.0243216	-0.307617	-0.167969	-0.919678	-0.50474	0.235165	0.24251	0.794433	6.2287	1.39758	7.80747	0.0679744	-0.114701	-0.0372184	-0.71582	0.227783	-0.629639	-0.994788	0.00706647	-0.0436305	0.0918878	-1.20251	-1.68939	13.4228	-0.134982	-0.0214337	-0.0105858	0.543213	0.0944824	-0.901855	0.211332	-0.617678	-0.502547	-0.566797	8.72438	2.83344	-2.45615	0.0176095	-0.158592	0.0049512	-0.865479	0.0837402	0.471924	-0.485381	0.496114	0.482123	0.534634	9.95141	0.987824	0.653943	0.16595	-0.0296028	-0.0518116	-0.992676	0.387939	-0.0192871	-0.520223	0.4367	0.545553	0.490951	9.75688	1.31833	0.339753	-0.146094	0.0755496	-0.0331828	-1.01733	0.298096	-0.0771484	0.440283	-0.0803926	-0.164201	-0.879048	3.09034	2.06097	10.0956	-0.0263498	0.0085817	0.0194899	-0.540039	0.140137	-0.917725	0.311216	-0.855366	-0.386884	-0.147698	5.15856	-4.28529	-7.52537	0.0198318	0.00857868	0.00337597	-0.194092	0.749023	0.742432	
79	-0.48196	0.475761	0.379063	0.630617	9.74803	0.425006	2.46016	0.040904	-0.0660679	0.00576065	-0.831787	0.420166	-0.128906	-0.52466	0.433983	0.385857	0.622499	9.13862	0.282017	2.85882	-0.00535421	0.034913	0.0145364	-0.760986	0.30127	-0.166016	0.821675	-0.135638	-0.201581	-0.515574	4.87766	-0.0257624	9.58784	-0.101339	0.0129906	0.0114529	-0.336426	0.305664	-0.899414	0.0125966	0.0475116	-0.104879	-0.99327	-0.881892	1.82486	9.90003	-0.0491892	-0.0537346	-0.025801	-0.307617	-0.165771	-0.91748	-0.505363	0.234798	0.24402	0.793683	6.00254	1.28986	7.51808	0.0638088	0.0174483	0.0215732	-0.717773	0.223389	-0.636475	-0.994926	0.00680424	-0.0429281	0.090735	-1.11465	-1.34198	13.5629	0.0719071	0.00110514	0.0339224	0.539062	0.0922852	-0.904053	0.2074	-0.62129	-0.502408	-0.56442	8.44408	2.93754	-2.62279	-0.0924673	-0.222961	-0.0114273	-0.861084	0.081543	0.482422	-0.48403	0.496358	0.479263	0.538192	10.0317	0.780656	0.914855	-0.234327	0.155475	-0.0491898	-1.00098	0.381348	-0.026123	-0.518396	0.438469	0.543714	0.493341	9.65983	1.04205	0.576415	-0.137309	-0.0119988	-0.0342244	-1.01733	0.298096	-0.0817871	0.440524	-0.0798443	-0.164205	-0.878977	3.05982	2.19329	10.0988	0.0242264	0.0537129	0.0160782	-0.540039	0.142334	-0.908447	0.311586	-0.854857	-0.387435	-0.148421	5.11731	-3.91387	-7.27858	0.00505363	0.0370135	-0.0419056	-0.189453	0.746826	0.737793	
80	-0.482111	0.476302	0.379161	0.630033	9.89437	0.395996	2.5108	0.00750021	-0.0517735	0.0408558	-0.838379	0.422363	-0.126709	-0.524885	0.434377	0.385748	0.622102	9.44148	0.205427	3.00128	-0.00928034	-0.00708965	0.0261339	-0.760986	0.303467	-0.170898	0.821488	-0.136233	-0.200957	-0.51596	4.99114	-0.263565	9.56315	-0.0694482	0.0230794	-0.0175165	-0.332031	0.305664	-0.899414	0.0122373	0.0470331	-0.104002	-0.993389	-0.799494	1.69782	9.8398	-0.0663772	-0.0344644	-0.0274755	-0.307617	-0.165771	-0.919678	-0.505729	0.235391	0.243244	0.793513	6.27237	1.65371	7.52025	-0.0768641	-0.0107159	0.00705773	-0.715576	0.225586	-0.634277	-0.994953	0.00579518	-0.0431655	0.0904028	-1.10175	-1.23946	13.459	0.0832426	0.0406274	0.0114892	0.534668	0.0944824	-0.904053	0.205915	-0.622742	-0.502318	-0.563443	9.03973	2.96284	-3.01654	-0.0463734	-0.160927	-0.00395508	-0.858887	0.0793457	0.489014	-0.482882	0.497477	0.47571	0.541332	9.83759	0.0378946	0.59679	-0.357494	0.185642	-0.00309706	-0.996582	0.381592	-0.0307617	-0.517425	0.439337	0.543683	0.493623	9.96796	0.404458	-0.0315703	-0.0786276	-0.0608656	-0.0300866	-1.01294	0.305176	-0.0773926	0.440452	-0.0784344	-0.164431	-0.879098	2.76135	2.50516	9.51794	0.0143309	0.0552082	-0.0161499	-0.533447	0.142334	-0.910889	0.311586	-0.854857	-0.387435	-0.148421	5.11731	-3.91387	-7.27858	0.00505363	0.0370135	-0.0419056	-0.189453	0.746826	0.737793	
81	-0.482182	0.478024	0.378105	0.62931	9.98394	0.147864	2.57269	-0.0615854	-0.0348255	0.058397	-0.836426	0.426514	-0.122559	-0.524595	0.436	0.384861	0.62176	9.88756	0.289194	3.39395	-0.0329353	0.003286	0.0183476	-0.754395	0.30127	-0.168457	0.821505	-0.135967	-0.200915	-0.516019	5.23737	-0.235764	9.72687	0.0225425	0.00967425	-0.000958439	-0.332031	0.307861	-0.897217	0.011846	0.0462478	-0.105594	-0.993263	-0.80082	1.91879	9.68597	0.107419	-0.0323932	0.000196402	-0.312012	-0.170166	-0.919434	-0.50434	0.238384	0.241868	0.793923	6.09814	1.33339	8.00235	-0.114466	-0.0821992	-0.0261904	-0.718018	0.22998	-0.625244	-0.99478	0.00714989	-0.0451309	0.0912357	-1.06938	-1.44313	13.3848	-0.0897679	0.0955978	-0.0741428	0.543213	0.0964355	-0.9021	0.205838	-0.623412	-0.502541	-0.562531	8.58053	3.07609	-2.58451	-0.00106152	0.0119407	-0.00665191	-0.856445	0.0773926	0.486816	-0.483376	0.497786	0.476295	0.540092	9.94872	-0.245184	-0.0261296	0.216088	-0.0756951	0.00454953	-0.992432	0.385742	-0.0263672	-0.517743	0.438859	0.544736	0.492553	10.0643	0.629759	-0.121494	0.0234825	-0.00832669	-0.0178673	-1.01514	0.300537	-0.0771484	0.439684	-0.078954	-0.163345	-0.879638	2.96547	2.21659	9.59629	-0.0532256	0.000672088	-0.0251484	-0.537842	0.140137	-0.908447	0.312274	-0.854972	-0.386339	-0.149164	4.64608	-4.07799	-7.32404	0.0115476	0.0239472	0.0523059	-0.191895	0.746826	0.730957	
82	-0.481875	0.479244	0.37657	0.629537	9.7702	-0.171212	2.50806	-0.0616062	0.00966565	0.012811	-0.829834	0.424561	-0.120361	-0.524814	0.435665	0.38473	0.621891	9.25878	0.291864	3.10791	0.00728522	0.0224791	-0.0198031	-0.752441	0.305664	-0.17334	0.821553	-0.136197	-0.199579	-0.5164	4.96806	0.032618	9.49555	-0.0624118	0.0539933	-0.00706004	-0.325684	0.309814	-0.892822	0.01133	0.044721	-0.106628	-0.993228	-0.885285	2.13148	9.57958	0.010766	-0.0611087	-0.0217187	-0.311768	-0.172363	-0.919434	-0.504104	0.239044	0.241872	0.793873	6.07294	1.04517	8.00656	-0.0299665	-0.0400718	-0.0114025	-0.71582	0.22998	-0.627441	-0.99463	0.00836844	-0.0465052	0.0920818	-1.17183	-1.46985	13.5029	-0.0175084	0.051377	-0.0341777	0.545166	0.10083	-0.9021	0.204464	-0.624737	-0.502542	-0.561561	8.53488	2.89306	-2.74099	-0.0345804	-0.151874	-0.00801171	-0.856201	0.0708008	0.491211	-0.484524	0.496914	0.478383	0.538017	10.0857	0.388628	0.375024	0.25342	-0.0664404	-0.00320581	-0.996826	0.383545	-0.0307617	-0.519122	0.437437	0.546849	0.490017	9.78664	0.919974	0.332866	0.198666	-0.0358704	-0.00539813	-1.01489	0.295898	-0.081543	0.438936	-0.0799694	-0.163021	-0.87998	2.90269	2.26094	10.0056	-0.0206047	-0.0362531	-0.0221749	-0.535645	0.144531	-0.908691	0.311837	-0.855657	-0.385286	-0.148876	5.06888	-4.14486	-7.42139	-0.0385496	-0.0113923	0.0378714	-0.193848	0.744629	0.735596	
83	-0.481755	0.478887	0.376086	0.630189	9.503	0.0426588	2.59128	-0.00743982	0.0229965	-0.0124363	-0.836426	0.424316	-0.122559	-0.524802	0.436286	0.385156	0.621202	9.32691	0.145385	3.07867	-0.00470566	-0.0288271	0.00316309	-0.756348	0.299072	-0.170654	0.821322	-0.136891	-0.197942	-0.517214	5.01055	-0.31517	9.16907	-0.0403932	0.0435616	-0.0225455	-0.334229	0.307861	-0.899414	0.01024	0.0439451	-0.105024	-0.993446	-0.831542	1.88389	9.50975	-0.0804844	-0.0137585	-0.0406669	-0.312012	-0.170166	-0.919434	-0.505048	0.237531	0.242642	0.793493	6.10892	1.52699	7.63057	0.0651467	0.0624981	0.00401741	-0.71582	0.22998	-0.629639	-0.994705	0.00658332	-0.0463128	0.0915129	-1.05229	-1.41089	13.3193	0.0951746	0.00873119	0.00987668	0.545654	0.0900879	-0.897461	0.20216	-0.627403	-0.50345	-0.558601	8.56108	3.01823	-2.80889	0.0211824	-0.16107	-0.0184217	-0.852295	0.0793457	0.503906	-0.484299	0.497196	0.477076	0.539119	9.73049	0.541265	0.42112	-0.173428	0.0543138	0.000582679	-0.992432	0.381592	-0.0285645	-0.518386	0.438536	0.546383	0.490334	9.7585	0.865975	0.108826	-0.11489	-0.00683773	-0.0133355	-1.0127	0.300537	-0.0749512	0.438624	-0.0802007	-0.16311	-0.880098	2.98469	2.0699	9.85878	0.00782113	0.0206825	0.00164107	-0.540283	0.144531	-0.910889	0.311622	-0.85587	-0.38501	-0.148818	5.10458	-4.29596	-7.31689	-0.000817596	0.00659833	-0.0100222	-0.189453	0.746826	0.742432	
84	-0.481923	0.479449	0.375944	0.629719	9.76861	0.0446044	2.62151	-0.00600966	-0.0297701	0.0300459	-0.829834	0.428955	-0.120361	-0.524703	0.43651	0.385119	0.621151	9.58802	0.243137	3.17333	-0.0167921	0.0174776	-0.025903	-0.754639	0.305664	-0.170898	0.821097	-0.135809	-0.198227	-0.517746	4.92236	-0.271373	9.33746	0.0538519	0.00871564	-0.0366505	-0.332031	0.305664	-0.892578	0.00976903	0.0442741	-0.104279	-0.993514	-0.744551	1.87298	9.35156	0.00866006	0.0247088	-0.0171257	-0.312012	-0.167969	-0.91748	-0.504711	0.237198	0.241445	0.794172	6.19225	1.55522	7.48417	-0.0774716	0.0302297	-0.0365474	-0.722412	0.22998	-0.634277	-0.994698	0.00580383	-0.046169	0.0917101	-1.13359	-1.4538	13.1654	0.00391258	0.0109643	-0.04012	0.545654	0.0856934	-0.895264	0.200273	-0.62895	-0.503356	-0.557625	8.77091	3.03056	-2.87326	-0.0370041	-0.0659292	-0.0123084	-0.856201	0.0708008	0.506104	-0.483713	0.497993	0.475665	0.540155	9.90569	0.0167292	0.48235	-0.00995832	0.026441	-0.00303765	-0.996582	0.381592	-0.0307617	-0.518199	0.438749	0.546244	0.490496	9.90721	0.799	0.19117	-0.00963713	-0.0030133	-0.0194913	-1.01562	0.311768	-0.072998	0.438752	-0.0797602	-0.163214	-0.880055	2.73155	2.28574	9.72783	0.0271716	0.0214102	0.00820343	-0.533447	0.142334	-0.910889	0.311806	-0.855641	-0.385285	-0.149032	4.90997	-4.06617	-7.18527	0.0112273	0.0144069	-0.0185512	-0.194336	0.751221	0.742432	
85	-0.481561	0.480115	0.376082	0.629405	9.83049	-0.0231662	2.55737	-0.0120427	-0.035676	-0.00927438	-0.829834	0.424561	-0.118164	-0.524291	0.436447	0.385047	0.621587	9.58877	0.240178	3.19933	-0.0286854	0.0186193	-0.0362522	-0.756592	0.30127	-0.170654	0.820558	-0.136174	-0.19889	-0.518251	5.24767	-0.150171	9.54157	-0.0257471	-0.0315453	-0.0229919	-0.334229	0.310059	-0.89502	0.00945894	0.0446496	-0.105428	-0.993379	-0.844554	2.16731	9.45142	0.0457443	0.0101961	-0.00911658	-0.314209	-0.167969	-0.921875	-0.503849	0.237751	0.2411	0.794658	6.04304	1.25317	7.66214	0.00052513	-0.0155099	-0.0384193	-0.717773	0.225586	-0.629639	-0.99463	0.00698745	-0.0461281	0.0923855	-1.13907	-1.5796	13.158	-0.0411097	0.002014	-0.0441506	0.543213	0.0944824	-0.899902	0.199381	-0.629894	-0.503938	-0.556352	8.86646	2.89749	-2.98611	0.0171187	-0.0701842	-0.0126084	-0.845703	0.0773926	0.510254	-0.48488	0.497056	0.477354	0.538479	9.91687	0.163388	0.327439	0.123939	-0.0254598	-0.0067095	-0.992432	0.385742	-0.0285645	-0.519058	0.437891	0.547249	0.489232	9.98925	0.579968	0.00461266	0.110537	-0.00944574	-0.00885951	-1.01514	0.300537	-0.0771484	0.438477	-0.0802721	-0.162902	-0.880203	2.8706	2.303	9.74753	-0.0441011	-4.12186e-06	-0.00630684	-0.544678	0.14209	-0.90625	0.311917	-0.855877	-0.384773	-0.148771	4.85925	-4.17374	-7.30483	0.00792999	-0.00190935	0.0310648	-0.189453	0.746826	0.740234	
86	-0.48074	0.480333	0.37694	0.629353	9.92349	0.0373892	2.48963	0.0110475	-0.0323942	-0.0392561	-0.832031	0.424316	-0.111816	-0.524317	0.436267	0.384772	0.621863	9.36908	0.268755	3.2999	-0.0155101	0.0210998	-0.0190382	-0.756836	0.305664	-0.16626	0.820359	-0.136847	-0.199013	-0.518341	5.13718	-0.280882	9.6013	0.00159228	-0.00179658	0.00441703	-0.332275	0.314209	-0.892822	0.00926647	0.0444355	-0.105528	-0.99338	-0.81036	2.18677	9.57293	0.0121323	-0.0126263	-0.0127716	-0.30957	-0.170166	-0.917236	-0.503717	0.237391	0.242357	0.794467	6.04656	1.34726	7.83629	0.0452249	-0.0040835	-0.0221703	-0.711182	0.225586	-0.627441	-0.994687	0.00719505	-0.0452278	0.0922006	-1.19204	-1.45883	13.4275	0.013578	-0.0302077	0.00101242	0.543213	0.0966797	-0.897705	0.197975	-0.630781	-0.504328	-0.555495	8.54942	3.14821	-2.88135	-0.0236092	-0.0696389	-0.0326018	-0.849854	0.0749512	0.518799	-0.485324	0.496885	0.478226	0.537462	9.9836	0.586161	0.483853	0.10524	-0.0344781	0.000819586	-0.988525	0.392334	-0.0334473	-0.519831	0.437275	0.54824	0.487852	9.87637	0.862417	0.00513847	0.156997	-0.0269591	0.00673721	-1.01489	0.295898	-0.0839844	0.438477	-0.0806492	-0.162695	-0.880207	2.99759	2.06514	9.98348	-0.0253188	-0.00562591	0.0104497	-0.540283	0.146729	-0.910889	0.311837	-0.855991	-0.384666	-0.148558	5.01228	-4.29244	-7.40892	-0.000104522	-0.0109775	0.0104274	-0.194092	0.749023	0.740234	
