40	Head	00b4120a												Throax	00b411e8												LUpArm	00b411d9												LFoArm	00b41148												RUpArm	00b411db												RFoArm	00b41204												Waist	00b411f7												Lthigh	00b411f4												Lshank	00b4111b												Rthigh	00b411c8												Rshank	00b411ee												
PacketCount	q0	q1	q2	q3	accX	accY	accZ	gyrX	gyrY	gyrZ	magX	magY	magZ	q0	q1	q2	q3	accX	accY	accZ	gyrX	gyrY	gyrZ	magX	magY	magZ	q0	q1	q2	q3	accX	accY	accZ	gyrX	gyrY	gyrZ	magX	magY	magZ	q0	q1	q2	q3	accX	accY	accZ	gyrX	gyrY	gyrZ	magX	magY	magZ	q0	q1	q2	q3	accX	accY	accZ	gyrX	gyrY	gyrZ	magX	magY	magZ	q0	q1	q2	q3	accX	accY	accZ	gyrX	gyrY	gyrZ	magX	magY	magZ	q0	q1	q2	q3	accX	accY	accZ	gyrX	gyrY	gyrZ	magX	magY	magZ	q0	q1	q2	q3	accX	accY	accZ	gyrX	gyrY	gyrZ	magX	magY	magZ	q0	q1	q2	q3	accX	accY	accZ	gyrX	gyrY	gyrZ	magX	magY	magZ	q0	q1	q2	q3	accX	accY	accZ	gyrX	gyrY	gyrZ	magX	magY	magZ	q0	q1	q2	q3	accX	accY	accZ	gyrX	gyrY	gyrZ	magX	magY	magZ	
0	-0.050409	-0.113088	0.0477718	0.991155	-2.37827	0.981587	10.7226	0.00337765	-0.00611074	0.00585605	-0.0754395	0.121826	-1.14014	-0.145859	-0.201139	-0.00598974	0.968624	-3.93499	0.480214	9.24383	-0.00138573	0.0123099	-0.0147118	0.271729	0.0629883	-1.04785	0.182578	0.0540162	-0.499621	-0.84506	1.069	8.84982	5.16355	-0.00156429	0.00267917	-0.00185036	-0.462646	-0.756836	-0.722656	-0.0154073	0.273949	-0.961588	-0.00798356	-0.289332	0.0309216	-9.76303	0.00119174	0.00563385	-0.00116357	-0.434326	-0.357422	1.06152	0.114457	0.0548779	-0.474464	0.871075	1.98472	-7.93523	5.32782	-0.00205523	0.00416055	-0.0161176	-0.406494	0.877197	-0.570801	-0.0996658	-0.154958	-0.979411	0.0825151	-0.588539	-0.841177	-6.26304	0.00124888	0.0156197	-0.0142356	-0.211182	0.263184	0.919678	0.127392	-0.0880584	-0.0157206	-0.987811	2.16461	0.0475888	10.3183	0.0170338	0.0407538	-0.0121861	-0.553711	0.110352	-0.927246	-0.0808586	0.014145	0.128075	0.988362	0.654416	2.61363	10.7845	0.00312477	0.0153459	-0.0145357	-0.509033	-0.178223	-1.0481	-0.105221	0.0637276	0.393346	0.911123	2.23044	7.19443	7.1296	0.00427188	0.00477081	-0.0187774	-0.651855	-0.680908	-0.745605	-0.0585616	0.0130233	-0.0436822	-0.997243	-0.27054	0.810042	10.4809	0.00370917	0.0139573	0.00330919	-0.409668	-0.1521	-1.05884	0.0211132	-0.0498375	0.219301	-0.974155	0.923926	-4.19315	8.8336	-0.0014667	0.00648184	-0.00278325	-0.562012	0.33374	-0.996094	
1	-0.0503567	-0.112922	0.0479301	0.991169	-2.40089	1.00601	10.7052	0.00732301	-0.00795198	-0.00161595	-0.079834	0.121826	-1.13794	-0.145822	-0.200979	-0.00596494	0.968663	-3.90741	0.499003	9.28852	-0.0120369	0.00813884	-0.0216418	0.265381	0.060791	-1.05005	0.182621	0.0539012	-0.499461	-0.845153	1.06065	8.85259	5.17019	-0.00370738	0.00399693	0.000964388	-0.456055	-0.75708	-0.722656	-0.0154319	0.273996	-0.961574	-0.00792039	-0.28311	0.0247882	-9.76982	0.00423675	0.00526885	-0.00086472	-0.436768	-0.357422	1.05933	0.114318	0.0548931	-0.474225	0.871223	1.98237	-7.92803	5.31912	0.0157605	0.0116481	-0.00696232	-0.40625	0.870605	-0.572998	-0.0995403	-0.155011	-0.979396	0.0827415	-0.594634	-0.856828	-6.22594	0.00949056	0.00711132	-0.0171807	-0.215332	0.260986	0.915527	0.127553	-0.0873887	-0.0158839	-0.987847	2.17653	0.0600006	10.287	0.0291327	0.0428641	-0.0136328	-0.549072	0.10376	-0.922852	-0.0809125	0.0141847	0.128027	0.988363	0.655846	2.61932	10.784	0.0024275	0.0162077	-0.0142572	-0.509033	-0.178223	-1.05298	-0.10522	0.0638224	0.393276	0.911147	2.23523	7.18681	7.12783	0.004075	0.00319396	-0.0189294	-0.647217	-0.680664	-0.745605	-0.0586059	0.0130153	-0.0436989	-0.997239	-0.276997	0.811366	10.4759	0.00463891	0.0130847	0.00278758	-0.411621	-0.154541	-1.0564	0.0211096	-0.0498607	0.219311	-0.974151	0.92445	-4.19114	8.8232	0.000540062	0.0055487	-0.00357525	-0.562012	0.335938	-0.998535	
2	-0.0503972	-0.112798	0.0479251	0.991181	-2.40175	1.02168	10.709	0.00120595	-0.0114468	0.00185455	-0.0773926	0.119629	-1.13794	-0.145818	-0.200943	-0.00605678	0.968671	-3.90767	0.459921	9.28763	-0.0163398	0.0132277	-0.0203252	0.260742	0.0671387	-1.05273	0.182626	0.053815	-0.499373	-0.845209	1.05303	8.85554	5.17638	-0.00455393	0.00182751	0.00119947	-0.458252	-0.754883	-0.722656	-0.015407	0.274017	-0.961569	-0.0079335	-0.296911	0.0157953	-9.78627	0.000426311	0.00646832	-0.00139201	-0.43457	-0.355225	1.06812	0.114292	0.0549029	-0.474185	0.871247	1.9321	-7.90237	5.34123	0.00377605	0.00913366	-0.0113213	-0.404297	0.877197	-0.572998	-0.0994335	-0.155088	-0.979404	0.0826292	-0.594092	-0.833022	-6.23901	-0.00530454	0.0150049	-0.0122152	-0.217285	0.256592	0.924316	0.127603	-0.0870588	-0.0159791	-0.987868	2.17098	0.0628151	10.3158	0.0274545	0.0416762	-0.0153584	-0.547119	0.105957	-0.929443	-0.0809553	0.0141915	0.128	0.988363	0.661831	2.61184	10.7748	0.00298568	0.0169309	-0.0130694	-0.506836	-0.178223	-1.04834	-0.105221	0.0638599	0.393275	0.911145	2.24039	7.19117	7.12475	0.00631871	0.00458721	-0.017944	-0.649414	-0.685303	-0.73877	-0.0586676	0.0129823	-0.0437141	-0.997236	-0.262521	0.832065	10.4591	0.00343905	0.012705	0.00401777	-0.402832	-0.156494	-1.06104	0.0211328	-0.0498897	0.219288	-0.974155	0.947585	-4.20727	8.82984	0.00276397	0.00623045	-0.00326445	-0.562012	0.33374	-1.00513	
3	-0.0505043	-0.112532	0.0479675	0.991204	-2.37997	0.992856	10.7036	0.00183984	-0.0115093	0.00385688	-0.0800781	0.128174	-1.14014	-0.145841	-0.200864	-0.0062194	0.968682	-3.90297	0.461468	9.29559	-0.0205539	0.0123844	-0.017653	0.265381	0.060791	-1.05005	0.182605	0.0536741	-0.499189	-0.845331	1.06276	8.85377	5.1569	-0.00492402	0.00409177	-0.00191193	-0.462402	-0.759033	-0.724854	-0.0153905	0.274035	-0.961564	-0.00793133	-0.279212	0.0335761	-9.76885	0.00420936	0.0062612	0.000246954	-0.434326	-0.357422	1.05713	0.114458	0.0550022	-0.474228	0.871196	1.9842	-7.94477	5.30806	-0.00224823	0.00441976	-0.0143226	-0.401855	0.870605	-0.568359	-0.09907	-0.155003	-0.979465	0.0825119	-0.588988	-0.837618	-6.25631	-0.00184231	0.016343	-0.0145994	-0.20874	0.258789	0.919922	0.12751	-0.086139	-0.0163166	-0.987955	2.15294	0.0533063	10.3226	0.0259199	0.0428426	-0.0148805	-0.547119	0.108154	-0.925049	-0.0808376	0.0139824	0.128053	0.988368	0.664678	2.61206	10.7845	0.0052288	0.0158925	-0.0139792	-0.510986	-0.182617	-1.0459	-0.105221	0.0638599	0.393275	0.911145	2.24039	7.19117	7.12475	0.00631871	0.00458721	-0.017944	-0.649414	-0.685303	-0.73877	-0.058724	0.0129777	-0.0437472	-0.997231	-0.27334	0.832052	10.4801	0.00464699	0.0130924	0.00279313	-0.407471	-0.149902	-1.0542	0.0211041	-0.04985	0.219247	-0.974167	0.932127	-4.18866	8.81993	0.00229913	0.00545146	-0.00257866	-0.55957	0.331543	-0.996094	
4	-0.050491	-0.112404	0.0480065	0.991217	-2.36715	0.991672	10.7045	0.00496999	-0.0118007	0.000674874	-0.0820312	0.121826	-1.14233	-0.145853	-0.200692	-0.00656651	0.968714	-3.91027	0.463907	9.25752	-0.0232595	0.0109557	-0.0206965	0.260986	0.060791	-1.05005	0.182643	0.0536247	-0.499059	-0.845403	1.06586	8.84668	5.16958	-0.000472408	0.00533607	-0.00179289	-0.456055	-0.75708	-0.720459	-0.0154347	0.274073	-0.961553	-0.00785686	-0.298172	0.0114985	-9.77414	0.00605831	0.00471268	-0.00118941	-0.441162	-0.357422	1.06592	0.114384	0.0550002	-0.474129	0.871259	1.9953	-7.93767	5.29998	0.00981215	0.00830235	-0.00744589	-0.404297	0.877197	-0.572998	-0.0988908	-0.155116	-0.979464	0.0825186	-0.594691	-0.831317	-6.21863	0.000958777	0.0121724	-0.0151975	-0.22168	0.260986	0.919922	0.127538	-0.0858928	-0.0163762	-0.987972	2.13871	0.0618584	10.3178	0.0243491	0.0353148	-0.0168724	-0.549316	0.105957	-0.920898	-0.0809086	0.0140126	0.128059	0.988362	0.662208	2.6134	10.7844	0.00365053	0.0163573	-0.013672	-0.509033	-0.18042	-1.05054	-0.104867	0.0636182	0.393396	0.911151	2.23669	7.18841	7.12079	0.00426812	0.00510433	-0.0180903	-0.646973	-0.6875	-0.740967	-0.0588005	0.0129751	-0.0437331	-0.997227	-0.264702	0.818917	10.4769	0.00105577	0.0125987	0.00215509	-0.407471	-0.1521	-1.0564	0.0210759	-0.0498514	0.219266	-0.974163	0.942624	-4.20328	8.84051	0.00180622	0.00598262	-0.00425935	-0.562012	0.33374	-1.00513	
5	-0.0505392	-0.112129	0.0481965	0.991237	-2.38514	1.01058	10.7002	0.00622385	-0.0100695	0.00257878	-0.079834	0.121826	-1.14014	-0.145896	-0.200608	-0.00682964	0.968723	-3.9214	0.444862	9.28699	-0.0239841	0.0164089	-0.0180878	0.265137	0.0627441	-1.05493	0.182652	0.053483	-0.498952	-0.845473	1.06978	8.82516	5.17326	0.000137952	-0.000220837	0.00139759	-0.462646	-0.750488	-0.725098	-0.0154066	0.274104	-0.961545	-0.00783501	-0.289422	0.0176129	-9.75473	0.00157498	0.00645619	-0.00163337	-0.438965	-0.355225	1.05493	0.114464	0.0549703	-0.473982	0.871331	1.98382	-7.94412	5.30632	0.000930193	0.00927068	-0.0116481	-0.40625	0.870605	-0.568359	-0.0987232	-0.155221	-0.979487	0.0822581	-0.589168	-0.833633	-6.24075	-0.00743689	0.0137696	-0.012866	-0.213135	0.262939	0.915527	0.127476	-0.0854581	-0.0167927	-0.98801	2.12203	0.0560559	10.3304	0.0271106	0.013449	-0.0145066	-0.540527	0.105957	-0.927246	-0.080959	0.0140615	0.128031	0.98836	0.672915	2.60951	10.7748	0.0030951	0.0156327	-0.0148622	-0.504395	-0.182617	-1.0481	-0.104871	0.063686	0.393363	0.911159	2.24421	7.18346	7.13195	0.00427253	0.00510748	-0.018084	-0.649658	-0.678467	-0.739014	-0.0588761	0.0129741	-0.0437033	-0.997224	-0.269152	0.820473	10.4861	0.00313043	0.0139487	0.00285514	-0.407227	-0.156494	-1.05859	0.0210684	-0.0498959	0.219257	-0.974163	0.932352	-4.20219	8.83032	0.00180543	0.00598387	-0.00426048	-0.562012	0.33374	-0.996094	
6	-0.0506208	-0.111953	0.0482869	0.991248	-2.36384	1.00866	10.7009	0.00540743	-0.00725206	0.0027117	-0.0795898	0.117432	-1.13794	-0.145905	-0.200593	-0.0067766	0.968725	-3.8883	0.483259	9.27624	0.00378644	0.0179655	-0.0164132	0.263184	0.060791	-1.05249	0.182611	0.053362	-0.498995	-0.845464	1.06474	8.86212	5.17691	0.00495336	0.000970279	-0.000933462	-0.462402	-0.759033	-0.722656	-0.0153453	0.274105	-0.961546	-0.00776144	-0.282736	0.0186729	-9.77167	0.00317324	0.00549175	0.000249877	-0.436768	-0.353027	1.05469	0.114434	0.0549808	-0.473761	0.871454	1.98958	-7.94798	5.29849	0.0154407	0.00964206	-0.0110891	-0.415039	0.870605	-0.572998	-0.0985374	-0.155295	-0.979489	0.0823145	-0.595088	-0.822996	-6.2479	0.00792033	0.0125195	-0.0141911	-0.217529	0.260986	0.924072	0.127532	-0.0848303	-0.0171024	-0.988052	2.16659	0.0943897	10.2899	0.0295234	0.0525291	-0.018644	-0.547119	0.10376	-0.931396	-0.0810239	0.0140819	0.128022	0.988356	0.670042	2.62467	10.7833	0.00425867	0.0164193	-0.0136856	-0.504639	-0.178223	-1.05298	-0.104863	0.0637669	0.393324	0.911172	2.23598	7.18717	7.1308	0.00372517	0.00534326	-0.0183855	-0.646729	-0.689941	-0.73877	-0.058942	0.0129601	-0.0437768	-0.997217	-0.28489	0.819943	10.4881	0.00585313	0.0131618	0.00373712	-0.404785	-0.158691	-1.0564	0.0210823	-0.0499256	0.219237	-0.974165	0.939616	-4.20386	8.83231	0.00310032	0.00510633	-0.00257501	-0.562012	0.33374	-1.00293	
7	-0.0507086	-0.111791	0.04842	0.991255	-2.34932	1.00697	10.6938	0.00833334	-0.00856337	0.000947659	-0.0778809	0.125977	-1.13354	-0.145864	-0.200494	-0.00668827	0.968752	-3.94157	0.490684	9.25364	0.00114914	0.00700787	-0.021401	0.262939	0.0671387	-1.0481	0.182646	0.0532244	-0.498957	-0.845488	1.08707	8.85263	5.1596	-0.00447091	0.00125294	0.00314942	-0.460205	-0.76123	-0.724854	-0.0153679	0.274128	-0.96154	-0.00766656	-0.278182	0.015096	-9.76716	0.00421324	0.00626473	0.000249954	-0.432373	-0.353027	1.05688	0.114336	0.0549608	-0.473655	0.871526	1.93663	-7.89685	5.32464	-0.00494564	0.0102778	-0.00792326	-0.408447	0.872803	-0.568359	-0.0984563	-0.155387	-0.979483	0.0823048	-0.600662	-0.837773	-6.24185	-0.00145705	0.00735298	-0.0150764	-0.215332	0.262939	0.91333	0.127404	-0.084428	-0.017172	-0.988102	2.09634	0.0786511	10.3348	0.0126605	0.0238501	-0.0148934	-0.549072	0.10376	-0.922852	-0.0810887	0.0141111	0.128005	0.988352	0.661816	2.61786	10.7841	0.00468111	0.0183293	-0.0131631	-0.509277	-0.174072	-1.05054	-0.104873	0.0638503	0.393311	0.91117	2.24075	7.18019	7.12851	0.00627888	0.00557528	-0.0159193	-0.64502	-0.678467	-0.743408	-0.0590396	0.0129173	-0.0438207	-0.99721	-0.27571	0.828743	10.4734	0.00378441	0.0118185	0.00304009	-0.407471	-0.1521	-1.0564	0.0210554	-0.0499284	0.219224	-0.974169	0.923647	-4.19552	8.80001	0.00097444	0.00776705	-0.00502661	-0.557373	0.33374	-0.998291	
8	-0.05065	-0.111725	0.0485664	0.991258	-2.37645	1.00894	10.7056	0.0103495	-0.00408808	-0.00358939	-0.0773926	0.119629	-1.14209	-0.145962	-0.199894	-0.00643825	0.968863	-3.89114	0.435828	9.20984	-0.0187016	-0.00507659	-0.0122213	0.264893	0.0693359	-1.05518	0.182675	0.0531306	-0.498858	-0.845546	1.03612	8.91294	5.15643	-0.006975	0.00358587	0.00121683	-0.462646	-0.754883	-0.720459	-0.0153932	0.274139	-0.961536	-0.00766601	-0.268076	0.0245915	-9.76918	0.00252221	0.00306712	0.000952	-0.436768	-0.355225	1.06372	0.114339	0.0552172	-0.473772	0.871446	1.97282	-7.89727	5.34232	-0.005147	-0.00282901	-0.0188542	-0.404053	0.872803	-0.577637	-0.098129	-0.155473	-0.979508	0.0822415	-0.595795	-0.822799	-6.25818	0.0076717	0.0187704	-0.0167476	-0.215332	0.262939	0.915527	0.127472	-0.0855138	-0.0169679	-0.988003	2.1338	0.0538493	10.4145	0.000892437	-0.0431227	-0.0147221	-0.546875	0.101562	-0.927002	-0.0811745	0.0141066	0.128015	0.988344	0.662095	2.61366	10.7845	0.00601942	0.0172139	-0.0137458	-0.515625	-0.173828	-1.05762	-0.104853	0.0639198	0.3933	0.911173	2.23549	7.19029	7.10376	0.0043064	0.00479362	-0.0187288	-0.649414	-0.680664	-0.743408	-0.0590396	0.0129173	-0.0438207	-0.99721	-0.27571	0.828743	10.4734	0.00378441	0.0118185	0.00304009	-0.407471	-0.1521	-1.0564	0.0210554	-0.0499498	0.219193	-0.974175	0.924222	-4.20854	8.83428	0.00388905	0.00541473	-0.00375374	-0.557373	0.329346	-1.00757	
9	-0.0503641	-0.111588	0.0487338	0.99128	-2.37832	1.09045	10.7319	0.0048724	-0.0119223	-0.00914511	-0.079834	0.121582	-1.13574	-0.146087	-0.199468	-0.00673068	0.96893	-3.87899	0.405714	9.27323	-0.0184233	0.00463461	-0.0170191	0.262939	0.0671387	-1.0481	0.182731	0.0530576	-0.498722	-0.845619	1.09144	8.75508	5.21625	0.0114225	0.00867619	-0.00459955	-0.456055	-0.752686	-0.7229	-0.0154198	0.274141	-0.961535	-0.00766642	-0.277241	0.0233886	-9.77541	0.00223543	0.00195798	0.00173769	-0.43457	-0.355225	1.06152	0.114193	0.0553605	-0.473541	0.871581	1.98917	-7.99429	5.29097	0.0178457	0.00913415	-0.0105701	-0.404053	0.868408	-0.570801	-0.0979668	-0.155502	-0.979506	0.082401	-0.582314	-0.839141	-6.24202	0.0160962	0.0161399	-0.0174783	-0.219482	0.258789	0.915527	0.127968	-0.0833647	-0.0209163	-0.988047	2.03562	0.197983	10.289	0.199399	0.127862	-0.0155954	-0.542236	0.0908203	-0.93335	-0.0812446	0.0141489	0.127946	0.988347	0.665123	2.59881	10.786	0.00310926	0.015686	-0.0136426	-0.506592	-0.182617	-1.05054	-0.104843	0.0639462	0.393274	0.911183	2.24602	7.19886	7.12762	0.00414209	0.00554091	-0.0191321	-0.642578	-0.680664	-0.741211	-0.0590782	0.0130558	-0.0437348	-0.997209	-0.264161	0.818439	10.4677	-0.00318057	0.0139331	0.00349525	-0.405029	-0.154297	-1.0564	0.0210895	-0.0499485	0.219199	-0.974173	0.936539	-4.19401	8.82297	-0.000482205	0.00918886	-0.00244599	-0.564209	0.331543	-0.998291	
10	-0.0504739	-0.111493	0.048563	0.991294	-2.33537	1.08598	10.7133	-0.0126932	-0.00849436	0.00694946	-0.0842285	0.121826	-1.14648	-0.1461	-0.199554	-0.00673461	0.968911	-3.84882	0.431531	9.3474	-0.008438	0.0220647	-0.0163097	0.260742	0.0649414	-1.05737	0.182731	0.0530576	-0.498722	-0.845619	1.09144	8.75508	5.21625	0.0114225	0.00867619	-0.00459955	-0.456055	-0.752686	-0.7229	-0.0154419	0.274145	-0.961534	-0.00767312	-0.270206	0.0147446	-9.78879	0.00186386	0.00311575	0.000481843	-0.429932	-0.357422	1.06152	0.114184	0.0553694	-0.473287	0.87172	2.00139	-7.9378	5.30929	0.0231515	0.0119266	-0.0123554	-0.408691	0.877197	-0.575195	-0.0976885	-0.155399	-0.979562	0.0822603	-0.578858	-0.835541	-6.24082	-0.003495	0.0137889	-0.0145759	-0.215088	0.256592	0.922119	0.127931	-0.0830993	-0.0207159	-0.988078	2.04125	0.18941	10.3097	0.00258559	0.0393428	-0.0202693	-0.54248	0.0974121	-0.924805	-0.0812605	0.0141587	0.127809	0.988363	0.663232	2.62918	10.7835	-0.00626865	0.0171076	-0.0148245	-0.509033	-0.178223	-1.05054	-0.104658	0.063801	0.3932	0.911246	2.24124	7.19415	7.12849	-0.000383285	0.00636213	-0.0186883	-0.642578	-0.680664	-0.745605	-0.05909	0.013103	-0.0438263	-0.997204	-0.284956	0.803047	10.4626	0.0101289	0.017587	0.00494619	-0.404785	-0.158691	-1.0564	0.021093	-0.0499626	0.219235	-0.974164	0.930876	-4.19852	8.84401	-0.00171297	0.00642716	-0.00304561	-0.55957	0.331543	-1.00073	
11	-0.0509394	-0.111254	0.0481528	0.991317	-2.42916	0.974094	10.7098	-0.01458	-0.0127508	0.0130502	-0.0817871	0.119629	-1.14429	-0.146019	-0.200139	-0.00686261	0.968801	-3.91499	0.476905	9.23998	-0.0134945	0.0406221	-0.0238329	0.260498	0.0715332	-1.0481	0.182635	0.0528041	-0.498866	-0.84557	1.08225	8.8418	5.17863	0.00534658	-0.00600135	0.004473	-0.4646	-0.756836	-0.718018	-0.0154251	0.274172	-0.961527	-0.00757095	-0.282873	0.0199416	-9.77245	0.0056942	0.00587437	-0.00243815	-0.436768	-0.353027	1.06372	0.114342	0.0552562	-0.472828	0.871956	1.94667	-7.92763	5.34206	0.0138835	0.0108832	-0.010369	-0.40625	0.870605	-0.575195	-0.0975816	-0.155518	-0.979542	0.0823988	-0.585015	-0.821258	-6.24647	0.0135343	0.00540173	-0.0186789	-0.215332	0.263184	0.919678	0.128123	-0.0827464	-0.0202045	-0.988094	2.0908	0.117266	10.2592	0.0145366	0.0380023	-0.0108473	-0.535889	0.0974121	-0.931152	-0.0812455	0.0142442	0.127633	0.988386	0.659263	2.59893	10.7871	0.00134584	0.0148644	-0.014198	-0.509033	-0.17627	-1.04834	-0.104703	0.0638103	0.393027	0.911315	2.21668	7.17911	7.14276	0.00236491	0.00818151	-0.0160626	-0.644775	-0.683105	-0.743408	-0.0591433	0.013155	-0.0440699	-0.997189	-0.276624	0.846142	10.4957	0.00991531	0.014489	0.00320567	-0.409424	-0.156494	-1.0542	0.0211056	-0.0499701	0.219275	-0.974154	0.912088	-4.22822	8.83019	-0.000636058	0.00847015	-0.00504589	-0.559326	0.327148	-1.00293	
12	-0.0510608	-0.11086	0.0479932	0.991362	-2.34952	1.00607	10.7049	-0.00454649	-0.0154654	-0.000680578	-0.0842285	0.121582	-1.14233	-0.146003	-0.200354	-0.00713592	0.968757	-3.90449	0.477895	9.28372	-0.0178144	0.0204607	-0.0163176	0.262939	0.0651855	-1.04785	0.18266	0.052791	-0.498913	-0.845538	1.07412	8.88018	5.15708	-0.000457659	0.00786529	-0.00321894	-0.462646	-0.750488	-0.720703	-0.0154599	0.274151	-0.961533	-0.0074769	-0.273865	0.00899101	-9.78589	0.00613581	0.00294682	0.00141523	-0.436523	-0.359619	1.06152	0.114329	0.0553134	-0.472693	0.872027	1.96361	-7.88457	5.37608	0.0126478	0.00721858	-0.0140111	-0.4021	0.877197	-0.577637	-0.0973659	-0.155667	-0.979552	0.0822515	-0.599214	-0.830768	-6.25961	-0.00809385	0.0176844	-0.0109978	-0.217285	0.258789	0.922119	0.128132	-0.0826441	-0.0201232	-0.988103	2.05845	0.146205	10.3614	0.00373046	0.00166574	-0.0155961	-0.54248	0.0974121	-0.935547	-0.0812706	0.014278	0.127562	0.988392	0.648872	2.60027	10.7874	0.00371213	0.0157257	-0.0142638	-0.506836	-0.18042	-1.05054	-0.104763	0.0638548	0.392959	0.911335	2.23348	7.17968	7.11596	0.00313199	0.00656231	-0.016669	-0.646973	-0.685303	-0.743408	-0.0591808	0.0131703	-0.0440432	-0.997188	-0.275544	0.83175	10.4641	-0.00134139	0.0117018	0.00569275	-0.402588	-0.158691	-1.05859	0.0210907	-0.0499658	0.219236	-0.974163	0.930788	-4.19574	8.81452	0.00195141	0.00647177	-0.00489197	-0.555176	0.33374	-1.00513	
13	-0.0511909	-0.110572	0.0477983	0.991397	-2.33913	1.01258	10.7165	-0.00814295	-0.0129796	0.00488331	-0.0800781	0.125977	-1.13794	-0.146147	-0.200495	-0.00721336	0.968706	-3.87238	0.432535	9.2948	-0.0105049	0.0193502	-0.012359	0.262695	0.0693359	-1.0481	0.182706	0.0527495	-0.498745	-0.84563	1.06043	8.8124	5.15099	0.00115988	0.0055403	-0.00192016	-0.460449	-0.754883	-0.725098	-0.0154874	0.274183	-0.961524	-0.0074431	-0.284233	0.00396267	-9.76139	0.00444748	0.00420038	-0.000782905	-0.438965	-0.355225	1.06372	0.114547	0.0553907	-0.472708	0.871985	1.98834	-7.90916	5.33351	-0.00129392	0.00600985	-0.0157095	-0.401855	0.872803	-0.572998	-0.097198	-0.155717	-0.979567	0.0821732	-0.596218	-0.833052	-6.25065	-0.00195144	0.0185192	-0.016036	-0.215332	0.263184	0.919678	0.128179	-0.083298	-0.0194978	-0.988054	2.11175	0.129287	10.2847	-0.0113127	0.00302746	-0.0123234	-0.544434	0.0952148	-0.927002	-0.081276	0.0143159	0.127599	0.988386	0.672591	2.60813	10.7864	0.00760792	0.0136269	-0.0154412	-0.509033	-0.178223	-1.05054	-0.104805	0.0639221	0.392886	0.911356	2.23405	7.19285	7.11913	0.00332557	0.00549728	-0.0169201	-0.649658	-0.678467	-0.743408	-0.0592292	0.0131177	-0.0440428	-0.997186	-0.264332	0.828098	10.4802	0.00319996	0.0116487	0.0036658	-0.407227	-0.154297	-1.0564	0.0210562	-0.0499408	0.219252	-0.974162	0.952615	-4.18206	8.81362	0.000329204	0.00794812	-0.00448234	-0.562012	0.335938	-0.998535	
14	-0.0513342	-0.110389	0.0475654	0.991422	-2.35199	0.989608	10.6833	-0.00669363	-0.0071279	0.00569587	-0.0820312	0.121582	-1.14014	-0.146076	-0.200777	-0.00712868	0.968659	-3.90405	0.46395	9.30359	0.00323466	0.0234917	-0.0218571	0.271729	0.0651855	-1.05029	0.182667	0.0527647	-0.498776	-0.845619	1.06655	8.86309	5.16522	0.00705021	0.00685582	-0.0027679	-0.456055	-0.754883	-0.729736	-0.0155346	0.274186	-0.961523	-0.007362	-0.279173	0.000437136	-9.75224	0.00529285	0.00357472	0.00031742	-0.436523	-0.359619	1.06152	0.114486	0.0553248	-0.472508	0.872106	1.99665	-7.85077	5.37307	0.00674211	0.0142314	-0.00862235	-0.408447	0.872803	-0.579834	-0.0968993	-0.155611	-0.979603	0.0823016	-0.590267	-0.826388	-6.24811	0.00604421	0.00629397	-0.0164523	-0.219727	0.260986	0.917725	0.128212	-0.0835507	-0.0190942	-0.988037	2.09873	0.132115	10.2947	-0.00607495	0.0136438	-0.0155978	-0.540283	0.0952148	-0.931152	-0.0811727	0.0141474	0.127647	0.988391	0.659323	2.60185	10.7675	0.0057325	0.0141259	-0.0136015	-0.511475	-0.174072	-1.0459	-0.104791	0.0639624	0.392869	0.911363	2.24765	7.1884	7.11469	0.00646994	0.00599945	-0.0201012	-0.647217	-0.678467	-0.739014	-0.059324	0.0130854	-0.0439554	-0.997185	-0.25624	0.844375	10.4755	-0.00202918	0.0104476	0.00219136	-0.409424	-0.154297	-1.0542	0.0210165	-0.0499154	0.219284	-0.974157	0.928397	-4.18566	8.81344	-0.000175963	0.00937858	-0.00412941	-0.563965	0.329346	-1.00073	
15	-0.0514663	-0.110265	0.0475146	0.991431	-2.36101	0.965542	10.7203	0.00230261	-0.00502813	0.00211245	-0.0842285	0.121582	-1.13574	-0.145915	-0.201028	-0.00733424	0.968629	-3.94159	0.47988	9.245	-0.00966821	0.0185551	-0.0167462	0.265137	0.0673828	-1.04565	0.182629	0.0527332	-0.49868	-0.845686	1.05405	8.89169	5.14993	-0.0056714	0.00387729	-0.00115636	-0.462402	-0.759033	-0.722656	-0.015532	0.274193	-0.961521	-0.00739258	-0.274376	0.0113755	-9.77271	-0.00115499	0.00496198	-0.00210479	-0.436768	-0.353027	1.05908	0.114402	0.0552363	-0.472663	0.872038	1.9491	-7.93312	5.34764	-0.00485249	0.00860727	-0.00885641	-0.404053	0.872803	-0.577637	-0.0967123	-0.15569	-0.979623	0.0821371	-0.588967	-0.798779	-6.23993	-0.00536375	0.0158802	-0.013861	-0.215332	0.260986	0.91333	0.128123	-0.0847929	-0.0182738	-0.987958	2.14213	0.0651643	10.3121	0.00167662	-0.0301937	-0.0165756	-0.542725	0.10376	-0.927246	-0.0812649	0.0141703	0.127753	0.98837	0.656997	2.61941	10.7754	0.00785103	0.0175269	-0.0113215	-0.506592	-0.182617	-1.0481	-0.104789	0.0640015	0.392877	0.911356	2.24207	7.18733	7.12037	0.00750739	0.00650939	-0.0174907	-0.642578	-0.680664	-0.741211	-0.0593886	0.0130262	-0.0438409	-0.997187	-0.27389	0.828408	10.4894	-0.00143838	0.0103178	0.00374301	-0.403076	-0.149902	-1.0542	0.0210009	-0.0498917	0.219308	-0.974153	0.928914	-4.20616	8.81945	-0.000640662	0.00847762	-0.00505496	-0.55957	0.329346	-0.996094	
16	-0.0514039	-0.110082	0.0476793	0.991447	-2.37083	0.999607	10.7062	0.00800411	-0.0110388	-0.00164176	-0.0820312	0.121582	-1.13794	-0.145978	-0.200851	-0.00712715	0.968658	-3.91845	0.452644	9.29809	-0.00247626	0.00717242	-0.0143224	0.26709	0.0693359	-1.05518	0.182696	0.0527585	-0.498565	-0.845737	1.06037	8.83994	5.16127	0.00477892	0.010924	-0.00277369	-0.458252	-0.754883	-0.722656	-0.0155693	0.274197	-0.961519	-0.00743067	-0.278515	0.00968642	-9.76049	0.000459343	0.00102791	0.000398373	-0.432617	-0.35083	1.06348	0.114301	0.055402	-0.472722	0.872009	2.00519	-7.91976	5.33182	-0.0036448	0.00189644	-0.0110895	-0.406494	0.875	-0.568359	-0.0964657	-0.155772	-0.979631	0.0821687	-0.580603	-0.827646	-6.24884	0.0070249	0.013389	-0.0166851	-0.217529	0.263184	0.921875	0.128157	-0.085511	-0.0184829	-0.987888	2.09946	0.125253	10.3571	0.00795909	-0.0211615	-0.017271	-0.551025	0.097168	-0.929199	-0.0812947	0.0142069	0.127762	0.988365	0.658239	2.61655	10.7855	0.00358365	0.0169339	-0.0143274	-0.506592	-0.182617	-1.05054	-0.104763	0.0640896	0.392894	0.911346	2.24304	7.19425	7.11615	0.00770198	0.00279538	-0.0181543	-0.649414	-0.685303	-0.747803	-0.0594835	0.0129559	-0.0437623	-0.997185	-0.273779	0.820623	10.4583	0.00174583	0.0106585	0.00127526	-0.407227	-0.154297	-1.0564	0.0209961	-0.0499133	0.219293	-0.974155	0.926611	-4.20544	8.82004	0.00178469	0.00677637	-0.0038467	-0.55542	0.335938	-1.00757	
17	-0.0513753	-0.109921	0.0478646	0.991457	-2.34948	1.01748	10.7185	0.00948533	-0.00822095	-0.0028435	-0.0864258	0.121582	-1.14014	-0.145917	-0.201026	-0.0072845	0.96863	-3.90691	0.457659	9.29484	-0.0196084	0.0303197	-0.0215783	0.265137	0.0671387	-1.0481	0.182749	0.0526352	-0.498396	-0.845833	1.06241	8.82427	5.17753	-0.00505883	0.00210161	0.00224599	-0.460449	-0.752686	-0.720459	-0.0155636	0.274212	-0.961515	-0.00739593	-0.274295	0.00187838	-9.78308	0.00422143	0.00627084	0.000256018	-0.436768	-0.353027	1.06592	0.114224	0.0553926	-0.472729	0.872016	1.98915	-7.92285	5.34483	0.000609002	0.00815027	-0.00725526	-0.404053	0.872803	-0.575195	-0.0964048	-0.155785	-0.979635	0.0821782	-0.5689	-0.83066	-6.23917	0.00286413	0.00919637	-0.0173711	-0.217529	0.260986	0.919922	0.128245	-0.0862556	-0.0183055	-0.987815	2.17049	0.086741	10.2787	0.01177	-0.000752197	-0.0129071	-0.544678	0.101562	-0.925049	-0.081324	0.014221	0.127772	0.988362	0.654962	2.6085	10.7863	0.00553945	0.0159436	-0.0136864	-0.510986	-0.182617	-1.04346	-0.104763	0.0641402	0.392889	0.911345	2.22771	7.18045	7.13448	0.00561736	0.00361751	-0.0176535	-0.644775	-0.680664	-0.747803	-0.0595191	0.0129195	-0.0437588	-0.997184	-0.26865	0.834295	10.4655	0.00293148	0.0105568	0.0032962	-0.407227	-0.154297	-1.06104	0.0210084	-0.0499353	0.219263	-0.974161	0.927814	-4.19326	8.82782	0.00373385	0.0049483	-0.00313433	-0.555176	0.331543	-1.00513	
18	-0.0513404	-0.109827	0.0479233	0.991466	-2.3531	1.03762	10.723	0.00702017	-0.00975744	-0.00382221	-0.0817871	0.117432	-1.13574	-0.145924	-0.201167	-0.0074568	0.968598	-3.92821	0.421637	9.26856	-0.0207512	0.0285817	-0.0194018	0.264893	0.0737305	-1.04834	0.182744	0.0525842	-0.498381	-0.845846	1.09839	8.82707	5.17285	0.0022317	0.00188713	-0.000649099	-0.460449	-0.752686	-0.720459	-0.015541	0.274242	-0.961506	-0.00742556	-0.284039	0.00758159	-9.75755	-0.00145673	0.00434966	-0.00076497	-0.436768	-0.353027	1.05908	0.114349	0.0553527	-0.472735	0.871999	1.99017	-7.94111	5.33204	-0.000253463	0.00647352	-0.0136749	-0.4021	0.875	-0.575195	-0.0962348	-0.155899	-0.979653	0.0819459	-0.593682	-0.829877	-6.25019	-0.00714389	0.0163591	-0.0138199	-0.215332	0.258789	0.915527	0.128291	-0.0862687	-0.018421	-0.987806	2.11968	0.105536	10.3538	0.0164631	0.00859185	-0.0189596	-0.549072	0.0993652	-0.925049	-0.0813867	0.0142684	0.127782	0.988354	0.675473	2.60839	10.7862	0.00614735	0.0160086	-0.0136959	-0.51123	-0.178223	-1.0481	-0.104789	0.0642182	0.392867	0.911346	2.229	7.18694	7.1306	0.00444516	0.00504759	-0.0162787	-0.642334	-0.683105	-0.740967	-0.0595729	0.0129027	-0.0438506	-0.997177	-0.263724	0.841281	10.4722	0.00572865	0.0136594	0.00426996	-0.411621	-0.154541	-1.0542	0.0209426	-0.0498902	0.219189	-0.974181	0.93838	-4.18424	8.83257	0.00347416	0.00593194	-0.00435711	-0.561768	0.331543	-1.00513	
19	-0.0514481	-0.109638	0.0478582	0.991485	-2.32282	1.02438	10.7294	-0.00356349	-0.00993289	0.0042393	-0.0864258	0.121582	-1.14014	-0.145882	-0.201419	-0.00753814	0.968552	-3.91013	0.455925	9.27786	-0.00782027	0.0202655	-0.0175776	0.266846	0.0737305	-1.05054	0.182775	0.0525018	-0.498355	-0.84586	1.05918	8.83111	5.18867	0.00440852	0.00342046	-0.00074431	-0.462646	-0.752686	-0.725098	-0.0155262	0.274247	-0.961506	-0.00737613	-0.286277	0.0049228	-9.7454	0.00719214	0.00570196	-0.000302926	-0.436768	-0.357422	1.06592	0.114282	0.0553105	-0.472526	0.872124	1.97729	-7.87737	5.36147	0.0111361	0.0128446	-0.00906703	-0.401611	0.866211	-0.577637	-0.0959656	-0.155789	-0.979683	0.0821038	-0.578724	-0.824883	-6.23789	0.00826259	0.0058784	-0.0169143	-0.217041	0.252197	0.922119	0.128296	-0.0867145	-0.01835	-0.987767	2.14617	0.0971606	10.3323	0.0063288	-0.0182305	-0.016004	-0.55542	0.097168	-0.931152	-0.0814178	0.0143269	0.127718	0.988359	0.648511	2.599	10.8071	0.00060825	0.0159439	-0.0154901	-0.51123	-0.178223	-1.05981	-0.10481	0.0643108	0.392823	0.911356	2.24179	7.18652	7.13893	0.00598756	0.00446413	-0.0170743	-0.644775	-0.680664	-0.743408	-0.0596444	0.0128917	-0.0438249	-0.997174	-0.273797	0.831084	10.4835	0.000777169	0.0135603	0.0031677	-0.405029	-0.156494	-1.06104	0.020957	-0.0498949	0.219236	-0.97417	0.940377	-4.19378	8.84164	3.78804e-05	0.00621963	-0.00366856	-0.557373	0.329346	-1.00073	
20	-0.0515635	-0.109458	0.0477364	0.991505	-2.34406	1.02955	10.7124	-0.00453068	-0.00769634	0.00346329	-0.0888672	0.125977	-1.13379	-0.145823	-0.201574	-0.00744203	0.968529	-3.92622	0.469315	9.28624	0.000972118	0.0265243	-0.0185748	0.26709	0.0673828	-1.04321	0.182769	0.0524741	-0.498399	-0.845837	1.0688	8.84605	5.17417	0.0083124	0.00333667	-0.000647447	-0.453857	-0.75708	-0.725098	-0.0155258	0.274251	-0.961505	-0.00736034	-0.281589	-0.00358185	-9.76799	0.00310573	0.00529205	-0.000611809	-0.436768	-0.353027	1.05908	0.114269	0.0552855	-0.472556	0.872111	1.95087	-7.89669	5.3661	-0.00289063	0.0102487	-0.0107208	-0.40625	0.868408	-0.577637	-0.0958633	-0.155903	-0.979682	0.0820199	-0.586604	-0.826491	-6.23839	-0.00180427	0.0137912	-0.0123837	-0.217285	0.256592	0.917725	0.128146	-0.0869713	-0.0183942	-0.987763	2.16461	0.101643	10.3074	0.00795777	-0.00203289	-0.0148332	-0.549072	0.10376	-0.927246	-0.0812937	0.0141155	0.127746	0.988369	0.639442	2.60398	10.7922	0.00429033	0.0160889	-0.0142994	-0.51123	-0.178467	-1.0459	-0.104809	0.0643445	0.392791	0.911367	2.22865	7.18582	7.14068	0.00339952	0.00486814	-0.0182063	-0.6521	-0.67627	-0.741211	-0.0597237	0.0128829	-0.0437785	-0.997171	-0.263941	0.827771	10.4595	0.00230196	0.0127119	0.0031212	-0.411865	-0.152344	-1.05664	0.0209666	-0.0499174	0.219242	-0.974167	0.931592	-4.19582	8.82155	0.0005287	0.00556854	-0.00359673	-0.557129	0.327148	-0.998291	
21	-0.0516927	-0.109269	0.0474832	0.991531	-2.33669	1.00198	10.7261	-0.00788713	-0.00811133	0.00251292	-0.0844727	0.125977	-1.14233	-0.145747	-0.201687	-0.00693981	0.96852	-3.92684	0.47145	9.27166	0.00966136	0.0135397	-0.016802	0.26709	0.0671387	-1.05518	0.182788	0.0524417	-0.498349	-0.845864	1.08519	8.85769	5.15426	0.000313802	0.00714877	-0.00147446	-0.462646	-0.756836	-0.725098	-0.0155323	0.274266	-0.9615	-0.00741931	-0.279853	0.0059839	-9.76697	0.000506677	0.00470549	0.00120634	-0.436768	-0.357422	1.06592	0.114214	0.0553583	-0.472617	0.87208	1.98899	-7.88684	5.36333	-0.00107719	0.0066426	-0.011568	-0.403809	0.866211	-0.572998	-0.0956902	-0.156006	-0.979688	0.0819544	-0.582727	-0.81444	-6.24531	0.00631837	0.00973991	-0.0163638	-0.219482	0.260986	0.921875	0.128183	-0.0878011	-0.0181645	-0.987689	2.18554	0.0868257	10.3068	0.00455763	-0.0229742	-0.0140186	-0.553467	0.10376	-0.929199	-0.0813437	0.0141461	0.127788	0.988359	0.646366	2.60748	10.7869	0.00614632	0.0159817	-0.014311	-0.51123	-0.178223	-1.0481	-0.104797	0.0643983	0.392796	0.911363	2.24294	7.17423	7.12986	0.00570824	0.00531574	-0.0191983	-0.654053	-0.683105	-0.745605	-0.0597692	0.0128769	-0.0438685	-0.997165	-0.277348	0.827989	10.4709	0.00754917	0.0140833	0.00353177	-0.406982	-0.158691	-1.06104	0.0209733	-0.0499307	0.219234	-0.974168	0.94227	-4.19111	8.81192	0.00242207	0.00661114	-0.00440486	-0.554932	0.329346	-1.00293	
22	-0.0516838	-0.109059	0.0472774	0.991564	-2.35393	1.0033	10.7201	-0.00646743	-0.0109751	-0.00221534	-0.0864258	0.123779	-1.13794	-0.145682	-0.201713	-0.00678227	0.968526	-3.91018	0.476133	9.28977	-0.00494344	0.0188471	-0.018224	0.264893	0.0693359	-1.05054	0.182829	0.0525029	-0.498323	-0.845867	1.06182	8.84505	5.18818	0.00432518	0.00777166	-0.00248261	-0.460449	-0.754883	-0.725098	-0.015537	0.27424	-0.961507	-0.00742935	-0.290185	0.0153674	-9.77214	0.0018538	0.00361699	0.001041	-0.439209	-0.35083	1.05249	0.11404	0.0552881	-0.472709	0.872058	1.94131	-7.88114	5.35232	-0.00724183	0.010012	-0.00601647	-0.404053	0.872803	-0.575195	-0.0955045	-0.155865	-0.979724	0.0820126	-0.579198	-0.826557	-6.24354	0.00352134	0.00870921	-0.0159049	-0.219482	0.258789	0.917725	0.128005	-0.0888999	-0.0182542	-0.987612	2.19539	0.0889098	10.3222	0.00576555	-0.0360485	-0.0151248	-0.55542	0.101562	-0.925049	-0.0812331	0.0139405	0.127772	0.988373	0.652847	2.6138	10.8012	0.00243761	0.0162228	-0.0136807	-0.50708	-0.171875	-1.05078	-0.104613	0.0642672	0.392852	0.911369	2.24017	7.19183	7.11851	0.00521874	0.00549737	-0.0186375	-0.654053	-0.680908	-0.736816	-0.0598234	0.0128471	-0.0438278	-0.997164	-0.275918	0.842804	10.4779	0.000335232	0.0127648	0.00436842	-0.407227	-0.156494	-1.05859	0.0209948	-0.0499447	0.219208	-0.974173	0.930077	-4.18494	8.82077	0.00176528	0.00756164	-0.00342848	-0.557373	0.331543	-0.998291	
23	-0.051805	-0.108841	0.0470263	0.991594	-2.31978	0.994465	10.7368	-0.0098834	-0.0075487	0.00361398	-0.0861816	0.119385	-1.14014	-0.145721	-0.201869	-0.00660046	0.968489	-3.9393	0.436704	9.25692	-0.0019643	0.0209811	-0.0135648	0.269531	0.0649414	-1.05273	0.182839	0.0525344	-0.498307	-0.845872	1.07265	8.83035	5.18053	0.00565689	0.00713608	-0.0023431	-0.460449	-0.75708	-0.720459	-0.0155409	0.274257	-0.961502	-0.00748333	-0.278989	0.0158614	-9.77525	0.000706347	0.0036303	0.00128018	-0.432373	-0.355225	1.05933	0.113973	0.0553184	-0.472958	0.871929	1.99793	-7.92989	5.3284	-0.00989382	0.00594664	-0.0115273	-0.404297	0.879395	-0.575195	-0.0953056	-0.155973	-0.979748	0.0817525	-0.584312	-0.815981	-6.24642	-0.00359418	0.0154542	-0.0156604	-0.213135	0.258789	0.922119	0.128009	-0.0903257	-0.0180129	-0.987487	2.22174	0.0702582	10.2948	-0.00151856	-0.0422438	-0.0152473	-0.55542	0.097168	-0.929199	-0.0812964	0.0139756	0.127716	0.988374	0.656119	2.60937	10.7971	0.0037194	0.0157484	-0.0136689	-0.509033	-0.176025	-1.05518	-0.104596	0.0643536	0.392798	0.911388	2.22993	7.16866	7.12894	0.00228321	0.00565605	-0.0181435	-0.642334	-0.685303	-0.740967	-0.0598931	0.0128085	-0.0437969	-0.997161	-0.269826	0.837666	10.4752	0.0012629	0.0118855	0.00385157	-0.405029	-0.156494	-1.05859	0.0209943	-0.0499729	0.21925	-0.974162	0.932848	-4.19163	8.84346	-0.000917288	0.00597103	-0.00466916	-0.561768	0.331543	-1.00757	
24	-0.0519301	-0.108742	0.0467967	0.991609	-2.3479	0.985939	10.7132	-0.00791103	-0.00566727	0.00247143	-0.0864258	0.121582	-1.13794	-0.145714	-0.20186	-0.00654062	0.968492	-3.92224	0.472715	9.28812	-0.00800283	0.0136178	-0.0178497	0.262939	0.0629883	-1.05029	0.182883	0.0525771	-0.498338	-0.845842	1.07902	8.83728	5.16907	0.00633491	0.00824441	-0.000915282	-0.460449	-0.754883	-0.720459	-0.0155313	0.274253	-0.961503	-0.00752995	-0.274877	0.0150798	-9.76606	-0.0017877	0.00473258	0.00168466	-0.438965	-0.357422	1.05713	0.113822	0.055284	-0.472956	0.871952	1.98258	-7.9246	5.33624	0.00283923	0.0118273	-0.00327108	-0.408447	0.872803	-0.572998	-0.0952489	-0.155996	-0.979745	0.0818089	-0.581902	-0.813642	-6.2559	0.00723653	0.0091366	-0.0173113	-0.219727	0.262939	0.919678	0.127952	-0.0922722	-0.0177323	-0.98732	2.24366	0.057195	10.3162	-0.00556008	-0.0673893	-0.0168621	-0.555664	0.105957	-0.920898	-0.081338	0.0139913	0.127714	0.988371	0.652989	2.62499	10.8056	0.00479925	0.017006	-0.0155806	-0.509033	-0.18042	-1.0481	-0.104602	0.0644289	0.392778	0.911391	2.23948	7.18495	7.12931	0.0062472	0.00542195	-0.0182089	-0.64502	-0.678467	-0.747803	-0.0598931	0.0128085	-0.0437969	-0.997161	-0.269826	0.837666	10.4752	0.0012629	0.0118855	0.00385157	-0.405029	-0.156494	-1.05859	0.0209943	-0.0499729	0.21925	-0.974162	0.932848	-4.19163	8.84346	-0.000917288	0.00597103	-0.00466916	-0.561768	0.331543	-1.00757	
25	-0.0520038	-0.108528	0.0466358	0.991636	-2.32759	0.974211	10.7277	-0.00350151	-0.00978005	0.000880953	-0.0866699	0.125977	-1.13574	-0.145751	-0.201979	-0.00640366	0.968463	-3.94008	0.466745	9.25855	-0.00120032	0.0175687	-0.0161436	0.269531	0.060791	-1.05493	0.182871	0.0526135	-0.498468	-0.845766	1.06429	8.84982	5.15901	0.0108347	0.00606334	-0.00154812	-0.458252	-0.759277	-0.724854	-0.0155701	0.274239	-0.961506	-0.0075766	-0.282668	0.0144725	-9.76306	0.00137999	0.00308602	0.00119789	-0.436523	-0.359619	1.05713	0.113764	0.0552628	-0.47313	0.871867	1.96633	-7.91153	5.33857	-0.00956619	0.007944	-0.0108679	-0.40625	0.872803	-0.579834	-0.0950254	-0.15585	-0.979786	0.0818615	-0.595421	-0.830214	-6.25042	0.00105567	0.0105584	-0.0180706	-0.217285	0.254395	0.919922	0.127917	-0.0943579	-0.0174554	-0.987132	2.30361	0.0648155	10.2622	-0.00287836	-0.0597466	-0.0168589	-0.564453	0.105957	-0.914551	-0.0813842	0.0140233	0.127698	0.988369	0.648635	2.59562	10.7693	0.00486686	0.0163999	-0.0155537	-0.506836	-0.18042	-1.05298	-0.104598	0.064496	0.392797	0.911378	2.23109	7.18938	7.12747	0.00752426	0.00422414	-0.0171801	-0.644775	-0.680664	-0.741211	-0.0599157	0.0129371	-0.0437978	-0.997158	-0.277122	0.818713	10.4957	0.00112544	0.0126688	0.00218791	-0.407227	-0.154297	-1.05884	0.0209655	-0.0499118	0.219248	-0.974166	0.924532	-4.18416	8.82172	0.000495429	0.00712952	-0.00275167	-0.564209	0.335938	-1.00537	
26	-0.0520464	-0.108452	0.046553	0.991646	-2.31593	0.982651	10.7456	-0.00503739	-0.00771325	0.00199716	-0.0839844	0.119385	-1.13794	-0.145786	-0.202012	-0.00636113	0.968451	-3.92941	0.499952	9.23633	-0.00597166	0.0172495	-0.0146466	0.269531	0.0649414	-1.05273	0.182872	0.0526418	-0.498577	-0.845699	1.0646	8.84563	5.14392	0.0149795	0.00646704	-0.00115445	-0.460449	-0.752686	-0.725098	-0.0155838	0.274217	-0.961512	-0.00758671	-0.277109	-0.00684805	-9.75603	0.0011817	0.0041624	0.00112504	-0.443604	-0.35083	1.06128	0.11372	0.0552364	-0.473208	0.871832	1.97453	-7.94254	5.32445	-0.00705797	0.00926702	-0.00868568	-0.40625	0.872803	-0.577637	-0.0949819	-0.155898	-0.979784	0.0818347	-0.584871	-0.820417	-6.24726	0.00112675	0.00870495	-0.0165986	-0.215088	0.256592	0.913574	0.127905	-0.0952614	-0.0174109	-0.987047	2.29343	0.0545109	10.2762	0.00405442	-0.0549853	-0.016336	-0.564453	0.110107	-0.914551	-0.0814059	0.0140431	0.127714	0.988365	0.650808	2.60987	10.7779	0.00621635	0.0153786	-0.0142849	-0.51123	-0.17627	-1.04834	-0.104609	0.0645433	0.392792	0.911376	2.23771	7.1787	7.11223	0.0056305	0.00397021	-0.0169394	-0.644775	-0.683105	-0.73877	-0.0599953	0.012888	-0.0438038	-0.997154	-0.284226	0.830857	10.4649	0.00324507	0.0118482	0.00261478	-0.409668	-0.149902	-1.052	0.0209594	-0.0499566	0.219225	-0.974169	0.932809	-4.18825	8.81428	0.00226907	0.00613679	-0.00378411	-0.55957	0.331543	-1.00073	
27	-0.0521147	-0.108282	0.046485	0.991664	-2.31753	0.986402	10.7188	-0.00228327	-0.00779222	0.00134659	-0.0844727	0.125977	-1.13794	-0.145871	-0.201982	-0.00636394	0.968444	-3.88723	0.468674	9.24666	-0.00635681	0.0161474	-0.0150071	0.269287	0.0673828	-1.0481	0.182875	0.0527116	-0.498726	-0.845607	1.06665	8.85732	5.15825	0.0114272	0.00774288	-0.00207012	-0.456055	-0.754883	-0.720459	-0.0155695	0.274223	-0.96151	-0.00762091	-0.278719	0.0228618	-9.76211	-0.000135177	0.00425738	0.000180357	-0.436768	-0.355225	1.05933	0.113623	0.0551872	-0.473287	0.871805	1.9595	-7.90983	5.34079	-0.00635793	0.0107301	-0.00819577	-0.404297	0.877197	-0.575195	-0.0949537	-0.155949	-0.979784	0.0817699	-0.601305	-0.825706	-6.23905	-0.000995298	0.00739668	-0.0163912	-0.217285	0.256592	0.917725	0.127858	-0.0973217	-0.0175499	-0.98685	2.37827	0.0852544	10.2765	0.0108386	-0.0667383	-0.0185276	-0.566406	0.10376	-0.912354	-0.0814474	0.0140624	0.12773	0.988359	0.661338	2.60931	10.7878	0.0048683	0.0164281	-0.0149432	-0.506592	-0.182617	-1.05054	-0.10461	0.0646292	0.392788	0.911371	2.2385	7.19293	7.11432	0.00549239	0.00439634	-0.0179989	-0.644531	-0.6875	-0.747803	-0.0600575	0.0128636	-0.0438743	-0.997147	-0.268455	0.820242	10.4903	0.00696277	0.0139141	0.00416314	-0.407471	-0.1521	-1.0564	0.0209594	-0.0499946	0.21918	-0.974177	0.933976	-4.2053	8.83011	0.003862	0.00621988	-0.00334092	-0.55957	0.329346	-1.00293	
28	-0.0521129	-0.10808	0.0464313	0.991689	-2.31874	0.993915	10.7431	-0.00151373	-0.00911821	-0.000239887	-0.0910645	0.125977	-1.13794	-0.145804	-0.202253	-0.00624597	0.968399	-3.95937	0.497855	9.28405	-0.00774792	0.0230748	-0.0199526	0.271729	0.0651855	-1.05273	0.182894	0.0527309	-0.498885	-0.845508	1.05597	8.8404	5.15422	0.0119156	0.00493872	-0.00169441	-0.460449	-0.754883	-0.71582	-0.0155718	0.274233	-0.961507	-0.00762265	-0.269715	0.00429496	-9.77657	0.00182642	0.00461324	0.00215371	-0.436768	-0.357422	1.06592	0.113518	0.0550655	-0.473486	0.871718	1.95535	-7.90453	5.35013	-0.0100114	0.0110238	-0.00813365	-0.406494	0.875	-0.575195	-0.0949401	-0.15602	-0.97979	0.0815839	-0.589679	-0.814831	-6.23614	-0.00753112	0.00692779	-0.0161299	-0.217529	0.260986	0.919922	0.127818	-0.0991775	-0.0173272	-0.986674	2.3557	0.0472945	10.3162	-0.00538305	-0.0628934	-0.0156039	-0.575195	0.110107	-0.906006	-0.0814767	0.0140909	0.127716	0.988358	0.652855	2.60171	10.7789	0.00486854	0.0164574	-0.014331	-0.509033	-0.18042	-1.05054	-0.104581	0.0646987	0.392812	0.911359	2.24211	7.20211	7.12355	0.00805577	0.00314136	-0.0205589	-0.649414	-0.683105	-0.745605	-0.0601195	0.0128763	-0.0438948	-0.997142	-0.259947	0.828621	10.4759	0.00365933	0.0146829	0.00279567	-0.409424	-0.156494	-1.05176	0.0208996	-0.0499316	0.219134	-0.974192	0.930932	-4.19502	8.82329	0.00233455	0.00676869	-0.003887	-0.561768	0.331543	-0.998291	
29	-0.0521536	-0.107988	0.0462273	0.991706	-2.31094	0.993395	10.7165	-0.00731554	-0.00512594	-6.1432e-05	-0.0910645	0.125977	-1.14453	-0.145785	-0.201746	-0.00586555	0.96851	-3.98863	0.487556	9.2495	-0.00644362	-0.015603	-0.0132657	0.262939	0.0649414	-1.05273	0.182935	0.0528605	-0.499035	-0.845402	1.05887	8.87869	5.1332	0.0142569	0.013833	-0.00466418	-0.458252	-0.754883	-0.722656	-0.0156215	0.274226	-0.961508	-0.00770643	-0.278053	0.0133438	-9.7725	-0.00223204	0.00320787	0.000729879	-0.434326	-0.357422	1.06592	0.113451	0.0550936	-0.473832	0.871537	1.94256	-7.94562	5.33775	-0.012508	0.00278972	-0.0136669	-0.40625	0.872803	-0.570801	-0.0947879	-0.156117	-0.979805	0.0813923	-0.595194	-0.811363	-6.24652	0.000959197	0.0122097	-0.0178244	-0.215088	0.254395	0.919922	0.127781	-0.102661	-0.0170225	-0.986328	2.40179	0.0407783	10.2978	-0.0164092	-0.134557	-0.0144917	-0.577148	0.105713	-0.906006	-0.0815446	0.0140588	0.127761	0.988347	0.66777	2.62157	10.7772	0.00709689	0.0185432	-0.0144427	-0.506836	-0.18042	-1.05298	-0.104394	0.0645866	0.392899	0.911351	2.24567	7.20049	7.1137	0.00646205	0.00437025	-0.0184355	-0.647217	-0.683105	-0.747803	-0.0601773	0.012841	-0.0438847	-0.99714	-0.288672	0.842788	10.49	0.00112715	0.0125233	0.00327471	-0.400391	-0.156494	-1.05859	0.0209079	-0.0499795	0.219122	-0.974192	0.925635	-4.17976	8.83551	0.00164105	0.00553288	-0.00366033	-0.564209	0.33374	-1.00293	
30	-0.0518845	-0.107862	0.0461561	0.991738	-2.29634	1.02608	10.7199	0.0017833	-0.00634763	-0.014461	-0.079834	0.123779	-1.14014	-0.145989	-0.201182	-0.00584626	0.968596	-3.89024	0.482535	9.31492	-0.0116095	-0.000680822	-0.0104662	0.265137	0.0629883	-1.05249	0.183007	0.0528585	-0.498914	-0.845458	1.09616	8.75979	5.21785	0.00609597	0.0065022	-0.00283738	-0.456055	-0.75708	-0.720459	-0.0156825	0.274205	-0.961512	-0.00778575	-0.283262	0.012254	-9.76027	-0.000532981	0.00145814	0.00237661	-0.427734	-0.355225	1.05933	0.113318	0.0551744	-0.474077	0.871416	1.98736	-7.97376	5.27061	-0.00403801	0.0024304	-0.00750465	-0.404297	0.875	-0.570801	-0.0945959	-0.156187	-0.979804	0.081499	-0.590032	-0.829049	-6.23075	0.00348489	0.0133731	-0.0158626	-0.217529	0.262939	0.919678	0.127999	-0.105031	-0.0188383	-0.986017	2.68332	-0.037492	10.2034	0.159663	-0.037136	-0.0146121	-0.581787	0.10791	-0.906006	-0.0815801	0.0140903	0.127675	0.988355	0.640051	2.60975	10.7787	0.00237363	0.0167937	-0.0143393	-0.510986	-0.182617	-1.05518	-0.104417	0.0646703	0.392888	0.911347	2.24975	7.18753	7.10459	0.00396252	0.00498614	-0.017182	-0.649414	-0.680908	-0.741211	-0.0602287	0.0128047	-0.0438031	-0.997141	-0.262425	0.824001	10.4634	-0.00127815	0.0120857	0.00354813	-0.405273	-0.149902	-1.052	0.0209001	-0.0500362	0.219098	-0.974195	0.965875	-4.18467	8.8208	0.00211607	0.00566059	-0.00316289	-0.559326	0.327148	-1.00049	
31	-0.052046	-0.107679	0.0457446	0.991768	-2.31356	0.972855	10.7149	-0.0197952	-0.00903743	0.0112813	-0.0844727	0.125977	-1.14014	-0.146045	-0.201276	-0.00576906	0.968569	-3.85875	0.462985	9.30741	-0.00395025	0.0237741	-0.0158257	0.265137	0.0627441	-1.05493	0.182969	0.0530899	-0.499258	-0.845248	1.02966	8.90377	5.13627	0.0141925	0.00339673	-0.00308919	-0.456055	-0.754883	-0.722656	-0.015746	0.274204	-0.961511	-0.00781057	-0.286467	0.0227799	-9.76843	0.0014862	-0.000176094	0.00212901	-0.43457	-0.355225	1.06152	0.113266	0.0551869	-0.473949	0.871491	1.99425	-7.87429	5.34242	0.003572	0.0123497	-0.0113683	-0.406494	0.877197	-0.570801	-0.0945932	-0.156207	-0.979821	0.0812511	-0.596479	-0.810529	-6.25697	-0.00300847	0.00446987	-0.0173014	-0.212891	0.254395	0.919922	0.128056	-0.105788	-0.0194968	-0.985916	2.4447	0.132607	10.2767	-0.0402677	-0.0655819	-0.0130543	-0.581543	0.103516	-0.899414	-0.0816241	0.0141451	0.127537	0.988368	0.67936	2.61414	10.7985	-0.00605692	0.0151537	-0.0160752	-0.506836	-0.178223	-1.05298	-0.104415	0.0647272	0.39274	0.911407	2.25373	7.18375	7.14611	-0.00330772	0.00657463	-0.0189612	-0.646973	-0.683105	-0.743408	-0.0602495	0.0128551	-0.0438664	-0.997136	-0.278671	0.80062	10.4769	0.0140959	0.0191353	0.00719591	-0.409668	-0.149902	-1.0542	0.0209285	-0.0500108	0.219121	-0.97419	0.928571	-4.1924	8.83069	0.000638968	0.00761788	-0.00338655	-0.562012	0.33374	-1.00293	
32	-0.0522393	-0.107427	0.0454058	0.991801	-2.34574	0.937933	10.7359	-0.00846019	-0.0135708	0.00023713	-0.088623	0.123779	-1.14014	-0.146089	-0.201654	-0.0058091	0.968483	-3.98401	0.508316	9.26532	-0.00933085	0.0258389	-0.0148113	0.269531	0.060791	-1.05249	0.182845	0.0530895	-0.499476	-0.845147	1.06091	8.87794	5.12563	0.0208153	0.00492134	-0.00467434	-0.458252	-0.763428	-0.729492	-0.0157749	0.274175	-0.96152	-0.0076936	-0.28109	0.00897728	-9.76034	0.00185671	0.00361921	0.00104398	-0.434326	-0.357422	1.06152	0.113198	0.0550199	-0.474036	0.871464	1.92897	-7.96282	5.30616	-0.000855358	0.013721	-0.00923082	-0.404053	0.872803	-0.568359	-0.0945653	-0.156238	-0.979808	0.0813871	-0.594305	-0.815583	-6.24757	0.00647078	0.00732465	-0.018464	-0.212891	0.256592	0.913574	0.128171	-0.108648	-0.0187472	-0.985604	2.54802	0.0255444	10.137	-0.013446	-0.0817272	-0.0101406	-0.588135	0.105713	-0.895264	-0.0815836	0.0142136	0.12736	0.988393	0.642802	2.59663	10.8009	0.00190516	0.0154291	-0.0161168	-0.50708	-0.176025	-1.05054	-0.104463	0.0647517	0.392634	0.911446	2.22308	7.18585	7.14426	0.00467623	0.00667595	-0.0160455	-0.649414	-0.683105	-0.741211	-0.0603116	0.0129017	-0.0441087	-0.997121	-0.300849	0.844911	10.4767	0.00793648	0.0133721	0.00150471	-0.402832	-0.1521	-1.0564	0.0209121	-0.050022	0.219173	-0.974178	0.930643	-4.21578	8.82699	0.000162201	0.00749289	-0.00388647	-0.564209	0.33374	-1.00293	
33	-0.052317	-0.107171	0.0452387	0.991832	-2.30879	0.93652	10.7259	-0.002739	-0.010879	0.00200098	-0.0913086	0.130371	-1.13818	-0.146249	-0.201484	-0.00573143	0.968495	-3.93902	0.467141	9.2678	-0.00633275	0.000895014	-0.0101931	0.263184	0.060791	-1.04541	0.182791	0.0532231	-0.499682	-0.845028	1.05129	8.86246	5.1425	0.0083106	0.00838372	-0.00348294	-0.4646	-0.765625	-0.724854	-0.0158181	0.274155	-0.961524	-0.00774823	-0.295358	0.0064908	-9.74509	3.58799e-05	0.00417738	0.00136426	-0.437012	-0.35083	1.06348	0.113195	0.0551349	-0.474109	0.871417	1.96541	-7.89812	5.33856	-0.00710931	0.00396144	-0.0146244	-0.406494	0.877197	-0.568359	-0.0943628	-0.156316	-0.979822	0.081303	-0.600164	-0.805467	-6.25487	0.000702773	0.0162755	-0.0163505	-0.217285	0.256592	0.919922	0.127906	-0.110498	-0.0186673	-0.985435	2.56956	0.0432458	10.2281	-0.00537534	-0.0652959	-0.0166921	-0.590332	0.10791	-0.893311	-0.0816527	0.0142286	0.127421	0.98838	0.651454	2.60073	10.7615	0.00979637	0.0164005	-0.0143444	-0.504639	-0.178223	-1.05054	-0.104501	0.0647945	0.39265	0.911432	2.24088	7.18764	7.14625	0.00746678	0.00522284	-0.015159	-0.651855	-0.683105	-0.741211	-0.0603257	0.0129207	-0.0440755	-0.997121	-0.283125	0.864337	10.4604	0.000497479	0.0145314	0.00417854	-0.405029	-0.154297	-1.06104	0.020888	-0.0500601	0.219136	-0.974185	0.936222	-4.19936	8.81376	0.00420671	0.00485544	-0.00587084	-0.561768	0.329346	-1.00073	
34	-0.0522323	-0.106891	0.0452325	0.991867	-2.28755	0.980565	10.7395	0.00179737	-0.0133641	-0.00556102	-0.0866699	0.128174	-1.13599	-0.146283	-0.201318	-0.00575258	0.968524	-3.86658	0.512851	9.25501	-0.0131049	0.0148064	-0.0184859	0.260742	0.0629883	-1.05029	0.182815	0.0532285	-0.499742	-0.844987	1.0547	8.85733	5.15197	0.0100076	0.00549775	-0.000221097	-0.458252	-0.75708	-0.71582	-0.015822	0.274153	-0.961524	-0.00778491	-0.288172	0.0115114	-9.78807	-0.00109761	0.00369309	0.00104682	-0.432373	-0.355225	1.06592	0.113074	0.0550116	-0.474362	0.871303	1.99152	-7.93517	5.3144	-0.0108734	0.0146266	-0.00351077	-0.401855	0.872803	-0.575195	-0.0943349	-0.156361	-0.979814	0.081346	-0.587562	-0.82025	-6.23865	0.00601559	0.00702188	-0.0163306	-0.212891	0.256592	0.915771	0.127927	-0.113103	-0.0179776	-0.985149	2.68494	0.0289732	10.1345	-0.017995	-0.0790493	-0.00846302	-0.599365	0.116455	-0.88916	-0.0816721	0.0142571	0.127461	0.988372	0.665321	2.60958	10.7803	0.00817991	0.0143785	-0.0142433	-0.506592	-0.182617	-1.05518	-0.104387	0.0646851	0.392667	0.911445	2.24477	7.19077	7.12192	0.00362666	0.00591615	-0.0156712	-0.653809	-0.687744	-0.747803	-0.0602749	0.0130232	-0.0440445	-0.997125	-0.272991	0.822693	10.4797	1.54671e-05	0.0107609	0.0046441	-0.409424	-0.158691	-1.05859	0.0208584	-0.0500746	0.219072	-0.9742	0.94225	-4.16752	8.81812	0.00206935	0.00776256	-0.00512084	-0.557373	0.331543	-1.00293	
35	-0.0522057	-0.10681	0.0451907	0.991879	-2.2584	0.988085	10.7438	-0.00139806	-0.00885636	-0.0028203	-0.0866699	0.128174	-1.13379	-0.146299	-0.201522	-0.00585982	0.968479	-3.89885	0.482087	9.29155	-0.0151918	0.0333332	-0.0172642	0.265137	0.0649414	-1.05493	0.182797	0.053376	-0.499938	-0.844866	1.05566	8.85788	5.11749	0.0130571	0.00921238	-0.00523615	-0.456055	-0.754883	-0.722656	-0.0158307	0.274142	-0.961527	-0.00787757	-0.280158	0.0104284	-9.76968	-0.00140348	0.00308054	0.00238613	-0.436768	-0.357422	1.06152	0.113032	0.0549156	-0.474537	0.871219	1.94681	-7.9524	5.32337	-0.0162754	0.0125096	-0.00600289	-0.406494	0.877197	-0.572998	-0.094357	-0.15638	-0.979808	0.0813494	-0.597282	-0.815716	-6.22698	0.00222813	0.00461871	-0.0171921	-0.212891	0.256592	0.922119	0.127953	-0.114259	-0.0177671	-0.985016	2.68001	0.0145058	10.1475	-0.0105045	-0.0735545	-0.0109274	-0.594971	0.114258	-0.897705	-0.0816745	0.014293	0.127378	0.988382	0.666958	2.60389	10.7713	-0.00072616	0.0169688	-0.0161923	-0.515869	-0.171875	-1.04834	-0.104381	0.064746	0.392529	0.911501	2.23601	7.17299	7.12524	-0.000262677	0.00606682	-0.019219	-0.644775	-0.683105	-0.743408	-0.0603748	0.0130364	-0.0440892	-0.997116	-0.263589	0.846389	10.4739	0.00475942	0.0157105	0.00101354	-0.405029	-0.156494	-1.0542	0.0208305	-0.0500643	0.219107	-0.974193	0.930418	-4.19211	8.83425	-0.000166866	0.0078515	-0.0050169	-0.55957	0.331543	-1.00073	
36	-0.0522844	-0.106729	0.0450444	0.99189	-2.33457	0.95979	10.7472	-0.00459134	-0.00376419	0.00197857	-0.0847168	0.132568	-1.14233	-0.146317	-0.201621	-0.00569442	0.968456	-3.99406	0.475085	9.28666	-0.0147494	0.0176193	-0.0153759	0.267334	0.0629883	-1.05249	0.182748	0.053442	-0.50002	-0.844824	1.0626	8.86176	5.14577	0.013262	0.00809397	-0.00602084	-0.458252	-0.759277	-0.722656	-0.0158761	0.274117	-0.961532	-0.00797215	-0.276281	0.0199815	-9.75942	0.000248805	0.00260359	0.000882739	-0.438965	-0.353027	1.06152	0.112916	0.0548095	-0.474936	0.871023	1.97348	-7.91883	5.30486	-0.0208886	0.0102289	-0.00716797	-0.406494	0.877197	-0.568359	-0.0942711	-0.156204	-0.979856	0.0812078	-0.603801	-0.800989	-6.24378	0.00531668	0.00449178	-0.0184687	-0.215332	0.260986	0.921875	0.127925	-0.117243	-0.0168392	-0.984686	2.67431	-0.011665	10.2172	-0.0485689	-0.119379	-0.00957678	-0.601318	0.116455	-0.886963	-0.08172	0.0143681	0.127444	0.988369	0.661253	2.58697	10.7634	0.0125622	0.0137393	-0.0123752	-0.509277	-0.173828	-1.05298	-0.104366	0.0647792	0.39258	0.911478	2.22639	7.18481	7.12984	0.0106694	0.00545026	-0.0189534	-0.647217	-0.682861	-0.75	-0.0604547	0.0129766	-0.0439945	-0.997117	-0.289929	0.839768	10.4687	-0.00198872	0.0103519	0.00328084	-0.409424	-0.158691	-1.06104	0.0208024	-0.0500292	0.219123	-0.974192	0.921763	-4.20989	8.83894	0.00014044	0.00827736	-0.00346932	-0.557617	0.335938	-1.00537	
37	-0.0521035	-0.106595	0.044879	0.991922	-2.29213	0.988187	10.7157	-0.005643	-0.00555784	-0.00712902	-0.088623	0.123779	-1.13574	-0.146397	-0.201312	-0.00558828	0.968509	-3.93041	0.520205	9.24793	-0.00540051	0.00634385	-0.013057	0.269531	0.0629883	-1.04785	0.182747	0.0538235	-0.500189	-0.8447	1.05685	8.82756	5.15096	0.0138186	0.014805	-0.00471048	-0.453857	-0.761475	-0.71582	-0.0159535	0.274101	-0.961536	-0.00798116	-0.287978	0.0291096	-9.76458	0.0027284	0.0019981	0.0010361	-0.43457	-0.355225	1.05273	0.11278	0.054699	-0.475303	0.870848	1.9458	-7.96312	5.28751	-0.0119806	0.00932717	-0.00634149	-0.404297	0.879395	-0.566162	-0.0942825	-0.156201	-0.979853	0.0812388	-0.610416	-0.816118	-6.23772	-0.00237731	0.00885615	-0.0175147	-0.210693	0.254395	0.919922	0.127961	-0.12022	-0.017062	-0.984318	2.78381	-0.00895984	10.1539	0.0249872	-0.0869663	-0.0145928	-0.609863	0.112061	-0.884766	-0.0817857	0.0143484	0.12756	0.988349	0.63261	2.60734	10.7806	0.0151123	0.0183822	-0.0113764	-0.506836	-0.176025	-1.04834	-0.104337	0.0648215	0.392688	0.911432	2.23403	7.19317	7.13875	0.0152709	0.00171637	-0.0204274	-0.64502	-0.67627	-0.741211	-0.0605334	0.0128744	-0.0438717	-0.997118	-0.277024	0.82438	10.4756	-0.00268456	0.00891653	0.000848288	-0.405029	-0.154297	-1.0542	0.0207989	-0.0500405	0.219099	-0.974197	0.922123	-4.21421	8.82042	0.00337825	0.00610811	-0.00384817	-0.564209	0.331543	-0.998291	
38	-0.0521231	-0.106398	0.0446253	0.991953	-2.30553	0.963687	10.7322	-0.00839493	-0.00965209	-0.00239562	-0.0910645	0.125977	-1.14233	-0.146532	-0.201363	-0.0055868	0.968478	-3.89398	0.477724	9.29773	-0.00893793	0.0246497	-0.0118261	0.267334	0.0649414	-1.05273	0.182728	0.0539886	-0.500264	-0.844649	1.05514	8.88964	5.11082	0.00550018	0.00986092	-0.00516712	-0.460449	-0.754883	-0.725098	-0.0160344	0.274085	-0.961538	-0.00802317	-0.299511	0.0189627	-9.77186	0.00205578	0.00254319	0.00111848	-0.438721	-0.359619	1.05713	0.112725	0.0547113	-0.475448	0.870775	1.94398	-7.93565	5.33461	-0.01216	0.00568653	-0.00963768	-0.404297	0.877197	-0.572998	-0.0941836	-0.15626	-0.979865	0.0810956	-0.606207	-0.812714	-6.24752	0.0010781	0.00953172	-0.0173533	-0.210693	0.256592	0.924316	0.12797	-0.122257	-0.0167841	-0.984071	2.82746	-0.0463396	10.171	-0.00740612	-0.065829	-0.0102661	-0.614258	0.114258	-0.880615	-0.081701	0.0141499	0.127725	0.988337	0.666541	2.62081	10.8087	0.00116822	0.0165583	-0.0161914	-0.510986	-0.18042	-1.05273	-0.104135	0.0647697	0.392854	0.911387	2.25041	7.20224	7.12068	0.00267894	0.00419394	-0.017255	-0.640137	-0.685303	-0.745605	-0.0606	0.012797	-0.043854	-0.997116	-0.243061	0.828365	10.4664	0.00554595	0.010443	0.0036622	-0.402832	-0.154297	-1.05884	0.020701	-0.0499924	0.219011	-0.974221	0.937143	-4.187	8.81705	0.00396559	0.00827834	-0.0031309	-0.555176	0.331543	-1.00757	
39	-0.0521059	-0.106159	0.0442704	0.991996	-2.26738	0.965259	10.7452	-0.0139329	-0.0108113	-0.00183195	-0.0915527	0.134521	-1.13159	-0.146646	-0.201705	-0.00595577	0.968388	-3.93633	0.452148	9.26599	-0.0211882	0.0337189	-0.0167844	0.267334	0.0629883	-1.04541	0.182708	0.0541736	-0.500377	-0.844574	1.03445	8.84305	5.1371	0.0157099	0.0104642	-0.00635836	-0.458252	-0.75708	-0.720459	-0.0161343	0.274063	-0.961543	-0.00803466	-0.280085	0.00582227	-9.7483	0.00295497	-7.39409e-05	-1.43159e-06	-0.436768	-0.353027	1.06592	0.11271	0.0545964	-0.475904	0.870535	1.96121	-7.95042	5.27132	-0.00792517	0.00849769	-0.00830615	-0.404297	0.875	-0.570801	-0.094092	-0.156325	-0.97987	0.0810175	-0.614133	-0.790084	-6.26132	-0.00114835	0.00981083	-0.0160403	-0.213135	0.260986	0.917725	0.128059	-0.124808	-0.0166186	-0.983742	2.85961	-0.0297347	10.1287	0.00114478	-0.0852946	-0.0115117	-0.614258	0.112061	-0.876221	-0.0817257	0.0142135	0.127552	0.988357	0.651142	2.59637	10.7823	0.000150645	0.0147233	-0.0136403	-0.51123	-0.178223	-1.05054	-0.104127	0.0648559	0.392748	0.911427	2.25019	7.18626	7.12945	0.00216187	0.00410067	-0.0182154	-0.651855	-0.680664	-0.747803	-0.0606114	0.012826	-0.0439146	-0.997112	-0.276508	0.829627	10.473	0.00773409	0.0157164	0.00447999	-0.405029	-0.156494	-1.0542	0.0207023	-0.0500074	0.219039	-0.974214	0.923864	-4.17899	8.83505	-0.000944713	0.00676557	-0.0042701	-0.555176	0.331543	-0.998291	
40	-0.0522847	-0.105989	0.043778	0.992026	-2.30736	0.948015	10.7207	-0.0193672	-0.00757873	0.00642383	-0.0932617	0.125977	-1.13599	-0.146674	-0.20191	-0.00604943	0.96834	-3.94932	0.468847	9.24231	-0.0140471	0.032787	-0.0167918	0.269531	0.0627441	-1.05737	0.182678	0.0543177	-0.500621	-0.844427	1.01419	8.8726	5.10837	0.0147323	0.00633035	-0.00195148	-0.458252	-0.761475	-0.724854	-0.0162048	0.274036	-0.961549	-0.0080171	-0.291992	0.017834	-9.78416	0.00481395	0.0035464	0.00104436	-0.43457	-0.355225	1.06152	0.112613	0.0545072	-0.476017	0.870491	1.94916	-7.95054	5.29024	-0.0046517	0.0121932	-0.00737552	-0.404297	0.877197	-0.572998	-0.0940718	-0.156357	-0.97987	0.0809832	-0.621162	-0.797487	-6.24337	-0.00148653	0.00800131	-0.0158802	-0.213135	0.260986	0.921875	0.128017	-0.127856	-0.0168289	-0.983352	2.89332	-0.0325814	10.139	0.00994078	-0.115702	-0.0175001	-0.625	0.112061	-0.874268	-0.0817913	0.0142381	0.127602	0.988345	0.660108	2.60295	10.7722	0.00850897	0.0169355	-0.0131403	-0.51123	-0.178223	-1.05054	-0.104138	0.0649521	0.392769	0.911411	2.25153	7.19276	7.12575	0.00930405	0.00297046	-0.0174778	-0.649414	-0.685303	-0.743408	-0.0606032	0.0129758	-0.0439408	-0.99711	-0.278467	0.842642	10.4813	0.00206756	0.0127651	0.00292349	-0.407227	-0.154297	-1.05884	0.0206959	-0.0500222	0.219073	-0.974206	0.926549	-4.19996	8.84066	-0.00156955	0.0061567	-0.00414289	-0.559814	0.335938	-1.00293	
41	-0.0524542	-0.105731	0.0433559	0.992063	-2.27418	0.894177	10.727	-0.0126262	-0.0109399	0.00216246	-0.0869141	0.132568	-1.14014	-0.146397	-0.202221	-0.00622739	0.968316	-3.92939	0.516774	9.23737	-0.00309614	0.0122897	-0.0185021	0.265137	0.0673828	-1.04565	0.182675	0.0543418	-0.500841	-0.844295	1.05575	8.89078	5.10036	0.0133903	0.00444235	-0.000665529	-0.456055	-0.759277	-0.718018	-0.0162108	0.274046	-0.961546	-0.00807681	-0.293267	0.0148264	-9.76274	-0.00111039	0.00419236	0.00160216	-0.432373	-0.355225	1.05933	0.11256	0.054457	-0.476114	0.870448	1.93587	-7.95295	5.28598	-0.00885271	0.0102881	-0.00703199	-0.404541	0.881592	-0.566162	-0.094007	-0.156415	-0.979867	0.0809758	-0.615617	-0.819727	-6.23991	0.00196749	0.00868118	-0.0157169	-0.217529	0.260986	0.91333	0.127994	-0.129409	-0.0169118	-0.98315	2.9584	-0.0456512	10.111	0.00692184	-0.108676	-0.0160275	-0.62915	0.109863	-0.87207	-0.0818454	0.0142599	0.127695	0.988328	0.656606	2.62184	10.79	0.00791261	0.0167756	-0.0149797	-0.509277	-0.174072	-1.0459	-0.104149	0.0650416	0.392859	0.911364	2.23701	7.20896	7.10785	0.00968939	0.00349424	-0.017567	-0.642334	-0.685303	-0.745605	-0.0606991	0.0129068	-0.0438776	-0.997108	-0.265567	0.820894	10.4771	0.00447071	0.0143053	0.00281261	-0.40918	-0.160889	-1.05176	0.0206482	-0.0500927	0.21909	-0.974199	0.940026	-4.18589	8.82912	-0.000434886	0.0053361	-0.00462019	-0.561768	0.329346	-1.00513	
42	-0.0524472	-0.105645	0.0432181	0.992079	-2.27527	0.896811	10.7433	-0.00929841	-0.00888945	-0.00171091	-0.0891113	0.132568	-1.14233	-0.146372	-0.202187	-0.00616378	0.968327	-3.94685	0.50691	9.24117	-0.00393792	0.0116995	-0.0179905	0.263184	0.060791	-1.04785	0.182677	0.054414	-0.500876	-0.84427	1.04388	8.89305	5.11959	0.00887525	0.0100541	-0.00400022	-0.456055	-0.763672	-0.724854	-0.0162525	0.274055	-0.961543	-0.00810818	-0.299108	0.0231029	-9.74945	0.000461239	0.00102964	0.000400374	-0.436768	-0.355225	1.06152	0.112617	0.0544069	-0.476353	0.870313	1.94319	-7.9493	5.28275	-0.0111091	0.00661135	-0.00760558	-0.404297	0.875	-0.568359	-0.0939821	-0.156424	-0.97987	0.0809582	-0.623451	-0.818349	-6.24987	0.00026207	0.00849156	-0.0175251	-0.210938	0.258789	0.919922	0.127856	-0.131676	-0.0172862	-0.982861	2.98929	-0.0515126	10.071	0.0105862	-0.0843557	-0.0131293	-0.629395	0.114014	-0.865723	-0.0818736	0.0143011	0.127701	0.988324	0.651499	2.62392	10.7898	0.00575631	0.0141344	-0.0136193	-0.51123	-0.176025	-1.05054	-0.104169	0.0650857	0.392844	0.911365	2.24928	7.20314	7.11925	0.00472856	0.00404811	-0.0164062	-0.651855	-0.683105	-0.743408	-0.0607289	0.0128987	-0.0439222	-0.997104	-0.27026	0.832097	10.4866	0.00597432	0.0132909	0.00385572	-0.409424	-0.156494	-1.05859	0.0206591	-0.0501184	0.219054	-0.974206	0.940073	-4.18782	8.81999	0.00386715	0.00546354	-0.0037768	-0.55957	0.329346	-1.00513	
43	-0.0524001	-0.105518	0.0431695	0.992097	-2.28404	0.909562	10.7545	0.0016485	-0.0067749	-0.00440282	-0.0891113	0.132324	-1.13379	-0.146388	-0.202339	-0.00609614	0.968294	-3.92743	0.486731	9.27961	-0.00685586	0.0235497	-0.0163424	0.269531	0.0629883	-1.04541	0.18278	0.0545893	-0.500896	-0.844224	1.01261	8.88255	5.10413	0.00562891	0.0125077	-0.00106557	-0.456055	-0.759277	-0.718018	-0.0163299	0.27401	-0.961553	-0.0081713	-0.289042	0.0137764	-9.75355	-4.27641e-05	0.00149396	0.00166637	-0.43457	-0.353027	1.05908	0.112466	0.0543692	-0.476782	0.8701	1.95595	-7.95258	5.28743	-0.0203275	0.006401	-0.00572888	-0.402344	0.881592	-0.566162	-0.0939279	-0.156481	-0.979871	0.0808935	-0.61165	-0.811372	-6.23748	-0.000675471	0.00898925	-0.0157198	-0.215088	0.254395	0.915771	0.127959	-0.13408	-0.0176416	-0.982516	3.05203	-0.0357447	10.0821	0.0185747	-0.0775624	-0.0108381	-0.635986	0.116211	-0.865723	-0.0819024	0.0143534	0.127604	0.988334	0.674087	2.61535	10.811	0.00123518	0.0160076	-0.0149456	-0.506836	-0.178223	-1.05054	-0.104167	0.0651677	0.392756	0.911397	2.24985	7.17996	7.12165	0.00200384	0.0048501	-0.0186015	-0.649414	-0.683105	-0.741211	-0.0607951	0.0128789	-0.043933	-0.9971	-0.271252	0.846678	10.4842	0.00298761	0.012982	0.00256258	-0.407227	-0.154297	-1.0564	0.0206616	-0.0501377	0.219043	-0.974207	0.951362	-4.18053	8.81978	0.00178096	0.00603176	-0.00430159	-0.564209	0.335938	-1.00537	
44	-0.0522641	-0.105351	0.0431147	0.992124	-2.29072	0.927495	10.7525	-9.29464e-05	-0.00639172	-0.00223467	-0.0915527	0.134521	-1.13599	-0.146412	-0.202631	-0.00622099	0.968228	-3.95603	0.456457	9.26995	-0.0134376	0.0240958	-0.015812	0.267334	0.0629883	-1.05029	0.182863	0.0545768	-0.500861	-0.844228	1.03968	8.87226	5.13515	0.00238595	0.00579932	0.000400038	-0.456055	-0.761475	-0.718018	-0.0162976	0.274006	-0.961554	-0.00828435	-0.290439	0.0254742	-9.76177	-0.00244066	0.00478533	0.00121132	-0.438965	-0.355225	1.06372	0.112228	0.0543066	-0.477444	0.869771	1.96017	-7.98542	5.25128	-0.0194826	0.00278507	-0.00867739	-0.404297	0.875	-0.566162	-0.0937443	-0.156334	-0.979931	0.080663	-0.614618	-0.800322	-6.23998	-0.00759655	0.0114298	-0.0157018	-0.212891	0.256592	0.919922	0.128131	-0.137238	-0.0179263	-0.982052	3.11097	-0.0292452	10.063	0.0108215	-0.0677885	-0.0114938	-0.640137	0.116211	-0.865723	-0.0819362	0.0143756	0.127593	0.988332	0.656393	2.60308	10.783	0.00615848	0.0159933	-0.0143268	-0.504639	-0.18042	-1.05054	-0.104184	0.0652372	0.392748	0.911394	2.22424	7.17045	7.11924	0.00704642	0.00452647	-0.0173773	-0.651611	-0.687744	-0.73877	-0.0608378	0.0128698	-0.0438927	-0.997099	-0.280321	0.826055	10.4859	0.00100923	0.0130357	0.00379601	-0.407227	-0.156494	-1.05859	0.0205775	-0.0500723	0.219038	-0.974213	0.935917	-4.18603	8.82128	0.000149806	0.00750822	-0.00390553	-0.55542	0.338135	-1.00293	
45	-0.0522544	-0.105287	0.043099	0.992132	-2.26584	0.925958	10.7467	0.00065862	-0.00750009	-0.00111862	-0.09375	0.134521	-1.13818	-0.146408	-0.202702	-0.00625075	0.968214	-3.94749	0.454033	9.23415	-0.0103873	0.0213074	-0.0183031	0.267334	0.0629883	-1.05029	0.182908	0.0546704	-0.500897	-0.844191	1.0369	8.87373	5.13318	0.00841143	0.00816283	-0.00206803	-0.455811	-0.765869	-0.718018	-0.0163433	0.273994	-0.961557	-0.00833185	-0.298164	0.0251787	-9.7588	0.000937131	0.00156141	0.000245798	-0.43457	-0.355225	1.05933	0.112183	0.0542986	-0.477592	0.869697	1.95657	-7.99985	5.24567	-0.0132882	0.00727458	-0.00915749	-0.404297	0.877197	-0.563965	-0.0936186	-0.156421	-0.979935	0.0805982	-0.62347	-0.796917	-6.2554	0.00447579	0.0110092	-0.0170696	-0.214844	0.25	0.911621	0.128172	-0.138196	-0.0180767	-0.98191	3.11124	-0.0489718	10.0582	0.0193268	-0.0622819	-0.0130918	-0.642334	0.118408	-0.861572	-0.0819559	0.0143815	0.127669	0.98832	0.662485	2.6013	10.8128	0.0110854	0.0159501	-0.0143198	-0.513184	-0.184814	-1.05054	-0.104181	0.0653097	0.392811	0.911362	2.24283	7.19099	7.11603	0.00994644	0.00445695	-0.0186996	-0.651855	-0.683105	-0.741211	-0.0609025	0.0128539	-0.0438676	-0.997096	-0.274751	0.821094	10.4833	0.000728495	0.0119294	0.00341315	-0.411621	-0.156738	-1.05176	0.020578	-0.0500849	0.219026	-0.974215	0.928848	-4.20591	8.81661	0.00238396	0.00742551	-0.00400956	-0.564209	0.331543	-1.00757	
46	-0.0523242	-0.105126	0.0430619	0.992147	-2.28214	0.914996	10.765	0.00145522	-0.00728923	0.0007559	-0.0893555	0.134521	-1.13379	-0.146409	-0.202815	-0.00628501	0.96819	-3.99208	0.452833	9.29271	-0.0116788	0.0219013	-0.0207288	0.276123	0.060791	-1.05005	0.18292	0.0546994	-0.501082	-0.844077	1.0225	8.88665	5.12195	0.0137768	0.0034606	-0.000587937	-0.453857	-0.765869	-0.720215	-0.0163792	0.27399	-0.961557	-0.00831373	-0.287579	0.0246018	-9.76186	0.00328762	0.00521626	0.00058281	-0.436768	-0.355225	1.06592	0.112074	0.0542634	-0.477764	0.869619	1.9593	-7.97104	5.27594	-0.00899564	0.00755604	-0.00865948	-0.404541	0.883789	-0.563965	-0.0935839	-0.156504	-0.979926	0.0805775	-0.610901	-0.803142	-6.23632	-0.000740707	0.0097235	-0.014738	-0.215088	0.254395	0.917969	0.128207	-0.140193	-0.0187737	-0.981609	3.14969	-0.0624116	10.0412	0.0343232	-0.0714532	-0.0176174	-0.646729	0.116211	-0.853027	-0.0817053	0.0139567	0.127815	0.988328	0.650412	2.62631	10.7874	0.00617705	0.015831	-0.0135015	-0.504639	-0.18042	-1.05054	-0.104025	0.0652084	0.392902	0.911348	2.24141	7.19588	7.11319	0.00657106	0.00454443	-0.0171451	-0.649414	-0.683105	-0.743408	-0.0609503	0.0128288	-0.043887	-0.997093	-0.268544	0.837707	10.4692	0.00326555	0.0139451	0.00403757	-0.407227	-0.156494	-1.05859	0.0205727	-0.0501194	0.219028	-0.974213	0.94003	-4.18465	8.83335	0.00162938	0.00555332	-0.00367778	-0.559814	0.33374	-1.00513	
47	-0.0523173	-0.104918	0.0431932	0.992164	-2.28834	0.921041	10.7374	0.00690711	-0.0119383	1.01117e-05	-0.0935059	0.130127	-1.13379	-0.14637	-0.203179	-0.00626669	0.968119	-3.93312	0.510405	9.28469	-0.00828328	0.0324454	-0.0191588	0.267334	0.0651855	-1.04785	0.182958	0.0546556	-0.50117	-0.844019	1.03097	8.87968	5.10016	0.00435005	0.00467448	0.000901844	-0.453857	-0.759277	-0.713623	-0.0163643	0.273992	-0.961556	-0.00840987	-0.301026	0.036001	-9.7763	-0.000787021	0.00430823	-0.000291218	-0.436768	-0.355225	1.05493	0.111965	0.0541704	-0.477996	0.869511	1.93682	-7.99427	5.23534	-0.00870783	0.0095555	-0.00625403	-0.406738	0.881592	-0.568359	-0.0936178	-0.156539	-0.979924	0.0805046	-0.627363	-0.80267	-6.24696	-0.00132988	0.00543806	-0.0162647	-0.212891	0.256592	0.922119	0.128231	-0.141036	-0.0190212	-0.98148	3.18872	-0.0416611	10.0171	0.0280227	-0.0536343	-0.0159304	-0.646484	0.111816	-0.853027	-0.0817265	0.0139905	0.127723	0.988338	0.65555	2.6128	10.8025	0.00252852	0.0155077	-0.0155447	-0.509033	-0.176025	-1.05298	-0.104019	0.0653008	0.392842	0.911368	2.24949	7.19134	7.10984	0.00426313	0.00364306	-0.0179987	-0.649414	-0.683105	-0.73877	-0.0609901	0.0128364	-0.0439062	-0.99709	-0.283232	0.826576	10.4614	0.00373639	0.0147581	0.00284921	-0.409424	-0.158691	-1.0564	0.020546	-0.0501725	0.219016	-0.974214	0.939454	-4.18597	8.82458	0.00100493	0.00494364	-0.00355082	-0.562012	0.335938	-1.00073	
48	-0.0523469	-0.104781	0.0433647	0.99217	-2.23431	0.928111	10.7489	0.00812051	-0.00461753	0.00051644	-0.095459	0.125977	-1.14453	-0.146298	-0.203248	-0.00601307	0.968117	-4.01497	0.498849	9.21613	0.00855068	0.00613571	-0.0171629	0.271729	0.0651855	-1.05273	0.182947	0.0547176	-0.501242	-0.843975	1.04965	8.89165	5.10288	0.010139	0.00906463	-0.00328754	-0.453857	-0.759277	-0.71582	-0.016357	0.274009	-0.961551	-0.00842321	-0.296667	0.0220157	-9.73747	0.000837439	0.0048266	-0.000682396	-0.434326	-0.359619	1.06152	0.111865	0.0541549	-0.478228	0.869397	1.94245	-7.9917	5.23988	-0.0122991	0.00638139	-0.0104993	-0.397949	0.881592	-0.566162	-0.093552	-0.156632	-0.979926	0.0803769	-0.634067	-0.809298	-6.2292	-0.00171369	0.0112071	-0.0145354	-0.215088	0.254395	0.919922	0.128151	-0.142725	-0.019323	-0.981241	3.16759	-0.0469027	9.99737	0.0230027	-0.0436402	-0.0117358	-0.653076	0.114014	-0.853027	-0.0817946	0.014003	0.127752	0.988328	0.678108	2.60306	10.7944	0.00782488	0.0175098	-0.0125581	-0.509033	-0.18042	-1.05054	-0.104016	0.0653851	0.392819	0.911372	2.24921	7.1766	7.11756	0.00557859	0.00446672	-0.0178749	-0.649414	-0.683105	-0.741211	-0.0609901	0.0128364	-0.0439062	-0.99709	-0.283232	0.826576	10.4614	0.00373639	0.0147581	0.00284921	-0.409424	-0.158691	-1.0564	0.0205355	-0.0501863	0.219021	-0.974212	0.949559	-4.193	8.80742	0.00113421	0.00620756	-0.00375662	-0.561768	0.327148	-1.00293	
49	-0.0522353	-0.10477	0.0436437	0.992164	-2.28501	0.921896	10.7282	0.0180374	-0.0104671	-0.0119638	-0.0891113	0.130127	-1.13159	-0.146365	-0.202665	-0.00617259	0.968228	-3.92717	0.426411	9.2408	-0.0286888	-0.0133617	-0.0169151	0.269775	0.0585938	-1.05469	0.183051	0.0547782	-0.501093	-0.844036	1.00117	8.95533	5.10417	-0.0128273	0.00514126	0.00463657	-0.456055	-0.761475	-0.724854	-0.0164096	0.273992	-0.961555	-0.00843555	-0.300653	0.0318612	-9.75495	-0.000968634	0.00488762	-0.000919694	-0.43457	-0.355225	1.05713	0.111801	0.054262	-0.478455	0.869274	1.92508	-7.95638	5.24117	-0.010922	0.00152144	-0.0128169	-0.4021	0.877197	-0.561523	-0.093382	-0.156697	-0.979929	0.0804091	-0.630238	-0.792695	-6.25467	0.00598115	0.0146721	-0.0164926	-0.215088	0.256592	0.919922	0.128229	-0.144079	-0.0195442	-0.981028	3.24284	-0.0404939	10.0102	0.00903204	-0.0226556	-0.0121035	-0.646484	0.111816	-0.85083	-0.081836	0.0140216	0.127724	0.988328	0.622366	2.62468	10.7819	0.00259199	0.0149612	-0.014291	-0.509033	-0.18042	-1.05054	-0.104044	0.0654691	0.392892	0.911331	2.22886	7.20945	7.14131	0.00948414	0.00259064	-0.0163602	-0.654053	-0.680908	-0.743408	-0.06097	0.0129417	-0.0439455	-0.997088	-0.27556	0.834409	10.4969	0.00359049	0.010526	0.00492242	-0.409424	-0.156494	-1.05859	0.0205402	-0.0502583	0.218989	-0.974216	0.936002	-4.18422	8.82578	0.00212118	0.00490418	-0.00360354	-0.557373	0.329346	-1.00073	
50	-0.0520229	-0.104717	0.0437993	0.992174	-2.2348	0.999248	10.7502	0.0157388	-0.00846109	-0.016068	-0.0935059	0.132324	-1.13818	-0.146381	-0.202487	-0.00608037	0.968264	-3.88672	0.504659	9.24916	-0.00426901	-0.00033612	-0.0161487	0.269531	0.060791	-1.04785	0.18308	0.0546725	-0.501079	-0.844045	1.07238	8.77766	5.14678	0.00180611	0.000695521	0.00486737	-0.453857	-0.768066	-0.720215	-0.016386	0.273998	-0.961553	-0.00848875	-0.29291	0.0241049	-9.76828	-0.00262129	0.00536604	0.000582835	-0.434326	-0.357422	1.05933	0.111663	0.0543446	-0.478304	0.869369	1.97955	-8.01132	5.24289	0.0114186	0.00806236	-0.00819049	-0.398193	0.888184	-0.563965	-0.093382	-0.156697	-0.979929	0.0804091	-0.630238	-0.792695	-6.25467	0.00598115	0.0146721	-0.0164926	-0.215088	0.256592	0.919922	0.128427	-0.143889	-0.0202349	-0.981016	3.29653	-0.0982465	9.89572	0.0748578	0.0236826	-0.00988181	-0.653076	0.114014	-0.853027	-0.0818797	0.0140303	0.127744	0.988322	0.67202	2.6062	10.7554	0.00668201	0.0167633	-0.0125243	-0.51123	-0.17627	-1.04834	-0.104047	0.0655129	0.392886	0.91133	2.24582	7.1941	7.11777	0.00558499	0.00447038	-0.0178661	-0.644775	-0.680664	-0.741211	-0.0610349	0.0129098	-0.0439003	-0.997086	-0.265907	0.841519	10.4827	-0.00208307	0.0111706	0.00162121	-0.407227	-0.154297	-1.05884	0.0205549	-0.0502592	0.218983	-0.974216	0.966596	-4.18463	8.81899	0.00158693	0.00711762	-0.00283645	-0.561768	0.331543	-1.00073	
51	-0.0522833	-0.104516	0.0435313	0.992194	-2.28566	0.933474	10.7244	-0.0113394	-0.00430915	0.00891201	-0.0935059	0.132568	-1.14453	-0.146419	-0.202726	-0.00614705	0.968208	-3.91287	0.438632	9.26027	-0.0126442	0.0333173	-0.0158978	0.265381	0.060791	-1.05493	0.183002	0.0546782	-0.501281	-0.843942	1.0232	8.94726	5.08464	0.00314363	-0.000639818	-0.00324983	-0.45166	-0.765869	-0.718018	-0.0164227	0.273959	-0.961563	-0.0085588	-0.288196	0.0239612	-9.7591	0.00256243	0.00208014	-0.000143971	-0.43457	-0.355225	1.05933	0.111792	0.0542676	-0.478198	0.869416	1.95446	-7.98655	5.23583	0.00412977	0.0103172	-0.00944901	-0.400146	0.879395	-0.568359	-0.0931432	-0.156619	-0.979977	0.0802436	-0.633147	-0.78842	-6.27448	-0.00240383	0.00857763	-0.0158194	-0.210693	0.256592	0.92627	0.128445	-0.140028	-0.0202855	-0.981571	3.18902	-0.00500853	9.98937	0.0198996	0.108384	-0.00951345	-0.64209	0.111816	-0.857178	-0.0818852	0.0140857	0.127678	0.988329	0.677485	2.62945	10.8124	-0.00607661	0.0155584	-0.0186647	-0.506836	-0.18042	-1.05054	-0.10403	0.0655382	0.392672	0.911423	2.25027	7.18574	7.11783	-0.00580041	0.00660642	-0.0206728	-0.651611	-0.685303	-0.745605	-0.0610907	0.0129309	-0.0439548	-0.99708	-0.244768	0.820999	10.4778	0.0134752	0.0176358	0.00597201	-0.409668	-0.1521	-1.05884	0.0205991	-0.0502074	0.218985	-0.974218	0.923512	-4.194	8.85927	0.000232604	0.0103412	-0.0032773	-0.557373	0.331543	-1.00757	
52	-0.0522833	-0.104516	0.0435313	0.992194	-2.28566	0.933474	10.7244	-0.0113394	-0.00430915	0.00891201	-0.0935059	0.132568	-1.14453	-0.146422	-0.203034	-0.00619869	0.968142	-3.99446	0.477503	9.24309	-0.00963614	0.0410081	-0.0173451	0.269531	0.0627441	-1.05737	0.182932	0.0545822	-0.501352	-0.843921	1.04588	8.87268	5.11533	0.0137611	0.000942814	0.00085761	-0.453857	-0.759277	-0.711182	-0.0164466	0.273984	-0.961557	-0.00842568	-0.295204	0.0201747	-9.75617	0.00558801	0.00519139	0.000114191	-0.436768	-0.357422	1.05933	0.111758	0.0542898	-0.478051	0.8695	1.93339	-7.99361	5.2321	0.0135054	0.00810872	-0.01092	-0.4021	0.877197	-0.568359	-0.0929983	-0.156657	-0.97997	0.080424	-0.61036	-0.794555	-6.25475	0.0105198	0.0122602	-0.0176366	-0.215088	0.256592	0.922119	0.128496	-0.139514	-0.0197195	-0.98165	3.11583	-0.0271086	9.92961	-0.0220441	0.06307	-0.00869449	-0.640381	0.118408	-0.855225	-0.0818609	0.0141359	0.127437	0.988362	0.605056	2.58976	10.7966	0.00132004	0.0153637	-0.0155489	-0.51123	-0.17627	-1.04126	-0.104049	0.0655455	0.392581	0.911459	2.21896	7.18753	7.11603	0.00593508	0.00765899	-0.0175417	-0.651855	-0.683105	-0.741211	-0.0611519	0.0129877	-0.0442018	-0.997065	-0.305037	0.872336	10.5053	0.00607106	0.0138045	0.000645384	-0.407227	-0.154297	-1.0542	0.0206062	-0.0502361	0.219011	-0.97421	0.941295	-4.20376	8.84368	0.000657656	0.00608483	-0.00426175	-0.55957	0.329346	-0.996094	
53	-0.0524157	-0.104199	0.0432039	0.992234	-2.26012	0.927629	10.7491	-0.00793998	-0.0114592	0.00234842	-0.0893555	0.134521	-1.13599	-0.146264	-0.203231	-0.00658911	0.968122	-3.95429	0.462655	9.2692	-0.0135003	0.00251955	-0.016043	0.26709	0.0695801	-1.04565	0.182999	0.054459	-0.501233	-0.843985	1.04754	8.86749	5.10151	-0.00981856	0.002196	0.00141657	-0.458008	-0.767822	-0.717773	-0.0164143	0.274002	-0.961552	-0.00843914	-0.286146	0.0205867	-9.76849	0.000826271	0.00532665	-0.000125493	-0.436768	-0.357422	1.06372	0.111699	0.0543951	-0.477865	0.869603	1.93299	-7.96369	5.26253	0.00570967	0.00645067	-0.014029	-0.400146	0.881592	-0.570801	-0.0927255	-0.15679	-0.979984	0.0803191	-0.607732	-0.783152	-6.23081	-0.00230971	0.0204238	-0.0140537	-0.210693	0.254395	0.922119	0.128612	-0.137145	-0.0193533	-0.981975	3.15588	-0.0131131	9.99423	0.017088	0.12219	-0.0149892	-0.642334	0.114014	-0.861572	-0.0819266	0.0141646	0.127603	0.988334	0.659133	2.61868	10.7752	0.0125005	0.0143908	-0.0123758	-0.509033	-0.18042	-1.05762	-0.104122	0.0656243	0.392586	0.911443	2.2475	7.20269	7.10519	0.00507816	0.0052491	-0.0151333	-0.651611	-0.685303	-0.747803	-0.0611652	0.0129446	-0.044041	-0.997072	-0.264123	0.827074	10.4578	-0.00428272	0.0112231	0.00658627	-0.407471	-0.149902	-1.05664	0.020585	-0.0502621	0.218968	-0.974219	0.938135	-4.18899	8.81055	0.00336559	0.00613182	-0.00386313	-0.559814	0.33374	-1.00757	
54	-0.0524105	-0.103965	0.0430332	0.992266	-2.20828	0.917969	10.7515	-0.00587	-0.0105403	-0.00136273	-0.0957031	0.130127	-1.13379	-0.146316	-0.203171	-0.0066916	0.968126	-3.91471	0.481463	9.24573	-0.0147621	0.0181802	-0.0171288	0.265381	0.060791	-1.04785	0.182991	0.0544259	-0.501151	-0.844038	1.05035	8.89302	5.09065	0.00307483	0.00530441	-0.00393645	-0.453857	-0.754883	-0.71582	-0.0164162	0.274012	-0.961549	-0.00846941	-0.299426	0.0184521	-9.75332	0.00329187	0.00521952	0.000587875	-0.436768	-0.355225	1.06152	0.111598	0.054423	-0.477874	0.869609	1.96177	-7.96927	5.25182	0.000598999	0.00814166	-0.00730116	-0.399902	0.877197	-0.559326	-0.0925232	-0.156914	-0.979991	0.0802142	-0.608686	-0.797085	-6.25625	0.00247001	0.0147612	-0.0165501	-0.212891	0.252197	0.917969	0.128795	-0.134043	-0.0184393	-0.982397	3.10321	-0.039867	10.0282	-0.00491114	0.148593	-0.00781105	-0.633545	0.111816	-0.865723	-0.0819471	0.0142098	0.127514	0.988343	0.670048	2.61772	10.7858	-0.000576765	0.0157785	-0.0149713	-0.502441	-0.182617	-1.05054	-0.104118	0.0657035	0.39245	0.911496	2.25742	7.182	7.10575	-0.00268256	0.0063426	-0.0185527	-0.647217	-0.680908	-0.739014	-0.0612085	0.0128796	-0.0440386	-0.99707	-0.255569	0.842841	10.4937	0.00274254	0.0119093	0.00220217	-0.407227	-0.156494	-1.05176	0.0205235	-0.0502443	0.219002	-0.974214	0.959278	-4.1725	8.81945	-0.00229084	0.00922366	-0.00515744	-0.566162	0.327148	-1.00513	
55	-0.0525778	-0.10392	0.0428383	0.992271	-2.25491	0.89024	10.7433	-0.00538648	-0.00354542	0.00553985	-0.0893555	0.134521	-1.13159	-0.146408	-0.203265	-0.00652959	0.968094	-3.97595	0.514187	9.22849	0.00950197	0.00820121	-0.0103525	0.273926	0.0629883	-1.05029	0.182928	0.0544942	-0.50112	-0.844065	1.02732	8.8601	5.10393	0.00568405	0.00620624	-0.00451126	-0.458008	-0.763428	-0.720215	-0.0164431	0.274022	-0.961546	-0.00844464	-0.300505	0.0177492	-9.76262	0.00264869	0.00476842	-0.000441784	-0.436523	-0.357422	1.05273	0.111491	0.0544392	-0.477883	0.869617	1.93222	-7.99094	5.27183	-0.00158729	0.00445413	-0.0113521	-0.402344	0.883789	-0.572998	-0.0924458	-0.156992	-0.979984	0.0802423	-0.617178	-0.789868	-6.25413	0.0060467	0.012729	-0.0141554	-0.213135	0.258789	0.924072	0.129037	-0.130687	-0.0176098	-0.982833	2.98788	-0.0400687	10.0831	0.00143717	0.155546	-0.00796986	-0.620605	0.112061	-0.869873	-0.0819636	0.0142625	0.127375	0.988359	0.659574	2.57648	10.7808	0.00130247	0.0154528	-0.0137146	-0.506836	-0.18042	-1.05518	-0.10392	0.0655403	0.392381	0.91156	2.25011	7.16726	7.12744	-0.000366451	0.00682829	-0.0195228	-0.654053	-0.683105	-0.745605	-0.0613324	0.0128707	-0.0439195	-0.997068	-0.298767	0.840371	10.4715	-0.00311187	0.0105048	0.00125297	-0.405273	-0.147705	-1.052	0.0205452	-0.0502013	0.219082	-0.974198	0.939043	-4.20075	8.81465	-0.000567011	0.0100337	-0.00210624	-0.557373	0.329346	-1.00293	
56	-0.0525801	-0.103888	0.0428588	0.992273	-2.25798	0.912097	10.7348	0.00543634	-0.00580826	-0.004869	-0.0957031	0.130127	-1.13379	-0.146446	-0.203005	-0.00637413	0.968144	-3.98169	0.487809	9.18495	0.00414055	-0.00348695	-0.0183525	0.267334	0.0651855	-1.04565	0.182956	0.0543983	-0.500996	-0.844139	1.05216	8.88778	5.12484	-0.00516614	0.0014144	0.00329642	-0.456055	-0.763672	-0.720215	-0.0164086	0.274031	-0.961543	-0.00849606	-0.292019	0.0286733	-9.77387	-0.000978982	0.0053883	-0.000363515	-0.432129	-0.357422	1.05933	0.111387	0.0543965	-0.477892	0.869628	1.9422	-7.96969	5.22982	0.00177359	0.0108845	-0.00705742	-0.402344	0.881592	-0.561523	-0.0921281	-0.1569	-0.980021	0.0803409	-0.612561	-0.795325	-6.21424	0.00226926	0.0102152	-0.0141736	-0.210449	0.25	0.913818	0.129183	-0.128459	-0.0166311	-0.983124	2.91515	-0.068918	10.0784	0.00653708	0.0991205	-0.00968593	-0.622803	0.114258	-0.87207	-0.082036	0.014302	0.127612	0.988322	0.623207	2.60926	10.8061	0.0172181	0.0161616	-0.0130505	-0.504639	-0.182617	-1.05273	-0.103908	0.0656012	0.392494	0.911509	2.24844	7.19148	7.10241	0.0122819	0.00299794	-0.0186925	-0.644775	-0.683105	-0.743408	-0.0613983	0.0127676	-0.0437488	-0.997072	-0.291623	0.811387	10.4807	-0.00104234	0.00936189	0.00386297	-0.405029	-0.154297	-1.0542	0.0205503	-0.0502051	0.219094	-0.974195	0.939783	-4.22126	8.82073	0.000804027	0.00657526	-0.00489602	-0.564209	0.33374	-0.998535	
57	-0.0526159	-0.103777	0.0428742	0.992282	-2.2443	0.926418	10.7393	0.00251177	-0.00782783	0.0016315	-0.0932617	0.128174	-1.14014	-0.146478	-0.202739	-0.00614284	0.968196	-3.93694	0.477019	9.2718	-0.00444887	0.00485647	-0.0115697	0.267334	0.0649414	-1.05493	0.183011	0.0542928	-0.500968	-0.84415	1.02932	8.91623	5.10779	-8.20709e-05	0.000911071	0.00218119	-0.453613	-0.768066	-0.717773	-0.016304	0.274027	-0.961546	-0.00850428	-0.290018	0.0320886	-9.75806	-0.000432464	0.00637931	0.000630925	-0.436523	-0.359619	1.06592	0.111489	0.0544213	-0.477903	0.869608	1.9355	-7.97149	5.2749	-0.000796084	0.00601189	-0.0104733	-0.402344	0.881592	-0.566162	-0.0918906	-0.15679	-0.98007	0.0802197	-0.627907	-0.789196	-6.24373	-0.00252298	0.013548	-0.0148729	-0.212891	0.254395	0.915771	0.129174	-0.125582	-0.0166044	-0.983498	2.93759	-0.0497322	10.1268	0.0217841	0.123292	-0.0127068	-0.618896	0.120605	-0.872314	-0.0820755	0.0143418	0.127757	0.9883	0.654788	2.62972	10.775	0.0163598	0.013021	-0.0122778	-0.504639	-0.182617	-1.05518	-0.103716	0.065493	0.392662	0.911466	2.24512	7.19829	7.11319	0.00973005	0.00347144	-0.018646	-0.644775	-0.685303	-0.73877	-0.0614105	0.0128556	-0.0437284	-0.997071	-0.27116	0.825282	10.4695	0.000424054	0.010146	0.00206298	-0.405029	-0.156494	-1.05859	0.0205287	-0.0502112	0.219004	-0.974215	0.945132	-4.18972	8.82501	0.00636898	0.00715497	-0.0047226	-0.55957	0.329346	-1.00293	
58	-0.0526137	-0.103754	0.0429344	0.992282	-2.24038	0.915118	10.7507	0.00665834	-0.00483306	-0.00168163	-0.0913086	0.130371	-1.13818	-0.14652	-0.202767	-0.00608967	0.968184	-3.91888	0.470737	9.30774	-0.00546018	0.0170205	-0.0125628	0.271729	0.0651855	-1.04785	0.183043	0.0542346	-0.50085	-0.844217	1.04647	8.88483	5.11829	-0.00766222	0.00372749	0.00132904	-0.456055	-0.765625	-0.722412	-0.0163066	0.274024	-0.961547	-0.00849595	-0.303174	0.0265928	-9.75878	0.00265041	0.00476951	-0.00043971	-0.432129	-0.357422	1.05273	0.111464	0.0545284	-0.477979	0.869562	1.95483	-7.97941	5.23087	-0.00602823	0.000520834	-0.0151804	-0.400146	0.881592	-0.568359	-0.0917736	-0.156835	-0.980075	0.0802121	-0.622524	-0.795817	-6.25623	0.00321458	0.0165676	-0.0162678	-0.215088	0.254395	0.915771	0.129304	-0.124018	-0.0160172	-0.983689	2.90078	-0.0801877	10.0891	-0.0116596	0.147595	-0.00555415	-0.618652	0.116455	-0.878662	-0.0819481	0.0141372	0.127775	0.988311	0.662498	2.63349	10.7897	0.00373474	0.0157217	-0.0140334	-0.509033	-0.178223	-1.0481	-0.103717	0.0655136	0.392654	0.911468	2.25157	7.19953	7.11649	0.00489318	0.00546812	-0.0185308	-0.651855	-0.678467	-0.743408	-0.0614523	0.0128062	-0.043742	-0.997069	-0.255576	0.837897	10.4794	0.004121	0.00932199	0.00237671	-0.407227	-0.154297	-1.0542	0.0205657	-0.0502306	0.218955	-0.974224	0.933912	-4.18345	8.83369	0.0051285	0.00538575	-0.00165666	-0.55957	0.329346	-1.00293	
59	-0.0525174	-0.103655	0.0429695	0.992296	-2.24085	0.978829	10.7528	0.00152916	-0.00638831	-0.00389814	-0.0935059	0.130127	-1.13599	-0.146626	-0.202914	-0.00619108	0.968136	-3.94646	0.456417	9.25896	-0.0149559	0.0218001	-0.015804	0.265137	0.0649414	-1.05273	0.183057	0.0542622	-0.500804	-0.84424	1.03706	8.87348	5.11574	0.00443032	0.00628057	-0.00270788	-0.449463	-0.763672	-0.718018	-0.0163669	0.274046	-0.96154	-0.00845673	-0.288842	0.0277035	-9.7833	0.00388117	0.00198829	0.000809066	-0.432129	-0.359619	1.05713	0.111306	0.0545439	-0.477923	0.869612	1.94968	-7.99233	5.24577	0.00322387	0.0103686	-0.0103375	-0.400146	0.883789	-0.563965	-0.0916914	-0.156899	-0.980069	0.0802555	-0.599714	-0.809484	-6.2393	0.00691919	0.0129506	-0.0149771	-0.215088	0.254395	0.917969	0.129483	-0.118891	-0.0146791	-0.984319	2.74067	-0.0865181	10.1888	-0.0164733	0.132697	-0.00926375	-0.603516	0.116455	-0.882812	-0.0819655	0.0141604	0.12768	0.988321	0.63917	2.63625	10.7942	-0.00247437	0.0161855	-0.0144057	-0.509033	-0.17627	-1.0459	-0.103693	0.0655605	0.392606	0.911488	2.23823	7.19839	7.11843	0.00176389	0.00371576	-0.0197299	-0.654053	-0.680908	-0.743408	-0.0614971	0.0127764	-0.04381	-0.997063	-0.282617	0.843627	10.4834	0.00453806	0.014371	0.00286568	-0.405029	-0.156494	-1.05859	0.0205745	-0.0502418	0.21897	-0.97422	0.948202	-4.17155	8.8129	-0.000485694	0.00691469	-0.00380062	-0.557617	0.335938	-1.00757	
60	-0.0527399	-0.103569	0.0426955	0.992305	-2.25796	0.949937	10.7459	-0.0128994	-0.00356463	0.00930078	-0.0893555	0.136719	-1.13379	-0.146682	-0.202955	-0.00617295	0.96812	-3.97366	0.474639	9.26095	-0.00677571	0.0156588	-0.0170366	0.273926	0.0629883	-1.05029	0.183008	0.0541385	-0.500871	-0.844219	1.0197	8.85844	5.11951	0.00875108	-0.00197958	0.00123519	-0.453857	-0.768066	-0.720215	-0.0163661	0.274046	-0.96154	-0.00844267	-0.294202	0.0253308	-9.7711	0.00329507	0.00522215	0.000591331	-0.434326	-0.357422	1.05713	0.11129	0.0545334	-0.477831	0.869665	1.95033	-8.00796	5.25721	0.00855905	0.0106909	-0.0111883	-0.404541	0.881592	-0.570801	-0.0913803	-0.156847	-0.980122	0.0800649	-0.622328	-0.798097	-6.25768	-0.00178847	0.0118555	-0.0135818	-0.215332	0.258789	0.915527	0.129535	-0.117975	-0.0142099	-0.984429	2.72383	-0.0699827	10.204	-0.010418	0.0941861	-0.0109752	-0.601318	0.114258	-0.884766	-0.0818395	0.0139882	0.127667	0.988336	0.654512	2.59507	10.79	0.00564938	0.0152607	-0.0155363	-0.509277	-0.174072	-1.04834	-0.103512	0.0654684	0.39256	0.911535	2.24153	7.19481	7.1308	0.00434906	0.00569787	-0.0188269	-0.651855	-0.680908	-0.739014	-0.0615973	0.0127353	-0.043677	-0.997064	-0.283559	0.834942	10.4927	-0.0041856	0.0118736	0.00226286	-0.407227	-0.156494	-1.0564	0.0205632	-0.0502322	0.219081	-0.974196	0.933678	-4.20649	8.83048	-0.00338746	0.00794622	-0.00273274	-0.55957	0.331543	-1.00073	
61	-0.0529857	-0.103501	0.0423936	0.992312	-2.26699	0.891621	10.7325	-0.0102787	-0.00542857	0.0077453	-0.0981445	0.136719	-1.13379	-0.146647	-0.202788	-0.00592928	0.968161	-3.95239	0.52486	9.24288	-7.15965e-05	0.00664757	-0.0165318	0.269531	0.060791	-1.04541	0.182974	0.0539773	-0.500917	-0.844209	1.03629	8.909	5.08674	0.00199349	0.000485896	0.00157927	-0.456055	-0.761475	-0.720215	-0.0162687	0.274054	-0.96154	-0.00841712	-0.289109	0.0286375	-9.76141	0.000964185	0.00638418	4.1748e-05	-0.436523	-0.357422	1.05713	0.111252	0.0545677	-0.477596	0.869797	1.9277	-7.94994	5.29729	0.00901405	0.00762093	-0.0122191	-0.400146	0.883789	-0.566162	-0.0912504	-0.156899	-0.980111	0.0802438	-0.611286	-0.780856	-6.25154	0.0108752	0.0130061	-0.0161906	-0.213135	0.260986	0.921875	0.12968	-0.115943	-0.0139459	-0.984655	2.72098	-0.0957774	10.1513	0.0183145	0.107677	-0.0128869	-0.599365	0.118652	-0.88916	-0.0818947	0.0140226	0.127664	0.988331	0.644156	2.59752	10.7801	0.00440393	0.0152385	-0.013083	-0.509033	-0.178223	-1.05054	-0.103533	0.0655331	0.392577	0.911521	2.25789	7.20501	7.10903	0.00697908	0.00502454	-0.0183309	-0.654297	-0.678467	-0.741211	-0.0616219	0.0127146	-0.043621	-0.997065	-0.275143	0.817726	10.4713	-0.00164672	0.0115387	0.00368546	-0.411621	-0.154541	-1.0564	0.0205513	-0.050253	0.219106	-0.974189	0.936196	-4.20017	8.81892	-0.000938209	0.0060079	-0.00472474	-0.562012	0.335938	-0.998535	
62	-0.0529849	-0.103405	0.0423451	0.992324	-2.22871	0.885235	10.7554	0.0037296	-0.00468808	-0.00400239	-0.09375	0.134521	-1.13379	-0.146708	-0.202544	-0.00573966	0.968204	-3.94156	0.522293	9.24503	-0.00386549	0.00496796	-0.0142541	0.267334	0.0629883	-1.04785	0.183023	0.0540054	-0.500831	-0.844248	1.04347	8.89653	5.09794	-0.00140402	0.00531838	-0.000123638	-0.453857	-0.765869	-0.720215	-0.0161788	0.274056	-0.961541	-0.00837964	-0.286876	0.0234987	-9.77132	0.00265336	0.00477143	-0.000437295	-0.427979	-0.353027	1.05469	0.111183	0.0546648	-0.47767	0.869759	1.96509	-7.97718	5.26841	-0.00510979	0.00306919	-0.0122382	-0.4021	0.879395	-0.563965	-0.0910398	-0.157005	-0.98011	0.080278	-0.605224	-0.798595	-6.23583	0.000693451	0.0141043	-0.0140715	-0.215088	0.254395	0.911377	0.129906	-0.113209	-0.0135789	-0.984949	2.66446	-0.0933647	10.1654	0.0211054	0.125731	-0.00929053	-0.595215	0.12085	-0.893555	-0.0819441	0.0140773	0.127599	0.988335	0.658063	2.62564	10.7782	0.00124117	0.0160168	-0.0143811	-0.51123	-0.178223	-1.05298	-0.10354	0.065611	0.392506	0.911545	2.25317	7.20331	7.11546	0.000899429	0.00597252	-0.017811	-0.651611	-0.687744	-0.743164	-0.0616592	0.0128466	-0.0437153	-0.997057	-0.282546	0.841825	10.4689	0.00472941	0.01172	0.00208294	-0.409424	-0.154297	-1.0542	0.0204713	-0.0501922	0.219102	-0.974195	0.942337	-4.20219	8.82099	0.00318823	0.00644191	-0.00281897	-0.561768	0.329346	-1.00513	
63	-0.0529255	-0.103364	0.0423712	0.99233	-2.22742	0.92113	10.7433	0.00162547	-0.0031723	-0.00032885	-0.09375	0.134521	-1.13818	-0.146815	-0.202414	-0.00568996	0.968216	-3.93834	0.476847	9.26382	-0.00786526	0.0118609	-0.0149635	0.26709	0.0673828	-1.04565	0.183077	0.0539578	-0.500667	-0.844336	1.03178	8.85807	5.12087	-0.00355919	0.00504359	-0.000757643	-0.458008	-0.763672	-0.715576	-0.0161969	0.274115	-0.961524	-0.00842059	-0.29149	0.0216601	-9.75915	0.00178655	0.00639572	-0.000428555	-0.431885	-0.361816	1.05493	0.111102	0.0547127	-0.477807	0.869692	1.93304	-7.98754	5.26856	-0.00889345	0.0049535	-0.011321	-0.402344	0.883789	-0.568359	-0.0908703	-0.157112	-0.980128	0.0800508	-0.610192	-0.781125	-6.26229	-0.00465402	0.015527	-0.0139825	-0.217285	0.254395	0.924316	0.129959	-0.110184	-0.0138682	-0.985281	2.62185	-0.0847031	10.2048	0.0357193	0.127275	-0.0112716	-0.59082	0.118652	-0.899902	-0.0819725	0.0141189	0.127459	0.98835	0.656195	2.59033	10.8023	0.00062606	0.0159746	-0.013769	-0.509033	-0.178223	-1.05518	-0.103533	0.0656715	0.3924	0.911587	2.24102	7.18212	7.11362	0.00157295	0.00479362	-0.0194532	-0.651855	-0.680908	-0.743408	-0.0616945	0.0128427	-0.04373	-0.997054	-0.268495	0.81988	10.4757	0.00483516	0.0131458	0.00405254	-0.405029	-0.156494	-1.0564	0.0205174	-0.0502061	0.219067	-0.974201	0.932672	-4.1867	8.82777	0.00140312	0.00743256	-0.00180112	-0.554932	0.329346	-1.00293	
64	-0.0529698	-0.103325	0.0423486	0.992333	-2.24211	0.923442	10.7575	0.000634922	-0.00447769	0.000900701	-0.0957031	0.132324	-1.13818	-0.146872	-0.202393	-0.00575031	0.968211	-3.96573	0.449243	9.26811	-0.0125315	0.0145187	-0.0164889	0.267578	0.0585938	-1.04761	0.183121	0.0538054	-0.500569	-0.844394	1.04498	8.87405	5.09233	0.000155879	0.00140029	0.00247221	-0.456055	-0.763672	-0.718018	-0.0161807	0.274136	-0.961518	-0.00840037	-0.297704	0.0100762	-9.7573	0.00245962	0.0058506	-0.000508704	-0.432373	-0.355225	1.06372	0.111251	0.054804	-0.47772	0.869715	1.95502	-7.99165	5.24084	0.00347911	0.00493126	-0.0133916	-0.402344	0.881592	-0.566162	-0.0906423	-0.157235	-0.980121	0.0801495	-0.595364	-0.784341	-6.25264	0.0126148	0.0134104	-0.0169584	-0.212891	0.254395	0.919922	0.130153	-0.107973	-0.014314	-0.985493	2.54954	-0.0667857	10.2145	0.050076	0.103377	-0.0148977	-0.586426	0.116455	-0.904053	-0.082019	0.0141565	0.127477	0.988343	0.643928	2.60046	10.7818	0.0074475	0.0155813	-0.013692	-0.51123	-0.176025	-1.05054	-0.103538	0.0657102	0.392403	0.911582	2.2248	7.19315	7.13415	0.00774653	0.00609035	-0.0184989	-0.649414	-0.680908	-0.741211	-0.0617656	0.0128437	-0.043755	-0.997048	-0.29298	0.836764	10.4681	0.00201388	0.0123705	0.00224118	-0.409424	-0.154297	-1.0564	0.0205408	-0.050216	0.219076	-0.974198	0.930165	-4.18619	8.82827	0.000307216	0.00669222	-0.00217523	-0.552979	0.331543	-0.996094	
65	-0.0530775	-0.103286	0.042274	0.992334	-2.26832	0.928041	10.7435	-0.00202527	-0.00392758	0.0017021	-0.0959473	0.136719	-1.12964	-0.14688	-0.202271	-0.00576298	0.968235	-3.9415	0.471565	9.22948	-0.0113623	0.00541318	-0.0184725	0.267578	0.060791	-1.04297	0.183165	0.0536868	-0.500548	-0.844405	1.04699	8.86531	5.11974	0.00457419	0.00264728	0.00263389	-0.453857	-0.765869	-0.711182	-0.0161443	0.274157	-0.961513	-0.00840812	-0.289131	0.0302928	-9.76752	0.00177383	0.00689627	0.000128738	-0.436523	-0.357422	1.05713	0.111157	0.0548745	-0.477568	0.869806	1.95794	-7.96008	5.27371	0.00648688	0.0071997	-0.00928746	-0.40625	0.872803	-0.568359	-0.0905488	-0.157283	-0.980118	0.0801963	-0.603339	-0.795922	-6.22528	0.00731052	0.0139282	-0.0161316	-0.212891	0.252197	0.915771	0.130258	-0.105044	-0.0151409	-0.985784	2.52707	-0.0695398	10.2379	0.0660874	0.141714	-0.0209123	-0.577637	0.116699	-0.901855	-0.0820628	0.0141767	0.127525	0.988333	0.643333	2.62513	10.7892	0.00924936	0.0158674	-0.0124606	-0.509033	-0.178223	-1.05298	-0.103541	0.0657842	0.392462	0.911551	2.25118	7.19943	7.10334	0.00776502	0.00376043	-0.018243	-0.64917	-0.689941	-0.745361	-0.0618132	0.0128102	-0.0436819	-0.997049	-0.254745	0.832092	10.4689	0.000331498	0.0113439	0.00355274	-0.411621	-0.156738	-1.05176	0.0205238	-0.0502473	0.219079	-0.974196	0.938347	-4.19064	8.8208	0.0024118	0.00589364	-0.00487556	-0.55957	0.331543	-1.00293	
66	-0.0532146	-0.103194	0.0422197	0.992339	-2.22918	0.911851	10.7276	-0.000877664	-0.0050077	0.00543211	-0.0932617	0.12793	-1.13159	-0.14688	-0.202271	-0.00576298	0.968235	-3.9415	0.471565	9.22948	-0.0113623	0.00541318	-0.0184725	0.267578	0.060791	-1.04297	0.183181	0.0536548	-0.500576	-0.844387	1.04978	8.88341	5.11044	0.00558917	0.00208313	0.000543301	-0.456055	-0.763672	-0.720215	-0.0161429	0.274158	-0.961512	-0.00840659	-0.281449	0.0313084	-9.77978	0.00216368	0.00473978	0.000274063	-0.436768	-0.355225	1.05713	0.111149	0.0549423	-0.477525	0.869826	1.94692	-7.99044	5.23892	0.00327583	0.00690965	-0.0129124	-0.402344	0.881592	-0.561523	-0.090281	-0.157208	-0.980159	0.0801396	-0.61412	-0.78693	-6.24843	0.000221976	0.0143616	-0.0136106	-0.212646	0.247803	0.924561	0.130374	-0.101676	-0.0162183	-0.986104	2.48793	-0.00680698	10.224	0.0780677	0.156442	-0.0205865	-0.575439	0.112305	-0.912598	-0.0819444	0.0139876	0.127572	0.988339	0.649824	2.6321	10.7938	0.00502195	0.0152831	-0.0137	-0.50708	-0.173828	-1.05298	-0.103552	0.0658115	0.392431	0.911561	2.25971	7.199	7.10781	0.00298646	0.00552691	-0.0176101	-0.646973	-0.685303	-0.743408	-0.0618279	0.0128081	-0.043683	-0.997048	-0.264939	0.829963	10.4804	0.00271394	0.0138312	0.0046929	-0.407227	-0.154297	-1.06567	0.020526	-0.050262	0.219079	-0.974195	0.950457	-4.18595	8.81114	0.00112215	0.00623	-0.00377736	-0.562012	0.33374	-1.00757	
67	-0.0533076	-0.103152	0.0422453	0.992337	-2.23695	0.880004	10.7618	0.00282951	-0.00610373	0.00550165	-0.0981445	0.134521	-1.13599	-0.146564	-0.20252	-0.00619934	0.968228	-3.92182	0.530919	9.26469	-0.0042378	0.0173918	-0.0164964	0.267334	0.0629883	-1.05029	0.183192	0.0535626	-0.500582	-0.844387	1.04449	8.9056	5.10533	0.00204734	0.000834579	0.00102624	-0.455811	-0.765869	-0.715576	-0.0161263	0.274173	-0.961509	-0.00837759	-0.290979	0.0303627	-9.78613	0.00332853	0.00422779	-0.000514823	-0.438965	-0.357422	1.05273	0.111053	0.0550268	-0.477364	0.869921	1.94714	-7.92252	5.2962	0.0022801	0.00778663	-0.0115956	-0.404297	0.875	-0.566162	-0.0901701	-0.157282	-0.980157	0.0801539	-0.604615	-0.79034	-6.25445	0.00589075	0.0152757	-0.0155271	-0.214844	0.25	0.917969	0.130448	-0.0995342	-0.0166394	-0.986306	2.443	0.00658484	10.255	0.0729543	0.182394	-0.0197812	-0.571045	0.112305	-0.906006	-0.0818162	0.0137991	0.127451	0.988368	0.645673	2.60945	10.7919	-0.00149051	0.0156929	-0.0140919	-0.510986	-0.180664	-1.04346	-0.103526	0.0658612	0.392283	0.911624	2.24483	7.17518	7.0929	-0.000701136	0.00631716	-0.0193662	-0.649658	-0.67627	-0.741211	-0.0618911	0.0128179	-0.0437545	-0.997041	-0.266831	0.824138	10.4894	0.00487158	0.013317	0.00298238	-0.409668	-0.1521	-1.0542	0.0205478	-0.0502509	0.219055	-0.974201	0.945996	-4.18014	8.83075	0.00268859	0.00710187	-0.00290417	-0.564209	0.33374	-1.00073	
68	-0.053337	-0.103207	0.0424166	0.992323	-2.24697	0.905169	10.7453	0.0113985	0.000439499	-0.00137988	-0.0913086	0.130127	-1.13379	-0.146472	-0.202189	-0.0059152	0.968313	-4.00867	0.517355	9.19549	0.00661587	-0.00867079	-0.0189804	0.267334	0.060791	-1.05005	0.183289	0.0534623	-0.500527	-0.844405	1.06181	8.88956	5.12299	0.00191421	0.00391298	0.00232747	-0.460205	-0.767822	-0.720215	-0.0161007	0.274188	-0.961505	-0.00838493	-0.29163	0.0268489	-9.76475	-0.000120088	0.00426786	0.000185695	-0.436768	-0.355225	1.05493	0.111001	0.0550929	-0.477445	0.869879	1.94782	-7.96945	5.27282	-0.00678395	0.00245978	-0.0114424	-0.404297	0.879395	-0.568359	-0.0897291	-0.156986	-0.98024	0.0802161	-0.610019	-0.799968	-6.23357	0.00342503	0.0130648	-0.0159151	-0.215088	0.256592	0.913574	0.130623	-0.0966932	-0.0172048	-0.986556	2.29016	0.00656959	10.3104	0.0528902	0.10117	-0.0142438	-0.564453	0.110107	-0.914551	-0.0818637	0.0138588	0.127394	0.988371	0.66325	2.59089	10.7757	0.00357661	0.0169825	-0.0131889	-0.506836	-0.18042	-1.05298	-0.10334	0.0657183	0.392314	0.911642	2.24297	7.18078	7.13763	0.00410393	0.00583508	-0.0189353	-0.649414	-0.685303	-0.73877	-0.0619354	0.0128258	-0.0437585	-0.997038	-0.278894	0.843021	10.4799	0.00338456	0.0143403	0.00193143	-0.407471	-0.149902	-1.05664	0.0205438	-0.0502386	0.219079	-0.974196	0.941785	-4.18895	8.83312	-0.00053849	0.00848856	-0.00297126	-0.557617	0.335938	-1.00293	
69	-0.0531788	-0.10328	0.0427441	0.99231	-2.24632	0.933922	10.7433	0.0190158	-0.00482895	-0.0104686	-0.0871582	0.134521	-1.13379	-0.14657	-0.201453	-0.00611369	0.968451	-3.90774	0.455293	9.3066	-0.0307859	-0.0141449	-0.0171884	0.265381	0.060791	-1.04785	0.183432	0.0533113	-0.500196	-0.844579	1.02058	8.90573	5.12758	-0.019684	0.000622074	0.00730328	-0.453857	-0.754883	-0.713623	-0.016047	0.274221	-0.961495	-0.00849694	-0.292287	0.0156655	-9.7444	-0.00364513	0.00707781	-0.000596239	-0.432373	-0.355225	1.05493	0.110927	0.0552614	-0.477567	0.869811	1.95297	-7.93309	5.27549	-0.00751699	8.24439e-05	-0.0119076	-0.402344	0.881592	-0.566162	-0.0894656	-0.157086	-0.980253	0.0801523	-0.612066	-0.786766	-6.25386	0.00660034	0.0180636	-0.0168459	-0.215088	0.256592	0.915771	0.130836	-0.0952211	-0.0178293	-0.98666	2.33097	0.0229976	10.3601	0.0550936	0.0688437	-0.0113876	-0.564453	0.105957	-0.914551	-0.0819163	0.0138745	0.127464	0.988357	0.642104	2.63578	10.8003	0.00731174	0.016765	-0.0143731	-0.509033	-0.18042	-1.0459	-0.103342	0.0657639	0.392397	0.911603	2.24023	7.19881	7.12065	0.00926443	0.00387017	-0.0176929	-0.653809	-0.687744	-0.740967	-0.0619227	0.0129507	-0.0437927	-0.997036	-0.273214	0.830295	10.4772	0.00124898	0.0126633	0.00334726	-0.407227	-0.154297	-1.052	0.0204312	-0.0500908	0.219005	-0.974223	0.938918	-4.19267	8.82824	0.00253748	0.00680079	-0.00321339	-0.55957	0.329346	-1.00073	
70	-0.0529827	-0.103251	0.0428705	0.992318	-2.21886	1.01463	10.7712	-0.000511091	-0.00339856	-0.00282562	-0.0959473	0.134521	-1.14038	-0.146637	-0.200887	-0.00617784	0.968558	-3.88998	0.438774	9.28323	-0.006849	-0.00224947	-0.0160322	0.265381	0.060791	-1.05005	0.183438	0.053262	-0.500237	-0.844557	1.03719	8.83568	5.12628	0.0137998	0.00471184	-0.00361653	-0.453857	-0.765869	-0.715576	-0.0160768	0.274221	-0.961494	-0.00855966	-0.28728	0.0285326	-9.76488	0.00224141	0.00197114	0.00175837	-0.434326	-0.359619	1.06592	0.110852	0.0554361	-0.477193	0.870015	1.97723	-8.03248	5.23779	0.025761	0.00664758	-0.0168342	-0.404297	0.879395	-0.566162	-0.0892462	-0.157218	-0.980261	0.0800386	-0.605939	-0.787797	-6.25433	-0.00337957	0.0156756	-0.0135124	-0.215088	0.254395	0.917969	0.131301	-0.0903068	-0.0215883	-0.986985	2.18077	0.146974	10.2805	0.14763	0.21111	-0.0220055	-0.55542	0.097168	-0.924805	-0.0818176	0.0137024	0.127493	0.988364	0.656638	2.63106	10.7771	0.00413668	0.0149177	-0.0127686	-0.509277	-0.174072	-1.04834	-0.103341	0.0658367	0.392348	0.911619	2.25484	7.22446	7.1108	0.000592349	0.00514036	-0.0183278	-0.649414	-0.685303	-0.743408	-0.0619853	0.0129434	-0.0437189	-0.997035	-0.256636	0.828169	10.4823	0.000193627	0.0141855	0.00327357	-0.409424	-0.156494	-1.0564	0.0204258	-0.0500701	0.219005	-0.974224	0.938192	-4.17724	8.83295	-0.000392518	0.00897819	-0.00360694	-0.55957	0.331543	-1.00293	
71	-0.0533989	-0.103233	0.042622	0.992308	-2.27884	0.916291	10.7366	-0.010449	-0.00218659	0.0136293	-0.0957031	0.130127	-1.13379	-0.146592	-0.200954	-0.00602284	0.968551	-3.89987	0.519897	9.22344	-0.00217935	0.0225619	-0.0194287	0.267334	0.0629883	-1.05029	0.183365	0.0530486	-0.500213	-0.844601	1.03957	8.85456	5.11573	-0.00341456	-0.0068422	0.000613884	-0.460205	-0.765625	-0.718018	-0.0160834	0.274228	-0.961493	-0.0084174	-0.297173	0.0260133	-9.77124	0.00885727	0.00624139	-0.000636259	-0.436523	-0.357422	1.05493	0.1108	0.055401	-0.476804	0.870237	1.96296	-7.95739	5.2679	0.0166219	0.0143726	-0.00744629	-0.4021	0.875	-0.568359	-0.0891623	-0.157303	-0.980237	0.0802593	-0.594037	-0.785742	-6.23225	0.0134953	0.00662266	-0.0157396	-0.212891	0.254395	0.917969	0.131502	-0.0878015	-0.0210365	-0.987196	2.16129	0.0995232	10.3062	0.00885623	0.0891747	-0.00668266	-0.55542	0.097168	-0.922852	-0.0818176	0.0137024	0.127493	0.988364	0.656638	2.63106	10.7771	0.00413668	0.0149177	-0.0127686	-0.509277	-0.174072	-1.04834	-0.103331	0.0658538	0.392187	0.911688	2.24737	7.19038	7.14023	-0.00825835	0.00714996	-0.0193694	-0.647217	-0.680908	-0.739014	-0.0620017	0.0130365	-0.0440035	-0.99702	-0.28689	0.836691	10.4859	0.0127085	0.0167414	0.00414975	-0.409424	-0.156494	-1.05176	0.0204502	-0.0500637	0.21902	-0.974221	0.941849	-4.18848	8.83704	-0.000244512	0.009466	-0.00423938	-0.55957	0.331543	-0.993896	
72	-0.0535824	-0.103108	0.0424345	0.992319	-2.23677	0.902565	10.7441	-0.00479381	-0.00616327	0.00435398	-0.0957031	0.130127	-1.13599	-0.146634	-0.201141	-0.00612925	0.968506	-3.96933	0.520107	9.28015	-0.0142083	0.0178978	-0.0151409	0.265137	0.0629883	-1.04321	0.183356	0.052911	-0.500253	-0.844587	1.07734	8.92905	5.09831	0.00389088	0.00243472	-0.00129911	-0.458008	-0.765625	-0.715576	-0.0160546	0.274248	-0.961488	-0.00842736	-0.300537	0.0228926	-9.75912	0.000852251	0.00483546	-0.000674542	-0.43457	-0.355225	1.05933	0.110798	0.0555493	-0.476416	0.87044	1.91382	-7.93522	5.32317	0.0143816	0.00265899	-0.0190562	-0.404297	0.877197	-0.568359	-0.0889266	-0.157428	-0.980245	0.080179	-0.606807	-0.796787	-6.24593	-0.00301857	0.0224765	-0.0125056	-0.214844	0.25	0.922363	0.131667	-0.0866332	-0.0210594	-0.987277	2.12331	0.115423	10.3426	0.0245934	0.059211	-0.0147068	-0.550781	0.0930176	-0.928955	-0.0814481	0.0133484	0.127071	0.988454	0.633829	2.58657	10.7787	0.00353293	0.0174979	-0.0150655	-0.506592	-0.182617	-1.05273	-0.103198	0.0656692	0.392026	0.911786	2.24211	7.1948	7.14096	0.00506741	0.00744047	-0.017637	-0.651855	-0.683105	-0.741211	-0.0620296	0.0130984	-0.0440606	-0.997015	-0.299343	0.839572	10.4662	0.00108748	0.0153498	0.0041478	-0.409424	-0.154297	-1.0542	0.0204246	-0.0500499	0.219044	-0.974216	0.923147	-4.21811	8.82321	0.00246107	0.00951895	-0.00383306	-0.559814	0.33374	-1.00977	
73	-0.0536584	-0.102968	0.0424786	0.992328	-2.24595	0.89941	10.7432	0.00496897	-0.0106279	-0.000182461	-0.0957031	0.132324	-1.13379	-0.146744	-0.200824	-0.00617696	0.968554	-3.87988	0.477971	9.26532	-0.0138349	0.00157607	-0.0170201	0.262939	0.0673828	-1.04565	0.18342	0.0527943	-0.499975	-0.844746	1.04694	8.87956	5.12885	-0.00822721	0.00366244	0.00292213	-0.458008	-0.763428	-0.722656	-0.0160592	0.274245	-0.961489	-0.00843777	-0.287145	0.0223305	-9.75287	0.00119666	0.00417665	0.00113871	-0.432373	-0.355225	1.05713	0.110749	0.0557688	-0.476406	0.870438	2.00181	-7.97048	5.25972	0.00287718	0.00306939	-0.0135358	-0.408936	0.881592	-0.566162	-0.088615	-0.157581	-0.980243	0.080248	-0.590687	-0.803045	-6.227	0.0097068	0.0168776	-0.0156298	-0.215088	0.254395	0.919922	0.131719	-0.0863413	-0.0208914	-0.987299	2.12168	0.148263	10.3187	0.00650167	0.0415155	-0.0126284	-0.542725	0.10376	-0.927246	-0.0814806	0.0133733	0.127158	0.98844	0.656223	2.5981	10.7982	0.0118355	0.0149521	-0.0129838	-0.509033	-0.18042	-1.0459	-0.103219	0.0657115	0.392062	0.911765	2.23742	7.19729	7.11016	0.00639541	0.00594501	-0.0172599	-0.644531	-0.6875	-0.743164	-0.0620285	0.0130653	-0.0440263	-0.997017	-0.289773	0.844255	10.4831	0.000301478	0.0110617	0.00572618	-0.402588	-0.156494	-1.05176	0.0204157	-0.0500517	0.219007	-0.974225	0.928237	-4.20145	8.81019	0.00412262	0.00726257	-0.0046391	-0.563965	0.329346	-0.998291	
74	-0.0536521	-0.10289	0.0425417	0.992333	-2.20049	0.921694	10.7584	0.00662769	-0.0093156	-0.00109974	-0.0957031	0.132324	-1.13818	-0.146719	-0.200723	-0.00620251	0.968579	-3.86587	0.491875	9.28172	-0.011563	0.00729519	-0.0197784	0.262939	0.0651855	-1.04785	0.183417	0.052718	-0.499905	-0.844792	1.05783	8.86021	5.14071	-0.00340664	0.00105914	0.000447153	-0.456055	-0.761475	-0.720215	-0.0160128	0.274277	-0.96148	-0.00845645	-0.287864	0.0421857	-9.76013	-1.23477e-05	0.00646123	-0.00066613	-0.432129	-0.357422	1.05713	0.110685	0.0557945	-0.476307	0.870499	1.97739	-7.95383	5.26802	0.00975397	0.00746373	-0.00918421	-0.404297	0.879395	-0.566162	-0.0885196	-0.157641	-0.980239	0.0802806	-0.598429	-0.790872	-6.24368	0.00636971	0.0144226	-0.0152049	-0.215332	0.260986	0.924072	0.13169	-0.0857928	-0.0206216	-0.987356	2.16322	0.123778	10.2956	0.000898576	0.0310814	-0.00959769	-0.540527	0.10376	-0.929199	-0.0815239	0.0134333	0.127262	0.988422	0.666116	2.60712	10.7781	0.00684471	0.0155204	-0.0136929	-0.506836	-0.18042	-1.05054	-0.103226	0.0657326	0.392061	0.911763	2.24433	7.18682	7.09536	0.00551216	0.0053167	-0.0181236	-0.651855	-0.683105	-0.741211	-0.0620632	0.0130223	-0.0440428	-0.997015	-0.260179	0.847898	10.4555	0.0042816	0.0131584	0.00360364	-0.404541	-0.163086	-1.05176	0.020388	-0.0500655	0.218977	-0.974231	0.957617	-4.18438	8.83047	0.00238323	0.00668804	-0.00446535	-0.557373	0.329346	-1.00513	
75	-0.0537809	-0.102853	0.04265	0.992325	-2.22282	0.920708	10.7421	0.00695731	-0.00326315	0.00554035	-0.100098	0.130127	-1.13379	-0.146638	-0.20081	-0.00591278	0.968575	-3.89986	0.522752	9.27897	0.0175695	0.0096832	-0.0189224	0.265381	0.0585938	-1.04761	0.183388	0.0526177	-0.499853	-0.844836	1.06895	8.88281	5.1236	0.00202838	0.0017411	-0.00148002	-0.460449	-0.75708	-0.718262	-0.0159899	0.274294	-0.961476	-0.00846357	-0.281623	0.0214812	-9.75303	0.00243863	0.00685577	0.000610904	-0.432129	-0.359619	1.05713	0.110681	0.0557839	-0.476236	0.870539	1.97946	-7.95139	5.27093	0.00275604	0.00903612	-0.0118979	-0.406494	0.877197	-0.572998	-0.088413	-0.157711	-0.98024	0.0802427	-0.592857	-0.804186	-6.23738	4.71565e-05	0.0114363	-0.0162501	-0.212891	0.252197	0.920166	0.131791	-0.0854684	-0.019962	-0.987384	2.11663	0.112711	10.3166	-0.0163558	0.0274427	-0.0120557	-0.54248	0.0993652	-0.927002	-0.0815584	0.0134701	0.127168	0.988431	0.648815	2.59617	10.7695	0.00243709	0.0162279	-0.0131705	-0.506836	-0.178223	-1.05054	-0.103199	0.0657877	0.391994	0.911791	2.23273	7.18444	7.11781	0.00297422	0.0053412	-0.0199122	-0.642578	-0.678467	-0.741211	-0.0620994	0.0130091	-0.0440136	-0.997014	-0.264344	0.860491	10.4839	-0.00163419	0.0114371	0.00477663	-0.409424	-0.156494	-1.0564	0.0204137	-0.0500366	0.218936	-0.974242	0.948379	-4.17122	8.82787	0.00183708	0.00836044	-0.000894943	-0.562012	0.335938	-1.00073	
76	-0.0538125	-0.102872	0.0428707	0.992312	-2.27126	0.934418	10.7702	0.0144299	-0.00499384	-0.00439982	-0.0935059	0.130127	-1.13818	-0.146619	-0.200694	-0.00579905	0.968603	-3.93012	0.489252	9.21227	-0.00331805	0.000716415	-0.0178211	0.267578	0.0563965	-1.04517	0.183402	0.0525586	-0.499677	-0.84494	1.06267	8.88889	5.11284	-0.0109319	0.00422595	-0.000966426	-0.456055	-0.761475	-0.713379	-0.0159753	0.274471	-0.961425	-0.00846849	-0.281828	0.0213697	-9.76236	0.00215455	0.00524422	0.000835989	-0.432129	-0.359619	1.05933	0.110557	0.055719	-0.476127	0.870618	1.95006	-7.93347	5.32055	0.00433192	0.00965581	-0.00749665	-0.4021	0.875	-0.570801	-0.0882791	-0.157577	-0.98027	0.0802892	-0.596317	-0.795036	-6.23978	0.00332411	0.0082583	-0.0157571	-0.217285	0.254395	0.913574	0.13178	-0.0862568	-0.0193843	-0.987329	2.14404	0.0719576	10.3225	0.0232916	-0.00747411	-0.015312	-0.553467	0.10376	-0.929199	-0.0816399	0.0134885	0.127158	0.988425	0.639884	2.5913	10.79	0.005849	0.0185019	-0.0132515	-0.506836	-0.178223	-1.04834	-0.103163	0.0658451	0.391922	0.911822	2.22988	7.18489	7.1382	0.00260366	0.00481816	-0.0198123	-0.649414	-0.685303	-0.740967	-0.0621989	0.0129645	-0.0438584	-0.997015	-0.2906	0.830954	10.4899	-0.00260715	0.0134273	0.00145444	-0.407227	-0.156494	-1.0564	0.0203744	-0.0499971	0.218987	-0.974233	0.931012	-4.18919	8.8215	-0.000374391	0.00820495	-0.0040389	-0.554932	0.329346	-1.00073	
77	-0.0538109	-0.102822	0.0430027	0.992312	-2.23915	0.978913	10.7322	0.00544242	-0.00479597	0.00260185	-0.0913086	0.132324	-1.13599	-0.146678	-0.200509	-0.00538344	0.968634	-3.91575	0.493575	9.29327	0.00684305	0.00880253	-0.0113054	0.260986	0.0585938	-1.05005	0.183452	0.052547	-0.499567	-0.844995	1.0312	8.85477	5.15065	0.00141579	0.00384119	-0.000758875	-0.462402	-0.763428	-0.718018	-0.0159821	0.274792	-0.961333	-0.00856119	-0.282698	0.0127485	-9.7727	-0.000280512	0.00435051	-0.00099689	-0.434326	-0.357422	1.06152	0.110559	0.055847	-0.476162	0.87059	1.9611	-7.99294	5.27508	0.00122698	0.00154386	-0.0161671	-0.402344	0.879395	-0.572998	-0.0880302	-0.157675	-0.980274	0.0803304	-0.595067	-0.796591	-6.24507	0.00558028	0.0193839	-0.0158088	-0.212646	0.25	0.915771	0.131889	-0.0867394	-0.0194726	-0.98727	2.13254	0.104566	10.3546	0.00560177	-0.00361828	-0.0126492	-0.542725	0.105957	-0.931396	-0.0816853	0.0135494	0.127168	0.988419	0.646173	2.60887	10.789	0.00615261	0.0160835	-0.0131173	-0.506836	-0.178223	-1.04834	-0.103158	0.0659179	0.391955	0.911803	2.23078	7.19202	7.13429	0.00731283	0.00372128	-0.0191249	-0.646973	-0.685303	-0.73877	-0.0622594	0.0129247	-0.0437206	-0.997018	-0.288343	0.822155	10.4687	-0.0011469	0.0122527	0.00359609	-0.409424	-0.154297	-1.0564	0.0203923	-0.050016	0.219044	-0.974219	0.942716	-4.19902	8.84549	0.00109001	0.00702732	-0.00337197	-0.55957	0.331543	-1.00513	
78	-0.0538088	-0.102693	0.043047	0.992323	-2.25101	0.962174	10.745	0.00236592	-0.00680704	5.83518e-05	-0.0935059	0.132324	-1.13379	-0.146649	-0.200654	-0.00535642	0.968609	-3.88099	0.484142	9.2911	-0.0139392	0.0221816	-0.0216826	0.263184	0.060791	-1.05005	0.183525	0.05231	-0.499341	-0.845128	1.07575	8.85271	5.14358	-0.00906493	-0.00102058	0.00458819	-0.460205	-0.763428	-0.720215	-0.0159504	0.275083	-0.961251	-0.00848991	-0.286223	0.0192343	-9.75956	0.00523474	0.00686527	-0.000558187	-0.430176	-0.355225	1.06592	0.1105	0.0559032	-0.475929	0.870722	1.98254	-7.94082	5.26545	0.011013	0.00859306	-0.00810523	-0.404541	0.881592	-0.568359	-0.0878715	-0.157796	-0.980255	0.0804961	-0.599817	-0.803959	-6.23653	0.0101248	0.0109588	-0.0156139	-0.213135	0.258789	0.911377	0.131936	-0.0871445	-0.0193121	-0.987231	2.15548	0.101286	10.3362	0.000987159	-0.0150238	-0.0112948	-0.542725	0.10376	-0.925049	-0.0817266	0.0135878	0.127185	0.988413	0.666421	2.61063	10.7902	0.00444796	0.0151516	-0.0149401	-0.509277	-0.171875	-1.0437	-0.103145	0.0659728	0.391953	0.911801	2.2505	7.19741	7.12004	0.00594707	0.00554201	-0.0188404	-0.649658	-0.678467	-0.747803	-0.062279	0.0128728	-0.0437758	-0.997015	-0.272472	0.831343	10.4834	0.00679838	0.0126801	0.00613835	-0.405029	-0.154297	-1.0542	0.0204034	-0.0500275	0.218981	-0.974232	0.935796	-4.19084	8.82394	0.00458988	0.00740129	-0.00414254	-0.559814	0.33374	-1.00513	
79	-0.0539052	-0.102511	0.0429051	0.992343	-2.23576	0.944987	10.739	-0.0055322	-0.00821681	0.00459788	-0.0957031	0.130127	-1.13379	-0.146617	-0.200946	-0.00568651	0.968552	-3.91697	0.496737	9.27848	-0.0183843	0.0291959	-0.0168901	0.265381	0.0585938	-1.05005	0.18352	0.0522268	-0.499213	-0.84521	1.06031	8.87646	5.12354	-0.00365876	0.00399457	-0.00378327	-0.458252	-0.75708	-0.722656	-0.0159476	0.275349	-0.961174	-0.00850743	-0.27708	0.0192691	-9.77184	-0.000594121	0.00373849	0.000339696	-0.432129	-0.359619	1.05933	0.110478	0.0559253	-0.475842	0.870771	1.95373	-7.96938	5.29282	0.000237065	0.0067583	-0.014103	-0.402344	0.879395	-0.572998	-0.087565	-0.157696	-0.980298	0.0804945	-0.600376	-0.801848	-6.25108	0.00227952	0.0159831	-0.0142155	-0.219482	0.258789	0.913574	0.13163	-0.0874446	-0.0198143	-0.987236	2.16437	0.0712548	10.3017	0.0172059	-0.00459897	-0.0147795	-0.549072	0.10376	-0.925049	-0.0816077	0.0133856	0.127168	0.988428	0.650773	2.60416	10.7809	0.00275475	0.0162322	-0.0137916	-0.50708	-0.174072	-1.0459	-0.102951	0.0658515	0.39198	0.91182	2.24486	7.19094	7.13155	0.0038863	0.0048173	-0.0188977	-0.646973	-0.683105	-0.743408	-0.0623125	0.0128727	-0.0438708	-0.997009	-0.26962	0.848943	10.5	0.00413547	0.0136431	0.00411635	-0.407471	-0.1521	-1.0542	0.020402	-0.050064	0.218932	-0.974241	0.945063	-4.18	8.83389	0.00416791	0.00515853	-0.00266882	-0.557373	0.329346	-0.996094	
80	-0.0541386	-0.102406	0.042734	0.992349	-2.24028	0.898548	10.7354	-0.00414758	-0.00688299	0.00598005	-0.09375	0.134521	-1.13599	-0.146673	-0.200997	-0.00587909	0.968531	-3.92241	0.463165	9.29489	-0.0178817	0.0132949	-0.0199949	0.263184	0.0585938	-1.05005	0.183473	0.0520821	-0.499062	-0.845318	1.06838	8.84817	5.14012	-0.00204731	-0.000833585	-0.00102794	-0.4646	-0.759033	-0.718018	-0.0159575	0.275458	-0.961143	-0.0084689	-0.285574	0.027763	-9.7679	0.00577175	0.00512811	0.00132886	-0.438721	-0.359619	1.05933	0.110489	0.0560157	-0.475648	0.870869	1.98399	-7.94784	5.26936	0.0136437	0.00739315	-0.0102141	-0.408691	0.879395	-0.568359	-0.0873892	-0.157796	-0.980286	0.0806444	-0.59048	-0.796192	-6.24357	0.0114913	0.010416	-0.0160907	-0.212891	0.254395	0.915771	0.131667	-0.0882723	-0.0195636	-0.987162	2.17351	0.0855845	10.2863	0.00639168	-0.015038	-0.0128708	-0.553467	0.101562	-0.922852	-0.0816162	0.0134158	0.127156	0.988428	0.654457	2.60157	10.7623	0.00444976	0.0151523	-0.0149415	-0.509033	-0.178223	-1.0481	-0.102972	0.0658791	0.391964	0.911823	2.24842	7.18726	7.14095	0.00451788	0.00566866	-0.0170068	-0.654297	-0.67627	-0.745605	-0.0623477	0.01285	-0.0438358	-0.997009	-0.278624	0.847616	10.4712	0.000399927	0.0115499	0.00249113	-0.405029	-0.156494	-1.0542	0.020394	-0.0500575	0.218937	-0.974241	0.943944	-4.17938	8.83431	0.000739302	0.00817176	-0.00409123	-0.559814	0.335938	-0.996094	
81	-0.0542443	-0.102277	0.0426707	0.992359	-2.23969	0.903274	10.7519	-0.000163015	-0.00799989	0.00374439	-0.0957031	0.132324	-1.13159	-0.146593	-0.2008	-0.006176	0.968582	-3.91223	0.491796	9.26671	-0.0204634	0.0120385	-0.0237013	0.262939	0.0629883	-1.04785	0.18349	0.0519544	-0.498967	-0.845378	1.06017	8.88398	5.12188	-0.00335309	0.00140779	-0.000106608	-0.458252	-0.759277	-0.718018	-0.015938	0.275727	-0.961067	-0.00840904	-0.273503	0.0259844	-9.77093	0.00523797	0.00686757	-0.00055543	-0.434814	-0.35083	1.06128	0.110452	0.055997	-0.475394	0.871014	1.93363	-7.92701	5.32299	0.0023347	0.00955868	-0.0100171	-0.404297	0.875	-0.570801	-0.0873892	-0.157796	-0.980286	0.0806444	-0.59048	-0.796192	-6.24357	0.0114913	0.010416	-0.0160907	-0.212891	0.254395	0.915771	0.131733	-0.0888843	-0.0194962	-0.9871	2.18226	0.0783145	10.304	0.00963555	-0.00621944	-0.0144517	-0.551025	0.097168	-0.924805	-0.0816434	0.0134474	0.127114	0.988431	0.654349	2.60025	10.7927	0.00366466	0.0163486	-0.0137877	-0.506592	-0.182617	-1.0481	-0.102972	0.0658791	0.391964	0.911823	2.24842	7.18726	7.14095	0.00451788	0.00566866	-0.0170068	-0.654297	-0.67627	-0.745605	-0.0623939	0.0128759	-0.0438256	-0.997006	-0.291329	0.83602	10.473	0.00325047	0.0147054	0.00354707	-0.409424	-0.158691	-1.0564	0.0203821	-0.0500671	0.218985	-0.97423	0.946127	-4.20245	8.8309	-4.70649e-06	0.00628644	-0.00375097	-0.564209	0.331543	-1.00513	
82	-0.0542997	-0.102227	0.0427185	0.992359	-2.23067	0.907781	10.7465	0.00496059	-0.00702921	0.00388909	-0.0981445	0.134521	-1.13599	-0.146603	-0.200762	-0.00627479	0.968588	-3.93105	0.476359	9.30665	-0.0171686	0.0132732	-0.0186718	0.265137	0.0627441	-1.05737	0.183477	0.0519132	-0.49888	-0.845435	1.05828	8.87474	5.12694	-0.00475689	0.00259983	-0.00221262	-0.462646	-0.754883	-0.71582	-0.0159252	0.275968	-0.960998	-0.00843076	-0.277091	0.0233937	-9.75881	0.00085837	0.00483938	-0.000671298	-0.436768	-0.355225	1.05933	0.110465	0.0560251	-0.4754	0.871007	1.94757	-7.96305	5.29933	-0.000576322	0.00690228	-0.0137307	-0.404053	0.872803	-0.572998	-0.086983	-0.157523	-0.980376	0.0805138	-0.59574	-0.807186	-6.22686	-0.00175833	0.0134024	-0.0144192	-0.210693	0.254395	0.911377	0.131779	-0.0891343	-0.0194615	-0.987072	2.19922	0.0608401	10.2847	0.0115056	-0.00332651	-0.0124721	-0.553711	0.108154	-0.925049	-0.0815063	0.013258	0.127205	0.988433	0.657981	2.59911	10.7786	0.00659862	0.0151548	-0.0142954	-0.506836	-0.178223	-1.05298	-0.102445	0.0654433	0.392151	0.911833	2.24121	7.19574	7.11492	0.00516985	0.00532136	-0.0182123	-0.646973	-0.683105	-0.741211	-0.0623689	0.0130351	-0.0439186	-0.997001	-0.27351	0.83542	10.4782	0.00453561	0.0135132	0.00357714	-0.407227	-0.154297	-1.0564	0.0203322	-0.0499946	0.21898	-0.974236	0.939721	-4.18719	8.82185	0.000763106	0.0071164	-0.00310425	-0.561768	0.331543	-0.996094	
83	-0.0542614	-0.10219	0.0430037	0.992353	-2.2266	0.935434	10.7451	0.0150988	-0.00498762	-0.00409847	-0.0976562	0.12793	-1.13599	-0.146613	-0.200591	-0.00642637	0.968621	-3.90577	0.493039	9.28086	-0.0163697	0.00733499	-0.0215487	0.262939	0.0629883	-1.04785	0.183484	0.0518395	-0.498773	-0.845501	1.05267	8.86262	5.14886	0.000723018	0.00398331	-0.00055644	-0.462646	-0.752686	-0.718262	-0.0158634	0.276072	-0.96097	-0.00835866	-0.282925	0.0279556	-9.76614	0.00322004	0.00552506	0.000294442	-0.436768	-0.355225	1.06372	0.110413	0.0560744	-0.475297	0.871067	1.99012	-7.94884	5.28318	0.00750175	0.00812212	-0.00728825	-0.410645	0.872803	-0.566162	-0.0867625	-0.157403	-0.980405	0.0806337	-0.579455	-0.802922	-6.24564	0.00676603	0.0118866	-0.0153489	-0.215088	0.258789	0.919922	0.13182	-0.0892135	-0.0194729	-0.987059	2.19882	0.0764116	10.2931	0.0181136	0.00989263	-0.0139064	-0.557617	0.0993652	-0.925049	-0.0815063	0.013258	0.127205	0.988433	0.657981	2.59911	10.7786	0.00659862	0.0151548	-0.0142954	-0.506836	-0.178223	-1.05298	-0.10225	0.0653218	0.392203	0.911842	2.23592	7.1892	7.12655	0.00466491	0.00471811	-0.0189371	-0.647217	-0.680664	-0.743408	-0.062315	0.0131604	-0.0439739	-0.997	-0.273616	0.839758	10.4864	0.00330038	0.0120361	0.00462448	-0.407227	-0.154297	-1.0564	0.0203322	-0.0499946	0.21898	-0.974236	0.939721	-4.18719	8.82185	0.000763106	0.0071164	-0.00310425	-0.561768	0.331543	-0.996094	
84	-0.054222	-0.102029	0.0433417	0.992357	-2.22281	0.97554	10.7462	0.0068209	-0.00778699	0.00121844	-0.100098	0.132324	-1.13818	-0.146554	-0.200611	-0.00677865	0.968623	-3.92094	0.479149	9.29294	-0.0178708	0.0224834	-0.0192995	0.260742	0.0649414	-1.05273	0.183495	0.0517177	-0.498687	-0.845557	1.05533	8.84745	5.16473	-0.000214929	0.00111938	0.000783432	-0.462646	-0.752686	-0.7229	-0.0158389	0.27643	-0.960867	-0.00837363	-0.278327	0.0292413	-9.74575	0.000845011	0.00534067	-0.000114347	-0.43457	-0.355225	1.05933	0.110375	0.055985	-0.47517	0.871146	1.91705	-7.95977	5.30231	-0.00346252	0.0104143	-0.013315	-0.404297	0.877197	-0.572998	-0.0867403	-0.157479	-0.980401	0.0805665	-0.594242	-0.799968	-6.25535	-0.00318709	0.00710979	-0.0143654	-0.217529	0.260986	0.915527	0.131765	-0.0895986	-0.0197294	-0.987026	2.20785	0.0920415	10.3123	0.0126483	0.000594423	-0.0137725	-0.55542	0.097168	-0.924805	-0.081265	0.0128588	0.12723	0.988455	0.654181	2.60697	10.794	0.00561071	0.0154388	-0.0124788	-0.51123	-0.178467	-1.0459	-0.102226	0.0654006	0.392151	0.911861	2.23062	7.17689	7.12401	0.00308808	0.00271112	-0.0202583	-0.649414	-0.680664	-0.743408	-0.0623697	0.0131403	-0.0439879	-0.996997	-0.266067	0.857988	10.4619	0.00251161	0.0129412	0.00326293	-0.405029	-0.156494	-1.0542	0.0202433	-0.0498711	0.218881	-0.974266	0.935445	-4.17877	8.82733	0.00155535	0.00716506	-0.00287888	-0.561768	0.331543	-0.998291	
