40	Head	00b4120a												Throax	00b411e8												LUpArm	00b411d9												LFoArm	00b41148												RUpArm	00b411db												RFoArm	00b41204												Waist	00b411f7												Lthigh	00b411f4												Lshank	00b4111b												Rthigh	00b411c8												Rshank	00b411ee												
PacketCount	q0	q1	q2	q3	accX	accY	accZ	gyrX	gyrY	gyrZ	magX	magY	magZ	q0	q1	q2	q3	accX	accY	accZ	gyrX	gyrY	gyrZ	magX	magY	magZ	q0	q1	q2	q3	accX	accY	accZ	gyrX	gyrY	gyrZ	magX	magY	magZ	q0	q1	q2	q3	accX	accY	accZ	gyrX	gyrY	gyrZ	magX	magY	magZ	q0	q1	q2	q3	accX	accY	accZ	gyrX	gyrY	gyrZ	magX	magY	magZ	q0	q1	q2	q3	accX	accY	accZ	gyrX	gyrY	gyrZ	magX	magY	magZ	q0	q1	q2	q3	accX	accY	accZ	gyrX	gyrY	gyrZ	magX	magY	magZ	q0	q1	q2	q3	accX	accY	accZ	gyrX	gyrY	gyrZ	magX	magY	magZ	q0	q1	q2	q3	accX	accY	accZ	gyrX	gyrY	gyrZ	magX	magY	magZ	q0	q1	q2	q3	accX	accY	accZ	gyrX	gyrY	gyrZ	magX	magY	magZ	q0	q1	q2	q3	accX	accY	accZ	gyrX	gyrY	gyrZ	magX	magY	magZ	
0	-0.117331	-0.0715807	0.00393326	0.990502	-1.60493	0.317522	10.8952	-0.00672531	-0.00192797	-0.00255465	-0.161865	0.220459	-1.12012	-0.195346	-0.218739	0.000658547	0.95603	-4.06437	1.09041	9.16322	-0.0116926	0.0286333	-0.0148161	0.276123	-0.0527344	-1.0625	0.364997	0.236244	-0.303141	-0.84798	-1.96843	7.24838	7.4181	0.00840758	0.00564267	0.00256929	-0.0524902	-0.553711	-0.964111	-0.431077	0.120967	-0.56314	-0.694559	-6.42663	6.6357	3.36747	0.00218878	0.00921723	0.000309469	0.42041	-0.952881	-0.209717	-0.139959	-0.212082	-0.196024	0.947105	-4.51221	-3.04905	8.08031	0.00993731	0.00492467	-0.00898829	0.248291	0.433105	-0.97168	-0.728614	0.0456147	-0.279504	0.623633	-3.92834	-5.04334	11.0454	-0.000731102	0.0101443	-0.0184437	0.360352	0.850342	-0.619629	0.151114	-0.359812	-0.108123	-0.914335	7.13508	0.76641	7.44095	0.0254842	-0.0012436	-0.0186029	-0.949707	0.0576172	-0.466553	-0.1697	-0.941063	-0.161931	0.243683	-4.28572	2.35226	-7.09395	-0.00952245	0.00829521	-0.011568	0.779297	0.00390625	0.777832	0.0202432	-0.00547984	0.0274616	0.999403	-0.133416	0.578818	10.5903	0.00700907	-0.00213865	-0.0236228	-0.36377	0.0505371	-0.985107	0.0615637	-0.00417893	-0.0286927	-0.997682	0.577896	0.501675	10.5284	-0.00850413	0.0289182	0.00408424	-0.499023	0.0090332	-1.04004	0.0207532	-0.033066	0.0601762	-0.997424	0.597204	-1.19808	9.71972	-0.0361451	0.00190581	-0.000261113	-0.542969	0.14624	-1.07959	
1	-0.117493	-0.0714452	0.00352254	0.990494	-1.59987	0.261047	10.9228	-0.0163994	-0.00929475	0.00686347	-0.161865	0.220459	-1.12231	-0.195416	-0.21889	0.000500153	0.955981	-4.02893	1.10357	9.15778	-0.0119413	0.021128	-0.0206998	0.271729	-0.0505371	-1.0603	0.365036	0.236197	-0.303234	-0.847944	-1.94833	7.17532	7.367	0.0093422	0.00105429	0.00371918	-0.0524902	-0.553711	-0.964111	-0.431052	0.120931	-0.563191	-0.69454	-6.39003	6.61652	3.35346	0.00472736	0.00495967	0.00165941	0.424805	-0.952881	-0.209717	-0.139969	-0.212044	-0.195987	0.947119	-4.4575	-3.00043	8.10373	0.00261325	0.00433279	-0.0110171	0.250244	0.433105	-0.983154	-0.728647	0.0456456	-0.27944	0.623621	-3.94853	-5.07314	11.0092	0.0055474	0.014349	-0.0137236	0.356201	0.848145	-0.619385	0.151114	-0.359812	-0.108123	-0.914335	7.13508	0.76641	7.44095	0.0254842	-0.0012436	-0.0186029	-0.949707	0.0576172	-0.466553	-0.169776	-0.941026	-0.161811	0.243851	-4.27534	2.36041	-7.06227	0.0125363	0.0104917	-0.0174797	0.781494	0.00610352	0.775391	0.0202588	-0.00540088	0.0275113	0.999402	-0.117881	0.617753	10.5868	0.00828848	7.94132e-05	-0.0188633	-0.356934	0.0529785	-0.991699	0.0616154	-0.00388409	-0.0293703	-0.99766	0.526698	0.750864	10.4416	0.0158377	0.0212998	-0.000956099	-0.503174	0.00439453	-1.04443	0.0206559	-0.0334675	0.0627791	-0.997252	0.623628	-1.03441	9.74756	-0.0864247	0.00742403	-0.00932511	-0.542969	0.150635	-1.08423	
2	-0.117626	-0.0713577	0.00334704	0.990485	-1.58451	0.196889	10.9179	-0.00274475	-0.00523295	0.00497756	-0.163574	0.209717	-1.12646	-0.195393	-0.218964	0.000625938	0.955969	-4.05184	1.14616	9.12746	-0.00194232	0.0151531	-0.0155464	0.271729	-0.0505371	-1.05566	0.365022	0.236202	-0.303262	-0.847939	-1.93804	7.22437	7.39807	0.00618758	0.00392651	-0.00107833	-0.0524902	-0.558105	-0.964111	-0.431065	0.120963	-0.563247	-0.694481	-6.37569	6.56695	3.37417	0.00671621	0.00890495	-0.00238245	0.42041	-0.950684	-0.211914	-0.140053	-0.211919	-0.196377	0.947054	-4.43205	-3.04562	8.12793	0.00270222	-0.00184537	-0.010872	0.248047	0.435303	-0.97168	-0.728659	0.0457095	-0.279502	0.623574	-3.944	-5.0845	10.9682	-0.00438592	0.0163356	-0.0136017	0.356445	0.843994	-0.612793	0.151087	-0.357858	-0.107856	-0.915138	7.11541	0.776227	7.37029	-0.0140692	0.0943813	-0.00530333	-0.949707	0.0598145	-0.46875	-0.169682	-0.941042	-0.161721	0.243916	-4.28333	2.32063	-7.06375	0.0174292	0.0111259	-0.0146466	0.781494	0.00390625	0.775635	0.0203978	-0.00543	0.0276215	0.999396	-0.138393	0.526499	10.5985	0.00656788	0.00385071	-0.0149952	-0.36377	0.0505371	-0.989502	0.0615322	-0.00377502	-0.0289939	-0.997677	0.582568	0.464016	10.5623	-0.0271008	0.0255188	-0.00303558	-0.503662	0.0131836	-1.04004	0.0205821	-0.0334999	0.0637133	-0.997193	0.620207	-1.46774	9.70765	-0.0736136	0.006602	-0.00685699	-0.547363	0.14624	-1.07959	
3	-0.117614	-0.0713417	0.0034183	0.990488	-1.58373	0.206671	10.921	0.00546713	-0.00568496	0.000311509	-0.163818	0.216064	-1.12231	-0.195381	-0.218862	0.000708114	0.955994	-4.01167	1.11291	9.15951	-0.0046896	0.00730324	-0.0183529	0.273926	-0.0505371	-1.0603	0.36497	0.236161	-0.303388	-0.847927	-1.91513	7.22819	7.39747	0.010864	0.000605651	0.00010232	-0.0524902	-0.555908	-0.964111	-0.431114	0.121018	-0.563426	-0.694295	-6.38571	6.62142	3.31074	0.00791591	0.00836235	-0.00233439	0.42041	-0.950684	-0.209717	-0.140055	-0.211921	-0.196402	0.947048	-4.40407	-3.0044	8.14163	-0.00171045	0.00853906	-0.0118474	0.248047	0.435303	-0.980957	-0.728671	0.0457528	-0.279386	0.62361	-3.89374	-5.1395	11.0035	0.0120304	0.00896621	-0.0202241	0.362549	0.848145	-0.615234	0.151188	-0.356844	-0.107054	-0.915611	7.11512	0.711959	7.45568	-0.0276878	0.1151	-0.000985138	-0.947266	0.0554199	-0.477051	-0.169914	-0.941013	-0.161513	0.244001	-4.28404	2.34332	-7.02735	-0.0135869	0.006714	-0.00904802	0.774902	0.00805664	0.777832	0.0204446	-0.00537448	0.0277511	0.999391	-0.108764	0.554193	10.5823	0.0146671	0.00186591	-0.0215185	-0.364258	0.057373	-0.987305	0.0615131	-0.0037278	-0.0289371	-0.99768	0.53944	0.34669	10.3863	0.0175275	0.0147882	0.00668244	-0.501221	0.00683594	-1.04663	0.0206933	-0.0337831	0.0648214	-0.99711	0.660579	-1.42512	9.6397	-0.0408042	-0.00361093	0.00561529	-0.541016	0.152832	-1.08203	
4	-0.117473	-0.071315	0.0038428	0.990505	-1.52932	0.319973	10.9274	0.0110253	-0.00616455	-0.00163971	-0.161621	0.216064	-1.11792	-0.195253	-0.218854	0.00101951	0.956022	-4.03942	1.12078	9.14931	-0.00423485	0.0183928	-0.0160863	0.273926	-0.0505371	-1.0603	0.364886	0.236045	-0.303477	-0.847964	-1.94111	7.16889	7.41135	0.00929066	-0.00334018	-0.0024586	-0.0524902	-0.558105	-0.96167	-0.431186	0.120999	-0.563518	-0.69418	-6.372	6.64998	3.33283	0.0069322	0.00252054	-0.00272984	0.424805	-0.950684	-0.20752	-0.140069	-0.211889	-0.196622	0.947008	-4.46002	-3.09486	8.07303	-0.00289819	0.00826546	-0.0112668	0.243652	0.4375	-0.974121	-0.728696	0.0457319	-0.279289	0.623626	-3.94656	-5.13279	11.0196	0.00280004	0.0147754	-0.0144205	0.356201	0.846191	-0.619385	0.151714	-0.352849	-0.104762	-0.917336	7.10455	0.736868	7.56061	-0.018248	0.156992	0.00184707	-0.941162	0.0598145	-0.481445	-0.170751	-0.940889	-0.161696	0.243774	-4.33194	2.36468	-7.09207	-0.0154153	0.0230867	-0.0196287	0.781494	0.00390625	0.777832	0.0207794	-0.00546108	0.0278583	0.999381	-0.102631	0.652319	10.5998	0.00458039	0.00748541	-0.0182297	-0.357178	0.057373	-0.989502	0.0615952	-0.00373053	-0.0294897	-0.997658	0.472623	0.802778	10.507	0.00831014	0.0166315	7.35502e-05	-0.500977	0.00463867	-1.03516	0.0206071	-0.03456	0.0658675	-0.997017	0.713461	-0.710146	9.82255	-0.0555124	-0.0164235	-0.0201159	-0.54541	0.150635	-1.073	
5	-0.117468	-0.0713914	0.00393182	0.990499	-1.55616	0.313523	10.9167	0.00853659	0.00145999	8.27048e-05	-0.163818	0.213867	-1.12012	-0.195241	-0.218788	0.00114561	0.956039	-4.04305	1.11852	9.14799	-0.000711932	0.00925008	-0.0174404	0.267578	-0.0549316	-1.06006	0.364816	0.236265	-0.303599	-0.847889	-1.92241	7.25394	7.41586	0.0029196	0.0105107	-0.00102362	-0.0546875	-0.557861	-0.973145	-0.431215	0.121005	-0.563511	-0.694167	-6.35676	6.5624	3.34985	0.00220057	0.0062241	6.76668e-05	0.424805	-0.952881	-0.209717	-0.140083	-0.211886	-0.196615	0.947008	-4.46958	-3.04511	8.0638	0.000629439	0.00790449	-0.010476	0.24585	0.4375	-0.976318	-0.72874	0.0456943	-0.279291	0.623576	-3.9455	-5.09043	11.0124	0.00387618	0.0162483	-0.0145869	0.355957	0.852539	-0.621826	0.151916	-0.351565	-0.103833	-0.917901	7.02974	0.762873	7.59474	-0.0317519	0.139519	0.00735375	-0.943359	0.064209	-0.481689	-0.170673	-0.940932	-0.161742	0.243633	-4.28572	2.33432	-7.08202	0.0239238	0.024975	-0.0181523	0.781494	0.00170898	0.773193	0.0207134	-0.00548329	0.0278557	0.999382	-0.12788	0.481705	10.5906	0.00958369	0.00602788	-0.0194687	-0.356934	0.0529785	-0.991699	0.0612413	-0.00387302	-0.028328	-0.997713	0.521585	0.265118	10.4476	-0.00725048	0.00419595	0.0025163	-0.496826	0.0112305	-1.04224	0.0205523	-0.0344753	0.0668255	-0.996957	0.664683	-1.54772	9.68672	0.047729	-0.00475806	-0.00535646	-0.541016	0.155029	-1.08203	
6	-0.11748	-0.0715715	0.00391497	0.990485	-1.65275	0.3253	10.8929	-0.00169818	0.00255216	0.00324753	-0.159424	0.214111	-1.12427	-0.195226	-0.218845	0.00125582	0.956029	-4.05945	1.13008	9.13505	-0.00174011	0.0235741	-0.0178456	0.269775	-0.0549316	-1.0625	0.364836	0.236027	-0.30341	-0.848014	-1.97155	7.19356	7.36615	-0.00625279	-0.00369204	-0.00270912	-0.0524902	-0.555908	-0.961914	-0.431268	0.121022	-0.563548	-0.6941	-6.36697	6.59398	3.34527	0.00271615	0.00498854	-0.00239842	0.422363	-0.948486	-0.20752	-0.140079	-0.211794	-0.196796	0.946991	-4.4646	-2.99565	8.09102	-0.00898721	0.00813715	-0.0176386	0.248047	0.437256	-0.967285	-0.728825	0.0457348	-0.279137	0.623542	-3.88724	-5.06087	11.0003	0.00664928	0.00753398	-0.0130629	0.356445	0.843994	-0.617188	0.152262	-0.348868	-0.101992	-0.919079	6.99613	0.65018	7.60653	-0.0257458	0.160014	0.00123089	-0.932617	0.0598145	-0.487793	-0.170946	-0.940914	-0.161729	0.243522	-4.26847	2.38742	-7.05407	-0.0207527	0.0150389	-0.0144906	0.7771	0.00585938	0.782471	0.020767	-0.00550376	0.0278358	0.999382	-0.13501	0.609774	10.5648	0.00109152	0.00462939	-0.0224164	-0.359375	0.0529785	-0.991699	0.0614157	-0.00386821	-0.0286841	-0.997693	0.558423	0.355847	10.4589	0.0315092	0.0135958	0.0173536	-0.499023	0.0090332	-1.04224	0.0207081	-0.0344607	0.0661656	-0.996998	0.63378	-1.31015	9.6782	0.0383045	0.00338197	-0.000787138	-0.547852	0.155029	-1.0752	
7	-0.117609	-0.0714457	0.00371517	0.99048	-1.54089	0.265627	10.9376	-0.00744827	-0.00779499	0.00393309	-0.159668	0.218506	-1.12231	-0.195037	-0.21876	0.00163146	0.956087	-4.04511	1.15463	9.12346	0.0115363	0.00669626	-0.0241914	0.271973	-0.0549316	-1.0625	0.364691	0.236068	-0.30366	-0.847976	-1.92294	7.24218	7.40927	0.0156833	0.00343698	-0.00306837	-0.050293	-0.558105	-0.96167	-0.431373	0.120866	-0.563624	-0.694	-6.37341	6.64283	3.35517	0.0142275	0.0011569	-0.000326062	0.422607	-0.950684	-0.211914	-0.140132	-0.211704	-0.197141	0.946932	-4.48273	-3.08173	8.0772	-0.0115935	0.00709552	-0.0104547	0.243652	0.439453	-0.969482	-0.728836	0.045794	-0.279197	0.623499	-3.95388	-5.09328	10.9993	0.00063426	0.0170309	-0.0153118	0.362793	0.846191	-0.617188	0.152674	-0.345233	-0.0999456	-0.920606	6.9585	0.678947	7.71886	-0.0364007	0.185525	0.00645523	-0.937256	0.0686035	-0.498779	-0.171318	-0.940881	-0.161985	0.243214	-4.30195	2.36324	-7.11113	0.00340719	0.0297915	-0.0254311	0.781738	0.00146484	0.784912	0.0206915	-0.00542973	0.0277675	0.999385	-0.124921	0.523964	10.6079	0.00385878	0.00143071	-0.0147203	-0.354736	0.0551758	-0.987305	0.0614522	-0.00381364	-0.0286889	-0.99769	0.521889	0.498297	10.4632	-0.0281405	0.00800934	-0.0051649	-0.499023	0.0112305	-1.04443	0.0206359	-0.0344424	0.0657274	-0.997029	0.636122	-1.37039	9.69902	0.0147422	0.0107627	-0.00856189	-0.540771	0.150635	-1.07983	
8	-0.117621	-0.0715943	0.00366625	0.990468	-1.6153	0.255359	10.9137	0.00264284	0.00197908	-0.00109107	-0.164062	0.220459	-1.12231	-0.194974	-0.218771	0.0017517	0.956097	-4.09502	1.12551	9.1886	0.000298098	0.00777477	-0.0106104	0.276367	-0.0549316	-1.0625	0.364695	0.236059	-0.30384	-0.847912	-1.87701	7.23298	7.39175	0.0168556	-0.000364961	0.00499635	-0.0524902	-0.555908	-0.966309	-0.431417	0.120889	-0.563754	-0.693864	-6.36042	6.61752	3.34403	0.0031358	0.00753515	-0.00276411	0.424805	-0.952881	-0.209717	-0.140229	-0.211524	-0.197093	0.946968	-4.49172	-3.00839	8.0537	0.00385534	-0.000609933	-0.0102203	0.24585	0.4375	-0.969482	-0.728957	0.0459009	-0.279336	0.623286	-3.9023	-5.04725	11.0025	-0.00703962	0.0144582	-0.00573445	0.354248	0.843994	-0.619385	0.153132	-0.341644	-0.0981204	-0.922064	6.89879	0.644594	7.70792	-0.0347745	0.173722	0.0104982	-0.932861	0.0686035	-0.509277	-0.17021	-0.941125	-0.162169	0.242927	-4.24645	2.33967	-7.04187	0.031389	0.0215819	-0.0236058	0.776855	0.010498	0.768311	0.0205437	-0.00545559	0.0278247	0.999387	-0.118016	0.573943	10.5427	0.00361386	0.00685672	-0.0130356	-0.361816	0.0551758	-0.989502	0.0614677	-0.00378251	-0.0285878	-0.997692	0.5262	0.501977	10.5628	-0.00021003	0.0138127	0.0034311	-0.496826	0.0134277	-1.03784	0.0205596	-0.0345011	0.0657034	-0.997031	0.673693	-1.24856	9.72556	-0.0210547	0.0128949	-0.00345436	-0.540771	0.150635	-1.07983	
9	-0.117475	-0.071655	0.00366457	0.990481	-1.53746	0.37013	10.9305	-0.00313639	0.00104437	-0.00423836	-0.161621	0.216064	-1.11792	-0.195176	-0.218387	0.00153456	0.956144	-3.96538	1.12819	9.16564	-0.0134966	0.000900542	-0.0161358	0.276367	-0.0571289	-1.0647	0.364903	0.236089	-0.303747	-0.847848	-1.94509	7.22396	7.4402	-0.0135651	0.00861708	-0.000367913	-0.0546875	-0.557861	-0.968506	-0.431385	0.120913	-0.563778	-0.69386	-6.36487	6.58968	3.34809	0.00344242	0.00629542	0.0034759	0.42041	-0.952881	-0.203125	-0.140519	-0.21116	-0.197632	0.946893	-4.4294	-3.08018	8.14291	-0.0253017	-0.00545996	-0.00657385	0.247803	0.444092	-0.97876	-0.729133	0.0459952	-0.279482	0.623009	-3.93399	-5.1109	10.9874	-0.00748569	0.0148551	-0.00499675	0.358398	0.848145	-0.615234	0.153594	-0.337841	-0.0959281	-0.923618	6.90321	0.611109	7.72089	-0.0311213	0.182736	0.00232938	-0.928711	0.072998	-0.513672	-0.170432	-0.941075	-0.162346	0.242847	-4.29461	2.29222	-7.07163	0.00248446	0.0220682	-0.0249559	0.788086	0.00390625	0.775391	0.0204692	-0.00540622	0.0278498	0.999388	-0.131109	0.51755	10.6133	0.00612239	0.000551537	-0.0182443	-0.357178	0.057373	-0.989502	0.0615071	-0.00381397	-0.0287937	-0.997684	0.539156	0.519404	10.5056	-0.000335344	0.0124361	0.00483307	-0.501465	0.0153809	-1.03784	0.0206319	-0.0347589	0.0651602	-0.997056	0.687808	-1.21708	9.67702	0.0282177	-0.00833062	-0.000611053	-0.542969	0.14624	-1.08203	
10	-0.117559	-0.0717092	0.00343777	0.990467	-1.60668	0.334055	10.9214	-0.017243	0.00280274	0.00555078	-0.161621	0.214111	-1.12427	-0.195165	-0.218413	0.00169755	0.95614	-4.04671	1.06052	9.19666	0.00295256	0.0157338	-0.0165135	0.27417	-0.0549316	-1.0625	0.364978	0.236061	-0.303586	-0.847881	-1.92618	7.21222	7.39648	-0.0102729	0.00883293	0.00111207	-0.0546875	-0.557861	-0.966309	-0.43136	0.120873	-0.56378	-0.693881	-6.37721	6.64568	3.35867	0.00178381	0.0039374	0.00466324	0.424805	-0.950684	-0.211914	-0.14061	-0.211051	-0.197843	0.94686	-4.42222	-3.10761	8.1484	-0.0187411	0.0013291	-0.00963066	0.245605	0.444092	-0.976318	-0.729156	0.0460633	-0.279504	0.622966	-3.93682	-5.1439	10.9884	-0.00247973	0.0126838	-0.0132709	0.354004	0.848145	-0.619385	0.153837	-0.335103	-0.0947356	-0.924697	6.79039	0.604287	7.72295	-0.0361599	0.265139	-0.000680747	-0.922363	0.0751953	-0.520264	-0.170432	-0.941075	-0.162346	0.242847	-4.29461	2.29222	-7.07163	0.00248446	0.0220682	-0.0249559	0.788086	0.00390625	0.775391	0.020522	-0.00531739	0.0278228	0.999388	-0.108929	0.528862	10.6005	0.00275343	-0.00167005	-0.0230359	-0.354736	0.0551758	-0.987305	0.0614863	-0.00390065	-0.0287243	-0.997687	0.556572	0.474422	10.4106	-0.002454	0.00867838	0.00184563	-0.494629	0.0090332	-1.03979	0.0206848	-0.0347627	0.0649532	-0.997068	0.71244	-1.22617	9.66563	0.0175087	0.00620342	0.00123266	-0.540771	0.150635	-1.08423	
11	-0.117832	-0.0715956	0.00301232	0.990445	-1.55612	0.234987	10.9272	-0.0166847	-0.00724299	0.0106773	-0.159424	0.216309	-1.12231	-0.195132	-0.218473	0.0019286	0.956133	-3.99816	1.13333	9.14241	-0.000839591	0.0154925	-0.0189571	0.271729	-0.0505371	-1.0603	0.365008	0.236071	-0.303494	-0.847898	-1.95235	7.19013	7.40566	0.00723003	0.0067246	-0.00266031	-0.0546875	-0.557861	-0.968506	-0.431338	0.12096	-0.563545	-0.69407	-6.43218	6.62375	3.36968	-0.0100118	0.00328453	9.67416e-05	0.422607	-0.952881	-0.209717	-0.140269	-0.211245	-0.19766	0.946906	-4.43551	-3.12433	8.13125	0.0115211	0.012749	-0.0158668	0.241455	0.439697	-0.974121	-0.729143	0.0459755	-0.279422	0.623025	-4.00165	-5.13834	11.0731	0.0113266	0.0172537	-0.0186306	0.356445	0.843994	-0.61499	0.154402	-0.330368	-0.0918447	-0.926597	6.70558	0.529595	7.99698	-0.0537469	0.223867	0.0144618	-0.911621	0.0751953	-0.532959	-0.170483	-0.941107	-0.162713	0.242443	-4.26413	2.34558	-7.11356	0.0154707	0.0206637	-0.0199968	0.7771	0.00805664	0.782471	0.0205775	-0.00531482	0.027779	0.999388	-0.128968	0.576917	10.6368	0.00287404	0.00863087	-0.0173928	-0.361572	0.0505371	-0.993896	0.0615503	-0.00405142	-0.0287706	-0.997681	0.559905	0.555662	10.6057	-0.000845026	0.0121809	0.00622764	-0.501221	0.0112305	-1.0376	0.0206221	-0.0348175	0.0649929	-0.997065	0.632626	-1.26119	9.76189	-0.0109567	0.00520549	-0.0054699	-0.545166	0.148438	-1.08203	
12	-0.11805	-0.0716641	0.00266095	0.990415	-1.59484	0.255993	10.9256	-0.0128651	0.00265382	0.00701697	-0.161865	0.220459	-1.12012	-0.195166	-0.21857	0.00205162	0.956103	-4.13512	1.12943	9.17305	-0.00617225	0.0168778	-0.013467	0.27417	-0.0593262	-1.06006	0.364762	0.236076	-0.303645	-0.847949	-1.94852	7.20838	7.34748	0.00951069	-0.00852943	-0.00513335	-0.050293	-0.558105	-0.970947	-0.431477	0.121188	-0.563525	-0.69396	-6.37322	6.58319	3.35367	0.00731579	0.0108417	-0.0148024	0.422852	-0.955078	-0.211914	-0.140495	-0.211399	-0.197418	0.946888	-4.45546	-2.97269	8.11164	0.000238991	0.0094587	-0.00723234	0.24585	0.435303	-0.976318	-0.729156	0.0457231	-0.279488	0.622999	-3.95055	-5.10025	10.9914	0.00490087	0.0267445	-0.00797344	0.358398	0.846191	-0.617188	0.154839	-0.326177	-0.0890965	-0.928275	6.63111	0.574654	7.97985	-0.0563592	0.206463	0.0112343	-0.918457	0.0795898	-0.545898	-0.168639	-0.94152	-0.162497	0.242273	-4.23247	2.32986	-7.07755	0.089433	0.0457211	-0.0277337	0.7771	0.00585938	0.777832	0.020478	-0.00552146	0.0280358	0.999382	-0.127127	0.574952	10.5712	0.0211266	0.0170478	-0.0149346	-0.35498	0.0576172	-0.994141	0.0615275	-0.00414452	-0.0287269	-0.997683	0.525452	0.451788	10.5073	-0.00089269	0.0079732	0.00192093	-0.494629	0.0090332	-1.04224	0.0206451	-0.0350009	0.0644176	-0.997095	0.636554	-1.24802	9.6921	0.0319304	-0.0021778	-0.00241222	-0.541016	0.152832	-1.08667	
13	-0.118232	-0.0716418	0.00254486	0.990395	-1.60772	0.187791	10.9003	-0.00223197	-0.00745527	0.00513986	-0.16626	0.218262	-1.11572	-0.195045	-0.218552	0.00210978	0.956132	-4.00997	1.16368	9.13974	-0.00194904	0.00681558	-0.0136018	0.271973	-0.0549316	-1.05786	0.364557	0.235997	-0.303918	-0.84796	-1.91178	7.21039	7.39393	0.0158962	-0.00174994	-0.00574836	-0.0524902	-0.555908	-0.961914	-0.431667	0.121412	-0.563468	-0.693849	-6.38334	6.54578	3.3088	-0.00257869	0.00487522	-0.00882624	0.422363	-0.948486	-0.211914	-0.140477	-0.211401	-0.197383	0.946898	-4.41591	-3.04555	8.09329	0.00314804	0.00814405	-0.0126275	0.243896	0.430664	-0.969482	-0.729225	0.0454978	-0.279467	0.622944	-3.88168	-5.03152	10.9632	0.00641061	0.0185325	-0.0110156	0.354004	0.848145	-0.619385	0.15527	-0.321734	-0.0865668	-0.929992	6.55013	0.477382	8.0906	-0.0453173	0.219923	0.00424168	-0.907959	0.0883789	-0.554443	-0.168036	-0.941672	-0.162709	0.241957	-4.27133	2.29727	-7.0887	0.00946454	0.0314945	-0.0260835	0.779297	0.00805664	0.780029	0.020421	-0.00586742	0.0281743	0.999377	-0.159768	0.559624	10.5892	0.00464551	0.0171084	-0.0204755	-0.357178	0.057373	-0.989502	0.0617743	-0.00407187	-0.0289397	-0.997662	0.514581	0.512167	10.5649	0.0140714	0.00682258	0.0102913	-0.499023	0.0112305	-1.04004	0.0206611	-0.0352225	0.0641796	-0.997103	0.610615	-1.05602	9.82052	-0.00480032	-0.000142229	-0.00624038	-0.552246	0.155029	-1.0752	
14	-0.118148	-0.0714992	0.00276101	0.990415	-1.54828	0.258401	10.9281	0.0101522	-0.00825194	-0.00253679	-0.161621	0.216309	-1.12231	-0.194941	-0.218528	0.00214162	0.956158	-4.03363	1.14258	9.16951	-0.0113774	0.016287	-0.0221788	0.271973	-0.0549316	-1.06006	0.364426	0.235955	-0.304125	-0.847955	-1.88834	7.24465	7.41456	0.00343057	0.000233236	-0.000805766	-0.050293	-0.558105	-0.966309	-0.431719	0.121274	-0.563544	-0.693779	-6.38954	6.62271	3.33908	0.00900826	0.002538	0.00420777	0.427246	-0.952881	-0.209717	-0.140481	-0.211382	-0.197427	0.946892	-4.47591	-3.033	8.1078	-0.0110155	0.00720205	-0.0107517	0.245605	0.439697	-0.97168	-0.72918	0.0455407	-0.279574	0.622945	-3.93502	-5.06812	10.9887	0.000641666	0.0191452	-0.0169748	0.362549	0.848145	-0.619385	0.155641	-0.317717	-0.0841239	-0.931534	6.53187	0.472745	8.11709	-0.0457183	0.201599	0.00371537	-0.894775	0.0839844	-0.556641	-0.168199	-0.941637	-0.162917	0.241839	-4.24443	2.31065	-7.10057	-0.000759765	0.0177002	-0.0242785	0.781006	0.0146484	0.784668	0.0204957	-0.00586263	0.028157	0.999376	-0.115432	0.58935	10.5782	0.00355435	0.00395857	-0.0210407	-0.357178	0.057373	-0.989502	0.0615661	-0.0040966	-0.0284649	-0.997689	0.534025	0.442466	10.4616	-0.0218926	0.0104169	-0.00438945	-0.499023	0.0112305	-1.04004	0.0206207	-0.0354724	0.0642993	-0.997087	0.712499	-1.32865	9.70792	0.0213712	-0.004042	-0.00493283	-0.542969	0.150635	-1.08423	
15	-0.118112	-0.0714286	0.00291176	0.990424	-1.54505	0.302789	10.931	0.00351735	-0.0104801	-0.000270106	-0.157227	0.214111	-1.12012	-0.194819	-0.218673	0.0020924	0.95615	-4.04194	1.14693	9.18061	-0.0045581	0.0142662	-0.0142243	0.276367	-0.0549316	-1.05298	0.364415	0.23596	-0.303978	-0.848011	-1.93264	7.19645	7.37433	0.00179766	0.00795139	-0.00323947	-0.0524902	-0.560303	-0.964111	-0.4318	0.121275	-0.563504	-0.693761	-6.38568	6.58751	3.331	0.00131923	0.00201063	-0.00244221	0.425049	-0.955078	-0.211914	-0.140535	-0.211123	-0.19769	0.946887	-4.46528	-3.05535	8.11839	-0.0143126	-0.00422104	-0.0125394	0.241455	0.4375	-0.976318	-0.729313	0.0456469	-0.279795	0.622683	-3.96601	-5.12063	11.0014	-0.00997556	0.0175994	-0.00291544	0.362549	0.848145	-0.617432	0.155918	-0.313077	-0.0820203	-0.933244	6.41463	0.465102	8.15252	-0.0417497	0.216893	0.00278912	-0.890869	0.0883789	-0.567383	-0.167517	-0.941746	-0.162812	0.241961	-4.24623	2.29372	-7.06159	0.0407001	0.0141265	-0.020439	0.772217	0.0168457	0.780029	0.0203992	-0.00593123	0.0281662	0.999377	-0.126014	0.568864	10.5782	0.00377556	0.010808	-0.0134852	-0.362061	0.0598145	-0.987549	0.0616497	-0.00439381	-0.0287558	-0.997674	0.53323	0.491949	10.4018	0.0156125	-0.000987916	0.00983649	-0.496826	0.0090332	-1.0354	0.0206967	-0.0356543	0.0640176	-0.997097	0.687345	-1.32396	9.58407	0.0236606	-0.00843388	0.00126969	-0.547607	0.150635	-1.07739	
16	-0.118036	-0.0716483	0.00284505	0.990417	-1.58042	0.306223	10.9115	-0.00232017	0.00820059	-0.00477077	-0.161621	0.214111	-1.12231	-0.194879	-0.218362	0.00215278	0.956209	-4.02783	1.15025	9.1689	-0.00827405	0.00238301	-0.0156409	0.27417	-0.0593262	-1.06226	0.364297	0.235948	-0.303992	-0.84806	-1.87176	7.21141	7.40744	0.00957186	-0.00296673	-0.00521782	-0.0588379	-0.560059	-0.96167	-0.431765	0.121182	-0.563648	-0.693682	-6.41033	6.59471	3.33926	0.0145421	0.00925255	0.00578038	0.424805	-0.950684	-0.209717	-0.140672	-0.211058	-0.197854	0.946847	-4.48855	-3.11227	8.07515	0.00515017	0.00812522	-0.00924284	0.247803	0.439697	-0.97168	-0.729356	0.0456191	-0.279957	0.622561	-3.94216	-5.00054	10.9906	-0.00133749	0.0225116	-0.0126729	0.355957	0.852539	-0.619629	0.156321	-0.309464	-0.0799297	-0.934563	6.40064	0.407235	8.20564	-0.0264899	0.184881	0.00244888	-0.890869	0.0883789	-0.575684	-0.166339	-0.941937	-0.162817	0.242028	-4.28856	2.24883	-7.17053	0.0714805	0.0207233	-0.0317011	0.774414	0.019043	0.786865	0.020319	-0.00579913	0.0281082	0.999382	-0.194356	0.539603	10.6484	0.000702265	-0.00429659	-0.0176476	-0.356934	0.0529785	-0.998535	0.0615685	-0.00488867	-0.0279182	-0.9977	0.518722	0.536509	10.5172	-0.0586122	-0.0109092	-0.00370099	-0.501221	0.0109863	-1.04443	0.0208013	-0.035858	0.0621177	-0.997208	0.714132	-1.13443	9.779	0.0429121	0.0169602	-0.00307241	-0.54541	0.150635	-1.08203	
17	-0.118001	-0.0717677	0.00261348	0.990413	-1.57859	0.265573	10.9322	-0.00994251	0.000999968	0.000992245	-0.163818	0.216064	-1.12012	-0.194759	-0.21822	0.00227484	0.956266	-4.05076	1.14273	9.16591	-0.000494529	0.00128135	-0.0131699	0.267578	-0.0549316	-1.06494	0.36436	0.23593	-0.303875	-0.848079	-2.01266	7.17376	7.41274	-0.00334871	0.00599713	0.00431949	-0.0546875	-0.553711	-0.959717	-0.431516	0.120983	-0.563829	-0.693725	-6.36478	6.6245	3.32963	0.0112971	0.00726071	0.0149952	0.422607	-0.952881	-0.209717	-0.140789	-0.210693	-0.198	0.946881	-4.445	-3.034	8.06625	-0.0125582	-0.00498689	-0.0108801	0.24585	0.4375	-0.974121	-0.729359	0.0459236	-0.280274	0.622393	-3.93977	-5.10347	10.9221	-0.00803766	0.0143947	-0.0140095	0.355957	0.852539	-0.617432	0.156525	-0.307566	-0.0790045	-0.935233	6.29669	0.407403	8.28594	-0.0247325	0.188354	0.00180289	-0.882324	0.0927734	-0.578125	-0.165476	-0.942029	-0.162686	0.242346	-4.22746	2.27859	-7.09452	0.0807006	0.00191105	-0.0270075	0.774658	0.0146484	0.777588	0.0203091	-0.00536714	0.0280221	0.999387	-0.0884589	0.593719	10.5089	0.00247682	-0.0117936	-0.0161601	-0.364014	0.0551758	-0.989502	0.0614274	-0.00523159	-0.027543	-0.997718	0.571928	0.390912	10.555	-0.0289005	-0.0110424	-0.0068561	-0.503662	0.0109863	-1.0376	0.0208738	-0.0350989	0.0603951	-0.997339	0.630532	-1.28587	9.72999	0.0883109	0.0368831	-0.00118029	-0.544922	0.141846	-1.07495	
18	-0.118005	-0.071894	0.00244072	0.990404	-1.60806	0.262842	10.9242	-0.012117	0.00816547	4.92861e-05	-0.159424	0.216309	-1.11792	-0.194847	-0.218052	0.00233711	0.956286	-4.02976	1.14679	9.14489	-0.00914802	0.00293146	-0.0107486	0.269531	-0.0505371	-1.06274	0.364462	0.235848	-0.303721	-0.848114	-1.90505	7.2365	7.37348	-0.0119598	0.00552878	0.00443606	-0.0524902	-0.555908	-0.961914	-0.431486	0.120879	-0.56392	-0.693687	-6.35084	6.6358	3.29993	0.0122966	0.00416911	0.0067071	0.427246	-0.952881	-0.20752	-0.140811	-0.210533	-0.198109	0.94689	-4.46546	-3.02621	8.08103	-0.0101771	-0.00327163	-0.0145619	0.247803	0.439697	-0.97876	-0.729414	0.0460374	-0.280384	0.62227	-3.96809	-5.12151	10.9931	-0.0111829	0.0150447	-0.00717501	0.355957	0.850342	-0.619629	0.156735	-0.304109	-0.077416	-0.936461	6.25947	0.409	8.31258	-0.0289725	0.163344	0.000538019	-0.882324	0.0927734	-0.59082	-0.163975	-0.94226	-0.162703	0.242458	-4.23372	2.24097	-7.09027	0.0624002	0.0156461	-0.0237317	0.778809	0.019043	0.780029	0.0202907	-0.00522045	0.0279673	0.999389	-0.0624287	0.550701	10.5608	0.000459528	-0.00556872	-0.0164217	-0.359619	0.057373	-0.991943	0.0614498	-0.00545838	-0.027777	-0.997709	0.54311	0.490664	10.4812	-0.00090455	0.00793208	0.00667054	-0.505859	0.0109863	-1.04224	0.0210031	-0.035065	0.0590265	-0.997419	0.652329	-1.18392	9.70123	0.111265	0.00760899	0.00336755	-0.544922	0.141846	-1.08643	
19	-0.118016	-0.071875	0.00225986	0.990405	-1.62227	0.252381	10.9396	-0.00569063	-0.00477508	-0.00109047	-0.159424	0.211914	-1.11792	-0.194974	-0.217847	0.00236551	0.956306	-4.00313	1.15602	9.17488	-0.0120246	0.0140541	-0.0142024	0.27002	-0.0593262	-1.05762	0.364584	0.235657	-0.303558	-0.848173	-1.96825	7.14162	7.38445	0.00444044	-0.0015242	0.00310716	-0.0524902	-0.553711	-0.973389	-0.43145	0.120967	-0.564015	-0.693618	-6.40966	6.64516	3.36649	0.00587036	0.0112832	-0.00104248	0.424805	-0.950684	-0.209717	-0.141063	-0.210201	-0.198708	0.946801	-4.40476	-3.18433	8.14079	-0.021421	0.000358556	-0.00771575	0.241211	0.441895	-0.974121	-0.729602	0.0461463	-0.280495	0.621993	-3.98048	-5.14989	10.9714	-0.00100959	0.0123269	-0.00565143	0.366699	0.852539	-0.613281	0.157038	-0.300787	-0.0755896	-0.937632	6.20649	0.345941	8.43112	-0.026354	0.155529	0.000178894	-0.876221	0.0993652	-0.591064	-0.163882	-0.942272	-0.162709	0.242471	-4.25346	2.22525	-7.12965	0.0145105	0.0163274	-0.0209768	0.774414	0.019043	0.780029	0.0202332	-0.00511893	0.0279896	0.99939	-0.120009	0.548529	10.622	0.00581524	0.00308091	-0.016162	-0.366455	0.057373	-0.987305	0.0614011	-0.0056426	-0.0273703	-0.997722	0.518957	0.453359	10.4801	-0.0305813	0.00245507	0.000302743	-0.501221	0.00683594	-1.04443	0.0211748	-0.0348313	0.0572625	-0.997527	0.616255	-1.05335	9.78609	0.0572125	0.00740647	1.39574e-05	-0.544678	0.137207	-1.07959	
20	-0.118043	-0.0718848	0.00200646	0.990401	-1.57042	0.231234	10.906	-0.0103182	0.000597084	0.00352397	-0.161865	0.220459	-1.12012	-0.19473	-0.217894	0.0023521	0.956346	-4.02664	1.10695	9.1519	-0.00308454	0.00983309	-0.0190133	0.267822	-0.0615234	-1.05981	0.364688	0.23583	-0.303741	-0.848014	-1.90789	7.24442	7.39253	0.00681746	0.0131479	0.00391898	-0.0568848	-0.553711	-0.961914	-0.431456	0.12087	-0.564065	-0.69359	-6.3717	6.62606	3.33848	0.00443747	0.00223683	0.00353501	0.424805	-0.950684	-0.209717	-0.141013	-0.210275	-0.198294	0.946879	-4.43481	-3.07703	8.09275	0.0211733	0.0111382	-0.0105182	0.245605	0.439697	-0.974121	-0.729659	0.0462834	-0.280509	0.621908	-3.96565	-5.11702	10.9625	0.00196224	0.0115338	-0.0154841	0.362793	0.843994	-0.61499	0.157178	-0.299501	-0.074817	-0.938081	6.17506	0.319466	8.44355	-0.0207614	0.13498	-0.00137936	-0.874023	0.0993652	-0.597412	-0.164328	-0.942145	-0.163165	0.242356	-4.22182	2.2209	-7.11696	-0.0128933	0.0144403	-0.0226952	0.778809	0.0168457	0.782227	0.0201764	-0.00504311	0.0280002	0.999392	-0.119018	0.570701	10.5982	0.0068205	0.00331326	-0.0158182	-0.364258	0.0595703	-0.987549	0.0613597	-0.00561459	-0.027073	-0.997733	0.581016	0.446779	10.5659	0.0110813	0.0196397	0.000798512	-0.501221	0.0090332	-1.04224	0.021153	-0.034862	0.0570871	-0.997536	0.643289	-1.05352	9.80592	0.000914565	0.0116406	-0.00741083	-0.540283	0.139648	-1.08179	
21	-0.118129	-0.0718623	0.00189835	0.990393	-1.58901	0.207027	10.9042	-0.00317438	-0.00568914	0.00219787	-0.161621	0.216309	-1.12231	-0.194656	-0.217676	0.00263608	0.956409	-3.99595	1.15893	9.16949	-0.00241368	0.00524397	-0.0174969	0.271973	-0.0571289	-1.06006	0.364639	0.235698	-0.303781	-0.848058	-1.91128	7.15788	7.38553	0.00625778	-0.00433931	-0.000435013	-0.0568848	-0.555664	-0.966309	-0.431511	0.120901	-0.56422	-0.693424	-6.36209	6.62446	3.34171	0.0100702	0.0106147	-0.00497529	0.42041	-0.950684	-0.214111	-0.141202	-0.210171	-0.198349	0.946862	-4.48962	-3.04739	8.0544	-0.016301	-0.00103088	-0.00299889	0.245605	0.441895	-0.969482	-0.729745	0.0463121	-0.28052	0.6218	-3.99204	-5.10311	10.9817	-0.00731947	0.0151774	-0.00802746	0.360596	0.848145	-0.617432	0.157337	-0.295903	-0.0733361	-0.939313	6.12313	0.352038	8.44719	-0.00618576	0.113487	-0.0109161	-0.865479	0.101562	-0.60376	-0.164292	-0.942151	-0.163164	0.242358	-4.23297	2.20084	-7.12523	0.0171515	0.0144903	-0.0177667	0.772217	0.0212402	0.782227	0.0201488	-0.00505011	0.0280979	0.999389	-0.123597	0.533815	10.592	0.0102019	0.00888162	-0.0192561	-0.361572	0.0483398	-0.989502	0.0612097	-0.00565387	-0.0265794	-0.997755	0.513514	0.416766	10.4339	-0.0265972	0.00492389	5.78207e-05	-0.501465	0.0175781	-1.03564	0.0211129	-0.0346956	0.0571946	-0.997537	0.628828	-1.22144	9.6726	0.0125089	0.0123504	-0.00333666	-0.547119	0.137207	-1.07495	
22	-0.118111	-0.0718914	0.0020031	0.990393	-1.57693	0.239347	10.9069	0.00457329	-0.00111056	-0.000868314	-0.159668	0.218262	-1.11572	-0.194799	-0.217524	0.00281169	0.956415	-4.02208	1.13706	9.15768	-0.0054882	0.0070017	-0.0104759	0.263428	-0.0571289	-1.05542	0.364417	0.235748	-0.304076	-0.848033	-1.95526	7.31834	7.44787	0.0170525	0.00297779	-0.00438958	-0.050293	-0.558105	-0.96875	-0.43154	0.121082	-0.564379	-0.693245	-6.42659	6.55725	3.32346	0.000833809	0.0108098	-0.00448493	0.429443	-0.952881	-0.200928	-0.141329	-0.210066	-0.198411	0.946854	-4.41065	-3.12768	8.09962	0.00377069	0.0046184	-0.0115766	0.241455	0.439697	-0.976318	-0.729834	0.0463583	-0.280559	0.621675	-3.94107	-5.08852	10.9617	-0.003807	0.0136639	-0.00494196	0.358398	0.846191	-0.613037	0.157506	-0.294111	-0.0723057	-0.939927	6.06196	0.296428	8.52084	-0.00378638	0.0915861	-0.00709695	-0.869873	0.101562	-0.614502	-0.163607	-0.942273	-0.163176	0.242339	-4.25139	2.20383	-7.14596	0.0302539	0.0139227	-0.01495	0.776367	0.0253906	0.784424	0.0201656	-0.00507196	0.0281999	0.999386	-0.150906	0.540987	10.5985	0.00547091	0.00598855	-0.0196433	-0.356934	0.0529785	-0.991699	0.061236	-0.00565379	-0.026994	-0.997742	0.583865	0.431056	10.5196	0.0195086	0.0195933	0.00316217	-0.499023	0.0112305	-1.04224	0.0211619	-0.0346058	0.057105	-0.997544	0.681894	-1.16865	9.73356	0.00247983	0.0105318	-0.00141926	-0.54248	0.135254	-1.08643	
23	-0.118088	-0.0720008	0.00206147	0.990387	-1.58428	0.23236	10.9337	0.00391067	0.00133983	0.000306693	-0.157471	0.218506	-1.12012	-0.194676	-0.217347	0.00303828	0.956479	-3.9875	1.17352	9.14577	-0.00116533	0.00633128	-0.025925	0.267822	-0.0615234	-1.05981	0.364608	0.235607	-0.303885	-0.84806	-1.88454	7.15331	7.39124	-0.00390014	0.00641837	0.00359499	-0.0480957	-0.558105	-0.957275	-0.431575	0.120896	-0.564511	-0.693148	-6.394	6.63804	3.29986	0.013633	0.00169237	0.00392396	0.422363	-0.948486	-0.205322	-0.141352	-0.210014	-0.19833	0.946879	-4.43893	-3.05897	8.11212	0.000286586	0.00753415	-0.009683	0.243652	0.439697	-0.976318	-0.729717	0.046385	-0.280733	0.621732	-3.92936	-5.09828	10.9354	-0.00100819	0.0136866	-0.0155911	0.360596	0.846191	-0.61084	0.157608	-0.292772	-0.07147	-0.940392	6.05626	0.303921	8.50254	-0.000290324	0.0744959	-0.00933777	-0.871826	0.0993652	-0.610107	-0.163934	-0.942222	-0.163236	0.242275	-4.27251	2.2123	-7.12849	-0.0144792	0.0071155	-0.0137792	0.776611	0.019043	0.784668	0.0202253	-0.00497876	0.0282582	0.999384	-0.0893818	0.606188	10.6252	0.00338206	0.000412015	-0.0200272	-0.361816	0.0551758	-0.989502	0.061083	-0.00568005	-0.0265099	-0.997764	0.527145	0.442957	10.4563	-0.0147663	0.0114801	-0.00446184	-0.501221	0.0112305	-1.04004	0.0211602	-0.0344919	0.0572228	-0.997541	0.6244	-1.11093	9.72295	-0.00783525	0.012759	-0.00361407	-0.544678	0.13501	-1.08398	
24	-0.118085	-0.0720319	0.00212465	0.990385	-1.60878	0.25853	10.9137	0.00587358	-0.00211226	3.53426e-05	-0.161865	0.218506	-1.12451	-0.19474	-0.217226	0.0031439	0.956493	-4.01627	1.17571	9.22508	-0.0110183	0.0142636	-0.0124348	0.271973	-0.0549316	-1.0625	0.364359	0.235783	-0.304022	-0.848068	-1.88329	7.25212	7.39097	0.0147864	0.00181751	-0.010019	-0.0524902	-0.558105	-0.966309	-0.431598	0.120946	-0.564538	-0.693104	-6.37555	6.57676	3.28535	0.000796918	0.00896139	-0.00373502	0.424805	-0.952881	-0.20752	-0.141422	-0.209929	-0.198272	0.946899	-4.44697	-3.05467	8.10859	-0.00185437	0.00300981	-0.00820547	0.243408	0.441895	-0.969482	-0.729781	0.0463681	-0.280817	0.621619	-3.97066	-5.11805	11.007	0.00138314	0.0178243	-0.00920599	0.364746	0.848145	-0.615234	0.157707	-0.291901	-0.0709927	-0.940682	6.03483	0.320679	8.5158	0.0108494	0.0513085	-0.0127654	-0.863037	0.0952148	-0.614258	-0.163369	-0.94231	-0.163062	0.242433	-4.24823	2.24466	-7.14042	0.0347164	0.0126371	-0.0167969	0.772217	0.0209961	0.784668	0.0201711	-0.00495991	0.0281857	0.999387	-0.12342	0.545035	10.5939	0.00320377	0.006856	-0.016132	-0.361816	0.0551758	-0.985107	0.0609606	-0.0058735	-0.0264985	-0.997771	0.536985	0.473259	10.4082	0.0129903	0.0088203	0.000332272	-0.499268	0.0134277	-1.04468	0.0211324	-0.0347646	0.057302	-0.997528	0.65424	-1.17013	9.6394	0.00217334	-0.0109448	-0.00439068	-0.54248	0.135254	-1.08398	
25	-0.117997	-0.071977	0.00232679	0.990399	-1.57645	0.293942	10.9217	0.00354011	-0.00179045	-0.00508502	-0.159424	0.214111	-1.12427	-0.19466	-0.21726	0.00338387	0.956501	-4.00112	1.17378	9.12235	0.0033387	0.0101415	-0.0220142	0.272217	-0.0615234	-1.06226	0.364387	0.235811	-0.304036	-0.848043	-1.90123	7.193	7.42423	0.0149428	0.00849816	0.000885734	-0.0568848	-0.555664	-0.966309	-0.431627	0.120997	-0.564607	-0.69302	-6.40239	6.62306	3.32151	0.00828325	0.00992789	-0.00516603	0.425049	-0.955078	-0.205322	-0.141618	-0.209814	-0.198524	0.946843	-4.4005	-3.09811	8.10918	-0.0095953	0.00546455	-0.00704771	0.245605	0.439697	-0.976318	-0.729838	0.046265	-0.280824	0.621557	-3.91363	-5.09017	10.9355	0.00489427	0.0186347	-0.0138858	0.360596	0.846191	-0.608643	0.157797	-0.291053	-0.0705883	-0.94096	6.00965	0.310301	8.54312	0.00853381	0.0524532	-0.0119293	-0.861328	0.101562	-0.616455	-0.163359	-0.942322	-0.163097	0.242368	-4.25307	2.21979	-7.12014	0.00741791	0.0203673	-0.0193565	0.778564	0.0234375	0.782227	0.0200968	-0.00494791	0.0282797	0.999386	-0.148004	0.579687	10.6122	0.0052208	0.00509465	-0.015583	-0.364014	0.0551758	-0.989502	0.0609182	-0.00606594	-0.0265972	-0.99777	0.529642	0.483539	10.4073	0.00973303	-0.0015659	0.000510413	-0.501221	0.0090332	-1.03296	0.0211739	-0.0349254	0.0569488	-0.997541	0.689286	-1.11754	9.66315	0.0292882	-0.00649161	-0.00143386	-0.542236	0.128418	-1.08398	
26	-0.117935	-0.0720657	0.00225582	0.9904	-1.59953	0.309451	10.9311	-0.00429821	0.00377324	-0.00484928	-0.161865	0.218262	-1.11792	-0.194609	-0.217116	0.00364	0.956543	-4.0174	1.12763	9.21642	0.00808025	0.000469854	-0.0185849	0.269775	-0.0549316	-1.0625	0.36433	0.23592	-0.304139	-0.848	-1.94104	7.29813	7.41775	0.0160653	0.0088121	-0.0039339	-0.0546875	-0.555908	-0.961914	-0.43155	0.120989	-0.564637	-0.693045	-6.4283	6.61225	3.2881	0.00120797	0.00633109	0.00811812	0.422607	-0.952881	-0.20752	-0.141498	-0.209745	-0.198209	0.946942	-4.49462	-2.96	8.09408	0.00739237	0.00352303	-0.0157668	0.241455	0.4375	-0.974121	-0.729813	0.0462226	-0.280803	0.6216	-3.9525	-5.06556	11.0252	0.00797473	0.0167577	-0.0183132	0.364746	0.848145	-0.619385	0.157836	-0.290841	-0.0703938	-0.941034	6.0143	0.284184	8.53725	0.00873071	0.036534	-0.0110141	-0.861328	0.10376	-0.62085	-0.163138	-0.94235	-0.163034	0.242451	-4.23628	2.18724	-7.1249	0.0287606	0.00830068	-0.0175721	0.778564	0.0212402	0.782227	0.0201027	-0.00489089	0.0281798	0.999389	-0.15409	0.572816	10.5977	-0.00324846	0.00139336	-0.018681	-0.361816	0.057373	-0.994141	0.0609201	-0.0061307	-0.0261744	-0.997781	0.574012	0.485918	10.5498	-0.0215987	0.0182855	0.00283466	-0.499268	0.015625	-1.03784	0.0212394	-0.0350208	0.056017	-0.997589	0.706438	-1.06173	9.76479	0.0425265	0.00748193	0.000655695	-0.540039	0.133057	-1.08179	
27	-0.117935	-0.0721438	0.00198344	0.990395	-1.57156	0.253714	10.9013	-0.000768095	-0.00235957	-0.00753002	-0.162109	0.222656	-1.11572	-0.194623	-0.216582	0.00392126	0.95666	-3.97615	1.1877	9.20463	-0.0290665	0.00199809	-0.0129774	0.267578	-0.0549316	-1.06006	0.364363	0.235702	-0.303935	-0.84812	-1.85657	7.19762	7.42594	0.00217809	0.0065096	-0.0056447	-0.0566406	-0.560059	-0.966309	-0.431561	0.120813	-0.564764	-0.692965	-6.3935	6.68876	3.3341	0.0100035	0.00269742	0.000414647	0.424805	-0.948486	-0.20752	-0.141599	-0.209629	-0.198417	0.946909	-4.46077	-3.08702	8.05818	-0.00928152	0.000150492	-0.010452	0.245605	0.439697	-0.969482	-0.729901	0.046341	-0.280808	0.621485	-3.95817	-5.10567	10.9276	0.0023233	0.0118284	-0.00942598	0.366943	0.846191	-0.613037	0.157786	-0.290949	-0.0703934	-0.941009	6.079	0.313003	8.61444	0.0281695	-0.0295324	-0.0162414	-0.861084	0.0993652	-0.614258	-0.163356	-0.942305	-0.16307	0.242454	-4.23913	2.20972	-7.10603	-0.00321481	0.0149398	-0.0179887	0.780762	0.0212402	0.786865	0.0201591	-0.00481316	0.0281285	0.999389	-0.0977099	0.573561	10.5777	0.00081134	-0.000656733	-0.0231203	-0.364258	0.057373	-0.994141	0.0608882	-0.00640047	-0.0259118	-0.997788	0.577921	0.477079	10.4726	-0.00100735	0.00658259	0.00334621	-0.501465	0.0153809	-1.04004	0.0213991	-0.0346646	0.0547106	-0.997671	0.649013	-1.02041	9.72952	0.0712252	0.0256166	0.00334183	-0.542236	0.130615	-1.08398	
28	-0.117908	-0.0721705	0.001893	0.990397	-1.61996	0.290541	10.9322	-0.00580429	-0.000563761	-0.00264877	-0.159668	0.218262	-1.11792	-0.194786	-0.216526	0.00382804	0.95664	-3.98164	1.15189	9.17697	-0.0202151	0.0140617	-0.00715903	0.267822	-0.0593262	-1.06226	0.364298	0.235827	-0.303927	-0.848116	-1.88652	7.19679	7.45891	0.00789651	0.0121215	-0.00811669	-0.0546875	-0.555908	-0.964111	-0.431528	0.120904	-0.564663	-0.693053	-6.37691	6.63848	3.32823	-0.00566632	0.00754778	0.00134718	0.427246	-0.952881	-0.20752	-0.141656	-0.209515	-0.198515	0.946905	-4.43693	-3.08786	8.14	-0.00941196	-0.000511313	-0.0106798	0.24585	0.435303	-0.976318	-0.730073	0.0464017	-0.281108	0.621143	-4.01884	-5.1436	10.9907	-0.00923443	0.0217118	-0.000995666	0.362549	0.850342	-0.61084	0.157828	-0.290637	-0.0706	-0.941082	6.05431	0.355004	8.33432	0.0400982	0.0392786	-0.0202038	-0.863525	0.10376	-0.612305	-0.162728	-0.942401	-0.163201	0.242415	-4.26909	2.19661	-7.1424	0.0265182	0.015013	-0.0193178	0.776367	0.0234375	0.779785	0.0203474	-0.00486814	0.0280315	0.999388	-0.119162	0.570117	10.6049	0.00400405	0.00431975	-0.0174836	-0.361816	0.0551758	-0.991943	0.0610603	-0.00629193	-0.025919	-0.997778	0.565862	0.487348	10.5805	-0.00127069	0.0160854	0.0119892	-0.505859	0.0109863	-1.04004	0.0215871	-0.034197	0.0528606	-0.997783	0.646849	-0.874328	9.81262	0.0879202	0.01441	-0.00237408	-0.542236	0.128418	-1.08398	
29	-0.11799	-0.0720764	0.0015998	0.990394	-1.58195	0.191609	10.9116	-0.00980653	-0.00515992	0.00093087	-0.161865	0.220459	-1.11792	-0.19473	-0.216508	0.00388819	0.956655	-4.00764	1.15575	9.19166	-0.00553099	0.0136825	-0.0255301	0.267578	-0.0571289	-1.06714	0.364554	0.235809	-0.303774	-0.848066	-1.97965	7.24352	7.35983	-0.0183463	0.0105286	0.0107333	-0.0546875	-0.555908	-0.964111	-0.431484	0.120968	-0.564507	-0.693196	-6.3782	6.57464	3.35811	-0.0156318	0.00397458	0.00417342	0.424805	-0.952881	-0.211914	-0.141866	-0.20962	-0.198613	0.94683	-4.42402	-3.20218	8.14702	0.00534065	0.0133692	-0.00235656	0.252197	0.441895	-0.97168	-0.730077	0.0462286	-0.280859	0.621264	-4.03757	-5.14809	10.9526	0.0209889	0.0108154	-0.0217878	0.364746	0.848389	-0.61084	0.157953	-0.289735	-0.0701065	-0.941376	6.0202	0.296346	8.48729	0.00831399	0.0588452	-0.0122402	-0.865479	0.0993652	-0.62085	-0.162663	-0.942433	-0.163233	0.242314	-4.26415	2.20213	-7.08279	-0.0100441	0.0175787	-0.0175198	0.776367	0.0212402	0.782227	0.0201949	-0.00483299	0.0280576	0.999391	-0.124196	0.49016	10.593	0.0108454	0.00463571	-0.0116254	-0.361816	0.0551758	-0.987305	0.0610494	-0.00631744	-0.0255991	-0.997786	0.536419	0.485388	10.5586	-0.0232099	0.0147512	0.00317702	-0.499268	0.0134277	-1.04224	0.0216053	-0.0339925	0.0523928	-0.997814	0.627051	-1.02921	9.75351	0.0342669	0.0113458	-0.00619526	-0.544434	0.126221	-1.08398	
30	-0.117943	-0.0721021	0.00153707	0.990398	-1.6266	0.189788	10.9311	0.00192097	-0.00467475	-0.000912537	-0.159668	0.220459	-1.11792	-0.194671	-0.216494	0.00386421	0.95667	-4.01539	1.13036	9.17912	-0.0115974	0.0172942	-0.0166788	0.271973	-0.0571289	-1.0625	0.364527	0.23581	-0.303603	-0.848139	-1.89949	7.15745	7.34619	0.00853197	0.00615699	-0.00958173	-0.0568848	-0.555664	-0.96875	-0.431438	0.121333	-0.564378	-0.693266	-6.37994	6.60702	3.30915	-0.00937077	0.0175181	-0.0122864	0.427246	-0.955078	-0.205322	-0.142095	-0.209728	-0.198106	0.946878	-4.51474	-3.04682	8.06517	0.0120702	0.00588447	0.00240796	0.24585	0.437256	-0.967285	-0.730061	0.0459284	-0.280827	0.621319	-4.02479	-5.10069	11.0353	0.0140975	0.0250245	-0.0115735	0.36499	0.846191	-0.617188	0.158091	-0.287769	-0.0692491	-0.942019	5.95498	0.281913	8.63967	-0.00274662	0.103359	-0.0121613	-0.86377	0.108154	-0.62085	-0.163098	-0.942362	-0.163237	0.242297	-4.21672	2.14003	-7.15216	-0.00196639	0.0126701	-0.0121672	0.77832	0.0275879	0.784424	0.02011	-0.00504041	0.0283497	0.999383	-0.117517	0.531485	10.598	0.0179589	0.01805	-0.0175646	-0.361816	0.0551758	-0.989502	0.0610707	-0.00612612	-0.0255549	-0.997787	0.540021	0.446143	10.4633	0.000603056	0.0214891	0.00505509	-0.501465	0.0153809	-1.03784	0.0215869	-0.033917	0.0524154	-0.997816	0.647216	-1.15061	9.67195	-0.000135343	0.0116739	-0.00238733	-0.544189	0.124023	-1.08154	
31	-0.11803	-0.0720754	0.00163685	0.990389	-1.58386	0.234591	10.9357	0.00582298	-0.00414642	0.00455522	-0.162109	0.222656	-1.12231	-0.194751	-0.2165	0.00390603	0.956653	-4.01485	1.12516	9.16156	-0.00771376	0.0161454	-0.0113797	0.27002	-0.0593262	-1.05762	0.36423	0.235857	-0.304377	-0.847975	-1.94285	7.2124	7.43745	0.0388175	-0.00369451	-0.00168088	-0.0566406	-0.557861	-0.964111	-0.431613	0.121751	-0.564388	-0.693075	-6.41723	6.61444	3.30219	0.00220585	0.0107801	-0.015497	0.427246	-0.952881	-0.20752	-0.142458	-0.20983	-0.198261	0.946768	-4.38252	-3.10318	8.13502	-0.00623739	0.0157848	-0.00123241	0.243652	0.439697	-0.974121	-0.730115	0.0454951	-0.280642	0.621371	-3.93056	-5.08695	10.905	0.0247146	0.0188244	-0.0119553	0.358154	0.852539	-0.613037	0.158108	-0.28743	-0.0687935	-0.942154	5.91796	0.292712	8.58804	0.00797045	0.0148054	-0.0115657	-0.85498	0.105957	-0.627197	-0.162773	-0.942484	-0.163003	0.242195	-4.27704	2.19923	-7.1177	0.0255983	0.0218658	-0.0124554	0.780762	0.0234375	0.779785	0.0201133	-0.00537343	0.0286644	0.999372	-0.115703	0.615701	10.5762	0.0133523	0.0179985	-0.0184411	-0.359375	0.0551758	-0.991943	0.0611035	-0.00638134	-0.02558	-0.997783	0.512294	0.38616	10.4719	0.00362926	-0.00552936	0.0067742	-0.499268	0.0134277	-1.04224	0.0216869	-0.0336695	0.0510979	-0.99789	0.621618	-0.980972	9.92318	0.0476013	0.0212221	0.00140326	-0.541992	0.124023	-1.09058	
32	-0.118096	-0.0720635	0.0017566	0.990382	-1.60445	0.253636	10.9454	0.00489274	-0.00708614	0.00352548	-0.162109	0.224854	-1.12012	-0.194304	-0.216961	0.00373888	0.95664	-3.97712	1.16579	9.17945	-0.0025557	0.0180542	-0.0185203	0.267578	-0.0571289	-1.0625	0.364213	0.235927	-0.304382	-0.847962	-1.84995	7.24338	7.4289	-0.00754926	0.00878518	-0.00176844	-0.0568848	-0.557861	-0.966309	-0.431668	0.12158	-0.564401	-0.69306	-6.36617	6.57844	3.26385	0.0109693	-0.00231434	0.00882115	0.422607	-0.950684	-0.209717	-0.142147	-0.210075	-0.197562	0.946907	-4.42784	-2.9304	8.06871	0.0380921	0.0140449	-0.023039	0.250244	0.435303	-0.976318	-0.730059	0.045533	-0.280568	0.621468	-3.86608	-5.02836	10.9313	-0.00023961	0.00959756	-0.0212377	0.360596	0.843994	-0.61084	0.158034	-0.287036	-0.0687333	-0.94229	5.97023	0.27891	8.53421	0.00916974	0.0243269	-0.0124514	-0.856934	0.101562	-0.62085	-0.162957	-0.942458	-0.162909	0.242237	-4.25283	2.18048	-7.12224	-0.00843176	0.0107127	-0.0149611	0.774414	0.0209961	0.786865	0.0201163	-0.00542006	0.0286179	0.999373	-0.124525	0.578335	10.5377	-0.00456745	0.00328217	-0.0197818	-0.359375	0.0551758	-0.991943	0.061174	-0.0060961	-0.025766	-0.997776	0.603784	0.394697	10.5945	0.00944723	0.0182007	0.00432082	-0.503662	0.0131836	-1.03784	0.0217052	-0.0335752	0.0504836	-0.997924	0.618441	-0.967423	9.67882	0.0215976	0.000650893	-0.00546126	-0.539551	0.117432	-1.08374	
33	-0.118081	-0.0720582	0.00194935	0.990384	-1.58357	0.257127	10.9187	0.0114901	-0.00173489	-0.00178719	-0.164062	0.220459	-1.12012	-0.194229	-0.217011	0.00390779	0.956643	-4.00171	1.22856	9.18802	0.00630395	0.013509	-0.0191628	0.265625	-0.0571289	-1.0647	0.364187	0.2358	-0.304016	-0.848139	-1.89436	7.19714	7.37687	-0.00866967	0.00247574	-0.00652874	-0.0524902	-0.558105	-0.96167	-0.431787	0.12172	-0.564064	-0.693236	-6.39571	6.63648	3.339	-0.0111783	0.000294859	-0.00869811	0.424805	-0.950684	-0.20752	-0.142271	-0.210041	-0.198116	0.94678	-4.50598	-3.08754	8.13148	-0.0467231	0.00626728	-0.00142947	0.243652	0.439697	-0.97876	-0.730246	0.0454069	-0.280517	0.621281	-4.01061	-5.13043	11.0245	0.00861447	0.0171652	-0.000172399	0.360352	0.850342	-0.613037	0.15798	-0.286414	-0.0683404	-0.942517	5.90307	0.329829	8.60818	0.00402542	0.04837	-0.0143919	-0.859131	0.0993652	-0.622803	-0.164234	-0.942215	-0.162974	0.242276	-4.26681	2.21279	-7.17069	-0.0464276	0.0016442	-0.00686534	0.774414	0.0209961	0.784668	0.0201131	-0.00578425	0.0285233	0.999374	-0.128517	0.540071	10.6201	0.00442856	0.0246446	-0.0189223	-0.357178	0.057373	-0.989502	0.061044	-0.00600885	-0.0257041	-0.997786	0.540656	0.431785	10.4374	-0.0135539	0.0203686	0.00139194	-0.499023	0.0112305	-1.04688	0.0216438	-0.0337773	0.0511875	-0.997883	0.61364	-1.06482	9.67866	-0.041692	0.00122805	-0.00344443	-0.544189	0.124023	-1.08618	
34	-0.117896	-0.0722535	0.00207097	0.990392	-1.60568	0.329698	10.9245	0.00489685	0.00712108	-0.00835537	-0.166504	0.222656	-1.12012	-0.194296	-0.21699	0.00389658	0.956634	-4.06166	1.21065	9.17142	-0.0119868	0.0156292	-0.013162	0.267578	-0.0571289	-1.05542	0.364187	0.2358	-0.304016	-0.848139	-1.89436	7.19714	7.37687	-0.00866967	0.00247574	-0.00652874	-0.0524902	-0.558105	-0.96167	-0.431822	0.121771	-0.563993	-0.693263	-6.41888	6.51264	3.35447	-0.0044467	0.00374241	-0.00306515	0.424561	-0.946289	-0.20752	-0.142382	-0.209969	-0.197977	0.946808	-4.4423	-3.15598	8.06797	0.0325695	0.00222617	-0.0106847	0.245605	0.439697	-0.974121	-0.730246	0.0454069	-0.280517	0.621281	-4.01061	-5.13043	11.0245	0.00861447	0.0171652	-0.000172399	0.360352	0.850342	-0.613037	0.158039	-0.286487	-0.0680733	-0.942505	5.93157	0.278719	8.65911	0.000257143	0.0149379	-0.00435148	-0.852783	0.101562	-0.625	-0.164234	-0.942215	-0.162974	0.242276	-4.26681	2.21279	-7.17069	-0.0464276	0.0016442	-0.00686534	0.774414	0.0209961	0.784668	0.0201387	-0.00591395	0.0285594	0.999372	-0.244387	0.570771	10.6622	0.00754118	0.0160525	-0.0212848	-0.357178	0.0551758	-0.989502	0.0610779	-0.00610696	-0.0255704	-0.997787	0.569886	0.419881	10.4512	-0.00873241	0.00719625	0.00671678	-0.501465	0.0153809	-1.04004	0.0216253	-0.0340101	0.0513511	-0.997867	0.644649	-1.03444	9.71871	-0.0122743	-0.0108461	-0.00518798	-0.544189	0.121826	-1.07935	
35	-0.117972	-0.072267	0.00167739	0.990382	-1.66224	0.27618	10.9033	-0.0219692	-0.00532177	0.00630082	-0.162109	0.222656	-1.12451	-0.194091	-0.216925	0.00379127	0.956691	-3.99459	1.14886	9.17338	-0.00754574	0.00604421	-0.0183999	0.269775	-0.0571289	-1.06006	0.364305	0.235919	-0.304181	-0.847996	-1.96073	7.25146	7.41843	-0.000394682	0.00110699	0.000595188	-0.0544434	-0.560059	-0.96167	-0.431713	0.121765	-0.564194	-0.693169	-6.40804	6.53384	3.31631	0.0205247	0.011034	0.00646074	0.424805	-0.952881	-0.214111	-0.142384	-0.209776	-0.197996	0.946847	-4.47825	-2.95469	8.06062	-0.0266198	-0.000567209	-0.0126952	0.245605	0.439697	-0.980957	-0.730041	0.0454757	-0.28075	0.621411	-3.93679	-5.03774	10.9603	-0.00647861	0.0155748	-0.021646	0.364746	0.850342	-0.615234	0.157988	-0.286267	-0.0681491	-0.942574	5.91173	0.286878	8.63178	0.0183381	0.00235706	-0.0140964	-0.857178	0.10376	-0.625	-0.164227	-0.942183	-0.163635	0.24196	-4.23877	2.22783	-7.17469	-0.00303194	0.0156031	-0.0212862	0.776855	0.0146484	0.777588	0.020068	-0.00565451	0.0285834	0.999374	-0.187754	0.619891	10.6067	0.00541014	-0.0112751	-0.0138347	-0.364014	0.0551758	-0.989502	0.0610648	-0.00627547	-0.0255568	-0.997787	0.529975	0.421973	10.4913	0.000465671	0.000718628	0.00145985	-0.506348	0.0219727	-1.04248	0.0215864	-0.0340656	0.0517181	-0.997847	0.614795	-1.10294	9.75612	-0.00623949	0.0190558	-0.00632351	-0.537598	0.126465	-1.08618	
36	-0.118048	-0.0721988	0.00140584	0.990379	-1.58356	0.21092	10.9161	-0.0218809	-0.00640956	0.00481939	-0.164551	0.229248	-1.12012	-0.193902	-0.217068	0.003769	0.956697	-4.01565	1.1653	9.16197	-0.00290646	0.0137365	-0.016699	0.269775	-0.0571289	-1.06006	0.364326	0.235864	-0.304018	-0.848061	-1.90635	7.29861	7.44257	-0.0113365	0.00501068	-0.002749	-0.0568848	-0.557861	-0.966309	-0.431523	0.121438	-0.564398	-0.693178	-6.40068	6.6613	3.3069	0.00871626	0.00220269	0.0138187	0.422607	-0.952881	-0.20752	-0.142384	-0.209776	-0.197996	0.946847	-4.47825	-2.95469	8.06062	-0.0266198	-0.000567209	-0.0126952	0.245605	0.439697	-0.980957	-0.730041	0.0456385	-0.280861	0.621349	-3.98214	-5.10465	11.018	-0.0128419	0.0139291	-0.0153554	0.358398	0.848145	-0.615234	0.158042	-0.286401	-0.0680927	-0.942529	5.93547	0.265797	8.58528	0.0157319	0.0064855	-0.0096085	-0.85498	0.10376	-0.618652	-0.161949	-0.942558	-0.163409	0.242186	-4.24551	2.18841	-7.14468	0.0956903	0.0164878	-0.0221942	0.771973	0.0231934	0.782227	0.0199762	-0.00510471	0.0283589	0.999385	-0.0748064	0.566937	10.5972	-0.00470647	-0.0150561	-0.0139556	-0.359131	0.0505371	-0.991699	0.0610648	-0.00627547	-0.0255568	-0.997787	0.529975	0.421973	10.4913	0.000465671	0.000718628	0.00145985	-0.506348	0.0219727	-1.04248	0.0215481	-0.0339084	0.0514612	-0.997867	0.62904	-1.18501	9.67997	0.00544047	0.0163703	-0.00500609	-0.541992	0.121826	-1.08374	
37	-0.118044	-0.0721766	0.00115242	0.990381	-1.5983	0.216102	10.9053	-0.00504267	-0.00251269	-0.00417102	-0.162354	0.227051	-1.12012	-0.194033	-0.216839	0.00365127	0.956723	-3.952	1.18462	9.18155	-0.0170918	0.00802352	-0.0153899	0.267578	-0.0527344	-1.0625	0.364493	0.235702	-0.303508	-0.848217	-1.9286	7.18374	7.37842	-0.0196789	0.00716007	0.00160293	-0.0524902	-0.553711	-0.966553	-0.4314	0.121397	-0.564298	-0.693344	-6.34075	6.65076	3.31807	-0.00746774	0.00414174	0.00513755	0.424805	-0.952881	-0.209717	-0.142416	-0.209344	-0.198839	0.946761	-4.3899	-3.13517	8.15577	-0.0202814	-0.00204031	-0.0110308	0.247803	0.439697	-0.974121	-0.730192	0.0457977	-0.28104	0.621078	-4.03196	-5.22348	10.9588	-0.00254348	0.0143465	-0.00348303	0.360596	0.848145	-0.61084	0.158126	-0.286723	-0.0679681	-0.942426	5.94445	0.296179	8.58926	0.0144245	0.000300084	-0.00910748	-0.852783	0.10376	-0.627197	-0.161861	-0.942502	-0.163546	0.242372	-4.26204	2.17796	-7.1067	-0.00532162	0.00361996	-0.0168643	0.77832	0.0256348	0.779785	0.0199475	-0.00490226	0.0281966	0.999391	-0.0627371	0.513616	10.6	-0.000656738	0.00136683	-0.0179227	-0.36377	0.0505371	-0.98291	0.0611908	-0.00640376	-0.0252049	-0.997787	0.579461	0.37796	10.4835	-0.0007251	0.00969255	0.00958329	-0.501465	0.0131836	-1.0354	0.0217598	-0.0338237	0.0493049	-0.997974	0.648808	-1.04455	9.70342	0.0943236	0.0108332	0.00622704	-0.544189	0.121826	-1.08838	
38	-0.118066	-0.072092	0.000874968	0.990385	-1.5587	0.219949	10.9191	-0.0106457	-0.00565227	0.00118291	-0.166748	0.227051	-1.12012	-0.193972	-0.2169	0.00361501	0.956722	-3.98075	1.12165	9.17211	-0.00892692	0.0218448	-0.023193	0.27002	-0.0615234	-1.06689	0.364527	0.235802	-0.30374	-0.848092	-1.9334	7.15709	7.38967	0.0279928	0.00248379	-0.00025784	-0.050293	-0.558105	-0.970947	-0.431395	0.121401	-0.564287	-0.693354	-6.38936	6.59322	3.29318	0.00537923	0.00503864	0.000843622	0.422607	-0.952881	-0.205322	-0.142571	-0.209433	-0.198883	0.946709	-4.37662	-3.14077	8.11166	0.0100485	0.0150682	-0.00590313	0.239258	0.439697	-0.974121	-0.730226	0.0457643	-0.280906	0.621102	-3.94391	-5.09958	10.9451	0.0107758	0.0122788	-0.0208505	0.362793	0.843994	-0.612793	0.158185	-0.287081	-0.0679001	-0.942312	5.96138	0.227694	8.54892	0.0185779	0.00827755	-0.0118177	-0.856934	0.101562	-0.625	-0.162567	-0.942348	-0.163666	0.242414	-4.26968	2.15223	-7.12784	-0.0219941	0.0123092	-0.020507	0.771973	0.0231934	0.786865	0.0199294	-0.00485255	0.0282214	0.999391	-0.0881308	0.61234	10.5799	0.00204931	0.00418021	-0.0154097	-0.364014	0.0527344	-0.989502	0.061399	-0.00689659	-0.0250576	-0.997775	0.579903	0.418566	10.5024	-0.0113423	-0.0106625	0.0110761	-0.503906	0.0175781	-1.03564	0.0220474	-0.0341455	0.0445489	-0.99818	0.632806	-0.940589	9.64701	0.226002	-0.0216402	-0.00293303	-0.543701	0.108643	-1.08813	
39	-0.118119	-0.0721949	0.000748497	0.990371	-1.62122	0.189641	10.9246	-0.00115172	-3.9166e-05	0.00292312	-0.162109	0.224854	-1.11792	-0.193743	-0.217115	0.00356796	0.956719	-3.99815	1.1577	9.18634	-0.00322147	0.0167731	-0.0183944	0.267578	-0.0549316	-1.06714	0.364358	0.235959	-0.303885	-0.848069	-1.89439	7.29225	7.44401	0.00655205	0.00556158	-0.00451887	-0.050293	-0.560303	-0.970947	-0.431405	0.121332	-0.564365	-0.693297	-6.40806	6.66282	3.3486	0.00507474	0.00381322	0.00282665	0.425049	-0.955078	-0.209717	-0.142341	-0.209502	-0.198567	0.946794	-4.48597	-3.00687	8.04516	0.00168086	0.00885455	-0.0175398	0.243652	0.439697	-0.974121	-0.730243	0.045809	-0.280891	0.621085	-4.00212	-5.05709	10.9452	-0.000310292	0.016574	-0.0112473	0.360596	0.846191	-0.61499	0.158201	-0.287035	-0.0682695	-0.942297	5.93807	0.278039	8.59573	0.0244375	0.00738342	-0.0114928	-0.861572	0.105957	-0.62085	-0.162449	-0.942374	-0.163794	0.242307	-4.2523	2.15456	-7.17179	0.0264562	0.0190558	-0.0220286	0.767578	0.0253906	0.779785	0.019813	-0.00477234	0.028071	0.999398	-0.11302	0.54456	10.6339	-0.00295722	0.00223709	-0.014388	-0.356934	0.0505371	-0.987305	0.061398	-0.00759322	-0.0245151	-0.997783	0.697092	0.346724	10.6036	-0.0167107	-0.0048384	0.00658405	-0.508301	0.0153809	-1.04004	0.0223786	-0.0344132	0.0405264	-0.998335	0.613729	-0.757511	9.87548	0.135365	-0.000176968	0.00828371	-0.543213	0.102051	-1.08569	
40	-0.118108	-0.0722745	0.000762621	0.990367	-1.6067	0.236084	10.9121	0.00234141	0.000486185	-4.45673e-05	-0.162109	0.222656	-1.12012	-0.193873	-0.216995	0.00359108	0.95672	-4.00672	1.16221	9.15281	-0.011028	0.0105669	-0.0134702	0.27002	-0.0637207	-1.06445	0.36447	0.236022	-0.303493	-0.848143	-1.90614	7.20345	7.39764	-0.0104358	0.0146052	-0.00054551	-0.0524902	-0.558105	-0.968506	-0.431271	0.121315	-0.564321	-0.693419	-6.36282	6.58471	3.33183	-0.00332878	0.00787798	0.00667645	0.42041	-0.952881	-0.205322	-0.142558	-0.209426	-0.199056	0.946676	-4.45221	-3.1293	8.12823	-0.0263879	0.00836369	-0.00567017	0.243652	0.439697	-0.974121	-0.730379	0.0458383	-0.280956	0.620894	-4.05637	-5.12604	10.9631	0.00290989	0.0146658	-0.00659929	0.362793	0.846191	-0.619385	0.158247	-0.287349	-0.0681883	-0.942199	5.94397	0.276792	8.55606	0.0155523	0.010955	-0.0143611	-0.857178	0.108154	-0.623047	-0.162266	-0.942381	-0.163804	0.242397	-4.23361	2.17564	-7.13326	0.00625118	0.0124295	-0.0195149	0.771973	0.0231934	0.784668	0.0197122	-0.00471484	0.0279718	0.999403	-0.107294	0.479543	10.5778	0.00419069	0.00417929	-0.0154122	-0.357178	0.0551758	-0.989502	0.0614974	-0.00759485	-0.0248143	-0.99777	0.592181	0.410008	10.5719	0.0265627	0.0138718	0.0116668	-0.506104	0.0197754	-1.04028	0.0228239	-0.0351642	0.0380882	-0.998395	0.632032	-0.594566	9.65133	0.0815415	-0.0393949	0.0105026	-0.547363	0.088623	-1.08569	
41	-0.118112	-0.0723089	0.000653438	0.990364	-1.63743	0.27279	10.916	-0.00673717	-0.00431295	0.00148621	-0.164307	0.224854	-1.12012	-0.19389	-0.216934	0.00366745	0.95673	-3.98456	1.18006	9.17537	-0.00573894	0.0103934	-0.0160018	0.27002	-0.0593262	-1.06006	0.364579	0.236034	-0.303265	-0.848175	-1.97579	7.17063	7.34625	0.00019824	0.00591724	-0.00058382	-0.0566406	-0.562256	-0.966309	-0.431204	0.121371	-0.564335	-0.693439	-6.36327	6.6144	3.36461	-0.000707388	0.0115351	0.00267312	0.424561	-0.946289	-0.211914	-0.142744	-0.20934	-0.199202	0.946636	-4.4284	-3.19634	8.13947	-0.0158006	0.000947007	-0.000867081	0.239258	0.437256	-0.969482	-0.730472	0.0459977	-0.281038	0.620736	-3.99138	-5.09663	10.9486	-0.000202447	0.0125657	-0.013146	0.36499	0.843994	-0.61499	0.158287	-0.287435	-0.0681573	-0.942168	5.92277	0.296755	8.60235	0.0181255	0.00985695	-0.012384	-0.859131	0.10376	-0.625	-0.162266	-0.942381	-0.163804	0.242397	-4.23361	2.17564	-7.13326	0.00625118	0.0124295	-0.0195149	0.771973	0.0231934	0.784668	0.0197158	-0.00476507	0.0281179	0.999399	-0.138523	0.544864	10.5961	0.0103562	0.0088239	-0.0194502	-0.361816	0.0551758	-0.991943	0.0614974	-0.00759485	-0.0248143	-0.99777	0.592181	0.410008	10.5719	0.0265627	0.0138718	0.0116668	-0.506104	0.0197754	-1.04028	0.0229568	-0.0358258	0.0373005	-0.998398	0.717265	-0.598457	9.63979	0.0628655	-0.0472645	0.00391933	-0.547607	0.095459	-1.08569	
42	-0.118189	-0.0722385	0.000332131	0.99036	-1.60909	0.192472	10.9308	-0.0122475	-0.00419375	0.00295775	-0.157715	0.227051	-1.12451	-0.193457	-0.217293	0.00328188	0.956738	-4.01107	1.14771	9.18132	-0.00876194	0.0165071	-0.0194988	0.27002	-0.0593262	-1.06226	0.364533	0.235993	-0.303613	-0.848081	-1.94259	7.24558	7.41595	0.0218779	-0.00508218	0.00386661	-0.0524902	-0.555908	-0.96875	-0.431195	0.12157	-0.564455	-0.693312	-6.39751	6.56915	3.31635	0.0123741	0.0141787	-0.00596265	0.422607	-0.952881	-0.20752	-0.1427	-0.209529	-0.198701	0.946706	-4.45638	-3.02651	8.09807	0.0152441	0.0118009	-0.00362365	0.247803	0.441895	-0.976318	-0.73046	0.045955	-0.28096	0.620788	-3.99434	-5.09198	11.0265	0.0109349	0.01456	-0.0195022	0.369141	0.846191	-0.613037	0.158024	-0.287805	-0.0688892	-0.942046	5.93331	0.284334	8.59679	0.0217556	-0.00833375	-0.0163748	-0.861328	0.10376	-0.62085	-0.163164	-0.942198	-0.163935	0.242416	-4.23378	2.18695	-7.18899	-0.011381	0.00882167	-0.00978764	0.776367	0.0234375	0.782227	0.0197445	-0.00473577	0.0282593	0.999394	-0.176566	0.566199	10.6384	0.0159568	0.00363869	-0.0207586	-0.356934	0.0507812	-0.991699	0.061638	-0.00819341	-0.0240813	-0.997774	0.66446	0.177797	10.6133	0.0121439	-0.00677206	0.0205286	-0.510742	0.0219727	-1.03564	0.0234252	-0.0357155	0.0330401	-0.998541	0.501076	-1.02676	9.67799	0.233276	-0.0104702	0.00974245	-0.549316	0.0842285	-1.09229	
43	-0.118208	-0.0721773	0.000202321	0.990362	-1.60199	0.163614	10.9135	-0.00135069	-0.00809805	-0.0019069	-0.164307	0.224854	-1.11792	-0.193257	-0.217547	0.00316071	0.956721	-3.98754	1.19366	9.17724	-0.00589866	0.0189922	-0.0178382	0.265381	-0.0549316	-1.06006	0.364455	0.236033	-0.303824	-0.848028	-1.88267	7.2295	7.42362	0.00998536	8.41979e-06	-0.00141982	-0.0480957	-0.560303	-0.964111	-0.431141	0.121486	-0.564717	-0.693147	-6.41321	6.64999	3.30545	0.016613	0.00930436	0.00483023	0.422363	-0.948486	-0.203125	-0.142883	-0.209444	-0.198864	0.946663	-4.42287	-3.04729	8.09995	-0.014726	0.00230651	-0.0054638	0.248047	0.4375	-0.969482	-0.730371	0.0459835	-0.280975	0.620884	-3.99522	-5.12512	10.9778	-0.00938455	0.0176129	-0.0134495	0.364746	0.850342	-0.613037	0.157919	-0.288052	-0.0694374	-0.941948	5.97896	0.304877	8.54641	0.0282885	-0.00569571	-0.0171522	-0.861572	0.105957	-0.618896	-0.163068	-0.942224	-0.163954	0.242369	-4.26536	2.19092	-7.15045	0.0140027	0.0208966	-0.0204854	0.778564	0.0234375	0.782227	0.0196079	-0.00445128	0.0283347	0.999396	-0.059577	0.57024	10.5543	0.00963243	-0.00124494	-0.013245	-0.364258	0.057373	-0.989746	0.061708	-0.00849913	-0.0242798	-0.997763	0.614108	0.563077	10.5417	-0.0157886	0.000580149	-0.00278405	-0.506104	0.0197754	-1.03564	0.0237251	-0.0365895	0.0296519	-0.998609	0.667013	-0.177319	9.92424	0.04966	-0.0166474	-0.00261749	-0.551514	0.0842285	-1.08789	
44	-0.118197	-0.0721647	0.000292673	0.990364	-1.58488	0.210718	10.9335	0.00780438	-0.00520345	0.000239617	-0.162354	0.227051	-1.12451	-0.193257	-0.217547	0.00316071	0.956721	-3.98754	1.19366	9.17724	-0.00589866	0.0189922	-0.0178382	0.265381	-0.0549316	-1.06006	0.364501	0.236014	-0.303857	-0.848002	-1.91671	7.22873	7.40074	0.00487838	0.00328645	0.00422612	-0.0546875	-0.555908	-0.961914	-0.431101	0.121575	-0.564809	-0.693081	-6.40783	6.64454	3.30045	0.00206526	0.0117523	-0.00430227	0.424561	-0.946289	-0.20752	-0.143029	-0.209401	-0.198994	0.946623	-4.39331	-3.12077	8.1511	-0.0133431	0.00428368	-0.00308527	0.248047	0.4375	-0.97876	-0.730387	0.0459914	-0.280951	0.620875	-3.95021	-5.15378	10.9541	0.00434134	0.0136777	-0.0147924	0.36499	0.841797	-0.610596	0.157888	-0.288485	-0.0695269	-0.941814	5.94504	0.335751	8.57959	0.0217818	-0.0198155	-0.0172689	-0.863281	0.0993652	-0.627197	-0.162575	-0.942281	-0.164093	0.242384	-4.23161	2.17542	-7.10832	0.00246437	0.00737497	-0.0139867	0.776123	0.0275879	0.786865	0.0195853	-0.00445557	0.0283706	0.999396	-0.0699689	0.542233	10.5723	0.00766658	0.00649923	-0.0166771	-0.361572	0.0527344	-0.987305	0.061531	-0.00854215	-0.0236265	-0.997789	0.663887	0.242168	10.4756	-0.0192089	0.0167674	0.00343424	-0.512939	0.0197754	-1.03784	0.0239976	-0.0363535	0.0282001	-0.998653	0.59539	-0.833187	9.67577	0.102766	0.00242847	0.00629005	-0.544434	0.0754395	-1.08765	
45	-0.118077	-0.0721522	0.000300936	0.99038	-1.54484	0.243149	10.944	-0.00314777	-0.00682036	-0.00459365	-0.159912	0.224854	-1.11572	-0.192923	-0.217471	0.00344471	0.956805	-3.99901	1.1722	9.21602	0.0069601	0.0075422	-0.0183214	0.267578	-0.0571289	-1.06006	0.364537	0.235944	-0.30382	-0.848019	-1.96702	7.23306	7.41623	0.00134402	0.00417925	0.00104465	-0.0524902	-0.560059	-0.966309	-0.431181	0.121658	-0.564769	-0.69305	-6.41779	6.55811	3.29228	0.00274997	0.00198447	-0.00261997	0.425049	-0.955078	-0.205322	-0.142894	-0.20956	-0.198503	0.946711	-4.46771	-3.04292	8.08289	0.0229919	0.0102848	-0.015022	0.243408	0.441895	-0.976318	-0.730441	0.0459042	-0.280791	0.62089	-3.95832	-5.05629	11.0038	0.00619217	0.0131052	-0.0147602	0.358398	0.846191	-0.613037	0.157767	-0.289648	-0.0697431	-0.941461	6.02087	0.265573	8.56249	0.0217554	-0.0327036	-0.0195706	-0.863525	0.10376	-0.614502	-0.163401	-0.942141	-0.164257	0.242262	-4.25012	2.17351	-7.13124	-0.0415615	0.0126191	-0.0144448	0.776367	0.0256348	0.775146	0.0196088	-0.00456095	0.0284052	0.999394	-0.103434	0.565197	10.5848	0.00483041	0.0103858	-0.0210495	-0.361816	0.057373	-0.987305	0.0615357	-0.00871503	-0.0236553	-0.997786	0.614652	0.412448	10.4682	-0.015639	0.00378897	0.000591311	-0.506348	0.0219727	-1.03101	0.0244115	-0.037464	0.0278048	-0.998613	0.672031	-0.376094	9.73853	-0.0708099	-0.0428918	0.0158004	-0.555664	0.0732422	-1.08301	
46	-0.117987	-0.0723193	0.000239923	0.990378	-1.59058	0.254813	10.9249	0.000114304	0.0028989	-0.00437613	-0.157715	0.224854	-1.12012	-0.192996	-0.217104	0.00315313	0.956874	-3.95884	1.17337	9.19861	-0.0257721	0.00211019	-0.0157503	0.267822	-0.0615234	-1.0647	0.36443	0.235966	-0.304034	-0.847983	-1.89092	7.15939	7.45492	0.0239349	-0.000843304	-0.00651296	-0.0524902	-0.558105	-0.966309	-0.431175	0.121669	-0.564732	-0.693082	-6.40339	6.65319	3.32443	-0.00259126	0.0056676	0.0038481	0.427002	-0.950684	-0.209717	-0.143008	-0.209571	-0.198599	0.946672	-4.47205	-3.03361	8.07164	-0.0186769	0.00745634	-0.00686328	0.243652	0.439697	-0.97168	-0.730559	0.0459152	-0.28083	0.620733	-4.00159	-5.03954	10.9937	-5.80902e-05	0.0168361	-0.00596726	0.362549	0.852539	-0.615234	0.157503	-0.290985	-0.0708178	-0.941013	6.05731	0.271637	8.53502	0.040395	-0.0544125	-0.0241524	-0.863281	0.0993652	-0.616455	-0.164126	-0.941965	-0.164673	0.242174	-4.27095	2.16711	-7.17145	-0.0296727	0.00755293	-0.0185086	0.776367	0.0234375	0.777588	0.0197038	-0.00454778	0.0282674	0.999396	-0.160247	0.59617	10.6395	-0.00416836	0.00322896	-0.0213576	-0.366455	0.057373	-0.987305	0.0613294	-0.00878918	-0.0231305	-0.997811	0.589039	0.444568	10.4212	-0.0196798	0.00573145	-0.0062549	-0.508301	0.0175781	-1.04004	0.0247631	-0.0400657	0.0338972	-0.998315	0.944336	-0.173399	9.90551	-0.30284	-0.0791457	0.0163526	-0.552002	0.0930176	-1.07642	
47	-0.118133	-0.0724089	-0.000117556	0.990354	-1.69926	0.226507	10.9083	-0.0172417	-0.00276795	0.00735521	-0.162109	0.224854	-1.12231	-0.193073	-0.217087	0.00318733	0.956863	-4.06864	1.15131	9.17228	-0.00887126	0.0197945	-0.020527	0.27002	-0.0637207	-1.05981	0.36442	0.236204	-0.303852	-0.847986	-2.02963	7.35156	7.41294	-0.0227592	0.0189718	-0.00260956	-0.0458984	-0.558105	-0.964111	-0.430971	0.121738	-0.564465	-0.693415	-6.42249	6.58925	3.38149	-0.0156363	0.00487267	0.0117228	0.424805	-0.952881	-0.205322	-0.143235	-0.209386	-0.198963	0.946602	-4.41477	-3.24085	8.13023	-0.0105115	-0.000384546	-0.00615144	0.241211	0.443848	-0.967285	-0.730574	0.0460506	-0.281072	0.620597	-4.07608	-5.11886	11.0024	-0.0050991	0.0225782	-0.0161726	0.362549	0.848145	-0.617432	0.157542	-0.291354	-0.0709515	-0.940882	5.97664	0.35609	8.56151	0.00948761	-0.0199108	-0.00755859	-0.865479	0.101562	-0.616455	-0.162605	-0.942229	-0.164145	0.24253	-4.19812	2.26807	-7.1571	0.0807493	0.025318	-0.0153768	0.776367	0.0212402	0.782227	0.0196743	-0.00433202	0.0281836	0.9994	-0.174121	0.532849	10.6226	0.00697194	-0.00383368	-0.0131461	-0.366211	0.0527344	-0.989502	0.0610141	-0.00904416	-0.0221891	-0.997849	0.60699	0.434255	10.5961	-0.02075	0.022876	-0.0083978	-0.510498	0.0197754	-1.03564	0.0250935	-0.0413485	0.0402387	-0.998019	0.757488	-1.0117	9.72938	-0.214419	-0.0513882	0.0212109	-0.554932	0.108643	-1.0791	
48	-0.118287	-0.0722454	-0.000411388	0.990348	-1.57987	0.119127	10.9288	-0.0091949	-0.00493366	0.00237548	-0.157715	0.222656	-1.12012	-0.19296	-0.217088	0.00326474	0.956885	-3.99606	1.17579	9.17977	-0.00509906	0.0142083	-0.020301	0.267578	-0.0571289	-1.06006	0.364574	0.235948	-0.303014	-0.84829	-1.91781	7.07775	7.28364	-0.0205366	0.00210601	-0.00614981	-0.0568848	-0.555664	-0.966309	-0.430856	0.121879	-0.564455	-0.693469	-6.39272	6.60591	3.2859	0.00257749	0.0107816	-0.00252384	0.424805	-0.948486	-0.209717	-0.143328	-0.20945	-0.198352	0.946702	-4.4561	-2.99165	8.1176	0.0271087	0.00863228	-0.00295851	0.250244	0.4375	-0.969482	-0.73017	0.045931	-0.281469	0.620901	-3.97606	-5.12418	10.9778	-0.00192432	0.0282067	-0.0249514	0.360352	0.850342	-0.615234	0.157484	-0.291763	-0.0706778	-0.940786	6.02056	0.300411	8.54224	0.00907385	0.0077624	-0.0153528	-0.861328	0.101562	-0.612305	-0.161937	-0.942403	-0.163863	0.24249	-4.18638	2.09294	-7.1291	0.0289441	0.0162667	-0.00844796	0.778564	0.0234375	0.779785	0.0196461	-0.00421351	0.0284374	0.999394	-0.0514445	0.561001	10.5382	0.0166075	0.00524881	-0.0185089	-0.361572	0.0529785	-0.991699	0.0607011	-0.00905314	-0.0213314	-0.997887	0.556308	0.261497	10.4281	-0.0298945	0.0184687	-0.00707114	-0.501953	0.0285645	-1.03589	0.02564	-0.0435352	0.044589	-0.997727	0.812749	-0.672641	9.78363	-0.214557	-0.0763612	0.0270587	-0.564209	0.119385	-1.07471	
49	-0.118316	-0.0722181	-0.000322676	0.990346	-1.67596	0.157098	10.8826	0.00775599	-0.0107757	0.00198923	-0.162109	0.224854	-1.12451	-0.192863	-0.217235	0.00308529	0.956872	-3.97592	1.19217	9.16332	-0.0097367	0.0154324	-0.0143889	0.269775	-0.0571289	-1.0625	0.364092	0.236118	-0.303864	-0.848146	-1.90974	7.23864	7.41796	0.0514114	-0.00527756	-0.00697449	-0.0546875	-0.553711	-0.961914	-0.430913	0.122025	-0.564362	-0.693484	-6.37948	6.64176	3.26464	-0.00790942	0.00729685	-0.00909976	0.427246	-0.952881	-0.211914	-0.143106	-0.209647	-0.198439	0.946674	-4.42649	-2.9776	8.10748	-0.000450986	0.013711	-0.0132772	0.247803	0.439453	-0.967285	-0.73028	0.0457198	-0.281413	0.620812	-3.97456	-5.11411	10.9722	0.00369927	0.0178954	-0.00607157	0.360596	0.843994	-0.61499	0.157187	-0.293102	-0.0714625	-0.94036	6.019	0.269085	8.57138	0.0289909	-0.0528805	-0.022104	-0.863281	0.097168	-0.612305	-0.162013	-0.942391	-0.163838	0.242503	-4.24444	2.16301	-7.09017	0.00102177	0.00661296	-0.0079227	0.776611	0.019043	0.782227	0.0196823	-0.00453679	0.02843	0.999392	-0.103828	0.609669	10.5894	0.000343442	0.0217991	-0.0200031	-0.35498	0.0598145	-0.991943	0.0607011	-0.00905314	-0.0213314	-0.997887	0.556308	0.261497	10.4281	-0.0298945	0.0184687	-0.00707114	-0.501953	0.0285645	-1.03589	0.0258969	-0.044432	0.0474878	-0.997547	0.83329	-0.775294	9.8002	-0.231237	-0.0596913	0.0237941	-0.562012	0.119629	-1.07251	
50	-0.118193	-0.0719612	-1.25796e-05	0.99038	-1.54028	0.203134	10.9444	0.0116669	-0.013531	-0.00386971	-0.162109	0.224854	-1.12671	-0.192804	-0.217238	0.00304214	0.956883	-4.00036	1.18351	9.18263	-0.0119844	0.0171637	-0.0238065	0.27002	-0.0615234	-1.0647	0.363979	0.2362	-0.304173	-0.848061	-1.92851	7.27745	7.45856	0.0313339	0.000258667	-0.00196832	-0.050293	-0.5625	-0.963867	-0.431059	0.122278	-0.563957	-0.693678	-6.38545	6.59101	3.35241	-0.017932	-0.00110778	-0.00580369	0.420166	-0.948486	-0.20752	-0.143165	-0.209815	-0.198472	0.946621	-4.43404	-3.12607	8.10875	0.00997536	0.0124788	-0.00857697	0.245605	0.439697	-0.976318	-0.73031	0.0456546	-0.281416	0.62078	-4.04283	-5.1168	10.9478	0.00657279	0.0198902	-0.0115298	0.366943	0.850342	-0.615234	0.156961	-0.295546	-0.0722268	-0.939574	6.10934	0.369491	8.42363	0.034518	-0.0883119	-0.0216355	-0.869873	0.0993652	-0.605957	-0.162733	-0.942269	-0.163991	0.242391	-4.27153	2.1764	-7.14922	-0.0526232	0.0139669	-0.0165237	0.776123	0.0275879	0.779785	0.019663	-0.00474416	0.0284261	0.999391	-0.139651	0.544251	10.6319	0.00431756	0.0217763	-0.0185223	-0.359619	0.0598145	-0.994141	0.0604566	-0.00926248	-0.0216907	-0.997892	0.609944	0.354591	10.5216	-0.0104972	0.00254555	-0.00862559	-0.508545	0.0219727	-1.03784	0.0262031	-0.0457641	0.0521506	-0.997246	0.935292	-1.27062	9.68245	-0.166765	-0.0416169	0.0125133	-0.564697	0.130615	-1.07031	
51	-0.118138	-0.0720738	9.92709e-05	0.990378	-1.54983	0.260205	10.9376	0.0107445	0.00420118	-0.00316938	-0.162109	0.222656	-1.12451	-0.192788	-0.217289	0.00310175	0.956874	-3.97869	1.14791	9.20943	-0.00815745	0.0231162	-0.015884	0.272217	-0.0637207	-1.05981	0.364004	0.236171	-0.303868	-0.848168	-1.90785	7.20473	7.42269	-0.0168488	0.00801805	-0.00374647	-0.0546875	-0.560059	-0.966309	-0.431054	0.122358	-0.563768	-0.693821	-6.36574	6.58935	3.31609	0.000617723	0.00483209	0.00375586	0.422607	-0.950684	-0.209717	-0.143072	-0.209797	-0.198173	0.946701	-4.43471	-3.04	8.07223	0.0253879	0.00345141	-0.0149793	0.250488	0.430908	-0.976318	-0.730294	0.0456259	-0.281427	0.620796	-3.98693	-5.06591	10.915	-0.00134347	0.018347	-0.0165755	0.364746	0.850342	-0.613037	0.156862	-0.296772	-0.0725626	-0.939178	6.11641	0.336562	8.4467	0.0300857	-0.0896377	-0.019709	-0.867432	0.097168	-0.599365	-0.163074	-0.942195	-0.164047	0.242412	-4.28528	2.16427	-7.18714	-0.0203463	0.00868853	-0.0168703	0.778564	0.0253906	0.782227	0.0197183	-0.00482119	0.028416	0.99939	-0.116663	0.599479	10.595	0.00812693	0.00389117	-0.0212039	-0.364014	0.0551758	-0.987305	0.0603985	-0.00948902	-0.0214251	-0.997899	0.730844	0.32396	10.5354	0.0199859	0.01786	0.00666843	-0.508545	0.0219727	-1.03784	0.0268009	-0.046536	0.0526213	-0.99717	0.875664	-1.02273	9.87247	0.0137035	-0.0166601	0.0234777	-0.569336	0.132812	-1.07275	
52	-0.118209	-0.0720659	0.00014083	0.99037	-1.58534	0.204326	10.9187	0.000897213	-0.00892612	0.00355889	-0.162109	0.224854	-1.11792	-0.192697	-0.217394	0.00316104	0.956869	-3.95277	1.20729	9.21149	0.00131408	0.0184462	-0.0218611	0.272217	-0.0615234	-1.06689	0.363939	0.236156	-0.303457	-0.848347	-1.92914	7.18396	7.34728	-0.0060862	0.00854798	-0.00919634	-0.059082	-0.55127	-0.964111	-0.430985	0.122306	-0.563658	-0.693962	-6.3833	6.58341	3.2797	-0.00153332	0.00107789	0.00627883	0.427246	-0.952881	-0.211914	-0.143033	-0.209728	-0.198487	0.946657	-4.39609	-3.02503	8.10836	-0.0231249	0.0122448	-0.0142479	0.247803	0.439697	-0.97168	-0.730254	0.0457991	-0.28153	0.620784	-3.98776	-5.1486	10.9775	-0.00217964	0.0150839	-0.0177835	0.36499	0.846191	-0.613037	0.156539	-0.299469	-0.0732939	-0.938319	6.13056	0.27711	8.48506	0.0300726	-0.105338	-0.0262407	-0.878418	0.0993652	-0.593018	-0.162555	-0.942251	-0.16383	0.242689	-4.23936	2.17127	-7.06918	0.0142299	-0.00426817	-0.00811236	0.776367	0.0212402	0.780029	0.0197144	-0.00471755	0.0281775	0.999397	-0.0764326	0.563191	10.5467	-0.0057861	0.00310024	-0.0184682	-0.357178	0.057373	-0.985107	0.0602447	-0.0091908	-0.0216261	-0.997907	0.613217	0.394939	10.5139	-0.000472283	0.0250291	-0.00719156	-0.510498	0.0153809	-1.03564	0.0275535	-0.0449942	0.0533994	-0.997178	0.845649	-0.895304	9.7785	-0.0320595	0.0984171	0.0314813	-0.571533	0.130371	-1.07251	
53	-0.118116	-0.07222	0.000167696	0.99037	-1.64427	0.283544	10.9177	0.00106683	0.00547435	-0.00383932	-0.160156	0.227051	-1.11377	-0.192602	-0.217323	0.00312128	0.956904	-4.03319	1.2033	9.13859	-0.0128373	0.0099937	-0.0216958	0.269775	-0.0571289	-1.0647	0.363912	0.2362	-0.303555	-0.848311	-1.93223	7.19405	7.37927	0.0115196	0.00398833	0.00113702	-0.0480957	-0.555908	-0.959473	-0.431066	0.122094	-0.563788	-0.693843	-6.38773	6.61641	3.36567	0.011633	0.0031989	3.20542e-05	0.424805	-0.950684	-0.209717	-0.143058	-0.209767	-0.198487	0.946644	-4.47877	-3.05073	8.0752	0.00951574	0.00887933	-0.010718	0.245605	0.439697	-0.976318	-0.730292	0.0458495	-0.281504	0.620747	-4.02181	-5.10175	10.9525	0.00748836	0.013834	-0.0132472	0.362549	0.848389	-0.61084	0.156103	-0.303327	-0.0747881	-0.937033	6.18543	0.40119	8.31289	0.0537472	-0.142088	-0.0329435	-0.878174	0.097168	-0.593018	-0.163625	-0.942011	-0.16375	0.242955	-4.23612	2.18542	-7.13446	-0.043828	-0.00442581	-0.00836207	0.776611	0.019043	0.777588	0.0200158	-0.00482588	0.0281103	0.999393	-0.113563	0.522018	10.5879	-0.000314298	0.0067435	-0.0216872	-0.359131	0.0505371	-0.987305	0.0600205	-0.00901425	-0.0213514	-0.997928	0.558397	0.232774	10.4927	0.0125177	0.0246935	0.000216756	-0.508545	0.0241699	-1.03564	0.0282366	-0.0442186	0.0553069	-0.99709	0.792586	-1.33101	9.71551	-0.0663077	0.0340617	0.0342283	-0.562988	0.139404	-1.07275	
54	-0.118099	-0.0720271	-3.68182e-05	0.990386	-1.60182	0.221243	10.9199	-0.00951657	-0.0131256	-0.00160266	-0.157471	0.220459	-1.11792	-0.192566	-0.217168	0.00324843	0.956946	-3.9953	1.15497	9.18976	-0.00570398	0.0104332	-0.0186085	0.265625	-0.0571289	-1.0625	0.363983	0.236194	-0.303552	-0.848284	-1.93704	7.18776	7.37889	-0.00099898	0.0061771	0.00223419	-0.0568848	-0.557861	-0.968506	-0.431027	0.122055	-0.563837	-0.693834	-6.36743	6.57842	3.30938	0.00377835	0.00664147	0.00477008	0.424805	-0.952881	-0.205322	-0.143056	-0.209863	-0.198599	0.9466	-4.47466	-3.0848	8.09448	-0.003992	0.00870788	-0.00584943	0.243652	0.4375	-0.976318	-0.730325	0.0459124	-0.2814	0.620751	-4.04764	-5.06847	10.9406	-0.00127172	0.0121379	-0.0182822	0.362549	0.850342	-0.61084	0.15565	-0.306734	-0.0763613	-0.935872	6.24394	0.354246	8.35967	0.0458364	-0.144952	-0.0268294	-0.882324	0.0905762	-0.584473	-0.164193	-0.941898	-0.163698	0.243049	-4.27815	2.19183	-7.16543	0.0043319	0.00969532	-0.0150754	0.778809	0.0168457	0.782227	0.0200093	-0.00473644	0.0281704	0.999392	-0.168736	0.591038	10.6465	0.00780635	-0.0019742	-0.0143311	-0.362061	0.0598145	-0.991943	0.0603096	-0.00868751	-0.0221785	-0.997895	0.609698	0.257036	10.5491	0.0471323	0.0309944	0.0161385	-0.510742	0.0241699	-1.04492	0.0294179	-0.0440134	0.0539755	-0.997138	0.920616	-1.23947	9.78077	0.0771519	0.0197136	0.0422292	-0.558105	0.13501	-1.07495	
55	-0.118022	-0.0719542	-0.000193797	0.990401	-1.62182	0.201859	10.8981	-0.00453014	-0.0047281	-0.00400711	-0.166748	0.227051	-1.11816	-0.192641	-0.217107	0.00317794	0.956945	-4.00335	1.16328	9.19791	-0.0166964	0.0170709	-0.0156587	0.268066	-0.065918	-1.06689	0.364212	0.236091	-0.303412	-0.848264	-1.92325	7.20531	7.43073	-0.00282973	0.00627671	0.00861323	-0.050293	-0.553711	-0.966553	-0.430826	0.121954	-0.56414	-0.69373	-6.37319	6.60595	3.34539	0.0123372	0.0100557	0.00802648	0.425049	-0.955078	-0.20752	-0.143344	-0.2097	-0.198451	0.946623	-4.4678	-3.08063	8.08238	0.00485393	-0.00464496	0.000338053	0.247803	0.441895	-0.97876	-0.730321	0.0462013	-0.281349	0.620758	-4.02539	-5.10723	10.9397	-0.00583165	0.00784367	-0.0186281	0.366943	0.848389	-0.615234	0.155359	-0.310173	-0.0778683	-0.934662	6.33697	0.372487	8.29203	0.0558609	-0.13514	-0.0265442	-0.886719	0.0949707	-0.580322	-0.163563	-0.941965	-0.163526	0.243328	-4.26154	2.21161	-7.10958	0.0360049	0.00698144	-0.0199835	0.772217	0.019043	0.777588	0.0196932	-0.00433421	0.0282175	0.999398	-0.0946065	0.540026	10.5854	0.00747779	-0.00963779	-0.00236674	-0.359619	0.057373	-0.989746	0.0605208	-0.00812046	-0.0232316	-0.997864	0.566711	0.428826	10.5634	0.044379	0.0437311	0.011474	-0.510742	0.0219727	-1.04248	0.0306178	-0.0443504	0.0533012	-0.997123	0.88717	-0.980714	9.86405	-0.0248024	-0.0168182	0.0422075	-0.567139	0.13501	-1.07495	
56	-0.117945	-0.071662	-0.000339105	0.990431	-1.57773	0.197861	10.9094	-0.00570305	-0.0158143	-0.00371953	-0.16626	0.220459	-1.11792	-0.192578	-0.217463	0.00293553	0.956878	-4.02027	1.13849	9.15833	-0.011305	0.0243584	-0.0132273	0.263428	-0.0571289	-1.06006	0.364479	0.236193	-0.30349	-0.848093	-1.95218	7.1705	7.3264	0.0147967	0.00932874	0.0123948	-0.0524902	-0.553711	-0.964111	-0.43071	0.12207	-0.564195	-0.693737	-6.35259	6.61027	3.29874	-0.00181955	0.0121548	-0.00247707	0.427246	-0.955078	-0.209717	-0.143679	-0.209473	-0.198398	0.946634	-4.41445	-3.05836	8.09312	-0.000590989	-0.000140781	0.00028542	0.243408	0.444092	-0.971924	-0.730432	0.0465182	-0.281286	0.620631	-3.9721	-5.19739	10.9606	-0.0019654	0.00579733	-0.0102251	0.362793	0.846191	-0.615234	0.155048	-0.313513	-0.0794212	-0.933468	6.35631	0.38918	8.2354	0.0566482	-0.130473	-0.0314608	-0.899658	0.0927734	-0.567383	-0.164247	-0.941795	-0.16355	0.24351	-4.24815	2.16116	-7.05844	-0.0433791	0.0049712	-0.0139711	0.780762	0.0212402	0.779785	0.0193574	-0.00423602	0.0284355	0.999399	-0.0171057	0.501869	10.5298	0.0167073	0.00694649	-0.00850358	-0.364014	0.0527344	-0.987305	0.0608381	-0.00742973	-0.0245674	-0.997818	0.639725	0.28638	10.44	0.0866906	0.0456912	0.0212829	-0.506104	0.0175781	-1.04468	0.0320817	-0.0455644	0.0512275	-0.997131	0.892289	-1.42023	9.5204	0.161137	-0.0579131	0.0471601	-0.564941	0.13501	-1.07275	
57	-0.117776	-0.0714716	-0.000420178	0.990465	-1.54601	0.201349	10.93	-0.00407009	-0.00975371	-0.0056235	-0.160156	0.227051	-1.12012	-0.192562	-0.217643	0.00274038	0.95684	-3.96116	1.16439	9.19181	-0.010835	0.0173044	-0.0110477	0.27002	-0.0593262	-1.05762	0.364575	0.236172	-0.303857	-0.847926	-1.96201	7.22865	7.41344	0.0199155	0.000260988	0.0106588	-0.0524902	-0.558105	-0.966309	-0.43074	0.122196	-0.564274	-0.693633	-6.37082	6.59605	3.30187	0.00716517	0.0146698	-0.00903339	0.427002	-0.950684	-0.203125	-0.14372	-0.209691	-0.198324	0.946595	-4.42059	-3.06355	8.12556	0.00373305	0.0119035	-0.00171767	0.245605	0.439697	-0.974121	-0.730527	0.0464356	-0.280918	0.620692	-3.99294	-5.1363	10.9482	0.0142445	-0.000993763	-0.00753244	0.369385	0.843994	-0.61084	0.154591	-0.316718	-0.0814836	-0.932283	6.46381	0.380997	8.1665	0.0653415	-0.140052	-0.0336788	-0.899414	0.0905762	-0.562988	-0.164247	-0.941795	-0.16355	0.24351	-4.24815	2.16116	-7.05844	-0.0433791	0.0049712	-0.0139711	0.780762	0.0212402	0.779785	0.019241	-0.00445157	0.0287202	0.999392	-0.111969	0.548685	10.5909	0.0163198	0.0149062	-0.0169863	-0.362061	0.0598145	-0.987549	0.0608381	-0.00742973	-0.0245674	-0.997818	0.639725	0.28638	10.44	0.0866906	0.0456912	0.0212829	-0.506104	0.0175781	-1.04468	0.0328151	-0.0462154	0.0488537	-0.997196	0.916794	-0.653768	9.73945	0.19194	-0.0536595	0.0437389	-0.566895	0.128418	-1.07251	
58	-0.11773	-0.0714122	-0.000505906	0.990474	-1.5196	0.184128	10.953	-0.0063247	-0.00779679	-0.00429308	-0.164307	0.224854	-1.11792	-0.192609	-0.217697	0.00279919	0.956819	-3.97762	1.1538	9.21655	-0.00544423	0.0200728	-0.0134219	0.271973	-0.0549316	-1.06006	0.364605	0.236164	-0.304116	-0.847823	-1.90101	7.20495	7.43895	0.0228904	-0.000892561	0.00951932	-0.0524902	-0.558105	-0.964111	-0.430875	0.122526	-0.564358	-0.693422	-6.39824	6.64438	3.34132	0.00322151	0.0153268	-0.0138255	0.42041	-0.950684	-0.20752	-0.144136	-0.209649	-0.198146	0.946578	-4.41678	-3.12742	8.11039	0.0133718	0.00476469	0.0034169	0.243652	0.435303	-0.974121	-0.730622	0.0465043	-0.280775	0.62064	-4.00977	-5.07016	10.975	0.0060225	0.00226366	-0.0114913	0.358398	0.846191	-0.61084	0.154172	-0.319372	-0.0828389	-0.931327	6.49103	0.47504	8.06559	0.0452704	-0.0894286	-0.0320606	-0.905762	0.0883789	-0.560791	-0.166595	-0.941357	-0.164138	0.243213	-4.28659	2.19342	-7.09182	-0.0953486	0.00318694	-0.00943858	0.781006	0.0168457	0.780029	0.0191924	-0.00457506	0.0289122	0.999387	-0.134559	0.562308	10.6118	0.0202133	0.0162106	-0.0151511	-0.364258	0.057373	-0.987305	0.0612587	-0.00588206	-0.0267543	-0.997746	0.598106	0.559208	10.5045	0.061771	0.0428002	0.0110528	-0.501465	0.0153809	-1.04224	0.0339177	-0.0471665	0.0486279	-0.997126	0.908858	-1.00234	9.7921	-0.000142946	-0.0359969	0.0395163	-0.569336	0.132812	-1.07031	
59	-0.11776	-0.071496	-0.000571059	0.990465	-1.6207	0.195958	10.919	-0.00233145	-0.00130686	0.00521061	-0.164307	0.224854	-1.11597	-0.192617	-0.217739	0.00294608	0.956807	-3.994	1.13247	9.18251	-0.0035551	0.0144651	-0.0160281	0.265869	-0.0637207	-1.05981	0.364763	0.236248	-0.304378	-0.847637	-1.94761	7.29491	7.41903	0.00942519	0.00555479	0.00762207	-0.0524902	-0.560303	-0.96167	-0.430908	0.122799	-0.564536	-0.693208	-6.42719	6.5952	3.32602	0.00951588	0.0147305	-0.00791479	0.429199	-0.950684	-0.205322	-0.144293	-0.20982	-0.197854	0.946577	-4.44571	-2.98198	8.08266	0.00694869	0.0121499	-0.00465004	0.243652	0.4375	-0.974121	-0.730692	0.0465895	-0.280488	0.620682	-3.93629	-5.11336	11.0137	0.01145	0.00681316	-0.0186601	0.366943	0.848389	-0.613037	0.153875	-0.321288	-0.083745	-0.930636	6.52085	0.421977	8.09401	0.0420461	-0.0640799	-0.0281661	-0.905762	0.0861816	-0.554443	-0.168974	-0.940915	-0.16496	0.242725	-4.29396	2.273	-7.12059	-0.0272457	0.0103768	-0.00704021	0.774414	0.0168457	0.777588	0.0191677	-0.0046942	0.0292686	0.999377	-0.123144	0.617166	10.6219	0.0203361	0.00936392	-0.0180621	-0.361572	0.0505371	-0.991699	0.0614143	-0.00520731	-0.0278053	-0.997711	0.556735	0.435011	10.4846	0.0512158	0.0373105	0.0124395	-0.49707	0.0134277	-1.04224	0.0349936	-0.0485801	0.0480964	-0.997047	0.866779	-0.898006	9.71924	0.0284802	-0.0572414	0.0344151	-0.571533	0.132568	-1.07031	
60	-0.117787	-0.0714701	-0.00064598	0.990463	-1.55273	0.153822	10.9344	-0.00100942	-0.00537978	-0.00231371	-0.164551	0.227051	-1.11597	-0.192618	-0.217851	0.00307171	0.956781	-4.03227	1.2233	9.15028	-0.00425118	0.0217289	-0.019077	0.27002	-0.0615234	-1.05762	0.364844	0.236202	-0.304218	-0.847673	-1.95645	7.25199	7.34622	-0.00561128	0.00364393	0.000967799	-0.0610352	-0.553467	-0.964111	-0.431001	0.122941	-0.564554	-0.693111	-6.42837	6.57023	3.32205	0.000227124	0.00710557	-0.00722488	0.427002	-0.950684	-0.205322	-0.14433	-0.209902	-0.197827	0.946559	-4.4254	-2.99849	8.08987	0.00236462	0.0139937	-0.00719395	0.247803	0.441895	-0.974121	-0.730816	0.0466709	-0.280248	0.620638	-3.96104	-5.09461	10.9459	0.00842239	0.00566215	-0.0132845	0.36499	0.846191	-0.615234	0.153727	-0.32193	-0.084188	-0.930399	6.54129	0.480089	8.08148	0.0431988	-0.0438685	-0.0316455	-0.907959	0.0883789	-0.556641	-0.170117	-0.940718	-0.165052	0.242626	-4.25635	2.29448	-7.08607	-0.0508218	0.0110396	-0.0104488	0.78125	0.0124512	0.775391	0.0191783	-0.00488569	0.0294364	0.999371	-0.158103	0.577511	10.608	0.00971806	0.0131355	-0.0210047	-0.359131	0.0505371	-0.989502	0.0614445	-0.00467071	-0.0285139	-0.997692	0.478568	0.653616	10.4016	0.0623006	0.053751	0.00439346	-0.499023	0.0090332	-1.0376	0.0356509	-0.0498632	0.0488008	-0.996926	0.982711	-0.861538	9.72207	-0.0495876	-0.0404516	0.0207871	-0.575928	0.128174	-1.06348	
61	-0.117745	-0.0716131	-0.000526194	0.990458	-1.6299	0.175501	10.9197	0.00698741	-0.00170747	-0.00241929	-0.160156	0.229248	-1.11816	-0.192578	-0.217786	0.00305057	0.956804	-4.03437	1.13537	9.1857	-0.0152124	0.0178052	-0.0203547	0.267822	-0.0593262	-1.06226	0.364764	0.236252	-0.304547	-0.847575	-1.88482	7.25782	7.40275	0.0167698	0.00173531	-0.0013747	-0.0524902	-0.555908	-0.966309	-0.431031	0.123107	-0.564637	-0.692995	-6.43767	6.54671	3.28368	0.0108506	0.0131415	-0.00310821	0.427246	-0.955078	-0.209717	-0.144608	-0.209965	-0.19793	0.946481	-4.49156	-3.07271	8.10999	-0.00229014	0.00806148	-0.00105873	0.243652	0.439697	-0.97168	-0.73085	0.0466132	-0.280085	0.620675	-3.98499	-5.06293	11.0237	0.0102015	0.0135278	-0.0206978	0.366943	0.850342	-0.613037	0.153543	-0.323199	-0.084781	-0.929935	6.52386	0.519799	8.00951	0.0290267	-0.0396828	-0.0211769	-0.905762	0.0839844	-0.552246	-0.170686	-0.94062	-0.165344	0.242409	-4.27508	2.34828	-7.12807	-0.0228874	0.0133766	-0.0140391	0.779297	0.00805664	0.782471	0.019324	-0.00499026	0.0295542	0.999364	-0.16502	0.623326	10.6131	0.00891465	0.00583548	-0.0245449	-0.361816	0.057373	-0.994141	0.0613562	-0.00365466	-0.02912	-0.997684	0.546202	0.50361	10.5092	0.0187099	0.0309415	-0.00197859	-0.499023	0.0112305	-1.04224	0.0362237	-0.0510716	0.0501845	-0.996775	0.949075	-1.16679	9.66258	-0.0355541	-0.0506239	0.0235531	-0.580811	0.13916	-1.06372	
62	-0.117653	-0.0716082	-0.000417816	0.990469	-1.5714	0.217934	10.9381	0.00520532	-0.003193	-0.00157218	-0.164307	0.222656	-1.12012	-0.192468	-0.217826	0.00330343	0.956816	-4.01451	1.20111	9.14445	0.000609374	0.0111606	-0.0191475	0.269775	-0.0571289	-1.0625	0.364704	0.23625	-0.304712	-0.847542	-1.96088	7.24014	7.35973	0.00972213	0.0014722	-0.00129805	-0.0588379	-0.557861	-0.964111	-0.43105	0.123075	-0.56484	-0.692823	-6.42015	6.59003	3.26366	0.0134187	0.00625289	-0.0028423	0.424805	-0.952881	-0.205322	-0.14453	-0.209978	-0.197775	0.946523	-4.4429	-3.01432	8.10957	0.0071743	0.00403544	-0.00772506	0.241455	0.437256	-0.967285	-0.730845	0.0467898	-0.280002	0.620706	-3.90445	-5.06905	10.996	0.00022337	0.0110612	-0.0181687	0.364746	0.850342	-0.617432	0.153419	-0.323454	-0.084986	-0.929848	6.5573	0.486812	8.0739	0.0260246	0.0126936	-0.0221599	-0.910156	0.0881348	-0.543945	-0.170849	-0.9406	-0.165287	0.24241	-4.29112	2.32587	-7.0704	0.00700944	0.0145954	-0.0172611	0.7771	0.00610352	0.770752	0.0193015	-0.00495339	0.0296399	0.999362	-0.104784	0.669924	10.578	0.00449823	0.00466244	-0.0162696	-0.364014	0.0551758	-0.991943	0.061447	-0.00325792	-0.0301821	-0.997649	0.506407	0.504187	10.4555	0.0429855	0.0221539	0.00612474	-0.492188	0.00463867	-1.03979	0.0369145	-0.0520805	0.0502671	-0.996694	0.947623	-0.889476	9.72476	-0.00943303	-0.0280411	0.0190233	-0.576172	0.134766	-1.06348	
63	-0.117618	-0.0717258	-0.000333211	0.990465	-1.61312	0.217862	10.9044	0.00222909	-0.00159467	-0.000835687	-0.164307	0.224854	-1.12012	-0.192354	-0.217544	0.00373829	0.956901	-4.0135	1.18356	9.16968	0.00514477	0.00269225	-0.0198672	0.269775	-0.0571289	-1.06006	0.364509	0.236253	-0.304672	-0.847639	-1.86522	7.26431	7.39902	0.00719064	0.00230275	-0.00881879	-0.0566406	-0.557861	-0.964111	-0.431087	0.123029	-0.564874	-0.692781	-6.42457	6.62085	3.32121	0.00332281	0.00497626	0.00189566	0.422607	-0.950684	-0.20752	-0.144583	-0.20998	-0.197978	0.946472	-4.47309	-3.06092	8.07807	-0.0157988	0.00705076	-0.0110664	0.243652	0.4375	-0.974121	-0.730941	0.0467207	-0.279895	0.620646	-3.96748	-5.06091	10.9598	0.00716369	0.0144336	-0.0087428	0.362793	0.841797	-0.619385	0.153373	-0.324233	-0.0855737	-0.92953	6.56837	0.489926	8.0607	0.0433057	-0.036508	-0.0238287	-0.907715	0.0839844	-0.548096	-0.17059	-0.94069	-0.165505	0.242096	-4.29955	2.29887	-7.15043	0.00843013	0.0348284	-0.028645	0.78125	0.0102539	0.775391	0.0192124	-0.00493819	0.029544	0.999367	-0.137392	0.563587	10.6153	0.000600033	0.0046229	-0.0155317	-0.356934	0.0483398	-0.987305	0.0615466	-0.00278412	-0.0308819	-0.997622	0.508077	0.52272	10.5364	0.034315	0.0275165	0.00798327	-0.496582	0.00463867	-1.04663	0.0373685	-0.0528582	0.0508442	-0.996606	1.03048	-1.05888	9.71704	-0.0134994	-0.0137139	0.0113673	-0.580811	0.136963	-1.06372	
64	-0.117494	-0.0716607	-0.000281823	0.990485	-1.54202	0.271024	10.9517	0.002065	-0.0100105	-0.00616018	-0.162109	0.222656	-1.12012	-0.192396	-0.217451	0.00357048	0.956915	-3.99403	1.20303	9.24566	-0.0245394	0.0117133	-0.0180499	0.265869	-0.0637207	-1.05981	0.364723	0.236313	-0.304478	-0.8476	-1.93899	7.21187	7.45723	-0.00800913	0.0155894	0.00652382	-0.0544434	-0.560059	-0.96167	-0.431053	0.123001	-0.564848	-0.692828	-6.42571	6.62186	3.33401	-0.00047009	0.00371002	0.00507401	0.427002	-0.948486	-0.203125	-0.144544	-0.209996	-0.197737	0.946525	-4.47032	-3.01444	8.12963	0.0204361	0.0106052	-0.0140761	0.243408	0.441895	-0.969482	-0.731033	0.0469467	-0.280098	0.620429	-3.97528	-5.08518	10.977	-0.0130389	0.0134405	-0.0122893	0.360352	0.850342	-0.615234	0.153429	-0.324445	-0.0856633	-0.929439	6.5778	0.495725	8.05498	0.0157402	0.0262774	-0.00905473	-0.909912	0.0817871	-0.548096	-0.170943	-0.94058	-0.165586	0.242217	-4.26733	2.31255	-7.04706	-0.00907001	0.00517479	-0.0195896	0.774414	0.0168457	0.780029	0.0192638	-0.00484605	0.0293846	0.999371	-0.140503	0.590976	10.562	-0.00317789	0.000743219	-0.0202636	-0.361816	0.057373	-0.991943	0.0615946	-0.00278952	-0.0310299	-0.997615	0.509924	0.5411	10.4875	0.0146518	0.013676	0.00738124	-0.498779	0.00463867	-1.04443	0.0375557	-0.0531829	0.0511665	-0.996566	0.944877	-1.0055	9.74164	-0.024955	-0.0186349	0.0121133	-0.576416	0.136963	-1.05908	
65	-0.117621	-0.0717682	-0.000757149	0.990462	-1.66161	0.207227	10.9423	-0.0229246	0.000691806	0.00717698	-0.164551	0.227051	-1.12671	-0.192388	-0.217342	0.00309313	0.956943	-3.98736	1.15169	9.1539	-0.0241859	0.00763413	-0.0137287	0.267822	-0.0593262	-1.06714	0.364772	0.236369	-0.304153	-0.847681	-1.90364	7.21733	7.32495	-0.00998319	0.00883956	-0.00356526	-0.0524902	-0.560059	-0.970947	-0.430911	0.122886	-0.564659	-0.693092	-6.37885	6.57866	3.28555	-0.00870427	0.00259414	0.0123934	0.425049	-0.955078	-0.20752	-0.144741	-0.209822	-0.198237	0.946428	-4.42642	-3.16783	8.08704	-0.0317298	-0.000885787	-0.00604911	0.243408	0.441895	-0.974121	-0.730919	0.0468592	-0.280267	0.620494	-4.02543	-5.12037	10.9762	0.000843227	0.0171741	-0.0115427	0.366943	0.850342	-0.615234	0.153491	-0.323983	-0.0858268	-0.929575	6.62861	0.512546	7.85242	0.0387748	0.0526336	-0.0205827	-0.909668	0.0795898	-0.545898	-0.170157	-0.940715	-0.165743	0.242141	-4.28721	2.29923	-7.12376	0.0321817	0.0178968	-0.0206568	0.779053	0.0102539	0.780029	0.0194805	-0.00474619	0.0293489	0.999368	-0.116553	0.553621	10.6324	0.00116527	-0.00134997	-0.0179518	-0.364014	0.0551758	-0.989502	0.0616762	-0.00260119	-0.0312768	-0.997603	0.47658	0.505881	10.4657	0.0235622	0.0290787	0.00962192	-0.496582	0.00683594	-1.03979	0.0380945	-0.0533886	0.0505709	-0.996565	0.992174	-1.02817	9.74852	0.0658896	-0.000883241	0.0157151	-0.580811	0.134766	-1.05664	
66	-0.117698	-0.0716866	-0.000988385	0.990458	-1.57679	0.16058	10.9304	-0.0189972	-0.0077903	0.00547264	-0.159912	0.224854	-1.11792	-0.192111	-0.217489	0.00302092	0.956965	-3.98724	1.17195	9.17894	-0.00421889	0.0143207	-0.0204714	0.27002	-0.0615234	-1.0647	0.364788	0.236258	-0.304041	-0.847745	-1.97626	7.20765	7.37412	-0.0089297	-0.000627105	-0.00094323	-0.0524902	-0.560059	-0.966309	-0.430858	0.122933	-0.564667	-0.693109	-6.39697	6.64825	3.34308	0.00216279	0.0082326	-0.00215075	0.424805	-0.952881	-0.209717	-0.144857	-0.209715	-0.198243	0.946433	-4.42298	-3.18183	8.16138	-0.00295587	-0.00155549	-0.00505838	0.25	0.439697	-0.974121	-0.730924	0.0468364	-0.280291	0.620478	-4.01467	-5.13924	11.0089	0.00381101	0.0192771	-0.0150953	0.362793	0.843994	-0.61499	0.153631	-0.322527	-0.0855486	-0.930084	6.55003	0.491449	8.08515	0.00877152	0.0713887	-0.00722116	-0.90332	0.0817871	-0.545898	-0.169772	-0.940821	-0.165745	0.241997	-4.26785	2.3045	-7.04065	0.0359136	0.0334515	-0.0227398	0.776855	0.0124512	0.782471	0.0194071	-0.00472548	0.029382	0.999369	-0.108037	0.551869	10.585	0.00745276	0.0046692	-0.0124929	-0.361572	0.0505371	-0.991699	0.0621894	-0.00236197	-0.0325185	-0.997532	0.522454	0.621328	10.637	0.0418834	0.000706854	0.0125904	-0.494141	0.00244141	-1.04443	0.0383697	-0.0532886	0.050759	-0.99655	0.937632	-0.973787	9.85808	-0.0226767	0.0160471	0.00683703	-0.583252	0.13916	-1.05908	
67	-0.11781	-0.0718347	-0.00114352	0.990434	-1.65513	0.122657	10.9191	-0.0016578	0.0021774	0.00277019	-0.160156	0.229248	-1.12231	-0.192197	-0.217483	0.00309375	0.956949	-4.03831	1.10729	9.17848	-0.00721672	0.0171565	-0.0105948	0.263428	-0.0593262	-1.06226	0.364621	0.23643	-0.304327	-0.847666	-1.91871	7.17951	7.35067	0.0324424	0.00397024	-0.0059789	-0.0546875	-0.557861	-0.964111	-0.430898	0.123286	-0.56453	-0.693133	-6.42332	6.58123	3.29187	-0.012781	0.0126149	-0.0106163	0.431641	-0.955078	-0.203125	-0.144897	-0.209958	-0.19749	0.946531	-4.46529	-3.00511	8.06035	0.0317206	0.0160322	-0.00379162	0.247803	0.439697	-0.97876	-0.730955	0.0466482	-0.280103	0.620541	-3.96711	-5.08817	10.9794	0.0156661	0.0169701	-0.014196	0.36499	0.846191	-0.615234	0.153779	-0.321534	-0.0849035	-0.930462	6.52059	0.491835	8.13537	0.00319973	0.0645172	-0.0101463	-0.905518	0.0817871	-0.550049	-0.169669	-0.940849	-0.165627	0.242041	-4.22941	2.25667	-7.09737	0.00805497	0.0131606	-0.0120681	0.778809	0.0146484	0.784668	0.0192823	-0.00494318	0.0295785	0.999364	-0.10414	0.547015	10.5933	0.0140786	0.018583	-0.0163869	-0.35498	0.0576172	-0.989502	0.0623652	-0.00191805	-0.0325957	-0.997519	0.445784	0.449641	10.498	0.00836465	0.0331453	0.0133152	-0.498779	0.00244141	-1.04443	0.0386203	-0.0529595	0.050713	-0.99656	1.01411	-1.10382	9.69271	0.00349597	0.0163572	0.0089367	-0.581055	0.141357	-1.06372	
68	-0.117847	-0.0717982	-0.00103375	0.990432	-1.62559	0.164456	10.9298	0.00486901	-0.00831333	0.00285522	-0.155762	0.229248	-1.12012	-0.192167	-0.217342	0.00324098	0.956987	-3.97173	1.20885	9.198	-0.00423009	0.0117961	-0.023114	0.272217	-0.0593262	-1.06006	0.364466	0.23645	-0.304791	-0.84756	-2.03578	7.26032	7.37823	0.00590636	-0.00378236	0.00219901	-0.0566406	-0.557861	-0.964111	-0.431052	0.123569	-0.564386	-0.693104	-6.41416	6.58436	3.36942	0.000775556	0.00436785	-0.00980407	0.425049	-0.955078	-0.209717	-0.145148	-0.209965	-0.197587	0.94647	-4.42137	-3.05197	8.17467	-0.0195972	0.00514547	-0.00208857	0.245605	0.441895	-0.974121	-0.731015	0.0463355	-0.280035	0.620524	-3.99246	-5.10001	10.9625	0.0156219	0.0222083	-0.0146141	0.360596	0.848145	-0.617432	0.153748	-0.321039	-0.0847311	-0.930654	6.52052	0.483413	8.13258	0.0188914	0.029198	-0.0206745	-0.905518	0.0795898	-0.558594	-0.170097	-0.940821	-0.165813	0.24172	-4.25667	2.31542	-7.08598	-0.0164863	0.0177639	-0.00979118	0.776855	0.0146484	0.775391	0.0193665	-0.00529991	0.029848	0.999353	-0.148695	0.60765	10.596	0.0158548	0.0183557	-0.0220744	-0.357178	0.057373	-0.985107	0.0626648	-0.00173093	-0.0333577	-0.997476	0.500782	0.551365	10.5129	0.0188609	0.0231259	0.0125751	-0.494141	0.000244141	-1.03979	0.039026	-0.0527729	0.049758	-0.996602	1.01457	-1.02811	9.64549	0.0494464	0.0137334	0.00902582	-0.576172	0.134766	-1.05908	
69	-0.117921	-0.071695	-0.000942308	0.990431	-1.57189	0.231052	10.9016	0.00317212	-0.00735626	0.00498466	-0.157715	0.224854	-1.12012	-0.192049	-0.217523	0.0033309	0.956969	-4.01285	1.12192	9.19035	-0.00421904	0.0262247	-0.01655	0.267822	-0.0637207	-1.06226	0.364398	0.236408	-0.304684	-0.84764	-1.88405	7.19453	7.37521	0.00197315	0.00705799	-0.00537457	-0.050293	-0.558105	-0.96875	-0.43115	0.123697	-0.564345	-0.693053	-6.40517	6.55617	3.27225	0.000353551	0.00842397	-0.00559601	0.424561	-0.946289	-0.203125	-0.144993	-0.21019	-0.196946	0.946578	-4.47502	-3.07999	8.04299	0.0485673	0.013044	-0.016593	0.246094	0.433105	-0.97876	-0.730998	0.0461914	-0.279752	0.620683	-3.98581	-5.00742	10.954	0.008231	0.0149339	-0.0207176	0.36499	0.846191	-0.615234	0.153723	-0.320655	-0.0845295	-0.930808	6.5278	0.492386	8.07682	0.0138159	0.0426235	-0.0147755	-0.907959	0.0861816	-0.558838	-0.170478	-0.940756	-0.166163	0.241464	-4.27322	2.30188	-7.11823	-0.0163542	0.0167263	-0.0173489	0.776855	0.0124512	0.777832	0.0193043	-0.00546304	0.0299732	0.999349	-0.137577	0.592451	10.5805	0.00961296	0.00981252	-0.0151106	-0.361816	0.0551758	-0.991943	0.0628456	-0.00170975	-0.0335784	-0.997457	0.471544	0.687863	10.3668	0.00369175	0.0105906	0.00989332	-0.498535	0.000244141	-1.04199	0.0391391	-0.0524455	0.0492639	-0.99664	1.03855	-1.00531	9.62153	0.0158251	0.0227418	-0.000709334	-0.578369	0.132568	-1.05664	
70	-0.118013	-0.071676	-0.000846749	0.990422	-1.59463	0.224906	10.9238	0.00161503	-0.00227574	0.00338065	-0.15332	0.225098	-1.12231	-0.192053	-0.217559	0.00357306	0.956959	-3.96951	1.22188	9.15462	0.00433272	0.0120963	-0.0164483	0.267822	-0.0637207	-1.05981	0.36426	0.236407	-0.304983	-0.847592	-1.92029	7.29356	7.42418	0.0167627	-0.00200646	-0.00391047	-0.0566406	-0.557861	-0.96167	-0.431152	0.123808	-0.564451	-0.692947	-6.4553	6.59567	3.29664	0.00596915	0.0101241	-0.00195506	0.424805	-0.948486	-0.205322	-0.145063	-0.210153	-0.196883	0.946588	-4.46826	-2.91905	8.12708	-0.0270689	0.00588401	-0.00572956	0.250244	0.435303	-0.976318	-0.73101	0.0462573	-0.27971	0.620682	-3.93398	-5.0388	10.9802	0.00725256	0.0114091	-0.0174184	0.360596	0.846191	-0.61499	0.153741	-0.320182	-0.0844287	-0.930977	6.48458	0.492614	8.07658	0.0184319	0.0355701	-0.0182074	-0.901367	0.0839844	-0.556641	-0.17013	-0.940822	-0.165913	0.241625	-4.29312	2.31335	-7.12299	0.0378393	0.0036067	-0.0108006	0.7771	0.00805664	0.780029	0.0192871	-0.00547695	0.0300245	0.999348	-0.144982	0.618337	10.6095	0.00432764	0.00525658	-0.0177201	-0.356934	0.0529785	-0.993896	0.0630194	-0.00145963	-0.0335835	-0.997446	0.52193	0.603837	10.5506	0.00229825	0.017905	0.00842979	-0.496338	0.000244141	-1.04883	0.0391465	-0.0521405	0.0489367	-0.996672	0.949276	-0.860737	9.72201	-0.00749083	0.0100121	-0.00393251	-0.583008	0.136963	-1.05908	
71	-0.11804	-0.0716569	-0.000864635	0.99042	-1.53371	0.196413	10.9306	0.0021978	-0.00476132	-0.00310888	-0.157715	0.224854	-1.12231	-0.192089	-0.217551	0.00350582	0.956954	-4.07618	1.16737	9.14092	-0.0141797	0.0102586	-0.0187878	0.268066	-0.065918	-1.05981	0.364278	0.236372	-0.304787	-0.847664	-1.89413	7.23546	7.37107	-0.0120057	0.00504945	-0.00304947	-0.0524902	-0.560303	-0.964111	-0.431096	0.123754	-0.564457	-0.692985	-6.40968	6.55733	3.27821	-0.000424642	0.00405705	0.00420669	0.427246	-0.952881	-0.211914	-0.14507	-0.21	-0.19694	0.946609	-4.41859	-3.05058	8.08665	0.0167808	0.00238874	-0.0179284	0.248047	0.435303	-0.97876	-0.731128	0.0464513	-0.279735	0.620518	-3.94751	-5.09704	10.9849	-0.00748448	0.0148991	-0.0101932	0.367188	0.843994	-0.617188	0.153679	-0.319933	-0.0842839	-0.931086	6.52025	0.505368	8.13434	0.00517071	0.0194498	-0.0101548	-0.907715	0.0817871	-0.558594	-0.170351	-0.94076	-0.165783	0.241797	-4.23056	2.30258	-7.08085	-0.0149024	0.012494	-0.0160683	0.776855	0.0124512	0.777832	0.0193312	-0.00541346	0.0299826	0.999349	-0.130771	0.623373	10.5499	0.00175875	0.00425847	-0.020634	-0.361572	0.0529785	-0.994141	0.0628439	-0.00166926	-0.0332502	-0.997468	0.494005	0.644741	10.3936	-0.0355968	0.00970421	-0.00548439	-0.496094	-0.00415039	-1.04639	0.0389975	-0.052111	0.0502314	-0.996614	0.963607	-0.966657	9.74474	-0.0568205	0.0163912	-0.00531306	-0.578857	0.141357	-1.06812	
72	-0.118028	-0.0718187	-0.00101326	0.990409	-1.64179	0.202491	10.9143	-0.0069723	-0.000235654	0.000794526	-0.164551	0.227051	-1.12231	-0.192046	-0.217231	0.00374266	0.957034	-3.99377	1.17858	9.17917	-0.00146363	0.00691274	-0.0185664	0.263672	-0.0637207	-1.06445	0.364319	0.236275	-0.304505	-0.847775	-1.96537	7.22947	7.38081	-0.00670239	0.00530938	-0.00462319	-0.0524902	-0.560303	-0.964111	-0.431085	0.123661	-0.564372	-0.693079	-6.44394	6.57249	3.32943	0.0020341	-0.00203233	0.00633051	0.429443	-0.952881	-0.20752	-0.145064	-0.209947	-0.197206	0.946567	-4.4672	-3.00315	8.11381	-0.0237936	0.0123735	-0.0115575	0.248291	0.430908	-0.97876	-0.731193	0.0465671	-0.279662	0.620466	-3.99057	-5.07178	11.0014	0.00663042	0.0073345	-0.0178124	0.358398	0.848145	-0.61084	0.153583	-0.320224	-0.084347	-0.930996	6.49872	0.482038	8.13037	0.0168425	-0.0154049	-0.0148396	-0.908203	0.090332	-0.556641	-0.170374	-0.940738	-0.165946	0.241757	-4.27075	2.32052	-7.12169	0.000772178	0.0100047	-0.014904	0.779297	0.00585938	0.777832	0.0194996	-0.00528568	0.0298642	0.99935	-0.152081	0.642024	10.6385	-0.000697468	-0.000201285	-0.0238989	-0.361816	0.0551758	-0.994141	0.0627185	-0.00191292	-0.0326885	-0.997494	0.455033	0.474946	10.5148	0.0121248	0.00247001	0.00618486	-0.496582	0.00244141	-1.04199	0.0389113	-0.0521886	0.0509781	-0.996576	0.967024	-1.07288	9.75976	-0.0184187	0.00681948	-0.0050462	-0.578613	0.13916	-1.06128	
73	-0.117919	-0.071691	-0.00104036	0.990431	-1.5918	0.169177	10.9277	0.0027378	-0.0108706	-0.00621466	-0.159912	0.224854	-1.12231	-0.191997	-0.217174	0.00375906	0.957057	-3.98945	1.19493	9.19695	-0.0143662	0.0169224	-0.0195145	0.267578	-0.0571289	-1.0647	0.36426	0.236296	-0.304402	-0.847832	-1.86296	7.19396	7.38137	0.00495344	0.003184	-0.00364985	-0.0546875	-0.555908	-0.964111	-0.43099	0.123424	-0.56451	-0.693067	-6.40368	6.61959	3.30182	0.012489	0.00681788	0.010084	0.424561	-0.946289	-0.209717	-0.145116	-0.209846	-0.197318	0.946558	-4.49457	-3.04758	8.07256	-0.00246	0.00021029	-0.0106275	0.248047	0.4375	-0.974121	-0.731196	0.0465868	-0.279603	0.620487	-4.00092	-5.07608	10.9927	0.00625394	0.0121156	-0.0174531	0.360596	0.848145	-0.617432	0.15371	-0.319849	-0.0838692	-0.931148	6.4935	0.480911	8.09293	0.00405968	0.0588644	-0.00692128	-0.907959	0.0861816	-0.560791	-0.169574	-0.940865	-0.165909	0.241849	-4.27358	2.3217	-7.10673	0.0503082	0.0159358	-0.0250324	0.778809	0.0146484	0.777588	0.0194296	-0.00501437	0.0296523	0.999359	-0.135226	0.598793	10.5829	-0.00153615	-0.00343369	-0.012484	-0.359131	0.0483398	-0.993896	0.0627513	-0.0021768	-0.0330286	-0.99748	0.488875	0.499231	10.5379	0.0287658	-0.00754332	0.00687944	-0.496582	0.00244141	-1.04199	0.0389406	-0.0523374	0.0512093	-0.996555	0.978696	-1.14622	9.67363	-0.000375768	0.000829932	-0.00243882	-0.578857	0.141357	-1.07275	
74	-0.117853	-0.0716678	-0.000989998	0.990441	-1.57095	0.209915	10.9359	0.00454916	-0.00621909	-0.00479183	-0.162109	0.224854	-1.11792	-0.192026	-0.217162	0.00369649	0.957054	-4.01493	1.1803	9.18944	-0.0150666	0.0167553	-0.0168116	0.27002	-0.0593262	-1.06006	0.364248	0.236351	-0.304431	-0.847811	-1.94698	7.21154	7.39267	0.00816297	0.00773799	-0.00160015	-0.0546875	-0.557861	-0.968506	-0.430941	0.12337	-0.56452	-0.693099	-6.38738	6.58321	3.30213	0.00301465	0.00437526	0.00724418	0.429443	-0.952881	-0.209717	-0.145314	-0.209606	-0.197647	0.946512	-4.44998	-3.08407	8.10099	-0.0195524	0.00271127	-0.00855228	0.243652	0.439697	-0.97876	-0.731026	0.0466766	-0.279947	0.620526	-4.00591	-5.08158	10.9749	-0.00915235	0.0183806	-0.0138324	0.362549	0.852539	-0.619629	0.153844	-0.319483	-0.0836453	-0.931271	6.46265	0.495156	8.1222	0.017344	0.0238568	-0.0104852	-0.905762	0.0861816	-0.556641	-0.168945	-0.940949	-0.165784	0.24205	-4.2586	2.27047	-7.06535	0.0606112	0.00882902	-0.0228725	0.78125	0.00805664	0.782471	0.0193145	-0.00488291	0.0296022	0.999363	-0.109093	0.559786	10.5621	0.000405153	-0.00473431	-0.0090267	-0.361816	0.0551758	-0.991943	0.0625894	-0.00244229	-0.0324221	-0.99751	0.51025	0.488726	10.4821	-0.00525747	0.0138148	0.00164633	-0.496582	0.00683594	-1.04443	0.0389502	-0.0523836	0.0505135	-0.996588	1.01383	-1.13086	9.66984	0.0566759	0.00100826	-0.0053881	-0.583252	0.13916	-1.06592	
75	-0.117853	-0.0716412	-0.00114158	0.990443	-1.62354	0.22145	10.915	-0.00909384	-0.00602009	0.000916026	-0.162354	0.227051	-1.11597	-0.192088	-0.217108	0.00362473	0.957055	-3.96728	1.1342	9.16052	-0.0116557	0.012265	-0.0181383	0.265869	-0.0637207	-1.05737	0.364362	0.236285	-0.304442	-0.847776	-1.92026	7.19581	7.367	-0.00155081	0.00388173	0.00434676	-0.0524902	-0.553711	-0.959717	-0.430904	0.123302	-0.564623	-0.69305	-6.40585	6.5728	3.33133	0.00631849	0.00660911	0.00230282	0.427246	-0.952881	-0.211914	-0.145355	-0.209543	-0.197724	0.946503	-4.3845	-3.08675	8.09623	-0.00716248	0.00395783	-0.0107209	0.243652	0.439697	-0.97876	-0.731122	0.0467743	-0.279928	0.620414	-3.97838	-5.07842	10.9316	0.00492793	0.0134157	-0.013052	0.362793	0.846191	-0.615234	0.153877	-0.319364	-0.0835393	-0.931316	6.50449	0.472016	8.11185	0.0145277	0.0284776	-0.0127333	-0.907715	0.0817871	-0.558594	-0.168792	-0.940977	-0.165774	0.242056	-4.26284	2.2352	-7.08253	-0.00480493	0.016795	-0.0181296	0.783203	0.0146484	0.775391	0.0192052	-0.00474889	0.029566	0.999367	-0.143281	0.499534	10.5844	0.00524588	0.000618951	-0.0167298	-0.364014	0.0551758	-0.989502	0.062681	-0.00250943	-0.0321264	-0.997513	0.503188	0.52995	10.5006	-0.0343159	0.00806701	0.00507402	-0.496582	0.00244141	-1.03979	0.038887	-0.0522051	0.0493676	-0.996657	0.937101	-1.03132	9.69579	0.0426093	0.00906001	-0.00577054	-0.576172	0.134766	-1.06128	
76	-0.11801	-0.0714112	-0.00140877	0.99044	-1.59195	0.116868	10.9269	-0.00624278	-0.00622177	0.00523105	-0.164551	0.229248	-1.11816	-0.192065	-0.217198	0.00366683	0.957039	-4.02324	1.14563	9.19422	-0.00627145	0.0226233	-0.0183958	0.27002	-0.0615234	-1.05762	0.364384	0.236372	-0.304289	-0.847798	-1.93766	7.20355	7.41774	0.00181291	0.00774854	0.000510523	-0.0458984	-0.560303	-0.966309	-0.430841	0.123268	-0.564667	-0.69306	-6.40359	6.58567	3.29293	0.00137444	0.00623523	0.00454346	0.427246	-0.952881	-0.20752	-0.14541	-0.209572	-0.19763	0.946508	-4.45596	-3.02485	8.10106	-0.00266532	0.00893066	-0.00806879	0.248047	0.4375	-0.97876	-0.731153	0.0469312	-0.279895	0.62038	-4.00925	-5.09523	11.0023	-0.00480809	0.0101901	-0.017265	0.366943	0.846191	-0.619385	0.153902	-0.318432	-0.082964	-0.931683	6.48231	0.475336	8.10263	0.00772281	0.0501145	-0.0145637	-0.89502	0.0861816	-0.558838	-0.169109	-0.940894	-0.165655	0.242237	-4.28248	2.26074	-7.09573	-0.00686638	0.00710115	-0.0140287	0.776855	0.0124512	0.782471	0.0192969	-0.00459606	0.0296339	0.999364	-0.117164	0.578623	10.5766	0.00870275	-0.00030229	-0.0226702	-0.359131	0.0461426	-0.991699	0.0627118	-0.00282827	-0.0322756	-0.997506	0.551615	0.534125	10.5961	0.0104507	0.000848487	0.00652153	-0.496338	-0.00195312	-1.04419	0.0390494	-0.0522455	0.0479803	-0.996716	0.967829	-0.88926	9.81294	0.0572806	0.00216691	-0.000236363	-0.580811	0.134766	-1.06592	
77	-0.118038	-0.0714043	-0.00136791	0.990438	-1.58138	0.149842	10.9356	0.00375039	-0.00437002	0.00288708	-0.166748	0.229248	-1.12231	-0.192097	-0.217125	0.00383267	0.957048	-3.98256	1.16102	9.16449	-0.00285858	0.0119134	-0.01364	0.265869	-0.0637207	-1.06226	0.364512	0.236258	-0.304337	-0.847757	-1.88074	7.20365	7.37744	0.00242713	-4.99207e-05	0.00174328	-0.0544434	-0.562256	-0.970703	-0.43093	0.123254	-0.564776	-0.692918	-6.38288	6.65716	3.28227	0.00689075	0.00745396	-0.00750685	0.427002	-0.950684	-0.20752	-0.145474	-0.209517	-0.197705	0.946495	-4.43171	-3.04701	8.09525	-0.00763805	0.00389457	-0.00894802	0.247803	0.439697	-0.976318	-0.731292	0.0469924	-0.279746	0.620279	-4.00643	-5.10025	10.9416	0.00791067	0.0102168	-0.00829609	0.358154	0.854736	-0.619629	0.153931	-0.317984	-0.0827337	-0.931851	6.4628	0.477569	8.14668	0.00837075	0.0567573	-0.013545	-0.901367	0.0817871	-0.562988	-0.169695	-0.940795	-0.165756	0.242144	-4.27988	2.29512	-7.0861	-0.012808	0.0158934	-0.018137	0.779053	0.0102539	0.775391	0.019308	-0.00463661	0.0297273	0.999361	-0.0778614	0.586222	10.6075	0.00887725	0.0119383	-0.0167055	-0.359131	0.0505371	-0.989502	0.0626427	-0.002842	-0.0323406	-0.997508	0.438386	0.604909	10.4505	-0.00324978	0.0148407	-0.00199748	-0.494141	0.00244141	-1.04443	0.0390267	-0.0522852	0.0473409	-0.996746	0.97269	-0.85924	9.73897	0.0164876	0.00931186	-0.0065058	-0.578369	0.130371	-1.05884	
78	-0.117963	-0.0713159	-0.00111028	0.990453	-1.5561	0.156923	10.9322	0.0137895	-0.00876126	-0.00177029	-0.161865	0.220459	-1.12231	-0.192137	-0.217266	0.00402708	0.957007	-4.00362	1.20731	9.17145	-0.00298833	0.0255686	-0.0137474	0.267578	-0.0571289	-1.0647	0.364438	0.236352	-0.304694	-0.847634	-1.94105	7.23948	7.39248	0.025201	0.00851563	0.0043331	-0.0524902	-0.560059	-0.966309	-0.430998	0.123479	-0.564872	-0.692758	-6.42766	6.59531	3.2884	0.00857777	0.0112978	-0.00854441	0.424805	-0.948486	-0.20752	-0.14549	-0.209606	-0.197696	0.946475	-4.4098	-3.10462	8.14209	0.000711761	0.00730605	-0.00432901	0.248047	0.435303	-0.976318	-0.731338	0.0471192	-0.279701	0.620235	-3.99745	-5.14442	11.0026	0.00545464	0.0109681	-0.020302	0.360352	0.850342	-0.617432	0.15395	-0.31694	-0.0825846	-0.932217	6.46659	0.473845	8.13589	0.0100338	0.0527029	-0.0108652	-0.903564	0.0839844	-0.565186	-0.16988	-0.940774	-0.16568	0.242147	-4.28334	2.31247	-7.11192	0.00562402	0.00863523	-0.0117518	0.774658	0.0124512	0.780029	0.0192531	-0.00471917	0.0298048	0.999359	-0.10252	0.59344	10.6049	0.0105175	0.0124994	-0.0144128	-0.359131	0.0505371	-0.991699	0.0624568	-0.00316495	-0.0317639	-0.997537	0.530866	0.569202	10.5047	-0.0170888	0.00310378	-0.00223177	-0.496582	0.00244141	-1.04443	0.0388975	-0.0524203	0.047713	-0.996726	0.989625	-0.939789	9.73701	-0.0283086	0.00144641	-0.00671855	-0.585205	0.132568	-1.06592	
79	-0.117801	-0.0714448	-0.000872707	0.990463	-1.61814	0.216738	10.9437	0.00743183	0.00114259	-0.00368151	-0.164307	0.222656	-1.11792	-0.192146	-0.217248	0.00415727	0.957009	-4.04589	1.16584	9.16548	-0.0034824	0.0108358	-0.0170531	0.265625	-0.0593262	-1.06226	0.36454	0.236235	-0.304615	-0.847651	-1.95512	7.26145	7.39531	-0.015823	0.00354752	0.00297203	-0.0480957	-0.558105	-0.966309	-0.431006	0.123527	-0.565008	-0.692633	-6.46441	6.5689	3.30701	0.00310055	0.00681498	-0.000972564	0.427246	-0.952881	-0.205322	-0.145515	-0.209776	-0.197189	0.946539	-4.46585	-2.95104	8.07899	0.00716937	0.00618371	-0.00825937	0.245605	0.441895	-0.976318	-0.731323	0.0473386	-0.279594	0.620284	-3.9349	-5.02943	11.0038	-0.00730458	0.00660776	-0.0184583	0.36499	0.846191	-0.615234	0.154075	-0.315299	-0.0817863	-0.932823	6.40402	0.474434	8.17447	-0.00277129	0.0959389	-0.0105861	-0.89502	0.0883789	-0.567383	-0.170419	-0.94067	-0.165651	0.242192	-4.25442	2.28037	-7.10651	-0.0219187	0.0147506	-0.0148386	0.779297	0.00585938	0.780273	0.0195032	-0.00482871	0.0301421	0.999344	-0.120957	0.625692	10.5895	0.00868939	0.0049195	-0.0251539	-0.356934	0.0529785	-0.991699	0.0623839	-0.00339763	-0.0318503	-0.997538	0.481649	0.49966	10.4918	0.0308853	-0.00756192	0.00514955	-0.499023	0.00683594	-1.04443	0.0389019	-0.0523074	0.0475555	-0.996739	0.952453	-1.06346	9.79479	0.0348372	0.0197745	-0.00347702	-0.578369	0.134766	-1.06592	
80	-0.117732	-0.071531	-0.000741436	0.990465	-1.63877	0.189316	10.9064	0.00626437	-0.00206576	-0.00302383	-0.162109	0.224854	-1.11597	-0.191989	-0.21742	0.00409352	0.957002	-3.99507	1.2012	9.17379	-0.0046141	0.0154931	-0.0155276	0.267822	-0.0593262	-1.0647	0.364383	0.236349	-0.304612	-0.847688	-1.93999	7.25716	7.37079	0.013385	0.0050067	-0.0114934	-0.0566406	-0.557861	-0.96167	-0.431009	0.123537	-0.56497	-0.69266	-6.45618	6.61321	3.28493	-0.00163076	0.00397684	0.000779725	0.429199	-0.950684	-0.211914	-0.145594	-0.209622	-0.19761	0.946473	-4.4319	-3.00373	8.1312	-0.0244232	0.0064324	-0.0154116	0.239014	0.441895	-0.976318	-0.731409	0.0473318	-0.279574	0.620193	-3.94377	-5.07612	10.9968	0.00493862	0.0187826	-0.0112095	0.358398	0.846191	-0.617188	0.154336	-0.313323	-0.0807254	-0.933538	6.42394	0.442711	8.21246	-0.00639551	0.118222	-0.00219631	-0.89502	0.0839844	-0.571533	-0.170372	-0.940678	-0.1658	0.242092	-4.27774	2.34086	-7.08924	0.0168469	0.0181468	-0.0245362	0.776855	0.0124512	0.782471	0.0195579	-0.00478678	0.0300113	0.999347	-0.119979	0.67561	10.6092	-0.00398375	0.00242916	-0.0185683	-0.366211	0.0505371	-0.991699	0.0624591	-0.00345343	-0.0319491	-0.99753	0.545992	0.577048	10.5171	0.0108554	0.0101471	0.00951859	-0.503174	0.00439453	-1.04443	0.0389294	-0.052365	0.0470654	-0.996758	0.920559	-0.843358	9.77225	0.0404241	0.000950199	-0.00344374	-0.57373	0.128174	-1.06567	
81	-0.117661	-0.0713173	-0.000633304	0.990489	-1.56879	0.249988	10.9335	0.00133442	-0.0108231	-0.00110072	-0.164551	0.227051	-1.12451	-0.191863	-0.217335	0.00434406	0.957045	-3.99876	1.18661	9.11937	0.00821911	0.00690546	-0.0219441	0.263672	-0.0637207	-1.06445	0.364373	0.236342	-0.304724	-0.847654	-1.91182	7.23545	7.40142	0.00200247	0.00789081	0.00380994	-0.050293	-0.564453	-0.966064	-0.430979	0.123278	-0.565137	-0.692589	-6.40636	6.63413	3.29272	0.0159588	0.000261892	0.00506568	0.429443	-0.952881	-0.20752	-0.145652	-0.209691	-0.197777	0.946414	-4.45516	-3.09856	8.14654	4.65393e-05	0.0114668	-0.00851541	0.24585	0.4375	-0.974121	-0.731395	0.0473618	-0.279633	0.620181	-3.98779	-5.15776	10.9562	0.00181777	0.017508	-0.0170724	0.358398	0.848145	-0.617432	0.154594	-0.311241	-0.07973	-0.934276	6.34172	0.508453	8.26532	-0.00258691	0.0977553	-0.00426666	-0.891113	0.097168	-0.578125	-0.169668	-0.94083	-0.165922	0.241911	-4.26501	2.30608	-7.0915	0.0400545	0.0353744	-0.0299427	0.779053	0.00805664	0.773193	0.0194167	-0.00470269	0.0299328	0.999352	-0.088446	0.594113	10.5948	0.00355396	0.00171618	-0.011341	-0.364014	0.0551758	-0.991943	0.0622729	-0.00340812	-0.0313296	-0.997561	0.495476	0.591233	10.4433	-0.015053	0.00787209	-0.00107697	-0.496582	0.00463867	-1.04663	0.0388745	-0.0528357	0.0469553	-0.996741	0.969721	-0.94316	9.74086	0.0037026	-0.00710044	-0.00545026	-0.576172	0.132568	-1.06348	
82	-0.11755	-0.0714348	-0.000786993	0.990494	-1.59968	0.204849	10.8999	-0.00321671	0.0041865	-0.00725335	-0.160156	0.229248	-1.12671	-0.191785	-0.21729	0.00456738	0.95707	-4.04678	1.18871	9.14456	0.00760852	0.00966392	-0.0204047	0.265625	-0.0615234	-1.0647	0.364414	0.236398	-0.304651	-0.847647	-1.91354	7.27372	7.37943	-0.000627261	0.0112127	-0.000501108	-0.0546875	-0.557861	-0.968506	-0.430986	0.123199	-0.565175	-0.692567	-6.41693	6.65596	3.32357	0.00801069	0.00211245	0.00390089	0.429199	-0.950684	-0.200928	-0.145626	-0.209807	-0.197612	0.946427	-4.44124	-3.04522	8.10529	0.0146807	0.0152207	-0.00933818	0.245605	0.439697	-0.976318	-0.7314	0.0473572	-0.27958	0.620199	-3.98216	-5.09252	10.9572	0.00684294	0.0140206	-0.0167785	0.356201	0.846191	-0.617188	0.154735	-0.310669	-0.0793395	-0.934477	6.32748	0.481315	8.26188	0.00078269	0.0696266	-0.00360994	-0.888672	0.0861816	-0.582031	-0.169668	-0.94083	-0.165922	0.241911	-4.26501	2.30608	-7.0915	0.0400545	0.0353744	-0.0299427	0.779053	0.00805664	0.773193	0.019324	-0.00466236	0.0299283	0.999354	-0.115568	0.576402	10.5928	0.00454668	0.00300792	-0.0110491	-0.359375	0.0529785	-0.987305	0.0622729	-0.00340812	-0.0313296	-0.997561	0.495476	0.591233	10.4433	-0.015053	0.00787209	-0.00107697	-0.496582	0.00463867	-1.04663	0.0388542	-0.0528324	0.0470262	-0.996738	0.990375	-0.958564	9.78672	-0.00444953	0.00743508	-0.0045702	-0.580566	0.128174	-1.06567	
83	-0.117477	-0.0714259	-0.000824969	0.990503	-1.60732	0.235003	10.9296	-0.00192016	-0.0043297	-0.00623095	-0.164307	0.224854	-1.12012	-0.191774	-0.217237	0.00407321	0.957086	-4.01736	1.2093	9.2157	-0.0241541	0.0100381	-0.0138259	0.27002	-0.0637207	-1.05981	0.364364	0.236397	-0.304702	-0.847651	-1.88694	7.21539	7.40458	0.00711934	0.004945	-3.35485e-06	-0.0566406	-0.557861	-0.96167	-0.430991	0.123277	-0.565238	-0.6925	-6.41719	6.62755	3.28574	0.00174326	0.010168	-0.00142574	0.429199	-0.948486	-0.200928	-0.14551	-0.20982	-0.197327	0.946501	-4.50068	-2.96005	8.05125	0.0125832	0.00325121	-0.00820626	0.24585	0.435303	-0.97168	-0.731527	0.0473866	-0.279726	0.619981	-3.93924	-5.02154	10.9815	-0.00524003	0.019201	-0.00154556	0.362549	0.852539	-0.617432	0.154914	-0.309023	-0.0787839	-0.93504	6.33664	0.389872	8.30731	-2.18408e-05	0.0802667	-0.00295162	-0.890625	0.0839844	-0.582031	-0.168938	-0.940955	-0.166625	0.241453	-4.25374	2.26374	-7.09515	0.014679	0.0240696	-0.0262175	0.776855	0.0102539	0.787109	0.0192385	-0.00475658	0.0299492	0.999355	-0.128557	0.592918	10.5749	0.00452699	0.0100062	-0.0186332	-0.361816	0.0551758	-0.989502	0.0623078	-0.00334196	-0.0310138	-0.997569	0.520586	0.55161	10.5181	-0.011023	0.0107346	0.00308065	-0.494385	0.00463867	-1.04199	0.0388734	-0.0530126	0.0468095	-0.996738	1.02759	-0.891552	9.69806	0.0100398	-0.00111612	-0.00221744	-0.578369	0.132568	-1.06348	
84	-0.117603	-0.0714748	-0.00136032	0.990484	-1.57777	0.186667	10.9347	-0.027706	0.00551323	0.00691213	-0.164307	0.224854	-1.12671	-0.19202	-0.216817	0.00413545	0.957132	-3.96696	1.13049	9.19972	-0.00489805	0.000439203	-0.0105257	0.27002	-0.0593262	-1.0647	0.36439	0.236399	-0.304647	-0.847659	-1.96873	7.28311	7.44118	-0.00155369	0.0086272	-0.0049816	-0.0588379	-0.555664	-0.957275	-0.430963	0.12326	-0.564966	-0.692742	-6.41363	6.59749	3.34402	-0.0119613	-0.00465784	0.00847432	0.426758	-0.944092	-0.20752	-0.145705	-0.209549	-0.198128	0.946364	-4.36661	-3.16099	8.12987	-0.0361734	0.00430881	-0.0147902	0.243652	0.4375	-0.976318	-0.731751	0.0475303	-0.279837	0.619655	-4.02262	-5.12078	10.9239	-0.00448973	0.0117151	-0.00467214	0.366943	0.850342	-0.615234	0.15526	-0.305962	-0.0779557	-0.936058	6.21315	0.46252	8.28261	-0.00448226	0.185576	-0.00677592	-0.88208	0.0883789	-0.59082	-0.168542	-0.941029	-0.166591	0.241464	-4.28665	2.29406	-7.14919	0.0276531	0.0225461	-0.0201515	0.776611	0.0168457	0.780029	0.0192957	-0.00474931	0.0296829	0.999362	-0.143423	0.542184	10.6496	-0.0082639	0.00129036	-0.0208635	-0.361572	0.0505371	-0.993896	0.0622946	-0.00312507	-0.0310569	-0.99757	0.528595	0.529674	10.5619	0.00290361	0.020069	0.00190307	-0.496826	0.0090332	-1.04443	0.0389107	-0.053169	0.0471088	-0.996714	0.989598	-0.990966	9.7341	-0.00543298	-0.00466399	-0.000936679	-0.580566	0.130371	-1.06348	
