40	Head	00b4120a												Throax	00b411e8												LUpArm	00b411d9												LFoArm	00b41148												RUpArm	00b411db												RFoArm	00b41204												Waist	00b411f7												Lthigh	00b411f4												Lshank	00b4111b												Rthigh	00b411c8												Rshank	00b411ee												
PacketCount	q0	q1	q2	q3	accX	accY	accZ	gyrX	gyrY	gyrZ	magX	magY	magZ	q0	q1	q2	q3	accX	accY	accZ	gyrX	gyrY	gyrZ	magX	magY	magZ	q0	q1	q2	q3	accX	accY	accZ	gyrX	gyrY	gyrZ	magX	magY	magZ	q0	q1	q2	q3	accX	accY	accZ	gyrX	gyrY	gyrZ	magX	magY	magZ	q0	q1	q2	q3	accX	accY	accZ	gyrX	gyrY	gyrZ	magX	magY	magZ	q0	q1	q2	q3	accX	accY	accZ	gyrX	gyrY	gyrZ	magX	magY	magZ	q0	q1	q2	q3	accX	accY	accZ	gyrX	gyrY	gyrZ	magX	magY	magZ	q0	q1	q2	q3	accX	accY	accZ	gyrX	gyrY	gyrZ	magX	magY	magZ	q0	q1	q2	q3	accX	accY	accZ	gyrX	gyrY	gyrZ	magX	magY	magZ	q0	q1	q2	q3	accX	accY	accZ	gyrX	gyrY	gyrZ	magX	magY	magZ	q0	q1	q2	q3	accX	accY	accZ	gyrX	gyrY	gyrZ	magX	magY	magZ	
0	-0.0478055	-0.0625349	0.0279627	0.996505	-1.47038	0.617608	10.9114	0.0494919	-0.0468161	-0.035983	-0.218994	0.124268	-1.11938	-0.291539	-0.203379	-0.0717636	0.931929	-4.32118	-0.200661	8.98349	-0.0409394	-0.0145939	0.0213594	0.336426	0.130859	-1.03394	0.104586	0.233794	-0.117275	-0.959504	-4.45482	2.86886	9.13795	0.114884	-0.043627	-0.0238069	0.0759277	-0.310791	-1.07373	-0.352169	0.13098	-0.439604	-0.815825	-4.97657	6.45128	5.68197	0.0717808	0.10014	0.0129239	0.289551	-0.859375	-0.535156	0.060481	-0.0825859	-0.394753	0.913067	-0.953097	-6.87486	6.31927	0.0566625	-0.0370642	-0.0302266	-0.0974121	0.725342	-0.778076	-0.752759	0.177009	-0.53662	0.337729	-7.47816	-5.78843	5.09276	-0.0459353	0.0468576	0.000913921	0.724609	0.752686	0.0629883	0.168431	-0.175092	-0.0870543	-0.966124	5.2127	-0.369619	9.02853	0.0524102	-0.0267822	0.0140224	-0.798096	0.134521	-0.6875	-0.163661	0.0573333	0.168379	0.970349	1.37296	2.76873	10.5142	-0.0929487	-0.0342688	-0.0296454	-0.574951	-0.246582	-0.979004	-0.0863234	0.0780012	0.267626	0.956473	1.9129	4.26785	9.10877	0.178738	0.0629102	-0.0316465	-0.633057	-0.460205	-0.887207	-0.183439	0.937891	-0.168976	-0.241161	-4.70275	-2.35976	-7.30329	-0.0540894	-0.0298831	-0.0076149	0.800781	0.226318	0.692871	0.02658	0.00200082	-0.017277	-0.999495	0.565854	0.327512	9.60962	-0.0623237	-0.025831	-0.00489106	-0.360596	0.0947266	-1.03979	
1	-0.0470142	-0.0607837	0.0282225	0.996644	-1.02461	0.755305	10.9669	-0.0107835	-0.0757312	-0.0263071	-0.223389	0.124023	-1.11523	-0.292207	-0.202893	-0.0719987	0.931808	-3.99234	-0.347875	9.26408	-0.0273934	0.0314004	-0.00685008	0.333984	0.141602	-1.02954	0.103887	0.234342	-0.119219	-0.959207	-4.38949	3.01105	9.37625	0.0668187	0.0282373	-0.00910901	0.0737305	-0.319336	-1.07349	-0.351963	0.131683	-0.440113	-0.815526	-4.92551	6.54654	5.65146	0.0234113	0.0759955	-0.0130301	0.293945	-0.85498	-0.530762	0.0592378	-0.0818192	-0.396219	0.912582	-0.797852	-7.23162	6.62102	-0.103731	-0.040508	0.0278679	-0.0927734	0.723145	-0.778076	-0.752971	0.176197	-0.537277	0.336633	-7.79577	-5.94119	5.01657	-9.09222e-05	0.0326059	0.0479012	0.730957	0.752686	0.0671387	0.168961	-0.17656	-0.0874141	-0.965732	5.36165	-0.230771	8.98887	0.0476921	-0.0307604	0.00155922	-0.804688	0.134521	-0.6875	-0.163092	0.057718	0.168376	0.970422	1.34324	2.89042	10.3228	0.00462516	-0.00963762	-0.0182045	-0.575195	-0.244385	-0.981445	-0.0867662	0.0762833	0.273679	0.954857	2.00917	5.12545	8.806	0.230154	0.0345016	-0.0307246	-0.630127	-0.47168	-0.884766	-0.184106	0.937872	-0.167808	-0.241541	-4.80492	-2.25653	-7.4902	0.0340394	-0.0218343	-0.0561301	0.802979	0.226318	0.699707	0.0273439	0.00252725	-0.0159014	-0.999496	0.1908	0.260702	9.81917	-0.045354	0.041439	0.0421879	-0.358398	0.0991211	-1.04224	
2	-0.0468469	-0.060539	0.0278891	0.996676	-1.0079	0.5888	11.0648	-0.0262297	-0.0223354	-0.0134227	-0.221436	0.126221	-1.11743	-0.292204	-0.20347	-0.0723113	0.931659	-4.2825	-0.310857	9.21584	-0.0200356	0.0685106	-0.0180606	0.336426	0.135254	-1.03418	0.10388	0.234677	-0.119586	-0.95908	-4.44485	3.15527	9.31353	0.0356306	0.0272858	6.63769e-05	0.0715332	-0.312744	-1.07349	-0.351883	0.132419	-0.440701	-0.815123	-4.95948	6.23031	5.78675	0.0162287	0.0384893	-0.0121621	0.289551	-0.857178	-0.532959	0.0586945	-0.081495	-0.397673	0.912014	-0.865089	-7.36238	6.74556	-0.125292	-0.0362081	0.00649054	-0.0888672	0.72998	-0.778076	-0.753288	0.175631	-0.537055	0.336575	-7.7539	-5.86625	4.99447	0.0375382	0.00801691	0.0176766	0.730957	0.752686	0.060791	0.169169	-0.176592	-0.0875125	-0.965681	5.32383	-0.121821	8.94846	0.0458937	0.024344	-0.00271355	-0.800293	0.134521	-0.689697	-0.162673	0.0581455	0.1689	0.970376	1.49769	3.21169	10.5537	0.0522241	-0.0282483	-0.0258389	-0.579346	-0.246582	-0.981445	-0.0868312	0.0758585	0.275672	0.954312	2.00496	5.3991	8.92699	0.175384	0.0225474	-0.0286029	-0.632324	-0.476074	-0.886963	-0.184106	0.937872	-0.167808	-0.241541	-4.80492	-2.25653	-7.4902	0.0340394	-0.0218343	-0.0561301	0.802979	0.226318	0.699707	0.0280395	0.00298373	-0.0157914	-0.999478	0.0433938	0.0387538	9.80329	-0.00713269	0.0445842	0.051731	-0.356445	0.10376	-1.04224	
3	-0.0468208	-0.0608229	0.0275467	0.996669	-1.19036	0.585783	10.938	-0.010478	0.01321	0.000769312	-0.223633	0.126221	-1.11743	-0.293014	-0.203364	-0.072018	0.93145	-4.27596	-0.395706	9.06262	-0.00667132	-0.0151209	0.0248581	0.331787	0.139404	-1.03198	0.104779	0.235072	-0.118826	-0.95898	-4.49869	2.92575	9.12853	-0.0491162	0.0262656	0.0327186	0.0759277	-0.310791	-1.07129	-0.351134	0.133136	-0.440715	-0.815322	-4.96926	5.89972	5.61577	-0.00680605	0.0444704	0.0188458	0.294189	-0.861572	-0.532715	0.058656	-0.0816257	-0.397204	0.912209	-0.767033	-7.30472	6.48117	0.0558844	0.0216509	0.00895264	-0.0952148	0.725586	-0.785156	-0.753581	0.175865	-0.53642	0.336811	-7.73594	-5.72123	5.20553	0.0107141	-0.00294675	-0.0371239	0.726807	0.750488	0.0651855	0.169292	-0.176588	-0.0874799	-0.965663	5.27774	-0.147058	9.01628	0.0349172	0.0284115	-0.0080078	-0.804688	0.134521	-0.689697	-0.162708	0.0573503	0.17028	0.970176	1.32112	3.10031	10.5524	0.0955224	0.0659581	0.000795687	-0.577148	-0.248779	-0.976562	-0.0865914	0.0761488	0.278501	0.953489	1.942	5.11942	9.01288	0.100177	-0.0437454	-0.0215942	-0.632324	-0.478516	-0.880127	-0.184906	0.937869	-0.166634	-0.241752	-4.86642	-2.53845	-7.47074	-0.0157991	-0.00605536	-0.00967794	0.800537	0.23291	0.699463	0.0291298	0.00334124	-0.016271	-0.999438	-0.126752	0.086017	9.87829	0.035078	0.0107908	0.0340634	-0.356445	0.105957	-1.04932	
4	-0.0470414	-0.0608095	0.0269006	0.996677	-1.3535	0.524269	10.9477	-0.0311647	-0.0173476	0.00676418	-0.223633	0.128418	-1.11963	-0.293256	-0.203221	-0.0718744	0.931416	-4.26282	-0.239427	9.08097	-0.0184669	0.0305445	-0.0238092	0.333984	0.139404	-1.03662	0.105287	0.235233	-0.121058	-0.958606	-4.74226	2.78879	9.02859	0.134579	0.000929017	0.0281723	0.0761719	-0.321533	-1.06885	-0.350989	0.133452	-0.442564	-0.814331	-5.22514	6.07601	5.70443	0.0894266	0.045618	-0.0134869	0.294189	-0.861572	-0.523926	0.0581595	-0.0819722	-0.396327	0.912592	-0.992894	-7.03631	6.47335	0.0101689	0.00170121	0.00991557	-0.097168	0.720947	-0.780518	-0.753594	0.175809	-0.536004	0.337472	-7.63461	-5.72869	5.16241	0.0249139	0.014296	-0.0317921	0.729004	0.752686	0.0627441	0.168326	-0.17644	-0.0870985	-0.965893	5.19072	-0.273557	9.27076	-0.00247511	0.0240563	-0.0429603	-0.800293	0.134521	-0.696045	-0.163192	0.0564341	0.173431	0.96959	1.22005	3.32342	10.392	0.180338	-0.00987745	0.0155634	-0.574463	-0.261963	-0.976318	-0.0870443	0.0757774	0.282738	0.952229	2.02545	5.40483	8.64013	0.157615	0.0175931	-0.00976956	-0.634033	-0.48999	-0.877686	-0.184659	0.937536	-0.166625	-0.243236	-4.7338	-2.56523	-7.44821	-0.0163524	-0.0407419	0.0212054	0.805176	0.226318	0.69043	0.0295485	0.00298181	-0.0177032	-0.999402	-0.0439008	0.362614	9.76603	0.0562116	-0.0121267	0.00928815	-0.358398	0.0969238	-1.04224	
5	-0.0477172	-0.0608481	0.026496	0.996654	-1.37455	0.404307	10.9771	-0.0138476	0.0054175	0.0274375	-0.221436	0.130615	-1.12183	-0.293159	-0.203747	-0.0715027	0.93136	-4.43803	-0.202378	9.06314	0.0166575	0.018189	-0.00925753	0.336182	0.137207	-1.03662	0.104327	0.235423	-0.124354	-0.958242	-4.57574	3.38719	9.184	0.123663	-0.00903758	-0.0155613	0.0717773	-0.321533	-1.06885	-0.351181	0.133848	-0.444132	-0.813329	-5.2531	6.14996	5.58463	0.0557651	0.0460311	-0.0137955	0.291992	-0.861572	-0.530518	0.0580402	-0.0820308	-0.397068	0.912272	-0.977481	-7.31768	6.48445	-0.0301838	0.0194523	-0.00637912	-0.0927734	0.723145	-0.773682	-0.753647	0.175836	-0.535803	0.337657	-7.63728	-5.65622	5.25405	0.00731876	0.00828011	-0.0294197	0.722412	0.752686	0.0693359	0.167777	-0.176589	-0.0880243	-0.965877	5.12033	-0.270266	9.07147	0.0726188	0.0378299	-0.0406932	-0.804443	0.128174	-0.693848	-0.162732	0.0568311	0.174399	0.969471	1.23762	3.58822	10.7267	0.0175699	-0.0193767	-0.0241983	-0.574463	-0.259766	-0.976562	-0.0872947	0.0747041	0.284486	0.95177	1.93989	5.89508	8.8617	0.0260396	0.0496026	-0.0296331	-0.62915	-0.496826	-0.875488	-0.184254	0.937331	-0.166771	-0.244229	-4.71961	-2.53015	-7.47661	-0.0121709	-0.0156052	0.0173784	0.800537	0.230713	0.694824	0.029502	0.00262285	-0.0182831	-0.999394	-0.0958108	0.417075	9.82722	0.0198238	-0.00644254	-0.00447878	-0.358154	0.0947266	-1.03979	
6	-0.0481959	-0.0607915	0.0266383	0.99663	-1.42862	0.426569	10.8952	0.0132429	-0.0158247	0.0171368	-0.221436	0.130615	-1.12402	-0.2934	-0.203437	-0.0711391	0.93138	-4.25227	-0.195702	9.09336	-0.00241612	0.00170778	-0.0143926	0.336426	0.133057	-1.03638	0.10402	0.235232	-0.125062	-0.95823	-4.62601	3.30949	9.18191	0.0118312	-0.0139653	-0.0143724	0.0739746	-0.328125	-1.0686	-0.350672	0.134905	-0.445153	-0.812815	-5.30714	6.26361	5.64502	0.0132948	0.0751589	0.00224678	0.298584	-0.861572	-0.526123	0.0579937	-0.0822065	-0.396616	0.912455	-1.01155	-7.18541	6.4584	0.0192686	0.0100604	0.00105881	-0.0927734	0.723389	-0.782715	-0.753442	0.175482	-0.535569	0.33867	-7.61371	-5.56657	5.31668	0.0207525	0.0286113	-0.0257707	0.730957	0.754883	0.0671387	0.167429	-0.176307	-0.0872531	-0.966059	5.1701	-0.120969	9.10923	0.0071042	0.0571355	-0.0277034	-0.800049	0.128174	-0.69165	-0.161502	0.0576693	0.172621	0.969945	1.22936	3.06375	10.4198	-0.0437818	-0.0178267	-0.0342168	-0.576904	-0.253174	-0.979004	-0.0870262	0.0740027	0.283037	0.952282	1.93781	5.43569	8.79875	-0.0617338	0.0399359	-0.0333317	-0.629395	-0.492188	-0.882324	-0.184281	0.937108	-0.166712	-0.245104	-4.75721	-2.4852	-7.48816	-0.00663565	-0.0506874	0.0131362	0.807373	0.230713	0.69043	0.0295044	0.00237816	-0.0183307	-0.999394	-0.147951	0.499703	9.8152	-0.00237355	-0.00358318	-0.000422672	-0.358154	0.0947266	-1.04224	
7	-0.0482645	-0.0606292	0.0269806	0.996628	-1.32925	0.487093	10.9711	0.0270557	-0.0180021	0.00830579	-0.223633	0.128418	-1.12378	-0.293654	-0.204046	-0.0711468	0.931166	-4.36243	-0.0877489	9.0874	-0.00955104	0.0426839	0.00271615	0.342773	0.137207	-1.03662	0.103211	0.235211	-0.124641	-0.958378	-4.45908	3.1606	9.10302	-0.0176183	0.00582117	-0.0378846	0.0739746	-0.330322	-1.0708	-0.349577	0.136268	-0.445324	-0.812966	-5.11832	6.02658	5.41118	-0.0124951	0.0566945	0.0253493	0.293945	-0.859375	-0.528564	0.057963	-0.0820257	-0.396275	0.912621	-1.09585	-7.20621	6.47856	0.0316301	-0.00581952	-0.0111438	-0.0888672	0.72998	-0.785156	-0.753332	0.175501	-0.535475	0.339053	-7.58824	-5.91534	5.19605	-0.0105133	0.0207214	-0.0310225	0.724365	0.756836	0.0671387	0.16734	-0.175924	-0.0864092	-0.96622	5.13374	-0.149197	9.19977	0.00449731	0.0401356	-0.0160551	-0.802002	0.123779	-0.69165	-0.160597	0.0589704	0.171117	0.970283	1.34253	3.00143	10.5939	-0.0583379	-0.0306769	-0.0168179	-0.579102	-0.250977	-0.979004	-0.0871199	0.0738402	0.282069	0.952573	1.88527	4.89114	8.86993	0.0125054	0.0112597	-0.00408369	-0.625	-0.487549	-0.877686	-0.184886	0.936174	-0.166697	-0.24821	-4.812	-2.40382	-7.41328	0.00609675	-0.0370526	0.0225291	0.805176	0.226318	0.686035	0.0294264	0.00204969	-0.0179013	-0.999405	0.0342605	0.283123	9.76854	-0.00424235	-0.00533405	-0.012595	-0.360596	0.0947266	-1.04663	
8	-0.048399	-0.0604724	0.0278633	0.996606	-1.256	0.685107	10.9336	0.0134481	-0.0137683	0.00605114	-0.223633	0.126465	-1.12817	-0.294059	-0.203916	-0.0712387	0.93106	-4.28608	-0.212382	9.10904	-0.018401	0.00279303	-0.0120923	0.34082	0.133057	-1.03174	0.103126	0.234878	-0.124775	-0.958451	-4.66415	2.96645	8.99686	0.0304786	-0.0261648	-0.00499501	0.0717773	-0.328125	-1.06641	-0.349318	0.136574	-0.446492	-0.812385	-5.21596	6.05933	5.42753	0.0435692	0.0368312	0.00175252	0.298828	-0.86377	-0.526123	0.0580545	-0.0819561	-0.396472	0.912537	-0.964402	-7.08505	6.57451	-0.0306613	0.006212	-0.0115089	-0.0952148	0.725586	-0.785156	-0.753264	0.175355	-0.535529	0.339194	-7.56669	-5.8424	5.12296	0.00482456	0.026104	-0.0111341	0.733154	0.754883	0.0649414	0.167048	-0.176912	-0.0854548	-0.966175	5.25988	-0.190918	9.00282	-0.0106874	-0.00843874	-0.0166239	-0.800049	0.130127	-0.69165	-0.16024	0.0595539	0.172192	0.970117	1.42706	3.23474	10.7399	0.0464051	-0.0256585	-0.0153415	-0.581299	-0.253174	-0.974121	-0.0875304	0.0735957	0.282061	0.952556	1.96838	5.16059	8.9473	-0.00081498	0.00982182	-0.00204599	-0.629639	-0.487549	-0.880127	-0.184715	0.936021	-0.167206	-0.248571	-4.85196	-2.37145	-7.40335	-0.00202743	-1.12692e-05	0.025582	0.814453	0.222168	0.683838	0.0289875	0.00181993	-0.0179435	-0.999417	0.0966582	0.38673	9.74155	-0.00149925	0.000905309	-0.0213918	-0.360596	0.0969238	-1.04443	
9	-0.0487181	-0.0604762	0.0277234	0.996594	-1.27989	0.59739	10.9573	-0.00996666	0.000843926	0.0155557	-0.219238	0.126465	-1.12158	-0.29412	-0.204184	-0.0713132	0.930976	-4.21859	-0.194104	9.09129	-0.0134802	0.0411792	-0.0114081	0.342773	0.135254	-1.03174	0.102407	0.234898	-0.126214	-0.958335	-4.40422	3.26175	9.22062	0.0493022	0.0118399	-0.0125803	0.0698242	-0.334473	-1.0708	-0.349386	0.136741	-0.446997	-0.81205	-5.1938	6.37569	5.49597	0.0416906	0.0318351	-0.0124389	0.298584	-0.861572	-0.523926	0.0582898	-0.0820078	-0.396283	0.912599	-0.853362	-7.13324	6.5879	0.0327049	0.0207101	-0.0222115	-0.097168	0.723389	-0.782715	-0.753432	0.175181	-0.535143	0.33952	-7.60943	-5.80713	5.26073	0.00766769	0.0129825	-0.0247981	0.726807	0.752686	0.0629883	0.16708	-0.176372	-0.0839246	-0.966403	5.17369	-0.236052	9.10924	-0.024917	0.0798398	-0.00660012	-0.796143	0.134521	-0.691895	-0.160124	0.0591213	0.17229	0.970145	1.41591	3.36319	10.796	0.00676312	0.0518394	-0.0115103	-0.57666	-0.257568	-0.976562	-0.0877731	0.073409	0.282676	0.952366	1.98795	5.43164	8.91008	0.00576854	0.00495061	-0.0122612	-0.627197	-0.487549	-0.880127	-0.184644	0.93604	-0.167359	-0.248449	-4.83197	-2.37674	-7.44527	0.000492015	0.0335562	0.0131482	0.812012	0.224365	0.683594	0.0288061	0.0018352	-0.0178099	-0.999425	0.0927624	0.459098	9.71978	-0.00970344	0.00828765	-0.0179092	-0.362793	0.0969238	-1.04224	
10	-0.0489801	-0.0602015	0.0274818	0.996605	-1.26118	0.565332	10.9517	-0.0109414	-0.0162373	0.0120533	-0.223633	0.126221	-1.12378	-0.29413	-0.204393	-0.0712623	0.930931	-4.28386	-0.168458	9.08758	-0.00151016	0.0304643	-0.0158391	0.336182	0.137207	-1.03418	0.102598	0.235146	-0.126077	-0.958272	-4.53745	3.20995	9.12607	-0.00805382	0.025832	0.00592785	0.0720215	-0.334473	-1.06616	-0.349387	0.136777	-0.447121	-0.811975	-5.1138	6.28833	5.51027	0.0106607	0.0122117	-0.00032267	0.301025	-0.865967	-0.517334	0.0583816	-0.0819629	-0.395824	0.912796	-1.10689	-7.08569	6.40539	0.000422853	0.000665234	-0.0069197	-0.0927734	0.723389	-0.787354	-0.753592	0.174727	-0.534869	0.339831	-7.65373	-5.72839	5.21646	0.0448898	0.0141006	-0.0155073	0.726807	0.752686	0.060791	0.167275	-0.177544	-0.0824087	-0.966285	5.14876	-0.220779	9.12849	-0.0331965	-0.0314454	0.00818682	-0.802734	0.141113	-0.694092	-0.160124	0.0591213	0.17229	0.970145	1.41591	3.36319	10.796	0.00676312	0.0518394	-0.0115103	-0.57666	-0.257568	-0.976562	-0.0877731	0.073409	0.282676	0.952366	1.98795	5.43164	8.91008	0.00576854	0.00495061	-0.0122612	-0.627197	-0.487549	-0.880127	-0.184913	0.936276	-0.167304	-0.247394	-4.78353	-2.31798	-7.43946	0.0208851	0.0605183	-0.0216541	0.807373	0.228516	0.69043	0.0289543	0.00219651	-0.0173	-0.999429	0.0532779	0.349984	9.77417	-0.0130062	0.0276194	0.0103597	-0.360596	0.0991211	-1.04443	
11	-0.0491568	-0.0605579	0.0272006	0.996582	-1.25375	0.583893	10.9863	-0.0120229	0.0211107	0.00773906	-0.224121	0.137207	-1.11743	-0.294076	-0.204517	-0.0715747	0.930897	-4.40102	-0.176333	8.99965	-0.0189212	0.0194204	-0.0229153	0.344971	0.139404	-1.03906	0.103157	0.235362	-0.126471	-0.958107	-4.63733	2.97488	9.04143	0.0478834	0.00495911	0.0232077	0.0698242	-0.334473	-1.0708	-0.349947	0.136469	-0.44708	-0.811808	-5.26428	6.15953	5.63239	0.0265402	-0.012565	-0.0210631	0.291748	-0.859375	-0.521973	0.0581089	-0.0817228	-0.396399	0.912586	-0.937848	-7.19705	6.54703	-0.035841	-0.00531301	-0.00410218	-0.0974121	0.725342	-0.780518	-0.753881	0.174568	-0.534644	0.339625	-7.65948	-5.68869	5.28381	-0.00382909	0.00741051	-0.00190514	0.730957	0.756836	0.0583496	0.167368	-0.179673	-0.0821695	-0.965895	5.16122	-0.243094	9.07157	0.0263168	-0.0404001	-0.00883979	-0.804443	0.132324	-0.69165	-0.159614	0.0582054	0.171929	0.970348	1.29167	3.0362	10.5065	0.0241533	0.0591406	-0.0189404	-0.576904	-0.255371	-0.974121	-0.0871612	0.0732884	0.281603	0.952749	1.88249	5.11905	8.81221	-0.0346464	-0.00716762	-0.0246864	-0.63208	-0.485352	-0.884521	-0.18589	0.936467	-0.166879	-0.246222	-4.8023	-2.44862	-7.41787	0.0413557	0.0576228	-0.0346414	0.807617	0.221924	0.692871	0.0297803	0.0027394	-0.0172567	-0.999404	-0.0761533	0.296909	9.82479	0.00140531	0.031278	0.0323066	-0.351562	0.0993652	-1.04224	
12	-0.049458	-0.0607568	0.0269207	0.996563	-1.37513	0.54957	10.927	-0.0213714	0.0142462	0.0224688	-0.221436	0.128418	-1.12183	-0.294115	-0.204086	-0.0714453	0.930989	-4.26916	-0.218132	9.07247	-0.0066888	0.000694319	-0.0205454	0.336182	0.139404	-1.03418	0.103091	0.235611	-0.127849	-0.95787	-4.63426	3.40062	9.08387	0.0434869	0.011018	0.00210184	0.0656738	-0.33667	-1.07056	-0.350312	0.136275	-0.447243	-0.811594	-5.25669	5.96048	5.4189	0.0215713	0.000723153	-0.00123257	0.298584	-0.861572	-0.521729	0.0580262	-0.0818112	-0.396723	0.912442	-0.943236	-7.27365	6.65142	-0.0283702	0.0111829	-0.00460261	-0.0908203	0.725586	-0.782715	-0.753966	0.174422	-0.534701	0.33942	-7.77455	-5.85161	5.33536	-0.0100869	0.0260018	-0.0106981	0.726562	0.754883	0.0671387	0.167341	-0.180576	-0.0820794	-0.965739	5.17057	-0.284746	9.14564	0.0167294	-0.0433434	-0.010961	-0.80249	0.132324	-0.689697	-0.159536	0.0578197	0.172199	0.970336	1.36375	3.23029	10.5755	0.0318859	0.0364877	-0.00326428	-0.576904	-0.250977	-0.974365	-0.0871508	0.0732716	0.28233	0.952536	1.93244	5.34449	8.91861	0.045959	0.00168744	-0.019296	-0.627197	-0.48999	-0.873291	-0.186305	0.936476	-0.16676	-0.245955	-4.83299	-2.60713	-7.48646	0.034098	0.0331767	-0.0187164	0.804932	0.23291	0.694824	0.0300769	0.00299713	-0.0168604	-0.999401	-0.204449	0.255189	9.91772	-0.0197255	0.0122125	-0.00252715	-0.358398	0.0969238	-1.04224	
13	-0.0499557	-0.0608398	0.0264709	0.996545	-1.23258	0.49835	10.9596	-0.014544	0.00663021	0.0241069	-0.226074	0.130615	-1.11523	-0.293823	-0.204235	-0.0714559	0.931048	-4.36752	-0.220625	9.06475	-0.00622112	0.0274628	-0.0310532	0.344971	0.137451	-1.03418	0.102742	0.235341	-0.12828	-0.957916	-4.59768	3.11904	9.08947	0.0202269	-0.0128208	-0.0101746	0.0742188	-0.33667	-1.06836	-0.350529	0.135673	-0.448166	-0.811092	-5.21324	6.11441	5.57872	0.0485462	-0.00480847	0.00289173	0.298584	-0.861572	-0.515137	0.0583346	-0.082075	-0.396683	0.912416	-1.02228	-7.23723	6.51825	0.00184436	0.0186401	-0.012351	-0.0930176	0.727783	-0.780518	-0.753912	0.174168	-0.534552	0.339905	-7.61444	-5.53367	5.25741	0.0120975	0.02492	-0.0274684	0.726562	0.756836	0.0649414	0.167161	-0.18269	-0.0818823	-0.965389	5.24713	-0.284481	9.03002	0.0104269	-0.0551432	-0.0148572	-0.804688	0.134521	-0.68335	-0.159854	0.0560833	0.173398	0.970172	1.2451	3.2063	10.5247	0.0683187	0.0705519	-0.000636176	-0.574463	-0.257568	-0.976562	-0.0871508	0.0732716	0.28233	0.952536	1.93244	5.34449	8.91861	0.045959	0.00168744	-0.019296	-0.627197	-0.48999	-0.873291	-0.186492	0.936283	-0.167009	-0.246379	-4.82002	-2.54269	-7.46584	0.00574842	-0.00480102	0.00875962	0.811768	0.230713	0.694824	0.0298389	0.0025764	-0.0162516	-0.999419	-0.106002	0.304669	9.76747	-0.0228363	-0.0184362	-0.0129087	-0.358398	0.0991211	-1.04004	
14	-0.0507942	-0.0610706	0.0265467	0.996487	-1.32499	0.502319	10.9454	0.00564048	0.00614247	0.0352948	-0.22168	0.132812	-1.11523	-0.293853	-0.204272	-0.0713394	0.931039	-4.36201	-0.246554	9.0661	-0.00418991	0.0116167	-0.010403	0.342773	0.139648	-1.03198	0.102988	0.235567	-0.129485	-0.957672	-4.55281	3.05482	9.00788	0.0509523	0.0105275	0.0227542	0.0742188	-0.338867	-1.06592	-0.350826	0.134843	-0.448548	-0.810891	-5.06079	6.08537	5.50158	0.0291095	-0.0228436	0.00580129	0.298828	-0.865967	-0.517334	0.0584223	-0.0819131	-0.396372	0.91256	-1.09811	-7.2057	6.33594	0.0295083	-0.000617423	-0.0195196	-0.0927734	0.723389	-0.782715	-0.753829	0.174776	-0.534686	0.339568	-7.65607	-5.84646	5.16682	-0.0428659	0.0157755	-0.0121706	0.722656	0.748291	0.0673828	0.167049	-0.184909	-0.0817344	-0.964999	5.25009	-0.243249	9.03704	0.0142013	-0.0771432	-0.00654348	-0.809082	0.138916	-0.677002	-0.159549	0.0558378	0.173732	0.970177	1.3583	3.31181	10.61	0.015662	0.0405899	-0.0162503	-0.570312	-0.257568	-0.981201	-0.0866552	0.0735635	0.283605	0.95218	1.95021	5.41798	8.89856	-0.00108782	-0.0143879	-0.0187897	-0.629395	-0.492188	-0.879883	-0.1865	0.936335	-0.167	-0.246182	-4.7182	-2.39062	-7.40884	0.00180546	0.0179939	-0.00103936	0.80957	0.230713	0.687988	0.0300968	0.00212539	-0.0158028	-0.99942	0.0841472	0.230228	9.7392	-0.0111056	-1.01696e-05	0.0130626	-0.361084	0.105713	-1.04004	
15	-0.051923	-0.0610892	0.0266032	0.996426	-1.29646	0.515246	10.9157	0.000727343	0.000913386	0.0574674	-0.22168	0.13501	-1.12183	-0.294041	-0.204259	-0.0709937	0.931009	-4.21751	-0.197608	9.06439	0.00679848	0.0160012	-0.00830016	0.342773	0.137451	-1.02954	0.103261	0.235838	-0.131978	-0.957235	-4.46707	3.46162	9.14775	0.105755	0.0186513	0.0277797	0.0744629	-0.345459	-1.06592	-0.351674	0.134221	-0.449149	-0.810293	-5.24862	6.42395	5.49258	0.022732	-0.015994	-0.0207528	0.303467	-0.870361	-0.515137	0.0584172	-0.0812864	-0.39752	0.912117	-0.843582	-7.29612	6.56438	-0.0778957	0.00358043	-0.0135751	-0.0930176	0.727783	-0.780518	-0.754038	0.174624	-0.534331	0.33974	-7.67518	-6.006	5.01189	0.0366136	0.0055911	-0.0204232	0.722412	0.754883	0.0712891	0.167107	-0.187413	-0.0814198	-0.964532	5.30454	-0.240483	9.05327	0.00640282	-0.0658379	-0.00255644	-0.813232	0.134521	-0.674805	-0.15928	0.0551417	0.17327	0.970344	1.30726	3.08819	10.5651	0.0458672	0.0325811	-0.0116016	-0.572266	-0.261719	-0.97876	-0.0864548	0.0740512	0.283991	0.952046	1.93995	5.25055	8.91966	0.027624	-0.0178812	-0.0173109	-0.629395	-0.492188	-0.879883	-0.186876	0.936692	-0.16667	-0.244759	-4.76884	-2.42489	-7.45384	0.0183393	0.0619169	-0.0278997	0.805176	0.230713	0.69043	0.0310621	0.00251409	-0.0162642	-0.999382	0.0926547	0.261891	9.79412	0.0184497	0.0346956	0.038584	-0.36084	0.101318	-1.03784	
16	-0.0527467	-0.0608774	0.0270581	0.996383	-1.2678	0.421643	10.9829	0.0244219	-0.0184079	0.0178896	-0.219482	0.132812	-1.12402	-0.29374	-0.204652	-0.0708275	0.931031	-4.3642	-0.23005	9.14357	0.00857547	0.0210494	-0.0188571	0.342773	0.139404	-1.03662	0.10413	0.236383	-0.133498	-0.956796	-4.69034	3.0698	9.01464	0.0832905	0.012383	0.0476007	0.076416	-0.345459	-1.06812	-0.353066	0.133461	-0.44954	-0.809597	-5.1981	6.2082	5.56825	0.0430684	-0.0374013	-0.0377996	0.303467	-0.868164	-0.515137	0.0588128	-0.0813745	-0.396803	0.912396	-0.995282	-7.29521	6.56015	0.0320781	0.0142221	-0.0154051	-0.0927734	0.723145	-0.778076	-0.754577	0.174484	-0.53321	0.340377	-7.62233	-5.84717	5.18589	0.049905	-0.0269776	-0.0341486	0.726562	0.754883	0.0649414	0.167085	-0.189914	-0.0812491	-0.964061	5.39281	-0.294219	8.87336	0.0155887	-0.0521093	-0.00850237	-0.813477	0.138916	-0.674805	-0.159604	0.0538004	0.17518	0.970023	1.26636	3.19063	10.507	0.0941726	0.0503678	0.00224039	-0.570068	-0.259521	-0.981201	-0.0862193	0.0744548	0.285511	0.951581	1.9641	5.23154	8.81405	0.0650619	-0.0217191	-0.0152387	-0.638672	-0.492188	-0.877686	-0.186876	0.936692	-0.16667	-0.244759	-4.76884	-2.42489	-7.45384	0.0183393	0.0619169	-0.0278997	0.805176	0.230713	0.69043	0.0317521	0.00357699	-0.0169717	-0.999345	0.0712306	0.261691	9.79162	0.0296387	0.0535587	0.0167319	-0.351807	0.101562	-1.04224	
17	-0.0529357	-0.0612591	0.0281921	0.996318	-1.28446	0.587167	10.9628	0.0503956	0.0162504	0.0156779	-0.217041	0.128662	-1.12378	-0.293304	-0.204426	-0.070643	0.931232	-4.30382	-0.150021	9.04592	0.00400379	-0.00504715	-0.0367275	0.340576	0.13501	-1.03882	0.1047	0.236654	-0.136742	-0.956208	-4.53977	3.38796	9.0372	0.125105	0.00636673	0.0511818	0.0700684	-0.351807	-1.06348	-0.355145	0.132376	-0.449856	-0.808689	-5.198	6.10543	5.42662	0.0721964	-0.0589808	-0.0588573	0.298828	-0.868164	-0.517334	0.0588126	-0.0817895	-0.395683	0.912845	-0.920713	-7.06463	6.42618	0.0154671	0.0211668	0.00211695	-0.0927734	0.721191	-0.782715	-0.755302	0.174246	-0.531893	0.34095	-7.6022	-5.70466	5.29269	0.0286471	-0.021489	-0.021452	0.730713	0.759033	0.0605469	0.166884	-0.191307	-0.080767	-0.963861	5.33741	-0.303681	9.03646	0.00314211	-0.0416396	-0.0194475	-0.815674	0.138672	-0.672852	-0.159594	0.0530568	0.176382	0.969847	1.2335	3.30464	10.4596	0.0575306	0.0207986	-0.00838736	-0.565674	-0.261719	-0.976318	-0.0862627	0.074693	0.287265	0.95103	2.05425	5.47972	8.72145	0.0581197	-0.0095704	-0.0163238	-0.634033	-0.494629	-0.875488	-0.187351	0.937885	-0.166511	-0.239885	-4.75028	-2.49875	-7.47653	0.00399579	0.119701	-0.0141834	0.800293	0.237305	0.70166	0.0318839	0.00448844	-0.0177753	-0.999323	-0.111287	0.326208	9.87203	0.0411748	0.0368894	-0.00406754	-0.349609	0.10376	-1.05151	
18	-0.0534172	-0.0613148	0.028917	0.996268	-1.27807	0.700435	10.9101	0.0181202	-0.00773573	0.020921	-0.223633	0.126221	-1.11743	-0.292922	-0.203765	-0.0700363	0.931543	-4.19224	-0.209806	9.17411	-0.00231927	-0.0145937	-0.0327567	0.334229	0.133057	-1.03638	0.105164	0.23653	-0.137917	-0.956019	-4.51446	3.49324	9.00868	0.0861149	-0.00838741	0.0562989	0.0703125	-0.358398	-1.06104	-0.35616	0.131838	-0.450394	-0.808031	-5.19496	6.11871	5.46976	0.084749	-0.0430261	-0.0571409	0.30127	-0.870361	-0.510742	0.0587357	-0.0817551	-0.396316	0.912578	-0.94765	-7.1348	6.57871	-0.0340085	0.00580186	-0.00946211	-0.0908203	0.725586	-0.791992	-0.75556	0.17415	-0.531538	0.340982	-7.62235	-5.74364	5.3009	0.0142922	-0.00905986	-0.013008	0.72876	0.756836	0.0583496	0.166597	-0.193537	-0.0806901	-0.963472	5.39537	-0.229917	9.00664	0.016979	-0.0579271	-0.019817	-0.811035	0.134521	-0.67041	-0.159559	0.0528783	0.1768	0.969787	1.23345	3.37924	10.5362	0.0525923	0.0254013	-0.00536795	-0.56958	-0.270508	-0.973877	-0.0861944	0.0747986	0.287611	0.950924	1.96525	5.45162	8.69715	0.0356944	-0.00678368	-0.0207957	-0.631348	-0.501221	-0.875488	-0.187351	0.937885	-0.166511	-0.239885	-4.75028	-2.49875	-7.47653	0.00399579	0.119701	-0.0141834	0.800293	0.237305	0.70166	0.0318836	0.00477415	-0.0183181	-0.999312	-0.1681	0.366381	9.86216	0.0455343	0.0279062	-0.00379535	-0.35376	0.0947266	-1.04663	
19	-0.053709	-0.0615746	0.0292813	0.996226	-1.34698	0.625082	10.9459	0.0155707	0.00831841	0.015691	-0.223633	0.126221	-1.12378	-0.292642	-0.204108	-0.0701527	0.931547	-4.51603	-0.132284	9.0641	-0.0108163	0.0320548	-0.0279677	0.336426	0.135254	-1.03418	0.105969	0.236736	-0.141258	-0.955391	-4.64459	3.54588	9.08596	0.0250088	0.0231975	0.0539387	0.0681152	-0.362793	-1.06299	-0.357482	0.130963	-0.451193	-0.807143	-5.26284	6.31177	5.55791	0.0610591	-0.0330011	-0.0341704	0.301514	-0.874756	-0.512695	0.0589489	-0.0820289	-0.396025	0.912667	-1.10553	-7.28873	6.57313	0.0124635	0.0177024	-0.00762871	-0.088623	0.725586	-0.785156	-0.756222	0.173733	-0.530223	0.341772	-7.58308	-5.71862	5.39058	0.0169051	-0.0170658	-0.0376171	0.726318	0.76123	0.052002	0.166304	-0.19498	-0.0814537	-0.963167	5.43452	-0.231995	8.8264	0.0822633	-0.0127046	-0.0362542	-0.821777	0.134521	-0.670654	-0.159312	0.0525919	0.177074	0.969793	1.21958	3.35179	10.5338	0.0177304	0.0314785	-0.0103346	-0.572021	-0.268311	-0.976318	-0.0859876	0.0754744	0.287457	0.950935	2.01407	5.27889	8.88473	0.00275818	-0.0229761	-0.0144469	-0.633789	-0.499023	-0.87085	-0.186867	0.93837	-0.166609	-0.238293	-4.64637	-2.50694	-7.53027	-0.00391798	0.0368044	0.00223838	0.796143	0.23291	0.704102	0.0319912	0.00499351	-0.0193976	-0.999287	-0.128894	0.404988	9.80387	0.0436795	0.0103395	0.000871773	-0.351562	0.097168	-1.04688	
20	-0.0538836	-0.0616416	0.029423	0.996208	-1.38676	0.630675	10.9681	0.0112793	0.00197761	0.0160097	-0.216797	0.12207	-1.11743	-0.292511	-0.20381	-0.0700186	0.931663	-4.39209	-0.163738	9.08115	-0.00380111	-0.0106611	-0.0313434	0.336182	0.139404	-1.04126	0.106725	0.236541	-0.141658	-0.955296	-4.64083	3.41985	8.82412	0.0195232	-0.00550031	0.0640974	0.0681152	-0.360596	-1.06079	-0.358823	0.12982	-0.451612	-0.806499	-5.25885	6.097	5.47389	0.0484139	-0.0486541	-0.0285391	0.296875	-0.870361	-0.508545	0.05914	-0.0822014	-0.395129	0.913027	-0.942333	-7.08782	6.523	0.0781144	0.0283889	-0.0116744	-0.0927734	0.723389	-0.789551	-0.756454	0.173687	-0.529704	0.342087	-7.56653	-5.8921	5.30579	0.0261055	-0.0150633	-0.0344707	0.724365	0.756836	0.0541992	0.166264	-0.195599	-0.0813001	-0.963062	5.3453	-0.254567	8.95303	0.015103	-0.0197452	-0.0137974	-0.823975	0.132324	-0.668457	-0.159181	0.0521689	0.177532	0.969754	1.18821	3.30501	10.5226	0.0360923	0.0272779	-0.00762408	-0.565186	-0.272705	-0.973877	-0.0860158	0.0755863	0.288172	0.950707	2.0293	5.41244	8.71233	0.0346531	-0.00447853	-0.0168676	-0.633545	-0.501465	-0.87085	-0.186741	0.938503	-0.166561	-0.2379	-4.6152	-2.48812	-7.50749	-0.00339894	0.0382251	-0.0046777	0.791504	0.234863	0.703857	0.0321197	0.00506088	-0.0203251	-0.999265	-0.0759489	0.475984	9.83104	0.0373092	0.013451	0.00193354	-0.353516	0.0881348	-1.04663	
21	-0.05396	-0.0617608	0.0293094	0.9962	-1.27469	0.671265	10.9295	-0.0107776	0.0046425	0.00856203	-0.217041	0.126465	-1.12158	-0.292082	-0.203259	-0.069673	0.931944	-4.1651	-0.121239	9.08184	0.00145176	0.00894839	-0.0374994	0.338379	0.141602	-1.02954	0.107017	0.236387	-0.143175	-0.955076	-4.42915	3.65549	9.06511	0.0581338	0.00626803	0.00815634	0.0661621	-0.362793	-1.05615	-0.360081	0.129031	-0.451984	-0.805856	-5.24766	6.30345	5.49101	0.0382787	-0.0282499	-0.0273025	0.296875	-0.874756	-0.510498	0.0591977	-0.0824168	-0.395131	0.913003	-0.989631	-7.05827	6.45632	-0.0240245	0.0130855	-0.00882772	-0.0927734	0.723389	-0.791992	-0.756903	0.172906	-0.528958	0.342643	-7.5495	-5.77572	5.35036	0.038073	0.00796661	-0.00895196	0.724365	0.759033	0.052002	0.16619	-0.195968	-0.0805674	-0.963061	5.42558	-0.258997	8.96483	0.0087131	0.0290624	-0.0190257	-0.819824	0.136719	-0.670654	-0.158879	0.0521837	0.177102	0.969881	1.23835	3.24881	10.5403	-0.0123571	0.024815	-0.0121651	-0.572021	-0.266113	-0.983398	-0.0860047	0.0759761	0.288535	0.950568	2.02164	5.40579	8.83556	0.0367093	-0.0116008	-0.0111734	-0.628906	-0.503662	-0.87085	-0.186674	0.938663	-0.166428	-0.237418	-4.63114	-2.47595	-7.58562	0.000940684	0.0381178	-0.00612993	0.791504	0.234863	0.710693	0.032039	0.00554524	-0.0205875	-0.999259	-0.106557	0.517882	9.84817	0.00496378	0.0274077	-0.00655922	-0.35376	0.0969238	-1.04907	
22	-0.0542336	-0.0620423	0.0290607	0.996175	-1.3778	0.603426	10.992	-0.00854672	0.00704598	0.00745164	-0.216797	0.124268	-1.12158	-0.291599	-0.203467	-0.0700443	0.932022	-4.27569	-0.162851	9.10756	-0.0117028	0.0205158	-0.031355	0.336426	0.130859	-1.03638	0.107614	0.236512	-0.143108	-0.954988	-4.46611	3.51105	8.98848	-0.0113274	0.00485969	0.0284023	0.0705566	-0.367188	-1.05615	-0.36076	0.12834	-0.452013	-0.805646	-5.15174	6.19587	5.43213	0.0178819	-0.0251226	-0.00973075	0.294678	-0.872559	-0.510498	0.0592481	-0.0823908	-0.395657	0.912774	-0.993118	-7.14316	6.52977	-0.00587736	0.00909464	-0.0185222	-0.0949707	0.720947	-0.780518	-0.757189	0.172551	-0.528628	0.3427	-7.59201	-5.72049	5.37938	0.00615447	0.0118921	-0.00939766	0.726562	0.754639	0.0500488	0.166088	-0.196582	-0.0799051	-0.963008	5.40775	-0.224784	8.91826	0.00333717	-0.00100942	-0.0125931	-0.817383	0.130127	-0.664062	-0.15879	0.0516348	0.177821	0.969793	1.20431	3.373	10.591	0.0527558	0.0414702	-0.00212	-0.562988	-0.272705	-0.976318	-0.0860527	0.0762577	0.289147	0.950355	1.9968	5.4289	8.71611	0.02788	-0.00882672	-0.00866315	-0.63623	-0.494629	-0.871094	-0.187016	0.938689	-0.166326	-0.237116	-4.59535	-2.46743	-7.54058	0.0144922	0.018132	-0.00818198	0.789551	0.230469	0.710938	0.0321589	0.00581087	-0.0208288	-0.999249	-0.0803929	0.411179	9.75368	0.0176291	0.0151643	0.000344767	-0.351562	0.0949707	-1.04224	
23	-0.0542549	-0.0621121	0.028824	0.996177	-1.32363	0.616895	10.9328	-0.00873584	-0.000437787	0.00407499	-0.219238	0.126465	-1.11963	-0.291432	-0.20308	-0.0701513	0.93215	-4.21393	-0.165561	9.10677	-0.0152642	-0.00112222	-0.0275438	0.332031	0.132812	-1.04102	0.108111	0.23638	-0.143687	-0.954877	-4.49166	3.61407	8.97523	0.031682	0.000112158	0.0131729	0.0661621	-0.366943	-1.05835	-0.3615	0.127704	-0.452145	-0.805341	-5.32025	6.38073	5.4182	0.0202374	-0.0202548	-0.0140449	0.301025	-0.868164	-0.506348	0.0592286	-0.0825991	-0.396005	0.912606	-0.949361	-7.16671	6.50112	-0.0196741	0.0176852	-0.00597616	-0.0949707	0.723145	-0.778076	-0.75743	0.172099	-0.52839	0.342762	-7.6172	-5.87172	5.34839	-0.00306093	0.0172111	-0.00597829	0.730957	0.752686	0.0563965	0.16613	-0.196987	-0.0789775	-0.962995	5.41676	-0.255836	8.92374	-0.00817303	0.0154437	-0.0110166	-0.817627	0.138672	-0.664307	-0.158438	0.0519738	0.177	0.969983	1.27088	3.38324	10.5396	-0.0267496	0.0149946	-0.0118804	-0.567383	-0.270508	-0.976318	-0.0861391	0.0764978	0.289647	0.950175	2.02646	5.44486	8.78315	0.0287573	-0.000263363	-0.011364	-0.640625	-0.499268	-0.868652	-0.187347	0.938743	-0.166085	-0.236807	-4.61749	-2.50469	-7.55911	0.0128435	0.0176436	-0.0134602	0.791504	0.237061	0.708496	0.0323901	0.00602309	-0.0209505	-0.999238	-0.0628887	0.450305	9.84897	-0.00193429	0.0187904	0.00473427	-0.344727	0.097168	-1.04443	
24	-0.0542168	-0.0619379	0.0287852	0.996191	-1.2938	0.472641	10.9525	0.00419859	-0.0136526	-0.00455869	-0.217041	0.126465	-1.12378	-0.291295	-0.203267	-0.0702002	0.932149	-4.27942	-0.173874	9.07225	-0.00760304	0.0297381	-0.0201001	0.336182	0.137207	-1.03662	0.108031	0.236646	-0.143715	-0.954816	-4.38334	3.51579	9.02856	-0.00896167	0.0165163	-0.00863272	0.0725098	-0.36499	-1.06079	-0.361744	0.127602	-0.452236	-0.805197	-5.0478	6.2521	5.47789	0.0101828	0.00313811	-0.00503848	0.301025	-0.868164	-0.506348	0.0592978	-0.0824328	-0.396132	0.912561	-1.01157	-7.03818	6.55081	-0.00162239	0.00308648	-0.0313856	-0.0952148	0.727783	-0.787354	-0.757777	0.171235	-0.528032	0.342979	-7.55386	-5.71996	5.39369	0.0109077	0.0148841	-0.00575181	0.728516	0.76123	0.0498047	0.166114	-0.196847	-0.0779057	-0.963114	5.36505	-0.226967	8.9712	-0.00700495	0.0354345	-0.0118013	-0.824219	0.138672	-0.666504	-0.158253	0.0513931	0.177168	0.970014	1.17195	3.24716	10.5654	0.0284419	0.046105	-0.010858	-0.565186	-0.272705	-0.978516	-0.0862011	0.0768019	0.289858	0.950081	2.07306	5.35172	8.61061	0.0182629	0.000880096	-0.0113209	-0.642822	-0.501465	-0.868652	-0.187991	0.938648	-0.165706	-0.236939	-4.57814	-2.48024	-7.55322	0.0231544	-0.00569322	-0.0211773	0.789062	0.239258	0.706055	0.0326554	0.00644021	-0.0209112	-0.999227	-0.111291	0.463277	9.78749	-0.000381331	0.0202558	0.00845967	-0.344482	0.0905762	-1.05127	
25	-0.053972	-0.0620373	0.0294746	0.996178	-1.37843	0.563014	10.9637	0.0359057	-0.00329862	-0.00903317	-0.216797	0.126465	-1.12598	-0.291546	-0.203175	-0.0700893	0.932099	-4.3029	-0.234165	9.06843	-0.0116766	0.00895724	-0.0132313	0.329834	0.137207	-1.03174	0.108522	0.236751	-0.143168	-0.954816	-4.62666	3.41642	8.95075	-0.0110798	0.00686785	0.010241	0.0703125	-0.36499	-1.06079	-0.361742	0.12732	-0.45185	-0.805459	-5.2209	6.03343	5.54089	0.00369201	-0.0107606	0.00927779	0.299072	-0.870361	-0.508545	0.0594568	-0.082726	-0.396457	0.912383	-1.02433	-7.15778	6.52401	-0.0181474	0.022915	-0.00538827	-0.0905762	0.723389	-0.780518	-0.757903	0.170816	-0.52789	0.343129	-7.6508	-5.68584	5.38454	0.0122677	0.0208963	-0.0149485	0.724365	0.754639	0.0541992	0.166225	-0.197844	-0.0769143	-0.96297	5.42525	-0.304592	8.96898	0.00179101	-0.017978	-0.000714255	-0.815674	0.138672	-0.664307	-0.158183	0.0511747	0.177844	0.969913	1.24454	3.4608	10.5357	0.00883196	0.0247755	-0.00296443	-0.562988	-0.274902	-0.973877	-0.0862141	0.076809	0.289946	0.950052	2.08283	5.43411	8.73896	0.00958287	0.00583589	-0.0175114	-0.638428	-0.496826	-0.871094	-0.18872	0.938625	-0.165329	-0.236716	-4.65758	-2.59442	-7.52269	0.0251645	0.0112793	-0.0153846	0.79126	0.241455	0.703857	0.0330861	0.00658271	-0.0210172	-0.99921	-0.190041	0.419186	9.87227	0.0109691	0.00993913	0.0120455	-0.346924	0.0949707	-1.04443	
26	-0.053811	-0.061952	0.030043	0.996175	-1.27701	0.67885	10.9583	0.0184047	-0.00499839	0.00294776	-0.216797	0.124268	-1.12158	-0.291518	-0.203103	-0.0700763	0.932124	-4.3126	-0.233132	9.13714	-0.00958394	0.0101204	-0.0220754	0.336426	0.133057	-1.03638	0.108414	0.236724	-0.143415	-0.954798	-4.60504	3.44385	8.9509	0.0248373	-0.00307562	-0.00755505	0.0683594	-0.366943	-1.06299	-0.361772	0.127079	-0.451998	-0.8054	-5.22557	6.17181	5.53263	0.0192278	-0.00561569	0.00875709	0.30127	-0.870361	-0.508545	0.0595495	-0.083091	-0.396654	0.912258	-0.88199	-7.29255	6.53611	0.00532761	0.0249025	-0.0132107	-0.0930176	0.727783	-0.782715	-0.757808	0.170894	-0.528037	0.343074	-7.69067	-5.75754	5.3202	-0.0190157	0.0293606	-0.0179343	0.730713	0.76123	0.0539551	0.166304	-0.198331	-0.0764764	-0.962891	5.41926	-0.289265	8.98974	0.0104102	0.0189563	-0.0103875	-0.819824	0.136475	-0.66626	-0.158183	0.0511747	0.177844	0.969913	1.24454	3.4608	10.5357	0.00883196	0.0247755	-0.00296443	-0.562988	-0.274902	-0.973877	-0.0862197	0.076795	0.289951	0.950051	2.00241	5.44389	8.79968	0.0087	0.00690821	-0.0168691	-0.643066	-0.499268	-0.868896	-0.188938	0.938458	-0.165185	-0.237303	-4.67224	-2.65069	-7.59829	0.00997358	-0.0334194	-0.00130092	0.789062	0.241455	0.703857	0.0332139	0.0063708	-0.0210396	-0.999206	-0.249801	0.340475	9.93672	0.00235714	-0.00982733	0.00712487	-0.351562	0.0949707	-1.04663	
27	-0.0539675	-0.0620362	0.0303653	0.996151	-1.3081	0.538766	10.9797	0.0164927	-0.000416788	0.00389772	-0.216797	0.124268	-1.11743	-0.291042	-0.203268	-0.0695578	0.932276	-4.32444	-0.221431	9.09213	0.0111148	0.00634333	-0.0299712	0.334229	0.130615	-1.04102	0.107945	0.236563	-0.144665	-0.954703	-4.42215	3.44908	9.01075	0.0432614	-0.0107937	-0.00455569	0.0683594	-0.371338	-1.06055	-0.361783	0.126756	-0.452681	-0.805063	-5.19047	6.17313	5.51562	0.0406663	0.0109536	0.000597169	0.294434	-0.870605	-0.508545	0.0597721	-0.0831286	-0.396578	0.912273	-1.03606	-7.10016	6.47932	0.00809684	0.0180269	-0.0252027	-0.0927734	0.723389	-0.785156	-0.757559	0.170338	-0.528154	0.34372	-7.62546	-5.77706	5.28492	-0.00957964	0.0313817	-0.0217652	0.726318	0.759033	0.052002	0.166184	-0.199104	-0.0760136	-0.962789	5.37145	-0.370792	8.98042	0.0122121	-0.0176862	-0.0181989	-0.822021	0.138672	-0.662109	-0.157695	0.0508761	0.17695	0.970171	1.16221	3.26427	10.5523	0.0357158	0.0182845	-0.00996601	-0.563232	-0.270508	-0.976318	-0.086274	0.0768273	0.289765	0.9501	2.01858	5.45134	8.69632	-0.00699928	0.00289244	-0.0132031	-0.638184	-0.506104	-0.868652	-0.188948	0.938296	-0.16516	-0.237954	-4.63951	-2.63021	-7.53374	-0.00432387	-0.0339236	0.0125449	0.789062	0.239258	0.70166	0.0330857	0.00571545	-0.0212243	-0.999211	-0.0822192	0.328775	9.77158	0.00423668	-0.0210888	-0.0137485	-0.351318	0.090332	-1.04443	
28	-0.05392	-0.0621081	0.0306165	0.996141	-1.39184	0.581467	10.9521	0.0212794	0.000839345	-0.00174075	-0.216797	0.12207	-1.11938	-0.291046	-0.203147	-0.0695048	0.932305	-4.22813	-0.188327	9.14335	-0.0088019	0.00506267	-0.019379	0.334229	0.13501	-1.03638	0.107927	0.236666	-0.145331	-0.954578	-4.41695	3.51537	9.02128	0.0571395	0.00663071	0.00712525	0.0683594	-0.369141	-1.06738	-0.361894	0.12635	-0.453493	-0.80462	-5.07244	6.29779	5.48222	0.0393508	0.00418252	0.00615066	0.298828	-0.868408	-0.501953	0.0599053	-0.0832559	-0.396657	0.912219	-1.07109	-7.21236	6.46226	-0.003251	0.0106964	-0.00857632	-0.0952148	0.727783	-0.785156	-0.757489	0.170447	-0.528255	0.343665	-7.63562	-5.62626	5.36403	-0.0200492	0.0251355	-0.0192052	0.724365	0.759033	0.0561523	0.166085	-0.199866	-0.075882	-0.962658	5.42425	-0.330659	8.9479	0.0135789	-0.0316484	-0.0175485	-0.81958	0.132324	-0.664062	-0.157322	0.0511772	0.176934	0.970219	1.23958	3.36229	10.4835	-0.00796081	-0.00490942	-0.0140715	-0.562988	-0.272705	-0.976318	-0.0863207	0.0768176	0.289574	0.950155	2.01698	5.39053	8.7928	0.00452783	0.00825292	-0.0125236	-0.635986	-0.499268	-0.868652	-0.18825	0.9382	-0.165423	-0.238701	-4.63094	-2.60799	-7.46671	-0.0270784	-0.0131627	0.0241484	0.789307	0.237061	0.703857	0.0326752	0.00512821	-0.0214712	-0.999222	-0.0452354	0.419444	9.79538	0.015713	-0.0164178	-0.0178138	-0.351318	0.0925293	-1.04443	
29	-0.053759	-0.0619149	0.031341	0.99614	-1.2767	0.674851	10.9613	0.0333641	-0.0130497	-0.00432227	-0.218994	0.124268	-1.12158	-0.291229	-0.203243	-0.0696066	0.932219	-4.27907	-0.212051	9.10033	-0.0141256	0.0187894	-0.0123955	0.334229	0.13501	-1.04126	0.107923	0.236753	-0.146389	-0.954396	-4.47722	3.55949	9.03229	0.043938	-7.38553e-05	0.00285988	0.064209	-0.373535	-1.05835	-0.362081	0.126133	-0.453898	-0.804341	-5.16815	6.40729	5.54446	0.0138551	0.000556971	-0.00229454	0.299072	-0.870361	-0.506348	0.0598251	-0.0831119	-0.396902	0.91213	-0.956433	-7.10573	6.52733	-0.0146658	0.00517043	-0.0139254	-0.0908203	0.727783	-0.785156	-0.757616	0.170504	-0.528012	0.34373	-7.63633	-5.82492	5.22124	-0.00188161	0.0029325	-0.0224705	0.722168	0.756836	0.0456543	0.165839	-0.200554	-0.0757845	-0.962566	5.47419	-0.314972	8.93015	0.0071223	-0.0134869	-0.0150827	-0.820068	0.143066	-0.662109	-0.156949	0.0510836	0.176914	0.970288	1.20278	3.27661	10.5445	0.035325	0.019966	-0.0101373	-0.567383	-0.274902	-0.971436	-0.0863564	0.0768136	0.289686	0.950118	2.0349	5.35788	8.74459	0.0149727	0.0106426	-0.0171103	-0.635986	-0.501465	-0.866455	-0.187846	0.938106	-0.165789	-0.239132	-4.66802	-2.49411	-7.50451	-0.00279417	0.0201868	0.00959369	0.796143	0.23291	0.704102	0.0326039	0.00488189	-0.0218262	-0.999218	-0.0231785	0.406128	9.83656	0.0166266	0.00217854	-0.0037567	-0.358154	0.0925293	-1.04224	
30	-0.0539047	-0.0622746	0.0316605	0.996099	-1.37178	0.733955	10.9755	0.00836591	0.0118374	0.0118463	-0.217041	0.126465	-1.11963	-0.291359	-0.203304	-0.0693629	0.932184	-4.28233	-0.19539	9.1067	0.00386123	0.0178177	-0.0138015	0.334229	0.13501	-1.03882	0.108255	0.237208	-0.146243	-0.954267	-4.47542	3.64256	8.9812	-0.0275352	0.0263267	0.00932569	0.0705566	-0.371338	-1.05835	-0.362127	0.125975	-0.453639	-0.804492	-5.10126	6.14394	5.42725	0.00146021	-0.00591873	0.00443471	0.296875	-0.874756	-0.508301	0.059782	-0.0832628	-0.397201	0.91199	-0.983496	-7.23466	6.50912	-0.0132468	0.00853043	-0.00274442	-0.0910645	0.72998	-0.785156	-0.757861	0.170666	-0.527584	0.343766	-7.54717	-5.80924	5.26983	-0.00641689	0.00209368	-0.0185076	0.730957	0.754639	0.0478516	0.165711	-0.202581	-0.07543	-0.962191	5.45241	-0.307442	8.95901	0.0085062	-0.0637261	-0.0118078	-0.823975	0.134277	-0.657715	-0.156535	0.0512543	0.177198	0.970294	1.29238	3.36279	10.5016	0.0248268	0.0201606	-0.0112328	-0.56958	-0.270508	-0.978516	-0.0864281	0.0768032	0.290133	0.949976	2.04658	5.4274	8.7626	0.0338968	0.00418826	-0.0139648	-0.635742	-0.506104	-0.87085	-0.187536	0.938255	-0.166056	-0.238606	-4.63534	-2.50984	-7.50132	-0.00815873	0.0530065	0.00920632	0.793945	0.230713	0.706299	0.0325159	0.00505614	-0.0221463	-0.999213	-0.0245905	0.398107	9.75367	0.0180489	0.016082	-0.00834847	-0.353516	0.090332	-1.04443	
31	-0.054145	-0.0621628	0.0317632	0.99609	-1.2934	0.645772	10.9226	0.00513621	-0.00889396	0.00897056	-0.216797	0.12207	-1.11743	-0.29146	-0.203315	-0.0689305	0.932182	-4.23887	-0.154572	9.1119	0.00798605	0.0100088	-0.0103165	0.336426	0.130859	-1.03149	0.109151	0.237407	-0.145801	-0.954184	-4.43017	3.45164	8.97533	0.00103281	0.0217203	0.0264649	0.0639648	-0.369141	-1.05835	-0.362603	0.125246	-0.453839	-0.804278	-5.13943	6.3494	5.43952	0.0130208	-0.0283689	-0.00252714	0.299316	-0.874756	-0.506104	0.0600174	-0.0830275	-0.396946	0.912107	-1.01083	-7.0296	6.50251	0.0102409	0.00153465	-0.0266188	-0.0952148	0.727783	-0.780518	-0.757979	0.170645	-0.527287	0.343971	-7.52992	-5.75368	5.32404	0.00631343	0.000785576	-0.0155775	0.719727	0.763428	0.0517578	0.165595	-0.205149	-0.0749086	-0.961707	5.5289	-0.272548	8.86761	-0.00491157	-0.0670773	-0.00614209	-0.833008	0.143066	-0.655762	-0.156439	0.0508689	0.177491	0.970276	1.21103	3.3786	10.4629	0.0334795	0.0276532	-0.00861021	-0.565186	-0.272705	-0.976318	-0.0864437	0.0769601	0.290512	0.949846	2.06552	5.43039	8.73021	0.0175772	-0.000298999	-0.014654	-0.635986	-0.501465	-0.868652	-0.186966	0.938729	-0.166215	-0.237073	-4.58715	-2.45915	-7.51226	-0.00822152	0.0954487	-0.00381312	0.791748	0.230469	0.713135	0.0324341	0.00526231	-0.0226349	-0.999204	-0.0331452	0.465199	9.74514	0.0202575	0.0153917	-0.00374395	-0.35791	0.0881348	-1.04199	
32	-0.0542783	-0.0623824	0.0318911	0.996065	-1.33414	0.584701	10.9718	0.00895936	0.00615011	0.00387142	-0.214355	0.119873	-1.12378	-0.291714	-0.203127	-0.0684823	0.932176	-4.2878	-0.121541	9.08391	0.00458626	0.00109966	-0.00488438	0.336426	0.133057	-1.03394	0.109976	0.238123	-0.145477	-0.95396	-4.47971	3.79203	8.96258	-0.0341372	0.0355548	0.0212912	0.0727539	-0.371338	-1.06055	-0.362802	0.124821	-0.453619	-0.804378	-5.21999	6.28214	5.4482	-0.00300944	-0.0358381	0.00539962	0.30127	-0.872559	-0.506104	0.0601232	-0.0831367	-0.397212	0.911974	-0.931134	-7.27456	6.60595	-0.00674613	0.0139351	-0.0123769	-0.0910645	0.72998	-0.785156	-0.758092	0.170775	-0.526978	0.344133	-7.62028	-5.82742	5.36131	0.000155839	-0.00307249	-0.0163438	0.728516	0.759033	0.0561523	0.165587	-0.208663	-0.0742911	-0.961	5.52552	-0.30294	8.89807	-0.0108726	-0.133017	0.0031583	-0.828613	0.140869	-0.651611	-0.156429	0.0505053	0.178051	0.970194	1.22971	3.50278	10.5917	0.019988	0.0320421	-0.00324644	-0.565186	-0.274902	-0.971436	-0.0863255	0.0768347	0.290845	0.949765	2.01834	5.47755	8.72825	0.0177333	0.00503054	-0.0146763	-0.635986	-0.499268	-0.866455	-0.186797	0.939028	-0.166319	-0.235945	-4.6109	-2.45436	-7.56063	0.00216417	0.112619	-0.00668055	0.789307	0.234863	0.713135	0.0323864	0.0053787	-0.0228575	-0.9992	-0.0575481	0.486532	9.81715	0.0190832	0.0163208	-0.00719872	-0.353516	0.0881348	-1.04663	
33	-0.0543113	-0.0624148	0.0321526	0.996053	-1.38713	0.597218	10.9065	0.0213738	-0.00244126	0.00487392	-0.216797	0.12207	-1.12158	-0.291915	-0.202709	-0.0681721	0.932227	-4.27941	-0.195694	9.1186	-0.0219132	0.00246087	-0.0181208	0.333984	0.137451	-1.03174	0.111335	0.2386	-0.143908	-0.953921	-4.5908	3.48899	9.10547	-0.0644772	0.0438385	0.0316443	0.074707	-0.36499	-1.06079	-0.363167	0.123125	-0.453897	-0.804318	-5.25337	6.35875	5.564	0.015247	-0.0435896	0.0239222	0.294922	-0.879395	-0.506104	0.0604251	-0.0834745	-0.396991	0.912019	-1.08911	-7.07283	6.54722	0.0117567	0.0251026	-0.0169068	-0.0908203	0.725586	-0.787354	-0.758483	0.170159	-0.526171	0.344809	-7.59123	-5.77048	5.40188	0.0358115	-0.000422218	-0.0277051	0.726318	0.763428	0.0517578	0.165576	-0.212092	-0.0740884	-0.960267	5.61123	-0.305087	8.87111	0.00376686	-0.108416	0.000292393	-0.833008	0.14502	-0.641113	-0.156219	0.0504432	0.178033	0.970235	1.23314	3.32617	10.5077	0.0192931	0.0125488	-0.0067384	-0.562988	-0.2771	-0.978516	-0.0863451	0.0769496	0.290823	0.949761	2.01512	5.43699	8.72189	0.0105546	0.000223531	-0.0143002	-0.638428	-0.49707	-0.866455	-0.18659	0.939438	-0.166333	-0.234465	-4.52757	-2.49507	-7.59143	0.0022583	0.0689045	-0.00792401	0.780273	0.237061	0.712891	0.0325309	0.00578351	-0.0237629	-0.999171	-0.146036	0.512512	9.80982	0.0222909	0.0198275	0.00198451	-0.355713	0.090332	-1.04443	
34	-0.0541235	-0.0625715	0.0329784	0.996026	-1.32377	0.784864	10.9451	0.0151524	0.00884674	0.0018055	-0.216553	0.119873	-1.12598	-0.29181	-0.202644	-0.0682907	0.932265	-4.33772	-0.148037	9.13442	-0.0175117	0.0134847	-0.0306728	0.330078	0.128662	-1.03613	0.112083	0.23907	-0.142756	-0.953889	-4.62134	3.59358	9.00744	-0.09335	0.0573003	0.0253148	0.0683594	-0.364746	-1.06543	-0.363167	0.123125	-0.453897	-0.804318	-5.25337	6.35875	5.564	0.015247	-0.0435896	0.0239222	0.294922	-0.879395	-0.506104	0.0605099	-0.0836854	-0.396639	0.912148	-0.951815	-7.24264	6.38013	0.0309566	0.0126667	-0.0106675	-0.0932617	0.732178	-0.785156	-0.758629	0.170018	-0.52584	0.345063	-7.56602	-5.74041	5.37376	0.0224308	0.000355023	-0.0273833	0.719727	0.763428	0.0476074	0.165518	-0.214833	-0.0744779	-0.959637	5.62219	-0.312889	8.67118	0.0410226	-0.0474426	-0.0182648	-0.839355	0.142822	-0.640869	-0.156219	0.0504432	0.178033	0.970235	1.23314	3.32617	10.5077	0.0192931	0.0125488	-0.0067384	-0.562988	-0.2771	-0.978516	-0.0863858	0.0770028	0.290676	0.949798	2.03077	5.45345	8.73917	-0.00396793	0.00409177	-0.0119205	-0.638184	-0.506104	-0.868652	-0.186706	0.939603	-0.166337	-0.233707	-4.55924	-2.51027	-7.60326	0.00907799	0.0381169	-0.00628284	0.782715	0.232666	0.719971	0.032588	0.00582828	-0.0239143	-0.999166	-0.149034	0.541629	9.83045	0.0135091	0.010813	0.00110897	-0.349121	0.0905762	-1.04663	
35	-0.0542679	-0.0625682	0.0329476	0.996019	-1.36282	0.775088	10.9349	-0.00242076	-0.00351702	0.0123083	-0.214355	0.119873	-1.12598	-0.291556	-0.202503	-0.067985	0.932398	-4.23566	-0.203957	9.11261	0.00668441	0.00387454	-0.0281434	0.329834	0.133057	-1.03394	0.112968	0.239375	-0.141009	-0.953967	-4.57385	3.41714	8.87455	-0.0487958	0.0121474	0.00633056	0.0725098	-0.356201	-1.06104	-0.363259	0.121466	-0.452874	-0.805105	-5.16872	6.15202	5.48875	0.0179562	-0.0367168	0.0137279	0.292725	-0.877197	-0.503906	0.0605839	-0.0835939	-0.396552	0.912189	-0.896204	-7.06029	6.45941	0.00936407	0.00381692	-0.0183098	-0.0908203	0.727783	-0.782715	-0.758826	0.169526	-0.525611	0.345219	-7.58871	-5.78596	5.36896	0.010957	0.0241303	-0.0061217	0.726562	0.754639	0.0478516	0.165521	-0.215969	-0.0739704	-0.959421	5.60426	-0.294844	8.85179	-0.0180539	-0.0562409	-0.000137719	-0.837402	0.142822	-0.636719	-0.155998	0.0500088	0.178049	0.97029	1.22115	3.38122	10.5091	0.0148189	0.0201416	-0.00489336	-0.567139	-0.281494	-0.978516	-0.0863846	0.0770862	0.29097	0.949701	2.05551	5.45981	8.73941	0.0217862	0.00880279	-0.0146293	-0.649658	-0.506348	-0.862061	-0.187014	0.939571	-0.166234	-0.233664	-4.4971	-2.51493	-7.57032	0.00917144	0.018114	-0.00293052	0.782715	0.234863	0.719971	0.0326531	0.00584383	-0.0239841	-0.999162	-0.167553	0.459191	9.84063	0.00498439	0.0083421	-0.0027785	-0.353516	0.0881348	-1.04883	
36	-0.0545133	-0.0626625	0.0325064	0.996015	-1.36214	0.578721	10.928	-0.0067792	-0.00401281	-0.00240403	-0.21875	0.119873	-1.12158	-0.291052	-0.202625	-0.0680505	0.932524	-4.3012	-0.132858	9.12758	-0.019094	0.0235563	-0.0300857	0.332031	0.133057	-1.03638	0.113082	0.239477	-0.14059	-0.95399	-4.5454	3.47612	8.98718	-0.0157491	0.00449755	0.00335504	0.0725098	-0.360596	-1.06543	-0.363364	0.120907	-0.452792	-0.805188	-5.03511	6.22233	5.49517	-0.00275927	-0.0102333	0.0087976	0.290527	-0.879395	-0.506104	0.060968	-0.083758	-0.397528	0.911723	-1.10467	-7.32818	6.51519	0.0151927	0.0151775	-0.0101157	-0.088623	0.727783	-0.785156	-0.758859	0.168913	-0.525649	0.34539	-7.58109	-5.7657	5.40727	0.00763734	0.0283815	-0.0128447	0.726318	0.76123	0.0476074	0.1657	-0.221354	-0.072983	-0.958238	5.71409	-0.360016	8.76266	0.00235809	-0.132653	0.00874483	-0.84375	0.14502	-0.630371	-0.155841	0.0497465	0.177677	0.970397	1.16207	3.37918	10.463	0.00998109	0.0313776	-0.00977931	-0.562744	-0.279297	-0.978516	-0.0862584	0.0771819	0.291031	0.949686	2.02055	5.45645	8.752	0.00553385	-0.00185098	-0.0120631	-0.640381	-0.506104	-0.864258	-0.186995	0.939606	-0.166201	-0.233562	-4.54853	-2.5262	-7.612	0.000995541	0.0258185	-0.00106911	0.780518	0.232666	0.715332	0.0325354	0.0057588	-0.023778	-0.999171	-0.0367812	0.465344	9.79512	-0.0119416	0.00309525	-0.00853411	-0.351318	0.0881348	-1.04663	
37	-0.0543868	-0.0626403	0.0326183	0.996019	-1.34399	0.615345	10.9543	0.0100895	-0.00605304	-0.00823875	-0.216797	0.12207	-1.11938	-0.290979	-0.202518	-0.0681897	0.93256	-4.25158	-0.156046	9.14121	-0.0209896	0.0108945	-0.0284786	0.336426	0.130859	-1.03149	0.113121	0.239496	-0.140396	-0.95401	-4.53954	3.61155	9.07064	-0.011622	0.00589542	-0.00535339	0.0744629	-0.356201	-1.06567	-0.363641	0.120286	-0.452888	-0.805102	-5.17799	6.48784	5.62077	-0.00200673	-0.0144649	0.0060705	0.29248	-0.872803	-0.501709	0.0608719	-0.0838532	-0.397355	0.911796	-0.922822	-7.12217	6.58646	0.0144966	0.0121388	0.000737373	-0.0930176	0.727539	-0.778076	-0.759025	0.168335	-0.525464	0.34559	-7.61661	-5.75852	5.38874	0.0129254	0.0193894	-0.0124085	0.724365	0.759033	0.052002	0.165837	-0.223208	-0.0728425	-0.957795	5.75731	-0.329363	8.6893	0.00409828	-0.119606	0.0109957	-0.84375	0.14502	-0.628174	-0.155704	0.0494617	0.177647	0.970439	1.20285	3.35999	10.5725	0.0101114	0.0316594	-0.00726802	-0.56543	-0.270508	-0.976318	-0.0863236	0.0774134	0.29133	0.949569	2.06005	5.43638	8.71548	0.0154799	-0.00700219	-0.0118684	-0.638184	-0.501465	-0.864258	-0.186748	0.940024	-0.166304	-0.231998	-4.48785	-2.49841	-7.64424	0.0094576	0.0535577	-0.00600505	0.778076	0.234863	0.715332	0.0324489	0.0060163	-0.023577	-0.999177	-0.090364	0.527293	9.82478	-0.0136529	0.0233269	-0.00520347	-0.348877	0.0837402	-1.05103	
38	-0.0542406	-0.0624053	0.0329385	0.996031	-1.29292	0.65757	10.949	0.0139172	-0.017162	-0.00379258	-0.2146	0.124268	-1.12158	-0.290811	-0.202637	-0.0685291	0.932562	-4.25742	-0.211945	9.11838	-0.0175217	0.0319861	-0.0289992	0.334229	0.133057	-1.03394	0.113716	0.240005	-0.138514	-0.954086	-4.54096	3.36017	8.93524	-0.0803549	0.0342741	0.00420567	0.0722656	-0.351807	-1.06567	-0.363538	0.119966	-0.452363	-0.805491	-5.03958	6.20063	5.48159	-0.0196661	-0.0148688	0.0135095	0.290527	-0.877197	-0.503906	0.0608818	-0.0840489	-0.397621	0.911661	-1.06695	-7.15358	6.45216	-0.018121	0.0107491	-0.0129759	-0.0910645	0.734375	-0.780518	-0.759186	0.167598	-0.525307	0.345833	-7.56652	-5.70858	5.38832	0.0198835	0.0218827	-0.00630087	0.726318	0.76123	0.0432129	0.166201	-0.226463	-0.0722728	-0.95701	5.78256	-0.387554	8.7075	-0.00676872	-0.0985827	0.014994	-0.85498	0.151367	-0.619873	-0.155473	0.0491561	0.177666	0.970488	1.20424	3.41084	10.489	0.00963141	0.0193209	-0.0114082	-0.560547	-0.28125	-0.983154	-0.0863357	0.0774978	0.291596	0.94948	2.08673	5.47508	8.71409	0.0244907	0.00367747	-0.0179723	-0.64502	-0.508545	-0.866455	-0.186701	0.940314	-0.166158	-0.230961	-4.46432	-2.46165	-7.60797	0.00235739	0.0622615	-0.0143891	0.780029	0.241455	0.717529	0.0326233	0.00641663	-0.0232584	-0.999176	-0.0645479	0.461462	9.75691	-0.0040058	0.0228566	0.00753036	-0.348877	0.0859375	-1.04663	
39	-0.0540745	-0.0625664	0.0332773	0.996019	-1.30371	0.694919	10.9454	0.0153913	0.00781885	-0.00526249	-0.218994	0.12207	-1.12158	-0.290741	-0.202661	-0.0685606	0.932576	-4.26379	-0.211014	9.14297	-0.0024898	0.00799914	-0.0174601	0.334229	0.133057	-1.03638	0.113784	0.240095	-0.138667	-0.954033	-4.51381	3.42375	9.01149	0.0374095	0.00478114	-0.00588202	0.0769043	-0.360596	-1.06323	-0.36364	0.119487	-0.452369	-0.805513	-5.06916	6.25639	5.48119	-0.00387226	-0.0132126	0.0119023	0.29248	-0.875	-0.508301	0.0610062	-0.084232	-0.397861	0.911532	-0.94055	-7.23279	6.62395	-0.000902852	0.0292717	-0.0143457	-0.0927734	0.723389	-0.780518	-0.759336	0.167043	-0.525022	0.346205	-7.62813	-5.8238	5.33528	0.0240979	0.0141345	-0.0258334	0.724365	0.754639	0.0478516	0.166632	-0.23007	-0.0718666	-0.956105	5.85316	-0.400194	8.63134	0.000629289	-0.118391	0.0210385	-0.856934	0.147217	-0.617676	-0.155245	0.0490653	0.17742	0.970574	1.21431	3.4221	10.3856	0.0315438	0.0272916	-0.00185496	-0.564941	-0.279297	-0.980713	-0.0863073	0.077553	0.291715	0.949441	2.04958	5.45716	8.7159	0.0103592	0.00579813	-0.0157156	-0.640625	-0.501465	-0.862061	-0.186924	0.940548	-0.165942	-0.229983	-4.48701	-2.54936	-7.60613	0.0074645	0.0450061	-0.0137221	0.778076	0.237061	0.717529	0.0329935	0.00666034	-0.0232573	-0.999163	-0.158943	0.45183	9.81651	0.00036871	0.0124244	0.0107133	-0.353271	0.0859375	-1.04663	
40	-0.0540221	-0.0626969	0.0335382	0.996005	-1.36993	0.640823	10.9167	0.0139991	-0.00794867	-0.000268113	-0.212402	0.12207	-1.11938	-0.290778	-0.202391	-0.0688219	0.932604	-4.28399	-0.195187	9.02486	-0.0161553	0.00808428	-0.0240953	0.333984	0.137207	-1.03662	0.114134	0.240395	-0.138622	-0.953922	-4.59701	3.36585	8.91961	-0.00340692	0.0102185	0.0142086	0.0722656	-0.354004	-1.06104	-0.363618	0.11907	-0.452203	-0.805678	-5.05832	6.21281	5.55038	-0.00201028	-0.0131916	0.0110477	0.288086	-0.877197	-0.506104	0.0616064	-0.0843868	-0.39717	0.911778	-1.10385	-7.17733	6.34278	0.0450291	0.0205313	-0.0321243	-0.0930176	0.725586	-0.785156	-0.759378	0.166601	-0.524701	0.346812	-7.5835	-5.63836	5.39899	0.0126109	0.0213372	-0.0241791	0.728516	0.759033	0.0454102	0.167032	-0.233807	-0.0713756	-0.955165	5.88983	-0.424645	8.63283	0.00213728	-0.122131	0.0128242	-0.85498	0.153564	-0.609375	-0.154876	0.0490738	0.176746	0.970755	1.21979	3.36944	10.5916	-0.0256739	0.0225525	-0.0188474	-0.560791	-0.272705	-0.973877	-0.0863098	0.0777902	0.29199	0.949337	2.06819	5.48046	8.69808	0.0178869	-0.00359172	-0.0136156	-0.642822	-0.506104	-0.862061	-0.186661	0.940864	-0.165869	-0.228955	-4.46269	-2.53972	-7.61224	-0.00498269	0.0515322	-0.00857497	0.776123	0.232666	0.719971	0.0332401	0.00646767	-0.0233806	-0.999153	-0.108504	0.407555	9.80105	0.00759629	-0.000632139	0.00560671	-0.351318	0.0925293	-1.04907	
41	-0.0538913	-0.0625685	0.0340868	0.996002	-1.30392	0.65038	10.9526	0.0253766	-0.0102816	-0.00599922	-0.225342	0.119873	-1.12598	-0.290686	-0.202115	-0.0686808	0.932703	-4.22824	-0.201053	9.15356	-0.00877815	0.00438788	-0.0220477	0.329834	0.137207	-1.03662	0.113923	0.240342	-0.139342	-0.953856	-4.52612	3.575	9.08307	0.0395429	-2.4087e-05	-0.0135003	0.0788574	-0.354248	-1.06104	-0.363578	0.118931	-0.45219	-0.805724	-5.12505	6.32342	5.57887	0.000747219	-0.000989959	0.00550959	0.290283	-0.875	-0.510498	0.0614165	-0.0842963	-0.397162	0.911803	-0.948245	-7.07828	6.5487	-0.0280458	0.00405988	-0.00321023	-0.0974121	0.727783	-0.785156	-0.75934	0.166509	-0.524936	0.346582	-7.63178	-5.75513	5.37808	-0.0140142	0.0293375	-0.00572171	0.724365	0.756836	0.0498047	0.167485	-0.237481	-0.071052	-0.954203	5.94971	-0.441572	8.55665	-0.00210279	-0.109625	0.0216836	-0.861328	0.14917	-0.602783	-0.154743	0.0489383	0.177131	0.970713	1.15456	3.40803	10.4924	0.0257044	0.0283135	-0.00179073	-0.560791	-0.274902	-0.978516	-0.0862484	0.0779131	0.292003	0.949329	2.02151	5.40817	8.69761	0.00272746	-0.00194311	-0.0161735	-0.640381	-0.508301	-0.866455	-0.186219	0.941059	-0.165906	-0.228484	-4.4672	-2.57779	-7.65594	-0.0108183	0.0289367	0.00788003	0.771484	0.236816	0.722168	0.0332606	0.00625854	-0.0233786	-0.999154	-0.148443	0.457807	9.89044	-0.000341977	-0.00165784	-0.00522874	-0.349121	0.0905762	-1.04443	
42	-0.0537765	-0.0625602	0.0344317	0.995996	-1.31404	0.67752	10.9471	0.0289962	-0.00531576	-0.00603993	-0.220703	0.115479	-1.12598	-0.290686	-0.202115	-0.0686808	0.932703	-4.22824	-0.201053	9.15356	-0.00877815	0.00438788	-0.0220477	0.329834	0.137207	-1.03662	0.113843	0.24051	-0.139334	-0.953824	-4.51792	3.59166	9.08084	0.00715924	0.0146258	-0.0124001	0.0766602	-0.356445	-1.06104	-0.363372	0.118855	-0.452017	-0.805925	-5.05363	6.23679	5.52636	-0.0173225	0.00170574	0.0224148	0.288086	-0.872803	-0.508301	0.0614873	-0.0843174	-0.398136	0.911371	-0.982777	-7.296	6.53307	-0.0409573	0.00878449	-0.0164559	-0.0908203	0.727783	-0.782715	-0.759324	0.166335	-0.525001	0.346604	-7.63972	-5.80439	5.35532	0.00168525	0.0289556	-0.0119621	0.722168	0.756836	0.0498047	0.16779	-0.240343	-0.0705053	-0.953473	5.98213	-0.443288	8.53684	0.000454051	-0.0846206	0.00873629	-0.86792	0.155762	-0.60083	-0.154581	0.0489456	0.176586	0.970838	1.16557	3.40235	10.4689	-0.0297038	0.0219821	-0.0122218	-0.560791	-0.274902	-0.976318	-0.0862487	0.0779694	0.292144	0.949281	2.04025	5.42919	8.69214	0.0193931	0.000915735	-0.0147403	-0.640625	-0.503906	-0.864258	-0.186083	0.941058	-0.165935	-0.228579	-4.43601	-2.5284	-7.68497	-0.00875876	0.0120746	0.00921925	0.773682	0.236816	0.722168	0.0332062	0.00615357	-0.0233444	-0.999157	-0.122696	0.418699	9.82612	-0.00177294	-0.00129903	-0.00763107	-0.349121	0.090332	-1.04883	
43	-0.0537428	-0.062439	0.0351242	0.995982	-1.33489	0.740833	10.9472	0.0264748	-0.016532	0.000751768	-0.216553	0.117676	-1.12378	-0.290638	-0.202306	-0.0690352	0.93265	-4.26949	-0.232035	9.08815	-0.0121329	0.0141684	-0.0133146	0.329834	0.13501	-1.03882	0.114011	0.240484	-0.139111	-0.953843	-4.55705	3.36179	8.93124	-0.00834641	0.00194372	0.00216457	0.0766602	-0.354248	-1.06323	-0.36308	0.118705	-0.452207	-0.805972	-5.01843	6.17466	5.62121	0.0145424	0.00920401	0.0127692	0.290527	-0.877197	-0.510498	0.0615464	-0.0843564	-0.398001	0.911423	-1.01288	-7.32289	6.47016	0.0123413	0.0129627	-0.0126685	-0.0908203	0.727783	-0.782715	-0.759371	0.165763	-0.524807	0.347067	-7.61036	-5.69766	5.32601	0.0238909	0.0203789	-0.0253257	0.726318	0.763428	0.0495605	0.167934	-0.242003	-0.070265	-0.953045	5.99046	-0.438447	8.53714	-0.00122787	-0.103033	0.0115975	-0.86377	0.157959	-0.594482	-0.154455	0.048764	0.17685	0.970819	1.19639	3.35799	10.4848	0.0351923	0.0251646	-0.00485069	-0.562744	-0.279297	-0.980713	-0.086297	0.0780418	0.29243	0.949182	2.04423	5.45152	8.69419	0.018879	-0.000559884	-0.0140751	-0.635986	-0.501465	-0.866455	-0.185615	0.941167	-0.166026	-0.228445	-4.42035	-2.4845	-7.64382	-0.0156027	0.0183951	0.00751995	0.776123	0.230469	0.729004	0.03319	0.00579976	-0.0235749	-0.999154	-0.110561	0.436483	9.77644	0.0119116	-0.00900869	-0.000879159	-0.351318	0.0881348	-1.04663	
44	-0.0539457	-0.0623498	0.0354621	0.995964	-1.25388	0.796047	10.9612	0.00693091	-0.000715843	0.0110415	-0.21875	0.119873	-1.11719	-0.29093	-0.202343	-0.068933	0.932559	-4.26509	-0.217288	9.12318	-0.00639403	0.0213331	-0.00619933	0.331787	0.137207	-1.03662	0.113852	0.240927	-0.139735	-0.953659	-4.5818	3.47955	8.99219	0.0321549	0.028187	-0.00587759	0.0725098	-0.358398	-1.06787	-0.362702	0.11867	-0.452163	-0.806172	-5.04077	6.37032	5.55085	-0.00593135	0.00718908	0.0166366	0.285889	-0.875	-0.508301	0.0617943	-0.0844527	-0.396941	0.911859	-0.94447	-7.08351	6.47597	0.0369026	0.0159794	-0.0165229	-0.0908203	0.727783	-0.785156	-0.759417	0.165523	-0.524558	0.347457	-7.59527	-5.766	5.35089	0.0155385	0.0165924	-0.0260732	0.726318	0.76123	0.0454102	0.168219	-0.245585	-0.0699818	-0.952099	6.07022	-0.483911	8.48273	0.00988093	-0.119628	0.00977234	-0.866211	0.162109	-0.588135	-0.154229	0.0487111	0.176703	0.970884	1.2041	3.39975	10.526	-0.00634724	0.0212154	-0.00960883	-0.565186	-0.272705	-0.985596	-0.0863095	0.0782538	0.292926	0.949011	2.06344	5.52058	8.76291	0.0309583	-3.15215e-06	-0.017362	-0.638184	-0.503906	-0.862061	-0.185399	0.941233	-0.166022	-0.228352	-4.40797	-2.51121	-7.61463	-0.013192	0.0284008	0.00491034	0.773682	0.236816	0.726562	0.0333186	0.00554492	-0.0238621	-0.999144	-0.0189823	0.480358	9.80628	0.0102598	0.000429395	0.00126227	-0.351318	0.0925293	-1.04443	
45	-0.0541022	-0.0624854	0.0354765	0.995947	-1.34046	0.756255	10.9283	0.00249768	-0.00342095	0.00525034	-0.220703	0.113281	-1.11938	-0.290858	-0.202464	-0.0687826	0.932566	-4.27385	-0.175373	9.08261	0.00420301	0.0107202	-0.0258596	0.332031	0.13501	-1.03882	0.113784	0.241049	-0.140045	-0.953591	-4.57462	3.5145	8.99163	0.00457119	-0.00199726	-0.00886923	0.0725098	-0.360596	-1.05859	-0.36285	0.118639	-0.452287	-0.806041	-5.09493	6.32295	5.57557	0.00500179	0.00129385	-0.00816318	0.290527	-0.877197	-0.506104	0.0620584	-0.0845962	-0.397335	0.911656	-1.01458	-7.10432	6.4943	-0.0167003	0.0131178	-0.0145801	-0.088623	0.727783	-0.782715	-0.759592	0.165081	-0.524294	0.347682	-7.59068	-5.74056	5.41152	0.0169776	0.0155955	-0.0119358	0.72876	0.756836	0.0456543	0.168306	-0.249047	-0.0699313	-0.951188	6.0973	-0.483277	8.46048	0.0112964	-0.120149	-0.00103179	-0.874512	0.155762	-0.585938	-0.154028	0.0485863	0.177212	0.97083	1.18142	3.44433	10.4736	0.0463111	0.00957935	-0.00596432	-0.562988	-0.2771	-0.978516	-0.0863509	0.0782714	0.293517	0.948823	2.088	5.4932	8.669	0.0331321	0.00658593	-0.0144277	-0.640625	-0.503906	-0.862061	-0.184809	0.941586	-0.166187	-0.227253	-4.43882	-2.49514	-7.62548	-0.0149316	0.0582543	0.00265048	0.76709	0.232422	0.733643	0.0332648	0.00559712	-0.024034	-0.999142	-0.0661366	0.49178	9.80356	0.00856181	0.0125033	-0.0088234	-0.35791	0.0859375	-1.04883	
46	-0.05433	-0.0625002	0.0355159	0.995932	-1.29065	0.687947	10.9519	0.000645053	-0.000880071	0.00945233	-0.218506	0.115479	-1.11938	-0.290741	-0.202662	-0.0685097	0.932579	-4.22417	-0.100313	9.11389	-7.018e-07	0.0315131	-0.0181728	0.327637	0.137207	-1.03662	0.113724	0.241393	-0.139619	-0.953574	-4.54201	3.57188	9.0048	-0.0145346	0.0294581	-0.0120731	0.0810547	-0.356445	-1.05884	-0.362885	0.118495	-0.451789	-0.806326	-5.08726	6.23825	5.52909	-0.0222072	-0.00900877	0.0118009	0.288086	-0.875	-0.510498	0.062045	-0.084776	-0.397683	0.911489	-0.95014	-7.27459	6.56797	-0.00419692	0.0204506	-0.0126136	-0.0864258	0.725586	-0.780518	-0.759795	0.164763	-0.523996	0.347842	-7.57634	-5.79228	5.3828	0.0172842	0.0103069	-0.0207899	0.724365	0.756836	0.0498047	0.168463	-0.253246	-0.0699809	-0.950047	6.19498	-0.480259	8.46378	0.0128682	-0.148993	0.00722448	-0.87915	0.164307	-0.573486	-0.153664	0.048609	0.176944	0.970935	1.18911	3.46968	10.4959	0.00654092	0.0271251	-0.0138575	-0.560547	-0.279297	-0.978516	-0.0862518	0.078357	0.293555	0.948813	2.0606	5.5316	8.68256	-0.00221288	0.00343976	-0.0191935	-0.642578	-0.512939	-0.861816	-0.184809	0.941586	-0.166187	-0.227253	-4.43882	-2.49514	-7.62548	-0.0149316	0.0582543	0.00265048	0.76709	0.232422	0.733643	0.0330673	0.00576809	-0.0239492	-0.999149	-0.113773	0.507168	9.79624	-0.00498469	0.0122111	-0.0110391	-0.355713	0.0859375	-1.04663	
47	-0.0543932	-0.0625654	0.0356984	0.995918	-1.35317	0.719286	10.9311	0.0121111	-0.00455789	0.00402185	-0.21875	0.117676	-1.12378	-0.290776	-0.202876	-0.068698	0.932508	-4.31067	-0.112003	9.1037	-0.0193308	0.0373787	-0.0167059	0.333984	0.137207	-1.03418	0.113963	0.241636	-0.138606	-0.953631	-4.62482	3.49543	8.92626	-0.0376514	0.00563652	-0.00745231	0.0725098	-0.358398	-1.0564	-0.362778	0.118206	-0.451735	-0.806446	-5.09448	6.24081	5.50334	-0.00190315	-0.00136143	0.0102916	0.286133	-0.879395	-0.508301	0.0623496	-0.084988	-0.396961	0.911763	-1.08785	-7.17108	6.48365	0.0301669	0.0200509	-0.0120184	-0.0930176	0.725586	-0.785156	-0.759889	0.164454	-0.523695	0.348236	-7.56353	-5.74477	5.4422	0.00634054	0.0154425	-0.0243034	0.726318	0.763428	0.0454102	0.168753	-0.258701	-0.0699715	-0.948525	6.24357	-0.453579	8.3899	0.00333377	-0.219195	0.0199701	-0.883301	0.159912	-0.569092	-0.153246	0.0486991	0.17686	0.971012	1.15453	3.4049	10.5253	-0.0203938	0.00260133	-0.016324	-0.564941	-0.2771	-0.978516	-0.0861712	0.078405	0.293439	0.948852	2.07457	5.49659	8.66741	-0.00185005	0.00528595	-0.0173003	-0.647217	-0.508545	-0.859619	-0.182781	0.942739	-0.166779	-0.22365	-4.36663	-2.45901	-7.68752	-0.0217281	0.0689456	0.00323445	0.762695	0.230225	0.738281	0.0330407	0.00572438	-0.0239281	-0.999151	-0.143999	0.52037	9.83961	0.00263995	0.00218417	-0.0023499	-0.351318	0.0881348	-1.04663	
48	-0.0543655	-0.06259	0.0359389	0.995909	-1.35317	0.744666	10.9347	0.0106885	-0.00427601	-0.00416467	-0.218506	0.111084	-1.12378	-0.290621	-0.202667	-0.0686308	0.932607	-4.27486	-0.105874	9.15443	-0.0343247	0.0132915	-0.0149917	0.332031	0.13501	-1.03882	0.113849	0.241701	-0.138657	-0.953621	-4.57869	3.4242	8.95338	0.0271321	0.0119911	-0.00954368	0.0766602	-0.358643	-1.06104	-0.362703	0.117901	-0.451793	-0.806492	-5.03888	6.31132	5.57151	0.00071827	-0.00308126	0.0105955	0.283936	-0.879395	-0.508301	0.0625043	-0.0850049	-0.397071	0.911703	-0.969417	-7.11105	6.50772	-0.0108907	0.0102506	-0.0184167	-0.0927734	0.723389	-0.782715	-0.759886	0.164206	-0.523647	0.348431	-7.54896	-5.76945	5.36565	0.00315127	0.0228043	-0.0184825	0.724365	0.759033	0.0454102	0.169363	-0.262468	-0.0693982	-0.947423	6.33665	-0.537168	8.27855	-0.0217797	-0.0733538	0.0304166	-0.887695	0.162109	-0.55835	-0.153018	0.0485436	0.176867	0.971055	1.15931	3.44949	10.484	0.019953	0.0322199	-0.00821294	-0.562744	-0.279297	-0.978516	-0.0862064	0.0784315	0.293225	0.948913	2.05571	5.50488	8.68511	-0.00343366	0.00796739	-0.0121645	-0.637939	-0.512939	-0.859619	-0.182719	0.942839	-0.166809	-0.223256	-4.30303	-2.47222	-7.70041	0.00111297	0.0247115	-0.000229658	0.769531	0.230225	0.740479	0.0330273	0.00560063	-0.0238733	-0.999154	-0.088172	0.483812	9.76276	-0.00381674	0.00301172	-0.00250986	-0.355713	0.0881348	-1.04199	
49	-0.0542192	-0.0626034	0.0359505	0.995916	-1.33468	0.791366	10.972	-0.00373893	-0.00261167	-0.0018895	-0.216064	0.111328	-1.13013	-0.290711	-0.202621	-0.0684583	0.932601	-4.27396	-0.231207	9.10261	0.00465434	0.00587384	-0.0146186	0.329834	0.13501	-1.03882	0.113847	0.241731	-0.138128	-0.95369	-4.4934	3.5102	9.04552	-0.0372514	0.00714131	-0.00877338	0.0810547	-0.358643	-1.06323	-0.362694	0.117446	-0.451693	-0.806618	-4.96866	6.34706	5.54172	0.00226229	-0.0142279	0.0126144	0.283691	-0.875	-0.503906	0.0627109	-0.0848817	-0.396958	0.911749	-1.04593	-7.12934	6.46548	0.00989836	-0.0023591	-0.0152099	-0.0908203	0.725586	-0.787354	-0.760018	0.163728	-0.523511	0.34857	-7.54812	-5.76365	5.39112	-0.000464354	0.0168344	-0.00755805	0.724365	0.754639	0.0456543	0.170076	-0.266674	-0.0681877	-0.946208	6.34884	-0.573301	8.17055	-0.00520937	-0.165101	0.0328464	-0.887939	0.168457	-0.545898	-0.152543	0.0487449	0.176361	0.971211	1.2336	3.41659	10.4782	-0.0215854	0.00977652	-0.0188247	-0.562988	-0.2771	-0.983154	-0.0861471	0.0785053	0.292664	0.949086	2.07764	5.47857	8.69062	-0.0165136	0.00248226	-0.0155507	-0.637939	-0.508301	-0.864258	-0.183276	0.942786	-0.166679	-0.223121	-4.37466	-2.47586	-7.70642	0.0297608	0.0188339	-0.00876989	0.76709	0.232422	0.733643	0.0330198	0.00551779	-0.0238309	-0.999155	-0.0504703	0.468997	9.81025	-0.00247561	0.000975735	-0.00384013	-0.349121	0.0905762	-1.04663	
50	-0.0542568	-0.0625519	0.0356766	0.995927	-1.29117	0.750384	10.9233	-0.0108245	-0.00472719	0.0028705	-0.216309	0.113281	-1.12158	-0.290828	-0.202547	-0.068427	0.932583	-4.20499	-0.173415	9.14224	-0.0108584	0.00932415	-0.00993389	0.332031	0.13501	-1.04126	0.114112	0.241787	-0.13738	-0.953753	-4.54838	3.39189	8.9725	-0.0588202	0.0153377	0.000711423	0.0810547	-0.354248	-1.06323	-0.362809	0.117154	-0.451792	-0.806553	-4.9779	6.29615	5.57331	0.0185447	-0.0130643	0.00463449	0.283691	-0.875	-0.506104	0.0627243	-0.0848713	-0.397349	0.911579	-0.96773	-7.23352	6.57379	-0.0234665	0.0145781	-0.00978911	-0.0844727	0.732178	-0.782715	-0.760117	0.16374	-0.523523	0.348332	-7.61637	-5.83154	5.32631	-0.0175409	0.0127883	-0.00214956	0.72876	0.756836	0.0456543	0.170326	-0.271836	-0.0676531	-0.944732	6.4132	-0.524676	8.13308	-0.0292157	-0.168961	0.0190787	-0.900879	0.168457	-0.541504	-0.152422	0.0486345	0.176265	0.971253	1.22254	3.43758	10.5138	0.00716747	0.0257496	-0.0122207	-0.562988	-0.2771	-0.980957	-0.0861227	0.0785896	0.292475	0.949139	2.08173	5.43057	8.71013	-0.00827626	0.00111985	-0.0143429	-0.640381	-0.506104	-0.862061	-0.183276	0.942786	-0.166679	-0.223121	-4.37466	-2.47586	-7.70642	0.0297608	0.0188339	-0.00876989	0.76709	0.232422	0.733643	0.0329071	0.00553483	-0.0236467	-0.999163	-0.0137895	0.430439	9.80009	-0.00669068	0.00428799	-0.00632123	-0.351318	0.090332	-1.04883	
51	-0.0543705	-0.0625735	0.0353146	0.995932	-1.34424	0.707045	10.9304	-0.014226	-0.00146212	0.00327467	-0.216553	0.119873	-1.12378	-0.291038	-0.202606	-0.0688039	0.932477	-4.28158	-0.198619	9.1384	-0.02187	0.0228559	-0.0155852	0.334229	0.133057	-1.03638	0.114073	0.241797	-0.137413	-0.95375	-4.6161	3.41625	9.0054	0.0209458	0.00354844	-0.0111248	0.0766602	-0.358643	-1.05859	-0.363077	0.117078	-0.452007	-0.806324	-5.0858	6.36672	5.65785	0.0112029	0.00715778	-0.0100094	0.286133	-0.879395	-0.510498	0.0627408	-0.0850676	-0.39748	0.911503	-0.998867	-7.21509	6.49332	0.00385069	0.0167148	-0.0102455	-0.0888672	0.72998	-0.780518	-0.760482	0.163082	-0.523008	0.348616	-7.65562	-5.80267	5.36677	0.0440465	0.00574515	-0.0165261	0.722168	0.759033	0.0476074	0.170711	-0.275617	-0.0667047	-0.943633	6.47012	-0.615518	8.14824	-0.0137309	-0.10705	0.0236168	-0.896729	0.172852	-0.537354	-0.152262	0.0485276	0.176467	0.971247	1.16319	3.34017	10.4727	0.0223524	0.0193443	-0.0112561	-0.567139	-0.2771	-0.976074	-0.0861223	0.0786994	0.292645	0.949078	2.08136	5.49969	8.68517	0.0190029	0.000876242	-0.0151808	-0.640625	-0.503906	-0.864258	-0.183836	0.94291	-0.166778	-0.222061	-4.34509	-2.4538	-7.68935	0.0294036	0.0465146	-0.00819377	0.762695	0.232422	0.73584	0.03284	0.00579031	-0.0236325	-0.999164	-0.0883854	0.458951	9.85627	-0.00353575	0.0232164	-0.00571197	-0.349121	0.0905762	-1.04199	
52	-0.0544365	-0.0625681	0.0351453	0.995935	-1.34201	0.692145	10.9384	-0.0125471	-0.00326212	0.00479335	-0.216553	0.119873	-1.12158	-0.29118	-0.202521	-0.0688121	0.932451	-4.2695	-0.192421	9.10338	-0.00936574	0.00876413	-0.0132785	0.332031	0.13501	-1.03418	0.113945	0.241995	-0.136959	-0.95378	-4.57093	3.45144	8.98119	-0.0250796	0.0115276	-0.0107905	0.0786133	-0.349854	-1.06348	-0.363076	0.117306	-0.451816	-0.806398	-5.00305	6.21813	5.53535	-0.00619849	0.0119086	0.000301998	0.28125	-0.872803	-0.506104	0.0627511	-0.0851057	-0.397337	0.911561	-0.9943	-7.19256	6.44196	0.0128138	0.0114829	-0.00923004	-0.0905762	0.723389	-0.780518	-0.760829	0.162329	-0.522414	0.349102	-7.56362	-5.64905	5.3929	0.0311423	0.00784794	-0.0160821	0.722168	0.756836	0.043457	0.170929	-0.277195	-0.0661723	-0.943169	6.4515	-0.620584	8.154	-0.0208528	-0.0940897	0.0234901	-0.901123	0.174805	-0.531006	-0.152058	0.0481088	0.176511	0.971292	1.17632	3.46306	10.4477	0.0107684	0.0238888	-0.0111302	-0.558594	-0.279297	-0.976074	-0.0861043	0.0787618	0.292738	0.949045	2.09566	5.51113	8.60932	0.0112542	0.00634658	-0.0157645	-0.645264	-0.503906	-0.859863	-0.183836	0.94291	-0.166778	-0.222061	-4.34509	-2.4538	-7.68935	0.0294036	0.0465146	-0.00819377	0.762695	0.232422	0.73584	0.0327622	0.00623519	-0.023611	-0.999165	-0.148613	0.46536	9.76788	-0.00143887	0.0234218	-0.0056711	-0.351318	0.0881348	-1.04663	
53	-0.0544578	-0.0627002	0.0350462	0.995929	-1.38289	0.712193	10.9555	-0.00178694	0.00359915	-0.00220991	-0.21875	0.119873	-1.11938	-0.291445	-0.202554	-0.0689252	0.932352	-4.27748	-0.212015	9.1332	-0.0158899	0.0163982	-0.0082307	0.325439	0.13501	-1.03638	0.114072	0.242097	-0.136541	-0.953799	-4.57467	3.36548	9.00639	-0.00713574	0.0116664	-0.00215404	0.0830078	-0.3479	-1.06592	-0.363036	0.117211	-0.45185	-0.806411	-5.02463	6.2324	5.60053	0.0113925	-0.00174569	0.00893656	0.283691	-0.875	-0.508301	0.0626337	-0.0849035	-0.39712	0.911682	-1.05047	-7.06513	6.45152	-0.00199283	-0.00587059	-0.0101572	-0.0864258	0.725586	-0.782715	-0.760994	0.162027	-0.522253	0.349124	-7.5634	-5.65074	5.39145	-0.00201539	0.0154343	-0.00868013	0.728516	0.76123	0.0432129	0.171357	-0.28132	-0.0645701	-0.94198	6.52321	-0.66041	8.11408	-0.0562771	-0.148984	0.0336637	-0.894531	0.174805	-0.524658	-0.151562	0.0483725	0.176339	0.971388	1.16221	3.43751	10.4961	0.010083	0.00317891	-0.0176667	-0.560547	-0.279297	-0.980713	-0.0859749	0.0789474	0.292392	0.949148	2.05964	5.40744	8.7497	-0.00381867	-0.00165479	-0.0162058	-0.640381	-0.508545	-0.857422	-0.184527	0.943304	-0.166994	-0.219638	-4.29413	-2.50701	-7.71843	0.0170309	0.0400717	-0.00670689	0.760254	0.236816	0.733398	0.0327231	0.00647854	-0.0234647	-0.999168	-0.133079	0.430456	9.79606	0.00325682	0.0107174	-0.0049535	-0.35376	0.0947266	-1.04907	
54	-0.0545825	-0.0625035	0.0350723	0.995934	-1.35225	0.728756	10.9374	0.00321586	-0.0151566	0.0101722	-0.216309	0.115479	-1.12158	-0.29165	-0.202642	-0.0689403	0.932268	-4.27947	-0.212156	9.13741	-0.00471432	0.0161516	-0.00892517	0.332031	0.137207	-1.03174	0.114256	0.242516	-0.136325	-0.953702	-4.57907	3.37615	8.9595	0.00198888	0.0206384	0.00103043	0.0744629	-0.349854	-1.05884	-0.36281	0.116888	-0.451576	-0.806712	-5.02782	6.23882	5.58341	-0.0135552	-0.00449976	0.0170273	0.279053	-0.872803	-0.512695	0.0626199	-0.0845766	-0.397966	0.911345	-0.990653	-7.20698	6.54432	-0.0351329	-0.00913525	-0.0138798	-0.0910645	0.72998	-0.782715	-0.761119	0.16217	-0.522281	0.348743	-7.66089	-5.89359	5.36174	-0.0197572	0.0109506	-0.0103565	0.724365	0.756836	0.0476074	0.171458	-0.283583	-0.0637067	-0.941342	6.56971	-0.665122	8.00762	-0.0572741	-0.146195	0.0282578	-0.907715	0.177002	-0.522705	-0.15117	0.048373	0.176265	0.971462	1.19554	3.45354	10.5146	0.014744	0.00853871	-0.0156392	-0.567139	-0.281494	-0.976074	-0.085972	0.0789038	0.292552	0.949103	2.08384	5.55473	8.67824	0.000225408	0.00426452	-0.0156712	-0.640381	-0.506104	-0.855225	-0.184861	0.943316	-0.167063	-0.219253	-4.27262	-2.51576	-7.72024	0.0169511	0.0211848	-0.00164284	0.762451	0.239014	0.735596	0.0327277	0.00628022	-0.023509	-0.999168	-0.0891258	0.422592	9.81537	0.000293458	0.000295209	-0.00332685	-0.346924	0.0905762	-1.05127	
55	-0.0544964	-0.0624047	0.0350968	0.995944	-1.2547	0.704971	10.9572	0.00203342	-0.00447438	-0.00656781	-0.218506	0.111084	-1.12378	-0.291819	-0.202497	-0.0690394	0.93224	-4.25746	-0.16639	9.10146	-0.00669483	0.00107875	-0.0175127	0.332031	0.13501	-1.03882	0.114089	0.242405	-0.136732	-0.953692	-4.60829	3.48683	8.95109	0.0270197	-0.0122966	-0.0113875	0.0766602	-0.352051	-1.06567	-0.362814	0.116883	-0.452011	-0.806468	-5.06772	6.31735	5.54646	0.0237264	0.0203235	-0.00192041	0.285645	-0.872803	-0.515137	0.0627052	-0.0847878	-0.397755	0.911411	-1.00913	-7.27328	6.4386	0.0330952	0.0230063	-0.00782395	-0.0908203	0.723389	-0.785156	-0.761292	0.161788	-0.521842	0.349199	-7.60003	-5.77766	5.32741	0.0231784	0.0125058	-0.0245979	0.724121	0.76123	0.0476074	0.171794	-0.286122	-0.0628645	-0.940568	6.58369	-0.693597	7.96064	0.00461545	-0.0235247	0.00186589	-0.909912	0.179199	-0.51416	-0.150646	0.0484208	0.175972	0.971594	1.19789	3.41232	10.4455	-0.0033346	0.0281769	-0.0260154	-0.564941	-0.279297	-0.973877	-0.0859043	0.0788358	0.29231	0.949189	2.08679	5.50882	8.66668	-0.00151653	0.0156233	-0.0191041	-0.642822	-0.506104	-0.862061	-0.184861	0.943316	-0.167063	-0.219253	-4.27262	-2.51576	-7.72024	0.0169511	0.0211848	-0.00164284	0.762451	0.239014	0.735596	0.0326496	0.00628835	-0.0236358	-0.999168	-0.115269	0.462802	9.83924	0.00738629	0.00858733	-0.00831654	-0.351318	0.090332	-1.05127	
56	-0.0544971	-0.0625565	0.0352902	0.995927	-1.36105	0.665939	10.9158	0.0151977	-0.00234852	0.000668421	-0.216309	0.115479	-1.11719	-0.292027	-0.202441	-0.0690685	0.932184	-4.26588	-0.180939	9.15396	-0.0187021	0.0185437	-0.00862877	0.332031	0.137451	-1.0271	0.113932	0.242443	-0.137093	-0.953649	-4.60407	3.359	9.03748	0.0193381	0.00505066	-0.00162131	0.0852051	-0.354248	-1.06104	-0.362687	0.116884	-0.452251	-0.80639	-4.93913	6.11222	5.49686	0.0103334	0.00644105	0.0114497	0.283447	-0.872803	-0.510498	0.0626276	-0.0846891	-0.39735	0.911602	-0.985212	-7.08392	6.49489	0.00208649	0.00659321	-0.0083686	-0.088623	0.725586	-0.778076	-0.761334	0.161687	-0.521766	0.349268	-7.55182	-5.6501	5.47442	0.00296326	0.0154894	-0.0180243	0.721924	0.76123	0.0412598	0.171945	-0.286557	-0.0618954	-0.940473	6.65724	-0.675941	7.91663	-0.0145151	0.0396143	0.00280986	-0.905762	0.183594	-0.512207	-0.150194	0.0485812	0.17597	0.971656	1.19758	3.42631	10.4709	0.023495	0.00831678	-0.0119752	-0.562744	-0.279297	-0.973877	-0.0856343	0.0787905	0.292112	0.949278	2.07135	5.41855	8.68965	-0.00533038	0.00281305	-0.0184124	-0.640381	-0.506104	-0.857422	-0.184861	0.943316	-0.167063	-0.219253	-4.27262	-2.51576	-7.72024	0.0169511	0.0211848	-0.00164284	0.762451	0.239014	0.735596	0.0324985	0.00612981	-0.0236724	-0.999173	-0.152599	0.436084	9.74509	0.00840083	-0.00397689	-0.00724929	-0.34668	0.0861816	-1.04443	
57	-0.0544408	-0.062466	0.0356573	0.995923	-1.34797	0.773634	10.9241	0.0157088	-0.00912349	-0.000868142	-0.216309	0.113281	-1.11499	-0.292245	-0.202508	-0.0693644	0.932079	-4.24473	-0.24354	9.09617	-0.0189279	0.0225165	-0.0118925	0.329834	0.133057	-1.03394	0.114099	0.24255	-0.137804	-0.953499	-4.55769	3.40185	8.96739	0.0421273	0.00648952	0.00712028	0.0810547	-0.356445	-1.05884	-0.36249	0.116572	-0.452274	-0.806511	-5.06709	6.30064	5.56544	-0.00856747	-0.000477587	0.0164895	0.285889	-0.877197	-0.508301	0.0626339	-0.0844663	-0.397927	0.911371	-1.04725	-7.1619	6.46486	-0.0411831	-0.00497495	-0.0206255	-0.0908203	0.727783	-0.782715	-0.76112	0.161586	-0.521973	0.349471	-7.58717	-5.74883	5.39219	-0.0126361	0.0217421	-0.0130953	0.722168	0.759033	0.0476074	0.172349	-0.285598	-0.060411	-0.940787	6.50031	-0.733703	7.89401	-0.00642786	0.0878407	0.00406094	-0.907959	0.183594	-0.522705	-0.149985	0.0484631	0.176077	0.971675	1.1832	3.48613	10.5142	0.00656516	0.0202679	-0.0117479	-0.560791	-0.2771	-0.980957	-0.0856438	0.0787788	0.29251	0.949156	2.09412	5.58202	8.7272	0.0156655	0.00371482	-0.01676	-0.637939	-0.510742	-0.864014	-0.184861	0.943316	-0.167063	-0.219253	-4.27262	-2.51576	-7.72024	0.0169511	0.0211848	-0.00164284	0.762451	0.239014	0.735596	0.0326048	0.00558803	-0.0238725	-0.999168	-0.0856373	0.522771	9.80619	0.00286557	-0.0154941	0.0030128	-0.351318	0.090332	-1.04883	
58	-0.0543776	-0.0624177	0.0357334	0.995927	-1.29651	0.793467	10.964	0.00697264	-0.0079958	-0.00356343	-0.213867	0.111328	-1.12573	-0.292434	-0.202642	-0.0693856	0.931989	-4.31948	-0.21678	9.08513	-0.0117822	0.0268391	-0.00235879	0.334229	0.132812	-1.03882	0.113914	0.242632	-0.138195	-0.953444	-4.63486	3.54856	8.97851	0.0384514	0.00442718	-0.0106435	0.0810547	-0.354248	-1.06323	-0.36249	0.116572	-0.452274	-0.806511	-5.06709	6.30064	5.56544	-0.00856747	-0.000477587	0.0164895	0.285889	-0.877197	-0.508301	0.0626178	-0.0841697	-0.397999	0.911368	-1.00471	-7.23562	6.5572	0.00875825	-0.00277023	-0.0146366	-0.0932617	0.734375	-0.785156	-0.76116	0.161514	-0.522016	0.349353	-7.64663	-5.80817	5.41211	-0.00993469	0.0197164	-0.00656647	0.724365	0.756836	0.0498047	0.172414	-0.284246	-0.0597744	-0.941225	6.5818	-0.720803	8.01364	0.0211034	0.0903055	-0.0183723	-0.903564	0.183594	-0.524902	-0.149767	0.0485469	0.175767	0.971761	1.24836	3.54213	10.4974	-0.0133432	0.0118174	-0.0178662	-0.562744	-0.279297	-0.976074	-0.0855974	0.0788144	0.292472	0.949169	2.07636	5.52856	8.68205	0.00427983	0.0032315	-0.0174214	-0.635986	-0.503906	-0.855225	-0.184861	0.943316	-0.167063	-0.219253	-4.27262	-2.51576	-7.72024	0.0169511	0.0211848	-0.00164284	0.762451	0.239014	0.735596	0.0326564	0.00539819	-0.0238969	-0.999166	-0.039813	0.473756	9.85948	0.00269033	-0.00807674	0.00101728	-0.351318	0.090332	-1.04443	
59	-0.0543566	-0.062563	0.0356017	0.995924	-1.32738	0.755435	10.939	-0.00491913	0.00268646	-0.00112813	-0.223145	0.119873	-1.11523	-0.292808	-0.202438	-0.0693	0.931923	-4.2176	-0.149806	9.07138	-0.00514968	-0.00194746	-0.0127363	0.333984	0.139404	-1.03662	0.113938	0.242541	-0.138352	-0.953441	-4.61853	3.42062	8.99685	0.00772146	-0.0026478	0.00224467	0.0810547	-0.354248	-1.06323	-0.36251	0.116305	-0.45285	-0.806217	-5.05318	6.38542	5.5935	0.0192876	0.00539895	-0.00693645	0.281494	-0.875	-0.510498	0.0626972	-0.0841826	-0.398237	0.911257	-0.976714	-7.09976	6.52063	-0.0273245	0.0178566	-0.0121454	-0.0927734	0.723389	-0.782715	-0.761394	0.161226	-0.521816	0.349277	-7.60879	-5.82496	5.298	0.0098187	0.00818751	-0.0118041	0.719971	0.76123	0.0476074	0.172522	-0.282309	-0.0590144	-0.941836	6.52916	-0.712805	8.03055	0.0175408	0.118891	-0.0157512	-0.897217	0.183594	-0.53125	-0.149423	0.0484648	0.175309	0.971901	1.17113	3.36445	10.4764	-0.00963532	0.0274587	-0.0127007	-0.567139	-0.281494	-0.978516	-0.0855089	0.0789197	0.292092	0.949285	2.09732	5.45214	8.62087	-0.0120493	0.00309255	-0.0162733	-0.63623	-0.49707	-0.859863	-0.184861	0.943316	-0.167063	-0.219253	-4.27262	-2.51576	-7.72024	0.0169511	0.0211848	-0.00164284	0.762451	0.239014	0.735596	0.032705	0.00548799	-0.0239394	-0.999163	-0.0316193	0.421648	9.79939	0.00212635	0.0178662	-0.00382079	-0.353516	0.090332	-1.04199	
60	-0.0543931	-0.0625136	0.0354691	0.995929	-1.30412	0.698641	10.9676	-0.00309562	-0.00165861	0.00209577	-0.214111	0.115479	-1.12158	-0.292912	-0.202364	-0.0691481	0.931917	-4.31042	-0.198954	9.16184	-0.00982928	0.0172452	-0.012896	0.331787	0.139404	-1.03198	0.114008	0.242598	-0.138119	-0.953452	-4.5355	3.484	8.95647	-0.0161483	0.00907191	-0.00695716	0.0788574	-0.356445	-1.06323	-0.362541	0.116383	-0.452784	-0.806229	-4.99418	6.29909	5.53477	-0.00261728	0.00402979	-0.00166127	0.28125	-0.872803	-0.506104	0.0625291	-0.0842162	-0.398338	0.911221	-1.03733	-7.17561	6.49676	0.0092513	0.00512563	-0.00688209	-0.0930176	0.725586	-0.789551	-0.761669	0.160788	-0.521379	0.349529	-7.61161	-5.69293	5.43509	0.0124693	0.00999479	-0.0140432	0.726318	0.763428	0.0454102	0.172537	-0.280687	-0.0582616	-0.942365	6.50934	-0.731281	8.10705	0.0144853	0.0944423	-0.0171788	-0.897217	0.183594	-0.53125	-0.149064	0.0486254	0.175343	0.971942	1.23764	3.43854	10.4286	0.0204835	0.00635728	-0.0125493	-0.560547	-0.279297	-0.976074	-0.0854595	0.0789332	0.292178	0.949262	2.0861	5.46365	8.73221	0.0290977	0.00829711	-0.0193124	-0.642578	-0.510742	-0.859619	-0.184861	0.943316	-0.167063	-0.219253	-4.27262	-2.51576	-7.72024	0.0169511	0.0211848	-0.00164284	0.762451	0.239014	0.735596	0.0326362	0.00577359	-0.0238822	-0.999165	-0.144856	0.486801	9.82515	-0.00246206	0.015488	-0.00432041	-0.353516	0.090332	-1.04663	
61	-0.054329	-0.0626262	0.0354638	0.995926	-1.32464	0.684588	10.9264	0.00134116	0.00486977	-0.00477857	-0.21875	0.117676	-1.12158	-0.293023	-0.202439	-0.0692243	0.93186	-4.3146	-0.182676	9.10642	-0.0152208	0.0234539	-0.0105578	0.331787	0.139404	-1.03662	0.114026	0.242526	-0.138338	-0.953437	-4.58434	3.38103	9.00869	0.0226677	0.00022777	0.000793313	0.0766602	-0.354248	-1.06323	-0.362601	0.116228	-0.453087	-0.806054	-5.00156	6.32683	5.58746	0.0110289	0.00131456	0.00516482	0.279053	-0.872803	-0.506104	0.0625768	-0.0841669	-0.398393	0.911199	-0.986974	-7.13249	6.53404	-0.00377755	0.005538	-0.0161678	-0.0930176	0.727783	-0.780518	-0.761816	0.160747	-0.521267	0.349395	-7.55685	-5.78115	5.35593	-0.0152702	0.0118724	-0.0142635	0.722168	0.759033	0.043457	0.1726	-0.279634	-0.0577922	-0.942695	6.50931	-0.72783	8.1282	0.0122404	0.12051	-0.0131755	-0.893066	0.187988	-0.531494	-0.148758	0.0485781	0.175081	0.972038	1.15431	3.41602	10.4648	0.000304911	0.0215715	-0.0145621	-0.562988	-0.272705	-0.978516	-0.085453	0.0788555	0.29223	0.949253	2.07479	5.58937	8.71615	0.0123712	0.0124181	-0.0176308	-0.647461	-0.501709	-0.864258	-0.184861	0.943316	-0.167063	-0.219253	-4.27262	-2.51576	-7.72024	0.0169511	0.0211848	-0.00164284	0.762451	0.239014	0.735596	0.0325735	0.00566327	-0.0240275	-0.999164	-0.0985136	0.464117	9.76199	0.0073178	-0.000519884	-0.00725593	-0.355713	0.0881348	-1.04663	
62	-0.0541779	-0.0626056	0.0355801	0.995931	-1.33982	0.750994	10.9494	0.00480277	-0.0106066	-0.00462525	-0.216309	0.113281	-1.11938	-0.293175	-0.202295	-0.0688687	0.93187	-4.29968	-0.196761	9.04136	0.0141125	-0.00104477	-0.0139092	0.333984	0.139404	-1.03906	0.114219	0.242671	-0.137923	-0.953437	-4.66105	3.5079	8.90255	-0.0286864	0.00916608	-0.00182602	0.0874023	-0.356445	-1.06323	-0.362677	0.116138	-0.45296	-0.806105	-5.07277	6.21975	5.51673	0.00687496	0.00240036	-0.0017286	0.286133	-0.881592	-0.506104	0.062575	-0.0841339	-0.398332	0.911229	-0.914505	-7.21997	6.43959	0.00579862	0.00664385	-0.00486316	-0.088623	0.727783	-0.780518	-0.761934	0.160697	-0.52121	0.349247	-7.61817	-5.83422	5.3549	-0.00944677	0.0165789	-0.00783437	0.726318	0.76123	0.0432129	0.172699	-0.278511	-0.0567781	-0.943071	6.41702	-0.741149	8.20564	0.00370307	0.058032	-0.00911828	-0.893066	0.187988	-0.535645	-0.14848	0.0486423	0.174885	0.972113	1.16533	3.46034	10.4923	-0.0179168	0.0150463	-0.0123171	-0.560547	-0.281494	-0.973877	-0.0852126	0.0787896	0.292159	0.949302	2.07308	5.48783	8.71438	0.0197561	0.00777101	-0.0176328	-0.640137	-0.512939	-0.861816	-0.184861	0.943316	-0.167063	-0.219253	-4.27262	-2.51576	-7.72024	0.0169511	0.0211848	-0.00164284	0.762451	0.239014	0.735596	0.0325466	0.00560829	-0.0240138	-0.999166	-0.0966558	0.479772	9.84963	0.000218976	0.00912195	-0.00386322	-0.346924	0.0927734	-1.04907	
63	-0.0542261	-0.0626613	0.0355765	0.995925	-1.29993	0.676295	10.943	0.0044285	0.0045329	0.000315002	-0.216064	0.109131	-1.11938	-0.293191	-0.201949	-0.0688907	0.931939	-4.27868	-0.178526	9.14373	-0.0255896	0.000739661	-0.0203746	0.333984	0.137207	-1.04126	0.114277	0.2426	-0.138157	-0.953414	-4.61155	3.4207	9.03191	0.0237027	0.00233441	-0.000684489	0.0766602	-0.356445	-1.06567	-0.362812	0.116046	-0.453281	-0.805877	-5.07399	6.31509	5.61217	0.0334044	0.00713582	-0.00657449	0.283447	-0.872803	-0.499512	0.0624948	-0.0840227	-0.398581	0.911135	-0.980026	-7.2054	6.52377	-0.0205247	-0.00327952	-0.0108395	-0.0952148	0.727783	-0.782715	-0.762098	0.16031	-0.521138	0.349174	-7.59498	-5.71525	5.39778	-0.00163466	0.0155626	-0.00914862	0.722168	0.759033	0.0454102	0.172732	-0.276634	-0.0560001	-0.943664	6.45544	-0.73135	8.1097	0.0169688	0.139944	-0.0182039	-0.892822	0.183594	-0.539795	-0.148142	0.0486954	0.174615	0.97221	1.18829	3.42953	10.455	-0.000741048	0.012258	-0.0140853	-0.55835	-0.279297	-0.973877	-0.0851931	0.0788133	0.292208	0.949287	2.06215	5.5434	8.6721	0.00867107	0.0075319	-0.0161318	-0.635986	-0.501465	-0.859863	-0.184861	0.943316	-0.167063	-0.219253	-4.27262	-2.51576	-7.72024	0.0169511	0.0211848	-0.00164284	0.762451	0.239014	0.735596	0.0325273	0.00567622	-0.0240406	-0.999166	-0.14297	0.4459	9.80032	0.00208356	0.00763412	-0.0047503	-0.353271	0.0859375	-1.04663	
64	-0.0539866	-0.0629027	0.035896	0.995912	-1.39861	0.737987	10.919	0.0136251	0.000120056	-0.00774174	-0.216064	0.111328	-1.12573	-0.293274	-0.20164	-0.068689	0.931994	-4.23981	-0.237132	9.10496	-0.000279735	0.000791038	-0.0136773	0.334229	0.133057	-1.03394	0.114609	0.242528	-0.137653	-0.953465	-4.50269	3.43905	8.95417	-0.0208403	0.000885273	0.0105494	0.0788574	-0.352051	-1.06567	-0.363048	0.115753	-0.453333	-0.805783	-4.96523	6.27132	5.51338	0.0166992	-0.00103964	-0.00057893	0.285889	-0.877197	-0.506104	0.0627055	-0.0839628	-0.398785	0.911037	-0.966087	-7.22118	6.51289	0.0105724	0.00690991	-0.00810413	-0.0910645	0.72998	-0.787354	-0.762262	0.160195	-0.52097	0.349119	-7.56335	-5.80085	5.29339	-0.00914521	0.00806499	-0.0139745	0.722168	0.759033	0.0412598	0.172689	-0.2735	-0.0559507	-0.944588	6.38997	-0.747668	8.07004	0.0722904	0.158953	-0.0443773	-0.890625	0.179199	-0.548096	-0.147907	0.0486491	0.174385	0.972289	1.19422	3.40168	10.4833	0.00741819	0.0200259	-0.0131764	-0.564453	-0.290039	-0.973633	-0.0851904	0.0788149	0.292131	0.94931	2.09281	5.5063	8.68113	0.0122766	0.00920176	-0.017064	-0.640625	-0.503906	-0.857422	-0.184861	0.943316	-0.167063	-0.219253	-4.27262	-2.51576	-7.72024	0.0169511	0.0211848	-0.00164284	0.762451	0.239014	0.735596	0.0324941	0.00549134	-0.0241012	-0.999166	-0.0256381	0.427292	9.7579	0.00122976	-0.000878048	-0.00362993	-0.351074	0.0859375	-1.04663	
65	-0.0538153	-0.0627954	0.036169	0.995918	-1.27124	0.800173	10.9515	0.00820205	-0.003957	0.000265285	-0.218262	0.108887	-1.11719	-0.293632	-0.201624	-0.0686101	0.931891	-4.2675	-0.199322	9.1138	-0.0124864	0.0219335	-0.00151612	0.332031	0.135254	-1.0293	0.114826	0.242548	-0.137321	-0.953482	-4.58248	3.46812	9.01925	-0.00982333	0.0106241	-0.00607906	0.0744629	-0.354004	-1.06787	-0.363093	0.115642	-0.453365	-0.805761	-5.03553	6.42622	5.57178	0.0075413	-0.0013855	0.00301014	0.279297	-0.877197	-0.506104	0.0628807	-0.0838061	-0.398643	0.911102	-0.972639	-7.23721	6.47654	0.00405117	0.00535504	-0.0200058	-0.088623	0.727783	-0.778076	-0.762472	0.16006	-0.520656	0.349191	-7.61321	-5.81531	5.3481	0.0130653	-0.00485703	-0.0152524	0.726318	0.759033	0.0498047	0.172622	-0.270722	-0.054979	-0.945457	6.30167	-0.690578	8.30487	-0.00155297	0.136958	-0.0177685	-0.884277	0.183594	-0.556885	-0.147651	0.0488013	0.174273	0.972341	1.22148	3.45235	10.5369	0.00103779	0.00421481	-0.0169853	-0.5625	-0.283691	-0.976074	-0.0851771	0.0787952	0.291953	0.949368	2.10525	5.536	8.70452	-0.00707556	0.00947856	-0.0166515	-0.640381	-0.506104	-0.862061	-0.184861	0.943316	-0.167063	-0.219253	-4.27262	-2.51576	-7.72024	0.0169511	0.0211848	-0.00164284	0.762451	0.239014	0.735596	0.0323494	0.00545664	-0.0240966	-0.999171	-0.0255636	0.438629	9.77668	0.000637451	0.00405224	-0.0148719	-0.353516	0.0881348	-1.04443	
66	-0.0538113	-0.0629044	0.0360116	0.995917	-1.34884	0.777881	10.9225	-0.00882869	0.00117788	0.00122338	-0.218262	0.109131	-1.12354	-0.293746	-0.201632	-0.0687183	0.931845	-4.29284	-0.166764	9.14877	-0.0119473	0.0146747	-0.0213015	0.336426	0.133057	-1.03638	0.114917	0.242565	-0.136919	-0.953525	-4.65422	3.46142	8.99012	-0.0146235	-0.000488603	-0.00390079	0.0766602	-0.349854	-1.05884	-0.363093	0.115778	-0.453113	-0.805883	-5.05926	6.35982	5.62245	-0.012658	0.00938942	-0.00330066	0.283691	-0.877197	-0.512695	0.0626667	-0.0838619	-0.399019	0.910947	-1.01139	-7.20578	6.47272	-0.0290703	0.00436696	-0.0023193	-0.0908203	0.727783	-0.780518	-0.762838	0.159649	-0.520186	0.349281	-7.63657	-5.82373	5.3684	0.0199451	0.00624864	-0.00989124	0.719727	0.76123	0.0412598	0.1725	-0.267874	-0.0540211	-0.946345	6.2909	-0.672672	8.26629	0.0146414	0.168406	-0.0247315	-0.877686	0.181641	-0.556641	-0.14725	0.048882	0.174079	0.972432	1.16919	3.42362	10.4774	0.0143949	0.0202722	-0.0151619	-0.564941	-0.279297	-0.976074	-0.0850793	0.0789078	0.291727	0.949437	2.04952	5.45294	8.69884	0.00109992	0.00150107	-0.016007	-0.64502	-0.506104	-0.859863	-0.184861	0.943316	-0.167063	-0.219253	-4.27262	-2.51576	-7.72024	0.0169511	0.0211848	-0.00164284	0.762451	0.239014	0.735596	0.032109	0.00571423	-0.024009	-0.99918	-0.113633	0.501026	9.85826	0.00117756	0.023641	-0.00975084	-0.353271	0.0837402	-1.04419	
67	-0.0538411	-0.0629117	0.0358597	0.99592	-1.36437	0.748565	10.9486	-0.0117995	-0.00219529	0.00315348	-0.216064	0.106934	-1.12354	-0.293749	-0.201614	-0.0686671	0.931852	-4.3163	-0.159565	9.11916	-0.00627402	0.0128816	-0.0186309	0.333984	0.137207	-1.04126	0.114986	0.242504	-0.136537	-0.953587	-4.56267	3.37976	8.95808	-0.0276242	0.0013197	-0.0060012	0.0852051	-0.354248	-1.06348	-0.363307	0.116055	-0.453122	-0.805742	-5.0197	6.31329	5.51193	0.00102525	0.0122389	-0.0115512	0.279297	-0.877197	-0.503906	0.0626416	-0.0837614	-0.399198	0.910879	-1.11066	-7.23181	6.41894	-0.0143122	-0.000632336	-0.0138341	-0.0932617	0.731934	-0.775879	-0.76322	0.15902	-0.519691	0.349469	-7.56514	-5.68713	5.39011	0.018008	0.00389467	-0.00555549	0.722168	0.759033	0.043457	0.172532	-0.266077	-0.0533108	-0.946886	6.23126	-0.703864	8.33134	0.0023449	0.184633	-0.0160824	-0.87793	0.183838	-0.563232	-0.147021	0.0488994	0.174044	0.972472	1.20084	3.42408	10.4549	-0.00346745	0.0165867	-0.0119397	-0.558594	-0.2771	-0.976074	-0.0851034	0.0790112	0.291876	0.94938	2.09485	5.46449	8.69034	0.0141829	0.00438895	-0.0138818	-0.640381	-0.508545	-0.857422	-0.184861	0.943316	-0.167063	-0.219253	-4.27262	-2.51576	-7.72024	0.0169511	0.0211848	-0.00164284	0.762451	0.239014	0.735596	0.0320869	0.00625451	-0.0238979	-0.99918	-0.102244	0.452953	9.75859	-0.0046073	0.0298092	-0.00486094	-0.351074	0.0837402	-1.04199	
68	-0.053708	-0.0628831	0.0357959	0.995932	-1.38099	0.728351	10.9271	0.00133372	-0.00521233	-0.008353	-0.214355	0.117676	-1.11938	-0.294062	-0.20142	-0.0687166	0.931792	-4.23504	-0.166618	9.08209	-0.0192461	0.00682324	-0.00977002	0.32959	0.139404	-1.03418	0.115178	0.242568	-0.136482	-0.953555	-4.57052	3.40049	8.98957	0.00878823	0.00504982	0.00608522	0.0852051	-0.356445	-1.06104	-0.363503	0.116108	-0.452926	-0.805756	-4.98579	6.25361	5.52881	-0.000199545	0.0011646	-0.00483952	0.2771	-0.879395	-0.503906	0.0626529	-0.0835044	-0.399119	0.910937	-0.974362	-7.14527	6.5011	0.00477131	-0.00511876	-0.00963012	-0.0932617	0.729736	-0.778076	-0.763533	0.15895	-0.519487	0.34912	-7.60003	-5.73128	5.46284	-0.0140759	0.00475194	-0.00542805	0.717773	0.76123	0.0432129	0.17257	-0.263246	-0.0519782	-0.947744	6.18595	-0.745489	8.40771	0.00120379	0.14033	-0.0168544	-0.871582	0.187988	-0.56958	-0.146656	0.0489264	0.173742	0.97258	1.1939	3.41335	10.4776	0.00622733	0.0169968	-0.0152774	-0.564941	-0.281494	-0.978516	-0.0850502	0.07912	0.291856	0.949382	2.06659	5.48969	8.70935	0.00157787	-0.000394485	-0.016958	-0.637939	-0.508301	-0.859619	-0.189513	0.941935	-0.169319	-0.219487	-4.30844	-2.52969	-7.68875	0.0157819	-0.00207384	0.0043774	0.762451	0.239014	0.738037	0.0319876	0.0066342	-0.0236345	-0.999187	-0.121638	0.482998	9.80974	-0.00827858	0.0177244	-0.00715742	-0.34668	0.0859375	-1.04663	
69	-0.0536467	-0.0626547	0.0356678	0.995954	-1.29954	0.754018	10.9281	-0.00622913	-0.0130116	0.00109671	-0.214111	0.113281	-1.12158	-0.294193	-0.201515	-0.0686855	0.931732	-4.25829	-0.243575	9.12397	0.00285691	0.0221831	-0.0145421	0.334229	0.132812	-1.03882	0.115449	0.242643	-0.136545	-0.953494	-4.57934	3.32621	9.01717	0.0102065	0.00476406	0.00537228	0.0808105	-0.352051	-1.06348	-0.363528	0.116043	-0.452869	-0.805786	-5.05039	6.31875	5.56026	-0.00209218	0.00121529	0.00206652	0.279053	-0.872803	-0.506104	0.0625826	-0.0834384	-0.399294	0.910871	-0.977694	-7.1935	6.49396	-0.011275	0.0036397	-0.0140468	-0.0976562	0.734131	-0.775879	-0.763726	0.158773	-0.51936	0.34897	-7.61579	-5.72889	5.41857	-0.00797087	0.0131299	-0.00937022	0.724365	0.756836	0.0456543	0.172655	-0.261205	-0.0505524	-0.948371	6.15091	-0.699065	8.40046	-0.0102837	0.122166	-0.00409734	-0.873535	0.181641	-0.575928	-0.146403	0.0488955	0.173822	0.972605	1.1987	3.44319	10.4086	0.0234242	0.0124502	-0.0125591	-0.567139	-0.281494	-0.978516	-0.0850113	0.0791539	0.291969	0.949348	2.08753	5.47556	8.65496	0.00956255	0.00815128	-0.01618	-0.640381	-0.508545	-0.861816	-0.189513	0.941935	-0.169319	-0.219487	-4.30844	-2.52969	-7.68875	0.0157819	-0.00207384	0.0043774	0.762451	0.239014	0.738037	0.0320982	0.0066167	-0.0236013	-0.999184	-0.11021	0.494074	9.82239	-0.000231463	0.00539562	0.00338554	-0.353516	0.0881348	-1.04883	
70	-0.0535638	-0.0627026	0.0355852	0.995958	-1.32582	0.650027	10.9212	0.00409557	-0.000704378	-0.00409059	-0.214355	0.117676	-1.11938	-0.294306	-0.201525	-0.0687183	0.931692	-4.30843	-0.154894	9.05932	-0.00855042	0.00648355	-0.015276	0.331787	0.137207	-1.03662	0.115613	0.242709	-0.136457	-0.95347	-4.60807	3.42734	8.97492	-0.0104597	0.00640633	0.00607295	0.0810547	-0.354248	-1.06104	-0.36361	0.11595	-0.452536	-0.80595	-4.99822	6.29092	5.48027	-0.00999912	-0.00355783	0.00066239	0.283691	-0.875	-0.506104	0.0627522	-0.0832799	-0.399448	0.910806	-0.979681	-7.23981	6.4831	0.00505629	0.0062952	-0.0161931	-0.0932617	0.734375	-0.782715	-0.763967	0.1585	-0.519058	0.349015	-7.59984	-5.78185	5.38979	0.00329822	0.00877328	-0.0123314	0.730713	0.756836	0.0412598	0.172801	-0.259014	-0.0489934	-0.949027	6.06869	-0.782131	8.43903	-0.00608811	0.118932	-0.00942825	-0.867188	0.186035	-0.584473	-0.146039	0.0491036	0.173513	0.972705	1.22041	3.4774	10.4851	-0.00050887	0.00455345	-0.0141411	-0.562744	-0.279297	-0.978516	-0.0850033	0.0792123	0.291941	0.949352	2.07793	5.531	8.67621	0.00153562	0.00225971	-0.0156764	-0.64502	-0.508545	-0.862061	-0.190675	0.94163	-0.169193	-0.219887	-4.35011	-2.57964	-7.64282	0.023922	-0.00261756	-0.0048515	0.766846	0.241211	0.733398	0.0322318	0.00664847	-0.0235682	-0.99918	-0.058694	0.472055	9.78834	-0.000792082	0.0108437	0.000979406	-0.348877	0.0859375	-1.04663	
71	-0.0533997	-0.0626927	0.0359107	0.995956	-1.3391	0.716315	10.9632	0.0168411	-0.0120025	-0.00639798	-0.214355	0.117676	-1.11719	-0.294402	-0.201163	-0.0684545	0.931759	-4.22914	-0.227543	9.16175	-0.00705732	0.00337577	-0.0163483	0.32959	0.139404	-1.03906	0.115989	0.242615	-0.136435	-0.953452	-4.59648	3.36967	9.03494	0.00568492	0.000680191	0.00948777	0.0808105	-0.352051	-1.06787	-0.364003	0.115599	-0.452551	-0.805814	-5.02344	6.33748	5.56036	0.0160798	-0.0158043	-0.00659431	0.283691	-0.875	-0.506104	0.0629993	-0.0831659	-0.399413	0.910815	-0.941189	-7.11974	6.48311	0.00280673	0.00388048	-0.0161948	-0.0932617	0.732178	-0.780518	-0.764264	0.158171	-0.518835	0.348845	-7.54432	-5.69265	5.39737	0.00282249	0.00807466	-0.00230805	0.719971	0.76123	0.0432129	0.172824	-0.256551	-0.0478044	-0.949751	6.07791	-0.716308	8.43613	-0.00696017	0.146668	-0.0109038	-0.86084	0.19043	-0.593262	-0.145826	0.0490047	0.173484	0.972747	1.19997	3.38076	10.4883	0.0254361	0.0141952	-0.0109162	-0.566895	-0.281494	-0.968994	-0.0849459	0.0793278	0.291917	0.949355	2.10441	5.48003	8.73128	0.012611	0.00423552	-0.0165938	-0.642822	-0.501709	-0.857666	-0.191583	0.941421	-0.168871	-0.220238	-4.37083	-2.5524	-7.63385	0.0355431	-0.00713553	-0.0143601	0.766602	0.243408	0.724121	0.0324649	0.00688833	-0.0235074	-0.999173	-0.0912799	0.501151	9.77661	-0.00276997	0.0148574	0.00811209	-0.353271	0.0859375	-1.04883	
72	-0.0532224	-0.0627149	0.0361753	0.995955	-1.29997	0.750332	10.9459	0.0104173	0.000262452	-0.00634854	-0.216309	0.115479	-1.12793	-0.294532	-0.201207	-0.0685786	0.931699	-4.23257	-0.230674	9.11745	-0.0153964	0.0178786	-0.0151482	0.32959	0.139404	-1.03906	0.116242	0.242778	-0.136503	-0.95337	-4.5637	3.4209	8.96984	0.00991626	0.010199	0.00655469	0.0830078	-0.352051	-1.06567	-0.364349	0.115258	-0.452027	-0.806001	-5.0226	6.26724	5.55753	-0.00729962	-0.0180136	-0.00407791	0.279297	-0.875	-0.506104	0.063353	-0.0829258	-0.399495	0.910776	-0.943065	-7.22297	6.50977	0.000790005	0.00463834	-0.0295228	-0.0952148	0.727783	-0.780518	-0.764584	0.15763	-0.518561	0.348796	-7.60933	-5.70745	5.43055	0.0155268	0.0104479	-0.00224999	0.724365	0.756836	0.0456543	0.17299	-0.253875	-0.0463122	-0.950514	5.98665	-0.750696	8.55362	-0.000745805	0.136222	-0.00759619	-0.86499	0.186035	-0.59082	-0.145587	0.0489972	0.173234	0.972828	1.20421	3.45666	10.4796	0.00844553	0.024989	-0.00983644	-0.554199	-0.2771	-0.978516	-0.084941	0.0793193	0.291994	0.949333	2.10096	5.47645	8.70166	0.0122111	0.0067609	-0.0166309	-0.640381	-0.508545	-0.857422	-0.192051	0.941331	-0.168689	-0.220356	-4.37137	-2.59349	-7.65642	0.0348891	-0.0032291	-0.0154504	0.764404	0.243408	0.72876	0.0327229	0.00693279	-0.0233039	-0.999169	-0.13014	0.469206	9.82494	-0.00522558	0.0101061	0.00849452	-0.34668	0.0861816	-1.04199	
73	-0.0532198	-0.062799	0.0362993	0.995945	-1.33082	0.770408	10.9507	0.0040065	-0.00136687	0.00279651	-0.216309	0.113525	-1.12573	-0.294383	-0.201444	-0.0689237	0.93167	-4.27357	-0.176638	9.11975	-0.0136136	0.0214804	-0.0169055	0.333984	0.137451	-1.03174	0.116372	0.242841	-0.136926	-0.953277	-4.64923	3.49335	8.97419	0.0239239	0.00489335	0.00187396	0.0852051	-0.352295	-1.05884	-0.364763	0.114953	-0.451966	-0.805891	-5.14232	6.36332	5.66515	0.00802633	-0.00979432	-0.00773722	0.283447	-0.872803	-0.506104	0.0634787	-0.0828612	-0.399905	0.910594	-0.915604	-7.23556	6.5572	-0.0253023	0.013459	-0.0132142	-0.0976562	0.734131	-0.77832	-0.764762	0.157194	-0.518503	0.348689	-7.67859	-5.8174	5.29846	0.022597	0.0164563	-0.00755988	0.726562	0.754639	0.0500488	0.172975	-0.252209	-0.0452959	-0.951009	5.93731	-0.728776	8.50896	0.00279388	0.105637	-0.0148285	-0.863037	0.19043	-0.601562	-0.145346	0.0491102	0.173075	0.972886	1.16795	3.46335	10.4623	-0.00471947	0.00792305	-0.0128348	-0.560547	-0.281494	-0.978516	-0.0848611	0.079289	0.292026	0.949333	2.06627	5.52846	8.679	0.00878433	0.00718275	-0.0178187	-0.642822	-0.506104	-0.859863	-0.193258	0.941061	-0.168387	-0.220685	-4.34638	-2.61389	-7.68257	0.0496726	-0.0171866	-0.0140815	0.764404	0.243408	0.726562	0.0329156	0.00693698	-0.0233324	-0.999162	-0.154393	0.422514	9.85287	0.00318181	0.00777145	0.0121028	-0.348877	0.0859375	-1.05347	
74	-0.0531367	-0.062733	0.0363011	0.995953	-1.3364	0.751079	10.9477	0.0016112	-0.0104692	-0.00321333	-0.220703	0.111084	-1.12378	-0.294453	-0.201545	-0.0690225	0.931618	-4.29498	-0.194579	9.07707	-0.0119448	0.0147084	-0.0154019	0.333984	0.141602	-1.03662	0.116346	0.242885	-0.136906	-0.953272	-4.64737	3.49722	9.03005	0.0033609	0.00579937	-0.00677394	0.0788574	-0.349854	-1.05884	-0.364868	0.114884	-0.451894	-0.805894	-5.07254	6.32528	5.59038	-0.000647722	-0.00404536	-0.00271181	0.279297	-0.877197	-0.510498	0.0637904	-0.0827474	-0.399586	0.910722	-1.00863	-7.21293	6.36624	0.034645	0.00455344	-0.0206179	-0.0976562	0.731934	-0.775879	-0.76493	0.15686	-0.518217	0.348894	-7.62005	-5.64764	5.4467	0.0307396	0.00484615	-0.0161063	0.72876	0.756836	0.043457	0.172905	-0.24999	-0.0443426	-0.951653	5.89822	-0.791139	8.5873	0.012082	0.121339	-0.0229294	-0.850098	0.186035	-0.599365	-0.145117	0.0492221	0.172793	0.972965	1.17205	3.43445	10.4713	-0.0125857	0.00894188	-0.0189397	-0.564941	-0.281494	-0.968994	-0.084826	0.0792896	0.291874	0.949383	2.04694	5.49795	8.64684	-0.00527021	0.00721602	-0.0179087	-0.647705	-0.499512	-0.857666	-0.193835	0.940904	-0.168247	-0.220953	-4.34969	-2.68027	-7.6501	0.0431371	-0.0168128	-0.0108844	0.766602	0.247803	0.72876	0.033087	0.00710105	-0.0232289	-0.999157	-0.110378	0.450016	9.81519	-0.00978104	0.0131788	0.00146845	-0.346924	0.0905762	-1.05127	
75	-0.0530671	-0.0626654	0.0363189	0.995961	-1.31282	0.754065	10.9472	0.000381329	-0.00514421	-0.000500269	-0.218262	0.109131	-1.12354	-0.294465	-0.201317	-0.0688779	0.931675	-4.21804	-0.210342	9.10921	-0.0034275	0.00472814	-0.019791	0.327637	0.137207	-1.03882	0.116626	0.242835	-0.136935	-0.953246	-4.56719	3.49786	8.97553	0.0172441	-0.00813667	-0.000366675	0.0788574	-0.352051	-1.05884	-0.365135	0.114747	-0.451656	-0.805926	-4.98282	6.17543	5.57903	0.000832029	-0.00380358	-0.00664013	0.281494	-0.875	-0.508301	0.0637167	-0.0826989	-0.399517	0.910762	-0.92514	-7.11342	6.4558	0.00667451	0.00230763	-0.00653531	-0.0974121	0.729736	-0.780518	-0.765131	0.156496	-0.518254	0.348563	-7.6638	-5.66508	5.41268	-0.00958406	0.0219031	-0.00596642	0.726562	0.756836	0.0412598	0.172815	-0.248218	-0.0436586	-0.952164	5.86786	-0.751745	8.58118	0.0187072	0.0969132	-0.0189758	-0.852295	0.188232	-0.60791	-0.144842	0.0492495	0.172766	0.973009	1.22672	3.40666	10.4776	0.0251027	0.0137705	-0.0102312	-0.562744	-0.281494	-0.976074	-0.0848093	0.0793969	0.29172	0.949422	2.12185	5.46287	8.70385	0.007258	0.004559	-0.0152551	-0.642578	-0.508545	-0.862061	-0.19449	0.940786	-0.16817	-0.22094	-4.3806	-2.66002	-7.62352	0.0124966	0.0118742	-0.000496265	0.773193	0.247803	0.724121	0.033014	0.00721555	-0.0230644	-0.999163	-0.156579	0.369843	9.81632	-0.0116493	0.0164614	-0.0096017	-0.34668	0.0861816	-1.0376	
76	-0.0530287	-0.0626897	0.0362903	0.995962	-1.2988	0.724476	10.9509	-0.0014311	-0.00163315	-0.00185149	-0.220459	0.108887	-1.11719	-0.294492	-0.201307	-0.0688621	0.931669	-4.29376	-0.237019	9.17545	-0.00906722	0.0148105	-0.0165685	0.327393	0.141602	-1.03442	0.116639	0.242824	-0.136872	-0.953256	-4.5514	3.43668	9.05816	-0.00137001	0.00264429	-0.00378856	0.0786133	-0.349854	-1.06348	-0.365142	0.114603	-0.451875	-0.80582	-4.93337	6.32207	5.59865	0.00638374	0.00637722	0.009394	0.279297	-0.875	-0.508301	0.0637159	-0.0825677	-0.40057	0.910311	-0.94255	-7.31037	6.44767	0.00454774	0.00169444	-0.0155484	-0.0952148	0.729736	-0.773682	-0.765152	0.156387	-0.518223	0.348612	-7.70365	-5.73176	5.41491	0.000410892	0.0186725	-0.0165559	0.732666	0.763428	0.0410156	0.172775	-0.245663	-0.0431502	-0.952857	5.82895	-0.759058	8.51434	0.0291068	0.160813	-0.0266095	-0.845703	0.186279	-0.614258	-0.144521	0.0492986	0.172356	0.973127	1.17816	3.44315	10.4602	-0.014195	0.0148695	-0.016274	-0.562744	-0.281494	-0.973877	-0.0847812	0.0793383	0.291709	0.949433	2.09067	5.46341	8.65896	0.00717887	0.0104986	-0.0193968	-0.642822	-0.503906	-0.859863	-0.194961	0.940524	-0.168037	-0.221739	-4.38785	-2.63662	-7.62285	0.0159195	-0.0291572	0.00165324	0.770752	0.25	0.717285	0.0329865	0.00738225	-0.0229604	-0.999165	-0.184738	0.437952	9.82606	-0.0022932	0.00693815	-0.00195938	-0.349121	0.0905762	-1.04663	
77	-0.0529635	-0.0626721	0.0363543	0.995965	-1.33943	0.744178	10.9374	0.00383592	-0.00879425	-0.00138042	-0.213867	0.109131	-1.11938	-0.294651	-0.201317	-0.068887	0.931615	-4.25708	-0.24077	9.1339	-0.0143286	0.00880048	-0.0151389	0.336182	0.139404	-1.03906	0.11694	0.242855	-0.136956	-0.9532	-4.62237	3.40627	8.96661	0.0112509	0.00014513	0.0110289	0.0810547	-0.354248	-1.06787	-0.365081	0.114564	-0.451897	-0.805841	-4.99031	6.26878	5.60053	0.00413007	0.00691512	0.00254959	0.279297	-0.877197	-0.503906	0.063658	-0.0825281	-0.400381	0.910402	-0.966036	-7.17983	6.4062	0.0169498	0.00365843	-0.00637687	-0.0976562	0.731934	-0.77832	-0.765206	0.156065	-0.51814	0.348761	-7.62117	-5.6925	5.32045	0.0108922	0.0193261	-0.0147372	0.730713	0.756836	0.043457	0.172641	-0.243629	-0.0427951	-0.953419	5.79045	-0.743843	8.64865	0.0289682	0.197077	-0.0358795	-0.843506	0.186279	-0.612305	-0.144262	0.0493922	0.172153	0.973197	1.20097	3.39303	10.4466	0.0198236	0.00966908	-0.0128607	-0.55835	-0.28125	-0.978516	-0.084754	0.0794482	0.291782	0.949404	2.08327	5.45042	8.66386	0.0155674	0.000592814	-0.0152891	-0.642822	-0.501709	-0.859863	-0.195135	0.940309	-0.167872	-0.222624	-4.41239	-2.65752	-7.59198	-0.00221088	-0.0159883	0.00627692	0.775391	0.25	0.724121	0.0330365	0.00726651	-0.0231608	-0.999159	-0.106391	0.410239	9.78608	0.009636	0.00337238	-0.0045254	-0.344727	0.0927734	-1.04907	
78	-0.0529725	-0.0627556	0.036435	0.995956	-1.3384	0.755944	10.9393	0.00375425	0.00206377	0.00312787	-0.216553	0.117676	-1.12378	-0.294711	-0.201022	-0.0681459	0.931714	-4.27512	-0.1798	9.05715	0.0180068	-0.00868567	-0.00954351	0.329834	0.133057	-1.03174	0.117354	0.24289	-0.136679	-0.95318	-4.57428	3.39049	9.03613	-0.0176374	0.00886801	0.0105338	0.0852051	-0.352295	-1.06104	-0.365107	0.114503	-0.451935	-0.805816	-4.98133	6.24481	5.54857	-0.00429472	0.00232081	0.00340932	0.28125	-0.872803	-0.506104	0.0634931	-0.0822476	-0.400312	0.910469	-0.901219	-7.18309	6.50339	0.00890396	-0.00456838	-0.0145695	-0.0910645	0.732178	-0.778076	-0.765346	0.156042	-0.518046	0.348603	-7.60265	-5.7836	5.35884	-0.0155519	0.0116121	-0.0119579	0.726562	0.754639	0.0456543	0.172369	-0.240793	-0.0426867	-0.954194	5.73994	-0.775765	8.71397	0.0470043	0.117578	-0.0381919	-0.836914	0.181885	-0.624756	-0.144118	0.0490244	0.172296	0.973211	1.22187	3.4247	10.5191	0.0134868	0.0210019	-0.0102934	-0.562744	-0.281494	-0.976074	-0.0847947	0.0794819	0.29208	0.949306	2.13262	5.56363	8.69083	0.0152754	0.00788976	-0.0161773	-0.643066	-0.499268	-0.862061	-0.194984	0.9402	-0.167772	-0.223289	-4.41779	-2.64263	-7.58171	-0.00549355	-0.00661343	0.00656183	0.770752	0.25	0.726318	0.0330068	0.00721982	-0.0232689	-0.999158	-0.0724408	0.431885	9.80462	0.006301	0.00634471	-0.0040692	-0.342285	0.0883789	-1.04443	
79	-0.0529058	-0.0627483	0.036529	0.995956	-1.29281	0.803437	10.9349	0.006789	-0.00486914	-0.00456591	-0.220703	0.111084	-1.12378	-0.294938	-0.200476	-0.0683887	0.931742	-4.23055	-0.192001	9.1384	-0.0328082	0.00287131	-0.0196431	0.331787	0.137207	-1.03882	0.117727	0.24288	-0.13716	-0.953067	-4.57885	3.51513	9.0096	0.019849	-0.000349896	0.0147022	0.0788574	-0.356445	-1.06323	-0.365366	0.114382	-0.452079	-0.805636	-5.04245	6.36731	5.58005	0.00784681	-7.42016e-05	-0.00871858	0.281494	-0.877197	-0.506104	0.0634883	-0.0821495	-0.400561	0.910369	-0.883762	-7.09737	6.53085	-0.0203688	0.000202512	-0.0161585	-0.0932617	0.731934	-0.778076	-0.765541	0.155783	-0.517778	0.34869	-7.63028	-5.71993	5.37922	0.00994873	0.00622272	-0.0163095	0.72876	0.756836	0.0456543	0.172036	-0.239254	-0.0432685	-0.954615	5.7682	-0.706362	8.71899	0.0701238	0.0802875	-0.0411423	-0.839111	0.184082	-0.62915	-0.143857	0.0490331	0.172243	0.973259	1.17661	3.40646	10.4308	0.0104703	0.018344	-0.0122192	-0.564941	-0.281494	-0.976074	-0.0847445	0.0795021	0.292076	0.94931	2.10267	5.48941	8.64233	0.018992	0.00674268	-0.0192274	-0.644775	-0.510742	-0.861816	-0.195191	0.939962	-0.167704	-0.224159	-4.43044	-2.6385	-7.5711	0.00473145	-0.0289591	0.00571334	0.779785	0.248047	0.721924	0.0329822	0.00724032	-0.0234672	-0.999154	-0.0719314	0.443866	9.79976	0.00809296	0.011126	-0.00464464	-0.34668	0.0859375	-1.04883	
80	-0.0531126	-0.0629868	0.0363628	0.995936	-1.37602	0.728553	10.9163	-0.00965221	0.00906621	0.013731	-0.218506	0.111084	-1.12158	-0.295202	-0.200122	-0.0680785	0.931758	-4.25095	-0.209346	9.16332	-0.00267006	-0.001597	-0.0036575	0.329834	0.137207	-1.03174	0.118331	0.242823	-0.136385	-0.953118	-4.58973	3.46985	8.97153	-0.0421315	0.0116688	0.0195069	0.0788574	-0.352051	-1.06104	-0.365364	0.114305	-0.451984	-0.805701	-4.99451	6.30943	5.5935	-0.00267174	-0.000798012	0.0029956	0.279053	-0.872803	-0.508301	0.063624	-0.0823143	-0.400102	0.910547	-0.877695	-7.22492	6.48202	0.053395	0.0131154	-0.0136261	-0.0974121	0.727539	-0.778076	-0.765894	0.155531	-0.517155	0.348952	-7.65916	-5.78778	5.42542	0.0165392	-0.00167738	-0.0187447	0.724365	0.756836	0.043457	0.171411	-0.235103	-0.0447631	-0.955689	5.72431	-0.643439	8.64947	0.0940282	0.170762	-0.0616943	-0.834229	0.17334	-0.628906	-0.143574	0.0489122	0.17218	0.973318	1.20504	3.4494	10.5126	0.0035153	0.012177	-0.0131481	-0.556641	-0.272705	-0.976318	-0.0847072	0.0795756	0.292013	0.949327	2.10337	5.48526	8.72933	0.005136	0.0030614	-0.0164544	-0.642578	-0.508545	-0.862061	-0.19579	0.939579	-0.167581	-0.225332	-4.42373	-2.64679	-7.5785	0.0174401	-0.0328895	0.00488612	0.773193	0.25	0.719482	0.0329697	0.00734712	-0.0236426	-0.99915	-0.128521	0.464441	9.82654	0.00476253	0.013241	-0.00391106	-0.351074	0.0837402	-1.04199	
81	-0.0530778	-0.0628679	0.0363305	0.995947	-1.34241	0.714501	10.9421	0.00566998	-0.0121415	-0.00175141	-0.214111	0.113281	-1.12158	-0.295342	-0.199887	-0.0681653	0.931758	-4.23383	-0.164046	9.12956	-0.0185998	0.0105957	-0.0183506	0.329834	0.137207	-1.03882	0.118838	0.242768	-0.135617	-0.953179	-4.58594	3.38562	8.97216	-0.0192891	0.00982216	0.000191299	0.0788574	-0.354248	-1.06323	-0.365463	0.114254	-0.451775	-0.80578	-5.07805	6.33397	5.55082	0.000657576	0.00114817	-0.00260492	0.286133	-0.879395	-0.508301	0.0637167	-0.0823143	-0.399981	0.910593	-0.956827	-7.017	6.51327	0.0112577	0.0111561	-0.0165613	-0.0976562	0.732178	-0.780518	-0.766258	0.154965	-0.516566	0.349276	-7.57046	-5.76559	5.41721	0.0286175	-2.05883e-05	-0.0150594	0.72876	0.754639	0.0412598	0.171244	-0.232963	-0.0441479	-0.956271	5.63303	-0.66208	8.84767	0.00918822	0.209517	-0.0343329	-0.830078	0.175537	-0.639648	-0.143276	0.0490158	0.172048	0.97338	1.1965	3.45343	10.4558	0.00246803	0.0147639	-0.0170139	-0.564941	-0.279297	-0.973877	-0.084669	0.0795869	0.292076	0.94931	2.08664	5.5162	8.65357	0.00961275	0.00205782	-0.0177191	-0.640137	-0.510742	-0.861816	-0.196048	0.939444	-0.167488	-0.225737	-4.4484	-2.63984	-7.60958	0.0174431	-0.0224322	4.51055e-05	0.777588	0.250244	0.717285	0.0328845	0.00754411	-0.0237918	-0.999147	-0.0774216	0.522328	9.79826	0.00147492	0.0182408	-0.00884744	-0.348877	0.0881348	-1.04663	
82	-0.0530296	-0.0629077	0.0364537	0.995943	-1.27416	0.74893	10.9636	0.0112541	-0.00135571	-0.00262485	-0.216064	0.109131	-1.12158	-0.29542	-0.199904	-0.0683246	0.931717	-4.30673	-0.167454	9.10115	-0.0223636	0.020932	-0.0149788	0.32959	0.139404	-1.03662	0.118896	0.242809	-0.135465	-0.953182	-4.61497	3.44122	8.9943	-0.00884733	0.00844806	-0.00205129	0.0830078	-0.345703	-1.06592	-0.365581	0.114296	-0.451673	-0.805778	-5.01661	6.32388	5.53356	-0.00584242	0.00200189	-0.00780187	0.279297	-0.877197	-0.510498	0.0637167	-0.0823143	-0.399981	0.910593	-0.956827	-7.017	6.51327	0.0112577	0.0111561	-0.0165613	-0.0976562	0.732178	-0.780518	-0.766258	0.154965	-0.516566	0.349276	-7.57046	-5.76559	5.41721	0.0286175	-2.05883e-05	-0.0150594	0.72876	0.754639	0.0412598	0.170955	-0.229353	-0.0435204	-0.957224	5.57335	-0.659457	8.90991	0.0124647	0.164123	-0.0268956	-0.823975	0.181885	-0.644043	-0.143152	0.0489223	0.172153	0.973384	1.18061	3.42383	10.495	0.0210936	0.0223862	-0.0137241	-0.564941	-0.279297	-0.978516	-0.0846292	0.0796855	0.291989	0.949332	2.09844	5.50091	8.69297	-0.000256394	-0.000736039	-0.0152704	-0.640137	-0.512939	-0.855225	-0.196048	0.939444	-0.167488	-0.225737	-4.4484	-2.63984	-7.60958	0.0174431	-0.0224322	4.51055e-05	0.777588	0.250244	0.717285	0.0327231	0.00777197	-0.0236658	-0.999154	-0.10331	0.503998	9.77346	-0.00824942	0.0254939	-0.016825	-0.34668	0.0883789	-1.04663	
83	-0.0528864	-0.0630974	0.0365135	0.995936	-1.32109	0.77845	10.9112	-9.24781e-05	-0.0108233	0.00418814	-0.216064	0.109131	-1.12354	-0.295633	-0.199388	-0.068515	0.931746	-4.20329	-0.229217	9.10916	-0.023532	-0.00810005	-0.014823	0.331787	0.141602	-1.03662	0.119473	0.242749	-0.134957	-0.953198	-4.56959	3.32712	9.01316	-0.0241753	0.00755593	0.0174333	0.076416	-0.345459	-1.06592	-0.366053	0.114364	-0.451316	-0.805754	-4.99316	6.28777	5.60149	-0.00930376	-0.0111079	-0.0178772	0.281494	-0.875	-0.510498	0.0640376	-0.081989	-0.400652	0.910305	-0.911725	-7.20917	6.50472	-0.0327714	-0.000473396	-0.0133929	-0.0976562	0.732178	-0.780518	-0.76669	0.15464	-0.516136	0.349108	-7.57183	-5.73796	5.42737	-0.00308898	-0.000511432	0.00346763	0.728516	0.756836	0.0371094	0.170837	-0.227618	-0.0421964	-0.957718	5.56129	-0.654427	8.85079	0.000329511	0.086716	-0.0149156	-0.82373	0.175537	-0.648193	-0.142974	0.048923	0.172128	0.973415	1.19018	3.44936	10.4186	0.0166699	0.0145873	-0.00995043	-0.562744	-0.281494	-0.978516	-0.0846246	0.0797885	0.292132	0.949279	2.09825	5.48368	8.65778	0.015833	0.00179259	-0.0123992	-0.642822	-0.506104	-0.859863	-0.196645	0.939424	-0.167576	-0.225238	-4.43484	-2.64264	-7.58074	0.0141674	0.0115396	-0.00202445	0.770752	0.252197	0.726318	0.0326095	0.00826469	-0.0234287	-0.999159	-0.104432	0.479639	9.77006	-0.00499372	0.0267427	-0.00729345	-0.344238	0.0839844	-1.04883	
84	-0.0529635	-0.0630502	0.0364578	0.995937	-1.31281	0.748137	10.9653	-0.00439639	-0.00699106	0.00728081	-0.216309	0.113281	-1.12158	-0.29579	-0.199276	-0.0685666	0.931717	-4.17885	-0.206657	9.1432	-0.011052	0.0203128	-0.0125686	0.32959	0.139404	-1.03662	0.11982	0.242818	-0.134601	-0.953187	-4.57407	3.41553	8.97296	-0.00607644	0.00901948	0.00240803	0.0808105	-0.347656	-1.06812	-0.366586	0.114204	-0.450928	-0.805752	-5.05123	6.27989	5.55143	-0.00473761	-0.0124763	-0.0139599	0.279053	-0.872803	-0.512695	0.0640956	-0.0818649	-0.400857	0.910222	-0.889947	-7.25242	6.54961	-0.0161557	0.000263506	-0.0209072	-0.101807	0.72998	-0.785156	-0.767183	0.154195	-0.515671	0.348909	-7.6274	-5.76937	5.41639	0.015081	0.0012144	-0.00127958	0.730713	0.756836	0.0349121	0.17082	-0.226962	-0.0416916	-0.957899	5.51854	-0.669404	8.86255	0.00149187	0.0873478	-0.014212	-0.823975	0.179932	-0.650391	-0.142746	0.0490162	0.172157	0.973439	1.19712	3.47295	10.5465	0.00832013	0.0140696	-0.0133978	-0.564941	-0.279297	-0.973877	-0.0846236	0.0798217	0.292401	0.949194	2.11077	5.55871	8.66247	0.0144872	0.00610574	-0.0176681	-0.642822	-0.503906	-0.859863	-0.197363	0.939372	-0.167406	-0.224952	-4.46465	-2.67892	-7.6	0.0319998	0.0172592	-0.0131964	0.777344	0.254395	0.717041	0.032664	0.00878528	-0.0233497	-0.999155	-0.161101	0.491583	9.81883	-0.00417614	0.0263882	-0.000781267	-0.342041	0.0839844	-1.04419	
85	-0.0529552	-0.0630708	0.0364151	0.995938	-1.33032	0.7191	10.9216	-0.0011222	-0.000919807	-5.47346e-05	-0.218506	0.111084	-1.12158	-0.295799	-0.199236	-0.0684991	0.931727	-4.23748	-0.188266	9.15276	-0.00608054	0.0032041	-0.0175855	0.327637	0.137207	-1.03662	0.119968	0.242863	-0.134361	-0.953191	-4.53782	3.43726	8.99953	-0.011307	0.00859809	-0.000910694	0.0808105	-0.345703	-1.06128	-0.367057	0.113912	-0.450641	-0.805739	-4.98178	6.26175	5.54821	-0.00488431	-0.0198001	-0.00750687	0.279297	-0.877197	-0.508301	0.0642326	-0.0818216	-0.400984	0.91016	-0.916941	-7.22997	6.48553	-0.00988001	0.00866288	-0.0230841	-0.0996094	0.729736	-0.780518	-0.767608	0.153778	-0.515171	0.348897	-7.58748	-5.68721	5.43834	0.00768804	0.000359639	-0.00694386	0.730713	0.759033	0.034668	0.170709	-0.225762	-0.0404424	-0.958256	5.46289	-0.644984	8.97468	-0.0174208	0.0769571	-0.0084501	-0.82373	0.177734	-0.650391	-0.142478	0.0489734	0.171949	0.973517	1.22497	3.40856	10.4556	0.013812	0.0293279	-0.0132312	-0.5625	-0.283691	-0.973633	-0.0845643	0.0799712	0.292103	0.949278	2.09806	5.46073	8.64675	-0.00469224	0.0018231	-0.0142879	-0.642578	-0.510742	-0.855225	-0.197981	0.939373	-0.167194	-0.224564	-4.4208	-2.68424	-7.59006	0.0254221	0.0272154	-0.0129994	0.774902	0.256592	0.717041	0.0326823	0.00916839	-0.0231082	-0.999157	-0.181063	0.450388	9.79047	-0.00812716	0.0205745	-0.00428668	-0.337891	0.0905762	-1.04883	
