40	Head	00b4120a												Throax	00b411e8												LUpArm	00b411d9												LFoArm	00b41148												RUpArm	00b411db												RFoArm	00b41204												Waist	00b411f7												Lthigh	00b411f4												Lshank	00b4111b												Rthigh	00b411c8												Rshank	00b411ee												
PacketCount	q0	q1	q2	q3	accX	accY	accZ	gyrX	gyrY	gyrZ	magX	magY	magZ	q0	q1	q2	q3	accX	accY	accZ	gyrX	gyrY	gyrZ	magX	magY	magZ	q0	q1	q2	q3	accX	accY	accZ	gyrX	gyrY	gyrZ	magX	magY	magZ	q0	q1	q2	q3	accX	accY	accZ	gyrX	gyrY	gyrZ	magX	magY	magZ	q0	q1	q2	q3	accX	accY	accZ	gyrX	gyrY	gyrZ	magX	magY	magZ	q0	q1	q2	q3	accX	accY	accZ	gyrX	gyrY	gyrZ	magX	magY	magZ	q0	q1	q2	q3	accX	accY	accZ	gyrX	gyrY	gyrZ	magX	magY	magZ	q0	q1	q2	q3	accX	accY	accZ	gyrX	gyrY	gyrZ	magX	magY	magZ	q0	q1	q2	q3	accX	accY	accZ	gyrX	gyrY	gyrZ	magX	magY	magZ	q0	q1	q2	q3	accX	accY	accZ	gyrX	gyrY	gyrZ	magX	magY	magZ	q0	q1	q2	q3	accX	accY	accZ	gyrX	gyrY	gyrZ	magX	magY	magZ	
0	-0.0322425	-0.06578	0.0401001	0.996507	-1.42917	0.871012	10.8849	-0.00764738	-0.00200468	0.00445654	-0.215088	0.0874023	-1.12769	-0.318987	-0.184153	-0.0652441	0.927404	-4.01773	-0.186797	9.22572	-0.0161543	0.0143357	-0.0170357	0.294678	0.141602	-1.04126	0.140873	0.23867	-0.124212	-0.952766	-4.49808	3.20971	9.11628	-0.032888	0.0133711	0.00160559	0.0588379	-0.327881	-1.08008	-0.395827	0.0886432	-0.45577	-0.792299	-4.88712	6.27498	5.58492	-0.0143355	0.00347692	-0.0025858	0.28418	-0.885986	-0.492676	0.0794216	-0.0643656	-0.436852	0.893705	-0.472843	-7.78589	5.94314	0.0181949	0.00843315	-0.00399953	-0.147705	0.78418	-0.718994	-0.79094	0.0764993	-0.491101	0.356906	-7.97003	-5.13622	5.51734	0.0176163	0.00247062	-0.00496001	0.770996	0.720215	0.0229492	0.182083	-0.380597	0.0165513	-0.906487	6.68236	-1.08044	7.78015	0.0101794	-0.00674546	-0.00633897	-0.91626	0.224609	-0.493896	-0.114816	0.0724588	0.17001	0.976045	1.72604	3.4991	10.3823	0.0108206	0.0207507	-0.0190827	-0.621094	-0.277588	-0.943359	-0.0748431	0.0692833	0.306317	0.94645	1.85463	5.98581	8.39511	0.00647467	0.00544173	-0.0162324	-0.622314	-0.551514	-0.854492	-0.240191	0.937386	-0.127416	-0.217672	-4.1142	-3.45822	-7.4561	0.0136944	0.0265507	-0.00462692	0.744873	0.335205	0.719727	0.0334931	0.0252441	-0.00584424	-0.999103	-0.514093	0.156703	9.7876	-0.00431008	0.0266811	-0.00902131	-0.307617	0.126221	-1.05859	
1	-0.0321564	-0.0656795	0.0400935	0.996516	-1.38593	0.864503	10.9374	0.0037766	-0.00558916	-0.00425062	-0.210693	0.0874023	-1.12109	-0.319185	-0.184106	-0.0653602	0.927337	-3.99976	-0.186155	9.24085	-0.0135235	0.0141308	-0.00870432	0.303467	0.141602	-1.04126	0.140941	0.238663	-0.123873	-0.952802	-4.46596	3.17915	9.12221	-0.00407368	0.00845218	-0.00132828	0.0654297	-0.325684	-1.0686	-0.39579	0.0887234	-0.4557	-0.792348	-4.88771	6.39884	5.56167	-0.00621023	0.00651003	0.00169644	0.282227	-0.890625	-0.486084	0.0792248	-0.0642402	-0.436477	0.893915	-0.408223	-7.65228	5.94786	0.00340477	-0.00122648	-0.00429597	-0.141113	0.786621	-0.718994	-0.791082	0.076393	-0.491014	0.356734	-7.97243	-5.20211	5.48685	0.00867808	0.0108494	-0.00424279	0.773438	0.711426	0.0209961	0.182195	-0.380126	0.0167771	-0.906657	6.68041	-1.07681	7.823	0.0140512	0.0397598	-0.00654435	-0.918213	0.220215	-0.493896	-0.114834	0.072718	0.170051	0.976016	1.73815	3.51351	10.3427	0.0173652	0.00750084	-0.011417	-0.619141	-0.270996	-0.947998	-0.0748796	0.0693385	0.306549	0.946368	1.85102	6.00536	8.38904	0.0178887	0.0027811	-0.0177405	-0.617432	-0.556152	-0.861084	-0.240404	0.93737	-0.127451	-0.217483	-4.12044	-3.441	-7.45714	0.0130754	0.0126885	0.000488925	0.751709	0.335449	0.719727	0.0334367	0.0254313	-0.00576661	-0.999101	-0.482987	0.137177	9.81762	-2.97817e-05	0.0140485	-0.00621114	-0.30542	0.124023	-1.05615	
2	-0.0319542	-0.0656981	0.0403651	0.996511	-1.41666	0.922316	10.9008	0.0136609	-0.00758816	-0.00617109	-0.215088	0.0874023	-1.12329	-0.319163	-0.184047	-0.0654875	0.927347	-3.97202	-0.230781	9.21739	-0.010102	0.0157721	-0.023256	0.301025	0.148193	-1.04395	0.141067	0.238615	-0.12366	-0.952823	-4.43682	3.15316	9.09468	-0.0047256	0.00322609	0.00553067	0.0610352	-0.327881	-1.0708	-0.395871	0.088635	-0.455747	-0.792291	-4.81353	6.30143	5.54563	0.0105659	0.00271283	-0.00166622	0.281982	-0.88623	-0.488281	0.0790696	-0.0641853	-0.436905	0.893724	-0.421677	-7.69938	6.0038	-0.0250093	0.00629861	-0.00916879	-0.147705	0.786377	-0.718994	-0.791156	0.0765303	-0.491017	0.356536	-7.96915	-5.20437	5.46909	-0.0068599	0.00914527	-0.0128946	0.771484	0.709229	0.0212402	0.182181	-0.378767	0.016846	-0.907227	6.6748	-1.05557	7.82552	0.0257555	0.082694	-0.01872	-0.909424	0.213867	-0.498047	-0.11473	0.0729289	0.16988	0.976043	1.74217	3.41998	10.3071	-0.0106275	0.0110082	-0.0200255	-0.627686	-0.275391	-0.943359	-0.0748806	0.0694152	0.306516	0.946373	1.90191	5.94428	8.35414	0.0078071	0.00856982	-0.0177319	-0.613037	-0.549072	-0.858887	-0.240393	0.937339	-0.127341	-0.217693	-4.1333	-3.42564	-7.43622	0.00413749	0.00405207	0.00386815	0.742676	0.337402	0.712891	0.0333955	0.0255254	-0.0057154	-0.9991	-0.469709	0.0798782	9.78912	0.000701994	0.00675905	-0.00368352	-0.310059	0.130615	-1.04956	
3	-0.0319263	-0.0656482	0.0405602	0.996507	-1.3855	0.932778	10.9465	0.00686529	-0.0034916	-0.00132575	-0.212891	0.0874023	-1.12329	-0.319125	-0.184073	-0.0653022	0.927368	-3.97242	-0.256441	9.23619	0.00716139	0.0116757	-0.0186677	0.299072	0.143799	-1.03906	0.141067	0.238615	-0.12366	-0.952823	-4.43682	3.15316	9.09468	-0.0047256	0.00322609	0.00553067	0.0610352	-0.327881	-1.0708	-0.395924	0.0885582	-0.455765	-0.792263	-4.87708	6.37865	5.57696	0.00726074	-0.000661294	-0.000156882	0.277344	-0.884033	-0.488281	0.0789948	-0.0640113	-0.436811	0.893789	-0.45444	-7.7339	5.94028	0.010313	-0.00595613	-0.0129001	-0.149658	0.782227	-0.72583	-0.791205	0.0764626	-0.490931	0.356559	-7.93651	-5.19275	5.45728	0.0104212	0.00840517	-0.0126987	0.77124	0.713623	0.0187988	0.182017	-0.377037	0.0170506	-0.907977	6.64384	-1.08366	8.00947	0.0151992	0.0810414	-0.0203703	-0.909668	0.220215	-0.504395	-0.114759	0.0731073	0.170017	0.976002	1.74715	3.47339	10.3928	0.0146314	0.00291143	-0.011079	-0.623291	-0.275391	-0.943359	-0.0748868	0.0693684	0.306526	0.946373	1.88773	6.01123	8.37122	0.00636266	0.00950436	-0.0188694	-0.619873	-0.551514	-0.858887	-0.240272	0.937363	-0.12728	-0.217761	-4.12171	-3.43746	-7.42236	-0.0039631	0.00874891	0.00481452	0.74707	0.337402	0.717529	0.0333617	0.0255081	-0.00578878	-0.999101	-0.411785	0.117098	9.75113	0.00743332	0.00609553	-0.00629224	-0.307861	0.128418	-1.06079	
4	-0.0318803	-0.0657314	0.04065	0.996499	-1.33431	0.954765	10.9092	0.0084286	0.00277985	-0.0027334	-0.217285	0.0874023	-1.12769	-0.319242	-0.184018	-0.0652403	0.927344	-4.04621	-0.184641	9.20723	-0.00809421	0.000386923	-0.014336	0.296875	0.143799	-1.04126	0.141232	0.23883	-0.124186	-0.952676	-4.52438	3.20018	9.12216	0.0113602	0.00201189	0.00816487	0.0610352	-0.327881	-1.0708	-0.396173	0.0883528	-0.455782	-0.792151	-4.88525	6.31634	5.56189	0.0147823	-0.00583172	-0.00755219	0.279785	-0.890625	-0.488281	0.0789759	-0.0639166	-0.436516	0.893941	-0.413995	-7.6299	5.94015	0.0261178	0.000203628	-0.010054	-0.145264	0.780029	-0.723389	-0.791332	0.0764618	-0.490775	0.356493	-7.96234	-5.15417	5.53914	0.00704569	0.00665535	-0.00952771	0.773682	0.707031	0.019043	0.181913	-0.376495	0.017085	-0.908222	6.66221	-1.09767	7.85295	0.0188373	0.0610113	-0.0229687	-0.909668	0.222412	-0.500244	-0.114684	0.073399	0.169797	0.976027	1.755	3.47958	10.3669	-0.0136024	0.0106865	-0.0150918	-0.628174	-0.266602	-0.943359	-0.0748708	0.0694523	0.306465	0.946388	1.90428	5.95326	8.41349	-0.000529106	0.00598225	-0.0177958	-0.617676	-0.551514	-0.858887	-0.240323	0.937363	-0.127231	-0.217732	-4.1534	-3.44418	-7.44171	0.0096335	0.0111782	0.000755903	0.744629	0.341797	0.719482	0.0332971	0.0255883	-0.00588118	-0.999101	-0.445951	0.148813	9.81327	0.00798347	0.00998003	-0.00471032	-0.307617	0.121826	-1.05176	
5	-0.0318851	-0.0658204	0.0406022	0.996495	-1.44638	0.948301	10.899	-0.00155175	-0.00593641	0.00273765	-0.212891	0.0917969	-1.12769	-0.319235	-0.183805	-0.0650688	0.9274	-3.95353	-0.241184	9.23604	-0.00238602	0.0144419	-0.0185296	0.29248	0.143799	-1.0437	0.141314	0.238805	-0.124584	-0.952618	-4.45382	3.30134	9.16389	0.0168842	0.00709884	0.00601154	0.0654297	-0.327881	-1.0708	-0.396538	0.0880919	-0.455805	-0.791984	-4.88589	6.3835	5.61695	0.00555397	-0.00974273	-0.00392366	0.281982	-0.888184	-0.490479	0.0788977	-0.0637497	-0.436825	0.893809	-0.480148	-7.60933	5.96131	-0.0330986	-0.00267564	-0.0153614	-0.145508	0.784424	-0.72583	-0.791444	0.0763315	-0.490762	0.356291	-7.95748	-5.13264	5.47497	0.00324016	0.0142558	-0.00299498	0.773438	0.713623	0.0209961	0.181753	-0.373503	0.0172101	-0.909486	6.59312	-1.0277	7.92175	0.0313738	0.170068	-0.0241417	-0.907471	0.218018	-0.508789	-0.11473	0.0733769	0.170243	0.975946	1.76023	3.51638	10.3673	0.0213373	0.011413	-0.0141057	-0.619141	-0.275391	-0.943359	-0.0748613	0.0694311	0.30661	0.946343	1.88834	6.01685	8.36916	0.004875	0.00242002	-0.01921	-0.619873	-0.556152	-0.863281	-0.240575	0.937248	-0.127128	-0.218009	-4.09377	-3.43592	-7.46597	0.0157467	-0.00473162	0.00414011	0.74707	0.337402	0.715088	0.0332416	0.0255717	-0.00598202	-0.999102	-0.516754	0.157938	9.77975	0.00673877	0.00486011	-0.00574888	-0.305176	0.121826	-1.06299	
6	-0.0318577	-0.0658504	0.0405876	0.996495	-1.42407	0.923155	10.942	0.00226001	-1.64148e-05	-0.00412311	-0.212891	0.0895996	-1.12769	-0.319248	-0.18397	-0.0649799	0.927369	-4.04741	-0.132393	9.19872	-0.00841508	0.0184053	-0.0146532	0.294922	0.139404	-1.04126	0.141541	0.238895	-0.124666	-0.952551	-4.4885	3.19994	9.08174	0.0140164	0.00611203	0.0126168	0.0632324	-0.327881	-1.0708	-0.396736	0.0877923	-0.455728	-0.791963	-4.87512	6.322	5.58994	0.0108544	-0.00433087	-0.00124216	0.279541	-0.881836	-0.488525	0.0791389	-0.0635239	-0.43708	0.89368	-0.490538	-7.73894	6.007	-0.0103282	-0.000730791	-0.0194268	-0.147705	0.786621	-0.721191	-0.791548	0.0766164	-0.490829	0.355906	-8.02573	-5.20069	5.56391	-0.011804	0.00515196	-0.0102088	0.771484	0.711426	0.0231934	0.181585	-0.370197	0.0171277	-0.910872	6.54686	-1.05826	8.00656	0.0444089	0.150349	-0.0294262	-0.900879	0.216064	-0.512939	-0.114577	0.0736491	0.17001	0.975984	1.73375	3.43641	10.4157	0.0111931	0.0127107	-0.0203701	-0.623291	-0.275391	-0.943359	-0.0748202	0.0694208	0.306504	0.946381	1.88151	5.94817	8.38644	0.0183123	0.0113661	-0.0205373	-0.622314	-0.549316	-0.865723	-0.240739	0.937156	-0.127042	-0.218274	-4.13908	-3.43929	-7.47802	0.0171346	-0.0113789	0.00258975	0.753662	0.339844	0.717285	0.0333428	0.025385	-0.00603068	-0.999103	-0.480584	0.108846	9.83927	0.00527381	-0.00054019	0.00214291	-0.307617	0.124023	-1.06079	
7	-0.0318083	-0.065794	0.0404887	0.996504	-1.44492	0.958303	10.8917	-0.00459165	-0.00809958	0.000676096	-0.212646	0.0830078	-1.12769	-0.319462	-0.183771	-0.0651341	0.927324	-3.97439	-0.241843	9.23693	-0.0153222	0.0100563	-0.0101253	0.30127	0.141602	-1.03662	0.141785	0.238903	-0.125069	-0.95246	-4.50175	3.29546	9.15116	0.0138602	0.00491247	0.00583945	0.0632324	-0.325684	-1.07324	-0.396828	0.0876496	-0.455863	-0.791855	-4.94239	6.37753	5.61978	0.0115421	0.00514554	-0.001511	0.279785	-0.885986	-0.494873	0.0791318	-0.0635955	-0.436775	0.893824	-0.399184	-7.68543	5.95953	0.015916	0.0102592	-0.00959367	-0.1521	0.786377	-0.721191	-0.791607	0.0765767	-0.490638	0.356045	-7.96512	-5.15932	5.52024	0.00965227	0.0107123	-0.0187664	0.778076	0.707031	0.0148926	0.181368	-0.36648	0.0171558	-0.912416	6.48333	-1.00637	8.04573	0.039812	0.175042	-0.030635	-0.898682	0.218262	-0.519287	-0.114633	0.0736949	0.170281	0.975927	1.74441	3.48825	10.3414	0.0264979	0.0115898	-0.0119138	-0.625488	-0.277588	-0.943359	-0.0748194	0.0694776	0.306345	0.946429	1.86988	5.9537	8.35636	-0.0100028	0.00300285	-0.0185548	-0.61084	-0.549072	-0.861084	-0.240972	0.937037	-0.126972	-0.218568	-4.13022	-3.45677	-7.45597	0.0114137	-0.00711963	0.00171752	0.744873	0.333008	0.715332	0.0333673	0.0253766	-0.00620688	-0.999102	-0.496163	0.124529	9.82592	0.0150349	0.00613025	-0.00123676	-0.309814	0.121582	-1.05396	
8	-0.0319095	-0.0655727	0.0401774	0.996528	-1.37241	0.916393	10.9052	-0.0116485	-0.0083426	0.00521889	-0.212891	0.0874023	-1.12329	-0.319269	-0.184144	-0.0653178	0.927304	-4.01538	-0.219299	9.25377	-0.00490938	0.0240124	-0.0162191	0.30127	0.141602	-1.04126	0.141786	0.238935	-0.125018	-0.952459	-4.48356	3.17419	9.11151	0.00309325	0.00711575	0.00234955	0.0610352	-0.323486	-1.0686	-0.39687	0.0875497	-0.455938	-0.791802	-4.83236	6.29194	5.59005	0.00690663	-0.00114212	-4.01305e-05	0.281982	-0.88623	-0.486084	0.0791138	-0.063404	-0.436751	0.893851	-0.448228	-7.59649	5.92186	0.000864066	-0.00411296	-0.0157808	-0.151855	0.781982	-0.714355	-0.791609	0.0766209	-0.490767	0.355854	-7.91259	-5.08828	5.52504	-0.0133152	0.0194408	-0.00584214	0.77124	0.713623	0.0168457	0.181015	-0.362582	0.01687	-0.914048	6.43561	-1.02087	8.10569	0.0526386	0.182055	-0.0417165	-0.898682	0.218262	-0.532227	-0.114351	0.0739076	0.170277	0.975944	1.73541	3.47384	10.3217	-0.0132192	0.00330843	-0.0190883	-0.625732	-0.270996	-0.950439	-0.074793	0.0694264	0.306021	0.94654	1.86035	6.0076	8.37493	-0.0191123	0.00519287	-0.0197064	-0.61792	-0.546875	-0.861328	-0.241175	0.936854	-0.127038	-0.219093	-4.15233	-3.47549	-7.43925	0.00725259	-0.0101147	0.00619367	0.749023	0.343994	0.710449	0.0333063	0.0253434	-0.00634438	-0.999104	-0.433433	0.159966	9.78264	0.00350801	0.00446221	-0.00516013	-0.314209	0.119385	-1.05176	
9	-0.0319487	-0.0653596	0.0399011	0.996552	-1.41768	0.907977	10.896	-0.00841517	-0.00996972	1.20119e-05	-0.215088	0.0874023	-1.12329	-0.319322	-0.184038	-0.0652709	0.92731	-3.99499	-0.198418	9.22468	-0.0108258	0.00607802	-0.0120923	0.299072	0.141602	-1.0437	0.141808	0.238835	-0.125523	-0.952414	-4.44925	3.32153	9.12669	0.0277565	-0.00300699	0.00302117	0.0610352	-0.327881	-1.0708	-0.397024	0.0874184	-0.456026	-0.791688	-4.95728	6.49376	5.59872	0.0079217	0.00397093	-0.00681147	0.282227	-0.892578	-0.492676	0.0791119	-0.0633009	-0.43708	0.893697	-0.415503	-7.61698	5.97239	-0.0282319	-0.000530121	-0.0178737	-0.145264	0.779785	-0.716553	-0.791635	0.0766595	-0.490937	0.355552	-8.02957	-5.30808	5.44198	-0.00152825	0.0162574	-0.00530962	0.775635	0.711426	0.019043	0.180682	-0.358139	0.017107	-0.915859	6.36192	-1.00358	8.14987	0.0345148	0.213218	-0.0308354	-0.889893	0.21167	-0.544678	-0.114198	0.0743658	0.170847	0.975828	1.75378	3.5617	10.397	0.0374997	-0.00558401	-0.0188034	-0.623291	-0.277588	-0.947998	-0.0747459	0.0693736	0.305271	0.946789	1.84968	6.01589	8.45252	-0.0321201	0.0118598	-0.0207613	-0.615479	-0.546875	-0.865723	-0.241188	0.936784	-0.126935	-0.219435	-4.16072	-3.46122	-7.43909	0.0044094	0.00206697	0.00690807	0.749023	0.343994	0.710449	0.0330915	0.0252693	-0.00631171	-0.999113	-0.401863	0.164523	9.85635	-0.00604033	0.00869657	-0.0134086	-0.303223	0.126221	-1.05859	
10	-0.0319144	-0.0651811	0.0398521	0.996566	-1.34755	0.817302	10.922	0.00393038	-0.00651198	-0.00347087	-0.212891	0.0874023	-1.12329	-0.319402	-0.183949	-0.0651008	0.927312	-3.9893	-0.176656	9.22039	0.00132229	0.00792697	-0.0150597	0.297119	0.137207	-1.04346	0.14181	0.238852	-0.125319	-0.952436	-4.39713	3.27871	9.14311	-0.0179302	0.0108094	-0.00215406	0.0654297	-0.325684	-1.06641	-0.397107	0.0875498	-0.455911	-0.791698	-4.81015	6.3627	5.62551	-0.0124244	0.0061932	-0.00170133	0.284424	-0.892578	-0.488281	0.0792532	-0.0631496	-0.437176	0.893649	-0.404249	-7.69735	5.97691	0.00573433	0.00468902	-0.0115286	-0.154053	0.782227	-0.723389	-0.79172	0.0766916	-0.490906	0.355399	-8.00054	-5.13765	5.53795	0.000552261	0.00920196	-0.0111708	0.77124	0.713623	0.0253906	0.18023	-0.354025	0.0170364	-0.917547	6.36136	-0.955717	8.24067	0.0441391	0.181677	-0.0424701	-0.883301	0.209717	-0.551025	-0.113815	0.0743262	0.170747	0.975893	1.7913	3.44991	10.3832	-0.00302788	0.00790785	-0.0233446	-0.623535	-0.273193	-0.947998	-0.0745047	0.069133	0.304807	0.946975	1.89249	5.93136	8.38729	-0.0171033	0.0109339	-0.0205516	-0.610596	-0.55127	-0.865723	-0.241313	0.9367	-0.126727	-0.219778	-4.13122	-3.42904	-7.41814	0.0112203	-0.005332	-0.000331127	0.74707	0.335205	0.712891	0.033026	0.0253469	-0.00621572	-0.999114	-0.465233	0.169602	9.83039	-0.00608083	0.0133976	-0.00936597	-0.307617	0.126221	-1.0564	
11	-0.0317975	-0.0652786	0.0402222	0.996549	-1.44992	0.917802	10.9048	0.0163915	-0.00251329	-0.0025727	-0.215088	0.0895996	-1.12769	-0.319596	-0.184092	-0.0651927	0.92721	-4.0182	-0.206677	9.25386	-0.0129273	0.0280957	-0.0084352	0.298828	0.145996	-1.03906	0.14198	0.23887	-0.125139	-0.95243	-4.48555	3.21961	9.09062	-0.0128547	0.00973751	0.00853213	0.0632324	-0.327881	-1.0708	-0.397079	0.0876959	-0.455782	-0.791771	-4.90114	6.36235	5.5455	-0.0135522	0.0111196	-0.000817841	0.282227	-0.890625	-0.486084	0.0791555	-0.063163	-0.437124	0.893682	-0.415513	-7.61954	5.99564	-0.00761486	0.000366897	-0.00625664	-0.145508	0.78418	-0.714355	-0.791772	0.0765552	-0.490799	0.355461	-7.96322	-5.16755	5.50223	0.0168036	0.00864214	-0.0119071	0.775635	0.713623	0.0275879	0.179917	-0.349606	0.0171755	-0.919299	6.22245	-0.983466	8.2358	0.0361457	0.211267	-0.0323348	-0.881348	0.214111	-0.557617	-0.113671	0.0743917	0.171737	0.975731	1.74813	3.40171	10.3485	0.0829514	-0.000337661	-0.0313076	-0.623291	-0.277588	-0.943359	-0.0744144	0.0690408	0.304334	0.947141	1.88028	5.93933	8.32055	-0.0346325	0.0142628	-0.0250474	-0.61792	-0.544678	-0.861328	-0.241418	0.936645	-0.126626	-0.219953	-4.16367	-3.48407	-7.4114	0.0126198	-0.00398223	1.51677e-05	0.74707	0.337402	0.708252	0.0330598	0.0256258	-0.00615815	-0.999106	-0.460314	0.123744	9.77808	-0.00133431	0.0149097	-0.000620717	-0.312012	0.121582	-1.06079	
12	-0.0317816	-0.0650875	0.0403493	0.996557	-1.40043	0.963714	10.9121	0.0105926	-0.019129	0.000614776	-0.215088	0.0874023	-1.12549	-0.319666	-0.18411	-0.065153	0.927185	-4.00465	-0.240769	9.20864	-0.00578166	0.0150092	-0.0114459	0.299072	0.141602	-1.0437	0.142011	0.239001	-0.125566	-0.952337	-4.49325	3.27018	9.12763	0.0246563	0.00927311	0.00140394	0.0632324	-0.330078	-1.07764	-0.39709	0.0877271	-0.455807	-0.791747	-4.92958	6.34263	5.5792	0.00237452	0.0054993	0.000936055	0.279785	-0.88623	-0.490479	0.0791963	-0.0631713	-0.437294	0.893595	-0.382603	-7.68266	5.93889	-0.0149896	0.0102383	-0.0170559	-0.145752	0.788818	-0.723389	-0.79185	0.0765023	-0.490759	0.355355	-7.96108	-5.13488	5.55542	0.00220645	0.0134236	-0.00787719	0.773438	0.711426	0.0209961	0.179614	-0.346974	0.0172915	-0.920352	6.21923	-0.979591	8.30127	0.0386112	0.239219	-0.0448147	-0.876953	0.209717	-0.565918	-0.113671	0.0743917	0.171737	0.975731	1.74813	3.40171	10.3485	0.0829514	-0.000337661	-0.0313076	-0.623291	-0.277588	-0.943359	-0.0743194	0.0690708	0.303881	0.947292	1.81741	5.88995	8.42888	-0.0334791	0.00507634	-0.0236131	-0.613281	-0.546875	-0.863525	-0.241418	0.936645	-0.126626	-0.219953	-4.16367	-3.48407	-7.4114	0.0126198	-0.00398223	1.51677e-05	0.74707	0.337402	0.708252	0.0330437	0.0258158	-0.00615919	-0.999101	-0.500169	0.177172	9.81077	0.000752455	0.0113975	-0.00231519	-0.305176	0.121826	-1.05859	
13	-0.0318032	-0.0650964	0.0404387	0.996552	-1.34476	0.959281	10.9512	0.00389131	-0.00145282	0.00148805	-0.215332	0.0915527	-1.12354	-0.319557	-0.184086	-0.0646601	0.927262	-4.04217	-0.181337	9.24703	0.00949412	0.00227911	-0.0204326	0.30127	0.139404	-1.04126	0.14192	0.23888	-0.125525	-0.952386	-4.54177	3.26158	9.11672	-0.00457849	-0.00657661	-0.00439836	0.0568848	-0.325684	-1.07324	-0.397105	0.0876116	-0.455931	-0.791681	-4.92023	6.33631	5.63266	0.0145017	0.00719467	-0.000342621	0.28418	-0.888428	-0.483887	0.0792775	-0.0629196	-0.437507	0.893501	-0.423255	-7.69532	5.97077	-0.0117058	-0.00166882	-0.0156819	-0.151855	0.782227	-0.723389	-0.791791	0.0763875	-0.491077	0.355073	-8.01283	-5.14926	5.52237	-0.00291841	0.0267605	-0.00402079	0.769287	0.711426	0.0212402	0.179286	-0.342197	0.0171638	-0.922206	6.09697	-0.933688	8.4322	0.0521442	0.196598	-0.0340116	-0.868164	0.209717	-0.57666	-0.11234	0.0736004	0.17569	0.975241	1.76512	3.53419	10.3937	0.079835	0.00538204	-0.0375312	-0.622803	-0.288574	-0.938477	-0.0737855	0.0684031	0.302345	0.947873	1.86791	5.98267	8.39375	-0.080924	0.0221688	-0.0351188	-0.613281	-0.544678	-0.863525	-0.241813	0.936393	-0.126209	-0.220828	-4.18029	-3.46909	-7.45764	0.0114949	-0.0287818	-0.00165568	0.746826	0.3396	0.710449	0.0330741	0.0256881	-0.00602464	-0.999105	-0.504657	0.204166	9.83588	-0.0049869	0.00204622	-0.00196993	-0.310059	0.128418	-1.0564	
14	-0.031686	-0.0651138	0.0403747	0.996557	-1.4001	0.969366	10.8933	-0.00102705	-0.00725229	-0.00828741	-0.215088	0.0895996	-1.12988	-0.319621	-0.183721	-0.0648079	0.927302	-3.98494	-0.160252	9.21087	-0.0324208	0.00771394	-0.0179433	0.299072	0.141602	-1.0437	0.141734	0.238764	-0.126045	-0.952374	-4.39747	3.29182	9.19151	0.0222445	0.00575402	0.00227512	0.0612793	-0.334229	-1.07764	-0.397132	0.0875254	-0.456005	-0.791634	-4.78541	6.36435	5.61206	-0.0031541	0.00262808	0.00680724	0.284424	-0.890381	-0.494873	0.0796366	-0.0628094	-0.437436	0.893512	-0.47676	-7.69864	5.98424	0.00364708	0.00586746	-0.0198864	-0.154297	0.78418	-0.712158	-0.791723	0.0762509	-0.491227	0.355044	-8.01392	-5.11974	5.54027	-0.00363515	0.0184191	-0.0150042	0.769287	0.711426	0.0231934	0.178949	-0.338122	0.0169122	-0.923777	6.09286	-0.901486	8.5161	0.0493046	0.191516	-0.037406	-0.86377	0.207764	-0.578613	-0.111638	0.0733895	0.174781	0.975501	1.78429	3.69979	10.2271	-0.0361223	0.0167372	-0.0353543	-0.62085	-0.28418	-0.938477	-0.0733625	0.0679312	0.299974	0.948693	1.84606	5.93398	8.45445	-0.105846	0.0257861	-0.0348277	-0.613525	-0.540039	-0.870361	-0.242271	0.936077	-0.125823	-0.221886	-4.19102	-3.46663	-7.40439	0.0151711	-0.0418677	-0.00363861	0.750977	0.348389	0.705811	0.0332822	0.0256323	-0.00582381	-0.9991	-0.490054	0.120652	9.79956	-0.00761768	0.001878	0.00629306	-0.314209	0.121582	-1.06079	
15	-0.031603	-0.0651196	0.0401466	0.996569	-1.40232	0.970475	10.9257	-0.0120802	-0.000186012	0.000670102	-0.215332	0.0959473	-1.12573	-0.319918	-0.183402	-0.0647766	0.927265	-3.9962	-0.205031	9.26296	-0.00672992	0.00274789	-0.00220356	0.298828	0.150146	-1.04395	0.142094	0.238644	-0.125784	-0.952385	-4.47941	3.29925	9.13238	-0.0144014	0.000124978	0.00951524	0.0654297	-0.327881	-1.07544	-0.396843	0.0876115	-0.456009	-0.791768	-4.90997	6.37916	5.62911	0.00665959	0.0131772	0.00911967	0.279785	-0.890625	-0.488281	0.0794551	-0.0627077	-0.437314	0.893594	-0.381441	-7.70043	5.96117	0.00784369	0.000341055	-0.00730323	-0.143311	0.784424	-0.718994	-0.791773	0.0764405	-0.49116	0.354985	-7.96105	-5.14511	5.50516	0.00777515	0.00526221	-0.014083	0.775635	0.709229	0.019043	0.178585	-0.331939	0.0155984	-0.926111	6.0285	-0.907842	8.3556	0.0975407	0.257908	-0.0509739	-0.859375	0.203369	-0.593506	-0.11092	0.0742373	0.171669	0.976071	1.82685	3.51757	10.3645	-0.119989	-0.00690372	-0.0275504	-0.623291	-0.279785	-0.943115	-0.072942	0.0677324	0.297248	0.949597	1.81666	5.83588	8.63082	-0.107027	0.0140528	-0.0286403	-0.609131	-0.5354	-0.868164	-0.242604	0.935751	-0.12545	-0.223104	-4.25146	-3.52877	-7.3731	0.0105336	-0.0299577	0.00715131	0.753418	0.346436	0.701172	0.0334839	0.0255512	-0.00584226	-0.999096	-0.433187	0.142345	9.83891	0.00292341	0.00400282	-0.000317589	-0.307861	0.128418	-1.05396	
16	-0.0317678	-0.06499	0.0395876	0.996594	-1.37711	0.906339	10.9048	-0.024492	-0.00824021	0.00729955	-0.210693	0.0895996	-1.12769	-0.320009	-0.183307	-0.0649637	0.927239	-3.96544	-0.220461	9.24324	-0.0200522	0.0127249	-0.0215554	0.296875	0.141602	-1.0437	0.142046	0.238598	-0.125492	-0.952442	-4.49476	3.27521	9.1478	-0.0013612	0.00494049	-0.010767	0.0610352	-0.327881	-1.06616	-0.396776	0.0877674	-0.455918	-0.791836	-4.94992	6.42623	5.61358	-0.00579027	0.0112589	0.000384776	0.277588	-0.890625	-0.492676	0.0792986	-0.0625713	-0.437612	0.893472	-0.420848	-7.7123	5.98099	-0.0175553	-3.34682e-05	-0.00766513	-0.1521	0.788574	-0.718994	-0.791832	0.0762003	-0.491157	0.354909	-7.96243	-5.20187	5.48103	0.0171548	0.015691	-0.00447034	0.775879	0.709229	0.0212402	0.177949	-0.3262	0.0158685	-0.928265	5.88818	-0.86232	8.622	0.029215	0.247097	-0.0419294	-0.846436	0.201416	-0.608398	-0.11022	0.0748648	0.169412	0.976497	1.81288	3.4682	10.3889	-0.0935076	-0.00951752	-0.0263513	-0.63208	-0.275391	-0.945557	-0.072725	0.0673025	0.295336	0.950241	1.83696	5.83468	8.53258	-0.0848962	0.029288	-0.0301404	-0.613525	-0.537598	-0.87915	-0.24263	0.93562	-0.125354	-0.223677	-4.25302	-3.4724	-7.38439	0.00227376	-0.0167371	0.00591786	0.757812	0.344238	0.705811	0.0333446	0.0256139	-0.00560717	-0.9991	-0.404498	0.160162	9.83818	-0.00848785	0.00651165	-0.00769551	-0.312256	0.125977	-1.06079	
17	-0.0318119	-0.0649474	0.0391836	0.996612	-1.39251	0.81323	10.9177	-0.00916075	-0.00395508	0.000546735	-0.217285	0.0895996	-1.12549	-0.32003	-0.183239	-0.0653542	0.927218	-4.00255	-0.191079	9.23307	-0.0266657	0.0155016	-0.0166496	0.296875	0.141602	-1.0437	0.14194	0.238553	-0.124861	-0.952552	-4.40957	3.26588	9.15551	-0.0297796	0.0062065	-0.00883812	0.0654297	-0.330078	-1.073	-0.396757	0.088125	-0.455879	-0.791828	-4.84034	6.37553	5.59993	-0.00287713	0.0169679	-0.00488058	0.279541	-0.884033	-0.490479	0.0791332	-0.0626302	-0.437894	0.893344	-0.401213	-7.76563	5.90827	-0.00469224	0.00761938	-0.00580958	-0.145508	0.786377	-0.712158	-0.791884	0.0760865	-0.491152	0.354825	-7.98893	-5.16823	5.54076	0.00675852	0.0141376	-0.00344679	0.773926	0.702881	0.0234375	0.17751	-0.321694	0.0161394	-0.929915	5.77714	-0.843735	8.7175	0.0317341	0.197321	-0.0334796	-0.848389	0.197021	-0.610352	-0.10963	0.0758467	0.167117	0.976883	1.89319	3.39568	10.2928	-0.0748713	-0.0153976	-0.0306585	-0.628174	-0.266602	-0.943359	-0.0723755	0.0669171	0.293546	0.95085	1.81719	5.80683	8.55578	-0.0771134	0.0274049	-0.0313915	-0.611572	-0.528564	-0.875	-0.242731	0.935535	-0.125197	-0.224012	-4.23285	-3.4743	-7.38013	0.0105064	-1.62668e-06	0.0022776	0.755859	0.337646	0.703857	0.0331206	0.0261106	-0.00511131	-0.999097	-0.46965	0.11152	9.79402	-0.0141681	0.0289993	-0.0123709	-0.305664	0.128418	-1.0564	
18	-0.031769	-0.064883	0.0392201	0.996616	-1.3856	0.862819	10.9147	0.0055754	-0.00648811	-0.00275916	-0.217529	0.09375	-1.12769	-0.32023	-0.183001	-0.0656287	0.927177	-3.96543	-0.23319	9.27322	-0.0204749	0.00704391	-0.0113852	0.298828	0.148193	-1.0415	0.142187	0.238577	-0.123874	-0.952638	-4.49045	3.18396	9.10522	-0.0302595	0.0104799	-0.00173061	0.0654297	-0.330078	-1.073	-0.396677	0.0882817	-0.455751	-0.791925	-4.834	6.30044	5.63067	-0.0144093	0.0134044	0.00235408	0.279785	-0.890625	-0.488281	0.0789002	-0.0624601	-0.437924	0.893362	-0.380531	-7.61454	5.9727	-0.0240606	-0.00459821	-0.0087193	-0.145752	0.788574	-0.716553	-0.791843	0.0758035	-0.491339	0.354718	-8.01138	-5.04648	5.5633	-0.00452167	0.0186481	-0.00645839	0.773682	0.709229	0.0253906	0.177179	-0.318481	0.0164453	-0.931078	5.75082	-0.830938	8.71419	0.0222117	0.138538	-0.0257073	-0.839844	0.199219	-0.621094	-0.10963	0.0758467	0.167117	0.976883	1.89319	3.39568	10.2928	-0.0748713	-0.0153976	-0.0306585	-0.628174	-0.266602	-0.943359	-0.0721061	0.0668269	0.292681	0.951143	1.79306	5.62773	8.54654	-0.0131903	0.0103	-0.0253489	-0.609131	-0.530762	-0.881592	-0.242852	0.935462	-0.125081	-0.224251	-4.23274	-3.45796	-7.40337	0.0132637	-0.00930454	0.000121009	0.757812	0.344238	0.703613	0.0331206	0.0261106	-0.00511131	-0.999097	-0.46965	0.11152	9.79402	-0.0141681	0.0289993	-0.0123709	-0.305664	0.128418	-1.0564	
19	-0.0316929	-0.0649192	0.0393111	0.996612	-1.37512	0.865683	10.913	0.00878701	-0.000923573	-0.00524105	-0.215332	0.09375	-1.12354	-0.320334	-0.183038	-0.0659271	0.927112	-4.04764	-0.231835	9.2477	-0.0228614	0.0232774	-0.0147269	0.294922	0.139404	-1.04126	0.142214	0.238523	-0.123814	-0.952655	-4.50238	3.13822	9.08106	0.00863294	-0.000121724	0.00245018	0.0632324	-0.323486	-1.07104	-0.396437	0.0884433	-0.455722	-0.792044	-4.86829	6.24732	5.58347	0.0042222	0.0140518	0.00874962	0.275146	-0.884033	-0.486084	0.0789829	-0.0623448	-0.437937	0.893357	-0.433651	-7.74664	5.95776	0.021235	0.00702793	-0.0214312	-0.145508	0.786377	-0.716553	-0.791797	0.0757331	-0.491387	0.35477	-7.99437	-5.11944	5.51965	-0.00478187	0.0164644	-0.0168795	0.778076	0.705078	0.0212402	0.177	-0.315315	0.0166471	-0.932186	5.65008	-0.857141	8.74507	0.03133	0.144995	-0.0248844	-0.837646	0.199219	-0.627441	-0.109156	0.0759223	0.16638	0.977056	1.80397	3.39062	10.4009	-0.0033197	0.0094228	-0.0145518	-0.630127	-0.269043	-0.938721	-0.071959	0.0665756	0.292721	0.951159	1.79781	5.76868	8.60056	-0.0088376	0.00337942	-0.0276042	-0.611572	-0.530762	-0.874756	-0.242925	0.935296	-0.124748	-0.225047	-4.24521	-3.52636	-7.37053	0.00304928	-0.0235362	0.0022126	0.758057	0.342041	0.706055	0.0331363	0.0263953	-0.00496401	-0.99909	-0.539084	0.12252	9.76381	-0.000784245	-0.000328584	0.000224612	-0.307617	0.124023	-1.05615	
20	-0.0316195	-0.0648354	0.0396156	0.996608	-1.42452	0.921151	10.9102	0.012773	-0.00556723	-0.00183488	-0.217529	0.09375	-1.12573	-0.320346	-0.182967	-0.0657552	0.927134	-3.99856	-0.230087	9.23623	0.00172852	0.00482112	-0.0145684	0.294922	0.139404	-1.0459	0.142167	0.238494	-0.124126	-0.952629	-4.47669	3.16975	9.11426	0.0283799	-0.000882057	0.00220668	0.0654297	-0.323486	-1.07324	-0.396409	0.0883798	-0.455872	-0.791978	-4.87442	6.34856	5.57979	0.0107422	0.00515426	-0.000754308	0.279785	-0.888428	-0.490479	0.0789889	-0.0622269	-0.437675	0.893492	-0.404267	-7.69304	5.96302	0.0241343	0.00131102	-0.0153626	-0.158691	0.786377	-0.718994	-0.791774	0.0757997	-0.49142	0.354759	-8.00156	-5.18415	5.49254	-0.00311035	0.0148896	-0.0174769	0.775879	0.709229	0.0212402	0.176884	-0.313993	0.0168684	-0.93265	5.6486	-0.807758	8.78515	0.01591	0.127503	-0.0225004	-0.833252	0.197021	-0.631592	-0.108973	0.0761314	0.165999	0.977125	1.78445	3.37421	10.3776	-0.00758418	0.0111353	-0.0200902	-0.62793	-0.268799	-0.947998	-0.0718345	0.0665184	0.29283	0.951139	1.79212	5.70889	8.50719	0.0132616	0.00718544	-0.0296801	-0.602295	-0.532959	-0.874756	-0.242865	0.935245	-0.124535	-0.225443	-4.25826	-3.4813	-7.36988	-0.00393196	-0.0208324	-0.000771871	0.762207	0.346436	0.698975	0.0332358	0.0260568	-0.0050054	-0.999095	-0.442392	0.0871776	9.7879	0.00429505	-0.00625882	0.000913894	-0.307617	0.124023	-1.06299	
21	-0.0315363	-0.0647969	0.0397927	0.996606	-1.39683	0.935271	10.9066	0.0081583	-0.00155756	-0.00305696	-0.212891	0.0895996	-1.12329	-0.320312	-0.182717	-0.0658074	0.927192	-3.9258	-0.184707	9.22559	-0.0152023	0.011633	-0.0236306	0.299072	0.143799	-1.04126	0.142029	0.238427	-0.124608	-0.952604	-4.45104	3.27027	9.17569	0.0257741	-0.00522623	0.000421635	0.0632324	-0.330078	-1.0686	-0.396432	0.0884046	-0.456184	-0.791784	-4.86117	6.38583	5.58747	0.0158206	0.0153471	-0.00093064	0.28418	-0.888184	-0.488281	0.0789734	-0.062233	-0.437598	0.893531	-0.38303	-7.67881	5.96617	-0.010531	0.005834	-0.0107608	-0.141113	0.781982	-0.716553	-0.791654	0.0758913	-0.491633	0.354714	-8.02534	-5.12361	5.46921	-0.00795	0.0216498	-0.0168585	0.775635	0.713623	0.0187988	0.176776	-0.313058	0.0172566	-0.932977	5.64298	-0.84021	8.756	0.0122723	0.0189522	-0.016002	-0.837402	0.192627	-0.629395	-0.108842	0.0765173	0.166096	0.977093	1.86625	3.46945	10.4617	0.00580951	0.0052395	-0.0215499	-0.623779	-0.266602	-0.941162	-0.0716699	0.0663026	0.292541	0.951255	1.78375	5.80534	8.55464	-0.0119649	0.0100342	-0.0259362	-0.609375	-0.528564	-0.872559	-0.242687	0.935191	-0.124231	-0.226027	-4.31956	-3.49153	-7.39509	-0.00239656	-0.0171923	0.00502779	0.760254	0.342041	0.701416	0.0332417	0.0259321	-0.00501765	-0.999098	-0.489191	0.119743	9.86392	0.00131584	0.00253044	-0.00262118	-0.307617	0.126221	-1.0564	
22	-0.0315974	-0.0647426	0.0397998	0.996607	-1.32901	0.892451	10.9077	-0.00025919	-0.00327384	0.00282073	-0.215088	0.0895996	-1.12769	-0.320332	-0.182722	-0.0656581	0.927194	-3.98016	-0.285108	9.26799	-0.000228787	0.0119443	-0.0125611	0.299072	0.141602	-1.03662	0.142001	0.238285	-0.124546	-0.952651	-4.43146	3.18312	9.11312	-0.00251714	0.000578331	0.000409599	0.0654297	-0.327881	-1.07324	-0.396257	0.0883555	-0.456579	-0.79165	-4.83666	6.32171	5.57216	0.0223809	0.0103534	0.00938642	0.282227	-0.890625	-0.486084	0.0789253	-0.0623918	-0.437812	0.89342	-0.422292	-7.69627	6.00754	-0.0125096	0.0125304	-0.0120221	-0.147705	0.784424	-0.721191	-0.791511	0.0761022	-0.491775	0.35479	-7.99188	-5.07057	5.54349	-0.00839688	0.0173613	-0.0251582	0.773438	0.711426	0.0253906	0.176604	-0.312081	0.0171176	-0.93334	5.63787	-0.805801	8.75856	0.022149	0.0673439	-0.0234909	-0.837402	0.192627	-0.633545	-0.108698	0.0773516	0.166135	0.977037	1.87701	3.43668	10.4407	0.0205697	-0.0192199	-0.0163383	-0.629883	-0.273193	-0.947998	-0.0714238	0.0659347	0.291945	0.951483	1.78645	5.79745	8.53842	-0.0225172	0.0166664	-0.0219861	-0.606934	-0.530762	-0.876953	-0.242413	0.935047	-0.124039	-0.227017	-4.27392	-3.48446	-7.32542	-0.0110264	-0.0292459	0.0132782	0.757812	0.344238	0.703613	0.033309	0.0255205	-0.00529382	-0.999105	-0.463609	0.123728	9.78147	0.0170208	-0.0142903	-0.00211324	-0.309814	0.124023	-1.05615	
23	-0.0314815	-0.0648066	0.0399038	0.996603	-1.40906	0.888836	10.9024	0.00552293	-0.00676064	-0.0049487	-0.215088	0.0895996	-1.12354	-0.320385	-0.182711	-0.0656867	0.927176	-4.02373	-0.15525	9.25243	-0.0178347	0.0164531	-0.018268	0.298828	0.145996	-1.03906	0.141874	0.238186	-0.125025	-0.952632	-4.47156	3.21302	9.14204	0.027235	-0.00399953	-0.000848411	0.067627	-0.332275	-1.0708	-0.396234	0.0883238	-0.45692	-0.791468	-4.83054	6.3301	5.59394	0.0250967	0.00905746	0.000647209	0.277588	-0.890625	-0.486084	0.0789502	-0.0622543	-0.437338	0.893659	-0.35294	-7.55619	5.92323	0.029433	0.0012175	-0.0126989	-0.154297	0.78418	-0.716553	-0.791479	0.0761422	-0.491719	0.354931	-7.92691	-5.04753	5.5479	0.00495869	0.0135721	-0.0182683	0.773682	0.705078	0.0234375	0.176512	-0.310835	0.0172259	-0.933771	5.58354	-0.845168	8.87172	0.0231002	0.0530473	-0.0195803	-0.828857	0.197021	-0.633789	-0.108479	0.0784114	0.165914	0.977014	1.83055	3.46923	10.4138	-0.00420407	-0.0266499	-0.0156026	-0.63208	-0.27124	-0.938721	-0.07138	0.0657282	0.29098	0.951796	1.77995	5.77068	8.62079	-0.0401792	0.0238203	-0.0226207	-0.607178	-0.526123	-0.877197	-0.24226	0.93501	-0.124026	-0.227342	-4.2669	-3.47511	-7.33436	-0.00669798	-0.0105389	0.0149664	0.762695	0.337646	0.706055	0.033199	0.0252501	-0.00544719	-0.999115	-0.472788	0.195361	9.78995	0.00908217	-0.00560018	-0.00647305	-0.309814	0.121582	-1.05859	
24	-0.0314462	-0.064812	0.039994	0.9966	-1.4069	0.919224	10.9166	0.000954856	-0.000879661	0.000714001	-0.217529	0.09375	-1.12354	-0.320491	-0.182703	-0.0659323	0.927124	-3.97118	-0.257003	9.27908	-0.0160667	0.024787	-0.0139912	0.299072	0.141602	-1.04834	0.141711	0.238221	-0.125628	-0.952568	-4.47124	3.33024	9.19587	0.0226901	0.00149538	-0.00484636	0.0612793	-0.336426	-1.07056	-0.39621	0.0883678	-0.456974	-0.791444	-4.92852	6.4451	5.54716	0.00498793	0.0111719	0.000318755	0.282227	-0.890625	-0.488281	0.0789093	-0.0622465	-0.437463	0.893602	-0.496798	-7.71912	5.94385	-0.0110771	0.00503504	-0.0119505	-0.150146	0.791016	-0.723389	-0.791389	0.0763237	-0.491958	0.354761	-7.97972	-5.1343	5.49865	-0.00833443	0.017436	-0.0136255	0.780029	0.713623	0.0253906	0.176431	-0.310523	0.017147	-0.933891	5.60067	-0.799844	8.7845	0.021719	0.0328896	-0.015832	-0.835205	0.192871	-0.64209	-0.108252	0.0790621	0.165778	0.97701	1.83803	3.36753	10.3502	0.0118356	-0.00517168	-0.0197231	-0.632324	-0.269043	-0.940918	-0.0713104	0.0657203	0.289926	0.952123	1.80914	5.58263	8.61291	-0.025521	0.00473647	-0.0196646	-0.609131	-0.532959	-0.888184	-0.242088	0.934888	-0.123912	-0.228088	-4.3244	-3.47893	-7.34752	0.00114832	-0.0119445	0.00841669	0.760498	0.337646	0.699219	0.0331899	0.0249688	-0.0054574	-0.999122	-0.436129	0.148796	9.82606	0.00127642	-0.00253823	-0.0046099	-0.316406	0.119385	-1.06079	
25	-0.0314825	-0.0647829	0.0400753	0.996597	-1.34816	0.919294	10.8953	0.00278776	-0.00217757	0.00174897	-0.217285	0.0874023	-1.12549	-0.32057	-0.182814	-0.0659818	0.927071	-4.01834	-0.203676	9.24146	-0.0115289	0.0114351	-0.0141996	0.298828	0.150391	-1.0415	0.141654	0.238047	-0.125594	-0.952625	-4.49056	3.23289	9.09676	-0.000459379	-0.00643567	-0.000706936	0.0632324	-0.332275	-1.07764	-0.396106	0.0884225	-0.45727	-0.791319	-4.9326	6.40602	5.60228	0.00760363	0.00506468	-0.000910189	0.277344	-0.88623	-0.486084	0.0790392	-0.062208	-0.437531	0.89356	-0.357115	-7.65228	5.99339	-0.010156	0.0110622	-0.019102	-0.149658	0.782227	-0.721191	-0.791388	0.0763896	-0.491953	0.354756	-7.99996	-5.20325	5.47139	0.00845311	0.0134693	-0.0166935	0.771484	0.711426	0.0275879	0.176279	-0.310507	0.0171821	-0.933925	5.57544	-0.836337	8.82694	0.0101605	0.00528608	-0.0196403	-0.829102	0.199219	-0.640137	-0.108242	0.0802955	0.166354	0.976812	1.93225	3.42918	10.3407	0.0208465	-0.021041	-0.017173	-0.63208	-0.27124	-0.934082	-0.0713431	0.0654381	0.289811	0.952175	1.72461	5.8197	8.60221	-0.0127081	0.012946	-0.0162854	-0.60498	-0.521484	-0.881592	-0.241958	0.934873	-0.123957	-0.228261	-4.3187	-3.51003	-7.34036	-0.000231252	0.0137576	0.00958806	0.760254	0.342041	0.703613	0.0329444	0.0248557	-0.00543252	-0.999133	-0.43825	0.132162	9.84054	0.00197763	0.0072134	-0.0166467	-0.314209	0.121582	-1.06079	
26	-0.0315199	-0.0648812	0.0401217	0.996588	-1.35176	0.915659	10.9254	0.00244238	0.0011339	0.00377371	-0.208496	0.0895996	-1.12329	-0.320584	-0.182581	-0.0660043	0.92711	-3.96978	-0.223086	9.24536	-0.00720525	0.00978893	-0.0178136	0.301025	0.145996	-1.04614	0.141317	0.237985	-0.125739	-0.952671	-4.44174	3.29888	9.16172	0.00893885	0.0030558	-0.0138765	0.0654297	-0.330078	-1.07544	-0.396134	0.0884727	-0.457393	-0.791228	-4.93593	6.4031	5.59085	0.012259	0.0121878	-0.00490269	0.284424	-0.890625	-0.481689	0.0790686	-0.062275	-0.437198	0.893716	-0.423998	-7.74261	5.91522	0.0283948	0.00914756	-0.0106914	-0.149658	0.781982	-0.714355	-0.791404	0.0762606	-0.491836	0.35491	-7.98568	-5.12324	5.49818	0.00176429	0.0148737	-0.0143478	0.775635	0.713623	0.0187988	0.176228	-0.310516	0.0171942	-0.933932	5.62846	-0.819222	8.74187	0.0174003	0.0205251	-0.014966	-0.833252	0.194824	-0.633789	-0.108302	0.0807083	0.166952	0.97667	1.88156	3.35967	10.428	0.0498992	-0.0203168	-0.00857619	-0.636719	-0.269043	-0.943359	-0.0713941	0.0655306	0.289454	0.952274	1.80665	5.81076	8.63827	-0.0101468	0.00939611	-0.0160634	-0.602539	-0.525879	-0.888184	-0.241852	0.934886	-0.124	-0.228299	-4.32476	-3.45442	-7.38252	-0.000285696	0.0124348	0.0120807	0.764648	0.342041	0.701416	0.0327844	0.0248616	-0.00536027	-0.999139	-0.455083	0.144786	9.8271	-0.00467248	0.00823285	-0.0161152	-0.319092	0.128174	-1.0564	
27	-0.0315132	-0.0649084	0.0401627	0.996585	-1.41565	0.906282	10.8963	0.00429699	-0.00196499	-0.000117077	-0.212891	0.0874023	-1.12549	-0.320556	-0.182642	-0.0658798	0.927117	-3.96513	-0.238739	9.2369	0.00277414	0.0157003	-0.0180603	0.294434	0.148193	-1.03687	0.141259	0.237943	-0.125637	-0.952704	-4.41643	3.23442	9.14236	-0.00369839	0.00115225	-0.00720521	0.0654297	-0.330078	-1.0708	-0.396117	0.0885604	-0.457538	-0.791143	-4.80234	6.33555	5.52558	0.0068686	0.00934148	-0.00136597	0.282227	-0.892822	-0.483887	0.0791185	-0.0621813	-0.437237	0.893699	-0.4513	-7.59104	6.00271	-0.0228038	0.00429114	-0.0153829	-0.151855	0.781982	-0.716553	-0.791388	0.0762721	-0.491917	0.354831	-7.96307	-5.08691	5.52123	-0.00409315	0.0189081	-0.00988347	0.775879	0.704834	0.019043	0.176227	-0.310044	0.0169944	-0.934092	5.56882	-0.805881	8.83179	0.0272032	0.0229537	-0.0172862	-0.839355	0.190674	-0.635742	-0.108285	0.0808967	0.16708	0.976634	1.87446	3.33182	10.3684	0.0197828	0.0181583	-0.0173495	-0.640625	-0.273438	-0.936279	-0.0713403	0.0654789	0.289166	0.952369	1.79655	5.67612	8.58145	-0.0189416	0.0105956	-0.0222893	-0.604736	-0.52832	-0.883789	-0.241766	0.934882	-0.124041	-0.228383	-4.31158	-3.43532	-7.36795	0.000462651	0.00435968	0.00630942	0.760498	0.335449	0.701416	0.0326058	0.0248156	-0.00516883	-0.999147	-0.438193	0.160624	9.75882	-0.00469048	0.00525461	-0.00776892	-0.314453	0.125977	-1.06323	
28	-0.0313343	-0.0649611	0.0403619	0.996579	-1.42677	0.937931	10.9024	0.0106592	-0.00262482	-0.00468083	-0.215088	0.0874023	-1.12769	-0.32064	-0.182602	-0.0659357	0.927092	-3.98614	-0.206329	9.26687	-0.0204229	0.0152452	-0.0123329	0.29248	0.145996	-1.0437	0.141436	0.237822	-0.125968	-0.952664	-4.44114	3.16726	9.10254	0.0304043	-0.0023694	0.0141014	0.0654297	-0.332275	-1.0708	-0.396196	0.0884817	-0.457755	-0.790987	-4.88599	6.3662	5.58815	0.0102728	0.00762557	-0.00143794	0.286621	-0.890381	-0.483887	0.0791366	-0.0621873	-0.437405	0.893614	-0.414565	-7.7513	5.97516	-0.0151927	0.00824604	-0.0141835	-0.15625	0.781982	-0.721191	-0.79139	0.0764725	-0.492008	0.354659	-7.99572	-5.14892	5.47495	-0.00976962	0.0113846	-0.0151898	0.777832	0.713623	0.0275879	0.176267	-0.310141	0.0169366	-0.934053	5.58565	-0.792035	8.80412	0.0201433	0.00514725	-0.0113938	-0.831055	0.194824	-0.633789	-0.108229	0.0810806	0.167079	0.976625	1.84737	3.31209	10.3882	0.00790347	0.0121059	-0.0149087	-0.638428	-0.273438	-0.931641	-0.0712205	0.065436	0.288685	0.952527	1.74288	5.58735	8.63506	-0.00192101	0.00712138	-0.0218342	-0.602295	-0.52832	-0.883789	-0.241843	0.934865	-0.123748	-0.22853	-4.31894	-3.4533	-7.35173	0.0084408	0.0041953	-0.00520197	0.760498	0.337646	0.701416	0.032773	0.0246517	-0.00511774	-0.999146	-0.463765	0.12623	9.81775	0.00129675	-0.000450805	0.00572503	-0.312012	0.121582	-1.05615	
29	-0.0313001	-0.0647269	0.0404647	0.996591	-1.34821	0.962615	10.9317	0.00165818	-0.0125576	0.000200814	-0.217529	0.0915527	-1.11914	-0.320768	-0.182726	-0.0660701	0.927013	-4.03582	-0.238973	9.23642	-0.00978448	0.0194457	-0.0164825	0.294678	0.145752	-1.04858	0.141363	0.237949	-0.126404	-0.952586	-4.46441	3.30882	9.13303	0.0402757	0.00989418	0.0014759	0.0654297	-0.330078	-1.073	-0.396208	0.0885335	-0.457856	-0.790917	-4.95847	6.39535	5.55219	0.00758667	0.0103085	-0.00158408	0.286377	-0.885986	-0.488281	0.0791635	-0.0620913	-0.437022	0.893806	-0.38119	-7.65863	5.93637	0.0233386	0.00469383	-0.0133442	-0.149902	0.786621	-0.72583	-0.79139	0.0764083	-0.49195	0.354752	-7.98969	-5.18399	5.48378	0.00916779	0.0140249	-0.0154493	0.773682	0.707031	0.0212402	0.176357	-0.309829	0.0168682	-0.934141	5.56002	-0.830046	8.83273	0.0221518	0.0283378	-0.0137016	-0.833252	0.195068	-0.640137	-0.108333	0.081209	0.167143	0.976592	1.85935	3.3341	10.2537	0.00725926	0.0224874	-0.0115259	-0.634033	-0.277588	-0.940918	-0.0712528	0.0653309	0.289007	0.952434	1.76603	5.69156	8.61008	0.0177594	0.00702927	-0.0176355	-0.606934	-0.52832	-0.883789	-0.241776	0.934901	-0.123506	-0.228583	-4.32961	-3.49449	-7.35516	-0.00173569	0.0115631	-0.00220088	0.764648	0.342041	0.701416	0.0328937	0.024589	-0.00516719	-0.999143	-0.420857	0.10738	9.81956	-0.00163868	0.00788741	-0.00263116	-0.312012	0.121582	-1.05615	
30	-0.031256	-0.0648007	0.0403668	0.996591	-1.42537	0.918935	10.9113	-0.00316971	-0.000571074	-0.000179651	-0.217529	0.0915527	-1.12354	-0.320703	-0.18263	-0.0655729	0.92709	-3.96233	-0.196467	9.24718	0.0114078	0.00160979	-0.0163671	0.299072	0.143799	-1.04126	0.141263	0.237931	-0.12621	-0.95263	-4.42275	3.23991	9.19793	-0.0165451	-0.00138651	-0.0011286	0.0568848	-0.329834	-1.0708	-0.396229	0.0886366	-0.458003	-0.790809	-4.87682	6.41522	5.56612	0.00304452	0.0104175	-0.00191479	0.279785	-0.890625	-0.479492	0.0790275	-0.061954	-0.437163	0.893759	-0.41082	-7.64429	5.93364	-0.0127176	0.00188448	-0.00863197	-0.145264	0.779785	-0.718994	-0.791442	0.0763378	-0.492026	0.354546	-7.97836	-5.11622	5.46923	-0.010853	0.0154273	-0.00455332	0.773926	0.705078	0.027832	0.176319	-0.310625	0.0164719	-0.933891	5.62188	-0.800693	8.7495	0.0255187	-0.0338172	-0.0192619	-0.835449	0.194824	-0.637939	-0.108125	0.081274	0.167415	0.976563	1.88261	3.44414	10.4084	0.0119037	0.00314341	-0.0165379	-0.636475	-0.27124	-0.936279	-0.0710604	0.0650251	0.289004	0.95247	1.77867	5.73654	8.60382	0.00224378	0.0127032	-0.0199597	-0.609619	-0.521484	-0.88623	-0.241667	0.934942	-0.123446	-0.228563	-4.33353	-3.48372	-7.33015	-0.00248306	0.0155739	0.00295131	0.762451	0.342041	0.701416	0.0327299	0.0245756	-0.00505542	-0.999149	-0.44952	0.105374	9.78932	-0.00617137	0.00624963	-0.0117555	-0.314209	0.121582	-1.05615	
31	-0.0311165	-0.0647751	0.0402713	0.996601	-1.3381	0.95384	10.9101	-0.000509354	-0.00469643	-0.00727058	-0.217529	0.09375	-1.12134	-0.320879	-0.182279	-0.0658071	0.927082	-3.95139	-0.201315	9.26437	-0.0244785	0.00883541	-0.0156426	0.296875	0.145996	-1.03687	0.141329	0.237989	-0.12623	-0.952603	-4.43376	3.26305	9.0875	0.00884237	0.00933344	0.00739346	0.0568848	-0.332031	-1.073	-0.396154	0.0886164	-0.457953	-0.790878	-4.84537	6.3524	5.5113	0.00328891	0.00610383	0.00549305	0.286865	-0.89502	-0.481689	0.0789999	-0.061883	-0.437283	0.893707	-0.386787	-7.67588	6.00421	-0.0105206	0.00116938	-0.0137097	-0.149902	0.786377	-0.718994	-0.791457	0.0764589	-0.492102	0.35438	-8.0228	-5.13331	5.48971	0.00186775	0.0110465	-0.014431	0.771484	0.711426	0.0275879	0.176429	-0.311158	0.0163898	-0.933694	5.59171	-0.812719	8.92006	0.0103829	-0.0178601	-0.00767433	-0.835449	0.194824	-0.635742	-0.108133	0.0813172	0.167383	0.976564	1.92217	3.44879	10.4008	0.00470223	0.0198261	-0.0144362	-0.642822	-0.275635	-0.938477	-0.0709892	0.0648999	0.288874	0.952523	1.73697	5.85606	8.67604	-0.00105944	0.0146699	-0.0250767	-0.602783	-0.519043	-0.883789	-0.241624	0.934909	-0.12346	-0.228736	-4.32712	-3.43191	-7.34433	0.00723749	-0.00736394	0.00538965	0.766846	0.344238	0.698975	0.0326338	0.0244081	-0.00503668	-0.999157	-0.447803	0.147666	9.78568	0.00156191	-0.00102332	-0.00442976	-0.314453	0.125977	-1.05176	
32	-0.0312881	-0.0648657	0.0399691	0.996602	-1.42698	0.93368	10.9056	-0.0156677	-0.000972106	0.0088026	-0.213135	0.0917969	-1.12354	-0.321029	-0.182213	-0.0656678	0.927053	-3.99673	-0.245985	9.23426	0.00066952	0.0108373	-0.00909596	0.30127	0.141602	-1.04126	0.14151	0.237882	-0.126301	-0.952594	-4.49961	3.23828	9.10429	0.007925	0.00355047	0.00894592	0.0568848	-0.332031	-1.073	-0.396185	0.0885163	-0.458052	-0.790817	-4.95503	6.43689	5.60016	0.00640436	0.00330068	-0.00203448	0.281982	-0.88623	-0.481689	0.0792645	-0.0619653	-0.436917	0.893857	-0.345524	-7.71219	5.93821	0.0371815	0.0129837	-0.0124233	-0.1521	0.786377	-0.718994	-0.791545	0.0763911	-0.491808	0.354606	-7.99085	-5.20799	5.46185	0.0241383	0.00376351	-0.0186504	0.777832	0.709229	0.0234375	0.176561	-0.3111	0.01536	-0.933706	5.60136	-0.760024	8.73447	0.0525362	0.037424	-0.0201692	-0.830811	0.190674	-0.635742	-0.108102	0.0815013	0.167038	0.976611	1.90127	3.38313	10.3727	-0.00181411	0.00534092	-0.0141166	-0.640869	-0.269043	-0.934082	-0.0709328	0.0649506	0.288335	0.952687	1.7993	5.61241	8.64171	-0.0035983	0.0112945	-0.0190824	-0.607178	-0.523682	-0.881592	-0.241841	0.934808	-0.123286	-0.229014	-4.29697	-3.45036	-7.33165	0.0132742	0.00692712	-0.000269323	0.760498	0.337646	0.699219	0.0327491	0.0242352	-0.00518151	-0.999156	-0.395399	0.15713	9.80598	0.00586074	0.00587412	0.000528512	-0.312256	0.125977	-1.05396	
33	-0.0313765	-0.064685	0.0396023	0.996626	-1.36822	0.846029	10.935	-0.0111061	-0.00718936	0.00180708	-0.210693	0.0895996	-1.12549	-0.321057	-0.182161	-0.0655763	0.927059	-3.9678	-0.186766	9.26899	-0.00839085	0.0117375	-0.0200263	0.29248	0.141602	-1.04834	0.141401	0.23794	-0.126195	-0.95261	-4.41794	3.28348	9.14973	-0.00763965	0.0125753	-0.0051455	0.0634766	-0.334473	-1.073	-0.396203	0.0886585	-0.457943	-0.790855	-4.87129	6.44741	5.51256	-0.00189265	0.00791165	-0.00154901	0.284424	-0.892822	-0.483887	0.0792925	-0.061989	-0.43665	0.893983	-0.388293	-7.69012	5.98779	0.0233954	0.0119923	-0.0112159	-0.15625	0.781982	-0.723389	-0.791638	0.0760101	-0.491447	0.354982	-8.01187	-5.1537	5.54544	0.0177152	0.00824712	-0.0185467	0.77124	0.71582	0.0273438	0.176473	-0.309874	0.0155989	-0.934126	5.59962	-0.807326	8.82903	0.0195361	0.0735409	-0.0198554	-0.828857	0.192871	-0.635742	-0.108102	0.0815013	0.167038	0.976611	1.90127	3.38313	10.3727	-0.00181411	0.00534092	-0.0141166	-0.640869	-0.269043	-0.934082	-0.0709456	0.0648452	0.288381	0.952679	1.75505	5.73525	8.63277	0.00922962	0.0144843	-0.020121	-0.602539	-0.523682	-0.888184	-0.241841	0.934808	-0.123286	-0.229014	-4.29697	-3.45036	-7.33165	0.0132742	0.00692712	-0.000269323	0.760498	0.337646	0.699219	0.032779	0.0243339	-0.00517786	-0.999153	-0.45929	0.105111	9.85785	0.00101761	0.0154578	-0.00114014	-0.316895	0.128174	-1.05176	
34	-0.0312353	-0.064718	0.0396543	0.996626	-1.38935	0.899532	10.8973	0.0036273	-0.00466643	-0.00505141	-0.215088	0.0895996	-1.12988	-0.321097	-0.18218	-0.0657888	0.927027	-4.01205	-0.225508	9.227	-0.0202839	0.0148992	-0.0161063	0.30127	0.141602	-1.0437	0.141397	0.237769	-0.125764	-0.95271	-4.43085	3.26171	9.17339	-0.0189668	-0.00487544	-0.00496829	0.0610352	-0.330078	-1.073	-0.396215	0.0888427	-0.45782	-0.790899	-4.98744	6.36189	5.58247	-0.0130077	0.012458	-0.00588022	0.284424	-0.892822	-0.479492	0.0793775	-0.0622044	-0.436807	0.893884	-0.445418	-7.64878	5.95857	-0.0080914	0.0123615	-0.00526836	-0.154053	0.780029	-0.72583	-0.791741	0.0758357	-0.491306	0.354984	-7.95824	-5.07797	5.49111	-0.00102092	0.00779678	-0.00786321	0.771484	0.709229	0.0234375	0.176421	-0.309101	0.0155035	-0.934394	5.53898	-0.781123	8.87401	0.018981	0.0344584	-0.0199544	-0.830811	0.188477	-0.637695	-0.10778	0.0810916	0.167242	0.976646	1.90326	3.43046	10.3926	0.0212602	0.00551969	-0.014522	-0.638916	-0.266846	-0.943359	-0.0707854	0.0646318	0.288731	0.9526	1.77598	5.74922	8.57665	0.0222968	0.0144914	-0.0183037	-0.60498	-0.519287	-0.881592	-0.241941	0.934829	-0.12336	-0.228782	-4.33289	-3.48721	-7.34277	0.00603496	0.01046	0.00162497	0.758057	0.339844	0.696777	0.0326069	0.0246658	-0.00517097	-0.99915	-0.427864	0.106202	9.82015	0.000969893	0.0172089	-0.00865324	-0.31665	0.125977	-1.0564	
35	-0.0311947	-0.0647275	0.0396961	0.996625	-1.38113	0.930368	10.9003	0.00434682	-0.00309462	-0.00238827	-0.215088	0.0895996	-1.12769	-0.321134	-0.182085	-0.0658763	0.927027	-3.94784	-0.244487	9.25387	-0.018355	0.00922849	-0.0166797	0.296875	0.145996	-1.0437	0.1415	0.237817	-0.12537	-0.952735	-4.42868	3.21848	9.15498	-0.0280632	0.0135331	-0.00117197	0.0632324	-0.323486	-1.07544	-0.396291	0.0889412	-0.457861	-0.790827	-4.88487	6.43058	5.50647	-0.0121181	0.00652027	-0.0026285	0.282471	-0.896973	-0.490479	0.0792729	-0.0620882	-0.436972	0.893821	-0.414816	-7.68243	5.9402	-0.00732291	-0.00319644	-0.00404907	-0.145752	0.788818	-0.72583	-0.791797	0.075852	-0.491337	0.354813	-7.98341	-5.09111	5.53785	-0.00587426	0.0117015	-0.00242085	0.773438	0.711426	0.0253906	0.176353	-0.309178	0.0155524	-0.93438	5.58176	-0.777402	8.81899	0.00952324	0.00859152	-0.0175996	-0.833008	0.188477	-0.64624	-0.107805	0.0811387	0.167338	0.976623	1.91985	3.42448	10.3335	0.0129059	0.0126468	-0.0149017	-0.640869	-0.273193	-0.943359	-0.070767	0.0646506	0.288558	0.952652	1.74688	5.75297	8.59523	-0.00941767	0.00560495	-0.0192664	-0.602295	-0.52832	-0.890381	-0.24152	0.93502	-0.123384	-0.228435	-4.33212	-3.43174	-7.36565	-0.00820886	0.0305946	0.0070807	0.762451	0.342041	0.703613	0.0322722	0.0249787	-0.00490456	-0.999155	-0.446844	0.129759	9.79296	-0.00940253	0.0190202	-0.0171041	-0.307617	0.124023	-1.05176	
36	-0.031175	-0.0646384	0.0396324	0.996634	-1.32371	0.921633	10.9189	-0.00211598	-0.00803564	0.00132905	-0.215088	0.0895996	-1.12354	-0.321133	-0.182123	-0.0660791	0.927005	-3.96705	-0.262181	9.24949	-0.0141227	0.0218827	-0.0174405	0.299072	0.143799	-1.03906	0.141594	0.237802	-0.125182	-0.952749	-4.43109	3.18655	9.10854	0.00804338	0.0027525	0.000742723	0.0632324	-0.325684	-1.07544	-0.396387	0.0890278	-0.457842	-0.790779	-4.88355	6.33189	5.53776	0.00375643	0.00568377	-0.00596336	0.281982	-0.88623	-0.488281	0.0792604	-0.0622015	-0.437192	0.893707	-0.421974	-7.76598	5.96917	-0.00786706	0.0152044	-0.0109694	-0.1521	0.784424	-0.723389	-0.791885	0.0758228	-0.491246	0.35475	-8.00083	-5.1382	5.50144	0.0105086	0.00829097	-0.0137727	0.773438	0.711426	0.0231934	0.176348	-0.308838	0.0157365	-0.934491	5.58934	-0.782042	8.75593	0.0136124	0.0479079	-0.0119409	-0.831055	0.192871	-0.64209	-0.107708	0.0813415	0.16712	0.976654	1.94719	3.41099	10.3859	-0.0132191	0.0107615	-0.0165109	-0.640625	-0.273438	-0.933838	-0.0707835	0.0645437	0.288279	0.952743	1.77348	5.74538	8.56387	-0.0121524	0.0127824	-0.0180904	-0.607178	-0.523682	-0.888428	-0.241448	0.935085	-0.123216	-0.228334	-4.28386	-3.43228	-7.3886	0.00805243	0.0129943	-0.00172148	0.764648	0.339844	0.699219	0.0322129	0.025107	-0.00485709	-0.999154	-0.440581	0.120227	9.75879	-0.00236938	0.0177249	-0.00839401	-0.314209	0.121582	-1.05615	
37	-0.0312754	-0.0647295	0.0396297	0.996625	-1.41748	0.883829	10.9224	0.00151945	0.00161506	0.00259048	-0.215332	0.0917969	-1.12549	-0.321176	-0.182153	-0.0659323	0.926995	-4.01083	-0.225674	9.30149	0.00101653	0.00227239	-0.0134479	0.296631	0.148193	-1.04395	0.141619	0.237868	-0.125334	-0.952709	-4.46369	3.27375	9.11834	0.00476044	0.00897947	0.00166266	0.0632324	-0.325684	-1.0686	-0.396438	0.0890406	-0.457819	-0.790766	-4.89517	6.34635	5.55218	-0.00489458	0.00289283	0.000413215	0.284424	-0.892822	-0.483887	0.0793159	-0.0621818	-0.436881	0.893855	-0.398973	-7.74548	5.94185	0.027338	0.00895797	-0.0134199	-0.156494	0.78418	-0.718994	-0.791961	0.0757929	-0.491004	0.354921	-7.99934	-5.13902	5.53132	0.00525125	0.00688439	-0.0185514	0.773682	0.709229	0.0234375	0.176322	-0.308222	0.0161095	-0.934693	5.55769	-0.798658	8.78659	0.00387354	0.040365	-0.0126841	-0.828857	0.195068	-0.644287	-0.107639	0.081218	0.167087	0.976678	1.89763	3.32897	10.4108	0.0141438	0.0252772	-0.0220977	-0.638916	-0.266846	-0.938721	-0.0706773	0.0646102	0.287888	0.952865	1.74398	5.61434	8.5967	2.68851e-05	0.00421943	-0.0200576	-0.607178	-0.523682	-0.890625	-0.241562	0.935072	-0.122968	-0.228401	-4.32038	-3.50255	-7.35522	0.00723533	0.00645417	-0.00257458	0.762451	0.344238	0.698975	0.0324262	0.025493	-0.0050076	-0.999136	-0.47301	0.0925085	9.8009	0.00628057	0.00940222	0.00417736	-0.312256	0.125977	-1.0564	
38	-0.0311455	-0.0647491	0.0398097	0.996621	-1.37446	0.923228	10.8993	0.0151252	-0.000851899	-0.00802932	-0.215088	0.0895996	-1.12354	-0.321199	-0.181971	-0.0659979	0.927018	-3.95522	-0.187441	9.25042	-0.0109504	0.0102357	-0.0206643	0.29248	0.143799	-1.03906	0.141651	0.23771	-0.125483	-0.952724	-4.45855	3.27138	9.12843	0.0158317	-0.00719781	0.000491772	0.0632324	-0.323486	-1.07104	-0.396505	0.0889468	-0.457982	-0.790648	-4.9071	6.35769	5.558	0.0193894	0.0054414	0.000591194	0.28418	-0.88623	-0.483887	0.0792286	-0.0621479	-0.436623	0.893991	-0.434006	-7.60684	5.97235	-0.00248667	0.00391356	-0.00625054	-0.147949	0.788818	-0.72583	-0.791947	0.0757718	-0.490982	0.354986	-7.98615	-5.14	5.55462	0.000445703	0.0156248	-0.016144	0.767334	0.707031	0.019043	0.17634	-0.308339	0.0163343	-0.934647	5.55596	-0.814454	8.80225	0.0141743	-0.000884128	-0.0115286	-0.833008	0.192871	-0.644287	-0.107711	0.0813355	0.167182	0.976644	1.91667	3.42058	10.3499	0.0124038	0.0082031	-0.00967034	-0.636475	-0.273438	-0.936279	-0.0706347	0.0645288	0.288228	0.95277	1.70871	5.65066	8.56214	0.0199512	0.00834524	-0.0231607	-0.600342	-0.521484	-0.881592	-0.241456	0.935094	-0.122923	-0.228447	-4.33264	-3.49442	-7.37151	-0.00108837	0.00540004	0.00300615	0.762451	0.344238	0.698975	0.0324311	0.0253427	-0.00507702	-0.99914	-0.474121	0.127435	9.82434	0.00229458	-0.00192891	-0.0038118	-0.314453	0.123779	-1.0564	
39	-0.0311251	-0.0646578	0.0398644	0.996625	-1.3887	0.941195	10.9249	-0.000262189	-0.010066	0.000566084	-0.214844	0.0852051	-1.12329	-0.321165	-0.181925	-0.0659084	0.927045	-3.98011	-0.307117	9.26185	-0.00541553	0.0143783	-0.0160834	0.296875	0.145996	-1.04614	0.141703	0.237714	-0.125416	-0.952724	-4.463	3.24851	9.11665	-0.00252433	0.00766951	0.00335748	0.0632324	-0.332275	-1.07764	-0.396379	0.0888026	-0.458075	-0.790674	-4.88947	6.33487	5.55142	0.00118138	0.00169491	0.0119978	0.282227	-0.892578	-0.488281	0.0792191	-0.0621673	-0.436902	0.893854	-0.394629	-7.72381	5.98131	-0.0120914	0.00605182	-0.0151722	-0.147705	0.784424	-0.721191	-0.79188	0.0758563	-0.491129	0.354916	-7.98201	-5.12056	5.51489	-0.00692976	0.0164423	-0.0160761	0.773682	0.709229	0.0212402	0.17637	-0.308432	0.0161304	-0.934614	5.54902	-0.771735	8.85008	0.0190059	0.0022229	-0.0140986	-0.837646	0.197021	-0.640137	-0.107676	0.0809952	0.167279	0.976659	1.91496	3.39809	10.3483	-0.00631405	0.0231017	-0.0154454	-0.642578	-0.277832	-0.933838	-0.0706799	0.0645844	0.2886	0.952651	1.76327	5.71191	8.62641	0.0177641	0.00214239	-0.0168037	-0.607178	-0.526123	-0.885986	-0.241269	0.935066	-0.122718	-0.22887	-4.29426	-3.43714	-7.33584	0.00130885	-0.00675851	0.00475125	0.760254	0.342041	0.701416	0.0323972	0.0250004	-0.0051199	-0.999149	-0.449148	0.145097	9.78006	0.00249928	-0.00801035	-0.00240071	-0.307617	0.121826	-1.05615	
40	-0.0310515	-0.0647311	0.0398326	0.996624	-1.3928	0.919241	10.9333	-0.000392765	0.00230687	-0.00196362	-0.22168	0.0893555	-1.12354	-0.321245	-0.181859	-0.065813	0.927037	-4.00057	-0.175734	9.23084	-0.0130383	0.00676082	-0.0146001	0.294434	0.150146	-1.0415	0.141745	0.237673	-0.125501	-0.952717	-4.45661	3.21571	9.1044	0.00870991	0.00117002	0.00447029	0.0610352	-0.327881	-1.07544	-0.39639	0.0886299	-0.45816	-0.790638	-4.92585	6.40148	5.54903	0.00925422	-0.000205669	-0.00162948	0.282227	-0.892822	-0.486084	0.0793133	-0.0620608	-0.436606	0.893998	-0.407085	-7.6172	5.97805	0.0103298	0.0040111	-0.0144436	-0.15625	0.779785	-0.723389	-0.791866	0.0760044	-0.491172	0.354854	-7.98319	-5.14921	5.49102	-0.010398	0.0126818	-0.0147379	0.775879	0.707031	0.0275879	0.176412	-0.308578	0.0161455	-0.934558	5.56329	-0.791054	8.79772	0.0139388	0.00207157	-0.010103	-0.828613	0.190674	-0.64209	-0.107638	0.0806046	0.167623	0.976637	1.89433	3.46825	10.4123	0.0172853	0.0226153	-0.0127688	-0.634277	-0.273438	-0.936279	-0.0706636	0.064561	0.288822	0.952586	1.73389	5.72226	8.60449	0.00541822	0.00287026	-0.0186417	-0.5979	-0.525879	-0.885986	-0.241443	0.934951	-0.122502	-0.229273	-4.33836	-3.46181	-7.36674	0.0126575	-0.00413661	0.000641704	0.762695	0.335449	0.699219	0.0325074	0.0247753	-0.005237	-0.999151	-0.410058	0.143298	9.81269	0.00332554	-0.000503883	-0.000258117	-0.312012	0.121582	-1.05615	
41	-0.0311319	-0.0646178	0.0396471	0.996636	-1.33843	0.927007	10.8949	-0.00766554	-0.00840172	0.00270246	-0.214844	0.0852051	-1.12549	-0.321317	-0.181773	-0.0659819	0.927017	-3.93296	-0.255442	9.261	-0.0125376	0.014183	-0.0181947	0.294678	0.143799	-1.04614	0.141654	0.237646	-0.126123	-0.952655	-4.41181	3.31759	9.18067	0.0127674	0.00831176	-0.000428313	0.0632324	-0.325684	-1.07544	-0.396468	0.0885487	-0.458088	-0.79065	-4.90731	6.45611	5.55248	-0.00457551	0.00124698	0.000887441	0.288818	-0.890381	-0.481689	0.0793893	-0.0620389	-0.436599	0.893997	-0.385548	-7.73372	5.97782	0.00654427	0.0103831	-0.0177023	-0.154297	0.78418	-0.716553	-0.791923	0.0761749	-0.49117	0.354693	-7.99362	-5.15289	5.5037	-0.00651839	0.00809362	-0.0124703	0.780273	0.707031	0.0234375	0.176361	-0.309316	0.0157895	-0.934329	5.57844	-0.790441	8.79624	0.0123238	-0.0126344	-0.0126509	-0.830811	0.192871	-0.633545	-0.107721	0.0806719	0.16778	0.976595	1.88716	3.38343	10.3527	0.017029	0.0160124	-0.0131526	-0.638672	-0.273438	-0.938477	-0.070726	0.0645784	0.288895	0.952558	1.7603	5.70751	8.5712	0.00264084	0.0066294	-0.0151086	-0.602539	-0.523682	-0.885986	-0.241483	0.934949	-0.122375	-0.229306	-4.32731	-3.46479	-7.34649	0.00504738	0.0145862	0.00280447	0.764648	0.339844	0.699219	0.0324345	0.0246303	-0.00512535	-0.999157	-0.40802	0.134635	9.82371	-0.00657245	0.00523229	-0.00867548	-0.312256	0.123779	-1.05396	
42	-0.0311383	-0.0645955	0.0394194	0.996646	-1.36545	0.857479	10.9123	-0.00583096	-0.00430929	0.00153302	-0.212891	0.0874023	-1.12769	-0.321342	-0.181856	-0.0661522	0.92698	-3.98377	-0.204865	9.28669	-0.0162993	0.0212127	-0.0170683	0.294434	0.147949	-1.04395	0.141641	0.237635	-0.125987	-0.952678	-4.48734	3.32438	9.11612	-0.00213943	0.000362463	-0.00246695	0.0568848	-0.329834	-1.073	-0.396496	0.0886014	-0.457929	-0.790722	-4.93248	6.40689	5.56875	-0.00517361	0.00667252	-0.000658673	0.279785	-0.888428	-0.479492	0.0793612	-0.0620646	-0.436645	0.893975	-0.410967	-7.67209	5.96181	-0.0116634	0.00372939	-0.0100453	-0.151855	0.782227	-0.723389	-0.791964	0.0761185	-0.491162	0.354625	-7.99068	-5.13929	5.48753	0.00580875	0.0142224	-0.00951471	0.775635	0.711426	0.0209961	0.176339	-0.309749	0.0158756	-0.934188	5.59588	-0.816498	8.77121	0.00985219	0.00185089	-0.0143223	-0.826904	0.197021	-0.640137	-0.107778	0.080858	0.167627	0.9766	1.92373	3.43483	10.4356	-0.0098056	0.00946746	-0.0121996	-0.640625	-0.277832	-0.933838	-0.0708036	0.0644861	0.289141	0.952484	1.755	5.76376	8.64423	0.0180399	0.00880427	-0.0170546	-0.602539	-0.525879	-0.885986	-0.241592	0.934947	-0.122493	-0.229135	-4.34134	-3.46643	-7.34474	0.00967803	0.0137094	0.00477905	0.762695	0.335449	0.699219	0.0322428	0.0247937	-0.00505734	-0.99916	-0.440836	0.109408	9.82955	-0.00183807	0.010375	-0.00944555	-0.312256	0.125977	-1.0564	
43	-0.0311517	-0.0646861	0.0394149	0.99664	-1.43841	0.90876	10.9246	0.0011617	-0.00186645	0.00235824	-0.212891	0.0874023	-1.12549	-0.32135	-0.181746	-0.0661879	0.926996	-3.95707	-0.233831	9.20823	-0.00532973	0.0089501	-0.0180884	0.298584	0.152344	-1.04395	0.141571	0.237546	-0.125793	-0.952736	-4.462	3.23851	9.16424	-0.0114673	-0.00118704	-0.00939183	0.0568848	-0.334229	-1.07056	-0.39653	0.088613	-0.457914	-0.790713	-4.88982	6.37082	5.57649	0.00125122	0.00473065	-0.00200016	0.284424	-0.892578	-0.486084	0.0793457	-0.0620448	-0.43687	0.893868	-0.455551	-7.69677	5.98717	-0.0202984	0.00434053	-0.0126528	-0.154053	0.781982	-0.716553	-0.791964	0.0761185	-0.491162	0.354625	-7.99068	-5.13929	5.48753	0.00580875	0.0142224	-0.00951471	0.775635	0.711426	0.0209961	0.176325	-0.309874	0.0158555	-0.93415	5.5784	-0.798869	8.79173	0.0149644	0.00294315	-0.0161909	-0.835449	0.194824	-0.633789	-0.10794	0.0808424	0.167713	0.976568	1.92421	3.36373	10.3597	0.0135987	0.0194362	-0.00490156	-0.636719	-0.269043	-0.940918	-0.0708224	0.0645454	0.289346	0.952416	1.76635	5.69398	8.64093	0.0220479	0.000429526	-0.0160802	-0.602539	-0.526123	-0.879395	-0.241578	0.934955	-0.122531	-0.229095	-4.32713	-3.45744	-7.32237	0.00707072	0.017298	0.00767733	0.762695	0.337646	0.699219	0.032145	0.0248808	-0.00496947	-0.999161	-0.431277	0.106934	9.77374	-0.00550914	0.0147217	-0.0114932	-0.310059	0.128418	-1.05859	
44	-0.0311987	-0.0645255	0.0394326	0.996648	-1.37774	0.85422	10.9259	0.00204616	-0.00874283	0.00174833	-0.219727	0.0915527	-1.12354	-0.321227	-0.181981	-0.0661046	0.926999	-3.99567	-0.266353	9.2626	-0.00278887	0.0224115	-0.0243059	0.299072	0.143799	-1.03906	0.141604	0.237626	-0.125709	-0.952722	-4.46344	3.22367	9.12107	0.00495159	0.0061868	-0.000557002	0.059082	-0.327881	-1.07544	-0.39656	0.0886706	-0.457739	-0.790792	-4.89966	6.30099	5.52264	-0.00449571	0.00550852	-0.000288062	0.281982	-0.88623	-0.483887	0.0795737	-0.0623287	-0.437057	0.893736	-0.49644	-7.69449	6.02019	-0.0215034	0.0180466	-0.00882453	-0.151855	0.780029	-0.723389	-0.791729	0.075972	-0.491376	0.354885	-8.05284	-5.13712	5.50132	0.00794485	0.01859	-0.0232154	0.773682	0.707031	0.0256348	0.176139	-0.309737	0.0155444	-0.934236	5.5702	-0.807564	8.85012	0.0226021	0.0131718	-0.0168749	-0.835205	0.190674	-0.633545	-0.108084	0.0806911	0.16795	0.976524	1.89268	3.36995	10.3469	0.0266492	0.0284158	-0.00899581	-0.638672	-0.273193	-0.940918	-0.0708971	0.0646183	0.290051	0.952191	1.75663	5.63703	8.54023	0.023152	0.00179074	-0.0180807	-0.607178	-0.523682	-0.885986	-0.241421	0.93503	-0.122535	-0.228953	-4.31458	-3.46759	-7.35265	0.000379253	0.0194817	0.00455861	0.758057	0.339844	0.701416	0.0319693	0.0249453	-0.00495227	-0.999165	-0.485631	0.129458	9.80018	0.000435306	0.00908488	-0.00947014	-0.310059	0.126221	-1.05176	
45	-0.0311987	-0.0645255	0.0394326	0.996648	-1.37774	0.85422	10.9259	0.00204616	-0.00874283	0.00174833	-0.219727	0.0915527	-1.12354	-0.321176	-0.182057	-0.066071	0.927004	-4.02254	-0.188668	9.28746	-0.003459	0.0192583	-0.0206738	0.296875	0.141602	-1.04126	0.141613	0.237579	-0.125969	-0.952698	-4.47972	3.21725	9.13087	0.0231921	-0.000979212	0.00568854	0.0612793	-0.332275	-1.073	-0.396602	0.0885646	-0.457917	-0.79068	-4.8922	6.38868	5.58723	0.00813099	0.00472605	-0.000748264	0.279541	-0.884033	-0.483887	0.079709	-0.0625289	-0.436827	0.893823	-0.50187	-7.87365	5.95355	0.0180959	0.0267764	-0.0117816	-0.151855	0.779785	-0.716553	-0.791698	0.0760439	-0.491281	0.35507	-8.0235	-5.12822	5.5032	0.00785572	0.00771571	-0.0306893	0.775879	0.709229	0.0234375	0.176132	-0.309944	0.0154343	-0.93417	5.57979	-0.792558	8.82145	0.0212	-0.00453887	-0.0162776	-0.837402	0.194824	-0.633789	-0.108082	0.0803978	0.168216	0.976503	1.8664	3.42993	10.382	0.0144567	0.0187129	-0.0113642	-0.63623	-0.275391	-0.936279	-0.0709538	0.064572	0.290336	0.952103	1.75855	5.72205	8.57802	0.0295952	0.00884192	-0.0166467	-0.599854	-0.530518	-0.881592	-0.24127	0.935075	-0.122359	-0.229024	-4.30971	-3.47602	-7.36988	-0.00107935	0.00746088	0.00172275	0.766846	0.342041	0.699219	0.0320159	0.0247463	-0.00504935	-0.999168	-0.450462	0.0996105	9.82188	0.00602553	-0.00101069	-0.000808321	-0.3125	0.130615	-1.0542	
46	-0.0309542	-0.0646462	0.0400196	0.996625	-1.43165	0.926705	10.8846	0.0211203	-0.00392672	-0.00971761	-0.212891	0.0895996	-1.12549	-0.321206	-0.182022	-0.0657607	0.927022	-3.92775	-0.207321	9.22297	0.00545274	0.00269017	-0.0153443	0.296631	0.148193	-1.04395	0.141662	0.23761	-0.12606	-0.952671	-4.45047	3.35458	9.18432	-0.00395376	0.00796858	0.00396307	0.0634766	-0.334473	-1.07983	-0.396628	0.0885984	-0.458054	-0.790584	-4.91109	6.43327	5.56679	0.0121417	0.0102016	-0.00121181	0.281982	-0.888428	-0.483887	0.079617	-0.0625624	-0.436357	0.894058	-0.369742	-7.5125	5.93286	-0.00216417	0.0027853	-0.00222607	-0.149658	0.782227	-0.72583	-0.791662	0.0761446	-0.491241	0.355184	-8.0072	-5.14614	5.48892	-0.000544311	0.0156716	-0.0182081	0.773682	0.707031	0.019043	0.176206	-0.311252	0.0151573	-0.933726	5.6021	-0.802597	8.94392	0.0123593	-0.0698753	-0.00936326	-0.833008	0.192871	-0.635742	-0.108237	0.079838	0.168749	0.97644	1.92273	3.41272	10.3726	0.0282619	0.0283516	-0.00836653	-0.638672	-0.27124	-0.938721	-0.0710271	0.0646754	0.290715	0.951975	1.78651	5.73604	8.58498	0.0212492	-0.000734025	-0.0135804	-0.609375	-0.526123	-0.885986	-0.240962	0.935224	-0.122344	-0.228747	-4.30629	-3.45786	-7.37839	-0.00698694	0.0323416	0.00531101	0.758057	0.342041	0.698975	0.0320437	0.0247983	-0.00509477	-0.999166	-0.432915	0.113022	9.81722	0.00233133	0.0128971	-0.00421967	-0.314453	0.123779	-1.0564	
47	-0.0308015	-0.0647429	0.0403091	0.996612	-1.36755	1.00039	10.941	0.00770308	0.00261362	-0.000975576	-0.210938	0.0939941	-1.12549	-0.321049	-0.182037	-0.0652036	0.927113	-3.97097	-0.209857	9.24886	0.0288026	0.00877222	-0.0204113	0.29248	0.143799	-1.04126	0.141841	0.237663	-0.125798	-0.952666	-4.42521	3.19138	9.1598	-0.00173428	0.0106342	0.00513166	0.0632324	-0.327881	-1.0708	-0.396518	0.0886949	-0.458106	-0.790598	-4.87708	6.3349	5.52504	-0.00138042	0.00917353	0.00432905	0.288574	-0.883789	-0.483887	0.0794924	-0.0628251	-0.436823	0.893823	-0.464741	-7.7272	6.03313	-0.0107164	0.0187028	-0.00748276	-0.147461	0.779785	-0.716553	-0.791682	0.076131	-0.49117	0.35524	-7.97703	-5.18264	5.47635	0.00791221	0.0089247	-0.0191579	0.773682	0.709229	0.0253906	0.176455	-0.315324	0.0148201	-0.932317	5.69536	-0.803605	8.7368	0.00208388	-0.163002	-0.000495771	-0.837402	0.192627	-0.625244	-0.108332	0.0796087	0.168611	0.976472	1.88219	3.39185	10.3748	-0.00832754	0.0332703	-0.0154604	-0.63623	-0.277588	-0.933838	-0.0710091	0.0646564	0.291213	0.951826	1.74979	5.73899	8.57037	0.0201114	0.00571129	-0.0205317	-0.602295	-0.530518	-0.888184	-0.240793	0.935324	-0.122302	-0.22854	-4.32379	-3.44125	-7.37249	-0.00587076	0.0316654	0.00165853	0.760254	0.342041	0.708252	0.0321405	0.0247882	-0.00534589	-0.999162	-0.470667	0.129609	9.78084	0.0117708	0.00451198	0.00179101	-0.314453	0.125977	-1.0564	
48	-0.030555	-0.06503	0.0403436	0.996599	-1.41675	0.976184	10.8954	0.00337136	0.00608426	-0.0150979	-0.217285	0.0895996	-1.12549	-0.321343	-0.181756	-0.0652314	0.927064	-4.01338	-0.200501	9.25967	-0.0184696	0.00230217	-0.00299013	0.297119	0.139404	-1.0459	0.141954	0.237703	-0.12622	-0.952583	-4.48459	3.30501	9.15858	0.015376	0.00207597	0.00503777	0.0568848	-0.332031	-1.0752	-0.396412	0.0887257	-0.458058	-0.790676	-4.90574	6.3898	5.54771	-0.00193841	0.00738335	0.00478796	0.281982	-0.88623	-0.483887	0.0795345	-0.062667	-0.436456	0.89401	-0.475006	-7.71072	5.86447	0.0197938	0.000977277	-0.0110527	-0.149658	0.780029	-0.721191	-0.791764	0.0763181	-0.490964	0.355302	-7.96637	-5.10756	5.51594	-0.00114798	0.000643745	-0.017359	0.773438	0.711426	0.019043	0.176933	-0.319517	0.01449	-0.930803	5.77915	-0.84891	8.73247	0.00818857	-0.18564	0.0104408	-0.848389	0.197021	-0.616699	-0.108377	0.079705	0.168699	0.976444	1.92442	3.44037	10.3615	-0.016201	0.017019	-0.00997626	-0.636719	-0.269043	-0.940918	-0.0708254	0.0645412	0.291534	0.951749	1.76792	5.75364	8.57662	0.0155669	0.00401884	-0.0179916	-0.604736	-0.526123	-0.883789	-0.240434	0.935624	-0.122224	-0.227731	-4.31813	-3.43591	-7.35976	0.0022059	0.0270528	-0.00278214	0.758057	0.342041	0.701416	0.0322567	0.0246447	-0.00551962	-0.99916	-0.426619	0.15184	9.81914	0.00628709	0.00347475	0.000973403	-0.309814	0.119385	-1.05615	
49	-0.0306103	-0.0649906	0.0400579	0.996612	-1.47388	0.913111	10.9288	-0.0145843	-0.0102409	0.00540957	-0.215088	0.0895996	-1.12988	-0.321598	-0.181526	-0.0650056	0.927037	-3.90981	-0.221609	9.25471	-0.000853459	0.0133519	-0.0123232	0.30127	0.143799	-1.0437	0.142048	0.237713	-0.126073	-0.952586	-4.48061	3.34531	9.17268	-0.0109083	0.0118695	-0.000421132	0.0612793	-0.330078	-1.0708	-0.396397	0.088708	-0.457972	-0.790735	-4.96669	6.49185	5.60915	-0.0136653	0.0039023	0.00338177	0.284424	-0.892578	-0.486084	0.0792209	-0.0623242	-0.436317	0.894129	-0.315526	-7.53434	6.01622	-0.0142683	-0.0146259	-0.0077679	-0.151855	0.782227	-0.72583	-0.791858	0.0763045	-0.49116	0.354824	-8.03368	-5.20358	5.52785	0.000463358	0.0228036	0.00684113	0.769043	0.713623	0.0187988	0.177343	-0.321916	0.0137384	-0.929909	5.75328	-0.770498	8.72955	0.0167468	-0.0789406	-0.00228631	-0.848145	0.194824	-0.616699	-0.108233	0.0794745	0.168858	0.976451	1.82577	3.45396	10.3817	0.00929298	0.0160705	-0.0160315	-0.640625	-0.275635	-0.936279	-0.0707612	0.0645362	0.291995	0.951613	1.76036	5.72698	8.60436	0.0230465	0.00824753	-0.0218418	-0.604492	-0.532959	-0.87915	-0.240633	0.935705	-0.122216	-0.22719	-4.2889	-3.44682	-7.41736	0.0129565	0.0266773	-0.0044136	0.758057	0.337646	0.701416	0.032368	0.0248611	-0.00547745	-0.999152	-0.438912	0.161724	9.84485	-0.00116728	0.0124242	0.002716	-0.312256	0.125977	-1.06079	
50	-0.0306056	-0.0648971	0.0399105	0.996624	-1.3648	0.858449	10.9219	0.000848963	-0.00108844	-0.00234009	-0.212891	0.0874023	-1.12769	-0.321442	-0.181797	-0.065102	0.927031	-4.02368	-0.187081	9.27523	-0.0115679	0.0244071	-0.0233818	0.294678	0.145996	-1.04614	0.142006	0.237777	-0.125228	-0.952688	-4.51577	3.23623	9.12501	-0.0263444	0.00988149	-0.014939	0.0629883	-0.319092	-1.07568	-0.396192	0.0888186	-0.457858	-0.790891	-4.9491	6.33465	5.54755	-0.00775478	0.00758863	0.00703703	0.284424	-0.892578	-0.486084	0.0793596	-0.0625164	-0.437542	0.893505	-0.430179	-7.73907	6.05335	-0.0552489	0.0104406	-0.0121458	-0.145752	0.788818	-0.718994	-0.791869	0.0759781	-0.491048	0.355026	-8.00456	-5.14966	5.5342	0.0153445	0.0139242	-0.0203604	0.775879	0.707031	0.0256348	0.17762	-0.324962	0.0140334	-0.928792	5.83746	-0.829201	8.69924	-0.0166841	-0.130816	0.0101616	-0.854736	0.197021	-0.604004	-0.108414	0.0795408	0.168951	0.976409	1.88228	3.44933	10.3596	0.0182924	0.0202445	-0.00790041	-0.638428	-0.275391	-0.943115	-0.0708937	0.064499	0.292601	0.951419	1.76583	5.79323	8.54977	0.0318143	0.00772164	-0.0128133	-0.599854	-0.532715	-0.883789	-0.240212	0.935972	-0.122359	-0.226458	-4.28941	-3.48695	-7.34939	-0.0106609	0.0526055	0.0126554	0.760254	0.339844	0.708252	0.0321406	0.0250766	-0.00536194	-0.999154	-0.482817	0.141559	9.82919	-0.00409985	0.0159495	-0.0201784	-0.314453	0.125977	-1.05859	
51	-0.0304853	-0.0648556	0.0401092	0.996622	-1.4202	0.890762	10.8975	0.0111826	-0.00545047	-0.00148465	-0.217041	0.0852051	-1.12329	-0.321351	-0.181662	-0.0652533	0.927078	-3.94443	-0.256066	9.27255	-0.01386	0.00721991	-0.0240788	0.299316	0.139404	-1.0437	0.141769	0.237691	-0.125089	-0.952763	-4.44195	3.17973	9.14793	0.00492325	-0.00082458	-0.0129582	0.0568848	-0.325684	-1.07324	-0.396231	0.0888662	-0.457892	-0.790847	-4.89455	6.38364	5.54724	0.00488106	0.00842404	-0.00431293	0.286621	-0.890381	-0.486084	0.0792392	-0.0625331	-0.436563	0.893993	-0.422127	-7.60245	5.98365	0.0512916	0.00524827	-0.00616481	-0.149658	0.782227	-0.721191	-0.791847	0.0758761	-0.49105	0.355093	-7.96673	-5.1509	5.47068	-0.000779646	0.0145648	-0.0131708	0.775879	0.707031	0.0256348	0.17794	-0.329081	0.0141159	-0.927278	5.88579	-0.855021	8.58118	-0.0115136	-0.159016	0.00426849	-0.852539	0.194824	-0.595459	-0.108455	0.0794559	0.169089	0.976388	1.86723	3.46056	10.3301	0.0166539	0.0233661	-0.0148805	-0.63623	-0.277588	-0.940918	-0.0708779	0.0644828	0.292659	0.951404	1.72182	5.81195	8.57495	0.00997022	0.00623062	-0.0197608	-0.604492	-0.532959	-0.881592	-0.239963	0.936103	-0.122459	-0.226124	-4.29728	-3.42105	-7.40218	-0.00879107	0.0450148	0.0102205	0.755859	0.339844	0.706055	0.0319413	0.0251438	-0.00528517	-0.999159	-0.431024	0.174322	9.80807	-0.00443633	0.0132009	-0.0195197	-0.307617	0.124023	-1.05859	
52	-0.0305056	-0.0647602	0.0402184	0.996623	-1.37362	0.911526	10.9315	0.00893417	-0.0111586	0.00352365	-0.217285	0.0874023	-1.12354	-0.321211	-0.181648	-0.0652613	0.927129	-3.94588	-0.245302	9.25651	-0.00768111	0.0133843	-0.0293714	0.299072	0.141602	-1.0459	0.141642	0.237749	-0.125194	-0.952753	-4.41671	3.1797	9.15843	0.0149669	0.0074012	-0.00884332	0.0610352	-0.325684	-1.07764	-0.396385	0.088979	-0.457838	-0.790788	-4.8549	6.34715	5.55296	-0.00334656	0.00224548	-0.00627877	0.282227	-0.890625	-0.483887	0.0791831	-0.0625362	-0.436574	0.893993	-0.348568	-7.5419	5.99074	-0.00143831	0.00579437	-0.00763258	-0.151855	0.782227	-0.723389	-0.791869	0.0757537	-0.490973	0.355177	-7.95905	-5.13599	5.48087	0.0160969	0.0117235	-0.0152106	0.775635	0.713623	0.0209961	0.178142	-0.331216	0.0141386	-0.926478	5.92259	-0.83944	8.54677	-0.0116687	-0.165592	0.0108199	-0.859375	0.201172	-0.595459	-0.108466	0.0795394	0.168818	0.976427	1.88464	3.47165	10.4144	-0.00534917	0.0235261	-0.0135334	-0.640381	-0.279785	-0.940918	-0.0708977	0.0644998	0.292731	0.951379	1.77225	5.8235	8.56219	0.0110213	0.00476323	-0.0166172	-0.604492	-0.530518	-0.885986	-0.239767	0.936244	-0.122488	-0.225734	-4.22317	-3.42457	-7.38863	-0.00573078	0.0475357	0.00313946	0.758057	0.339844	0.706055	0.031815	0.0253337	-0.0050972	-0.99916	-0.419359	0.135619	9.71809	-0.0014047	0.0170663	-0.00525221	-0.312256	0.125977	-1.0564	
53	-0.0305167	-0.0647819	0.0403361	0.996617	-1.34319	0.95566	10.9418	0.00265513	-0.000916789	0.00228722	-0.217529	0.0915527	-1.12354	-0.321078	-0.181718	-0.0652439	0.927163	-3.95073	-0.267538	9.28658	-0.00363539	0.0192132	-0.0277484	0.30127	0.143799	-1.0437	0.14157	0.237824	-0.12533	-0.952728	-4.3978	3.23049	9.16079	0.0167658	0.00876849	-0.00414871	0.0610352	-0.327881	-1.08228	-0.396451	0.0889486	-0.457627	-0.790881	-4.91634	6.37507	5.51944	-0.00377386	0.000398885	0.00272211	0.282227	-0.890625	-0.483887	0.0794177	-0.0625817	-0.437027	0.893747	-0.438529	-7.75844	5.9688	-0.0226795	0.00732449	-0.021571	-0.150146	0.788574	-0.716553	-0.791878	0.0755977	-0.49085	0.35536	-8.03203	-5.14416	5.53409	0.0154695	0.011123	-0.0184996	0.773682	0.709229	0.0234375	0.178718	-0.33559	0.0144842	-0.924786	6.04254	-0.912378	8.47926	-0.0202995	-0.169139	0.0207391	-0.86377	0.207764	-0.583008	-0.108508	0.0796771	0.168672	0.976436	1.89636	3.43577	10.3409	0.0102864	0.0120173	-0.0134763	-0.638428	-0.275391	-0.938477	-0.0707104	0.0644277	0.292425	0.951492	1.75049	5.74225	8.553	-0.0105853	0.00462005	-0.0167933	-0.602051	-0.537354	-0.881348	-0.239703	0.936611	-0.122538	-0.224247	-4.2887	-3.49063	-7.41447	0.0122875	0.0360689	-0.00402624	0.753418	0.342041	0.710449	0.0319143	0.0255903	-0.00509867	-0.99915	-0.497949	0.115107	9.83765	0.00443377	0.014031	0.000449073	-0.3125	0.130615	-1.0564	
54	-0.0306453	-0.0647895	0.0402923	0.996614	-1.40823	0.947019	10.9036	-0.00223264	-0.00644102	0.00321233	-0.217529	0.0915527	-1.12769	-0.320737	-0.18198	-0.0654557	0.927214	-3.9936	-0.207426	9.27795	-0.0114712	0.0166825	-0.0222587	0.294678	0.141602	-1.0459	0.14148	0.237919	-0.125502	-0.952695	-4.44557	3.23512	9.0845	0.0021115	0.00486455	-0.00278944	0.0717773	-0.325928	-1.07104	-0.396433	0.0888771	-0.45763	-0.790896	-4.88899	6.37211	5.57033	0.00394782	0.00167515	0.00523606	0.279785	-0.890625	-0.483887	0.0795881	-0.0626982	-0.436526	0.893968	-0.441936	-7.66077	5.99857	0.0336144	0.0123019	-0.0146544	-0.154053	0.782227	-0.728027	-0.791839	0.0754008	-0.490738	0.355644	-7.99911	-5.1405	5.47864	0.0122773	0.01624	-0.0195569	0.777832	0.709229	0.0234375	0.179222	-0.339382	0.0148522	-0.923298	6.03208	-0.915622	8.47337	-0.0209837	-0.13306	0.0197203	-0.865723	0.203369	-0.578613	-0.108643	0.0794397	0.168989	0.976386	1.82079	3.39806	10.3665	0.00524491	0.0229247	-0.0125651	-0.636475	-0.273193	-0.943359	-0.0705808	0.0643477	0.292828	0.951383	1.76872	5.75324	8.57301	0.00723505	-0.000938617	-0.0186138	-0.604492	-0.535156	-0.881348	-0.239566	0.936777	-0.122467	-0.22374	-4.22532	-3.45263	-7.39058	-0.00515026	0.0397888	-0.0015261	0.753418	0.342041	0.708252	0.0318987	0.0254825	-0.0051733	-0.999153	-0.45599	0.0858016	9.81449	0.0042583	0.00273323	-0.00575037	-0.307617	0.121826	-1.05615	
55	-0.0305899	-0.0648892	0.0402025	0.996613	-1.3671	0.948505	10.9062	-0.00207815	0.00375005	0.000917745	-0.215088	0.0874023	-1.12769	-0.32057	-0.181853	-0.0655139	0.927293	-3.98518	-0.216166	9.20773	-0.00795834	0.00852165	-0.0238625	0.28833	0.141602	-1.0459	0.141885	0.237987	-0.126168	-0.95253	-4.39753	3.20184	9.13541	0.0345798	0.00575655	0.0281483	0.0632324	-0.330078	-1.0708	-0.396292	0.0887575	-0.457977	-0.790779	-4.81037	6.27028	5.55563	0.024902	0.012162	0.00304319	0.284424	-0.894775	-0.486084	0.0796313	-0.0626944	-0.436261	0.894094	-0.472752	-7.62333	5.97844	0.0228343	0.00865997	-0.0114031	-0.147949	0.788818	-0.723389	-0.791884	0.0755214	-0.49047	0.355888	-7.97593	-5.12894	5.55267	0.00954497	0.000194087	-0.0292168	0.77124	0.713623	0.0187988	0.179698	-0.34413	0.0148197	-0.921447	6.16699	-0.926758	8.34986	-0.00233468	-0.194579	0.00863962	-0.876709	0.205322	-0.567871	-0.10864	0.0795646	0.169112	0.976354	1.90975	3.43024	10.3399	0.00234027	0.0116848	-0.018765	-0.63208	-0.273438	-0.927002	-0.0705737	0.0643635	0.292987	0.951333	1.75797	5.75111	8.59634	0.0116425	0.004651	-0.0169004	-0.602539	-0.526123	-0.879395	-0.239566	0.936777	-0.122467	-0.22374	-4.22532	-3.45263	-7.39058	-0.00515026	0.0397888	-0.0015261	0.753418	0.342041	0.708252	0.0319917	0.0254383	-0.00549415	-0.999149	-0.480582	0.0994785	9.78319	0.0130923	0.00152269	0.00234676	-0.309814	0.124023	-1.05396	
56	-0.0305516	-0.0649258	0.0401792	0.996613	-1.42287	0.895083	10.8998	-0.000831736	-0.000715181	-0.00258545	-0.214844	0.0852051	-1.12134	-0.320733	-0.181518	-0.0652371	0.927322	-3.90688	-0.217257	9.27329	-0.00571671	0.00235738	-0.00770172	0.294678	0.141602	-1.03882	0.142076	0.23794	-0.127001	-0.952402	-4.4822	3.40277	9.21523	0.0305523	-0.00204532	0.00589391	0.059082	-0.332031	-1.0708	-0.396108	0.0887915	-0.458291	-0.790685	-5.00101	6.47567	5.58781	0.00555073	0.0170096	0.00885693	0.282227	-0.892822	-0.483887	0.0798491	-0.0629138	-0.435964	0.894205	-0.36722	-7.72684	5.88765	0.0213737	0.0120789	-0.00796906	-0.151855	0.781982	-0.718994	-0.791781	0.0758555	-0.490367	0.356187	-7.96811	-5.11809	5.53107	0.0130699	0.0127728	-0.0279969	0.777832	0.713623	0.0187988	0.180326	-0.348357	0.0146398	-0.919737	6.20618	-0.972944	8.31224	-0.00333479	-0.150178	0.0180815	-0.876953	0.209717	-0.55542	-0.108827	0.079649	0.169479	0.976263	1.88588	3.50184	10.2944	0.0299333	0.0134216	-0.00748484	-0.640625	-0.273193	-0.940918	-0.0706356	0.0643473	0.293422	0.951196	1.756	5.82813	8.53179	0.0180182	0.00779552	-0.017365	-0.601807	-0.539795	-0.883545	-0.238632	0.937313	-0.122287	-0.222585	-4.23146	-3.47513	-7.47192	-0.000284053	0.0114503	-0.00159297	0.753906	0.335449	0.717529	0.03224	0.0252552	-0.00589769	-0.999144	-0.503714	0.182929	9.87504	0.00912239	0.00241698	0.00865301	-0.307617	0.124023	-1.05615	
57	-0.0305847	-0.0648425	0.0401595	0.996618	-1.37644	0.914015	10.9247	0.00153692	0.001954	0.00391655	-0.22168	0.0893555	-1.12988	-0.32062	-0.181772	-0.0654923	0.927293	-4.00329	-0.232365	9.25544	-0.00981594	0.0204477	-0.0137831	0.299316	0.137207	-1.04126	0.142043	0.238014	-0.126769	-0.952419	-4.48421	3.29303	9.13452	-0.00363834	0.00799584	-0.00161661	0.0612793	-0.336426	-1.06836	-0.395776	0.0888543	-0.458107	-0.790951	-4.96289	6.29895	5.51934	-0.0147176	0.00583053	0.0159345	0.282227	-0.890625	-0.481689	0.0799865	-0.0628033	-0.435737	0.894311	-0.47416	-7.65066	5.97482	0.0105933	0.00289005	-0.0118034	-0.149658	0.782227	-0.721191	-0.791714	0.0759975	-0.4904	0.356259	-7.96172	-5.17662	5.52213	-0.00454251	0.013217	-0.0194259	0.773682	0.709229	0.010498	0.18079	-0.351977	0.0145427	-0.918268	6.25981	-0.954577	8.27121	-0.00215459	-0.133062	0.00905368	-0.885254	0.205322	-0.552979	-0.108673	0.0797473	0.169215	0.976318	1.83441	3.43952	10.3589	-0.0070416	0.0151278	-0.021473	-0.636475	-0.270996	-0.943359	-0.0705569	0.0642524	0.293184	0.951281	1.75559	5.79653	8.55229	-0.00432354	0.00873905	-0.0222226	-0.602295	-0.52832	-0.881592	-0.238659	0.93726	-0.122053	-0.222909	-4.19649	-3.46968	-7.36767	0.00684823	0.00287756	0.00295587	0.751465	0.337402	0.708252	0.0324776	0.025019	-0.00608172	-0.999141	-0.435423	0.110038	9.79719	0.00763242	-0.00377864	0.0023028	-0.307373	0.119629	-1.05859	
58	-0.0305305	-0.0647973	0.0401273	0.996624	-1.36136	0.937903	10.9054	0.00031461	-0.00863949	-0.000681435	-0.215088	0.0895996	-1.12134	-0.320778	-0.181475	-0.0656054	0.927289	-3.93764	-0.200079	9.27779	-0.0170433	0.00395314	-0.0125905	0.294678	0.145996	-1.04614	0.142039	0.237914	-0.126671	-0.952458	-4.43975	3.33032	9.09749	0.0012845	0.000381969	-0.00392162	0.0632324	-0.327881	-1.07544	-0.395439	0.0888762	-0.458424	-0.790934	-4.95606	6.43452	5.61668	0.00718419	0.0218522	0.0138508	0.282227	-0.890625	-0.483887	0.0799895	-0.0629146	-0.435972	0.894188	-0.391019	-7.67615	5.9248	-0.0139582	0.0060877	-0.0114269	-0.151855	0.782227	-0.728027	-0.791597	0.0758383	-0.490488	0.356432	-7.97145	-5.14438	5.52458	0.0077415	0.0262078	-0.0157008	0.77124	0.711426	0.0146484	0.181213	-0.355492	0.0144908	-0.91683	6.31634	-0.945039	8.22674	-0.00189877	-0.143507	0.00981871	-0.889648	0.20752	-0.546875	-0.1086	0.080085	0.16898	0.976339	1.87258	3.48695	10.3808	-0.0105193	0.00857696	-0.0178171	-0.634521	-0.269043	-0.940918	-0.0705202	0.0642266	0.292542	0.951483	1.74645	5.81538	8.6012	-0.0337521	0.010766	-0.0192144	-0.606689	-0.535156	-0.87915	-0.238533	0.937289	-0.121993	-0.222954	-4.19888	-3.45335	-7.37192	-0.0043152	0.0107779	0.00445701	0.758301	0.333252	0.710693	0.0324103	0.0248949	-0.00598736	-0.999147	-0.484944	0.201384	9.84681	-0.008026	0.00235608	-0.00556006	-0.309814	0.124023	-1.05859	
59	-0.0305798	-0.0648109	0.040012	0.996626	-1.37134	0.937156	10.898	-0.00846881	-0.00198646	0.00371507	-0.217285	0.0874023	-1.12354	-0.320778	-0.181475	-0.0656054	0.927289	-3.93764	-0.200079	9.27779	-0.0170433	0.00395314	-0.0125905	0.294678	0.145996	-1.04614	0.141822	0.2379	-0.126549	-0.95251	-4.40484	3.40844	9.18475	-0.00176689	0.00174611	-0.0201935	0.0654297	-0.327881	-1.0686	-0.395053	0.0891289	-0.458438	-0.79109	-4.98228	6.52625	5.46864	-0.0132702	0.0349211	0.021178	0.284424	-0.892578	-0.488281	0.0799481	-0.0628139	-0.436114	0.894129	-0.429267	-7.685	5.95236	-0.0124503	-0.00248191	-0.0124799	-0.149658	0.780029	-0.721191	-0.791498	0.0757625	-0.490676	0.356409	-7.96674	-5.09451	5.58632	0.000132032	0.0317559	-0.0117222	0.779785	0.713623	0.0146484	0.181628	-0.358128	0.0145741	-0.91572	6.41275	-0.954898	8.11324	0.0043267	-0.0766576	0.00840173	-0.890137	0.216064	-0.53418	-0.10852	0.0801487	0.168709	0.97639	1.91319	3.46291	10.339	-0.0179699	0.0136301	-0.0209468	-0.638672	-0.273438	-0.938477	-0.0704837	0.0640993	0.291908	0.95169	1.77929	5.79914	8.60338	-0.047846	0.0199496	-0.0219689	-0.606934	-0.530518	-0.883789	-0.238436	0.937247	-0.121849	-0.223312	-4.23614	-3.44275	-7.48032	0.00247962	-0.0104777	0.0053891	0.751221	0.343994	0.712646	0.0323849	0.0247882	-0.00583117	-0.999151	-0.523244	0.200743	9.89026	-0.0116439	-0.000766433	-0.0058677	-0.307617	0.124023	-1.05396	
60	-0.0305665	-0.065018	0.0399183	0.996617	-1.42697	0.899572	10.9042	-0.000326472	0.0129592	-0.00464836	-0.213135	0.0917969	-1.12354	-0.320739	-0.181532	-0.0659208	0.927269	-4.05183	-0.172337	9.24189	-0.0170911	0.0161919	-0.0171582	0.29248	0.143799	-1.04614	0.141577	0.23788	-0.125432	-0.952699	-4.49523	3.195	9.12565	-0.0440945	0.00441345	-0.0170522	0.0632324	-0.330078	-1.073	-0.394473	0.0892885	-0.458406	-0.791381	-4.89333	6.37304	5.5201	-0.0122371	0.0128037	0.0196253	0.284424	-0.890625	-0.481689	0.0803205	-0.0628749	-0.436383	0.89396	-0.419212	-7.64496	6.02139	-0.00800526	0.00800988	-0.0128493	-0.151855	0.780029	-0.723389	-0.791337	0.0756177	-0.4909	0.35649	-7.92586	-5.19162	5.49992	0.0114886	0.0213664	-0.019047	0.769287	0.711426	0.0275879	0.181946	-0.360361	0.0144171	-0.914783	6.38557	-0.979083	8.21469	0.00643998	-0.098478	0.000413559	-0.892334	0.216064	-0.53418	-0.108277	0.0798503	0.168501	0.976477	1.87982	3.44287	10.3725	-0.00588388	0.0200326	-0.0193685	-0.634033	-0.275391	-0.936279	-0.0704206	0.0637366	0.290264	0.952221	1.78843	5.75688	8.54583	-0.0740075	0.0241253	-0.0225636	-0.604736	-0.52832	-0.879395	-0.238524	0.937071	-0.121727	-0.224023	-4.21384	-3.4169	-7.38444	0.00536861	-0.00937593	0.0071224	0.751221	0.343994	0.708252	0.0323339	0.0244806	-0.00562659	-0.999161	-0.391572	0.142205	9.77393	-0.00358382	-0.00649805	-0.00826541	-0.307617	0.124023	-1.05396	
61	-0.0304488	-0.0650883	0.0399511	0.996614	-1.40724	0.901045	10.9099	0.0029306	0.000886071	-0.00413351	-0.214844	0.0852051	-1.12988	-0.320741	-0.181088	-0.0658906	0.927357	-3.94277	-0.244427	9.27648	-0.0145821	-0.00111078	-0.0187376	0.296875	0.143799	-1.04126	0.141541	0.237617	-0.124958	-0.952833	-4.45666	3.14514	9.09443	-0.00357959	-0.00449287	-0.00606381	0.0632324	-0.330078	-1.0686	-0.394264	0.0892021	-0.458528	-0.791423	-4.88278	6.39524	5.5293	0.0114629	0.00687037	0.00747256	0.282227	-0.890625	-0.486084	0.0803266	-0.0628662	-0.436323	0.89399	-0.410506	-7.66204	5.92918	0.00485768	0.00682795	-0.0112337	-0.147705	0.78418	-0.716553	-0.791132	0.075601	-0.491191	0.356548	-7.94107	-5.13739	5.49284	0.000766071	0.0282469	-0.0151614	0.77124	0.713623	0.0209961	0.182182	-0.362267	0.014375	-0.913983	6.43972	-0.989833	8.19915	-0.00272535	-0.149719	0.0116241	-0.89209	0.213867	-0.531982	-0.108127	0.079952	0.167829	0.976601	1.91615	3.39472	10.4278	-0.0378236	0.0209395	-0.0209738	-0.640869	-0.269043	-0.940918	-0.0703024	0.0635688	0.289047	0.952611	1.70844	5.53586	8.65817	-0.0260038	0.0115946	-0.0230593	-0.597656	-0.532715	-0.888184	-0.238461	0.937091	-0.121672	-0.224039	-4.18058	-3.41324	-7.39849	0.0012279	0.0122943	0.00425468	0.751465	0.337402	0.706055	0.0322587	0.024274	-0.00543971	-0.99917	-0.414674	0.170672	9.76719	-0.0048961	-0.00267444	-0.00604542	-0.312012	0.119385	-1.06079	
62	-0.0302454	-0.065009	0.040081	0.996621	-1.37923	0.945296	10.9108	0.00552163	-0.0070991	-0.00629186	-0.212646	0.0852051	-1.12988	-0.320735	-0.181291	-0.0661069	0.927304	-3.97728	-0.257841	9.24895	-0.0146904	0.0350698	-0.018461	0.290039	0.152344	-1.03931	0.141022	0.237746	-0.1256	-0.952793	-4.47659	3.31954	9.1868	0.0350104	0.00804951	-0.0173772	0.0654297	-0.323486	-1.07788	-0.39423	0.0892386	-0.458395	-0.791513	-4.94943	6.45367	5.5675	-0.0117522	0.00339101	0.00364019	0.282227	-0.890625	-0.488281	0.0803359	-0.062597	-0.436449	0.893946	-0.448153	-7.69317	5.91373	-0.00645632	0.00209793	-0.019392	-0.149658	0.780029	-0.723389	-0.791023	0.0754656	-0.491517	0.356368	-7.98325	-5.16826	5.49531	-0.00678455	0.0272713	-0.00428892	0.775391	0.71582	0.0209961	0.182619	-0.365549	0.0146664	-0.912584	6.52146	-1.02705	8.01302	-0.0121485	-0.101416	0.0143619	-0.894531	0.218262	-0.521484	-0.108088	0.0799792	0.167653	0.976633	1.91587	3.41723	10.4243	0.00387328	0.0227181	-0.0166925	-0.636475	-0.269043	-0.936279	-0.0702948	0.0630684	0.289277	0.952575	1.67481	5.70893	8.58633	0.00749649	0.0125923	-0.0251201	-0.604736	-0.525879	-0.885986	-0.238754	0.937133	-0.121704	-0.223533	-4.20681	-3.43096	-7.42596	0.0113057	0.0166577	-0.00219204	0.758057	0.342041	0.706055	0.0322903	0.0242208	-0.00502488	-0.999172	-0.422165	0.153787	9.79871	-0.0163623	0.00210748	-0.000758148	-0.314209	0.121582	-1.06543	
63	-0.0302502	-0.065053	0.0401244	0.996616	-1.38179	0.933674	10.9301	0.00137671	0.00287694	0.00313035	-0.213135	0.0939941	-1.12769	-0.320641	-0.181296	-0.0658618	0.927353	-4.0032	-0.252732	9.27415	0.00259424	0.0012109	-0.0215701	0.290283	0.143799	-1.0437	0.140831	0.23753	-0.124573	-0.95301	-4.44957	3.29052	9.11397	-0.0559795	-0.0100498	-0.0165099	0.0568848	-0.325684	-1.07544	-0.394062	0.0891465	-0.458172	-0.791736	-4.9021	6.34421	5.59011	0.000350442	0.00255081	0.0101867	0.284424	-0.890625	-0.481689	0.0805023	-0.0624919	-0.436816	0.893759	-0.35294	-7.61783	6.07771	-0.0244384	0.010447	-0.0217413	-0.154297	0.784424	-0.72583	-0.79095	0.0752043	-0.491787	0.356213	-8.00972	-5.1664	5.49279	0.00394768	0.0271662	-0.00744024	0.773682	0.709229	0.0212402	0.183031	-0.368008	0.0148701	-0.911509	6.49896	-1.06699	8.03297	0.00070047	-0.101512	0.00787403	-0.896729	0.220459	-0.519287	-0.108141	0.0798007	0.167732	0.976628	1.87282	3.38465	10.3563	0.00853889	0.0204242	-0.0141896	-0.636475	-0.27124	-0.936279	-0.0701883	0.0630907	0.289369	0.952554	1.67335	5.68086	8.61222	0.0118189	0.001539	-0.0267152	-0.602295	-0.52832	-0.885986	-0.239025	0.937104	-0.121542	-0.223453	-4.20527	-3.47339	-7.39301	0.0108849	0.012886	-0.00096919	0.755859	0.342041	0.710449	0.0322395	0.0241972	-0.00462904	-0.999177	-0.489422	0.0890686	9.8019	-0.0120316	0.00500891	-0.00677158	-0.314453	0.125977	-1.05176	
64	-0.0300643	-0.0651312	0.0401698	0.996614	-1.41298	0.887334	10.8993	0.00730274	-0.00401469	-0.0114554	-0.217529	0.0915527	-1.12354	-0.320669	-0.181297	-0.0661367	0.927323	-3.89753	-0.198005	9.3069	-0.0280981	0.0237239	-0.0184693	0.30127	0.143799	-1.04834	0.140602	0.237354	-0.124786	-0.95306	-4.47022	3.13475	9.12252	0.0275411	-0.00066005	-0.00561828	0.0588379	-0.325684	-1.06641	-0.393884	0.0889324	-0.458287	-0.791783	-4.83893	6.37888	5.60611	0.00548373	0.000275221	0.0127426	0.282227	-0.892822	-0.481689	0.0806343	-0.0623931	-0.436998	0.893666	-0.497004	-7.75558	5.8827	0.00346587	-0.00112965	-0.0181804	-0.151855	0.781982	-0.718994	-0.790763	0.0750692	-0.492156	0.356147	-7.99812	-5.06948	5.52044	5.25054e-05	0.02961	-0.0126542	0.771484	0.709229	0.0234375	0.183412	-0.36992	0.0150583	-0.910655	6.57658	-1.02063	7.99157	-0.00598018	-0.0459253	0.0101232	-0.903076	0.220215	-0.515137	-0.108103	0.0793135	0.168107	0.976608	1.8766	3.38549	10.357	0.019065	0.0259568	-0.0140332	-0.634277	-0.27124	-0.938721	-0.0699849	0.0631064	0.290135	0.952335	1.7122	5.6529	8.56576	0.0240552	0.00558557	-0.013423	-0.602295	-0.52832	-0.888184	-0.239251	0.937019	-0.121439	-0.223625	-4.2204	-3.44657	-7.38829	0.0111394	-0.00250218	-0.000608912	0.753906	0.335449	0.712891	0.0322546	0.0238708	-0.00438447	-0.999185	-0.446207	0.0810821	9.81235	-0.00968095	-0.00886751	-0.00127127	-0.314453	0.125977	-1.05396	
65	-0.0299553	-0.0652093	0.0402557	0.996609	-1.42566	0.964922	10.9227	0.000239781	0.00434173	0.000302458	-0.219727	0.0915527	-1.12573	-0.320599	-0.181361	-0.065913	0.927351	-3.94975	-0.292138	9.27838	0.00637555	0.00791415	-0.0187014	0.294678	0.143799	-1.04614	0.140473	0.237348	-0.124891	-0.953067	-4.4011	3.24775	9.14563	0.00414731	0.0049537	-0.000950096	0.059082	-0.329834	-1.073	-0.393807	0.0889036	-0.458289	-0.791823	-4.84331	6.44265	5.5669	-0.000737494	0.0106631	0.000110408	0.277832	-0.892822	-0.486084	0.0806554	-0.0623564	-0.43678	0.893773	-0.383959	-7.70065	5.97719	0.00967724	0.00334158	-0.00635169	-0.149902	0.786621	-0.723389	-0.79066	0.0752099	-0.492414	0.355989	-8.02309	-5.23539	5.40954	-0.00754641	0.0184982	-0.0149598	0.775635	0.711426	0.0209961	0.183776	-0.370859	0.0145524	-0.910208	6.56038	-1.06605	7.82349	0.0564231	-0.0215219	-0.0141039	-0.903076	0.220215	-0.515137	-0.108267	0.0793173	0.168455	0.976529	1.9147	3.47515	10.4466	0.00802204	0.015182	-0.00803892	-0.636475	-0.27124	-0.940918	-0.0700132	0.0632303	0.290471	0.952222	1.73375	5.72161	8.62678	0.0149248	-0.000390097	-0.018441	-0.600098	-0.52832	-0.883789	-0.239284	0.936986	-0.121326	-0.223785	-4.24917	-3.43991	-7.41057	0.00669745	-0.00207369	-0.000285332	0.755859	0.342041	0.708252	0.0324695	0.023536	-0.00435153	-0.999186	-0.383606	0.0828469	9.83461	3.17885e-05	-0.00176229	0.00751887	-0.314453	0.125977	-1.06323	
66	-0.029823	-0.0651099	0.0401639	0.996623	-1.37317	0.940263	10.9095	-0.00345519	-0.00592462	-0.00446269	-0.217285	0.0895996	-1.13208	-0.320732	-0.1816	-0.0659586	0.927255	-3.98037	-0.236426	9.24797	-0.015996	0.0315672	-0.00982812	0.294678	0.143799	-1.0437	0.140429	0.237519	-0.124847	-0.953036	-4.45129	3.27122	9.23349	-0.00235494	0.016801	-0.00533028	0.0610352	-0.323486	-1.07104	-0.39372	0.0890006	-0.458311	-0.791842	-4.89526	6.46864	5.59524	-0.000624996	0.0153905	0.00347469	0.277832	-0.892822	-0.483887	0.0806005	-0.06234	-0.437068	0.893638	-0.439715	-7.74691	5.99484	-0.00863508	0.00999303	-0.00999106	-0.156494	0.78418	-0.723389	-0.79068	0.0749243	-0.492276	0.356195	-8.01638	-5.15761	5.53537	0.0257773	0.0116526	-0.0173783	0.76709	0.711426	0.0275879	0.183926	-0.37154	0.0141762	-0.909906	6.54029	-1.04684	8.03667	0.0106512	-0.0202369	-0.0110771	-0.901123	0.220215	-0.508789	-0.108326	0.0793483	0.168785	0.976464	1.82484	3.48691	10.4194	0.024373	0.0170152	-0.0120198	-0.638672	-0.273438	-0.936279	-0.0699724	0.0634119	0.290589	0.952177	1.74386	5.67223	8.61609	0.0213638	0.000306165	-0.0162259	-0.600098	-0.52832	-0.883789	-0.239512	0.936937	-0.121193	-0.223819	-4.24268	-3.45086	-7.39758	0.0112962	0.00274602	-0.00327271	0.751221	0.346191	0.712646	0.0325945	0.0234881	-0.00438986	-0.999183	-0.360758	0.0813404	9.82853	0.00360786	0.00351426	0.00667293	-0.3125	0.130615	-1.0542	
67	-0.0299358	-0.0650925	0.0399196	0.996631	-1.40234	0.944293	10.9076	-0.0126944	-0.00514495	0.00824513	-0.215088	0.0917969	-1.12988	-0.320774	-0.18162	-0.0660946	0.927227	-4.00267	-0.25678	9.254	-0.0190666	0.0197639	-0.0154618	0.296875	0.141602	-1.0437	0.140478	0.237657	-0.124538	-0.953035	-4.5096	3.23132	9.15708	-0.0189561	0.0192467	-0.00431931	0.0546875	-0.327637	-1.08008	-0.393584	0.0892112	-0.458213	-0.791943	-4.93176	6.38478	5.58295	-0.00649608	0.0134337	0.000483337	0.280029	-0.892822	-0.483887	0.0804733	-0.0626211	-0.436683	0.893818	-0.40954	-7.74961	5.93507	0.0154815	0.0121319	0.00561777	-0.1521	0.786377	-0.721191	-0.790665	0.0748321	-0.492194	0.356363	-8.0258	-5.14677	5.44496	0.017161	0.0122048	-0.0220458	0.773438	0.71582	0.0273438	0.183923	-0.372125	0.0144095	-0.909663	6.57646	-1.0604	7.90897	0.00363846	0.00787818	-0.00722353	-0.907227	0.213867	-0.510742	-0.108326	0.0793483	0.168785	0.976464	1.82484	3.48691	10.4194	0.024373	0.0170152	-0.0120198	-0.638672	-0.273438	-0.936279	-0.0700176	0.063485	0.290942	0.952061	1.72192	5.76929	8.61663	0.0345065	-0.00104063	-0.0143952	-0.60498	-0.523682	-0.890625	-0.239512	0.936937	-0.121193	-0.223819	-4.24268	-3.45086	-7.39758	0.0112962	0.00274602	-0.00327271	0.751221	0.346191	0.712646	0.0326244	0.0234919	-0.0044131	-0.999182	-0.389933	0.0433481	9.81441	0.00312359	0.00769743	-0.00128349	-0.312256	0.125977	-1.0564	
68	-0.0300672	-0.0651026	0.0397202	0.996634	-1.3862	0.87453	10.8955	-0.0154935	-0.00190087	0.00963162	-0.217285	0.0895996	-1.12549	-0.320721	-0.181644	-0.0661539	0.927236	-4.00201	-0.238693	9.24893	-0.00670264	0.0156743	-0.0199611	0.29248	0.141602	-1.0437	0.140281	0.237565	-0.124178	-0.953134	-4.46582	3.18613	9.14151	-0.00640581	-0.000799724	-0.0156286	0.059082	-0.329834	-1.07544	-0.393511	0.0895825	-0.458263	-0.791909	-4.8651	6.38081	5.50271	-0.000317396	0.0180573	-0.00576438	0.279785	-0.888428	-0.490479	0.0804175	-0.0625496	-0.436696	0.893822	-0.411023	-7.55991	5.93785	-0.000807528	0.000850697	-0.0104923	-0.147461	0.780029	-0.723389	-0.790693	0.0746349	-0.492079	0.356501	-7.95698	-5.13445	5.47702	0.0111365	0.0134667	-0.0117203	0.773438	0.711426	0.0209961	0.183923	-0.371815	0.0145161	-0.909788	6.55796	-1.06568	7.89566	0.0132131	0.0413012	-0.0106636	-0.907471	0.218018	-0.508789	-0.108232	0.0792255	0.169157	0.976419	1.84766	3.42192	10.3739	0.0026454	0.0141844	-0.0198613	-0.642822	-0.273438	-0.933838	-0.0700501	0.0635107	0.290841	0.952088	1.72597	5.79116	8.59033	-0.0118215	0.00567574	-0.0212233	-0.599854	-0.532959	-0.87915	-0.239221	0.937117	-0.121525	-0.223196	-4.23099	-3.45351	-7.3904	0.00149614	0.00886238	0.00766313	0.751465	0.337402	0.710693	0.032309	0.0240135	-0.0042116	-0.999181	-0.425088	0.113385	9.76718	-0.00569333	0.0182091	-0.00664204	-0.312256	0.123779	-1.05615	
69	-0.03013	-0.0652224	0.0397353	0.996624	-1.41742	0.88047	10.8931	0.00696152	0.00284649	0.00128069	-0.214844	0.0852051	-1.12769	-0.320738	-0.181473	-0.0660967	0.927268	-3.93082	-0.213185	9.25998	-0.0116242	0.00465846	-0.0182205	0.294434	0.148193	-1.03687	0.140312	0.237522	-0.124146	-0.953144	-4.42655	3.20238	9.13883	0.00733638	0.00623516	0.00519893	0.0632324	-0.323486	-1.07324	-0.39361	0.0896164	-0.458374	-0.791791	-4.87875	6.41203	5.52951	0.00760182	0.00572047	-0.00411491	0.282227	-0.892578	-0.488281	0.0803839	-0.0625559	-0.437005	0.893673	-0.398089	-7.7084	5.99476	-0.00785095	0.00864478	-0.00814556	-0.1521	0.786377	-0.721191	-0.790751	0.0747684	-0.491957	0.356513	-7.96973	-5.16301	5.45883	0.00451219	0.00397407	-0.0178481	0.771484	0.711426	0.0253906	0.183837	-0.370927	0.0145837	-0.910167	6.59993	-1.01405	7.93833	0.0184344	0.0608941	-0.0183145	-0.903076	0.220215	-0.512939	-0.108101	0.0793767	0.168904	0.976466	1.82317	3.4886	10.414	-0.01771	0.00768077	-0.0228277	-0.640625	-0.277588	-0.940918	-0.0699969	0.0634269	0.29053	0.952192	1.7475	5.84288	8.60008	-0.0151882	0.0153024	-0.0180003	-0.602295	-0.52832	-0.888184	-0.239143	0.937139	-0.121514	-0.223192	-4.21856	-3.42882	-7.37292	0.00075074	0.0144427	0.00609795	0.751221	0.343994	0.708252	0.0321755	0.0241663	-0.00422842	-0.999181	-0.418861	0.0727838	9.76949	0.00367129	0.0116334	-0.00966209	-0.31665	0.123779	-1.0564	
70	-0.0302467	-0.0651644	0.0398445	0.99662	-1.38513	0.913054	10.9113	0.00355538	-0.00565343	0.00793464	-0.210693	0.0874023	-1.12329	-0.320698	-0.181491	-0.0659079	0.927292	-3.94833	-0.214695	9.27499	0.00692908	0.0119392	-0.0182747	0.294922	0.139404	-1.0459	0.140275	0.237576	-0.124286	-0.953118	-4.46655	3.18957	9.17072	0.0150086	0.00372439	-0.00423759	0.059082	-0.327881	-1.07544	-0.393728	0.0896594	-0.458489	-0.791661	-4.92315	6.40793	5.52424	0.0134683	0.00721431	-0.00563966	0.282227	-0.890625	-0.486084	0.0803642	-0.0624986	-0.436552	0.8939	-0.372701	-7.61272	5.97233	0.0117102	0.00141391	-0.0157422	-0.151855	0.777588	-0.718994	-0.790756	0.0748575	-0.491989	0.356437	-7.96413	-5.17099	5.47802	0.000653337	0.0165668	-0.0109041	0.77124	0.713623	0.0209961	0.18373	-0.36971	0.0148177	-0.91068	6.5229	-1.05119	7.92719	0.0178328	0.0691928	-0.0188114	-0.898926	0.220215	-0.512939	-0.107911	0.079266	0.168831	0.976508	1.91277	3.44307	10.3799	-0.00104536	0.0124795	-0.0160952	-0.638672	-0.27124	-0.938721	-0.0699298	0.0633198	0.290157	0.952318	1.73536	5.74925	8.58265	-0.00649775	0.0117916	-0.0232669	-0.602295	-0.530518	-0.87915	-0.238989	0.937186	-0.121701	-0.22306	-4.21789	-3.43206	-7.41914	-0.000224453	0.0147305	0.0103411	0.760498	0.337646	0.701416	0.0320341	0.0242275	-0.00424396	-0.999184	-0.417099	0.163162	9.79852	0.0044991	0.008523	-0.00634421	-0.309814	0.121582	-1.05176	
71	-0.0301695	-0.0652922	0.0400017	0.996608	-1.41158	0.921023	10.9275	0.0128043	0.00535152	-0.00519461	-0.215088	0.0895996	-1.13208	-0.320634	-0.181428	-0.065982	0.927321	-4.00087	-0.201393	9.22182	-0.00759741	0.00509203	-0.0214012	0.292236	0.147949	-1.04395	0.140206	0.237678	-0.124304	-0.9531	-4.47703	3.28815	9.14038	-0.00479214	0.0067579	-0.00118336	0.0610352	-0.323486	-1.07788	-0.393785	0.0896458	-0.458338	-0.791722	-4.89289	6.31199	5.47411	-0.00354295	0.000577203	0.00113005	0.279541	-0.884033	-0.486084	0.0803816	-0.0624051	-0.436773	0.893797	-0.48393	-7.64291	5.95967	-0.00678035	0.00700496	-0.0113589	-0.150146	0.788818	-0.72583	-0.790826	0.0747789	-0.492002	0.35628	-7.97069	-5.10448	5.53084	-0.00397389	0.012958	-0.006514	0.773438	0.713623	0.0209961	0.183575	-0.368336	0.0146737	-0.91127	6.54284	-1.03622	8.00845	0.0314937	0.067771	-0.0248582	-0.905273	0.218262	-0.517334	-0.107595	0.0790047	0.16855	0.976613	1.88345	3.37491	10.3228	-0.00909229	0.00908267	-0.0207526	-0.638672	-0.269043	-0.940918	-0.0698506	0.0632265	0.289795	0.95244	1.72906	5.55704	8.57774	0.00432924	0.0087637	-0.0231213	-0.606934	-0.52832	-0.888184	-0.238944	0.937199	-0.121727	-0.223037	-4.21386	-3.42174	-7.43384	0.00209651	0.00857603	0.00410483	0.751221	0.343994	0.708252	0.0320923	0.0243431	-0.00411462	-0.99918	-0.460439	0.115053	9.77997	-0.00711894	0.0118927	2.84227e-05	-0.309814	0.124023	-1.05615	
72	-0.0302411	-0.0653333	0.0400124	0.996602	-1.42234	0.967683	10.8955	-0.00200039	-0.00243579	0.00218786	-0.217285	0.0874023	-1.12354	-0.320707	-0.181283	-0.0660083	0.927322	-3.92091	-0.246922	9.23547	-0.012078	0.0151591	-0.0163885	0.29248	0.145752	-1.04614	0.14023	0.237588	-0.124419	-0.953104	-4.4916	3.20495	9.14754	0.0179023	-0.000368161	0.00121174	0.059082	-0.332031	-1.073	-0.393776	0.0895551	-0.458449	-0.791672	-4.94989	6.36661	5.57696	0.0121344	0.00326187	0.0046674	0.279785	-0.888428	-0.486084	0.0803793	-0.0623437	-0.437192	0.893597	-0.381423	-7.67923	6.0094	-0.017811	0.00628602	-0.0178622	-0.149658	0.782227	-0.721191	-0.79076	0.074745	-0.492169	0.356205	-7.99595	-5.12119	5.50619	0.000735765	0.02129	-0.0150462	0.769287	0.709229	0.0253906	0.183441	-0.366364	0.0145201	-0.912094	6.50658	-1.02265	8.10419	0.0297142	0.105974	-0.0235521	-0.903076	0.216064	-0.523438	-0.107706	0.0788094	0.16853	0.97662	1.86531	3.39711	10.4367	-0.00642244	0.0282519	-0.0142331	-0.63208	-0.273193	-0.938721	-0.069884	0.0630494	0.290756	0.952157	1.7074	5.68278	8.5746	0.0582914	0.00943932	-0.020854	-0.604736	-0.52832	-0.883789	-0.239112	0.937045	-0.121548	-0.223601	-4.21633	-3.47631	-7.42538	0.00622499	-0.0164298	0.00629172	0.755859	0.339844	0.710449	0.0321647	0.024116	-0.00407918	-0.999183	-0.498593	0.131742	9.80875	-0.00103477	-0.0082208	0.000438868	-0.307617	0.126221	-1.0564	
73	-0.0301625	-0.0651494	0.0400958	0.996613	-1.39025	0.884397	10.9389	0.00939863	-0.0110138	-0.00391975	-0.210693	0.0874023	-1.12329	-0.320572	-0.181491	-0.0660961	0.927322	-3.98003	-0.179613	9.29124	-0.0123855	0.0273759	-0.0237072	0.290039	0.147949	-1.04395	0.140046	0.23767	-0.124425	-0.95311	-4.48254	3.2359	9.1276	0.0047468	0.00864714	-0.00722772	0.0610352	-0.323486	-1.07544	-0.393658	0.0893856	-0.458351	-0.791807	-4.92376	6.39659	5.53789	-0.000447308	0.00143394	0.00966677	0.281982	-0.888428	-0.483887	0.0805578	-0.062398	-0.4371	0.893622	-0.47499	-7.74446	5.93854	0.00292897	0.0123343	-0.0113357	-0.154297	0.788818	-0.72583	-0.790643	0.0748221	-0.492295	0.356272	-8.00342	-5.19736	5.49525	1.04769e-05	0.0176235	-0.0190847	0.777832	0.713623	0.0253906	0.183323	-0.364412	0.0142593	-0.912904	6.48267	-1.02545	8.04781	0.0428155	0.0928956	-0.0263715	-0.898682	0.216064	-0.530029	-0.107897	0.0787922	0.16871	0.976569	1.85948	3.43584	10.3378	0.010334	0.0292595	-0.0115994	-0.63623	-0.275391	-0.943115	-0.0699281	0.0630081	0.291176	0.952028	1.73714	5.80316	8.57156	0.0404455	0.00749078	-0.0178483	-0.600098	-0.525879	-0.881592	-0.239098	0.936961	-0.121434	-0.224032	-4.21025	-3.45765	-7.42766	0.0016162	-0.0224605	0.00689614	0.758301	0.335449	0.708252	0.0322417	0.023714	-0.00402778	-0.999191	-0.404046	0.112345	9.8121	-0.00223359	-0.00699669	-0.00100045	-0.319092	0.128174	-1.05396	
74	-0.0299886	-0.0650907	0.0402956	0.996614	-1.39943	0.961902	10.9118	0.00791124	-0.00623584	-0.00472201	-0.217285	0.0874023	-1.12549	-0.320589	-0.181635	-0.0663749	0.927268	-3.98233	-0.253859	9.23742	-0.0177126	0.0186078	-0.0150321	0.292725	0.139404	-1.04346	0.139986	0.23774	-0.124706	-0.953065	-4.43948	3.20847	9.1524	0.0142765	0.00395923	-0.000539429	0.0588379	-0.325684	-1.0708	-0.393618	0.0893444	-0.458432	-0.791784	-4.86386	6.4077	5.53283	0.00936869	0.00693325	0.00500548	0.277588	-0.888428	-0.481689	0.0806287	-0.062374	-0.436819	0.893755	-0.334041	-7.62209	5.98305	0.00896455	0.011787	-0.0158796	-0.149658	0.782227	-0.72583	-0.790683	0.0747155	-0.492195	0.356345	-7.9612	-5.10761	5.42876	0.0132526	0.0101759	-0.0154908	0.77124	0.71582	0.0209961	0.183124	-0.362307	0.0140965	-0.913784	6.45097	-0.998367	8.14452	0.0353847	0.0931067	-0.0287138	-0.889893	0.213867	-0.531982	-0.107917	0.0788235	0.168874	0.976536	1.79669	3.49473	10.3999	0.0176275	0.0136955	-0.0150714	-0.634033	-0.275391	-0.936279	-0.0697155	0.0629319	0.292109	0.951763	1.7471	5.89893	8.57607	0.0119527	-0.00387536	-0.0188931	-0.602295	-0.52832	-0.883789	-0.239198	0.93678	-0.121368	-0.224718	-4.24079	-3.4607	-7.41617	0.00507922	-0.0216996	0.00681245	0.758057	0.339844	0.706055	0.0322689	0.0235446	-0.00398765	-0.999194	-0.378665	0.0800229	9.81896	-0.00259028	-0.00548958	-0.00111974	-0.310059	0.126221	-1.05396	
75	-0.0299296	-0.065016	0.0402615	0.996622	-1.34693	0.949134	10.9	-0.00395078	-0.00707712	-0.00101397	-0.219238	0.0849609	-1.12134	-0.320678	-0.181615	-0.0665558	0.927228	-3.91132	-0.282782	9.26312	-0.0155135	0.0169882	-0.0165282	0.29248	0.143799	-1.04126	0.139995	0.237816	-0.124812	-0.95303	-4.44067	3.18387	9.12679	0.0121956	0.00751	0.00246554	0.0612793	-0.332031	-1.07983	-0.393617	0.0893515	-0.458514	-0.791736	-4.87538	6.43851	5.5733	0.00445118	0.0044693	-0.000119699	0.275635	-0.897217	-0.48584	0.0808475	-0.0622496	-0.436903	0.893703	-0.378634	-7.68209	5.92648	-0.00327387	0.00274904	-0.0160678	-0.151855	0.781982	-0.718994	-0.790688	0.074703	-0.492207	0.35632	-7.96383	-5.19009	5.43925	0.00163607	0.0143918	-0.0117628	0.775879	0.707031	0.0275879	0.182978	-0.360672	0.0138901	-0.914463	6.44814	-1.03334	8.07223	0.0306159	0.0898194	-0.0241178	-0.890137	0.216064	-0.53418	-0.107869	0.0786035	0.168958	0.976544	1.91094	3.43032	10.3752	0.00624961	0.016755	-0.0118196	-0.638672	-0.27124	-0.936279	-0.0697301	0.0631536	0.291877	0.951818	1.70951	5.696	8.56394	-0.0148602	-0.00892257	-0.0118244	-0.604736	-0.52832	-0.883789	-0.239244	0.936732	-0.121345	-0.224879	-4.24375	-3.44497	-7.34318	0.00484021	-6.77801e-05	0.00362786	0.760254	0.339844	0.701416	0.032187	0.0235123	-0.0038742	-0.999198	-0.375761	0.0785885	9.76646	-0.00402261	0.00247506	-0.00516608	-0.309814	0.124023	-1.05859	
76	-0.0300491	-0.0651175	0.0400731	0.99662	-1.39781	0.917943	10.9271	-0.00819517	0.00302739	0.00668798	-0.217529	0.09375	-1.12573	-0.32062	-0.181766	-0.0665931	0.927216	-3.98042	-0.215973	9.26726	-0.00502288	0.0194229	-0.0178798	0.298828	0.150391	-1.03931	0.139776	0.237783	-0.125221	-0.953017	-4.43919	3.32176	9.19141	0.0194499	0.000260881	-0.00623613	0.0568848	-0.327637	-1.07544	-0.393617	0.0893515	-0.458514	-0.791736	-4.87538	6.43851	5.5733	0.00445118	0.0044693	-0.000119699	0.275635	-0.897217	-0.48584	0.0809147	-0.0622497	-0.437038	0.89363	-0.382123	-7.71444	6.0207	-0.00608865	0.00480603	-0.00886897	-0.149902	0.784424	-0.721191	-0.790705	0.0745341	-0.492401	0.356051	-8.01888	-5.2021	5.46031	0.0135351	0.0125085	-0.0110076	0.773438	0.711426	0.0231934	0.182812	-0.358543	0.0137557	-0.915335	6.39507	-0.979716	8.11663	0.0368448	0.101001	-0.0289534	-0.89209	0.213867	-0.53833	-0.107976	0.0780892	0.169603	0.976462	1.84318	3.44154	10.3735	0.0128267	0.019799	-0.0130396	-0.634277	-0.273438	-0.933838	-0.0698115	0.0633691	0.292005	0.951758	1.74892	5.72842	8.56284	0.0136748	0.00523527	-0.0174444	-0.604736	-0.52832	-0.881592	-0.23928	0.93672	-0.121273	-0.22493	-4.27151	-3.44401	-7.38558	0.00833462	0.00820593	0.00138848	0.755859	0.337646	0.708252	0.0321511	0.0235238	-0.00386386	-0.999199	-0.382543	0.147981	9.8187	1.4001e-05	0.00808877	-0.00637783	-0.319092	0.125977	-1.05859	
77	-0.0300575	-0.0651926	0.0400097	0.996617	-1.39175	0.883099	10.8908	-0.00362025	0.00286555	0.000133752	-0.212891	0.0895996	-1.12134	-0.32062	-0.181766	-0.0665931	0.927216	-3.98042	-0.215973	9.26726	-0.00502288	0.0194229	-0.0178798	0.298828	0.150391	-1.03931	0.139776	0.237783	-0.125221	-0.953017	-4.43919	3.32176	9.19141	0.0194499	0.000260881	-0.00623613	0.0568848	-0.327637	-1.07544	-0.393747	0.0894619	-0.458677	-0.791565	-4.84362	6.40714	5.57536	-0.00120004	0.00592086	0.0013861	0.284424	-0.890381	-0.486084	0.0809147	-0.0622497	-0.437038	0.89363	-0.382123	-7.71444	6.0207	-0.00608865	0.00480603	-0.00886897	-0.149902	0.784424	-0.721191	-0.790705	0.0745341	-0.492401	0.356051	-8.01888	-5.2021	5.46031	0.0135351	0.0125085	-0.0110076	0.773438	0.711426	0.0231934	0.182709	-0.357217	0.0136766	-0.915875	6.37465	-0.970622	8.15711	0.0389442	0.12516	-0.0295928	-0.89209	0.213867	-0.53833	-0.107976	0.0780892	0.169603	0.976462	1.84318	3.44154	10.3735	0.0128267	0.019799	-0.0130396	-0.634277	-0.273438	-0.933838	-0.0698115	0.0633691	0.292005	0.951758	1.74892	5.72842	8.56284	0.0136748	0.00523527	-0.0174444	-0.604736	-0.52832	-0.881592	-0.239607	0.93659	-0.121064	-0.225236	-4.24358	-3.48031	-7.35536	0.00707798	0.00647799	0.00306097	0.755859	0.339844	0.703613	0.0323336	0.0238822	-0.00377917	-0.999185	-0.436412	0.0420018	9.79422	0.00421774	0.0166943	0.00258609	-0.31665	0.125977	-1.0564	
78	-0.0299709	-0.0651049	0.040032	0.996625	-1.39955	0.927275	10.9194	0.00319337	-0.0126828	-0.00300598	-0.217041	0.0852051	-1.12769	-0.320621	-0.181934	-0.0667587	0.927171	-3.94234	-0.211161	9.26697	-0.0139986	0.0264218	-0.0101455	0.299072	0.143799	-1.0437	0.140207	0.237881	-0.124827	-0.952981	-4.49269	3.11128	9.0838	0.0214661	0.00239651	0.0106187	0.0612793	-0.330078	-1.0708	-0.393813	0.0894212	-0.458776	-0.79148	-4.93328	6.3656	5.52082	0.0192142	0.0036092	-0.00342278	0.28418	-0.888184	-0.488281	0.0811957	-0.0624036	-0.436756	0.893732	-0.470034	-7.63536	5.91678	0.0285854	0.0069357	-0.00657653	-0.154297	0.788818	-0.723389	-0.790675	0.0744512	-0.492115	0.356528	-7.96699	-5.13438	5.4578	0.0034312	0.00606231	-0.0140484	0.769287	0.709229	0.0234375	0.182389	-0.35461	0.0135378	-0.916953	6.31634	-1.01267	8.21144	0.0376095	0.118229	-0.0339488	-0.885498	0.211914	-0.549072	-0.108021	0.0778451	0.169959	0.976415	1.85785	3.44133	10.3942	0.011788	0.0123883	-0.0132051	-0.634277	-0.273438	-0.933838	-0.0697532	0.0634412	0.292574	0.951583	1.75598	5.78356	8.59176	0.0110738	-0.00104547	-0.0160195	-0.606934	-0.530518	-0.883789	-0.239387	0.936665	-0.121126	-0.225125	-4.26217	-3.48866	-7.37898	-0.00423539	0.0132762	0.0060256	0.758057	0.339844	0.708252	0.0322883	0.0239376	-0.00400554	-0.999184	-0.410531	0.0931146	9.80473	0.012294	0.00765712	-0.0093034	-0.316895	0.128174	-1.06079	
79	-0.0299867	-0.0651945	0.0399768	0.99662	-1.37994	0.948779	10.9191	-0.00432351	0.00269713	0.001932	-0.215332	0.0915527	-1.12354	-0.320618	-0.182007	-0.0666255	0.927167	-3.99542	-0.250152	9.24452	0.00584391	0.00140367	-0.0181935	0.296875	0.141602	-1.0459	0.140145	0.23797	-0.125471	-0.952883	-4.49177	3.3427	9.15422	0.0175307	0.00481672	0.00622258	0.0610352	-0.330078	-1.07764	-0.39407	0.0893434	-0.458935	-0.791268	-4.94127	6.42258	5.54583	0.0105843	0.00287932	-0.00930791	0.277588	-0.888428	-0.481689	0.0810716	-0.0623808	-0.436841	0.893703	-0.306079	-7.67702	5.94697	-0.0230344	0.0051332	-0.00773208	-0.150146	0.788818	-0.72583	-0.790716	0.0748464	-0.492217	0.356215	-8.00952	-5.18469	5.41558	-0.00987381	0.0107752	-0.0117123	0.775635	0.711426	0.0275879	0.18207	-0.352996	0.0134029	-0.917641	6.30551	-0.917036	8.30455	0.0246997	0.0682337	-0.0278797	-0.889893	0.211914	-0.551025	-0.108009	0.0779621	0.169924	0.976413	1.84849	3.42664	10.335	-0.00492382	0.0117456	-0.0163616	-0.63208	-0.275391	-0.938477	-0.0697528	0.0634511	0.292711	0.95154	1.74344	5.79736	8.52583	0.0164854	0.00447011	-0.0193486	-0.606934	-0.52832	-0.883789	-0.23906	0.936782	-0.121045	-0.225029	-4.21015	-3.42321	-7.38855	-0.00314853	0.0112123	0.00523743	0.758301	0.335449	0.703857	0.0322337	0.0238659	-0.00403862	-0.999187	-0.41557	0.108526	9.80625	0.00340547	0.00625381	-0.00270109	-0.314453	0.125977	-1.05176	
80	-0.0301554	-0.0652901	0.0398302	0.996615	-1.38103	0.857215	10.9168	-0.00234968	0.0008778	0.00421414	-0.212891	0.0874023	-1.12769	-0.320649	-0.181711	-0.0663459	0.927234	-3.98828	-0.229784	9.27688	-0.00674356	0.00198146	-0.0153956	0.296631	0.148193	-1.0415	0.140229	0.237811	-0.12525	-0.95294	-4.48012	3.26717	9.17112	-0.017152	-0.00489373	0.00243426	0.0610352	-0.330078	-1.073	-0.394283	0.0892907	-0.458963	-0.791152	-4.88975	6.45415	5.54069	0.00178924	-0.00133193	-0.00570871	0.277588	-0.890625	-0.486084	0.0811237	-0.0621661	-0.437104	0.893585	-0.431312	-7.66403	6.02696	-0.00162519	0.00015249	-0.0189898	-0.1521	0.786377	-0.714355	-0.790807	0.0747949	-0.492185	0.356067	-7.99948	-5.17545	5.48322	-0.00183092	0.0126801	-0.00757551	0.773438	0.711426	0.0231934	0.181776	-0.350839	0.0132546	-0.918528	6.28822	-0.98599	8.12864	0.0382988	0.134882	-0.0355404	-0.883545	0.211914	-0.557617	-0.107985	0.0780874	0.1698	0.976427	1.85338	3.43807	10.4132	0.00391409	0.0159961	-0.017556	-0.627686	-0.273193	-0.936279	-0.0696181	0.0633474	0.292918	0.951493	1.73244	5.83747	8.57717	0.0212967	0.0057774	-0.0172832	-0.602295	-0.532959	-0.87915	-0.239228	0.936649	-0.120975	-0.225442	-4.2765	-3.45898	-7.40186	0.0144095	-0.00517219	0.00626279	0.758057	0.337646	0.706055	0.0321731	0.0240377	-0.0040486	-0.999185	-0.414811	0.104393	9.80092	-0.000412269	0.0168399	-0.00568452	-0.314697	0.128174	-1.0564	
81	-0.0300046	-0.0653921	0.0400648	0.996603	-1.40733	0.989467	10.9096	0.00776554	-0.00497774	-0.00418082	-0.212891	0.0895996	-1.12329	-0.320689	-0.181465	-0.0666079	0.92725	-3.92947	-0.241835	9.22671	-0.0159905	0.00697416	-0.0192544	0.294678	0.145996	-1.03906	0.140411	0.237787	-0.1253	-0.952912	-4.39885	3.24766	9.08724	-0.0165959	0.000885211	0.00640059	0.0654297	-0.327881	-1.07324	-0.394525	0.0890816	-0.458868	-0.79111	-4.86244	6.37899	5.49489	0.00891371	-0.00315684	-0.00466194	0.286621	-0.892822	-0.479492	0.081095	-0.062138	-0.437136	0.893574	-0.403231	-7.64095	6.00622	-0.00240332	0.00573743	-0.0119062	-0.154297	0.78418	-0.716553	-0.790833	0.074932	-0.492218	0.355934	-7.98012	-5.11359	5.51492	-0.00940313	0.0151109	-0.00944783	0.777832	0.709229	0.0253906	0.181461	-0.34737	0.0128556	-0.919913	6.28019	-0.944685	8.19931	0.0687237	0.150397	-0.043515	-0.87915	0.211914	-0.561768	-0.10806	0.0781167	0.169645	0.976443	1.86583	3.44868	10.3658	-0.00741317	0.0171859	-0.00982929	-0.63623	-0.275635	-0.929199	-0.0696691	0.063439	0.293054	0.951442	1.74506	5.74037	8.573	0.0170999	0.00492822	-0.0153686	-0.606934	-0.530518	-0.888184	-0.239393	0.93656	-0.120917	-0.225667	-4.27303	-3.43021	-7.34584	0.0178922	-0.00769916	0.00369017	0.760254	0.342041	0.703613	0.0321743	0.0241099	-0.00403515	-0.999183	-0.410263	0.0965388	9.81942	0.000204336	0.0134503	-0.00338378	-0.312256	0.128418	-1.05396	
82	-0.0300797	-0.0652683	0.0398167	0.996619	-1.36945	0.924738	10.9449	-0.0113443	-0.00507644	0.00247258	-0.217285	0.0874023	-1.12988	-0.320486	-0.181544	-0.0665538	0.927309	-3.96354	-0.236452	9.32744	-0.00810506	0.0255341	-0.029494	0.290283	0.143799	-1.03906	0.140425	0.237713	-0.125416	-0.952914	-4.54837	3.27606	9.16207	0.0105814	0.0018091	-0.00378013	0.0610352	-0.330078	-1.073	-0.394688	0.088966	-0.458886	-0.791031	-4.94051	6.42008	5.58674	0.010531	-0.00646513	-0.0067304	0.282471	-0.897217	-0.483643	0.0810613	-0.0619991	-0.437672	0.893324	-0.30703	-7.6622	5.94611	-0.023205	-0.00259643	-0.00933098	-0.147705	0.786377	-0.718994	-0.790777	0.0745354	-0.492253	0.356096	-8.09492	-5.20062	5.49514	0.0283849	0.0214843	-0.0163397	0.773682	0.709229	0.0234375	0.181007	-0.342247	0.0123545	-0.921928	6.13797	-0.832509	8.39382	0.0506837	0.240216	-0.0466	-0.872314	0.203369	-0.572266	-0.10803	0.0777513	0.170074	0.976401	1.89219	3.43715	10.3724	0.0208091	0.0213588	-0.0127922	-0.634033	-0.279785	-0.936279	-0.0696664	0.0635846	0.293242	0.951374	1.76448	5.66548	8.53961	0.0172731	0.000358857	-0.0170085	-0.604492	-0.530518	-0.888184	-0.239635	0.936396	-0.120943	-0.226077	-4.27643	-3.45514	-7.39871	0.0124238	-0.0108468	0.00667767	0.758057	0.342041	0.696777	0.0321257	0.0241939	-0.00415632	-0.999182	-0.45261	0.107422	9.82518	0.00556404	0.00696083	-0.00361048	-0.319092	0.128174	-1.06079	
83	-0.0299914	-0.0655573	0.0397326	0.996606	-1.45276	0.880276	10.9154	0.00149176	0.0116623	-0.00362192	-0.215332	0.0917969	-1.12769	-0.320267	-0.181534	-0.066644	0.92738	-4.02359	-0.175875	9.21732	-0.0106281	0.00776855	-0.0205292	0.294434	0.150391	-1.03931	0.14032	0.237672	-0.12536	-0.952947	-4.46768	3.33658	9.13468	0.000526368	0.000680108	-0.00970391	0.0632324	-0.327881	-1.0708	-0.394836	0.0889246	-0.458781	-0.791022	-4.94733	6.42064	5.56536	-0.00451013	0.00618913	-0.00360588	0.277588	-0.888428	-0.479492	0.0813264	-0.0625091	-0.437844	0.893181	-0.500083	-7.82215	5.93334	0.0282529	0.0183408	-0.0129827	-0.1521	0.784424	-0.723389	-0.790768	0.0743274	-0.492104	0.356364	-8.03038	-5.14832	5.49546	0.0304231	0.0121246	-0.0245678	0.773438	0.713623	0.0209961	0.180409	-0.337254	0.0126131	-0.923879	6.04803	-0.924508	8.53817	0.037064	0.204403	-0.0451068	-0.859375	0.201172	-0.580566	-0.108093	0.0779238	0.169818	0.976425	1.82863	3.4299	10.3647	-0.0101793	0.0111882	-0.00985788	-0.634033	-0.277588	-0.933838	-0.0697168	0.06348	0.293428	0.95132	1.7604	5.84154	8.56953	0.0217581	0.0135924	-0.0183302	-0.595215	-0.535156	-0.881348	-0.23988	0.936121	-0.12079	-0.227036	-4.28345	-3.47671	-7.38242	0.0132449	-0.0315472	0.00870021	0.758301	0.333252	0.70166	0.0322127	0.0242685	-0.00431789	-0.999177	-0.44513	0.122853	9.83923	0.00713372	0.0113979	0.00107915	-0.3125	0.130615	-1.05859	
84	-0.0298536	-0.0654588	0.0398251	0.996613	-1.41232	0.938397	10.8949	0.00340395	-0.0147381	-0.00448849	-0.212891	0.0917969	-1.12988	-0.320438	-0.181266	-0.0667233	0.927367	-3.98428	-0.195585	9.22248	-0.0233487	-0.00392667	-0.00747637	0.296875	0.143799	-1.03906	0.140528	0.237505	-0.125078	-0.952995	-4.44768	3.2142	9.14453	-0.0114699	-0.000727009	0.0109639	0.0566406	-0.323486	-1.07324	-0.394897	0.0890449	-0.458888	-0.790917	-4.87444	6.36949	5.52855	0.00796092	0.00817344	-0.00552814	0.28418	-0.888428	-0.483887	0.0812029	-0.0625694	-0.436778	0.893709	-0.376033	-7.5068	5.83511	0.02675	0.00558885	0.00203588	-0.147705	0.786621	-0.723389	-0.790851	0.0743097	-0.491733	0.356696	-7.91123	-5.12503	5.44019	0.0124436	0.00240746	-0.0211976	0.775635	0.711426	0.0209961	0.179855	-0.333482	0.0126639	-0.925355	6.01958	-0.871453	8.49481	0.0293027	0.171187	-0.0402882	-0.865723	0.198975	-0.593262	-0.108135	0.0779034	0.169979	0.976394	1.8199	3.45004	10.4035	0.0129742	0.0109139	-0.0145586	-0.638672	-0.273193	-0.940918	-0.0697184	0.063655	0.293465	0.951297	1.74007	5.72328	8.58534	0.0195033	0.00119149	-0.0155872	-0.604492	-0.530518	-0.883789	-0.239837	0.93602	-0.120784	-0.227497	-4.27516	-3.49215	-7.31823	0.000380714	-0.0113235	0.00762642	0.760254	0.339844	0.701416	0.0320627	0.0246734	-0.00433717	-0.999172	-0.400151	0.0646109	9.76852	0.00208394	0.0198771	-0.00787616	-0.307861	0.130615	-1.05859	
