40	Head	00b4120a												Throax	00b411e8												LUpArm	00b411d9												LFoArm	00b41148												RUpArm	00b411db												RFoArm	00b41204												Waist	00b411f7												Lthigh	00b411f4												Lshank	00b4111b												Rthigh	00b411c8												Rshank	00b411ee												
PacketCount	q0	q1	q2	q3	accX	accY	accZ	gyrX	gyrY	gyrZ	magX	magY	magZ	q0	q1	q2	q3	accX	accY	accZ	gyrX	gyrY	gyrZ	magX	magY	magZ	q0	q1	q2	q3	accX	accY	accZ	gyrX	gyrY	gyrZ	magX	magY	magZ	q0	q1	q2	q3	accX	accY	accZ	gyrX	gyrY	gyrZ	magX	magY	magZ	q0	q1	q2	q3	accX	accY	accZ	gyrX	gyrY	gyrZ	magX	magY	magZ	q0	q1	q2	q3	accX	accY	accZ	gyrX	gyrY	gyrZ	magX	magY	magZ	q0	q1	q2	q3	accX	accY	accZ	gyrX	gyrY	gyrZ	magX	magY	magZ	q0	q1	q2	q3	accX	accY	accZ	gyrX	gyrY	gyrZ	magX	magY	magZ	q0	q1	q2	q3	accX	accY	accZ	gyrX	gyrY	gyrZ	magX	magY	magZ	q0	q1	q2	q3	accX	accY	accZ	gyrX	gyrY	gyrZ	magX	magY	magZ	q0	q1	q2	q3	accX	accY	accZ	gyrX	gyrY	gyrZ	magX	magY	magZ	
0	-0.0574365	-0.206759	0.976357	-0.0260366	1.01899	-0.168029	-8.46769	-0.00440952	-0.00977668	-0.0042763	-0.348633	-0.0905762	1.01147	-0.11618	-0.121935	0.985684	-0.00780596	2.211	0.171335	-9.37029	0.000583547	0.0126962	-0.0194463	-0.492188	-0.142822	0.998535	0.950248	0.0155525	-0.199681	0.238569	4.26556	-0.764781	9.89843	0.00304813	0.0040652	0.00146873	-0.255859	-0.0268555	-1.06885	0.793199	0.600539	-0.0570446	-0.0832665	-0.0758095	9.42343	2.65771	0.00323999	0.00502557	0.00165247	0.364746	-1.33057	-0.242676	-0.930873	-0.212706	0.190883	-0.227587	4.49573	3.03796	8.22169	0.00134779	0.00643018	-0.0109888	-0.104492	-0.535645	-0.96875	-0.847816	0.44814	0.103996	-0.263749	-0.625169	-9.32052	6.63164	-0.0032505	0.0108462	-0.0166718	0.215332	0.90625	-0.79248	-0.0446704	-0.73742	-0.37898	0.557306	-9.48031	0.592821	-1.73099	0.0115347	0.0781549	-0.0112512	0.939697	-0.0688477	0.683594	-0.923304	0.280418	0.230062	0.126282	5.45898	-4.60065	8.10486	0.00531391	0.0164894	-0.0191884	-0.20874	0.5896	-0.878418	0.0130144	0.109493	0.97321	-0.201753	-0.737628	-3.71223	-8.35507	-0.00224369	0.0054158	-0.0145348	-0.325439	0.458984	0.92749	0.639231	0.305438	-0.178123	0.682908	6.86427	2.40836	7.32993	-0.00203966	0.00563383	0.0103809	-0.432373	-0.450684	-0.967529	-0.0093181	0.0747782	-0.992018	-0.101101	-0.303497	1.99161	-9.58021	0.00180422	0.00783035	-0.0110919	-0.460449	-0.162842	1.10986	
1	-0.0573447	-0.206845	0.976346	-0.0259975	1.04435	-0.169667	-8.47985	0.00244571	-0.00401962	-0.00520436	-0.353027	-0.0883789	1.01367	-0.116174	-0.121979	0.98568	-0.00778482	2.21381	0.142318	-9.35493	-0.00345662	0.0131812	-0.0235903	-0.500732	-0.14502	0.998535	0.950243	0.0153887	-0.19966	0.238614	4.28562	-0.807041	9.89703	-0.000781252	0.00871882	0.00068595	-0.249268	-0.0249023	-1.06665	0.793268	0.600449	-0.0570213	-0.0832776	-0.087104	9.41626	2.66177	-0.00232451	0.00672697	-0.00040066	0.36499	-1.33496	-0.244873	-0.930916	-0.212601	0.19081	-0.227571	4.50725	3.03258	8.26102	-0.0101782	0.0126425	-0.0126067	-0.0959473	-0.535645	-0.964355	-0.847795	0.448185	0.104017	-0.263731	-0.61429	-9.32549	6.63529	0.00366141	0.0154484	-0.0137529	0.212891	0.9104	-0.790527	-0.0432298	-0.738994	-0.379146	0.555218	-9.47341	0.610649	-1.80274	0.0092896	0.0340343	-0.0129378	0.939941	-0.0732422	0.692383	-0.923235	0.280625	0.230137	0.126192	5.46442	-4.57759	8.07517	0.00296744	0.0189413	-0.0155453	-0.208496	0.583252	-0.878174	0.0130769	0.109639	0.973212	-0.20166	-0.736107	-3.70871	-8.38476	0.00578142	0.00185987	-0.0144478	-0.318359	0.458984	0.92749	0.639052	0.305413	-0.178276	0.683047	6.86298	2.38748	7.31046	0.000509524	0.0128423	0.00757247	-0.436523	-0.45752	-0.969727	-0.00930533	0.0747467	-0.992017	-0.101137	-0.288337	2.00612	-9.56961	0.00186577	0.00439646	-0.0102395	-0.467285	-0.160645	1.11426	
2	-0.0573611	-0.206852	0.976343	-0.0260073	1.02083	-0.163544	-8.48006	0.00199625	-0.00084157	-0.00282567	-0.348633	-0.0883789	1.01147	-0.116192	-0.122018	0.985673	-0.0077839	2.2338	0.136862	-9.384	-0.00718278	0.0143451	-0.0240336	-0.498535	-0.14502	0.989258	0.950267	0.0155219	-0.199533	0.238616	4.26609	-0.755715	9.91099	0.0175671	0.0129572	-0.00228055	-0.253662	-0.0205078	-1.07129	0.793275	0.600441	-0.056993	-0.0832888	-0.0692238	9.40375	2.68734	0.0012015	0.00620993	-0.00102073	0.36499	-1.33276	-0.24707	-0.930919	-0.212636	0.190751	-0.227573	4.50657	3.01457	8.25759	0.00279703	0.0110376	-0.0126623	-0.100586	-0.529053	-0.96875	-0.847943	0.448038	0.103913	-0.263547	-0.616449	-9.3179	6.62794	0.00966699	0.0125867	-0.013582	0.217041	0.916992	-0.797119	-0.0433084	-0.739182	-0.379092	0.554998	-9.45975	0.59717	-1.78646	0.0126606	0.0358833	-0.0138718	0.936035	-0.079834	0.690186	-0.923203	0.280761	0.230117	0.126154	5.44282	-4.59674	8.08855	-0.00331215	0.0180527	-0.015227	-0.208496	0.585449	-0.883057	0.013122	0.10968	0.973203	-0.201678	-0.729338	-3.71581	-8.35421	0.00739151	0.00192118	-0.0145708	-0.318359	0.458984	0.92749	0.638985	0.305474	-0.17822	0.683097	6.85422	2.40943	7.34045	0.00574831	0.0139544	0.0070072	-0.43457	-0.452881	-0.971924	-0.00929531	0.0747555	-0.992013	-0.10117	-0.296074	2.00304	-9.57392	0.00206034	0.00621599	-0.0115521	-0.462891	-0.158203	1.1167	
3	-0.0574592	-0.206901	0.976326	-0.0260545	1.0194	-0.157335	-8.48635	0.00234474	0.00299042	-0.00384714	-0.348633	-0.0861816	1.01562	-0.116422	-0.122092	0.985637	-0.00769306	2.20699	0.162273	-9.39712	-0.0140179	0.0248066	-0.0246388	-0.500732	-0.14502	0.993896	0.950282	0.0154587	-0.199529	0.238566	4.27521	-0.75657	9.904	0.00090084	0.0052508	0.000902349	-0.258057	-0.0224609	-1.06909	0.793365	0.600332	-0.0569127	-0.0832736	-0.0704514	9.40351	2.68816	-0.00474984	0.00831359	0.000104158	0.36499	-1.33276	-0.244873	-0.93096	-0.212479	0.190736	-0.227564	4.50104	3.08995	8.25163	-0.0117546	0.0109755	-0.00848756	-0.104492	-0.535645	-0.964355	-0.84796	0.448053	0.103823	-0.263502	-0.607495	-9.30216	6.63195	0.00458209	0.0184619	-0.0136534	0.212891	0.908447	-0.794678	-0.0433084	-0.739182	-0.379092	0.554998	-9.45975	0.59717	-1.78646	0.0126606	0.0358833	-0.0138718	0.936035	-0.079834	0.690186	-0.923178	0.280991	0.230002	0.126039	5.47499	-4.5957	8.07799	-0.000129602	0.020915	-0.0120521	-0.20874	0.5896	-0.880615	0.0132358	0.109779	0.973188	-0.201689	-0.740417	-3.70319	-8.3733	0.00750386	0.000718736	-0.0131935	-0.320557	0.456787	0.920898	0.638889	0.30549	-0.177916	0.683258	6.85199	2.40348	7.33072	0.0100796	0.0154409	0.00429917	-0.438965	-0.453125	-0.969727	-0.00929625	0.074736	-0.99201	-0.10121	-0.294797	1.99456	-9.54585	0.00411144	0.00552625	-0.010385	-0.462646	-0.160645	1.11206	
4	-0.0576639	-0.207026	0.976283	-0.0261935	1.0353	-0.16779	-8.4712	0.00469907	0.0082107	-0.00630774	-0.350586	-0.0927734	1.00708	-0.116749	-0.122225	0.985582	-0.00767049	2.20959	0.156609	-9.35747	-0.00664252	0.0249671	-0.0256818	-0.500977	-0.142822	0.996094	0.950317	0.0155839	-0.19941	0.238517	4.25841	-0.759915	9.88081	0.01251	0.0104333	-0.00278791	-0.255615	-0.03125	-1.06885	0.793422	0.600278	-0.0567163	-0.0832529	-0.0675754	9.41932	2.66349	0.000142214	0.013677	-0.00383658	0.364746	-1.33057	-0.24707	-0.93099	-0.212282	0.190673	-0.227681	4.50098	3.01968	8.24696	-0.00394644	0.0130279	-0.00521227	-0.0979004	-0.535889	-0.95752	-0.848017	0.447977	0.103659	-0.263513	-0.626522	-9.31153	6.63455	0.00957415	0.018167	-0.01254	0.217285	0.908447	-0.796875	-0.0433084	-0.739182	-0.379092	0.554998	-9.45975	0.59717	-1.78646	0.0126606	0.0358833	-0.0138718	0.936035	-0.079834	0.690186	-0.923153	0.281261	0.229828	0.125931	5.45522	-4.59464	8.10072	-0.00333618	0.0234369	-0.0146163	-0.20874	0.5896	-0.878418	0.0132884	0.109863	0.973166	-0.201747	-0.732312	-3.72355	-8.3502	0.00816368	0.00321652	-0.0151523	-0.327637	0.461182	0.918457	0.638864	0.305551	-0.177793	0.683287	6.85993	2.40468	7.31516	0.0107789	0.0181747	0.00344929	-0.437012	-0.44873	-0.969727	-0.00929854	0.0746998	-0.99201	-0.101236	-0.288606	1.99738	-9.55844	0.00418471	0.00654138	-0.00923388	-0.458252	-0.162598	1.1145	
5	-0.0579918	-0.20707	0.97625	-0.0263694	1.04287	-0.164609	-8.47959	0.00614099	0.00958735	-0.00414789	-0.357422	-0.0905762	1.01147	-0.117009	-0.122379	0.985532	-0.00772056	2.24946	0.133012	-9.36885	-0.00361999	0.0225801	-0.027565	-0.498535	-0.149414	0.993896	0.950339	0.0156196	-0.199315	0.238506	4.24289	-0.782873	9.9233	0.00648469	0.0092589	-0.000783982	-0.253662	-0.0290527	-1.06885	0.793562	0.600104	-0.056581	-0.0832651	-0.0843191	9.4087	2.67895	-0.00650145	0.00967168	-0.00202988	0.360352	-1.33057	-0.244873	-0.931032	-0.212119	0.190569	-0.227748	4.46888	3.0653	8.25641	-0.00828232	0.0110652	-0.00928132	-0.102539	-0.53125	-0.964355	-0.84808	0.447889	0.103511	-0.263517	-0.623776	-9.297	6.64445	0.0088594	0.0169089	-0.0129173	0.217529	0.904053	-0.794678	-0.0417418	-0.739832	-0.37927	0.55413	-9.46978	0.600708	-1.79774	0.013612	0.0242098	-0.0140193	0.939941	-0.0710449	0.690186	-0.923125	0.281411	0.229772	0.125907	5.43293	-4.59384	8.0935	-0.00446526	0.0210154	-0.0152782	-0.213135	0.5896	-0.883057	0.0133371	0.109947	0.973144	-0.201803	-0.741578	-3.72137	-8.36776	0.00747092	0.00198269	-0.0137132	-0.325439	0.461182	0.92749	0.63885	0.305431	-0.177516	0.683426	6.85608	2.39993	7.32269	0.00626061	0.0192591	0.00378235	-0.427734	-0.459473	-0.974121	-0.00932041	0.0746632	-0.992008	-0.101285	-0.282192	1.9918	-9.5664	0.00269387	0.00639748	-0.0105116	-0.460449	-0.162842	1.1145	
6	-0.057949	-0.207119	0.976241	-0.0263924	1.02615	-0.180854	-8.46057	0.00209401	-0.00628734	-0.00404309	-0.353027	-0.0883789	1.01147	-0.117201	-0.122473	0.985497	-0.0077774	2.26182	0.150042	-9.34573	-0.00490107	0.020335	-0.0234219	-0.500732	-0.14502	0.998535	0.95035	0.0157168	-0.199248	0.238512	4.23218	-0.751402	9.90172	0.00848995	0.00641761	0.000164752	-0.253662	-0.0183105	-1.07129	0.793614	0.600046	-0.0564893	-0.0832499	-0.0948632	9.41389	2.68918	0.000854408	0.00783887	0.000430836	0.36499	-1.33276	-0.249268	-0.931064	-0.212035	0.190525	-0.227732	4.49932	3.05367	8.24786	7.35071e-05	0.00938372	-0.0109218	-0.0981445	-0.533447	-0.966553	-0.848106	0.447846	0.103422	-0.263543	-0.631744	-9.31506	6.64267	0.00700194	0.0137597	-0.0127186	0.217285	0.908447	-0.799072	-0.0416741	-0.739828	-0.379247	0.554156	-9.47131	0.597274	-1.8332	0.0133894	0.00866224	-0.0144315	0.937988	-0.079834	0.688232	-0.923181	0.281367	0.229495	0.126098	5.43031	-4.61621	8.08632	0.00265633	0.0228688	-0.0141439	-0.206543	0.587646	-0.890137	0.0133561	0.11	0.97313	-0.201842	-0.743032	-3.70551	-8.37917	0.00915264	0.00337513	-0.0134996	-0.325684	0.470215	0.929443	0.638735	0.305308	-0.177236	0.683661	6.85038	2.42242	7.35793	0.00292015	0.0153697	0.00590685	-0.43457	-0.452881	-0.971924	-0.00935216	0.0746441	-0.992009	-0.101282	-0.28146	2.00668	-9.57609	0.00467297	0.00469206	-0.0104943	-0.462646	-0.160645	1.1167	
7	-0.0578374	-0.207174	0.976237	-0.0263717	1.03829	-0.157678	-8.46948	0.00238884	-0.00483253	-0.00452299	-0.353027	-0.0905762	1.01147	-0.117375	-0.122534	0.985468	-0.00778841	2.23924	0.152314	-9.36073	-0.00750262	0.0188218	-0.0227934	-0.498535	-0.14502	0.996094	0.950354	0.0156589	-0.199256	0.238494	4.25704	-0.770689	9.90318	0.00281302	0.00647302	0.000776213	-0.253662	-0.0246582	-1.06445	0.79364	0.600012	-0.0564819	-0.0832564	-0.102601	9.40943	2.68427	-0.000122773	0.00521027	-2.86713e-05	0.364502	-1.32617	-0.249268	-0.931077	-0.211999	0.19056	-0.227683	4.47736	3.05896	8.26618	-0.00447252	0.00557862	-0.012352	-0.100098	-0.535645	-0.96875	-0.848115	0.447818	0.103451	-0.263547	-0.642409	-9.3175	6.64224	0.00253311	0.0112614	-0.0155266	0.212891	0.912598	-0.794922	-0.0418168	-0.739866	-0.379177	0.554143	-9.48845	0.603917	-1.86791	0.0153874	0.0149373	-0.015143	0.937988	-0.079834	0.69043	-0.923274	0.281096	0.229232	0.126504	5.43058	-4.60879	8.08951	0.00610121	0.0173474	-0.0163925	-0.20874	0.587646	-0.883057	0.0132614	0.109726	0.973112	-0.202081	-0.74382	-3.72198	-8.3686	0.00826313	0.00172486	-0.0137536	-0.325439	0.461182	0.925293	0.638624	0.305391	-0.177227	0.683729	6.8474	2.40384	7.34552	0.00357163	0.0107279	0.00778638	-0.434326	-0.457275	-0.969727	-0.00939052	0.0746028	-0.992006	-0.101338	-0.30178	1.99505	-9.57272	0.00185921	0.00506892	-0.0104086	-0.460693	-0.153809	1.11426	
8	-0.0577192	-0.207221	0.976235	-0.0263141	1.04523	-0.167764	-8.46896	-0.00071091	-0.00794262	-0.00349259	-0.35083	-0.0883789	1.01367	-0.117475	-0.122537	0.985456	-0.00777338	2.24976	0.165522	-9.38148	-0.00852018	0.0171208	-0.0206234	-0.500732	-0.147217	0.991699	0.950338	0.0157295	-0.199282	0.238531	4.24857	-0.744545	9.90429	0.00781922	0.0045635	0.000829678	-0.249268	-0.0334473	-1.06641	0.793656	0.599987	-0.0564851	-0.0832805	-0.0905979	9.40656	2.66644	0.00028503	0.00383041	-5.66537e-05	0.362549	-1.33276	-0.24707	-0.931065	-0.21205	0.190572	-0.227674	4.49429	3.06519	8.26609	0.00156954	0.0058094	-0.00959748	-0.0957031	-0.535645	-0.961914	-0.848075	0.447891	0.103484	-0.263539	-0.623886	-9.30208	6.65088	-0.00172222	0.0145811	-0.0142598	0.22168	0.908447	-0.794922	-0.0413113	-0.740015	-0.379151	0.553999	-9.468	0.603048	-1.80429	0.0160559	0.0157679	-0.0141751	0.933838	-0.079834	0.69458	-0.923274	0.281096	0.229232	0.126504	5.43058	-4.60879	8.08951	0.00610121	0.0173474	-0.0163925	-0.20874	0.587646	-0.883057	0.0132456	0.10962	0.973113	-0.202134	-0.745365	-3.72015	-8.3788	0.00505997	0.00168342	-0.0132992	-0.327637	0.458984	0.923096	0.638558	0.305442	-0.177224	0.683769	6.84777	2.40628	7.33822	0.00252051	0.0113931	0.00796189	-0.434814	-0.446289	-0.972168	-0.0094101	0.0745849	-0.992006	-0.101357	-0.293058	2.0056	-9.57327	0.00273341	0.00433568	-0.00999901	-0.460449	-0.162842	1.1145	
9	-0.0575786	-0.207304	0.976228	-0.0262441	1.02052	-0.169889	-8.47998	0.00067825	-0.00855903	-0.00508267	-0.348633	-0.0861816	1.00928	-0.117646	-0.122568	0.985432	-0.00778574	2.2215	0.151734	-9.37292	-0.0060262	0.0198743	-0.0225117	-0.500732	-0.14502	0.998535	0.950327	0.0156876	-0.199306	0.238555	4.25283	-0.774032	9.90022	0.00249077	0.00584569	4.81016e-05	-0.253662	-0.0268555	-1.06885	0.793642	0.60002	-0.0564433	-0.0832045	-0.0829747	9.42283	2.67926	0.00263709	0.00557169	0.0015659	0.360352	-1.32837	-0.249268	-0.931088	-0.211961	0.190604	-0.227637	4.48973	3.03134	8.2457	-0.00354937	0.00787593	-0.0127984	-0.104736	-0.53125	-0.971191	-0.848071	0.447913	0.103485	-0.263516	-0.622854	-9.31848	6.63589	0.00124458	0.0139055	-0.0158253	0.212646	0.914795	-0.797119	-0.0413113	-0.740015	-0.379151	0.553999	-9.468	0.603048	-1.80429	0.0160559	0.0157679	-0.0141751	0.933838	-0.079834	0.69458	-0.923271	0.281074	0.229175	0.126679	5.43997	-4.61142	8.07554	0.00400543	0.0158023	-0.0174449	-0.204346	0.589844	-0.885498	0.0133049	0.109662	0.973107	-0.202136	-0.742945	-3.71667	-8.37395	0.00581087	0.000185785	-0.0134661	-0.325439	0.458984	0.931885	0.638558	0.305442	-0.177224	0.683769	6.84777	2.40628	7.33822	0.00252051	0.0113931	0.00796189	-0.434814	-0.446289	-0.972168	-0.00940662	0.0745641	-0.992004	-0.10139	-0.279072	2.00423	-9.55318	0.00419949	0.00584814	-0.00906136	-0.458252	-0.162598	1.1167	
10	-0.0576062	-0.207357	0.976213	-0.0263071	1.04002	-0.16447	-8.47266	0.00303777	0.000594272	-0.00325751	-0.355225	-0.0905762	1.01367	-0.117733	-0.122598	0.985418	-0.00777764	2.24235	0.155007	-9.36605	-0.00712149	0.014997	-0.0215107	-0.500732	-0.147217	0.984619	0.95033	0.0158126	-0.199258	0.238578	4.25251	-0.748478	9.90534	0.00899519	0.00730394	8.97428e-05	-0.251465	-0.0268555	-1.07104	0.793676	0.59998	-0.0563986	-0.083193	-0.0852222	9.42168	2.68294	0.00128459	0.00707169	-0.000462983	0.366699	-1.32617	-0.249268	-0.931088	-0.211961	0.190604	-0.227637	4.48973	3.03134	8.2457	-0.00354937	0.00787593	-0.0127984	-0.104736	-0.53125	-0.971191	-0.848116	0.447837	0.103406	-0.26353	-0.628357	-9.30403	6.6641	0.00612736	0.0156133	-0.0141653	0.212891	0.9104	-0.792725	-0.0413113	-0.740015	-0.379151	0.553999	-9.468	0.603048	-1.80429	0.0160559	0.0157679	-0.0141751	0.933838	-0.079834	0.69458	-0.92327	0.281141	0.229141	0.126594	5.45698	-4.59234	8.09879	0.00347477	0.020083	-0.0161717	-0.206543	0.589844	-0.883057	0.0134363	0.109824	0.973092	-0.202114	-0.746548	-3.72037	-8.3614	0.00337755	0.00221578	-0.0138659	-0.322998	0.458984	0.925293	0.63845	0.305343	-0.176987	0.683976	6.84324	2.40292	7.33694	0.00501348	0.011801	0.00553005	-0.436523	-0.45752	-0.969727	-0.00939945	0.0745131	-0.992001	-0.101458	-0.290281	2.00402	-9.5502	0.00131558	0.00520536	-0.0101268	-0.458252	-0.1604	1.11206	
11	-0.0576781	-0.207375	0.976205	-0.0263328	1.03578	-0.174933	-8.47426	0.00257581	0.00363284	-0.00365057	-0.346436	-0.0905762	1.01367	-0.117769	-0.122623	0.98541	-0.00782028	2.267	0.152083	-9.36435	-0.00401031	0.0158025	-0.0222251	-0.50293	-0.147217	0.991699	0.950344	0.01583	-0.199221	0.238552	4.23898	-0.76611	9.89923	0.00636942	0.00819678	-0.00252526	-0.255859	-0.0290527	-1.07349	0.7937	0.599952	-0.0563166	-0.0832207	-0.104792	9.43363	2.67861	-0.000567152	0.00695056	-0.00228964	0.362549	-1.33057	-0.24707	-0.931221	-0.211907	0.19029	-0.227404	4.48632	3.04519	8.25632	-0.00172726	0.0112491	-0.0116569	-0.0959473	-0.53125	-0.966553	-0.848136	0.44782	0.103359	-0.263514	-0.617532	-9.32766	6.64666	0.0061255	0.0170482	-0.0139665	0.217285	0.908447	-0.794922	-0.0413113	-0.740015	-0.379151	0.553999	-9.468	0.603048	-1.80429	0.0160559	0.0157679	-0.0141751	0.933838	-0.079834	0.69458	-0.923271	0.281273	0.229017	0.126521	5.44505	-4.59789	8.07114	0.00144937	0.0234058	-0.0152032	-0.202393	0.591797	-0.876221	0.0134866	0.10987	0.973091	-0.202093	-0.757196	-3.72507	-8.37874	0.00416573	0.00138361	-0.0138648	-0.323242	0.46582	0.927246	0.63845	0.305343	-0.176987	0.683976	6.84324	2.40292	7.33694	0.00501348	0.011801	0.00553005	-0.436523	-0.45752	-0.969727	-0.00940695	0.0744855	-0.991998	-0.101503	-0.287886	2.00984	-9.57893	0.00380429	0.00541586	-0.0109008	-0.458252	-0.162598	1.1167	
12	-0.0578329	-0.207441	0.976181	-0.0263375	1.03355	-0.15935	-8.47003	-5.77106e-05	0.005981	-0.00499696	-0.348633	-0.0905762	1.01367	-0.117849	-0.122666	0.985395	-0.00789416	2.25677	0.16636	-9.37803	-0.00181577	0.0198819	-0.0234458	-0.504883	-0.151611	0.991699	0.950362	0.0158537	-0.199166	0.238524	4.25732	-0.746219	9.911	0.00669359	0.0101126	-0.00370951	-0.251465	-0.0249023	-1.06201	0.793741	0.599901	-0.0562718	-0.0832276	-0.0806558	9.42704	2.66527	-0.00309547	0.00705475	-0.00148084	0.362549	-1.33057	-0.24707	-0.93124	-0.211838	0.190297	-0.227385	4.49542	3.06226	8.27866	-0.00602731	0.00837229	-0.0110629	-0.102295	-0.535645	-0.964355	-0.848143	0.447818	0.103304	-0.263516	-0.627045	-9.31091	6.63654	0.00465509	0.0168351	-0.0123793	0.215088	0.9104	-0.794922	-0.0413113	-0.740015	-0.379151	0.553999	-9.468	0.603048	-1.80429	0.0160559	0.0157679	-0.0141751	0.933838	-0.079834	0.69458	-0.923279	0.281332	0.228941	0.126473	5.44194	-4.6161	8.09527	0.00348619	0.0235099	-0.0152862	-0.206543	0.587646	-0.885254	0.0135194	0.109917	0.97308	-0.202115	-0.741839	-3.72145	-8.35101	0.00739822	0.00238039	-0.0141717	-0.323242	0.46582	0.922852	0.638313	0.305124	-0.176537	0.684318	6.84909	2.41081	7.33963	0.00497074	0.0139762	0.0051857	-0.432373	-0.452881	-0.971924	-0.00942356	0.0744694	-0.991997	-0.101521	-0.287834	2.00184	-9.55073	0.00358568	0.00496764	-0.00992895	-0.460205	-0.165039	1.11206	
13	-0.0579381	-0.207538	0.976155	-0.0263215	1.03369	-0.171027	-8.48273	-0.000429358	0.00304983	-0.00508706	-0.353027	-0.0883789	1.01147	-0.118334	-0.123063	0.985288	-0.00779181	2.2557	0.170871	-9.35656	-0.00940997	0.0221605	-0.0249593	-0.500732	-0.147217	0.993896	0.950439	0.0161603	-0.198852	0.23846	4.23499	-0.752286	9.89949	0.0111064	0.00834277	-0.0037398	-0.249268	-0.0270996	-1.06665	0.793821	0.599819	-0.0560875	-0.0831806	-0.0920109	9.40783	2.70109	-0.00152824	0.00699672	-0.000198723	0.362549	-1.33057	-0.24707	-0.931243	-0.211831	0.190262	-0.22741	4.49932	3.08565	8.28111	0.00153371	0.00749886	-0.0110214	-0.0983887	-0.529053	-0.966553	-0.848312	0.447689	0.103079	-0.263278	-0.626231	-9.31529	6.65643	0.00460223	0.0179478	-0.0139917	0.213135	0.90625	-0.80127	-0.0393483	-0.740125	-0.379274	0.553911	-9.46326	0.604289	-1.81294	0.0161804	0.0108684	-0.014658	0.940186	-0.0776367	0.690186	-0.923362	0.281278	0.228578	0.126643	5.42759	-4.61556	8.10736	0.00288843	0.02292	-0.0160368	-0.206543	0.587646	-0.880615	0.0135216	0.109846	0.97307	-0.202204	-0.757929	-3.7197	-8.35728	0.0050032	0.00101486	-0.0134659	-0.320801	0.463623	0.922852	0.63826	0.305084	-0.176321	0.68444	6.84796	2.41903	7.33678	0.00580062	0.0146772	0.00385071	-0.436768	-0.453125	-0.965088	-0.00935726	0.0745878	-0.99199	-0.101517	-0.280286	1.99543	-9.55888	0.00332833	0.00657224	-0.00946915	-0.456055	-0.158203	1.1189	
14	-0.057969	-0.20758	0.976145	-0.0262775	1.02384	-0.17081	-8.47956	-0.00222458	-0.00059264	-0.00608397	-0.346436	-0.0883789	1.01367	-0.118447	-0.123106	0.985269	-0.00776112	2.21496	0.16027	-9.35301	-0.00804959	0.0144519	-0.0225454	-0.511719	-0.14502	0.998535	0.950426	0.0161613	-0.198861	0.238503	4.26699	-0.754321	9.91237	0.0093555	0.00525046	0.0023093	-0.253418	-0.03125	-1.06641	0.793851	0.599779	-0.0560755	-0.0831931	-0.094268	9.41857	2.69309	-0.00171106	0.00464906	-0.000448846	0.366943	-1.32837	-0.249268	-0.931274	-0.211719	0.190297	-0.227357	4.49017	3.04504	8.24603	-0.00483629	0.00757438	-0.0119456	-0.0981445	-0.53125	-0.966553	-0.848302	0.447728	0.103058	-0.263252	-0.626903	-9.31917	6.63575	0.00110317	0.0159124	-0.0152943	0.217529	0.904053	-0.790283	-0.0391275	-0.740273	-0.379222	0.553765	-9.46493	0.598883	-1.83096	0.0162061	0.0193759	-0.0144173	0.931641	-0.0776367	0.696533	-0.923362	0.281278	0.228578	0.126643	5.42759	-4.61556	8.10736	0.00288843	0.02292	-0.0160368	-0.206543	0.587646	-0.880615	0.0135265	0.109752	0.97307	-0.202251	-0.747999	-3.71738	-8.36833	0.00464638	0.00103043	-0.0130069	-0.322998	0.458984	0.923096	0.638239	0.305087	-0.176141	0.684505	6.83361	2.42289	7.33435	0.00647869	0.0129134	0.00304662	-0.429932	-0.455078	-0.962891	-0.00938311	0.0745531	-0.991991	-0.101523	-0.293121	2.00431	-9.56036	0.00422953	0.00447133	-0.0087169	-0.462891	-0.158203	1.12109	
15	-0.0579379	-0.207677	0.976124	-0.0263761	1.02702	-0.156865	-8.46435	0.00778816	0.000743276	-0.00318222	-0.35083	-0.0883789	1.01147	-0.118395	-0.123032	0.985283	-0.00796455	2.29166	0.151817	-9.38442	0.00320246	0.00675569	-0.0153866	-0.500732	-0.147217	0.989258	0.950422	0.016108	-0.198896	0.238491	4.25049	-0.743678	9.89912	-0.000647143	0.00455282	-0.000588349	-0.251465	-0.0268555	-1.06665	0.793899	0.599732	-0.0560076	-0.0831178	-0.0933429	9.41119	2.69917	-0.000919287	0.00439715	0.00109915	0.364746	-1.32837	-0.24707	-0.931289	-0.211704	0.190239	-0.227356	4.46993	3.06609	8.28239	0.00212596	0.00810814	-0.0108478	-0.100586	-0.526855	-0.97583	-0.848345	0.447644	0.102994	-0.263281	-0.632889	-9.32992	6.61851	0.0114593	0.0125709	-0.0124274	0.219482	0.908447	-0.80127	-0.0391275	-0.740273	-0.379222	0.553765	-9.46493	0.598883	-1.83096	0.0162061	0.0193759	-0.0144173	0.931641	-0.0776367	0.696533	-0.923555	0.280744	0.228119	0.127242	5.42711	-4.60621	8.09222	0.0087981	0.0189131	-0.0156095	-0.20874	0.587646	-0.883057	0.0135161	0.109643	0.973072	-0.202301	-0.744508	-3.72471	-8.36683	0.00500225	0.00144631	-0.013497	-0.323242	0.463379	0.92749	0.638213	0.305055	-0.176029	0.684573	6.85385	2.40263	7.36129	0.00089482	0.0123931	0.00523603	-0.430176	-0.450684	-0.962891	-0.00937108	0.0746637	-0.991981	-0.101546	-0.286764	2.00696	-9.57298	0.00211352	0.00412891	-0.0110359	-0.465088	-0.160645	1.11426	
16	-0.0578788	-0.207729	0.976111	-0.0265678	1.03589	-0.172308	-8.48029	0.00915885	-0.00694431	-0.00463219	-0.348633	-0.0883789	1.01147	-0.118385	-0.123118	0.985274	-0.00789051	2.29445	0.171873	-9.34952	-0.00886135	0.0101126	-0.0235199	-0.500977	-0.142822	0.991455	0.950443	0.01592	-0.198884	0.238433	4.2084	-0.812319	9.91033	-0.00477761	0.00659395	-0.00041545	-0.24707	-0.0314941	-1.06641	0.793927	0.599698	-0.0559813	-0.0831208	-0.0913018	9.42094	2.68535	-0.00132379	0.00630606	-0.000212872	0.369141	-1.32617	-0.244873	-0.93134	-0.211508	0.190192	-0.227369	4.47109	3.05479	8.29525	-0.00815124	0.0128859	-0.00607786	-0.09375	-0.53125	-0.966553	-0.848378	0.447581	0.102967	-0.263294	-0.644157	-9.29895	6.64896	0.00135027	0.0136906	-0.0143601	0.219727	0.901855	-0.796875	-0.0391275	-0.740273	-0.379222	0.553765	-9.46493	0.598883	-1.83096	0.0162061	0.0193759	-0.0144173	0.931641	-0.0776367	0.696533	-0.923508	0.280859	0.228196	0.127193	5.44521	-4.59482	8.09006	-0.000841972	0.0105971	-0.0168373	-0.20874	0.591797	-0.883057	0.0135908	0.109753	0.973057	-0.202312	-0.743244	-3.73119	-8.38471	0.00663791	0.00367571	-0.013776	-0.323242	0.463623	0.925049	0.638213	0.305055	-0.176029	0.684573	6.85385	2.40263	7.36129	0.00089482	0.0123931	0.00523603	-0.430176	-0.450684	-0.962891	-0.00936475	0.0746455	-0.991979	-0.101574	-0.292405	2.02035	-9.54635	0.00248195	0.00592836	-0.0095369	-0.462646	-0.162842	1.11206	
17	-0.057561	-0.207745	0.976128	-0.0265144	1.02671	-0.187442	-8.47939	-0.0020536	-0.013583	-0.00243052	-0.346436	-0.0883789	1.00928	-0.118264	-0.123098	0.985291	-0.00785195	2.27043	0.150348	-9.38982	-0.0100721	0.00848108	-0.0194256	-0.500732	-0.14502	0.991455	0.950437	0.016229	-0.198774	0.238528	4.22175	-0.677373	9.93273	0.0121508	0.00917708	-0.00140022	-0.253662	-0.0227051	-1.06665	0.794009	0.599584	-0.0559791	-0.0831548	-0.093786	9.40707	2.70367	-0.00357026	0.00293579	0.00173919	0.364746	-1.32837	-0.249268	-0.931287	-0.211825	0.190128	-0.227344	4.49228	3.05727	8.28331	0.0168525	0.00728593	-0.0162209	-0.0979004	-0.535645	-0.966553	-0.848375	0.447561	0.103018	-0.263319	-0.628769	-9.31874	6.65256	0.00399261	0.0104032	-0.0154974	0.215088	0.908447	-0.792725	-0.0371641	-0.740857	-0.379348	0.553033	-9.46326	0.610946	-1.84856	0.0159034	0.0208957	-0.0144695	0.929443	-0.079834	0.69458	-0.923564	0.280705	0.228117	0.127263	5.40819	-4.60714	8.1262	0.0101119	0.0157623	-0.0156277	-0.206299	0.585449	-0.885254	0.0136606	0.109857	0.973049	-0.20229	-0.743348	-3.71808	-8.33577	0.003488	0.00187402	-0.0125494	-0.321045	0.468018	0.925049	0.638213	0.305055	-0.176029	0.684573	6.85385	2.40263	7.36129	0.00089482	0.0123931	0.00523603	-0.430176	-0.450684	-0.962891	-0.0093531	0.0746117	-0.991978	-0.101614	-0.290065	2.01018	-9.54215	0.0033438	0.00588131	-0.00929677	-0.464844	-0.162842	1.1145	
18	-0.0574933	-0.207813	0.976122	-0.0263564	1.03254	-0.166569	-8.47653	-0.00526476	-0.00289484	-0.00572545	-0.353027	-0.0883789	1.01147	-0.11838	-0.1231	0.985278	-0.00778513	2.24913	0.153555	-9.39695	-0.0102094	0.0222902	-0.0228776	-0.502686	-0.149414	0.989258	0.95043	0.0159766	-0.198972	0.238408	4.31554	-0.773708	9.89203	0.000162383	0.000957134	-0.000592874	-0.249512	-0.0227051	-1.06909	0.793999	0.599582	-0.0560813	-0.0831957	-0.0894757	9.43429	2.66883	0.00223713	0.00177759	0.00206441	0.360352	-1.32837	-0.24707	-0.931324	-0.21159	0.190293	-0.227276	4.51174	3.01776	8.25844	-0.0135443	0.00395691	-0.0115787	-0.102539	-0.53125	-0.964355	-0.848385	0.447559	0.103024	-0.263288	-0.619642	-9.31863	6.62203	0.00305817	0.0145585	-0.0146109	0.217285	0.90625	-0.796875	-0.0371641	-0.740857	-0.379348	0.553033	-9.46326	0.610946	-1.84856	0.0159034	0.0208957	-0.0144695	0.929443	-0.079834	0.69458	-0.923714	0.280368	0.228054	0.127036	5.45217	-4.60445	8.11828	0.0275944	0.0246692	-0.0129831	-0.206543	0.589844	-0.885498	0.0137082	0.109945	0.973079	-0.202091	-0.750759	-3.73158	-8.35239	-0.0023688	0.00662098	-0.0150707	-0.320557	0.456787	0.923096	0.638001	0.304855	-0.175859	0.684903	6.83936	2.43675	7.35898	0.00204917	0.00784979	0.00653191	-0.436768	-0.453125	-0.967529	-0.00938103	0.0745823	-0.99198	-0.101614	-0.28776	2.00639	-9.56649	0.00614675	0.00619079	-0.00954846	-0.462646	-0.160645	1.1145	
19	-0.0575516	-0.207863	0.976109	-0.0262959	1.0291	-0.176821	-8.45823	-0.00390758	0.00118245	-0.00691351	-0.348633	-0.0905762	1.01147	-0.118477	-0.123152	0.98526	-0.00776003	2.2301	0.179117	-9.34137	-0.00965568	0.0202728	-0.0248418	-0.502686	-0.151611	0.989502	0.950437	0.0161911	-0.198932	0.238396	4.25007	-0.726187	9.88863	0.0225827	0.00450173	-0.00328865	-0.24707	-0.0270996	-1.06421	0.794022	0.599554	-0.0560374	-0.0832071	-0.0952669	9.41834	2.69386	-0.000790195	0.00702159	-0.00141288	0.362061	-1.31958	-0.251709	-0.931274	-0.211638	0.190317	-0.227414	4.46806	3.08823	8.24593	0.000561148	0.00676587	-0.00407087	-0.100342	-0.53125	-0.96875	-0.848371	0.447606	0.102988	-0.263266	-0.643125	-9.3057	6.65319	-0.000184481	0.0174551	-0.0139942	0.217285	0.9104	-0.794922	-0.0371641	-0.740857	-0.379348	0.553033	-9.46326	0.610946	-1.84856	0.0159034	0.0208957	-0.0144695	0.929443	-0.079834	0.69458	-0.923714	0.280368	0.228054	0.127036	5.45217	-4.60445	8.11828	0.0275944	0.0246692	-0.0129831	-0.206543	0.589844	-0.885498	0.0137082	0.109945	0.973079	-0.202091	-0.750759	-3.73158	-8.35239	-0.0023688	0.00662098	-0.0150707	-0.320557	0.456787	0.923096	0.63803	0.304582	-0.175975	0.684967	6.87238	2.41148	7.35636	-0.0093914	0.0132593	0.00704963	-0.430176	-0.450684	-0.967529	-0.00938544	0.0745754	-0.991991	-0.101506	-0.298424	2.00194	-9.58791	0.00976953	0.00850791	-0.0100733	-0.456055	-0.1604	1.1167	
20	-0.0576628	-0.207917	0.976091	-0.0263082	1.05272	-0.155445	-8.47226	0.00259229	0.000507521	-0.00391917	-0.350586	-0.0927734	1.01367	-0.118555	-0.123246	0.98524	-0.00762463	2.2857	0.167204	-9.31884	-0.0127689	0.0156488	-0.0246733	-0.500732	-0.147217	0.991699	0.950417	0.0162324	-0.19903	0.238391	4.21318	-0.76647	9.90278	-0.00654985	-6.91964e-05	0.000368398	-0.24707	-0.0270996	-1.05981	0.794126	0.599416	-0.0560169	-0.0832268	-0.108638	9.39711	2.71676	-0.00423899	0.00475138	0.000355873	0.366943	-1.33057	-0.251465	-0.931263	-0.211615	0.190409	-0.227405	4.45193	3.09069	8.23055	-0.003405	0.00122622	-0.00920864	-0.0981445	-0.53125	-0.966553	-0.848351	0.447674	0.102957	-0.263228	-0.639943	-9.30176	6.67417	0.000952818	0.0150577	-0.0151577	0.219482	0.908447	-0.799072	-0.0371641	-0.740857	-0.379348	0.553033	-9.46326	0.610946	-1.84856	0.0159034	0.0208957	-0.0144695	0.929443	-0.079834	0.69458	-0.923934	0.279651	0.228045	0.127032	5.37599	-4.58924	8.09979	0.022065	0.0128882	-0.0183471	-0.206299	0.585449	-0.883057	0.0134233	0.109873	0.973158	-0.201771	-0.748221	-3.72961	-8.34295	-0.00308134	0.0105093	-0.0148641	-0.325439	0.463379	0.925049	0.637985	0.304595	-0.176091	0.684974	6.83674	2.43677	7.31541	-0.00412552	0.00711121	0.0100209	-0.43457	-0.452881	-0.971924	-0.00938593	0.0745602	-0.992	-0.101436	-0.290096	2.01228	-9.56502	0.0103455	0.00699594	-0.0100105	-0.458252	-0.162598	1.11206	
21	-0.0573045	-0.208002	0.976095	-0.0262575	1.02886	-0.165977	-8.47699	0.00297697	-0.0207471	-0.00559622	-0.344238	-0.0883789	1.01367	-0.118499	-0.123258	0.985245	-0.00755007	2.27017	0.156409	-9.35089	-0.0089558	0.00768183	-0.0196475	-0.502686	-0.153809	0.994141	0.950385	0.0162928	-0.199093	0.238465	4.24536	-0.743931	9.91038	0.00907423	0.00194795	0.00308079	-0.253662	-0.0268555	-1.07349	0.794074	0.599468	-0.0561373	-0.0832702	-0.0881849	9.42364	2.67648	0.00661571	0.00179272	0.00308702	0.362549	-1.33276	-0.255859	-0.931238	-0.211726	0.190505	-0.227324	4.49526	3.04364	8.25368	0.00529172	0.00450972	-0.0122439	-0.100342	-0.529053	-0.966553	-0.848298	0.44775	0.103056	-0.26323	-0.633978	-9.30649	6.66531	-0.00457486	0.00952373	-0.0158003	0.215332	0.90625	-0.794678	-0.0371641	-0.740857	-0.379348	0.553033	-9.46326	0.610946	-1.84856	0.0159034	0.0208957	-0.0144695	0.929443	-0.079834	0.69458	-0.923964	0.279448	0.228259	0.126872	5.41565	-4.578	8.10608	0.014382	0.00975058	-0.0175478	-0.212891	0.585205	-0.878418	0.0133918	0.110012	0.97319	-0.201543	-0.746899	-3.71271	-8.3655	-0.00464219	0.00704471	-0.0136352	-0.318359	0.461426	0.923096	0.637835	0.304584	-0.176178	0.685096	6.81503	2.41241	7.3208	-0.00011751	0.0058123	0.010423	-0.430176	-0.450684	-0.967529	-0.00936457	0.0746732	-0.992015	-0.101202	-0.295719	2.00247	-9.57082	0.00900946	0.00375692	-0.00911261	-0.462646	-0.160645	1.1145	
22	-0.0569261	-0.208014	0.976118	-0.0261487	1.0209	-0.166325	-8.47795	-0.000954614	-0.0156436	-0.00352983	-0.346436	-0.0883789	1.01587	-0.118411	-0.123264	0.985256	-0.00747846	2.23864	0.180709	-9.3655	-0.00769616	0.00813401	-0.0199326	-0.498291	-0.153809	0.991699	0.950346	0.0161192	-0.199268	0.238486	4.27205	-0.7542	9.89236	-0.00325422	0.00217541	0.000406036	-0.24707	-0.0292969	-1.06885	0.794098	0.599421	-0.056262	-0.0832855	-0.0934004	9.41799	2.71447	0.000785984	0.00233691	0.00362438	0.366699	-1.32617	-0.251465	-0.931212	-0.211799	0.190619	-0.227265	4.50555	3.05508	8.27228	-0.0039889	0.00150901	-0.014076	-0.09375	-0.533447	-0.961914	-0.84823	0.447872	0.103186	-0.26319	-0.628891	-9.31668	6.63354	-0.00441405	0.0123861	-0.0176899	0.217041	0.916992	-0.799316	-0.0371641	-0.740857	-0.379348	0.553033	-9.46326	0.610946	-1.84856	0.0159034	0.0208957	-0.0144695	0.929443	-0.079834	0.69458	-0.923947	0.279423	0.228382	0.126831	5.43444	-4.58391	8.11179	0.0110676	0.00967111	-0.0198362	-0.212891	0.583252	-0.878174	0.0134139	0.110094	0.973203	-0.201433	-0.743113	-3.71071	-8.3564	-0.00291472	0.00505339	-0.0123139	-0.323242	0.463623	0.925049	0.637602	0.304765	-0.17625	0.685214	6.85789	2.41621	7.33011	0.00152978	0.00547534	0.0103298	-0.436768	-0.453125	-0.971924	-0.00936892	0.0746597	-0.992023	-0.101139	-0.290386	1.99641	-9.55535	0.00721796	0.00726195	-0.0104506	-0.460693	-0.158203	1.1167	
23	-0.0569179	-0.208075	0.976107	-0.0260778	1.01249	-0.169921	-8.46637	-0.000516893	0.00157152	-0.00565656	-0.35083	-0.0883789	1.01562	-0.118379	-0.123257	0.985261	-0.00737791	2.25231	0.182946	-9.38991	-0.0102611	0.0121952	-0.0226131	-0.498291	-0.151611	0.989258	0.950333	0.0161821	-0.199275	0.238526	4.25913	-0.765084	9.89102	0.00976766	0.00310149	0.00220485	-0.253662	-0.0268555	-1.06421	0.794094	0.599425	-0.0562913	-0.0832774	-0.0841109	9.4135	2.68244	0.00303446	0.00570465	0.00167199	0.360352	-1.33276	-0.249268	-0.931198	-0.211881	0.190618	-0.227249	4.52063	3.06684	8.25094	0.0101361	0.00879624	-0.00939693	-0.0981445	-0.53125	-0.964355	-0.848222	0.447879	0.103248	-0.263179	-0.619357	-9.3256	6.6163	0.00512628	0.0126607	-0.0142498	0.215088	0.908447	-0.796875	-0.0371641	-0.740857	-0.379348	0.553033	-9.46326	0.610946	-1.84856	0.0159034	0.0208957	-0.0144695	0.929443	-0.079834	0.69458	-0.92402	0.279075	0.228456	0.12693	5.43445	-4.57143	8.10012	0.0113167	0.01248	-0.0181415	-0.204346	0.585449	-0.883057	0.013332	0.110068	0.973251	-0.201222	-0.738314	-3.70198	-8.36817	0.00113558	0.00396884	-0.0120925	-0.325439	0.463379	0.92749	0.637534	0.304973	-0.176321	0.685166	6.85353	2.40689	7.31749	0.00259403	0.00600355	0.00519187	-0.43457	-0.450684	-0.967529	-0.00930885	0.074621	-0.992024	-0.101161	-0.295882	1.99142	-9.56014	0.00310046	0.00678596	-0.00866915	-0.462891	-0.158447	1.10986	
24	-0.057038	-0.208143	0.976087	-0.0260409	1.01307	-0.171177	-8.48307	-0.000750569	0.000932274	-0.00585108	-0.346436	-0.0861816	1.00928	-0.118381	-0.123285	0.985258	-0.00736584	2.25689	0.174881	-9.33412	-0.00744493	0.01123	-0.0206848	-0.502686	-0.151611	0.998779	0.950365	0.0162593	-0.199136	0.23851	4.25872	-0.759568	9.90967	0.0134162	0.00784959	-0.00106345	-0.247314	-0.0227051	-1.06445	0.794132	0.599377	-0.0562609	-0.0832893	-0.0880109	9.41085	2.6911	-0.00268352	0.00567206	-0.00151342	0.360107	-1.32617	-0.251465	-0.931246	-0.211708	0.190621	-0.227209	4.49361	3.0038	8.2894	-0.00949857	0.009906	-0.011764	-0.0959473	-0.533447	-0.966553	-0.848239	0.447849	0.103237	-0.263181	-0.635986	-9.30347	6.64748	-0.000102279	0.0140477	-0.0147236	0.219238	0.9104	-0.80127	-0.0371641	-0.740857	-0.379348	0.553033	-9.46326	0.610946	-1.84856	0.0159034	0.0208957	-0.0144695	0.929443	-0.079834	0.69458	-0.924024	0.279085	0.228461	0.126871	5.43773	-4.57064	8.09523	0.00759828	0.0176372	-0.0166104	-0.208496	0.585449	-0.883057	0.0133838	0.110193	0.973243	-0.201186	-0.744283	-3.71576	-8.3745	0.00494616	0.00315202	-0.0140442	-0.320801	0.458984	0.929688	0.63753	0.305019	-0.176312	0.685152	6.85496	2.41533	7.33314	0.00382525	0.0122944	0.00370433	-0.436768	-0.453125	-0.969727	-0.00931983	0.0746179	-0.992022	-0.101183	-0.282019	1.99805	-9.56825	0.00297292	0.00474211	-0.0109657	-0.460693	-0.158203	1.1167	
25	-0.0571591	-0.208213	0.976063	-0.0260892	1.01802	-0.156541	-8.46769	0.00250621	0.00543743	-0.00588144	-0.344482	-0.0839844	1.00708	-0.118468	-0.123291	0.985247	-0.00734029	2.24933	0.169678	-9.37983	-0.00942125	0.0196855	-0.0204432	-0.502686	-0.153809	0.994141	0.950402	0.0162705	-0.199085	0.238405	4.26737	-0.747432	9.88444	0.00113221	0.00540679	-0.00224394	-0.247314	-0.0205078	-1.06665	0.794174	0.599324	-0.0562156	-0.0832963	-0.0921883	9.43167	2.69677	0.001799	0.00716623	-0.000798194	0.360352	-1.32837	-0.258057	-0.931245	-0.211727	0.19057	-0.227239	4.51199	3.06495	8.27674	-0.000367816	0.0106065	-0.00789778	-0.0961914	-0.529053	-0.964355	-0.848299	0.447764	0.103128	-0.263175	-0.61918	-9.32638	6.64398	0.0109959	0.0168655	-0.0127994	0.217285	0.9104	-0.794922	-0.0371641	-0.740857	-0.379348	0.553033	-9.46326	0.610946	-1.84856	0.0159034	0.0208957	-0.0144695	0.929443	-0.079834	0.69458	-0.924021	0.279159	0.228466	0.12672	5.4106	-4.56133	8.09918	0.00554717	0.0178736	-0.0139375	-0.202148	0.585449	-0.887695	0.0134173	0.110262	0.973234	-0.201191	-0.741093	-3.71578	-8.36445	0.00669608	0.002892	-0.0128477	-0.320801	0.463623	0.920654	0.637465	0.305038	-0.176084	0.685262	6.85136	2.42106	7.31636	0.00846454	0.0135999	0.00398778	-0.429932	-0.455078	-0.971924	-0.00935078	0.0746028	-0.992012	-0.101286	-0.285427	1.99258	-9.5563	0.00101711	0.00506695	-0.0106469	-0.465088	-0.158447	1.1167	
26	-0.0572372	-0.208228	0.976053	-0.0261677	1.02461	-0.153002	-8.47948	0.00607873	0.00565539	-0.00375537	-0.353027	-0.0883789	1.00928	-0.118468	-0.123291	0.985247	-0.00734029	2.24933	0.169678	-9.37983	-0.00942125	0.0196855	-0.0204432	-0.502686	-0.153809	0.994141	0.950418	0.0162986	-0.199048	0.238367	4.25562	-0.728044	9.8923	0.00848269	0.00768164	-0.00175263	-0.251465	-0.03125	-1.06885	0.794221	0.599279	-0.0561034	-0.0832446	-0.0844675	9.41429	2.68956	-0.00111588	0.00743827	-0.00053079	0.362549	-1.32837	-0.251465	-0.931278	-0.211615	0.190519	-0.227249	4.50937	3.05178	8.25236	-0.00784134	0.0142177	-0.00938603	-0.102539	-0.53125	-0.96875	-0.848337	0.447708	0.103066	-0.263172	-0.634383	-9.30061	6.65163	0.00970744	0.0166336	-0.0135039	0.215088	0.912598	-0.794922	-0.0331548	-0.740865	-0.379918	0.552885	-9.46094	0.612165	-1.82471	0.0143109	0.00935132	-0.0148589	0.935547	-0.0710449	0.692139	-0.924088	0.279092	0.22822	0.126822	5.43829	-4.57562	8.11129	0.00441022	0.0207471	-0.0120033	-0.199951	0.585449	-0.878418	0.0133825	0.110145	0.973229	-0.201283	-0.74627	-3.71123	-8.37854	0.00651182	0.00212644	-0.0143	-0.322998	0.461182	0.931885	0.637394	0.305061	-0.175729	0.68541	6.85693	2.42232	7.32227	0.0110674	0.0163616	0.00239073	-0.437012	-0.450928	-0.967529	-0.00933882	0.0745739	-0.99201	-0.101327	-0.287883	2.00195	-9.57759	0.00271081	0.00634539	-0.0105082	-0.464844	-0.162842	1.1189	
27	-0.0576231	-0.20828	0.976013	-0.0263965	1.02495	-0.158194	-8.45003	0.0073268	0.0151763	-0.00373292	-0.350586	-0.0927734	1.01147	-0.11888	-0.123632	0.985155	-0.00721405	2.27766	0.186619	-9.37241	-0.00659958	0.0185915	-0.0241786	-0.498291	-0.155762	0.994141	0.950447	0.0163908	-0.198943	0.238333	4.2397	-0.742501	9.8875	0.00527607	0.0084705	-0.00176501	-0.24707	-0.0292969	-1.06665	0.794308	0.599181	-0.055955	-0.0832217	-0.104569	9.41317	2.71066	-0.00351642	0.0114594	-0.0012012	0.364746	-1.32837	-0.249268	-0.931322	-0.211428	0.190443	-0.227309	4.48408	3.02821	8.25288	-0.00485397	0.0135753	-0.00830354	-0.0959473	-0.533447	-0.966553	-0.848348	0.447688	0.103012	-0.263189	-0.629175	-9.31553	6.65154	0.0064055	0.0161033	-0.0113413	0.22168	0.908447	-0.796875	-0.0330748	-0.74078	-0.37984	0.553058	-9.47822	0.620851	-1.84252	0.0171688	0.00285963	-0.0151656	0.935791	-0.0776367	0.692383	-0.924092	0.279253	0.228074	0.126707	5.40564	-4.58767	8.13142	0.000383388	0.0224481	-0.0147429	-0.202148	0.589844	-0.880859	0.0134066	0.110223	0.973208	-0.201338	-0.745487	-3.7157	-8.37137	0.00801301	0.00449304	-0.0156643	-0.325195	0.454346	0.925293	0.6374	0.305101	-0.175605	0.685418	6.84146	2.43911	7.32115	0.00613635	0.0168417	0.00329975	-0.436523	-0.45752	-0.969727	-0.00933175	0.074531	-0.99201	-0.101362	-0.287157	2.0018	-9.55418	0.00222618	0.00750639	-0.00908053	-0.462646	-0.160645	1.1167	
28	-0.0577846	-0.208337	0.975989	-0.0265087	1.03259	-0.176398	-8.45354	0.00360588	0.000757153	-0.00408078	-0.351074	-0.0861816	1.01562	-0.118955	-0.123661	0.985142	-0.00725377	2.28953	0.170639	-9.37245	-0.00567281	0.0147687	-0.0205124	-0.500732	-0.149414	0.989258	0.950455	0.0164312	-0.198908	0.23833	4.21635	-0.764984	9.92577	0.00759995	0.00626161	-7.56476e-05	-0.253662	-0.0268555	-1.07104	0.794377	0.599102	-0.0558543	-0.0832041	-0.0936353	9.40923	2.71591	-0.0010137	0.00709144	-0.000538056	0.358154	-1.33276	-0.251465	-0.931338	-0.211348	0.190398	-0.227355	4.47379	3.07844	8.25985	-0.00604173	0.00878778	-0.0105156	-0.0961914	-0.529053	-0.964355	-0.848459	0.447663	0.102774	-0.26297	-0.647241	-9.30084	6.65417	0.000347281	0.0150121	-0.0138731	0.219238	0.914795	-0.790771	-0.0332536	-0.740742	-0.379727	0.553175	-9.46841	0.615574	-1.84827	0.0189748	0.00319316	-0.0150304	0.935791	-0.0754395	0.696533	-0.924051	0.279483	0.228026	0.126579	5.40751	-4.57904	8.1142	-2.33705e-06	0.0166833	-0.0140978	-0.204346	0.589844	-0.890137	0.013361	0.110113	0.973198	-0.201448	-0.742944	-3.70822	-8.3669	0.00778343	0.00244644	-0.0137627	-0.323242	0.463379	0.929688	0.637384	0.305123	-0.175568	0.685432	6.8395	2.44473	7.34692	0.00306107	0.0156156	0.00452613	-0.43457	-0.455078	-0.967285	-0.00931863	0.0745097	-0.992007	-0.101407	-0.27191	2.0079	-9.56244	0.00358862	0.00561483	-0.0100944	-0.460693	-0.153809	1.11206	
29	-0.0577594	-0.208379	0.975982	-0.0264871	1.03764	-0.172359	-8.46553	0.000245877	-0.00432763	-0.00573514	-0.348633	-0.0905762	1.01587	-0.119022	-0.123653	0.985135	-0.00729451	2.2707	0.161935	-9.36983	-0.00578123	0.0166963	-0.0192701	-0.50708	-0.149414	0.994141	0.950446	0.0163797	-0.198958	0.238326	4.23877	-0.744327	9.90134	0.00128205	0.00379042	0.000986694	-0.255615	-0.0290527	-1.07104	0.794391	0.59908	-0.0558741	-0.083213	-0.0922909	9.39845	2.72401	0.00336034	0.00345877	0.00109145	0.366943	-1.33057	-0.253662	-0.931308	-0.211408	0.190443	-0.227385	4.49444	3.03058	8.23253	0.00600742	0.00498007	-0.010041	-0.0959473	-0.53125	-0.966553	-0.848427	0.44773	0.102819	-0.26294	-0.639605	-9.31732	6.65212	-1.78118e-06	0.012063	-0.0152624	0.223877	0.90625	-0.799072	-0.0331283	-0.740736	-0.379638	0.553251	-9.46226	0.615865	-1.85713	0.0173999	0.0080842	-0.0143056	0.933594	-0.0754395	0.690186	-0.924038	0.279549	0.228039	0.126505	5.3942	-4.59016	8.13985	0.00330723	0.0157001	-0.0149649	-0.201904	0.583252	-0.885254	0.013361	0.110113	0.973198	-0.201448	-0.742944	-3.70822	-8.3669	0.00778343	0.00244644	-0.0137627	-0.323242	0.463379	0.929688	0.637292	0.305023	-0.175552	0.685566	6.83551	2.44469	7.3446	-0.0019291	0.0115434	0.00732755	-0.434326	-0.459473	-0.967285	-0.00935033	0.074463	-0.992008	-0.101425	-0.287421	2.00062	-9.57132	0.00330673	0.00414741	-0.0102708	-0.460449	-0.162598	1.1189	
30	-0.0576019	-0.208569	0.975953	-0.0263887	1.03289	-0.171528	-8.46955	-0.0008432	-0.00530828	-0.00568046	-0.348633	-0.0905762	1.01367	-0.119005	-0.123674	0.985134	-0.00732056	2.25993	0.172197	-9.36034	-0.00446946	0.0108104	-0.0213098	-0.502686	-0.149414	0.991699	0.950449	0.0163581	-0.198956	0.238317	4.23164	-0.740046	9.91517	0.00635592	0.00688567	-0.000623718	-0.249512	-0.0227051	-1.06909	0.79434	0.599158	-0.0558558	-0.0831556	-0.094854	9.4152	2.70984	0.00514241	0.00484326	0.00163048	0.364746	-1.32837	-0.253662	-0.93129	-0.21147	0.190506	-0.227348	4.49411	3.03291	8.27772	0.000582639	0.00531817	-0.0126612	-0.0981445	-0.53125	-0.96875	-0.848433	0.447697	0.102883	-0.262954	-0.633294	-9.30462	6.65972	-0.000123977	0.0126252	-0.0149271	0.219727	0.904053	-0.794678	-0.0331283	-0.740736	-0.379638	0.553251	-9.46226	0.615865	-1.85713	0.0173999	0.0080842	-0.0143056	0.933594	-0.0754395	0.690186	-0.924093	0.279342	0.227875	0.126856	5.4183	-4.58609	8.13238	0.00504045	0.0140675	-0.0155539	-0.202148	0.587646	-0.885498	0.0132782	0.109888	0.973172	-0.201702	-0.746054	-3.69776	-8.36024	0.00976805	0.00124232	-0.0138168	-0.323242	0.463623	0.922852	0.637223	0.305033	-0.175713	0.685585	6.8445	2.42959	7.32627	-0.000927079	0.00967702	0.00912591	-0.434326	-0.457275	-0.969727	-0.0093745	0.0744391	-0.992008	-0.101441	-0.2962	2.00601	-9.55682	0.00271425	0.0063358	-0.0105072	-0.458252	-0.1604	1.1167	
31	-0.0575913	-0.208619	0.975943	-0.0263789	1.02886	-0.157441	-8.47889	0.00231092	-0.00250535	-0.00356782	-0.348633	-0.0861816	1.00928	-0.119007	-0.123692	0.985131	-0.00735018	2.27802	0.174542	-9.35394	-0.00613542	0.0141495	-0.0222805	-0.504883	-0.151611	0.989502	0.950446	0.0163379	-0.198982	0.238309	4.24918	-0.715727	9.90356	0.00107556	0.00550252	7.91275e-05	-0.249268	-0.0270996	-1.06665	0.794356	0.599136	-0.0558645	-0.083152	-0.083446	9.39386	2.71172	0.00374786	0.0051135	0.00132718	0.362549	-1.33276	-0.251465	-0.931279	-0.211483	0.190564	-0.227333	4.50442	3.05123	8.26762	-0.000658436	0.00689407	-0.00852348	-0.100342	-0.533447	-0.96875	-0.848413	0.447728	0.102959	-0.262935	-0.622019	-9.30885	6.66437	-0.0008158	0.011354	-0.0153088	0.215332	0.90625	-0.799072	-0.0323435	-0.740792	-0.379603	0.553248	-9.47019	0.60639	-1.83122	0.0172987	0.0109449	-0.0147083	0.935791	-0.0776367	0.692383	-0.924086	0.279348	0.227815	0.127006	5.41326	-4.58272	8.12445	0.00155954	0.0134461	-0.0155185	-0.202148	0.585449	-0.892334	0.0133224	0.110009	0.973153	-0.201726	-0.753457	-3.71493	-8.37529	0.00736751	0.00285729	-0.0137643	-0.325439	0.458984	0.929688	0.637147	0.304936	-0.175719	0.685697	6.84176	2.4283	7.34515	-0.0015178	0.0104849	0.007449	-0.432373	-0.450684	-0.969727	-0.00940144	0.0744065	-0.992009	-0.101454	-0.289981	2.00867	-9.56944	0.00329393	0.00482593	-0.0104419	-0.458496	-0.153809	1.1189	
32	-0.0575428	-0.208722	0.975923	-0.0264301	1.01473	-0.161656	-8.47826	0.00333719	-0.00251399	-0.00531597	-0.34668	-0.0839844	1.00928	-0.119255	-0.123917	0.985073	-0.0072949	2.25665	0.169276	-9.35674	-0.00592366	0.0160687	-0.0195342	-0.50708	-0.151611	0.996582	0.950454	0.0163374	-0.19894	0.238311	4.25704	-0.753628	9.90213	0.00287469	0.0043815	0.000138755	-0.24707	-0.0270996	-1.06665	0.794356	0.599136	-0.0558645	-0.083152	-0.083446	9.39386	2.71172	0.00374786	0.0051135	0.00132718	0.362549	-1.33276	-0.251465	-0.931316	-0.211493	0.190441	-0.227275	4.50704	3.04371	8.26821	0.000458194	0.0081907	-0.00918294	-0.0983887	-0.529053	-0.964355	-0.848504	0.447691	0.102903	-0.262725	-0.637644	-9.31262	6.64938	0.00397474	0.0125009	-0.0144511	0.212891	0.912598	-0.792725	-0.0323435	-0.740792	-0.379603	0.553248	-9.47019	0.60639	-1.83122	0.0172987	0.0109449	-0.0147083	0.935791	-0.0776367	0.692383	-0.924086	0.279348	0.227815	0.127006	5.41326	-4.58272	8.12445	0.00155954	0.0134461	-0.0155185	-0.202148	0.585449	-0.892334	0.0133224	0.110009	0.973153	-0.201726	-0.753457	-3.71493	-8.37529	0.00736751	0.00285729	-0.0137643	-0.325439	0.458984	0.929688	0.637147	0.304936	-0.175719	0.685697	6.84176	2.4283	7.34515	-0.0015178	0.0104849	0.007449	-0.432373	-0.450684	-0.969727	-0.00940144	0.0744065	-0.992009	-0.101454	-0.289981	2.00867	-9.56944	0.00329393	0.00482593	-0.0104419	-0.458496	-0.153809	1.1189	
33	-0.0577018	-0.208755	0.975902	-0.0265734	1.03875	-0.17011	-8.47797	0.00683054	0.00839756	-0.0038459	-0.35083	-0.0905762	1.00708	-0.119262	-0.123872	0.985078	-0.00731515	2.275	0.166298	-9.37533	-0.00681684	0.0130448	-0.0189578	-0.504883	-0.153809	0.989502	0.950466	0.0163186	-0.198928	0.238275	4.25652	-0.758639	9.90655	0.00251273	0.00642129	-0.00208873	-0.251465	-0.0290527	-1.07104	0.794377	0.59912	-0.0557993	-0.0831046	-0.0930911	9.42428	2.69341	0.000416818	0.00591522	-0.00123386	0.366699	-1.32617	-0.249268	-0.931324	-0.211435	0.190416	-0.227316	4.49805	3.05789	8.26283	-0.00428322	0.0106106	-0.00999525	-0.0961914	-0.526855	-0.961914	-0.848518	0.447661	0.102865	-0.262746	-0.629707	-9.30325	6.64966	0.0034684	0.0144686	-0.0121337	0.22168	0.90625	-0.79248	-0.0323435	-0.740792	-0.379603	0.553248	-9.47019	0.60639	-1.83122	0.0172987	0.0109449	-0.0147083	0.935791	-0.0776367	0.692383	-0.924036	0.279537	0.227781	0.12701	5.42227	-4.59464	8.10937	0.000935355	0.0143689	-0.0148272	-0.206299	0.581055	-0.878174	0.0134005	0.110039	0.973131	-0.201812	-0.757824	-3.7126	-8.37295	0.00745036	0.0020602	-0.0128436	-0.322998	0.461182	0.929688	0.637148	0.304726	-0.175751	0.685781	6.85502	2.41601	7.35006	-0.00434965	0.0146591	0.00435251	-0.430176	-0.450684	-0.965332	-0.00930526	0.0746331	-0.992002	-0.101371	-0.289428	2.0031	-9.56413	0.00413369	0.00580495	-0.0104574	-0.460449	-0.162842	1.1145	
34	-0.0577018	-0.208755	0.975902	-0.0265734	1.03875	-0.17011	-8.47797	0.00683054	0.00839756	-0.0038459	-0.35083	-0.0905762	1.00708	-0.119262	-0.123872	0.985078	-0.00731515	2.275	0.166298	-9.37533	-0.00681684	0.0130448	-0.0189578	-0.504883	-0.153809	0.989502	0.950466	0.0163186	-0.198928	0.238275	4.25652	-0.758639	9.90655	0.00251273	0.00642129	-0.00208873	-0.251465	-0.0290527	-1.07104	0.794409	0.599082	-0.0557593	-0.0831022	-0.101181	9.39529	2.71456	-0.00172628	0.00767535	-0.000196204	0.364502	-1.32617	-0.251465	-0.93133	-0.21138	0.190421	-0.227338	4.48296	3.05462	8.26928	-0.00385962	0.00892402	-0.00777377	-0.0961914	-0.524658	-0.964355	-0.84852	0.447672	0.102821	-0.262738	-0.642279	-9.30678	6.64763	0.00329904	0.0161422	-0.0134099	0.22168	0.90625	-0.799072	-0.0307432	-0.741032	-0.379502	0.553087	-9.46015	0.610794	-1.82369	0.0193605	0.0143056	-0.0141874	0.936035	-0.079834	0.692383	-0.924006	0.279643	0.227817	0.126932	5.40453	-4.59378	8.1146	0.000297378	0.013378	-0.013565	-0.204102	0.585449	-0.878418	0.0134395	0.11008	0.973131	-0.201786	-0.746485	-3.71313	-8.3739	0.00398818	0.00216701	-0.0147786	-0.320801	0.463623	0.925049	0.637179	0.304682	-0.175787	0.685763	6.83331	2.4202	7.33981	-0.00427069	0.0147816	0.00363243	-0.432129	-0.459473	-0.962646	-0.00931464	0.0746298	-0.992	-0.101386	-0.282097	2.00183	-9.55421	0.00383025	0.00536214	-0.0108915	-0.460693	-0.156006	1.1167	
35	-0.0580345	-0.208903	0.975849	-0.0266477	1.03692	-0.175202	-8.46556	0.000920896	0.00831292	-0.00498536	-0.344238	-0.0883789	1.01587	-0.119555	-0.124092	0.985015	-0.00730886	2.28646	0.146471	-9.33033	-0.0107266	0.0166854	-0.0188256	-0.50708	-0.149414	0.989258	0.950512	0.0163326	-0.198832	0.238173	4.23567	-0.768389	9.89066	0.00450629	0.00684444	-0.00474459	-0.249268	-0.03125	-1.06885	0.794447	0.599032	-0.055712	-0.0831309	-0.0892248	9.41527	2.71526	-6.91968e-05	0.00642625	-0.00176596	0.364746	-1.32837	-0.253662	-0.931323	-0.211373	0.1904	-0.22739	4.4745	3.05359	8.28004	-0.00133324	0.00875441	-0.00686538	-0.102539	-0.529053	-0.964355	-0.848541	0.447649	0.102761	-0.262733	-0.628114	-9.30204	6.6515	0.00643734	0.0138262	-0.0136709	0.215088	0.908447	-0.794678	-0.0307432	-0.741032	-0.379502	0.553087	-9.46015	0.610794	-1.82369	0.0193605	0.0143056	-0.0141874	0.936035	-0.079834	0.692383	-0.923973	0.279787	0.22784	0.126814	5.41161	-4.593	8.13819	0.00412036	0.0173299	-0.0162345	-0.208496	0.585449	-0.883057	0.0134702	0.110139	0.973122	-0.201795	-0.750695	-3.73315	-8.35976	0.0065484	0.00281765	-0.0137046	-0.316406	0.46582	0.925049	0.637194	0.304473	-0.175705	0.685863	6.84097	2.43734	7.3537	-0.00317702	0.0163932	0.0047774	-0.432129	-0.457275	-0.969727	-0.00932117	0.0745782	-0.992001	-0.101412	-0.280701	2.00865	-9.55926	0.00359442	0.00560091	-0.0100919	-0.465088	-0.160645	1.11206	
36	-0.0581004	-0.20899	0.97583	-0.0265197	1.03793	-0.164837	-8.45484	-0.00294015	-0.000953657	-0.00652677	-0.355225	-0.0905762	1.01367	-0.11965	-0.12409	0.985004	-0.00724484	2.2863	0.194302	-9.3459	-0.00861435	0.0163762	-0.0205275	-0.502441	-0.156006	0.989502	0.950541	0.0163985	-0.198715	0.238151	4.22241	-0.739856	9.90421	0.00550721	0.00669835	-0.00202464	-0.24707	-0.0314941	-1.06641	0.794433	0.599053	-0.0557073	-0.0831197	-0.0956091	9.40068	2.6968	0.00484948	0.00617992	0.00121777	0.364502	-1.32617	-0.255859	-0.931314	-0.211395	0.190448	-0.227369	4.47851	3.05246	8.26157	-0.00144564	0.0053364	-0.0107515	-0.0981445	-0.53125	-0.966553	-0.848624	0.447627	0.102708	-0.262521	-0.63056	-9.30313	6.65795	0.00349643	0.0124363	-0.0143049	0.215332	0.90625	-0.796875	-0.0307432	-0.741032	-0.379502	0.553087	-9.46015	0.610794	-1.82369	0.0193605	0.0143056	-0.0141874	0.936035	-0.079834	0.692383	-0.923927	0.279939	0.227881	0.126739	5.39334	-4.58334	8.11556	-0.00337023	0.0123992	-0.0132161	-0.204346	0.589844	-0.883057	0.0134545	0.110047	0.973114	-0.201887	-0.749356	-3.73153	-8.36435	0.00656204	0.00175366	-0.0134101	-0.318359	0.458984	0.929688	0.637139	0.304391	-0.175547	0.685991	6.83266	2.41678	7.34094	0.00299973	0.0144099	0.00502422	-0.432129	-0.459473	-0.969482	-0.00930819	0.0745461	-0.991996	-0.101491	-0.282181	2.00108	-9.57126	0.0022015	0.00509854	-0.00988281	-0.467285	-0.158447	1.10742	
37	-0.0581636	-0.209085	0.975808	-0.0264436	1.04408	-0.164848	-8.48041	-0.00242271	0.000615737	-0.00529547	-0.35083	-0.0905762	1.01587	-0.119566	-0.124018	0.985023	-0.00727014	2.28459	0.179309	-9.37313	0.000171162	0.00216863	-0.0151801	-0.500732	-0.14502	0.984375	0.950553	0.0164712	-0.198641	0.238158	4.24195	-0.742903	9.92664	0.00561872	0.00485471	-0.000716345	-0.251465	-0.0268555	-1.06885	0.794419	0.599078	-0.0557	-0.0830741	-0.0885394	9.40592	2.69901	0.00210982	0.00332769	0.00263603	0.366699	-1.32617	-0.253662	-0.931285	-0.211464	0.190465	-0.227408	4.49752	3.04989	8.2588	0.00191497	0.00793883	-0.00966701	-0.0959473	-0.53125	-0.964355	-0.848595	0.447684	0.102763	-0.262498	-0.636085	-9.32916	6.6508	0.000985876	0.0116821	-0.0158898	0.219482	0.908447	-0.794922	-0.0295242	-0.740767	-0.379387	0.553586	-9.46363	0.616408	-1.82466	0.0188274	0.00214972	-0.0141047	0.931641	-0.0776367	0.690186	-0.923994	0.279682	0.227775	0.127007	5.40345	-4.59674	8.11494	0.00728385	0.0123639	-0.0141888	-0.204346	0.585449	-0.883057	0.0133758	0.109781	0.973117	-0.202019	-0.756388	-3.72162	-8.36202	0.00571175	0.00175719	-0.0137127	-0.322998	0.461182	0.922852	0.637139	0.304391	-0.175547	0.685991	6.83266	2.41678	7.34094	0.00299973	0.0144099	0.00502422	-0.432129	-0.459473	-0.969482	-0.00932042	0.0745308	-0.991996	-0.101498	-0.278198	2.00673	-9.55974	0.00417623	0.00409233	-0.0100251	-0.453613	-0.1604	1.1145	
38	-0.058237	-0.209129	0.975792	-0.0265107	1.04357	-0.161529	-8.48354	0.00586738	0.00190069	-0.0042083	-0.353027	-0.0905762	1.01367	-0.119509	-0.123914	0.985043	-0.00731865	2.25379	0.16588	-9.31456	-0.00921783	0.0171296	-0.0178955	-0.505127	-0.147217	0.989258	0.950552	0.0162775	-0.198735	0.238096	4.25574	-0.722933	9.87207	-0.00263055	0.00668349	-0.00177961	-0.249268	-0.0292969	-1.06421	0.794432	0.599066	-0.055702	-0.0830382	-0.0897509	9.41655	2.70109	0.000829545	0.00356113	0.00189276	0.364746	-1.33057	-0.255859	-0.931278	-0.21147	0.19047	-0.227426	4.48397	3.07369	8.25305	-0.00353712	0.00704461	-0.0102569	-0.09375	-0.53125	-0.964355	-0.848587	0.447669	0.102815	-0.262527	-0.620056	-9.32496	6.65407	0.00418146	0.00825506	-0.0145353	0.212891	0.9104	-0.794922	-0.0295242	-0.740767	-0.379387	0.553586	-9.46363	0.616408	-1.82466	0.0188274	0.00214972	-0.0141047	0.931641	-0.0776367	0.690186	-0.923994	0.279682	0.227775	0.127007	5.40345	-4.59674	8.11494	0.00728385	0.0123639	-0.0141888	-0.204346	0.585449	-0.883057	0.0133758	0.109781	0.973117	-0.202019	-0.756388	-3.72162	-8.36202	0.00571175	0.00175719	-0.0137127	-0.322998	0.461182	0.922852	0.637139	0.304391	-0.175547	0.685991	6.83266	2.41678	7.34094	0.00299973	0.0144099	0.00502422	-0.432129	-0.459473	-0.969482	-0.00932042	0.0745308	-0.991996	-0.101498	-0.278198	2.00673	-9.55974	0.00417623	0.00409233	-0.0100251	-0.453613	-0.1604	1.1145	
39	-0.0581377	-0.209221	0.975774	-0.0266887	1.04744	-0.177317	-8.45396	0.00876343	-0.00737768	-0.00568574	-0.357422	-0.0905762	1.01147	-0.119208	-0.123823	0.985091	-0.00729082	2.29435	0.180926	-9.33137	-0.00797955	0.00448577	-0.0134852	-0.50293	-0.147217	0.989258	0.950562	0.0160811	-0.198718	0.238086	4.23372	-0.778927	9.90887	-0.00513174	0.00537046	0.000951016	-0.247314	-0.0205078	-1.06909	0.794453	0.599039	-0.0557204	-0.0830181	-0.0992995	9.40361	2.72018	0.00023879	0.00259452	0.0016694	0.364502	-1.32397	-0.253662	-0.931237	-0.211535	0.190451	-0.227549	4.42204	3.03046	8.27238	0.00816989	0.00714935	-0.00605589	-0.0981445	-0.53125	-0.964355	-0.84859	0.447624	0.102886	-0.262569	-0.639995	-9.29589	6.65643	0.0036933	0.00873539	-0.0151972	0.217285	0.9104	-0.80127	-0.0295242	-0.740767	-0.379387	0.553586	-9.46363	0.616408	-1.82466	0.0188274	0.00214972	-0.0141047	0.931641	-0.0776367	0.690186	-0.923954	0.27952	0.227889	0.127453	5.42414	-4.5887	8.10848	0.00278313	0.00544734	-0.0149223	-0.201904	0.583252	-0.873535	0.0132671	0.109591	0.97311	-0.202166	-0.748265	-3.71896	-8.35768	0.00743817	0.00465331	-0.0130367	-0.316162	0.463623	0.92749	0.636948	0.303839	-0.175044	0.686542	6.83422	2.42672	7.34603	0.00136895	0.0115256	0.00529637	-0.432373	-0.455078	-0.967285	-0.00914607	0.0750205	-0.991983	-0.101286	-0.287635	2.00664	-9.56205	0.00401313	0.00518953	-0.00978614	-0.460449	-0.162842	1.1145	
40	-0.0578996	-0.209246	0.975784	-0.0266419	1.03292	-0.170927	-8.47213	0.000254952	-0.0140092	-0.00267474	-0.355225	-0.0905762	1.00928	-0.119058	-0.123687	0.985126	-0.00726832	2.28816	0.172724	-9.39101	-0.00859937	0.00766717	-0.0153062	-0.502686	-0.151611	0.991699	0.95055	0.0160721	-0.198798	0.238066	4.2057	-0.701779	9.88992	-0.00903307	0.00118781	-0.000745669	-0.249268	-0.0249023	-1.07129	0.794447	0.599039	-0.0557764	-0.083041	-0.0944028	9.40098	2.71521	0.00343413	0.000675179	0.00225426	0.362549	-1.33057	-0.255859	-0.931155	-0.211804	0.190514	-0.227583	4.49832	3.09045	8.27624	0.00161734	0.000999561	-0.00946929	-0.100342	-0.533447	-0.96875	-0.848553	0.44766	0.103045	-0.262564	-0.609518	-9.31203	6.66234	-0.00270253	0.00929399	-0.0167434	0.217529	0.90625	-0.79248	-0.0295242	-0.740767	-0.379387	0.553586	-9.46363	0.616408	-1.82466	0.0188274	0.00214972	-0.0141047	0.931641	-0.0776367	0.690186	-0.923937	0.279571	0.227967	0.127325	5.38848	-4.60486	8.122	0.0063905	0.00994452	-0.0125923	-0.206543	0.587646	-0.887695	0.0133781	0.109684	0.973104	-0.202137	-0.747515	-3.72496	-8.37577	0.00160061	0.0016402	-0.0141395	-0.320801	0.461182	0.925293	0.636948	0.303839	-0.175044	0.686542	6.83422	2.42672	7.34603	0.00136895	0.0115256	0.00529637	-0.432373	-0.455078	-0.967285	-0.00916526	0.0750105	-0.991983	-0.10129	-0.29274	2.01392	-9.55509	0.00471304	0.00462794	-0.0104739	-0.464844	-0.162842	1.11206	
41	-0.0578624	-0.209284	0.975779	-0.0265868	1.02861	-0.163617	-8.4788	-0.00176612	-0.00638507	-0.00553332	-0.355225	-0.088623	1.01367	-0.119076	-0.123641	0.98513	-0.00727459	2.2679	0.16871	-9.41235	-0.00735095	0.0144058	-0.0163435	-0.500488	-0.151611	0.994141	0.950537	0.015853	-0.198963	0.237994	4.27834	-0.788589	9.88365	-0.0156168	-0.00328945	-0.000825877	-0.255859	-0.0246582	-1.06885	0.794435	0.599032	-0.0559504	-0.083084	-0.0761985	9.4249	2.68338	0.000798368	-0.00069711	0.0033637	0.360352	-1.32837	-0.258057	-0.931167	-0.211676	0.190625	-0.227558	4.50056	3.05449	8.22211	-0.0125856	0.00170629	-0.00927531	-0.0983887	-0.529053	-0.973389	-0.848508	0.447746	0.103078	-0.262552	-0.618751	-9.31764	6.61395	-0.00503086	0.0126543	-0.0146312	0.215088	0.9104	-0.792725	-0.0295242	-0.740767	-0.379387	0.553586	-9.46363	0.616408	-1.82466	0.0188274	0.00214972	-0.0141047	0.931641	-0.0776367	0.690186	-0.923973	0.279435	0.228135	0.127065	5.43869	-4.61628	8.11733	0.0208832	0.0125612	-0.0144972	-0.204346	0.5896	-0.878418	0.0134061	0.109739	0.973119	-0.202032	-0.762279	-3.72406	-8.35387	-0.0023999	0.00403234	-0.0140367	-0.320557	0.456787	0.92749	0.636882	0.303671	-0.17511	0.68666	6.84903	2.44046	7.37371	-0.00293133	0.00750206	0.00611401	-0.434326	-0.457275	-0.971924	-0.00919121	0.0749855	-0.991989	-0.101248	-0.294572	1.99582	-9.56283	0.00757469	0.00597084	-0.00956986	-0.460693	-0.158203	1.1167	
42	-0.0579429	-0.209324	0.975767	-0.0265404	1.04019	-0.179745	-8.4716	-0.00321798	0.00309516	-0.00632209	-0.350586	-0.0927734	1.00708	-0.119115	-0.123594	0.985132	-0.00718813	2.26217	0.19389	-9.35135	-0.0126215	0.0118593	-0.0189376	-0.504883	-0.151611	0.991699	0.950549	0.016072	-0.199002	0.237899	4.22002	-0.717895	9.89934	0.0136927	0.0015025	-0.0052343	-0.251465	-0.0268555	-1.07349	0.794413	0.599061	-0.0559511	-0.0830807	-0.0924605	9.40192	2.71202	0.00666816	0.0066567	0.000760928	0.364502	-1.32397	-0.251465	-0.931156	-0.211762	0.190599	-0.227544	4.50246	3.03843	8.26804	0.00372477	0.00401632	-0.00618288	-0.0981445	-0.53125	-0.96875	-0.848513	0.447754	0.103066	-0.262527	-0.627994	-9.30141	6.64703	0.00556883	0.0145822	-0.0135126	0.223877	0.904053	-0.794678	-0.0295242	-0.740767	-0.379387	0.553586	-9.46363	0.616408	-1.82466	0.0188274	0.00214972	-0.0141047	0.931641	-0.0776367	0.690186	-0.924034	0.279187	0.228329	0.126816	5.42093	-4.58455	8.10763	0.0202491	0.00976275	-0.0169677	-0.20874	0.587646	-0.885254	0.0133009	0.109848	0.973162	-0.201771	-0.754716	-3.73277	-8.35347	-0.00332323	0.0120988	-0.0158779	-0.327637	0.461182	0.931885	0.636877	0.303436	-0.175253	0.686731	6.86942	2.4074	7.34053	-0.00988446	0.0109342	0.00722672	-0.427734	-0.457275	-0.971924	-0.00918176	0.0749553	-0.992004	-0.101124	-0.297804	2.00372	-9.561	0.0100367	0.00755166	-0.0106777	-0.458252	-0.158203	1.11206	
43	-0.0580564	-0.209459	0.975733	-0.026468	1.03877	-0.160573	-8.45056	-0.000776333	-0.0100771	-0.00528362	-0.35083	-0.0883789	1.01562	-0.119103	-0.123523	0.985143	-0.00707142	2.29489	0.166093	-9.34103	-0.0115886	0.0111473	-0.0166259	-0.504883	-0.149414	0.989258	0.950517	0.0159262	-0.199179	0.237889	4.21832	-0.80814	9.91333	-0.0019955	-0.000423233	0.00265437	-0.253662	-0.0227051	-1.06445	0.794406	0.599064	-0.0560199	-0.0830877	-0.0955668	9.39978	2.71897	0.00484473	0.00253122	0.00182272	0.355713	-1.32617	-0.249268	-0.931113	-0.211783	0.190753	-0.227576	4.44658	3.06491	8.24001	0.00338554	0.000501586	-0.0128188	-0.104736	-0.533447	-0.966553	-0.848462	0.447841	0.103119	-0.262518	-0.625951	-9.28519	6.66194	-0.00605397	0.0116198	-0.0142078	0.215088	0.912598	-0.794922	-0.0295242	-0.740767	-0.379387	0.553586	-9.46363	0.616408	-1.82466	0.0188274	0.00214972	-0.0141047	0.931641	-0.0776367	0.690186	-0.924054	0.279062	0.22846	0.126709	5.37132	-4.58193	8.12085	0.0202345	0.0090336	-0.0175365	-0.206299	0.581055	-0.885254	0.0132309	0.10997	0.973202	-0.20152	-0.738223	-3.73091	-8.35591	-0.00389447	0.0083413	-0.0133855	-0.327881	0.463379	0.922852	0.636877	0.303436	-0.175253	0.686731	6.86942	2.4074	7.34053	-0.00988446	0.0109342	0.00722672	-0.427734	-0.457275	-0.971924	-0.00920016	0.0749279	-0.992015	-0.101036	-0.28253	1.99823	-9.56521	0.00726654	0.00586323	-0.0100895	-0.465088	-0.160645	1.11206	
44	-0.0576159	-0.209507	0.975754	-0.0262908	1.01965	-0.172199	-8.46119	-0.0016407	-0.0215038	-0.00368129	-0.355225	-0.0883789	1.00708	-0.119047	-0.123601	0.985141	-0.00691397	2.27056	0.171052	-9.35014	-0.00919381	0.00335739	-0.0141447	-0.502686	-0.153809	0.987061	0.950475	0.0157763	-0.199378	0.237902	4.24295	-0.732933	9.88876	-0.00491852	-0.00341828	0.00292776	-0.255859	-0.0268555	-1.06665	0.794318	0.599158	-0.0562259	-0.0831071	-0.0917693	9.4143	2.69835	0.00890674	-0.0018919	0.00378219	0.35791	-1.32617	-0.253662	-0.931026	-0.212046	0.190898	-0.227563	4.48565	3.0446	8.24613	0.0104084	-0.00261325	-0.0114873	-0.102783	-0.524658	-0.966553	-0.848342	0.448062	0.103353	-0.26244	-0.622102	-9.30928	6.62147	-0.00699578	0.00618151	-0.0199318	0.223877	0.908447	-0.790527	-0.0274323	-0.737729	-0.37924	0.557836	-9.48387	0.602341	-1.77433	0.0210302	-0.0235163	-0.0165105	0.939941	-0.0732422	0.679443	-0.924052	0.278743	0.228872	0.12668	5.43116	-4.57699	8.11676	0.012365	0.0037421	-0.0179082	-0.208496	0.585205	-0.878418	0.0132165	0.110098	0.973241	-0.20126	-0.744742	-3.71148	-8.35824	-0.00475763	0.00696814	-0.0136579	-0.321045	0.468018	0.929443	0.63662	0.303386	-0.175366	0.686963	6.8187	2.42118	7.33158	-0.000518176	0.0031019	0.00791539	-0.43457	-0.450684	-0.967529	-0.00922937	0.0748947	-0.992027	-0.100939	-0.289369	1.99134	-9.57037	0.010105	0.00481811	-0.00998535	-0.463135	-0.153809	1.11646	
45	-0.0573562	-0.20954	0.975765	-0.026186	1.04167	-0.171896	-8.45707	-0.000356148	-0.0111677	-0.00434391	-0.348633	-0.0905762	1.01587	-0.118748	-0.123385	0.985204	-0.00696485	2.26506	0.182067	-9.36799	-0.00165662	-0.0018794	-0.00966709	-0.498535	-0.147217	0.993896	0.950417	0.0156497	-0.199629	0.237932	4.25902	-0.755947	9.92092	0.00232289	-0.00220474	0.00169536	-0.249268	-0.0292969	-1.06665	0.794225	0.599265	-0.0564048	-0.0831073	-0.0860526	9.41821	2.68526	0.00707239	0.000658389	0.00449467	0.35791	-1.32837	-0.24707	-0.930972	-0.212229	0.191061	-0.227478	4.52872	3.04958	8.23937	-0.0011095	0.00021404	-0.0124303	-0.102539	-0.53125	-0.961914	-0.848263	0.448165	0.103537	-0.262445	-0.618474	-9.32349	6.6127	-0.00267276	0.00819753	-0.0151296	0.219482	0.908447	-0.794922	-0.0274323	-0.737729	-0.37924	0.557836	-9.48387	0.602341	-1.77433	0.0210302	-0.0235163	-0.0165105	0.939941	-0.0732422	0.679443	-0.92406	0.278583	0.22917	0.126433	5.44279	-4.54943	8.11992	0.0209231	0.00916031	-0.0153478	-0.206299	0.585449	-0.880615	0.0132187	0.110247	0.973268	-0.201046	-0.739654	-3.7106	-8.35908	-0.00230384	0.00755819	-0.0134382	-0.323486	0.468018	0.931885	0.636582	0.303526	-0.175483	0.686907	6.85889	2.41409	7.35397	0.00278711	-0.000343302	0.00593233	-0.43457	-0.452881	-0.969727	-0.00920377	0.0748842	-0.992036	-0.100854	-0.284386	2.00215	-9.56427	0.00666954	0.00804273	-0.0103301	-0.465088	-0.160645	1.1167	
46	-0.0572991	-0.209608	0.975754	-0.0261844	1.00402	-0.149107	-8.46472	0.0035219	-0.00293246	-0.00602366	-0.350586	-0.0949707	1.00928	-0.118488	-0.123232	0.985254	-0.00696415	2.24371	0.172171	-9.35838	-0.00440394	0.00526555	-0.0148851	-0.500488	-0.149414	0.993896	0.950406	0.0155146	-0.199732	0.237898	4.24951	-0.754605	9.86503	-0.00852738	0.00207654	-0.00082164	-0.253662	-0.0227051	-1.06226	0.794171	0.599329	-0.0564853	-0.0831032	-0.0739434	9.42703	2.65597	0.0039172	0.00113429	-0.00036755	0.364746	-1.33057	-0.251465	-0.930894	-0.212453	0.191115	-0.227542	4.51979	3.09161	8.24901	0.00650893	0.00450672	-0.00989049	-0.0981445	-0.533447	-0.961914	-0.848207	0.448263	0.103609	-0.262431	-0.623683	-9.3122	6.63648	-0.00348176	0.014111	-0.0145332	0.217529	0.904053	-0.796875	-0.0278285	-0.736368	-0.379136	0.559681	-9.48696	0.600336	-1.65433	0.0184361	-0.0546658	-0.0169375	0.944336	-0.0776367	0.679688	-0.924086	0.278448	0.229369	0.126184	5.4529	-4.56025	8.08206	0.0127481	0.0128062	-0.0136787	-0.204102	0.581055	-0.887695	0.0132558	0.110362	0.973276	-0.200943	-0.736242	-3.70153	-8.36061	0.00399769	0.00349875	-0.0144422	-0.320801	0.458984	0.925293	0.636458	0.303748	-0.175522	0.686914	6.84244	2.42036	7.30063	0.00556992	0.00709261	0.00475403	-0.43457	-0.455078	-0.967285	-0.00914919	0.0750123	-0.992032	-0.100805	-0.289297	1.99649	-9.56078	0.00414672	0.0057722	-0.0104542	-0.460449	-0.1604	1.1167	
47	-0.0573827	-0.209637	0.975743	-0.0261902	1.0133	-0.161387	-8.48069	0.00107483	0.0021154	-0.00387741	-0.343994	-0.0905762	1.01147	-0.118198	-0.123079	0.985307	-0.00708719	2.25269	0.174605	-9.34022	-0.00218474	0.0024829	-0.0146709	-0.50293	-0.14502	0.989258	0.950394	0.0155582	-0.199783	0.237898	4.25458	-0.726386	9.91436	0.00836542	0.00532829	-0.00156729	-0.253662	-0.0290527	-1.06885	0.794164	0.599335	-0.0565026	-0.0831193	-0.070353	9.40442	2.71515	0.0054374	0.00349417	0.00204254	0.362549	-1.32837	-0.251465	-0.930897	-0.212432	0.191124	-0.22754	4.50083	3.03525	8.26912	0.000604677	0.00729655	-0.0114812	-0.102539	-0.53125	-0.964355	-0.848187	0.448286	0.103681	-0.26243	-0.635862	-9.32905	6.62672	0.00304846	0.00981506	-0.0155117	0.215088	0.908447	-0.792725	-0.0278285	-0.736368	-0.379136	0.559681	-9.48696	0.600336	-1.65433	0.0184361	-0.0546658	-0.0169375	0.944336	-0.0776367	0.679688	-0.924111	0.278418	0.229467	0.125886	5.41996	-4.55469	8.10833	0.00905678	0.0128907	-0.0101801	-0.204102	0.583252	-0.883057	0.0133068	0.110465	0.973272	-0.200905	-0.723739	-3.70432	-8.37095	0.00489516	0.00274543	-0.0135793	-0.327881	0.46582	0.929443	0.636473	0.303896	-0.175512	0.686837	6.84475	2.43839	7.33189	0.00764142	0.01126	0.00352449	-0.434814	-0.448486	-0.967529	-0.00916638	0.0750128	-0.992026	-0.100862	-0.277239	1.99613	-9.54884	0.0027287	0.00628976	-0.0105063	-0.462646	-0.162842	1.1145	
48	-0.0574788	-0.209739	0.975712	-0.0262928	1.01464	-0.160943	-8.46375	0.00547551	0.00538076	-0.00569524	-0.348633	-0.0905762	1.01147	-0.118143	-0.122932	0.985332	-0.00714999	2.25567	0.164363	-9.38187	-0.00725372	0.0131469	-0.0150672	-0.496338	-0.14502	0.989258	0.950397	0.0155233	-0.199816	0.237862	4.26345	-0.739336	9.88432	0.000308317	0.00388069	-0.00290023	-0.253662	-0.0224609	-1.06909	0.794146	0.59936	-0.0564914	-0.0831146	-0.0814257	9.42248	2.67084	0.00508298	0.00609584	0.000333311	0.364502	-1.32397	-0.249268	-0.930856	-0.212512	0.191117	-0.227642	4.51896	3.07232	8.23561	0.00260083	0.00839747	-0.00747557	-0.100342	-0.533447	-0.966553	-0.848219	0.448231	0.103676	-0.262421	-0.609835	-9.32467	6.61183	0.00804772	0.0130255	-0.0158853	0.219482	0.908447	-0.78833	-0.0278285	-0.736368	-0.379136	0.559681	-9.48696	0.600336	-1.65433	0.0184361	-0.0546658	-0.0169375	0.944336	-0.0776367	0.679688	-0.924131	0.27842	0.229469	0.125729	5.44857	-4.56911	8.11242	0.0103106	0.0159649	-0.00953774	-0.206299	0.581055	-0.885254	0.0133448	0.110507	0.973268	-0.200896	-0.741186	-3.70762	-8.36771	0.00478931	0.00181091	-0.0143714	-0.327637	0.458984	0.92749	0.636504	0.303962	-0.175456	0.686793	6.85085	2.42755	7.35252	0.00775691	0.0136555	-0.000399047	-0.430176	-0.452881	-0.969727	-0.00916439	0.0749938	-0.992024	-0.100894	-0.29676	1.99197	-9.57387	0.00250625	0.00585017	-0.00953513	-0.462646	-0.162842	1.11206	
49	-0.0576578	-0.209771	0.975692	-0.0264122	1.01672	-0.162248	-8.46347	0.00813939	0.0140526	-0.00491656	-0.353027	-0.0883789	1.01367	-0.118062	-0.122785	0.985359	-0.00725747	2.26081	0.168063	-9.38057	-0.00339178	0.00890277	-0.015171	-0.504883	-0.151611	0.989502	0.950409	0.0155313	-0.199865	0.237773	4.23614	-0.763169	9.90608	0.00699271	0.00558769	-0.00364374	-0.255859	-0.0183105	-1.06689	0.794205	0.59929	-0.0563991	-0.0831214	-0.0774093	9.4138	2.69174	0.000608743	0.00825123	-0.000997916	0.36499	-1.33276	-0.249268	-0.930876	-0.212351	0.191101	-0.22772	4.49786	3.04445	8.25579	-0.00594499	0.0105947	-0.00732137	-0.0979004	-0.535645	-0.964355	-0.848251	0.448193	0.103573	-0.262424	-0.624569	-9.31422	6.65003	0.00873959	0.0163976	-0.011686	0.219238	0.912598	-0.794922	-0.0278285	-0.736368	-0.379136	0.559681	-9.48696	0.600336	-1.65433	0.0184361	-0.0546658	-0.0169375	0.944336	-0.0776367	0.679688	-0.924279	0.278183	0.229266	0.12554	5.41893	-4.58003	8.12064	0.0137566	0.0190597	-0.00954708	-0.210693	0.583252	-0.885254	0.0134525	0.11064	0.973244	-0.200932	-0.745704	-3.70243	-8.35637	0.0071883	0.00280053	-0.014612	-0.321045	0.46582	0.925049	0.636545	0.304152	-0.175165	0.686746	6.85262	2.43327	7.32975	0.00554755	0.0159506	-0.000578263	-0.43457	-0.452881	-0.974365	-0.00917532	0.0749397	-0.992026	-0.100918	-0.286353	2.00024	-9.575	0.00445163	0.00620869	-0.0100182	-0.465088	-0.158447	1.1167	
50	-0.0579904	-0.209829	0.975652	-0.0266915	1.03815	-0.163665	-8.47478	0.00902699	0.0142405	-0.00359132	-0.348633	-0.0905762	1.00928	-0.118023	-0.122727	0.985371	-0.00729309	2.27519	0.148353	-9.36433	-0.00450853	0.0096701	-0.0149495	-0.505127	-0.14502	0.989258	0.950417	0.0155072	-0.199921	0.237693	4.24056	-0.772847	9.88863	0.00197876	0.00239474	-0.00436411	-0.24707	-0.0270996	-1.06421	0.794223	0.599268	-0.0563829	-0.0831193	-0.088915	9.40658	2.69592	-3.44781e-05	0.00606051	0.000511675	0.362549	-1.32837	-0.251465	-0.930855	-0.212387	0.191082	-0.227792	4.4813	3.05078	8.26449	0.00355791	0.0090171	-0.00649389	-0.100098	-0.538086	-0.959717	-0.848269	0.448166	0.103539	-0.262423	-0.631816	-9.30926	6.64685	0.00642101	0.0147913	-0.0137826	0.213135	0.908447	-0.78833	-0.0278285	-0.736368	-0.379136	0.559681	-9.48696	0.600336	-1.65433	0.0184361	-0.0546658	-0.0169375	0.944336	-0.0776367	0.679688	-0.924322	0.278117	0.229249	0.125401	5.4136	-4.57563	8.11133	0.0153762	0.0191993	-0.0103911	-0.206543	0.587646	-0.883057	0.0134525	0.11064	0.973244	-0.200932	-0.745704	-3.70243	-8.35637	0.0071883	0.00280053	-0.014612	-0.321045	0.46582	0.925049	0.636545	0.304152	-0.175165	0.686746	6.85262	2.43327	7.32975	0.00554755	0.0159506	-0.000578263	-0.43457	-0.452881	-0.974365	-0.00916047	0.0749314	-0.992025	-0.10093	-0.289881	1.99442	-9.56313	0.00357461	0.00692683	-0.010435	-0.458496	-0.156006	1.11206	
51	-0.057984	-0.209851	0.975645	-0.0267762	1.0298	-0.162084	-8.45764	0.00430312	-0.00437509	-0.00334015	-0.348633	-0.0905762	1.01367	-0.117872	-0.122572	0.985408	-0.00735966	2.26555	0.175759	-9.35741	-0.00406514	0.00711359	-0.0143625	-0.50293	-0.14502	0.989258	0.950423	0.0154909	-0.199981	0.237621	4.24007	-0.77912	9.88394	0.00377861	0.0050979	-0.00174663	-0.249268	-0.0270996	-1.07104	0.794203	0.599291	-0.0564125	-0.0831253	-0.0925582	9.40425	2.70359	0.00666302	0.00300558	0.00136677	0.362549	-1.32837	-0.24707	-0.930815	-0.212495	0.191112	-0.227828	4.48071	3.07865	8.25309	0.00305269	0.00404184	-0.011798	-0.102295	-0.535645	-0.961914	-0.848261	0.448175	0.103589	-0.262416	-0.623298	-9.31678	6.63148	-0.00043797	0.00917146	-0.016654	0.212891	0.908447	-0.794678	-0.0278285	-0.736368	-0.379136	0.559681	-9.48696	0.600336	-1.65433	0.0184361	-0.0546658	-0.0169375	0.944336	-0.0776367	0.679688	-0.924449	0.277772	0.229171	0.12537	5.41173	-4.56828	8.12439	0.0178684	0.0151654	-0.0110785	-0.210449	0.581055	-0.885254	0.0134525	0.11064	0.973244	-0.200932	-0.745704	-3.70243	-8.35637	0.0071883	0.00280053	-0.014612	-0.321045	0.46582	0.925049	0.63656	0.304024	-0.174882	0.68686	6.83298	2.43695	7.3419	0.00347998	0.0129039	0.00118155	-0.436768	-0.453125	-0.969727	-0.00915964	0.0748964	-0.992026	-0.100954	-0.28807	1.99245	-9.56359	0.00336934	0.00580551	-0.00929052	-0.462646	-0.162842	1.1145	
52	-0.0579325	-0.209943	0.975631	-0.0266914	1.04371	-0.167404	-8.4689	-0.00182107	-0.0036659	-0.00492487	-0.346191	-0.0927734	1.00928	-0.117601	-0.122371	0.985465	-0.00740327	2.25482	0.160697	-9.37319	-0.00561846	0.00167904	-0.0126676	-0.498535	-0.147217	0.993896	0.950401	0.0154441	-0.200098	0.237614	4.24984	-0.750011	9.89688	0.0013539	0.00171193	0.000366573	-0.257812	-0.0268555	-1.06885	0.794185	0.599316	-0.0564438	-0.0830876	-0.0857112	9.41499	2.69153	0.00252941	0.00225442	0.00217663	0.357666	-1.32178	-0.24707	-0.930797	-0.212696	0.191063	-0.227755	4.49769	3.06131	8.24793	0.00700112	0.00303541	-0.0103273	-0.0979004	-0.535645	-0.961914	-0.848209	0.448237	0.103706	-0.262432	-0.626961	-9.31371	6.62599	-0.000810864	0.00741763	-0.0140928	0.212891	0.908447	-0.794678	-0.0278285	-0.736368	-0.379136	0.559681	-9.48696	0.600336	-1.65433	0.0184361	-0.0546658	-0.0169375	0.944336	-0.0776367	0.679688	-0.924559	0.277418	0.229175	0.125336	5.41682	-4.57337	8.13761	0.0182114	0.0120409	-0.0115501	-0.201904	0.581055	-0.887695	0.0133007	0.11006	0.973243	-0.201268	-0.743474	-3.70564	-8.36853	0.00649994	0.00076704	-0.0133695	-0.323242	0.463379	0.929688	0.63656	0.304024	-0.174882	0.68686	6.83298	2.43695	7.3419	0.00347998	0.0129039	0.00118155	-0.436768	-0.453125	-0.969727	-0.00914433	0.0750223	-0.992021	-0.100906	-0.28593	2.00275	-9.56275	0.00430724	0.00427693	-0.0105036	-0.453857	-0.158203	1.11426	
53	-0.0578624	-0.210069	0.975611	-0.0265626	1.03222	-0.156308	-8.46999	-0.00320817	-0.00475688	-0.00623004	-0.350586	-0.0927734	1.01147	-0.117302	-0.122186	0.985523	-0.00740403	2.25097	0.146	-9.37134	-0.00753544	0.000660204	-0.0122412	-0.50293	-0.147217	0.986816	0.950392	0.0154438	-0.200145	0.237609	4.25309	-0.769098	9.892	0.00173945	0.00124942	-0.00038062	-0.257812	-0.0290527	-1.06641	0.794106	0.599415	-0.0565413	-0.0830669	-0.0816574	9.42367	2.68622	0.00863146	0.00156893	0.0026326	0.362549	-1.32837	-0.251465	-0.930747	-0.212832	0.191158	-0.227754	4.49464	3.05823	8.26127	0.00376026	0.00250289	-0.0108093	-0.100342	-0.53125	-0.966553	-0.848196	0.448246	0.103815	-0.262413	-0.622621	-9.31379	6.62629	-0.00118121	0.0107741	-0.0166478	0.217041	0.912598	-0.792725	-0.0277074	-0.729661	-0.379031	0.568474	-9.53676	0.594664	-1.56279	0.0203252	-0.0569372	-0.0179627	0.959229	-0.072998	0.654053	-0.924651	0.277055	0.229255	0.125315	5.41396	-4.56841	8.13437	0.0184515	0.00904794	-0.0137254	-0.210693	0.583252	-0.894531	0.0132995	0.109954	0.97324	-0.201337	-0.744796	-3.70678	-8.37241	0.00566954	0.00105431	-0.0135083	-0.321045	0.46582	0.931885	0.636563	0.303867	-0.174766	0.686956	6.84173	2.43582	7.34546	0.000354918	0.00802031	0.00235941	-0.432373	-0.450684	-0.969727	-0.00914954	0.0749845	-0.992023	-0.100916	-0.294381	2.00232	-9.57821	0.00393881	0.00497987	-0.00939338	-0.462891	-0.156006	1.11206	
54	-0.0577427	-0.210133	0.975606	-0.0265178	1.02926	-0.165584	-8.46629	0.000317392	-0.0061216	-0.00349396	-0.35083	-0.0883789	1.01147	-0.117007	-0.121942	0.985589	-0.00739117	2.21644	0.159994	-9.3558	-0.00636644	0.00119248	-0.00998543	-0.498535	-0.147217	0.989258	0.949178	0.0144151	-0.204084	0.239171	4.25848	-0.758439	9.89574	0.00212502	0.000786862	-0.00112778	-0.249268	-0.0292969	-1.06665	0.794048	0.599481	-0.0566687	-0.0830566	-0.0874692	9.41942	2.7002	0.00548148	0.000101303	0.00407562	0.364502	-1.32617	-0.249268	-0.930692	-0.213003	0.191228	-0.22776	4.51088	3.07218	8.23877	0.00566544	0.00341132	-0.0115072	-0.0959473	-0.53125	-0.964355	-0.848127	0.44836	0.103954	-0.262387	-0.631119	-9.31948	6.62173	-0.00106541	0.0102198	-0.0169818	0.215332	0.90625	-0.796875	-0.0280181	-0.72884	-0.378872	0.569617	-9.56086	0.590163	-1.41606	0.0214232	-0.047904	-0.0170494	0.96167	-0.0773926	0.651855	-0.924706	0.276835	0.229444	0.125049	5.44193	-4.55716	8.11314	0.0191126	0.011151	-0.0141262	-0.206299	0.581055	-0.889893	0.0134482	0.110081	0.973234	-0.201289	-0.746375	-3.71032	-8.37066	0.00331228	-0.000337526	-0.0128063	-0.322998	0.458984	0.929688	0.63657	0.303934	-0.174797	0.686912	6.83389	2.4371	7.32182	0.00259514	0.00827159	0.00204949	-0.436768	-0.453125	-0.969727	-0.00916626	0.0749469	-0.99202	-0.100969	-0.283609	1.98629	-9.56501	0.00165049	0.00587362	-0.0097784	-0.460449	-0.162842	1.1167	
55	-0.0577684	-0.210124	0.975603	-0.0266412	1.03023	-0.166175	-8.48083	0.00662019	0.00203377	-0.00140362	-0.35083	-0.0905762	1.01367	-0.116727	-0.121706	0.985651	-0.00740352	2.23243	0.150188	-9.36243	-0.00675642	-4.09044e-05	-0.0111347	-0.496338	-0.14502	0.998535	0.9492	0.0144507	-0.204015	0.239141	4.2753	-0.760413	9.90364	0.00191903	0.00249659	-0.00203731	-0.253662	-0.0290527	-1.06665	0.793987	0.599555	-0.0567296	-0.0830636	-0.0756803	9.42754	2.69282	0.00625902	0.00437816	0.00138618	0.364502	-1.32617	-0.249268	-0.930663	-0.213129	0.191262	-0.22773	4.53611	3.0693	8.24754	0.00434811	0.00634103	-0.0114578	-0.0979004	-0.540039	-0.964355	-0.848145	0.448319	0.10399	-0.262386	-0.630454	-9.31502	6.63087	0.0056204	0.0126597	-0.01402	0.215088	0.9104	-0.794922	-0.0280181	-0.72884	-0.378872	0.569617	-9.56086	0.590163	-1.41606	0.0214232	-0.047904	-0.0170494	0.96167	-0.0773926	0.651855	-0.924741	0.276724	0.229516	0.124905	5.43165	-4.55628	8.12573	0.0192909	0.0125047	-0.0135865	-0.209961	0.570068	-0.887451	0.0135268	0.110131	0.973232	-0.201267	-0.763233	-3.72303	-8.3661	0.00406037	-0.000761871	-0.0132604	-0.325439	0.461182	0.920654	0.63657	0.303934	-0.174797	0.686912	6.83389	2.4371	7.32182	0.00259514	0.00827159	0.00204949	-0.436768	-0.453125	-0.969727	-0.00915441	0.0749297	-0.992015	-0.101032	-0.297014	1.99637	-9.54299	0.00223508	0.00743978	-0.00908308	-0.462646	-0.165039	1.1167	
56	-0.0579611	-0.210161	0.97558	-0.0267857	1.03231	-0.166895	-8.47216	0.00495535	0.00774195	-0.00265415	-0.353027	-0.0861816	1.00488	-0.116464	-0.121482	0.985709	-0.00746884	2.22005	0.17712	-9.35614	-0.00627878	0.00429446	-0.0113205	-0.498535	-0.14502	0.991455	0.949229	0.0145251	-0.203936	0.239089	4.25383	-0.776092	9.89354	0.00322151	0.00176765	-0.00381357	-0.257812	-0.0268555	-1.06885	0.793985	0.599554	-0.0567629	-0.0830712	-0.0976231	9.41402	2.67843	0.00282582	0.00273597	0.00228585	0.360352	-1.32837	-0.253662	-0.930685	-0.213197	0.191135	-0.227682	4.503	3.08204	8.2677	0.00240749	0.00744339	-0.0095356	-0.106934	-0.533691	-0.959717	-0.848115	0.448374	0.104021	-0.262375	-0.622507	-9.30695	6.62927	0.000497361	0.0134344	-0.0148771	0.215332	0.90625	-0.79248	-0.0281252	-0.7274	-0.37874	0.571537	-9.57714	0.583359	-1.38647	0.0188752	-0.0407663	-0.0163184	0.969971	-0.072998	0.647705	-0.924973	0.276045	0.229339	0.125013	5.42918	-4.54919	8.13627	0.0192821	0.0152451	-0.0112998	-0.208252	0.578857	-0.887451	0.0134909	0.109866	0.973242	-0.201362	-0.753173	-3.70828	-8.36903	0.0043393	0.000560322	-0.0132354	-0.325439	0.458984	0.923096	0.63657	0.303934	-0.174797	0.686912	6.83389	2.4371	7.32182	0.00259514	0.00827159	0.00204949	-0.436768	-0.453125	-0.969727	-0.00914651	0.074911	-0.992014	-0.101055	-0.286628	2.0052	-9.56741	0.00335507	0.00647752	-0.00946228	-0.455811	-0.162598	1.12134	
57	-0.0580306	-0.210176	0.975571	-0.0268176	1.04033	-0.160958	-8.45866	0.00285451	0.00353989	-0.00426614	-0.35083	-0.0861816	1.01147	-0.116314	-0.121296	0.98575	-0.0074889	2.21726	0.15076	-9.37466	-0.0087596	0.00707258	-0.0127347	-0.498779	-0.142822	0.993896	0.949262	0.0146282	-0.203814	0.239054	4.26352	-0.74973	9.87788	0.00650285	0.00272479	-0.00185729	-0.257812	-0.0268555	-1.06885	0.793979	0.599559	-0.0568005	-0.0830733	-0.0788284	9.42566	2.69896	0.0030124	0.00507703	0.0025282	0.362549	-1.32837	-0.249268	-0.930641	-0.213295	0.191171	-0.22774	4.52373	3.0689	8.23482	0.0065025	0.00651358	-0.00868387	-0.102539	-0.533691	-0.959717	-0.848124	0.44836	0.104032	-0.262366	-0.616773	-9.3107	6.62173	0.00371767	0.0134582	-0.0150628	0.219727	0.904053	-0.796875	-0.0281252	-0.7274	-0.37874	0.571537	-9.57714	0.583359	-1.38647	0.0188752	-0.0407663	-0.0163184	0.969971	-0.072998	0.647705	-0.924973	0.276045	0.229339	0.125013	5.42918	-4.54919	8.13627	0.0192821	0.0152451	-0.0112998	-0.208252	0.578857	-0.887451	0.0134909	0.109866	0.973242	-0.201362	-0.753173	-3.70828	-8.36903	0.0043393	0.000560322	-0.0132354	-0.325439	0.458984	0.923096	0.636721	0.303705	-0.174476	0.686955	6.83985	2.43898	7.31476	-0.00179903	0.0117812	-9.53867e-05	-0.429932	-0.457275	-0.962891	-0.00914989	0.0748892	-0.992014	-0.101073	-0.301658	2.00611	-9.5811	0.00440834	0.00516669	-0.0111592	-0.460449	-0.162842	1.1145	
58	-0.0581452	-0.21026	0.975547	-0.0268104	1.04282	-0.156276	-8.47611	-0.000337393	0.0033689	-0.00498557	-0.355225	-0.0861816	1.00708	-0.116314	-0.121296	0.98575	-0.0074889	2.21726	0.15076	-9.37466	-0.0087596	0.00707258	-0.0127347	-0.498779	-0.142822	0.993896	0.949262	0.0146282	-0.203814	0.239054	4.26352	-0.74973	9.87788	0.00650285	0.00272479	-0.00185729	-0.257812	-0.0268555	-1.06885	0.793977	0.599558	-0.0568062	-0.0830909	-0.0846958	9.41104	2.68045	0.00259656	0.00378242	8.71103e-06	0.360352	-1.33057	-0.255859	-0.930627	-0.213301	0.19123	-0.227742	4.49508	3.08602	8.24223	-0.00179992	0.00372831	-0.0122311	-0.09375	-0.533447	-0.961914	-0.848113	0.448383	0.104035	-0.26236	-0.626062	-9.32653	6.626	0.000486717	0.0134398	-0.0148775	0.212891	0.9104	-0.792725	-0.0281252	-0.7274	-0.37874	0.571537	-9.57714	0.583359	-1.38647	0.0188752	-0.0407663	-0.0163184	0.969971	-0.072998	0.647705	-0.9251	0.275714	0.229224	0.125011	5.41158	-4.537	8.13984	0.0166973	0.0167886	-0.0113072	-0.205811	0.574463	-0.882812	0.0134813	0.109751	0.973244	-0.20142	-0.753599	-3.71273	-8.36226	0.00522436	0.00122939	-0.0137098	-0.325439	0.458984	0.925293	0.63674	0.303787	-0.174444	0.68691	6.8486	2.43598	7.34993	0.00512972	0.0108983	-0.000297991	-0.432373	-0.455078	-0.967285	-0.00914132	0.0748679	-0.992013	-0.101105	-0.287313	1.99638	-9.55626	0.00359872	0.00622908	-0.0102588	-0.458252	-0.158203	1.11426	
59	-0.0582699	-0.210338	0.975523	-0.0267729	1.04536	-0.159121	-8.47274	-0.00159153	0.00325959	-0.00495027	-0.346191	-0.0927734	1.00708	-0.116145	-0.121257	0.985774	-0.00748718	2.22804	0.164377	-9.38724	-0.000242124	-0.00332848	-0.0111895	-0.494141	-0.14502	0.989014	0.949297	0.0148058	-0.203681	0.239019	4.26266	-0.761498	9.92095	0.0112488	0.00390579	-0.00227276	-0.249268	-0.0227051	-1.06665	0.793924	0.599642	-0.0567818	-0.0829992	-0.0814019	9.41691	2.6964	0.00375005	0.00388607	0.00152241	0.366943	-1.32837	-0.249268	-0.930599	-0.213385	0.191265	-0.227751	4.50019	3.05051	8.23248	0.00584644	0.00280472	-0.010089	-0.0979004	-0.540039	-0.959717	-0.848096	0.448406	0.104113	-0.262346	-0.630233	-9.32291	6.62125	0.00237765	0.0108967	-0.0158339	0.215088	0.908447	-0.792725	-0.0281252	-0.7274	-0.37874	0.571537	-9.57714	0.583359	-1.38647	0.0188752	-0.0407663	-0.0163184	0.969971	-0.072998	0.647705	-0.925329	0.275139	0.229108	0.124793	5.41488	-4.57053	8.15986	0.0387967	0.0214192	-0.00935166	-0.208008	0.574463	-0.89209	0.0135776	0.109679	0.973241	-0.201465	-0.749264	-3.70637	-8.38729	0.00479073	0.000539855	-0.0138454	-0.320801	0.463623	0.92749	0.636877	0.303529	-0.174318	0.686928	6.83293	2.45937	7.34205	-0.00279486	0.0125339	-0.000410223	-0.429932	-0.455078	-0.967285	-0.00909665	0.0749738	-0.99201	-0.101053	-0.286459	2.0034	-9.56129	0.00420213	0.00558093	-0.00970196	-0.460693	-0.156006	1.11206	
60	-0.0583559	-0.210342	0.975516	-0.0268225	1.04589	-0.169472	-8.46859	0.00386321	0.00274026	-0.00139365	-0.351074	-0.0839844	1.00928	-0.116041	-0.121107	0.985804	-0.0075558	2.21295	0.119846	-9.37031	-0.00229048	0.00514398	-0.00778108	-0.498535	-0.147217	0.993896	0.949311	0.0146928	-0.203642	0.239003	4.26912	-0.737929	9.88842	-0.000274477	0.000886791	-0.000714955	-0.253662	-0.0268555	-1.06665	0.793899	0.599673	-0.0567911	-0.0830199	-0.0787649	9.4269	2.69463	0.00569477	0.0040222	0.000297803	0.366943	-1.32837	-0.253662	-0.930532	-0.213626	0.19124	-0.227818	4.51838	3.12952	8.24348	0.00469548	0.00479357	-0.0112783	-0.102295	-0.537842	-0.961914	-0.848088	0.448415	0.104159	-0.262338	-0.616781	-9.31437	6.63308	0.00144838	0.0124941	-0.0135479	0.215088	0.908447	-0.799072	-0.0281252	-0.7274	-0.37874	0.571537	-9.57714	0.583359	-1.38647	0.0188752	-0.0407663	-0.0163184	0.969971	-0.072998	0.647705	-0.925326	0.275078	0.229351	0.12451	5.4392	-4.5074	8.14942	-0.00111557	0.00052025	-0.0130082	-0.208252	0.57666	-0.887451	0.0135697	0.109579	0.973234	-0.201554	-0.765421	-3.72102	-8.35219	0.00646536	0.00133087	-0.0133693	-0.323486	0.468018	0.929443	0.636902	0.303548	-0.17439	0.686879	6.8454	2.41403	7.36325	-0.00381517	0.00881872	0.00217968	-0.436768	-0.453125	-0.965088	-0.00911691	0.0749543	-0.992009	-0.101076	-0.29368	1.99915	-9.5659	0.00279389	0.00422077	-0.00998243	-0.456055	-0.1604	1.1145	
61	-0.0582735	-0.210354	0.975515	-0.0269473	1.05668	-0.161506	-8.47572	0.00574275	-0.010718	-0.00227703	-0.348633	-0.0861816	1.00928	-0.115649	-0.121107	0.98585	-0.00756936	2.26685	0.154701	-9.34043	-0.00518911	-0.00461027	-0.0101201	-0.492188	-0.14502	0.996094	0.949336	0.0144043	-0.203661	0.238904	4.23726	-0.8171	9.87683	-0.0108144	0.00259852	-0.00187893	-0.253662	-0.0290527	-1.05957	0.793903	0.599662	-0.0568455	-0.0830206	-0.0912571	9.40676	2.71433	0.00223377	0.0017703	0.00206402	0.355713	-1.32837	-0.249268	-0.93052	-0.213593	0.191284	-0.227861	4.44573	3.04691	8.24536	0.00456224	0.0043901	-0.0059408	-0.09375	-0.53125	-0.959717	-0.848051	0.44846	0.104258	-0.262343	-0.635974	-9.30664	6.65486	0.000763056	0.00913281	-0.0177447	0.215332	0.90625	-0.79248	-0.0281252	-0.7274	-0.37874	0.571537	-9.57714	0.583359	-1.38647	0.0188752	-0.0407663	-0.0163184	0.969971	-0.072998	0.647705	-0.925366	0.274814	0.229527	0.124469	5.40543	-4.53869	8.14774	0.0150467	0.00442957	-0.0128015	-0.208008	0.572266	-0.889893	0.0135683	0.109508	0.973216	-0.20168	-0.7507	-3.70927	-8.3599	0.0078194	0.00107375	-0.012139	-0.320801	0.458984	0.923096	0.636879	0.303647	-0.174581	0.686808	6.81261	2.45337	7.32001	-0.00636928	0.00283315	0.00294335	-0.429932	-0.455078	-0.969727	-0.00908326	0.0750832	-0.992	-0.101071	-0.293153	2.007	-9.54736	0.00302011	0.00465351	-0.0109523	-0.462646	-0.160645	1.1145	
62	-0.0576936	-0.210374	0.975549	-0.0268071	1.02868	-0.17011	-8.46415	0.000114532	-0.0263932	-0.00307357	-0.35083	-0.0861816	1.01367	-0.115387	-0.12081	0.985918	-0.00746162	2.20665	0.144953	-9.44214	-0.0113095	0.00430554	-0.0083721	-0.496338	-0.147217	0.993896	0.949285	0.0145023	-0.203711	0.239058	4.24553	-0.686833	9.91361	-0.00962318	0.00109523	0.00185568	-0.253662	-0.0246582	-1.06665	0.793783	0.5998	-0.0571022	-0.0829911	-0.0780119	9.41632	2.66244	0.0116906	-0.00342003	0.00755869	0.36499	-1.33496	-0.253662	-0.93042	-0.213963	0.191355	-0.227863	4.54536	3.10352	8.24486	0.00833962	0.00110307	-0.00978683	-0.0981445	-0.53125	-0.959717	-0.848019	0.44849	0.104482	-0.262305	-0.589074	-9.30339	6.6331	-0.00167322	0.00807809	-0.0195134	0.215088	0.9104	-0.80127	-0.0271431	-0.724565	-0.378591	0.575271	-9.59112	0.586806	-1.32855	0.0191479	-0.0299585	-0.0160383	0.978516	-0.0708008	0.636963	-0.925386	0.274763	0.229596	0.124303	5.4113	-4.52508	8.14	0.0146934	0.0114955	-0.0102166	-0.204346	0.585449	-0.887695	0.0137338	0.109645	0.97321	-0.201625	-0.766388	-3.72533	-8.35915	0.00104138	-0.00080573	-0.0113119	-0.327881	0.46582	0.925049	0.636879	0.303647	-0.174581	0.686808	6.81261	2.45337	7.32001	-0.00636928	0.00283315	0.00294335	-0.429932	-0.455078	-0.969727	-0.00912624	0.0750593	-0.992	-0.101087	-0.291295	2.01174	-9.57631	0.0047783	0.00322037	-0.010114	-0.462646	-0.162842	1.1189	
63	-0.0577716	-0.210398	0.975538	-0.0268591	1.01794	-0.168061	-8.45896	0.00409796	0.00993417	-0.00452888	-0.353027	-0.0883789	1.00708	-0.115369	-0.120585	0.985948	-0.00748666	2.17794	0.130373	-9.40533	-0.00598646	0.014899	-0.0128358	-0.498779	-0.142822	0.993896	0.949236	0.0143022	-0.204008	0.239012	4.32086	-0.784463	9.90124	0.00784146	-0.00194437	-0.000209615	-0.253662	-0.0246582	-1.06445	0.793749	0.599842	-0.0571853	-0.0829609	-0.0604853	9.43261	2.67134	0.00399885	0.00102228	0.00334142	0.360107	-1.32617	-0.249268	-0.930411	-0.213846	0.19158	-0.227822	4.56346	3.05311	8.25788	-0.00332896	-7.57112e-05	-0.00724805	-0.100098	-0.535645	-0.966553	-0.847993	0.448524	0.104525	-0.262314	-0.60988	-9.32844	6.61257	0.0015968	0.0142695	-0.0138241	0.219482	0.908447	-0.792725	-0.027208	-0.723444	-0.378388	0.576811	-9.64498	0.581628	-1.23417	0.0234846	-0.0417088	-0.0176258	0.974365	-0.072998	0.636963	-0.925681	0.273866	0.229594	0.12409	5.46288	-4.5233	8.17299	0.0397905	0.0165817	-0.0143144	-0.210449	0.581055	-0.885254	0.0137997	0.10977	0.97323	-0.201454	-0.757546	-3.70683	-8.37312	-0.000844465	0.00453872	-0.0137675	-0.320801	0.463623	0.929688	0.636987	0.303348	-0.174781	0.686789	6.8627	2.44976	7.36001	-0.00730529	0.00533373	0.00149355	-0.427979	-0.450684	-0.967529	-0.00905671	0.0751797	-0.992002	-0.100985	-0.291877	1.99861	-9.56606	0.00628622	0.00667056	-0.0100933	-0.458252	-0.1604	1.11206	
64	-0.0579498	-0.210402	0.975522	-0.0269979	1.04848	-0.161096	-8.44318	0.0050188	0.00149458	-0.00317478	-0.346436	-0.0883789	1.01147	-0.115289	-0.120406	0.98598	-0.00740514	2.2273	0.152105	-9.33798	-0.0129551	0.00750695	-0.0149947	-0.500977	-0.140625	0.991455	0.949238	0.0144287	-0.203994	0.239009	4.26189	-0.748565	9.87867	0.0130429	-0.00231518	-0.00284356	-0.249268	-0.0270996	-1.07104	0.793729	0.599869	-0.0571805	-0.0829603	-0.0719404	9.41945	2.67169	0.0052919	0.00539501	0.000315199	0.360596	-1.33496	-0.249268	-0.930371	-0.213868	0.191647	-0.227909	4.51267	3.09975	8.24327	0.00207407	0.00319804	-0.00276107	-0.100098	-0.537842	-0.961914	-0.847987	0.448562	0.104476	-0.262289	-0.596646	-9.30035	6.61498	0.00102359	0.0176291	-0.0140985	0.213135	0.90625	-0.794678	-0.027208	-0.723444	-0.378388	0.576811	-9.64498	0.581628	-1.23417	0.0234846	-0.0417088	-0.0176258	0.974365	-0.072998	0.636963	-0.925786	0.273535	0.229638	0.123957	5.42313	-4.50437	8.16556	0.0377403	0.0187856	-0.0165746	-0.208252	0.574463	-0.894531	0.0137657	0.109836	0.97324	-0.201374	-0.760682	-3.71455	-8.35136	-6.3303e-05	0.00890459	-0.0141573	-0.320801	0.458984	0.92749	0.637019	0.303314	-0.174955	0.68673	6.85112	2.44919	7.29629	-0.0117111	0.00606859	0.00448897	-0.432129	-0.457275	-0.967285	-0.00902891	0.0751603	-0.992009	-0.100935	-0.288177	2.0069	-9.57742	0.00869091	0.0087254	-0.00947963	-0.462646	-0.160645	1.1167	
65	-0.0576413	-0.21044	0.975532	-0.0270219	1.03432	-0.155371	-8.46128	0.00515594	-0.0165067	-0.00391529	-0.348633	-0.0883789	1.00928	-0.115162	-0.12017	0.986024	-0.00732969	2.20002	0.132976	-9.36662	-0.0108921	0.00609525	-0.0103788	-0.498535	-0.14502	0.993896	0.94925	0.0143722	-0.203953	0.238999	4.23612	-0.791965	9.87145	-0.00210187	-0.00402953	0.000604732	-0.255859	-0.0246582	-1.06201	0.793689	0.599916	-0.0572418	-0.0829557	-0.0739251	9.38251	2.7121	0.00643696	0.00307141	0.00223978	0.360352	-1.32837	-0.253662	-0.930321	-0.21405	0.191758	-0.227845	4.51181	3.09463	8.24061	0.00690436	-0.000606672	-0.0115738	-0.102539	-0.533691	-0.959717	-0.847945	0.448646	0.104513	-0.262265	-0.623689	-9.30531	6.61689	-1.5781e-05	0.00874006	-0.015988	0.212891	0.9104	-0.792725	-0.027208	-0.723444	-0.378388	0.576811	-9.64498	0.581628	-1.23417	0.0234846	-0.0417088	-0.0176258	0.974365	-0.072998	0.636963	-0.925925	0.273035	0.229837	0.123654	5.39921	-4.49997	8.14593	0.0263192	0.011894	-0.0152341	-0.203613	0.57251	-0.894531	0.0137623	0.109991	0.973244	-0.201267	-0.748096	-3.70654	-8.36373	0.00261945	0.00360624	-0.0117595	-0.325439	0.458984	0.925293	0.637035	0.30339	-0.175247	0.686607	6.81179	2.44647	7.31138	-0.00467597	0.00423048	0.00480707	-0.437012	-0.450928	-0.965332	-0.00905111	0.0751381	-0.992021	-0.100829	-0.281931	1.99176	-9.55737	0.00816814	0.00511303	-0.00965176	-0.456055	-0.158203	1.1167	
66	-0.0572687	-0.210456	0.975552	-0.026942	1.02081	-0.164537	-8.48376	0.000779444	-0.0158377	-0.00251213	-0.35083	-0.0905762	1.00928	-0.114899	-0.11986	0.986093	-0.00725618	2.19628	0.146677	-9.40666	-0.00960021	0.00222025	-0.00806683	-0.496338	-0.14502	0.993896	0.949175	0.0142654	-0.204177	0.239111	4.29135	-0.753882	9.88852	-0.000787787	-0.00163246	0.00532738	-0.255859	-0.0202637	-1.06445	0.793568	0.600052	-0.0574559	-0.0829809	-0.0752169	9.42965	2.66497	0.0101555	-0.00275351	0.00540404	0.360352	-1.33057	-0.242676	-0.93024	-0.21425	0.191942	-0.227834	4.54104	3.08291	8.2456	0.00706903	-0.0012076	-0.0101455	-0.108887	-0.533447	-0.966553	-0.847871	0.448753	0.10469	-0.262251	-0.621719	-9.32663	6.62394	-0.00265868	0.00736008	-0.0172856	0.219238	0.912598	-0.792725	-0.027208	-0.723444	-0.378388	0.576811	-9.64498	0.581628	-1.23417	0.0234846	-0.0417088	-0.0176258	0.974365	-0.072998	0.636963	-0.92599	0.272751	0.230051	0.123391	5.45951	-4.51757	8.19237	0.0230397	0.00792372	-0.0163782	-0.208008	0.572266	-0.889893	0.0138631	0.110169	0.973285	-0.200963	-0.748411	-3.71	-8.39327	-0.00789345	0.00293441	-0.0118597	-0.318604	0.46582	0.929688	0.63711	0.303517	-0.17548	0.686422	6.85126	2.45108	7.3152	-0.0012871	0.00365815	0.000909778	-0.432129	-0.457275	-0.974121	-0.00912033	0.075124	-0.992032	-0.100729	-0.285588	2.00663	-9.58405	0.0109666	0.0030515	-0.0106797	-0.460449	-0.162842	1.1145	
67	-0.0571659	-0.21047	0.975556	-0.0269166	1.00735	-0.173345	-8.46012	0.00156298	-0.0107258	-0.00316146	-0.346191	-0.0905762	1.00708	-0.114787	-0.119702	0.986125	-0.00726719	2.19589	0.131874	-9.37422	-0.00677441	0.00378754	-0.00743383	-0.494141	-0.14502	0.996094	0.949098	0.0141478	-0.204501	0.239149	4.29201	-0.797274	9.89725	-0.000247488	-0.00398144	0.000575681	-0.258057	-0.0246582	-1.06445	0.79348	0.600155	-0.0576119	-0.0829644	-0.0617362	9.43756	2.67808	0.00686837	0.00133572	0.00450562	0.360352	-1.32837	-0.253662	-0.93024	-0.21425	0.191942	-0.227834	4.54104	3.08291	8.2456	0.00706903	-0.0012076	-0.0101455	-0.108887	-0.533447	-0.966553	-0.847802	0.448885	0.104818	-0.262198	-0.619324	-9.31675	6.61493	-0.0023278	0.0108923	-0.0178405	0.219727	0.904053	-0.79248	-0.026869	-0.7212	-0.378198	0.579755	-9.6183	0.571356	-1.19944	0.0190314	-0.035151	-0.0156027	0.985107	-0.0751953	0.630615	-0.92599	0.272751	0.230051	0.123391	5.45951	-4.51757	8.19237	0.0230397	0.00792372	-0.0163782	-0.208008	0.572266	-0.889893	0.0139081	0.110316	0.973311	-0.200757	-0.750207	-3.70534	-8.36403	-0.00224838	0.00459014	-0.0119375	-0.325439	0.458984	0.931885	0.637128	0.303675	-0.175613	0.686301	6.85221	2.41581	7.28394	0.00210963	0.00644894	0.00161831	-0.437012	-0.450928	-0.967529	-0.00909552	0.0751136	-0.992035	-0.100709	-0.278104	1.99058	-9.5876	0.00379387	0.00799792	-0.0115772	-0.465088	-0.160645	1.1167	
68	-0.0571504	-0.210491	0.975553	-0.0269002	1.02356	-0.167827	-8.4899	0.00177779	-0.00302357	-0.00313413	-0.348633	-0.0883789	1.00928	-0.114452	-0.119485	0.98619	-0.00725342	2.20603	0.165046	-9.36754	-0.00502049	0.000359988	-0.012134	-0.496582	-0.140625	0.998291	0.94911	0.0141633	-0.204488	0.23911	4.25864	-0.813951	9.86654	-0.00577512	-0.000987786	-0.00114173	-0.255859	-0.0224609	-1.06909	0.793403	0.600247	-0.0577227	-0.0829684	-0.0622513	9.42525	2.69154	0.0076377	0.00196637	0.00242798	0.355957	-1.33057	-0.242676	-0.930203	-0.214473	0.192009	-0.22772	4.49864	3.14904	8.22713	0.000741411	0.00355541	-0.0113348	-0.108887	-0.535645	-0.966553	-0.847804	0.448892	0.104848	-0.262166	-0.616458	-9.3249	6.6297	0.00522597	0.0132146	-0.0169443	0.219238	0.912598	-0.792725	-0.0270352	-0.720694	-0.378091	0.580445	-9.59986	0.558181	-1.13799	0.0178904	-0.0252378	-0.0166459	0.984619	-0.064209	0.628174	-0.92629	0.271687	0.230041	0.123506	5.41753	-4.47552	8.13345	0.0215981	0.0137047	-0.0156235	-0.203613	0.57251	-0.89209	0.0139778	0.110466	0.973318	-0.200633	-0.753492	-3.71483	-8.35185	0.00246	0.00220447	-0.0129439	-0.322998	0.461182	0.929688	0.63715	0.303918	-0.175722	0.686145	6.8434	2.43947	7.31261	0.00476344	0.00368916	-0.000568328	-0.43457	-0.452881	-0.965088	-0.00908118	0.0750931	-0.992032	-0.100757	-0.291045	2.00023	-9.56577	0.00276661	0.0055573	-0.0103292	-0.460449	-0.1604	1.11206	
69	-0.0569147	-0.210474	0.975574	-0.026775	0.99963	-0.164582	-8.45044	-0.00199441	-0.0135721	-0.00237069	-0.348633	-0.0905762	1.01367	-0.114284	-0.119357	0.986226	-0.00721526	2.17754	0.14538	-9.34471	-0.00996808	-0.000933732	-0.0110701	-0.494141	-0.14502	0.996094	0.949118	0.0140475	-0.204468	0.239105	4.30464	-0.73912	9.866	-0.000858721	0.00625075	-0.00151787	-0.255859	-0.0183105	-1.06909	0.793356	0.600292	-0.0578689	-0.0829918	-0.0498634	9.43381	2.66253	0.00466088	0.000175885	0.00157665	0.36499	-1.33276	-0.24707	-0.930213	-0.214684	0.191905	-0.227569	4.54119	3.08285	8.23228	0.00745495	0.00490326	-0.0136766	-0.106689	-0.533691	-0.95752	-0.847747	0.449001	0.104924	-0.262136	-0.605641	-9.34979	6.59808	-0.004139	0.0108761	-0.0154728	0.208496	0.9104	-0.792725	-0.0270352	-0.720694	-0.378091	0.580445	-9.59986	0.558181	-1.13799	0.0178904	-0.0252378	-0.0166459	0.984619	-0.064209	0.628174	-0.926324	0.271605	0.230088	0.123345	5.4217	-4.47624	8.17526	0.00732649	0.0172032	-0.0159698	-0.205566	0.568115	-0.889648	0.0141719	0.110609	0.973321	-0.200527	-0.764874	-3.69949	-8.3625	0.000351611	-0.00337107	-0.010198	-0.318359	0.461182	0.92749	0.637185	0.304005	-0.175746	0.686068	6.86319	2.4323	7.29438	0.00278628	0.0074336	-0.00114516	-0.439209	-0.450928	-0.965332	-0.00910774	0.075064	-0.992023	-0.100857	-0.281467	2.00214	-9.56173	-3.85259e-05	0.00522354	-0.0100968	-0.460693	-0.156006	1.1167	
70	-0.0570461	-0.210557	0.975549	-0.0267402	1.00928	-0.155161	-8.47455	0.000958054	0.0070386	-0.00585019	-0.353027	-0.0883789	1.01147	-0.114306	-0.119291	0.986232	-0.00703071	2.17683	0.162143	-9.38399	-0.00948047	0.014022	-0.0139495	-0.494629	-0.138428	0.993652	0.949121	0.0139097	-0.204465	0.239103	4.31066	-0.781909	9.88014	0.00368298	0.00461286	0.00270082	-0.255859	-0.0246582	-1.06885	0.79333	0.600327	-0.0578839	-0.082976	-0.0509926	9.44472	2.67361	0.00304463	0.00568285	0.0016501	0.362305	-1.32617	-0.24707	-0.930185	-0.214679	0.191992	-0.227614	4.55174	3.07691	8.22438	-0.00323686	0.00588479	-0.00953867	-0.102539	-0.533447	-0.964355	-0.84778	0.448935	0.10494	-0.262134	-0.592811	-9.31687	6.61006	0.00455959	0.0140144	-0.0135193	0.215088	0.908447	-0.790527	-0.0272105	-0.719779	-0.37769	0.581832	-9.64734	0.574883	-1.12125	0.0231629	-0.0262792	-0.0146234	0.991211	-0.0664062	0.624023	-0.926418	0.271416	0.229834	0.123529	5.43323	-4.48317	8.19591	0.00864326	0.0228912	-0.0156704	-0.207764	0.565918	-0.894287	0.0142831	0.110794	0.973324	-0.200402	-0.766395	-3.69384	-8.38288	-0.000326668	0.00230681	-0.00928519	-0.318604	0.46582	0.925049	0.637322	0.304101	-0.175453	0.685974	6.87798	2.44014	7.32678	0.00391551	0.0157471	-0.0043318	-0.429932	-0.455078	-0.969727	-0.00908588	0.0751885	-0.992009	-0.10091	-0.291957	2.00962	-9.56705	-5.0439e-05	0.00436703	-0.0105809	-0.460449	-0.162842	1.1145	
71	-0.0573138	-0.210593	0.975522	-0.0268706	1.00554	-0.153567	-8.46851	0.00600944	0.00880982	-0.00351092	-0.348633	-0.0883789	1.00928	-0.114404	-0.119083	0.986246	-0.00703398	2.17803	0.139313	-9.37988	-0.00811466	0.0176557	-0.0124157	-0.494629	-0.138428	0.993652	0.949123	0.0141082	-0.204413	0.239127	4.28086	-0.756526	9.88079	0.00719632	0.00387226	-0.00273623	-0.255859	-0.0224609	-1.06909	0.793388	0.600253	-0.0578191	-0.0829987	-0.0671683	9.41185	2.66861	-0.00199244	0.00749389	-0.000776571	0.360352	-1.33057	-0.249268	-0.930189	-0.214535	0.192033	-0.227698	4.52383	3.07765	8.20696	-0.00583171	0.00872695	-0.00389542	-0.104736	-0.533447	-0.961914	-0.847807	0.448907	0.104823	-0.26214	-0.616005	-9.31182	6.61277	0.00565394	0.0162725	-0.012269	0.213135	0.908447	-0.790527	-0.0276329	-0.719473	-0.37733	0.582423	-9.65933	0.579508	-1.1307	0.0261955	-0.00959988	-0.0155603	0.98291	-0.0708008	0.619873	-0.92651	0.271302	0.229633	0.12346	5.42783	-4.49404	8.18281	0.0115051	0.0261456	-0.0158664	-0.205811	0.570312	-0.889648	0.0144394	0.110997	0.97334	-0.200201	-0.781979	-3.70507	-8.37916	-0.00202391	0.000411451	-0.00989358	-0.316162	0.458984	0.925293	0.637413	0.304151	-0.175299	0.685906	6.84877	2.45723	7.32062	0.00260445	0.0160521	-0.00199767	-0.436768	-0.453125	-0.971924	-0.00910437	0.0751717	-0.992005	-0.100957	-0.279793	2.00179	-9.56185	0.00139429	0.00436844	-0.00995057	-0.462646	-0.160645	1.11206	
72	-0.0574106	-0.210587	0.975513	-0.0270419	1.02187	-0.180297	-8.45452	0.0066154	0.00204519	-0.00140885	-0.35083	-0.0883789	1.01562	-0.114391	-0.118916	0.986268	-0.00705615	2.19544	0.15155	-9.38285	-0.00762213	0.010023	-0.0148949	-0.494385	-0.142822	1.00073	0.949133	0.0139143	-0.204441	0.239076	4.28053	-0.822081	9.87507	0.00286025	0.00309739	0.00205231	-0.253662	-0.0268555	-1.06665	0.79341	0.600223	-0.0578066	-0.0830165	-0.0566059	9.41842	2.68644	-0.000389503	0.00501533	-0.00060256	0.35791	-1.32837	-0.253662	-0.930173	-0.214543	0.192034	-0.227754	4.5198	3.10442	8.22882	0.00107121	0.0087977	-0.0101428	-0.104736	-0.53125	-0.96875	-0.847821	0.448888	0.104755	-0.262155	-0.615932	-9.31819	6.62978	0.00333087	0.0164103	-0.0123763	0.214844	0.914795	-0.790771	-0.0276329	-0.719473	-0.37733	0.582423	-9.65933	0.579508	-1.1307	0.0261955	-0.00959988	-0.0155603	0.98291	-0.0708008	0.619873	-0.926572	0.271253	0.229499	0.123354	5.39316	-4.46816	8.20334	0.0108582	0.0244201	-0.0151644	-0.203613	0.570312	-0.896729	0.0145494	0.111207	0.973368	-0.199939	-0.75885	-3.68885	-8.36504	-0.00593951	0.00283874	-0.00894565	-0.318848	0.468018	0.927246	0.63747	0.304141	-0.175272	0.685865	6.82927	2.47215	7.32428	0.00060559	0.0164426	-0.00115391	-0.432129	-0.457275	-0.965088	-0.00904665	0.075292	-0.991995	-0.100967	-0.284316	2.0134	-9.55932	0.00178643	0.00570873	-0.0101757	-0.462646	-0.162842	1.10986	
73	-0.0573977	-0.210609	0.975508	-0.0270878	1.02934	-0.184937	-8.46006	0.00108591	-0.00494491	-0.00370891	-0.348633	-0.0861816	1.00928	-0.114333	-0.118761	0.986293	-0.00708198	2.18963	0.149051	-9.37703	-0.00648831	0.0117485	-0.0164157	-0.494141	-0.147217	0.991455	0.949104	0.0140694	-0.20447	0.239156	4.30097	-0.768026	9.87178	0.000401187	0.00365468	0.000743138	-0.255859	-0.0224609	-1.06445	0.793413	0.600217	-0.0578155	-0.0830191	-0.0679404	9.41149	2.6898	0.0034763	0.00491521	0.000764885	0.358154	-1.33276	-0.249268	-0.930178	-0.214499	0.192054	-0.22776	4.51121	3.07728	8.21976	0.00152963	0.00833725	-0.00995709	-0.104492	-0.538086	-0.961914	-0.847829	0.448877	0.104791	-0.262134	-0.6082	-9.30933	6.62923	0.00167534	0.0119933	-0.0161571	0.212891	0.9104	-0.797119	-0.0273729	-0.719064	-0.376987	0.583162	-9.68391	0.571393	-1.14861	0.0220437	0.00291464	-0.0163809	0.987061	-0.0708008	0.62207	-0.926602	0.271225	0.22944	0.123299	5.40635	-4.49444	8.21941	0.0101211	0.0231789	-0.0158889	-0.203613	0.568115	-0.89209	0.0146247	0.111335	0.973378	-0.199817	-0.757466	-3.699	-8.37376	-0.00497258	0.00169925	-0.00761937	-0.320801	0.463379	0.934082	0.637552	0.304142	-0.175251	0.685793	6.84019	2.45778	7.32845	-0.000572292	0.0147138	-8.24258e-05	-0.43457	-0.452881	-0.971924	-0.00906629	0.0752755	-0.991987	-0.101059	-0.280668	2.0018	-9.57873	0.00103033	0.00629544	-0.0109941	-0.458252	-0.1604	1.10986	
74	-0.0573319	-0.210655	0.975506	-0.0269566	1.01749	-0.17243	-8.44443	-0.00405455	-0.00440619	-0.00511323	-0.346436	-0.0883789	1.01147	-0.114238	-0.118685	0.986313	-0.00710199	2.18032	0.144647	-9.40204	-0.00693943	0.0086517	-0.0168946	-0.494385	-0.140625	0.996094	0.949123	0.0138194	-0.204479	0.239086	4.28471	-0.802062	9.86728	0.00379449	0.00312347	-3.75151e-05	-0.255859	-0.0268555	-1.06665	0.793407	0.600221	-0.05787	-0.0830164	-0.0671383	9.43612	2.6625	0.00257334	0.00316467	0.000869101	0.362549	-1.33276	-0.249268	-0.930158	-0.214552	0.192092	-0.227757	4.53736	3.08525	8.22348	0.000186121	0.00614964	-0.0123637	-0.104736	-0.533447	-0.964355	-0.847794	0.448938	0.104818	-0.262131	-0.612218	-9.32212	6.60955	-0.000412063	0.0127708	-0.0149309	0.214844	0.912598	-0.799316	-0.0272033	-0.719035	-0.376829	0.583308	-9.66729	0.590082	-1.08121	0.0210091	0.00626853	-0.0144014	0.984863	-0.0686035	0.62207	-0.926604	0.271238	0.229444	0.123247	5.42528	-4.49251	8.21247	0.00709796	0.0178336	-0.0167781	-0.208008	0.57251	-0.894531	0.0147685	0.11152	0.973389	-0.199647	-0.759035	-3.6807	-8.38664	0.000372929	0.000555243	-0.0100672	-0.318359	0.456787	0.92749	0.637601	0.304089	-0.175292	0.68576	6.84588	2.46271	7.32808	-0.000319411	0.014017	0.00501892	-0.425537	-0.455078	-0.967285	-0.00912747	0.0752895	-0.991979	-0.101127	-0.290191	2.00819	-9.56417	0.00209372	0.00498275	-0.0126861	-0.455811	-0.164795	1.10986	
75	-0.0573159	-0.210687	0.975501	-0.026892	1.02322	-0.14697	-8.46458	-0.00304103	-0.00415346	-0.00527757	-0.343994	-0.0927734	1.00928	-0.114214	-0.118651	0.98632	-0.00708346	2.19702	0.135554	-9.38664	-0.00890139	0.0107286	-0.0184022	-0.494141	-0.14502	0.998535	0.949125	0.0139388	-0.204434	0.239113	4.28726	-0.787407	9.86574	0.00750417	0.00321903	-9.38735e-05	-0.26001	-0.0310059	-1.06885	0.793407	0.600213	-0.0579142	-0.0830377	-0.0652628	9.42557	2.67013	0.0053898	0.0032227	0.000615687	0.364746	-1.33057	-0.24707	-0.930157	-0.214577	0.192121	-0.227715	4.54035	3.08046	8.21291	0.000818358	0.00475018	-0.0134141	-0.09375	-0.533447	-0.959717	-0.847782	0.44896	0.104851	-0.262119	-0.606236	-9.32207	6.6224	5.29286e-05	0.0119796	-0.0160714	0.217041	0.912598	-0.794922	-0.0272033	-0.719035	-0.376829	0.583308	-9.66729	0.590082	-1.08121	0.0210091	0.00626853	-0.0144014	0.984863	-0.0686035	0.62207	-0.926636	0.271136	0.229347	0.12341	5.41334	-4.47028	8.18768	0.00661042	0.0152446	-0.0172346	-0.205811	0.570312	-0.89917	0.0147972	0.111519	0.973399	-0.199596	-0.774182	-3.68039	-8.36465	0.000899452	0.00131794	-0.00907468	-0.318359	0.456787	0.92749	0.637539	0.304128	-0.175281	0.685804	6.84333	2.44949	7.33927	0.00324274	0.0126245	0.00695208	-0.43457	-0.450684	-0.967529	-0.00916996	0.0753119	-0.99197	-0.101191	-0.30253	2.0076	-9.5614	0.0021148	0.00430104	-0.0125112	-0.458496	-0.156006	1.11206	
76	-0.0571187	-0.210769	0.975499	-0.0267602	1.021	-0.160575	-8.46607	-0.00235356	-0.00969733	-0.00419221	-0.350586	-0.0927734	1.01147	-0.114353	-0.118901	0.986275	-0.00695816	2.1888	0.148117	-9.38031	-0.00805336	0.011531	-0.0207872	-0.498779	-0.138428	0.993652	0.949116	0.0140378	-0.204442	0.239135	4.29485	-0.79849	9.88889	0.00290336	0.00496046	-0.001988	-0.258057	-0.0202637	-1.06665	0.793417	0.600194	-0.0579402	-0.0830607	-0.0600872	9.4177	2.66867	0.00185916	0.00375399	0.00121056	0.362549	-1.33057	-0.244873	-0.930205	-0.214657	0.191993	-0.227552	4.53549	3.09464	8.22796	0.00236857	0.00659738	-0.0132821	-0.104492	-0.535889	-0.961914	-0.847792	0.448927	0.104867	-0.26214	-0.612808	-9.33017	6.6119	0.00771668	0.0117586	-0.0137392	0.210693	0.914795	-0.794922	-0.0272033	-0.719035	-0.376829	0.583308	-9.66729	0.590082	-1.08121	0.0210091	0.00626853	-0.0144014	0.984863	-0.0686035	0.62207	-0.926623	0.27122	0.229315	0.123386	5.41686	-4.47869	8.19286	0.00211846	0.0202253	-0.0180282	-0.201416	0.568115	-0.894287	0.0150173	0.111746	0.973398	-0.199457	-0.785659	-3.67557	-8.38374	0.000565145	-0.00408817	-0.00841928	-0.320801	0.461182	0.925293	0.637483	0.304175	-0.175302	0.68583	6.84885	2.46636	7.3307	0.00376722	0.0122885	0.00687472	-0.429932	-0.455078	-0.960449	-0.00924282	0.0753452	-0.991962	-0.10124	-0.290096	2.00712	-9.54103	0.00270869	0.00280157	-0.0124364	-0.455811	-0.164795	1.10767	
77	-0.0570557	-0.210787	0.9755	-0.0267129	1.00858	-0.164754	-8.46844	-0.000673579	-0.00792897	-0.00344074	-0.344482	-0.0817871	1.01147	-0.114253	-0.118934	0.986282	-0.00701413	2.14734	0.119507	-9.38007	-0.00246845	0.00681165	-0.0215542	-0.494385	-0.142822	0.991455	0.949128	0.0140542	-0.2044	0.23912	4.28959	-0.76404	9.859	0.00216615	0.00647177	-0.002618	-0.255859	-0.0246582	-1.06665	0.793411	0.600197	-0.0579634	-0.083085	-0.0529059	9.42321	2.64996	0.00185922	0.0037537	0.00121033	0.360596	-1.33496	-0.24707	-0.930231	-0.214627	0.191954	-0.227508	4.55048	3.08321	8.24461	-0.00307554	0.00982295	-0.0130792	-0.106689	-0.538086	-0.959717	-0.847809	0.448897	0.104872	-0.262131	-0.604988	-9.32097	6.61183	0.00560432	0.0122177	-0.0143217	0.215088	0.912598	-0.792725	-0.0263509	-0.719154	-0.376712	0.583277	-9.64979	0.572449	-1.08646	0.0185768	0.0125614	-0.0145276	0.989258	-0.0686035	0.624023	-0.926493	0.271636	0.229404	0.123282	5.44991	-4.47721	8.16866	-0.0121315	0.00839681	-0.0136737	-0.208008	0.570312	-0.894287	0.0152107	0.111826	0.973337	-0.199698	-0.777947	-3.67116	-8.39408	0.0190358	-0.00516951	-0.0156727	-0.325684	0.46582	0.927246	0.637365	0.304152	-0.175123	0.685995	6.84535	2.45317	7.3181	0.00762168	0.0135429	0.00797068	-0.434326	-0.46167	-0.969482	-0.00930138	0.0753341	-0.99195	-0.101363	-0.293922	2.01705	-9.56225	0.00133782	0.00400302	-0.0112656	-0.458252	-0.1604	1.11206	
78	-0.0571297	-0.210822	0.975488	-0.0267192	1.01206	-0.16045	-8.46529	0.000169633	0.00139903	-0.00212066	-0.353027	-0.0861816	1.00928	-0.114363	-0.119386	0.986214	-0.00703521	2.17647	0.145541	-9.39552	-0.00124822	0.0109462	-0.0284619	-0.492188	-0.140625	0.989014	0.949208	0.0140624	-0.204176	0.238996	4.31147	-0.802953	9.8722	0.00247404	0.0103435	-0.00552481	-0.255859	-0.0268555	-1.07104	0.793471	0.600121	-0.0578941	-0.0831032	-0.0650534	9.43283	2.65945	-0.00291345	0.00410085	-0.00150913	0.360352	-1.32837	-0.249268	-0.930331	-0.214594	0.191747	-0.227304	4.54057	3.06975	8.22314	-0.00230734	0.0109372	-0.0158967	-0.100342	-0.533691	-0.95752	-0.847809	0.448897	0.104872	-0.262131	-0.604988	-9.32097	6.61183	0.00560432	0.0122177	-0.0143217	0.215088	0.912598	-0.792725	-0.0259002	-0.719446	-0.376742	0.582917	-9.64664	0.591426	-1.07049	0.0116161	0.0217953	-0.0139976	0.987061	-0.0708008	0.619873	-0.926412	0.271932	0.229343	0.123351	5.4274	-4.47609	8.17956	-0.00922398	0.0105513	-0.00971607	-0.203613	0.57251	-0.89209	0.0151272	0.111571	0.973307	-0.199992	-0.781906	-3.69068	-8.37879	0.0145118	0.00183568	-0.019604	-0.322998	0.456543	0.931885	0.637151	0.304285	-0.17495	0.686179	6.83812	2.45773	7.32403	0.0144604	0.0158949	0.0116316	-0.432373	-0.452881	-0.965088	-0.00933724	0.0754152	-0.991943	-0.101363	-0.290031	2.02167	-9.55101	0.0059288	0.00535646	-0.0149537	-0.462646	-0.160645	1.11206	
79	-0.0574468	-0.210811	0.975477	-0.0265094	1.02692	-0.165265	-8.46253	-0.0119774	0.00833526	-0.00393434	-0.353271	-0.0864258	1.01343	-0.114402	-0.119662	0.986176	-0.00708357	2.1992	0.167701	-9.40531	-0.00209756	0.0134769	-0.0323999	-0.494385	-0.140625	0.993652	0.949318	0.0143333	-0.203863	0.23881	4.2747	-0.754558	9.90052	0.0136276	0.014453	-0.0114452	-0.255859	-0.0224609	-1.06909	0.793514	0.600071	-0.0577706	-0.0831455	-0.0633229	9.4177	2.66859	-0.000395539	0.00900473	-0.00351536	0.360596	-1.33496	-0.249268	-0.930371	-0.214658	0.191641	-0.227168	4.52357	3.12518	8.22357	0.000742442	0.00975689	-0.017773	-0.104492	-0.535645	-0.966553	-0.848136	0.448659	0.104472	-0.261642	-0.601426	-9.31137	6.64069	0.00909757	0.0175681	-0.0130429	0.215088	0.9104	-0.797119	-0.0259002	-0.719446	-0.376742	0.582917	-9.64664	0.591426	-1.07049	0.0116161	0.0217953	-0.0139976	0.987061	-0.0708008	0.619873	-0.926259	0.27258	0.229318	0.123116	5.42581	-4.49201	8.18669	-0.0173344	0.0133718	-0.00606935	-0.205811	0.570312	-0.894531	0.015042	0.111472	0.973268	-0.200243	-0.774387	-3.69359	-8.3665	0.0165666	0.00544847	-0.0224167	-0.323242	0.46582	0.931885	0.636885	0.304481	-0.174671	0.68641	6.84807	2.4955	7.34349	0.0169008	0.0184051	0.0130451	-0.434326	-0.457275	-0.969727	-0.00939465	0.0754754	-0.991941	-0.101335	-0.309056	2.00608	-9.57198	0.00547836	0.00448859	-0.0130128	-0.460449	-0.162842	1.1145	
80	-0.0578196	-0.210919	0.975441	-0.0261557	1.02023	-0.150688	-8.46308	-0.0159649	0.0103826	-0.0072576	-0.353027	-0.0883789	1.00928	-0.114655	-0.120188	0.986082	-0.0071215	2.18355	0.168293	-9.36308	-0.000968331	0.0168073	-0.0317474	-0.489746	-0.147217	0.996338	0.949429	0.0145848	-0.203507	0.238655	4.28335	-0.777401	9.87026	0.0157855	0.0138467	-0.00883132	-0.255615	-0.03125	-1.06421	0.793546	0.600031	-0.0577014	-0.0831808	-0.0648189	9.41762	2.66886	-0.00206494	0.00758972	-0.00448988	0.35791	-1.32617	-0.251465	-0.930409	-0.214695	0.191589	-0.22702	4.53158	3.08022	8.22582	0.00323587	0.00807136	-0.0174601	-0.0961914	-0.529053	-0.964355	-0.848215	0.448529	0.104362	-0.261652	-0.608998	-9.33318	6.61898	0.0105234	0.0155124	-0.0146529	0.213135	0.908447	-0.790527	-0.025464	-0.720196	-0.376856	0.581936	-9.65025	0.583629	-1.10487	0.0103953	0.0389006	-0.0143254	0.987305	-0.072998	0.62207	-0.926259	0.27258	0.229318	0.123116	5.42581	-4.49201	8.18669	-0.0173344	0.0133718	-0.00606935	-0.205811	0.570312	-0.894531	0.0150199	0.111459	0.973229	-0.200439	-0.766061	-3.70869	-8.35289	0.0108166	0.00376986	-0.0166803	-0.325195	0.456543	0.92749	0.636885	0.304481	-0.174671	0.68641	6.84807	2.4955	7.34349	0.0169008	0.0184051	0.0130451	-0.434326	-0.457275	-0.969727	-0.00941952	0.0754926	-0.991936	-0.101365	-0.284407	2.02227	-9.56403	0.00267317	0.00414857	-0.0127837	-0.458252	-0.162598	1.11206	
81	-0.0578196	-0.210919	0.975441	-0.0261557	1.02023	-0.150688	-8.46308	-0.0159649	0.0103826	-0.0072576	-0.353027	-0.0883789	1.00928	-0.114669	-0.12035	0.98606	-0.00730455	2.18703	0.142491	-9.36962	-0.00019465	0.0152261	-0.0271752	-0.483643	-0.140625	0.991211	0.949428	0.0149067	-0.203379	0.23875	4.28874	-0.727233	9.87599	0.00955906	0.00920536	0.0017352	-0.258057	-0.0246582	-1.06445	0.793598	0.59997	-0.0575614	-0.0832116	-0.0730315	9.42566	2.6696	-0.0012186	0.00811816	-0.00285947	0.360352	-1.32837	-0.24707	-0.93043	-0.214751	0.191393	-0.227048	4.52021	3.14673	8.2255	0.00107362	0.0155589	-0.00918207	-0.104248	-0.540039	-0.964355	-0.848256	0.448472	0.104334	-0.261627	-0.601645	-9.31931	6.64042	0.00888489	0.0151731	-0.0163785	0.217285	0.9104	-0.794922	-0.025464	-0.720196	-0.376856	0.581936	-9.65025	0.583629	-1.10487	0.0103953	0.0389006	-0.0143254	0.987305	-0.072998	0.62207	-0.926256	0.272966	0.228879	0.123098	5.39878	-4.50458	8.22283	0.00312124	0.0237367	-0.0101788	-0.208008	0.572266	-0.89209	0.0150061	0.11147	0.973221	-0.200473	-0.779565	-3.69798	-8.38217	0.00914753	0.00492886	-0.017094	-0.320801	0.461182	0.92749	0.636637	0.30424	-0.174379	0.686821	6.84813	2.45367	7.3084	-0.00604938	0.0212316	0.0128145	-0.43457	-0.455078	-0.971924	-0.00945427	0.0754856	-0.991941	-0.101322	-0.304542	2.00869	-9.56118	0.00560002	0.00519395	-0.0103783	-0.460449	-0.1604	1.1189	
82	-0.0582609	-0.211182	0.97536	-0.0260798	1.03742	-0.138068	-8.47313	-0.00349794	0.0102111	-0.00868711	-0.35083	-0.0883789	1.00928	-0.114598	-0.120431	0.986058	-0.00729546	2.15359	0.193336	-9.35297	-0.00672779	0.00777761	-0.027578	-0.492188	-0.140625	0.996094	0.949441	0.0147035	-0.203365	0.238724	4.2582	-0.71413	9.87148	-0.00918028	0.0168057	-0.000214417	-0.255859	-0.0183105	-1.06445	0.793758	0.599769	-0.057421	-0.0832317	-0.0809794	9.40899	2.69799	-0.0116898	0.00815539	-0.0016458	0.366943	-1.33057	-0.253662	-0.930489	-0.214554	0.191343	-0.227036	4.5483	3.14223	8.22801	-0.0159493	0.0157868	-0.0113984	-0.106689	-0.535889	-0.961914	-0.848333	0.448322	0.104221	-0.261681	-0.602306	-9.32848	6.6384	0.0120646	0.0129708	-0.0110321	0.215332	0.904053	-0.799072	-0.025464	-0.720196	-0.376856	0.581936	-9.65025	0.583629	-1.10487	0.0103953	0.0389006	-0.0143254	0.987305	-0.072998	0.62207	-0.925862	0.274127	0.229063	0.123144	5.41182	-4.52283	8.19625	-0.0468464	-0.00355877	-0.0179423	-0.203857	0.574463	-0.885254	0.0150042	0.111492	0.973213	-0.200503	-0.777022	-3.70015	-8.38145	0.00840239	0.00448405	-0.0165743	-0.320801	0.463623	0.92749	0.636531	0.304259	-0.17432	0.686926	6.86218	2.44831	7.35733	0.00939572	0.0173551	0.013497	-0.436523	-0.45752	-0.971924	-0.00945609	0.0754878	-0.991942	-0.101308	-0.30682	2.00059	-9.5732	0.00580608	0.00630243	-0.0115228	-0.456055	-0.1604	1.11206	
83	-0.0579962	-0.211269	0.975349	-0.0263963	1.0452	-0.149642	-8.47103	0.0155124	-0.00875239	-0.00380296	-0.353027	-0.0905762	1.01147	-0.114465	-0.120564	0.986058	-0.00715369	2.21194	0.154497	-9.37251	-0.00804652	0.000586504	-0.0165263	-0.494141	-0.147217	0.998535	0.949426	0.0145117	-0.203313	0.238837	4.25076	-0.839391	9.90256	0.00345147	0.00788432	0.0071056	-0.255859	-0.0246582	-1.06445	0.793868	0.599627	-0.0573739	-0.0832457	-0.071752	9.3916	2.70086	-0.00226652	0.00331902	0.00158349	0.362549	-1.32837	-0.251465	-0.930486	-0.214483	0.191184	-0.227248	4.46421	3.07675	8.22495	0.00841628	0.01455	-0.00575855	-0.0979004	-0.537842	-0.959717	-0.848396	0.448173	0.104243	-0.261722	-0.614171	-9.31365	6.65437	0.00732788	0.00761236	-0.0167902	0.219482	0.90625	-0.79248	-0.025464	-0.720196	-0.376856	0.581936	-9.65025	0.583629	-1.10487	0.0103953	0.0389006	-0.0143254	0.987305	-0.072998	0.62207	-0.925565	0.274947	0.229232	0.123235	5.37659	-4.52193	8.17563	-0.0281892	0.00826689	-0.0194817	-0.201904	0.581055	-0.889893	0.0148213	0.111366	0.973202	-0.200638	-0.781033	-3.70855	-8.37354	0.00892539	0.00764368	-0.0155542	-0.322998	0.458984	0.929688	0.636359	0.304184	-0.174452	0.687085	6.82457	2.45164	7.35682	-0.00441181	0.00689985	0.00546153	-0.431885	-0.463867	-0.967285	-0.00929791	0.0754647	-0.991927	-0.101485	-0.294729	2.01207	-9.57374	-0.00317413	0.00708727	-0.00450232	-0.464844	-0.162842	1.1167	
84	-0.0575534	-0.211297	0.975362	-0.0266436	1.02275	-0.142018	-8.46473	0.0153271	-0.0110679	-0.00294258	-0.346436	-0.0883789	1.01587	-0.114404	-0.120418	0.986083	-0.00723955	2.19544	0.139628	-9.43222	-0.00232435	0.0125332	-0.0147747	-0.500732	-0.14502	0.993896	0.949379	0.0140915	-0.203453	0.238931	4.27398	-0.753512	9.87762	-0.0289538	0.000285274	0.00549626	-0.249268	-0.0292969	-1.06421	0.793932	0.599541	-0.0574408	-0.0832115	-0.0588737	9.44698	2.64586	-0.00344335	0.00406367	0.00367636	0.358154	-1.33057	-0.253662	-0.930515	-0.21432	0.191084	-0.227365	4.5358	3.13813	8.25679	-0.0227762	0.0120012	-0.0049586	-0.102539	-0.533691	-0.95752	-0.848392	0.44816	0.104249	-0.261757	-0.600225	-9.31715	6.61642	0.00321279	0.0141237	-0.0124419	0.215088	0.908447	-0.792725	-0.0227808	-0.721813	-0.37664	0.580181	-9.64184	0.569255	-1.14561	0.0225983	0.0457037	-0.0147835	0.982666	-0.0686035	0.624023	-0.925381	0.27548	0.2291	0.123666	5.4153	-4.55343	8.1679	-0.0226596	0.0149799	-0.0212443	-0.208008	0.574463	-0.887451	0.01465	0.111144	0.973236	-0.200611	-0.767496	-3.71157	-8.36868	0.00160882	0.00475107	-0.0128058	-0.318359	0.461182	0.92749	0.636314	0.304165	-0.17467	0.68708	6.85198	2.48566	7.39186	-0.00846132	0.00984953	0.00767315	-0.427979	-0.452881	-0.971924	-0.00924328	0.0753543	-0.991925	-0.101598	-0.297035	2.01619	-9.56636	0.00232096	0.00705643	-0.00758966	-0.460205	-0.165039	1.11206	
