40	Head	00b4120a												Throax	00b411e8												RUpArm	00b411d9												RFoArm	00b41148												LUpArm	00b411db												LFoArm	00b41204												Waist	00b411f7												Rthigh	00b411f4												Rshank	00b4111b												Lthigh	00b411c8												Lshank	00b411ee												
PacketCount	q0	q1	q2	q3	accX	accY	accZ	gyrX	gyrY	gyrZ	magX	magY	magZ	q0	q1	q2	q3	accX	accY	accZ	gyrX	gyrY	gyrZ	magX	magY	magZ	q0	q1	q2	q3	accX	accY	accZ	gyrX	gyrY	gyrZ	magX	magY	magZ	q0	q1	q2	q3	accX	accY	accZ	gyrX	gyrY	gyrZ	magX	magY	magZ	q0	q1	q2	q3	accX	accY	accZ	gyrX	gyrY	gyrZ	magX	magY	magZ	q0	q1	q2	q3	accX	accY	accZ	gyrX	gyrY	gyrZ	magX	magY	magZ	q0	q1	q2	q3	accX	accY	accZ	gyrX	gyrY	gyrZ	magX	magY	magZ	q0	q1	q2	q3	accX	accY	accZ	gyrX	gyrY	gyrZ	magX	magY	magZ	q0	q1	q2	q3	accX	accY	accZ	gyrX	gyrY	gyrZ	magX	magY	magZ	q0	q1	q2	q3	accX	accY	accZ	gyrX	gyrY	gyrZ	magX	magY	magZ	q0	q1	q2	q3	accX	accY	accZ	gyrX	gyrY	gyrZ	magX	magY	magZ	
5282	0.689292	-0.610911	-0.103658	-0.375392	5.71829	-7.2625	2.20946	0.0245296	0.0209705	-0.0183581	-0.186768	0.994873	-0.0593262	0.599658	-0.514354	-0.103953	-0.604188	7.5635	-4.97334	4.55368	0.00580258	0.00968384	-0.0448285	-0.461426	0.712158	-0.145996	0.507321	0.0617331	0.492458	-0.704486	-5.97316	-6.42113	5.1678	0.0450084	0.00270582	0.0172579	0.291992	0.8396	-0.241943	0.0854962	0.154434	0.313416	-0.933065	-3.42604	-5.57519	7.55825	0.0777622	0.0842612	0.0161199	-0.0131836	0.667969	-0.848389	0.356624	0.0616231	0.412378	-0.836042	-3.82397	-6.21205	6.27217	-0.0255174	0.0250285	0.014111	0.078125	0.867432	-0.526855	0.742691	-0.0360431	0.660275	-0.105581	-9.09793	-1.80464	1.17197	-0.0101657	0.00756218	-0.0043027	0.7771	0.199219	0.563965	0.620398	-0.527101	-0.322206	-0.48317	9.19818	-3.46587	2.3939	-0.0311319	0.00568484	-0.0149871	-0.689941	0.709961	-0.177734	0.423263	-0.544643	-0.483168	-0.539222	9.62951	0.57908	-0.574778	-0.00240675	0.0560731	0.00770219	-1.01221	0.351807	0.126221	0.401557	-0.50572	-0.541499	-0.53831	9.63381	1.7362	-0.964086	-0.0303185	-0.0107304	0.029988	-1.05078	0.206787	0.133789	0.400211	-0.589476	-0.478729	-0.512999	9.54852	0.182623	-1.48097	-0.0315167	0.00631943	0.041204	-0.947998	0.387451	0.231934														
5283	0.689373	-0.610767	-0.103954	-0.375395	5.83271	-7.54102	2.19521	0.0207755	-0.011246	-0.0134195	-0.186768	0.992676	-0.0549316	0.599592	-0.51393	-0.104438	-0.604531	7.41414	-4.75709	4.44491	0.0382292	0.0107137	-0.0431062	-0.461426	0.709961	-0.145996	0.507792	0.061836	0.492115	-0.704376	-6.09357	-6.50767	5.26412	0.0168945	-0.0261854	0.0367728	0.298584	0.833008	-0.241943	0.0852832	0.155797	0.312145	-0.933284	-3.7797	-5.41832	7.46701	0.1123	0.0957477	0.0324998	-0.00854492	0.665771	-0.85498	0.356528	0.0621746	0.412691	-0.835888	-3.56595	-6.26994	6.24903	-0.00987585	0.0497775	0.0146253	0.0800781	0.869629	-0.529297	0.74252	-0.0362348	0.660449	-0.105634	-9.01656	-1.75857	1.16821	-0.0105541	0.017874	-0.0142142	0.779297	0.197021	0.566162	0.620569	-0.526497	-0.322359	-0.483508	9.0823	-3.64539	2.15409	0.0343202	0.0344053	-0.0321631	-0.685791	0.712158	-0.17334	0.42372	-0.544314	-0.483129	-0.539231	9.72299	0.740024	-0.574019	0.028999	0.0336191	0.00838759	-1.01221	0.351807	0.128662	0.401411	-0.506179	-0.541005	-0.538485	9.61548	1.66408	-0.959376	-0.0495474	-0.00316876	0.0279735	-1.05298	0.206787	0.131348	0.400111	-0.589943	-0.478177	-0.513055	9.62206	0.328344	-1.4642	-0.0444659	-0.00270317	0.0379871	-0.943604	0.389893	0.234375	0.433506	-0.589028	-0.436016	-0.524413	9.8727	-0.530701	-0.733794	-0.100664	0.0144188	0.0187552	-1.00879	0.509766	0.18042	
5284	0.689465	-0.610582	-0.10411	-0.375485	6.10813	-7.51232	2.27951	0.023852	0.00324003	-0.00948683	-0.193604	0.994873	-0.0593262	0.599429	-0.513898	-0.104471	-0.604714	7.45555	-4.70871	4.49507	-0.00511353	0.00621054	-0.0182276	-0.461426	0.709961	-0.145996	0.508561	0.0621314	0.492135	-0.703782	-6.01938	-6.49728	5.28573	-0.0132413	-0.0120373	0.0752174	0.300537	0.835205	-0.246582	0.0857718	0.156636	0.312452	-0.932996	-3.82127	-5.2267	7.37305	-0.0340477	0.0559191	0.0554485	-0.0126953	0.661377	-0.848389	0.356336	0.0630041	0.412472	-0.836016	-3.77137	-6.23698	6.18447	0.0427977	0.0552524	0.0123342	0.0822754	0.871826	-0.526855	0.742535	-0.0360348	0.660366	-0.106115	-8.98719	-1.97047	1.067	0.0401147	-0.00236439	-0.0210945	0.7771	0.199219	0.570557	0.620672	-0.526149	-0.322995	-0.48333	9.05706	-3.5352	2.16145	0.0548861	-0.0189902	-0.0226826	-0.691895	0.707764	-0.175537	0.423775	-0.544144	-0.482795	-0.539658	9.72029	0.745187	-0.459705	-0.0211072	0.0438933	-0.00342071	-1.01465	0.356201	0.123779	0.401601	-0.506188	-0.540953	-0.538387	9.60588	1.51706	-0.997706	0.00866641	0.00161277	0.013709	-1.05518	0.204346	0.135986	0.399813	-0.59039	-0.477588	-0.513321	9.71114	0.399049	-1.38344	-0.0615957	0.00422083	0.02425	-0.950439	0.391846	0.227295	0.433019	-0.589591	-0.435111	-0.524934	9.91485	-0.697595	-0.651421	-0.0985822	0.0153337	0.0237609	-1.01099	0.507568	0.182861	
5285	0.689604	-0.610452	-0.103642	-0.37557	5.98112	-7.43416	2.26906	0.00260424	0.0359641	0.0231497	-0.191162	0.992676	-0.0571289	0.599343	-0.51383	-0.104424	-0.604866	7.57207	-4.8252	4.54483	-0.00408701	0.011075	-0.0095729	-0.452393	0.703613	-0.143311	0.509417	0.062243	0.492533	-0.702873	-6.08248	-6.45238	5.17143	-0.0572476	-0.00704083	0.0870337	0.302734	0.833008	-0.246338	0.0865294	0.157401	0.312833	-0.93267	-3.7949	-5.31253	7.27214	-0.0453513	0.0438094	0.0721697	-0.00170898	0.663574	-0.848389	0.355953	0.0633079	0.412445	-0.836169	-3.92138	-6.08217	6.24268	0.0211249	0.0300344	-0.0213506	0.0866699	0.871826	-0.536133	0.742824	-0.035027	0.659891	-0.107381	-8.93378	-1.75413	1.19005	0.132737	-0.0314988	-0.0216237	0.781494	0.199219	0.566162	0.62057	-0.526141	-0.3228	-0.483599	9.26731	-3.53704	2.34653	-0.0149069	0.0226855	-0.00898925	-0.69458	0.716553	-0.177734	0.423953	-0.543976	-0.48252	-0.539934	9.80618	0.621556	-0.37502	-0.00957833	0.0335114	0.00418174	-1.01025	0.358398	0.130859	0.40185	-0.506147	-0.541076	-0.538115	9.68575	1.69779	-0.856451	0.0288028	-0.000179069	0.0120722	-1.04834	0.204346	0.140381	0.399607	-0.590702	-0.477067	-0.513607	9.70857	0.305323	-1.47374	-0.0551711	0.00176726	0.01874	-0.949951	0.383057	0.236572	0.432801	-0.589909	-0.434607	-0.525173	9.85938	-0.676501	-0.618397	-0.0507065	0.00781484	0.0176661	-1.01782	0.511963	0.187256	
5286	0.689704	-0.610493	-0.102955	-0.375507	5.86375	-7.65724	2.29202	-0.0127422	0.0357972	0.0434191	-0.187012	0.999268	-0.0615234	0.599168	-0.513777	-0.10467	-0.605041	7.54331	-4.86874	4.64478	0.00508348	-0.0033745	-0.0262287	-0.461182	0.703613	-0.143311	0.510239	0.0622187	0.492543	-0.702272	-6.24628	-6.42374	5.18751	-0.028913	-0.0307296	0.0692374	0.302734	0.834961	-0.237305	0.0871952	0.158215	0.312658	-0.932529	-3.88659	-5.22315	7.30006	0.00379091	0.0414564	0.0705933	-0.00634766	0.665771	-0.841797	0.355372	0.0628426	0.412866	-0.836244	-3.69806	-6.27085	6.27695	-0.0365956	-0.000428748	-0.0586291	0.0866699	0.869629	-0.529297	0.743238	-0.0338279	0.659273	-0.108682	-9.0337	-1.61836	1.12653	0.149273	-0.0443944	-0.0156759	0.774902	0.201172	0.561768	0.620693	-0.525729	-0.322714	-0.483946	9.26893	-3.51602	2.08426	0.0158806	0.0410942	-0.0197766	-0.692383	0.714355	-0.177734	0.424168	-0.5437	-0.48247	-0.540088	9.77446	0.664042	-0.468308	0.0134538	0.0340887	-0.00263957	-1.01221	0.354004	0.126221	0.401767	-0.506323	-0.540931	-0.538158	9.62556	1.63453	-0.865337	-0.0154655	0.00276119	0.00806808	-1.05298	0.206787	0.135986	0.399604	-0.590894	-0.476727	-0.513704	9.7398	0.128314	-1.41205	-0.0219051	0.010957	0.0222633	-0.945801	0.387451	0.234375	0.432639	-0.590136	-0.434306	-0.525301	9.89765	-0.770292	-0.672139	-0.0326067	0.000865033	0.0103162	-1.00879	0.511963	0.187256	
5287	0.689974	-0.61042	-0.102446	-0.375271	5.81775	-7.74042	2.31755	0.0033159	0.0209878	0.0449453	-0.187012	0.999268	-0.0571289	0.599024	-0.51388	-0.104685	-0.605094	7.51892	-4.52853	4.53364	-0.0118676	-0.0053787	-0.00766895	-0.457031	0.709961	-0.148438	0.51107	0.0620983	0.492589	-0.701646	-6.18947	-6.42564	5.25481	-0.032125	-0.0381239	0.0621261	0.304932	0.832764	-0.239502	0.0877934	0.158801	0.312684	-0.932364	-4.09652	-4.99317	7.37109	-0.00721989	0.0245848	0.0545042	0.00268555	0.665771	-0.850586	0.354805	0.0626469	0.412542	-0.836659	-3.7278	-6.37931	6.28835	0.0360734	-0.00652268	-0.0556688	0.0800781	0.869629	-0.529297	0.74366	-0.0334174	0.658698	-0.109405	-9.10809	-1.70894	1.25974	0.070447	-0.0512704	-0.0228776	0.776611	0.207764	0.563721	0.620608	-0.525623	-0.322865	-0.48407	9.09545	-3.35518	2.10214	0.00786198	0.00537623	-0.0191712	-0.685547	0.707764	-0.17334	0.4244	-0.543393	-0.482468	-0.540216	9.71251	0.703968	-0.465135	0.0169974	0.0291051	-0.00427342	-1.01001	0.354004	0.130859	0.401784	-0.506404	-0.540915	-0.538086	9.60433	1.61878	-0.932223	0.00103513	-0.0045177	0.00576899	-1.0437	0.208984	0.133789	0.399846	-0.590907	-0.476465	-0.513744	9.59787	0.0268199	-1.33892	-0.000365729	0.019154	0.0228083	-0.943604	0.387695	0.231934	0.432703	-0.590225	-0.434191	-0.525244	9.80333	-0.778629	-0.723947	-0.00308843	-0.00102227	0.0111556	-1.01343	0.51416	0.185059	
5288	0.690322	-0.610312	-0.102016	-0.374923	5.87876	-7.60629	2.35337	0.0172129	0.0135006	0.0493253	-0.188965	0.990479	-0.0593262	0.598571	-0.51425	-0.104138	-0.605323	7.49428	-4.69031	4.66835	-0.0680951	0.0133422	-0.00249563	-0.459473	0.712158	-0.143799	0.51172	0.0622473	0.492913	-0.700931	-5.8837	-6.15793	5.28277	-0.040886	-0.00378449	0.0649435	0.304932	0.832764	-0.237305	0.088825	0.15962	0.313197	-0.931954	-3.85379	-5.14705	7.24306	-0.062339	0.0333014	0.0833806	-0.00415039	0.665771	-0.841797	0.354336	0.0626246	0.412048	-0.837103	-3.91236	-6.22575	6.29058	0.0516581	-0.00143378	-0.0409277	0.0783691	0.863037	-0.529297	0.744151	-0.0326503	0.65797	-0.110672	-9.16231	-1.75521	1.38618	0.118676	-0.0592729	-0.0332677	0.781006	0.207764	0.561768	0.620146	-0.526226	-0.322568	-0.484205	9.14192	-3.24881	2.25456	-0.0584913	-0.00485294	0.00380167	-0.692139	0.712158	-0.171387	0.424465	-0.543226	-0.482279	-0.540502	9.82688	0.670103	-0.427982	-0.00686676	0.0345775	-0.00141957	-1.01245	0.358398	0.123779	0.40175	-0.506477	-0.540832	-0.538125	9.65671	1.54752	-0.89472	-0.00882848	-0.00146708	0.00135616	-1.05103	0.213623	0.133545	0.400208	-0.590883	-0.476279	-0.513662	9.56034	0.0797965	-1.52388	0.0134572	0.014104	0.0249234	-0.946045	0.391846	0.23877	0.43283	-0.59025	-0.434117	-0.525172	9.81222	-0.708694	-0.789596	0.00411841	0.00171783	0.00808798	-1.01538	0.507568	0.189697	
5289	0.690513	-0.610433	-0.101357	-0.374555	5.84299	-7.5133	2.33591	-0.0105993	0.0164144	0.058105	-0.18457	0.992676	-0.0571289	0.598249	-0.514329	-0.103997	-0.605598	7.48019	-4.96172	4.48089	-0.0317397	0.00943013	-0.0154423	-0.461426	0.707764	-0.145996	0.511938	0.0619844	0.493557	-0.700342	-6.02919	-6.44949	5.10962	-0.0708046	0.00457858	0.0171308	0.304932	0.832764	-0.239502	0.0898297	0.160471	0.313494	-0.931612	-3.90271	-4.82399	6.93878	-0.0419023	0.0305093	0.0810294	0.000244141	0.670166	-0.841797	0.353518	0.0623082	0.411941	-0.837524	-3.76609	-6.31728	6.27357	0.0164941	0.00147137	-0.0750692	0.0827637	0.86084	-0.533691	0.744472	-0.0318953	0.657462	-0.11175	-9.07824	-1.85215	1.46486	0.106833	-0.0358133	-0.0268407	0.783203	0.203369	0.55542	0.619849	-0.526572	-0.322134	-0.484498	9.13068	-3.48675	2.14877	-0.0468458	0.0255158	0.00373753	-0.685547	0.709961	-0.175537	0.424509	-0.54303	-0.481907	-0.540996	9.70396	0.614765	-0.5178	-0.02534	0.041596	-0.00287077	-1.01245	0.356201	0.128418	0.401949	-0.506306	-0.541086	-0.537882	9.65429	1.52398	-0.997075	0.0349477	-0.00539094	-0.00584635	-1.05542	0.211182	0.137939	0.400461	-0.590906	-0.476206	-0.513505	9.60392	0.182567	-1.57896	0.0167786	0.00727032	0.0191708	-0.945801	0.387451	0.231934	0.432936	-0.5903	-0.433992	-0.525132	9.85486	-0.690028	-0.754482	-0.000996972	0.004001	0.00761404	-1.01318	0.505371	0.189697	
5290	0.690509	-0.610776	-0.100803	-0.37415	5.73925	-7.75871	2.29729	-0.0286816	0.000239388	0.050805	-0.182617	0.99707	-0.0593262	0.59831	-0.51409	-0.104172	-0.60571	7.48678	-4.69885	4.49272	0.0167432	0.00641172	-0.00572907	-0.457275	0.712158	-0.145996	0.512223	0.061969	0.493484	-0.700187	-6.31356	-6.34803	5.22064	-0.0049473	-0.0148311	0.0190102	0.300781	0.830811	-0.234863	0.0903835	0.160466	0.313874	-0.931432	-4.19161	-4.57857	7.10612	-0.0442075	-0.0289262	0.0181749	-0.00219727	0.672363	-0.846191	0.352763	0.062161	0.41186	-0.837894	-3.73563	-6.31013	6.31964	0.0180012	0.0121203	-0.0630687	0.0759277	0.865234	-0.533936	0.744618	-0.0313668	0.657226	-0.11231	-9.17207	-1.76314	1.35035	0.0662438	-0.0101592	-0.0130809	0.780762	0.212158	0.561523	0.619905	-0.526451	-0.322163	-0.484538	9.18022	-3.53465	2.18583	0.0119196	0.0169409	-0.00379521	-0.689941	0.712158	-0.171387	0.424667	-0.542818	-0.482055	-0.540952	9.68331	0.720818	-0.552538	0.0256211	0.0110456	-0.00185301	-1.01465	0.358398	0.123779	0.402071	-0.506174	-0.541227	-0.537773	9.68292	1.80249	-0.975798	0.0204387	0.00334721	-0.00909601	-1.05322	0.213379	0.144775	0.400602	-0.59098	-0.476063	-0.513444	9.62778	0.313573	-1.48969	0.000976514	0.0038724	0.0168484	-0.947998	0.387451	0.231934	0.433151	-0.59028	-0.433956	-0.525007	9.82594	-0.726757	-0.718827	0.0131459	0.00389906	0.00685119	-1.01562	0.509766	0.182861	
5291	0.69063	-0.610842	-0.100504	-0.3739	5.90411	-7.81995	2.3366	-0.00281104	0.00197444	0.0268068	-0.182617	0.999268	-0.0571289	0.598039	-0.514362	-0.103862	-0.6058	7.51788	-4.63479	4.67347	-0.0459224	0.00143478	0.00569151	-0.457031	0.710205	-0.141357	0.512826	0.0617346	0.494151	-0.699295	-6.06535	-6.24746	5.31623	-0.086517	-0.00731161	0.0519258	0.309326	0.837158	-0.230469	0.0907062	0.160029	0.315239	-0.931014	-4.04075	-5.05308	7.40803	-0.13239	-0.0517111	-0.029286	-0.00415039	0.667969	-0.837402	0.352397	0.0620978	0.412063	-0.837952	-3.7677	-6.2385	6.23065	-0.010657	0.016102	-0.0242907	0.0822754	0.869629	-0.524658	0.744633	-0.0311923	0.657186	-0.112499	-9.07246	-1.78883	1.43612	0.0191387	0.00335396	-0.0049173	0.781006	0.209961	0.563721	0.619945	-0.526518	-0.322062	-0.484482	9.13124	-3.37458	2.2818	0.0039155	0.0175547	0.0101136	-0.687744	0.712158	-0.177734	0.424693	-0.542689	-0.48211	-0.541012	9.85812	0.792144	-0.548307	0.00720547	0.00612228	-0.00323749	-1.01245	0.356201	0.126221	0.40191	-0.506271	-0.541022	-0.538009	9.71947	1.48982	-0.985122	-0.026585	0.0132665	-0.00707259	-1.05322	0.213379	0.140137	0.400698	-0.591031	-0.475828	-0.513528	9.60192	0.358756	-1.42169	-0.00950941	0.0129242	0.0159638	-0.945801	0.389648	0.23877	0.433514	-0.590176	-0.434035	-0.524758	9.83384	-0.65823	-0.714392	0.0319337	0.00259842	0.00651725	-1.00684	0.516357	0.189453	
5292	0.690919	-0.610845	-0.0999405	-0.373512	5.92708	-7.63187	2.33244	0.00454653	0.0133339	0.050705	-0.180176	0.99292	-0.0571289	0.597672	-0.514691	-0.103273	-0.605983	7.55075	-5.06832	4.57327	-0.0700221	0.013066	0.0118022	-0.459229	0.712158	-0.138916	0.512727	0.0613288	0.495294	-0.698594	-6.01137	-6.32795	5.1774	-0.107442	0.028848	-0.00925499	0.311523	0.834961	-0.235107	0.0909707	0.160324	0.315334	-0.930905	-3.91615	-5.25596	7.13488	-0.0284318	-0.0118973	-0.00551169	-0.00439453	0.672363	-0.841797	0.351823	0.0617148	0.412593	-0.837961	-3.73585	-6.4238	6.16673	-0.0327843	0.00671258	-0.0545286	0.0715332	0.867432	-0.526855	0.744418	-0.0308397	0.65743	-0.112592	-9.04188	-1.86188	1.53465	0.0225357	0.036345	0.00662431	0.7854	0.207764	0.557373	0.619928	-0.526802	-0.321796	-0.484373	9.23477	-3.55751	2.20752	-0.0189623	0.00973212	0.0226306	-0.687744	0.712158	-0.171387	0.424393	-0.542771	-0.481794	-0.541447	9.74931	0.60068	-0.482259	-0.0433048	0.0161766	-0.00219377	-1.00806	0.356201	0.128418	0.402073	-0.506045	-0.541146	-0.537974	9.63454	1.53938	-0.958719	0.0215358	0.0148724	-0.0149961	-1.05298	0.206543	0.138184	0.400588	-0.591158	-0.475627	-0.513654	9.69134	0.246701	-1.38471	-0.0189278	0.00818507	0.00959175	-0.947998	0.387451	0.231934	0.433765	-0.590147	-0.433982	-0.524628	9.96409	-0.518901	-0.754424	0.0142773	0.00570549	0.00534859	-1.01782	0.509766	0.189697	
5293	0.691315	-0.610972	-0.0988838	-0.372851	5.7642	-7.69791	2.29837	-0.0112381	0.0242647	0.0971973	-0.176025	0.997314	-0.0549316	0.597712	-0.514652	-0.103175	-0.605994	7.46389	-4.89919	4.39695	-0.00924391	0.00314914	0.014491	-0.457031	0.705811	-0.141113	0.512097	0.0607453	0.495877	-0.698694	-6.30255	-6.47466	5.08305	-0.0546838	0.0151668	-0.0760421	0.304932	0.837158	-0.23291	0.0910015	0.160857	0.314405	-0.931125	-4.04429	-4.87862	7.11398	0.061005	-0.00514252	-0.00977538	0	0.672363	-0.846191	0.351046	0.0612146	0.412899	-0.838173	-3.8864	-6.33291	6.30294	-0.0164014	0.00212818	-0.0696348	0.0756836	0.873779	-0.522461	0.744016	-0.0304905	0.657955	-0.112278	-9.07575	-1.68714	1.50473	-0.00183902	0.0698436	0.0284897	0.783203	0.209961	0.563721	0.619992	-0.526831	-0.321927	-0.484171	9.19317	-3.63241	2.25125	0.0193595	0.00389862	0.00655219	-0.687744	0.709961	-0.169189	0.424401	-0.542655	-0.481872	-0.541487	9.73854	0.596526	-0.49745	0.0100251	0.00742154	-0.00126345	-1.01025	0.358398	0.123779	0.402062	-0.505946	-0.541088	-0.538134	9.64356	1.77893	-0.862352	-0.00594205	0.0141847	-0.0142325	-1.05322	0.211182	0.140381	0.400539	-0.591211	-0.475519	-0.513732	9.65293	0.205852	-1.45818	-0.0101771	0.000560261	0.00951963	-0.943604	0.389893	0.236572	0.433859	-0.590224	-0.433775	-0.524634	9.89157	-0.653437	-0.676942	-0.00786578	0.0077916	0.00616771	-1.01123	0.511963	0.187256	
5294	0.691807	-0.611094	-0.0978667	-0.372007	5.72416	-7.96748	2.33945	-0.000937904	0.0139815	0.103703	-0.178223	0.997314	-0.0571289	0.597674	-0.514778	-0.103154	-0.605928	7.59418	-4.58371	4.61212	-0.014011	-0.0102614	0.0109009	-0.454834	0.705811	-0.138672	0.511608	0.0604053	0.495949	-0.69903	-6.16235	-6.55903	5.24683	-0.00622913	-0.000560502	-0.0633179	0.300537	0.839355	-0.230713	0.0908316	0.160659	0.314265	-0.931223	-4.02812	-5.03785	7.38878	-0.00830626	-0.0556082	-0.0612171	-0.00195312	0.670166	-0.843994	0.350677	0.0605704	0.413668	-0.837995	-3.8601	-6.15839	6.36229	-0.0600261	-0.0101434	-0.042558	0.0778809	0.871826	-0.524658	0.743616	-0.0304267	0.658553	-0.111437	-9.14123	-1.73863	1.40192	-0.0492941	0.0706237	0.0455466	0.783203	0.205566	0.563965	0.620153	-0.526551	-0.322188	-0.484096	9.25214	-3.3401	2.26896	0.0418814	0.0195274	-0.010892	-0.687744	0.709961	-0.17334	0.42464	-0.542291	-0.482303	-0.541281	9.83683	0.857824	-0.456904	0.0511054	4.4467e-05	-0.00961971	-1.01685	0.358398	0.133301	0.402069	-0.505861	-0.541039	-0.538258	9.6444	1.68891	-0.91322	-0.0030968	0.0132937	-0.0151225	-1.05786	0.213379	0.131348	0.400695	-0.591087	-0.475645	-0.513634	9.66586	0.204183	-1.48744	0.0234303	0.00375342	0.00401952	-0.945801	0.389648	0.23877	0.434243	-0.590075	-0.433813	-0.524453	9.84011	-0.655671	-0.710126	0.0304447	0.00901416	0.00482137	-1.02026	0.51416	0.187256	
5295	0.692333	-0.611044	-0.0971146	-0.371307	5.9329	-7.94374	2.40004	0.0163882	0.0108435	0.0812722	-0.173828	0.997314	-0.0593262	0.597396	-0.515001	-0.102838	-0.606067	7.58266	-4.78461	4.68034	-0.0479114	0.00497065	0.00772012	-0.457275	0.716553	-0.136719	0.511384	0.0600437	0.497135	-0.698383	-5.93031	-6.28898	5.28616	-0.108649	0.0389493	-0.0120765	0.302734	0.839355	-0.230713	0.0909385	0.160368	0.314809	-0.931079	-3.77035	-5.16142	7.46292	-0.0720238	-0.0619847	-0.0522259	-0.0065918	0.669922	-0.837402	0.350325	0.059448	0.415124	-0.837502	-3.61359	-6.31887	6.29049	-0.136493	-0.0231513	-0.0555393	0.0712891	0.873779	-0.522461	0.743044	-0.0303133	0.659273	-0.111022	-9.07509	-1.60434	1.48369	-0.0243313	0.0911793	0.0191004	0.776855	0.207764	0.570312	0.620323	-0.52635	-0.321857	-0.484317	9.18509	-3.39787	2.09154	0.0051981	0.0573986	0.00332119	-0.685547	0.709961	-0.169189	0.424495	-0.542019	-0.482361	-0.541615	9.7917	0.835684	-0.478352	-0.00101616	0.0241492	-0.0202324	-1.0105	0.360596	0.128418	0.402295	-0.505578	-0.541122	-0.538271	9.63211	1.62912	-0.94133	0.0216843	0.0137585	-0.0185404	-1.05078	0.206787	0.135986	0.40119	-0.59072	-0.475993	-0.513349	9.63745	0.12952	-1.44079	0.0646399	0.0124191	0.00539334	-0.948242	0.394043	0.231934	0.434797	-0.589851	-0.434002	-0.52409	9.89535	-0.713548	-0.687395	0.0534502	0.00396591	0.0060071	-1.00903	0.51416	0.185059	
5296	0.69286	-0.610852	-0.0964128	-0.370823	5.79728	-7.84097	2.31465	0.0221803	0.0217676	0.0634839	-0.171387	0.99292	-0.0634766	0.597438	-0.514982	-0.102576	-0.606085	7.49733	-5.01428	4.42502	-0.02353	0.00938829	0.0287724	-0.457275	0.7146	-0.134277	0.510799	0.0595029	0.498274	-0.698045	-6.02846	-6.56589	5.03175	-0.104111	0.0431555	-0.053302	0.300781	0.837158	-0.223633	0.0912768	0.160286	0.31499	-0.930999	-3.67684	-5.56437	7.20618	-0.0418683	-0.0471607	-0.0225369	-0.0065918	0.670166	-0.846191	0.349596	0.058526	0.415962	-0.837456	-3.82009	-6.5429	6.22593	-0.0741839	-0.0117177	-0.0789631	0.0734863	0.871582	-0.524658	0.742332	-0.0302345	0.66009	-0.110952	-9.26459	-1.60229	1.30574	-0.0127525	0.104793	-0.00399996	0.781006	0.209961	0.565918	0.620253	-0.526573	-0.321463	-0.484426	9.17629	-3.53621	2.18036	-0.0227182	0.038094	0.0132243	-0.684082	0.7229	-0.175781	0.424415	-0.541776	-0.482472	-0.541822	9.75536	0.632338	-0.50711	0.00632612	0.0137054	-0.0141953	-1.0061	0.358398	0.126221	0.402449	-0.505318	-0.5412	-0.538322	9.73076	1.63621	-0.928062	0.0172785	0.0164746	-0.0151663	-1.05542	0.208984	0.135742	0.401715	-0.590344	-0.476401	-0.512992	9.64452	0.13675	-1.4009	0.0679136	0.00303304	0.00309646	-0.945801	0.389648	0.23877	0.43544	-0.589539	-0.434212	-0.523733	9.8761	-0.586696	-0.783175	0.0616048	0.00974491	0.00598229	-1.00464	0.516357	0.187256	
5297	0.693396	-0.610647	-0.0957527	-0.370329	5.65291	-7.86505	2.28809	0.0213498	0.0185723	0.0632168	-0.164795	0.995117	-0.0612793	0.597719	-0.514758	-0.102635	-0.605989	7.51862	-4.79355	4.43286	0.0163965	0.00263989	0.0279416	-0.45752	0.71875	-0.13208	0.510064	0.0590112	0.498585	-0.698401	-6.17517	-6.58902	4.94863	-0.0229594	0.0140088	-0.0829979	0.302734	0.837158	-0.226074	0.0913019	0.160553	0.313965	-0.931296	-3.7049	-5.29272	7.28793	0.0584055	-0.0394972	-0.0208518	-0.0109863	0.672119	-0.841797	0.348708	0.0582028	0.416042	-0.837809	-4.02105	-6.40967	6.27576	0.00527933	0.00775794	-0.0788254	0.0668945	0.873779	-0.5271	0.741794	-0.0300595	0.660707	-0.110923	-9.23216	-1.63445	1.20615	-0.00674037	0.0888598	-0.00362642	0.776611	0.207764	0.568115	0.620517	-0.526378	-0.321374	-0.484358	9.16269	-3.45767	2.29931	0.0318685	0.0377995	0.00251689	-0.685791	0.716553	-0.175781	0.424533	-0.541514	-0.482819	-0.541683	9.78999	0.718831	-0.382333	0.0380402	-0.00259131	-0.00515706	-1.00586	0.354004	0.121582	0.402617	-0.505111	-0.54121	-0.538381	9.64236	1.58116	-0.891104	0.0124176	0.0169315	-0.0147679	-1.05762	0.204346	0.140381	0.401943	-0.590244	-0.476602	-0.512742	9.63597	0.334717	-1.51325	0.0372885	-0.00304464	0.0100491	-0.941406	0.39209	0.236572	0.435442	-0.589683	-0.433833	-0.523884	9.84417	-0.581255	-0.738816	-0.0270426	0.0152394	0.0065733	-1.01367	0.518555	0.182617	
5298	0.693933	-0.610568	-0.0951313	-0.369613	5.77477	-7.9676	2.38755	0.0211004	0.0023287	0.0678042	-0.166992	0.995117	-0.0549316	0.597842	-0.514627	-0.103046	-0.605909	7.5876	-4.75674	4.60707	0.0226982	-0.0182144	0.00823369	-0.457275	0.712402	-0.138916	0.509656	0.0584306	0.498604	-0.698735	-6.18591	-6.56875	5.09831	-0.0122902	-0.0185633	-0.0679643	0.29834	0.839355	-0.228271	0.0911411	0.160472	0.31337	-0.931526	-3.74825	-5.3002	7.38287	0.0333582	-0.0470857	-0.0502033	-0.0129395	0.665527	-0.837402	0.348051	0.0573476	0.416696	-0.837816	-3.6838	-6.33691	6.29924	-0.0607744	-0.0178672	-0.0726945	0.0668945	0.873779	-0.524658	0.741131	-0.0299261	0.661476	-0.11081	-9.22541	-1.52999	1.16183	-0.0140789	0.100169	-0.0036577	0.7771	0.199219	0.572754	0.620919	-0.52573	-0.321791	-0.48427	9.20295	-3.34383	2.00909	0.0764286	0.0343209	-0.0190479	-0.689941	0.712158	-0.175537	0.424614	-0.541147	-0.483004	-0.54182	9.73074	0.779447	-0.445446	0.0201615	0.0127637	-0.0098868	-1.01221	0.351807	0.128662	0.402717	-0.504951	-0.54126	-0.538405	9.57991	1.74137	-0.863681	0.0121037	0.0128001	-0.0147122	-1.05347	0.21582	0.133545	0.401954	-0.590297	-0.47648	-0.512787	9.61487	0.469426	-1.49301	-0.0032857	0.00629925	0.0130186	-0.943604	0.389893	0.231934	0.435572	-0.589741	-0.433599	-0.523903	9.83424	-0.761949	-0.709358	-0.00690712	0.0110166	0.00410772	-1.00903	0.51416	0.182617	
5299	0.694494	-0.610372	-0.0947342	-0.368985	5.72682	-7.86244	2.37243	0.0405727	0.000133552	0.0542931	-0.169434	0.997314	-0.0612793	0.59786	-0.514507	-0.103108	-0.605983	7.55855	-4.80206	4.55139	-0.00247028	0.00411755	0.0103047	-0.452881	0.714355	-0.143799	0.509578	0.057591	0.499185	-0.698447	-5.93225	-6.46469	5.18111	-0.0820775	-0.0209903	-0.0345008	0.307129	0.841553	-0.228516	0.0912846	0.160236	0.313136	-0.931632	-3.72697	-5.59542	7.3049	0.00245847	-0.0519185	-0.0243067	-0.0153809	0.669922	-0.8396	0.347948	0.0560926	0.417909	-0.83734	-3.65857	-6.50935	6.37511	-0.129208	-0.0454093	-0.0391544	0.0668945	0.875977	-0.517822	0.740362	-0.0305813	0.662446	-0.109973	-9.2467	-1.50849	1.04637	-0.0921253	0.10716	-0.0102208	0.776855	0.205566	0.574707	0.620814	-0.525735	-0.321599	-0.484528	9.21557	-3.32778	2.1868	-0.0108296	0.0491276	-0.00855996	-0.683594	0.712158	-0.175537	0.424573	-0.540835	-0.483086	-0.542091	9.81444	0.778627	-0.480145	0.00896656	0.0199365	-0.00864586	-1.01465	0.356201	0.123779	0.402746	-0.504939	-0.541077	-0.53858	9.70135	1.71986	-0.874159	-0.0125264	0.010929	-0.0140382	-1.05078	0.211182	0.140381	0.401834	-0.59022	-0.47636	-0.51308	9.63208	0.407922	-1.48647	-0.0167915	0.0149265	0.00155879	-0.948242	0.394043	0.231934	0.435836	-0.589679	-0.433514	-0.523823	9.87942	-0.587048	-0.735282	0.0134856	0.0109034	0.00278108	-1.00903	0.51416	0.182617	
5300	0.694971	-0.610359	-0.0943881	-0.368197	5.55867	-7.69404	2.31116	0.0252191	-0.0186987	0.0591796	-0.160645	0.999512	-0.0612793	0.597992	-0.514251	-0.103055	-0.606079	7.5645	-4.88155	4.41318	-0.000271936	0.0198769	0.0174455	-0.455322	0.71875	-0.141602	0.509218	0.0566413	0.500002	-0.698203	-6.05718	-6.70578	5.01767	-0.0974666	-0.00453415	-0.0634516	0.296143	0.84375	-0.22168	0.0920093	0.160087	0.312418	-0.931827	-3.7212	-5.49072	7.2315	0.0366274	-0.0695983	0.0212235	-0.0222168	0.672119	-0.8396	0.348	0.0552616	0.418623	-0.837017	-3.83163	-6.63873	6.23439	-0.0771612	-0.0360905	-0.0167984	0.0603027	0.878174	-0.515625	0.739674	-0.0310782	0.663298	-0.109328	-9.28736	-1.77459	1.02769	-0.080491	0.095278	-0.013835	0.772949	0.197021	0.572754	0.620715	-0.525703	-0.32114	-0.484994	9.16272	-3.46612	2.34948	-0.0265622	0.0685378	-0.00830958	-0.681396	0.714355	-0.171387	0.424498	-0.540556	-0.483161	-0.542361	9.85728	0.809523	-0.399708	0.00255627	0.0141313	-0.0100637	-1.01245	0.356201	0.123779	0.402845	-0.504833	-0.541092	-0.538589	9.66529	1.5546	-0.912018	0.00950321	0.0107246	-0.0116039	-1.05322	0.213623	0.131348	0.401566	-0.590286	-0.476146	-0.513413	9.62574	0.263452	-1.53165	-0.0342657	0.00856643	0.0056878	-0.946045	0.391846	0.234131	0.435932	-0.589756	-0.433203	-0.523914	9.86221	-0.624257	-0.727538	-0.0147188	0.0158412	0.00674633	-1.00659	0.51416	0.185059	
5301	0.695257	-0.610689	-0.0940068	-0.367206	5.65413	-7.84188	2.37162	-0.00186207	-0.0392546	0.0622644	-0.165039	0.999512	-0.0612793	0.598083	-0.513833	-0.10349	-0.606269	7.52341	-4.87555	4.51429	0.0300796	0.00875605	-0.00781046	-0.455078	0.714355	-0.143799	0.508754	0.0559042	0.499969	-0.698623	-6.17926	-6.69424	4.99269	-0.00937109	-0.0263356	-0.0747744	0.296387	0.841553	-0.226074	0.0928416	0.159477	0.312625	-0.931779	-3.73694	-5.04194	7.44415	-0.0376386	-0.0945587	0.00939576	-0.0197754	0.669922	-0.843994	0.348043	0.0540436	0.41946	-0.836659	-3.6186	-6.5025	6.44196	-0.0950273	-0.056557	-0.0260692	0.0625	0.875977	-0.515625	0.738844	-0.0315658	0.664241	-0.109074	-9.36511	-1.49379	0.900321	-0.052987	0.104413	-0.0374129	0.772705	0.201416	0.576904	0.621141	-0.524889	-0.321321	-0.48521	9.22872	-3.47744	2.11654	0.0693333	0.0684402	-0.0257102	-0.683838	0.71875	-0.182129	0.424341	-0.540284	-0.483111	-0.5428	9.68779	0.750592	-0.549273	-0.0125523	0.0213066	-0.0139238	-1.01245	0.358398	0.121582	0.403076	-0.504676	-0.541102	-0.538554	9.59137	1.71577	-0.906995	0.0186464	0.00868359	-0.0118199	-1.04834	0.204346	0.138184	0.401307	-0.590396	-0.476023	-0.513602	9.63071	0.185522	-1.5447	-0.0244224	-5.41409e-05	0.00901271	-0.945801	0.389648	0.234375	0.436094	-0.589773	-0.433019	-0.523913	9.85146	-0.714854	-0.695749	-0.00152739	0.013322	0.00616803	-1.01587	0.516357	0.184814	
5302	0.695409	-0.611059	-0.0938194	-0.366348	5.76066	-7.85972	2.31987	-0.00636977	-0.0454052	0.0457645	-0.158203	0.997559	-0.0612793	0.597772	-0.513482	-0.103766	-0.606826	7.55113	-4.70475	4.63578	0.00120176	0.0257907	-0.0408615	-0.46167	0.716553	-0.141602	0.508518	0.0551939	0.500104	-0.698755	-5.95932	-6.47292	5.02355	-0.0327187	-0.0280387	-0.0512125	0.296387	0.84375	-0.219238	0.0935304	0.158805	0.313126	-0.931657	-3.65318	-5.332	7.21054	-0.0712774	-0.101831	-0.0042331	-0.0178223	0.674316	-0.842041	0.348492	0.0529656	0.420659	-0.835939	-3.4241	-6.73028	6.45342	-0.134571	-0.0486957	0.0123943	0.0600586	0.880371	-0.513184	0.73781	-0.033018	0.665453	-0.108254	-9.40404	-1.40628	0.705218	-0.148059	0.117722	-0.059131	0.774902	0.199219	0.581299	0.621824	-0.523627	-0.321384	-0.485656	9.21269	-3.2721	2.07899	0.0929218	0.108407	-0.0350739	-0.681641	0.71875	-0.184326	0.424428	-0.53994	-0.483148	-0.543042	9.7304	0.725245	-0.546067	0.00944206	0.0226283	-0.00499417	-1.01001	0.354004	0.126221	0.403057	-0.504594	-0.541051	-0.538696	9.65245	1.66833	-1.01034	-0.00360391	0.0108266	-0.0104433	-1.05542	0.211182	0.135742	0.401401	-0.59018	-0.476123	-0.513685	9.66116	0.195954	-1.43671	0.0159017	0.0156622	0.00439235	-0.945801	0.389648	0.236572	0.436413	-0.589713	-0.432939	-0.52378	9.86842	-0.665587	-0.688408	0.0169267	0.0115382	0.00360555	-1.00439	0.51416	0.185059	
5303	0.695354	-0.611575	-0.0937201	-0.365616	5.65467	-7.77439	2.22647	-0.0238012	-0.0505043	0.0289121	-0.1604	0.995361	-0.0568848	0.597257	-0.512932	-0.103538	-0.607836	7.51555	-4.72563	4.50543	-0.0267172	0.0727843	-0.046375	-0.457275	0.714355	-0.141357	0.50805	0.0541928	0.500691	-0.698754	-5.9371	-6.48735	5.0085	-0.0683979	-0.0153795	-0.0742694	0.287598	0.841797	-0.221436	0.0945027	0.158385	0.312857	-0.931721	-3.72419	-5.44418	6.95326	-0.00704044	-0.0963633	0.0219721	-0.0222168	0.672119	-0.841797	0.349583	0.0529323	0.420863	-0.835383	-3.51183	-6.83087	6.34113	-0.0342844	-0.0232199	0.0956275	0.0625	0.878174	-0.513184	0.736716	-0.0350881	0.666698	-0.107387	-9.50258	-1.69452	0.625398	-0.184648	0.113002	-0.0970568	0.768555	0.199219	0.585449	0.621951	-0.523128	-0.320507	-0.48661	9.1342	-3.24995	2.42223	-0.017615	0.13332	-0.0219243	-0.68335	0.709961	-0.179688	0.424538	-0.539564	-0.483304	-0.54319	9.83376	0.687395	-0.529041	0.026109	0.0218514	-0.0061603	-1.01245	0.358398	0.121582	0.403284	-0.50445	-0.540999	-0.538714	9.70783	1.5916	-0.939134	0.0122805	0.017816	-0.00902301	-1.05078	0.211182	0.133545	0.401577	-0.589959	-0.476253	-0.513681	9.58231	0.218572	-1.39361	0.0269693	0.0150978	0.00793739	-0.943604	0.389893	0.236572	0.436677	-0.58966	-0.432889	-0.523662	9.84592	-0.663754	-0.70388	0.0152589	0.00955044	0.00651298	-1.00659	0.51416	0.182617	
5304	0.695048	-0.612257	-0.0937545	-0.365046	5.79388	-7.88256	2.23713	-0.0400582	-0.0529092	0.0126528	-0.167236	0.997314	-0.0593262	0.596729	-0.512443	-0.103758	-0.608728	7.48776	-4.93	4.49785	-0.00632276	0.0456454	-0.063759	-0.450684	0.714355	-0.141357	0.507047	0.0530787	0.500832	-0.699466	-6.07307	-6.50286	5.04085	-0.0226663	-0.0210916	-0.129523	0.287598	0.841797	-0.221436	0.0958837	0.157828	0.312077	-0.931936	-3.94643	-5.34447	6.75996	0.0324208	-0.123351	0.0661254	-0.0244141	0.672119	-0.843994	0.351069	0.0539119	0.422722	-0.833756	-3.38902	-6.58294	6.52013	-0.15464	0.0834639	0.180983	0.0710449	0.882568	-0.510986	0.735473	-0.0384091	0.668137	-0.105814	-9.49365	-1.36471	0.512602	-0.299346	0.10937	-0.119611	0.766357	0.197021	0.583496	0.621946	-0.52257	-0.319893	-0.487618	9.14537	-3.5316	2.16566	-0.0187436	0.125158	-0.036246	-0.685791	0.712158	-0.181885	0.424666	-0.539114	-0.483671	-0.543211	9.76246	0.752491	-0.479489	0.0381939	0.0109632	-0.015673	-1.01001	0.354004	0.123779	0.403495	-0.504297	-0.540975	-0.538723	9.62182	1.67534	-0.828061	0.0138851	0.0154643	-0.00985789	-1.05078	0.211182	0.138184	0.401664	-0.589886	-0.476346	-0.513609	9.60083	0.253543	-1.4927	0.0201252	0.0030991	0.0118879	-0.946045	0.391846	0.231934	0.43701	-0.589603	-0.432795	-0.523526	9.82394	-0.677413	-0.727922	0.0180204	0.0115612	0.010945	-1.01147	0.518555	0.184814	
5305	0.694757	-0.612808	-0.0935089	-0.36474	5.88596	-7.82913	2.26813	-0.04392	-0.0201851	0.0147579	-0.162842	0.999512	-0.0571289	0.596441	-0.511954	-0.104061	-0.60937	7.53457	-4.81163	4.4381	0.0109808	0.0361255	-0.0530621	-0.459229	0.708008	-0.138916	0.505812	0.0517573	0.500854	-0.700443	-6.07187	-6.55641	5.01396	-0.0136568	-0.0301771	-0.165243	0.283203	0.848389	-0.223877	0.0974547	0.156836	0.311511	-0.93213	-3.77587	-5.06565	7.01724	0.0127533	-0.166857	0.0673757	-0.0244141	0.674316	-0.844238	0.352809	0.0546122	0.424781	-0.831929	-4.17779	-6.57233	6.2107	-0.184332	0.0663549	0.193817	0.0751953	0.886963	-0.501953	0.734592	-0.0443512	0.669429	-0.101356	-9.47379	-1.63674	0.614229	-0.610505	0.0449732	-0.0930657	0.764648	0.19043	0.596436	0.622549	-0.521296	-0.320067	-0.488098	9.12786	-3.49393	1.97243	0.0911664	0.110679	-0.0404061	-0.685547	0.707764	-0.192383	0.424667	-0.538784	-0.483799	-0.543423	9.6628	0.851871	-0.349804	0.0148308	0.0195171	-0.0119404	-1.01685	0.360596	0.126221	0.403506	-0.504327	-0.540833	-0.538828	9.57345	1.70586	-0.905615	-0.00980891	0.0106431	-0.0083709	-1.05542	0.211182	0.131348	0.401895	-0.589661	-0.476547	-0.513502	9.68927	0.335439	-1.57846	0.0321146	0.00698119	0.00896927	-0.943848	0.39624	0.236328	0.437333	-0.589612	-0.43267	-0.523349	9.89404	-0.657309	-0.692755	0.013986	0.00979096	0.0106667	-1.00684	0.518555	0.182617	
5306	0.694482	-0.61345	-0.0927629	-0.364374	5.80556	-7.8499	2.30491	-0.0608952	0.0030356	0.0415347	-0.160645	0.999512	-0.0549316	0.59611	-0.51165	-0.104586	-0.609859	7.59749	-4.72413	4.47624	0.0200672	0.00855413	-0.0508992	-0.457031	0.708008	-0.141113	0.504779	0.0501636	0.500729	-0.701394	-5.91208	-6.80067	4.87932	-0.0198089	-0.060602	-0.162339	0.2854	0.843994	-0.226074	0.0985712	0.155377	0.311346	-0.932312	-3.28455	-5.14137	7.57065	-0.0140741	-0.187438	0.00732691	-0.0288086	0.672119	-0.846191	0.354368	0.0549673	0.425594	-0.830826	-4.32953	-6.47568	5.99885	-0.0814103	0.00553993	0.152139	0.0749512	0.88916	-0.50415	0.73419	-0.0483888	0.670016	-0.0984992	-9.11501	-2.46592	1.07103	-0.399552	-0.00785777	-0.0829737	0.76709	0.184082	0.594482	0.62252	-0.520822	-0.320103	-0.488617	9.19196	-3.37833	2.2908	0.00963972	0.0731413	-0.0397986	-0.68335	0.707764	-0.19458	0.424527	-0.538676	-0.483813	-0.543627	9.90132	0.858363	-0.347773	-0.000193412	0.00821491	-0.00286598	-1.01465	0.358398	0.123779	0.403602	-0.504345	-0.540596	-0.538979	9.75816	1.61889	-0.850194	-0.0107181	0.0125369	-0.00453694	-1.05542	0.211182	0.133545	0.402079	-0.589456	-0.476576	-0.513565	9.67199	0.377517	-1.48975	0.0210465	0.022849	0.00689989	-0.943604	0.39209	0.23877	0.437551	-0.589628	-0.432497	-0.523292	9.88173	-0.659134	-0.669436	0.00362721	0.0119936	0.00751901	-1.00464	0.518555	0.187256	
5307	0.694184	-0.614168	-0.0919225	-0.363944	5.69811	-8.00971	2.35579	-0.0686959	0.00301182	0.0508075	-0.156494	1.0061	-0.0549316	0.595986	-0.511181	-0.105532	-0.610211	7.55519	-4.85144	4.72801	0.0557621	-0.00464502	-0.054636	-0.459473	0.716553	-0.143799	0.504378	0.0486925	0.500516	-0.701937	-5.87188	-6.81441	5.10176	-0.0286754	-0.0823385	-0.109372	0.272705	0.844238	-0.223877	0.0991579	0.154414	0.310977	-0.932533	-3.28765	-5.61265	8.13932	0.00531636	-0.13867	-0.00521299	-0.0307617	0.667725	-0.846191	0.355291	0.0547219	0.426237	-0.830118	-3.82066	-6.28892	5.91458	-0.0722168	-0.0223555	0.0778242	0.081543	0.886963	-0.501953	0.73378	-0.0485051	0.670352	-0.0992101	-8.76183	-2.06426	1.4247	0.0274985	0.0293393	-0.0755353	0.76709	0.179688	0.592529	0.622496	-0.520264	-0.319956	-0.489338	9.2129	-3.43543	2.23923	0.000616822	0.0903782	-0.0456113	-0.68335	0.707764	-0.188232	0.424073	-0.538661	-0.48344	-0.544327	9.90076	0.722988	-0.456943	-0.0550557	0.0236345	-0.0128763	-1.01025	0.356201	0.126221	0.403611	-0.504405	-0.540398	-0.539114	9.66933	1.63549	-0.79844	-0.0136199	0.00706746	-0.00795798	-1.05298	0.206787	0.135986	0.401883	-0.589545	-0.476353	-0.513824	9.59554	0.253414	-1.44487	-0.0198357	0.01588	0.0122609	-0.946045	0.394043	0.234131	0.437788	-0.589624	-0.432407	-0.523172	9.84391	-0.69156	-0.739727	0.00931099	0.0108453	0.00747885	-1.00684	0.518555	0.184814	
5308	0.694044	-0.614534	-0.0914185	-0.363721	5.69078	-8.10791	2.39884	-0.0327091	0.003154	0.0161357	-0.158447	0.999512	-0.0527344	0.596309	-0.510712	-0.106417	-0.610135	7.56541	-4.77693	4.63132	0.0697175	-0.0183073	-0.00690539	-0.459473	0.714355	-0.148438	0.504291	0.0473712	0.500471	-0.702122	-5.9157	-6.91279	5.24911	-0.0473069	-0.077307	-0.06108	0.276855	0.850586	-0.224121	0.0998815	0.154107	0.310567	-0.932643	-3.45298	-5.69277	8.3985	0.00455568	-0.0851293	0.0388835	-0.0310059	0.672119	-0.843994	0.355529	0.0542858	0.425784	-0.830277	-3.70088	-6.49531	6.04624	0.0256549	-0.0513988	-0.00036974	0.0817871	0.884766	-0.506348	0.733209	-0.0488918	0.670909	-0.0994804	-8.75964	-1.7203	1.54675	-0.0102024	0.0559919	-0.0631954	0.769287	0.184082	0.594482	0.622997	-0.519337	-0.320138	-0.489566	9.15995	-3.4392	2.21136	0.0727946	0.0845439	-0.0271328	-0.683838	0.716553	-0.192627	0.423722	-0.538593	-0.482899	-0.545148	9.75258	0.624638	-0.47909	-0.0569144	0.0433254	-0.0107652	-1.00806	0.358398	0.128418	0.403452	-0.504562	-0.54013	-0.539354	9.60166	1.66304	-0.875813	-0.0305749	0.00386356	-0.00585024	-1.05298	0.208984	0.140381	0.401659	-0.589659	-0.476138	-0.514067	9.57354	0.11885	-1.48056	-0.027034	0.00910518	0.0126808	-0.94165	0.394287	0.236328	0.437948	-0.589685	-0.432139	-0.523191	9.8406	-0.622037	-0.79161	-0.00808925	0.0172754	0.00927523	-1.00903	0.516357	0.182617	
5309	0.694066	-0.614573	-0.0910196	-0.363713	5.67496	-8.05287	2.45244	-0.00738389	0.0188235	0.00938661	-0.160645	1.00171	-0.0549316	0.596598	-0.510502	-0.106795	-0.609962	7.54308	-4.66623	4.62203	0.0291706	-0.0106344	0.016774	-0.455078	0.712158	-0.148438	0.504389	0.0466761	0.500201	-0.702291	-5.83597	-6.92215	5.18038	-0.00884741	-0.0568128	-0.0279603	0.276855	0.846436	-0.219238	0.100935	0.154186	0.310297	-0.932606	-3.37403	-5.36705	8.46699	-0.00582478	-0.0457836	0.0582581	-0.0378418	0.674316	-0.842041	0.355214	0.0542014	0.424735	-0.830954	-3.90043	-6.0423	6.26238	0.0916495	-0.027181	-0.0376652	0.0839844	0.884766	-0.510986	0.732855	-0.0489071	0.671165	-0.100347	-8.81771	-1.93148	1.35973	0.0442537	0.0433535	-0.078361	0.764893	0.184082	0.594482	0.623019	-0.519403	-0.320523	-0.489218	9.16255	-3.33497	2.45933	0.0396445	-0.00306727	-0.00469324	-0.68335	0.709961	-0.192627	0.42364	-0.538405	-0.48257	-0.545689	9.70987	0.656917	-0.502468	-0.0173987	0.0430756	-0.00911546	-1.01025	0.358398	0.128418	0.403275	-0.504744	-0.539918	-0.53953	9.65142	1.61512	-1.01379	-0.0283409	0.00237034	-0.00780704	-1.05322	0.213379	0.137939	0.401552	-0.589677	-0.475994	-0.514264	9.62296	0.180476	-1.59109	-0.0108315	0.0149692	0.00618894	-0.946045	0.394043	0.234131	0.437922	-0.589831	-0.431672	-0.523434	9.8666	-0.653769	-0.756411	-0.0348728	0.024695	0.00889085	-1.00684	0.518555	0.182617	
5310	0.694316	-0.614451	-0.0908842	-0.363477	5.51349	-7.94719	2.40883	0.0197293	-0.00326977	0.0138677	-0.158691	1.00391	-0.0527344	0.596385	-0.510752	-0.10708	-0.609911	7.54192	-4.6744	4.60835	-0.0192528	-0.0274338	-0.0112736	-0.459717	0.71875	-0.14624	0.504736	0.0463409	0.500093	-0.70214	-5.67844	-6.8662	5.11427	-0.0121267	-0.0372272	0.0117742	0.274658	0.848633	-0.22168	0.101893	0.154745	0.3098	-0.932575	-3.31342	-5.24589	8.16071	0.015637	0.00596461	0.0687164	-0.0268555	0.678711	-0.842041	0.354806	0.0530358	0.425388	-0.83087	-3.66738	-6.15484	6.16494	-0.0828377	-0.044998	-0.0715591	0.0749512	0.891357	-0.506348	0.732503	-0.0486337	0.671343	-0.101846	-8.86011	-1.75474	1.13513	0.0946274	0.0476948	-0.0952665	0.764893	0.186279	0.594482	0.623061	-0.519409	-0.320341	-0.489276	9.14403	-3.37432	2.3195	-0.000262851	0.0444957	0.000846661	-0.683594	0.714355	-0.19043	0.423763	-0.538076	-0.482617	-0.545876	9.81881	0.631679	-0.668926	0.0270565	0.0307162	-0.00948687	-1.01465	0.356201	0.123779	0.403456	-0.504681	-0.539862	-0.539509	9.75407	1.52651	-1.01979	0.00915271	0.014307	-0.00860648	-1.05566	0.213379	0.137939	0.401414	-0.589671	-0.475867	-0.514495	9.64643	0.29282	-1.62539	-0.0159717	0.0154951	0.00535739	-0.947998	0.389648	0.234131	0.437729	-0.590067	-0.431114	-0.52379	9.9039	-0.580012	-0.730693	-0.0534989	0.0247895	0.00464077	-1.01147	0.522949	0.184814	
5311	0.694625	-0.61453	-0.091142	-0.362688	5.41777	-7.85637	2.32044	0.0291091	-0.0579173	0.0244506	-0.15625	1.00171	-0.0549316	0.59633	-0.510887	-0.107335	-0.609807	7.47789	-4.93273	4.51558	-0.00750447	-0.0237095	0.00570649	-0.459229	0.709961	-0.141357	0.505073	0.0461458	0.50017	-0.701856	-5.84891	-6.77269	5.17058	-0.0242303	-0.0195484	0.0266654	0.272461	0.85083	-0.22168	0.103186	0.155897	0.309524	-0.932332	-3.56114	-5.23299	7.89811	-0.0027641	0.0532593	0.0818117	-0.0332031	0.672119	-0.8396	0.354028	0.0516848	0.425084	-0.831443	-3.74477	-6.75347	5.99641	0.00279754	-0.0703144	-0.11081	0.0751953	0.884766	-0.501953	0.732271	-0.0484038	0.671415	-0.10314	-8.98677	-2.02072	0.954587	0.0833745	0.0370595	-0.0865429	0.764648	0.188232	0.592285	0.623153	-0.519504	-0.320324	-0.489069	9.12186	-3.55354	2.31401	0.0200673	0.0229609	0.00881721	-0.683594	0.714355	-0.194824	0.423922	-0.537578	-0.482924	-0.545971	9.76107	0.65594	-0.61372	0.0422084	0.0256756	-0.0194765	-1.01025	0.358398	0.123779	0.403757	-0.504548	-0.539851	-0.539419	9.6662	1.6909	-0.887297	0.020384	0.0195635	-0.00839831	-1.05078	0.211182	0.131348	0.401266	-0.589655	-0.475767	-0.514721	9.57189	0.309411	-1.49363	-0.0156379	0.0159907	0.00872207	-0.943604	0.39209	0.234131	0.43723	-0.590513	-0.430272	-0.524395	9.82752	-0.594942	-0.747964	-0.096549	0.029137	-0.000302278	-1.00684	0.518555	0.182617	
5312	0.694994	-0.614728	-0.0913951	-0.361579	5.67811	-7.80909	2.32045	0.0251565	-0.0792469	0.0448523	-0.15625	0.997559	-0.0527344	0.596706	-0.51066	-0.107596	-0.609583	7.56551	-4.79163	4.4247	0.0388407	-0.00730949	0.0235857	-0.457031	0.709961	-0.153076	0.50533	0.0459405	0.500222	-0.701647	-5.82284	-6.69863	5.14898	-0.0207722	-0.0175462	0.0221359	0.276855	0.850586	-0.224121	0.103971	0.157144	0.308606	-0.93234	-3.60616	-5.1982	7.64359	0.0550249	0.0717508	0.0831892	-0.0241699	0.669922	-0.846191	0.352861	0.0510908	0.423724	-0.832668	-3.84766	-6.4001	6.08751	0.119781	-0.0439956	-0.129577	0.072998	0.884766	-0.50415	0.73228	-0.0472173	0.671219	-0.10489	-8.96449	-2.09359	0.992434	0.166776	0.0198524	-0.0594764	0.76001	0.194824	0.596436	0.623525	-0.519312	-0.320597	-0.48862	9.08827	-3.52002	2.52624	0.0608049	0.0149254	0.0120021	-0.68335	0.709961	-0.19043	0.424159	-0.537042	-0.483199	-0.546071	9.75814	0.727534	-0.436567	0.0465845	0.0348906	-0.0235518	-1.0144	0.351807	0.116943	0.403884	-0.504511	-0.539658	-0.539551	9.61998	1.76195	-0.802804	-0.00414006	0.0163105	-0.00638742	-1.05322	0.211182	0.135742	0.400906	-0.589807	-0.475547	-0.515031	9.5372	0.279407	-1.42875	-0.0384874	0.00917842	0.0037808	-0.946045	0.391846	0.236572	0.436558	-0.590933	-0.42933	-0.525254	9.80999	-0.644448	-0.765155	-0.115342	0.0379903	-0.00544423	-1.01343	0.51416	0.185059	
5313	0.695362	-0.614902	-0.0915401	-0.360539	5.74099	-7.87208	2.33991	0.0229854	-0.0670721	0.0530158	-0.160645	0.999512	-0.0549316	0.596959	-0.51055	-0.10807	-0.609343	7.53719	-4.76233	4.59075	0.02586	-0.0216248	0.00681952	-0.46167	0.714355	-0.14624	0.505679	0.0456385	0.500429	-0.701268	-5.81946	-6.65667	5.13821	-0.0432518	-0.0190619	0.0253468	0.272461	0.848633	-0.219482	0.104346	0.158578	0.30721	-0.932516	-3.54222	-4.97112	7.41295	0.0919553	0.073998	0.0613128	-0.0332031	0.669922	-0.846191	0.352036	0.0496728	0.423951	-0.832988	-3.47441	-6.32592	6.19413	-0.0400923	-0.0635558	-0.117546	0.0686035	0.88916	-0.501953	0.731987	-0.0464142	0.671427	-0.105952	-9.12266	-1.60924	0.825857	0.103362	0.0499484	-0.0318261	0.753418	0.201416	0.592041	0.623871	-0.519207	-0.320769	-0.488177	9.14459	-3.40336	2.30043	0.0462458	0.0185073	0.0161241	-0.681396	0.709961	-0.19458	0.424422	-0.536302	-0.483559	-0.546275	9.87351	0.76839	-0.292026	0.0441091	0.0402299	-0.0300234	-1.0105	0.362793	0.123779	0.403988	-0.504501	-0.539582	-0.539559	9.69046	1.70201	-0.769948	0.00263366	0.00998949	-0.00647971	-1.05103	0.21582	0.133545	0.400384	-0.590048	-0.475261	-0.515425	9.48673	0.222753	-1.53888	-0.0513261	0.00673329	0.00276232	-0.939453	0.394287	0.234131	0.435569	-0.591474	-0.428233	-0.52636	9.73977	-0.694141	-0.748423	-0.150302	0.0415777	-0.0127186	-1.00659	0.51416	0.187256	
5314	0.695822	-0.614931	-0.0919558	-0.359494	5.66144	-7.78771	2.25573	0.0413449	-0.0773966	0.0463751	-0.154297	1.0061	-0.0549316	0.597113	-0.510655	-0.108244	-0.609074	7.49534	-4.75049	4.51022	0.00673664	-0.0228104	0.0238553	-0.452881	0.714355	-0.14624	0.506217	0.045277	0.500559	-0.70081	-5.82538	-6.70833	5.17086	-0.0433231	-0.0326294	0.0409501	0.274658	0.852783	-0.22168	0.104654	0.159407	0.306588	-0.932545	-3.78641	-4.85514	7.30311	0.0307575	0.0476893	0.043251	-0.0266113	0.672119	-0.843994	0.351847	0.0481147	0.424346	-0.832958	-3.76878	-6.7	6.20556	-0.0667816	-0.0854626	-0.0685575	0.0708008	0.884766	-0.499512	0.731798	-0.0468224	0.671634	-0.105772	-9.33601	-1.92401	0.650461	-0.0507804	0.0263201	-0.019062	0.758057	0.192627	0.585693	0.624339	-0.519208	-0.320901	-0.48749	9.05181	-3.5017	2.24091	0.0473084	0.00574619	0.0376131	-0.681152	0.708008	-0.19458	0.424354	-0.535671	-0.483391	-0.547095	9.83629	0.681154	-0.303251	-0.00470145	0.0748161	-0.0523775	-1.01221	0.351807	0.126221	0.403761	-0.50481	-0.539223	-0.539799	9.56148	1.57488	-0.778324	-0.0416893	-0.00224294	-0.0077258	-1.05103	0.21582	0.133545	0.399796	-0.590329	-0.47487	-0.515921	9.65361	0.106886	-1.50309	-0.0683786	0.00929451	-0.005562	-0.943604	0.389893	0.23877	0.434767	-0.591883	-0.42736	-0.527273	9.92106	-0.838165	-0.731437	-0.12074	0.038604	-0.0134841	-1.00684	0.516357	0.182617	
5315	0.696293	-0.615078	-0.0921424	-0.358279	5.68117	-7.70659	2.22869	0.0328442	-0.0765787	0.0587381	-0.149902	1.00415	-0.0571289	0.597372	-0.510958	-0.108459	-0.608527	7.50554	-4.75992	4.40719	0.00324726	-0.0421838	0.030506	-0.45752	0.71875	-0.141602	0.506781	0.0450407	0.500892	-0.70018	-5.8598	-6.57544	5.18626	-0.0588801	-0.0169845	0.0534032	0.276855	0.852783	-0.219482	0.105554	0.159667	0.307199	-0.932198	-3.8204	-4.98644	7.27093	-0.0755343	0.0106029	0.0427138	-0.0222168	0.672119	-0.8396	0.351718	0.0473533	0.42429	-0.833084	-3.91543	-6.52896	6.18644	-0.0111268	-0.0513648	-0.0462565	0.0620117	0.886963	-0.501953	0.73196	-0.0462864	0.671428	-0.106191	-9.31065	-2.11979	0.801717	0.050126	-0.00274205	-0.0126638	0.76001	0.197021	0.592041	0.625112	-0.518947	-0.321502	-0.486379	9.11659	-3.5529	2.36833	0.0980584	-0.0143793	0.0444804	-0.681641	0.716553	-0.192627	0.424216	-0.53506	-0.482899	-0.548233	9.74851	0.467686	-0.367261	-0.0317658	0.0984121	-0.0417245	-1.0105	0.360596	0.119141	0.403789	-0.504843	-0.539283	-0.539687	9.69469	1.27597	-1.02573	0.0112812	-0.00805093	-0.0149743	-1.05103	0.213623	0.137939	0.399188	-0.590425	-0.474634	-0.516498	9.79357	0.0516929	-1.58681	-0.0541659	0.0187645	-0.0178858	-0.938965	0.385498	0.243408	0.434196	-0.59214	-0.426556	-0.528104	9.91831	-0.700492	-0.615658	-0.0975986	0.0411572	-0.0148991	-1.00903	0.51416	0.187256	
5316	0.696783	-0.615248	-0.0919583	-0.357082	5.71247	-7.76934	2.24702	0.0194639	-0.0568751	0.0777633	-0.149902	1.00635	-0.0571289	0.597644	-0.511128	-0.108897	-0.608038	7.58813	-4.84168	4.45592	0.0279772	-0.0446031	0.0242477	-0.45752	0.71875	-0.141602	0.507221	0.0444293	0.501222	-0.699664	-5.86345	-6.60891	5.10905	-0.0686173	-0.0332346	0.0243005	0.281006	0.85498	-0.219482	0.106429	0.159908	0.307245	-0.932042	-3.69576	-5.15705	7.28675	-0.0235775	0.00570172	0.0413273	-0.0241699	0.667725	-0.846191	0.351384	0.0462356	0.425013	-0.83292	-3.33215	-6.69519	6.19221	-0.0835039	-0.0422307	-0.0599778	0.0578613	0.884766	-0.506348	0.731873	-0.0455339	0.67146	-0.106914	-9.06691	-1.55657	0.82658	0.0821549	0.0244079	-0.0166499	0.76001	0.194824	0.592041	0.626244	-0.518222	-0.322088	-0.485308	9.17107	-3.53974	2.16622	0.154221	0.0140708	0.0395767	-0.679199	0.710205	-0.205322	0.424612	-0.534459	-0.482885	-0.548525	9.74202	0.41284	-0.533599	0.0415095	0.0617399	-0.025077	-1.01025	0.354004	0.119141	0.404104	-0.50446	-0.539788	-0.539304	9.70544	1.46034	-1.0231	0.0641713	0.00358626	-0.0298193	-1.04883	0.21582	0.133545	0.398797	-0.590557	-0.474475	-0.516795	9.70994	0.044893	-1.43315	-0.0244376	0.0153161	-0.00555055	-0.950439	0.391846	0.234131	0.433732	-0.592331	-0.426008	-0.528713	9.82439	-0.854483	-0.570945	-0.0726475	0.0320524	-0.015804	-1.01343	0.511963	0.187256	
5317	0.697272	-0.615374	-0.09161	-0.355997	5.55886	-7.78075	2.16993	0.0165439	-0.0393963	0.0813468	-0.147705	1.00635	-0.0549316	0.597809	-0.511502	-0.109097	-0.607526	7.50098	-4.84869	4.37052	0.00389956	-0.0442845	0.0309825	-0.450928	0.716553	-0.14624	0.507528	0.0435047	0.501555	-0.69926	-5.78716	-6.69146	5.03598	-0.0771236	-0.045532	-0.00461907	0.274658	0.850586	-0.217041	0.10656	0.160235	0.306045	-0.932366	-3.63637	-5.00719	7.18187	0.0762922	-0.00255432	0.0231296	-0.0195312	0.66333	-0.850586	0.351311	0.0457592	0.4246	-0.833188	-3.39564	-6.76923	6.16317	0.015826	-0.0388682	-0.0232279	0.0600586	0.882568	-0.50415	0.73163	-0.0463431	0.671797	-0.106105	-9.03354	-1.63633	0.745817	-0.0897676	0.030898	-0.0167381	0.76416	0.199219	0.593994	0.627105	-0.517692	-0.322796	-0.48429	9.06996	-3.47984	2.35777	0.115833	-0.00898182	0.030968	-0.681396	0.709961	-0.201172	0.425067	-0.533808	-0.483628	-0.548152	9.66187	0.58954	-0.592718	0.102814	0.0150322	-0.0305049	-1.01001	0.352051	0.107666	0.404354	-0.504119	-0.53997	-0.539253	9.63071	1.46903	-1.10483	0.0338764	0.0192459	-0.0328334	-1.05103	0.213623	0.135742	0.398868	-0.590289	-0.474609	-0.516923	9.72308	0.156758	-1.15226	0.0126768	0.0213365	-0.00722451	-0.945801	0.387451	0.23877	0.433796	-0.592161	-0.426054	-0.528814	9.86815	-0.859515	-0.557567	0.00704987	0.0192028	-0.0161991	-1.01343	0.511963	0.18042	
5318	0.697725	-0.615735	-0.0911449	-0.354603	5.37144	-7.81979	2.08886	0.00319489	-0.0526005	0.106058	-0.147217	0.995361	-0.0568848	0.598003	-0.511925	-0.109143	-0.606971	7.53572	-4.8877	4.39559	-0.0113803	-0.0387918	0.031384	-0.452881	0.714355	-0.143799	0.507646	0.0426424	0.501848	-0.699018	-5.62725	-6.87837	5.02004	-0.0662809	-0.0369646	-0.0136574	0.274658	0.846436	-0.214844	0.10676	0.160194	0.305143	-0.932646	-3.61209	-4.85378	7.25288	0.0421054	-0.037134	0.0174888	-0.0241699	0.667725	-0.841797	0.351465	0.0454273	0.423824	-0.833536	-3.66621	-6.33829	6.13	0.0484447	-0.0482616	-0.00678109	0.0578613	0.884766	-0.506348	0.731594	-0.0468697	0.671862	-0.105711	-8.91039	-2.03086	0.90786	-0.0528524	0.0102872	-0.0260691	0.76416	0.199219	0.596191	0.627625	-0.517588	-0.323413	-0.483315	9.1192	-3.48377	2.48076	0.0794967	-0.0205755	0.0297759	-0.679443	0.71875	-0.203369	0.425821	-0.533113	-0.484368	-0.54759	9.67321	0.734703	-0.548751	0.108478	0.0102009	-0.0134725	-1.0105	0.360596	0.121338	0.404999	-0.503383	-0.540547	-0.538879	9.64586	1.56333	-1.10228	0.0906643	0.032436	-0.0373928	-1.05103	0.213623	0.137939	0.39901	-0.589963	-0.474731	-0.517073	9.67184	0.270336	-1.12292	0.0258412	0.0306352	-0.00832917	-0.945557	0.385254	0.234375	0.434137	-0.591819	-0.426285	-0.528731	9.86407	-0.663482	-0.576589	0.0406804	0.0121579	-0.0141768	-1.01123	0.511963	0.182617	
5319	0.698129	-0.616271	-0.0906258	-0.353006	5.56285	-8.0295	2.10564	-0.0132099	-0.0661571	0.13144	-0.141113	1.00415	-0.0546875	0.598031	-0.51224	-0.109266	-0.606655	7.55108	-4.97183	4.49908	-0.00654041	-0.0289125	0.0104606	-0.455078	0.714355	-0.13916	0.507713	0.0419005	0.502328	-0.698669	-5.7205	-6.72022	5.08861	-0.0743878	-0.0193351	-0.00927109	0.274658	0.852783	-0.214844	0.107575	0.159444	0.305499	-0.932564	-3.59369	-4.99609	7.36134	-0.0522098	-0.0674674	0.0188641	-0.0310059	0.669922	-0.848389	0.35136	0.0438786	0.424815	-0.833158	-3.37465	-6.25401	6.19538	-0.127198	-0.0677808	-0.0499461	0.0551758	0.893555	-0.501953	0.731522	-0.0470685	0.671898	-0.105888	-8.80059	-1.88488	1.07767	-0.000247274	0.0150004	-0.0396124	0.764404	0.194824	0.594238	0.62821	-0.517255	-0.323873	-0.482604	9.12118	-3.59906	2.38581	0.0977524	-0.000851002	0.0141997	-0.68335	0.708008	-0.198975	0.426316	-0.532732	-0.484997	-0.547019	9.7539	0.894089	-0.539837	0.104799	0.00962562	-0.0150919	-1.0144	0.352051	0.112305	0.405697	-0.502568	-0.54114	-0.538519	9.62672	1.73525	-0.942653	0.0924462	0.0443159	-0.0400749	-1.05542	0.208984	0.135742	0.399093	-0.589651	-0.475019	-0.517101	9.61476	0.284294	-1.33313	0.0273557	0.0103726	-0.0116966	-0.945801	0.389648	0.234375	0.43467	-0.591465	-0.426724	-0.528335	9.83156	-0.838311	-0.569004	0.0692738	-8.6059e-05	-0.00535964	-1.00659	0.51416	0.182617	
5320	0.698715	-0.616562	-0.0897871	-0.351549	5.72973	-8.18069	2.12332	0.00411611	-0.0312405	0.131928	-0.143311	1.00415	-0.0527344	0.598046	-0.512498	-0.109131	-0.606446	7.4798	-4.97368	4.38875	-0.0106343	-0.0093714	0.0169205	-0.450928	0.716553	-0.143799	0.50768	0.04085	0.502893	-0.698348	-5.82448	-6.80102	4.95049	-0.0907941	-0.0288981	-0.025948	0.281006	0.85498	-0.210449	0.107884	0.158726	0.305404	-0.932682	-3.53011	-5.13981	7.35541	-0.0191854	-0.070438	0.00130711	-0.0246582	0.676514	-0.837646	0.3509	0.0421329	0.426029	-0.832822	-3.25728	-6.72265	6.13194	-0.138888	-0.0600861	-0.0809243	0.0510254	0.886963	-0.497314	0.73122	-0.0472807	0.672138	-0.106356	-8.88066	-1.91571	1.09724	0.0177604	0.0437717	-0.0618478	0.762207	0.199219	0.596191	0.628919	-0.516683	-0.324746	-0.481706	9.04503	-3.65604	2.36666	0.116256	-0.00126076	0.0111239	-0.679443	0.71875	-0.203369	0.426687	-0.532122	-0.485953	-0.546474	9.76609	0.913012	-0.423606	0.104261	-0.00507756	-0.0310813	-1.00586	0.356445	0.114502	0.406394	-0.501661	-0.541803	-0.538173	9.62856	1.68137	-0.8832	0.0980351	0.0447359	-0.0415944	-1.04834	0.206787	0.133789	0.399518	-0.589128	-0.475746	-0.5167	9.68101	0.187428	-1.50346	0.0878793	-0.00216893	-0.0178675	-0.945801	0.387451	0.23877	0.43616	-0.590484	-0.428046	-0.527133	9.85348	-0.858551	-0.576995	0.201268	-0.00927291	-0.00437344	-1.01123	0.51416	0.18042	
5321	0.699489	-0.616465	-0.0887072	-0.350453	5.64832	-8.13293	2.12976	0.0281007	0.0156932	0.133662	-0.134277	1.00415	-0.0546875	0.59831	-0.51273	-0.109074	-0.606	7.53601	-4.93496	4.35241	-0.000371614	-0.0199642	0.0295142	-0.450928	0.71875	-0.141602	0.507513	0.0396016	0.503069	-0.698415	-5.8667	-6.76993	4.81808	-0.0547961	-0.0528	-0.0650318	0.274658	0.850586	-0.205811	0.108223	0.158204	0.304311	-0.933089	-3.48779	-5.19259	7.22207	0.0903498	-0.0510835	-0.0148795	-0.0310059	0.669922	-0.843994	0.350203	0.0411642	0.425791	-0.833286	-3.60154	-6.8089	6.1873	0.00383869	-0.0425483	-0.0857938	0.0576172	0.886963	-0.495117	0.730729	-0.0472235	0.672554	-0.107133	-9.00217	-2.01393	1.09672	0.0433146	0.0672936	-0.0619203	0.762207	0.197021	0.594238	0.629675	-0.516	-0.325407	-0.481002	9.12769	-3.52488	2.48639	0.133355	0.00831355	-0.000131684	-0.675293	0.71875	-0.207764	0.426982	-0.531662	-0.486577	-0.546136	9.80999	0.689568	-0.271418	0.0800254	0.0093837	-0.0315043	-1.01221	0.354004	0.116943	0.407178	-0.500642	-0.542602	-0.537723	9.62022	1.55299	-0.873485	0.116036	0.0448457	-0.0392851	-1.05322	0.211426	0.124756	0.40069	-0.587986	-0.477026	-0.515914	9.8067	0.0914881	-1.55613	0.1891	0.0224869	-0.0229959	-0.952637	0.394043	0.229492	0.437483	-0.589582	-0.42935	-0.525985	9.95425	-0.388488	-0.630547	0.18785	-0.0156931	-0.00916482	-1.01147	0.518555	0.177979	
5322	0.700297	-0.616388	-0.0874203	-0.349296	5.44678	-8.18764	2.13735	0.0226138	0.0225064	0.14198	-0.127686	1.00439	-0.0612793	0.598483	-0.512916	-0.109168	-0.605654	7.66131	-4.94788	4.49823	0.00808494	-0.0206604	0.0131955	-0.44873	0.71875	-0.141602	0.506967	0.0378804	0.502764	-0.699126	-5.98708	-6.76639	4.82684	-0.0163867	-0.0879387	-0.126732	0.266113	0.855225	-0.210449	0.107399	0.158438	0.30136	-0.934101	-3.5446	-5.27746	7.25576	0.252807	0.00216018	-0.0412736	-0.0258789	0.656738	-0.848145	0.349546	0.0401024	0.425773	-0.833623	-3.61578	-6.57421	6.24621	-0.0136677	-0.0482693	-0.0960911	0.0532227	0.891357	-0.497314	0.730085	-0.0470324	0.6732	-0.10754	-9.0769	-1.96123	1.00138	0.032295	0.0934724	-0.0364391	0.757568	0.203369	0.593994	0.630531	-0.514996	-0.325876	-0.48064	9.24771	-3.43968	2.40303	0.135852	0.038939	-0.0160026	-0.679443	0.714355	-0.211914	0.427528	-0.530987	-0.487415	-0.545618	9.78283	0.616156	-0.382071	0.115612	0.0164901	-0.0253917	-1.01221	0.354004	0.114502	0.408205	-0.499523	-0.543488	-0.537091	9.63337	1.68616	-0.772602	0.147915	0.0383352	-0.0415518	-1.05322	0.213623	0.124756	0.402208	-0.586729	-0.47808	-0.515187	9.61188	0.289735	-1.42299	0.185272	0.0423491	-0.00628997	-0.945801	0.389648	0.231934	0.438018	-0.589231	-0.429914	-0.525472	9.86237	-0.590239	-0.70775	0.0787768	-0.0108329	-0.0126282	-1.01123	0.516357	0.182617	
5323	0.701053	-0.616248	-0.0864405	-0.348268	5.48937	-8.24336	2.1697	0.024471	0.00963782	0.113109	-0.13208	1.0022	-0.0568848	0.598617	-0.513007	-0.109414	-0.605401	7.57502	-4.75964	4.55622	0.0171288	-0.0199092	-0.00317507	-0.45752	0.720947	-0.144043	0.506114	0.0360663	0.501539	-0.700719	-6.01757	-6.70245	4.94779	0.0616598	-0.122244	-0.171278	0.266113	0.853027	-0.212646	0.105896	0.159346	0.297157	-0.935464	-3.79374	-5.07136	7.36364	0.362672	0.0484898	-0.0575925	-0.0258789	0.656738	-0.852539	0.349223	0.0384093	0.426676	-0.833376	-3.43602	-6.62788	6.40969	-0.114205	-0.0732025	-0.0790631	0.0532227	0.891357	-0.495117	0.729209	-0.0472218	0.674139	-0.107523	-9.38208	-1.95801	0.759408	-0.0307978	0.116494	-0.0256512	0.757568	0.203613	0.602539	0.631128	-0.514198	-0.326552	-0.480252	9.17963	-3.33421	2.33825	0.114344	0.0188706	-0.0220066	-0.681641	0.716553	-0.209717	0.428259	-0.530139	-0.488452	-0.544942	9.7614	0.756825	-0.391839	0.142951	0.0155362	-0.0288234	-1.0166	0.354248	0.105225	0.408786	-0.498836	-0.543966	-0.536803	9.64854	1.70276	-0.813404	0.0831104	0.0295269	-0.0402346	-1.05298	0.208984	0.131348	0.40284	-0.586171	-0.478785	-0.514673	9.55138	0.451426	-1.42021	0.106807	0.00794476	-0.00683967	-0.950684	0.39624	0.229492	0.438632	-0.588781	-0.430657	-0.524856	9.82012	-0.883318	-0.690089	0.0966904	-0.00723436	-0.0130718	-1.01147	0.518555	0.177979	
5324	0.701494	-0.616105	-0.0858331	-0.347784	5.55294	-8.03067	2.22896	0.0213982	0.0181223	0.0666218	-0.134521	1.00854	-0.0568848	0.598498	-0.513258	-0.109297	-0.605327	7.55137	-4.59736	4.44409	-0.0199386	-0.00760398	0.00395828	-0.453125	0.71875	-0.14624	0.504934	0.0343968	0.500131	-0.702657	-5.73922	-6.6832	5.0775	0.0925201	-0.110517	-0.20663	0.255127	0.857666	-0.217285	0.104418	0.160574	0.29224	-0.936968	-3.73594	-5.03737	7.39762	0.434525	0.0660904	-0.0542082	-0.0297852	0.645996	-0.861328	0.349383	0.0372612	0.427635	-0.832869	-3.57869	-6.88446	6.39072	-0.115323	-0.0514071	-0.0252593	0.0466309	0.891113	-0.495117	0.72834	-0.0476953	0.675079	-0.107304	-9.46003	-2.19674	0.656899	-0.0475618	0.109411	-0.0297618	0.755615	0.199219	0.602783	0.631219	-0.514168	-0.326968	-0.479881	9.10019	-3.20794	2.51492	0.052322	-0.00512993	-0.0124474	-0.677246	0.714355	-0.213867	0.429086	-0.529343	-0.48937	-0.544241	9.79482	0.853841	-0.318648	0.134228	0.00970071	-0.0156432	-1.01025	0.354248	0.107422	0.409192	-0.498229	-0.54448	-0.536536	9.70085	1.53728	-0.911369	0.0665595	0.029035	-0.0382268	-1.05078	0.206787	0.122559	0.40323	-0.58572	-0.479227	-0.514471	9.625	0.41436	-1.49522	0.0689682	0.0152118	-0.0128094	-0.941406	0.389893	0.229736	0.439503	-0.588149	-0.431608	-0.524054	9.76375	-0.765961	-0.657445	0.130836	-0.0114919	-0.0160619	-1.00903	0.51416	0.182617	
5325	0.701646	-0.616239	-0.0849836	-0.347448	5.55552	-7.98469	2.29096	-0.0144664	0.0309607	0.0661141	-0.127686	1.00439	-0.059082	0.598433	-0.513405	-0.109473	-0.605235	7.52068	-4.76632	4.50835	-0.00381513	-0.0181612	-0.00914391	-0.453125	0.71875	-0.144043	0.503123	0.0325874	0.498719	-0.705042	-5.67148	-6.86532	5.16067	0.102976	-0.0944493	-0.255171	0.259521	0.853271	-0.214844	0.102659	0.161654	0.286439	-0.938766	-3.77718	-4.54982	7.67152	0.506328	0.0496804	-0.058368	-0.0314941	0.632812	-0.867676	0.349318	0.0368549	0.427974	-0.832741	-3.56621	-6.81224	6.30046	-0.0447992	-0.010601	-0.0152292	0.0441895	0.895508	-0.492676	0.727656	-0.0478193	0.675831	-0.107161	-9.30179	-2.21497	0.706858	-0.0152637	0.0916106	-0.0164241	0.751221	0.199219	0.598389	0.631592	-0.513794	-0.327348	-0.479531	9.14356	-3.35534	2.42027	0.0717749	0.00921334	-0.00908519	-0.672607	0.708008	-0.21167	0.429456	-0.529008	-0.489748	-0.543935	9.82142	0.859319	-0.422681	0.0629456	0.0108248	-0.0107823	-1.01245	0.356201	0.112061	0.409481	-0.497749	-0.544719	-0.53652	9.7015	1.73598	-0.83755	0.0418436	0.0260188	-0.032976	-1.06006	0.208984	0.126953	0.403675	-0.585279	-0.479389	-0.514472	9.57626	0.245715	-1.47443	0.0513858	0.0388458	-0.00250194	-0.946045	0.394043	0.222656	0.440537	-0.587388	-0.432909	-0.522965	9.77075	-0.787435	-0.685932	0.166844	-0.0175058	-0.0138576	-1.01367	0.518555	0.177979	
5326	0.701747	-0.616346	-0.0840171	-0.347288	5.48764	-8.15572	2.32624	-0.024479	0.0439138	0.0574348	-0.125732	1.00879	-0.0612793	0.598169	-0.513654	-0.110046	-0.60518	7.57107	-4.71451	4.59626	0.00413074	-0.0418386	-0.0363465	-0.44873	0.71875	-0.136963	0.50187	0.0313189	0.497526	-0.706834	-5.66847	-6.94886	5.47019	0.095804	-0.0764735	-0.198221	0.244385	0.855713	-0.228516	0.10143	0.161511	0.283636	-0.939775	-3.87449	-4.40799	8.07838	0.245129	-0.015497	-0.0760023	-0.0314941	0.632812	-0.867676	0.34898	0.0364647	0.428203	-0.832782	-3.403	-6.67482	6.3322	-0.0253059	-0.00239115	-0.0345239	0.0463867	0.895508	-0.492676	0.72694	-0.0477591	0.676604	-0.107163	-9.25002	-2.06439	0.731232	-0.00795628	0.0970879	-0.0116719	0.749268	0.197021	0.600586	0.632113	-0.513076	-0.327886	-0.479247	9.18353	-3.31315	2.39342	0.0845377	0.0238108	-0.0223626	-0.681396	0.710205	-0.216064	0.429384	-0.528972	-0.489877	-0.543911	9.74459	0.869027	-0.462589	0.017534	0.00845653	-0.0178487	-1.01904	0.358398	0.107422	0.409482	-0.497621	-0.544611	-0.536746	9.61539	1.70268	-0.893248	-0.0101678	0.0261722	-0.0299576	-1.05322	0.211426	0.126953	0.40426	-0.584741	-0.479644	-0.514387	9.60122	0.173642	-1.51933	0.0584729	0.0334927	-0.00302688	-0.948242	0.394043	0.227295	0.441979	-0.586422	-0.434325	-0.521658	9.94772	-0.576823	-0.767476	0.206306	-0.0139188	-0.00712734	-1.00903	0.51416	0.178223	
5327	0.702001	-0.616222	-0.083404	-0.347143	5.33137	-8.09351	2.33281	0.00254742	0.0309684	0.0386282	-0.12793	1.00879	-0.059082	0.597801	-0.514159	-0.109837	-0.605154	7.64143	-4.6638	4.55007	-0.0455586	-0.0132232	-0.0157395	-0.452881	0.716797	-0.129639	0.500979	0.0308354	0.497037	-0.707831	-5.34081	-6.95384	5.5704	0.0356302	-0.0117277	-0.0978019	0.248779	0.862061	-0.224121	0.101337	0.16065	0.28343	-0.939995	-3.67618	-4.69962	8.32727	0.0224813	-0.059042	-0.0492466	-0.0380859	0.630615	-0.869873	0.348741	0.036669	0.428034	-0.83296	-3.46119	-6.66911	6.24176	0.0207839	0.0215259	-0.0148555	0.048584	0.893555	-0.497314	0.726313	-0.047648	0.677246	-0.10741	-9.0743	-2.06142	0.816905	0.0153516	0.0851169	-0.024065	0.74707	0.199219	0.602783	0.632098	-0.513155	-0.328099	-0.479035	9.17618	-3.20837	2.65874	0.0152283	0.00278215	-0.00680024	-0.679199	0.708008	-0.21582	0.42931	-0.529002	-0.489886	-0.543932	9.85275	0.841749	-0.399417	0.00696245	0.00578142	-0.0113815	-1.01025	0.356445	0.105225	0.40971	-0.497345	-0.544689	-0.536749	9.74136	1.65433	-0.920254	0.0220888	0.0294043	-0.0296098	-1.05542	0.206787	0.120361	0.404905	-0.584166	-0.480194	-0.51402	9.56504	0.162167	-1.63893	0.0959014	0.0227502	-0.00572219	-0.943848	0.39624	0.227295	0.443193	-0.585563	-0.435512	-0.5206	9.92505	-0.544835	-0.749111	0.173267	-0.00169661	-0.00266946	-1.01147	0.518555	0.173584	
5328	0.702336	-0.616243	-0.0828963	-0.346549	5.33219	-7.98256	2.30467	0.00716421	0.000438901	0.0665498	-0.125732	1.00879	-0.059082	0.597414	-0.51459	-0.109176	-0.605288	7.6266	-4.89901	4.53035	-0.0583979	0.0225247	0.000431668	-0.450928	0.71875	-0.13916	0.50032	0.0306685	0.497407	-0.708044	-5.36458	-7.04649	5.415	-0.0214648	0.0336293	-0.0502544	0.246582	0.859863	-0.217285	0.101958	0.159455	0.284835	-0.939706	-3.45417	-4.74562	8.38708	-0.128982	-0.0773745	-0.0104505	-0.03125	0.628418	-0.867432	0.348195	0.0372057	0.427564	-0.833406	-3.55765	-6.45957	6.11924	0.052798	0.0433409	-0.0332939	0.0461426	0.900146	-0.497314	0.725863	-0.0470235	0.677601	-0.108484	-8.99779	-1.99053	0.937364	0.0907963	0.0649342	-0.0412046	0.751465	0.199219	0.604736	0.632246	-0.513326	-0.328187	-0.478597	9.18262	-3.34685	2.69068	0.0127384	-0.00183384	0.0194212	-0.681641	0.714355	-0.216064	0.429127	-0.529088	-0.489895	-0.543985	9.87608	0.820518	-0.446698	-0.0045561	-0.0030974	-0.017031	-1.00806	0.354248	0.107422	0.409999	-0.496957	-0.544756	-0.53682	9.72614	1.72759	-0.771897	0.0288734	0.0305686	-0.0273116	-1.05298	0.208984	0.122559	0.405634	-0.583624	-0.481018	-0.513289	9.61271	0.258355	-1.63614	0.126977	0.0025586	-0.00933941	-0.948242	0.394043	0.222656	0.444378	-0.58478	-0.436454	-0.519681	9.88663	-0.44176	-0.765176	0.155192	0.00555691	0.00136002	-1.00928	0.520752	0.173584	
5329	0.702793	-0.616317	-0.0823507	-0.34562	5.39272	-8.08314	2.33061	0.011204	-0.0151634	0.0906969	-0.123535	1.00659	-0.0546875	0.597288	-0.514709	-0.10878	-0.605383	7.60057	-5.02684	4.45125	-0.0314803	0.0177058	-0.00131008	-0.450928	0.716553	-0.136719	0.499792	0.0304835	0.497798	-0.708149	-5.54062	-6.97	5.30275	-0.0198678	0.0282554	-0.0382653	0.248779	0.859863	-0.224121	0.102435	0.158604	0.285883	-0.93948	-3.40157	-4.87644	8.2625	-0.104145	-0.0587842	-0.014844	-0.0380859	0.632812	-0.869873	0.34731	0.0369162	0.428018	-0.833555	-3.55132	-6.53927	6.10876	-0.033893	0.0278662	-0.0752771	0.0441895	0.895508	-0.495117	0.725463	-0.0461815	0.677887	-0.109726	-8.98806	-1.8234	0.892932	0.123393	0.067824	-0.0443578	0.746826	0.207764	0.606689	0.632704	-0.51301	-0.328512	-0.478107	9.2069	-3.5479	2.45099	0.0740803	0.00768175	0.0102424	-0.675049	0.714355	-0.213867	0.428818	-0.529165	-0.489681	-0.544346	9.81297	0.829931	-0.374011	-0.032792	0.0157662	-0.0219411	-1.01465	0.356201	0.112305	0.409961	-0.496973	-0.544469	-0.537126	9.63609	1.74795	-0.717716	-0.0247703	0.0248616	-0.0206188	-1.05054	0.202148	0.122559	0.406425	-0.582989	-0.481776	-0.512674	9.73097	0.461801	-1.49923	0.116541	0.0120034	-0.00270891	-0.947998	0.389648	0.2229	0.44468	-0.58463	-0.436577	-0.519488	9.94758	-0.339634	-0.757209	0.0326747	0.0151861	-0.0018616	-1.01172	0.525146	0.164307	
5330	0.703223	-0.616349	-0.0818524	-0.344807	5.38579	-8.08489	2.31214	0.019046	-0.0103175	0.0829445	-0.121338	1.00879	-0.059082	0.59727	-0.514768	-0.10856	-0.60539	7.53403	-4.7988	4.41871	-0.0123427	0.0112849	0.000520562	-0.452881	0.716797	-0.134521	0.499637	0.0303813	0.498314	-0.7079	-5.60635	-6.98262	5.23483	-0.0492213	0.0271363	-0.00449032	0.242188	0.862305	-0.224121	0.102613	0.157896	0.286899	-0.93927	-3.54413	-4.91635	8.15381	-0.100264	-0.0386986	-0.0263123	-0.0361328	0.639404	-0.865479	0.346521	0.0366695	0.428132	-0.833836	-3.61442	-6.73194	6.09311	-0.00825601	0.0168328	-0.0707179	0.0419922	0.895508	-0.495117	0.72513	-0.0457479	0.678185	-0.110267	-8.95905	-1.80717	0.773908	0.0479395	0.0527475	-0.0175107	0.751221	0.205566	0.608887	0.632998	-0.512717	-0.328806	-0.477829	9.16852	-3.37645	2.30138	0.0591542	0.0107082	-0.0109617	-0.679443	0.714355	-0.213867	0.428432	-0.529392	-0.489121	-0.544933	9.70051	0.812149	-0.254931	-0.06009	0.0344986	-0.0120018	-1.0127	0.362793	0.114502	0.409663	-0.497125	-0.54415	-0.537535	9.55504	1.7328	-0.819277	-0.0479845	0.0128881	-0.015506	-1.05762	0.206787	0.126953	0.406844	-0.582653	-0.482026	-0.512489	9.65677	0.594789	-1.39971	0.0514679	0.0243777	0.0113832	-0.947998	0.385254	0.2229	0.444522	-0.584861	-0.436048	-0.519808	9.84468	-0.767005	-0.679925	-0.0459764	0.0176385	0.00121772	-1.00903	0.516357	0.171387	
5331	0.703661	-0.616419	-0.0814414	-0.343883	5.30848	-8.1046	2.27353	0.0144406	-0.0230076	0.0841106	-0.114746	1.00879	-0.0568848	0.597112	-0.514936	-0.108177	-0.605472	7.62455	-4.70099	4.47562	-0.0288712	0.0174724	0.000550679	-0.450928	0.718994	-0.13208	0.499533	0.0305057	0.498983	-0.707497	-5.61617	-6.95555	5.25094	-0.0581076	0.0442358	0.0256734	0.248779	0.862061	-0.217285	0.103207	0.157376	0.288366	-0.938843	-3.60253	-5.01358	7.94822	-0.132722	-0.0274569	-0.00492559	-0.0385742	0.641357	-0.863281	0.345968	0.0361916	0.428147	-0.834078	-3.52436	-6.61813	6.10015	-0.0100841	-0.0100444	-0.0603704	0.0397949	0.895508	-0.490479	0.724933	-0.0454287	0.678418	-0.110263	-8.97664	-1.80707	0.75519	0.025138	0.0440503	0.00189418	0.742676	0.203369	0.606934	0.632987	-0.512826	-0.328909	-0.477655	9.12286	-3.28003	2.50717	0.0169775	0.00704611	-0.00637206	-0.679199	0.710205	-0.213867	0.428284	-0.52965	-0.488697	-0.545177	9.86663	0.879474	-0.349828	-0.0232486	0.0256267	-0.00462652	-1.01685	0.356445	0.107422	0.409587	-0.497222	-0.544067	-0.537587	9.72287	1.73798	-0.817375	-0.012993	0.0092534	-0.0155678	-1.04858	0.211426	0.126953	0.406544	-0.582804	-0.481918	-0.512657	9.58391	0.520207	-1.42764	-0.0273204	0.00594993	0.0146743	-0.952637	0.394043	0.222656	0.44448	-0.5849	-0.435974	-0.519861	9.80961	-0.67127	-0.665293	-0.00791859	0.0120777	0.00021851	-1.00903	0.516357	0.168945	
5332	0.703991	-0.616705	-0.0810263	-0.342791	5.37579	-8.12758	2.26363	0.00196807	-0.0384099	0.085757	-0.11499	1.01538	-0.059082	0.596806	-0.515323	-0.107671	-0.605534	7.60473	-4.91041	4.47565	-0.0493771	0.0122044	-0.00212794	-0.450928	0.720947	-0.136963	0.499448	0.0305779	0.499782	-0.70699	-5.67781	-6.9867	5.13797	-0.0620225	0.0439586	0.0175944	0.246582	0.864258	-0.212891	0.103855	0.156883	0.28988	-0.938388	-3.46445	-5.11924	7.76244	-0.138058	-0.0238127	0.00336185	-0.0429688	0.63916	-0.863281	0.345584	0.0349301	0.428946	-0.833881	-3.42794	-6.75453	6.22409	-0.0931669	-0.0445641	-0.0665864	0.0397949	0.895508	-0.495117	0.72456	-0.0454641	0.678832	-0.110146	-9.16919	-1.73405	0.675463	-0.00806942	0.0531505	-0.00965108	0.749023	0.205566	0.606934	0.633264	-0.512642	-0.329152	-0.477319	9.19706	-3.42618	2.39632	0.0436525	0.0136774	0.00265167	-0.677246	0.712402	-0.213867	0.428165	-0.529633	-0.488462	-0.545499	9.86161	0.844213	-0.422387	-0.0181197	0.0249668	-0.0133561	-1.01245	0.354248	0.112305	0.409659	-0.497384	-0.54399	-0.53746	9.66622	1.72834	-0.791059	0.00158396	0.00708774	-0.00785834	-1.05078	0.206787	0.122559	0.405919	-0.58322	-0.481333	-0.513227	9.66997	0.339313	-1.38926	-0.0814064	0.0148009	0.0120852	-0.950684	0.39624	0.224854	0.444328	-0.585047	-0.435708	-0.520049	9.87861	-0.544297	-0.710197	-0.029374	0.0131677	0.0036211	-1.01147	0.520752	0.173584	
5333	0.704163	-0.617027	-0.0806026	-0.341958	5.43966	-8.17035	2.27756	-0.0122567	-0.0269996	0.0679755	-0.116943	1.00879	-0.0568848	0.596563	-0.515583	-0.10733	-0.605613	7.56347	-4.88582	4.44445	-0.0383893	0.00637638	-0.008156	-0.444336	0.716797	-0.134521	0.499429	0.030407	0.50039	-0.706581	-5.67413	-6.99909	5.03879	-0.0529982	0.0176453	0.0137274	0.248779	0.855469	-0.214844	0.104165	0.156208	0.290811	-0.938178	-3.42994	-5.07824	7.66787	-0.0948493	-0.0343939	-0.0090331	-0.0432129	0.647949	-0.86792	0.345252	0.0341965	0.428929	-0.834058	-3.54267	-6.88962	6.27949	-0.0223556	-0.0368053	-0.0543917	0.0397949	0.897705	-0.490479	0.724382	-0.0456725	0.679012	-0.110121	-9.23959	-1.87273	0.594472	-0.0133161	0.0364691	-0.0266606	0.744629	0.203369	0.604736	0.633289	-0.512586	-0.329446	-0.477144	9.17402	-3.40692	2.30146	0.0293061	0.00403754	-0.0167762	-0.677246	0.714355	-0.222412	0.428126	-0.529565	-0.488185	-0.545843	9.75366	0.77142	-0.429056	-0.0167956	0.0396187	-0.00945725	-1.01245	0.358398	0.114502	0.40948	-0.497731	-0.543642	-0.537627	9.61466	1.79811	-0.794621	-0.0367455	0.000707597	-0.00122036	-1.06006	0.206787	0.124756	0.405151	-0.583777	-0.480522	-0.513961	9.632	0.211768	-1.48966	-0.10331	0.0205917	0.0109997	-0.945801	0.389648	0.2229	0.443906	-0.585487	-0.435134	-0.520394	9.87907	-0.620419	-0.699066	-0.0686491	0.0164827	0.00571842	-1.00708	0.525146	0.168945	
5334	0.704036	-0.617427	-0.0803897	-0.341546	5.37442	-8.22888	2.25798	-0.0274538	-0.0208695	0.03602	-0.110352	1.01099	-0.0546875	0.59641	-0.515574	-0.107331	-0.605771	7.55972	-4.70095	4.44721	-0.00663669	0.00819704	-0.0316093	-0.451172	0.723145	-0.132324	0.499903	0.0302454	0.501055	-0.70578	-5.63672	-6.95455	5.11932	-0.0791242	0.00394412	0.0489133	0.244385	0.866455	-0.208252	0.104802	0.155352	0.29268	-0.937668	-3.44806	-5.17386	7.75952	-0.178109	-0.0521594	0.000311098	-0.043457	0.650146	-0.852539	0.345008	0.033763	0.428634	-0.834327	-3.5101	-6.68023	6.25437	0.0159038	-0.0275615	-0.0441366	0.0375977	0.899902	-0.490479	0.724364	-0.0457278	0.678949	-0.110608	-9.21466	-1.86383	0.589004	0.0246119	0.014131	-0.0479404	0.749023	0.201416	0.606934	0.633141	-0.512625	-0.329488	-0.47727	9.14921	-3.19957	2.54738	0.00131446	0.00976569	-0.0250286	-0.679199	0.710205	-0.216064	0.428103	-0.529625	-0.48786	-0.546094	9.84509	0.822772	-0.423385	-0.0135345	0.0359862	-0.00431086	-1.01465	0.358398	0.112061	0.40909	-0.498326	-0.543062	-0.537959	9.7149	1.72307	-0.83564	-0.0717909	-0.0032334	0.0041983	-1.04858	0.211426	0.124756	0.40467	-0.584123	-0.480036	-0.514401	9.58923	0.162559	-1.56836	-0.0680389	0.0134716	0.0145544	-0.950439	0.394043	0.222656	0.443654	-0.585844	-0.434545	-0.5207	9.7841	-0.675018	-0.733429	-0.055716	0.0167011	0.00327102	-1.01831	0.520752	0.166748	
5335	0.703735	-0.617913	-0.0802211	-0.341329	5.46954	-8.21997	2.27042	-0.0377474	-0.0185042	0.00900876	-0.114746	1.01099	-0.0546875	0.595977	-0.515843	-0.107179	-0.605995	7.58699	-4.8752	4.59283	-0.0342681	0.00509564	-0.0343334	-0.44873	0.71875	-0.134521	0.500288	0.0300662	0.501925	-0.704896	-5.69741	-7.08166	5.13053	-0.0853265	0.0107554	0.0616624	0.246582	0.859863	-0.208252	0.106129	0.154231	0.295414	-0.936846	-3.45005	-5.44652	7.78492	-0.242458	-0.0659095	0.032307	-0.0437012	0.656738	-0.856934	0.344599	0.0331507	0.428571	-0.834554	-3.41433	-6.88132	6.23863	-0.00333217	-0.026688	-0.0594817	0.0288086	0.897705	-0.490479	0.724474	-0.0459645	0.678699	-0.111317	-9.23366	-1.86481	0.609175	0.0418024	-0.000423623	-0.0765654	0.746826	0.203369	0.609131	0.632992	-0.512888	-0.329891	-0.476906	9.0525	-3.39119	2.40327	0.00972499	-0.0261682	-0.00605194	-0.679199	0.712402	-0.216064	0.427874	-0.529738	-0.487095	-0.546845	10.0188	0.867634	-0.438092	-0.0641648	0.0586643	-0.00812781	-1.01245	0.358398	0.109863	0.408926	-0.498845	-0.542647	-0.538022	9.71393	1.62564	-0.781142	-0.0383909	-0.00530949	0.00605717	-1.05078	0.208984	0.124756	0.404668	-0.584309	-0.479688	-0.514516	9.51666	0.144789	-1.51324	-0.0210359	0.0172055	0.028526	-0.948486	0.398438	0.224854	0.443237	-0.586193	-0.433837	-0.521252	9.78926	-0.609277	-0.776286	-0.0796282	0.0222818	0.00552269	-1.01123	0.516357	0.177979	
5336	0.70336	-0.618284	-0.0800439	-0.341471	5.53853	-8.28482	2.33475	-0.0397392	0.00352683	-0.00589311	-0.112549	1.00659	-0.0546875	0.595741	-0.515987	-0.107042	-0.606129	7.57303	-4.8852	4.48853	-0.0235274	0.00456877	-0.0231436	-0.446533	0.721191	-0.132324	0.501057	0.0294519	0.502673	-0.703843	-5.85867	-6.96209	5.05068	-0.108	-0.0318743	0.067283	0.248535	0.868652	-0.212891	0.107256	0.153392	0.297252	-0.936274	-3.37523	-5.492	7.8949	-0.175475	-0.0599977	0.0373851	-0.0483398	0.658936	-0.85498	0.343931	0.0330255	0.427211	-0.835531	-3.54468	-6.9191	6.24573	0.120493	-0.0204405	-0.0645692	0.0332031	0.897705	-0.497314	0.724748	-0.0461139	0.678209	-0.112457	-9.26843	-1.97844	0.614245	0.0751427	-0.0265494	-0.095105	0.746826	0.205566	0.606934	0.632837	-0.513337	-0.330176	-0.476431	9.30345	-3.55482	2.46271	0.00268013	-0.034423	0.00758697	-0.679199	0.712402	-0.216064	0.427423	-0.529696	-0.486208	-0.548026	9.60189	0.887575	-0.376377	-0.0915168	0.0767576	-0.0341174	-1.01245	0.358643	0.102783	0.408567	-0.499498	-0.542191	-0.538148	9.45655	1.9345	-0.70961	-0.0559694	-0.0171727	0.00772774	-1.05322	0.211426	0.124756	0.404515	-0.584656	-0.479226	-0.514673	9.61154	0.199842	-1.55512	-0.0327124	0.0141533	0.0236425	-0.946045	0.394043	0.236328	0.442569	-0.586715	-0.433012	-0.521918	9.95924	-0.602327	-0.722818	-0.105379	0.0339665	0.00652351	-1.01587	0.520752	0.175781	
5337	0.703134	-0.618331	-0.0799994	-0.341863	5.41359	-8.285	2.34831	-0.0148976	0.0174276	-0.0255522	-0.116943	1.01099	-0.0546875	0.595448	-0.516337	-0.107041	-0.60612	7.517	-4.75223	4.51815	-0.0257841	-0.017036	-0.0290674	-0.44873	0.721191	-0.129883	0.502228	0.0292554	0.503242	-0.702608	-5.6348	-7.04291	4.92381	-0.0977849	-0.030289	0.117912	0.261475	0.864014	-0.210693	0.108165	0.15264	0.298943	-0.935753	-3.27468	-5.33374	7.90089	-0.161836	-0.0447872	0.0313646	-0.0461426	0.66333	-0.852783	0.343401	0.0334131	0.42583	-0.836438	-3.64196	-6.50069	6.12172	0.128896	0.00489019	-0.0453111	0.0334473	0.895508	-0.499512	0.725265	-0.0458816	0.677412	-0.114016	-9.24758	-2.03613	0.696789	0.121974	-0.0520572	-0.0979693	0.752686	0.216553	0.602295	0.632659	-0.513791	-0.329979	-0.476314	9.12051	-3.38527	2.67104	-0.0274675	0.00279875	0.00855588	-0.679199	0.712158	-0.21167	0.426984	-0.529618	-0.484986	-0.549525	9.87087	0.838551	-0.423976	-0.117896	0.0956708	-0.0327501	-1.01025	0.358398	0.112061	0.40742	-0.500952	-0.540822	-0.539043	9.73714	1.79445	-0.729338	-0.18376	-0.0272202	0.0169736	-1.05298	0.206787	0.126953	0.403932	-0.585202	-0.478827	-0.514881	9.58463	0.349919	-1.68281	-0.041789	0.00758338	0.0130024	-0.945801	0.389648	0.2229	0.441815	-0.58724	-0.43202	-0.522788	9.89125	-0.606921	-0.710493	-0.122123	0.0409212	-0.00145075	-1.01367	0.518555	0.171143	
5338	0.703151	-0.61807	-0.0802995	-0.342227	5.33615	-8.09957	2.3345	0.0239878	0.00716769	-0.0325638	-0.110352	1.01099	-0.0568848	0.59531	-0.516658	-0.107118	-0.605967	7.48554	-4.89334	4.41809	-0.0114148	-0.021932	-0.015901	-0.455322	0.71875	-0.13208	0.503843	0.0297223	0.503572	-0.701195	-5.71023	-6.89776	5.0009	-0.0637342	-0.0206442	0.156042	0.261719	0.861816	-0.203613	0.109359	0.152434	0.300617	-0.935112	-3.39061	-5.49066	7.76058	-0.161905	-0.0130101	0.0648094	-0.0441895	0.667725	-0.850586	0.342988	0.0335385	0.425294	-0.836875	-3.45122	-6.76312	6.03105	0.0493581	0.00653142	-0.0390139	0.0290527	0.895508	-0.497314	0.725908	-0.0455157	0.676508	-0.115428	-9.12282	-1.93173	0.633942	0.102675	-0.0575269	-0.0760925	0.75293	0.212158	0.606689	0.633097	-0.51386	-0.330318	-0.475422	8.90815	-3.57774	2.25259	0.0580398	-0.0216619	0.0392168	-0.675049	0.714355	-0.213867	0.426086	-0.529868	-0.482885	-0.551827	10.101	0.503526	-0.409162	-0.216751	0.140869	-0.0306301	-1.01245	0.354248	0.109863	0.406333	-0.502251	-0.539635	-0.539844	9.75684	1.2095	-0.954991	-0.167639	-0.0277683	0.018276	-1.05298	0.206787	0.133789	0.403548	-0.585334	-0.478625	-0.515219	9.52374	0.301101	-1.64573	-0.0472315	0.0119177	0.00133662	-0.948242	0.394043	0.227295	0.441225	-0.587607	-0.431005	-0.523711	9.81932	-0.662169	-0.72091	-0.113562	0.0485552	0.00128365	-1.01123	0.516357	0.177979	
5339	0.703374	-0.617784	-0.0801776	-0.342315	5.32108	-7.99659	2.41086	0.0233132	0.0169413	-0.00233639	-0.117188	1.01099	-0.050293	0.595379	-0.51689	-0.107349	-0.605661	7.54145	-5.02774	4.2954	0.0081945	-0.0314489	0.0061851	-0.455322	0.720947	-0.134521	0.505331	0.0301571	0.503579	-0.7001	-5.76523	-6.70906	5.05439	-0.0255379	-0.0341085	0.139782	0.261475	0.864014	-0.201416	0.110729	0.153015	0.301536	-0.93456	-3.53617	-5.50024	7.52263	-0.0974904	0.0315954	0.105258	-0.0439453	0.66333	-0.846191	0.342602	0.0339184	0.424063	-0.837642	-3.63978	-6.83832	6.06523	0.120087	0.00436829	-0.0300988	0.0268555	0.893311	-0.499512	0.726725	-0.0455703	0.675588	-0.115649	-9.17343	-2.02169	0.743565	0.0427625	-0.0809414	-0.0357597	0.750732	0.216553	0.602295	0.633448	-0.514213	-0.331088	-0.474035	9.14626	-3.60155	2.59737	0.0718415	-0.0824854	0.0462049	-0.679688	0.723145	-0.214111	0.425509	-0.529652	-0.481219	-0.553931	9.62698	0.129284	-0.454383	-0.164507	0.148815	-0.042435	-1.0166	0.352051	0.103027	0.405894	-0.502841	-0.539464	-0.539796	9.59876	1.41187	-1.06865	-0.042979	-0.0274224	0.00153066	-1.04834	0.208984	0.12915	0.403105	-0.585397	-0.478408	-0.515696	9.75221	0.157618	-1.56276	-0.0419623	0.0254969	-0.0138973	-0.947998	0.387451	0.231934	0.440464	-0.588054	-0.430027	-0.524654	9.87082	-0.627716	-0.638124	-0.122062	0.0494811	-0.00411073	-1.01587	0.520752	0.182617	
5340	0.703444	-0.617653	-0.0799717	-0.342455	5.14807	-8.00961	2.43118	0.0158947	0.0202517	0.00747802	-0.112549	1.01099	-0.0546875	0.595574	-0.517092	-0.107791	-0.605218	7.56191	-4.82709	4.30179	0.0251956	-0.0479236	0.00856091	-0.450684	0.716797	-0.120361	0.506513	0.0301581	0.503483	-0.699314	-5.69363	-6.73776	4.98578	-0.0215608	-0.0522246	0.0995303	0.265869	0.859619	-0.212891	0.111906	0.153866	0.301256	-0.93437	-3.51719	-4.98176	7.28461	0.00373933	0.0483799	0.11214	-0.0397949	0.669922	-0.852783	0.342826	0.0341657	0.423653	-0.837748	-3.48482	-6.57169	6.17705	0.0377847	-0.00125645	0.0245669	0.0334473	0.893311	-0.501953	0.727363	-0.0455208	0.674931	-0.115491	-9.18253	-1.7519	0.725556	0.00997216	-0.0597977	-0.00252449	0.750488	0.21875	0.600098	0.633665	-0.514475	-0.331255	-0.473343	9.13725	-3.4998	2.2746	0.0440558	-0.0258484	0.0271161	-0.679443	0.716553	-0.209717	0.426267	-0.528589	-0.481505	-0.554114	9.56484	0.328541	-0.649292	0.0791628	0.0840832	-0.033302	-1.01904	0.356445	0.100586	0.405562	-0.503317	-0.539064	-0.540002	9.7177	1.63023	-1.13141	-0.0495018	-0.00830662	-0.00299572	-1.05103	0.213623	0.12915	0.402619	-0.58557	-0.4782	-0.516072	9.65749	0.17411	-1.38042	-0.0406924	0.0218299	-0.000231898	-0.957031	0.391846	0.227295	0.439562	-0.588603	-0.429083	-0.525566	9.84843	-0.590363	-0.620537	-0.125227	0.0427833	-0.0128126	-1.01123	0.516357	0.177979	
5341	0.703463	-0.617748	-0.0801326	-0.342207	4.84551	-7.99164	2.38178	0.00620878	-0.0282951	0.00384246	-0.117188	1.01099	-0.050293	0.595739	-0.517481	-0.108039	-0.604679	7.49926	-4.85187	4.29943	0.0170402	-0.0344963	0.0130368	-0.448975	0.723145	-0.134766	0.507613	0.0300565	0.503103	-0.698794	-5.59693	-6.78046	5.00765	-0.0182407	-0.0608061	0.0738184	0.265869	0.86377	-0.208252	0.112821	0.15464	0.300696	-0.934312	-3.58295	-4.69495	7.06802	0.0285845	0.0354552	0.0923232	-0.0397949	0.667725	-0.841797	0.343971	0.0339204	0.424237	-0.836993	-3.32187	-6.87523	6.13315	-0.0755175	-0.0391872	0.0799141	0.0354004	0.895508	-0.499512	0.727768	-0.0463594	0.674657	-0.114205	-9.09893	-1.65734	0.613684	-0.115229	-0.0392607	0.0170213	0.750488	0.218506	0.593506	0.633696	-0.515045	-0.331696	-0.472373	8.98256	-3.4171	2.41881	0.0258814	-0.0582043	0.0350583	-0.679443	0.716553	-0.209717	0.427278	-0.527525	-0.482542	-0.553448	9.7658	0.760678	-0.496286	0.159693	0.0339365	-0.0309205	-1.0166	0.352051	0.0981445	0.405802	-0.503332	-0.538938	-0.539932	9.71355	1.46564	-1.18514	0.0152088	0.0162282	-0.00874762	-1.05542	0.208984	0.135742	0.402105	-0.585797	-0.477729	-0.516651	9.6302	0.30257	-1.12966	-0.0671743	0.0265718	0.00608432	-0.947998	0.387451	0.227539	0.43859	-0.589127	-0.428081	-0.526607	9.84886	-0.753981	-0.636708	-0.138341	0.0414439	-0.0147941	-1.01562	0.51416	0.173584	
5342	0.703282	-0.618382	-0.0806537	-0.341312	4.99702	-8.1335	2.31311	-0.0129172	-0.0963256	0.0273162	-0.11499	1.01538	-0.0546875	0.596083	-0.517667	-0.108066	-0.604175	7.57644	-5.06663	4.31884	0.0128324	-0.0311878	0.0257958	-0.448975	0.723145	-0.134766	0.508534	0.0300293	0.502612	-0.698479	-5.73279	-6.83825	5.06449	0.00831215	-0.0572726	0.0637664	0.270264	0.85498	-0.210449	0.113531	0.154514	0.30088	-0.934188	-3.68479	-4.47337	7.22689	-0.0191928	-0.00983585	0.0461083	-0.0373535	0.665527	-0.846191	0.345309	0.034042	0.423832	-0.836642	-3.40616	-6.84428	6.21708	0.0170944	-0.0493914	0.0962007	0.0356445	0.891113	-0.499512	0.728188	-0.0472635	0.674313	-0.113183	-9.02591	-1.88171	0.747814	-0.121283	-0.0405989	3.73171e-05	0.753174	0.207764	0.600342	0.634	-0.515271	-0.332117	-0.471421	9.10088	-3.70248	2.38527	0.0514691	-0.0378998	0.0374086	-0.677246	0.714355	-0.218262	0.428253	-0.526474	-0.483589	-0.552781	9.71946	0.882909	-0.32093	0.152871	0.0314934	-0.0283798	-1.01465	0.356445	0.100586	0.406626	-0.502649	-0.53953	-0.539358	9.54757	1.54505	-1.05179	0.103609	0.0391681	-0.0165941	-1.04614	0.211426	0.133545	0.401129	-0.586332	-0.477138	-0.517349	9.61901	0.233077	-1.20741	-0.111318	0.00630879	-0.000792697	-0.952637	0.389648	0.229736	0.43795	-0.589432	-0.427259	-0.527465	9.88989	-0.837286	-0.555295	-0.104857	0.0385107	-0.00623658	-1.01807	0.516357	0.175781	
5343	0.70328	-0.618875	-0.0811177	-0.340311	5.2892	-8.40143	2.32976	-0.00494177	-0.0944855	0.0346038	-0.108154	1.01099	-0.0524902	0.596444	-0.517817	-0.1085	-0.603613	7.54058	-5.03103	4.29748	0.0358945	-0.050826	0.0128377	-0.44873	0.718994	-0.129883	0.509627	0.0296378	0.502335	-0.697898	-5.76919	-6.81889	5.01637	-0.0339083	-0.0737603	0.0580789	0.266113	0.857422	-0.205811	0.113707	0.153862	0.302216	-0.933843	-3.59683	-4.58738	7.58521	-0.119628	-0.0275191	-0.0214987	-0.0419922	0.667725	-0.848389	0.346345	0.0337813	0.42391	-0.836184	-3.37059	-6.53008	6.26239	-0.0314119	-0.0508553	0.0671742	0.0354004	0.897949	-0.508789	0.728605	-0.0482463	0.673912	-0.112471	-9.0352	-1.8217	1.04203	-0.0732756	-0.0450756	-0.0338516	0.75293	0.214355	0.5979	0.63467	-0.514717	-0.332842	-0.470612	9.19103	-3.75248	2.3096	0.106141	-0.018817	0.0122648	-0.672607	0.710205	-0.21167	0.429018	-0.525656	-0.484393	-0.552262	9.63604	0.819175	-0.348652	0.1236	0.0323989	-0.0282697	-1.01221	0.352051	0.103027	0.407813	-0.501619	-0.540463	-0.538485	9.54415	1.58773	-0.969648	0.159744	0.0473361	-0.0244175	-1.05566	0.213623	0.126953	0.400147	-0.586789	-0.476804	-0.517898	9.88556	0.161138	-1.38984	-0.0872715	-0.00629601	-0.0131192	-0.945801	0.389648	0.231934	0.437482	-0.589687	-0.426685	-0.528033	9.92236	-0.778261	-0.398449	-0.0717185	0.0260604	-0.00642081	-1.00879	0.511963	0.173584	
5344	0.703475	-0.619046	-0.0815209	-0.339499	5.17411	-8.39233	2.17399	0.0229044	-0.0737786	0.0223795	-0.112549	1.00879	-0.0568848	0.596639	-0.518211	-0.108562	-0.60307	7.58833	-4.94667	4.40006	0.00187635	-0.038163	0.0223399	-0.453125	0.723145	-0.129883	0.510166	0.0291864	0.50212	-0.697677	-5.66501	-6.86348	5.01943	-0.0168673	-0.0554209	0.02034	0.266113	0.855225	-0.208008	0.113787	0.153532	0.303757	-0.933387	-3.6131	-5.26822	7.44991	-0.139991	0.00591479	-0.0200693	-0.0378418	0.674316	-0.846436	0.347044	0.0336024	0.423911	-0.835901	-3.2465	-6.82424	6.20857	-0.0278423	-0.037735	0.0484765	0.0400391	0.891113	-0.497314	0.728664	-0.0494522	0.673842	-0.111985	-8.89971	-1.84133	1.10616	-0.100473	-0.00849083	-0.0519672	0.75293	0.209961	0.595947	0.635058	-0.514497	-0.333191	-0.470083	9.13398	-3.547	2.53354	0.0524759	0.000496728	0.00842722	-0.675293	0.720947	-0.211914	0.430122	-0.524741	-0.485526	-0.551277	9.77402	0.799699	-0.228084	0.169384	0.0226308	-0.0105651	-1.01001	0.347656	0.0983887	0.409174	-0.500516	-0.541447	-0.53749	9.6559	1.73069	-0.803106	0.182474	0.0424391	-0.0220636	-1.05298	0.208984	0.131348	0.400002	-0.586821	-0.476693	-0.518077	9.80742	0.147711	-1.2584	-0.00788469	0.0211158	-0.00151991	-0.943604	0.39209	0.231934	0.437525	-0.589598	-0.426705	-0.52808	9.84651	-0.839035	-0.483789	0.00332749	0.0090888	-0.00554518	-1.01123	0.516357	0.18042	
5345	0.703724	-0.619177	-0.0821919	-0.338581	5.19889	-8.29764	2.12385	0.0276351	-0.0904024	0.0240441	-0.114746	1.01099	-0.0568848	0.596769	-0.518943	-0.108319	-0.602355	7.61121	-4.92826	4.28271	-0.0290914	-0.0471762	0.0471617	-0.455322	0.718994	-0.127441	0.510183	0.0289549	0.501447	-0.698159	-5.8378	-6.96121	5.04079	0.0429317	-0.0413621	-0.0283224	0.268066	0.855225	-0.208008	0.113715	0.153711	0.303099	-0.933581	-3.68758	-5.24377	7.31221	0.0499436	0.010187	-0.000952533	-0.0378418	0.672119	-0.846191	0.347729	0.0340048	0.42249	-0.83632	-3.41714	-6.82081	6.2177	0.119787	-0.0387829	0.0406826	0.0422363	0.893555	-0.506348	0.728601	-0.0510028	0.673943	-0.111083	-8.9301	-2.03878	1.1222	-0.140183	0.00714873	-0.0510525	0.753174	0.205566	0.604736	0.63546	-0.514404	-0.333508	-0.469417	9.11555	-3.63178	2.43208	0.0663224	-0.0117131	0.0159607	-0.673096	0.71875	-0.209717	0.431245	-0.523622	-0.48686	-0.550287	9.92554	0.738506	-0.0680468	0.182095	0.0210579	-0.0217338	-1.0144	0.352051	0.0935059	0.410544	-0.499373	-0.542627	-0.536317	9.6306	1.46397	-0.835376	0.190313	0.0407695	-0.014819	-1.04639	0.213623	0.124756	0.400402	-0.586856	-0.476748	-0.517677	9.69225	0.0585935	-1.4038	0.0497455	0.00916083	0.0251189	-0.952637	0.389648	0.231934	0.437773	-0.589544	-0.426929	-0.527755	9.94872	-0.717219	-0.566186	0.0406792	-0.000411158	0.000919804	-1.01123	0.51416	0.18042	
5346	0.703847	-0.619438	-0.0828104	-0.337697	5.32589	-8.32995	2.13154	0.0136585	-0.0890295	0.0251923	-0.10791	1.00684	-0.0566406	0.596937	-0.519449	-0.108464	-0.601726	7.65091	-4.96925	4.36456	0.000438294	-0.047618	0.034494	-0.450928	0.718994	-0.127441	0.51015	0.0286551	0.500759	-0.698689	-5.81105	-6.80962	5.19444	0.0459007	-0.0451001	-0.0409268	0.268066	0.857422	-0.212646	0.113671	0.15349	0.302858	-0.933701	-3.71664	-5.05518	7.61823	0.0142275	-0.015115	-0.0128809	-0.0378418	0.674316	-0.848633	0.348308	0.034159	0.421654	-0.836494	-3.30087	-6.37878	6.33655	0.0594353	-0.0373333	0.0305162	0.0400391	0.893555	-0.501953	0.728237	-0.0525302	0.674365	-0.1102	-8.89687	-2.11664	1.08849	-0.120925	0.0370894	-0.0554125	0.75293	0.212158	0.608643	0.635679	-0.514268	-0.333686	-0.469142	9.28178	-3.54827	2.34981	0.0420833	0.0108281	-0.00648344	-0.673096	0.720947	-0.209717	0.432235	-0.522422	-0.488229	-0.549437	9.72163	0.813051	-0.116207	0.180574	0.0201128	-0.0407011	-1.0144	0.352051	0.0935059	0.411978	-0.498113	-0.544032	-0.534964	9.62435	1.77239	-0.67562	0.222715	0.0272999	-0.029149	-1.05542	0.208984	0.120117	0.401508	-0.58637	-0.477254	-0.516905	9.748	0.0297369	-1.5655	0.12857	0.0244112	0.0380818	-0.948242	0.394043	0.225098	0.437966	-0.589506	-0.42719	-0.527425	9.89865	-0.762551	-0.540143	0.0373274	-0.00421898	0.00161656	-1.00879	0.511963	0.18042	
5347	0.703973	-0.619554	-0.083588	-0.337027	5.39119	-8.23214	2.15077	0.0256748	-0.0849544	-0.00412109	-0.110107	1.00684	-0.0588379	0.597197	-0.519705	-0.108658	-0.601212	7.53021	-4.81394	4.46061	0.0172894	-0.0345237	0.0242109	-0.451172	0.725342	-0.132324	0.510084	0.0284113	0.50056	-0.69889	-5.46523	-6.87119	5.08691	0.00256579	-0.0190025	-0.028763	0.263916	0.859619	-0.208252	0.114135	0.153007	0.304102	-0.933319	-3.37234	-5.10546	7.61143	-0.118027	-0.0308131	0.00509	-0.0422363	0.674072	-0.844238	0.348961	0.0337061	0.422412	-0.835858	-3.11696	-6.43685	6.25056	-0.0822686	-0.0297532	0.0350929	0.0419922	0.895508	-0.497314	0.727514	-0.054154	0.675167	-0.109267	-8.75338	-1.96356	0.909217	-0.147183	0.0744202	-0.0498544	0.753418	0.203369	0.602539	0.635879	-0.514032	-0.333545	-0.469231	9.08047	-3.3052	2.57231	0.0273108	0.0446488	-0.0160769	-0.670654	0.7146	-0.211914	0.433073	-0.52161	-0.489151	-0.548728	9.87894	0.901915	-0.204141	0.136121	0.0195631	-0.0187093	-1.0166	0.354248	0.0981445	0.412548	-0.497558	-0.544485	-0.534581	9.80093	1.6552	-0.724587	0.0809305	0.0223044	-0.0195895	-1.04858	0.211426	0.122559	0.402804	-0.585659	-0.478136	-0.515886	9.5491	0.313877	-1.23113	0.163383	0.0103051	0.0191844	-0.948242	0.394043	0.227295	0.438522	-0.589229	-0.42783	-0.526755	9.78864	-0.866223	-0.555863	0.0889132	-0.010743	0.00504736	-1.01343	0.511963	0.178223	
5348	0.704053	-0.619682	-0.0842297	-0.336465	5.39065	-8.06048	2.09867	0.014994	-0.0713758	-0.00134636	-0.114746	1.00879	-0.0546875	0.597428	-0.51987	-0.108375	-0.600891	7.5256	-4.99484	4.39642	-0.00567174	-0.00780004	0.0314097	-0.447021	0.729736	-0.130127	0.509744	0.0282809	0.500302	-0.699328	-5.45953	-6.95726	4.99304	0.0289282	-0.00585696	-0.0416805	0.266113	0.855225	-0.210449	0.114679	0.152535	0.305205	-0.932969	-3.15618	-5.19697	7.4942	-0.106642	-0.0250437	0.0154781	-0.0380859	0.678467	-0.835449	0.349665	0.0330903	0.422666	-0.835459	-3.44646	-6.59503	6.1162	-0.0398748	-0.0557452	0.0241753	0.0375977	0.897705	-0.499512	0.727096	-0.0558151	0.675679	-0.108043	-8.85014	-2.18027	0.76127	-0.158686	0.0511842	-0.042604	0.749023	0.205566	0.604736	0.636205	-0.513829	-0.33341	-0.469106	9.02384	-3.26869	2.6661	0.0270931	0.0361454	0.00391545	-0.673096	0.71875	-0.214111	0.433615	-0.521263	-0.489539	-0.548283	9.85843	1.01287	-0.0908581	0.0759088	0.0224023	-0.00134494	-1.021	0.352051	0.0935059	0.41267	-0.497494	-0.54448	-0.534551	9.68856	1.46742	-0.866197	0.0112179	0.0172859	-0.0151773	-1.05347	0.21582	0.120117	0.403805	-0.58499	-0.478941	-0.515115	9.54445	0.379486	-1.26475	0.140891	0.0167477	0.00627906	-0.943848	0.39624	0.222656	0.439624	-0.58855	-0.428927	-0.5257	9.80855	-0.755228	-0.625921	0.159152	-0.0124729	0.0094731	-1.00903	0.516357	0.173584	
5349	0.70399	-0.619991	-0.0844534	-0.335971	5.38975	-8.08056	2.07713	-0.00618911	-0.0490288	0.0201346	-0.110596	1.01538	-0.059082	0.597792	-0.519881	-0.108516	-0.600494	7.56956	-4.97151	4.28077	0.0316072	-0.0215403	0.0134061	-0.44458	0.725586	-0.125244	0.509711	0.02803	0.500033	-0.699554	-5.65619	-6.93247	5.08457	0.0122369	-0.0240316	-0.0282063	0.261719	0.857422	-0.215088	0.114868	0.152083	0.304984	-0.933092	-3.43607	-5.28901	7.48409	0.019163	-0.0379115	-0.00102379	-0.0378418	0.67627	-0.837646	0.349819	0.0319689	0.422935	-0.835303	-3.63835	-6.37673	6.22596	-0.0494036	-0.0699563	-0.0277869	0.0334473	0.895508	-0.499512	0.727011	-0.0562655	0.675749	-0.107947	-8.97138	-2.16631	0.891394	-0.0318197	0.0167431	-0.0343181	0.753418	0.199219	0.604736	0.636486	-0.51347	-0.333385	-0.469137	9.14606	-3.47225	2.39983	0.0375715	0.0386033	-0.0134321	-0.675293	0.71875	-0.214111	0.433504	-0.521497	-0.489298	-0.548363	9.69097	0.941828	-0.217272	-0.0212657	0.0102185	0.00501749	-1.01221	0.352051	0.0935059	0.412544	-0.497736	-0.54409	-0.534819	9.64183	1.73831	-0.878915	-0.0322276	0.0143835	-0.0154158	-1.05103	0.213623	0.124756	0.404518	-0.584513	-0.479308	-0.514756	9.6061	0.361013	-1.44615	0.0837518	0.0270604	0.00388992	-0.948242	0.394043	0.225098	0.440668	-0.588007	-0.429715	-0.52479	9.89562	-0.518476	-0.66189	0.135361	-0.00691163	0.0127457	-1.00903	0.518555	0.175781	
5350	0.704054	-0.620176	-0.0846044	-0.335458	5.28475	-8.15649	2.08329	-0.00174872	-0.0418963	0.0187618	-0.11084	1.01758	-0.0568848	0.598261	-0.519625	-0.108914	-0.600175	7.48576	-4.8107	4.34174	0.0619771	-0.00918959	-0.000483732	-0.448975	0.723389	-0.127686	0.510108	0.0279545	0.499825	-0.699416	-5.75561	-6.79498	5.33537	-0.00694121	-0.0265712	0.0261859	0.263916	0.855225	-0.208008	0.115377	0.151299	0.305801	-0.932889	-3.69617	-5.26674	7.82599	-0.0774538	-0.0578993	0.0036745	-0.0424805	0.67627	-0.837646	0.349555	0.0306496	0.4235	-0.835176	-3.37752	-6.68449	6.22843	-0.0776663	-0.0608244	-0.0594415	0.0334473	0.893311	-0.497314	0.726988	-0.0566878	0.675803	-0.107544	-9.14857	-1.99074	0.963316	-0.0303019	0.0191124	-0.0236678	0.753418	0.203369	0.602539	0.636415	-0.513319	-0.333408	-0.469382	9.09411	-3.41607	2.59149	0.00831816	0.0292944	-0.0321227	-0.670898	0.716553	-0.216064	0.432925	-0.522119	-0.488843	-0.548635	9.77157	0.810714	-0.372703	-0.0713829	-0.0104779	0.00022098	-1.0144	0.352051	0.100586	0.412452	-0.497859	-0.543835	-0.535036	9.67115	1.61921	-0.912569	-0.0252536	0.0220435	-0.0179302	-1.05542	0.208984	0.122559	0.404884	-0.5841	-0.47967	-0.514599	9.6629	0.399519	-1.47403	0.0600299	0.025545	-0.00610752	-0.939453	0.394287	0.225098	0.44127	-0.587771	-0.430094	-0.524237	9.91843	-0.601338	-0.625633	0.0781643	0.00169213	0.0101507	-1.01831	0.520752	0.173584	
5351	0.704271	-0.620194	-0.0850094	-0.334865	5.24153	-8.18262	2.13876	0.0266999	-0.05445	0.0143645	-0.10376	1.01123	-0.0568848	0.598524	-0.519641	-0.108691	-0.59994	7.61591	-4.77238	4.51909	0.00729815	0.00866181	0.0229167	-0.451172	0.723389	-0.125244	0.510286	0.0282912	0.500275	-0.69895	-5.59793	-6.89538	5.14307	-0.0273421	0.0307291	0.0366799	0.261719	0.855225	-0.203613	0.11659	0.150521	0.307537	-0.932294	-3.53254	-5.25365	7.74335	-0.167274	-0.0556548	0.0507588	-0.0446777	0.67627	-0.835449	0.349429	0.0303683	0.423159	-0.835412	-3.24137	-6.91915	6.30179	0.0219175	-0.0240934	-0.0264162	0.0288086	0.9021	-0.497314	0.726777	-0.0570536	0.676011	-0.107467	-9.08367	-2.05748	0.793622	-0.0267099	0.0415366	-0.0352007	0.753418	0.201416	0.609131	0.636369	-0.513331	-0.332866	-0.469814	9.12003	-3.37636	2.65619	-0.0277191	0.0562995	-0.014469	-0.666504	0.7146	-0.216064	0.432309	-0.522747	-0.488589	-0.548749	9.97314	0.808077	-0.26128	-0.057905	-0.0206646	-0.00341396	-1.01465	0.354248	0.100586	0.412574	-0.497669	-0.543891	-0.535062	9.78209	1.63669	-0.797475	0.0129309	0.0225344	-0.0199831	-1.04858	0.213623	0.120117	0.404859	-0.584106	-0.479834	-0.51446	9.57171	0.408649	-1.44163	0.0211077	0.00399203	-0.00461953	-0.947998	0.389648	0.2229	0.441789	-0.587512	-0.430423	-0.523821	9.81263	-0.610537	-0.656798	0.0670238	0.0046479	0.00735967	-1.00903	0.518555	0.173584	
5352	0.704631	-0.620399	-0.08554	-0.33359	5.05187	-8.09834	2.2357	0.0317961	-0.101043	0.0433182	-0.10376	1.01123	-0.0610352	0.598571	-0.519677	-0.108336	-0.599926	7.62983	-5.11386	4.44465	-0.0106535	0.0261866	0.0106803	-0.448975	0.727539	-0.130127	0.510111	0.0281854	0.500744	-0.698748	-5.87947	-6.89839	4.9805	-0.0292701	0.0197237	-0.00610126	0.261719	0.855225	-0.208008	0.117485	0.149951	0.308832	-0.931845	-3.42341	-5.28696	7.5946	-0.129091	-0.0331988	0.0357137	-0.0427246	0.680664	-0.835449	0.349424	0.0300663	0.422743	-0.835636	-3.44756	-6.55023	6.3473	0.0346277	-0.0269861	-0.0127798	0.0334473	0.891113	-0.497314	0.726635	-0.0574249	0.676154	-0.107331	-9.11963	-2.06821	0.629932	-0.0143833	0.0294019	-0.0339921	0.749023	0.205566	0.604736	0.636671	-0.513036	-0.332243	-0.470168	9.16428	-3.42858	2.44504	-0.000664761	0.0763455	-0.00299767	-0.675293	0.716553	-0.218262	0.431785	-0.523163	-0.488208	-0.549104	9.9019	0.727261	-0.280552	-0.0596523	0.00446054	-0.0124327	-1.0166	0.352051	0.103027	0.412436	-0.497927	-0.543431	-0.535395	9.66336	1.71569	-0.700257	-0.0411451	0.0194758	-0.0107519	-1.05322	0.211426	0.126953	0.404532	-0.584255	-0.479897	-0.514488	9.64283	0.246496	-1.5748	-0.017986	-0.00734928	0.00322973	-0.948242	0.394043	0.225098	0.441819	-0.587636	-0.430252	-0.523797	9.89413	-0.486901	-0.729862	-0.00444995	0.010383	0.00864059	-1.00903	0.516357	0.171387	
5353	0.704999	-0.62102	-0.0862845	-0.331459	5.05065	-8.28476	2.25538	0.013801	-0.166507	0.0854176	-0.108398	1.01538	-0.0524902	0.598508	-0.519358	-0.1084	-0.600254	7.44043	-4.94618	4.3008	0.0186115	0.0269262	-0.034385	-0.44458	0.725342	-0.130127	0.510204	0.0277254	0.500853	-0.69862	-5.98873	-6.8862	5.11292	-0.0307694	-0.0247944	-0.00709893	0.261719	0.855225	-0.210449	0.11741	0.149447	0.308737	-0.931967	-3.61857	-5.33174	7.42047	-0.000308982	-0.0290091	-0.0247384	-0.0537109	0.680664	-0.837646	0.349563	0.0290375	0.423328	-0.835318	-3.49695	-6.49669	6.32445	-0.0796397	-0.0564038	-0.0234405	0.03125	0.895508	-0.497314	0.726609	-0.0575806	0.676158	-0.107394	-9.26172	-2.0446	0.643156	-0.00921488	0.015585	-0.0265744	0.749023	0.203369	0.606934	0.636803	-0.512622	-0.332093	-0.470547	9.12563	-3.52254	2.43349	0.0160475	0.0555914	-0.027919	-0.675049	0.7146	-0.222412	0.431536	-0.523316	-0.487906	-0.549423	9.63518	0.589708	-0.198207	-0.0352506	0.0227944	-0.0105823	-1.01025	0.354248	0.0981445	0.412129	-0.498333	-0.54311	-0.535579	9.55807	1.61352	-0.808155	-0.0481728	0.00499023	-0.00671022	-1.05298	0.209229	0.11792	0.404185	-0.584515	-0.479562	-0.514778	9.67966	0.150104	-1.53583	-0.0407163	0.0147958	0.00868048	-0.943604	0.389893	0.227539	0.441578	-0.587845	-0.42993	-0.52403	9.89953	-0.783337	-0.611113	-0.0393262	0.0121171	0.00289731	-1.00903	0.51416	0.173584	
5354	0.705134	-0.621884	-0.0875132	-0.329222	5.17776	-8.28639	2.26261	0.0164626	-0.205764	0.0720824	-0.105957	1.00903	-0.0524902	0.598051	-0.519584	-0.108303	-0.60053	7.53267	-4.62907	4.35064	-0.0304803	0.00188039	-0.0449345	-0.451416	0.729736	-0.130127	0.510768	0.027428	0.501201	-0.697969	-5.66345	-6.83954	5.21237	-0.064992	-0.0233906	0.0459121	0.263916	0.859619	-0.206055	0.117612	0.148224	0.309758	-0.931798	-3.58029	-5.32408	7.59857	-0.101773	-0.0624958	-0.0242494	-0.0471191	0.680664	-0.828857	0.349873	0.0283498	0.423737	-0.835004	-3.3811	-6.86567	6.26904	-0.0587205	-0.0437021	0.00161683	0.0356445	0.893311	-0.499512	0.726705	-0.0580956	0.676104	-0.106806	-9.12227	-2.0761	0.729975	-0.0552054	-0.0019281	-0.0101482	0.753418	0.203613	0.606934	0.636894	-0.512196	-0.331696	-0.471167	9.06568	-3.37604	2.40278	-0.00345124	0.0748427	-0.031093	-0.668701	0.71875	-0.218262	0.431537	-0.523416	-0.488017	-0.549228	9.84265	0.865091	-0.119034	0.0168096	-0.00559262	-0.0048911	-1.0166	0.354248	0.0959473	0.411983	-0.498526	-0.542917	-0.535708	9.72374	1.69144	-0.793428	-0.020502	-0.000627559	-0.00923328	-1.05103	0.21582	0.124512	0.403844	-0.584825	-0.479397	-0.514849	9.56421	0.225755	-1.49077	-0.0281713	0.00175598	0.0127801	-0.948242	0.394043	0.222656	0.441438	-0.587959	-0.429728	-0.524185	9.84084	-0.643055	-0.687348	-0.0240903	0.0144738	0.00400445	-1.00464	0.516357	0.178223	
5355	0.705033	-0.622915	-0.0886943	-0.327168	5.46694	-8.08632	2.2881	-0.00867565	-0.200746	0.0597851	-0.101562	1.00903	-0.0546875	0.597497	-0.519924	-0.107916	-0.600858	7.64605	-4.96622	4.44884	-0.0542531	0.0128172	-0.03315	-0.448975	0.727539	-0.130127	0.511232	0.0272597	0.501815	-0.697195	-5.50047	-6.89415	5.18279	-0.071684	-0.0020376	0.049219	0.263916	0.859619	-0.203613	0.118663	0.146961	0.311823	-0.931175	-3.25802	-5.63959	7.59854	-0.195533	-0.0812	0.0226592	-0.0493164	0.682861	-0.833252	0.350105	0.0284609	0.422797	-0.835379	-3.33893	-6.66903	6.28094	0.0695617	-0.0321942	0.00153453	0.0378418	0.893311	-0.497314	0.727017	-0.058629	0.675803	-0.106293	-9.01991	-2.01606	0.815369	-0.049957	-0.0232051	-0.0153497	0.751221	0.203369	0.606934	0.637119	-0.511863	-0.330958	-0.471744	9.12791	-3.45294	2.42636	-0.00805526	0.0914314	-0.0142405	-0.670898	0.71875	-0.226807	0.431203	-0.523631	-0.487846	-0.549437	9.89665	1.05014	-0.235348	-0.029633	0.000671001	-0.0152266	-1.0188	0.352051	0.100586	0.411604	-0.499171	-0.542407	-0.535915	9.63353	1.70758	-0.745536	-0.0604729	-0.00552966	-0.000770581	-1.05566	0.21582	0.126709	0.403574	-0.585123	-0.47911	-0.514988	9.61287	0.2762	-1.4559	-0.0362874	0.00263441	0.0158546	-0.946045	0.394043	0.227295	0.441063	-0.588324	-0.429267	-0.524469	9.84513	-0.668077	-0.652407	-0.0516084	0.0180149	0.00407118	-1.01147	0.518555	0.171143	
5356	0.704557	-0.624014	-0.0895944	-0.325851	5.51266	-8.09002	2.23225	-0.0488898	-0.153719	0.0184982	-0.0996094	1.01562	-0.0568848	0.597248	-0.519748	-0.107686	-0.601299	7.54964	-5.08145	4.31925	-0.0109167	0.0347212	-0.0364521	-0.44873	0.721191	-0.129883	0.511723	0.0270219	0.502147	-0.696604	-5.67772	-6.89087	4.98249	-0.0500721	-0.0185601	0.0429505	0.268311	0.855225	-0.203613	0.119579	0.146292	0.312367	-0.930982	-3.19342	-5.53875	7.60988	-0.0744992	-0.0513752	0.0396805	-0.0517578	0.685059	-0.831055	0.350094	0.0280641	0.422227	-0.835686	-3.34626	-6.42	6.31042	0.0361287	-0.0469236	-0.0363944	0.0290527	0.893311	-0.50415	0.727443	-0.0590746	0.675291	-0.106393	-9.11106	-1.91887	0.818097	-0.0112182	-0.0418419	-0.0442563	0.751465	0.197021	0.609131	0.637349	-0.511594	-0.330278	-0.472202	9.11272	-3.59296	2.39228	-0.00949456	0.0764666	-0.00614073	-0.670898	0.71875	-0.216064	0.430358	-0.52419	-0.486669	-0.550609	9.8111	0.805495	-0.383039	-0.145782	0.0435683	-0.0129149	-1.01221	0.352051	0.100586	0.41101	-0.499961	-0.541799	-0.53625	9.64125	1.52782	-0.843558	-0.0847769	-0.0115118	-0.00242084	-1.05542	0.206787	0.124756	0.403036	-0.585615	-0.478757	-0.515178	9.6482	0.218321	-1.51974	-0.0531222	-0.0044951	0.0117372	-0.947998	0.389648	0.225098	0.440981	-0.588405	-0.429025	-0.524646	9.85425	-0.732143	-0.594383	-0.0212092	0.0151101	0.0011978	-1.00903	0.518555	0.173584	
5357	0.703892	-0.624993	-0.0902467	-0.325231	5.39365	-8.03044	2.10217	-0.0687937	-0.103675	-0.0184714	-0.10376	1.00903	-0.050293	0.59719	-0.519453	-0.107993	-0.601556	7.44787	-4.92421	4.17912	0.0275693	0.0101672	-0.0386141	-0.44458	0.723389	-0.125244	0.512488	0.0268368	0.502192	-0.696016	-5.69888	-6.93722	4.97519	-0.0349794	-0.0384773	0.0521614	0.266113	0.853027	-0.201172	0.120148	0.145856	0.312284	-0.931004	-3.35154	-5.25449	7.53171	-0.0137567	-0.0315233	0.0279709	-0.0541992	0.69165	-0.835693	0.349634	0.0278053	0.421985	-0.836009	-3.29686	-6.75991	6.2557	0.00966122	-0.0110769	-0.0483463	0.0270996	0.888916	-0.499512	0.727932	-0.0598185	0.674682	-0.106495	-9.10291	-1.96313	0.777389	-0.00816677	-0.0549164	-0.0681784	0.749023	0.203369	0.606934	0.637531	-0.511363	-0.330204	-0.472258	8.9261	-3.5897	2.4364	0.0243341	0.0365972	-0.0120029	-0.679443	0.714355	-0.224609	0.429417	-0.524964	-0.485299	-0.551813	9.8326	0.598126	-0.24105	-0.166698	0.0380595	-0.00359758	-1.01855	0.349854	0.100586	0.410666	-0.500267	-0.54167	-0.536358	9.69206	1.44439	-0.933376	-0.0354685	-0.0106635	-0.00848382	-1.05103	0.21582	0.126953	0.402641	-0.585796	-0.478683	-0.515351	9.64723	0.190867	-1.42952	-0.0348687	-0.000846154	0.00238246	-0.946045	0.391846	0.227295	0.440968	-0.588502	-0.428848	-0.524692	9.87552	-0.661718	-0.598929	-0.00856403	0.0120862	0.00446773	-1.00659	0.51416	0.171387	
5358	0.703169	-0.626074	-0.090556	-0.324629	5.29413	-7.99611	2.07143	-0.0803109	-0.085305	0.00551279	-0.108398	1.01318	-0.0546875	0.59719	-0.519344	-0.108318	-0.601592	7.52794	-4.90832	4.29895	0.028676	-0.00225224	-0.0357231	-0.446777	0.723389	-0.127686	0.51329	0.0267486	0.502247	-0.695389	-5.64995	-6.85663	5.09846	-0.0308775	-0.0343581	0.0642755	0.270264	0.85498	-0.205811	0.120722	0.145166	0.313053	-0.93078	-3.42697	-5.18944	7.52487	-0.0855055	-0.0421519	0.0191926	-0.0478516	0.696045	-0.833496	0.349143	0.0280727	0.421032	-0.836686	-3.24895	-6.88798	6.21031	0.0883035	0.00618928	-0.0413468	0.0292969	0.886719	-0.501953	0.728375	-0.0605575	0.674134	-0.106519	-8.9319	-2.0792	0.720051	-0.0287374	-0.0536401	-0.0555336	0.755859	0.197021	0.60498	0.637676	-0.511058	-0.33034	-0.472297	9.03926	-3.5228	2.43369	0.0274596	0.0244562	-0.0150323	-0.67334	0.723145	-0.220459	0.428608	-0.525595	-0.484373	-0.552656	9.74461	0.541202	-0.402777	-0.123669	0.0182903	-0.00735373	-1.01001	0.352051	0.105225	0.410523	-0.500569	-0.541565	-0.536292	9.65295	1.55353	-0.94018	-0.0102547	-0.0052643	-0.0120452	-1.04858	0.213623	0.122314	0.402547	-0.585841	-0.478615	-0.515436	9.67169	0.180093	-1.34862	-0.00672888	0.0145197	0.00586684	-0.946045	0.39624	0.222656	0.440868	-0.588594	-0.428686	-0.524805	9.82752	-0.734877	-0.57757	-0.0204523	0.00943898	0.00334562	-1.01147	0.520752	0.173584	
5359	0.702806	-0.626993	-0.0904763	-0.323663	5.30584	-8.17456	2.02875	-0.0718053	-0.0735763	0.059508	-0.10376	1.01099	-0.0480957	0.597054	-0.519256	-0.108653	-0.601743	7.60404	-4.97052	4.41633	0.0203751	-0.00278094	-0.0445924	-0.451172	0.725342	-0.127686	0.514162	0.0266698	0.502512	-0.694555	-5.71504	-6.87093	5.0523	-0.0586282	-0.0265226	0.0733263	0.268066	0.857178	-0.198975	0.121486	0.14465	0.314296	-0.930341	-3.44874	-5.47021	7.50666	-0.124248	-0.038484	0.0299411	-0.0522461	0.697998	-0.824707	0.349036	0.0281666	0.420293	-0.837098	-3.06884	-6.6262	6.27121	0.0584454	-0.0139639	-0.0188165	0.0246582	0.893311	-0.501953	0.728695	-0.061221	0.673791	-0.106119	-8.98441	-2.03908	0.671138	-0.0347441	-0.0269308	-0.0372984	0.753418	0.203613	0.606934	0.637971	-0.510571	-0.330561	-0.47227	9.14252	-3.54069	2.40954	0.057576	0.0278025	-0.0238361	-0.668701	0.71875	-0.222656	0.428515	-0.525686	-0.484378	-0.552636	9.686	0.586474	-0.590025	0.00148211	0.00474076	-0.010454	-1.0144	0.354248	0.107666	0.410453	-0.500807	-0.541328	-0.536362	9.62123	1.67988	-0.934923	-0.0153184	0.00289138	-0.00747688	-1.05347	0.21582	0.131348	0.402741	-0.585804	-0.478715	-0.515233	9.69999	0.135225	-1.32345	0.0250083	0.00270699	0.00893939	-0.943604	0.39209	0.229736	0.440994	-0.588603	-0.428766	-0.524623	9.90125	-0.752452	-0.529577	0.0211522	-0.000223802	0.0016584	-1.00903	0.518555	0.173584	
5360	0.702808	-0.627635	-0.0903164	-0.322456	5.23764	-8.20488	1.95111	-0.0305131	-0.0722253	0.0804878	-0.095459	1.01782	-0.0458984	0.596921	-0.519226	-0.108601	-0.60191	7.58978	-4.9465	4.35786	-0.00114866	0.0154793	-0.0257113	-0.446533	0.721191	-0.127441	0.514566	0.0268241	0.502402	-0.69433	-5.71702	-6.93603	5.0067	0.00826834	-0.0125947	0.0393613	0.270264	0.85498	-0.205811	0.122106	0.144207	0.315155	-0.930039	-3.42779	-5.19095	7.41841	-0.0825455	-0.0290412	0.0299416	-0.050293	0.700439	-0.826904	0.349303	0.0275879	0.42064	-0.836832	-3.22921	-6.59086	6.30429	-0.0480737	-0.0346789	0.00555009	0.0268555	0.893311	-0.50415	0.72888	-0.0620361	0.67357	-0.10578	-9.06718	-2.01362	0.669963	-0.0536268	-0.0211382	-0.0401497	0.753418	0.199219	0.602783	0.637968	-0.510499	-0.33067	-0.472277	9.11659	-3.62175	2.64345	0.0158267	0.00971848	-0.021823	-0.670898	0.71875	-0.220459	0.428828	-0.525433	-0.484805	-0.55226	9.81155	0.687264	-0.43434	0.0635791	0.00796445	-0.0120438	-1.01904	0.356445	0.100586	0.410505	-0.500965	-0.54129	-0.536214	9.66918	1.57493	-0.941519	0.00486595	0.00929138	-0.00823119	-1.05103	0.216064	0.122314	0.402821	-0.585761	-0.478973	-0.514979	9.69784	0.200146	-1.27002	0.0347996	0.00219755	0.00289356	-0.946045	0.391846	0.229736	0.441256	-0.5885	-0.429084	-0.524259	9.88037	-0.703207	-0.572723	0.0458737	-0.00739132	0.000916132	-1.01367	0.520752	0.175781	
5361	0.703019	-0.628145	-0.0898318	-0.321135	5.34699	-8.06094	1.95903	-0.016785	-0.0559121	0.0958568	-0.101807	1.01538	-0.0480957	0.596991	-0.519136	-0.108445	-0.601946	7.51328	-5.02656	4.21593	0.00613556	0.0181382	-0.0091468	-0.448975	0.723145	-0.136963	0.514805	0.0270608	0.501962	-0.694462	-5.61898	-6.73318	5.05847	0.0321022	-0.0143541	0.0171567	0.272461	0.85498	-0.208252	0.122736	0.143272	0.317441	-0.929322	-3.42462	-4.6608	7.35167	-0.207812	-0.0504622	0.00281812	-0.050293	0.702393	-0.824707	0.349474	0.0271762	0.421032	-0.836577	-3.34544	-6.80899	6.20843	-0.0514614	-0.0217967	0.00168895	0.0292969	0.888916	-0.501953	0.729171	-0.062653	0.673255	-0.105417	-9.09219	-2.14375	0.833015	-0.0411268	-0.0272472	-0.032022	0.755615	0.199219	0.602783	0.638192	-0.51024	-0.330823	-0.472146	9.03006	-3.67535	2.5701	0.0407267	0.0171515	-0.012017	-0.672852	0.7146	-0.222412	0.429377	-0.524949	-0.485509	-0.551675	9.87419	0.729681	-0.275028	0.101604	0.00418035	-0.0155338	-1.0188	0.352051	0.103027	0.410895	-0.500842	-0.541409	-0.535909	9.71886	1.59717	-0.838837	0.0489953	0.0114924	-0.00820122	-1.05103	0.213623	0.124756	0.402857	-0.585796	-0.479203	-0.514698	9.60523	0.195102	-1.37737	0.0298409	-0.00397383	0.00860134	-0.946045	0.394043	0.227295	0.441415	-0.588499	-0.429334	-0.523922	9.85713	-0.642375	-0.637551	0.0368892	-0.00910297	0.00247944	-1.01147	0.518555	0.175781	
5362	0.703286	-0.628504	-0.0889082	-0.320106	5.45092	-8.32669	1.98966	-0.0246504	-0.0101845	0.116579	-0.0930176	1.01562	-0.050293	0.597132	-0.518946	-0.108695	-0.601925	7.51487	-5.16463	4.36401	0.0320804	-0.0133326	-0.0126915	-0.448975	0.723145	-0.134766	0.515146	0.0270602	0.502015	-0.694171	-5.66207	-6.7689	5.17481	-0.0246573	-0.0101845	0.0267233	0.270508	0.852783	-0.198975	0.123622	0.141647	0.322744	-0.927626	-3.5354	-4.97261	7.35435	-0.470592	-0.0661412	-0.0252709	-0.0551758	0.711182	-0.820557	0.349482	0.0271424	0.421042	-0.83657	-3.32566	-6.81724	6.2644	-0.00866418	-0.00447439	-0.00664803	0.0270996	0.888916	-0.495117	0.729369	-0.0629386	0.673066	-0.105081	-9.12928	-2.10677	0.889804	-0.0212573	-0.0105935	-0.0160834	0.757812	0.199219	0.602783	0.638897	-0.509207	-0.331688	-0.471701	8.97412	-3.69147	2.29797	0.13132	0.0100291	-0.0239153	-0.668701	0.716797	-0.230957	0.42995	-0.524344	-0.48638	-0.551036	9.79919	0.753289	-0.196341	0.113991	0.00466391	-0.0211757	-1.0166	0.352051	0.0981445	0.411197	-0.500726	-0.541613	-0.535579	9.58213	1.60606	-0.74089	0.0439	0.00719573	-0.00884524	-1.04858	0.213623	0.126953	0.402977	-0.585757	-0.479444	-0.514424	9.64863	0.205262	-1.54637	0.0345339	-0.00192444	0.00548001	-0.946045	0.39624	0.225098	0.441482	-0.588553	-0.42951	-0.52366	9.86799	-0.675456	-0.617115	0.0228306	-0.00805995	0.00392981	-1.00879	0.511963	0.171387	
5363	0.7042	-0.627848	-0.0877772	-0.319695	5.45316	-8.79138	2.00708	0.0511972	0.0621856	0.0927044	-0.0930176	1.01562	-0.0480957	0.597439	-0.518839	-0.109228	-0.601616	7.65253	-4.81603	4.37388	0.0518242	-0.036527	-0.00453585	-0.448975	0.723145	-0.129883	0.515628	0.0268858	0.502516	-0.693457	-5.90051	-6.67735	5.2691	-0.0589487	-0.00753947	0.0456919	0.270264	0.86377	-0.201416	0.124408	0.140153	0.3265	-0.926433	-3.65277	-6.14544	7.21093	-0.345216	-0.0699621	-0.0169496	-0.0578613	0.719971	-0.807373	0.349542	0.0270815	0.421002	-0.836567	-3.2814	-6.75456	6.39721	0.00463397	-0.00531601	-0.00349247	0.0268555	0.893311	-0.492676	0.729453	-0.0631431	0.672986	-0.104881	-9.12877	-1.92585	0.866841	-0.0105535	0.00506009	-0.0203195	0.753418	0.201416	0.600586	0.639496	-0.508326	-0.332709	-0.47112	9.21323	-3.53819	2.35282	0.128805	-0.0190097	-0.0277832	-0.673096	0.71875	-0.226807	0.430415	-0.5238	-0.486758	-0.550857	9.71509	0.804906	-0.173926	0.0674564	0.0310636	-0.0193489	-1.0166	0.354248	0.100586	0.411381	-0.500672	-0.541849	-0.53525	9.57045	1.65111	-0.840975	0.0361732	0.00206557	-0.0118905	-1.05566	0.213623	0.124512	0.403109	-0.585638	-0.479779	-0.514143	9.69726	0.203286	-1.55747	0.040522	-0.00468542	-0.00425299	-0.946045	0.39624	0.225098	0.441573	-0.588482	-0.4298	-0.523425	9.89357	-0.737435	-0.62439	0.0206398	-0.0100682	0.00314603	-1.00928	0.520752	0.171143	
5364	0.706023	-0.626052	-0.0870995	-0.319381	5.05251	-8.86931	2.04215	0.177917	0.0776946	0.0836932	-0.0905762	1.01123	-0.0522461	0.597773	-0.518923	-0.109589	-0.601146	7.57197	-4.56774	4.43362	0.0380626	-0.0344185	0.00968411	-0.444336	0.718994	-0.134521	0.515983	0.0263705	0.50312	-0.692775	-5.87779	-6.75274	5.07841	-0.0804772	-0.0163144	0.0313936	0.274658	0.857178	-0.201416	0.12468	0.1394	0.326911	-0.926365	-3.47218	-5.8076	7.51712	-0.045307	-0.0503154	-0.00277916	-0.0554199	0.717773	-0.805176	0.34997	0.0271164	0.42098	-0.836398	-3.27654	-6.5293	6.28089	0.0076723	-0.00786887	0.0273703	0.0246582	0.895508	-0.499512	0.72941	-0.063576	0.673004	-0.104805	-8.98893	-1.86222	0.902066	-0.029274	0.0124093	-0.0357882	0.762207	0.199219	0.600586	0.639728	-0.508027	-0.33298	-0.470937	9.12339	-3.37262	2.7096	0.0488908	0.0101353	-0.0157644	-0.670654	0.712402	-0.22876	0.430756	-0.523479	-0.487092	-0.5506	9.88117	0.839909	-0.287226	0.0573449	0.0170236	-0.0132379	-1.021	0.352051	0.0935059	0.411367	-0.50082	-0.541844	-0.535127	9.77218	1.57825	-0.828585	0.0047193	-0.003603	-0.00767034	-1.05542	0.211182	0.12915	0.403338	-0.58548	-0.480063	-0.513879	9.59239	0.215763	-1.46028	0.043347	0.00335317	0.000155326	-0.943604	0.39209	0.229736	0.441791	-0.588408	-0.430017	-0.523146	9.86761	-0.709573	-0.666604	0.0341198	-0.00637269	0.000520264	-1.00708	0.520752	0.175781	
5365	0.70831	-0.62396	-0.0869252	-0.318459	5.11138	-8.41835	2.07653	0.235629	0.0292523	0.102899	-0.0864258	1.01782	-0.0566406	0.598061	-0.519006	-0.109625	-0.600781	7.66395	-4.94406	4.4085	0.0176663	-0.0242982	0.0173056	-0.451172	0.725342	-0.130127	0.515968	0.0261707	0.503088	-0.692817	-5.7543	-6.91124	5.03269	-0.00729214	-0.0119421	-0.0151624	0.268311	0.853027	-0.203613	0.124966	0.139188	0.327282	-0.926227	-3.29987	-5.57726	7.36374	-0.039709	-0.0117352	0.00807709	-0.0578613	0.719971	-0.807373	0.350236	0.0270554	0.421185	-0.836185	-3.3195	-6.52635	6.21243	-0.0207305	-0.00348919	0.0212417	0.03125	0.893311	-0.497314	0.729474	-0.0642406	0.672917	-0.104515	-8.96352	-1.99109	0.884619	-0.0457654	0.00804935	-0.0421098	0.755615	0.203613	0.606934	0.640144	-0.50777	-0.332952	-0.470668	9.08666	-3.43414	2.66101	0.0409405	0.0238878	0.011368	-0.668701	0.716797	-0.233154	0.430816	-0.523298	-0.487162	-0.550663	9.98226	0.727527	-0.306631	0.0145874	0.017728	-0.0175253	-1.01465	0.356445	0.0959473	0.411334	-0.500873	-0.541988	-0.534958	9.79487	1.44979	-0.825655	0.00879295	-0.00143245	-0.0121752	-1.05566	0.213623	0.131348	0.403266	-0.585516	-0.480239	-0.513729	9.63734	0.189972	-1.49727	0.0162521	0.00050249	0.00148086	-0.939453	0.394287	0.227295	0.441751	-0.588542	-0.429917	-0.523112	9.93235	-0.619241	-0.727651	-0.00129168	0.00564043	0.00198694	-1.00928	0.522949	0.175781	
5366	0.710188	-0.622271	-0.0865277	-0.317687	5.31685	-8.0546	2.1435	0.188956	0.0362147	0.0937613	-0.0820312	1.01587	-0.0695801	0.598363	-0.519187	-0.109906	-0.600272	7.61381	-5.05479	4.2368	0.0278151	-0.0357889	0.0170351	-0.448975	0.725342	-0.134766	0.5159	0.0259327	0.502978	-0.692956	-5.68209	-6.83717	5.17756	-0.00726775	-0.0143584	-0.014483	0.272461	0.857178	-0.205811	0.125175	0.138917	0.327504	-0.926161	-3.38728	-5.4271	7.17713	-0.0282344	-0.0147346	0.00393911	-0.0576172	0.717773	-0.80957	0.350232	0.0267791	0.421123	-0.836227	-3.49388	-6.6165	6.2721	0.00122737	-0.0203912	-0.0206801	0.03125	0.891113	-0.499512	0.729561	-0.0646909	0.672783	-0.104496	-9.0612	-2.08104	0.95549	-0.0193401	-0.00655106	-0.0382719	0.757812	0.197021	0.598389	0.640504	-0.507747	-0.333582	-0.469755	9.11405	-3.58257	2.59165	0.0701151	-0.0506899	0.0186069	-0.668701	0.7146	-0.230957	0.430784	-0.523268	-0.486773	-0.55106	9.86729	0.552722	-0.35788	-0.0252341	0.0398441	-0.0128868	-1.01221	0.352051	0.0981445	0.411195	-0.501053	-0.542058	-0.534825	9.72903	1.53268	-0.869622	-0.00264189	-0.00466072	-0.0135526	-1.05347	0.21582	0.124512	0.403028	-0.585744	-0.480263	-0.513635	9.71947	0.221826	-1.66862	-0.00742364	-0.00918872	0.00108844	-0.946045	0.39624	0.227295	0.440923	-0.589136	-0.429173	-0.523751	9.93814	-0.426921	-0.70516	-0.10347	0.0130666	-0.00992933	-1.01587	0.520752	0.18042	
5367	0.711463	-0.620943	-0.0857438	-0.317645	5.25471	-7.91893	2.15302	0.110783	0.0808943	0.0566592	-0.0820312	1.01587	-0.0632324	0.598796	-0.519114	-0.110254	-0.59984	7.55518	-4.99053	4.21332	0.0481124	-0.0315704	0.0157569	-0.44458	0.721191	-0.132324	0.516086	0.0255806	0.503291	-0.692603	-5.62372	-6.89968	5.12945	-0.0571226	-0.012047	0.00859906	0.274658	0.859375	-0.208252	0.125634	0.138028	0.328447	-0.925898	-3.3519	-5.42915	7.25143	-0.100113	-0.0554417	-0.00403889	-0.0578613	0.719971	-0.807373	0.350111	0.0265855	0.420839	-0.836427	-3.37063	-6.67995	6.29396	0.0183833	-0.0197671	-0.0291569	0.0292969	0.888916	-0.501953	0.729785	-0.0647154	0.672505	-0.104701	-9.05808	-1.98864	1.08554	0.0188075	-0.00650077	-0.0362635	0.753418	0.201416	0.598389	0.640796	-0.507529	-0.334193	-0.469159	9.10357	-3.6046	2.34113	0.0675433	-0.0287908	-0.00327397	-0.670898	0.7146	-0.233154	0.430987	-0.523007	-0.486893	-0.551044	9.67603	0.666162	-0.303388	0.0291803	0.0266431	-0.0161671	-1.01221	0.352051	0.0981445	0.411027	-0.501355	-0.541893	-0.534838	9.61869	1.64859	-0.884787	-0.0156571	-0.00735956	-0.00970708	-1.04614	0.211426	0.122559	0.402505	-0.586219	-0.479811	-0.513925	9.66942	0.373471	-1.61425	-0.0620922	0.000745255	0.010339	-0.950684	0.400635	0.227051	0.439151	-0.590314	-0.427674	-0.525139	9.91869	-0.674014	-0.708102	-0.225853	0.0218621	-0.013304	-1.01343	0.511963	0.182617	
5368	0.711999	-0.620299	-0.0845123	-0.318032	5.05568	-8.05546	2.11005	0.0351176	0.105834	0.0436915	-0.088623	1.01587	-0.0717773	0.59917	-0.519029	-0.110578	-0.59948	7.54095	-4.85734	4.35133	0.0441399	-0.0232892	0.00630458	-0.44458	0.720947	-0.134521	0.516395	0.0253228	0.503828	-0.691991	-5.65929	-6.91609	4.94204	-0.0809857	-0.00100822	0.027315	0.270508	0.852783	-0.196777	0.126158	0.136932	0.329587	-0.925584	-3.22995	-5.64007	7.30255	-0.118148	-0.0716081	-0.00695926	-0.0622559	0.719727	-0.802979	0.350004	0.0265939	0.420756	-0.836513	-3.19648	-6.67536	6.22399	0.00187564	-0.00178499	-0.01549	0.0246582	0.895508	-0.497314	0.72965	-0.0648585	0.672617	-0.104838	-8.94517	-1.88825	0.971154	-0.00533145	0.0279863	-0.0333107	0.755615	0.201416	0.598389	0.641043	-0.507334	-0.33457	-0.468763	9.02137	-3.36182	2.52295	0.0491986	-0.011075	-0.00396685	-0.670898	0.716797	-0.229004	0.431285	-0.522651	-0.487481	-0.550629	9.81389	0.875324	-0.288226	0.072569	0.0022528	-0.0217596	-1.01245	0.356445	0.0957031	0.410768	-0.501634	-0.54171	-0.534961	9.66516	1.61289	-0.871612	-0.027993	-0.00847183	-0.010844	-1.05103	0.213623	0.126953	0.401374	-0.587277	-0.47876	-0.51458	9.5001	0.400126	-1.49816	-0.144536	-0.0128333	0.0202895	-0.943848	0.394043	0.227295	0.437615	-0.591169	-0.426515	-0.5264	9.76678	-0.818997	-0.694705	-0.193183	0.0259146	-0.0168541	-1.01367	0.518555	0.177979	
