40	Head	00b4120a												Throax	00b411e8												RUpArm	00b411d9												RFoArm	00b41148												LUpArm	00b411db												LFoArm	00b41204												Waist	00b411f7												Rthigh	00b411f4												Rshank	00b4111b												Lthigh	00b411c8												Lshank	00b411ee												
PacketCount	q0	q1	q2	q3	accX	accY	accZ	gyrX	gyrY	gyrZ	magX	magY	magZ	q0	q1	q2	q3	accX	accY	accZ	gyrX	gyrY	gyrZ	magX	magY	magZ	q0	q1	q2	q3	accX	accY	accZ	gyrX	gyrY	gyrZ	magX	magY	magZ	q0	q1	q2	q3	accX	accY	accZ	gyrX	gyrY	gyrZ	magX	magY	magZ	q0	q1	q2	q3	accX	accY	accZ	gyrX	gyrY	gyrZ	magX	magY	magZ	q0	q1	q2	q3	accX	accY	accZ	gyrX	gyrY	gyrZ	magX	magY	magZ	q0	q1	q2	q3	accX	accY	accZ	gyrX	gyrY	gyrZ	magX	magY	magZ	q0	q1	q2	q3	accX	accY	accZ	gyrX	gyrY	gyrZ	magX	magY	magZ	q0	q1	q2	q3	accX	accY	accZ	gyrX	gyrY	gyrZ	magX	magY	magZ	q0	q1	q2	q3	accX	accY	accZ	gyrX	gyrY	gyrZ	magX	magY	magZ	q0	q1	q2	q3	accX	accY	accZ	gyrX	gyrY	gyrZ	magX	magY	magZ	
0	0.969599	-0.222731	0.0175753	0.0997962	-1.25548	-5.12218	9.8033	-0.0420725	0.0955861	0.00354207	0.654785	0.333496	-0.904297	0.599989	-0.749639	-0.270014	-0.0717414	3.94245	-8.42492	-2.28898	-0.14653	0.190022	0.116584	0.104736	0.982178	0.266846	0.80912	-0.157795	0.538131	0.175617	-8.78668	-0.749534	4.72139	0.250977	0.395836	0.0610149	0.994141	-0.180664	-0.0205078	0.672776	0.387294	0.551505	-0.305316	-9.24993	2.38022	0.937634	0.101328	0.267839	-0.368001	1.0249	0.291992	0.0766602	0.142759	-0.695383	-0.108183	-0.695959	9.60654	-0.339935	-0.449029	-0.265987	-0.0273966	0.0417893	-0.985352	0.233398	0.46167	-0.266555	-0.492509	0.559757	-0.610782	9.64412	-1.90322	2.64824	-0.0420146	-0.131241	0.00542566	-1.1123	-0.200928	0.29126	0.453136	-0.823438	-0.3405	0.0260155	2.19344	-7.0086	-5.3264	0.0704217	0.0657786	0.18176	0.121826	0.987305	0.437988	0.609807	-0.705891	-0.190497	-0.305882	6.39485	-5.95824	-1.09834	0.286753	0.0131944	0.00731795	-0.372559	1.00903	0.194092	0.611324	-0.714467	-0.273228	-0.202896	6.18757	-7.90713	-2.37284	-0.175358	-0.180077	-0.120226	-0.33374	1.00195	0.189697	0.306144	-0.0539121	-0.0986807	-0.945321	2.39424	1.55838	9.83268	-0.0832698	0.0160394	0.0147298	-0.528076	0.118408	-0.921631	0.162268	-0.677368	-0.307924	-0.648093	9.71326	1.92739	-1.02969	-0.367951	0.0895912	0.077251	-1.04932	0.129883	0.473633	
1	0.969313	-0.225873	0.0193284	0.0950833	-0.743781	-4.82739	9.83917	-0.134691	0.110282	-0.199917	0.652344	0.339844	-0.897949	0.5988	-0.752079	-0.265778	-0.0719526	4.68676	-8.54864	-2.29788	-0.129036	0.149192	0.124077	0.111328	0.97998	0.264648	0.804657	-0.15531	0.546543	0.172327	-9.10817	-1.10839	4.48926	0.150257	0.357048	0.0367196	0.992188	-0.187256	-0.0065918	0.665146	0.387742	0.558232	-0.309214	-9.49676	0.826435	0.0906755	0.181935	0.287452	-0.251338	1.01294	0.307129	0.092041	0.144742	-0.695553	-0.110374	-0.695035	9.92324	-1.18143	0.617446	0.163946	-0.0208805	-0.012063	-0.981201	0.237793	0.459473	-0.266555	-0.492509	0.559757	-0.610782	9.64412	-1.90322	2.64824	-0.0420146	-0.131241	0.00542566	-1.1123	-0.200928	0.29126	0.453353	-0.82506	-0.336166	0.0271997	2.88843	-7.26465	-5.28171	0.0208017	0.036018	0.159252	0.130615	0.98291	0.440186	0.606748	-0.707866	-0.192045	-0.306434	6.86943	-5.39758	-1.00224	-0.29359	-0.00441232	-0.0824517	-0.374512	1.00684	0.201172	0.609546	-0.71473	-0.277026	-0.202167	6.30981	-6.8874	-2.26193	-0.0962851	-0.104169	-0.102897	-0.331055	0.997559	0.194336	0.306144	-0.0539121	-0.0986807	-0.945321	2.39424	1.55838	9.83268	-0.0832698	0.0160394	0.0147298	-0.528076	0.118408	-0.921631	0.15936	-0.678017	-0.30271	-0.650588	9.88485	1.23619	-0.523973	-0.207554	0.0457305	0.0278245	-1.04712	0.13208	0.471191	
2	0.968971	-0.228869	0.0235436	0.0903316	-1.27363	-4.53935	9.72004	-0.0898327	0.237782	-0.12483	0.662598	0.35083	-0.88501	0.598039	-0.753902	-0.261731	-0.0740142	4.23574	-8.51665	-2.50045	-0.0938336	0.173953	0.0591494	0.115479	0.984375	0.276123	0.801288	-0.154608	0.552134	0.17083	-9.3146	-1.1304	3.6918	0.0569465	0.237787	0.0326439	0.992188	-0.185059	0.00927734	0.659779	0.389438	0.561918	-0.311895	-9.72463	0.9809	-0.204498	0.089889	0.176585	-0.124201	1.01709	0.313721	0.0983887	0.140125	-0.697083	-0.102555	-0.695646	9.80326	-1.45293	0.212377	-0.461299	0.0190138	0.118684	-0.987305	0.230957	0.470947	-0.266555	-0.492509	0.559757	-0.610782	9.64412	-1.90322	2.64824	-0.0420146	-0.131241	0.00542566	-1.1123	-0.200928	0.29126	0.45482	-0.826122	-0.331613	0.0263596	2.22552	-7.29444	-5.45789	0.0595344	0.161995	0.116581	0.126709	0.978516	0.431885	0.597611	-0.715377	-0.187824	-0.309547	6.58447	-6.59894	-1.70195	-0.427707	0.0170824	-0.0133582	-0.37207	1	0.222168	0.606325	-0.717365	-0.276492	-0.203246	6.39634	-6.53883	-2.37752	-0.170263	-0.00875708	-0.0170319	-0.331543	1.00659	0.20752	0.306144	-0.0539121	-0.0986807	-0.945321	2.39424	1.55838	9.83268	-0.0832698	0.0160394	0.0147298	-0.528076	0.118408	-0.921631	0.158157	-0.678045	-0.302339	-0.651024	9.92884	1.25076	-0.469037	-0.0424232	0.000262121	-0.047211	-1.04688	0.125488	0.473633	
3	0.968861	-0.229955	0.0289878	0.0871111	-1.91495	-4.6492	10.0854	0.0292716	0.229785	-0.0769048	0.678223	0.351074	-0.880615	0.597753	-0.754538	-0.260384	-0.0745911	3.9037	-8.40233	-2.41867	-0.0272331	0.0126586	0.00386005	0.113525	0.977783	0.27417	0.799959	-0.152611	0.555461	0.168043	-9.38348	-0.552041	3.74058	0.118867	0.106074	0.00985302	0.996582	-0.185303	0.0205078	0.657539	0.389665	0.563351	-0.313751	-9.77944	0.746573	-0.20333	0.0824121	0.0283626	-0.088855	1.01245	0.320312	0.0939941	0.134592	-0.699042	-0.0951224	-0.695828	9.9125	-0.253335	-0.25485	-0.366155	-0.0375922	0.0323788	-0.97876	0.231201	0.470947	-0.266555	-0.492509	0.559757	-0.610782	9.64412	-1.90322	2.64824	-0.0420146	-0.131241	0.00542566	-1.1123	-0.200928	0.29126	0.45652	-0.825942	-0.329816	0.0250957	2.28885	-7.12988	-5.29011	0.0211681	0.115826	-0.0059096	0.130371	0.989502	0.433838	0.599312	-0.714075	-0.192057	-0.306652	6.63071	-6.67125	-0.667866	0.243197	-0.178092	-0.0308112	-0.369873	1	0.212891	0.610561	-0.713874	-0.27697	-0.202202	6.34096	-5.28549	-1.43366	0.291158	0.0429485	0.00119601	-0.329102	1.0022	0.191895	0.306144	-0.0539121	-0.0986807	-0.945321	2.39424	1.55838	9.83268	-0.0832698	0.0160394	0.0147298	-0.528076	0.118408	-0.921631	0.157494	-0.678058	-0.305079	-0.649892	9.74018	1.73203	-1.17345	0.0819968	-0.0523162	-0.109076	-1.04468	0.125488	0.473633	
4	0.968621	-0.231313	0.0314196	0.0853313	-2.61542	-4.45086	10.0086	-0.0715134	0.043361	-0.0574985	0.680176	0.355225	-0.878662	0.597561	-0.754382	-0.261054	-0.0753636	3.71373	-8.17686	-2.75761	-0.00357496	-0.0220562	-0.0801565	0.113525	0.977783	0.27417	0.798397	-0.155833	0.556714	0.168365	-8.90625	-1.06937	3.53669	-0.130153	0.0939206	-0.0391811	0.996582	-0.185303	0.0205078	0.656656	0.389563	0.56305	-0.316255	-9.3489	1.10492	-0.00683691	0.0245812	-0.03521	-0.0619632	1.0166	0.326904	0.09375	0.129531	-0.700697	-0.0925466	-0.695472	9.8606	-0.563023	-0.218447	-0.132031	-0.0765412	-0.131148	-0.982422	0.215576	0.475586	-0.270918	-0.493139	0.565694	-0.602833	9.5809	-1.8475	1.98278	-0.116036	-0.037731	-0.0265855	-1.10547	-0.21167	0.298096	0.456782	-0.825654	-0.330226	0.0244351	2.08687	-7.05274	-5.46428	-0.0322924	0.00312013	-0.0738586	0.134766	0.989502	0.429443	0.602084	-0.711978	-0.193818	-0.304985	6.50517	-6.44015	-0.758524	0.0706622	0.0268916	-0.0380645	-0.372314	1.00464	0.203369	0.609563	-0.715618	-0.274513	-0.202402	5.9972	-7.91592	-1.55402	0.159616	0.0270289	0.0305311	-0.329102	1.00195	0.200928	0.306144	-0.0539121	-0.0986807	-0.945321	2.39424	1.55838	9.83268	-0.0832698	0.0160394	0.0147298	-0.528076	0.118408	-0.921631	0.157476	-0.678319	-0.308261	-0.64812	9.77545	1.73955	-1.33715	0.162999	-0.0741438	-0.0659572	-1.04443	0.118896	0.471436	
5	0.968002	-0.23424	0.028507	0.0853896	-2.08448	-4.14467	9.73755	-0.173171	-0.162411	-0.00271499	0.670898	0.364014	-0.880859	0.597097	-0.754332	-0.262233	-0.0754464	3.88206	-8.1988	-2.73998	-0.023564	-0.0478574	-0.0947976	0.115723	0.977783	0.27417	0.798189	-0.156781	0.556741	0.168382	-9.18143	-1.0771	3.61639	-0.0605112	0.0301922	-0.0240837	0.994629	-0.1875	0.0251465	0.658139	0.387359	0.562217	-0.317361	-9.72001	0.649935	0.26914	-0.0260873	-0.108703	-0.0376679	1.01221	0.324707	0.0915527	0.128104	-0.701292	-0.0932866	-0.695037	10.0398	-0.612517	-0.198389	-0.0431311	-0.0669509	-0.122956	-0.980469	0.224365	0.477783	-0.270918	-0.493139	0.565694	-0.602833	9.5809	-1.8475	1.98278	-0.116036	-0.037731	-0.0265855	-1.10547	-0.21167	0.298096	0.456174	-0.825843	-0.330654	0.0235783	2.0777	-6.82998	-5.31838	-0.0580948	0.0379613	-0.0708526	0.124268	0.985107	0.436035	0.600223	-0.713742	-0.19337	-0.304816	6.70111	-6.77142	-0.710707	-0.197075	-0.0422623	0.000982161	-0.365479	0.998047	0.215332	0.609998	-0.715547	-0.273969	-0.202077	6.20522	-6.93294	-1.48939	0.0321827	0.0269809	0.034067	-0.32666	1.00439	0.19873	0.306144	-0.0539121	-0.0986807	-0.945321	2.39424	1.55838	9.83268	-0.0832698	0.0160394	0.0147298	-0.528076	0.118408	-0.921631	0.158305	-0.678549	-0.309752	-0.646966	9.60175	2.21074	-1.16771	0.148878	-0.0652028	-0.0226277	-1.03784	0.123291	0.478271	
6	0.966562	-0.239243	0.0231049	0.0893704	-1.22532	-5.21687	9.42818	-0.203948	-0.239622	0.116779	0.66626	0.365967	-0.880859	0.595643	-0.754504	-0.264876	-0.0759862	4.12061	-8.48804	-2.83522	-0.0432267	-0.00375845	-0.117552	0.10498	0.978027	0.283447	0.798182	-0.160595	0.555486	0.168968	-9.16227	-1.64561	3.54385	-0.110938	-0.0118159	-0.0870062	0.994141	-0.174316	0.0134277	0.660811	0.386034	0.559629	-0.317997	-9.75924	0.703417	0.811615	-0.054787	-0.169539	0.0475968	1.01636	0.329102	0.0871582	0.124956	-0.701961	-0.0925144	-0.695038	9.80395	-0.946244	0.267679	-0.15391	-0.0292042	-0.0849388	-0.980225	0.213379	0.482422	-0.271921	-0.493639	0.566704	-0.60102	9.64597	-1.80491	2.02223	-0.0421654	-0.0152424	-0.0197495	-1.10327	-0.209473	0.295898	0.455577	-0.82551	-0.332393	0.02231	2.10582	-7.3619	-5.55147	-0.0281989	-0.0113851	-0.0933893	0.124023	0.989258	0.440186	0.599879	-0.714275	-0.193331	-0.304269	6.54616	-7.02113	-0.728975	0.034964	0.00187941	0.00335621	-0.374023	1	0.222168	0.608988	-0.717208	-0.271966	-0.201944	6.0539	-8.26934	-1.75094	-0.0263434	0.0303348	0.0416618	-0.324463	1.00659	0.200928	0.306144	-0.0539121	-0.0986807	-0.945321	2.39424	1.55838	9.83268	-0.0832698	0.0160394	0.0147298	-0.528076	0.118408	-0.921631	0.159139	-0.679287	-0.310718	-0.645522	9.64918	2.25566	-1.15303	0.0637947	-0.0437625	0.0351552	-1.04468	0.127686	0.480469	
7	0.965803	-0.241517	0.0209117	0.0919635	-0.980877	-5.18925	9.31424	-0.209188	-0.21217	0.155279	0.66626	0.368164	-0.880859	0.593373	-0.755119	-0.268057	-0.0764764	4.54104	-8.39813	-2.9	-0.0882154	-0.0578429	-0.109043	0.104736	0.982422	0.285645	0.799931	-0.162876	0.55202	0.169867	-9.51236	-1.65623	3.85548	-0.160485	-0.169005	-0.0280855	0.98999	-0.180664	0.0114746	0.662325	0.385846	0.557904	-0.318108	-9.75791	0.532579	0.993578	-0.0133772	-0.165292	0.0847361	1.0166	0.324707	0.0805664	0.115388	-0.703796	-0.0816819	-0.696193	9.94668	0.029526	-0.165986	-0.789396	0.0287953	0.0619842	-0.981689	0.200195	0.484619	-0.276361	-0.491388	0.568809	-0.598848	9.52859	-1.9603	1.92652	-0.216788	0.0941486	-0.0418903	-1.10059	-0.222412	0.289795	0.453909	-0.825601	-0.334558	0.0205057	2.40368	-7.50864	-5.66772	-0.0698384	-0.00764129	-0.105447	0.119629	0.987305	0.440186	0.597931	-0.716108	-0.191576	-0.304904	6.71654	-7.48019	-1.09102	-0.154882	0.0900451	0.00188274	-0.365234	0.993408	0.227051	0.611354	-0.715584	-0.271623	-0.201015	6.30797	-6.66376	-1.28069	0.100847	0.0248026	0.0214439	-0.324707	1.00903	0.194092	0.306144	-0.0539121	-0.0986807	-0.945321	2.39424	1.55838	9.83268	-0.0832698	0.0160394	0.0147298	-0.528076	0.118408	-0.921631	0.159567	-0.679782	-0.310528	-0.644987	9.54633	1.87969	-1.45059	0.0153253	-0.00609259	0.034219	-1.04028	0.127686	0.487305	
8	0.964578	-0.244829	0.0187902	0.096412	-1.12295	-5.96152	9.28284	-0.0934569	-0.0887374	0.13117	0.659424	0.370361	-0.883301	0.593138	-0.754574	-0.270213	-0.0760928	3.98058	-8.58851	-3.00171	0.042368	-0.10228	-0.0976814	0.100586	0.977783	0.278809	0.802619	-0.162656	0.548666	0.168259	-9.19261	-1.59289	3.97412	0.136763	-0.157693	-0.0559921	0.994141	-0.169922	0.00415039	0.664992	0.387801	0.554768	-0.315641	-9.55042	1.46118	1.34981	-0.0531121	-0.0439759	0.222096	1.01514	0.30957	0.076416	0.117264	-0.70374	-0.0830901	-0.695769	10.1996	-1.57494	-0.30662	0.528782	-0.0111926	-0.0032894	-0.979736	0.202393	0.484619	-0.277194	-0.491147	0.568324	-0.599121	9.85418	-1.76028	2.11833	-0.0121392	0.0811518	-0.0498893	-1.10522	-0.218262	0.283203	0.453346	-0.824883	-0.337022	0.0214756	2.31423	-7.46373	-5.556	0.00133927	-0.11349	-0.11045	0.115234	0.989258	0.440186	0.600421	-0.713975	-0.190998	-0.305375	6.86735	-7.33939	-1.02228	0.182812	0.117458	0.0223033	-0.365479	1	0.215332	0.614142	-0.71305	-0.272805	-0.199915	5.94695	-7.36439	-2.02462	0.347202	-0.0191655	-0.0630526	-0.320068	1.00903	0.185303	0.306144	-0.0539121	-0.0986807	-0.945321	2.39424	1.55838	9.83268	-0.0832698	0.0160394	0.0147298	-0.528076	0.118408	-0.921631	0.160016	-0.679993	-0.310891	-0.644478	9.55237	1.81572	-1.33698	0.0674259	-0.00554089	-0.0113128	-1.03784	0.127686	0.482666	
9	0.963664	-0.247204	0.0179702	0.0995927	-1.5505	-5.52669	9.29476	-0.142082	-0.0552971	0.11244	0.657227	0.370361	-0.878906	0.592134	-0.754564	-0.272362	-0.0763519	4.25419	-8.27369	-2.74267	-0.0432523	-0.0106979	-0.0735435	0.0981445	0.982178	0.281006	0.805042	-0.162774	0.544993	0.168509	-9.11751	-1.57905	4.10536	-0.0856275	-0.140729	-0.0279058	0.994141	-0.174316	-0.00488281	0.665593	0.39162	0.553837	-0.311262	-9.64676	1.82625	0.967163	0.0536836	0.118905	0.221186	1.02002	0.300537	0.0876465	0.121839	-0.702378	-0.0841016	-0.696238	10.2227	-0.0390062	0.184669	-0.133941	0.0833989	0.0965841	-0.978027	0.213379	0.484619	-0.280919	-0.489904	0.564756	-0.601771	9.9402	-1.99563	2.54784	0.128678	0.15709	-0.109656	-1.10693	-0.229004	0.279297	0.451633	-0.825036	-0.338834	0.0231239	2.27523	-7.10188	-5.44688	-0.0311125	-0.105212	-0.000823123	0.12207	0.985107	0.440186	0.604632	-0.710719	-0.192053	-0.303999	6.11853	-6.41434	-1.09283	0.227834	-0.0428399	-0.00555231	-0.369873	1.00244	0.203613	0.612508	-0.714605	-0.271619	-0.200988	5.66627	-8.24673	-2.32548	-0.168931	0.0588453	0.00011947	-0.324463	1.0022	0.194336	0.306144	-0.0539121	-0.0986807	-0.945321	2.39424	1.55838	9.83268	-0.0832698	0.0160394	0.0147298	-0.528076	0.118408	-0.921631	0.159542	-0.679918	-0.31	-0.645103	9.39251	1.72435	-1.46043	-0.077021	0.0352779	0.00818436	-1.04004	0.125488	0.482666	
10	0.963476	-0.24797	0.0174902	0.0995891	-1.54403	-5.43962	9.61256	0.00421495	-0.0297557	-0.0427664	0.650391	0.374512	-0.883301	0.592388	-0.753387	-0.275136	-0.0760613	4.10019	-8.4601	-2.83879	0.0507323	-0.0748729	-0.118402	0.0874023	0.982178	0.283447	0.806755	-0.160311	0.543776	0.166596	-9.15864	-1.33874	4.25298	0.136423	-0.0789035	0.00533887	0.994141	-0.172119	-0.013916	0.664028	0.396447	0.554208	-0.307816	-9.76981	2.20826	0.722256	0.0706512	0.151265	0.147564	1.02026	0.293945	0.0854492	0.127091	-0.700752	-0.0889345	-0.696337	9.59601	-0.301017	-0.712696	0.47874	0.0490978	-0.00946532	-0.980225	0.215576	0.473145	-0.281818	-0.48969	0.561694	-0.604385	9.31303	-1.51434	1.8502	0.082269	0.11057	-0.0321951	-1.11353	-0.226807	0.270752	0.450384	-0.824781	-0.341001	0.0246871	2.324	-7.14339	-5.13936	0.00130194	-0.0780114	-0.0947832	0.115479	0.985107	0.440186	0.603004	-0.712613	-0.192659	-0.302408	6.52728	-6.67091	-0.638421	-0.154023	-0.0753769	0.0198972	-0.363525	1.00244	0.208252	0.613481	-0.713897	-0.270803	-0.201637	6.04463	-6.76082	-1.76102	-0.0775029	0.0741479	0.00768716	-0.326904	1.00903	0.1875	0.306144	-0.0539121	-0.0986807	-0.945321	2.39424	1.55838	9.83268	-0.0832698	0.0160394	0.0147298	-0.528076	0.118408	-0.921631	0.158361	-0.679978	-0.308011	-0.646282	9.24006	2.05223	-1.39234	-0.154811	0.0355359	0.0100983	-1.04248	0.125488	0.480469	
11	0.963571	-0.248006	0.0150279	0.0989832	-1.32758	-5.65214	9.39094	0.0112414	-0.115306	-0.059414	0.648438	0.372314	-0.885498	0.592388	-0.752827	-0.276662	-0.0760692	4.25177	-8.51239	-2.56989	0.0398446	0.000490003	-0.0514991	0.0852051	0.97998	0.271729	0.806763	-0.16347	0.541821	0.169828	-8.74057	-1.97345	4.3938	-0.215551	-0.0316834	0.0207596	0.994141	-0.172119	-0.0117188	0.662691	0.399201	0.554802	-0.306062	-9.39274	2.42471	0.584878	0.00515397	0.115622	0.0832317	1.02026	0.293945	0.092041	0.131417	-0.699078	-0.0925111	-0.696751	9.79927	-1.76711	0.171161	0.209079	0.0530859	-0.0379934	-0.980469	0.224365	0.473145	-0.279971	-0.490602	0.556691	-0.609115	9.67894	-1.76912	2.30918	0.336666	0.0948836	-0.0334199	-1.11157	-0.220459	0.272705	0.449683	-0.824988	-0.341441	0.024438	2.54483	-7.10534	-5.53036	-0.0484798	-0.00587374	-0.0476759	0.119873	0.985107	0.44458	0.602255	-0.713881	-0.192904	-0.30075	6.46215	-6.60991	-0.771273	-0.038269	-0.062752	-0.00779399	-0.363525	1.00439	0.215088	0.61184	-0.715712	-0.268918	-0.20271	6.21642	-7.01439	-1.70633	-0.231797	0.0976848	0.0497751	-0.324463	1.00659	0.196289	0.306144	-0.0539121	-0.0986807	-0.945321	2.39424	1.55838	9.83268	-0.0832698	0.0160394	0.0147298	-0.528076	0.118408	-0.921631	0.157575	-0.680002	-0.306758	-0.647045	9.66443	1.55086	-0.88559	0.0220298	0.00503201	0.0291176	-1.04443	0.121094	0.480469	
12	0.964167	-0.245676	0.0130641	0.0992684	-1.17512	-4.60952	9.52226	0.0703007	-0.128002	0.0264878	0.641602	0.376709	-0.894043	0.593769	-0.750949	-0.279191	-0.0746082	4.79712	-8.03517	-2.56534	0.0975502	-0.0802791	-0.06891	0.0874023	0.984375	0.271484	0.807088	-0.162872	0.54153	0.169783	-8.88196	-1.98428	4.48175	0.0445369	-0.0339493	0.0287128	0.991943	-0.174316	-0.013916	0.662474	0.399857	0.555163	-0.30502	-9.64253	2.23017	0.447331	-0.0191974	0.0835107	0.0755248	1.02734	0.287598	0.0900879	0.141492	-0.696117	-0.103069	-0.69626	9.90023	0.367715	0.212843	0.40982	0.0976877	0.0376583	-0.985596	0.237793	0.459473	-0.279989	-0.490369	0.554919	-0.610909	9.50635	-1.56743	1.77797	0.149759	0.132158	-0.0277819	-1.11377	-0.220459	0.268311	0.449162	-0.824279	-0.343714	0.0260506	2.51698	-7.51891	-5.37609	0.0201795	-0.0974175	-0.0977134	0.115723	0.980713	0.44043	0.600366	-0.715702	-0.192924	-0.300187	6.90134	-7.13829	-0.8361	-0.18279	-0.0887541	-0.00584503	-0.361084	1	0.219971	0.611886	-0.716197	-0.266894	-0.203531	6.21126	-7.27035	-1.32386	0.0440556	0.0659363	0.0150566	-0.319824	1.00684	0.196533	0.306144	-0.0539121	-0.0986807	-0.945321	2.39424	1.55838	9.83268	-0.0832698	0.0160394	0.0147298	-0.528076	0.118408	-0.921631	0.155115	-0.680149	-0.306031	-0.647828	10.1918	1.2292	-0.810856	-0.0870805	0.00544105	-0.076242	-1.03955	0.112305	0.47168	
13	0.964274	-0.243706	0.0100826	0.103355	-0.921679	-5.14996	9.12485	0.0919886	-0.156989	0.123438	0.637939	0.363525	-0.894043	0.596103	-0.7488	-0.280245	-0.0736411	4.19907	-8.38787	-2.74036	0.167526	-0.0465065	-0.0530721	0.0852051	0.97998	0.264648	0.807545	-0.162338	0.540418	0.171654	-8.60024	-1.77527	4.68411	0.0388892	-0.00365846	0.0423783	0.996338	-0.176514	-0.0183105	0.66031	0.403341	0.555406	-0.304682	-9.31929	2.73036	0.530575	-0.0225658	0.0993043	0.0462472	1.02295	0.285156	0.105469	0.14252	-0.695567	-0.102555	-0.696676	9.83471	-1.59824	0.476865	0.15577	0.00443222	-0.00519005	-0.979248	0.244385	0.459473	-0.282902	-0.488955	0.548246	-0.616697	9.62574	-1.51169	2.19127	0.0897423	0.223322	-0.0918801	-1.11597	-0.222656	0.257568	0.448545	-0.823549	-0.346127	0.0277577	2.58466	-7.36458	-5.56754	0.0907129	-0.0578763	-0.063159	0.113037	0.993652	0.439941	0.604905	-0.711978	-0.193385	-0.299632	6.74765	-6.92396	-0.66517	0.331116	0.0305056	-0.0199608	-0.359375	1.00879	0.210449	0.612261	-0.716595	-0.264999	-0.20348	6.29879	-7.71033	-1.48327	0.0409596	0.0510865	0.0426512	-0.31543	1.00903	0.194092	0.306144	-0.0539121	-0.0986807	-0.945321	2.39424	1.55838	9.83268	-0.0832698	0.0160394	0.0147298	-0.528076	0.118408	-0.921631	0.156352	-0.67976	-0.309356	-0.646358	9.45419	1.34951	-0.940892	0.175722	-0.0347531	-0.0644613	-1.04004	0.123291	0.485107	
14	0.964387	-0.242622	0.00871108	0.104956	-0.943957	-5.37331	9.14631	0.0753669	-0.156772	0.0921327	0.635742	0.361328	-0.898438	0.597104	-0.747687	-0.281374	-0.0725276	4.20946	-8.06546	-2.82339	0.140389	-0.0785517	-0.0493749	0.0827637	0.986572	0.259766	0.807479	-0.161132	0.540973	0.171357	-8.97086	-1.14122	4.61795	0.101792	0.0337001	0.0550819	0.998535	-0.180908	-0.0161133	0.659777	0.403585	0.556451	-0.303603	-9.58829	2.44175	0.412176	-0.0480828	0.119631	0.0247381	1.02271	0.287354	0.101074	0.144728	-0.694708	-0.102365	-0.697105	9.7692	-0.0726428	-0.0168316	0.116811	0.100991	0.109968	-0.983887	0.248779	0.452637	-0.282902	-0.488955	0.548246	-0.616697	9.62574	-1.51169	2.19127	0.0897423	0.223322	-0.0918801	-1.11597	-0.222656	0.257568	0.448408	-0.822224	-0.349237	0.0301777	2.38956	-6.9791	-5.6086	0.0198536	-0.124851	-0.0988208	0.115479	0.985107	0.442383	0.606076	-0.710953	-0.193718	-0.299485	6.63269	-6.83215	-0.463115	0.130428	0.035507	-0.0144463	-0.36377	1.00684	0.203369	0.615771	-0.713742	-0.265374	-0.202421	5.94495	-7.18439	-1.4271	0.185399	0.0202367	-0.00882897	-0.320068	1.01147	0.182861	0.306144	-0.0539121	-0.0986807	-0.945321	2.39424	1.55838	9.83268	-0.0832698	0.0160394	0.0147298	-0.528076	0.118408	-0.921631	0.157335	-0.679147	-0.312455	-0.645273	9.60399	1.90259	-1.16915	0.249227	-0.0325924	-0.12485	-1.03979	0.118896	0.476074	
15	0.965282	-0.239245	0.00750406	0.104575	-0.527301	-5.06211	9.19045	0.139358	-0.0129597	-0.0592912	0.633789	0.359375	-0.906982	0.597805	-0.746835	-0.282656	-0.0705144	4.22428	-8.62193	-2.43688	0.0577774	-0.0509055	-0.0119692	0.0854492	0.977783	0.257812	0.805846	-0.163407	0.541567	0.174974	-9.02695	-1.37522	4.3586	-0.193798	0.0639571	0.101792	0.992188	-0.189453	-0.0112305	0.658651	0.402006	0.559621	-0.302314	-9.64286	2.72621	0.376889	-0.170593	0.118092	-0.0831218	1.01611	0.287354	0.109863	0.145657	-0.694537	-0.100419	-0.697365	10.2445	-0.641073	-0.269253	0.0635442	0.0164079	0.0167417	-0.981445	0.244385	0.457275	-0.288667	-0.485613	0.545304	-0.61927	10.0787	-1.44692	3.06898	-0.045052	0.165384	-0.0247109	-1.11792	-0.226807	0.240723	0.449323	-0.820688	-0.351446	0.0326229	2.24058	-7.34662	-4.99782	0.0751661	-0.0885685	-0.0355361	0.117432	0.989258	0.427246	0.606668	-0.710371	-0.192938	-0.30017	6.54799	-7.26971	-0.737091	0.00792767	0.0593162	-0.02115	-0.361328	1.00464	0.210449	0.614037	-0.715753	-0.263558	-0.202961	5.81344	-8.8866	-1.87936	-0.102044	0.0381705	0.0182992	-0.31543	1.00903	0.189697	0.306144	-0.0539121	-0.0986807	-0.945321	2.39424	1.55838	9.83268	-0.0832698	0.0160394	0.0147298	-0.528076	0.118408	-0.921631	0.15607	-0.678877	-0.314028	-0.645101	9.75846	1.99319	-1.41094	-0.0456871	-0.0099403	-0.0660119	-1.04199	0.118896	0.48291	
16	0.965661	-0.238772	0.0106196	0.101858	-1.02487	-4.91523	9.41858	0.00229778	0.172749	-0.0677467	0.644775	0.35498	-0.898193	0.599238	-0.745818	-0.282849	-0.0683016	4.54861	-8.65098	-2.82691	0.0936567	-0.0022201	0.0500034	0.0915527	0.984375	0.255127	0.803936	-0.165453	0.543075	0.177149	-9.39307	-1.94927	4.07102	-0.0556758	0.101515	0.0504723	0.996582	-0.189453	-0.0112305	0.657372	0.399833	0.5624	-0.302824	-10.0922	1.43054	-0.0635977	0.0646963	0.0291734	-0.126058	1.02026	0.293945	0.114258	0.141486	-0.694559	-0.0991065	-0.698389	9.49792	0.172431	-0.700308	-0.262945	0.000591763	-0.138258	-0.98999	0.242188	0.457275	-0.287966	-0.485299	0.545938	-0.619283	9.45489	-1.41299	2.82143	0.0331625	-0.0703909	0.0529405	-1.11377	-0.224854	0.242676	0.450055	-0.820301	-0.351363	0.0331789	2.3216	-7.60672	-5.527	0.0850702	0.0196001	0.00335397	0.113037	0.991455	0.427246	0.605729	-0.711119	-0.193577	-0.299883	6.59038	-7.33937	-0.66802	0.00831169	-0.0411462	-0.00708937	-0.365723	1.00244	0.203613	0.61862	-0.711831	-0.264879	-0.201111	6.10229	-7.15664	-1.40106	0.161263	0.000617079	0.00515089	-0.312988	1.00928	0.178467	0.306144	-0.0539121	-0.0986807	-0.945321	2.39424	1.55838	9.83268	-0.0832698	0.0160394	0.0147298	-0.528076	0.118408	-0.921631	0.158522	-0.678433	-0.315566	-0.644218	9.30186	2.19389	-1.23042	0.0540235	0.0211578	0.0332526	-1.04004	0.121094	0.478271	
17	0.965485	-0.239421	0.0131525	0.101707	-1.53751	-5.12745	9.60131	-0.0222418	0.050481	0.0496419	0.640381	0.35498	-0.895996	0.599746	-0.745934	-0.281611	-0.0676964	4.48671	-8.21514	-2.87754	-0.0195329	0.0480076	0.0296016	0.0874023	0.982178	0.255127	0.803169	-0.164597	0.544412	0.17732	-9.14052	-1.07794	4.34277	-0.0101131	0.0313233	0.0328344	0.994385	-0.19165	-0.0112305	0.657006	0.398135	0.56307	-0.304604	-9.58029	1.68767	0.171053	-0.00987738	-0.0211928	-0.098367	1.01562	0.29834	0.103027	0.142007	-0.693924	-0.105098	-0.698038	10.4309	0.531428	0.696055	0.215567	-0.0106301	-0.173238	-0.983398	0.23999	0.450439	-0.283858	-0.486255	0.548478	-0.618185	9.89112	-2.27685	2.83797	0.0443489	-0.169948	0.0995948	-1.11401	-0.213867	0.255127	0.450944	-0.820056	-0.350734	0.0337973	2.01483	-7.55493	-5.87727	0.0363494	-0.0126266	0.0225826	0.115234	0.989258	0.429443	0.607377	-0.709505	-0.194423	-0.299825	6.61132	-7.18694	-0.665356	0.069894	0.0211646	-0.0405588	-0.36377	1.00684	0.196289	0.621599	-0.708875	-0.26638	-0.20038	6.17578	-7.53229	-1.25197	0.204373	-0.0027464	-0.0740633	-0.315674	1.01611	0.174072	0.306144	-0.0539121	-0.0986807	-0.945321	2.39424	1.55838	9.83268	-0.0832698	0.0160394	0.0147298	-0.528076	0.118408	-0.921631	0.158688	-0.677687	-0.315749	-0.644873	9.87479	1.21497	-1.56898	0.0679049	0.0525855	-0.0369465	-1.04443	0.118896	0.478271	
18	0.965369	-0.239108	0.0150614	0.103259	-1.49834	-5.51235	9.62555	0.0490922	0.0616819	0.0610897	0.647217	0.35498	-0.898193	0.599338	-0.746784	-0.280247	-0.0675934	4.26678	-8.5725	-2.76424	-0.041243	0.0441606	0.0271508	0.0959473	0.982178	0.262207	0.802791	-0.164921	0.545059	0.176745	-9.20345	-1.37791	3.99519	0.0955465	0.0571456	-0.0189273	0.996582	-0.189453	-0.00439453	0.657262	0.397461	0.562938	-0.305176	-9.94443	1.14949	0.140694	-0.022883	-0.0408709	-0.046308	1.01587	0.293945	0.107666	0.139932	-0.693827	-0.106039	-0.698412	10.3094	-1.05851	-0.241983	0.0343903	0.00893557	-0.0159871	-0.985352	0.235596	0.452637	-0.281493	-0.487022	0.551565	-0.615912	10.3165	-1.15637	2.30817	-0.287055	-0.0851435	0.0796274	-1.11206	-0.213867	0.259521	0.451934	-0.820018	-0.349398	0.0353145	2.37843	-7.3957	-5.39698	0.108521	0.0449393	0.0331905	0.115234	0.993652	0.425049	0.604943	-0.71168	-0.193772	-0.300013	6.71155	-7.54381	-1.11577	-0.168338	0.0212081	-0.00854935	-0.36792	1.00659	0.208008	0.620607	-0.708798	-0.267521	-0.202201	6.09277	-7.8882	-1.78924	-0.0359686	0.0362209	-0.117508	-0.324463	1.00684	0.169678	0.306144	-0.0539121	-0.0986807	-0.945321	2.39424	1.55838	9.83268	-0.0832698	0.0160394	0.0147298	-0.528076	0.118408	-0.921631	0.158941	-0.676574	-0.317116	-0.645308	9.44286	1.70701	-1.15226	0.0283104	0.0402293	-0.0712073	-1.0376	0.118896	0.48291	
19	0.965485	-0.238637	0.0150448	0.103274	-1.0226	-5.55061	9.42246	0.0177889	-0.00673078	-0.0276496	0.64502	0.352783	-0.895996	0.599322	-0.747296	-0.278873	-0.0677572	4.08661	-8.49603	-2.34994	0.0171498	0.0617157	0.050508	0.0983887	0.97998	0.262207	0.803087	-0.164658	0.545085	0.175561	-8.88861	-1.86388	3.94041	0.0332044	0.0115905	-0.0217472	0.988037	-0.187256	-0.00219727	0.657156	0.39831	0.561636	-0.306692	-9.58428	1.74109	0.607884	-0.0177067	-0.0355512	0.0157085	1.01782	0.29834	0.107422	0.127308	-0.696043	-0.0930682	-0.700468	9.486	-1.46508	0.110023	-0.898813	-0.0173852	-0.0436096	-0.989014	0.21582	0.464111	-0.280546	-0.486594	0.55357	-0.614883	9.35687	-2.03211	2.069	0.0836106	-0.0326632	0.0293538	-1.11621	-0.213867	0.261719	0.452757	-0.81979	-0.348705	0.0368761	2.14862	-7.1513	-5.13387	0.119175	-0.0644446	0.0432983	0.121582	0.991455	0.423096	0.60614	-0.710922	-0.195221	-0.298451	6.39635	-6.36445	-0.829482	0.191402	-0.0640316	-0.00472671	-0.361816	1.01099	0.203369	0.620739	-0.707854	-0.268283	-0.204084	6.06895	-6.93077	-1.62832	0.00530921	0.0597529	-0.0765693	-0.32666	1.00244	0.169678	0.306144	-0.0539121	-0.0986807	-0.945321	2.39424	1.55838	9.83268	-0.0832698	0.0160394	0.0147298	-0.528076	0.118408	-0.921631	0.158453	-0.675374	-0.318785	-0.645862	9.53086	1.87305	-0.990189	0.000920406	0.0337735	-0.0635474	-1.03735	0.114502	0.473877	
20	0.96637	-0.236027	0.0163051	0.100771	-1.21016	-5.01055	9.5651	0.139027	0.0432604	-0.0831144	0.644775	0.35498	-0.895996	0.600197	-0.746767	-0.278502	-0.0673739	4.1679	-8.24164	-2.70816	0.0817084	0.0299149	0.0169765	0.100342	0.984375	0.252686	0.80313	-0.163673	0.545542	0.174865	-8.94749	-1.69967	3.71944	0.105021	0.0304794	0.0164192	0.994385	-0.189453	-0.00439453	0.656859	0.398205	0.561095	-0.308452	-9.39514	1.86397	0.912648	0.029776	-0.0199523	-0.0562137	1.01074	0.304688	0.105225	0.132213	-0.694459	-0.0959181	-0.700747	9.41496	-0.484184	-0.213917	0.412365	0.0883751	0.0707037	-0.993652	0.224609	0.46167	-0.280397	-0.486308	0.553488	-0.61525	9.45689	-1.58797	1.75086	0.009952	0.0343831	0.016531	-1.11646	-0.21167	0.259521	0.453648	-0.81929	-0.348634	0.0377153	2.27125	-6.73428	-4.89259	0.113205	-0.0169626	0.00139893	0.119629	0.991455	0.416748	0.607959	-0.709399	-0.196523	-0.297518	6.46128	-6.00353	-0.747597	0.226278	-0.0340128	-0.0237131	-0.361328	1.00464	0.19873	0.621888	-0.706608	-0.268573	-0.204521	5.9777	-7.46237	-1.55455	0.127531	0.063829	-0.064039	-0.331543	1.00928	0.162842	0.306144	-0.0539121	-0.0986807	-0.945321	2.39424	1.55838	9.83268	-0.0832698	0.0160394	0.0147298	-0.528076	0.118408	-0.921631	0.158381	-0.67402	-0.32194	-0.64573	9.7208	2.21303	-1.00355	0.126926	0.0100915	-0.115081	-1.04614	0.109863	0.478516	
21	0.966815	-0.234319	0.0166497	0.10043	-0.985892	-4.92869	9.56257	0.146715	0.00825869	-0.0254449	0.647217	0.352783	-0.898193	0.601372	-0.746111	-0.277844	-0.066877	4.60772	-8.12434	-2.3595	0.0335395	0.0407629	0.0282323	0.0979004	0.990723	0.254883	0.803147	-0.164574	0.544653	0.176703	-8.79598	-1.70542	4.39611	-0.159816	-0.0495228	0.0655305	0.992432	-0.193848	-0.00195312	0.657106	0.39742	0.561372	-0.308433	-9.35942	1.81655	0.919327	-0.0652406	-0.00880302	-0.0300115	1.01758	0.304932	0.107422	0.133382	-0.694263	-0.096899	-0.700585	9.76065	0.0314231	0.432684	0.121647	0.00961251	-0.000116031	-0.993408	0.220215	0.459473	-0.280245	-0.485649	0.553012	-0.616267	9.64694	-1.96457	2.40945	0.132418	0.0469613	0.00650089	-1.12305	-0.20752	0.259277	0.454501	-0.818751	-0.3488	0.0376011	2.45256	-6.90456	-5.35675	0.0769211	0.0458012	-0.0295216	0.130127	0.99585	0.418701	0.60747	-0.710199	-0.197455	-0.295988	6.99623	-6.35612	-0.727252	-0.0800335	-0.0699494	0.0222297	-0.359375	1.00903	0.19873	0.621907	-0.706703	-0.267448	-0.205605	6.46821	-6.73991	-1.26875	-0.152899	0.0751139	0.0141995	-0.327148	1.01392	0.162842	0.306144	-0.0539121	-0.0986807	-0.945321	2.39424	1.55838	9.83268	-0.0832698	0.0160394	0.0147298	-0.528076	0.118408	-0.921631	0.158566	-0.673774	-0.322856	-0.645484	9.69142	2.32748	-1.09469	0.0682975	0.00177202	-0.0481546	-1.0437	0.105469	0.476318	
22	0.967885	-0.229883	0.0178752	0.100167	-1.07255	-4.39905	9.52322	0.190326	0.0154132	-0.000507508	0.647461	0.346436	-0.898193	0.603462	-0.744472	-0.277962	-0.0658107	4.43935	-8.12715	-2.7126	0.101191	-0.00529723	-0.0210193	0.0979004	0.990723	0.240723	0.803324	-0.162214	0.54453	0.17845	-9.12734	-1.50638	4.10578	0.110642	-0.0302179	0.128805	0.990234	-0.197998	-0.0109863	0.656747	0.397339	0.562422	-0.307387	-9.53512	1.78978	1.06039	0.00528504	0.0978637	0.0104896	1.01318	0.302734	0.105225	0.133376	-0.694443	-0.0963882	-0.700478	9.78985	-0.182986	0.367028	-0.057727	0.0325304	0.0305586	-0.987061	0.222412	0.457275	-0.281089	-0.485253	0.551745	-0.61733	9.20586	-2.07952	2.15292	0.0204537	0.0761792	-0.0565285	-1.11841	-0.216064	0.257568	0.455197	-0.818149	-0.349332	0.0373421	2.40069	-6.99115	-5.23682	0.00561852	-0.00183639	-0.0726031	0.123535	0.99585	0.414307	0.605434	-0.7119	-0.19683	-0.29649	6.60272	-7.1885	-0.610626	-0.0780643	0.00667097	-0.0329885	-0.359375	1.00659	0.212646	0.622491	-0.706462	-0.266529	-0.205861	6.26238	-6.71486	-0.847331	0.0746099	0.0328292	0.00258574	-0.326904	1.00928	0.171875	0.306144	-0.0539121	-0.0986807	-0.945321	2.39424	1.55838	9.83268	-0.0832698	0.0160394	0.0147298	-0.528076	0.118408	-0.921631	0.158114	-0.673467	-0.324079	-0.645303	9.34632	2.1775	-1.49925	0.05539	0.00350296	-0.0757283	-1.04858	0.109863	0.47168	
23	0.968299	-0.227531	0.0185739	0.101395	-1.3974	-5.20041	9.47152	0.110211	-0.0252393	0.0294142	0.641602	0.333252	-0.900146	0.604442	-0.743944	-0.277348	-0.065382	4.47048	-8.49577	-2.42047	0.0329974	0.0243068	0.014485	0.100098	0.988525	0.240723	0.802522	-0.162285	0.544132	0.183145	-9.08493	-1.71285	4.44824	-0.212881	-0.00821452	0.191041	0.990479	-0.20459	-0.00854492	0.656048	0.395741	0.566495	-0.303434	-9.69044	2.53594	1.01666	-0.269853	0.208372	-0.00541487	1.01318	0.300293	0.116211	0.139949	-0.693583	-0.101423	-0.699335	10.0113	-1.03224	-0.0491602	0.331893	-0.0047881	0.0415336	-0.987793	0.237793	0.447998	-0.28144	-0.486289	0.547692	-0.619959	9.88944	-1.73382	2.7173	0.162762	0.0919878	-0.0888498	-1.11646	-0.209473	0.250732	0.453201	-0.819114	-0.349686	0.0371457	2.27904	-7.51254	-5.04616	-0.100918	-0.0288501	-0.0236637	0.119385	0.99585	0.422852	0.606924	-0.710133	-0.196492	-0.297902	6.86395	-6.98963	-0.530711	0.0881256	0.138448	-0.0485202	-0.363525	1.00464	0.19873	0.620942	-0.708231	-0.265395	-0.205925	6.07672	-7.98885	-1.30159	-0.0437712	-0.00476004	0.00358586	-0.324707	1.01147	0.167236	0.306144	-0.0539121	-0.0986807	-0.945321	2.39424	1.55838	9.83268	-0.0832698	0.0160394	0.0147298	-0.528076	0.118408	-0.921631	0.16016	-0.673414	-0.325763	-0.644004	9.20614	2.40405	-0.953883	0.119006	-0.0255833	0.0675868	-1.04419	0.112305	0.473877	
24	0.968487	-0.227085	0.0191062	0.100501	-1.18363	-4.75145	9.51817	-0.0220596	0.0531972	-0.0460676	0.650391	0.335449	-0.902344	0.606377	-0.742999	-0.275587	-0.0656594	3.78725	-8.66577	-2.85602	0.0775963	0.00596252	0.0141621	0.102295	0.990723	0.238281	0.800437	-0.160133	0.546761	0.18631	-9.31566	-1.02116	4.45976	0.0262381	0.124723	0.202862	0.988525	-0.210938	-0.00366211	0.652916	0.394625	0.572438	-0.300476	-9.85675	2.4865	0.33058	-0.0459003	0.28846	-0.110601	1.01294	0.304688	0.131592	0.144687	-0.692978	-0.10451	-0.698516	9.9301	0.622689	-0.506633	-0.0250318	0.0127404	0.0580823	-0.983398	0.23999	0.445801	-0.281173	-0.486953	0.546108	-0.620954	9.78934	-1.72137	2.8157	0.0752457	-0.00327316	-0.0161436	-1.11646	-0.21167	0.255127	0.451836	-0.81998	-0.349495	0.0364841	1.86322	-7.5384	-6.02449	0.0184849	0.00144002	-0.00899511	0.119385	0.993652	0.427246	0.6055	-0.711184	-0.194321	-0.29971	6.33328	-7.22379	-1.01091	-0.134507	0.080744	0.0228902	-0.359375	1.00464	0.203369	0.619712	-0.709368	-0.265133	-0.206055	6.06283	-7.16563	-1.53536	-0.133191	0.0099312	-0.000550476	-0.329102	1.00684	0.17627	0.350632	0.0188666	-0.079922	-0.932906	1.85307	1.66895	10.2006	0.00600654	0.0576897	0.0291889	-0.408447	0.137451	-0.98584	0.15948	-0.673064	-0.325458	-0.644693	10.2719	2.30523	-1.32133	-0.0841709	0.0408361	-0.00250383	-1.03735	0.114502	0.471436	
25	0.968433	-0.227813	0.0202563	0.0991348	-1.32525	-5.04991	9.56143	-0.00525566	0.049328	-0.0372801	0.652588	0.335693	-0.902344	0.608559	-0.741386	-0.275355	-0.0646714	4.16837	-8.20244	-2.69475	0.108313	-0.00635845	-0.00277622	0.104492	0.990723	0.231201	0.796903	-0.159213	0.551297	0.188858	-9.00322	-0.897449	3.97301	-0.00652903	0.220507	0.138823	0.984375	-0.221924	0.00561523	0.648533	0.39204	0.580477	-0.29792	-9.68277	1.97439	-0.643162	-0.186723	0.325704	-0.184031	1.01245	0.31543	0.146729	0.146482	-0.693061	-0.105627	-0.697892	9.91179	-0.607206	0.439402	0.177463	0.00632569	0.0113706	-0.98584	0.246582	0.450439	-0.278933	-0.48829	0.545117	-0.621785	9.48743	-1.86617	2.5718	0.0662392	-0.0591139	0.00130087	-1.11206	-0.213867	0.255127	0.45181	-0.81948	-0.350491	0.0384259	2.44373	-6.97459	-5.36652	0.00328281	-0.0592312	-0.0132798	0.117188	0.993652	0.423096	0.606049	-0.710699	-0.194471	-0.299654	6.27302	-7.17074	-0.512046	0.0700907	-0.0129655	-0.0135756	-0.365723	1.00244	0.208252	0.619886	-0.70917	-0.26535	-0.205935	5.89731	-7.30104	-1.47071	0.122173	-0.00507173	-0.0323819	-0.331543	1.00684	0.171875	0.349034	0.0205403	-0.0823537	-0.933258	1.48881	1.67545	10.2499	0.113193	0.0363173	-0.0669296	-0.40332	0.124268	-0.987793	0.159862	-0.673733	-0.32309	-0.64509	9.53177	1.56715	-1.43589	-0.000710325	0.0367185	0.0430157	-1.04639	0.112061	0.469238	
26	0.968533	-0.227138	0.0207093	0.0996122	-1.41589	-5.27837	9.66167	0.0514565	-0.0259506	0.0238674	0.652588	0.333496	-0.900146	0.609619	-0.740781	-0.274559	-0.065003	4.38394	-8.35239	-2.37968	0.0409853	0.0501498	0.00270682	0.100098	0.990723	0.229004	0.793095	-0.160409	0.555773	0.190748	-9.07671	-1.40888	3.72602	-0.0361051	0.220116	0.0963755	0.993164	-0.224121	0.0217285	0.644677	0.388873	0.585666	-0.300273	-9.64108	1.29412	-0.813913	0.0115819	0.107626	-0.267031	1.00781	0.322021	0.151123	0.151883	-0.691975	-0.10924	-0.697258	9.79168	-0.250003	-0.145909	0.236285	0.0145833	0.0324281	-0.986328	0.255371	0.445801	-0.277876	-0.489353	0.545143	-0.6214	9.40459	-1.74172	2.43443	0.0391777	-0.103063	-0.0108066	-1.1167	-0.205322	0.25708	0.451773	-0.819849	-0.349654	0.0386011	2.40597	-7.30808	-5.36547	0.0309133	-0.00104683	0.0250698	0.123779	0.991455	0.425049	0.609301	-0.708392	-0.194834	-0.298282	6.80736	-6.7365	-0.821329	0.159566	0.0413415	0.0204909	-0.359375	1.00684	0.196289	0.619292	-0.709886	-0.264721	-0.206064	6.12847	-8.09081	-1.45971	-0.00745594	0.0141845	-0.00524468	-0.327148	1.01367	0.174072	0.348778	0.0210236	-0.0824062	-0.933339	1.40186	1.61381	10.1847	0.0146649	0.0571352	-0.0223559	-0.407715	0.12207	-0.987549	0.158566	-0.673796	-0.320988	-0.646392	9.55483	1.6594	-1.0016	-0.107051	0.0366492	0.00243094	-1.03955	0.110107	0.476074	
27	0.96886	-0.22561	0.0198624	0.10008	-0.886244	-4.53474	9.50411	0.0355138	-0.0426064	0.00586504	0.654785	0.333496	-0.906494	0.610804	-0.740068	-0.27386	-0.064949	4.32395	-8.57869	-2.47259	0.0458349	0.0156255	-0.00904393	0.104492	0.988525	0.229004	0.790793	-0.160665	0.558673	0.191617	-9.38773	-0.882051	4.02939	-0.0941271	0.0982667	0.100651	0.980225	-0.232666	0.0263672	0.646019	0.382474	0.587209	-0.302586	-9.79085	0.971217	-0.242037	-0.20798	-0.152308	-0.205076	0.998291	0.334961	0.153076	0.15216	-0.692551	-0.108558	-0.696732	10.1845	-0.560503	0.61582	-0.120799	-0.0113434	0.0327547	-0.986328	0.255371	0.452637	-0.277876	-0.489353	0.545143	-0.6214	9.40459	-1.74172	2.43443	0.0391777	-0.103063	-0.0108066	-1.1167	-0.205322	0.25708	0.453115	-0.819371	-0.348933	0.0395401	2.12429	-7.35269	-5.6593	0.105876	-0.0272978	0.01106	0.128174	0.991699	0.420898	0.607741	-0.709846	-0.193242	-0.299043	6.80999	-7.11072	-0.952352	-0.142522	0.0490858	0.00432679	-0.361328	1.00464	0.194092	0.619362	-0.709809	-0.264726	-0.206112	6.37438	-7.11824	-1.54089	-0.109073	0.0281959	-0.00592677	-0.329346	1.00903	0.174072	0.350471	0.0235124	-0.0811475	-0.932755	1.13765	1.85761	10.3671	-0.0087836	0.0859025	0.0422176	-0.396729	0.124268	-0.994629	0.158935	-0.673631	-0.320889	-0.646523	9.64218	2.22252	-0.891577	-0.0317502	0.0204344	0.0111386	-1.04639	0.112061	0.469238	
28	0.96877	-0.226162	0.0216021	0.0993425	-1.25254	-4.67737	9.56984	-0.0203433	0.0966329	-0.0210131	0.652588	0.335693	-0.900146	0.611628	-0.739517	-0.273315	-0.0657547	4.16702	-8.45122	-2.28376	0.0135289	0.0605729	-0.0370415	0.102295	0.990723	0.217285	0.788969	-0.162865	0.560226	0.192741	-9.09566	-0.720693	3.55489	-0.0508716	0.104084	-0.0199345	0.986816	-0.23291	0.0356445	0.648331	0.376066	0.587809	-0.304502	-9.55051	0.951321	-0.306062	-0.167056	-0.14811	-0.159224	1.00244	0.341797	0.144287	0.153773	-0.692762	-0.10808	-0.696243	9.83917	-0.884165	0.00567113	0.108952	0.00114857	0.0468439	-0.981689	0.253174	0.450439	-0.277876	-0.489353	0.545143	-0.6214	9.40459	-1.74172	2.43443	0.0391777	-0.103063	-0.0108066	-1.1167	-0.205322	0.25708	0.453898	-0.818954	-0.34882	0.0401895	2.54412	-7.0537	-5.35217	0.098245	-0.00589297	-0.00101332	0.125732	0.99585	0.414307	0.609033	-0.708807	-0.193368	-0.298797	6.46203	-6.71458	-0.629524	0.133522	0.0134923	0.0186756	-0.352783	1.00684	0.200928	0.620156	-0.709239	-0.264392	-0.206116	6.14773	-6.84248	-1.27768	0.0480651	0.0306311	-0.00106013	-0.319824	1.00708	0.171875	0.350471	0.0235124	-0.0811475	-0.932755	1.13765	1.85761	10.3671	-0.0087836	0.0859025	0.0422176	-0.396729	0.124268	-0.994629	0.159049	-0.673555	-0.320637	-0.646698	9.79639	2.08194	-1.02166	0.0241455	0.014592	0.0266989	-1.04395	0.110107	0.476074	
29	0.968602	-0.227665	0.022444	0.097339	-1.51823	-4.90664	9.63703	-0.0429699	0.0333959	-0.10972	0.65625	0.346436	-0.900146	0.611333	-0.739386	-0.274189	-0.0663432	4.30722	-8.36225	-2.25225	-0.0173429	-0.000999359	-0.0416836	0.104492	0.990723	0.226562	0.788016	-0.164803	0.559817	0.196154	-9.14932	-0.978131	3.80848	-0.162794	0.0119435	0.0810309	0.991211	-0.237305	0.03125	0.650388	0.371206	0.58815	-0.30542	-9.36218	0.484517	0.639321	-0.101138	-0.052584	-0.0869507	1.0022	0.348389	0.141846	0.15626	-0.692534	-0.110152	-0.69559	9.88215	-1.03087	0.0527158	0.143397	-0.0178356	0.00494341	-0.984131	0.257568	0.438965	-0.277876	-0.489353	0.545143	-0.6214	9.40459	-1.74172	2.43443	0.0391777	-0.103063	-0.0108066	-1.1167	-0.205322	0.25708	0.454332	-0.818855	-0.348503	0.0400509	2.16382	-7.30414	-5.23428	0.00808409	-0.0385388	-0.0226235	0.123779	0.991699	0.416748	0.609584	-0.708347	-0.192585	-0.299271	6.64133	-6.78057	-0.467932	-0.0261225	0.0901788	-0.0141113	-0.361328	1.00464	0.194092	0.620686	-0.709236	-0.263552	-0.205603	6.07901	-7.56053	-1.3081	0.0859947	0.0091779	0.0159139	-0.327148	1.01611	0.169434	0.351535	0.0263272	-0.0817038	-0.932231	1.24328	1.93369	10.2239	0.0298001	0.0567158	0.0197126	-0.391846	0.11792	-0.994385	0.160045	-0.673784	-0.319748	-0.646654	9.44756	2.16587	-1.1587	0.0199679	0.0228391	0.0559683	-1.04883	0.118896	0.466797	
30	0.968596	-0.228297	0.0223282	0.0959324	-1.50511	-4.59922	9.72876	-0.0439469	0.0109077	-0.116057	0.652344	0.339844	-0.897949	0.611236	-0.739413	-0.274244	-0.0666958	4.2338	-8.40362	-2.34182	-0.0182792	0.0288858	-0.0368789	0.0979004	0.99292	0.22876	0.787772	-0.164746	0.560047	0.196525	-9.26649	-1.11085	3.47978	-0.00808212	0.0282502	0.0466114	0.986816	-0.235107	0.0334473	0.650007	0.371178	0.588417	-0.305749	-9.45757	0.679366	0.486589	0.0110063	0.0286894	-0.0320619	1.0022	0.343994	0.137451	0.157514	-0.692596	-0.110288	-0.695224	9.75735	-0.524034	0.180918	0.0777494	-0.00607575	0.0563545	-0.97998	0.261963	0.447998	-0.277876	-0.489353	0.545143	-0.6214	9.40459	-1.74172	2.43443	0.0391777	-0.103063	-0.0108066	-1.1167	-0.205322	0.25708	0.454279	-0.818875	-0.34849	0.0403674	2.25932	-7.22874	-5.48988	0.0178516	-0.00976611	-0.00399801	0.130371	0.991699	0.420898	0.609699	-0.708247	-0.191892	-0.299718	6.66078	-7.08538	-0.708961	-0.00838506	0.0803388	0.00477762	-0.357178	1.00684	0.196289	0.620832	-0.709308	-0.263274	-0.205272	6.27503	-7.03728	-1.28544	0.0116584	0.00569971	0.0182847	-0.324707	1.01147	0.174072	0.351535	0.0263272	-0.0817038	-0.932231	1.24328	1.93369	10.2239	0.0298001	0.0567158	0.0197126	-0.391846	0.11792	-0.994385	0.160883	-0.673927	-0.319185	-0.646576	9.5637	1.92954	-1.24377	0.0170149	0.025345	0.0730783	-1.04907	0.123291	0.466797	
31	0.968495	-0.229095	0.0218822	0.0951578	-1.17454	-5.01014	9.79445	-0.00694073	-0.0191498	-0.0178655	0.651855	0.346436	-0.893799	0.610773	-0.739525	-0.274874	-0.0671073	4.20965	-8.53126	-2.38753	-0.0193371	0.0144385	-0.0417183	0.0957031	0.988525	0.233643	0.788646	-0.160184	0.560701	0.194918	-9.59948	-0.51695	3.92131	0.275853	-0.0112974	0.064545	0.987061	-0.241455	0.03125	0.647145	0.374349	0.589571	-0.305733	-9.75678	0.826773	0.234825	0.11392	0.174005	0.0492876	0.997803	0.346191	0.14624	0.159157	-0.693009	-0.11091	-0.694339	10.3414	-0.625528	-0.00264669	0.120463	-0.0330902	0.0129894	-0.984375	0.261963	0.443359	-0.277876	-0.489353	0.545143	-0.6214	9.40459	-1.74172	2.43443	0.0391777	-0.103063	-0.0108066	-1.1167	-0.205322	0.25708	0.453784	-0.818695	-0.349248	0.0429292	2.0837	-7.4065	-5.65226	0.0212653	-0.0931038	0.0276272	0.130127	0.99585	0.418701	0.60958	-0.70835	-0.19078	-0.300427	6.49433	-7.48177	-0.679446	-0.0333774	0.0732888	0.000742423	-0.355225	1.00903	0.196289	0.619772	-0.710467	-0.262523	-0.205428	5.99299	-7.91589	-1.55037	-0.00259781	0.00787199	-0.015583	-0.32251	1.01147	0.17627	0.350905	0.0281035	-0.085399	-0.932085	1.38645	1.8629	10.2136	0.108325	0.0165351	-0.0148993	-0.398438	0.113281	-0.996582	0.162581	-0.673942	-0.317926	-0.646755	9.8746	1.9655	-1.49971	0.0142782	0.0536848	0.0504104	-1.04224	0.121094	0.466797	
32	0.96832	-0.22964	0.0217406	0.0956469	-1.31429	-5.31894	9.7998	-0.0320453	-0.0332608	0.0127398	0.654053	0.346436	-0.900146	0.609743	-0.740184	-0.275079	-0.0683636	4.4625	-8.86301	-2.29238	-0.0580625	0.0541846	-0.0544597	0.0979004	0.990723	0.231201	0.789547	-0.159766	0.559489	0.195096	-9.4631	-1.02911	3.83956	-0.0499762	-0.055667	-0.0211755	0.987061	-0.243652	0.0268555	0.643369	0.380295	0.591182	-0.303242	-9.93971	0.506788	-0.919599	0.171314	0.252678	0.163911	1.00024	0.339355	0.157471	0.160609	-0.693054	-0.113649	-0.693516	9.66832	-0.705267	-0.153792	0.0727379	-0.0412185	-0.0687152	-0.984375	0.261963	0.447998	-0.277876	-0.489353	0.545143	-0.6214	9.40459	-1.74172	2.43443	0.0391777	-0.103063	-0.0108066	-1.1167	-0.205322	0.25708	0.449921	-0.820136	-0.350405	0.0465251	2.45556	-7.91035	-5.48388	-0.0568214	-0.155438	0.0259519	0.136719	0.991699	0.420898	0.608938	-0.709216	-0.189472	-0.300511	6.41169	-6.86992	-0.759471	-0.0320376	0.0205878	0.0178732	-0.359375	1.00903	0.203369	0.617993	-0.712113	-0.261461	-0.206442	6.07114	-7.59879	-1.69612	-0.136817	0.0424968	-0.00257857	-0.32251	1.01147	0.180664	0.349746	0.0280864	-0.0887138	-0.932212	0.930118	1.60749	10.1823	0.112544	-0.0387695	-0.0603601	-0.395752	0.102539	-0.996338	0.159508	-0.674863	-0.312751	-0.64908	9.62072	1.77007	-1.05418	-0.34572	0.0362312	0.0264556	-1.04443	0.118896	0.466797	
33	0.968889	-0.227878	0.0211125	0.0942298	-0.978717	-5.14682	9.61194	0.104214	-0.0201278	-0.0880331	0.647461	0.346436	-0.900146	0.60973	-0.740206	-0.274798	-0.0693565	4.19941	-8.50345	-2.2057	-0.0115956	0.0249094	-0.0333522	0.0957031	0.988525	0.233643	0.79228	-0.153064	0.559405	0.189552	-9.23676	-0.626961	3.92776	0.392332	-0.0769421	-0.0285919	0.986816	-0.235107	0.0334473	0.639483	0.389924	0.588767	-0.30393	-9.64103	1.5153	-0.363143	0.373739	0.129933	0.202444	1.00708	0.337158	0.159668	0.162926	-0.692467	-0.117494	-0.692921	9.70726	-0.849334	0.276793	0.137295	0.015025	-0.033926	-0.982422	0.268555	0.445801	-0.277876	-0.489353	0.545143	-0.6214	9.40459	-1.74172	2.43443	0.0391777	-0.103063	-0.0108066	-1.1167	-0.205322	0.25708	0.449688	-0.820125	-0.350594	0.0475349	2.20168	-7.42925	-5.30747	0.0237635	0.0161227	-0.0207484	0.134521	0.993896	0.418701	0.607666	-0.710239	-0.189673	-0.300544	6.53344	-7.21582	-0.522907	-0.0471179	-0.00734333	-0.0374339	-0.35498	1.00464	0.203369	0.618466	-0.711729	-0.261288	-0.206568	6.03657	-7.52824	-1.48963	0.0455137	0.0405159	-0.0145851	-0.317871	1.01147	0.180664	0.348884	0.0281888	-0.0905342	-0.932357	1.01592	1.71945	10.6457	0.136602	-0.0246553	-0.063088	-0.395508	0.0981445	-0.993896	0.158188	-0.676037	-0.309337	-0.649816	9.92638	1.11808	-0.842091	-0.0808483	-0.00688646	0.0683567	-1.05078	0.112061	0.467041	
34	0.969748	-0.225573	0.0214162	0.0908142	-1.07403	-4.65711	9.4766	0.104481	0.0383767	-0.152636	0.647217	0.35083	-0.898193	0.609478	-0.740222	-0.275007	-0.0705622	4.21226	-8.34868	-2.17054	-0.00996802	0.0213245	-0.0650483	0.0913086	0.990723	0.236084	0.793994	-0.151432	0.558463	0.186442	-9.09223	-0.722848	3.8553	0.0379948	-0.0602464	-0.0661932	0.989014	-0.235107	0.0288086	0.637472	0.395779	0.587602	-0.30284	-9.56986	1.87543	-0.282695	0.0764585	0.0955415	0.137797	0.998535	0.328369	0.159912	0.162059	-0.693085	-0.115116	-0.692906	9.94932	-0.934607	0.131175	-0.115826	0.01511	0.0339996	-0.984619	0.268555	0.445801	-0.264719	-0.504009	0.544829	-0.615678	9.64935	-1.90009	2.12227	-0.0246059	0.0105931	-0.0162627	-1.11011	-0.200684	0.310547	0.449703	-0.820078	-0.350782	0.0468172	2.18109	-7.28403	-5.34126	-0.0172619	0.0367532	-0.0478654	0.132568	0.991699	0.420898	0.610225	-0.708111	-0.190273	-0.3	6.6271	-7.02034	-0.483029	0.160039	0.0505081	0.00418682	-0.350586	1.00244	0.194092	0.619979	-0.710605	-0.261006	-0.206256	5.98492	-7.63056	-1.24851	0.0865716	0.00682618	-0.00728869	-0.31543	1.01147	0.180664	0.349289	0.0289313	-0.0892135	-0.93231	1.07866	1.71884	10.3806	-0.173572	0.0789318	0.0639978	-0.395752	0.102539	-0.989502	0.15434	-0.67644	-0.307237	-0.651317	9.68589	1.37957	-0.860564	-0.204541	0.0169417	-0.10196	-1.04395	0.110107	0.476074	
35	0.970399	-0.224566	0.0219861	0.0860942	-0.802617	-4.30669	9.58474	0.0370496	0.0687613	-0.182995	0.649414	0.352783	-0.895996	0.608963	-0.740415	-0.275315	-0.0717725	4.38617	-8.3895	-2.32242	-0.0608156	0.0350468	-0.0461438	0.0915527	0.986328	0.240967	0.795311	-0.150255	0.557627	0.184274	-9.16286	-0.912643	4.23859	0.182806	-0.0242045	-0.0319084	0.989014	-0.23291	0.0332031	0.636	0.400086	0.587121	-0.301205	-9.61399	1.90164	0.018704	0.108175	0.113972	0.148256	1.00317	0.323975	0.166504	0.161969	-0.693469	-0.114512	-0.692643	9.8079	-0.473351	0.0136088	-0.030115	-0.0108129	0.0215731	-0.982666	0.272949	0.447998	-0.26499	-0.504138	0.545289	-0.615049	9.51744	-1.80352	2.04695	-0.0524833	-0.00331094	-0.0143113	-1.10596	-0.200684	0.304199	0.449417	-0.820091	-0.351126	0.0467583	2.22555	-7.26067	-5.26324	-0.00122985	-0.0248389	-0.0067072	0.136719	0.993896	0.425049	0.610245	-0.708203	-0.18972	-0.300093	6.66188	-7.32716	-0.550385	-0.0158926	0.0226049	-0.000866373	-0.359375	1.00464	0.196533	0.620188	-0.710397	-0.261318	-0.205949	6.13061	-7.72788	-1.48415	0.00092141	-0.00295021	-0.026748	-0.312988	1.00928	0.178467	0.349289	0.0289313	-0.0892135	-0.93231	1.07866	1.71884	10.3806	-0.173572	0.0789318	0.0639978	-0.395752	0.102539	-0.989502	0.153594	-0.67614	-0.308346	-0.651281	9.65292	2.29341	-1.13193	0.0525121	-0.000295843	-0.0241138	-1.0459	0.103271	0.47168	
36	0.970587	-0.225155	0.0235202	0.0819364	-1.47364	-4.66217	9.59029	-0.0162971	0.0743822	-0.150007	0.653564	0.359375	-0.893799	0.607702	-0.741406	-0.274996	-0.0734331	4.24327	-8.19862	-2.18184	-0.0983209	0.0692161	-0.0347356	0.0915527	0.984131	0.240967	0.795878	-0.149364	0.557766	0.182114	-8.90452	-0.605213	4.06857	0.042809	0.0261717	-0.0645455	0.984619	-0.228516	0.0285645	0.633422	0.404686	0.589105	-0.296584	-9.34768	1.79918	-0.554116	0.0215284	0.281335	0.165064	0.999268	0.315186	0.177734	0.161389	-0.693949	-0.113478	-0.692467	9.71493	-0.769279	0.307441	-0.013934	-0.0208398	-0.025289	-0.984619	0.268555	0.450439	-0.264866	-0.504429	0.545039	-0.615085	9.81986	-1.93954	2.21821	0.0154891	-0.00217002	-0.0241798	-1.09937	-0.19873	0.30835	0.449495	-0.820252	-0.350644	0.0467983	2.33763	-7.18341	-5.41231	0.0157748	0.0290963	0.019314	0.134766	0.987305	0.425293	0.609842	-0.708709	-0.190172	-0.299431	6.44155	-6.79456	-0.487004	-0.0243069	-0.0195274	-0.00387937	-0.355225	1.01123	0.200928	0.620084	-0.710409	-0.261538	-0.205947	5.98914	-7.25804	-1.41443	0.0029153	-0.00513442	-0.0324474	-0.324951	1.01367	0.17627	0.349289	0.0289313	-0.0892135	-0.93231	1.07866	1.71884	10.3806	-0.173572	0.0789318	0.0639978	-0.395752	0.102539	-0.989502	0.153677	-0.67612	-0.308389	-0.651261	9.83298	2.04155	-0.956027	0.0467235	0.00681749	0.0132631	-1.04614	0.105469	0.47168	
37	0.971077	-0.22484	0.0239451	0.0767025	-1.2417	-4.80762	9.65604	0.0384444	0.0497768	-0.226144	0.651367	0.359375	-0.895996	0.605021	-0.743263	-0.275651	-0.0743465	4.46168	-8.3717	-2.2438	-0.120652	-0.022506	-0.0332739	0.0915527	0.986328	0.240967	0.79612	-0.148341	0.55831	0.180215	-9.17614	-0.753071	4.20543	0.0927644	0.0315402	-0.0329093	0.990967	-0.226318	0.0332031	0.629396	0.409616	0.592271	-0.292045	-9.49131	1.99075	-0.606896	-0.00104553	0.337565	0.135697	1.0061	0.30835	0.195312	0.160415	-0.6944	-0.113046	-0.692312	9.57191	-1.0444	-0.212018	-0.0181533	-0.00128891	-0.0287556	-0.980225	0.270752	0.441162	-0.264013	-0.505948	0.544848	-0.614373	9.3169	-1.83298	1.94586	0.0203463	-0.0485313	-0.0217275	-1.10571	-0.202881	0.312744	0.447099	-0.821691	-0.350081	0.0486768	2.26119	-7.35628	-5.2948	-0.0453773	-0.0582581	0.0221904	0.141113	0.989502	0.418945	0.607679	-0.710528	-0.189674	-0.299833	6.79475	-6.877	-0.522167	-0.117851	0.00306998	-0.0287006	-0.357422	1.01099	0.205566	0.618941	-0.711482	-0.261966	-0.205131	6.25183	-7.26845	-1.25889	-0.0440143	-0.0474424	-0.00413603	-0.320312	1.01611	0.17627	0.349289	0.0289313	-0.0892135	-0.93231	1.07866	1.71884	10.3806	-0.173572	0.0789318	0.0639978	-0.395752	0.102539	-0.989502	0.153505	-0.676534	-0.307515	-0.651285	9.65588	1.81632	-0.850131	-0.0570652	0.00197118	0.0134941	-1.04834	0.107666	0.473877	
38	0.971426	-0.224218	0.0238649	0.0740767	-1.10554	-4.72284	9.71069	0.0619906	0.0265274	-0.209965	0.648926	0.361572	-0.895996	0.604595	-0.743679	-0.275391	-0.0746126	4.40046	-8.62367	-2.38716	-0.0578859	0.0296792	-0.0070209	0.0871582	0.984131	0.250488	0.796236	-0.148499	0.558487	0.179022	-9.05793	-1.09511	4.16462	0.0503608	0.0306612	-0.0703738	0.98877	-0.224121	0.0285645	0.627919	0.411642	0.593794	-0.289269	-9.68914	1.8146	-1.11659	-0.0236917	0.28971	0.153458	0.997314	0.306152	0.199951	0.161034	-0.694516	-0.115032	-0.691725	9.71464	-1.54007	0.00842538	0.146095	-0.0507704	-0.0788279	-0.97583	0.266357	0.450439	-0.263382	-0.506446	0.544704	-0.614361	9.61829	-1.58392	1.73567	0.0329844	-0.0379533	-0.00493186	-1.10156	-0.200684	0.317139	0.446835	-0.821854	-0.349939	0.0493629	2.21105	-7.47989	-5.61344	0.00890554	-0.0348011	0.0220933	0.143311	0.989502	0.423096	0.607264	-0.710776	-0.189453	-0.300224	6.68871	-7.30141	-0.849743	-0.0426765	0.037558	-0.0267246	-0.355225	1.01099	0.208008	0.618962	-0.711448	-0.262487	-0.204521	6.11139	-7.73476	-1.52215	0.0289881	-0.0508507	-0.0179313	-0.317871	1.01611	0.174072	0.349289	0.0289313	-0.0892135	-0.93231	1.07866	1.71884	10.3806	-0.173572	0.0789318	0.0639978	-0.395752	0.102539	-0.989502	0.154074	-0.676589	-0.308082	-0.650826	9.78323	1.50598	-0.910413	0.0727354	-0.0116546	0.00110304	-1.0459	0.103271	0.47168	
39	0.972025	-0.22243	0.0244766	0.0713598	-1.25451	-4.60881	9.73159	0.082911	0.0342164	-0.0702843	0.651123	0.36377	-0.891846	0.603389	-0.744448	-0.276066	-0.0742012	4.65748	-8.3689	-2.52663	-0.0669017	-0.00911739	-0.0255025	0.09375	0.986328	0.250244	0.796514	-0.148254	0.558392	0.178283	-9.18002	-1.21503	3.94261	0.0551521	-0.003457	-0.0293801	0.984619	-0.226318	0.0263672	0.626458	0.414669	0.594436	-0.286786	-9.90952	2.21883	-0.712726	0.00259858	0.094265	0.0872494	0.997559	0.301758	0.199951	0.16145	-0.694776	-0.114907	-0.691387	10.0474	-0.285724	0.552381	-0.110139	0.0314983	0.0415659	-0.980225	0.266357	0.452637	-0.264857	-0.506219	0.544632	-0.613978	9.58116	-2.08539	2.14529	-0.0507819	0.0602375	-0.0679133	-1.09912	-0.205078	0.310791	0.445408	-0.822398	-0.350388	0.0500113	2.28193	-7.31257	-5.41513	-0.0389986	-0.0375037	-0.0163827	0.143066	0.996094	0.425049	0.607567	-0.710547	-0.189425	-0.300173	6.53525	-6.7612	-0.843159	0.0312969	0.00603523	-0.0116641	-0.353027	1.01123	0.205566	0.618143	-0.712439	-0.262395	-0.203666	6.07531	-7.70863	-1.63631	-0.0957538	-0.019749	0.0213715	-0.319824	1.00464	0.180908	0.349289	0.0289313	-0.0892135	-0.93231	1.07866	1.71884	10.3806	-0.173572	0.0789318	0.0639978	-0.395752	0.102539	-0.989502	0.155024	-0.677009	-0.309326	-0.649572	9.15714	1.64368	-0.921913	0.0308305	-0.0434671	-0.00326449	-1.04395	0.107666	0.473877	
40	0.972248	-0.221556	0.0251112	0.0708233	-1.25471	-4.45346	9.88616	0.014313	0.0148552	0.0005174	0.651367	0.359375	-0.889648	0.602904	-0.74475	-0.276135	-0.0748629	4.3513	-8.61259	-2.62977	-0.0233713	0.017206	-0.0369836	0.0981445	0.984131	0.245605	0.797096	-0.150453	0.556542	0.179619	-9.20482	-1.4222	3.96001	-0.0921078	-0.0404398	-0.00914951	0.984375	-0.224121	0.0239258	0.627815	0.413701	0.59409	-0.285931	-9.77416	1.67957	-0.678441	-0.0471617	-0.0676374	0.0111822	1.00195	0.303955	0.204346	0.156664	-0.696462	-0.11057	-0.691499	9.81458	-0.670445	-0.395176	-0.291239	-0.0535307	-0.0308701	-0.982178	0.261963	0.457275	-0.267039	-0.505778	0.545597	-0.612538	9.62	-1.65896	2.18093	-0.144886	0.0147747	-0.029648	-1.10352	-0.205078	0.312988	0.445693	-0.822115	-0.350676	0.0501208	2.00947	-7.44366	-5.52434	0.0393954	0.0168397	-0.0322913	0.143555	0.98291	0.425293	0.607625	-0.710344	-0.189887	-0.300244	6.72606	-7.03987	-0.645858	-0.050365	0.0145235	-0.0293756	-0.361572	1.00684	0.208008	0.61892	-0.712014	-0.26272	-0.202369	6.16948	-7.16208	-1.32741	-0.017679	-0.0194311	0.0158312	-0.313232	1.01392	0.178467	0.349289	0.0289313	-0.0892135	-0.93231	1.07866	1.71884	10.3806	-0.173572	0.0789318	0.0639978	-0.395752	0.102539	-0.989502	0.156367	-0.676948	-0.312489	-0.647797	9.60569	1.81991	-1.17829	0.144901	-0.0494254	-0.0296086	-1.05078	0.109863	0.478516	
41	0.972103	-0.222056	0.0251427	0.0712378	-1.51049	-5.03526	9.74488	-0.00451404	-0.0219327	0.00275957	0.65332	0.361572	-0.895996	0.602652	-0.74507	-0.275668	-0.075428	4.18355	-8.43823	-2.54045	-0.024475	0.0327869	-0.0123025	0.0893555	0.984131	0.250488	0.797678	-0.150348	0.555493	0.180371	-9.19092	-0.857806	4.02437	-0.0117089	-0.0476136	0.0434668	0.98877	-0.228516	0.0263672	0.629247	0.412973	0.592782	-0.286552	-9.49688	1.99385	-0.0761355	-0.0710869	-0.0694496	0.0117477	1.0022	0.299561	0.197754	0.154109	-0.697303	-0.109517	-0.691394	9.79471	-0.309057	-0.262632	-0.211804	-0.0531132	-0.0850706	-0.975342	0.253174	0.459473	-0.267018	-0.505913	0.546714	-0.611438	9.7812	-1.97281	2.20688	-0.023479	-0.0299961	-0.00119983	-1.09692	-0.209473	0.315186	0.446773	-0.82161	-0.350494	0.0500504	1.83769	-7.36832	-5.69007	0.0779463	0.0153276	-0.020186	0.143066	0.993896	0.420898	0.606352	-0.711132	-0.189793	-0.301011	6.63902	-7.44567	-0.685863	-0.0168724	0.0112718	-0.0293512	-0.359131	1.00464	0.210449	0.618469	-0.71252	-0.262991	-0.20161	6.04664	-7.66859	-1.42099	-0.0220548	-0.0285923	-0.0117826	-0.313232	1.01392	0.178467	0.349289	0.0289313	-0.0892135	-0.93231	1.07866	1.71884	10.3806	-0.173572	0.0789318	0.0639978	-0.395752	0.102539	-0.989502	0.157245	-0.677118	-0.314621	-0.646374	9.51764	2.17042	-1.11143	0.0543698	-0.0334577	-0.0117438	-1.04419	0.112305	0.485352	
42	0.972211	-0.221679	0.0242176	0.0712593	-1.5075	-5.30696	9.65221	0.0296874	-0.0543519	-0.0126173	0.644531	0.361572	-0.89624	0.602234	-0.745474	-0.275468	-0.0754967	4.46961	-8.25419	-2.67562	-0.0380882	0.0406411	-0.00413557	0.0893555	0.986328	0.252686	0.798135	-0.150202	0.554313	0.182092	-9.36717	-1.25966	3.82715	0.0383629	-0.0565042	0.0761438	0.986572	-0.228516	0.017334	0.628998	0.413225	0.592577	-0.287158	-9.74065	1.59748	-0.214262	0.0710978	0.010327	-0.00933505	0.997803	0.295166	0.204346	0.149581	-0.698719	-0.109735	-0.690924	9.77356	-0.16128	-0.275475	-0.0995781	-0.0538532	-0.0827038	-0.977295	0.250977	0.464111	-0.266989	-0.505612	0.549021	-0.60963	9.54712	-1.64021	1.74705	-0.129237	-0.0409156	0.0385142	-1.10107	-0.209473	0.319336	0.447367	-0.82119	-0.350703	0.0501645	1.91827	-7.36263	-5.47078	0.0227628	0.0104814	-0.00856981	0.145752	0.985107	0.425293	0.607552	-0.709933	-0.19007	-0.301246	6.32067	-7.06433	-0.727369	0.0623878	0.0416373	-0.0203903	-0.357178	1.00464	0.203369	0.618261	-0.712513	-0.264047	-0.200892	5.8494	-7.44957	-1.47185	0.00583889	-0.045599	-0.0325631	-0.315186	1.00464	0.183105	0.349289	0.0289313	-0.0892135	-0.93231	1.07866	1.71884	10.3806	-0.173572	0.0789318	0.0639978	-0.395752	0.102539	-0.989502	0.156344	-0.677407	-0.314806	-0.646199	9.68988	1.76117	-1.47712	-0.00902546	-0.00559016	-0.040484	-1.04614	0.109863	0.469238	
43	0.973128	-0.218681	0.0215037	0.0688381	-1.23921	-4.82811	9.63061	0.124342	-0.111945	-0.161667	0.635742	0.361572	-0.90918	0.601542	-0.746592	-0.273514	-0.0770585	4.3209	-8.0878	-2.6975	-0.0886051	0.130161	0.0174233	0.0852051	0.984375	0.259766	0.799236	-0.149204	0.551991	0.185109	-8.91642	-0.43361	4.4244	-0.163525	-0.142959	0.099432	0.986816	-0.234863	0.010498	0.628233	0.414019	0.59352	-0.285737	-9.14566	1.50264	-0.917169	-0.040303	0.0996045	0.0532061	1	0.297363	0.202148	0.146235	-0.700568	-0.105675	-0.6904	9.97694	-0.105722	0.326532	-0.249812	-0.0390255	0.044684	-0.977051	0.242188	0.466309	-0.266989	-0.505612	0.549021	-0.60963	9.54712	-1.64021	1.74705	-0.129237	-0.0409156	0.0385142	-1.10107	-0.209473	0.319336	0.446566	-0.822259	-0.349176	0.0504432	1.83559	-7.30214	-5.54707	-0.0270245	0.0527351	0.0703115	0.149902	0.989502	0.429443	0.607321	-0.710011	-0.189953	-0.301601	6.40691	-7.06863	-0.896234	-0.0435057	0.0207289	-0.0280645	-0.359131	1.00244	0.205811	0.617292	-0.713031	-0.265114	-0.200628	6.07633	-7.42006	-1.94784	-0.0479207	-0.0296888	-0.0437445	-0.313232	1.01147	0.178467	0.349289	0.0289313	-0.0892135	-0.93231	1.07866	1.71884	10.3806	-0.173572	0.0789318	0.0639978	-0.395752	0.102539	-0.989502	0.155408	-0.677277	-0.314987	-0.646474	9.44875	2.07195	-1.26101	-0.0423268	0.0151539	-0.045169	-1.04175	0.10791	0.473877	
44	0.973837	-0.21729	0.0178218	0.0641058	-0.631285	-4.87695	9.55577	0.0517614	-0.105742	-0.229392	0.624756	0.363525	-0.906982	0.599857	-0.74811	-0.272679	-0.0784232	4.25439	-8.39944	-2.5399	-0.106162	0.0439786	-0.00413588	0.0939941	0.977783	0.262451	0.800257	-0.147837	0.550944	0.184913	-9.20952	-1.05944	3.70802	0.190859	-0.0128182	-0.0118656	0.98877	-0.230713	0.0126953	0.626085	0.418741	0.592278	-0.286147	-9.60863	1.8337	-1.14185	0.240368	0.0548003	0.0961431	1.00684	0.290771	0.206787	0.139583	-0.702797	-0.0991996	-0.690473	9.98684	-0.691636	-0.214373	-0.378481	-0.0428963	-0.0124529	-0.979004	0.239746	0.482422	-0.266989	-0.505612	0.549021	-0.60963	9.54712	-1.64021	1.74705	-0.129237	-0.0409156	0.0385142	-1.10107	-0.209473	0.319336	0.446527	-0.822675	-0.348263	0.0503304	1.97445	-7.35726	-5.64108	-0.00323451	0.0520953	0.0492947	0.149902	0.987305	0.42749	0.605528	-0.711736	-0.1905	-0.300795	6.36928	-6.87858	-0.948125	-0.0825139	-0.0806211	-0.00520691	-0.363525	1.00439	0.210449	0.616919	-0.713187	-0.265287	-0.200992	5.9802	-7.9576	-2.05453	-0.0294387	0.0106786	-0.048746	-0.313232	1.01147	0.185303	0.349289	0.0289313	-0.0892135	-0.93231	1.07866	1.71884	10.3806	-0.173572	0.0789318	0.0639978	-0.395752	0.102539	-0.989502	0.153555	-0.677338	-0.314495	-0.647091	9.71331	1.7367	-0.94855	-0.037247	-0.00546856	-0.0352526	-1.0415	0.103271	0.476318	
45	0.974405	-0.215879	0.0174045	0.0602428	-0.537408	-5.05103	9.56549	0.0834282	0.0538696	-0.125241	0.631104	0.36792	-0.90918	0.599552	-0.748377	-0.272242	-0.0797108	4.41536	-8.53596	-2.4575	-0.0197484	0.0505031	-0.0481975	0.09375	0.984375	0.266846	0.800904	-0.147351	0.55051	0.18379	-9.32209	-0.816659	3.96689	0.0856869	-0.0411839	-0.0527336	0.986572	-0.228271	0.0102539	0.62578	0.420917	0.590354	-0.287594	-9.73533	1.75805	-0.709281	0.0352606	-0.071694	0.0385005	1.00244	0.290771	0.197998	0.134831	-0.70396	-0.0933534	-0.691047	9.93414	-1.44979	0.135678	-0.252033	0.00151219	0.0376693	-0.97876	0.230957	0.47998	-0.266989	-0.505612	0.549021	-0.60963	9.54712	-1.64021	1.74705	-0.129237	-0.0409156	0.0385142	-1.10107	-0.209473	0.319336	0.446478	-0.823338	-0.346965	0.0488629	2.25186	-7.20196	-5.3754	-0.00383635	0.0964161	0.013237	0.141113	0.989502	0.425293	0.605598	-0.711984	-0.191152	-0.299651	6.54265	-6.69923	-0.748908	0.0295539	-0.0851389	0.0101095	-0.35498	1.00684	0.208008	0.617307	-0.71264	-0.265478	-0.201491	6.02869	-7.07237	-1.526	0.0328176	0.0254481	-0.0282986	-0.317871	1.01147	0.180664	0.349289	0.0289313	-0.0892135	-0.93231	1.07866	1.71884	10.3806	-0.173572	0.0789318	0.0639978	-0.395752	0.102539	-0.989502	0.15203	-0.677069	-0.315356	-0.647314	9.40788	2.14137	-1.21992	-0.0429943	-0.00439912	-0.0919772	-1.04834	0.105469	0.469482	
46	0.975458	-0.211605	0.020398	0.0573548	-0.54255	-4.4093	9.84422	0.205569	0.151148	-0.0729907	0.633545	0.361572	-0.91333	0.599452	-0.748263	-0.272733	-0.0798492	4.14227	-8.46366	-2.59839	-0.00421461	-0.00404621	-0.0558466	0.0893555	0.984375	0.271484	0.801714	-0.148402	0.549479	0.182494	-9.34542	-0.94871	3.80813	-0.00975981	-0.0262864	-0.0631069	0.986816	-0.232666	0.010498	0.627925	0.420588	0.588334	-0.287541	-9.63028	1.4974	-0.464003	-0.0592164	-0.103597	0.0684513	1	0.295166	0.197754	0.134296	-0.704257	-0.0913996	-0.69111	9.8771	-1.09982	-0.21185	-0.143511	0.0126534	0.0709594	-0.978516	0.22876	0.484619	-0.266989	-0.505612	0.549021	-0.60963	9.54712	-1.64021	1.74705	-0.129237	-0.0409156	0.0385142	-1.10107	-0.209473	0.319336	0.446655	-0.823733	-0.345978	0.0475561	2.0807	-7.17459	-5.7252	-0.0186866	0.0649688	-0.0119799	0.141113	0.989502	0.425293	0.606413	-0.711376	-0.192343	-0.298683	6.72382	-6.79439	-0.706156	0.00707406	-0.0253988	-0.0332067	-0.357178	1.00684	0.210449	0.617819	-0.712329	-0.265198	-0.201386	6.15722	-7.62816	-1.26841	0.0351474	0.0116489	-0.00760592	-0.317871	1.01611	0.17627	0.349289	0.0289313	-0.0892135	-0.93231	1.07866	1.71884	10.3806	-0.173572	0.0789318	0.0639978	-0.395752	0.102539	-0.989502	0.151036	-0.676877	-0.315878	-0.647493	9.99328	1.92819	-0.985521	-0.0282589	-0.00408825	-0.0919433	-1.04565	0.098877	0.478516	
47	0.975952	-0.209361	0.0226451	0.05633	-0.950643	-4.55236	9.9277	0.198875	0.172202	-0.0434843	0.640381	0.357178	-0.904785	0.599798	-0.747556	-0.274209	-0.0788136	4.65535	-8.42737	-2.38512	0.0362048	-0.036324	-0.051165	0.0871582	0.986572	0.259766	0.803425	-0.14955	0.546525	0.182902	-9.18859	-1.13506	4.18898	-0.0434764	-0.138301	-0.012584	0.990967	-0.228516	0.00585938	0.629609	0.420256	0.587394	-0.286261	-9.55377	1.52249	-0.212952	-0.119738	-0.0869793	0.122924	1.00269	0.286377	0.200195	0.140615	-0.702986	-0.0965074	-0.690453	10.2132	-1.07323	0.145335	0.547365	0.0246085	-0.0113422	-0.974609	0.239746	0.47998	-0.266989	-0.505612	0.549021	-0.60963	9.54712	-1.64021	1.74705	-0.129237	-0.0409156	0.0385142	-1.10107	-0.209473	0.319336	0.446855	-0.823411	-0.346498	0.0474763	2.22012	-7.39166	-5.61972	0.0502261	-0.00707845	-0.0422756	0.143311	0.989502	0.429443	0.605005	-0.71274	-0.192118	-0.29843	6.94962	-7.15015	-0.590744	-0.0370976	0.0230943	0.00528494	-0.354736	1.00244	0.210449	0.617177	-0.713024	-0.264977	-0.20119	6.21605	-7.49121	-1.37885	-0.0815233	-0.00192262	0.000755352	-0.317871	1.01367	0.180664	0.349289	0.0289313	-0.0892135	-0.93231	1.07866	1.71884	10.3806	-0.173572	0.0789318	0.0639978	-0.395752	0.102539	-0.989502	0.151234	-0.677461	-0.316503	-0.64653	9.5443	2.46896	-1.10141	-0.0334776	-0.0244432	-0.00522162	-1.04126	0.098877	0.480957	
48	0.976961	-0.204526	0.0263838	0.0549491	-1.6991	-4.36854	9.85861	0.1954	0.102177	-0.0190384	0.645264	0.348633	-0.904541	0.60033	-0.746797	-0.275118	-0.0787878	4.13138	-8.15258	-2.73354	0.0225981	-0.0024501	-0.0476451	0.0874023	0.982178	0.264648	0.805463	-0.14874	0.543984	0.182172	-8.84228	-0.846626	4.25565	0.028156	-0.116087	-0.0283994	0.990967	-0.230713	-0.00317383	0.630994	0.421941	0.586155	-0.283255	-9.22869	2.11224	-0.171726	-0.0252689	0.0356513	0.154618	1.00293	0.280029	0.195801	0.146126	-0.701956	-0.100934	-0.689723	10.0632	-0.499927	-0.126095	0.13237	0.00530732	0.0361544	-0.977295	0.248779	0.470947	-0.266989	-0.505612	0.549021	-0.60963	9.54712	-1.64021	1.74705	-0.129237	-0.0409156	0.0385142	-1.10107	-0.209473	0.319336	0.446943	-0.823519	-0.346232	0.0467235	1.85891	-7.11499	-5.47907	-0.0100562	0.0443525	-0.0176711	0.143311	0.989502	0.427246	0.605705	-0.712007	-0.192326	-0.298626	6.36946	-6.61301	-0.471295	0.0413809	0.0130435	-0.0227169	-0.352783	1.00684	0.208008	0.61726	-0.71315	-0.265272	-0.200094	6.11358	-6.84741	-1.18378	-0.000994672	-0.0362542	0.0161475	-0.312988	1.00928	0.185303	0.349289	0.0289313	-0.0892135	-0.93231	1.07866	1.71884	10.3806	-0.173572	0.0789318	0.0639978	-0.395752	0.102539	-0.989502	0.151911	-0.677799	-0.3171	-0.645723	9.76079	2.12575	-1.16361	0.085847	-0.0155774	0.0365106	-1.0415	0.105713	0.483154	
49	0.97838	-0.19809	0.027048	0.052924	-0.895616	-4.34626	9.89543	0.308802	0.0229849	-0.0847114	0.645996	0.335693	-0.915283	0.598958	-0.747249	-0.277072	-0.0780948	4.50301	-8.37813	-2.5581	-0.0449833	-0.0566573	-0.0496192	0.0871582	0.98877	0.259766	0.807034	-0.148528	0.541192	0.183703	-9.25486	-1.05693	4.24691	-0.0288286	-0.111006	0.0386021	0.99292	-0.230713	-0.0124512	0.631986	0.422426	0.586953	-0.278632	-9.74154	2.3745	-0.518962	-0.141764	0.0957138	0.116019	1.00122	0.270996	0.200439	0.150998	-0.700555	-0.103536	-0.689712	9.43074	-0.389938	-0.276209	0.192238	0.0475274	0.053498	-0.970947	0.257568	0.470947	-0.266989	-0.505612	0.549021	-0.60963	9.54712	-1.64021	1.74705	-0.129237	-0.0409156	0.0385142	-1.10107	-0.209473	0.319336	0.4459	-0.823821	-0.346928	0.0461861	2.22299	-7.39758	-5.38159	-0.0441046	-0.0340162	-0.0449439	0.141357	0.985107	0.429688	0.604406	-0.712825	-0.191694	-0.299712	6.5701	-7.21929	-0.647547	-0.155458	0.0614555	-0.0337656	-0.363525	1.00464	0.208008	0.616901	-0.713583	-0.26599	-0.1987	5.97637	-7.59232	-1.50889	0.0782318	-0.0670298	-0.0214781	-0.308594	1.01611	0.178467	0.349289	0.0289313	-0.0892135	-0.93231	1.07866	1.71884	10.3806	-0.173572	0.0789318	0.0639978	-0.395752	0.102539	-0.989502	0.151887	-0.678254	-0.316515	-0.645539	9.35278	2.20502	-1.25703	-0.031239	-0.01808	0.0389958	-1.04126	0.101074	0.480957	
50	0.979317	-0.192982	0.0288182	0.0535221	-1.30918	-4.09581	9.97979	0.180129	0.0281616	0.0738348	0.642334	0.320312	-0.912842	0.599502	-0.746517	-0.278	-0.0776245	4.3633	-8.47132	-2.78588	0.0546375	-0.0173477	-0.0430194	0.0830078	0.97998	0.257568	0.807937	-0.148867	0.539431	0.184637	-9.00361	-1.32418	4.43058	-0.0309897	-0.0720344	0.0198913	0.990723	-0.226318	-0.0124512	0.632402	0.422483	0.587488	-0.276468	-9.63673	2.46279	-0.617469	-0.0628084	0.0125049	0.0358247	1.00806	0.268799	0.204834	0.151455	-0.700312	-0.101925	-0.690099	9.8679	-0.947488	-0.0198416	-0.0775665	0.0415821	0.0417429	-0.975586	0.261963	0.470947	-0.266989	-0.505612	0.549021	-0.60963	9.54712	-1.64021	1.74705	-0.129237	-0.0409156	0.0385142	-1.10107	-0.209473	0.319336	0.446387	-0.823547	-0.346976	0.0460113	1.88137	-7.54982	-5.8623	0.0529694	0.018723	-0.0218363	0.143066	0.993896	0.427246	0.602642	-0.714367	-0.190188	-0.300552	6.5236	-7.46784	-1.14711	-0.00572915	0.0472291	0.00187277	-0.356934	1	0.219971	0.614774	-0.715534	-0.266077	-0.198162	5.90905	-8.36412	-1.95799	-0.0784892	-0.0386375	-0.00946813	-0.313232	1.01147	0.189697	0.349289	0.0289313	-0.0892135	-0.93231	1.07866	1.71884	10.3806	-0.173572	0.0789318	0.0639978	-0.395752	0.102539	-0.989502	0.153171	-0.679142	-0.315243	-0.644924	9.63594	1.86494	-1.23761	0.00848542	-0.000337505	0.0469703	-1.03931	0.103516	0.485352	
51	0.979727	-0.190343	0.0294459	0.0551083	-0.853488	-3.42458	10.0204	0.0600004	0.01186	0.0634151	0.646484	0.32251	-0.912842	0.59972	-0.746307	-0.278202	-0.0772352	4.73065	-8.40501	-2.79975	-0.0218964	0.0369307	-0.0111373	0.0871582	0.984375	0.257568	0.80848	-0.148924	0.538228	0.18572	-9.39314	-0.877599	4.44154	-0.0219247	-0.0336365	0.0125126	0.982178	-0.230469	-0.0192871	0.6333	0.421924	0.587164	-0.275952	-9.82109	2.2003	-0.8084	-0.0191062	-0.0169689	0.0167622	1.00806	0.266846	0.202637	0.149348	-0.700762	-0.0962277	-0.690918	9.9834	-0.375078	-0.0345538	-0.273135	0.0562566	0.109906	-0.975586	0.261963	0.470947	-0.266989	-0.505612	0.549021	-0.60963	9.54712	-1.64021	1.74705	-0.129237	-0.0409156	0.0385142	-1.10107	-0.209473	0.319336	0.446934	-0.823184	-0.347082	0.0463901	2.16503	-7.3478	-5.56169	0.0356564	-0.00155789	-0.0117138	0.143066	0.993896	0.427246	0.604393	-0.713003	-0.19074	-0.299922	6.63289	-6.91026	-0.996093	0.124162	-0.00443229	-0.00639284	-0.355225	1.01318	0.212646	0.615998	-0.714333	-0.267244	-0.197117	6.04823	-7.24713	-1.72639	-0.0214436	-0.0147688	-0.0141203	-0.313232	1.01147	0.1875	0.349289	0.0289313	-0.0892135	-0.93231	1.07866	1.71884	10.3806	-0.173572	0.0789318	0.0639978	-0.395752	0.102539	-0.989502	0.153452	-0.679535	-0.314554	-0.64478	9.65113	1.55438	-1.23244	-0.0139965	0.00694369	0.0174157	-1.04175	0.110107	0.48291	
52	0.979042	-0.193472	0.0294224	0.0563902	-1.02535	-4.3032	9.84112	-0.14739	-0.024423	0.0229852	0.648682	0.324707	-0.915039	0.599717	-0.746192	-0.278368	-0.0777639	4.32324	-8.27785	-2.53522	0.00198199	0.0139002	-0.0379501	0.0808105	0.982178	0.262207	0.809006	-0.148629	0.537656	0.185323	-8.99578	-0.859643	4.39273	0.0463269	-0.0182047	-0.00125828	0.993164	-0.232666	-0.0146484	0.633365	0.422435	0.586622	-0.276175	-9.45451	2.10707	-0.702983	0.0287357	-0.00202166	0.016894	1.00586	0.266602	0.207275	0.15001	-0.700626	-0.093361	-0.691306	9.91294	-0.823466	-0.148907	0.0927635	0.03745	0.0538564	-0.971436	0.26416	0.464111	-0.292153	-0.498578	0.536307	-0.615176	9.62347	-1.68481	2.14816	-0.0165413	0.102983	-0.0696439	-1.11084	-0.239746	0.264648	0.447052	-0.823363	-0.346573	0.0458859	1.86575	-7.3408	-5.47397	0.0176654	0.0164945	-0.0151276	0.136475	0.99585	0.427246	0.604068	-0.71326	-0.190214	-0.300302	6.63599	-6.6582	-1.03038	-0.141262	0.0438921	-0.00104946	-0.357178	1.00879	0.210449	0.616229	-0.714072	-0.267606	-0.196848	6.04623	-7.23961	-1.63423	0.00352596	-0.000120458	-0.0223125	-0.310791	1.00928	0.185303	0.349289	0.0289313	-0.0892135	-0.93231	1.07866	1.71884	10.3806	-0.173572	0.0789318	0.0639978	-0.395752	0.102539	-0.989502	0.153715	-0.679606	-0.314853	-0.644496	9.42725	1.78358	-1.2803	0.0153711	-0.00193849	-0.0169231	-1.04395	0.10791	0.485352	
53	0.978168	-0.197871	0.0297035	0.0561503	-1.23976	-4.52991	9.74883	-0.183408	0.0161722	-0.018698	0.645996	0.335693	-0.910889	0.599331	-0.74635	-0.278586	-0.0784552	4.27278	-8.27698	-2.6552	-0.0260231	0.0223209	-0.0363759	0.0830078	0.984375	0.259766	0.809408	-0.14771	0.537869	0.183677	-8.9446	-0.76887	4.47828	0.0518874	0.00780094	-0.0330489	0.98877	-0.232666	-0.0168457	0.632696	0.42362	0.586144	-0.276906	-9.42969	2.39274	-0.951417	0.0429608	0.000454501	0.01067	1.00806	0.264648	0.202881	0.151182	-0.700578	-0.0926165	-0.691199	9.69852	-0.131201	-0.501891	-0.0839134	0.00756625	0.0420102	-0.971436	0.266357	0.464111	-0.292153	-0.498578	0.536307	-0.615176	9.62347	-1.68481	2.14816	-0.0165413	0.102983	-0.0696439	-1.11084	-0.239746	0.264648	0.446669	-0.823611	-0.346491	0.0457795	2.04035	-7.16585	-5.42378	-0.0249154	0.012213	-0.00673266	0.136719	0.993896	0.427246	0.602896	-0.714158	-0.189441	-0.30101	6.5579	-7.30953	-1.18917	-0.136126	0.0555509	-0.0185156	-0.359131	1	0.217529	0.615905	-0.71433	-0.267542	-0.197016	5.9987	-7.55009	-1.78318	-0.0305966	0.0101413	-0.0223212	-0.308594	1.01392	0.182861	0.349289	0.0289313	-0.0892135	-0.93231	1.07866	1.71884	10.3806	-0.173572	0.0789318	0.0639978	-0.395752	0.102539	-0.989502	0.154374	-0.679452	-0.316293	-0.643795	9.70581	2.19487	-1.0301	0.0714436	-0.0115495	-0.0158854	-1.03955	0.110107	0.485352	
54	0.977602	-0.200717	0.0304287	0.0555143	-0.836814	-4.50954	9.89308	-0.0873653	0.0628547	-0.0147871	0.650146	0.337891	-0.908691	0.599331	-0.746211	-0.278982	-0.0783555	4.26792	-8.35473	-2.52408	0.006979	-0.0111252	-0.0382348	0.0786133	0.982178	0.262207	0.80948	-0.148113	0.537803	0.183227	-8.88563	-0.97894	4.41468	-0.00120698	0.0129163	-0.0391632	0.990967	-0.230469	-0.0124512	0.63383	0.422557	0.585408	-0.277495	-9.78718	2.37941	-0.820987	-0.0346155	-0.0832689	-0.02874	1.01245	0.266846	0.198242	0.150817	-0.70103	-0.0951555	-0.690476	10.0729	-0.71333	0.141794	0.131186	-0.0385111	-0.0929515	-0.973633	0.266357	0.468506	-0.292153	-0.498578	0.536307	-0.615176	9.62347	-1.68481	2.14816	-0.0165413	0.102983	-0.0696439	-1.11084	-0.239746	0.264648	0.447134	-0.82316	-0.346921	0.0460806	1.9901	-7.26299	-5.27589	0.0577504	-0.00693972	-0.049503	0.138916	0.991699	0.429443	0.603994	-0.713304	-0.189927	-0.300528	6.4023	-6.82283	-1.00422	0.160894	0.00306216	-0.000390649	-0.35498	1.00879	0.217285	0.616212	-0.7141	-0.26724	-0.197298	5.86459	-7.41044	-1.81826	0.00432837	0.0366497	-0.0107589	-0.313232	1.01147	0.183105	0.349289	0.0289313	-0.0892135	-0.93231	1.07866	1.71884	10.3806	-0.173572	0.0789318	0.0639978	-0.395752	0.102539	-0.989502	0.151771	-0.67942	-0.315662	-0.644756	9.68444	1.99605	-1.48303	-0.131024	0.0131203	-0.0832905	-1.03931	0.103516	0.483154	
55	0.977373	-0.201697	0.0314231	0.0554331	-1.32861	-4.50152	10.0261	-0.0726914	0.0748087	0.0056499	0.650146	0.339844	-0.900146	0.599081	-0.74606	-0.279811	-0.0787545	4.57984	-8.2176	-2.61623	-0.0334206	0.0200941	-0.0515787	0.0783691	0.988525	0.261963	0.809132	-0.149313	0.538314	0.182287	-9.25891	-0.489461	4.49262	-0.0511857	0.0578407	-0.0524196	0.990967	-0.230469	-0.0168457	0.634256	0.421755	0.585074	-0.278443	-9.64281	2.35097	-0.822654	-0.0103761	-0.0821998	-0.062883	1.00806	0.269043	0.196045	0.151356	-0.700967	-0.095983	-0.690307	10.0412	-0.784143	0.147074	0.0759481	-0.00329813	-0.0263738	-0.980225	0.268555	0.470947	-0.292153	-0.498578	0.536307	-0.615176	9.62347	-1.68481	2.14816	-0.0165413	0.102983	-0.0696439	-1.11084	-0.239746	0.264648	0.446702	-0.823398	-0.346983	0.0455619	2.21511	-7.19295	-5.62876	-0.00170249	0.0411251	-0.011023	0.132324	0.993652	0.429443	0.605297	-0.71248	-0.190297	-0.299625	6.49932	-6.65455	-0.611565	0.0154374	-0.0013102	0.00963571	-0.355225	1.01318	0.205566	0.616991	-0.713638	-0.266677	-0.197298	5.97468	-7.28328	-1.50231	0.00756586	0.0307837	0.00616718	-0.313232	1.01392	0.182861	0.349289	0.0289313	-0.0892135	-0.93231	1.07866	1.71884	10.3806	-0.173572	0.0789318	0.0639978	-0.395752	0.102539	-0.989502	0.150987	-0.679347	-0.315629	-0.645034	9.76258	1.81502	-1.20973	-0.0489392	0.00812346	-0.0488599	-1.0459	0.101074	0.485352	
56	0.977004	-0.203553	0.0310165	0.0553736	-1.2734	-4.31296	10.0167	-0.0740765	-0.046531	-0.0253256	0.647705	0.344238	-0.904541	0.598809	-0.745847	-0.280861	-0.079102	4.379	-8.32171	-2.73223	0.00348801	-0.0311917	-0.0580723	0.0805664	0.986328	0.257324	0.808366	-0.153659	0.538378	0.181887	-8.99434	-1.17841	4.47641	-0.107404	0.0541115	-0.0978061	0.994873	-0.219727	-0.0126953	0.636145	0.418812	0.584816	-0.279117	-9.50804	2.01481	-0.875575	-0.121	-0.102875	-0.0465656	1.00586	0.264648	0.194092	0.153815	-0.700618	-0.0990902	-0.689678	9.93542	-1.02604	0.233422	0.17003	-0.000595314	-0.020101	-0.971436	0.266357	0.470947	-0.292153	-0.498578	0.536307	-0.615176	9.62347	-1.68481	2.14816	-0.0165413	0.102983	-0.0696439	-1.11084	-0.239746	0.264648	0.446182	-0.823482	-0.347408	0.0458968	1.98868	-7.24234	-5.68706	0.00493295	-0.0375679	-0.0224285	0.138916	0.989502	0.423096	0.603957	-0.713805	-0.189926	-0.299411	6.82844	-7.23623	-0.722542	-0.0691522	-0.0063593	-0.00802603	-0.357178	1.00659	0.215088	0.616852	-0.714075	-0.265669	-0.19751	6.10219	-7.6152	-1.394	-0.0286858	0.0362958	0.0106238	-0.310791	1.01147	0.183105	0.349289	0.0289313	-0.0892135	-0.93231	1.07866	1.71884	10.3806	-0.173572	0.0789318	0.0639978	-0.395752	0.102539	-0.989502	0.150988	-0.679514	-0.315449	-0.644946	9.60399	2.24667	-1.04114	-0.0402323	0.0101649	0.00528013	-1.0437	0.103271	0.487549	
57	0.976507	-0.206224	0.0292463	0.0552328	-1.13711	-4.57435	9.88079	-0.0998363	-0.0833912	-0.0214558	0.645264	0.346436	-0.908936	0.598773	-0.745527	-0.281956	-0.0784936	4.56732	-8.36182	-2.46877	0.0121549	-0.0170976	-0.0393033	0.0827637	0.98877	0.261963	0.80792	-0.156703	0.538866	0.179815	-9.12605	-1.11635	4.07163	-0.0507454	0.0718771	-0.112857	0.992676	-0.215332	-0.0126953	0.638442	0.416807	0.582658	-0.281379	-9.56826	2.00615	-0.441345	0.00855894	-0.180792	-0.0484928	1.01001	0.273438	0.182861	0.155126	-0.700385	-0.0990699	-0.689625	9.85426	-0.950732	-0.21446	0.0700063	0.0134845	0.0333847	-0.978271	0.272949	0.46167	-0.292153	-0.498578	0.536307	-0.615176	9.62347	-1.68481	2.14816	-0.0165413	0.102983	-0.0696439	-1.11084	-0.239746	0.264648	0.445452	-0.823513	-0.348211	0.0463542	2.15199	-7.32841	-5.33266	0.0172538	-0.0205824	-0.0309027	0.141113	0.989502	0.429443	0.604629	-0.713294	-0.189669	-0.299435	6.69696	-7.1573	-0.618895	0.0731649	0.0557022	0.0112197	-0.355225	1.00903	0.208008	0.617356	-0.713818	-0.265618	-0.19693	6.10869	-7.29628	-1.3352	0.0121188	-0.00445038	0.00547142	-0.310791	1.01147	0.183105	0.350593	0.0357976	-0.0886553	-0.931635	1.05522	1.97344	10.2711	0.0572243	0.00689305	0.0149504	-0.393799	0.106934	-0.994141	0.150958	-0.680001	-0.314807	-0.644753	9.57833	1.96554	-1.09365	0.00822444	-0.0139509	0.0402023	-1.03906	0.101318	0.483154	
58	0.976131	-0.207774	0.0285742	0.0564108	-0.735416	-4.43184	9.77637	-0.0636727	-0.00189735	0.0586089	0.645264	0.348633	-0.904541	0.59928	-0.744691	-0.283247	-0.0779135	4.55985	-8.46449	-2.58705	0.0562473	-0.0210757	-0.0420472	0.0742188	0.984131	0.257568	0.807864	-0.160376	0.538034	0.179318	-9.14774	-1.62391	4.19005	-0.127608	-0.00283468	-0.0782581	0.992676	-0.206787	-0.0107422	0.641463	0.413951	0.58022	-0.283751	-9.66029	1.75908	0.047161	-0.0529914	-0.203443	-0.0386348	1.0144	0.273682	0.171875	0.15372	-0.700269	-0.0989233	-0.690077	9.61548	-0.885336	-0.296422	-0.0539289	0.0104602	-0.0933749	-0.97583	0.266357	0.468506	-0.293002	-0.501066	0.531982	-0.616505	9.65768	-1.50894	2.36985	0.025527	0.0070863	-0.0270891	-1.11304	-0.239746	0.277588	0.445554	-0.823159	-0.348993	0.0457701	2.11847	-7.48124	-5.54624	0.0409564	0.0184359	-0.0619898	0.132568	0.991699	0.429443	0.606276	-0.71177	-0.189504	-0.299834	6.41118	-6.65713	-0.805413	0.0489925	0.0392541	-0.0179259	-0.353027	1.01099	0.212646	0.617957	-0.713551	-0.265626	-0.196003	5.99887	-7.53519	-1.69867	0.055294	-0.00772762	0.00413125	-0.311035	1.01855	0.17627	0.350593	0.0357976	-0.0886553	-0.931635	1.05522	1.97344	10.2711	0.0572243	0.00689305	0.0149504	-0.393799	0.106934	-0.994141	0.152402	-0.680162	-0.316045	-0.643637	9.6626	1.76341	-1.04597	0.114348	-0.0179944	0.00968418	-1.03711	0.10791	0.487549	
59	0.975786	-0.208721	0.0293672	0.0584387	-1.16398	-4.16203	9.91864	-0.0436572	-0.0131286	0.097234	0.649658	0.348633	-0.904541	0.600101	-0.743661	-0.284342	-0.0774356	4.64558	-8.18396	-2.64086	0.0415681	-0.0020745	-0.051703	0.0742188	0.984375	0.259766	0.808327	-0.160881	0.537774	0.17755	-9.16859	-0.880925	4.31215	-0.00534233	-0.0171378	-0.0593915	0.996826	-0.206787	-0.0107422	0.643506	0.412436	0.578536	-0.284767	-9.43245	1.82242	0.151916	-0.0208197	-0.083382	-0.00476223	1.01685	0.271484	0.169678	0.155299	-0.699869	-0.102049	-0.689675	9.88645	-0.29327	0.271105	0.106514	0.027265	-0.0345474	-0.978027	0.268555	0.466309	-0.293002	-0.501066	0.531982	-0.616505	9.65768	-1.50894	2.36985	0.025527	0.0070863	-0.0270891	-1.11304	-0.239746	0.277588	0.445606	-0.823001	-0.349382	0.0451294	2.35239	-7.2577	-5.42825	0.00162479	0.0409695	-0.069632	0.134521	0.993652	0.431396	0.606956	-0.711286	-0.189682	-0.299495	6.44729	-7.02134	-0.608978	0.023864	0.00240709	-0.00959842	-0.348633	1.00684	0.19873	0.618793	-0.712955	-0.265684	-0.195454	5.95012	-7.45489	-1.70404	0.093919	0.00198511	0.00647192	-0.306396	1.01392	0.17627	0.350593	0.0357976	-0.0886553	-0.931635	1.05522	1.97344	10.2711	0.0572243	0.00689305	0.0149504	-0.393799	0.106934	-0.994141	0.152454	-0.680501	-0.316943	-0.642824	9.54916	1.85153	-1.26422	0.00420348	-0.0251328	-0.0237278	-1.0415	0.105713	0.487549	
60	0.974996	-0.211524	0.0288929	0.0616861	-1.16075	-4.80949	9.73951	-0.113357	-0.0471667	0.0977245	0.643066	0.348389	-0.900391	0.600392	-0.74334	-0.284502	-0.077681	4.5483	-8.20948	-2.59073	0.0245312	0.0279428	-0.0430675	0.0700684	0.981934	0.255127	0.808618	-0.161624	0.537283	0.177037	-8.94903	-1.42978	4.32687	-0.0240545	-0.017544	-0.065698	0.992676	-0.206787	-0.0129395	0.64449	0.412321	0.577762	-0.284281	-9.55917	1.74701	-0.203149	0.00486815	-0.0267614	0.0486841	1.0188	0.275879	0.167236	0.151298	-0.701118	-0.0982662	-0.689845	10.0879	-1.33402	0.0332182	-0.266428	-0.0170104	0.0282265	-0.977783	0.26416	0.464111	-0.293841	-0.500788	0.531759	-0.616523	9.68019	-1.46709	2.33023	-0.014744	0.022026	-0.0150276	-1.10449	-0.237549	0.273193	0.445898	-0.8229	-0.349514	0.0430243	2.17528	-7.33691	-5.50586	-0.0160488	0.0586266	-0.0557448	0.128174	0.989502	0.427246	0.606602	-0.71155	-0.189703	-0.299573	6.65903	-7.23037	-0.699175	-0.0310031	0.0096108	-0.0236366	-0.353027	1.01099	0.210205	0.618833	-0.713319	-0.26484	-0.195146	5.97615	-7.88995	-1.55308	0.0199798	0.0173124	0.00816402	-0.308594	1.01392	0.171875	0.350593	0.0357976	-0.0886553	-0.931635	1.05522	1.97344	10.2711	0.0572243	0.00689305	0.0149504	-0.393799	0.106934	-0.994141	0.152475	-0.680545	-0.318014	-0.642244	9.64354	1.84642	-1.42711	0.0257769	-0.00728247	-0.0368331	-1.04175	0.110107	0.494385	
61	0.974183	-0.214466	0.0285199	0.0644877	-0.676467	-4.70991	9.68858	-0.139862	-0.0230789	0.120212	0.649414	0.35083	-0.900391	0.601398	-0.742369	-0.284989	-0.0773978	4.56505	-8.38073	-2.72602	0.0440215	0.00124035	-0.0237321	0.076416	0.986328	0.248047	0.809779	-0.159852	0.537148	0.173718	-9.17138	-1.42351	4.22206	0.186446	-0.0092318	-0.084561	0.992432	-0.200195	-0.00854492	0.644469	0.414401	0.575205	-0.286479	-9.77526	2.4727	-0.128636	0.103923	-0.104189	0.0339724	1.01685	0.271484	0.165283	0.150766	-0.70129	-0.0999962	-0.689538	9.60011	-1.20407	-0.724959	0.151457	-0.0575638	-0.140551	-0.977539	0.257568	0.466309	-0.293841	-0.500788	0.531759	-0.616523	9.68019	-1.46709	2.33023	-0.014744	0.022026	-0.0150276	-1.10449	-0.237549	0.273193	0.446785	-0.822727	-0.349003	0.0412264	2.20062	-7.45749	-5.63736	0.0480127	0.0713599	-0.0342999	0.128418	0.987305	0.436035	0.606953	-0.711168	-0.190053	-0.299546	6.64986	-7.49798	-0.601788	0.0547218	0.0299508	-0.018517	-0.355225	1.00903	0.203369	0.619281	-0.712972	-0.264902	-0.194909	6.07344	-7.46448	-1.33091	0.0525772	0.00760222	-0.0097586	-0.306641	1.02075	0.180664	0.350593	0.0357976	-0.0886553	-0.931635	1.05522	1.97344	10.2711	0.0572243	0.00689305	0.0149504	-0.393799	0.106934	-0.994141	0.153077	-0.680032	-0.319307	-0.642002	10.0383	2.18208	-1.62834	0.054873	0.0312657	-0.033676	-1.03931	0.10791	0.489746	
62	0.973766	-0.215915	0.0294603	0.0655115	-0.929902	-4.80127	9.5679	-0.114953	0.0554151	0.092169	0.64502	0.352783	-0.902588	0.601954	-0.741834	-0.285573	-0.0760359	4.35978	-8.44043	-2.54681	0.0601279	-0.0738532	0.00252477	0.0742188	0.984131	0.250488	0.810664	-0.15916	0.536638	0.171791	-9.22128	-0.880516	4.40378	-0.0153273	-0.0148058	-0.0308556	0.996826	-0.196045	-0.0134277	0.645561	0.413771	0.574398	-0.286552	-9.6144	2.42953	0.0679928	-0.0532465	-0.105382	0.0212735	1.01001	0.271484	0.158691	0.155117	-0.700456	-0.105173	-0.68865	10.2285	-1.17837	-0.363837	0.545178	-0.0232333	-0.0573605	-0.971436	0.266357	0.466309	-0.293841	-0.500788	0.531759	-0.616523	9.68019	-1.46709	2.33023	-0.014744	0.022026	-0.0150276	-1.10449	-0.237549	0.273193	0.447803	-0.823032	-0.347198	0.0392896	2.05415	-7.31638	-5.27428	0.0484175	0.104749	0.0140038	0.128418	0.985107	0.431641	0.606526	-0.711495	-0.189862	-0.299755	6.65967	-7.15575	-1.00402	-0.0701572	0.0180112	-0.0171558	-0.357422	1.01318	0.203369	0.618246	-0.713449	-0.265324	-0.195872	5.98164	-7.63533	-1.55103	-0.0687455	0.00911431	-0.058838	-0.303955	1.01611	0.178467	0.350593	0.0357976	-0.0886553	-0.931635	1.05522	1.97344	10.2711	0.0572243	0.00689305	0.0149504	-0.393799	0.106934	-0.994141	0.152952	-0.680247	-0.318331	-0.642289	9.4432	2.26035	-1.28235	-0.0656638	0.0221869	0.0434596	-1.03931	0.105713	0.494385	
63	0.972928	-0.218986	0.0315837	0.0667707	-0.996488	-4.69845	9.69602	-0.130973	0.0766138	0.0672618	0.655762	0.357422	-0.893799	0.602339	-0.741805	-0.285014	-0.0753708	4.55898	-8.21816	-2.49408	0.0148342	0.0134798	0.0185904	0.0739746	0.988525	0.252686	0.810473	-0.161675	0.536395	0.1711	-8.89393	-1.6777	4.27795	0.0508053	0.0367852	-0.0614767	0.994629	-0.198242	-0.00878906	0.646459	0.413267	0.573299	-0.287453	-9.5111	2.26729	-0.0747782	0.0369051	-0.061815	-0.011907	1.01685	0.269287	0.156494	0.157878	-0.699284	-0.107758	-0.688814	9.61021	0.390217	0.171354	-0.192815	0.00626452	-0.0235177	-0.97583	0.268555	0.464111	-0.293841	-0.500788	0.531759	-0.616523	9.68019	-1.46709	2.33023	-0.014744	0.022026	-0.0150276	-1.10449	-0.237549	0.273193	0.448677	-0.82315	-0.345865	0.0386034	2.29675	-7.07708	-5.32326	0.0487758	0.063804	0.0210092	0.128418	0.987305	0.436035	0.604444	-0.713167	-0.189488	-0.300224	6.29245	-6.98125	-0.69157	-0.0708181	-0.00321199	-0.0206683	-0.357422	1.01099	0.212646	0.617665	-0.713465	-0.266152	-0.19652	5.87811	-7.17457	-1.76553	0.00863172	-0.00014828	-0.0552003	-0.308594	1.01147	0.185303	0.350593	0.0357976	-0.0886553	-0.931635	1.05522	1.97344	10.2711	0.0572243	0.00689305	0.0149504	-0.393799	0.106934	-0.994141	0.153573	-0.680007	-0.318462	-0.64233	9.77138	1.69624	-1.12541	0.0665857	0.0219482	0.000717765	-1.03931	0.105713	0.485352	
64	0.972361	-0.221016	0.032949	0.0676805	-1.46923	-5.04051	9.7013	-0.0424459	0.0174772	0.0150493	0.653564	0.357178	-0.891602	0.602222	-0.742011	-0.284643	-0.0756773	4.42452	-8.10321	-2.54189	-0.0311128	0.0252295	-0.0125534	0.0761719	0.988525	0.245605	0.810318	-0.161307	0.537261	0.169455	-8.85528	-1.22502	4.20109	-0.0272375	0.0559096	-0.0318374	0.992432	-0.200195	-0.00170898	0.646743	0.412106	0.573453	-0.288172	-9.34144	2.1001	0.0308057	-0.0369318	-0.00924622	-0.0548026	1.021	0.275879	0.154053	0.15439	-0.700608	-0.101418	-0.689222	10.0139	-1.61831	0.196749	-0.115482	0.0438303	0.0730208	-0.978027	0.266357	0.468506	-0.297477	-0.499693	0.527146	-0.619622	9.683	-1.46807	2.35683	0.0245336	0.0645265	-0.0359592	-1.10815	-0.250732	0.264893	0.450038	-0.823059	-0.344495	0.0369234	2.1592	-7.14953	-5.3912	0.0455326	0.101878	-0.01559	0.124023	0.989502	0.425293	0.606511	-0.711689	-0.190681	-0.298804	6.52952	-6.59564	-0.775094	0.129889	-0.0317524	-0.00705629	-0.352783	1.00684	0.205811	0.617599	-0.713477	-0.266147	-0.196695	5.95764	-7.81238	-1.64003	0.0369528	0.0106771	-0.0220815	-0.308594	1.01611	0.178467	0.350593	0.0357976	-0.0886553	-0.931635	1.05522	1.97344	10.2711	0.0572243	0.00689305	0.0149504	-0.393799	0.106934	-0.994141	0.152405	-0.679854	-0.318663	-0.64267	9.47759	1.59124	-1.12311	-0.0486416	0.0046523	-0.0929886	-1.03906	0.0991211	0.48999	
65	0.972147	-0.221928	0.0327597	0.0678635	-1.18876	-4.99125	9.82581	-0.0383871	-0.00975886	0.0103753	0.651123	0.361572	-0.891846	0.602788	-0.741432	-0.284865	-0.0760112	4.61518	-8.28615	-2.41986	0.0469965	0.0444231	-0.0387973	0.076416	0.986328	0.248047	0.810018	-0.161728	0.537895	0.168474	-9.0859	-1.39294	4.27222	0.0361732	0.0338573	-0.0139677	0.994385	-0.189453	-0.00439453	0.647076	0.411017	0.57321	-0.289462	-9.57584	2.02554	0.125358	-0.0210924	-0.0582801	-0.0420949	1.0188	0.278076	0.160645	0.156916	-0.700277	-0.100356	-0.689143	9.72246	-0.86552	-0.117246	0.00169884	0.00998201	0.109508	-0.971924	0.277344	0.468506	-0.297477	-0.499693	0.527146	-0.619622	9.683	-1.46807	2.35683	0.0245336	0.0645265	-0.0359592	-1.10815	-0.250732	0.264893	0.451346	-0.822571	-0.344089	0.0355802	2.46025	-7.04009	-5.37994	0.062542	0.120962	-0.0391826	0.124023	0.987305	0.42749	0.605582	-0.712777	-0.190591	-0.298153	6.78856	-6.90289	-0.7104	-0.0830979	-0.0162675	0.0090797	-0.351074	1.01318	0.210205	0.61781	-0.713516	-0.265848	-0.196292	6.16456	-7.15195	-1.40974	-0.0917639	0.0112426	0.0210688	-0.310791	1.01147	0.183105	0.350593	0.0357976	-0.0886553	-0.931635	1.05522	1.97344	10.2711	0.0572243	0.00689305	0.0149504	-0.393799	0.106934	-0.994141	0.151839	-0.679729	-0.320213	-0.642166	9.42083	2.19764	-1.11203	-0.0116404	-0.0204815	-0.0521522	-1.03687	0.103516	0.48999	
66	0.972395	-0.220853	0.0324776	0.067955	-1.03625	-4.7622	9.86183	0.0664469	-0.0210563	-0.00149211	0.651367	0.359375	-0.891846	0.603168	-0.741035	-0.285176	-0.0756911	4.66961	-8.48506	-2.44517	0.0152333	-0.00799372	-0.0202924	0.0717773	0.988525	0.240967	0.809765	-0.163318	0.537417	0.169681	-9.36741	-1.38304	4.21816	-0.067225	-0.0121062	0.0222013	0.994629	-0.196045	-0.00878906	0.648042	0.409494	0.572936	-0.290001	-9.77493	1.60985	0.185056	-0.0159257	-0.0409289	-0.0292615	1.0166	0.273682	0.160889	0.155736	-0.700505	-0.0963588	-0.689749	10.0643	-0.507305	0.328048	-0.214877	0.044112	0.0401951	-0.978516	0.279541	0.468506	-0.303423	-0.497023	0.524288	-0.621309	9.76011	-1.50623	2.44559	-0.0264618	0.132031	-0.0656784	-1.11255	-0.25293	0.25415	0.451698	-0.822213	-0.344481	0.0356108	2.40713	-7.2968	-5.40444	0.0182112	-0.0217183	-0.0306059	0.124023	0.989502	0.425293	0.606673	-0.711804	-0.190657	-0.298215	6.604	-7.11014	-0.740269	0.10823	0.0415307	-0.00335445	-0.357422	1.01318	0.205566	0.618991	-0.71268	-0.266115	-0.195245	6.17024	-7.00566	-1.29921	0.101153	-0.0141907	0.000844761	-0.308594	1.01611	0.174072	0.350593	0.0357976	-0.0886553	-0.931635	1.05522	1.97344	10.2711	0.0572243	0.00689305	0.0149504	-0.393799	0.106934	-0.994141	0.151729	-0.679708	-0.321707	-0.641467	9.59252	2.68611	-1.35917	0.0374175	-0.024655	-0.0143009	-1.04395	0.10791	0.489746	
67	0.972685	-0.219382	0.033074	0.0682766	-1.4928	-4.64531	9.83258	0.0630206	0.0035337	0.0106765	0.658203	0.353027	-0.898193	0.603708	-0.740597	-0.285195	-0.0756089	4.30092	-8.33435	-2.63573	0.0161499	0.0121651	-0.015497	0.076416	0.984131	0.248047	0.810137	-0.162502	0.53713	0.169596	-9.10132	-1.08176	4.26681	0.0369007	-0.0161503	0.0271172	0.992432	-0.195801	-0.00878906	0.647446	0.410393	0.573095	-0.289747	-9.48689	1.80972	0.0363971	0.00879752	0.0568118	0.0381303	1.01221	0.273682	0.158691	0.154637	-0.700826	-0.0928432	-0.690152	9.91431	-1.04275	-0.638294	-0.0112758	0.0431166	0.0380955	-0.973877	0.275146	0.464111	-0.303423	-0.497023	0.524288	-0.621309	9.76011	-1.50623	2.44559	-0.0264618	0.132031	-0.0656784	-1.11255	-0.25293	0.25415	0.450272	-0.822882	-0.344737	0.035741	2.19809	-7.35163	-5.63698	-0.0701095	-0.0390126	-0.00815907	0.130371	0.989502	0.435791	0.60723	-0.711315	-0.190827	-0.298139	6.51816	-6.72966	-0.590305	-0.0453181	0.0224566	-0.0251138	-0.353027	1.01123	0.205566	0.618553	-0.713325	-0.265826	-0.19467	6.01766	-7.30482	-1.50109	0.0293948	-0.0119013	-0.00084188	-0.303955	1.01392	0.178467	0.350593	0.0357976	-0.0886553	-0.931635	1.05522	1.97344	10.2711	0.0572243	0.00689305	0.0149504	-0.393799	0.106934	-0.994141	0.152266	-0.680327	-0.321486	-0.640794	9.78311	2.22854	-1.43886	0.080549	-0.0130497	0.0524887	-1.03711	0.10791	0.494385	
68	0.972703	-0.219434	0.0319344	0.0683905	-1.29171	-4.47116	9.79624	-0.0271962	-0.0591418	-0.00726855	0.656006	0.355225	-0.898193	0.603304	-0.740783	-0.285654	-0.0752737	4.56079	-8.34389	-2.62655	-0.0206852	-0.0117432	-0.0274449	0.0742188	0.986328	0.243408	0.810716	-0.161783	0.536369	0.169923	-9.27914	-1.30571	4.05055	0.0127121	-0.0391721	0.0223425	0.996582	-0.19165	-0.0112305	0.646422	0.411891	0.573548	-0.289011	-9.7908	1.55841	-0.260714	0.0692319	0.0607542	0.0335695	1.0144	0.273682	0.158691	0.155323	-0.70053	-0.0961243	-0.689849	9.84444	0.163467	-0.0731733	0.0424789	-0.0202889	-0.0786608	-0.978516	0.277344	0.466309	-0.303423	-0.497023	0.524288	-0.621309	9.76011	-1.50623	2.44559	-0.0264618	0.132031	-0.0656784	-1.11255	-0.25293	0.25415	0.448593	-0.823618	-0.345194	0.0354726	2.43855	-7.23811	-5.3415	-0.0654873	8.92761e-06	-0.0370485	0.12207	0.985107	0.437988	0.604844	-0.71317	-0.18989	-0.299157	6.49079	-7.39369	-0.68599	-0.088702	0.0351071	-0.0195035	-0.35083	1.01099	0.210205	0.617507	-0.714337	-0.265677	-0.194479	5.84211	-7.68223	-1.54993	-0.031532	-0.015665	-0.0125302	-0.308594	1.01611	0.180664	0.350593	0.0357976	-0.0886553	-0.931635	1.05522	1.97344	10.2711	0.0572243	0.00689305	0.0149504	-0.393799	0.106934	-0.994141	0.1524	-0.681529	-0.318945	-0.640755	9.32513	1.75909	-1.4551	-0.113667	0.00261617	0.0831498	-1.03711	0.10791	0.496582	
69	0.972455	-0.220441	0.0303343	0.0694031	-1.44357	-4.64956	9.67581	-0.0498177	-0.099005	0.0256965	0.647217	0.35498	-0.900391	0.602898	-0.741142	-0.285291	-0.0763592	4.39897	-8.27251	-2.50314	-0.0483478	0.0575064	-0.0250138	0.0720215	0.986328	0.245605	0.81157	-0.161087	0.535335	0.169767	-8.90257	-1.27066	4.23022	0.0292066	-0.0601315	0.00680031	0.998779	-0.19165	-0.0134277	0.646006	0.413822	0.572522	-0.289217	-9.42772	1.98213	-0.351976	0.0289099	-0.0148444	0.0635189	1.01465	0.269287	0.160889	0.153137	-0.701234	-0.0979314	-0.689368	9.93467	-1.05898	-0.193328	0.064586	-0.0594529	-0.16131	-0.97583	0.266357	0.466309	-0.308589	-0.494816	0.523271	-0.621384	9.73001	-1.37788	2.75521	-0.0372522	0.0606378	-0.0349224	-1.1167	-0.255127	0.243652	0.446272	-0.824909	-0.345221	0.0344882	2.21482	-7.35088	-5.36509	-0.0951252	0.00932885	-0.0157766	0.119873	0.985107	0.44458	0.605189	-0.712989	-0.189848	-0.298917	6.43199	-7.07614	-0.765281	0.0410476	0.0239449	-0.00395761	-0.35083	1.01099	0.212646	0.616443	-0.715306	-0.26589	-0.194005	5.82044	-7.6083	-1.57049	-0.0362234	-0.0323225	-0.013849	-0.304199	1.01831	0.189697	0.350593	0.0357976	-0.0886553	-0.931635	1.05522	1.97344	10.2711	0.0572243	0.00689305	0.0149504	-0.393799	0.106934	-0.994141	0.153381	-0.682086	-0.317838	-0.640477	9.6537	1.9155	-1.21903	0.0133511	0.00399032	0.0595919	-1.03711	0.10791	0.492188	
70	0.972152	-0.221847	0.0271378	0.070487	-0.939205	-5.05011	9.57577	-0.0570656	-0.141324	0.00888336	0.644775	0.359375	-0.904785	0.602488	-0.741374	-0.285387	-0.0769858	4.48619	-8.39729	-2.58765	-0.0537119	0.0346348	-0.0491321	0.0742188	0.986328	0.250244	0.812271	-0.160782	0.53437	0.169749	-9.04248	-1.26552	4.25469	0.0215457	-0.0866963	-0.000319919	0.994629	-0.195801	-0.0202637	0.646903	0.415022	0.570672	-0.289149	-9.55163	1.88679	-0.296097	0.033273	-0.0518321	0.0712207	1.01709	0.267334	0.147705	0.154173	-0.700997	-0.101347	-0.688885	9.93398	-1.08517	0.161289	0.251371	-0.0393923	-0.141363	-0.97583	0.268555	0.466309	-0.308589	-0.494816	0.523271	-0.621384	9.73001	-1.37788	2.75521	-0.0372522	0.0606378	-0.0349224	-1.1167	-0.255127	0.243652	0.445675	-0.825188	-0.345397	0.0337627	2.17918	-7.44087	-5.59074	-0.0572413	0.0372475	-0.0450239	0.12207	0.985107	0.44458	0.604815	-0.713351	-0.189496	-0.299034	6.58567	-6.9017	-1.09491	-0.0449279	0.0262432	-0.00304426	-0.348633	1.00903	0.210449	0.616443	-0.715306	-0.26589	-0.194005	5.82044	-7.6083	-1.57049	-0.0362234	-0.0323225	-0.013849	-0.304199	1.01831	0.189697	0.350593	0.0357976	-0.0886553	-0.931635	1.05522	1.97344	10.2711	0.0572243	0.00689305	0.0149504	-0.393799	0.106934	-0.994141	0.152963	-0.682408	-0.316948	-0.640676	9.45566	1.78728	-1.19264	-0.0757645	0.0033974	0.0279143	-1.03076	0.114502	0.503418	
71	0.972105	-0.222027	0.0259922	0.0709971	-0.648109	-4.97068	9.52525	-0.0196973	-0.105224	0.0169711	0.646973	0.357178	-0.904785	0.602566	-0.741311	-0.285163	-0.0778053	4.50257	-8.39258	-2.51427	0.00427592	0.0412243	-0.00920364	0.0742188	0.984131	0.252686	0.81359	-0.160877	0.532653	0.168734	-8.89767	-1.54353	4.54572	0.0314328	-0.0653099	-0.0546461	0.998779	-0.196045	-0.0178223	0.646903	0.415022	0.570672	-0.289149	-9.55163	1.88679	-0.296097	0.033273	-0.0518321	0.0712207	1.01709	0.267334	0.147705	0.155819	-0.70055	-0.102981	-0.688727	9.77535	-1.48647	-0.183252	0.0543217	0.0050354	-0.0198935	-0.976318	0.277344	0.468506	-0.304387	-0.497751	0.523029	-0.621316	9.90542	-1.18447	2.33599	0.025107	0.0156489	-0.00936646	-1.1084	-0.250732	0.251953	0.445608	-0.825198	-0.345554	0.0327694	2.19438	-7.23985	-5.6115	0.0219353	0.0394468	-0.025772	0.121826	0.989258	0.444336	0.604869	-0.713163	-0.18946	-0.299394	6.45327	-7.29439	-0.886808	0.0145737	0.0213956	-0.0203645	-0.353027	1.01099	0.208008	0.616045	-0.715492	-0.266727	-0.193433	5.98882	-7.64502	-1.84481	0.0160802	-0.00793091	-0.0224685	-0.306152	1.01172	0.180908	0.350593	0.0357976	-0.0886553	-0.931635	1.05522	1.97344	10.2711	0.0572243	0.00689305	0.0149504	-0.393799	0.106934	-0.994141	0.153041	-0.68248	-0.317355	-0.640379	9.87016	1.37879	-1.36956	0.0630016	-0.00574903	-0.0214959	-1.03711	0.110107	0.494385	
72	0.972109	-0.22199	0.0255604	0.0712125	-0.908769	-4.69621	9.49759	0.00127291	-0.0118615	-0.00782767	0.642578	0.357178	-0.902588	0.602754	-0.741247	-0.284765	-0.0784179	4.5557	-8.02673	-2.51062	-0.00576946	0.063813	-0.0273202	0.0783691	0.986328	0.243408	0.814893	-0.159271	0.53166	0.167092	-8.97299	-0.89036	4.52001	0.0376542	-0.0423391	-0.0325576	0.994385	-0.189453	-0.0249023	0.647952	0.417218	0.56794	-0.289017	-9.41499	2.4693	0.123854	-0.0161952	-0.00559147	0.0584954	1.02612	0.265137	0.149902	0.153955	-0.701168	-0.0999663	-0.688962	9.5928	0.0912264	0.276013	-0.296563	0.0137094	0.0553812	-0.97583	0.266357	0.468506	-0.306	-0.496663	0.523392	-0.621088	9.31751	-1.52898	2.45839	-0.0642185	0.0534172	-0.0254596	-1.10596	-0.257324	0.243652	0.446154	-0.824842	-0.345626	0.033557	2.34583	-7.02731	-5.56117	0.0514725	-0.0136063	-0.0103862	0.119629	0.989258	0.444336	0.6063	-0.712033	-0.190154	-0.298749	6.51196	-6.78316	-1.00107	0.0976068	0.0139923	-0.00903308	-0.355225	1.01099	0.208008	0.616062	-0.715498	-0.26658	-0.19356	5.965	-7.69026	-1.75455	-0.0244197	0.0244684	-0.012128	-0.303955	1.01172	0.183105	0.350593	0.0357976	-0.0886553	-0.931635	1.05522	1.97344	10.2711	0.0572243	0.00689305	0.0149504	-0.393799	0.106934	-0.994141	0.152856	-0.682287	-0.318574	-0.640024	9.38383	1.64812	-1.28764	0.0113864	-0.00566997	-0.0672021	-1.03052	0.112305	0.492188	
73	0.972028	-0.222588	0.0254503	0.0704806	-1.01449	-4.54447	9.57514	-0.0302286	-0.00545916	-0.0351835	0.642334	0.361572	-0.900391	0.602376	-0.741456	-0.284847	-0.0790455	4.46232	-8.29712	-2.6021	-0.0317024	0.0148251	-0.0385656	0.0654297	0.986328	0.248047	0.815024	-0.160147	0.531336	0.166646	-8.80686	-1.78091	4.45737	0.0620893	0.0166066	-0.0158279	0.992188	-0.189453	-0.0202637	0.647005	0.418946	0.567546	-0.289414	-9.43941	2.58794	0.102973	0.0793639	0.038247	0.0229908	1.01733	0.262695	0.1521	0.153556	-0.701627	-0.0991058	-0.688708	10.0423	-1.29565	-0.212111	0.18261	-0.00644568	-0.0167973	-0.973877	0.270752	0.473145	-0.306525	-0.496764	0.522918	-0.621148	9.86226	-1.35998	2.64529	-0.00562732	0.0196125	-0.0267644	-1.11255	-0.255127	0.239258	0.446937	-0.824454	-0.345513	0.033831	2.19017	-7.29973	-5.48353	0.0313308	0.0179713	-0.019155	0.115479	0.987061	0.437988	0.60475	-0.71341	-0.19011	-0.298633	6.58005	-6.9871	-0.841773	-0.111915	-0.00669509	-0.0113991	-0.351074	1.01318	0.210205	0.616415	-0.715218	-0.266287	-0.193875	5.92178	-7.3477	-1.60725	-0.028167	0.0343766	-0.00884056	-0.308838	1.01831	0.187256	0.350593	0.0357976	-0.0886553	-0.931635	1.05522	1.97344	10.2711	0.0572243	0.00689305	0.0149504	-0.393799	0.106934	-0.994141	0.153034	-0.681768	-0.3211	-0.639272	9.64053	2.31004	-1.27434	0.0619471	-0.0130974	-0.0672014	-1.03931	0.10791	0.489746	
74	0.971697	-0.224015	0.0261781	0.0702593	-0.892864	-4.74667	9.67545	-0.0580161	0.0453502	0.0148146	0.640381	0.357178	-0.898193	0.601781	-0.741947	-0.28456	-0.0799983	4.49334	-8.34219	-2.62052	-0.0371019	0.0358164	-0.0120995	0.067627	0.984131	0.24585	0.81526	-0.15818	0.53209	0.164956	-9.19083	-1.1162	4.45933	0.033559	0.0302092	-0.00390829	0.998779	-0.189453	-0.0227051	0.646167	0.419394	0.567965	-0.289816	-9.80712	2.42511	-0.100399	0.0173319	0.0219611	-0.0279601	1.01685	0.269531	0.147705	0.153346	-0.701814	-0.0981518	-0.6887	9.84367	-0.365218	-0.286892	-0.17671	0.0106885	0.0097747	-0.97583	0.268555	0.468506	-0.306706	-0.497116	0.52275	-0.620918	9.80139	-1.36536	2.53204	0.0165831	-0.00900435	-0.0245972	-1.10571	-0.261475	0.248047	0.44736	-0.824189	-0.345549	0.0343218	2.37522	-7.1422	-5.56601	0.0509196	0.0443014	-0.0114859	0.124268	0.98291	0.438232	0.605613	-0.712799	-0.190978	-0.29779	6.62942	-7.01561	-0.583959	0.102922	-0.0160049	-0.0110564	-0.348633	1.01099	0.210205	0.616913	-0.714951	-0.265947	-0.193741	5.99378	-7.30487	-1.33474	0.0377246	0.0142957	-0.00616932	-0.308594	1.01392	0.1875	0.350593	0.0357976	-0.0886553	-0.931635	1.05522	1.97344	10.2711	0.0572243	0.00689305	0.0149504	-0.393799	0.106934	-0.994141	0.152167	-0.681502	-0.321876	-0.639372	9.51349	2.15317	-1.6153	-0.00125307	0.00304675	-0.0392874	-1.03711	0.110107	0.489746	
75	0.971328	-0.22519	0.0283649	0.0707617	-1.35436	-4.84075	9.79537	-0.0366644	0.0690621	0.0346406	0.637939	0.361328	-0.89624	0.601495	-0.742158	-0.284574	-0.0801436	4.52719	-8.34994	-2.64904	-0.021055	0.0166003	-0.0216442	0.0678711	0.981934	0.25293	0.814173	-0.160936	0.532542	0.166193	-9.10707	-1.37191	4.35261	-0.113937	0.0610401	-0.00212731	0.996582	-0.189453	-0.0112305	0.646265	0.417902	0.568635	-0.290438	-9.56679	2.16725	-0.144242	-0.0675005	-0.00655402	-0.0608295	1.01904	0.269287	0.154297	0.153559	-0.702111	-0.0984656	-0.688305	10.0199	-0.759982	0.250247	0.106764	0.00205892	-0.0141378	-0.97583	0.268555	0.470947	-0.306706	-0.497116	0.52275	-0.620918	9.80139	-1.36536	2.53204	0.0165831	-0.00900435	-0.0245972	-1.10571	-0.261475	0.248047	0.446892	-0.824478	-0.345444	0.0345186	2.04203	-7.23489	-5.69349	-0.0230874	-0.00966822	0.00600721	0.121826	0.989258	0.437988	0.605803	-0.712525	-0.190704	-0.298232	6.55885	-7.0986	-0.60587	-0.0555198	0.0456052	-0.0271585	-0.355225	1.01318	0.205566	0.616662	-0.715228	-0.265806	-0.193713	6.03858	-7.60846	-1.41858	-0.0237314	0.0035274	-0.00632537	-0.299561	1.02075	0.185059	0.350593	0.0357976	-0.0886553	-0.931635	1.05522	1.97344	10.2711	0.0572243	0.00689305	0.0149504	-0.393799	0.106934	-0.994141	0.152723	-0.681689	-0.3218	-0.639077	9.53573	2.25025	-1.32339	0.00200165	-0.000133566	0.0262219	-1.03711	0.105713	0.494385	
76	0.970901	-0.226754	0.0284551	0.0715807	-1.54635	-4.9831	9.78786	-0.0742881	-0.0415065	0.0328644	0.648926	0.36377	-0.89624	0.601208	-0.742319	-0.284745	-0.0801981	4.44706	-8.09532	-2.60496	-0.0465042	0.0222836	-0.0338393	0.0651855	0.990723	0.250244	0.813537	-0.162182	0.533304	0.165655	-8.89316	-1.33619	4.1773	0.0127467	0.0654064	-0.0269209	0.996582	-0.19165	-0.0180664	0.646864	0.416276	0.569126	-0.290477	-9.37934	1.8652	-0.11248	-0.0494997	-0.0213355	-0.032668	1.01489	0.26709	0.149902	0.155196	-0.701822	-0.0992172	-0.688125	9.94923	-1.06556	-0.228608	0.0700992	0.00266614	0.0460503	-0.969727	0.277344	0.475342	-0.30679	-0.497275	0.522345	-0.62109	9.90693	-1.488	2.66741	0.00419985	0.0105322	-0.0143446	-1.11255	-0.255127	0.24585	0.446908	-0.824417	-0.345505	0.0351603	2.38351	-7.15755	-5.50539	0.0488944	0.012979	-0.0147868	0.117676	0.987305	0.436035	0.60533	-0.712955	-0.189817	-0.298732	6.51909	-7.08063	-0.96379	0.016585	0.0611864	-0.00612208	-0.353027	1.01099	0.215088	0.6162	-0.715569	-0.266143	-0.193458	5.99895	-7.05506	-1.5175	-0.0605226	-0.0136668	-0.0135895	-0.308594	1.01392	0.185303	0.350593	0.0357976	-0.0886553	-0.931635	1.05522	1.97344	10.2711	0.0572243	0.00689305	0.0149504	-0.393799	0.106934	-0.994141	0.153044	-0.681974	-0.320954	-0.639122	9.76415	1.80615	-1.31138	-0.0354867	0.0107902	0.0190834	-1.03711	0.110107	0.499023	
77	0.970537	-0.228264	0.026397	0.0725094	-0.721486	-4.88591	9.66394	-0.0750785	-0.0780634	0.0194306	0.644043	0.374512	-0.898438	0.600741	-0.742527	-0.285328	-0.0797003	4.64074	-8.46279	-2.46761	0.00954305	-0.00111851	-0.0146131	0.067627	0.988525	0.250244	0.813685	-0.162945	0.533069	0.164935	-9.14345	-1.5594	4.12187	0.00199777	0.00609544	-0.0450024	0.994385	-0.185059	-0.0112305	0.647205	0.415788	0.568249	-0.292128	-9.69439	1.61536	-0.151692	0.0330067	-0.0765781	-0.0211828	1.01953	0.262939	0.143311	0.156937	-0.701415	-0.100173	-0.688007	9.74044	-0.480117	-0.0921274	0.0452137	0.00656925	-0.00955119	-0.971436	0.268555	0.466309	-0.307116	-0.498021	0.51973	-0.622523	9.642	-1.43756	2.63449	0.0508452	0.0436668	-0.0464749	-1.10571	-0.259277	0.252197	0.446732	-0.824733	-0.345055	0.0343974	2.23279	-7.27265	-5.68447	0.0286828	0.0635564	-0.0104732	0.119873	0.985107	0.442383	0.605882	-0.712471	-0.189727	-0.298825	6.63968	-6.86903	-0.848531	0.0230146	0.0153453	-0.00507177	-0.35083	1.01123	0.208008	0.616262	-0.715524	-0.266477	-0.192968	5.9038	-7.37262	-1.62573	0.0885206	-0.0172141	-0.0200594	-0.302002	1.02075	0.182861	0.350593	0.0357976	-0.0886553	-0.931635	1.05522	1.97344	10.2711	0.0572243	0.00689305	0.0149504	-0.393799	0.106934	-0.994141	0.153216	-0.682316	-0.320749	-0.638819	9.46246	1.97103	-1.16583	0.0025492	-0.00731257	0.000374967	-1.03491	0.10791	0.494385	
78	0.970145	-0.229826	0.0261694	0.0728919	-0.971805	-5.03424	9.46821	-0.0552186	-0.0114729	-0.00140091	0.641846	0.372314	-0.898438	0.601037	-0.742215	-0.285485	-0.0798064	4.53442	-8.34682	-2.52388	0.0263014	0.0207086	-0.0356096	0.0698242	0.986328	0.252686	0.813998	-0.162961	0.53276	0.164372	-9.15986	-1.34173	4.04548	0.0281984	-0.016754	-0.0372363	0.994385	-0.187256	-0.0090332	0.649248	0.414742	0.566055	-0.293338	-9.46671	1.69444	0.0459541	-0.0311926	-0.140791	0.00832491	1.02368	0.269531	0.138916	0.156886	-0.701629	-0.0993616	-0.687918	10.0512	-0.792992	-0.210332	-0.0509172	0.00124871	0.0348069	-0.969482	0.275146	0.470947	-0.307224	-0.498317	0.51871	-0.623084	9.90206	-1.31685	2.64444	0.00515656	0.0322206	-0.0231427	-1.10815	-0.257324	0.24585	0.447401	-0.824279	-0.345284	0.034297	2.42877	-7.1961	-5.50419	0.0310064	0.0486889	-0.0376916	0.124268	0.985107	0.437988	0.606365	-0.71204	-0.189655	-0.298918	6.54237	-6.97665	-0.844174	0.0489702	0.0435307	-0.00928696	-0.348877	1.01538	0.210205	0.615875	-0.716083	-0.26607	-0.192693	5.98024	-7.59612	-1.84621	-0.021441	0.0107995	0.0080204	-0.296875	1.01172	0.183105	0.350593	0.0357976	-0.0886553	-0.931635	1.05522	1.97344	10.2711	0.0572243	0.00689305	0.0149504	-0.393799	0.106934	-0.994141	0.153429	-0.682392	-0.32115	-0.638486	9.75723	1.72449	-1.27702	0.0412374	-0.0128195	-0.0100615	-1.03516	0.112305	0.501221	
79	0.969968	-0.230676	0.0265139	0.0724428	-0.695364	-4.81761	9.50189	-0.06362	0.0328965	-0.0314396	0.641846	0.372314	-0.89624	0.601136	-0.741695	-0.286488	-0.0803031	4.5653	-8.30867	-2.58575	0.00889832	0.00164587	-0.0643186	0.067627	0.988525	0.252686	0.814952	-0.164258	0.530768	0.164798	-9.10401	-1.52213	4.14423	-0.0408112	-0.0854923	-0.0249838	0.996582	-0.185059	-0.0136719	0.650447	0.414154	0.564844	-0.293848	-9.57246	1.67232	0.054178	-0.025568	-0.143191	0.0173961	1.02148	0.267334	0.136719	0.155958	-0.702006	-0.0992748	-0.687757	9.68959	-0.6355	-0.0259531	-0.0345037	-0.0294738	-0.0641172	-0.976074	0.272949	0.470947	-0.30728	-0.498468	0.518404	-0.62319	9.80175	-1.53319	2.85578	0.00118523	0.0150583	-0.0244468	-1.10791	-0.259277	0.243652	0.447897	-0.823725	-0.346021	0.033697	2.36366	-7.2499	-5.4384	0.023867	0.0169795	-0.0651515	0.115234	0.989258	0.440186	0.606728	-0.711919	-0.189906	-0.298308	6.52889	-6.94073	-0.739848	0.0575604	-0.0140261	0.004949	-0.348877	1.01538	0.212646	0.616638	-0.715724	-0.265595	-0.19224	5.95764	-7.18676	-1.45138	0.0189388	0.0190063	0.0162962	-0.299316	1.01392	0.1875	0.350593	0.0357976	-0.0886553	-0.931635	1.05522	1.97344	10.2711	0.0572243	0.00689305	0.0149504	-0.393799	0.106934	-0.994141	0.154039	-0.682752	-0.321964	-0.637543	9.38114	2.02905	-1.41128	0.0281699	-0.0200423	-0.00581185	-1.03491	0.110107	0.503418	
80	0.969418	-0.233331	0.0277356	0.0708316	-1.10127	-5.09505	9.4309	-0.0992487	0.051075	-0.0633429	0.643799	0.376709	-0.894043	0.601323	-0.741246	-0.287114	-0.080815	4.50607	-8.18348	-2.67969	-0.00728903	0.00325687	-0.0444558	0.059082	0.984131	0.255127	0.816408	-0.164242	0.528755	0.164076	-8.91481	-1.19934	4.59615	0.00142167	-0.0782391	-0.0456014	1.00073	-0.180908	-0.0251465	0.652607	0.41417	0.562187	-0.294131	-9.36765	2.066	0.199601	0.00939458	-0.0988108	0.0820523	1.02344	0.271729	0.125488	0.157518	-0.701994	-0.0994886	-0.687383	9.90739	-1.06491	-0.125793	0.0951934	0.0182274	0.0299546	-0.969727	0.277344	0.470947	-0.306785	-0.4995	0.517271	-0.623549	9.79213	-1.48308	2.6871	0.0583424	0.00311643	-0.024884	-1.10376	-0.25708	0.25	0.44853	-0.823172	-0.346516	0.0336849	2.16493	-7.21906	-5.68621	0.0588114	-0.0105911	-0.0399947	0.115234	0.993652	0.437988	0.607949	-0.710722	-0.189937	-0.298658	6.54478	-7.18292	-0.642945	0.0202297	0.0677783	-0.0222781	-0.35083	1.01123	0.200928	0.617527	-0.715221	-0.265402	-0.191525	5.78731	-7.81537	-1.60977	0.0717677	0.000350744	-0.00382328	-0.301514	1.01392	0.185303	0.350593	0.0357976	-0.0886553	-0.931635	1.05522	1.97344	10.2711	0.0572243	0.00689305	0.0149504	-0.393799	0.106934	-0.994141	0.154178	-0.682764	-0.323131	-0.636906	9.69395	2.09303	-1.33601	0.0925185	-0.0171437	-0.00840539	-1.03735	0.112305	0.496582	
81	0.969187	-0.234476	0.0285962	0.0698567	-0.722627	-5.11891	9.5216	-0.0836775	0.0846933	-0.0627896	0.650391	0.378906	-0.885498	0.601442	-0.740807	-0.288007	-0.0807699	4.74449	-8.27717	-2.56754	0.0190853	0.00731229	-0.0466175	0.0632324	0.986328	0.252686	0.817724	-0.163997	0.527193	0.162789	-9.16592	-1.59364	4.38519	0.0857409	-0.0577117	-0.0446039	0.996338	-0.174316	-0.0275879	0.653662	0.415339	0.560017	-0.294279	-9.73874	2.4394	0.303561	0.0460422	-0.0565908	0.0595919	1.02148	0.267334	0.130127	0.159079	-0.701795	-0.100847	-0.687029	10.025	-0.749168	0.111375	0.0293949	0.00523125	0.0362356	-0.971924	0.279541	0.466309	-0.306677	-0.500081	0.516091	-0.624114	9.84395	-1.45008	2.45363	0.0119409	0.033251	-0.0377644	-1.1145	-0.259277	0.248047	0.448524	-0.822686	-0.347583	0.0346473	2.33887	-7.10692	-5.39546	0.0344954	-0.0324704	-0.0266484	0.117676	0.98291	0.442383	0.608683	-0.710182	-0.1894	-0.298787	6.67363	-7.23139	-0.847158	0.0543429	0.0351436	0.000714045	-0.35083	1.01123	0.19873	0.616948	-0.715943	-0.264811	-0.191511	6.03409	-7.77878	-1.66408	-0.0869405	0.0195085	0.00720059	-0.299561	1.02075	0.182861	0.350593	0.0357976	-0.0886553	-0.931635	1.05522	1.97344	10.2711	0.0572243	0.00689305	0.0149504	-0.393799	0.106934	-0.994141	0.153622	-0.682973	-0.322492	-0.63714	9.47263	2.1008	-1.62521	-0.0742977	0.0181945	-0.00129917	-1.03711	0.110107	0.496582	
82	0.969201	-0.234345	0.0325849	0.0683413	-1.27127	-5.26535	9.60782	0.0711874	0.0629765	0.00243286	0.656982	0.378906	-0.883301	0.600967	-0.74123	-0.287842	-0.0810137	4.46638	-8.447	-2.56566	-0.0363022	0.00565633	-0.00836526	0.0632324	0.986328	0.248047	0.818278	-0.164268	0.526418	0.162238	-8.96967	-1.35478	4.75999	-0.043259	-0.0113917	-0.0113779	1.00073	-0.176514	-0.020752	0.654609	0.415252	0.559114	-0.294014	-9.54878	2.6816	0.491843	-0.0565815	-0.0206879	0.0279101	1.02173	0.260986	0.123535	0.16019	-0.70139	-0.100479	-0.687237	9.76914	-0.557156	-0.441399	0.039995	0.0233919	-0.0130369	-0.967773	0.283936	0.46167	-0.306703	-0.500793	0.514604	-0.624758	9.72845	-1.15837	2.76127	0.0418037	0.00350215	-0.0306222	-1.10156	-0.25708	0.25	0.447433	-0.823088	-0.347905	0.0359574	2.0998	-7.51863	-5.4969	-0.0279696	-0.0695285	0.00403752	0.12207	0.98291	0.438232	0.608219	-0.710452	-0.18944	-0.299064	6.38463	-7.05923	-0.704692	-0.070283	0.0111628	-0.0129721	-0.35083	1.01123	0.200928	0.617211	-0.71562	-0.264985	-0.191629	5.88229	-7.09733	-1.50704	0.00102428	0.0134991	-0.0248922	-0.294922	1.01855	0.180664	0.350593	0.0357976	-0.0886553	-0.931635	1.05522	1.97344	10.2711	0.0572243	0.00689305	0.0149504	-0.393799	0.106934	-0.994141	0.154537	-0.682979	-0.321949	-0.637187	9.67009	2.31369	-1.56157	0.0130352	0.0308661	0.0483021	-1.03516	0.114502	0.501221	
83	0.969626	-0.232412	0.034736	0.0678563	-1.41235	-4.89803	9.62611	0.0810773	0.0783139	0.00131501	0.657227	0.374756	-0.887451	0.601315	-0.74125	-0.287141	-0.0807353	4.54495	-8.22373	-2.57036	0.010042	0.038214	0.0144733	0.0632324	0.988525	0.245605	0.817812	-0.164908	0.527079	0.161792	-8.94122	-1.65342	4.24209	0.0533689	0.0699105	-0.0108119	0.998535	-0.178711	-0.020752	0.653733	0.415632	0.559587	-0.294524	-9.65973	2.46818	0.377565	0.027115	0.0303642	-0.0219268	1.02832	0.263184	0.125732	0.161348	-0.701333	-0.10197	-0.686805	10.0539	-0.893029	-0.020136	0.0900534	0.00799167	-0.00851849	-0.969727	0.279541	0.464111	-0.30504	-0.501702	0.514359	-0.625044	9.8311	-1.5116	2.59972	0.0408386	-0.0400934	0.0151625	-1.10596	-0.25708	0.254395	0.447506	-0.823284	-0.347198	0.0373462	2.32997	-7.11797	-5.29933	0.0135506	-0.0213397	0.0311841	0.115234	0.991455	0.435791	0.607656	-0.711033	-0.188884	-0.299182	6.2631	-7.07727	-0.646722	-0.04065	0.0057481	-0.0110432	-0.348877	1.01343	0.205566	0.616146	-0.71655	-0.264598	-0.192116	5.87821	-7.95322	-1.70263	-0.118772	0.0192258	-0.0167502	-0.297119	1.01636	0.185303	0.350593	0.0357976	-0.0886553	-0.931635	1.05522	1.97344	10.2711	0.0572243	0.00689305	0.0149504	-0.393799	0.106934	-0.994141	0.154478	-0.683137	-0.319856	-0.638085	9.5116	1.67747	-1.27953	-0.00405869	0.0388316	0.0441878	-1.03516	0.112305	0.494385	
84	0.969999	-0.230909	0.035979	0.0669954	-1.1449	-4.67421	9.64449	0.062856	0.0421118	-0.0342306	0.657471	0.368164	-0.887451	0.601469	-0.741106	-0.287152	-0.0808806	4.68709	-8.31621	-2.49315	-0.00303408	0.0137995	-0.0245749	0.0632324	0.984131	0.25293	0.817316	-0.164201	0.528185	0.161411	-9.04945	-1.31788	4.54546	-0.0147705	0.0443187	0.0207195	0.996338	-0.174316	-0.0253906	0.652899	0.414499	0.561315	-0.294684	-9.623	1.99838	0.0837027	-0.067702	0.0443001	-0.0633854	1.02393	0.262939	0.130127	0.161147	-0.70112	-0.101601	-0.687124	9.61729	-0.877169	-0.011714	-0.0791118	0.00393987	-0.00154024	-0.967773	0.286133	0.468506	-0.30399	-0.50263	0.513788	-0.62528	9.52273	-1.23581	2.34268	0.0289289	-0.0214164	-0.00892463	-1.10596	-0.255127	0.252197	0.447275	-0.823428	-0.34715	0.0373887	2.09013	-7.34377	-5.62091	-0.00700669	0.00425091	-0.00699127	0.119385	0.993652	0.437988	0.607474	-0.711251	-0.189403	-0.298702	6.6206	-7.03813	-0.806173	0.0466611	0.00260532	-0.0218441	-0.351074	1.01318	0.210205	0.615994	-0.716478	-0.264846	-0.192527	5.799	-7.48372	-1.67172	-0.00263582	0.00901462	-0.0281863	-0.302002	1.02075	0.189697	0.350593	0.0357976	-0.0886553	-0.931635	1.05522	1.97344	10.2711	0.0572243	0.00689305	0.0149504	-0.393799	0.106934	-0.994141	0.154156	-0.683019	-0.318966	-0.638735	9.72101	1.43898	-1.20374	-0.0468	0.0265968	0.00668811	-1.03271	0.110107	0.494385	
85	0.970104	-0.230579	0.0365792	0.0662856	-1.08971	-4.8606	9.57505	0.0158319	0.015304	-0.0138656	0.65918	0.376709	-0.878906	0.602197	-0.740668	-0.286856	-0.0805199	4.53703	-8.24186	-2.55621	0.0305056	0.00700868	-0.0033754	0.0585938	0.99292	0.247803	0.816699	-0.166017	0.528251	0.162453	-8.92068	-1.53854	4.29037	-0.04922	0.0150721	0.00905826	1.00293	-0.183105	-0.0183105	0.653219	0.413382	0.561717	-0.294777	-9.38731	1.86342	0.127426	-0.0510463	-0.0140744	-0.0174897	1.02344	0.273926	0.127686	0.162296	-0.700801	-0.102087	-0.687107	9.7613	-1.04218	-0.269949	0.0466608	0.014215	0.0110769	-0.969971	0.281738	0.464111	-0.302938	-0.503191	0.513585	-0.625506	9.72971	-1.43839	2.6182	0.0429421	-0.0210273	0.00438737	-1.1123	-0.255127	0.256348	0.447828	-0.823201	-0.347	0.0371737	2.41335	-7.22082	-5.44095	0.040764	0.0268374	-0.0126815	0.124023	0.989502	0.435791	0.607374	-0.711246	-0.190888	-0.297971	6.73894	-6.88386	-0.929177	0.0327671	-0.0387533	-0.0278261	-0.355225	1.01123	0.205566	0.616086	-0.71659	-0.264424	-0.1924	6.11863	-7.39004	-1.59211	0.0186535	0.014556	-0.000470286	-0.294922	1.02075	0.185059	0.350593	0.0357976	-0.0886553	-0.931635	1.05522	1.97344	10.2711	0.0572243	0.00689305	0.0149504	-0.393799	0.106934	-0.994141	0.154514	-0.68274	-0.319794	-0.638532	9.62919	1.82405	-1.18431	0.0452025	0.00923224	-0.0337974	-1.03711	0.110107	0.501221	
86	0.970205	-0.229642	0.0384455	0.0670002	-1.002	-4.70433	9.55709	0.0501034	0.0766578	0.058613	0.668457	0.368164	-0.880859	0.603345	-0.739733	-0.287018	-0.0799459	4.81334	-8.21519	-2.51208	0.050208	0.0169464	-0.0158883	0.0632324	0.986328	0.245605	0.81688	-0.166244	0.527874	0.162537	-9.00049	-1.50627	4.3172	-0.0146233	-0.0212206	-0.00431811	1.00049	-0.174316	-0.0161133	0.654738	0.411952	0.561663	-0.293509	-9.59463	1.75078	0.0831543	-0.0943877	-0.0286179	0.0214108	1.02148	0.265137	0.12793	0.162662	-0.700857	-0.103093	-0.686813	9.88922	-0.931191	0.213585	0.0192542	-0.00486093	0.000106257	-0.967773	0.283936	0.466309	-0.302938	-0.503191	0.513585	-0.625506	9.72971	-1.43839	2.6182	0.0429421	-0.0210273	0.00438737	-1.1123	-0.255127	0.256348	0.448893	-0.822651	-0.346964	0.0368285	2.40281	-7.21291	-5.47023	0.052823	0.0351222	-0.0452413	0.121582	0.993652	0.431396	0.607912	-0.710803	-0.190977	-0.297875	6.59409	-7.00373	-0.989662	0.0600139	0.0254401	-0.0077393	-0.359619	1.01343	0.200928	0.616342	-0.716448	-0.264049	-0.192622	5.76537	-7.87524	-1.77458	0.0108529	0.03045	-0.0160177	-0.292725	1.021	0.182861	0.350593	0.0357976	-0.0886553	-0.931635	1.05522	1.97344	10.2711	0.0572243	0.00689305	0.0149504	-0.393799	0.106934	-0.994141	0.155245	-0.682691	-0.32087	-0.637867	9.72905	2.10195	-1.39761	0.0305998	-0.00282406	-0.00543175	-1.03955	0.114502	0.491943	
