40	Head	00b4120a												Throax	00b411e8												RUpArm	00b411d9												RFoArm	00b41148												LUpArm	00b411db												LFoArm	00b41204												Waist	00b411f7												Rthigh	00b411f4												Rshank	00b4111b												Lthigh	00b411c8												Lshank	00b411ee												
PacketCount	q0	q1	q2	q3	accX	accY	accZ	gyrX	gyrY	gyrZ	magX	magY	magZ	q0	q1	q2	q3	accX	accY	accZ	gyrX	gyrY	gyrZ	magX	magY	magZ	q0	q1	q2	q3	accX	accY	accZ	gyrX	gyrY	gyrZ	magX	magY	magZ	q0	q1	q2	q3	accX	accY	accZ	gyrX	gyrY	gyrZ	magX	magY	magZ	q0	q1	q2	q3	accX	accY	accZ	gyrX	gyrY	gyrZ	magX	magY	magZ	q0	q1	q2	q3	accX	accY	accZ	gyrX	gyrY	gyrZ	magX	magY	magZ	q0	q1	q2	q3	accX	accY	accZ	gyrX	gyrY	gyrZ	magX	magY	magZ	q0	q1	q2	q3	accX	accY	accZ	gyrX	gyrY	gyrZ	magX	magY	magZ	q0	q1	q2	q3	accX	accY	accZ	gyrX	gyrY	gyrZ	magX	magY	magZ	q0	q1	q2	q3	accX	accY	accZ	gyrX	gyrY	gyrZ	magX	magY	magZ	q0	q1	q2	q3	accX	accY	accZ	gyrX	gyrY	gyrZ	magX	magY	magZ	
57909	0.605595	-0.307568	-0.447756	-0.581525	9.18175	1.49738	4.18222	-0.0534592	0.00842988	0.103292	-0.807617	0.270508	-0.4375	0.555175	-0.379316	-0.407788	-0.617746	9.06923	0.815201	3.75068	-0.066597	0.0982392	-0.0389808	-0.760986	0.243652	-0.302979	0.741675	-0.0585194	-0.413277	-0.525067	6.98254	3.59859	6.76166	-0.082918	0.0548538	-0.0810795	-0.669922	-0.125977	-0.84375	0.183744	0.410433	0.201064	-0.870262	-7.71532	-1.9565	5.6997	0.0257847	0.00947573	-0.0923905	0.494141	0.433105	-0.870605	0.569344	-0.394935	-0.181271	-0.697864	7.40408	-1.92772	6.0743	-0.0957705	-0.0323493	-0.0123785	-0.697266	0.580566	-0.422119	0.957478	-0.0725473	0.279123	0.0079257	-6.63352	-1.66493	10.3015	0.012124	0.0845596	-0.0407642	0.966309	0.0700684	-0.395508	0.408514	-0.528321	-0.433839	-0.604795	9.48493	0.888598	0.629752	0.068535	0.057959	0.0077927	-0.942139	0.333496	0.0568848	0.409383	-0.538431	-0.508795	-0.532565	10.0057	1.01979	-0.989539	0.183334	-0.00991087	-0.00399108	-1.01221	0.35376	0.158936	0.332474	-0.538172	-0.435789	-0.64025	9.71283	1.98427	0.396434	0.117334	-0.05454	0.0188883	-1.06665	0.145264	0.105469	0.370886	-0.30072	-0.0856514	-0.874457	5.93457	-0.738784	8.101	-0.047815	0.0142633	-0.0516031	-0.795898	0.397949	-0.541016	0.177523	-0.937242	-0.299214	-0.0231142	1.44466	-3.09037	-9.06131	0.0124773	-0.0113727	0.0554413	0.1875	0.564697	0.912109	
57910	0.605805	-0.308478	-0.44689	-0.58149	9.19891	1.33504	4.17458	-0.0779805	0.00628846	0.0653486	-0.810059	0.274902	-0.4375	0.555017	-0.37896	-0.406889	-0.618699	9.0104	0.801321	3.72504	-0.0645253	0.0813042	-0.0344541	-0.756836	0.24585	-0.30542	0.741819	-0.0575263	-0.412521	-0.525568	6.91425	3.76041	6.77234	0.011312	0.093654	-0.0529403	-0.674072	-0.125732	-0.848389	0.182601	0.409989	0.201764	-0.87055	-7.695	-2.05167	5.4307	-0.0130819	-0.0117072	-0.113942	0.489502	0.439453	-0.866211	0.568522	-0.395477	-0.180557	-0.698413	7.43224	-1.99367	6.20349	-0.0984766	0.00763917	-0.0404547	-0.699463	0.578369	-0.417725	0.957334	-0.0720581	0.27976	0.00730472	-6.81171	-1.4993	10.1765	0.0509075	0.0553661	-0.0328485	0.968506	0.0700684	-0.391357	0.408395	-0.52851	-0.433309	-0.60509	9.6319	0.772129	0.612773	-0.0470617	0.0165143	0.013528	-0.944092	0.331299	0.059082	0.409849	-0.537851	-0.509401	-0.532213	9.48951	1.07669	-0.755523	0.0792301	0.00868687	-0.0183478	-1.01221	0.351562	0.149658	0.334561	-0.537054	-0.438513	-0.638238	9.70644	1.8666	0.544878	0.329269	-0.0290607	0.0041906	-1.06934	0.149658	0.107666	0.370033	-0.301405	-0.08556	-0.874592	5.78843	-0.840517	8.15815	-0.0481625	-0.0477721	-0.056827	-0.79126	0.395752	-0.541016	0.177743	-0.937466	-0.298448	-0.0222113	1.60856	-2.83452	-8.95021	0.0335156	-0.0519674	0.076041	0.192139	0.564697	0.916748	
57911	0.60558	-0.309011	-0.446216	-0.581959	9.14006	1.24022	4.15118	-0.0789069	0.0128508	0.00231759	-0.80542	0.272705	-0.431152	0.554806	-0.378745	-0.406136	-0.619513	9.05015	0.786375	3.82748	-0.0606033	0.0616314	-0.0311124	-0.758789	0.24585	-0.300781	0.741945	-0.0572486	-0.41142	-0.526284	6.87713	4.07261	6.75671	-0.0514477	0.088877	-0.0430883	-0.669922	-0.128174	-0.84375	0.181356	0.409453	0.202328	-0.870931	-7.65698	-2.04381	5.41998	0.00682856	-0.0241751	-0.116832	0.489746	0.433105	-0.872803	0.567854	-0.395472	-0.17982	-0.699148	7.42896	-2.09167	6.14964	-0.0712975	0.0512818	-0.0445995	-0.699707	0.587158	-0.413086	0.957337	-0.0712108	0.27998	0.0068166	-6.80653	-1.53593	10.2527	0.075965	0.018548	-0.0171062	0.964111	0.0700684	-0.395508	0.408683	-0.528126	-0.432822	-0.605579	9.821	0.609596	0.428785	-0.0146245	0.0683902	0.00644255	-0.944092	0.331299	0.059082	0.410639	-0.5377	-0.509763	-0.531411	9.48121	1.20298	-0.600546	0.0834048	-0.0181189	0.0376917	-1.01196	0.351562	0.156738	0.335435	-0.53653	-0.439677	-0.637419	9.45481	3.32095	0.90267	0.139971	-0.00753439	-0.00176197	-1.05981	0.145264	0.101074	0.369763	-0.302464	-0.0853715	-0.874358	5.94938	-0.893308	8.06587	-0.0488087	-0.0786774	-0.00301254	-0.797852	0.393555	-0.547852	0.177488	-0.937714	-0.297906	-0.0210334	1.61191	-2.80459	-8.93313	0.00860832	-0.0853136	0.0608548	0.194092	0.569336	0.921143	
57912	0.604942	-0.3092	-0.445832	-0.582816	9.17108	1.29768	4.18529	-0.0716095	0.0126774	-0.0557682	-0.812012	0.272705	-0.435547	0.554622	-0.378565	-0.405332	-0.620313	9.05324	0.826931	3.87549	-0.0633371	0.0626645	-0.0261843	-0.760986	0.24585	-0.302979	0.741727	-0.0582063	-0.409837	-0.527719	6.81199	3.9489	6.58764	-0.171445	0.0571144	-0.0560847	-0.667725	-0.123779	-0.848389	0.180346	0.408985	0.202809	-0.871249	-7.5995	-2.04299	5.54006	-0.00588443	-0.0187657	-0.0995318	0.480469	0.44165	-0.87085	0.567604	-0.394881	-0.179326	-0.699812	7.37481	-2.12324	6.08075	-0.0162509	0.0769208	-0.0342684	-0.70166	0.582764	-0.415283	0.9574	-0.0701268	0.280048	0.00642654	-6.77195	-1.51064	10.3627	0.0917355	0.00479148	-0.00573215	0.966309	0.0656738	-0.395508	0.409052	-0.527599	-0.432831	-0.605783	9.68832	0.74615	0.510517	0.0278314	0.0518103	-0.00719511	-0.944092	0.329102	0.059082	0.409888	-0.538475	-0.508922	-0.53201	9.58917	1.22194	-0.473457	-0.117806	-0.0116196	0.0170119	-1.00757	0.345215	0.156738	0.333568	-0.537685	-0.437491	-0.638928	9.25597	2.9696	0.866506	-0.27598	-0.00600237	0.00220345	-1.06445	0.147461	0.103271	0.369259	-0.303321	-0.085685	-0.874244	6.06418	-0.871094	8.12523	-0.0141438	-0.0760673	-0.0347608	-0.804688	0.393311	-0.541016	0.176919	-0.937939	-0.297607	-0.0200094	1.78055	-3.22536	-8.83787	-0.0200896	-0.0867392	0.0412126	0.198975	0.560547	0.916748	
57913	0.604251	-0.309353	-0.445351	-0.583819	9.33282	1.36601	4.28975	-0.0809686	0.0192054	-0.0651629	-0.812012	0.272705	-0.441895	0.554454	-0.378245	-0.40461	-0.62113	9.0454	0.885559	3.86503	-0.0531527	0.0664344	-0.0331345	-0.756836	0.24585	-0.30542	0.741459	-0.0588179	-0.408675	-0.528927	6.76292	3.61119	6.46724	-0.128201	0.0426492	-0.0557401	-0.665527	-0.123779	-0.848389	0.179521	0.408771	0.203412	-0.871379	-7.5288	-2.08503	5.52401	-0.0131262	0.000837188	-0.0812771	0.487305	0.435059	-0.866211	0.567358	-0.394189	-0.178869	-0.700518	7.45414	-2.04209	6.1335	-0.00894791	0.0834447	-0.0385311	-0.703857	0.578369	-0.419922	0.957486	-0.0688864	0.280071	0.00603092	-6.79636	-1.45113	10.167	0.101664	0.000946513	-0.00728637	0.964111	0.0722656	-0.391357	0.409042	-0.527496	-0.432656	-0.606005	9.58104	1.01422	0.489994	-0.0110195	0.0274216	-0.00405763	-0.944092	0.331299	0.0568848	0.408878	-0.539594	-0.507454	-0.533054	9.8919	0.650057	-0.297003	-0.184548	0.000162713	0.0338402	-1.00537	0.344971	0.163818	0.33249	-0.538322	-0.43654	-0.639603	9.8418	1.20657	0.632875	-0.135616	-0.0238069	-0.00051587	-1.0647	0.149902	0.105469	0.368917	-0.304073	-0.08517	-0.874177	6.28424	-0.701445	8.62552	-0.0661387	-0.0381437	-0.00118095	-0.800293	0.400146	-0.53418	0.1777	-0.937973	-0.297104	-0.0189529	2.22811	-3.42403	-8.99613	0.0888603	-0.0533281	0.0521383	0.198975	0.562744	0.916748	
57914	0.603726	-0.309266	-0.444718	-0.58489	9.2898	1.30711	4.35763	-0.0763189	0.0392218	-0.0664969	-0.812256	0.274902	-0.435547	0.554166	-0.377867	-0.404058	-0.621976	9.11493	0.923355	3.67823	-0.0468496	0.0582178	-0.0468359	-0.754639	0.24585	-0.307617	0.741309	-0.0582053	-0.408547	-0.529303	6.84472	3.72435	6.5261	0.0145663	0.0328232	-0.045281	-0.65918	-0.124023	-0.843994	0.178799	0.408915	0.203791	-0.871372	-7.68683	-2.08061	5.4033	-0.000728017	0.0264155	-0.0595022	0.485107	0.435059	-0.868408	0.566822	-0.393863	-0.178231	-0.701298	7.48704	-2.06456	6.12992	-0.0453772	0.069563	-0.0477847	-0.701904	0.584961	-0.417725	0.957552	-0.068324	0.279993	0.00552941	-6.87634	-1.44636	10.1104	0.0547814	-0.00832334	-0.0229084	0.966309	0.0678711	-0.391357	0.408302	-0.52816	-0.432178	-0.606266	9.93045	0.834128	0.463976	-0.0842243	-0.0246262	-0.00113073	-0.946289	0.333496	0.0612793	0.409322	-0.539684	-0.506569	-0.533465	9.91256	0.241815	-0.642386	-0.0347529	0.0576928	0.0472538	-1.00977	0.349365	0.156738	0.333126	-0.537581	-0.437854	-0.638998	9.78564	2.28423	0.763803	0.136278	-0.0101107	-0.0314788	-1.06445	0.147461	0.103271	0.368684	-0.304502	-0.0852365	-0.87412	6.17562	-0.81595	8.60694	-0.0128054	-0.036127	-0.0143039	-0.800293	0.400146	-0.53418	0.178973	-0.937995	-0.296324	-0.0180612	2.30128	-2.74259	-9.11266	0.117955	-0.0323975	0.0732096	0.189697	0.566895	0.909668	
57915	0.603153	-0.30911	-0.444404	-0.585801	9.10862	1.34014	4.31397	-0.0504144	0.0268796	-0.0731122	-0.816406	0.272705	-0.437744	0.553543	-0.377977	-0.40394	-0.62254	9.30257	0.75738	3.88931	-0.0484332	-0.00288016	-0.0473693	-0.762939	0.237061	-0.302734	0.74094	-0.0575458	-0.409112	-0.529456	7.06335	4.04975	6.57817	0.0507814	-0.014269	-0.0445909	-0.669922	-0.123779	-0.843994	0.178141	0.409508	0.203411	-0.871317	-7.85337	-2.07514	5.38177	0.0541234	0.0459313	-0.0226098	0.487549	0.433105	-0.872803	0.566385	-0.393705	-0.177982	-0.701803	7.49468	-2.15888	6.03188	-0.0238267	0.0345333	-0.0412714	-0.699463	0.578369	-0.422119	0.957559	-0.0682564	0.279992	0.00509199	-6.87248	-1.54238	10.2925	0.012245	-0.00368107	-0.0344227	0.964111	0.0700684	-0.393555	0.408411	-0.527821	-0.43229	-0.606408	10.2373	0.395721	0.277112	0.0177451	0.033162	-0.0159475	-0.941895	0.331299	0.0634766	0.409987	-0.539168	-0.507197	-0.532878	9.55163	0.860052	-0.430201	0.0969596	-0.00992712	-0.00879833	-1.00757	0.344971	0.161377	0.331815	-0.53808	-0.436616	-0.640105	9.71017	3.10147	0.82602	-0.170282	-0.0040883	-0.0211538	-1.06689	0.147461	0.107666	0.368029	-0.305092	-0.0849636	-0.874217	6.06308	-0.740989	8.42372	-0.0524029	-0.0386443	-0.0397384	-0.802734	0.400146	-0.538818	0.177469	-0.938535	-0.295504	-0.0182686	2.09455	-2.66674	-9.33693	-0.128617	-0.0285728	0.0766783	0.19873	0.569336	0.912109	
57916	0.602463	-0.309099	-0.444662	-0.58632	9.117	1.43959	4.323	-0.0187484	-0.0230444	-0.070087	-0.809814	0.272705	-0.431152	0.553348	-0.377997	-0.403629	-0.622903	9.40283	0.744978	3.99203	-0.0342417	0.0183913	-0.0155483	-0.754639	0.24585	-0.302979	0.740152	-0.0576906	-0.410023	-0.529838	7.19394	4.03951	6.65236	0.00678005	-0.0704443	-0.0517584	-0.672119	-0.119385	-0.85083	0.177718	0.410359	0.202575	-0.871197	-7.92019	-1.91395	5.58398	0.0789444	0.0528093	0.0129161	0.480713	0.432861	-0.866211	0.566305	-0.393457	-0.177999	-0.702002	7.41464	-1.98688	6.05714	0.0116541	0.022056	-0.02077	-0.701904	0.584961	-0.417725	0.957462	-0.0685052	0.28027	0.00474038	-6.78221	-1.53824	10.3789	-0.0140414	0.0174185	-0.0323403	0.964355	0.0656738	-0.388916	0.409142	-0.527078	-0.432704	-0.606266	9.89365	0.534234	0.3986	0.0824902	0.0596981	-0.00896477	-0.944336	0.337891	0.0588379	0.409809	-0.539503	-0.50754	-0.532349	9.53555	1.6536	-0.640236	0.0214511	-0.0670475	0.000256008	-1.00757	0.347168	0.166016	0.329821	-0.538851	-0.434454	-0.641955	9.37969	2.30321	0.515368	-0.279204	0.013398	-0.0132807	-1.06934	0.151855	0.109863	0.367416	-0.305403	-0.0840954	-0.87445	6.60365	-0.935573	8.57937	-0.0859593	-0.000750844	-0.0288041	-0.80249	0.397949	-0.536377	0.175551	-0.939027	-0.295043	-0.0189777	1.90754	-3.38675	-9.31777	-0.163889	-0.0120808	0.0435359	0.203613	0.556152	0.919189	
57917	0.601802	-0.309194	-0.445418	-0.586375	9.2437	1.54278	4.2844	0.0178964	-0.0618069	-0.0551151	-0.807373	0.266113	-0.431152	0.55349	-0.377989	-0.403008	-0.623184	9.28973	0.865116	3.98028	-0.0348284	0.0415922	0.0117588	-0.756836	0.250244	-0.303223	0.739336	-0.0576769	-0.411274	-0.530009	7.14496	3.83097	6.84447	0.0335267	-0.0840776	-0.0447058	-0.667725	-0.125977	-0.848389	0.177701	0.411165	0.202055	-0.870942	-7.86305	-2.02811	5.72171	0.0435492	0.0483771	0.031479	0.487305	0.435059	-0.868408	0.56602	-0.393562	-0.177442	-0.702314	7.46885	-1.87509	6.01546	-0.0430631	0.0320347	-0.0131595	-0.69751	0.584961	-0.419922	0.957273	-0.0687891	0.280851	0.00444048	-6.74553	-1.61955	10.3933	-0.0209224	0.0423419	-0.0330874	0.966309	0.0678711	-0.393311	0.409074	-0.527754	-0.432106	-0.606152	9.84242	0.959254	0.56522	-0.0494501	-0.00351042	0.0368149	-0.94458	0.342285	0.0566406	0.408535	-0.540541	-0.506569	-0.533201	9.8478	1.32335	-0.69262	-0.15823	-0.0388582	0.00328895	-1.00977	0.351562	0.168213	0.329539	-0.538136	-0.434295	-0.642808	9.87577	2.47159	1.27615	-0.0287924	0.0521057	-0.0342064	-1.06665	0.145264	0.103271	0.367208	-0.305422	-0.0840785	-0.874532	6.36223	-1.11765	8.72073	-0.0063195	-0.00235243	-0.01765	-0.800293	0.397949	-0.527344	0.176317	-0.938885	-0.295038	-0.0189841	1.93975	-3.45514	-9.30508	0.0707258	-0.00731156	0.00383341	0.205566	0.562744	0.912109	
57918	0.6015	-0.309198	-0.446201	-0.586088	9.30645	1.69967	4.18882	0.0430005	-0.0577957	-0.0244369	-0.809814	0.272705	-0.431152	0.553445	-0.378588	-0.401891	-0.623581	9.08486	0.872533	3.9518	-0.0958196	0.0302192	0.0319919	-0.756836	0.248047	-0.302979	0.738791	-0.057294	-0.41278	-0.529639	7.01304	3.90448	7.07693	0.0816078	-0.0820316	-0.011694	-0.678467	-0.12793	-0.84375	0.177596	0.411786	0.201495	-0.870799	-7.85423	-2.20328	5.586	0.0505708	0.0314328	0.022575	0.487549	0.433105	-0.875	0.565363	-0.394099	-0.176145	-0.702869	7.52948	-1.97692	5.95774	-0.121493	0.0420878	-0.0171091	-0.699463	0.580566	-0.419922	0.957041	-0.068807	0.28164	0.00401572	-6.7707	-1.72073	10.311	0.00262677	0.06047	-0.0347211	0.968506	0.0700684	-0.391357	0.408823	-0.528395	-0.431349	-0.6063	9.94252	0.738215	0.231407	-0.0744195	0.0056891	0.0250132	-0.937744	0.335693	0.0546875	0.406136	-0.542083	-0.504421	-0.535498	9.55182	1.32779	-0.176454	-0.331342	-0.00870483	-0.0165027	-1.00806	0.360352	0.163574	0.326564	-0.538212	-0.432019	-0.645789	8.88014	3.60865	1.24545	-0.345981	0.0521642	-0.105105	-1.06421	0.140625	0.10791	0.367207	-0.305304	-0.0838225	-0.874598	6.31867	-0.780151	8.55072	-0.0105131	0.0153991	0.00145637	-0.804932	0.404297	-0.534424	0.177492	-0.93864	-0.295085	-0.0193837	2.24457	-3.31767	-9.13424	0.0851897	0.0244656	-0.00480715	0.200928	0.569336	0.916504	
57919	0.601744	-0.309167	-0.446451	-0.585664	9.43495	1.85224	4.23572	0.0388327	-0.0129492	0.0186152	-0.816162	0.268311	-0.43335	0.553132	-0.379599	-0.400613	-0.624066	9.0986	0.812293	3.75423	-0.133386	0.0093231	0.0339255	-0.752441	0.250244	-0.298584	0.738313	-0.0576038	-0.413813	-0.529467	6.83529	4.16407	7.221	0.0167493	-0.0753691	0.00446141	-0.67627	-0.130127	-0.845947	0.176875	0.412026	0.200566	-0.871047	-7.83773	-2.28194	5.57446	0.0956258	-0.0026275	-0.0180159	0.492188	0.428711	-0.875	0.564636	-0.394553	-0.174793	-0.703535	7.49889	-2.11797	5.83166	-0.124776	0.056061	-0.0230994	-0.699463	0.582764	-0.413086	0.956794	-0.068484	0.282566	0.00339439	-6.75338	-1.70521	10.1916	0.0358169	0.0702483	-0.0389571	0.968262	0.0742188	-0.389404	0.40871	-0.528522	-0.431144	-0.606412	9.62037	0.772639	0.21921	-0.0256677	0.0196716	-0.00669628	-0.946289	0.333496	0.067627	0.40273	-0.544481	-0.500127	-0.539649	10.2066	1.22254	-0.364153	-0.570607	0.0472054	0.00917063	-1.00562	0.35376	0.177734	0.321126	-0.540809	-0.426751	-0.649836	9.96895	1.26596	-0.119056	-0.706277	-0.0441391	-0.0209485	-1.07104	0.140625	0.112305	0.367848	-0.304339	-0.0836778	-0.874679	6.81633	-0.6274	8.56429	0.0384403	0.0740101	0.0344313	-0.804688	0.397705	-0.53418	0.17955	-0.938266	-0.294956	-0.0205038	2.40251	-3.19826	-9.30437	0.131509	0.089421	0.000917055	0.19873	0.564941	0.914307	
57920	0.602222	-0.309464	-0.446268	-0.585154	9.26615	1.91882	4.31842	0.00829813	0.000324143	0.0626108	-0.814453	0.2771	-0.43335	0.552393	-0.381027	-0.399368	-0.624648	9.2995	0.819886	3.74113	-0.166453	-0.0213739	0.0208156	-0.75708	0.252441	-0.303223	0.737794	-0.0589933	-0.413276	-0.530456	7.03539	4.22442	7.17197	-0.154531	-0.0361906	-0.0166489	-0.674316	-0.121582	-0.846191	0.175673	0.411882	0.1996	-0.87158	-7.97666	-2.28883	5.59844	0.114062	-0.0358253	-0.0588652	0.48999	0.426514	-0.875	0.563851	-0.395047	-0.173565	-0.704191	7.76642	-2.04161	5.85501	-0.116681	0.0545212	-0.0307795	-0.701904	0.584961	-0.413086	0.95652	-0.0676109	0.283714	0.00208217	-6.8184	-1.86074	10.1986	0.0971784	0.0909148	-0.0729381	0.966309	0.0700684	-0.384766	0.407308	-0.530058	-0.430928	-0.606168	9.89602	0.748822	0.318583	-0.111945	-0.08898	-0.00981381	-0.946289	0.333496	0.0612793	0.400127	-0.546179	-0.496633	-0.543086	10.0231	0.0701005	-1.19374	-0.44229	0.0553811	0.00983036	-1.00977	0.347168	0.173096	0.319576	-0.540988	-0.425688	-0.651147	10.4645	0.589536	0.265382	-0.166414	-0.0026909	-0.0285172	-1.06641	0.140625	0.114502	0.367977	-0.303165	-0.0831551	-0.875082	6.38933	-0.711612	8.45654	-0.00248107	0.111961	0.0048968	-0.797852	0.393555	-0.536377	0.181735	-0.937914	-0.294627	-0.0220126	2.1401	-2.16338	-9.03114	0.136959	0.114385	0.00993494	0.19873	0.567139	0.912109	
57921	0.602498	-0.31062	-0.445925	-0.584518	9.14876	1.84039	4.25449	-0.0409923	-0.0439221	0.0955754	-0.809814	0.270508	-0.43335	0.551376	-0.382641	-0.398416	-0.625168	9.41126	0.664741	3.89469	-0.167034	-0.0506271	0.00700895	-0.754883	0.252441	-0.298584	0.737275	-0.0611248	-0.411732	-0.532134	7.33482	4.06342	6.98708	-0.262313	-0.0100447	-0.0254881	-0.676514	-0.119385	-0.841797	0.174211	0.411414	0.198356	-0.872378	-8.10932	-2.1832	5.7428	0.143963	-0.0692264	-0.0732264	0.483398	0.426514	-0.875	0.562483	-0.396557	-0.172189	-0.704774	7.71902	-1.96773	5.93686	-0.186976	0.0010919	-0.0416683	-0.699707	0.587158	-0.415283	0.956106	-0.0667316	0.285321	0.000224558	-6.80757	-1.82353	10.3678	0.111109	0.132571	-0.115654	0.968262	0.0722656	-0.382812	0.40671	-0.531211	-0.43097	-0.60553	10.3324	0.405487	0.178916	-0.042592	-0.0730768	0.0158144	-0.937988	0.342285	0.0651855	0.397926	-0.547269	-0.495208	-0.544904	9.18002	0.130911	-0.689078	-0.255307	-0.0394882	-0.0498195	-1.00537	0.349365	0.177734	0.317994	-0.541246	-0.42457	-0.652436	9.51237	2.80172	0.484999	-0.170509	0.00263794	-0.0548921	-1.06665	0.142822	0.114502	0.367656	-0.302198	-0.0827163	-0.875593	5.89588	-0.879941	8.19146	-0.0179744	0.0934951	-0.0284595	-0.798096	0.397949	-0.531982	0.180591	-0.938014	-0.294782	-0.0249209	1.51597	-2.59061	-9.27444	-0.136419	0.129199	-0.0389619	0.196777	0.560547	0.916748	
57922	0.602416	-0.312244	-0.4456	-0.583986	9.2071	1.69469	4.14793	-0.0813463	-0.0807675	0.101009	-0.81665	0.274658	-0.426758	0.550678	-0.384209	-0.39719	-0.625601	9.3413	0.583059	4.04253	-0.165305	-0.0269745	0.0314763	-0.75708	0.256836	-0.291748	0.736563	-0.0633251	-0.410383	-0.533902	7.22105	3.8458	6.84091	-0.265103	-0.0243408	-0.0347235	-0.676514	-0.11499	-0.841797	0.172506	0.410625	0.196972	-0.873402	-7.95208	-1.9498	5.83593	0.163687	-0.0970735	-0.0914549	0.485596	0.424316	-0.879395	0.560727	-0.398677	-0.170652	-0.70535	7.39864	-2.05592	5.96478	-0.238362	-0.0314539	-0.0506631	-0.704102	0.589355	-0.413086	0.955526	-0.0664785	0.287313	-0.00156032	-6.69534	-1.73854	10.3542	0.0640181	0.166008	-0.120937	0.96582	0.0786133	-0.383057	0.406867	-0.531759	-0.431154	-0.604812	9.92121	0.500432	0.3635	0.0198289	-0.0236362	0.0155171	-0.937744	0.335693	0.0695801	0.396099	-0.549236	-0.492802	-0.546436	9.59411	0.373449	-0.934144	-0.299291	-0.0395368	0.036726	-1.00732	0.344971	0.182373	0.314757	-0.542773	-0.420884	-0.65512	9.44908	2.79531	0.455641	-0.46009	0.00679536	-0.0133026	-1.06885	0.140625	0.116699	0.367179	-0.301155	-0.0828847	-0.876137	6.45368	-0.70232	8.21005	0.0282386	0.0823927	-0.0591612	-0.800293	0.395752	-0.538574	0.179001	-0.938375	-0.294376	-0.0274636	1.74426	-3.48902	-9.48559	-0.154831	0.102392	0.00975952	0.192383	0.558105	0.916748	
57923	0.602164	-0.314088	-0.445146	-0.583604	9.38015	1.61801	4.1666	-0.10592	-0.0810119	0.0989288	-0.814453	0.274902	-0.431152	0.550339	-0.385723	-0.395638	-0.625952	9.08421	0.629067	3.73363	-0.163786	-0.00255736	0.0578696	-0.757324	0.259033	-0.294189	0.735998	-0.065116	-0.409064	-0.535476	7.02487	3.76381	6.84793	-0.233272	-0.00326066	-0.0309422	-0.678711	-0.110596	-0.851074	0.17078	0.409469	0.196177	-0.874462	-7.75553	-1.85573	5.71517	0.117809	-0.117796	-0.120945	0.483398	0.426514	-0.883789	0.558825	-0.400649	-0.168881	-0.706169	7.22646	-2.11606	6.08192	-0.252068	-0.00481064	-0.0644709	-0.701904	0.589355	-0.401611	0.954932	-0.0659049	0.2894	-0.00317509	-6.78	-1.62199	10.2012	0.0880338	0.181214	-0.0942195	0.972412	0.076416	-0.378662	0.406061	-0.533332	-0.431057	-0.604037	9.28731	0.594071	0.504552	-0.0689657	-0.0946231	0.0199909	-0.942139	0.337891	0.0739746	0.394813	-0.550483	-0.49073	-0.547974	10.1337	1.13105	-1.36852	-0.237185	0.0056549	0.0113508	-1.00293	0.342773	0.184814	0.3133	-0.543241	-0.419088	-0.656581	9.97214	1.31282	0.44672	-0.217044	0.022936	0.00545521	-1.07324	0.135986	0.114502	0.367046	-0.300239	-0.0830775	-0.876488	6.46679	-0.85013	8.34498	0.0332218	0.0754311	-0.0276995	-0.797852	0.391357	-0.543213	0.181523	-0.937975	-0.294056	-0.0280009	1.44809	-3.54649	-9.59479	0.203574	0.0535549	0.0235411	0.1875	0.564697	0.914307	
57924	0.60208	-0.315772	-0.444373	-0.583371	9.37874	1.4433	4.1465	-0.118647	-0.0531116	0.103073	-0.814697	0.28125	-0.422607	0.549755	-0.387746	-0.394445	-0.625968	9.05677	0.646374	3.561	-0.164808	-0.0601298	0.0642077	-0.757324	0.26123	-0.289551	0.735643	-0.0669136	-0.4073	-0.537083	7.07032	3.85975	6.82453	-0.255946	0.0263197	-0.0207206	-0.674561	-0.102051	-0.844482	0.169148	0.408064	0.195827	-0.875514	-7.76169	-2.02968	5.61117	0.0814181	-0.129961	-0.134599	0.472656	0.419678	-0.881348	0.55699	-0.402491	-0.166871	-0.707048	7.50111	-2.3159	6.06826	-0.258326	0.0115639	-0.0581295	-0.704102	0.589355	-0.404053	0.954315	-0.0647359	0.291669	-0.00471992	-7.05613	-1.65114	10.0006	0.129688	0.190953	-0.0798719	0.972656	0.0744629	-0.374268	0.40476	-0.535849	-0.431312	-0.602499	9.74096	0.482607	0.0187077	-0.075824	-0.198694	0.0326292	-0.937744	0.333496	0.0761719	0.393245	-0.55094	-0.489856	-0.549422	9.60561	0.644903	-0.951147	-0.1693	0.000208664	-0.0764028	-1.00317	0.344971	0.184814	0.314974	-0.54141	-0.421191	-0.655946	9.5716	1.51654	0.644598	0.25314	0.0593836	-0.0341613	-1.06641	0.138184	0.114502	0.366362	-0.299851	-0.0831466	-0.876901	6.00316	-0.652799	8.04291	-0.00637739	0.0417553	-0.0612717	-0.802246	0.391357	-0.540771	0.182904	-0.937819	-0.293717	-0.0277894	1.4377	-2.35053	-9.03986	0.124893	-0.0233672	0.0417566	0.19165	0.571533	0.914307	
57925	0.602158	-0.317414	-0.443474	-0.583082	9.34843	1.291	4.12218	-0.111688	-0.0346747	0.112644	-0.812744	0.285645	-0.427002	0.548999	-0.390013	-0.39375	-0.625661	9.22024	0.470737	3.7776	-0.146239	-0.104791	0.0619362	-0.753174	0.265625	-0.291992	0.735067	-0.069622	-0.405153	-0.539148	7.07657	3.80962	6.68036	-0.337029	0.0079432	-0.0273771	-0.676758	-0.0998535	-0.849121	0.167418	0.40681	0.194809	-0.876656	-7.58139	-1.98418	5.81279	0.127797	-0.128138	-0.119149	0.469971	0.42627	-0.883789	0.555446	-0.404324	-0.16535	-0.707574	7.48022	-2.53816	6.00913	-0.216956	-0.0183453	-0.0434629	-0.697754	0.591553	-0.399414	0.953658	-0.0639253	0.293963	-0.00596458	-7.10787	-1.56122	9.98272	0.0947221	0.190702	-0.0692762	0.972656	0.0766602	-0.363525	0.404799	-0.536752	-0.432462	-0.600842	10.1312	0.309748	0.0259247	0.075937	-0.110156	0.0113987	-0.933594	0.335693	0.0825195	0.391941	-0.551574	-0.488604	-0.550831	9.49765	0.266451	-0.515332	-0.181991	0.0155267	-0.0481116	-1.00708	0.338379	0.189453	0.315219	-0.540587	-0.421437	-0.656349	9.4615	3.372	0.812041	0.0355028	0.055968	-0.0357889	-1.06665	0.142822	0.112305	0.365279	-0.299649	-0.0830196	-0.877433	5.96774	-0.758812	8.15524	-0.0349572	0.0400342	-0.0853475	-0.800049	0.391357	-0.538574	0.181187	-0.938272	-0.293264	-0.0285241	1.77371	-2.72194	-8.57491	-0.127812	-0.0204611	0.0489564	0.194336	0.564941	0.916748	
57926	0.602514	-0.318994	-0.442549	-0.582554	9.2424	1.11973	4.18306	-0.0966633	-0.0303036	0.130615	-0.810791	0.290039	-0.422607	0.548567	-0.391955	-0.39311	-0.625229	9.28199	0.367313	3.7056	-0.113463	-0.0855136	0.0688672	-0.753174	0.267822	-0.287354	0.7341	-0.0729039	-0.403165	-0.541517	6.97775	3.47836	6.57648	-0.383968	-0.0353685	-0.0401324	-0.677002	-0.0910645	-0.844727	0.166023	0.405922	0.193858	-0.877544	-7.36912	-1.8516	5.98919	0.121617	-0.095877	-0.0885087	0.470215	0.419922	-0.887939	0.554363	-0.405839	-0.164427	-0.707771	7.41871	-2.54529	5.98067	-0.147364	-0.0388742	-0.0326973	-0.704346	0.591309	-0.390137	0.952928	-0.0639791	0.296294	-0.00675395	-7.22106	-1.49205	9.85411	0.0182032	0.186899	-0.0538223	0.970215	0.0786133	-0.372314	0.405269	-0.537415	-0.43333	-0.599306	9.73202	0.663538	0.327901	0.0830701	-0.0650983	0.0248974	-0.937988	0.342285	0.0822754	0.392117	-0.551568	-0.487543	-0.551651	9.65349	0.421826	-0.659862	-0.0624645	0.0656273	-0.00380928	-1.00952	0.344727	0.187012	0.313554	-0.54116	-0.419141	-0.658142	9.60096	2.07702	0.64821	-0.267754	0.038981	0.00204964	-1.07104	0.135986	0.110107	0.364199	-0.299469	-0.0830291	-0.877943	6.12731	-0.599675	8.20143	-0.0244401	0.0318691	-0.0896793	-0.802002	0.386963	-0.542969	0.180472	-0.938624	-0.292441	-0.0298709	1.97584	-3.02637	-8.30353	-0.0627999	0.0526031	0.0610698	0.189941	0.560303	0.916748	
57927	0.602967	-0.32076	-0.441848	-0.581647	9.03156	1.05564	4.12483	-0.0751369	-0.0550278	0.149383	-0.81958	0.291992	-0.425049	0.548153	-0.393855	-0.392597	-0.624719	9.1455	0.512366	3.66482	-0.100754	-0.0886887	0.0638585	-0.755615	0.272217	-0.280518	0.733252	-0.0755196	-0.402132	-0.543073	6.98465	3.1136	6.58859	-0.271587	-0.0585971	-0.0167131	-0.679199	-0.0866699	-0.851807	0.164935	0.405455	0.19286	-0.878184	-7.3347	-2.00364	5.95623	0.109728	-0.0614179	-0.0579139	0.46167	0.415283	-0.887939	0.553499	-0.407277	-0.163551	-0.707824	7.69998	-2.56121	5.94508	-0.12631	-0.0309564	-0.0186955	-0.708496	0.589111	-0.392578	0.952278	-0.0641303	0.298329	-0.00739828	-7.47557	-1.60949	9.69374	0.00692747	0.171197	-0.0461685	0.972168	0.0830078	-0.36377	0.405345	-0.538843	-0.43373	-0.597681	9.72477	0.897222	0.24657	0.028134	-0.102839	0.0461962	-0.940186	0.342041	0.0822754	0.393592	-0.551004	-0.487334	-0.551349	9.61762	0.814921	-0.593768	0.0905189	0.0627886	0.0153574	-1.01172	0.344727	0.189453	0.313891	-0.5401	-0.419631	-0.65854	9.72956	1.75566	0.78052	0.0553778	0.0583013	-0.0284564	-1.06641	0.135986	0.112305	0.363532	-0.299316	-0.083129	-0.878262	6.28928	-0.62967	8.25585	-0.0125619	0.0263496	-0.054445	-0.806885	0.393311	-0.54541	0.181237	-0.938723	-0.291449	-0.0317693	1.85132	-3.01393	-8.80975	0.0324274	0.128974	0.0619548	0.190186	0.553711	0.919189	
57928	0.60334	-0.322738	-0.441471	-0.580452	8.975	1.04107	4.10314	-0.0622947	-0.091968	0.159378	-0.815186	0.291992	-0.418457	0.547549	-0.395825	-0.392185	-0.624263	9.18625	0.629886	3.68401	-0.105987	-0.0983597	0.0497861	-0.76001	0.276611	-0.282959	0.732765	-0.076894	-0.401965	-0.543661	6.96303	3.21388	6.64992	-0.132068	-0.0510995	0.00584549	-0.675049	-0.0803223	-0.842773	0.163796	0.405344	0.191374	-0.878773	-7.28824	-2.0095	6.03262	0.145129	-0.0304354	-0.0384744	0.4729	0.41333	-0.892334	0.553233	-0.408541	-0.162666	-0.707508	7.55662	-2.6085	5.82363	-0.0952504	-0.0207887	0.0285868	-0.704346	0.595703	-0.387939	0.951653	-0.06422	0.300285	-0.00786616	-7.34378	-1.61302	9.73652	0.0102492	0.151497	-0.0286598	0.976807	0.0786133	-0.36377	0.405057	-0.540191	-0.434125	-0.596371	9.88283	0.948573	0.0771217	0.00329458	-0.0982747	0.0212375	-0.933594	0.337891	0.0844727	0.39478	-0.550588	-0.486991	-0.551218	9.76566	1.05711	-0.462639	0.0600001	0.0584752	0.0103233	-1.00513	0.342773	0.184814	0.313763	-0.539309	-0.419555	-0.659297	9.53566	2.87169	0.969558	-0.00860084	0.0633604	-0.0385722	-1.06641	0.135986	0.10791	0.363196	-0.298992	-0.0835485	-0.878471	6.14856	-0.832372	8.16691	0.027273	0.0342008	-0.0381952	-0.802002	0.386963	-0.542969	0.181109	-0.939089	-0.290112	-0.033862	1.80332	-2.94499	-9.53899	-0.0412123	0.121763	0.0719228	0.189941	0.560303	0.921387	
57929	0.603507	-0.325061	-0.441321	-0.579094	9.1382	0.983038	4.13973	-0.0651091	-0.130601	0.161939	-0.806885	0.302979	-0.420654	0.547031	-0.397592	-0.391449	-0.624055	9.27513	0.529126	3.52122	-0.116721	-0.0621322	0.0483204	-0.755615	0.276611	-0.268799	0.732362	-0.0782139	-0.401853	-0.544098	6.95931	3.34123	6.73425	-0.108373	-0.0494494	0.00764343	-0.677002	-0.0847168	-0.842529	0.162843	0.405568	0.190072	-0.87913	-7.31341	-1.82823	6.01641	0.129627	-0.00485654	-0.0239454	0.463867	0.413086	-0.890137	0.553484	-0.409501	-0.161754	-0.706965	7.39238	-2.43112	5.81685	-0.0561787	-0.00543724	0.0585335	-0.702393	0.600098	-0.385742	0.951055	-0.0643119	0.302152	-0.00794684	-7.14766	-1.61429	9.76873	-0.00108246	0.138707	-0.00821746	0.972656	0.0766602	-0.352783	0.404343	-0.541514	-0.434556	-0.595341	9.73445	0.822017	0.133546	-0.0307837	-0.108804	0.00750056	-0.936035	0.346436	0.0864258	0.3943	-0.551118	-0.485889	-0.552004	9.93162	1.70764	-0.509418	-0.107108	0.0138038	-0.00865942	-1.00293	0.342773	0.187256	0.311965	-0.539659	-0.41744	-0.661203	9.71557	2.47928	0.837973	-0.258732	0.0421079	-0.0204671	-1.06421	0.138428	0.110107	0.362827	-0.298553	-0.0846265	-0.87867	6.06047	-0.954911	8.52524	0.0742263	0.0200569	-0.0578593	-0.799805	0.384766	-0.547607	0.178842	-0.939802	-0.289001	-0.0355986	1.72681	-2.98877	-9.36222	-0.19548	0.0439316	0.0772396	0.187988	0.555908	0.921387	
57930	0.603508	-0.327629	-0.4413	-0.577661	9.26629	0.900268	4.10137	-0.0731841	-0.163405	0.151411	-0.811768	0.30957	-0.412109	0.546301	-0.399679	-0.390866	-0.623727	9.31828	0.40615	3.45115	-0.130913	-0.0922296	0.05008	-0.755859	0.278809	-0.273682	0.731954	-0.0795	-0.401868	-0.54445	7.16874	3.31127	6.75775	-0.105038	-0.0564661	0.0130911	-0.681641	-0.0737305	-0.845215	0.162369	0.405708	0.189163	-0.879349	-7.42481	-1.86415	5.95132	0.0842943	0.00361416	-0.00326396	0.468506	0.41333	-0.890137	0.553606	-0.41061	-0.160515	-0.706509	7.73129	-2.30616	5.87676	-0.0832209	0.000421371	0.0578584	-0.704834	0.604492	-0.387939	0.950481	-0.0641679	0.303976	-0.00819304	-7.19997	-1.7234	9.73877	0.0204125	0.137656	-0.018029	0.985352	0.0830078	-0.355225	0.403718	-0.543022	-0.434658	-0.594315	9.98594	0.593391	0.118966	-0.0374368	-0.102765	0.0213485	-0.938477	0.348633	0.0949707	0.393001	-0.552164	-0.483523	-0.553959	9.98466	1.21055	-0.746274	-0.260146	0.0517994	0.00905238	-1.00952	0.344727	0.191895	0.310903	-0.53969	-0.415976	-0.6626	9.83018	1.7304	0.681597	-0.16765	0.0479714	-0.00916191	-1.07544	0.12915	0.105713	0.361357	-0.298629	-0.0851282	-0.879202	5.59117	-0.503838	8.47916	-0.00838957	-0.00559971	-0.130686	-0.808594	0.384521	-0.53833	0.177778	-0.94037	-0.287753	-0.0360268	2.08513	-3.47003	-8.86252	-0.0772905	-0.0137983	0.109589	0.197021	0.553711	0.923584	
57931	0.603235	-0.330457	-0.441311	-0.576324	9.43669	0.813355	3.93946	-0.0888782	-0.179632	0.140194	-0.80957	0.30957	-0.409912	0.54557	-0.401524	-0.390519	-0.623399	9.51595	0.302325	3.7305	-0.105856	-0.0883746	0.0343733	-0.756104	0.2854	-0.264404	0.731528	-0.0808142	-0.402116	-0.544645	7.23555	3.25098	6.76043	-0.0844132	-0.0684495	0.0191339	-0.681396	-0.078125	-0.840576	0.162133	0.405899	0.188034	-0.879546	-7.48295	-1.91924	6.0357	0.0950483	-0.000483879	0.0198172	0.46875	0.408936	-0.894531	0.553301	-0.412327	-0.15937	-0.706007	7.90643	-2.41847	5.87021	-0.115453	-0.0404965	0.0403359	-0.70459	0.600098	-0.381104	0.949864	-0.0646466	0.305781	-0.00872865	-7.1918	-1.7848	9.80527	-0.0145812	0.126481	-0.0495821	0.98291	0.0852051	-0.348877	0.403761	-0.543846	-0.434334	-0.593769	10.234	0.59811	0.126683	-0.0248558	-0.00238187	0.0249087	-0.94043	0.346436	0.0905762	0.392196	-0.552726	-0.481601	-0.55564	9.74618	0.145658	-0.185713	-0.197821	0.0681788	-0.00338261	-1.00732	0.344727	0.189453	0.311561	-0.538425	-0.416803	-0.6628	9.72796	1.98407	0.986185	0.102696	0.0576213	-0.0245542	-1.06616	0.133789	0.10791	0.359704	-0.298797	-0.0850105	-0.879833	6.05451	-0.347147	8.38681	-0.0537983	0.00837618	-0.126365	-0.810791	0.380127	-0.540527	0.180141	-0.940409	-0.286154	-0.0359964	2.27907	-3.20015	-8.91218	0.193227	0.030528	0.126338	0.196777	0.55835	0.918945	
57932	0.602867	-0.333143	-0.441185	-0.575259	9.65165	0.6554	3.82923	-0.102599	-0.162984	0.119042	-0.812012	0.315918	-0.401367	0.545369	-0.402355	-0.390233	-0.623218	9.41928	0.317197	3.74625	-0.0435491	-0.0182017	0.0162971	-0.760498	0.2854	-0.264404	0.731183	-0.0817967	-0.402438	-0.544724	7.15525	3.18265	6.80618	-0.0608502	-0.0562394	0.0161066	-0.687988	-0.0756836	-0.838379	0.161909	0.406032	0.186803	-0.879789	-7.45726	-1.84524	6.10521	0.0979004	-0.00520836	0.0221477	0.46875	0.406738	-0.896484	0.552906	-0.414029	-0.159076	-0.705386	7.66978	-2.43272	5.93066	-0.0798944	-0.0771049	0.017115	-0.700439	0.604492	-0.383301	0.949288	-0.065892	0.307289	-0.00921466	-7.07462	-1.82514	9.91708	-0.0703612	0.106151	-0.0644541	0.98291	0.0852051	-0.348877	0.403804	-0.544734	-0.433813	-0.593307	9.87133	0.707564	0.396765	-0.0381664	0.000123603	0.0370247	-0.936035	0.346436	0.0927734	0.392404	-0.552664	-0.480533	-0.55648	9.74105	0.32516	-0.252382	-0.058483	0.064776	-0.00284204	-1.00928	0.338379	0.187256	0.312341	-0.53741	-0.417747	-0.662663	9.57492	2.32476	0.776519	0.122122	0.0390858	-0.0209821	-1.06836	0.131592	0.10791	0.358292	-0.298768	-0.0848731	-0.880432	6.43154	-0.65713	8.32004	-0.0507107	0.0228223	-0.10565	-0.803955	0.375977	-0.540527	0.180508	-0.940881	-0.284219	-0.0371336	2.20446	-2.46785	-8.8444	0.0021991	0.0768362	0.142795	0.192627	0.549316	0.921387	
57933	0.602438	-0.335396	-0.441046	-0.574506	9.70562	0.513819	3.69063	-0.0909544	-0.128397	0.0802966	-0.814209	0.315918	-0.403564	0.545108	-0.403174	-0.389923	-0.623112	9.23077	0.432292	3.65858	-0.0469912	-0.014661	0.00818013	-0.760498	0.287598	-0.269287	0.731085	-0.0820319	-0.403085	-0.544342	7.08346	3.20212	6.874	0.0188553	-0.0307687	0.0309759	-0.685791	-0.0800781	-0.840332	0.161777	0.405949	0.186056	-0.88001	-7.47081	-1.82312	5.991	0.0571934	-0.0116316	0.00896061	0.466797	0.402344	-0.896484	0.55241	-0.415163	-0.159079	-0.705108	7.54466	-2.39221	6.03429	-0.0416144	-0.0583519	-0.0201218	-0.704834	0.604492	-0.376465	0.948879	-0.0665453	0.308393	-0.00967861	-7.10857	-1.83444	9.9133	-0.0246381	0.0798774	-0.0530404	0.97876	0.0852051	-0.344482	0.403461	-0.545914	-0.433473	-0.592704	9.79112	0.702731	0.400864	-0.0547279	-0.0488557	0.0329435	-0.934082	0.35083	0.101318	0.393435	-0.552038	-0.480313	-0.556563	9.78961	0.995034	-0.520874	0.0681459	0.0541977	-0.00210563	-1.00732	0.344727	0.189453	0.312592	-0.536877	-0.417932	-0.662859	9.70544	2.64754	1.21646	0.0386584	0.0300457	-0.00375702	-1.06641	0.140625	0.110107	0.356774	-0.298309	-0.0845334	-0.881237	6.01001	-0.735225	8.41843	-0.0610612	0.0590724	-0.120849	-0.808105	0.373535	-0.547363	0.177962	-0.942007	-0.281811	-0.0391846	1.93102	-3.0493	-9.06018	-0.240468	0.0753062	0.160537	0.194824	0.551514	0.923584	
57934	0.602009	-0.337078	-0.440955	-0.574039	9.66615	0.484683	3.62329	-0.0738617	-0.0963223	0.0407398	-0.821045	0.315674	-0.39502	0.544926	-0.403769	-0.389333	-0.623254	9.33529	0.342836	3.54311	-0.0527554	0.0162309	0.00490244	-0.756104	0.2854	-0.264404	0.731297	-0.0819831	-0.403588	-0.543691	7.09552	3.42952	6.91577	0.0322288	-0.00884402	0.0467743	-0.683594	-0.0759277	-0.838379	0.161695	0.405601	0.185702	-0.88026	-7.48976	-1.87253	5.91071	0.0212752	-0.0252704	-0.00571643	0.470947	0.404541	-0.89209	0.551876	-0.415934	-0.15913	-0.70506	7.58389	-2.38758	6.08081	-0.0293018	-0.027336	-0.0395274	-0.700439	0.604492	-0.374268	0.948699	-0.0665574	0.30893	-0.0100863	-7.20347	-1.60403	9.87118	0.025004	0.0403541	-0.0373132	0.97876	0.0852051	-0.344482	0.403159	-0.546841	-0.433307	-0.592176	9.84021	0.409143	0.137132	-0.0396379	-0.0363965	0.0120388	-0.931885	0.348633	0.0991211	0.393993	-0.551773	-0.480044	-0.556663	9.66396	1.48459	-0.224374	0.0272004	0.030518	-0.00801564	-1.00708	0.338379	0.189453	0.311754	-0.537071	-0.416856	-0.663774	9.3091	2.42331	1.01107	-0.119674	0.0179564	-0.00531653	-1.06421	0.138428	0.10791	0.354789	-0.298336	-0.0837022	-0.882108	5.72046	-0.776353	8.38692	-0.121982	0.0371692	-0.13865	-0.812744	0.373535	-0.542725	0.176734	-0.942781	-0.279807	-0.0404569	1.80304	-3.65579	-9.05965	-0.121978	0.0498862	0.155611	0.192627	0.549316	0.921387	
57935	0.601554	-0.338258	-0.441103	-0.573709	9.67581	0.523179	3.63524	-0.0422008	-0.0704253	0.00632439	-0.818848	0.315674	-0.390625	0.544674	-0.404576	-0.389169	-0.623053	9.30486	0.306731	3.62285	-0.0382028	-0.027944	0.0108086	-0.762695	0.2854	-0.273682	0.731456	-0.0823239	-0.403838	-0.54324	7.10048	3.45245	7.01027	-0.00171218	-0.014781	0.045026	-0.690186	-0.0756836	-0.835938	0.161617	0.4051	0.185595	-0.880527	-7.60603	-1.98077	5.93502	0.00771468	-0.0392613	-0.0176913	0.466553	0.404541	-0.889893	0.5515	-0.416053	-0.159058	-0.7053	7.60962	-2.48916	5.89298	-0.00832464	0.0160814	-0.0447007	-0.708984	0.600098	-0.376465	0.9487	-0.0662402	0.308988	-0.0103952	-7.16933	-1.62677	9.97152	0.0467758	0.00214179	-0.0248181	0.985352	0.0830078	-0.34668	0.40286	-0.547833	-0.433069	-0.591638	9.8375	0.622571	0.404589	-0.0457627	-0.046325	0.0237479	-0.929443	0.344238	0.103516	0.393679	-0.552022	-0.478736	-0.557763	9.82437	1.37021	-0.28256	-0.106871	0.0477535	0.00483982	-1.00708	0.340576	0.187256	0.311588	-0.536777	-0.416821	-0.664112	9.7597	2.27759	1.04179	-0.00466862	0.0133081	-0.0143588	-1.06396	0.13623	0.105713	0.353232	-0.298327	-0.0832417	-0.882779	6.1375	-0.887729	8.29357	-0.0761127	0.0275403	-0.109884	-0.812744	0.373535	-0.544922	0.177988	-0.943046	-0.278068	-0.040766	1.80909	-3.64118	-9.08365	0.0794303	0.0436008	0.152062	0.201904	0.542725	0.930664	
57936	0.60127	-0.33891	-0.441407	-0.573389	9.74928	0.707928	3.69513	-0.0063992	-0.0430179	-0.0122948	-0.814209	0.313721	-0.388428	0.544558	-0.405266	-0.38848	-0.623137	9.42951	0.311525	3.67178	-0.0570733	0.0160909	0.0176307	-0.758301	0.2854	-0.259766	0.731458	-0.0827516	-0.40396	-0.543082	7.08393	3.49387	7.03246	-0.0191377	-0.00687069	0.0326646	-0.679443	-0.0759277	-0.838379	0.161337	0.404529	0.185403	-0.880882	-7.66852	-2.09774	5.91016	0.0222583	-0.0449663	-0.0298812	0.459717	0.408936	-0.896729	0.55131	-0.415545	-0.159199	-0.705716	7.63866	-2.39675	5.83721	0.0308391	0.0612012	-0.0574566	-0.708984	0.602295	-0.378906	0.948766	-0.0657694	0.308879	-0.0105539	-7.13525	-1.66891	10.0609	0.0524067	-0.0175864	-0.0155725	0.980957	0.0830078	-0.34668	0.401746	-0.549583	-0.431947	-0.591592	9.88079	0.871313	0.512768	-0.175989	-0.0627903	0.0435069	-0.931885	0.348633	0.107666	0.392783	-0.552882	-0.476869	-0.559141	9.73231	1.05841	-0.18758	-0.185217	0.0252678	0.0200426	-1.00732	0.344971	0.184814	0.310298	-0.537076	-0.415459	-0.665326	9.62358	2.64997	1.16548	-0.167355	0.0121609	-0.0188523	-1.0708	0.133789	0.10791	0.352368	-0.298509	-0.0823041	-0.883151	6.18565	-0.922113	8.60651	-0.0944912	0.0239488	-0.042248	-0.810059	0.364746	-0.544922	0.179541	-0.943361	-0.275941	-0.0411212	1.82237	-3.21727	-9.11813	0.110945	0.0337961	0.140726	0.195068	0.544922	0.923828	
57937	0.601264	-0.339375	-0.441466	-0.573073	9.75334	0.967678	3.74864	-0.00459242	-0.0120945	0.00147069	-0.816895	0.320068	-0.392822	0.544611	-0.405793	-0.387582	-0.623307	9.37065	0.427078	3.70961	-0.0676221	0.0410289	0.0235626	-0.762451	0.283203	-0.254883	0.731592	-0.0829436	-0.403788	-0.543	7.10559	3.53679	7.02365	-0.0281738	0.00631279	0.0172271	-0.685791	-0.0715332	-0.838379	0.16105	0.403685	0.185438	-0.881314	-7.7119	-2.09469	5.90041	0.00710091	-0.0573354	-0.0368117	0.455811	0.399902	-0.894287	0.550824	-0.415072	-0.158739	-0.706477	7.73024	-2.15679	5.89166	-0.0132461	0.0914925	-0.0697386	-0.708984	0.600098	-0.378906	0.948914	-0.0648111	0.30861	-0.0110643	-7.1148	-1.69379	10.0642	0.0981081	-0.0211664	-0.029125	0.980957	0.0808105	-0.34668	0.400818	-0.551121	-0.430545	-0.591812	10.1244	0.68503	0.168157	-0.174363	-0.0254915	0.0431431	-0.927734	0.353027	0.109619	0.391278	-0.554311	-0.474399	-0.560879	9.7683	1.07938	-0.367067	-0.269543	0.0069834	0.0239846	-1.00269	0.333984	0.189697	0.307571	-0.538139	-0.412633	-0.667488	9.55293	2.61502	1.07152	-0.35379	-0.00399029	-0.0202539	-1.06641	0.140625	0.114502	0.351118	-0.29884	-0.0803788	-0.883714	6.12026	-0.925957	8.63891	-0.185489	0.0398925	-0.0493241	-0.810547	0.373535	-0.540527	0.179678	-0.943791	-0.274274	-0.0418181	2.09587	-3.37109	-9.04924	-0.0153283	0.0381142	0.115591	0.20166	0.549561	0.921387	
57938	0.601527	-0.339906	-0.441104	-0.572762	9.63052	1.11194	3.7723	-0.0167042	0.012623	0.0228925	-0.816895	0.320068	-0.392822	0.544602	-0.406359	-0.386519	-0.623605	9.42368	0.434629	3.75596	-0.0896279	0.0529181	0.0215389	-0.758301	0.289795	-0.264648	0.731609	-0.0831641	-0.403536	-0.543131	7.16345	3.61743	7.06082	-0.0324903	0.016159	0.00970264	-0.683838	-0.0715332	-0.838379	0.160741	0.40266	0.185502	-0.881825	-7.78227	-2.15372	5.85968	-0.00361813	-0.0756223	-0.0440651	0.462158	0.402344	-0.898682	0.549707	-0.415174	-0.157592	-0.707543	7.69392	-2.1908	5.87013	-0.108012	0.0921925	-0.0852051	-0.708984	0.600098	-0.378906	0.949043	-0.0635927	0.308428	-0.0120486	-7.04125	-1.60144	10.0846	0.128596	-0.00983237	-0.0613041	0.978516	0.0874023	-0.348877	0.400222	-0.551677	-0.428756	-0.592996	10.0615	0.435717	0.0155307	-0.174526	0.0807805	0.0106539	-0.934082	0.348633	0.105469	0.389396	-0.555782	-0.471705	-0.563002	9.80649	1.04937	-0.356964	-0.303706	0.0187035	0.0264505	-1.00732	0.344727	0.191895	0.30484	-0.539416	-0.409893	-0.669396	9.68419	1.84641	0.943784	-0.346462	-0.0198614	-0.0191374	-1.06396	0.135986	0.110107	0.350549	-0.298986	-0.0786743	-0.884044	6.33164	-1.12438	8.5333	-0.135338	0.0455809	-0.00398282	-0.812744	0.37793	-0.53833	0.180298	-0.944036	-0.272903	-0.0425779	2.13273	-3.64503	-9.13308	0.0182311	0.0583557	0.0938377	0.20166	0.549561	0.923828	
57939	0.601849	-0.34036	-0.440647	-0.572506	9.393	1.20784	3.78072	-0.0199746	0.0246855	0.0271029	-0.819092	0.320068	-0.392822	0.544547	-0.407119	-0.384849	-0.624191	9.28357	0.316486	3.57582	-0.126867	0.0688382	0.0355054	-0.758301	0.289795	-0.264648	0.731547	-0.08351	-0.403231	-0.543387	7.05	3.69588	7.10292	-0.0490993	0.00868672	0.0035427	-0.685791	-0.0715332	-0.83374	0.160103	0.401613	0.184958	-0.882533	-7.73957	-2.20832	5.74481	0.0538925	-0.0941286	-0.0508181	0.457764	0.402344	-0.898682	0.548487	-0.415162	-0.156521	-0.708734	7.65557	-2.28469	5.81523	-0.104939	0.0973405	-0.0984042	-0.711182	0.600098	-0.374268	0.949181	-0.0624227	0.308184	-0.0134982	-7.00738	-1.59363	10.1165	0.138415	-0.00743778	-0.0867098	0.980713	0.0917969	-0.349121	0.400617	-0.550892	-0.42629	-0.595231	10.1956	0.237173	0.0491572	-0.155875	0.250445	0.00956087	-0.936035	0.346436	0.0991211	0.387058	-0.557671	-0.468293	-0.565589	9.82943	0.896648	-0.31615	-0.396972	0.026048	0.0214005	-1.01147	0.342529	0.196533	0.30261	-0.540253	-0.407856	-0.670975	9.68231	2.53108	1.09376	-0.269802	-0.0154068	-0.0349052	-1.07104	0.135986	0.114502	0.350693	-0.298509	-0.0771737	-0.88428	6.22939	-1.40066	8.38043	-0.0781179	0.090472	0.0400353	-0.808105	0.371338	-0.542725	0.182312	-0.943961	-0.271775	-0.0428801	1.87814	-3.63682	-9.32516	0.137224	0.0458126	0.0775573	0.203857	0.549561	0.926025	
57940	0.602149	-0.340722	-0.440218	-0.572305	9.22048	1.33953	3.8157	-0.0186998	0.0294862	0.0240417	-0.818848	0.317871	-0.392822	0.544066	-0.408771	-0.38267	-0.62487	9.11029	0.375723	3.36344	-0.210287	0.0372648	0.0551869	-0.756348	0.296387	-0.262451	0.731004	-0.0847304	-0.402694	-0.544327	6.90226	3.87885	7.16897	-0.133007	-0.0228094	-0.0212516	-0.686035	-0.0671387	-0.84082	0.158992	0.400531	0.183774	-0.883472	-7.66597	-2.10027	5.61599	0.119889	-0.108079	-0.0641125	0.460205	0.400146	-0.905273	0.547461	-0.414155	-0.155325	-0.710377	7.67134	-2.0316	5.76584	-0.0688593	0.182953	-0.116589	-0.711182	0.5979	-0.383301	0.949469	-0.0611059	0.307484	-0.0151069	-6.92016	-1.58507	10.1388	0.155525	-0.0472391	-0.0921891	0.976562	0.0830078	-0.34668	0.402679	-0.547902	-0.422175	-0.599517	9.87535	0.223481	0.216325	-0.160537	0.55507	0.0207488	-0.934082	0.348633	0.0949707	0.384212	-0.559503	-0.464964	-0.568459	9.90305	0.915269	-0.35482	-0.426894	0.0182031	-0.0166596	-1.00684	0.335938	0.206055	0.300331	-0.541109	-0.405941	-0.672469	9.52619	2.09774	1.01916	-0.261747	-0.0268918	-0.0341361	-1.06396	0.133789	0.119141	0.350361	-0.298307	-0.0758813	-0.884591	5.65369	-1.42037	8.54705	-0.0888085	0.0610265	0.000278113	-0.80835	0.37793	-0.540527	0.18394	-0.943996	-0.270574	-0.0427474	1.67346	-3.1506	-8.9496	0.119683	-0.00161618	0.076507	0.203857	0.551758	0.921387	
57941	0.602377	-0.341491	-0.439696	-0.572008	9.20991	1.49833	3.91798	-0.0456861	0.00916796	0.0507353	-0.819092	0.320068	-0.39502	0.542718	-0.411618	-0.380474	-0.625514	9.27482	0.378537	3.5383	-0.286971	-0.0479715	0.0507509	-0.754395	0.298584	-0.255371	0.729996	-0.0875754	-0.401021	-0.54646	7.03303	3.76057	7.03712	-0.322628	-0.0410653	-0.0496921	-0.683838	-0.0605469	-0.836426	0.157905	0.399122	0.182933	-0.884479	-7.71744	-1.94355	5.72347	0.0898522	-0.135506	-0.0793893	0.444336	0.404297	-0.907471	0.545842	-0.412867	-0.152917	-0.712891	7.92321	-1.88693	5.8443	-0.158007	0.268779	-0.14609	-0.706787	0.5979	-0.383301	0.949886	-0.0590169	0.30649	-0.0172304	-6.95193	-1.83399	10.2577	0.223772	-0.0643891	-0.128968	0.97876	0.0852051	-0.357422	0.403736	-0.546127	-0.417691	-0.603553	9.88491	0.217842	0.00214074	-0.25746	0.469784	0.0323767	-0.936279	0.348633	0.0800781	0.380712	-0.561334	-0.461766	-0.571607	9.87579	0.418216	-0.244758	-0.456809	0.0132461	-0.0498047	-1.00879	0.331543	0.206055	0.298995	-0.541393	-0.405563	-0.673063	9.97782	1.22606	0.483768	-0.0884282	-0.0313312	-0.0537894	-1.06421	0.138184	0.119141	0.34906	-0.29868	-0.0746322	-0.885086	5.64685	-0.965207	8.4864	-0.1135	0.0154955	-0.0736085	-0.8125	0.369141	-0.535889	0.183803	-0.944417	-0.269155	-0.0429981	1.88679	-3.08712	-8.46335	-0.0311962	0.00184119	0.0916763	0.20166	0.551758	0.914551	
57942	0.602484	-0.343471	-0.438814	-0.571387	9.2313	1.32062	3.92665	-0.112065	-0.0464649	0.119517	-0.8125	0.320068	-0.390625	0.541353	-0.413729	-0.378303	-0.62662	9.55168	0.271891	3.77387	-0.272862	0.00313674	0.00831022	-0.754395	0.298584	-0.248291	0.728785	-0.0905101	-0.398976	-0.54909	7.13461	3.40209	6.81698	-0.359335	-0.028784	-0.0814971	-0.69043	-0.0561523	-0.841064	0.156706	0.397554	0.182271	-0.885534	-7.7084	-2.05998	5.99176	0.0856683	-0.135533	-0.0897648	0.449219	0.397949	-0.907471	0.543354	-0.412626	-0.149694	-0.71561	7.98829	-2.22872	5.88221	-0.28424	0.238092	-0.161508	-0.711182	0.600098	-0.383301	0.950221	-0.0567766	0.3057	-0.0200969	-7.03541	-2.08839	10.2025	0.253747	-0.035112	-0.178675	0.976562	0.0874023	-0.351074	0.405677	-0.543525	-0.414124	-0.607049	9.84056	0.429462	0.417303	-0.123677	0.481594	0.0246143	-0.936279	0.348633	0.0693359	0.379429	-0.562118	-0.459321	-0.573657	9.88311	-0.745336	-0.588858	-0.246774	0.0651525	0.00602321	-1.00684	0.331787	0.201416	0.300068	-0.540409	-0.40756	-0.672169	10.0992	1.47191	0.323032	0.214215	-0.00224658	-0.0497523	-1.06616	0.131348	0.119141	0.347843	-0.298948	-0.0738916	-0.885537	5.78056	-1.02951	8.24022	-0.0774813	0.0104562	-0.0695408	-0.810547	0.375732	-0.535889	0.184712	-0.944598	-0.267833	-0.0433778	2.07053	-2.83926	-8.54618	0.0388492	0.0494466	0.0913547	0.199463	0.547119	0.919189	
57943	0.602441	-0.346132	-0.437875	-0.570545	9.27744	0.920082	3.82643	-0.151053	-0.0906833	0.158151	-0.81958	0.333008	-0.388672	0.539884	-0.415499	-0.376669	-0.627699	9.30891	0.131173	3.84877	-0.239271	-0.00569625	-0.0234481	-0.752197	0.296387	-0.248291	0.727327	-0.092363	-0.397538	-0.551749	7.0843	3.27786	6.70582	-0.276227	-0.0179596	-0.128253	-0.688232	-0.0539551	-0.83667	0.154732	0.396613	0.180955	-0.886573	-7.6091	-1.87055	6.2578	0.158855	-0.0996405	-0.120159	0.442383	0.397705	-0.909668	0.540347	-0.413366	-0.146852	-0.718045	7.47514	-2.5054	5.91169	-0.31537	0.158126	-0.180117	-0.706787	0.600098	-0.383301	0.950331	-0.0554459	0.305419	-0.0227065	-7.01201	-1.964	10.0114	0.184141	0.000163063	-0.180749	0.980713	0.0874023	-0.359619	0.407377	-0.541813	-0.412058	-0.608844	10.054	0.139602	0.696759	-0.0338578	0.305774	0.0341556	-0.936279	0.35083	0.0649414	0.380723	-0.560932	-0.460271	-0.573198	9.51497	-0.693228	-0.80296	0.180126	0.0341228	-0.0417419	-1.00903	0.331787	0.201416	0.302235	-0.538659	-0.411352	-0.670291	9.51308	1.42094	0.778239	0.413866	-0.00636241	-0.0683124	-1.06641	0.135986	0.116943	0.345817	-0.299341	-0.0728678	-0.886282	6.01035	-0.930353	7.893	-0.115355	0.00875847	-0.133347	-0.812744	0.373535	-0.533691	0.183693	-0.945277	-0.26595	-0.0444703	1.77859	-2.84868	-8.84587	-0.120478	0.0530216	0.118678	0.204102	0.545166	0.923828	
57944	0.602359	-0.349096	-0.436738	-0.569698	9.48691	0.534829	3.86143	-0.16368	-0.0933559	0.164317	-0.813232	0.337402	-0.384521	0.539187	-0.415989	-0.375087	-0.62892	9.3905	-0.0497074	3.83398	-0.162246	0.0784726	-0.0294853	-0.756592	0.300781	-0.253174	0.725823	-0.0932654	-0.396462	-0.554346	7.0148	3.16957	6.7569	-0.202967	0.00150225	-0.161184	-0.686279	-0.0498047	-0.83667	0.152508	0.395869	0.180627	-0.887358	-7.45513	-1.62656	6.39719	0.0976185	-0.0569725	-0.162844	0.435791	0.395508	-0.911865	0.537184	-0.414321	-0.144443	-0.720353	7.14783	-2.72748	6.03775	-0.302649	0.109226	-0.194893	-0.713135	0.593506	-0.381104	0.950348	-0.0545267	0.305388	-0.0245633	-7.18631	-1.72828	9.71585	0.135173	0.0234544	-0.138393	0.982666	0.0917969	-0.355469	0.409467	-0.540633	-0.412197	-0.608396	9.57642	0.536256	1.0206	0.147819	0.12486	0.0435766	-0.934326	0.355225	0.0541992	0.38315	-0.559189	-0.462974	-0.571104	9.82579	0.432688	-0.312933	0.385337	-0.019228	-0.0500891	-1.01562	0.335938	0.206055	0.304538	-0.536913	-0.415964	-0.667798	9.83286	2.41509	0.944149	0.478629	-0.0486813	-0.0935298	-1.06616	0.131348	0.114746	0.343819	-0.299088	-0.0718933	-0.887224	6.02371	-1.16521	8.27989	-0.0954611	0.0628505	-0.13971	-0.814697	0.371338	-0.540527	0.18199	-0.946095	-0.264084	-0.0452159	1.4586	-3.63626	-9.05194	-0.160328	0.011587	0.120794	0.199707	0.542725	0.928467	
57945	0.602295	-0.351683	-0.435578	-0.569061	9.74781	0.279782	3.97034	-0.154755	-0.0733811	0.142221	-0.813232	0.337402	-0.382324	0.538831	-0.415962	-0.373632	-0.630108	9.1164	0.14723	3.8492	-0.111892	0.107338	-0.0331935	-0.750244	0.302979	-0.258057	0.724467	-0.0931994	-0.395738	-0.556644	6.90295	3.21143	6.90558	-0.116064	0.0253061	-0.174314	-0.69043	-0.0517578	-0.834229	0.150126	0.395428	0.18123	-0.887837	-7.24746	-1.82589	6.25854	0.031148	-0.00533254	-0.197451	0.437744	0.4021	-0.911865	0.534733	-0.414711	-0.143027	-0.722232	7.16001	-3.03574	6.12727	-0.20225	0.0976899	-0.174956	-0.710938	0.593506	-0.376465	0.95032	-0.0532312	0.3056	-0.0258123	-7.43999	-1.61174	9.57393	0.152044	0.0324062	-0.0799489	0.976318	0.0917969	-0.355469	0.40974	-0.541793	-0.411717	-0.607505	9.48748	0.871205	1.09913	-0.0110086	-0.0633423	0.0741194	-0.932373	0.359619	0.0583496	0.385919	-0.557453	-0.465705	-0.56871	9.99386	1.57573	-0.395733	0.401537	-0.0165239	-0.0311789	-1.00732	0.344727	0.208252	0.305257	-0.536488	-0.417652	-0.666758	9.70785	3.05197	0.998415	0.174799	-0.0414856	-0.0382305	-1.06616	0.131348	0.112549	0.342413	-0.299051	-0.0724831	-0.887732	5.76237	-1.03849	8.26555	0.0229915	-0.00509275	-0.123329	-0.8125	0.371338	-0.540527	0.182697	-0.946352	-0.262737	-0.0448276	1.41979	-3.6671	-8.83834	0.0498077	-0.0288228	0.108208	0.208496	0.547363	0.923828	
57946	0.602263	-0.353415	-0.434451	-0.568884	9.80399	0.0856016	3.97092	-0.130691	-0.0227905	0.0917687	-0.811279	0.343994	-0.380127	0.538419	-0.416064	-0.372619	-0.630992	9.18383	0.328626	3.74791	-0.0854546	0.0617057	-0.0330049	-0.752197	0.298584	-0.250732	0.723128	-0.0936149	-0.395003	-0.558834	6.92003	3.39271	6.99078	-0.137092	0.013739	-0.144785	-0.688477	-0.0498047	-0.834473	0.14755	0.39537	0.181863	-0.888165	-7.12693	-1.99128	6.17919	0.0454168	0.0284307	-0.206613	0.437988	0.399902	-0.909668	0.533309	-0.414678	-0.142471	-0.723413	7.09054	-3.04392	6.15574	-0.0863684	0.0664288	-0.124391	-0.715332	0.593506	-0.378906	0.95028	-0.0517346	0.305932	-0.0263935	-7.4875	-1.40235	9.65246	0.149551	0.0442651	-0.0222623	0.974121	0.0939941	-0.355469	0.409182	-0.543928	-0.410296	-0.606935	10.062	0.741708	0.73704	-0.134665	-0.0943899	0.0966159	-0.930176	0.357422	0.0668945	0.387354	-0.556627	-0.467028	-0.567458	9.86763	1.81227	-0.23897	0.205071	0.00290346	-0.0276183	-1.00684	0.335938	0.201416	0.305616	-0.536511	-0.418645	-0.665951	9.56435	2.08636	0.906129	0.100153	-0.0551762	-0.0130996	-1.06836	0.12915	0.112549	0.341228	-0.29954	-0.0718965	-0.888071	5.75431	-0.771882	8.31986	-0.0657366	-0.0168672	-0.0757073	-0.816895	0.371338	-0.529053	0.183943	-0.946562	-0.261289	-0.0437331	1.62749	-3.3213	-8.96424	0.0982421	-0.0527038	0.123055	0.210693	0.547363	0.923828	
57947	0.602222	-0.354027	-0.433626	-0.569176	9.69771	0.0581673	4.03499	-0.0740866	0.0251508	0.0138198	-0.817871	0.341797	-0.380127	0.537986	-0.416169	-0.371955	-0.631683	9.39221	0.17564	3.96261	-0.0715736	0.0441924	-0.0355022	-0.758789	0.300781	-0.250732	0.721819	-0.0946148	-0.394398	-0.560782	7.10172	3.2171	6.94092	-0.15506	-0.0233221	-0.113763	-0.690674	-0.0476074	-0.83667	0.145065	0.395771	0.1821	-0.888347	-7.20282	-2.10646	6.35983	0.0701258	0.0576331	-0.180923	0.437744	0.4021	-0.907471	0.532568	-0.41498	-0.142209	-0.723836	7.19512	-2.89333	6.13508	-0.0454733	0.0154591	-0.0607685	-0.717041	0.586914	-0.376465	0.95012	-0.0510201	0.306558	-0.026266	-7.6118	-1.20831	9.65663	0.0692857	0.0648173	0.0206528	0.980713	0.0917969	-0.351318	0.408629	-0.546028	-0.409143	-0.6062	10.3235	0.447239	0.869899	-0.1279	-0.101778	0.0983949	-0.932129	0.355225	0.0734863	0.387917	-0.556378	-0.467125	-0.567237	9.69978	1.44382	-0.597213	0.0646329	0.0179381	-0.00311505	-1.00269	0.338379	0.189453	0.307858	-0.535164	-0.421831	-0.663989	9.74	2.326	0.795831	0.370919	-0.0256501	-0.0217945	-1.06836	0.131348	0.112305	0.339943	-0.301107	-0.0707707	-0.888124	5.84819	-0.901935	8.55063	-0.12802	-0.0756706	-0.0487012	-0.821289	0.369141	-0.533447	0.183941	-0.94701	-0.259869	-0.0424867	1.48632	-3.14835	-8.92331	0.00598214	-0.0932924	0.120551	0.210938	0.542969	0.921631	
57948	0.601945	-0.354063	-0.4334	-0.569619	9.54848	0.275608	4.03736	-0.0311402	0.0229722	-0.0410796	-0.809082	0.341797	-0.382324	0.537832	-0.416101	-0.371052	-0.63239	9.45659	-0.0769922	4.09519	-0.0641993	0.0735926	-0.0198328	-0.754395	0.296387	-0.250732	0.720702	-0.0950696	-0.394449	-0.562103	7.30459	3.06028	6.87916	-0.0721556	-0.0341495	-0.0918021	-0.692871	-0.0454102	-0.834473	0.143028	0.396553	0.182044	-0.888341	-7.32038	-2.23043	6.50747	0.0829741	0.0819091	-0.131754	0.437988	0.397705	-0.909668	0.532292	-0.415723	-0.141746	-0.723704	7.27237	-2.8776	6.23782	-0.0635463	-0.0128979	0.00161659	-0.715088	0.591309	-0.37207	0.949837	-0.0508682	0.307521	-0.0255659	-7.57135	-1.14085	9.8283	0.0107526	0.0777609	0.0461065	0.980713	0.0917969	-0.351318	0.408368	-0.547327	-0.408713	-0.605493	10.0187	0.313029	0.471714	-0.0617816	-0.0704172	0.0589445	-0.93457	0.359619	0.0712891	0.388977	-0.556196	-0.467582	-0.566313	9.50318	1.14754	-0.606749	0.138723	-0.0179954	0.0264397	-1.00293	0.340332	0.196533	0.308532	-0.534741	-0.422659	-0.663491	9.51909	3.6411	1.09357	0.105464	-0.00595922	-0.0107322	-1.0708	0.131348	0.121338	0.338855	-0.303245	-0.0689777	-0.887954	5.74463	-1.04768	8.80826	-0.193258	-0.107325	-0.00839914	-0.814941	0.373535	-0.53125	0.182524	-0.947502	-0.259203	-0.0416974	1.94682	-3.31432	-8.89467	-0.106575	-0.0979905	0.0495359	0.215576	0.542969	0.921631	
57949	0.601641	-0.353871	-0.433346	-0.570101	9.48888	0.439494	3.96905	-0.0151404	0.0138822	-0.0584923	-0.815674	0.343994	-0.386719	0.538521	-0.415271	-0.370215	-0.63284	9.2268	-0.0449941	3.88553	0.00387913	0.121111	0.00916108	-0.752686	0.30957	-0.253418	0.719816	-0.0946186	-0.39519	-0.562793	7.18272	3.12071	6.9679	0.0399622	-0.024426	-0.079434	-0.69043	-0.0498047	-0.832031	0.141537	0.397482	0.182027	-0.888167	-7.23333	-2.2531	6.44338	0.0541316	0.0935599	-0.0895118	0.43335	0.399902	-0.909668	0.532443	-0.416688	-0.140926	-0.723198	7.01776	-2.88123	6.30673	-0.0650357	-0.0221678	0.0526476	-0.715332	0.5979	-0.374268	0.949479	-0.0509466	0.308709	-0.0243461	-7.44171	-1.00686	10.022	-0.0248979	0.0952423	0.0847373	0.976318	0.0917969	-0.349121	0.40813	-0.548608	-0.408237	-0.604816	9.70752	0.393755	0.744959	-0.0531621	-0.0700912	0.0554557	-0.92627	0.368164	0.0773926	0.389609	-0.55628	-0.467516	-0.565851	9.48449	1.32728	-0.316704	0.0629323	0.00220959	0.0305063	-1.00073	0.342773	0.191895	0.306738	-0.535675	-0.420207	-0.665124	9.25704	3.10463	1.21183	-0.276678	0.020149	0.00382503	-1.05908	0.12915	0.114746	0.339253	-0.30468	-0.067754	-0.887405	6.44385	-1.47705	8.64044	-0.0952152	-0.0860419	0.0834881	-0.816895	0.371338	-0.529053	0.182216	-0.94755	-0.259283	-0.0414594	2.40302	-3.64476	-9.09172	-0.028382	-0.0392286	-0.0169962	0.213379	0.540771	0.92627	
57950	0.601519	-0.353274	-0.433259	-0.570666	9.47829	0.489465	3.92424	0.0117664	0.0416863	-0.0702666	-0.815674	0.3396	-0.386719	0.539337	-0.41464	-0.369795	-0.632804	8.97726	0.0546816	3.59652	0.0471836	0.0789812	0.0230242	-0.76123	0.305176	-0.253418	0.719277	-0.0937517	-0.395801	-0.563198	7.00311	3.26067	7.05848	0.0653917	0.00694647	-0.0640066	-0.69043	-0.0539551	-0.83667	0.1407	0.39821	0.182596	-0.887857	-7.14212	-2.33999	6.27581	-0.00861353	0.0911757	-0.0586217	0.437744	0.4021	-0.914062	0.53306	-0.41732	-0.139891	-0.722579	7.08817	-2.81568	6.28354	-0.0351972	0.000145097	0.0857981	-0.713379	0.602295	-0.37207	0.949126	-0.0509376	0.309909	-0.0228354	-7.3808	-0.98483	9.9391	-0.0312352	0.0992725	0.116082	0.980957	0.0852051	-0.348877	0.407725	-0.550038	-0.408054	-0.603913	9.70578	0.190553	0.578802	-0.0398565	-0.102829	0.03812	-0.928223	0.36377	0.0795898	0.38941	-0.556626	-0.466884	-0.566169	9.6894	1.38713	-0.480808	-0.0320611	0.00688153	0.00365142	-1.00293	0.342529	0.19873	0.30566	-0.535852	-0.419057	-0.666202	9.4005	2.16112	0.889423	-0.138176	0.0234551	-0.0247763	-1.0708	0.12915	0.119141	0.340882	-0.304633	-0.0681875	-0.886763	6.38278	-1.49747	8.76457	0.0889634	-0.0194258	0.129038	-0.81958	0.37793	-0.524658	0.183333	-0.947178	-0.259894	-0.0412084	2.33459	-3.46146	-9.34916	0.0907201	-0.030097	-0.0597412	0.215576	0.542969	0.923828	
57951	0.601625	-0.352186	-0.433259	-0.571226	9.42501	0.662117	4.01152	0.0424263	0.0680647	-0.0757489	-0.81543	0.337402	-0.386475	0.540033	-0.414384	-0.369864	-0.632337	9.14769	0.0619716	3.57759	0.0588282	0.0251151	0.0326412	-0.752441	0.305176	-0.258057	0.718919	-0.0932394	-0.395915	-0.563661	7.02324	3.35645	7.09653	0.0151206	0.0199023	-0.0469674	-0.69043	-0.0539551	-0.838867	0.140443	0.398887	0.18339	-0.887431	-7.2094	-2.36608	6.13089	-0.0461334	0.0867817	-0.0225862	0.440186	0.399902	-0.909668	0.534188	-0.417433	-0.138743	-0.721902	7.38155	-2.75372	6.17422	0.00373823	0.0358254	0.113337	-0.717773	0.602295	-0.374268	0.948842	-0.0507201	0.31093	-0.0212045	-7.43368	-1.06113	9.79192	-0.0214833	0.0842035	0.121159	0.979004	0.0788574	-0.346436	0.407758	-0.55039	-0.408682	-0.603145	9.82974	0.152768	0.312674	0.0439637	-0.056367	-0.00850821	-0.930664	0.368164	0.081543	0.389795	-0.556402	-0.467206	-0.565858	9.84318	1.08502	-0.735734	0.0722091	0.00424693	-0.00832951	-1.00708	0.338379	0.180176	0.30569	-0.535249	-0.418971	-0.666727	9.75753	2.5763	0.837213	0.00235472	0.0520829	-0.0212714	-1.06836	0.12915	0.112549	0.342653	-0.304284	-0.0689235	-0.886143	5.79383	-1.2576	9.06021	0.134805	0.00382005	0.12995	-0.814941	0.373535	-0.522217	0.183892	-0.946694	-0.261272	-0.0411334	2.29242	-3.07746	-9.1849	0.0496249	-0.0381891	-0.128746	0.213135	0.547363	0.923828	
57952	0.601896	-0.351171	-0.433313	-0.571525	9.30926	0.829014	4.07879	0.0543997	0.0614939	-0.053316	-0.812988	0.331055	-0.384277	0.540689	-0.414204	-0.369893	-0.631878	9.24555	-0.00801256	3.86143	0.0520879	0.0178845	0.0346106	-0.752441	0.307373	-0.258057	0.718577	-0.093245	-0.395664	-0.564272	7.16671	3.2937	6.97402	-0.0339503	0.0177012	-0.0363539	-0.69043	-0.0561523	-0.838867	0.140742	0.399632	0.183779	-0.886968	-7.27402	-2.35889	6.11602	-0.0383058	0.0768442	0.0308273	0.446777	0.399902	-0.907471	0.535673	-0.417408	-0.137797	-0.720997	7.43075	-2.65441	6.05988	0.0310743	0.0382697	0.138343	-0.711426	0.604492	-0.374268	0.948579	-0.0509203	0.311806	-0.0195595	-7.30537	-1.14026	9.88206	-0.0559451	0.074182	0.105504	0.985596	0.0766602	-0.344238	0.408128	-0.550252	-0.409495	-0.602468	9.97098	0.0909266	0.272724	0.0861493	-0.0196492	-0.0278457	-0.930176	0.359619	0.0776367	0.389831	-0.55602	-0.466899	-0.566462	9.62377	0.966531	-0.526489	0.00349904	0.0328342	-0.0298052	-1.00537	0.346924	0.19873	0.305383	-0.534925	-0.417913	-0.667792	9.54216	2.79026	0.839588	-0.0912887	0.0674517	-0.00376554	-1.06836	0.126709	0.119141	0.344163	-0.304071	-0.0693286	-0.885599	5.97275	-0.918898	8.73403	0.0972133	-0.000324497	0.123876	-0.817139	0.375732	-0.531494	0.184027	-0.946088	-0.263278	-0.0416634	2.58471	-3.20797	-9.11716	0.00725571	-0.0121837	-0.179678	0.217529	0.545166	0.919189	
57953	0.602304	-0.350413	-0.433451	-0.571455	9.33952	0.877846	4.07505	0.0555802	0.0415588	-0.0155293	-0.813232	0.337402	-0.386475	0.541681	-0.413705	-0.370125	-0.631219	9.34944	-0.0409288	3.73547	0.0937843	0.0284475	0.0432494	-0.750488	0.307373	-0.262939	0.718252	-0.0933699	-0.395642	-0.56468	7.17376	3.13663	6.86302	-0.0283577	-0.0015959	-0.0221568	-0.692627	-0.0539551	-0.836426	0.141536	0.400446	0.183709	-0.886488	-7.26144	-2.12881	6.09637	-0.0207044	0.0633103	0.0803299	0.442139	0.4021	-0.905273	0.537127	-0.417456	-0.136998	-0.720039	7.24155	-2.56327	5.99167	0.0352815	0.021071	0.134343	-0.702881	0.611084	-0.37207	0.948243	-0.0522657	0.312715	-0.0177184	-7.10402	-1.13542	9.92542	-0.148406	0.0698709	0.0899532	0.985596	0.0788574	-0.340088	0.409129	-0.549459	-0.410723	-0.601676	9.95431	0.205915	0.32663	0.151055	0.00901996	-0.0200989	-0.922119	0.368164	0.0795898	0.389256	-0.556166	-0.466501	-0.567042	9.67585	0.964311	-0.432483	-0.0512155	0.0187144	-0.0391707	-1.00269	0.338379	0.191895	0.304647	-0.534853	-0.416431	-0.669109	9.56188	2.60008	1.12363	-0.142464	0.0730791	-1.05703e-05	-1.06616	0.12915	0.110352	0.346438	-0.302938	-0.0697523	-0.885067	6.65744	-0.928016	8.63472	0.136626	0.0627809	0.168816	-0.810791	0.380127	-0.522461	0.184948	-0.945264	-0.26544	-0.042557	2.24344	-3.20193	-9.38308	0.0679154	0.0364263	-0.216391	0.210449	0.553955	0.914551	
57954	0.602869	-0.349989	-0.433535	-0.571055	9.32652	0.814386	4.03965	0.061733	0.0229973	0.0139988	-0.799805	0.335449	-0.388672	0.542782	-0.413305	-0.370285	-0.630441	9.24545	0.0826635	3.69256	0.0931974	0.024781	0.0592476	-0.748047	0.302979	-0.260254	0.718175	-0.0926524	-0.396645	-0.564192	7.14829	3.03533	6.8924	0.104338	-0.0137181	0.00762249	-0.69043	-0.0583496	-0.836426	0.143078	0.400941	0.183908	-0.885975	-7.24985	-2.06482	6.02249	-0.0628235	0.0427643	0.124773	0.444336	0.404297	-0.907471	0.538346	-0.417606	-0.136003	-0.71923	7.4519	-2.49007	5.90677	0.0185638	0.0199072	0.118264	-0.704834	0.606689	-0.374268	0.947857	-0.0536151	0.313722	-0.0164435	-7.10987	-1.43502	9.8519	-0.136234	0.0784088	0.0546467	0.983398	0.0766602	-0.340088	0.410128	-0.548751	-0.411742	-0.600946	9.98018	0.469818	0.521375	0.141224	0.0167241	-0.0235072	-0.92627	0.365967	0.0773926	0.388902	-0.555973	-0.466723	-0.56729	9.96017	1.24352	-0.4921	0.0153446	-0.00115344	-0.0491523	-1.00269	0.335938	0.201172	0.302831	-0.535521	-0.413859	-0.670993	9.46958	2.31569	0.832956	-0.287986	0.0379893	-0.00616664	-1.073	0.12915	0.114746	0.348928	-0.301449	-0.07104	-0.884495	6.53731	-0.911327	8.57474	0.223983	0.0752216	0.166332	-0.817383	0.380127	-0.533691	0.185096	-0.94451	-0.267827	-0.0436906	1.88419	-3.23717	-9.37238	-0.00795384	0.0392881	-0.221019	0.203857	0.549561	0.916992	
57955	0.603648	-0.349495	-0.433704	-0.570407	9.39456	0.867224	4.08907	0.0781598	0.00967222	0.0330897	-0.810791	0.333252	-0.388672	0.543711	-0.413098	-0.370256	-0.629792	9.34064	0.29658	3.78243	0.0622931	0.0243185	0.0584137	-0.743652	0.305176	-0.262695	0.718428	-0.0914766	-0.398143	-0.563006	7.07353	3.31874	6.97841	0.171028	-0.0220468	0.0393437	-0.692383	-0.0605469	-0.833984	0.145052	0.401341	0.183872	-0.885481	-7.33296	-2.14669	6.03864	-0.0596302	0.0292958	0.162449	0.447021	0.393555	-0.907471	0.539271	-0.41811	-0.134893	-0.718453	7.59473	-2.45912	5.89752	-0.0282581	0.00850834	0.11382	-0.702881	0.613281	-0.374268	0.947509	-0.0544244	0.314666	-0.015817	-7.19038	-1.59776	9.73986	-0.0797537	0.083409	0.0167494	0.983398	0.0788574	-0.344482	0.410504	-0.548276	-0.412554	-0.600566	9.94893	0.55558	0.366926	0.083828	0.00788774	-0.0441555	-0.932617	0.36377	0.0773926	0.388059	-0.555734	-0.466764	-0.568068	10.079	0.93768	-0.259019	-0.0356654	0.0246568	-0.0751988	-1.00708	0.338135	0.198975	0.3026	-0.535548	-0.413697	-0.671175	10.0443	1.39748	0.646685	-0.0190956	-0.00269076	-0.00268081	-1.06372	0.12915	0.110352	0.350632	-0.299989	-0.0714317	-0.884286	6.0576	-0.604104	8.53576	0.131146	0.105114	0.122426	-0.810791	0.380127	-0.542969	0.185521	-0.943796	-0.269898	-0.0445601	2.06867	-3.44919	-9.06596	0.0266735	0.0230639	-0.196945	0.206055	0.551758	0.923584	
57956	0.604407	-0.349359	-0.433949	-0.569499	9.41521	0.881161	4.05399	0.0734089	-0.00835203	0.0604522	-0.813232	0.339844	-0.390869	0.544372	-0.413002	-0.370151	-0.629346	9.33178	0.233573	3.81407	0.0395338	0.0197766	0.0428002	-0.750488	0.30957	-0.260498	0.718625	-0.0908736	-0.399527	-0.56187	7.07148	3.44801	6.9479	0.134756	-0.0383975	0.0545946	-0.69458	-0.0583496	-0.834229	0.147081	0.401863	0.183238	-0.885041	-7.40708	-2.01727	6.03959	-0.0342881	0.0267399	0.181131	0.453613	0.395752	-0.903076	0.539792	-0.419312	-0.133664	-0.717591	7.45472	-2.47772	5.97813	-0.0713431	-0.0335061	0.104239	-0.700928	0.615479	-0.369629	0.947202	-0.0555066	0.315417	-0.0154882	-7.14172	-1.60609	9.71118	-0.0944897	0.078868	-0.00715193	0.985352	0.0852051	-0.331787	0.410937	-0.547887	-0.413029	-0.600298	10.0363	0.442248	0.305797	0.0626529	0.0257176	-0.0242882	-0.928467	0.365967	0.0773926	0.387419	-0.555661	-0.465966	-0.56923	9.72822	0.321515	-0.388747	-0.0842139	0.0622951	-0.0425176	-1.01343	0.338135	0.198975	0.303001	-0.535218	-0.414363	-0.670846	9.8157	1.76161	0.438741	0.0788981	-0.00433744	-0.0144652	-1.0708	0.12915	0.10791	0.352275	-0.298746	-0.0710947	-0.884081	6.18787	-0.530134	8.1886	0.0628865	0.0998238	0.131097	-0.805908	0.373779	-0.540527	0.187587	-0.942852	-0.271613	-0.0454655	1.80033	-3.04153	-9.14547	0.158652	0.0651475	-0.174611	0.201416	0.55835	0.916748	
57957	0.605145	-0.349608	-0.434017	-0.568509	9.42685	0.847721	4.01364	0.0558506	-0.021091	0.0755518	-0.812988	0.335449	-0.395264	0.544899	-0.412896	-0.36995	-0.629078	9.3406	0.256436	3.81423	0.0257866	0.0294175	0.0310732	-0.746094	0.307373	-0.265137	0.718885	-0.0903496	-0.401088	-0.560508	6.98296	3.4172	6.9407	0.155048	-0.0492176	0.0720437	-0.69458	-0.0625	-0.836426	0.148988	0.402485	0.182735	-0.884543	-7.47153	-1.97885	5.97237	-0.0304973	0.0306224	0.168817	0.451416	0.395752	-0.905273	0.540172	-0.420518	-0.132933	-0.716734	7.59987	-2.67408	5.95031	-0.0498774	-0.0531677	0.0796178	-0.703125	0.619873	-0.369629	0.946809	-0.0570812	0.31632	-0.0153463	-7.23209	-1.73226	9.74488	-0.121438	0.074659	-0.0247165	0.983398	0.0788574	-0.337891	0.411487	-0.547604	-0.413078	-0.600145	9.99623	0.725991	0.588744	0.04055	0.0438481	-0.00291172	-0.930664	0.368164	0.0773926	0.38769	-0.555234	-0.466712	-0.568852	9.69461	0.340252	-0.605361	0.0916541	-0.00607223	-0.0397614	-1.00684	0.335938	0.201416	0.305	-0.534037	-0.416812	-0.669363	9.94169	1.74779	0.585155	0.29808	-0.00298975	-0.00566988	-1.06616	0.12915	0.110352	0.35443	-0.297503	-0.0722425	-0.883546	6.40012	-0.903519	7.86702	0.172128	0.0570299	0.151205	-0.808594	0.384521	-0.542969	0.188032	-0.942326	-0.272962	-0.0464426	1.13324	-2.62294	-8.93578	0.0208138	0.0473143	-0.141083	0.196777	0.55835	0.914551	
57958	0.605654	-0.349892	-0.434126	-0.567709	9.39915	0.739023	3.91883	0.0373102	-0.0333254	0.0652299	-0.811279	0.341797	-0.388672	0.545273	-0.412607	-0.369696	-0.629093	9.14967	0.262286	3.89243	0.016684	0.0431425	0.00965721	-0.743896	0.307129	-0.267578	0.719222	-0.0893185	-0.402806	-0.559007	6.91347	3.49527	6.89973	0.188507	-0.0416906	0.0636042	-0.687988	-0.0693359	-0.829346	0.150556	0.403123	0.182318	-0.884073	-7.55955	-1.98881	5.99717	-0.0255771	0.0449817	0.14555	0.460449	0.395752	-0.905273	0.540766	-0.421393	-0.132972	-0.715765	7.5539	-2.6844	6.06121	0.0194858	-0.0668443	0.0672403	-0.703125	0.615479	-0.37207	0.946538	-0.0581117	0.316946	-0.0152707	-7.19675	-1.78624	9.96892	-0.0787476	0.0684194	-0.0319926	0.983154	0.0810547	-0.338135	0.411614	-0.547585	-0.413037	-0.600104	9.87098	0.543349	0.377583	0.00737837	0.0266998	-0.0152227	-0.934814	0.365967	0.0751953	0.388177	-0.5548	-0.468263	-0.567667	9.71999	0.803216	-0.905823	0.173363	-0.050732	-0.0406052	-1.00464	0.331787	0.194336	0.306964	-0.532814	-0.419152	-0.667978	9.64823	2.53073	0.863286	0.291551	0.0142544	-0.0100584	-1.073	0.131348	0.103516	0.355479	-0.297094	-0.0725774	-0.883234	5.42665	-0.60906	7.88909	0.0781106	0.0294109	0.0851991	-0.797607	0.386963	-0.54541	0.187224	-0.942204	-0.273901	-0.0466583	1.12338	-2.92052	-8.77041	-0.0627473	-0.0275114	-0.0935387	0.19458	0.558105	0.918945	
57959	0.605957	-0.350317	-0.434102	-0.567142	9.38931	0.709787	3.84006	0.0149828	-0.026169	0.0453923	-0.808838	0.339844	-0.395264	0.545487	-0.412231	-0.369513	-0.629261	9.02195	0.141009	3.69544	0.0139075	0.0431034	-0.00883951	-0.746094	0.311523	-0.267822	0.719562	-0.0882237	-0.404167	-0.55776	6.86184	3.70285	6.85504	0.15748	-0.026093	0.0452948	-0.69873	-0.0668945	-0.833984	0.151825	0.403926	0.182372	-0.883478	-7.59619	-1.89156	5.90834	-0.047047	0.0621369	0.109309	0.458252	0.395752	-0.900879	0.541357	-0.421953	-0.133349	-0.714917	7.18989	-2.50101	6.20248	0.0394889	-0.0624398	0.0531157	-0.700928	0.617676	-0.374268	0.946356	-0.0588262	0.317376	-0.0148837	-7.10585	-1.63507	10.0093	-0.0615029	0.0544064	0.00126821	0.983154	0.0830078	-0.33374	0.412155	-0.547022	-0.413759	-0.599749	9.64962	0.0793302	0.338688	0.0900992	0.0262886	-0.0315791	-0.934814	0.36377	0.0754395	0.388366	-0.554567	-0.468512	-0.567559	9.67637	0.822292	-0.713237	0.0532485	0.0097126	-0.0184586	-1.00488	0.340332	0.201172	0.308	-0.532003	-0.42	-0.667615	9.51075	2.39986	0.61644	0.123153	0.0295582	-0.00657064	-1.06616	0.133789	0.105713	0.355565	-0.297775	-0.0723002	-0.882993	5.50649	-0.584498	7.84372	-0.0208745	-0.0454139	0.0275447	-0.804199	0.384766	-0.547607	0.187793	-0.941945	-0.274531	-0.0458839	1.3538	-2.92759	-8.65414	0.0659208	-0.0674512	-0.0475562	0.190186	0.555908	0.918945	
57960	0.606142	-0.350389	-0.43396	-0.567008	9.33732	0.578187	3.80059	0.00453747	-0.00766286	0.0144523	-0.811035	0.337646	-0.390869	0.545809	-0.411936	-0.369808	-0.629002	8.92033	-0.0478494	3.58202	0.0522636	0.00841509	0.000518525	-0.74585	0.305176	-0.265137	0.719536	-0.0878002	-0.404923	-0.557312	6.96997	3.73042	6.79655	0.077653	-0.0133617	0.017147	-0.692383	-0.0712891	-0.826904	0.152849	0.404622	0.18307	-0.882838	-7.61544	-1.86834	5.7439	-0.0845521	0.0698554	0.0721295	0.459961	0.402344	-0.896484	0.541707	-0.422132	-0.133223	-0.71457	7.08648	-2.56987	6.24984	0.0160848	-0.0127026	0.0312815	-0.703125	0.615479	-0.369629	0.946303	-0.058933	0.317552	-0.0141047	-7.16699	-1.39903	9.87574	-0.0229711	0.0268673	0.0483878	0.987549	0.0810547	-0.331543	0.413035	-0.54625	-0.415073	-0.598939	9.51818	-0.0795053	0.40725	0.15228	0.0100739	-0.0310171	-0.928467	0.368164	0.0732422	0.388592	-0.554405	-0.468817	-0.567311	9.4184	0.702123	-0.719474	0.0651993	0.0117581	-0.0240972	-1.00488	0.340332	0.194092	0.309213	-0.531054	-0.421109	-0.66711	9.48302	2.04984	0.776218	0.154237	0.0403839	-0.0144676	-1.06372	0.131592	0.10791	0.355394	-0.29895	-0.0733466	-0.882578	5.72912	-0.609894	7.74243	0.0448282	-0.121502	-0.0105249	-0.806641	0.386719	-0.538574	0.188382	-0.941856	-0.274637	-0.0446644	1.53195	-2.50037	-8.51839	0.0786512	-0.0985232	0.00528676	0.198975	0.55835	0.921387	
57961	0.606271	-0.350083	-0.434036	-0.567001	9.29325	0.539495	3.81149	0.0248148	0.00900259	-0.00981493	-0.81543	0.337646	-0.395264	0.546441	-0.411503	-0.370472	-0.628346	9.09285	-0.111403	3.63	0.0955225	-0.00263764	0.0188126	-0.739502	0.304932	-0.274658	0.719333	-0.087817	-0.40489	-0.557595	7.08345	3.59038	6.71743	-0.0161888	0.00531132	-0.015713	-0.700928	-0.0690918	-0.826904	0.154012	0.405165	0.184454	-0.882099	-7.57627	-1.87502	5.809	-0.130222	0.0663938	0.0618119	0.459961	0.404541	-0.903076	0.542357	-0.421549	-0.133174	-0.71443	7.17076	-2.78134	6.14251	0.0553354	0.0457811	0.0305344	-0.698975	0.619873	-0.369629	0.946356	-0.0589552	0.317445	-0.0127677	-7.24471	-1.2817	9.83239	-0.0288336	-0.00534694	0.0878011	0.981445	0.0744629	-0.331299	0.414358	-0.545438	-0.416536	-0.597748	9.5968	0.145374	0.400149	0.197374	0.00144703	-0.0136154	-0.928223	0.361816	0.0710449	0.389313	-0.554429	-0.46896	-0.566676	9.56129	0.823004	-0.488007	0.087829	0.00139237	0.0231426	-1.00513	0.342529	0.191895	0.309042	-0.53079	-0.420791	-0.6676	9.43216	2.88089	0.798218	-0.0283801	0.0421113	-0.0270214	-1.07104	0.135986	0.105713	0.355341	-0.300118	-0.0744029	-0.882115	6.04492	-0.546629	7.96323	0.05843	-0.112678	0.00285437	-0.808838	0.388916	-0.533936	0.18724	-0.942194	-0.274346	-0.0441084	1.79573	-2.70787	-8.79955	-0.0675747	-0.0763955	0.0227838	0.205811	0.55835	0.914551	
57962	0.606553	-0.349507	-0.43416	-0.56696	9.35544	0.548435	3.88164	0.0464474	0.0211185	-0.0114023	-0.813232	0.337646	-0.393066	0.547414	-0.410916	-0.3713	-0.627392	9.16263	0.172629	3.77012	0.132139	-0.00737635	0.0382229	-0.744141	0.313721	-0.267822	0.718881	-0.0879358	-0.404826	-0.558205	7.0069	3.32625	6.65546	-0.0270217	0.0132802	-0.0355294	-0.696533	-0.0734863	-0.831543	0.155615	0.405587	0.186323	-0.88123	-7.4114	-1.94284	5.98031	-0.189163	0.0711899	0.0789578	0.468994	0.402344	-0.894287	0.543611	-0.420291	-0.133384	-0.714179	7.24917	-2.79346	5.95727	0.130066	0.0718199	0.0496589	-0.696533	0.617676	-0.37207	0.946477	-0.0590452	0.317134	-0.0110273	-7.28527	-1.33157	9.75349	-0.0453576	-0.018972	0.108186	0.983398	0.0766602	-0.329346	0.415446	-0.544896	-0.417543	-0.596783	9.62154	0.813611	0.728179	0.141593	0.00451487	0.00662382	-0.932861	0.368164	0.0732422	0.389653	-0.554672	-0.468715	-0.566406	9.71139	0.993067	-0.230707	0.0327003	0.00302418	0.0189499	-1.00732	0.342529	0.196533	0.308731	-0.530747	-0.420021	-0.668263	9.68615	2.00403	0.78821	-0.0744402	0.0388275	-0.0149248	-1.06616	0.131348	0.112549	0.355054	-0.301087	-0.0751509	-0.881836	6.49927	-0.777119	8.27597	0.0409777	-0.0817919	-0.0123853	-0.811035	0.386719	-0.538574	0.18553	-0.942731	-0.273731	-0.0436888	1.91777	-3.24255	-9.12387	-0.12409	-0.0614881	0.0400513	0.201416	0.553955	0.921387	
57963	0.607057	-0.348744	-0.434467	-0.566655	9.49032	0.544949	3.92681	0.0794518	0.0239656	-0.00202601	-0.81543	0.3396	-0.393066	0.5483	-0.410332	-0.371759	-0.62673	9.15615	0.357105	3.87311	0.105175	0.0213708	0.0295464	-0.748047	0.302979	-0.267334	0.718815	-0.087054	-0.40532	-0.55807	7.00508	3.21337	6.71883	0.0677793	0.0182419	-0.0170537	-0.696533	-0.0734863	-0.831543	0.157327	0.406362	0.187818	-0.880251	-7.30213	-2.10241	5.9046	-0.167317	0.0783669	0.0957265	0.466553	0.404541	-0.894287	0.545194	-0.418921	-0.133886	-0.713683	7.28931	-2.65564	5.88492	0.162266	0.0606871	0.0692386	-0.696533	0.615479	-0.376465	0.946559	-0.0595893	0.316843	-0.00928135	-7.23436	-1.39861	9.64861	-0.0809021	-0.0236554	0.10705	0.988037	0.0678711	-0.331299	0.415637	-0.545528	-0.417638	-0.596006	9.8903	0.829913	0.508435	0.0200317	-0.038081	0.0297004	-0.930664	0.365967	0.0751953	0.389945	-0.554972	-0.468848	-0.565801	9.84424	1.06799	-0.539851	0.0561888	-0.0238412	0.0165254	-1.00903	0.336182	0.196533	0.308893	-0.530105	-0.420418	-0.668448	9.63432	2.10622	1.02964	0.0419201	0.0521489	-0.0432482	-1.06836	0.131592	0.105713	0.354664	-0.301906	-0.0752713	-0.881703	6.37545	-0.673687	8.52115	-0.0117818	-0.0549916	-0.0134299	-0.817383	0.382324	-0.533936	0.184703	-0.943082	-0.273184	-0.0430299	1.97537	-3.63573	-9.37314	-0.0447835	-0.0720802	0.049319	0.208252	0.551758	0.916748	
57964	0.607686	-0.34782	-0.435084	-0.566076	9.51158	0.606742	3.9922	0.117201	0.0165844	-0.00101305	-0.81543	0.335449	-0.393066	0.548831	-0.410082	-0.371745	-0.626436	9.4204	0.352775	3.70193	0.0374555	0.0282377	0.0280596	-0.748291	0.309326	-0.272217	0.719173	-0.0854519	-0.406857	-0.556736	7.1197	3.31508	6.8338	0.202868	-0.00264428	0.0394895	-0.689941	-0.0756836	-0.829102	0.159012	0.40718	0.188544	-0.879415	-7.43163	-2.06469	5.80853	-0.112552	0.0771558	0.121739	0.466553	0.406738	-0.894287	0.546639	-0.418088	-0.134166	-0.713013	7.43982	-2.52143	5.84645	0.118935	0.0338343	0.0848823	-0.694336	0.617676	-0.381104	0.946597	-0.0601953	0.316658	-0.00757123	-7.25866	-1.52896	9.55494	-0.0830322	-0.014738	0.0862682	0.988281	0.065918	-0.331055	0.416174	-0.545512	-0.41821	-0.595245	10.1704	0.535918	0.200914	0.0743691	-0.0106738	0.0104044	-0.933105	0.372559	0.0773926	0.390258	-0.555293	-0.468492	-0.565565	10.0819	0.94959	-0.322335	0.011797	0.00538621	0.0404895	-1.00317	0.346924	0.19873	0.308217	-0.530222	-0.419709	-0.669113	9.7157	2.64271	1.12979	-0.0872802	0.0208472	-0.029864	-1.06348	0.122559	0.101318	0.354306	-0.302825	-0.0750059	-0.881554	6.27979	-0.771368	8.74712	-0.0445493	-0.0423915	0.00873575	-0.813232	0.388916	-0.533936	0.184888	-0.943247	-0.272657	-0.0419505	1.96411	-3.56175	-9.24022	0.0402211	-0.0731736	0.0414954	0.212646	0.55835	0.916748	
57965	0.608309	-0.346625	-0.436058	-0.565388	9.55987	0.759386	4.04528	0.147951	0.0100705	-0.0105537	-0.812988	0.333252	-0.397217	0.548497	-0.411109	-0.371947	-0.625936	9.39121	0.273123	3.85266	-0.0268752	-0.0793791	0.0230636	-0.748291	0.311523	-0.267578	0.71975	-0.0838112	-0.409098	-0.554594	7.16299	3.62529	7.00192	0.265663	-0.0491529	0.084355	-0.69873	-0.0754395	-0.83374	0.1608	0.407913	0.188658	-0.878726	-7.56494	-2.06476	5.8044	-0.0716536	0.0627142	0.149218	0.470947	0.406738	-0.89209	0.547698	-0.417894	-0.134025	-0.712341	7.60146	-2.53811	5.80531	0.0559585	0.00841524	0.0835217	-0.696533	0.617676	-0.381104	0.946591	-0.0609342	0.316562	-0.00640479	-7.22265	-1.55778	9.68129	-0.0790979	-0.00564697	0.0416362	0.981689	0.0678711	-0.337646	0.416162	-0.546023	-0.418525	-0.594563	10.187	0.479988	0.318768	0.0240223	-0.0379382	0.00267469	-0.928467	0.368164	0.0710449	0.390349	-0.555716	-0.467745	-0.565705	9.80488	1.17658	-0.100294	-0.0194061	0.026062	0.0257286	-1.00513	0.342773	0.189453	0.306679	-0.530898	-0.418125	-0.670274	9.5782	2.5866	1.178	-0.198033	-0.000939202	-0.0201194	-1.0686	0.135986	0.10791	0.354005	-0.303928	-0.0737218	-0.881404	6.43037	-0.860176	8.82034	-0.113449	-0.0330224	0.030373	-0.812988	0.384521	-0.522461	0.185358	-0.943288	-0.272283	-0.0413722	2.33086	-3.33826	-9.16228	0.044267	-0.0288489	0.0245699	0.212646	0.55835	0.918945	
57966	0.608917	-0.345539	-0.436976	-0.56469	9.48595	0.96415	4.00309	0.138617	0.00114261	-0.00474633	-0.812988	0.333252	-0.39502	0.548385	-0.411711	-0.372029	-0.62559	9.43734	0.142785	3.7556	-0.0109769	-0.0394418	0.0182896	-0.748291	0.309326	-0.267578	0.720047	-0.0834624	-0.410897	-0.552928	7.12266	3.74182	7.10601	0.166399	-0.0786982	0.0934607	-0.696289	-0.0820312	-0.828857	0.16243	0.408591	0.188043	-0.878242	-7.66627	-2.11446	5.80331	-0.0117721	0.0417071	0.157456	0.473145	0.406738	-0.89209	0.548394	-0.418251	-0.134055	-0.711589	7.71304	-2.52969	5.73844	0.0266876	-0.0300247	0.0687699	-0.687988	0.620117	-0.385742	0.946562	-0.0621247	0.316426	-0.00593489	-7.2	-1.67895	9.80007	-0.10135	0.010364	-0.0121187	0.98584	0.0722656	-0.333496	0.416332	-0.546235	-0.418057	-0.594577	10.1288	0.374869	0.393539	-0.0216772	0.0268509	0.0207694	-0.926514	0.370361	0.0710449	0.389586	-0.55648	-0.466229	-0.566731	9.92751	1.34892	-0.392194	-0.142726	0.0279111	0.0141162	-1.00513	0.342529	0.19873	0.305956	-0.531433	-0.417416	-0.670622	9.66852	2.18553	0.919788	-0.0888169	-0.0152458	-0.0187199	-1.073	0.12915	0.10791	0.353537	-0.304621	-0.0725434	-0.88145	6.49383	-0.948135	8.74364	-0.0999628	0.00624284	0.0201157	-0.808838	0.386719	-0.536133	0.185837	-0.943366	-0.271674	-0.0414535	2.37038	-3.29691	-9.21729	0.0326934	0.0192723	0.0358044	0.210449	0.556152	0.919189	
57967	0.609237	-0.345001	-0.437706	-0.564109	9.39036	0.957712	3.93896	0.0928613	-0.0164684	-0.000131846	-0.817383	0.333252	-0.397217	0.547712	-0.412642	-0.37165	-0.625791	9.39578	0.0854958	3.87358	-0.0849606	-0.0347283	-0.00700638	-0.741943	0.311523	-0.262939	0.720239	-0.0837422	-0.412168	-0.551689	7.02318	3.63309	7.01114	0.0796809	-0.0838317	0.0872958	-0.698486	-0.079834	-0.829102	0.163614	0.409167	0.186982	-0.877981	-7.72015	-2.08015	5.81471	0.0382068	0.0285012	0.13835	0.477783	0.404541	-0.887695	0.548851	-0.418685	-0.134113	-0.710971	7.74877	-2.45202	5.7348	0.0175595	-0.0474738	0.0469615	-0.688232	0.626709	-0.383545	0.946456	-0.0632568	0.316513	-0.0062568	-7.06701	-1.8476	9.95273	-0.0743561	0.0229264	-0.0642128	0.988037	0.0700684	-0.339844	0.416375	-0.546332	-0.417681	-0.594724	9.98238	0.353655	0.643872	-0.0226248	0.0308098	0.000392201	-0.932861	0.368164	0.0732422	0.388991	-0.556731	-0.465174	-0.567759	9.7121	0.720742	-0.555889	-0.0984532	0.0538382	-0.014524	-1.00269	0.338379	0.196533	0.306267	-0.531142	-0.418132	-0.670265	9.737	2.08591	0.919333	0.0748311	-0.00457175	-0.0228847	-1.06616	0.12915	0.112549	0.353568	-0.304319	-0.0713453	-0.88164	6.37848	-1.00173	8.73703	-0.0782933	0.0631143	0.0296984	-0.813232	0.388916	-0.524902	0.18592	-0.943426	-0.271305	-0.0421244	2.28251	-3.22375	-9.34618	-0.00486618	0.0469901	0.00883863	0.206055	0.553955	0.921387	
57968	0.609103	-0.344957	-0.438419	-0.563726	9.30152	0.918842	3.84792	0.0495179	-0.0479298	-0.0115232	-0.812988	0.331055	-0.397217	0.547013	-0.413286	-0.370821	-0.626469	9.27817	0.0343814	3.79845	-0.108131	0.0144144	-0.0255212	-0.750732	0.315918	-0.260742	0.720373	-0.083818	-0.413389	-0.550588	7.02142	3.57859	7.03666	0.0902158	-0.0741538	0.0705577	-0.700684	-0.0820312	-0.82666	0.16421	0.409578	0.185926	-0.877902	-7.82473	-1.99265	5.71086	0.0617218	0.011437	0.0900795	0.473633	0.397949	-0.889893	0.548809	-0.419141	-0.133989	-0.710758	7.55822	-2.33118	5.84862	-0.00727999	-0.0280989	0.00175154	-0.694336	0.617676	-0.378906	0.946447	-0.0639309	0.31639	-0.00697361	-6.93742	-1.8268	10.0645	-0.0293219	0.0177194	-0.0929336	0.987793	0.0744629	-0.333496	0.416075	-0.546241	-0.417273	-0.595302	9.82574	0.171054	0.499039	-0.0490196	0.0517454	-0.030675	-0.930664	0.370361	0.072998	0.388702	-0.556765	-0.46484	-0.568197	9.60792	0.750107	-0.524702	-0.0256929	0.0245694	-0.0190813	-1.00732	0.346924	0.201172	0.305732	-0.531403	-0.417884	-0.670456	9.4574	2.86319	0.933716	-0.0438592	-0.00538689	-0.0253306	-1.0708	0.12915	0.110107	0.353746	-0.303688	-0.0704758	-0.881856	6.27679	-1.30734	8.74126	-0.0267096	0.0963728	0.0433981	-0.811279	0.391113	-0.536377	0.186556	-0.943192	-0.271546	-0.042999	2.23275	-3.27671	-9.34438	0.0428422	0.0604598	-0.0393726	0.210205	0.560547	0.916748	
57969	0.608577	-0.345153	-0.439031	-0.563698	9.34032	0.966177	3.84224	0.00727777	-0.0621759	-0.0338216	-0.80835	0.331055	-0.401611	0.545957	-0.414402	-0.3698	-0.627255	9.21317	0.000294666	3.66473	-0.151202	-0.00406811	-0.0284957	-0.739746	0.313721	-0.260742	0.720449	-0.083421	-0.414525	-0.549693	7.02359	3.79427	7.08124	0.103782	-0.0484598	0.042159	-0.704834	-0.0842285	-0.824219	0.164162	0.409503	0.184944	-0.878154	-7.97329	-1.94932	5.54627	0.0681194	-0.0156326	0.0310375	0.471436	0.395752	-0.896484	0.547914	-0.419438	-0.133441	-0.711376	7.49048	-2.29531	5.90892	-0.077964	0.0322142	-0.0597085	-0.690186	0.620117	-0.381104	0.946489	-0.0637911	0.316262	-0.00828339	-6.84971	-1.70425	10.0959	0.0508974	0.0102087	-0.113543	0.985596	0.0744629	-0.337891	0.415544	-0.546198	-0.416704	-0.596111	9.97217	0.216479	0.538978	-0.073371	0.0565001	-0.045229	-0.92627	0.365967	0.0688477	0.387973	-0.557078	-0.464377	-0.568766	9.74971	1.27627	-0.448831	-0.0571554	0.0111201	-0.0381498	-1.00488	0.340332	0.196533	0.304046	-0.532582	-0.415852	-0.67155	9.58123	2.59811	0.967523	-0.241767	-0.0177224	-0.000542025	-1.0708	0.12915	0.10791	0.354118	-0.302807	-0.0708847	-0.881977	5.77603	-1.05694	8.64028	0.0669533	0.06452	0.0174972	-0.811279	0.391113	-0.5271	0.187046	-0.942962	-0.271886	-0.0437551	2.21409	-2.94628	-8.94096	0.0240107	0.0559368	-0.0532559	0.208252	0.556152	0.919189	
57970	0.607879	-0.345656	-0.439204	-0.564008	9.40799	0.987466	3.86003	-0.0467126	-0.0632775	-0.0379562	-0.817139	0.328857	-0.393066	0.544783	-0.415696	-0.368435	-0.628223	9.23536	-0.0522543	3.6047	-0.186629	-0.000142367	-0.0266649	-0.750732	0.315918	-0.258545	0.72001	-0.0841516	-0.414663	-0.550054	7.03088	4.07575	7.00551	-0.0501096	-0.0438796	-0.00598928	-0.707275	-0.0776367	-0.829102	0.163803	0.408882	0.184202	-0.878666	-7.93804	-1.96264	5.4821	0.0532634	-0.0483447	-0.00815571	0.471191	0.400146	-0.887695	0.546204	-0.419573	-0.132466	-0.712792	7.51027	-2.55023	5.90925	-0.128024	0.069038	-0.131689	-0.696533	0.617676	-0.378906	0.946551	-0.0635628	0.316061	-0.0103048	-6.74028	-1.35927	10.0754	0.073666	0.0178753	-0.168439	0.983154	0.0830078	-0.33374	0.415304	-0.545705	-0.416098	-0.597153	9.83679	-0.00636045	0.406624	-0.0585875	0.0926967	-0.0486029	-0.934814	0.365967	0.0668945	0.386432	-0.557609	-0.463341	-0.570139	9.67845	1.27267	-0.281003	-0.162152	0.0182189	-0.0583181	-1.00708	0.338135	0.198975	0.303399	-0.532701	-0.415438	-0.672004	9.58169	1.9717	1.0718	-0.062077	0.00142036	-0.0335451	-1.06128	0.126953	0.112549	0.353973	-0.301914	-0.0707925	-0.882349	6.14543	-0.776822	8.21505	0.0328132	0.0941298	-0.00370741	-0.804443	0.391113	-0.536377	0.187615	-0.942717	-0.272162	-0.0448663	2.11435	-3.18277	-8.98456	0.0329687	0.0832161	-0.055715	0.199219	0.556152	0.918945	
57971	0.606862	-0.34665	-0.439175	-0.564516	9.40791	0.925007	3.86299	-0.093399	-0.0652565	-0.0321182	-0.817383	0.331055	-0.390869	0.543585	-0.416775	-0.367363	-0.629172	9.22996	-0.111959	3.69433	-0.1626	0.00104402	-0.0415778	-0.744385	0.318115	-0.256104	0.718844	-0.0866007	-0.413475	-0.552088	7.06978	3.89942	6.82034	-0.255508	-0.0582404	-0.0684914	-0.707275	-0.0776367	-0.829102	0.163803	0.407826	0.184199	-0.879157	-7.83923	-2.07417	5.44976	-0.00139351	-0.0862784	-0.00995003	0.471436	0.397949	-0.898682	0.542982	-0.421109	-0.130628	-0.714685	7.37045	-2.09403	5.90546	-0.297521	0.0345741	-0.190974	-0.69458	0.619873	-0.369629	0.946389	-0.0646893	0.316211	-0.0132035	-6.8432	-1.25602	9.97247	-0.00988972	0.0482702	-0.254595	0.983154	0.0830078	-0.33374	0.415456	-0.544928	-0.415664	-0.598058	9.81075	0.291081	0.497838	-0.0165999	0.1083	-0.0430467	-0.93042	0.364014	0.0668945	0.383986	-0.558916	-0.461089	-0.572333	9.95707	0.815547	-0.278079	-0.313296	0.0242707	-0.0399446	-1.00488	0.335938	0.206055	0.302481	-0.532931	-0.41505	-0.672475	9.70391	2.55657	1.01468	-0.0747055	-0.00345853	-0.0472927	-1.06128	0.124512	0.116943	0.354038	-0.300152	-0.0712211	-0.882889	6.27253	-0.756607	8.23817	0.0885481	0.132693	-0.0227437	-0.811035	0.386719	-0.540771	0.188435	-0.942517	-0.272086	-0.0460738	1.85622	-3.02408	-8.96306	0.0475171	0.0940215	-0.0190153	0.196777	0.560547	0.916748	
57972	0.605749	-0.347927	-0.439051	-0.565021	9.46825	0.839471	3.87023	-0.11286	-0.0770919	-0.0264749	-0.817383	0.333252	-0.393066	0.542554	-0.417767	-0.366359	-0.629989	9.34926	-0.0444998	3.831	-0.143861	0.00146385	-0.0354496	-0.746338	0.316162	-0.251465	0.717354	-0.0887126	-0.412446	-0.554456	7.13069	3.42473	6.665	-0.252399	-0.0653294	-0.112832	-0.702881	-0.0712891	-0.820068	0.163664	0.406644	0.182995	-0.879982	-7.6949	-2.35731	5.50992	0.0808549	-0.115201	0.0108199	0.469238	0.395752	-0.896484	0.537576	-0.425634	-0.125485	-0.717008	7.06477	-2.04914	5.79834	-0.688608	0.000784342	-0.196846	-0.701416	0.628662	-0.360596	0.94603	-0.0665871	0.316759	-0.0160254	-7.07489	-1.59573	9.86954	-0.0718095	0.0851561	-0.280355	0.987305	0.0895996	-0.327637	0.415242	-0.544561	-0.41503	-0.59898	10.0601	0.569955	0.511689	-0.0586161	0.0859352	-0.0385335	-0.935059	0.368164	0.0603027	0.382771	-0.559504	-0.459884	-0.57354	9.73935	0.616031	-0.510859	-0.1486	0.0321866	-0.0274896	-1.00488	0.338135	0.205811	0.299847	-0.534373	-0.412511	-0.674071	9.58978	2.5017	0.948063	-0.332179	-0.0200362	-0.0321792	-1.06836	0.12915	0.114746	0.353385	-0.29912	-0.0707924	-0.883535	6.00969	-0.488705	8.42026	-0.0157566	0.111545	-0.0449539	-0.804199	0.386963	-0.542969	0.18833	-0.942589	-0.271657	-0.0475362	1.61229	-3.10146	-8.99991	-0.0395628	0.0993766	0.00765656	0.196777	0.55835	0.916748	
57973	0.604747	-0.349156	-0.438906	-0.565449	9.6043	0.762503	3.86407	-0.106871	-0.0797889	-0.0218608	-0.817383	0.333008	-0.386475	0.541616	-0.418739	-0.365128	-0.630866	9.33707	0.303349	3.7309	-0.15513	0.019835	-0.0244682	-0.746582	0.32251	-0.260986	0.715899	-0.0896586	-0.412497	-0.556145	7.07476	3.46052	6.73514	-0.108101	-0.0775903	-0.121577	-0.705078	-0.0688477	-0.824707	0.162987	0.405985	0.180082	-0.881012	-7.5576	-2.06051	5.95181	0.23148	-0.105447	0.0340321	0.462891	0.391357	-0.900635	0.533333	-0.429354	-0.12145	-0.718652	7.49044	-3.63123	5.66304	-0.538657	-0.0116342	-0.148284	-0.703369	0.626465	-0.35376	0.945444	-0.0682627	0.317989	-0.0189638	-7.41658	-1.92557	9.69269	-0.0509855	0.134227	-0.284125	0.984619	0.100342	-0.327881	0.415035	-0.544324	-0.413872	-0.600139	10.0183	0.674455	0.626891	-0.0903856	0.101307	-0.0233438	-0.92627	0.366211	0.0583496	0.381155	-0.560791	-0.458085	-0.574797	9.78639	0.903432	-0.172948	-0.213375	0.0049987	-0.000804642	-1.00244	0.331543	0.206055	0.297372	-0.535852	-0.410142	-0.675438	9.77455	1.67862	0.698033	-0.307187	-0.0391229	-0.0321384	-1.06348	0.124512	0.116943	0.352445	-0.29869	-0.0699233	-0.884125	6.1688	-0.647935	8.23769	-0.071507	0.0721648	-0.0551619	-0.806396	0.384521	-0.533936	0.188155	-0.942801	-0.270808	-0.0488557	1.64474	-3.25025	-8.95112	-0.0440108	0.0972359	0.0392372	0.199219	0.556152	0.914551	
57974	0.603891	-0.350189	-0.438724	-0.565866	9.64939	0.736574	3.82447	-0.0937868	-0.0586721	-0.0194187	-0.81958	0.333008	-0.386475	0.540217	-0.420008	-0.363564	-0.632124	9.24747	0.376818	3.9195	-0.208349	0.0101258	-0.0458254	-0.746338	0.318115	-0.256104	0.714452	-0.0905796	-0.412758	-0.55766	7.00562	3.65376	6.80338	-0.0871765	-0.0940116	-0.11483	-0.713623	-0.0754395	-0.820068	0.162012	0.405685	0.177118	-0.88193	-7.54582	-1.76329	6.25973	0.248305	-0.0663952	0.0257747	0.465332	0.386963	-0.907227	0.531918	-0.430147	-0.121848	-0.719159	7.76929	-3.65677	5.83908	-0.0565426	-0.0465757	-0.115037	-0.705566	0.624023	-0.346924	0.94483	-0.0698113	0.319274	-0.0220821	-7.65235	-2.08792	9.57088	-0.0408025	0.147015	-0.283296	0.988525	0.111328	-0.328125	0.414402	-0.544472	-0.412485	-0.601396	9.92022	0.623368	0.603625	-0.139385	0.0787679	-0.0235508	-0.93042	0.364014	0.0690918	0.379873	-0.562024	-0.456279	-0.575877	9.97374	0.513697	-0.410881	-0.196705	0.00887224	0.0251592	-1.00659	0.327393	0.206055	0.296455	-0.53635	-0.409938	-0.675569	9.87331	1.57734	0.622156	-0.0597097	-0.0374464	-0.04127	-1.06836	0.126709	0.116943	0.351029	-0.298697	-0.0689961	-0.884759	5.9738	-0.704783	8.16576	-0.0923295	0.0549283	-0.075079	-0.808838	0.386719	-0.540771	0.188817	-0.943038	-0.269376	-0.0496357	1.68578	-3.06495	-8.92685	0.027103	0.0906375	0.085854	0.196777	0.55835	0.916748	
57975	0.603172	-0.35101	-0.438415	-0.566363	9.58675	0.730028	3.80063	-0.0893908	-0.0374958	-0.019608	-0.817627	0.337402	-0.384521	0.538371	-0.421318	-0.362032	-0.633704	9.24928	0.0438963	3.80522	-0.237543	0.00661317	-0.0780707	-0.746338	0.316162	-0.249023	0.712951	-0.0918507	-0.412928	-0.559245	7.05778	3.56603	6.80669	-0.126419	-0.0943999	-0.104044	-0.711426	-0.0732422	-0.820068	0.160257	0.405897	0.1744	-0.882695	-7.56971	-1.57799	6.38557	0.261308	-0.0123023	-0.0298205	0.467773	0.378174	-0.904785	0.530804	-0.431047	-0.122857	-0.719271	7.43496	-2.69414	6.16651	-0.00884373	-0.082316	-0.102107	-0.709717	0.619629	-0.349121	0.944275	-0.0709673	0.320469	-0.0246612	-7.64467	-2.38491	9.60644	-0.0257206	0.138486	-0.225054	0.979736	0.115723	-0.319824	0.413494	-0.545051	-0.411219	-0.602363	9.86834	0.32269	0.652975	-0.151709	0.0472721	-0.014565	-0.932617	0.364014	0.0625	0.379676	-0.562057	-0.455648	-0.576475	9.7776	0.16896	-0.627422	-0.0468868	0.0429109	-0.00181912	-1.00439	0.32959	0.203857	0.297034	-0.535958	-0.411529	-0.674658	9.74125	2.05988	0.627184	0.158159	-0.030297	-0.0478838	-1.06592	0.126953	0.116943	0.34855	-0.299034	-0.0678188	-0.885716	5.9249	-0.719338	8.07555	-0.150527	0.0349352	-0.156933	-0.806152	0.380127	-0.536133	0.188648	-0.943609	-0.267334	-0.0504705	1.80692	-2.8159	-8.86762	-0.0454508	0.0828121	0.140808	0.199463	0.551514	0.921387	
57976	0.602528	-0.35188	-0.437774	-0.567004	9.5812	0.736688	3.79704	-0.107736	-0.017691	-0.019543	-0.819824	0.335205	-0.386475	0.536738	-0.422131	-0.360844	-0.635224	9.215	-0.21147	3.8741	-0.191161	0.0249037	-0.0897671	-0.750732	0.316162	-0.244385	0.71159	-0.092706	-0.412956	-0.560814	7.07077	3.38489	6.74406	-0.104597	-0.0708053	-0.111109	-0.71582	-0.072998	-0.817627	0.1578	0.406575	0.172557	-0.883188	-7.57592	-1.40071	6.34276	0.223785	0.0424261	-0.104782	0.470215	0.375977	-0.90918	0.528876	-0.432725	-0.122049	-0.719822	7.31074	-2.78132	6.24504	-0.185473	-0.0471649	-0.0921861	-0.703125	0.617432	-0.346924	0.943957	-0.0706449	0.321335	-0.0264134	-7.59243	-2.23791	9.66699	0.0691641	0.103285	-0.125902	0.988525	0.113525	-0.323975	0.412941	-0.545442	-0.410265	-0.603038	9.78409	0.27875	0.821394	-0.104409	0.0352559	-0.0072495	-0.930664	0.368164	0.0710449	0.379906	-0.561764	-0.456006	-0.576325	9.67886	0.492821	-0.481462	0.0587932	0.00933307	-0.0220939	-1.00488	0.340332	0.203613	0.299004	-0.534962	-0.414696	-0.672636	9.78591	1.52839	0.346472	0.354406	-0.0361362	-0.0359762	-1.06812	0.119873	0.119385	0.34611	-0.299264	-0.0669882	-0.886658	5.96496	-0.812803	8.00385	-0.128279	0.0335908	-0.161004	-0.810547	0.37793	-0.540527	0.187441	-0.944503	-0.264847	-0.0513381	1.64375	-2.96104	-8.88275	-0.119445	0.0707678	0.172975	0.197266	0.549316	0.916992	
57977	0.601782	-0.352551	-0.436952	-0.568013	9.57733	0.584428	3.81619	-0.125279	0.003499	-0.0385126	-0.821777	0.333008	-0.380127	0.535388	-0.422545	-0.359969	-0.636582	9.1854	-0.224109	3.87581	-0.143046	0.0374904	-0.090497	-0.748535	0.316162	-0.244385	0.710285	-0.0931433	-0.412885	-0.562445	7.11616	3.46842	6.76762	-0.0861672	-0.038205	-0.125036	-0.707275	-0.0710449	-0.811035	0.155039	0.407268	0.172287	-0.88341	-7.55816	-1.35044	6.22483	0.119945	0.0765629	-0.175162	0.461182	0.378174	-0.90918	0.527276	-0.433418	-0.121104	-0.720738	7.29967	-3.24052	6.23368	-0.147128	0.0200759	-0.0969693	-0.708008	0.628418	-0.344727	0.943939	-0.0691048	0.321674	-0.0270214	-7.57544	-1.99879	9.72758	0.136695	0.0569065	-0.0244892	0.986328	0.115723	-0.31543	0.412382	-0.546129	-0.409441	-0.603359	9.78452	0.346303	0.816975	-0.0927983	0.0110867	0.00160126	-0.93042	0.36377	0.0732422	0.380367	-0.561968	-0.456485	-0.575442	9.60796	0.883432	-0.666617	0.0985001	-0.0401893	0.00857969	-1.00684	0.33374	0.201416	0.302288	-0.533007	-0.419501	-0.669735	9.81339	2.44743	0.531282	0.544572	-0.0144657	-0.0353282	-1.06372	0.126953	0.114746	0.343818	-0.299487	-0.0665505	-0.887507	5.76555	-1.0725	8.20708	-0.102685	0.0194175	-0.159078	-0.810791	0.382324	-0.533936	0.186769	-0.945264	-0.26255	-0.0515769	1.56111	-3.15674	-8.84226	-0.0713795	0.032626	0.16951	0.197266	0.547119	0.923828	
57978	0.600872	-0.352956	-0.436203	-0.569298	9.57419	0.524957	3.82383	-0.12186	0.0234525	-0.0655488	-0.821777	0.333008	-0.384521	0.53434	-0.42258	-0.359272	-0.637832	9.22669	-0.117521	3.89565	-0.103457	0.051876	-0.0891672	-0.750732	0.316162	-0.249023	0.709084	-0.0937508	-0.412304	-0.564285	7.17829	3.52007	6.81084	-0.120287	-0.0180635	-0.125971	-0.71582	-0.0732422	-0.81543	0.152119	0.407748	0.173303	-0.883498	-7.5159	-1.66997	6.24759	0.0317305	0.0966472	-0.222275	0.465576	0.378174	-0.906982	0.526543	-0.432857	-0.121133	-0.721606	7.36919	-3.24757	6.20173	0.00801728	0.0591735	-0.099732	-0.714111	0.617432	-0.344727	0.944112	-0.0663648	0.321735	-0.0271242	-7.62169	-1.92378	9.7122	0.218505	0.0188269	0.0499432	0.990479	0.113525	-0.326172	0.411591	-0.546916	-0.40862	-0.603743	9.81771	0.339922	0.973903	-0.111288	0.00194174	-0.00227699	-0.930664	0.368164	0.0688477	0.381373	-0.56197	-0.457337	-0.574097	9.65601	0.980674	-0.908185	0.151164	-0.0467497	0.0348208	-1.00269	0.340332	0.205811	0.304151	-0.531993	-0.421624	-0.668363	9.54739	3.13917	1.09958	0.272258	0.0146881	-0.0131906	-1.07056	0.126709	0.116943	0.341572	-0.30056	-0.0663014	-0.888029	5.56702	-1.21289	8.18698	-0.0909865	-0.0495579	-0.145491	-0.80835	0.37793	-0.535889	0.186158	-0.945919	-0.260643	-0.0514644	1.45511	-3.16193	-8.85589	-0.0522819	-0.00123647	0.150125	0.208496	0.547363	0.921387	
57979	0.599997	-0.352911	-0.435468	-0.57081	9.57241	0.469699	3.88137	-0.109046	0.0434781	-0.0923964	-0.81958	0.330811	-0.382324	0.53354	-0.422308	-0.3587	-0.639003	9.19731	-0.0550507	3.8999	-0.0733535	0.0628359	-0.0861363	-0.752686	0.313965	-0.249023	0.708015	-0.0941914	-0.411591	-0.566071	7.18937	3.46519	6.75944	-0.118543	0.00718992	-0.118867	-0.713623	-0.0688477	-0.811035	0.149321	0.408458	0.174781	-0.883355	-7.46015	-1.93056	6.29266	-0.00621253	0.117609	-0.228244	0.469971	0.382568	-0.900635	0.526439	-0.431361	-0.122122	-0.72241	7.32588	-3.08078	6.22518	0.114154	0.0821619	-0.0905818	-0.711914	0.617432	-0.351562	0.944552	-0.0627871	0.321188	-0.026792	-7.57779	-1.62033	9.71121	0.268343	-0.0210597	0.10423	0.988525	0.111328	-0.326172	0.410724	-0.547903	-0.407919	-0.603912	9.78444	0.233946	0.737371	-0.104095	-0.0323568	-0.00294672	-0.932617	0.36377	0.0710449	0.381566	-0.562249	-0.457746	-0.573369	9.59881	1.37322	-0.529987	0.0705553	-0.0402716	0.00217487	-1.00684	0.331543	0.208496	0.303947	-0.532052	-0.421354	-0.668578	9.26839	3.37167	1.4537	-0.0279465	0.0152789	-0.0188552	-1.06836	0.126953	0.112549	0.339924	-0.301598	-0.0662076	-0.888317	5.89636	-1.25664	8.31423	-0.0735121	-0.0632295	-0.107886	-0.819092	0.369141	-0.53125	0.184943	-0.946676	-0.258847	-0.0509729	1.55301	-3.2561	-8.83132	-0.0960099	-0.032274	0.131101	0.202148	0.540527	0.928467	
57980	0.599219	-0.352356	-0.434925	-0.572383	9.53424	0.507073	3.95356	-0.0751609	0.0642431	-0.113621	-0.821777	0.330811	-0.386475	0.532816	-0.422116	-0.358471	-0.639863	9.16857	-0.0743899	3.74545	-0.0484849	0.0362033	-0.0772617	-0.750488	0.311768	-0.241699	0.707077	-0.0946259	-0.41091	-0.567662	7.19156	3.4833	6.76633	-0.101305	0.0120257	-0.105212	-0.71167	-0.0666504	-0.820068	0.146791	0.40935	0.176519	-0.883021	-7.41526	-2.0153	6.10739	-0.0281747	0.127194	-0.214312	0.469727	0.384766	-0.89624	0.526759	-0.429346	-0.122967	-0.723233	7.2353	-2.95259	6.19347	0.143598	0.114359	-0.0713047	-0.711914	0.617432	-0.351562	0.945091	-0.059313	0.320326	-0.0260055	-7.51303	-1.28418	9.69506	0.24867	-0.0523836	0.141409	0.987061	0.0961914	-0.325684	0.410126	-0.548481	-0.407931	-0.603786	9.87602	0.130152	0.467896	-0.0381232	-0.0402039	-0.0184313	-0.930664	0.368164	0.0751953	0.380937	-0.562739	-0.457012	-0.573893	9.89047	1.43925	-0.395067	-0.0840589	0.0116691	0.00119494	-1.00269	0.338135	0.205811	0.302782	-0.53264	-0.419932	-0.669534	9.47153	2.3913	0.879313	-0.163536	0.00711674	-0.0201315	-1.06592	0.126953	0.112549	0.338312	-0.302872	-0.0667629	-0.888457	5.96015	-1.23844	8.53208	-0.0378584	-0.0898138	-0.102069	-0.817383	0.37793	-0.536133	0.183734	-0.94733	-0.25741	-0.05048	1.88706	-3.54458	-9.05561	-0.0839033	-0.0481038	0.119539	0.213379	0.540771	0.930664	
57981	0.598637	-0.351396	-0.434561	-0.573857	9.45425	0.626852	4.01198	-0.0390336	0.0744663	-0.121641	-0.82373	0.328613	-0.390869	0.532172	-0.422075	-0.358575	-0.640367	9.26466	-0.125822	3.69318	-0.0245279	0.00955132	-0.0655594	-0.75293	0.316162	-0.246582	0.706221	-0.0952205	-0.410008	-0.569278	7.28604	3.49741	6.76363	-0.117003	0.00890321	-0.0971259	-0.71167	-0.0666504	-0.817871	0.144861	0.410189	0.178299	-0.882593	-7.4705	-2.07434	5.94192	-0.0526618	0.11825	-0.173216	0.467529	0.386963	-0.902832	0.527244	-0.427279	-0.12339	-0.724032	7.26064	-2.90727	6.08212	0.133336	0.140029	-0.0497747	-0.705078	0.613281	-0.35376	0.945659	-0.0560881	0.319326	-0.0247714	-7.47059	-1.15666	9.68716	0.222065	-0.0687967	0.146925	0.987305	0.0895996	-0.325439	0.409759	-0.548559	-0.408367	-0.60367	9.93402	0.0918308	0.412589	0.0122916	-0.0184844	-0.0495736	-0.932617	0.36377	0.0732422	0.380704	-0.562723	-0.456706	-0.574306	9.75615	0.879941	-0.582572	-0.0186414	0.028638	-0.0247837	-1.00488	0.338135	0.208252	0.303692	-0.531802	-0.421013	-0.669108	9.81925	2.0071	0.838624	0.140962	0.0338099	-0.031337	-1.06152	0.129395	0.10791	0.336993	-0.30417	-0.0667561	-0.888516	6.11145	-1.13462	8.80012	-0.0621465	-0.0902212	-0.0799423	-0.816895	0.371338	-0.522217	0.183315	-0.947836	-0.256029	-0.0495133	2.19857	-3.5387	-9.24604	-0.014646	-0.0597133	0.10967	0.211182	0.538574	0.923828	
57982	0.598256	-0.350326	-0.434384	-0.575041	9.4232	0.749762	4.07078	-0.0105989	0.0658777	-0.107063	-0.817139	0.328857	-0.38208	0.53173	-0.422037	-0.35889	-0.640583	9.43601	-0.120085	3.73348	0.00455202	-0.00708039	-0.0527758	-0.748291	0.30957	-0.246338	0.705343	-0.0960764	-0.409042	-0.570916	7.37812	3.36506	6.70683	-0.137633	0.00315435	-0.0904893	-0.713867	-0.0688477	-0.820068	0.143702	0.41078	0.179714	-0.88222	-7.42166	-2.14275	6.01402	-0.0611109	0.0956314	-0.109396	0.467285	0.38916	-0.898438	0.527794	-0.425625	-0.123476	-0.72459	7.35707	-2.89348	5.96458	0.0998549	0.11992	-0.0233746	-0.709473	0.613281	-0.365234	0.94611	-0.0536775	0.318491	-0.0236183	-7.45093	-1.09472	9.64558	0.161802	-0.0597808	0.11848	0.987305	0.0895996	-0.329834	0.409707	-0.548425	-0.409097	-0.603332	10.0905	0.38906	0.626644	0.0512603	-0.0205221	-0.0420578	-0.928467	0.365967	0.0732422	0.381127	-0.562591	-0.457609	-0.573435	9.72496	0.709434	-0.454032	0.117363	-0.0333894	-0.0138973	-1.00488	0.338135	0.212891	0.304087	-0.531452	-0.421369	-0.668983	9.56009	2.75364	0.857829	0.063695	0.017502	-0.0245748	-1.06812	0.124512	0.110352	0.336408	-0.305038	-0.0668828	-0.88843	6.31096	-1.23826	8.85993	-0.0181302	-0.0528445	-0.0198552	-0.821777	0.380127	-0.524658	0.182844	-0.948078	-0.255592	-0.0488756	2.22444	-3.43624	-9.24186	-0.023572	-0.0525309	0.0310087	0.210938	0.542969	0.928467	
57983	0.598009	-0.349614	-0.434365	-0.575744	9.37295	0.810394	4.06844	0.00560919	0.0431201	-0.0760049	-0.821289	0.320068	-0.384277	0.531559	-0.421513	-0.359365	-0.640803	9.36729	0.0135844	3.76405	0.0381702	0.0172704	-0.0565648	-0.748291	0.311768	-0.251221	0.70463	-0.0965456	-0.408579	-0.572048	7.3242	3.21474	6.63961	-0.0820158	-0.00566365	-0.0696324	-0.718018	-0.0688477	-0.811035	0.143167	0.41146	0.180526	-0.881824	-7.39983	-2.158	6.11419	-0.0374999	0.0862322	-0.043289	0.469238	0.393555	-0.89624	0.528285	-0.4245	-0.12374	-0.724847	7.41742	-2.87402	5.94661	0.0848157	0.0650803	-0.0111239	-0.713623	0.608887	-0.358398	0.946414	-0.0529739	0.317777	-0.0226117	-7.42273	-1.12427	9.60556	0.0310223	-0.0472768	0.0755864	0.987305	0.0874023	-0.336182	0.409589	-0.548423	-0.409536	-0.603116	10.0851	0.544708	0.602057	0.0278842	-0.0148132	-0.0370413	-0.932129	0.353027	0.0756836	0.382004	-0.562117	-0.458594	-0.572529	9.98571	0.874602	-0.375591	0.154288	0.00028067	-0.00748891	-1.00732	0.342529	0.203613	0.3038	-0.531802	-0.420659	-0.669282	9.79304	2.29737	0.745001	-0.06136	0.00301148	0.00747422	-1.06592	0.124512	0.114746	0.336617	-0.305433	-0.067282	-0.888185	6.13697	-1.38364	8.90576	0.0463121	-0.028524	0.0281365	-0.821533	0.373535	-0.529053	0.182511	-0.948072	-0.255885	-0.0486979	2.43675	-3.32057	-9.10967	-0.0198391	-0.0301111	-0.0290222	0.213623	0.53418	0.930908	
57984	0.597812	-0.348966	-0.4346	-0.576165	9.29858	0.769973	3.98888	0.0226955	0.0221279	-0.0512144	-0.819092	0.322266	-0.38208	0.531455	-0.421052	-0.360051	-0.640808	9.25824	0.0261367	3.6928	0.0566831	-0.00363086	-0.0513955	-0.752686	0.311768	-0.251221	0.704181	-0.0965484	-0.408814	-0.572433	7.37105	3.20323	6.60754	2.0677e-05	-0.00605234	-0.0381431	-0.713867	-0.0688477	-0.820068	0.143225	0.412159	0.180944	-0.881403	-7.39801	-2.07776	6.02751	-0.0248209	0.0743563	0.0145553	0.471924	0.386963	-0.898438	0.52867	-0.423924	-0.124282	-0.724811	7.30191	-2.78601	5.99837	0.0794075	0.0259907	-0.00278372	-0.707275	0.613281	-0.369629	0.946673	-0.053244	0.31702	-0.0217451	-7.35002	-1.27165	9.64895	-0.0428094	-0.0438279	0.0417218	0.98291	0.0874023	-0.32959	0.40974	-0.547832	-0.410725	-0.602742	10.0311	0.179565	0.369501	0.0913617	-0.00669999	-0.0535319	-0.93457	0.361816	0.0732422	0.382744	-0.561198	-0.459681	-0.572064	9.70897	0.904871	-0.623872	0.150493	0.0212693	-0.0527075	-1.00073	0.340332	0.203613	0.305037	-0.531123	-0.422079	-0.668364	9.54827	2.10524	0.96671	0.179309	0.012654	-0.00679763	-1.06592	0.126953	0.110352	0.336523	-0.305358	-0.0678893	-0.8882	6.03112	-1.22666	8.64882	0.0485642	-0.00187811	-0.00999119	-0.826416	0.379883	-0.526855	0.182373	-0.948	-0.256227	-0.0488178	2.43429	-3.21415	-9.161	0.00353818	-0.00129359	-0.0401812	0.213379	0.538574	0.92627	
57985	0.597722	-0.348387	-0.435045	-0.576273	9.32593	0.786666	3.93317	0.04606	0.00633693	-0.0414573	-0.823486	0.322266	-0.392822	0.531639	-0.420459	-0.360853	-0.640593	9.37225	-0.127915	3.75936	0.0848386	0.00103675	-0.0345074	-0.754883	0.311768	-0.246582	0.704233	-0.0958315	-0.409313	-0.572132	7.36799	3.23062	6.66773	0.0818598	0.00827499	-0.00192229	-0.709473	-0.0710449	-0.822266	0.144009	0.412668	0.181167	-0.880991	-7.44691	-1.91924	5.98003	-0.048091	0.0497717	0.0625952	0.47168	0.38916	-0.902832	0.529381	-0.42321	-0.124691	-0.724639	7.22326	-2.76221	5.97205	0.0888009	0.0208351	0.0158834	-0.707275	0.611084	-0.358398	0.946893	-0.0535553	0.316358	-0.0210323	-7.30377	-1.31726	9.69964	-0.0401377	-0.045404	0.031547	0.985107	0.0852051	-0.335938	0.410426	-0.546752	-0.412393	-0.602117	9.86262	0.191003	0.532784	0.169702	0.00556484	-0.069049	-0.934814	0.36377	0.0754395	0.383275	-0.56022	-0.461191	-0.571452	9.66245	1.11161	-0.519796	0.16771	0.000498241	-0.0783341	-1.00513	0.342529	0.203613	0.306552	-0.53019	-0.423826	-0.667305	9.50835	2.86074	0.930011	0.22484	0.0163993	-0.0141226	-1.06812	0.124512	0.110352	0.336918	-0.304911	-0.0690653	-0.888114	6.15156	-1.04605	8.60926	0.128906	0.0147363	0.0153188	-0.816895	0.371338	-0.522217	0.181298	-0.94796	-0.257017	-0.0494519	2.01983	-3.01633	-9.02046	-0.0867016	0.0113226	-0.0881957	0.208984	0.538574	0.921631	
57986	0.597757	-0.347679	-0.435693	-0.576175	9.37957	0.870983	3.88843	0.06685	-0.0109629	-0.0374751	-0.818604	0.313477	-0.388428	0.531994	-0.419956	-0.361415	-0.640312	9.29931	-0.0281515	3.78841	0.0777373	0.0145423	-0.0129276	-0.76123	0.307373	-0.248779	0.70462	-0.0946565	-0.410092	-0.571293	7.26292	3.30207	6.79595	0.140663	0.012689	0.0266744	-0.71582	-0.072998	-0.822266	0.14525	0.41288	0.181434	-0.880633	-7.45124	-1.89538	5.98444	-0.0694039	0.0281404	0.0910218	0.473633	0.395752	-0.89209	0.530275	-0.422377	-0.125144	-0.724393	7.31852	-2.72208	5.96465	0.110182	0.041698	0.0278698	-0.711426	0.608887	-0.369629	0.947178	-0.0538593	0.315508	-0.0202055	-7.30687	-1.45067	9.7247	-0.0434901	-0.0555569	0.0364693	0.980957	0.0830078	-0.335938	0.410827	-0.546162	-0.413559	-0.601579	9.90865	0.390905	0.779483	0.116924	-0.00256885	-0.0518242	-0.93457	0.359619	0.0732422	0.383572	-0.559478	-0.462366	-0.571029	9.79999	1.44151	-0.569337	0.130167	0.000922564	-0.0733444	-1.00708	0.340332	0.208252	0.306478	-0.530407	-0.423233	-0.667542	9.58522	2.81669	1.01226	-0.0432835	0.0137577	0.0136029	-1.06592	0.124756	0.110352	0.337575	-0.304222	-0.0703029	-0.888003	6.07398	-0.894466	8.55205	0.138151	0.0297169	0.0297439	-0.823486	0.366943	-0.524414	0.179683	-0.947963	-0.257979	-0.0502692	2.00922	-3.49173	-9.06277	-0.138501	0.00937183	-0.104399	0.213623	0.531982	0.928467	
57987	0.597837	-0.347002	-0.436407	-0.57596	9.51137	0.979406	3.88098	0.0723933	-0.0137479	-0.0207633	-0.825439	0.315674	-0.386475	0.532471	-0.419264	-0.361882	-0.640105	9.23972	0.0837397	3.71892	0.0792769	0.0346199	-0.00759128	-0.754883	0.30957	-0.255859	0.70524	-0.0936934	-0.41081	-0.57017	7.14446	3.46008	6.83508	0.136539	0.0204692	0.0591885	-0.711426	-0.0732422	-0.820068	0.146552	0.412991	0.181893	-0.88027	-7.42145	-1.92333	6.01377	-0.0730865	0.013496	0.0925981	0.473633	0.395752	-0.89209	0.531021	-0.421566	-0.125392	-0.724276	7.31521	-2.60705	6.08763	0.0827772	0.0445635	0.0279502	-0.709473	0.611084	-0.376465	0.947488	-0.0542377	0.314575	-0.0191846	-7.25436	-1.55507	9.73845	-0.0534371	-0.0636634	0.0471803	0.980957	0.0852051	-0.331787	0.411265	-0.545469	-0.41415	-0.601501	9.8491	0.408921	0.640424	0.0764972	0.0398445	-0.0389578	-0.93457	0.357422	0.0754395	0.38316	-0.55936	-0.462426	-0.571373	9.57845	1.23625	-0.373885	-0.00121636	0.0214255	-0.0522109	-1.00269	0.335938	0.201172	0.305485	-0.530985	-0.421849	-0.668414	9.52856	2.32519	0.89801	-0.154962	0.00998179	-0.00449068	-1.06592	0.124512	0.114746	0.338222	-0.303793	-0.0703342	-0.887902	6.06102	-0.92582	8.45702	0.0410985	0.0496136	0.06675	-0.821777	0.375732	-0.529053	0.179777	-0.947545	-0.259354	-0.0507353	1.96415	-3.50033	-8.97683	0.0155473	0.0199047	-0.138267	0.20459	0.533936	0.933105	
57988	0.598127	-0.34639	-0.436884	-0.575665	9.53972	1.00015	3.8835	0.0720315	0.00769914	2.1494e-05	-0.825439	0.317871	-0.386475	0.532883	-0.418617	-0.362447	-0.639865	9.20872	0.126688	3.78436	0.0829089	0.0178671	-0.0151248	-0.752686	0.311768	-0.251221	0.706059	-0.0929808	-0.411206	-0.568985	7.10896	3.48606	6.86708	0.114248	0.0306464	0.0816236	-0.711426	-0.0776367	-0.810791	0.147822	0.41288	0.182565	-0.879971	-7.51732	-1.99098	5.96013	-0.0900929	0.00119377	0.0789062	0.47583	0.397949	-0.889893	0.531493	-0.421037	-0.125359	-0.724243	7.33828	-2.67633	6.06392	0.043335	0.0331574	0.0181177	-0.705078	0.611084	-0.374268	0.947803	-0.0545681	0.313627	-0.0181522	-7.25274	-1.57419	9.65462	-0.0477228	-0.0747893	0.0548312	0.983154	0.0830078	-0.338135	0.411892	-0.544499	-0.415228	-0.601208	9.84487	0.684897	0.564328	0.124054	0.0382092	-0.0511815	-0.93457	0.357422	0.0734863	0.382602	-0.559816	-0.461894	-0.571731	9.76439	0.990526	-0.28315	-0.0585212	-9.62166e-05	-0.00816491	-1.01123	0.335938	0.206055	0.304575	-0.531721	-0.420708	-0.668963	9.70237	2.25851	0.66616	-0.13518	-0.00966022	0.00260918	-1.0686	0.135986	0.112305	0.339928	-0.303349	-0.0703301	-0.887402	6.35826	-1.07278	8.27825	0.0764649	0.0422518	0.147597	-0.814697	0.371338	-0.53125	0.179801	-0.946903	-0.2615	-0.0516153	1.71517	-3.17909	-8.96672	0.00901177	0.0303821	-0.194515	0.199951	0.536133	0.930664	
57989	0.598599	-0.345773	-0.437075	-0.575401	9.42664	0.972312	3.84803	0.0646365	0.0299996	0.0102313	-0.812256	0.320068	-0.392822	0.533322	-0.417946	-0.362959	-0.639647	9.23365	0.196991	3.73937	0.0845548	0.0273336	-0.0165743	-0.750488	0.30957	-0.251221	0.707033	-0.0922208	-0.411572	-0.567634	7.08693	3.58853	6.81917	0.113629	0.0470717	0.0966691	-0.707275	-0.0732422	-0.817627	0.148863	0.412654	0.183231	-0.879763	-7.58371	-1.97917	5.81507	-0.0800874	-0.00956969	0.0600941	0.47583	0.395752	-0.89209	0.53223	-0.42017	-0.12587	-0.724117	7.3734	-2.73896	5.94997	0.101037	0.0305654	0.0123921	-0.700684	0.611084	-0.376465	0.948201	-0.0548442	0.312431	-0.0171186	-7.21822	-1.48076	9.75351	-0.0435242	-0.0906297	0.0527978	0.981201	0.0810547	-0.335938	0.411937	-0.543795	-0.41627	-0.601095	9.93153	0.691103	0.563334	0.0828229	0.0145343	-0.0753539	-0.93457	0.357422	0.0649414	0.382302	-0.560056	-0.461724	-0.571833	9.89149	0.73821	-0.605501	-0.0151445	-0.000138646	-0.00958897	-1.00708	0.338135	0.201172	0.303625	-0.532616	-0.419057	-0.669719	9.6147	2.39024	1.07393	-0.164719	-0.00160047	0.00483586	-1.06836	0.126709	0.116943	0.342119	-0.302763	-0.0713078	-0.886682	5.89568	-1.05525	8.33353	0.149227	0.0185411	0.158914	-0.812744	0.37793	-0.531494	0.180104	-0.946297	-0.263407	-0.0519711	1.58523	-3.25221	-9.09717	0.0357601	-0.000851623	-0.167279	0.202148	0.540527	0.921631	
57990	0.599137	-0.345154	-0.437212	-0.575108	9.34454	0.951837	3.86462	0.0576504	0.0185344	0.00389428	-0.819092	0.320068	-0.392822	0.533606	-0.417423	-0.363494	-0.639449	9.25504	0.17744	3.7886	0.0725544	0.0151183	-0.0211446	-0.752441	0.305176	-0.255615	0.707961	-0.0917434	-0.411564	-0.566559	7.12843	3.65718	6.70478	0.0823005	0.0466994	0.09043	-0.711426	-0.079834	-0.815186	0.150001	0.412296	0.183991	-0.879579	-7.69522	-1.9362	5.75883	-0.0966027	-0.0172692	0.0583228	0.473633	0.397949	-0.89209	0.533332	-0.418912	-0.126792	-0.723874	7.47139	-2.58	5.96237	0.154854	0.0327283	0.0167251	-0.700684	0.611084	-0.376465	0.948588	-0.0550721	0.311262	-0.0162425	-7.22229	-1.52782	9.88104	-0.0339724	-0.0936944	0.0402033	0.985596	0.0766602	-0.346436	0.412347	-0.542532	-0.417343	-0.60121	10.0295	0.219191	0.424774	0.110262	0.0521152	-0.0866566	-0.932129	0.355225	0.0671387	0.381789	-0.559989	-0.461917	-0.572086	9.7116	0.763676	-0.591747	-0.00196375	-0.00387971	-0.0572558	-1.00684	0.335938	0.206055	0.302686	-0.533109	-0.418158	-0.670313	9.48105	2.42854	0.97242	-0.119019	-0.00122754	-0.0212466	-1.06836	0.12915	0.121338	0.34294	-0.302784	-0.0711697	-0.886368	5.78217	-0.596256	8.14433	0.0289563	0.00826476	0.0802789	-0.810547	0.37793	-0.53833	0.180287	-0.945867	-0.264877	-0.0516868	1.70923	-3.21634	-9.06624	0.0255826	-0.0393471	-0.134614	0.206543	0.540771	0.928467	
57991	0.599435	-0.344615	-0.437483	-0.574915	9.45568	0.958937	3.89448	0.0529721	0.00903809	-0.00904863	-0.818848	0.315674	-0.39502	0.533981	-0.416599	-0.363912	-0.639435	9.28132	0.191074	3.82737	0.0730517	0.0413007	-0.0251108	-0.750244	0.305176	-0.253418	0.708826	-0.090944	-0.411843	-0.565402	7.11916	3.62848	6.63421	0.102446	0.0495909	0.0820073	-0.707031	-0.0776367	-0.812988	0.15114	0.411965	0.184782	-0.879373	-7.7622	-2.03105	5.79071	-0.0985737	-0.0111081	0.059774	0.473633	0.395752	-0.894287	0.534332	-0.418027	-0.127404	-0.723541	7.37204	-2.45242	6.06201	0.120856	0.0249107	0.0281488	-0.702637	0.604492	-0.378906	0.948951	-0.0551478	0.310178	-0.0154822	-7.1178	-1.54607	10.0111	-0.0210237	-0.0767602	0.0279123	0.987549	0.0788574	-0.353027	0.412898	-0.541218	-0.418213	-0.601412	9.7339	0.516592	0.763223	0.105636	0.0754336	-0.0765879	-0.938477	0.35083	0.0693359	0.381267	-0.559785	-0.461904	-0.572643	9.88906	0.881689	-0.349781	-0.0187869	0.0282992	-0.0614259	-1.00488	0.338135	0.203613	0.30229	-0.533546	-0.417872	-0.670323	9.83117	1.95025	0.633986	-0.0437792	-0.0144102	-0.0107127	-1.07056	0.126709	0.114746	0.344277	-0.302533	-0.0710403	-0.885946	6.4246	-0.713813	8.24625	0.0391988	0.019355	0.112012	-0.815186	0.382324	-0.53833	0.18096	-0.945413	-0.266089	-0.0514211	1.84877	-3.40447	-9.07178	0.0694491	-0.01906	-0.11552	0.199463	0.547119	0.923828	
57992	0.599626	-0.343924	-0.437759	-0.574919	9.46088	0.92859	3.90812	0.0479335	0.0153225	-0.0232895	-0.81665	0.315918	-0.39502	0.534436	-0.415745	-0.364145	-0.639479	9.29219	0.161819	3.72106	0.067319	0.0576291	-0.0197525	-0.754639	0.307129	-0.262939	0.709619	-0.0897579	-0.412314	-0.564253	7.12935	3.73687	6.65946	0.137082	0.0528647	0.0626236	-0.707031	-0.0842285	-0.822021	0.152158	0.411763	0.185435	-0.879155	-7.85262	-1.97329	5.69318	-0.089323	0.00078056	0.054217	0.47583	0.397949	-0.889893	0.534994	-0.417505	-0.127821	-0.72328	7.16284	-2.50613	6.09911	0.0758659	0.0128186	0.0250517	-0.707031	0.604492	-0.378906	0.949245	-0.0553819	0.309276	-0.0146992	-7.03646	-1.46745	10.0412	-0.0360844	-0.0569046	0.0329307	0.981201	0.0788574	-0.346436	0.412939	-0.540745	-0.418654	-0.601503	9.85165	0.551073	0.552035	0.0382859	0.0330016	-0.0444475	-0.934082	0.35083	0.0649414	0.380867	-0.559734	-0.461784	-0.573057	9.72279	0.724561	-0.56285	-0.0128709	0.020368	-0.0476193	-1.00464	0.33374	0.208252	0.30214	-0.533684	-0.417931	-0.670244	9.75362	1.80769	0.624834	0.00189232	-0.0130353	-0.0164691	-1.06616	0.12915	0.116943	0.345563	-0.302242	-0.0709322	-0.885553	6.17283	-0.72762	8.28031	0.0463551	0.0282292	0.111577	-0.810547	0.375732	-0.53833	0.182576	-0.944934	-0.266828	-0.0506775	1.8513	-2.88031	-9.0724	0.140156	-0.03554	-0.064854	0.197266	0.549316	0.923828	
57993	0.599808	-0.343041	-0.438119	-0.574983	9.39043	0.909352	3.90986	0.0588449	0.0214307	-0.0385882	-0.818604	0.313477	-0.390625	0.534649	-0.415491	-0.364672	-0.639165	9.16655	0.195552	3.66521	0.0595248	-0.0109155	-0.00900299	-0.750244	0.305176	-0.262695	0.710212	-0.0885289	-0.412702	-0.563417	7.15395	3.90537	6.72054	0.118211	0.0475129	0.0405312	-0.704834	-0.0842285	-0.817383	0.153177	0.411616	0.186162	-0.878893	-7.85998	-1.93603	5.62889	-0.091738	0.000838825	0.0531602	0.473389	0.404541	-0.887695	0.535509	-0.417096	-0.128174	-0.723071	7.23451	-2.56125	6.13826	0.0633395	0.0141024	0.0216944	-0.700684	0.608887	-0.385742	0.949442	-0.0555363	0.308682	-0.0138361	-7.14315	-1.47969	10.0144	-0.0308509	-0.0400478	0.0447393	0.977051	0.0722656	-0.348389	0.413324	-0.540043	-0.419478	-0.601294	9.90648	0.327156	0.487084	0.0888521	0.0248636	-0.0450598	-0.934082	0.35083	0.0649414	0.380654	-0.559707	-0.461949	-0.573091	9.66373	0.681329	-0.586304	0.018476	0.00700583	-0.0342576	-1.00269	0.335938	0.206055	0.301728	-0.533993	-0.417731	-0.670307	9.60172	2.57961	0.770169	-0.0317281	-0.0145582	-0.0228315	-1.06152	0.131348	0.119141	0.346319	-0.302305	-0.0702436	-0.885291	5.8596	-0.847082	8.30441	-0.0319224	0.0185311	0.0866375	-0.810791	0.380127	-0.533691	0.182339	-0.944788	-0.26756	-0.0504006	1.68477	-2.76606	-8.96102	-0.0108762	-0.0430874	-0.0661477	0.20166	0.547119	0.921387	
57994	0.599951	-0.342038	-0.438788	-0.574921	9.44149	0.972601	3.92193	0.087186	0.0162548	-0.0431157	-0.820801	0.311523	-0.397217	0.535106	-0.415102	-0.365155	-0.63876	9.30887	0.189896	3.81887	0.0728249	0.000793019	0.00457343	-0.754883	0.309326	-0.260498	0.710548	-0.08794	-0.412793	-0.563018	7.09553	3.79743	6.78435	0.0538239	0.0339107	0.0256297	-0.705078	-0.079834	-0.824463	0.154017	0.411553	0.186911	-0.878617	-7.79574	-1.98824	5.74343	-0.0804328	0.0118788	0.0477416	0.471191	0.402344	-0.894287	0.53637	-0.416588	-0.128339	-0.722697	7.26936	-2.6243	6.12966	0.0690206	0.0148926	0.0444448	-0.698242	0.606689	-0.385742	0.9496	-0.0556716	0.30822	-0.0126755	-7.15034	-1.48635	10.0122	-0.0370845	-0.0263712	0.0587033	0.977051	0.0744629	-0.348633	0.414181	-0.538974	-0.420505	-0.600947	9.88323	0.546007	0.627488	0.136741	0.0473206	-0.0402673	-0.934082	0.348633	0.060791	0.380192	-0.55991	-0.462058	-0.573112	9.67309	1.03888	-0.411377	0.00155034	-0.0139651	-0.0397748	-1.00464	0.331543	0.206055	0.301014	-0.534607	-0.417098	-0.670533	9.54607	2.47552	1.08266	-0.0804796	-0.0200421	-0.0184795	-1.07056	0.124512	0.123779	0.346984	-0.30263	-0.0697621	-0.884958	6.22264	-0.982683	8.1023	-0.0172864	-0.00256796	0.0819601	-0.808594	0.380127	-0.533691	0.182245	-0.944563	-0.268384	-0.0505606	1.79028	-2.82521	-8.49211	-0.00599559	-0.00139652	-0.0862956	0.199463	0.549316	0.923828	
57995	0.600387	-0.340858	-0.439407	-0.574693	9.47395	1.08594	3.90619	0.102781	0.0260659	-0.0262035	-0.822998	0.311523	-0.401367	0.535611	-0.414686	-0.365346	-0.638497	9.21287	0.276535	3.80826	0.0600035	0.0260929	0.00741789	-0.754639	0.305176	-0.262695	0.710787	-0.0875463	-0.412726	-0.562827	7.07484	3.73346	6.78099	0.0375759	0.0282608	0.0152101	-0.707031	-0.0861816	-0.824219	0.154601	0.411561	0.187314	-0.878424	-7.77123	-2.01941	5.7753	-0.0529182	0.0230403	0.0386713	0.473389	0.400146	-0.885498	0.53749	-0.415952	-0.12869	-0.722168	7.28036	-2.56918	6.07518	0.0940589	0.0123098	0.0598827	-0.702881	0.611328	-0.387939	0.949661	-0.0559045	0.308038	-0.0114389	-7.1354	-1.48172	9.99659	-0.0476485	-0.00467522	0.0708547	0.983643	0.0700684	-0.352783	0.414411	-0.538781	-0.420901	-0.600684	9.88614	0.537444	0.693674	0.0456707	0.00547017	-0.014349	-0.940674	0.348633	0.0585938	0.37907	-0.56034	-0.462069	-0.573426	9.64518	1.37036	-0.341966	-0.0566204	-0.0346023	-0.0593803	-1.00464	0.33374	0.210693	0.299998	-0.535134	-0.416645	-0.670851	9.52894	2.30917	0.679908	-0.0946998	-0.0246188	-0.0355995	-1.06616	0.131348	0.119141	0.348167	-0.302444	-0.0701724	-0.884524	6.44253	-1.24149	8.07021	0.0693227	0.00796713	0.0956079	-0.812988	0.382324	-0.533936	0.183705	-0.943923	-0.269504	-0.0512729	1.49317	-3.31523	-9.18634	0.106469	0.0687243	-0.116505	0.194824	0.549316	0.926025	
