40	Head	00b4120a												Throax	00b411e8												LUpArm	00b411d9												LFoArm	00b41148												RUpArm	00b411db												RFoArm	00b41204												Waist	00b411f7												Lthigh	00b411f4												Lshank	00b4111b												Rthigh	00b411c8												Rshank	00b411ee												
PacketCount	q0	q1	q2	q3	accX	accY	accZ	gyrX	gyrY	gyrZ	magX	magY	magZ	q0	q1	q2	q3	accX	accY	accZ	gyrX	gyrY	gyrZ	magX	magY	magZ	q0	q1	q2	q3	accX	accY	accZ	gyrX	gyrY	gyrZ	magX	magY	magZ	q0	q1	q2	q3	accX	accY	accZ	gyrX	gyrY	gyrZ	magX	magY	magZ	q0	q1	q2	q3	accX	accY	accZ	gyrX	gyrY	gyrZ	magX	magY	magZ	q0	q1	q2	q3	accX	accY	accZ	gyrX	gyrY	gyrZ	magX	magY	magZ	q0	q1	q2	q3	accX	accY	accZ	gyrX	gyrY	gyrZ	magX	magY	magZ	q0	q1	q2	q3	accX	accY	accZ	gyrX	gyrY	gyrZ	magX	magY	magZ	q0	q1	q2	q3	accX	accY	accZ	gyrX	gyrY	gyrZ	magX	magY	magZ	q0	q1	q2	q3	accX	accY	accZ	gyrX	gyrY	gyrZ	magX	magY	magZ	q0	q1	q2	q3	accX	accY	accZ	gyrX	gyrY	gyrZ	magX	magY	magZ	
0	0.58735	-0.360592	-0.468758	-0.552503	9.57349	1.00073	2.87898	-0.0273206	-0.0565537	-0.00383973	-0.843994	0.328125	-0.341309	0.626511	-0.377468	-0.519418	-0.441822	9.69795	0.131635	1.93976	-0.0168333	0.0396315	-0.0319875	-0.756348	0.289795	-0.276367	0.859345	-0.221163	-0.225085	-0.402429	6.11174	-2.08294	8.17113	0.0164893	0.0937974	-0.0456359	-0.368652	0.438477	-0.85498	0.230727	0.0746641	-0.160416	-0.956795	-0.671808	3.44017	9.05545	-0.0799068	0.00925123	-0.0411913	-0.309082	-0.0378418	-0.988037	0.60356	-0.282124	-0.380266	-0.641498	8.17375	1.55274	5.25925	-0.00944533	0.0711312	-0.0383407	-0.798584	0.279785	-0.552246	0.993467	0.011355	0.112486	0.0155011	-2.80609	-0.511357	12.8954	0.0730886	0.0171823	-0.0123227	0.696045	-0.0524902	-0.807617	0.591819	-0.410259	-0.612518	-0.325973	9.65327	-0.790036	-0.972378	0.0365526	-0.00157004	-0.0215282	-0.896729	0.420898	-0.100586	0.922916	-0.112253	-0.293038	-0.223055	6.4176	-0.710138	8.7492	-0.00624749	0.0684332	0.0134038	-0.312744	0.237549	-0.972168	-0.0118293	-0.071212	-0.954553	-0.289167	0.229625	4.87723	-7.75779	0.020138	0.0579469	0.00516648	-0.423096	-0.550049	0.877441	0.583773	-0.486243	-0.581431	-0.291058	9.21922	-2.3007	-1.50854	0.0550347	-0.059232	0.0148957	-0.862793	0.577148	0.0224609	0.661102	-0.352437	-0.586798	-0.307247	9.74667	-0.998194	0.280521	0.228512	0.0293967	0.0108337	-0.995117	0.505127	-0.343262	
1	0.586264	-0.361404	-0.468869	-0.553031	9.85051	0.828067	2.90451	-0.0362833	-0.0139331	-0.0352074	-0.84375	0.325928	-0.334961	0.626834	-0.376676	-0.519129	-0.442379	9.65042	0.103772	2.09394	-0.00621172	0.0508885	-0.038893	-0.75415	0.289795	-0.276367	0.859433	-0.220145	-0.224646	-0.403045	6.05503	-2.12902	8.16192	0.0494847	0.0792035	-0.0494823	-0.377197	0.434326	-0.854736	0.230264	0.0751858	-0.158525	-0.957181	-0.682382	3.42679	8.82818	-0.0462379	0.0466881	-0.0287673	-0.306885	-0.0356445	-0.992432	0.603152	-0.281673	-0.379407	-0.642588	8.05099	1.5676	5.35511	-0.0497667	0.0366676	-0.0509847	-0.79834	0.277588	-0.54541	0.993443	0.0126909	0.112603	0.0151824	-2.83532	-0.484195	12.8387	0.0522758	0.0170011	-0.0278041	0.693848	-0.050293	-0.805664	0.592333	-0.409506	-0.61285	-0.325363	9.76021	-1.00711	-0.901573	0.0785489	0.021297	-0.0200116	-0.890137	0.422852	-0.0964355	0.92341	-0.111893	-0.292006	-0.222546	6.54289	-0.863209	8.56828	0.0389913	0.0600546	0.00445662	-0.312744	0.239746	-0.969971	-0.0112978	-0.0712999	-0.954596	-0.289024	0.0516864	5.0933	-7.70051	0.0205805	0.0435076	0.00118584	-0.425293	-0.55249	0.88208	0.583727	-0.4858	-0.58227	-0.290212	9.50601	-2.07932	-1.26529	0.0807172	-0.0518119	-0.0115853	-0.858398	0.581543	0.0178223	0.662612	-0.350105	-0.58791	-0.304523	9.84932	-1.13496	0.710442	0.168917	-0.00420709	0.0183253	-0.992432	0.498535	-0.350098	
2	0.586045	-0.361173	-0.468758	-0.553508	9.75765	0.860943	3.00055	-0.0173312	0.0185772	-0.0384558	-0.839111	0.321777	-0.341309	0.626858	-0.376515	-0.518946	-0.442696	9.71039	0.112136	2.06334	-0.0211045	0.0397137	-0.036099	-0.749512	0.2854	-0.271484	0.859198	-0.219012	-0.224892	-0.404026	6.04122	-1.9773	8.34428	0.0212754	0.00223595	-0.0448656	-0.375	0.432129	-0.854736	0.22993	0.075632	-0.158374	-0.957251	-0.703448	3.37988	8.84444	-0.000845418	0.0382031	-0.032258	-0.306885	-0.0356445	-0.992432	0.602776	-0.281586	-0.37916	-0.643124	8.1359	1.35397	5.31795	-0.0350055	0.0247102	-0.0563069	-0.796387	0.281982	-0.549805	0.99346	0.0127871	0.112458	0.01509	-2.94458	-0.541995	12.7474	0.0163672	0.00202037	-0.0256441	0.696289	-0.0568848	-0.812012	0.593137	-0.408715	-0.612865	-0.324863	9.69413	-0.893266	-0.986994	0.103757	0.0555665	-0.0116219	-0.894287	0.416504	-0.102539	0.923618	-0.111467	-0.291749	-0.222234	6.30285	-0.702448	8.58466	0.0406445	0.0449794	0.00344614	-0.3125	0.235352	-0.965088	-0.0104763	-0.0707823	-0.95441	-0.289794	-0.0570387	4.9158	-7.73481	-0.0393258	0.0439306	-0.0364134	-0.429932	-0.55249	0.873047	0.584482	-0.485281	-0.58282	-0.288452	9.40686	-2.07962	-1.48352	0.0754069	-0.000237022	0.0488768	-0.865234	0.58374	0.015625	0.663724	-0.348355	-0.588692	-0.30259	9.86433	-1.01701	0.366147	0.236429	0.00613141	0.0207363	-0.994873	0.500488	-0.352295	
3	0.585995	-0.360671	-0.468776	-0.553873	9.62352	0.944176	3.02168	0.011992	0.00740858	-0.0150888	-0.841797	0.328125	-0.334961	0.626798	-0.376234	-0.518856	-0.443126	9.64327	0.173521	2.10004	-0.00855522	0.0227833	-0.0342045	-0.753906	0.283203	-0.278564	0.858698	-0.219058	-0.225634	-0.40465	6.11501	-2.09509	8.4777	-0.00179426	-0.0255609	-0.0295628	-0.375	0.432129	-0.859375	0.22926	0.0761762	-0.158508	-0.957347	-0.572193	3.44447	9.09453	0.0152027	0.016506	-0.0288224	-0.306885	-0.0400391	-0.990234	0.602424	-0.280801	-0.380377	-0.643079	8.03019	1.55358	5.42047	0.0529061	-0.0160632	-0.0450497	-0.796387	0.279785	-0.549805	0.993545	0.0124478	0.11174	0.0150965	-2.87864	-0.443448	12.8933	-0.0123952	-0.0144976	-0.0181936	0.698242	-0.0546875	-0.807617	0.593566	-0.408525	-0.612398	-0.3252	9.67989	-0.758272	-0.886834	-0.0245516	0.0483127	-0.0178055	-0.898926	0.425049	-0.102783	0.923782	-0.11108	-0.291975	-0.221447	6.46674	-0.552452	8.70965	0.0115061	0.0055573	0.0132711	-0.314697	0.235352	-0.972168	-0.0103879	-0.0699806	-0.954665	-0.289154	0.0989448	5.19705	-7.67996	0.0415534	0.0121906	-0.0488024	-0.425537	-0.543213	0.877441	0.584535	-0.485308	-0.583256	-0.287416	9.44534	-2.21176	-1.3366	0.00939594	-0.0227424	0.0257233	-0.860352	0.577148	0.0134277	0.664566	-0.347244	-0.589139	-0.301144	9.80546	-1.19465	0.700722	0.0116123	0.00651485	0.0147346	-0.992432	0.496094	-0.359131	
4	0.585963	-0.360067	-0.468388	-0.554628	9.62116	0.922795	3.1389	-0.012476	0.0120217	-0.0363793	-0.841309	0.321533	-0.339111	0.626762	-0.376085	-0.518797	-0.443373	9.61033	0.131648	2.11838	-0.0163219	0.0284609	-0.0378	-0.749512	0.287598	-0.276367	0.858294	-0.219775	-0.225849	-0.404998	6.11903	-2.03125	8.45333	-0.0302119	-0.00816597	-0.00946831	-0.381592	0.436523	-0.85498	0.228544	0.0762182	-0.158747	-0.957475	-0.629237	3.2437	9.21923	0.00331587	-0.00305996	-0.0232733	-0.306885	-0.0378418	-0.992432	0.601946	-0.280551	-0.381079	-0.643219	8.13825	1.40017	5.5089	0.0180071	-0.00810468	-0.0410001	-0.800537	0.279785	-0.54541	0.993633	0.0123091	0.110915	0.015499	-2.99556	-0.39682	12.869	0.00289686	-0.0249474	0.000264211	0.691895	-0.059082	-0.80957	0.593696	-0.407719	-0.612955	-0.324925	9.70044	-0.817257	-0.899281	0.0756563	0.0144938	-0.0378716	-0.898926	0.422852	-0.106934	0.923922	-0.110442	-0.292073	-0.22105	6.5485	-0.708306	8.90301	0.0389618	0.0224344	-0.0151918	-0.310303	0.233154	-0.972168	-0.0102864	-0.0694664	-0.95468	-0.289232	0.279973	5.11757	-7.76585	-0.00516823	0.0208576	-0.0271814	-0.425293	-0.550049	0.877441	0.584918	-0.485586	-0.583028	-0.286627	9.33936	-2.22271	-1.33235	0.017542	0.00147155	0.0354537	-0.860596	0.581543	0.0131836	0.666393	-0.344608	-0.590091	-0.298257	9.86537	-0.50619	0.477195	0.154016	0.01471	0.0139982	-0.994629	0.493896	-0.356934	
5	0.585723	-0.359594	-0.468468	-0.55512	9.73744	0.924787	3.12971	0.000972214	0.019628	-0.0547065	-0.843506	0.321533	-0.332764	0.626327	-0.375248	-0.519445	-0.443937	9.79524	0.218528	2.12064	0.0115371	-0.00879805	-0.0383774	-0.753906	0.2854	-0.280762	0.858272	-0.220235	-0.226191	-0.404602	6.17547	-2.09744	8.39811	0.0086221	-0.0320266	0.0228319	-0.379395	0.434326	-0.857178	0.228933	0.076179	-0.158508	-0.957425	-0.713208	3.36531	9.20611	0.00743804	0.0168003	0.024555	-0.309082	-0.0378418	-0.992432	0.601814	-0.279976	-0.382122	-0.642974	8.08688	1.56531	5.52593	0.0423593	-0.0112496	-0.0253679	-0.795898	0.273193	-0.549805	0.993739	0.0122928	0.109897	0.0159185	-2.80471	-0.190245	13.1318	-0.00293536	-0.0225806	-0.00594932	0.689941	-0.059082	-0.80957	0.594062	-0.407405	-0.612453	-0.325597	9.77713	-0.83702	-0.933916	-0.0283252	0.0391957	-0.0324129	-0.898682	0.420898	-0.104736	0.924131	-0.110075	-0.291564	-0.221033	6.35287	-0.617801	8.92533	0.00652454	0.0335634	-0.0165995	-0.310547	0.235352	-0.969727	-0.0102327	-0.0694304	-0.954598	-0.289514	0.124098	5.11354	-7.79732	-0.0128306	0.00422891	-0.0165527	-0.422852	-0.552246	0.873047	0.584591	-0.486039	-0.583238	-0.286099	9.49085	-2.19119	-1.36405	-0.0033098	-0.00426125	0.026083	-0.860596	0.579346	0.0178223	0.666338	-0.345204	-0.589649	-0.298565	9.877	-1.12697	0.583709	0.0141923	0.0190092	-0.00185146	-0.992432	0.496094	-0.361328	
6	0.585888	-0.357979	-0.468923	-0.555605	9.55895	1.00938	3.13479	0.0575275	0.0314713	-0.0387778	-0.841064	0.317383	-0.349854	0.625842	-0.375564	-0.520104	-0.443582	9.71271	0.221623	2.12695	-0.0102151	-0.0272459	-0.0183137	-0.756104	0.2854	-0.273926	0.858297	-0.220449	-0.227572	-0.403657	6.2258	-1.83562	8.56398	0.0130452	-0.0559273	0.024885	-0.379395	0.436523	-0.852539	0.229718	0.0769918	-0.160008	-0.956922	-0.80481	3.30541	9.28802	0.0702346	0.0317458	0.0394151	-0.304688	-0.0378418	-0.994629	0.601722	-0.280132	-0.382611	-0.642702	8.17446	1.47503	5.47372	0.022412	-0.0119699	-0.0113101	-0.79834	0.277588	-0.552246	0.993823	0.0109339	0.109205	0.0164246	-2.86897	-0.395558	12.9856	-0.0577042	-0.011622	-0.0055218	0.689697	-0.0546875	-0.809814	0.593889	-0.407336	-0.612589	-0.325743	9.78163	-0.871791	-0.791505	0.0255784	0.0133007	-0.0210738	-0.903076	0.420654	-0.109131	0.924114	-0.109529	-0.29175	-0.22113	6.37799	-0.669091	8.83378	0.0198317	0.0164951	-0.0344661	-0.314453	0.22876	-0.974365	-0.010489	-0.0696019	-0.954695	-0.289141	0.163548	5.12472	-7.76622	0.0195826	-0.00881153	-0.0119349	-0.427734	-0.550049	0.877441	0.584492	-0.485894	-0.583201	-0.286622	9.43583	-2.31612	-1.42351	-0.0172443	0.0192701	-0.0108924	-0.858398	0.579346	0.0178223	0.665212	-0.347297	-0.588784	-0.300354	9.86857	-1.24932	0.61955	-0.158901	-0.000430715	-0.00850597	-0.988037	0.50293	-0.354736	
7	0.586581	-0.35698	-0.469613	-0.554934	9.60889	1.20783	3.07784	0.0503677	-0.000243897	0.0115455	-0.843506	0.321533	-0.343506	0.625888	-0.375181	-0.520864	-0.44295	9.68197	0.219016	2.04219	0.0362784	-0.000816965	-0.0243001	-0.753662	0.276611	-0.27832	0.858345	-0.220962	-0.227935	-0.403069	6.16609	-2.08447	8.54388	0.0152696	-0.00600181	0.0211259	-0.37915	0.427734	-0.859131	0.230433	0.0771268	-0.160403	-0.956673	-0.765082	3.39306	9.32269	0.00437478	0.00600561	0.0239392	-0.302246	-0.0422363	-0.98999	0.601954	-0.279752	-0.383367	-0.642199	8.10536	1.64592	5.56933	0.020772	-0.00122711	-0.00859879	-0.793945	0.277588	-0.547607	0.993877	0.0101963	0.108696	0.01701	-2.80897	-0.412023	13.067	-0.0119115	-0.00298389	0.00594429	0.683105	-0.0524902	-0.814209	0.593798	-0.407859	-0.612037	-0.326292	9.73951	-0.703855	-0.670638	-0.0493744	0.0228978	-0.00901181	-0.903076	0.420654	-0.106934	0.923906	-0.109967	-0.291836	-0.221669	6.46071	-0.724067	8.99113	-0.0286177	0.0114852	-0.0253101	-0.3125	0.230957	-0.974365	-0.0105385	-0.070123	-0.95464	-0.289196	0.41652	5.01059	-7.78459	-0.002478	0.00470789	0.00536143	-0.42334	-0.54541	0.873047	0.58437	-0.486811	-0.582457	-0.286831	9.29787	-2.24754	-1.22322	-0.0270654	0.0209958	0.0281967	-0.858643	0.588135	0.0153809	0.66525	-0.347559	-0.588344	-0.300826	9.75306	-0.601464	0.633177	-0.0317716	0.0229215	-0.00823023	-0.994629	0.498291	-0.354736	
8	0.586659	-0.356502	-0.470131	-0.55472	9.56184	1.2011	3.09246	0.0208644	-0.0122569	-0.0168595	-0.8479	0.319336	-0.341309	0.625969	-0.374817	-0.521479	-0.44242	9.85361	0.262332	2.08888	0.0149878	0.00140408	-0.0143367	-0.753662	0.278809	-0.275879	0.858745	-0.22055	-0.228167	-0.40231	6.2911	-1.93953	8.47631	0.0301376	-0.00265769	0.033165	-0.37915	0.427734	-0.859131	0.231174	0.0771303	-0.160242	-0.956521	-0.841594	3.44192	9.24608	0.0091928	0.0190736	0.0335393	-0.302002	-0.0466309	-0.987793	0.602592	-0.279596	-0.383373	-0.641665	8.23023	1.54991	5.47143	0.0295927	0.0203281	0.0173749	-0.802734	0.275391	-0.54541	0.993871	0.0100255	0.108619	0.0179523	-2.866	-0.36006	13.1305	-0.0128167	0.0171469	0.0177218	0.689697	-0.0524902	-0.809814	0.594038	-0.408111	-0.611298	-0.326924	9.86465	-0.85105	-0.91158	-0.025824	0.04197	-0.00826238	-0.898926	0.422852	-0.106934	0.923964	-0.109855	-0.291579	-0.221822	6.37362	-0.856466	8.87874	0.0252785	0.0253746	-0.0223301	-0.314453	0.226562	-0.974365	-0.010468	-0.0704181	-0.95467	-0.289027	0.28902	5.11392	-7.89379	0.0195097	0.00338262	0.00635625	-0.427979	-0.543213	0.877441	0.584313	-0.486818	-0.582185	-0.287484	9.35445	-2.35956	-1.22175	-0.00735197	0.0273359	0.0124475	-0.858643	0.585938	0.0153809	0.663759	-0.350361	-0.587203	-0.30309	9.7943	-1.30935	0.526523	-0.103036	-0.00119727	-0.00739098	-0.98584	0.50293	-0.356934	
9	0.586481	-0.356465	-0.470684	-0.554463	9.94782	1.11127	3.11979	0.0237781	-0.0151821	-0.00429326	-0.847656	0.315186	-0.352051	0.626167	-0.374727	-0.52149	-0.442203	9.82658	0.223949	2.10366	0.00918415	0.0185316	-0.00577462	-0.753906	0.2854	-0.273926	0.858947	-0.220302	-0.228295	-0.401944	6.2961	-1.94546	8.53541	0.0331143	0.000830698	0.0258133	-0.385742	0.432373	-0.859375	0.231449	0.0773973	-0.160546	-0.956382	-0.853698	3.4303	9.29395	0.0286326	0.025163	0.0239275	-0.302246	-0.0444336	-0.998779	0.603025	-0.2794	-0.383315	-0.641378	8.14257	1.637	5.52197	0.0236015	0.0273948	0.0168592	-0.798096	0.273193	-0.556641	0.99385	0.00974632	0.108755	0.0184432	-2.83285	-0.375815	13.1132	-0.0194108	0.0252843	0.0173541	0.685303	-0.0546875	-0.812012	0.594195	-0.408556	-0.610571	-0.327441	9.87464	-0.885173	-0.75882	-0.0458571	0.0597635	0.00840681	-0.892578	0.425049	-0.107178	0.92406	-0.10952	-0.291489	-0.221703	6.42305	-0.739796	8.83014	0.0299753	0.0305428	-0.0123728	-0.310303	0.233154	-0.969727	-0.0101164	-0.0705739	-0.954566	-0.289345	0.284508	4.93121	-7.8485	-0.0136042	0.0275467	-0.00974333	-0.427734	-0.550049	0.877441	0.583838	-0.486483	-0.582828	-0.287713	9.3927	-2.02101	-1.37098	0.00305903	-0.0240693	-0.0596253	-0.856201	0.581543	0.0178223	0.659323	-0.35731	-0.584873	-0.309107	10.0649	-0.751252	0.480208	-0.603371	-0.0645342	-0.0154303	-0.990479	0.505127	-0.338867	
10	0.587717	-0.355555	-0.470809	-0.553632	9.80399	1.15823	3.1371	0.057374	0.0268903	0.0276141	-0.841309	0.321533	-0.341309	0.626725	-0.374668	-0.521471	-0.441483	9.92269	0.124772	2.24916	0.0118453	0.0166181	0.015183	-0.758057	0.283203	-0.273682	0.859154	-0.220578	-0.228536	-0.401212	6.20966	-2.06188	8.64117	-0.0113535	-0.026547	0.0374555	-0.379395	0.429932	-0.852539	0.23246	0.0774219	-0.160271	-0.95618	-0.732344	3.39943	9.26127	-0.00243315	0.0158964	0.044795	-0.302246	-0.0422363	-0.994385	0.603766	-0.279865	-0.382671	-0.640862	8.14178	1.5438	5.50013	-0.0211747	0.00971296	0.0356151	-0.79834	0.277588	-0.54541	0.993764	0.00987511	0.109373	0.0192995	-2.86749	-0.353206	13.0273	0.0071724	0.0430543	0.0140933	0.691895	-0.0546875	-0.812012	0.595398	-0.408174	-0.60989	-0.327	9.95785	-0.958832	-0.808077	0.080023	0.0622682	0.00274433	-0.894531	0.423096	-0.117676	0.924007	-0.109417	-0.292031	-0.221262	6.36615	-0.77486	8.80093	0.0289398	-0.0240188	-0.015175	-0.310059	0.226562	-0.971924	-0.0102063	-0.0704842	-0.954663	-0.289044	0.0453877	5.10767	-7.9474	0.0301273	-0.00083183	-0.0270961	-0.420654	-0.550049	0.873047	0.583208	-0.485632	-0.583574	-0.288913	9.76988	-2.23125	-1.43993	-0.0214626	0.0136124	-0.136561	-0.856201	0.579346	0.0202637	0.653346	-0.36517	-0.582606	-0.316796	9.96582	-1.02434	0.448388	-0.499458	-0.0639031	-0.0625202	-0.997803	0.518311	-0.320801	
11	0.589532	-0.355716	-0.469979	-0.552303	9.36074	1.19255	3.13124	0.010995	0.0291959	0.0934435	-0.836914	0.31958	-0.352051	0.627492	-0.374989	-0.520902	-0.440792	9.74572	0.104906	2.17651	0.00271434	0.0213754	0.0362636	-0.74707	0.281006	-0.276123	0.859463	-0.220976	-0.228859	-0.400145	6.14893	-2.05055	8.80621	0.00686272	-0.00478664	0.0447357	-0.385742	0.434326	-0.854736	0.233214	0.0770448	-0.161275	-0.955859	-0.648972	3.2722	9.34644	0.0350817	-0.0150434	0.0380786	-0.304443	-0.0422363	-0.996582	0.60421	-0.280387	-0.382674	-0.640215	8.13821	1.40707	5.44487	0.0123635	-0.00760575	0.0155289	-0.794189	0.279785	-0.549805	0.993678	0.00879493	0.110101	0.0200992	-2.93745	-0.386377	12.9632	-0.0483375	0.0452574	0.00836146	0.691895	-0.0568848	-0.818359	0.596595	-0.407948	-0.609394	-0.326024	9.65353	-0.917151	-0.719974	0.053629	0.0250436	0.0335227	-0.896729	0.425049	-0.111328	0.923494	-0.108913	-0.293632	-0.221535	6.33337	-0.37753	8.88813	0.00663908	-0.0377203	-0.043207	-0.318848	0.226562	-0.969727	-0.0117247	-0.070082	-0.954788	-0.288672	0.265883	5.05195	-7.82516	0.0291801	-0.0444182	-0.0221666	-0.418213	-0.552246	0.879883	0.582346	-0.483043	-0.584306	-0.293479	9.4289	-2.39748	-1.53942	-0.0717834	0.0549177	-0.0872795	-0.868896	0.568359	0.0158691	0.649455	-0.370531	-0.58035	-0.322658	9.53705	-2.15049	0.765987	-0.180571	0.0208708	-0.0374413	-0.995605	0.518311	-0.313965	
12	0.590189	-0.356396	-0.469014	-0.551982	9.28738	1.05951	3.17182	-0.0433179	0.0276128	0.0961086	-0.839355	0.328369	-0.352051	0.627974	-0.375916	-0.520252	-0.440083	9.32474	0.150816	1.95659	-0.0347027	0.00300416	0.0277029	-0.751709	0.287598	-0.273926	0.859798	-0.222278	-0.227198	-0.39965	5.87698	-2.06207	8.5157	-0.071211	0.0618586	0.0458558	-0.37085	0.436279	-0.85498	0.233444	0.0752282	-0.161225	-0.955955	-0.609219	3.13444	9.20299	-0.0287424	-0.0677156	0.0108844	-0.311035	-0.0422363	-0.996582	0.604835	-0.280595	-0.382365	-0.639717	7.99007	1.41159	5.31866	-0.0116808	0.0164564	0.0195026	-0.798828	0.286377	-0.547607	0.99354	0.00899362	0.111279	0.0203738	-2.93313	-0.354788	12.8413	0.0333829	0.068193	-0.0103677	0.700439	-0.0524902	-0.807861	0.596112	-0.408774	-0.609384	-0.325893	9.35949	-0.740296	-0.74685	-0.0109159	-0.0197609	-0.00613748	-0.894775	0.427246	-0.111328	0.922845	-0.109474	-0.294482	-0.222831	6.7632	-0.740804	8.97231	-0.0274269	-0.00270112	-0.0796409	-0.314453	0.226562	-0.974365	-0.0122888	-0.0717367	-0.954502	-0.289185	0.703053	5.2695	-7.62851	-0.0433148	-0.0143338	0.0601959	-0.425537	-0.547852	0.873047	0.581548	-0.484013	-0.583479	-0.295102	9.08176	-2.44539	-0.983832	-0.0841305	0.0182467	0.0239991	-0.869141	0.570557	0.0158691	0.649963	-0.36969	-0.580397	-0.322517	9.43975	-1.49916	0.716855	0.0689985	0.0453172	-0.0248224	-0.995605	0.518311	-0.316162	
13	0.589981	-0.359118	-0.467373	-0.551833	9.18143	0.673597	3.10131	-0.108374	-0.0616411	0.0548112	-0.834961	0.326172	-0.3479	0.627746	-0.37664	-0.520048	-0.440031	9.58209	0.140609	1.88771	-0.0363757	0.00557382	-0.0129931	-0.749756	0.291992	-0.271729	0.860666	-0.221676	-0.224391	-0.399702	5.9862	-1.98437	8.01845	0.00449011	0.130032	0.0327387	-0.37085	0.440674	-0.857422	0.233427	0.0730619	-0.160015	-0.956331	-0.723383	3.29484	8.88677	-0.0621686	-0.0600642	0.00691852	-0.313721	-0.0358887	-0.990234	0.605401	-0.281421	-0.380954	-0.639661	8.13736	1.54475	5.24573	-0.0646981	0.0293156	0.0355657	-0.802979	0.28418	-0.54541	0.993378	0.00970437	0.112688	0.0201826	-2.92166	-0.453318	12.8199	0.0361554	0.0692444	-0.0292634	0.696289	-0.0568848	-0.809814	0.595522	-0.409937	-0.608939	-0.326341	9.60136	-0.772753	-0.783907	-0.0758842	0.0137326	0.00595397	-0.901123	0.425049	-0.107178	0.923081	-0.10981	-0.292187	-0.224701	5.95981	-0.909114	8.78184	-0.0212322	0.107168	-0.0482806	-0.310303	0.22876	-0.969727	-0.0112922	-0.0738685	-0.954036	-0.290228	0.439508	4.77054	-7.52903	-0.0333595	0.0310633	0.0703501	-0.425293	-0.550049	0.875244	0.581791	-0.485456	-0.582049	-0.295079	9.04612	-2.22043	-1.22332	-0.00904434	0.042849	0.0619052	-0.860596	0.581543	0.0200195	0.651806	-0.36737	-0.581011	-0.320335	9.80802	-1.48083	0.580387	0.226212	0.035241	0.0147854	-0.997559	0.513916	-0.318359	
14	0.58823	-0.36115	-0.467833	-0.551986	9.8911	0.608339	2.92836	-0.0409999	-0.0809202	-0.0292055	-0.8396	0.330322	-0.345703	0.627827	-0.376882	-0.519631	-0.440201	9.81215	0.154826	2.23583	-0.0258352	0.0298833	-0.00439538	-0.751953	0.294189	-0.276367	0.861283	-0.220284	-0.223537	-0.399622	6.01714	-1.95207	8.05075	0.0506291	0.0304488	-0.00185211	-0.37085	0.436279	-0.852539	0.233701	0.0728502	-0.158941	-0.956459	-0.790953	3.52825	8.84352	-0.0316648	0.0324968	0.00598633	-0.309326	-0.0356445	-0.98584	0.605735	-0.283089	-0.378902	-0.639827	8.0595	1.63077	5.3739	-0.0977814	0.0144285	0.0352931	-0.794434	0.288574	-0.542969	0.993184	0.0107084	0.11444	0.0193455	-2.69878	-0.52795	12.9168	0.0439458	0.0875686	-0.0511049	0.694092	-0.0588379	-0.801025	0.595685	-0.410956	-0.607593	-0.327269	9.88048	-1.24374	-0.642477	-0.00806528	0.064336	0.00997265	-0.89917	0.429443	-0.109375	0.923355	-0.11038	-0.290976	-0.224864	6.34236	-1.0682	8.56588	-0.0275029	0.0560972	0.00233879	-0.3125	0.235352	-0.967529	-0.0105404	-0.0745041	-0.954101	-0.289877	0.069934	5.08026	-7.73236	0.0300789	0.021965	-0.00561633	-0.425537	-0.54541	0.873047	0.581431	-0.487106	-0.581853	-0.293448	9.66504	-1.85072	-1.2895	0.0093323	-0.0484961	0.0663666	-0.858398	0.579346	0.0202637	0.654489	-0.363956	-0.581908	-0.317117	10.032	-0.442593	0.447549	0.175723	0.0257616	0.0131772	-0.995361	0.513916	-0.327637	
15	0.588429	-0.360944	-0.468177	-0.551616	10.0817	0.971928	3.0064	0.0325064	0.0145908	0.0266567	-0.841797	0.328125	-0.339355	0.628022	-0.377728	-0.518651	-0.440353	9.91631	-0.0896858	2.27676	-0.0561814	0.0302078	0.0156256	-0.749756	0.289795	-0.276367	0.860643	-0.220679	-0.224948	-0.399991	6.00639	-1.96586	8.68383	-0.0164692	-0.0738702	-0.0390791	-0.372803	0.429932	-0.859375	0.233326	0.0739455	-0.159602	-0.956357	-0.795573	3.37973	8.97475	0.0536671	0.0293046	-0.0278048	-0.309082	-0.0378418	-0.990234	0.605384	-0.284338	-0.378483	-0.639854	8.24835	1.38887	5.47402	-0.0203713	-0.0384583	-0.0196555	-0.79248	0.290771	-0.549805	0.993087	0.0103063	0.115407	0.0187665	-2.93151	-0.538176	12.8746	-0.0238008	0.0374966	-0.0455324	0.707031	-0.0546875	-0.80542	0.596558	-0.410928	-0.607166	-0.326505	9.94389	-1.05594	-0.718066	0.0326489	0.0278123	0.0279879	-0.894775	0.427246	-0.109131	0.923489	-0.109029	-0.291335	-0.224511	6.53505	-0.798151	8.65535	0.060053	0.00723114	-0.0108221	-0.314453	0.22876	-0.976807	-0.0106652	-0.074221	-0.954083	-0.290006	-0.154249	5.13908	-7.81977	-0.00581116	0.00377693	-0.0420408	-0.430176	-0.543213	0.870605	0.581518	-0.487364	-0.581826	-0.292901	9.46778	-2.12431	-1.53757	-0.000106408	-0.0116671	0.0367904	-0.862793	0.577148	0.0249023	0.655236	-0.362786	-0.582496	-0.315833	9.99303	-1.13948	0.321146	0.0914083	0.00832796	-0.000951881	-0.990723	0.509521	-0.334229	
16	0.590293	-0.360662	-0.466767	-0.551005	9.62013	0.946985	3.06548	0.00167118	0.075345	0.0745114	-0.841797	0.33252	-0.343506	0.628224	-0.378253	-0.517962	-0.440425	9.62663	0.0193317	2.05915	-0.0281937	0.0241763	-0.00199024	-0.745361	0.291992	-0.27417	0.860006	-0.221581	-0.225674	-0.400454	6.07254	-2.12686	8.79539	-0.0566684	-0.0775434	-0.0476853	-0.372803	0.432129	-0.854736	0.231805	0.0737228	-0.161302	-0.956459	-0.404486	3.32796	9.44058	0.0680471	-0.0421317	-0.057545	-0.308838	-0.0422363	-0.987793	0.604661	-0.284741	-0.379099	-0.639994	8.27993	1.44196	5.55137	-0.0107045	-0.0624949	-0.060759	-0.794434	0.290771	-0.547607	0.9931	0.00956441	0.115393	0.0185795	-3.00151	-0.518916	12.9445	-0.0508583	0.0129467	-0.0404497	0.700195	-0.0458984	-0.807861	0.596749	-0.411308	-0.606876	-0.326219	9.85239	-0.999152	-0.796838	0.0089575	0.0162537	0.0305159	-0.888428	0.429443	-0.113525	0.923513	-0.108785	-0.29175	-0.223989	6.41355	-0.700909	8.98598	0.0415821	-0.0137009	0.0139273	-0.310547	0.235352	-0.972168	-0.0111779	-0.0730208	-0.954281	-0.289639	0.220141	4.95698	-7.96018	0.0422903	-0.00217862	-0.0760983	-0.423096	-0.547852	0.875244	0.58158	-0.487392	-0.581896	-0.292594	9.48131	-2.19835	-1.40181	0.0197608	-0.00116334	0.0170895	-0.86499	0.581543	0.0200195	0.656501	-0.360748	-0.583239	-0.314166	9.6497	-1.65352	0.60515	0.145008	0.0270803	0.00627753	-0.990967	0.513916	-0.338867	
17	0.590907	-0.361346	-0.464815	-0.551547	9.44147	0.624777	3.15891	-0.0732174	0.0338237	0.0209261	-0.835205	0.330322	-0.345703	0.628224	-0.378253	-0.517962	-0.440425	9.62663	0.0193317	2.05915	-0.0281937	0.0241763	-0.00199024	-0.745361	0.291992	-0.27417	0.859055	-0.223612	-0.225489	-0.401469	6.23507	-2.36713	8.66181	-0.0785917	0.00899379	-0.022268	-0.373047	0.440674	-0.857178	0.231061	0.0729701	-0.161566	-0.956652	-0.420303	3.32832	9.50126	0.00904738	-0.0674089	-0.0477301	-0.311035	-0.0422363	-0.992188	0.603604	-0.284638	-0.380527	-0.640189	8.27645	1.23169	5.58024	0.0471833	-0.0231753	-0.0617711	-0.794189	0.28418	-0.549805	0.993167	0.00841276	0.114955	0.0182639	-3.07449	-0.339095	13.021	-0.0413181	-0.00991421	-0.0262204	0.702637	-0.0524902	-0.803467	0.595885	-0.412251	-0.6069	-0.326561	9.51354	-0.770474	-0.837339	-0.0408024	-0.0350922	-0.0280129	-0.888428	0.431641	-0.109375	0.923679	-0.10883	-0.292067	-0.222867	6.77683	-0.834702	9.00455	0.0121926	0.0289525	0.0209625	-0.314697	0.233154	-0.972168	-0.0109664	-0.071814	-0.954442	-0.289417	0.539244	5.17185	-7.83142	-0.0163662	0.04745	-0.0488301	-0.425537	-0.543213	0.875244	0.58236	-0.487236	-0.581751	-0.29159	9.1574	-2.17542	-1.25708	0.0552051	0.0115864	0.0364888	-0.862793	0.577148	0.0202637	0.657056	-0.359907	-0.583582	-0.313331	9.64294	-0.655798	0.387106	0.109896	0.0107944	0.00311218	-0.997559	0.509521	-0.327393	
18	0.590538	-0.361533	-0.464448	-0.552129	9.49459	0.53562	3.1506	-0.0568051	0.0093427	-0.0268212	-0.8396	0.330322	-0.350098	0.627949	-0.378302	-0.517853	-0.440905	9.79061	0.0864952	2.00659	-0.00851736	0.00877697	-0.0245507	-0.745605	0.294189	-0.276611	0.859265	-0.224059	-0.223893	-0.401664	6.32848	-2.28369	8.19061	-0.0218834	0.0582274	0.0305262	-0.373047	0.440674	-0.852783	0.230909	0.0712062	-0.160866	-0.956939	-0.520207	3.4635	9.29873	-0.0342176	-0.042696	0.0187303	-0.315674	-0.0402832	-0.985596	0.603667	-0.28408	-0.381081	-0.640049	8.207	1.47682	5.57473	-0.00368117	0.0168122	-0.0113318	-0.796631	0.288574	-0.54541	0.993217	0.00872992	0.114498	0.0182637	-3.16136	-0.227935	13.1316	0.0109546	0.00509308	-0.0124648	0.698242	-0.050293	-0.803467	0.595532	-0.412376	-0.607247	-0.326403	9.81278	-0.878051	-0.787523	0.0217594	0.0129252	-0.0118861	-0.890625	0.431641	-0.10498	0.924215	-0.1083	-0.291275	-0.221938	6.19002	-0.490036	8.75987	0.0354418	0.0528068	0.021758	-0.310303	0.22876	-0.969727	-0.00991218	-0.0714303	-0.954493	-0.289382	0.111598	5.09412	-7.73587	0.0242873	0.0394258	-0.0209146	-0.425537	-0.54541	0.873047	0.582681	-0.48557	-0.583151	-0.290928	9.49428	-2.35427	-1.42417	0.0949614	-0.00745297	-0.0446093	-0.862793	0.579346	0.015625	0.657725	-0.358894	-0.584039	-0.312236	9.89542	-1.55899	0.601767	0.151493	0.0223113	-0.00141986	-0.997559	0.509521	-0.338867	
19	0.589843	-0.361203	-0.465229	-0.55243	9.58601	0.583596	3.0728	0.00953236	-0.0213405	-0.0401295	-0.8396	0.33252	-0.350098	0.628396	-0.377859	-0.518072	-0.440389	9.68325	0.0387689	2.09269	0.0271533	0.0191958	-0.00855493	-0.747559	0.291992	-0.276367	0.860182	-0.222488	-0.223522	-0.400779	6.10588	-2.0992	8.23633	0.0872793	0.0359957	0.0320656	-0.375244	0.440674	-0.852783	0.231839	0.0714188	-0.160415	-0.956774	-0.594765	3.49818	9.21539	-0.0310985	0.0476399	0.0409964	-0.311279	-0.0400391	-0.987793	0.604246	-0.284409	-0.379797	-0.64012	8.13704	1.27893	5.5424	-0.0148868	0.0444759	0.0244198	-0.801025	0.288574	-0.54541	0.993137	0.00890498	0.115062	0.0189821	-2.96582	-0.476478	13.0203	0.0246361	0.0439562	0.0218864	0.700439	-0.0524902	-0.807861	0.596012	-0.411966	-0.607182	-0.326166	9.70946	-1.02766	-0.748355	0.0520972	0.0323343	-0.0166249	-0.892578	0.427246	-0.113525	0.924433	-0.108615	-0.290927	-0.221332	6.35394	-0.728396	8.71878	0.0112	0.0279339	0.0129331	-0.308105	0.22876	-0.972168	-0.00932407	-0.0708481	-0.954498	-0.289528	0.141081	4.96013	-7.65906	0.0134328	0.0322498	-0.0352835	-0.427979	-0.54541	0.873047	0.583364	-0.484787	-0.583619	-0.289925	9.30989	-2.02536	-1.32227	0.0406961	0.0264818	-0.0129843	-0.862793	0.577148	0.0202637	0.658545	-0.357538	-0.58472	-0.310785	9.72108	-0.756665	0.467018	0.0255824	-0.00781096	0.00704498	-0.992676	0.505127	-0.336426	
20	0.590596	-0.359708	-0.466616	-0.55143	9.62142	0.928093	2.9957	0.102477	0.00295742	0.00355282	-0.841553	0.328125	-0.350098	0.628876	-0.377551	-0.518306	-0.439693	9.67791	0.0142603	2.03719	0.0207317	0.0129854	-0.00568676	-0.751953	0.291992	-0.27417	0.860718	-0.221453	-0.22328	-0.400337	6.01653	-2.04024	8.47004	0.0256716	0.0309378	0.0166728	-0.368652	0.436279	-0.857178	0.232899	0.0721013	-0.158808	-0.956734	-0.664401	3.31423	9.01586	-0.0533149	0.0461844	0.0295471	-0.318115	-0.0336914	-0.98584	0.605968	-0.282894	-0.37955	-0.639308	8.11975	1.43051	5.42183	0.071311	0.0709449	0.0240911	-0.79248	0.290771	-0.547607	0.993044	0.010077	0.115495	0.0205476	-2.94673	-0.403023	12.7617	0.0465685	0.0233832	0.0511608	0.698242	-0.0524902	-0.803467	0.596971	-0.410812	-0.607403	-0.325456	9.60562	-0.964991	-0.700434	0.0851173	0.0383553	-0.0276597	-0.888428	0.429443	-0.11792	0.924624	-0.108027	-0.290596	-0.221256	6.33896	-0.427495	8.88761	0.0278245	0.0296829	-0.0248379	-0.308105	0.22876	-0.972168	-0.00895993	-0.0708234	-0.95446	-0.289671	0.178011	5.12002	-7.73115	-0.0198786	0.0180998	-0.00615928	-0.420898	-0.543213	0.87085	0.583468	-0.484623	-0.583796	-0.289633	9.41816	-2.29827	-1.42795	0.0143404	0.000953843	0.0256321	-0.858154	0.574951	0.0180664	0.65924	-0.356532	-0.585086	-0.309776	9.77469	-1.13675	0.579726	0.0851715	0.0189882	0.000774545	-0.99292	0.509521	-0.341064	
21	0.591591	-0.358471	-0.467288	-0.5506	9.62502	1.05184	3.07402	0.0606606	0.0200934	0.0054513	-0.834961	0.326172	-0.345703	0.629381	-0.37691	-0.518932	-0.438781	9.70529	0.140323	2.02721	0.0536942	0.0136883	-0.0138218	-0.749756	0.289795	-0.273926	0.86126	-0.220461	-0.22326	-0.399729	6.00729	-2.13855	8.47535	0.0522502	0.0212308	0.0253253	-0.37085	0.438477	-0.857178	0.233757	0.0722327	-0.157883	-0.956668	-0.536297	3.21783	9.11958	-0.034402	0.0204403	0.0344779	-0.313721	-0.0336914	-0.988037	0.606993	-0.281804	-0.379314	-0.638957	8.22289	1.50044	5.27666	0.0258913	0.0454199	0.00429277	-0.788086	0.293213	-0.554443	0.993015	0.0108008	0.115427	0.0219238	-2.95976	-0.462066	12.8294	0.0244801	0.00683235	0.0303085	0.696045	-0.0524902	-0.807617	0.598016	-0.409078	-0.608186	-0.324257	9.7424	-0.829981	-0.62445	0.130965	0.0345102	-0.0322044	-0.892578	0.427246	-0.115723	0.924621	-0.108577	-0.290289	-0.221403	6.4444	-0.740587	8.7336	-0.0118682	0.0274417	-0.00954511	-0.307861	0.226562	-0.976807	-0.00886821	-0.0709911	-0.954465	-0.289618	0.214695	4.94577	-7.68118	0.00991276	0.00938431	-0.00292799	-0.425537	-0.54541	0.875244	0.583645	-0.484452	-0.583904	-0.289347	9.43922	-2.15825	-1.35579	0.00422492	0.0149219	-0.0063377	-0.860352	0.574951	0.015625	0.659725	-0.356223	-0.584981	-0.309298	9.89725	-1.077	0.67925	-0.0236307	0.0152004	0.0113953	-0.988037	0.50293	-0.336426	
22	0.591616	-0.35841	-0.467091	-0.55078	9.6723	0.867531	3.16786	-0.018086	0.00283014	-0.0162537	-0.8396	0.330322	-0.3479	0.629711	-0.376086	-0.519564	-0.438267	9.74099	0.144841	2.10125	0.0320708	0.0136064	-0.0332084	-0.747559	0.291992	-0.276367	0.861712	-0.220039	-0.222979	-0.399143	5.92103	-2.04308	8.47195	0.017387	0.0116455	0.0240318	-0.37085	0.434082	-0.859375	0.234543	0.0720355	-0.157828	-0.956499	-0.648734	3.2783	9.06542	0.00899598	0.00409287	0.0324949	-0.311523	-0.0356445	-0.988037	0.607184	-0.281723	-0.379246	-0.638852	8.18375	1.53746	5.35537	-0.00425109	0.00611396	-0.0161891	-0.794189	0.28418	-0.549805	0.993081	0.010637	0.114799	0.0223237	-2.86218	-0.44443	12.9518	-0.0148722	-0.0139766	-0.0107948	0.705078	-0.0610352	-0.80957	0.599847	-0.40671	-0.6078	-0.324576	9.78071	-0.8309	-0.771168	0.105304	0.129046	-0.0579815	-0.88623	0.42749	-0.119873	0.924599	-0.10823	-0.290373	-0.221557	6.31893	-0.740126	8.8263	0.0250151	0.00930829	-0.024279	-0.3125	0.230957	-0.976807	-0.00866451	-0.0712481	-0.954306	-0.290083	0.187486	4.9057	-7.79696	-0.0221949	0.00790333	-0.00246309	-0.427979	-0.54541	0.873047	0.583571	-0.48526	-0.583478	-0.289002	9.4232	-2.08281	-1.39382	-0.0157766	0.00372997	0.0241624	-0.860352	0.572754	0.0134277	0.660623	-0.355509	-0.584725	-0.308686	9.79696	-0.574969	0.454843	0.0293273	0.0349926	0.010775	-0.99292	0.507324	-0.338867	
23	0.590877	-0.35811	-0.467114	-0.551748	9.51656	0.894905	3.19405	-0.0171734	0.00111007	-0.0468537	-0.837402	0.330566	-0.354248	0.629745	-0.375374	-0.52006	-0.438238	9.71886	0.154692	2.12541	0.0101339	0.0145518	-0.0376866	-0.751953	0.289795	-0.281006	0.861741	-0.220438	-0.223033	-0.39883	6.05889	-1.87485	8.52553	-0.0210759	-0.00818002	0.0112918	-0.366455	0.438477	-0.857178	0.234758	0.0720616	-0.158179	-0.956387	-0.777773	3.36289	9.06629	0.0281284	0.00483847	0.0219741	-0.316162	-0.0314941	-0.990234	0.606995	-0.281548	-0.379701	-0.638839	8.15474	1.56427	5.52287	0.0117693	-0.00258676	-0.0319277	-0.794189	0.281982	-0.549805	0.993184	0.0102786	0.113952	0.0222386	-2.82466	-0.410264	12.9714	-0.00923769	-0.0253094	-0.0239339	0.702881	-0.0610352	-0.803223	0.600666	-0.404834	-0.608034	-0.324969	9.7904	-0.89394	-0.751469	0.0174122	0.028755	-0.0634649	-0.89917	0.427246	-0.124268	0.924659	-0.108266	-0.290168	-0.221558	6.41225	-0.671024	8.87674	-0.00601515	0.0295855	-0.015916	-0.30835	0.233154	-0.976807	-0.0088923	-0.0713009	-0.954329	-0.28999	0.252188	5.19661	-7.67375	-0.0209733	0.00379724	-0.0178877	-0.425537	-0.543213	0.873047	0.583713	-0.485173	-0.583487	-0.288839	9.33875	-2.1842	-1.30878	0.0142315	0.000451903	0.00993927	-0.862793	0.577148	0.0134277	0.660615	-0.356205	-0.58414	-0.309009	9.77526	-1.01474	0.520654	0.00702827	0.0231596	0.00793212	-0.988525	0.511719	-0.338867	
24	0.590216	-0.357756	-0.467856	-0.552056	9.77098	0.944134	3.17877	0.0253309	-0.023416	-0.0390667	-0.841553	0.323975	-0.349854	0.629732	-0.374923	-0.520387	-0.438256	9.83478	0.0887405	2.10898	0.0116595	0.0106474	-0.0332287	-0.749512	0.287598	-0.281006	0.861636	-0.220549	-0.223074	-0.398972	6.13355	-1.94492	8.53427	-0.0076618	-0.00126239	-0.0107792	-0.364258	0.436279	-0.857178	0.234541	0.0720995	-0.15864	-0.956361	-0.765472	3.3895	9.2889	0.00179729	0.00401829	-0.0071683	-0.309326	-0.0356445	-0.988037	0.606802	-0.281324	-0.379914	-0.638994	8.12212	1.54748	5.53941	0.0107725	0.0060747	-0.0432839	-0.798584	0.28418	-0.554443	0.993305	0.0101791	0.112894	0.0223026	-2.86651	-0.351392	13.1067	0.00213519	-0.0257595	-0.015982	0.689941	-0.0610352	-0.80542	0.601033	-0.40419	-0.607804	-0.325522	9.90222	-1.07368	-0.594837	0.0582891	0.05729	-0.0319693	-0.892334	0.423096	-0.128418	0.924637	-0.108074	-0.290351	-0.221501	6.41728	-0.879498	8.78952	0.0230004	0.0052118	-0.0178081	-0.308105	0.230957	-0.979004	-0.0089178	-0.0712845	-0.954264	-0.290205	0.194683	4.96029	-7.87273	-0.0130579	0.00586337	-0.019239	-0.432373	-0.547852	0.879639	0.583399	-0.485316	-0.583604	-0.289	9.50386	-2.16143	-1.41632	-0.022127	-0.00581785	-0.00950099	-0.86499	0.577148	0.0180664	0.659302	-0.358731	-0.582903	-0.311219	9.97274	-1.16477	0.551913	-0.184756	0.00339321	-0.00860063	-0.993164	0.513916	-0.338867	
25	0.590294	-0.356918	-0.468745	-0.551762	9.7179	1.11001	3.19412	0.0505572	-0.00746519	-0.0124251	-0.845703	0.321533	-0.352051	0.629716	-0.374863	-0.520586	-0.438094	9.88612	0.188096	2.17844	0.0055923	0.000467569	-0.0204745	-0.751709	0.2854	-0.278564	0.861227	-0.220829	-0.223727	-0.399335	6.16839	-2.04907	8.61739	-0.00783424	-0.0333598	-0.0188941	-0.366455	0.436279	-0.859375	0.234357	0.0722994	-0.158975	-0.956335	-0.690107	3.37776	9.31408	0.0315219	0.0125064	-0.0126755	-0.311523	-0.0334473	-0.992432	0.606369	-0.281064	-0.380346	-0.639263	8.16265	1.53034	5.51878	-0.0011695	-0.00663528	-0.0371665	-0.798584	0.281982	-0.549805	0.993342	0.00988927	0.112596	0.0222766	-2.91007	-0.334018	13.1553	-0.0175117	-0.00894022	-0.023142	0.696533	-0.0654297	-0.811523	0.602083	-0.403091	-0.607499	-0.325513	10.0072	-0.901681	-0.492144	0.0930755	0.105879	-0.0322905	-0.894531	0.423096	-0.130371	0.9247	-0.107368	-0.290445	-0.221458	6.36022	-0.647277	8.9796	0.0224908	0.0165301	-0.0283357	-0.310547	0.235352	-0.974609	-0.00946855	-0.0710108	-0.954376	-0.289886	0.131158	5.24403	-7.8687	-0.00124884	-0.0155889	-0.0329607	-0.427734	-0.550049	0.873047	0.582964	-0.485634	-0.583102	-0.290354	9.63237	-1.93385	-1.36088	-0.0656816	0.0375457	-0.0426344	-0.862549	0.572754	0.0180664	0.657918	-0.360526	-0.582505	-0.312816	9.95051	-0.376965	0.494679	-0.215804	-0.0352839	-0.028473	-0.990967	0.513916	-0.332031	
26	0.590561	-0.356553	-0.469471	-0.551095	9.62245	1.20905	3.0415	0.0321179	-0.0156774	0.00928366	-0.837158	0.326172	-0.349854	0.629834	-0.375247	-0.520481	-0.43772	9.80546	0.122252	2.18815	-0.023927	0.0120956	0.00972681	-0.751709	0.2854	-0.273926	0.860806	-0.221465	-0.224652	-0.399372	6.20323	-2.155	8.79583	-0.0092497	-0.0384131	-0.00722731	-0.379395	0.440918	-0.85498	0.234011	0.0727293	-0.160205	-0.956182	-0.607463	3.39283	9.45523	0.0492275	0.00299332	-0.00898553	-0.318115	-0.0358887	-0.990234	0.605969	-0.281206	-0.380877	-0.639263	8.20268	1.35664	5.54304	0.0134366	-0.0110356	-0.0211269	-0.794189	0.28418	-0.549805	0.993361	0.00872319	0.112498	0.0224012	-3.00795	-0.385677	13.0277	-0.0365703	0.0165932	-0.0159437	0.698486	-0.0568848	-0.80542	0.603011	-0.402234	-0.607559	-0.324742	9.76795	-0.882687	-0.822691	0.039021	-0.0209869	-0.00135788	-0.892578	0.427246	-0.126221	0.924151	-0.107236	-0.291838	-0.221982	6.31289	-0.506952	8.97761	0.00148758	-0.0409564	-0.0516467	-0.310303	0.22876	-0.972168	-0.0106027	-0.0710808	-0.954389	-0.289788	0.400183	5.03559	-7.78182	0.025918	-0.0458003	-0.0228041	-0.427979	-0.545654	0.875244	0.582729	-0.484267	-0.582911	-0.293474	9.28726	-2.37846	-1.46711	-0.0332445	0.0806657	-0.0985762	-0.862549	0.574951	0.0180664	0.6534	-0.36611	-0.581147	-0.318277	9.93831	-1.46245	0.19635	-0.302141	-0.0400094	-0.0681508	-1.00024	0.520508	-0.320801	
27	0.59077	-0.356783	-0.469244	-0.550914	9.57828	1.1671	3.03411	-0.00701071	0.000268418	0.031608	-0.84375	0.325928	-0.3479	0.629969	-0.376102	-0.519838	-0.437555	9.53753	0.069763	2.04276	-0.0385814	0.0102941	0.0144275	-0.749756	0.291992	-0.278809	0.860706	-0.222378	-0.223751	-0.399585	6.01501	-2.15978	8.79256	-0.0514176	0.0455373	0.0133268	-0.373047	0.440674	-0.850342	0.233353	0.0717673	-0.159879	-0.95647	-0.522029	3.22181	9.41664	-0.0430614	-0.0449349	-0.026033	-0.311768	-0.03125	-0.994629	0.606358	-0.280952	-0.380808	-0.639047	8.09497	1.39367	5.47972	-0.00121686	0.0266576	-0.000869947	-0.794189	0.28418	-0.552246	0.993287	0.009168	0.113064	0.022678	-3.00259	-0.30399	12.9507	0.0373038	0.04231	-0.00178264	0.696289	-0.0568848	-0.80542	0.602765	-0.403112	-0.607058	-0.325046	9.58312	-0.855432	-0.480901	-0.030365	0.0329453	-0.000687325	-0.890381	0.42749	-0.130615	0.923645	-0.108314	-0.291982	-0.223372	6.22168	-0.497854	8.98159	-0.0653305	0.0120787	-0.065673	-0.3125	0.233154	-0.969727	-0.0116689	-0.0724061	-0.954512	-0.289011	0.409702	5.13411	-7.62826	0.0420187	-0.0577569	0.0324502	-0.418457	-0.547852	0.877441	0.581529	-0.484394	-0.582496	-0.296453	9.2927	-2.37682	-1.1088	-0.12016	0.0599423	-0.0438415	-0.869141	0.572754	0.0227051	0.649159	-0.372076	-0.578586	-0.324639	9.53071	-2.32985	0.751091	-0.332477	0.0103239	-0.0373902	-1	0.516113	-0.313965	
28	0.590836	-0.357605	-0.468272	-0.551137	9.39465	0.858097	3.00678	-0.0470085	0.0013771	0.0155459	-0.841553	0.323975	-0.349854	0.629935	-0.377029	-0.518988	-0.437816	9.61395	0.0969808	2.04703	-0.0553537	0.0283264	0.00433643	-0.749756	0.291992	-0.27417	0.861091	-0.222635	-0.221329	-0.399963	6.02361	-2.0638	8.37139	-0.0391575	0.101586	0.0207709	-0.366699	0.444824	-0.850586	0.232547	0.0698539	-0.158767	-0.956993	-0.630262	3.19781	9.15564	-0.0602857	-0.0631748	-0.0214582	-0.315918	-0.0358887	-0.992432	0.606973	-0.281249	-0.379577	-0.639065	8.04557	1.39067	5.29454	-0.0399509	0.043974	0.0287405	-0.794434	0.288574	-0.549805	0.99314	0.01009	0.114262	0.022694	-2.94254	-0.293069	12.8156	0.0492728	0.0670101	-0.0208307	0.698486	-0.0568848	-0.803223	0.603696	-0.403143	-0.605373	-0.326419	9.63343	-0.865712	-0.513256	-0.0318688	0.113944	-0.00987147	-0.896729	0.423096	-0.132568	0.923103	-0.109096	-0.29211	-0.22506	6.3144	-0.655055	8.92335	-0.0459119	0.00602822	-0.0808039	-0.31665	0.226562	-0.969727	-0.0119953	-0.0743962	-0.954389	-0.2889	0.5128	5.16815	-7.68157	-0.00762485	-0.0210386	0.0650142	-0.425537	-0.547852	0.877441	0.580808	-0.485968	-0.580641	-0.29892	9.34764	-2.39852	-1.1296	-0.135447	0.0529384	0.0103754	-0.864746	0.574951	0.015625	0.646857	-0.375697	-0.576622	-0.328534	9.7414	-1.55372	0.655714	-0.268137	0.0137803	-0.00624958	-0.997803	0.516113	-0.300293	
29	0.590789	-0.35801	-0.467629	-0.551471	9.78668	0.882912	3.03978	-0.0212858	0.0184096	0.0127184	-0.839355	0.32373	-0.343506	0.630136	-0.377985	-0.517992	-0.437881	9.71539	0.00485112	2.13334	-0.0474703	0.0297925	0.0186945	-0.75	0.296387	-0.276611	0.861489	-0.222188	-0.219354	-0.400441	5.89938	-2.00574	8.32261	-0.00922771	0.0753851	-0.00562778	-0.360107	0.442627	-0.852783	0.231939	0.0683837	-0.157686	-0.957425	-0.682011	3.27016	8.96754	-0.0478172	-0.0393552	-0.0220241	-0.318359	-0.0314941	-0.990234	0.607461	-0.28232	-0.377727	-0.639225	8.04359	1.46825	5.33142	-0.0872771	0.0268932	0.0295696	-0.794678	0.293213	-0.554443	0.992918	0.011304	0.11623	0.0218517	-2.90269	-0.425473	12.8265	0.0581964	0.0967974	-0.0532664	0.702881	-0.0632324	-0.801025	0.603809	-0.403966	-0.604204	-0.32736	9.81915	-1.15105	-0.542628	-0.0221021	0.037207	0.00189507	-0.885986	0.423096	-0.130371	0.922812	-0.110048	-0.290983	-0.227236	6.23452	-0.75063	8.69761	-0.071118	0.0603329	-0.0802194	-0.308105	0.230957	-0.976807	-0.0121812	-0.076673	-0.954027	-0.289491	0.100275	4.88966	-7.68876	-0.0184912	-0.028421	0.0673751	-0.425537	-0.54541	0.873047	0.5798	-0.487603	-0.579885	-0.29968	9.44161	-2.01144	-1.40155	-0.0717223	-0.011648	0.0105771	-0.866943	0.574951	0.0202637	0.64669	-0.376017	-0.575918	-0.32973	9.86964	-0.439896	0.478594	-0.12164	0.0268718	-0.0174502	-0.993408	0.522705	-0.307129	
30	0.591857	-0.358094	-0.46632	-0.55138	9.67877	0.948436	3.09268	-0.0156662	0.0509466	0.0555854	-0.8396	0.330322	-0.350098	0.630268	-0.379283	-0.516565	-0.438256	9.72932	-0.0810854	2.25506	-0.0772781	0.03939	0.0242348	-0.748047	0.300537	-0.279053	0.861047	-0.222948	-0.218312	-0.401536	5.79219	-2.11051	8.58742	-0.0716779	0.0212585	-0.0340026	-0.362305	0.442627	-0.85498	0.230605	0.0675099	-0.157828	-0.957786	-0.530418	3.27843	9.09764	0.010946	-0.0420514	-0.0583155	-0.320557	-0.0292969	-0.988037	0.606806	-0.284631	-0.375995	-0.639843	8.1908	1.40857	5.3909	-0.124131	-0.0231518	-0.00681714	-0.794678	0.295166	-0.547607	0.992733	0.0113809	0.118013	0.0205891	-2.90351	-0.464506	12.8706	0.00867946	0.0784604	-0.0725666	0.704834	-0.0568848	-0.799072	0.604861	-0.404298	-0.602458	-0.328223	9.82074	-0.937781	-0.460647	-0.0353563	0.10533	0.0175216	-0.894775	0.425293	-0.132568	0.922289	-0.110173	-0.291341	-0.228837	6.48584	-0.719586	8.70414	-0.0171694	-0.00953509	-0.0828798	-0.314697	0.233154	-0.969727	-0.0132713	-0.0781395	-0.954	-0.289139	0.169432	5.20433	-7.64419	-0.00178956	-0.0530397	0.012227	-0.42334	-0.543213	0.875244	0.579179	-0.489714	-0.578145	-0.300799	9.39581	-2.06855	-1.13831	-0.124052	0.0365538	0.0895836	-0.866943	0.570557	0.0227051	0.646176	-0.376699	-0.575383	-0.330893	9.72939	-1.27203	0.530303	0.0512089	0.0233132	-0.0189342	-0.993408	0.518311	-0.309326	
31	0.592885	-0.358767	-0.463979	-0.551812	9.51057	0.844654	3.21333	-0.0761005	0.0610564	0.0524257	-0.837646	0.334717	-0.352295	0.630179	-0.380629	-0.514972	-0.439091	9.58066	-0.0746218	1.98126	-0.0913614	0.0350271	0.000834379	-0.743652	0.300781	-0.269775	0.860115	-0.224431	-0.217396	-0.403201	5.94511	-2.17928	8.46768	-0.0878923	0.0245083	-0.0536497	-0.364502	0.447021	-0.855225	0.228637	0.0662437	-0.157766	-0.958356	-0.499835	3.15473	9.07338	-0.0173277	-0.0640996	-0.0710557	-0.327148	-0.0336914	-0.98584	0.605854	-0.285353	-0.375912	-0.640472	8.18207	1.28039	5.44854	-0.0103625	-0.00832519	-0.0474286	-0.799316	0.299561	-0.542969	0.992652	0.0116217	0.118926	0.0190786	-3.07816	-0.289079	12.796	0.0262321	0.0372689	-0.0805778	0.702637	-0.0524902	-0.799072	0.603995	-0.40565	-0.602396	-0.328263	9.60146	-0.887727	-0.530353	-0.0358336	-0.0456011	-0.00432871	-0.888428	0.42749	-0.132568	0.922021	-0.110271	-0.291049	-0.230235	6.37704	-0.738699	9.00023	-0.0302396	0.0333647	-0.0568577	-0.316895	0.233154	-0.969727	-0.0138106	-0.0794755	-0.953855	-0.28923	0.407063	4.96427	-7.91038	0.0100432	-0.0263456	0.0333331	-0.421143	-0.541016	0.881836	0.578453	-0.491086	-0.577338	-0.301509	9.41217	-2.38997	-1.35751	-0.0446154	-0.00616884	0.00228293	-0.860352	0.572754	0.0227051	0.646679	-0.376053	-0.57538	-0.330649	9.83533	-1.17612	0.405717	0.0339246	0.0264985	-0.00618943	-0.99585	0.522705	-0.302734	
32	0.592474	-0.360714	-0.461466	-0.55309	9.68478	0.652991	3.14913	-0.145314	0.0186313	0.025627	-0.835449	0.334717	-0.343506	0.629871	-0.381189	-0.514509	-0.439588	9.74092	-0.0385112	2.15819	-0.0837744	0.0202899	-0.0183081	-0.743652	0.302734	-0.276855	0.859452	-0.225278	-0.216493	-0.404628	5.86654	-2.39897	8.3867	-0.0389952	0.0300576	-0.0391544	-0.360352	0.447021	-0.846191	0.226995	0.0650561	-0.158155	-0.958764	-0.342544	3.23128	9.26717	0.0147536	-0.0431327	-0.0536997	-0.320557	-0.0336914	-0.98584	0.604319	-0.286598	-0.375652	-0.641518	8.18076	1.49715	5.59719	-0.119479	-0.0428502	-0.0653486	-0.794434	0.290771	-0.540771	0.99268	0.0112895	0.119061	0.0168294	-3.09868	-0.345975	13.046	-0.00528541	0.0214201	-0.114173	0.704834	-0.0546875	-0.799072	0.603084	-0.406701	-0.601905	-0.329537	9.87465	-0.872579	-0.466869	-0.0752856	-0.00010632	-0.0256777	-0.888184	0.425293	-0.132568	0.921933	-0.11069	-0.290452	-0.231139	6.54453	-0.672087	8.77791	-0.0395831	0.0499026	-0.0426106	-0.316895	0.235352	-0.972168	-0.0138403	-0.0808064	-0.953793	-0.289063	0.233933	5.12649	-7.70631	0.00214493	0.000239128	0.0323349	-0.43042	-0.538818	0.884033	0.578016	-0.491821	-0.577411	-0.301008	9.41087	-2.09465	-1.11594	-0.0100409	-0.0312343	0.0349993	-0.860352	0.577148	0.0249023	0.647942	-0.374435	-0.575712	-0.329433	9.6409	-1.33688	0.567697	0.161717	0.0346003	0.00600602	-0.997803	0.518311	-0.316162	
33	0.591866	-0.361355	-0.459249	-0.555164	9.70733	0.409849	3.27436	-0.085632	0.0647193	-0.0347311	-0.837646	0.336914	-0.350098	0.62956	-0.381324	-0.513579	-0.441002	9.72928	0.00193149	2.21923	-0.0587309	0.0431547	-0.0340189	-0.74585	0.300537	-0.274414	0.859278	-0.225057	-0.216452	-0.405141	5.96515	-2.23992	8.31908	0.00473883	0.0206426	-0.0429425	-0.364746	0.451416	-0.855225	0.226391	0.0649883	-0.158275	-0.958891	-0.422802	3.28455	9.24299	0.0106218	-0.0103835	-0.0458145	-0.329346	-0.0358887	-0.98584	0.603129	-0.287967	-0.374932	-0.642445	8.22989	1.20681	5.69853	-0.160021	-0.0424499	-0.0626117	-0.799072	0.292969	-0.538574	0.99268	0.0109905	0.119233	0.0158057	-3.16951	-0.326532	13.0309	-0.00835443	0.0273527	-0.102174	0.706787	-0.050293	-0.803467	0.602531	-0.40734	-0.601905	-0.329758	9.80228	-0.953375	-0.53681	-0.045492	-0.0242233	-0.0107285	-0.897217	0.431641	-0.132812	0.921955	-0.110967	-0.289997	-0.231489	6.32032	-0.840349	8.80435	-0.0325887	0.048781	-0.0304363	-0.312744	0.237549	-0.976807	-0.0136364	-0.0811672	-0.953721	-0.28921	0.192886	5.08731	-7.74519	-0.00621691	0.0132903	0.0151569	-0.427979	-0.541016	0.881836	0.578074	-0.491967	-0.577308	-0.300856	9.51981	-2.05328	-1.1743	0.00152299	0.00917066	0.0216715	-0.860352	0.577148	0.0224609	0.648508	-0.37377	-0.576049	-0.328484	10.1087	-1.01696	0.4209	0.0244793	0.00426904	-0.000544938	-0.998047	0.524902	-0.313965	
34	0.591765	-0.360984	-0.458753	-0.555923	9.65338	0.504293	3.31507	-0.0341812	0.0558168	-0.0403445	-0.835449	0.339111	-0.354492	0.629175	-0.381468	-0.513091	-0.441994	9.8354	-0.0901691	2.13524	-0.051144	0.0251796	-0.0402816	-0.745605	0.296387	-0.276611	0.858808	-0.225074	-0.216617	-0.406038	6.12679	-2.16557	8.53594	-0.00979921	-0.00594848	-0.0382015	-0.368896	0.447021	-0.853027	0.225479	0.0653966	-0.158111	-0.959106	-0.623488	3.43304	9.28022	0.000885242	0.0214581	-0.0407595	-0.331787	-0.0314941	-0.988037	0.602709	-0.288107	-0.374674	-0.642927	8.24142	1.21546	5.76621	0.0247745	0.0219947	-0.0259054	-0.796875	0.297363	-0.538574	0.992717	0.0114591	0.119014	0.0147466	-3.11944	-0.29467	13.1305	0.0383442	-0.00248706	-0.0425159	0.700195	-0.0480957	-0.799316	0.601903	-0.408025	-0.601866	-0.33013	9.89675	-0.993751	-0.673066	-0.0303603	0.00176871	-0.0183701	-0.890381	0.427246	-0.124023	0.921862	-0.110917	-0.290244	-0.231575	6.39329	-0.608831	8.73644	0.00283891	-0.00139114	-0.0222674	-0.314941	0.239746	-0.972168	-0.0139071	-0.0812705	-0.953732	-0.28913	0.0685509	5.09626	-7.79437	0.0232785	-0.0162241	-0.0267739	-0.42334	-0.541016	0.877441	0.577724	-0.492656	-0.577241	-0.30053	9.52715	-2.10559	-1.46067	-0.014215	-0.0201149	0.0306264	-0.862793	0.577148	0.0249023	0.648913	-0.373091	-0.576278	-0.328053	9.91057	-1.04285	0.430042	0.0759866	0.018468	-0.0101459	-0.993408	0.522705	-0.313965	
35	0.592267	-0.359827	-0.458343	-0.556476	9.51266	0.783806	3.36546	0.0244292	0.0511403	-0.00700814	-0.837646	0.334717	-0.356445	0.628806	-0.381788	-0.512852	-0.442519	9.58542	-0.146062	2.11542	-0.0295584	0.0159955	-0.0310057	-0.741455	0.300781	-0.274414	0.858319	-0.224739	-0.217079	-0.40701	5.99992	-2.26417	8.63747	0.0165942	0.0123669	-0.0491228	-0.364746	0.451416	-0.85083	0.224445	0.0663443	-0.15757	-0.959372	-0.43145	3.22269	9.38347	-0.0191729	0.0434948	-0.0503992	-0.327393	-0.0292969	-0.990234	0.602646	-0.287024	-0.374459	-0.643596	8.17263	1.31114	5.58643	-0.00570258	0.0553967	-0.053929	-0.79248	0.292969	-0.54541	0.992738	0.0123938	0.118736	0.0147966	-3.07872	-0.261519	12.9728	0.0404814	0.0019823	-0.00403832	0.705078	-0.0588379	-0.796875	0.60115	-0.408583	-0.602166	-0.330264	9.69687	-1.08664	-0.544093	0.0200233	-0.037692	-0.0168801	-0.890625	0.429443	-0.128418	0.921787	-0.110403	-0.290408	-0.231913	6.46097	-0.599243	8.91513	0.020133	0.0156204	-0.0440843	-0.3125	0.233154	-0.974365	-0.0144407	-0.0813686	-0.953727	-0.289095	0.240687	5.20479	-7.68095	-0.0113732	-0.00912787	-0.0155095	-0.423584	-0.538818	0.881836	0.577641	-0.493043	-0.577004	-0.300509	9.32364	-2.21254	-1.25228	-0.0227128	0.0160524	0.0260975	-0.858398	0.579346	0.0270996	0.649259	-0.37243	-0.576757	-0.327278	9.64044	-1.52857	0.572887	0.0617651	-0.00364947	0.00735302	-1	0.518311	-0.316162	
36	0.592325	-0.359767	-0.458012	-0.556726	9.43445	0.773008	3.28619	-0.0217716	-0.00564089	-0.0127531	-0.833008	0.332764	-0.352051	0.628824	-0.380791	-0.513298	-0.442837	9.64123	-0.00499316	2.04637	0.0237122	0.0234918	-0.0594093	-0.74585	0.302734	-0.279053	0.858274	-0.22344	-0.216411	-0.408175	6.04091	-2.267	8.33447	0.0309494	0.0647298	-0.0382007	-0.366699	0.447021	-0.850586	0.224013	0.0665765	-0.156013	-0.959711	-0.443317	3.20068	9.14531	-0.0611366	0.0222962	-0.0120737	-0.318359	-0.0314941	-0.990234	0.602754	-0.285236	-0.374076	-0.644512	8.10342	1.36892	5.51653	0.017223	0.0817596	-0.0569242	-0.792236	0.286377	-0.552246	0.992818	0.0138428	0.117895	0.0148663	-3.08123	-0.273293	12.8687	0.0653591	-0.0256549	-0.00998026	0.707031	-0.0568848	-0.80127	0.601125	-0.408333	-0.602229	-0.330506	9.71837	-0.757	-0.687116	-0.0214994	0.0372573	-0.0368825	-0.892578	0.427246	-0.126221	0.921767	-0.110241	-0.290171	-0.232367	6.45391	-0.664644	8.93775	-0.0074501	0.0399114	-0.0216289	-0.314941	0.237549	-0.979248	-0.0140621	-0.0817819	-0.953437	-0.28995	0.421274	5.01515	-7.85504	-0.0334357	0.026523	0.00744508	-0.42334	-0.541016	0.881836	0.57782	-0.494163	-0.576444	-0.299399	9.29878	-2.35507	-1.28641	-0.00269949	-0.0126612	0.0658403	-0.860596	0.581543	0.0361328	0.65196	-0.368354	-0.578477	-0.323463	9.75463	-0.676399	0.496521	0.220009	0.0186596	0.0107376	-0.993408	0.518311	-0.320801	
37	0.591018	-0.360073	-0.458114	-0.557832	9.706	0.702654	3.23602	-0.0439777	-0.0178039	-0.0606433	-0.833252	0.339111	-0.352295	0.628789	-0.379761	-0.513689	-0.443316	9.79751	0.121133	2.2039	0.00714702	0.0338295	-0.0618445	-0.747803	0.294189	-0.27417	0.858721	-0.221183	-0.216448	-0.408444	6.01037	-2.16829	8.29249	0.101253	0.0359566	-0.0185398	-0.360107	0.44043	-0.845947	0.224456	0.0673916	-0.154654	-0.959771	-0.493869	3.34329	9.06108	-0.0407945	0.0664805	0.0139981	-0.318115	-0.0336914	-0.994629	0.602635	-0.284585	-0.372921	-0.645579	8.10503	1.33295	5.44875	-0.0397886	0.050777	-0.0324566	-0.794678	0.291016	-0.554443	0.992882	0.0150853	0.117228	0.0147001	-3.06294	-0.476055	12.9122	0.0508269	-0.00895046	-0.0202265	0.704834	-0.0546875	-0.799072	0.601087	-0.407887	-0.601894	-0.331732	9.91275	-0.884197	-0.563889	-0.00340799	0.0488826	-0.0505164	-0.894775	0.427246	-0.124023	0.922088	-0.110082	-0.289221	-0.232349	6.32337	-0.816553	8.76488	0.0144578	0.0520135	-0.0110634	-0.314697	0.233154	-0.967529	-0.0134859	-0.0821021	-0.95339	-0.290042	0.110771	5.07673	-7.73037	0.00830959	0.0259107	-0.00464092	-0.425537	-0.543213	0.881836	0.577964	-0.4936	-0.577414	-0.298177	9.47526	-2.08475	-1.30518	0.0722243	-0.0171447	-0.0096358	-0.860596	0.579346	0.0314941	0.653338	-0.366402	-0.579446	-0.321158	9.86319	-0.885125	0.395193	0.165403	-0.00209439	0.0069702	-0.993408	0.518311	-0.322998	
38	0.590184	-0.359061	-0.458663	-0.558915	9.77957	0.817353	3.27964	0.0251651	0.0199906	-0.0710332	-0.837402	0.33252	-0.352295	0.628799	-0.378918	-0.513789	-0.443907	9.69403	0.0115892	2.24847	-0.00513435	0.0319533	-0.0482702	-0.747803	0.294189	-0.271729	0.858774	-0.220147	-0.217651	-0.408252	5.92993	-1.94993	8.56735	0.0397297	-0.0368051	-0.0129394	-0.366699	0.442627	-0.85498	0.224773	0.0691904	-0.154467	-0.959599	-0.663315	3.33185	9.0956	0.019721	0.0768769	-0.00364612	-0.316162	-0.0290527	-0.994629	0.602861	-0.283915	-0.372986	-0.645626	8.00115	1.35535	5.54658	0.0348716	0.0194413	-0.0187781	-0.794434	0.290771	-0.542969	0.992943	0.015173	0.116624	0.0152641	-2.95955	-0.358953	12.8248	-0.000687364	-0.0114852	0.0130588	0.707031	-0.0568848	-0.80542	0.601197	-0.407665	-0.601587	-0.332362	9.77246	-0.966071	-0.645089	0.00971287	0.0205486	-0.0265558	-0.894775	0.429443	-0.128418	0.922208	-0.109547	-0.28918	-0.232178	6.32211	-0.576496	8.75227	0.0239305	0.0155876	-0.00627913	-0.310303	0.233154	-0.965088	-0.0134925	-0.0818315	-0.953345	-0.290266	0.0249496	5.03701	-7.76539	-0.00657571	0.000963715	-0.0318539	-0.432617	-0.543457	0.877441	0.578404	-0.492641	-0.578217	-0.297352	9.48697	-2.17798	-1.46922	0.0699465	0.00190292	-0.00626105	-0.860596	0.579346	0.0314941	0.653446	-0.366135	-0.579874	-0.320467	9.86378	-1.34643	0.51381	0.0581893	-0.00235704	-0.00225493	-0.999756	0.511719	-0.322998	
39	0.590749	-0.357521	-0.458746	-0.559238	9.36454	0.983792	3.30066	0.0367049	0.0430815	-0.00801553	-0.833008	0.332764	-0.36084	0.628659	-0.378458	-0.513818	-0.444465	9.54966	0.0252116	2.13508	-0.0139936	0.0308179	-0.0469636	-0.749756	0.291992	-0.276367	0.858478	-0.220093	-0.21856	-0.408419	6.00796	-2.08347	8.74729	0.0230455	-0.00710803	-0.0170309	-0.366455	0.436279	-0.852539	0.224608	0.0702107	-0.154003	-0.959638	-0.630449	3.05724	9.29766	-0.0157085	0.0334647	-0.0139816	-0.318604	-0.0270996	-0.990234	0.603083	-0.282818	-0.373926	-0.645356	8.04317	1.38944	5.58801	0.0677382	0.0145894	-0.036539	-0.794434	0.286377	-0.549805	0.99304	0.0154783	0.11563	0.0161834	-2.8718	-0.188945	12.9242	0.00565469	-0.0320018	0.0204453	0.700439	-0.0546875	-0.80542	0.600957	-0.407586	-0.601706	-0.332678	9.62695	-0.841828	-0.526859	-0.00933007	0.00643077	-0.031141	-0.890381	0.425293	-0.132568	0.922175	-0.109276	-0.289562	-0.231963	6.47222	-0.701748	8.95759	0.0254395	0.0123894	-0.0153461	-0.310303	0.22876	-0.976807	-0.0135969	-0.0815788	-0.95332	-0.290416	0.449225	5.15681	-7.74192	-0.015415	0.0127256	-0.0201649	-0.430176	-0.543457	0.88623	0.579022	-0.492418	-0.578237	-0.29648	9.27743	-2.4074	-1.2993	0.0366753	0.000343337	0.0321628	-0.86084	0.58374	0.0268555	0.654529	-0.364421	-0.580808	-0.318514	9.65601	-1.4899	0.542794	0.159106	0.00713429	0.0116218	-0.995361	0.513916	-0.332031	
40	0.590667	-0.356906	-0.459105	-0.559422	9.55198	0.940459	3.3576	0.0129603	-0.00802156	-0.0370277	-0.834961	0.328369	-0.352051	0.628613	-0.377475	-0.514353	-0.444746	9.69812	0.128667	2.13474	0.0200053	0.00727419	-0.0582956	-0.749756	0.291992	-0.278809	0.858653	-0.219205	-0.218357	-0.408637	6.03091	-2.08733	8.46039	0.0361804	0.0328058	-0.00474828	-0.366699	0.440674	-0.850342	0.224835	0.0703193	-0.153457	-0.959664	-0.595067	3.21018	9.32595	-0.0242329	0.0208058	0.0166037	-0.313965	-0.0314941	-0.988037	0.603124	-0.281525	-0.374511	-0.645544	8.09666	1.53723	5.49028	0.0188146	0.0342598	-0.0389608	-0.790039	0.288818	-0.552246	0.993169	0.0154484	0.11444	0.0167251	-2.97385	-0.192427	12.9915	0.0112933	-0.0298841	-0.00547443	0.700439	-0.0568848	-0.80542	0.600466	-0.407316	-0.602371	-0.332691	9.70488	-0.821202	-0.553666	0.0137996	-0.0181263	-0.032442	-0.892578	0.427246	-0.126221	0.922495	-0.10909	-0.288924	-0.23157	6.42014	-0.677016	8.82005	0.00900759	0.0520309	0.0149095	-0.308105	0.233154	-0.962891	-0.0131158	-0.0815388	-0.953283	-0.290569	0.212616	5.01647	-7.81136	0.0233224	0.0224669	-0.0151035	-0.423584	-0.538818	0.879639	0.579696	-0.491342	-0.579141	-0.295179	9.3917	-2.34673	-1.48438	0.0696356	-0.015092	-0.0126087	-0.862793	0.581543	0.0292969	0.655569	-0.362993	-0.581378	-0.316961	9.84318	-1.23228	0.43148	0.0519359	0.0142205	0.0112384	-0.993164	0.513916	-0.334473	
41	0.590046	-0.356161	-0.459584	-0.560159	9.68129	0.967874	3.36698	0.0101791	0.00876099	-0.0543943	-0.8396	0.330566	-0.356445	0.628528	-0.377098	-0.514671	-0.444818	9.76998	0.217874	2.28125	0.0148281	0.00997863	-0.0511526	-0.749756	0.291992	-0.27417	0.858827	-0.218525	-0.218711	-0.408446	5.92221	-2.1212	8.50087	0.0684209	0.00228337	0.00227049	-0.360107	0.438232	-0.852783	0.225491	0.0714973	-0.15332	-0.959445	-0.687817	3.20856	9.16195	0.0179377	0.0656641	0.0218422	-0.307129	-0.03125	-0.988037	0.603038	-0.281484	-0.374259	-0.645788	8.03452	1.46264	5.53792	-0.0218822	0.024085	-0.0269651	-0.794434	0.286377	-0.549805	0.993196	0.0156353	0.114184	0.0166944	-2.95677	-0.285809	13.0529	0.0202527	-0.00711886	-0.0175283	0.69873	-0.0632324	-0.805176	0.600454	-0.406851	-0.602729	-0.332634	9.89728	-0.917643	-0.535838	0.0487286	0.00506346	-0.0483475	-0.896729	0.423096	-0.128418	0.922613	-0.109327	-0.288622	-0.231366	6.37751	-0.728205	8.75675	-0.0127736	0.035402	0.00995338	-0.310303	0.230957	-0.979004	-0.0128827	-0.0814217	-0.953324	-0.290478	0.0510395	5.10075	-7.70706	0.014305	0.0260609	-0.0216383	-0.43042	-0.541016	0.879639	0.57992	-0.490805	-0.579596	-0.29474	9.48698	-1.9358	-1.31162	0.067246	-0.00360702	-0.0143268	-0.860596	0.579346	0.0246582	0.655451	-0.363048	-0.581521	-0.316881	9.99107	-0.759969	0.535716	-0.0866189	-0.0109368	-0.00345797	-0.997559	0.513916	-0.325195	
42	0.589982	-0.355512	-0.459909	-0.560371	9.62783	1.01343	3.36458	0.0368199	0.0150729	-0.0472575	-0.83252	0.323975	-0.360596	0.628428	-0.376941	-0.514558	-0.445223	9.76189	0.118547	2.2919	-0.0348138	0.0282604	-0.0256812	-0.749756	0.289795	-0.273926	0.85888	-0.217871	-0.22	-0.407991	5.98266	-1.81095	8.65838	0.023535	-0.0458482	-0.00194938	-0.366455	0.434082	-0.857178	0.225719	0.0722073	-0.153482	-0.959312	-0.785089	3.23525	9.13546	0.026435	0.0606681	0.0136553	-0.311523	-0.0334473	-0.992432	0.603054	-0.281898	-0.373975	-0.645757	8.08441	1.28956	5.60593	-0.00791434	0.00372283	0.00497852	-0.792236	0.288818	-0.554443	0.993198	0.0155046	0.114176	0.016789	-3.02466	-0.295996	12.9542	-0.00595367	0.0136205	-0.0119021	0.702881	-0.0610352	-0.80957	0.600054	-0.407226	-0.603165	-0.332106	9.84122	-0.951551	-0.731461	0.00799221	-0.029545	0.00358013	-0.892578	0.425293	-0.128418	0.922561	-0.10892	-0.289418	-0.230772	6.28305	-0.604204	8.73716	0.0454862	-0.0224995	-0.00203013	-0.310303	0.233154	-0.976807	-0.0130541	-0.0807811	-0.953414	-0.290355	0.0732037	4.955	-7.81986	0.0222922	-0.0076245	-0.0529392	-0.430664	-0.536377	0.877197	0.579858	-0.490713	-0.579495	-0.295213	9.49297	-2.33255	-1.53204	-0.00620181	0.0345889	-0.00117884	-0.862793	0.579346	0.0246582	0.65526	-0.363241	-0.58147	-0.317147	9.94584	-1.42344	0.452883	-0.0258784	0.00431874	-0.0128825	-0.997559	0.513916	-0.332031	
43	0.590661	-0.354363	-0.459984	-0.560323	9.58649	1.14245	3.27469	0.0333832	0.0436835	0.0105465	-0.830566	0.326172	-0.360596	0.628377	-0.37718	-0.514385	-0.445292	9.52029	0.0562596	2.1576	-0.0138248	0.00721278	-0.0178139	-0.749756	0.289795	-0.276367	0.858592	-0.21835	-0.221066	-0.407766	6.04229	-2.1264	8.6433	0.0203547	-0.0299737	-0.0013961	-0.37085	0.440674	-0.859619	0.22591	0.0731297	-0.153808	-0.959145	-0.646621	3.14648	9.40101	0.0190413	0.035358	0.00251676	-0.307373	-0.0290527	-0.990234	0.603604	-0.281328	-0.374469	-0.645205	8.00964	1.45606	5.59624	0.0434112	0.0131527	-0.00798848	-0.789795	0.279785	-0.552246	0.993191	0.0154663	0.114157	0.0173259	-2.83802	-0.258048	13.0063	0.00411036	0.0104323	0.00435724	0.696289	-0.059082	-0.80957	0.599166	-0.408137	-0.603513	-0.331958	9.60055	-0.820659	-0.570219	-0.00922183	-0.0299784	-0.0153509	-0.894531	0.423096	-0.119873	0.922266	-0.109797	-0.290662	-0.229967	6.38814	-0.650839	8.82039	-0.0285756	-0.0498143	0.0225254	-0.321289	0.233154	-0.979004	-0.0134671	-0.0799565	-0.953646	-0.289802	0.248079	4.98969	-7.78872	0.0366705	0.001411	-0.0547253	-0.430176	-0.545654	0.884033	0.579958	-0.490694	-0.579212	-0.295602	9.38297	-2.26695	-1.29701	-0.0222437	0.0414921	-0.00531068	-0.86084	0.58374	0.0268555	0.654718	-0.363911	-0.58114	-0.318103	9.71916	-1.28643	0.630124	-0.0972896	0.00740738	-0.0106972	-1	0.513916	-0.327637	
44	0.591461	-0.354214	-0.459197	-0.560218	9.38606	0.905532	3.32285	-0.0101599	0.0184097	0.0220929	-0.830078	0.319824	-0.362793	0.6284	-0.376708	-0.514692	-0.445304	9.6877	0.0922167	2.20371	0.0152664	0.0211769	-0.0350936	-0.749512	0.2854	-0.276123	0.858956	-0.217117	-0.221179	-0.407596	6.06372	-1.99719	8.51112	0.0467053	0.0368898	0.00270237	-0.368652	0.429688	-0.856934	0.226335	0.0735995	-0.153073	-0.959127	-0.681035	3.24967	9.24909	-0.0361953	0.0321703	0.015411	-0.30957	-0.0290527	-0.988037	0.603784	-0.281013	-0.37458	-0.64511	8.07404	1.50659	5.5824	-0.0020488	0.0189505	-0.015634	-0.792236	0.288574	-0.549805	0.993185	0.0153076	0.114155	0.0178355	-2.92973	-0.239655	12.9972	0.00756158	0.0142784	0.00148726	0.69873	-0.0632324	-0.807373	0.598134	-0.408758	-0.60432	-0.331586	9.77503	-0.949416	-0.725439	0.014977	-0.0399524	-0.0141603	-0.894531	0.420898	-0.121826	0.922037	-0.110846	-0.291356	-0.229504	6.45193	-0.888986	8.88873	0.012689	-0.020148	0.00590464	-0.314697	0.235352	-0.976807	-0.0135256	-0.0790338	-0.953669	-0.289975	0.323217	5.10613	-7.75012	-0.024827	0.0243939	-0.0525548	-0.42334	-0.543213	0.877441	0.580253	-0.491327	-0.578421	-0.295521	9.37999	-2.26524	-1.33147	-0.0169376	0.0149767	0.0354429	-0.860596	0.579346	0.0270996	0.654936	-0.363351	-0.5814	-0.317818	9.87897	-1.06509	0.65698	0.0761083	0.0143255	-0.00741232	-0.999756	0.509521	-0.329834	
45	0.591137	-0.354163	-0.459183	-0.560605	9.49743	0.880277	3.37116	-0.0106607	-0.000421775	-0.0174792	-0.837158	0.326172	-0.362793	0.628606	-0.376261	-0.514767	-0.445306	9.64514	0.125068	2.07275	0.00108582	0.0165442	-0.0256258	-0.75415	0.291992	-0.278809	0.859309	-0.215873	-0.221484	-0.407348	5.99118	-1.96013	8.47118	0.061	0.00784212	-0.00150845	-0.366455	0.429688	-0.859375	0.226789	0.0742214	-0.152559	-0.959053	-0.756107	3.19288	9.06566	-0.00283196	0.0383833	0.013378	-0.305176	-0.0268555	-0.994873	0.604161	-0.280449	-0.374104	-0.645278	8.10089	1.38924	5.4593	0.0139773	0.0461691	-0.00761739	-0.790039	0.286621	-0.554443	0.993167	0.0159057	0.114167	0.0182367	-2.95307	-0.337064	12.8639	0.0292875	0.0134969	-0.00159992	0.698486	-0.0610352	-0.80542	0.598125	-0.408303	-0.605297	-0.330378	9.71416	-0.941506	-0.614713	0.0665697	-0.0295144	-0.0202022	-0.898926	0.423096	-0.117676	0.92237	-0.110177	-0.291232	-0.228643	6.45257	-0.637908	8.92311	0.0370707	0.0334095	0.0175606	-0.310303	0.233154	-0.967529	-0.0133904	-0.0781488	-0.953739	-0.289993	0.210762	5.20689	-7.6875	-0.00715705	0.028463	-0.0466024	-0.425537	-0.545654	0.877441	0.580702	-0.490581	-0.579035	-0.294675	9.39285	-2.17774	-1.31391	0.0609435	-0.00991799	-0.014286	-0.858398	0.579346	0.0246582	0.656272	-0.361371	-0.582133	-0.315974	9.86914	-0.835488	0.572986	0.0935791	0.0115056	0.0045307	-0.997559	0.509521	-0.327393	
46	0.590866	-0.35422	-0.45961	-0.560503	9.56661	0.91132	3.34896	0.0132348	-0.0262589	-0.00211525	-0.836914	0.323975	-0.362793	0.628448	-0.376223	-0.515133	-0.445137	9.76691	0.0847302	2.28056	0.0043667	0.00532197	-0.0212025	-0.749756	0.294189	-0.278809	0.859327	-0.21554	-0.221859	-0.407282	6.05653	-2.06988	8.57828	0.0098813	-0.0117601	-0.00208957	-0.366455	0.429688	-0.859375	0.227275	0.074718	-0.152413	-0.958923	-0.687172	3.36975	9.1813	0.00524119	0.0257745	0.0148305	-0.309326	-0.0334473	-0.994629	0.604291	-0.28025	-0.374081	-0.645256	8.07402	1.52268	5.46754	-0.00977574	-0.00186815	-0.019678	-0.792236	0.288818	-0.554443	0.993187	0.0158769	0.113961	0.0184752	-2.92534	-0.406413	12.9437	-0.0083483	0.00439011	-0.0127332	0.700928	-0.0632324	-0.803223	0.597633	-0.408758	-0.605513	-0.330311	9.81826	-0.797352	-0.685045	-0.0183733	-0.000171429	-0.00960422	-0.896729	0.425049	-0.119873	0.922553	-0.109766	-0.291515	-0.22774	6.39599	-0.796036	8.68577	0.0391183	0.0113425	0.0176464	-0.314697	0.230957	-0.974365	-0.0132891	-0.076813	-0.953685	-0.290532	0.138511	5.03236	-7.71115	-0.0023337	0.0229261	-0.0775347	-0.418457	-0.547607	0.875244	0.581213	-0.490442	-0.579136	-0.293699	9.35208	-2.13789	-1.2911	0.0356779	0.0114218	0.0485082	-0.860596	0.581543	0.0200195	0.657498	-0.359466	-0.582954	-0.314079	9.77826	-0.896709	0.487827	0.150312	0.00827965	0.000967473	-0.999512	0.507324	-0.341064	
47	0.590777	-0.354338	-0.460249	-0.559998	9.60521	1.00702	3.30095	0.0197995	-0.0317333	0.00186096	-0.834473	0.31958	-0.360596	0.628641	-0.37567	-0.515474	-0.444937	9.68653	0.129608	2.2542	0.0152174	0.0139747	-0.0260481	-0.747559	0.289795	-0.281006	0.859402	-0.215348	-0.222292	-0.406988	6.06515	-1.99989	8.56848	0.018161	-0.00783629	0.0127863	-0.364258	0.431885	-0.861572	0.227453	0.0750724	-0.152578	-0.958827	-0.686398	3.27897	9.16831	0.0066391	0.0175495	0.0103548	-0.304932	-0.03125	-0.994629	0.60417	-0.280373	-0.374458	-0.645097	8.13404	1.28475	5.58399	0.029773	-0.0031263	-0.00976454	-0.789551	0.277588	-0.549805	0.993192	0.0153463	0.113893	0.0190308	-2.99583	-0.286946	12.8762	-0.0111624	0.0120485	0.00765592	0.702881	-0.0632324	-0.811768	0.597319	-0.408472	-0.606315	-0.329763	9.71894	-0.859917	-0.780905	0.053944	-0.019197	-0.0319698	-0.898926	0.425049	-0.113525	0.922742	-0.109022	-0.292194	-0.226461	6.41746	-0.549182	8.83171	0.0416688	-0.00982045	0.019219	-0.314697	0.230957	-0.976807	-0.0131941	-0.0751657	-0.953851	-0.29042	0.167407	5.00883	-7.81932	0.00841484	0.0256996	-0.0711667	-0.423096	-0.547852	0.881836	0.581399	-0.490072	-0.579483	-0.293264	9.44577	-2.47795	-1.52787	0.0322611	-0.00174457	0.00527757	-0.858398	0.581543	0.0246582	0.658183	-0.358654	-0.583138	-0.313228	9.85268	-1.72165	0.539925	0.0987007	0.0289123	0.00528766	-0.990723	0.511719	-0.329834	
48	0.59058	-0.354576	-0.460302	-0.560012	9.49601	0.875464	3.25925	-0.0108482	-0.00191947	-0.00721779	-0.839355	0.326172	-0.36084	0.628349	-0.375544	-0.515803	-0.445075	9.61184	0.183782	2.13539	-0.00317763	-0.00315523	-0.0259615	-0.747803	0.293945	-0.283447	0.859437	-0.215741	-0.222639	-0.406516	5.97073	-1.94812	8.42512	-0.00508304	-0.0192383	0.0169892	-0.379395	0.432129	-0.866211	0.227931	0.0752387	-0.152673	-0.958685	-0.716502	3.05758	9.16457	0.0157036	0.0188638	0.0260985	-0.29834	-0.0290527	-0.990234	0.604477	-0.27978	-0.375603	-0.644401	8.04454	1.54095	5.63978	0.0406331	-0.0120651	-0.0144146	-0.796631	0.286377	-0.554443	0.99323	0.0151252	0.113488	0.0196241	-2.91598	-0.162038	12.943	-0.0191705	-0.00659981	0.00695244	0.69873	-0.0654297	-0.801025	0.596246	-0.408881	-0.607346	-0.329301	9.67541	-0.836057	-0.782945	-0.00212515	-0.0533142	-0.0262308	-0.896973	0.427246	-0.111328	0.922975	-0.109045	-0.292102	-0.225617	6.59345	-0.820293	8.9311	0.0163918	0.0331114	0.0194361	-0.312256	0.226562	-0.967285	-0.0129596	-0.0740758	-0.953996	-0.290235	0.402032	5.18594	-7.80088	0.0028005	0.0365483	-0.0497706	-0.427734	-0.547852	0.877441	0.582119	-0.489697	-0.579596	-0.292237	9.30491	-2.24742	-1.27778	0.0503374	0.0114384	-0.00209788	-0.858398	0.581543	0.0200195	0.659684	-0.356397	-0.583973	-0.311086	9.72891	-1.02129	0.583759	0.091522	0.00780278	0.0119589	-0.99292	0.507324	-0.343262	
49	0.590315	-0.354538	-0.46049	-0.560161	9.41373	0.865133	3.29445	-0.00149805	-0.0152092	-0.0265525	-0.839355	0.326172	-0.362793	0.62807	-0.375596	-0.516202	-0.444962	9.60523	0.11487	2.05681	-0.00241848	-0.0234264	-0.0339075	-0.751709	0.2854	-0.283203	0.859543	-0.215672	-0.222964	-0.406152	6.01523	-1.99221	8.37081	0.0265385	-0.0192415	0.0235342	-0.368652	0.429932	-0.86377	0.22842	0.0755195	-0.153001	-0.958495	-0.766205	3.14749	9.1286	0.0306563	0.0280649	0.0409687	-0.307373	-0.0268555	-0.994873	0.604519	-0.279624	-0.375726	-0.644358	8.08902	1.50138	5.56103	0.0147648	0.00985318	-0.0178658	-0.794189	0.282227	-0.556641	0.993278	0.0146287	0.113072	0.0200008	-2.87853	-0.120072	12.9821	-0.0379547	-0.0189931	0.00723423	0.700684	-0.0610352	-0.803223	0.59556	-0.409473	-0.607456	-0.329601	9.64434	-0.826878	-0.783929	-0.0476153	-0.0318926	-0.0239626	-0.896973	0.427246	-0.111328	0.923157	-0.108768	-0.291885	-0.225286	6.43417	-0.717576	8.96055	0.0295071	0.0388649	0.00746312	-0.316895	0.235352	-0.972168	-0.0124215	-0.0737495	-0.953907	-0.290634	0.326649	5.0953	-7.78882	-0.0243511	0.0562502	-0.0292975	-0.427734	-0.550049	0.87085	0.582331	-0.489268	-0.579942	-0.291848	9.33328	-2.4615	-1.34104	0.0561536	-0.000124264	-0.0074525	-0.858398	0.581543	0.0224609	0.660605	-0.355059	-0.584426	-0.309809	9.77412	-1.4558	0.573173	0.170423	0.0228866	0.0100175	-0.995117	0.505127	-0.343262	
50	0.589266	-0.35475	-0.462185	-0.559735	9.71831	0.842946	3.255	0.0350318	-0.0457001	-0.0292187	-0.834717	0.321777	-0.354248	0.627886	-0.374948	-0.517229	-0.444575	9.84103	0.208379	2.18479	0.028198	-0.00311496	-0.0434496	-0.751709	0.287598	-0.278564	0.859737	-0.214457	-0.224603	-0.405479	6.04687	-1.76356	8.28382	0.0890643	-0.0460762	-0.00690109	-0.368408	0.427734	-0.856934	0.229589	0.0770516	-0.154834	-0.957799	-0.942402	3.29968	9.05476	0.118299	0.068294	0.0484636	-0.30249	-0.0356445	-1.00122	0.604703	-0.279034	-0.376094	-0.644226	8.24588	1.67798	5.60007	0.0204	0.00830013	-0.0220801	-0.794189	0.281982	-0.554443	0.993399	0.0138001	0.112062	0.0202516	-2.84379	-0.38395	13.1338	-0.0348169	-0.0277771	-0.0155332	0.694336	-0.0610352	-0.813965	0.594969	-0.409927	-0.607669	-0.329712	9.94315	-0.723157	-0.622056	-0.0178819	0.000162851	-0.0193599	-0.894531	0.420898	-0.111328	0.923468	-0.109076	-0.29151	-0.224345	6.34987	-0.558445	8.74196	-0.0200594	0.0266252	0.0376456	-0.314697	0.230957	-0.969727	-0.0115625	-0.0729995	-0.953888	-0.290922	0.155281	5.11607	-7.73426	0.0183775	0.0383877	-0.0419021	-0.420898	-0.547852	0.877441	0.583428	-0.488362	-0.5804	-0.290259	9.4031	-2.21743	-1.37908	0.0995392	0.0132544	0.0236819	-0.856201	0.581543	0.0270996	0.664106	-0.349632	-0.586346	-0.304825	9.89893	-0.639723	0.596285	0.228142	0.0172651	0.00442286	-0.98584	0.498535	-0.354492	
51	0.58892	-0.354394	-0.462997	-0.559653	9.66926	0.971628	3.19366	0.0476135	-0.0398858	-0.0489007	-0.838867	0.317383	-0.349854	0.627583	-0.374337	-0.517916	-0.444718	9.73292	0.245992	2.13786	0.00645028	0.00536153	-0.0536683	-0.751465	0.278809	-0.282959	0.859193	-0.213331	-0.227818	-0.405432	6.02178	-1.79851	8.5826	0.0920449	-0.10329	-0.0557143	-0.376953	0.419189	-0.863525	0.230272	0.0803505	-0.156559	-0.957083	-0.947441	3.5241	9.2883	0.08248	0.140454	0.00384458	-0.291504	-0.0354004	-1.00122	0.604202	-0.278676	-0.376347	-0.644704	8.21977	1.55129	5.51041	0.00874419	0.00841496	-0.0526784	-0.796387	0.281982	-0.554443	0.993548	0.0120756	0.110862	0.0206392	-2.76377	-0.501339	13.1571	-0.0586077	-0.0313502	-0.00753505	0.696289	-0.059082	-0.80957	0.594541	-0.410389	-0.607311	-0.330568	9.75215	-0.865207	-0.943458	-0.0157332	0.0070286	-0.0274998	-0.896729	0.425049	-0.115479	0.923757	-0.109342	-0.29124	-0.223376	6.48698	-0.862594	8.70928	0.0243538	0.0194789	0.0192274	-0.305908	0.230957	-0.969727	-0.0109989	-0.0719126	-0.953968	-0.29095	0.209538	5.22237	-7.7455	0.00842203	0.0334671	-0.0574277	-0.420654	-0.550049	0.877441	0.584559	-0.486809	-0.580949	-0.289492	9.50785	-2.30992	-1.25713	0.0772895	0.0332467	-0.00530891	-0.86084	0.585938	0.0153809	0.664664	-0.348763	-0.586804	-0.303723	9.7485	-1.22141	0.624303	0.127078	-0.00100107	0.0138182	-0.98999	0.494141	-0.356934	
52	0.588094	-0.353938	-0.46406	-0.55993	9.43112	1.05985	3.09896	0.00559016	-0.0303112	-0.0486182	-0.834473	0.31958	-0.358398	0.626987	-0.373656	-0.518561	-0.445379	9.6261	0.238341	2.01187	-0.0116115	0.0072217	-0.0777729	-0.760254	0.283203	-0.276123	0.858538	-0.211832	-0.229975	-0.406388	6.15102	-1.77524	8.75487	0.0568337	-0.0132867	-0.0773633	-0.385498	0.421387	-0.863525	0.229586	0.0832101	-0.15601	-0.957093	-0.906852	3.31456	9.34545	-0.0204977	0.098761	-0.0565893	-0.286865	-0.0375977	-0.999023	0.604279	-0.276773	-0.377398	-0.644837	8.14153	1.57912	5.57613	0.0815561	0.0462186	-0.0582139	-0.791748	0.277832	-0.556641	0.993631	0.0124116	0.110001	0.0210699	-2.82863	-0.384523	12.8765	0.0330135	-0.0231786	0.00637938	0.689941	-0.059082	-0.80957	0.593447	-0.411209	-0.607363	-0.331416	9.64892	-0.74621	-0.650245	-0.0673349	-0.0230618	-0.0295628	-0.901123	0.425049	-0.107178	0.924275	-0.108511	-0.290277	-0.22289	6.23159	-0.359505	8.97113	0.00030031	0.0556599	-0.00251291	-0.312256	0.224365	-0.971924	-0.00995787	-0.0714195	-0.953687	-0.292029	0.314557	5.10419	-7.64372	-0.0579759	0.0656262	-0.00811116	-0.425293	-0.552246	0.868652	0.585551	-0.485822	-0.581167	-0.288706	9.21485	-2.25627	-1.31956	0.0543205	0.00351591	-0.00146575	-0.858643	0.585938	0.0109863	0.666267	-0.345893	-0.588273	-0.300635	9.76976	-0.939055	0.477549	0.171669	0.000935319	0.00940646	-0.990234	0.496338	-0.352295	
53	0.586296	-0.353801	-0.465332	-0.560845	9.76444	1.12243	3.09936	-0.0103152	-0.0440363	-0.0933057	-0.840576	0.308594	-0.356201	0.626615	-0.372442	-0.519047	-0.446352	9.73921	0.297402	2.208	0.00912697	0.0344456	-0.0769542	-0.755859	0.278809	-0.280762	0.858243	-0.210248	-0.230359	-0.407615	6.20231	-1.96283	8.52542	0.0544509	0.022884	-0.0512793	-0.385498	0.417236	-0.863525	0.229036	0.0844988	-0.153763	-0.957476	-0.795688	3.28964	9.23443	-0.0741509	0.0679587	-0.0394432	-0.287109	-0.0332031	-0.999023	0.604155	-0.275341	-0.377204	-0.645679	7.98731	1.67502	5.49187	-0.0165883	0.0520043	-0.0573233	-0.791748	0.277832	-0.559082	0.993727	0.0141314	0.108904	0.0211431	-2.77205	-0.289205	13.0609	0.0735219	-0.0275116	-0.0150454	0.696533	-0.0632324	-0.813965	0.592724	-0.411588	-0.607261	-0.332427	9.77965	-0.757905	-0.694618	-0.0278525	0.0048041	-0.0458253	-0.901123	0.425049	-0.10498	0.92478	-0.108571	-0.28909	-0.222309	6.31372	-0.666288	8.73726	0.00462218	0.0756016	0.0144941	-0.303711	0.229004	-0.979004	-0.00907158	-0.071375	-0.953601	-0.292351	0.162765	5.33539	-7.55445	0.00481206	0.0354641	-0.00966196	-0.429932	-0.554688	0.87085	0.585845	-0.485241	-0.581984	-0.287439	9.46701	-2.1106	-1.17836	0.0662531	-0.0201535	0.00824867	-0.860596	0.581543	0.0178223	0.666907	-0.34536	-0.588481	-0.299418	9.84996	-1.05454	0.557779	0.100116	0.00703132	0.0160249	-0.990234	0.496338	-0.356934	
54	0.585484	-0.352618	-0.465965	-0.561912	9.70478	1.29422	3.20654	0.0178241	0.0192132	-0.0610879	-0.84082	0.312988	-0.352051	0.626504	-0.371505	-0.519132	-0.447189	9.80886	0.289741	2.23334	0.000985551	0.0315651	-0.0532192	-0.755371	0.27002	-0.282715	0.858348	-0.208843	-0.230958	-0.407777	6.26367	-1.84203	8.64759	0.0591063	0.0071426	-0.0209847	-0.381348	0.416992	-0.865723	0.228953	0.085555	-0.153062	-0.957514	-0.937565	3.32782	9.17598	-0.0137224	0.0406795	-0.00135465	-0.278076	-0.0332031	-0.996826	0.603864	-0.275025	-0.376649	-0.646409	7.98104	1.40791	5.55307	-0.00949362	0.0240618	-0.0316861	-0.789551	0.273438	-0.559082	0.99377	0.0145716	0.108463	0.0210832	-2.8963	-0.283216	12.8092	0.0170058	-0.00262885	-0.0192239	0.690186	-0.0654297	-0.815918	0.591952	-0.411792	-0.607608	-0.332914	9.87278	-0.880498	-0.678627	-0.00928109	-0.000996305	-0.034515	-0.894531	0.423096	-0.109131	0.924972	-0.107566	-0.288801	-0.222375	6.11495	-0.439755	8.72107	0.050114	0.0147049	-0.0374082	-0.305908	0.22876	-0.974365	-0.00898945	-0.0713466	-0.95325	-0.293501	-0.162764	5.05761	-7.66277	-0.0263393	-0.00831696	-0.0217505	-0.427246	-0.559082	0.868652	0.585869	-0.484916	-0.58238	-0.287138	9.50865	-2.22959	-1.5564	0.00561707	0.0195661	0.0139163	-0.862793	0.581543	0.015625	0.666716	-0.346159	-0.588163	-0.299547	9.98492	-1.43192	0.548464	-0.0626148	0.00707987	0.0160946	-0.988037	0.498535	-0.356934	
55	0.585949	-0.351702	-0.466111	-0.561881	9.59669	1.43478	3.21531	0.0315442	0.0292672	0.0113997	-0.840576	0.306641	-0.358398	0.626887	-0.371081	-0.5189	-0.447274	9.57298	0.2569	2.1785	0.00914698	0.0347437	-0.013029	-0.753418	0.274414	-0.270996	0.858416	-0.209141	-0.230805	-0.407568	6.17098	-1.88327	8.83628	-0.0225777	0.0144458	0.0245515	-0.381104	0.412842	-0.86792	0.229051	0.0851355	-0.152355	-0.95764	-0.790223	3.28585	9.39175	-0.0311984	-0.01968	-0.00051068	-0.282471	-0.0354004	-0.994629	0.603883	-0.274811	-0.376838	-0.646373	7.90742	1.45967	5.66796	0.0108679	0.00486617	-0.013235	-0.787109	0.269043	-0.561279	0.993777	0.0151993	0.108269	0.0213303	-2.88475	-0.291754	13.0267	0.0228038	0.0114294	0.00416762	0.687744	-0.0610352	-0.80957	0.591393	-0.412105	-0.607736	-0.333288	9.68015	-0.770038	-0.735927	-0.0154992	-0.00477258	-0.0276042	-0.896729	0.422852	-0.100586	0.924705	-0.107835	-0.289296	-0.22271	6.41445	-0.54434	9.02248	-0.0389458	0.00356011	-0.0286719	-0.308105	0.233154	-0.972168	-0.00975895	-0.071515	-0.953352	-0.293105	0.366531	5.26141	-7.78326	0.0222166	-0.0279814	-0.0116339	-0.425049	-0.556885	0.875488	0.585652	-0.485882	-0.581759	-0.287207	9.37587	-2.19522	-1.264	-0.047829	0.0176358	0.0171929	-0.858398	0.581543	0.0131836	0.666276	-0.34729	-0.58748	-0.300555	9.71225	-0.803862	0.571658	-0.140242	0.00859048	0.0032729	-0.988037	0.500732	-0.361572	
56	0.586942	-0.351227	-0.465369	-0.561756	9.65097	1.24756	3.33256	0.00836126	0.0389668	0.0216525	-0.836182	0.308838	-0.358398	0.627287	-0.370732	-0.518678	-0.44726	9.73182	0.345977	2.19493	0.00675212	0.0270396	-0.00580471	-0.749268	0.276611	-0.280518	0.858607	-0.209518	-0.230066	-0.407389	6.24947	-1.87364	8.6627	-0.0406893	0.0435651	0.0389609	-0.383301	0.417236	-0.872559	0.229555	0.0834577	-0.150438	-0.957971	-0.914708	3.24003	9.21759	-0.101408	-0.0430142	0.0345789	-0.287354	-0.0288086	-1.00122	0.604191	-0.274689	-0.376903	-0.646098	7.91851	1.42921	5.6235	0.0219165	0.0132516	0.00956153	-0.789551	0.275635	-0.561279	0.99368	0.0162234	0.108812	0.022301	-2.94625	-0.103209	12.9476	0.0590303	0.0427426	0.0233027	0.692383	-0.0654297	-0.811523	0.59157	-0.41167	-0.607744	-0.333496	9.85117	-0.742197	-0.744245	0.0486742	0.0347846	-0.0364667	-0.89917	0.427246	-0.102783	0.924629	-0.107774	-0.289299	-0.22305	6.42958	-0.823	9.09105	0.000724791	0.0186014	-0.0432511	-0.310303	0.233154	-0.976807	-0.0100271	-0.0719221	-0.95329	-0.293197	0.340405	5.2705	-7.7803	-0.00427375	-0.0230583	0.00743579	-0.425293	-0.552246	0.875244	0.58532	-0.48608	-0.581564	-0.28794	9.45965	-2.33847	-1.31573	-0.0586492	0.0291702	-0.0221236	-0.85376	0.57959	0.0134277	0.662793	-0.353026	-0.585376	-0.305635	9.97382	-0.520166	0.318095	-0.436737	-0.031112	-0.0291687	-0.990479	0.505127	-0.345703	
57	0.587918	-0.350721	-0.464881	-0.561456	9.69593	1.09087	3.38389	0.0281122	0.0352497	0.0322619	-0.84082	0.310791	-0.358398	0.627957	-0.370893	-0.51843	-0.446474	9.82315	0.299622	2.34195	0.00291233	0.0185557	0.0246571	-0.753662	0.276611	-0.280518	0.859281	-0.210247	-0.228891	-0.406253	6.2329	-1.86621	8.5663	-0.0111833	0.0212394	0.0768963	-0.372559	0.412598	-0.870361	0.230497	0.0821458	-0.150656	-0.957823	-0.860207	3.19667	9.34327	0.0275724	-0.0363544	0.0467652	-0.291748	-0.0288086	-1.00122	0.605567	-0.275774	-0.376693	-0.644468	8.14499	1.59838	5.70947	-0.0240111	-0.0275483	0.0600616	-0.789551	0.275635	-0.559082	0.993546	0.0159163	0.109873	0.0232416	-2.87181	-0.207711	13.2214	-0.0501436	0.061511	0.0205284	0.690186	-0.0698242	-0.811523	0.591734	-0.411815	-0.607215	-0.33399	9.96131	-0.892188	-0.711067	-0.00704459	0.0323859	-0.00484708	-0.892578	0.425049	-0.111328	0.923895	-0.108057	-0.290037	-0.224989	6.2677	-0.501836	8.84757	-0.0648874	-0.0237716	-0.0794048	-0.310303	0.22876	-0.979004	-0.0108351	-0.0732171	-0.953248	-0.292986	0.0591227	5.20605	-7.75377	0.0114875	-0.0501811	0.0297459	-0.425049	-0.554688	0.87085	0.583941	-0.486334	-0.581432	-0.290566	9.53665	-2.09894	-1.44796	-0.122134	0.0326328	-0.0909016	-0.860596	0.579346	0.0178223	0.657061	-0.361522	-0.582563	-0.313359	9.88499	-1.46738	0.651329	-0.467587	-0.039781	-0.0497651	-1	0.513916	-0.332031	
58	0.588666	-0.350359	-0.464672	-0.561071	9.51921	1.0337	3.33497	0.0439541	0.0406952	0.0432666	-0.845215	0.310791	-0.358398	0.628356	-0.371064	-0.518084	-0.446171	9.70099	0.216759	2.23785	-0.00606849	0.0325266	0.0279334	-0.749268	0.281006	-0.283203	0.860044	-0.211138	-0.228355	-0.404474	6.01632	-1.73575	8.68628	-0.0271292	-0.00160151	0.0858852	-0.37915	0.419189	-0.865723	0.230846	0.0817671	-0.151128	-0.957698	-0.902505	3.23479	9.35434	0.0293679	-0.0266719	0.0381038	-0.289551	-0.0268555	-0.99707	0.60596	-0.276302	-0.376655	-0.643896	8.22911	1.51427	5.69862	-0.00351763	-0.0189402	0.0502135	-0.787598	0.280029	-0.559082	0.993488	0.0152455	0.110372	0.0238292	-2.82831	-0.206193	13.1093	-0.0518797	0.0562966	0.0222194	0.687988	-0.0654297	-0.811523	0.591735	-0.411889	-0.607284	-0.333772	9.69874	-0.700879	-0.719655	0.0225268	-0.000693245	-0.00541408	-0.896729	0.422852	-0.10498	0.923447	-0.108511	-0.290696	-0.22576	6.32641	-0.731076	8.96455	-0.0396584	-0.0442324	-0.075918	-0.314697	0.230957	-0.974365	-0.0123915	-0.074658	-0.953341	-0.292256	0.341369	5.17594	-7.72977	0.0451798	-0.0791594	0.014553	-0.425049	-0.554688	0.877686	0.582942	-0.487447	-0.579669	-0.294207	9.34715	-2.42426	-1.22844	-0.14402	0.0978179	-0.0060942	-0.860352	0.577148	0.0224609	0.655004	-0.364433	-0.581527	-0.316203	9.77452	-1.58828	0.77947	-0.368159	-0.024681	-0.0397185	-0.993164	0.516113	-0.327637	
59	0.589642	-0.349943	-0.464457	-0.560483	9.23781	0.972684	3.26052	0.0206284	0.0100701	0.0181289	-0.838623	0.312988	-0.360596	0.628892	-0.371012	-0.517702	-0.445903	9.42987	0.308276	2.04742	-0.00233846	0.0279183	-0.0113006	-0.751465	0.278809	-0.27832	0.860568	-0.212134	-0.226757	-0.403736	5.93812	-1.75106	8.51754	-0.034062	0.060956	0.047994	-0.372803	0.42334	-0.865967	0.230892	0.0803466	-0.150359	-0.957928	-1.014	3.10838	9.19446	-0.0700309	-0.0463529	-0.00305239	-0.291992	-0.0246582	-0.99707	0.60726	-0.275383	-0.376729	-0.64302	8.02548	1.58247	5.64529	0.0632952	0.0617676	0.0196421	-0.785156	0.275635	-0.559082	0.993403	0.0160883	0.110761	0.0249679	-2.74857	-0.166261	12.9925	0.0590368	0.0205285	0.0387343	0.69043	-0.0720215	-0.807129	0.591883	-0.411812	-0.607185	-0.333784	9.482	-0.782591	-0.696879	0.0224504	0.0332734	-0.0199951	-0.898682	0.420654	-0.100586	0.922937	-0.1094	-0.290439	-0.227737	6.51366	-0.809783	9.09101	-0.0618394	0.0615105	-0.0770682	-0.30835	0.235352	-0.965088	-0.0126914	-0.0767161	-0.953353	-0.29167	0.846143	5.12024	-7.77007	0.0231446	-0.0135036	0.0721239	-0.430176	-0.545654	0.877441	0.582376	-0.489411	-0.577819	-0.295702	9.11894	-2.56697	-1.1048	-0.0851427	0.035703	0.0379048	-0.858398	0.58374	0.0131836	0.654456	-0.365446	-0.580756	-0.317584	9.66081	-0.83843	0.553999	-0.0813762	0.0186492	-0.01053	-0.990967	0.516113	-0.327637	
60	0.589074	-0.349748	-0.464741	-0.560967	9.58306	1.05569	3.31989	-0.0118576	-0.0128575	-0.0461625	-0.845459	0.315186	-0.358643	0.628918	-0.370987	-0.517615	-0.445988	9.72366	0.240527	2.21313	-0.0131813	0.0150176	-0.0207654	-0.751465	0.278809	-0.282959	0.86117	-0.211834	-0.224856	-0.403675	5.91945	-1.72192	8.27976	-0.00339629	0.0723561	0.0140159	-0.370605	0.421143	-0.863525	0.23042	0.0791316	-0.148453	-0.95844	-1.07404	3.03951	8.95675	-0.0778733	-0.0159626	-0.0212889	-0.289795	-0.0244141	-0.999268	0.60841	-0.274161	-0.375695	-0.64306	7.92553	1.64851	5.45616	-0.0113708	0.0777661	0.00194452	-0.783447	0.284424	-0.563721	0.99333	0.0177816	0.110951	0.0258557	-2.74519	-0.156613	12.8151	0.0708664	0.0218191	0.0145806	0.69043	-0.0742188	-0.807129	0.593114	-0.410569	-0.607033	-0.333408	9.78976	-0.844784	-0.559052	0.0884938	0.0518243	-0.0130089	-0.900879	0.418701	-0.111084	0.923025	-0.109879	-0.288722	-0.229326	6.16251	-0.812933	8.66147	-0.0428806	0.0707166	-0.0599279	-0.30835	0.235352	-0.974609	-0.0119274	-0.0792811	-0.952954	-0.29232	0.142319	4.91191	-7.6688	-0.0351676	0.0089602	0.085503	-0.430176	-0.545654	0.875244	0.581658	-0.489046	-0.578758	-0.295884	9.34719	-2.11946	-1.31667	0.0322684	-0.0179924	-0.0517248	-0.864746	0.574951	0.0224609	0.654481	-0.365733	-0.580309	-0.318017	9.79822	-0.915544	0.342703	0.0458558	0.0302476	-0.00680348	-0.993164	0.513916	-0.325195	
61	0.588417	-0.349188	-0.465484	-0.56139	9.85769	1.11178	3.28744	0.0297721	-0.00781197	-0.041427	-0.840576	0.306641	-0.358398	0.629331	-0.370761	-0.517282	-0.445979	9.88383	0.164603	2.47304	-0.00159207	0.0387784	-0.000606736	-0.751465	0.278809	-0.280762	0.861167	-0.211172	-0.22507	-0.403907	5.98051	-1.86017	8.5207	0.0301305	-0.0172243	-0.0145427	-0.370605	0.421143	-0.861328	0.230317	0.0791698	-0.148268	-0.95849	-0.871229	3.23715	9.11069	0.034225	0.0148842	-0.00302712	-0.294189	-0.0246582	-0.999268	0.608197	-0.274816	-0.374676	-0.643576	8.01158	1.59851	5.5917	-0.062629	0.000106192	-0.0195614	-0.785645	0.286621	-0.561279	0.993325	0.018065	0.111009	0.02563	-2.75236	-0.200633	13.0868	-0.00895505	0.0147623	-0.0347968	0.690674	-0.076416	-0.809082	0.594573	-0.409583	-0.606796	-0.332452	10.0311	-0.876099	-0.706736	0.0477549	0.0578263	0.00704896	-0.896729	0.425049	-0.109131	0.922929	-0.110403	-0.28842	-0.229841	6.35803	-0.771615	8.57333	-0.0142483	0.0139707	-0.0201473	-0.310547	0.235352	-0.979248	-0.012071	-0.0802453	-0.953097	-0.291583	-0.130416	5.17928	-7.76926	0.0535445	-0.0243653	-0.00828718	-0.423096	-0.547852	0.873047	0.580597	-0.490542	-0.578085	-0.296804	9.80658	-2.15254	-1.25017	-0.0848337	0.00772665	0.0270363	-0.860352	0.577148	0.0249023	0.652578	-0.368727	-0.578916	-0.320997	9.99786	-1.38619	0.651256	-0.192408	0.000255565	-0.0210048	-0.998047	0.522705	-0.320801	
62	0.589726	-0.347851	-0.465194	-0.561086	9.59851	1.35255	3.3184	0.0453268	0.0682666	0.0379864	-0.840332	0.304443	-0.364746	0.629647	-0.371395	-0.516595	-0.445803	9.62229	0.101277	2.24487	-0.0529128	0.0155287	0.0144141	-0.749268	0.276611	-0.282959	0.860353	-0.212468	-0.226064	-0.404407	6.0369	-1.88463	8.95034	-0.0651749	-0.0453887	-0.028669	-0.372803	0.42334	-0.86377	0.229482	0.0795834	-0.149637	-0.958443	-0.733275	3.09154	9.33749	0.0392115	-0.0128248	-0.0329142	-0.294189	-0.0246582	-0.994873	0.607442	-0.275046	-0.375073	-0.64396	8.02017	1.2982	5.69594	0.0178546	-0.0119753	-0.0462917	-0.783203	0.282227	-0.565918	0.993349	0.0171717	0.110986	0.0254043	-2.92846	-0.245903	12.8465	-0.0137795	0.00884031	-0.0249278	0.696777	-0.0720215	-0.807129	0.595852	-0.408755	-0.606407	-0.331891	9.62609	-1.07829	-0.655845	0.0902618	0.0438406	-0.00127646	-0.896729	0.423096	-0.113281	0.922601	-0.109887	-0.28949	-0.230062	6.50932	-0.696574	8.93355	0.0359463	-0.0288681	-0.0409524	-0.310547	0.235352	-0.972168	-0.0127989	-0.0802722	-0.95322	-0.291144	0.295778	4.98894	-7.86554	0.0292773	-0.0188873	-0.0232474	-0.43042	-0.538818	0.879639	0.580031	-0.491525	-0.576983	-0.298425	9.33644	-2.46894	-1.49619	-0.0837521	0.0435313	0.0067435	-0.863037	0.58374	0.0268555	0.650201	-0.372129	-0.577635	-0.324185	9.81511	-1.46273	0.50125	-0.260119	-0.0181896	-0.0120505	-0.997803	0.516113	-0.316162	
63	0.591183	-0.347763	-0.463802	-0.560759	9.32693	1.2007	3.36527	-0.0181586	0.0477772	0.0542323	-0.838623	0.31543	-0.367188	0.629529	-0.372122	-0.516223	-0.445794	9.53478	0.0491549	2.08557	-0.0626741	0.0012451	0.018673	-0.751709	0.283203	-0.280762	0.85993	-0.213741	-0.225602	-0.404894	6.04777	-1.98876	8.97754	-0.115426	-0.00408232	-0.0150661	-0.376953	0.42334	-0.859131	0.228225	0.0774507	-0.149689	-0.95891	-0.625454	3.02652	9.39867	-0.019339	-0.103791	-0.0365297	-0.298584	-0.0246582	-0.994873	0.607348	-0.27456	-0.375694	-0.643894	7.99938	1.34861	5.66757	0.0535483	-0.00270857	-0.0450027	-0.785156	0.275635	-0.563477	0.993373	0.0172373	0.110753	0.0254139	-2.98567	-0.119876	12.8447	0.0101315	-0.00572567	-0.0159769	0.692627	-0.0742188	-0.811279	0.596248	-0.408415	-0.606562	-0.331313	9.56596	-0.823964	-0.694315	0.0759055	0.0143515	-7.14394e-05	-0.894531	0.423096	-0.117676	0.922489	-0.11022	-0.289529	-0.230303	6.32064	-0.499931	8.89128	-0.0261569	0.0069411	-0.0280003	-0.310547	0.235352	-0.976807	-0.0130679	-0.0804367	-0.953313	-0.290781	0.486121	5.10134	-7.80474	0.0330357	-0.0212268	-0.012469	-0.427979	-0.543457	0.881836	0.580226	-0.491462	-0.576762	-0.298577	9.31131	-2.39056	-1.26448	0.000754449	0.0383694	0.00582422	-0.862793	0.579346	0.0292969	0.649792	-0.372346	-0.577637	-0.324752	9.63494	-0.662693	0.537928	-0.0909234	0.00049882	-0.00780093	-0.99585	0.522705	-0.313965	
64	0.591668	-0.348766	-0.461937	-0.561164	9.46668	0.964692	3.44474	-0.0775255	0.0207096	0.042192	-0.836426	0.313232	-0.36499	0.629242	-0.373088	-0.516479	-0.445095	9.54483	0.227583	2.11528	-0.00471662	-0.0277752	0.00161768	-0.749512	0.283203	-0.285645	0.859667	-0.215565	-0.223533	-0.405631	6.09899	-2.10744	8.48135	-0.0884893	0.0706525	0.0129246	-0.37085	0.429932	-0.866211	0.227538	0.0746435	-0.149071	-0.959392	-0.6594	3.12327	9.24398	-0.0574294	-0.0928074	-0.00101723	-0.302979	-0.0246582	-0.99707	0.607041	-0.274701	-0.375512	-0.644228	7.95389	1.41785	5.48581	-0.0472604	-0.0114543	0.00939591	-0.7854	0.277832	-0.563477	0.993359	0.0174993	0.110925	0.025061	-3.05294	-0.173383	12.9302	0.0165213	0.0504768	-0.0443563	0.692383	-0.0698242	-0.809326	0.598065	-0.407109	-0.605324	-0.331909	9.93022	-0.772602	-0.416613	-0.00832683	0.147642	-0.024917	-0.888184	0.423096	-0.126221	0.922393	-0.111393	-0.289165	-0.230577	6.28989	-0.79512	8.59476	-0.0437939	0.0221168	-0.0142971	-0.310547	0.239746	-0.972168	-0.0129269	-0.0809843	-0.953252	-0.290834	0.1154	4.95248	-7.65195	0.00475588	0.0102971	0.00890482	-0.42334	-0.54541	0.875244	0.580379	-0.490407	-0.57732	-0.298937	9.36865	-2.15506	-1.35311	0.0257006	0.0231269	-0.0429015	-0.863037	0.58374	0.0224609	0.648776	-0.37377	-0.577041	-0.326203	9.97891	-0.925599	0.391176	-0.0615049	0.00804877	-0.018249	-1.0022	0.518311	-0.311768	
65	0.591726	-0.349181	-0.461155	-0.561488	9.60845	0.909131	3.42803	-0.00875097	0.0202184	0.0105771	-0.834473	0.319824	-0.367188	0.629175	-0.374374	-0.516832	-0.443697	9.67923	0.0495291	2.32273	-0.0058597	-0.0290266	0.0410314	-0.751953	0.289795	-0.278809	0.859939	-0.216487	-0.221513	-0.405671	6.0462	-2.01906	8.3057	-0.0560621	0.0384624	0.0307541	-0.368652	0.431885	-0.857178	0.227543	0.073522	-0.150223	-0.959298	-0.76311	3.26965	9.06663	0.0811648	-0.0360172	0.00665586	-0.307617	-0.0224609	-0.990479	0.606839	-0.276996	-0.374861	-0.643816	7.99805	1.37086	5.64379	-0.0682994	-0.0516639	0.0320538	-0.785645	0.284424	-0.559082	0.993199	0.0163964	0.112682	0.0242873	-2.93827	-0.213926	12.9667	-0.0540182	0.0919097	-0.0515554	0.700928	-0.0654297	-0.805176	0.600919	-0.405811	-0.602669	-0.333173	9.7312	-1.08736	-0.781313	0.0530473	0.137722	0.00494306	-0.896729	0.423096	-0.130371	0.922028	-0.111414	-0.290162	-0.230775	6.20549	-0.624346	8.69781	0.0314712	-0.0503479	-0.0339583	-0.314941	0.237549	-0.967529	-0.0138123	-0.0810531	-0.953233	-0.290836	-0.0491295	5.13623	-7.61406	-0.00626874	-0.0389922	-0.0380192	-0.425537	-0.543213	0.877441	0.580145	-0.490963	-0.576684	-0.299702	9.59448	-1.94417	-1.34876	-0.0656297	0.0134052	0.0151557	-0.86499	0.579346	0.0246582	0.646821	-0.376483	-0.575864	-0.329034	9.80843	-1.05691	0.50639	-0.190355	-0.00749071	-0.0262009	-0.993652	0.524902	-0.302734	
66	0.592315	-0.349292	-0.460822	-0.561072	9.51184	1.03351	3.42336	0.0126973	0.0183763	0.0581849	-0.832031	0.31543	-0.373535	0.629183	-0.375161	-0.516613	-0.443276	9.6919	-0.005428	2.24451	-0.039098	-0.0155618	0.0413646	-0.753906	0.287598	-0.281006	0.859821	-0.217616	-0.221546	-0.405301	5.86924	-1.87832	8.55011	-0.0392548	-0.0182729	0.0150648	-0.366455	0.431885	-0.859375	0.227287	0.0732244	-0.151118	-0.959241	-0.677838	3.13146	9.21622	0.0665972	-0.0356758	-0.00839446	-0.305176	-0.0290527	-0.996826	0.606907	-0.277711	-0.374866	-0.643441	8.1525	1.30238	5.66715	-0.0233457	-0.036199	0.0280643	-0.785645	0.284424	-0.556641	0.993124	0.0157594	0.113467	0.0241109	-2.97849	-0.3171	12.8525	-0.041846	0.0770871	-0.0374442	0.69873	-0.067627	-0.805176	0.600992	-0.405685	-0.602977	-0.332637	9.62095	-1.01764	-0.584009	0.0566554	-0.0131196	-0.00475693	-0.894775	0.425293	-0.126221	0.921357	-0.111555	-0.29161	-0.23156	6.59132	-0.668787	9.00535	-0.00387271	-0.0283269	-0.0670277	-0.317139	0.239746	-0.969971	-0.0154552	-0.0810162	-0.953183	-0.29093	0.284511	5.16154	-7.79024	-0.00662842	-0.0550434	-0.0284129	-0.42334	-0.54541	0.877441	0.579639	-0.492168	-0.575306	-0.301349	9.34211	-2.29213	-1.35279	-0.108248	0.0499367	0.0193682	-0.858398	0.581543	0.0270996	0.646419	-0.376951	-0.575606	-0.329738	9.77443	-1.57726	0.54895	-0.0724062	0.0109621	-0.0225458	-0.995605	0.518311	-0.300293	
67	0.59347	-0.350901	-0.459708	-0.55976	9.32958	0.92649	3.35277	-0.0421625	-0.0174132	0.102287	-0.83252	0.324219	-0.367188	0.629122	-0.376159	-0.516258	-0.442931	9.45933	0.000164583	1.98792	-0.0249164	-0.00356268	0.00106741	-0.749756	0.289795	-0.273926	0.859407	-0.219281	-0.220263	-0.405981	5.94728	-2.1854	8.53818	-0.0790165	0.044887	-0.00947762	-0.366455	0.438477	-0.859619	0.226422	0.0717299	-0.151191	-0.959546	-0.584614	3.06213	9.21601	-0.0137913	-0.0665747	-0.0313291	-0.314209	-0.0227051	-0.992676	0.606668	-0.278148	-0.375273	-0.64324	8.12134	1.56968	5.64674	-0.0175854	-0.012857	-0.0293568	-0.790039	0.286621	-0.554443	0.993075	0.015583	0.113991	0.0237686	-2.92552	-0.137036	12.9591	-0.00253801	0.02209	-0.0298553	0.700928	-0.067627	-0.807373	0.599465	-0.407115	-0.603917	-0.331938	9.57019	-0.594514	-0.59477	-0.0498636	-0.0584245	-0.00552915	-0.896729	0.423096	-0.124023	0.920903	-0.111952	-0.292066	-0.232598	6.51225	-0.74782	9.06836	-0.0271715	0.0133053	-0.0405215	-0.319092	0.233154	-0.969727	-0.0157603	-0.0817797	-0.952905	-0.29161	0.76975	5.11049	-7.83429	-0.0472499	0.0118746	0.0169367	-0.418701	-0.541016	0.881836	0.579517	-0.494689	-0.573205	-0.30146	9.12702	-2.48942	-1.06404	-0.0724544	0.00569399	0.119251	-0.85376	0.57959	0.0224609	0.648586	-0.37384	-0.576521	-0.32742	9.61744	-1.00111	0.433064	0.195116	0.0380929	-1.75733e-05	-0.993652	0.524902	-0.313965	
68	0.592456	-0.35327	-0.458984	-0.559938	9.62589	0.68811	3.39486	-0.0959194	-0.0695962	-0.00778359	-0.836914	0.323975	-0.36499	0.628964	-0.376074	-0.516566	-0.442868	9.68638	0.141632	2.02427	0.00407781	-0.00719357	-0.0341444	-0.751709	0.287598	-0.278564	0.859736	-0.218896	-0.218983	-0.406184	6.01516	-2.09088	8.19097	0.0205618	0.0484807	0.017635	-0.360107	0.433838	-0.857178	0.226251	0.070402	-0.151192	-0.959685	-0.642616	3.2047	9.07175	-0.00809469	-0.03266	0.0158229	-0.314453	-0.0205078	-0.992676	0.606416	-0.278495	-0.374965	-0.643507	8.13741	1.47177	5.6196	-0.00884747	0.00562258	-0.012741	-0.791992	0.281982	-0.549805	0.993128	0.0154264	0.113678	0.0231604	-2.91813	-0.214061	13.0637	0.013177	-0.00069433	-0.0480263	0.700928	-0.0654297	-0.802979	0.598599	-0.407588	-0.603997	-0.332774	9.90613	-0.82921	-0.585367	-0.00666627	0.0100861	-0.047039	-0.896729	0.420898	-0.121826	0.921066	-0.113143	-0.290648	-0.233152	6.30929	-0.974748	8.72579	-0.0524305	0.0561061	-0.0134084	-0.317383	0.243896	-0.972412	-0.014987	-0.0825741	-0.952738	-0.291973	0.0789355	5.21381	-7.69933	-0.0076548	0.0274084	0.0162515	-0.42334	-0.545654	0.881836	0.579142	-0.494457	-0.574005	-0.30104	9.61571	-2.15546	-1.25724	0.0364346	-0.0349596	-0.0255369	-0.855957	0.579346	0.0270996	0.649313	-0.373136	-0.576612	-0.32662	9.99842	-1.2643	0.389075	0.105515	0.020207	0.00345962	-0.993408	0.522705	-0.316162	
69	0.590641	-0.353881	-0.459496	-0.561048	9.8687	0.788516	3.3556	-0.0247156	-0.0289235	-0.0652443	-0.830078	0.317627	-0.358398	0.628645	-0.375961	-0.517121	-0.442769	9.87232	-0.00514126	2.34299	-0.0231953	-0.000665294	-0.0115643	-0.75415	0.291992	-0.27417	0.859571	-0.219082	-0.22013	-0.405813	5.99785	-1.91494	8.56308	0.000362296	-0.067331	-0.00650886	-0.366699	0.440674	-0.857422	0.226465	0.0711014	-0.15294	-0.959306	-0.785666	3.3155	9.16687	0.103949	0.030197	0.00529713	-0.311768	-0.0290527	-0.992432	0.605873	-0.279117	-0.374867	-0.643806	8.14423	1.50178	5.7546	-0.0405325	-0.0148467	-0.0326766	-0.790039	0.284424	-0.561279	0.993212	0.0144499	0.113146	0.0227902	-2.89586	-0.323512	13.0406	-0.0635758	-0.013281	-0.0268306	0.694336	-0.0632324	-0.807373	0.598238	-0.407332	-0.60505	-0.331822	10.0742	-1.10216	-0.637341	0.0629446	-0.0265451	-0.00784934	-0.894531	0.423096	-0.121826	0.921113	-0.112234	-0.291304	-0.232587	6.41461	-0.555636	8.57141	0.0383819	-0.00817485	-0.00465828	-0.312988	0.241699	-0.962891	-0.0151904	-0.0820527	-0.952672	-0.292323	-0.0846179	5.01388	-7.73633	0.00963787	-0.00545104	-0.0574009	-0.420898	-0.547852	0.886475	0.579143	-0.494002	-0.574519	-0.300804	9.54545	-2.06577	-1.34962	0.0156802	0.0167698	-0.013395	-0.86084	0.588135	0.0200195	0.649293	-0.372994	-0.576776	-0.326534	9.98219	-1.12481	0.606571	-0.0662275	-0.00421375	-0.00603611	-0.99585	0.522705	-0.318604	
70	0.590792	-0.353835	-0.459809	-0.560662	9.48422	0.947268	3.24319	0.0249418	-0.0122208	0.0277299	-0.836914	0.323975	-0.358643	0.628746	-0.376012	-0.517	-0.442723	9.54882	-0.0438184	2.07114	-0.00816978	0.0262417	-0.0167508	-0.745361	0.291992	-0.276367	0.858904	-0.220217	-0.220996	-0.40614	6.01837	-2.13969	8.77803	-0.0418827	-0.0271733	-0.0190182	-0.368896	0.442871	-0.859619	0.226022	0.0715235	-0.153815	-0.959239	-0.566376	3.20374	9.4429	0.00724727	0.000838347	-0.0199603	-0.313965	-0.0314941	-0.988037	0.605366	-0.278277	-0.375935	-0.644025	8.08339	1.3293	5.70805	0.0706768	0.00903275	-0.0655702	-0.787842	0.284424	-0.554443	0.993353	0.0137769	0.111926	0.0230859	-2.92565	-0.222891	12.98	0.00232833	-0.0383985	-0.00189482	0.696533	-0.0654297	-0.813721	0.597877	-0.408117	-0.604756	-0.332045	9.53958	-0.833214	-0.60735	-0.0441382	0.0137079	-0.0047393	-0.894531	0.423096	-0.119873	0.92099	-0.112481	-0.292334	-0.231662	6.54774	-0.90171	8.97268	0.0285765	-0.0406997	0.0276118	-0.321533	0.243896	-0.967529	-0.0155241	-0.080651	-0.952912	-0.291914	0.491054	5.0817	-7.83206	0.0234965	0.0174871	-0.0780136	-0.425781	-0.541016	0.879639	0.579697	-0.494543	-0.573608	-0.300585	9.26875	-2.39548	-1.21609	-0.00465174	0.0311186	0.0525746	-0.86084	0.58374	0.0224609	0.650267	-0.371386	-0.577478	-0.325183	9.73398	-1.09916	0.629655	0.0964212	0.0122959	0.00223769	-0.995605	0.518311	-0.320801	
71	0.591081	-0.354034	-0.459856	-0.560193	9.60828	0.969	3.29196	-0.000635385	-0.00567158	0.0101418	-0.834717	0.321777	-0.360596	0.628899	-0.375497	-0.517218	-0.442689	9.67339	0.140471	2.17358	0.0158135	0.0152598	-0.030638	-0.747803	0.294189	-0.278809	0.858808	-0.220168	-0.220481	-0.406648	6.14875	-2.18784	8.48539	0.00853063	0.0381138	-0.00672289	-0.368652	0.440674	-0.850342	0.225738	0.0708285	-0.153226	-0.959452	-0.566258	3.11424	9.28921	-0.0268583	-0.0194883	0.00112519	-0.314209	-0.0249023	-0.990479	0.605679	-0.276332	-0.376765	-0.644082	7.99441	1.41562	5.59692	0.0537718	0.0473652	-0.0372425	-0.787598	0.280029	-0.559082	0.993456	0.014374	0.110802	0.0237058	-3.07556	-0.0597559	12.9919	0.0211846	-0.023803	0.00978086	0.69458	-0.067627	-0.811523	0.597822	-0.407648	-0.605058	-0.33217	9.79736	-0.917148	-0.764923	0.0556688	0.0336271	-0.0466456	-0.892334	0.418701	-0.117432	0.921428	-0.112245	-0.291849	-0.230644	6.45403	-0.692592	8.88507	0.0128071	0.0513902	0.0238271	-0.317139	0.237549	-0.969971	-0.0147534	-0.0796547	-0.953033	-0.29183	0.283628	5.14114	-7.72461	-0.00186872	0.0530263	-0.0373846	-0.418457	-0.547852	0.879639	0.579916	-0.493727	-0.574694	-0.299429	9.3765	-2.39842	-1.286	0.0773479	-0.0404874	-0.00899948	-0.860596	0.579346	0.0224609	0.651975	-0.368956	-0.578406	-0.322874	9.76958	-1.60549	0.585217	0.199004	0.0257627	0.0155008	-0.997803	0.518311	-0.316162	
72	0.590753	-0.353889	-0.459777	-0.560695	9.6627	0.819229	3.31717	-0.00497661	0.0044208	-0.0317203	-0.837158	0.326172	-0.358643	0.629228	-0.374968	-0.517497	-0.442345	9.77384	0.0854577	2.16007	0.0244646	0.0200622	-0.0140386	-0.751953	0.289795	-0.276367	0.859056	-0.219678	-0.220316	-0.406478	6.09996	-2.1704	8.35878	0.0392126	0.0334008	0.0154362	-0.366455	0.431885	-0.854736	0.226672	0.0708449	-0.153238	-0.959228	-0.555857	3.26915	9.25318	0.0107676	0.0247389	0.0527877	-0.313965	-0.0292969	-0.990234	0.60584	-0.276473	-0.37596	-0.644341	7.96983	1.41299	5.5576	-0.0517247	0.0174292	0.00518011	-0.796387	0.282227	-0.565918	0.99347	0.0142652	0.110611	0.0240429	-3.00173	-0.248345	12.9504	-0.00542183	0.0170073	-0.0076747	0.692383	-0.067627	-0.805176	0.598491	-0.406538	-0.60545	-0.331609	9.87993	-0.914602	-0.608234	0.0649842	0.00740696	-0.011311	-0.900879	0.416504	-0.130371	0.921954	-0.111828	-0.291652	-0.228987	6.36302	-0.84259	8.65004	0.0449456	0.0131368	0.0550018	-0.312744	0.237549	-0.969971	-0.0143101	-0.0789981	-0.953012	-0.292102	0.0339719	5.0842	-7.72206	-0.0137988	0.0571611	-0.0569469	-0.420898	-0.543213	0.875244	0.580387	-0.493168	-0.57519	-0.298484	9.51519	-2.05325	-1.21746	0.10127	-0.0140564	0.013001	-0.858398	0.579346	0.0202637	0.653194	-0.367086	-0.579363	-0.320817	9.95439	-0.7553	0.473662	0.00817669	-0.00684998	0.010927	-0.990967	0.513916	-0.318359	
73	0.591078	-0.352787	-0.460531	-0.560428	9.6629	0.966634	3.30032	0.0722439	0.00843065	-0.00506449	-0.83252	0.321777	-0.362793	0.629701	-0.374572	-0.517596	-0.44189	9.81877	0.0316553	2.20634	0.0472737	0.0285279	0.00126218	-0.751709	0.2854	-0.276123	0.859713	-0.21843	-0.220807	-0.405495	6.11013	-2.14789	8.49086	0.0728549	-0.00607318	0.03302	-0.37085	0.431885	-0.859375	0.227384	0.0712281	-0.153699	-0.958958	-0.563766	3.38701	9.23441	0.0425885	0.0374287	0.0589646	-0.312012	-0.0246582	-0.990479	0.606072	-0.276934	-0.375534	-0.644172	8.02144	1.3017	5.55802	-0.0359736	0.00712871	0.0286198	-0.787842	0.286621	-0.561279	0.993444	0.0138329	0.110839	0.0243348	-2.9277	-0.360375	13.0276	-0.03114	0.0329484	0.00122567	0.687988	-0.0654297	-0.813721	0.598933	-0.406204	-0.605446	-0.331229	9.83757	-0.90645	-0.697495	0.0617133	0.0296991	-0.00188031	-0.894287	0.418701	-0.128174	0.922163	-0.11152	-0.291829	-0.228068	6.41681	-0.838378	8.7536	0.0534349	0.00539894	0.0472075	-0.318848	0.230957	-0.969727	-0.0138374	-0.0769896	-0.953283	-0.291777	0.0865688	5.08716	-7.74552	0.0360108	0.0424265	-0.0996788	-0.420654	-0.550049	0.875244	0.580708	-0.492081	-0.576176	-0.297752	9.44584	-2.15297	-1.37401	0.05621	-0.00529324	-0.029545	-0.858398	0.579346	0.0224609	0.653176	-0.366699	-0.579854	-0.32041	9.92506	-0.838334	0.437342	0.0318562	-0.00577398	-0.0170711	-0.990723	0.511719	-0.325195	
74	0.591737	-0.352192	-0.460784	-0.559898	9.6529	1.06553	3.31749	0.0783452	0.0213226	0.0243768	-0.830078	0.317627	-0.360596	0.630845	-0.373874	-0.517633	-0.440805	9.69318	0.054159	2.11709	0.0422767	0.028229	0.0160283	-0.749756	0.291748	-0.283447	0.860322	-0.217864	-0.221477	-0.40414	6.11161	-2.11499	8.63055	0.0330961	-0.0100449	0.0517458	-0.368652	0.438477	-0.859619	0.228406	0.0720252	-0.155089	-0.958431	-0.55846	3.37837	9.21116	0.053857	0.0258423	0.0435548	-0.311768	-0.0290527	-0.992432	0.607394	-0.276614	-0.375962	-0.642814	8.08373	1.34202	5.70468	0.0700988	0.013759	0.0440735	-0.783203	0.282227	-0.559082	0.993353	0.0122465	0.111454	0.0260251	-3.02387	-0.393278	12.8124	-0.0582979	0.0406222	0.0558141	0.687988	-0.0632324	-0.80957	0.599105	-0.405591	-0.606341	-0.33003	9.78	-0.962471	-0.542911	0.0884264	-0.035176	-0.0130518	-0.892334	0.420898	-0.126221	0.92242	-0.110916	-0.292523	-0.226426	6.37073	-0.493812	8.77536	0.0372039	-0.00384949	0.0378679	-0.316895	0.230957	-0.974365	-0.0137678	-0.0750862	-0.95347	-0.291662	0.0163193	5.11885	-7.78186	0.0114072	0.0226151	-0.0853593	-0.420898	-0.54541	0.877441	0.581042	-0.490767	-0.577279	-0.297132	9.50908	-2.28499	-1.37789	0.067597	0.001722	-0.0287658	-0.862793	0.577148	0.0202637	0.652941	-0.366964	-0.579781	-0.320718	9.80624	-1.28298	0.642411	-0.0347919	0.0018883	-0.0121748	-0.997559	0.513916	-0.320801	
75	0.593167	-0.351755	-0.460903	-0.55856	9.41889	0.959747	3.29613	0.0483816	0.00487425	0.0543271	-0.832275	0.319824	-0.367188	0.631909	-0.37315	-0.517892	-0.439588	9.59928	0.035476	2.06515	0.0664881	0.0251827	0.00846953	-0.753906	0.287598	-0.281006	0.861124	-0.217948	-0.22087	-0.402717	6.03508	-2.19885	8.53827	0.0134505	0.0339066	0.0743923	-0.35791	0.436035	-0.861816	0.229714	0.0710237	-0.153792	-0.958402	-0.499976	3.31349	9.27786	-0.0844055	-0.0215576	0.0547061	-0.316406	-0.0249023	-0.986084	0.608872	-0.275851	-0.376356	-0.641511	8.05364	1.42093	5.58356	0.0667545	0.0326168	0.0327912	-0.789795	0.282227	-0.570557	0.993257	0.0133266	0.111654	0.0282119	-2.89454	-0.301774	13.0301	0.051424	0.0208191	0.0826787	0.696777	-0.0698242	-0.809326	0.599427	-0.404572	-0.607481	-0.328596	9.5876	-0.760392	-0.758598	0.0790394	-0.0257084	-0.0236963	-0.894775	0.425293	-0.124023	0.922498	-0.111194	-0.293179	-0.225121	6.60135	-0.88666	8.86204	0.0132716	-0.000873906	0.0333341	-0.325684	0.237305	-0.967529	-0.0134474	-0.0735059	-0.953605	-0.29164	0.526015	5.1764	-7.68908	-0.00870093	0.0524888	-0.067833	-0.418213	-0.552246	0.879883	0.581856	-0.490472	-0.577115	-0.296344	9.23214	-2.34748	-1.0821	0.0338811	0.0137104	0.0273522	-0.858398	0.581543	0.0246582	0.654221	-0.364837	-0.580754	-0.318768	9.61481	-0.962778	0.642091	0.157475	0.00953712	0.00465807	-0.999756	0.509521	-0.320557	
76	0.593876	-0.351583	-0.461084	-0.557765	9.60162	0.857263	3.31061	0.0295979	-0.00346581	0.0187418	-0.834717	0.323975	-0.367188	0.63301	-0.37194	-0.518525	-0.438281	9.74676	0.154645	2.08539	0.0754432	0.0162394	-0.00195086	-0.747559	0.289551	-0.288086	0.862214	-0.217653	-0.219733	-0.401163	6.04529	-2.01337	8.36553	0.0189019	0.044326	0.0792407	-0.35791	0.438232	-0.85498	0.231066	0.0703616	-0.152452	-0.95834	-0.713605	3.22665	9.09198	-0.0491312	0.0102351	0.0582557	-0.318848	-0.0183105	-0.992676	0.610912	-0.274451	-0.376705	-0.639966	8.06728	1.49783	5.4712	0.08917	0.0481768	0.0598468	-0.790039	0.286621	-0.568115	0.993112	0.0137288	0.112202	0.0308453	-2.95016	-0.274595	12.9149	-0.00191655	0.0429509	0.086853	0.694824	-0.0742188	-0.811279	0.599902	-0.403251	-0.608401	-0.32765	9.80055	-0.83025	-0.688027	0.0877308	0.0236965	-0.0408094	-0.894531	0.420898	-0.124023	0.923343	-0.109779	-0.292038	-0.22383	6.15971	-0.548421	8.84518	0.0627324	0.070204	0.0215673	-0.314697	0.233154	-0.969727	-0.0125415	-0.0724634	-0.953655	-0.291778	0.00728032	5.14712	-7.68508	-0.0133211	0.0498876	-0.0404795	-0.420654	-0.550049	0.875244	0.582008	-0.489235	-0.578605	-0.295181	9.45874	-2.17838	-1.44165	0.0877962	-0.047371	-0.0340225	-0.858398	0.581543	0.0178223	0.655199	-0.363338	-0.581486	-0.317136	9.82403	-0.882479	0.260194	0.120401	0.0100212	-0.00129826	-0.99292	0.509521	-0.334229	
77	0.594245	-0.350985	-0.462019	-0.556975	9.69299	0.882151	3.26624	0.0682617	-0.0145027	-0.00201207	-0.827881	0.317627	-0.366943	0.6339	-0.371401	-0.518627	-0.437331	9.71612	0.0843206	2.27563	0.0295876	0.0199177	0.0147003	-0.749756	0.291748	-0.290527	0.863156	-0.216977	-0.21988	-0.399419	5.8741	-2.02796	8.49062	0.0632409	-0.0144639	0.0656129	-0.35791	0.429688	-0.859375	0.232846	0.0703159	-0.151576	-0.958052	-0.682585	3.23157	9.13249	-0.0263158	0.0316534	0.0686911	-0.312256	-0.0183105	-0.990479	0.612415	-0.274234	-0.376683	-0.638634	8.11364	1.60581	5.54437	0.0183951	0.013469	0.0443872	-0.783447	0.284424	-0.565918	0.992972	0.013983	0.112837	0.0328439	-2.83614	-0.316133	13.0244	0.00279051	0.0372261	0.058858	0.690674	-0.0761719	-0.802734	0.600387	-0.402304	-0.608932	-0.32694	9.82764	-0.943593	-0.656829	0.0608905	0.0224333	-0.0196537	-0.896484	0.418701	-0.128174	0.923469	-0.109453	-0.292709	-0.222588	6.44389	-0.596063	8.59004	0.0236393	-0.00960316	0.0323454	-0.314697	0.230957	-0.965088	-0.0125233	-0.0711999	-0.953881	-0.291351	0.0186951	5.18349	-7.64568	0.0391248	0.015642	-0.0795489	-0.420654	-0.552246	0.873047	0.582255	-0.488099	-0.579685	-0.294456	9.54504	-2.14741	-1.20701	0.0510532	0.0126474	-0.0110114	-0.860352	0.574951	0.0134277	0.655398	-0.362784	-0.582022	-0.316373	9.84168	-1.34811	0.770328	0.0322288	-0.0102543	-0.000953389	-0.995361	0.511719	-0.334229	
78	0.595506	-0.350167	-0.462231	-0.555966	9.57281	1.05457	3.31305	0.0487408	0.027534	0.0468909	-0.828125	0.322021	-0.369141	0.63454	-0.370751	-0.518994	-0.436518	9.65745	0.0636844	2.04963	0.0471033	0.0175542	-0.0203087	-0.745361	0.289795	-0.285889	0.863518	-0.21707	-0.220277	-0.398365	5.88238	-1.91929	8.61429	-0.010871	-0.0105353	0.0287537	-0.366455	0.42749	-0.86377	0.233659	0.0706764	-0.151088	-0.957904	-0.704281	3.06651	9.25233	-0.0232949	0.0263392	0.0221901	-0.312012	-0.0227051	-0.990479	0.613413	-0.273846	-0.377001	-0.637654	8.11169	1.41574	5.54451	0.067483	0.0127101	0.0202574	-0.783447	0.286621	-0.574951	0.992871	0.0139208	0.113207	0.0345949	-2.90535	-0.274976	12.8719	0.000762284	0.0243797	0.0471132	0.697266	-0.0805664	-0.809082	0.600599	-0.401942	-0.609256	-0.326389	9.60948	-0.742923	-0.69901	0.0517401	0.00378461	-0.0217164	-0.896484	0.416504	-0.123779	0.92362	-0.108609	-0.293248	-0.221667	6.35902	-0.758455	8.96786	0.0751825	-0.0055263	-1.64506e-05	-0.318848	0.226562	-0.974365	-0.0125794	-0.069894	-0.953888	-0.291641	0.318393	5.00984	-7.78926	-0.0125381	0.0219219	-0.0592322	-0.42041	-0.554688	0.875488	0.582511	-0.488906	-0.579009	-0.293938	9.31444	-2.24719	-1.42263	-0.0129283	0.000431728	0.0379468	-0.860596	0.581543	0.0178223	0.656023	-0.361726	-0.582541	-0.315331	9.80402	-0.750116	0.392925	0.0491419	0.00586431	-0.00255231	-0.995117	0.507324	-0.332031	
79	0.595925	-0.350298	-0.46192	-0.555693	9.51206	0.944241	3.28324	-0.0153503	0.000470949	0.00687085	-0.830322	0.326416	-0.369385	0.634919	-0.369971	-0.519266	-0.436305	9.63979	0.158458	2.12118	0.0194553	0.0255358	-0.0280253	-0.747559	0.287598	-0.283447	0.86372	-0.21697	-0.220243	-0.398002	5.85913	-2.14483	8.52584	0.0392287	0.00857485	0.0189416	-0.360107	0.436035	-0.859375	0.234245	0.0707264	-0.150175	-0.957901	-0.677079	3.08239	9.19023	-0.0248407	0.0189316	0.0171231	-0.307617	-0.0224609	-0.990479	0.614082	-0.273016	-0.377509	-0.637066	8.15732	1.66787	5.5304	0.02583	0.0213415	-0.0113683	-0.7854	0.282227	-0.568115	0.992871	0.0143051	0.112871	0.0355411	-2.81832	-0.167728	13.06	0.0144234	-0.00350914	0.0107097	0.697021	-0.0783691	-0.806885	0.599657	-0.402431	-0.609651	-0.326782	9.70762	-0.853886	-0.793883	-0.0242173	-0.0347769	-0.0314719	-0.900879	0.416504	-0.123779	0.923798	-0.107939	-0.293253	-0.221242	6.52436	-0.505864	8.97581	0.0200867	0.0363434	-0.00619383	-0.3125	0.230957	-0.969727	-0.0124915	-0.0694039	-0.953953	-0.291548	0.384571	5.30174	-7.61331	-0.0141686	0.0245945	-0.0292745	-0.420654	-0.552246	0.875244	0.582719	-0.48884	-0.579321	-0.29302	9.32284	-2.3415	-1.05008	0.0404408	-0.0173991	0.0439554	-0.860596	0.579346	0.0202637	0.657689	-0.359091	-0.583667	-0.312781	9.65209	-1.25212	0.711283	0.246274	0.0145734	0.00468431	-0.997559	0.511719	-0.334229	
80	0.595278	-0.350792	-0.461268	-0.556616	9.49143	0.759023	3.32765	-0.055435	0.000725069	-0.028474	-0.828125	0.322021	-0.362793	0.634906	-0.369624	-0.519381	-0.436481	9.58262	0.132519	2.07617	0.00486805	0.024489	-0.0460216	-0.743164	0.289795	-0.285889	0.863982	-0.21612	-0.220482	-0.397761	5.91779	-1.98075	8.43032	0.0784658	0.0157972	0.00733536	-0.355713	0.429443	-0.861572	0.234443	0.0710261	-0.150015	-0.957856	-0.736792	3.07232	9.25434	-0.00668802	0.0343165	0.0133211	-0.314697	-0.0158691	-0.99707	0.614028	-0.272833	-0.377455	-0.637228	8.12509	1.60395	5.56587	-0.00150852	0.0212816	-0.029492	-0.779053	0.284424	-0.572754	0.9929	0.0143092	0.11257	0.0356859	-2.84083	-0.223108	13.003	0.00380027	-0.0105277	-0.00548351	0.699463	-0.0849609	-0.806885	0.599366	-0.402509	-0.609846	-0.326856	9.64474	-0.721296	-0.781147	0.00264912	-0.010898	-0.0297984	-0.894043	0.412109	-0.125977	0.923946	-0.107996	-0.292841	-0.221143	6.40876	-0.723414	8.82553	-0.00332123	0.0483802	-0.000614323	-0.314453	0.224365	-0.974365	-0.0121073	-0.0692392	-0.953867	-0.291886	0.240538	5.10604	-7.70346	-0.0206287	0.0408019	-0.0204577	-0.42041	-0.556885	0.873291	0.582856	-0.48912	-0.579301	-0.292319	9.32105	-2.30101	-1.37461	0.0265197	-0.0151653	0.0526769	-0.858398	0.581543	0.0200195	0.658822	-0.357409	-0.584382	-0.310983	9.83041	-1.13414	0.538879	0.22615	0.0130256	0.0191175	-0.995361	0.511719	-0.338867	
81	0.594195	-0.350563	-0.461414	-0.557795	9.57659	0.897226	3.32641	-0.0181213	-0.00142553	-0.063184	-0.827881	0.317627	-0.371338	0.634334	-0.368676	-0.519966	-0.437417	9.57731	0.228652	2.25654	-0.0179508	0.0251618	-0.0668613	-0.745117	0.281006	-0.290283	0.864013	-0.21514	-0.220975	-0.397952	5.83118	-1.87526	8.50704	0.0338961	-0.00322281	-0.0265638	-0.362061	0.42749	-0.861572	0.234608	0.0726881	-0.149365	-0.957792	-0.789169	3.09536	9.15558	0.0146077	0.0551892	-0.0226741	-0.305664	-0.0180664	-0.994873	0.613347	-0.271935	-0.377327	-0.638342	8.08601	1.62222	5.50785	-0.0105299	0.0332674	-0.0674421	-0.78125	0.286621	-0.574951	0.993094	0.0146392	0.110956	0.0351905	-2.70942	-0.263972	12.926	0.0259986	-0.0419281	-0.0387111	0.688477	-0.0805664	-0.813232	0.59596	-0.40532	-0.609593	-0.330066	9.70943	-0.744306	-0.69977	-0.161033	-0.0444987	-0.0541841	-0.898193	0.409912	-0.117432	0.923968	-0.108114	-0.291911	-0.222224	6.4989	-0.31306	8.67896	-0.0478676	0.0455321	-0.0541642	-0.310059	0.226562	-0.969727	-0.0118499	-0.0697505	-0.953612	-0.292608	0.175226	5.00594	-7.66174	-0.0201757	-0.00157053	0.0111099	-0.42749	-0.554688	0.87085	0.582856	-0.489693	-0.579723	-0.290518	9.34059	-2.2384	-1.5135	0.0595781	-0.0423845	0.0402448	-0.854004	0.583984	0.015625	0.664601	-0.348164	-0.587768	-0.302681	9.82322	-0.978079	0.650132	0.282757	0.0353109	0.0206403	-0.994629	0.498291	-0.356934	
82	0.593812	-0.350282	-0.461412	-0.55838	9.69085	0.993638	3.40074	-0.0191185	0.0117399	-0.0561341	-0.829834	0.31543	-0.369141	0.633813	-0.368611	-0.519918	-0.438284	9.68538	0.223039	2.13217	-0.0597808	0.0215926	-0.0821949	-0.749268	0.281006	-0.287842	0.863556	-0.214198	-0.22202	-0.398869	5.71965	-1.81128	8.69171	0.0350824	-0.0125025	-0.0632251	-0.359863	0.429688	-0.861572	0.234034	0.0732814	-0.149164	-0.957919	-0.807818	3.01462	9.14939	-0.00152574	0.0474408	-0.0531371	-0.310059	-0.0202637	-0.992676	0.612903	-0.271313	-0.377495	-0.638934	8.17146	1.58411	5.4927	0.00972655	0.0296125	-0.0896457	-0.7854	0.282227	-0.570557	0.993204	0.015026	0.110092	0.0346468	-2.82626	-0.386712	12.9322	0.038611	-0.056855	-0.0565897	0.692871	-0.0827637	-0.81543	0.594839	-0.406105	-0.609631	-0.331053	9.75272	-0.728762	-0.597916	-0.107121	-0.0330447	-0.0554664	-0.900879	0.420898	-0.113281	0.923879	-0.10858	-0.291408	-0.223024	6.28115	-0.36794	8.76198	-0.0590561	0.0500617	-0.0611049	-0.318848	0.22876	-0.971924	-0.0122109	-0.0713923	-0.953323	-0.293138	-0.179164	5.16342	-7.55106	-0.0304587	-0.0297126	0.0484406	-0.418213	-0.554688	0.877686	0.582992	-0.489128	-0.580597	-0.289448	9.39833	-1.84796	-1.28576	0.0262985	-0.0158432	0.0059153	-0.860596	0.581543	0.0200195	0.66558	-0.346645	-0.588163	-0.301505	9.76622	-0.932078	0.447888	0.175302	0.0360377	-0.000647868	-0.992432	0.498535	-0.359131	
83	0.591571	-0.349657	-0.461208	-0.561312	9.61739	1.20557	3.43721	-0.0743659	0.00717588	-0.102326	-0.834473	0.319824	-0.367188	0.632244	-0.368488	-0.520465	-0.44	9.74591	0.251488	2.21426	-0.0652454	-0.0204445	-0.0994595	-0.749268	0.278809	-0.282959	0.862504	-0.214125	-0.223122	-0.400568	6.02335	-1.88741	8.67562	-0.00949128	-0.0345033	-0.0870856	-0.362061	0.425293	-0.86377	0.232302	0.0744195	-0.149441	-0.958209	-0.882659	3.24099	9.30784	0.0519105	0.0366866	-0.0850451	-0.298828	-0.0202637	-0.999268	0.611115	-0.271278	-0.3778	-0.64048	8.07055	1.7481	5.49097	-0.0647748	-0.0227979	-0.104498	-0.781006	0.280029	-0.570557	0.993458	0.0150357	0.108292	0.032998	-2.71234	-0.176163	13.1711	-0.00990035	-0.0544116	-0.0931588	0.682129	-0.0786133	-0.817627	0.59274	-0.407797	-0.609545	-0.332889	9.84337	-0.625031	-0.793463	-0.1079	-0.0315602	-0.0406567	-0.894287	0.414307	-0.104736	0.923242	-0.108514	-0.291897	-0.225043	6.40119	-0.592235	8.94208	0.00239151	0.00363224	-0.114832	-0.3125	0.233154	-0.967529	-0.0133838	-0.0733226	-0.953294	-0.292704	0.160545	5.36019	-7.8091	0.0163781	-0.0724752	0.048633	-0.42041	-0.556885	0.875488	0.58235	-0.491	-0.578849	-0.291069	9.57731	-2.34231	-1.39626	-0.128803	0.0572339	0.0339923	-0.856201	0.581543	0.0178223	0.664875	-0.348168	-0.587293	-0.302997	10.0108	-1.30773	0.530835	-0.0736142	0.0234479	-0.00903605	-0.988037	0.498535	-0.354492	
84	0.590428	-0.349854	-0.461002	-0.562561	9.54101	1.20085	3.39634	-0.0957539	-0.00890485	-0.0988203	-0.832031	0.31543	-0.36499	0.63036	-0.369104	-0.520462	-0.442186	9.80177	0.274995	2.19348	-0.107451	0.000818858	-0.0937346	-0.751221	0.274414	-0.282959	0.861112	-0.214079	-0.224627	-0.402739	6.11161	-1.81367	8.71291	-0.00679907	-0.0338185	-0.116576	-0.370605	0.425537	-0.861572	0.229806	0.0762308	-0.150315	-0.958532	-0.844971	3.17937	9.38813	0.0375049	0.0521509	-0.105862	-0.298828	-0.0224609	-0.999268	0.60904	-0.271665	-0.378242	-0.642029	8.15634	1.5829	5.62422	-0.023116	-0.0320266	-0.103796	-0.789551	0.273438	-0.563477	0.993646	0.0146909	0.107332	0.0305166	-2.79593	-0.322653	13.1328	0.0120182	-0.0197363	-0.123719	0.686035	-0.0720215	-0.813477	0.590983	-0.409212	-0.609445	-0.334457	9.94346	-0.83837	-0.682144	-0.0678502	-0.0101031	-0.0409255	-0.900635	0.416504	-0.108887	0.92251	-0.108841	-0.292052	-0.227672	6.45112	-0.549653	9.0259	-0.0687941	0.0108494	-0.109091	-0.314697	0.230957	-0.972168	-0.0146596	-0.0759169	-0.953015	-0.292891	0.2809	5.116	-7.89237	0.00767507	-0.0718248	0.0734591	-0.42041	-0.554688	0.879883	0.581337	-0.492267	-0.577895	-0.292844	9.4802	-2.39782	-1.30883	-0.0900662	0.0421544	-0.0376039	-0.858643	0.588135	0.0222168	0.663722	-0.350021	-0.586313	-0.305279	9.86422	-0.862033	0.722584	-0.22994	0.0049314	-0.022881	-0.995117	0.505127	-0.3479	
85	0.588027	-0.350786	-0.460914	-0.564563	9.51611	1.00601	3.30235	-0.0845381	-0.0437086	-0.0815786	-0.827637	0.313232	-0.362793	0.628539	-0.369924	-0.519867	-0.444785	9.67703	0.270231	2.13371	-0.118814	0.0200007	-0.0881717	-0.753662	0.278809	-0.280762	0.85961	-0.214453	-0.225139	-0.405453	6.17087	-2.0218	8.65394	-0.0285966	-0.00113056	-0.11641	-0.372559	0.418945	-0.861328	0.226978	0.0775115	-0.150558	-0.959065	-0.846743	3.23076	9.35399	0.0273823	0.0262211	-0.122494	-0.300537	-0.0290527	-1.00122	0.606726	-0.272261	-0.378355	-0.643898	8.01952	1.70449	5.71084	-0.0943132	-0.0162569	-0.11827	-0.784912	0.266846	-0.561279	0.993822	0.0144891	0.106438	0.0279197	-2.71403	-0.13585	13.076	0.0129958	-0.0248139	-0.120059	0.686035	-0.0698242	-0.817871	0.589166	-0.411507	-0.608389	-0.336762	9.68953	-0.716181	-0.866906	-0.15232	-0.00447174	-0.0209788	-0.904785	0.412109	-0.104736	0.921935	-0.109842	-0.291526	-0.230183	6.46923	-0.954343	8.97444	-0.0530817	0.0382657	-0.0977003	-0.312256	0.22876	-0.969727	-0.0154499	-0.0785552	-0.952863	-0.292649	0.434693	5.08704	-7.74967	0.00262275	-0.0414105	0.0781164	-0.420898	-0.54541	0.873047	0.580789	-0.49381	-0.576183	-0.294702	9.24753	-2.39384	-1.23706	-0.111936	0.0503215	0.03545	-0.856445	0.585938	0.0290527	0.662569	-0.351681	-0.585477	-0.307473	9.75338	-0.912742	0.578769	-0.0561224	0.0206732	-0.0301517	-0.992676	0.50293	-0.350098	
