40	Head	00b4120a												Throax	00b411e8												LUpArm	00b411d9												LFoArm	00b41148												RUpArm	00b411db												RFoArm	00b41204												Waist	00b411f7												Lthigh	00b411f4												Lshank	00b4111b												Rthigh	00b411c8												Rshank	00b411ee												
PacketCount	q0	q1	q2	q3	accX	accY	accZ	gyrX	gyrY	gyrZ	magX	magY	magZ	q0	q1	q2	q3	accX	accY	accZ	gyrX	gyrY	gyrZ	magX	magY	magZ	q0	q1	q2	q3	accX	accY	accZ	gyrX	gyrY	gyrZ	magX	magY	magZ	q0	q1	q2	q3	accX	accY	accZ	gyrX	gyrY	gyrZ	magX	magY	magZ	q0	q1	q2	q3	accX	accY	accZ	gyrX	gyrY	gyrZ	magX	magY	magZ	q0	q1	q2	q3	accX	accY	accZ	gyrX	gyrY	gyrZ	magX	magY	magZ	q0	q1	q2	q3	accX	accY	accZ	gyrX	gyrY	gyrZ	magX	magY	magZ	q0	q1	q2	q3	accX	accY	accZ	gyrX	gyrY	gyrZ	magX	magY	magZ	q0	q1	q2	q3	accX	accY	accZ	gyrX	gyrY	gyrZ	magX	magY	magZ	q0	q1	q2	q3	accX	accY	accZ	gyrX	gyrY	gyrZ	magX	magY	magZ	q0	q1	q2	q3	accX	accY	accZ	gyrX	gyrY	gyrZ	magX	magY	magZ	
0	0.582301	-0.368976	-0.443587	-0.572724	9.68527	0.791411	3.42308	-0.0410908	0.00253731	-0.10375	-0.828857	0.337158	-0.354248	0.64516	-0.361111	-0.501843	-0.448912	9.79197	-0.00943356	2.57291	0.0882634	-0.0182917	-0.0776899	-0.737549	0.311523	-0.29834	0.863486	-0.212817	-0.196572	-0.412869	5.64271	-2.1338	8.89082	0.0596657	-0.0547275	0.0155403	-0.317383	0.450439	-0.866943	0.212531	0.0490189	-0.123162	-0.968121	-0.455189	2.74398	9.55181	0.0303816	0.061426	0.0347133	-0.341064	0.0275879	-0.989014	0.608656	-0.291459	-0.358822	-0.644854	8.03469	1.09871	5.76485	0.121575	-0.00255249	-0.0457014	-0.782715	0.31958	-0.54541	0.989306	-0.000538504	0.132836	0.0602279	-3.24851	-0.0248945	12.9576	-0.0448549	-0.0713976	0.0422604	0.721191	-0.0869141	-0.778809	0.601288	-0.414711	-0.590287	-0.343554	10.039	-0.953567	-0.49532	0.00514361	0.229573	-0.101491	-0.893066	0.436035	-0.13916	0.915142	-0.115574	-0.285658	-0.259916	6.26639	-0.564996	8.70941	0.108449	0.0200128	0.0345774	-0.317627	0.252686	-0.970215	-0.0200077	-0.110738	-0.949045	-0.294364	-0.149316	5.05933	-7.68706	-0.0560487	0.07005	-0.0590617	-0.42627	-0.525146	0.890625	0.558192	-0.526436	-0.561643	-0.309586	9.36009	-1.9022	-1.94504	0.0986689	-0.0296865	-0.0357656	-0.843506	0.601562	0.090332	0.658468	-0.360287	-0.579059	-0.318282	10.1959	0.144647	0.357775	0.152177	0.000369683	0.00971165	-0.988525	0.509521	-0.343506	
1	0.581755	-0.368351	-0.443984	-0.573374	9.65059	0.821755	3.36904	0.00780353	0.00682682	-0.0901358	-0.835449	0.334717	-0.354248	0.645232	-0.360094	-0.5027	-0.448665	9.7353	0.042387	2.59919	0.087091	0.00204633	-0.0695222	-0.733154	0.311523	-0.29834	0.863556	-0.212682	-0.197496	-0.412351	5.66346	-2.0895	8.99971	0.0520629	-0.0625711	0.0213381	-0.313232	0.452637	-0.864502	0.212937	0.0498587	-0.123325	-0.967968	-0.486921	2.70709	9.55274	0.0280356	0.0724031	0.027574	-0.345459	0.0231934	-0.986816	0.609009	-0.290466	-0.359926	-0.644353	8.02646	1.21979	5.77019	0.126598	0.00329174	-0.0259072	-0.784912	0.31958	-0.54541	0.989369	-0.000682357	0.131918	0.0612077	-3.15066	0.136693	13.0345	-0.0218769	-0.0580384	0.059119	0.719238	-0.0891113	-0.776611	0.602709	-0.413173	-0.589327	-0.344563	9.95466	-1.15464	-0.355784	0.0612338	0.200723	-0.0667143	-0.886475	0.433838	-0.141357	0.915374	-0.115236	-0.285644	-0.259264	6.33077	-0.273559	8.59278	0.0456293	0.0235555	0.030035	-0.317871	0.254883	-0.960938	-0.0200223	-0.110055	-0.949193	-0.294143	-0.1959	4.97364	-7.85091	0.0243849	0.0191881	-0.0715114	-0.430908	-0.525146	0.888184	0.55816	-0.525589	-0.562547	-0.309443	9.47606	-2.26432	-2.17814	0.0679716	-0.0157419	-0.0681119	-0.843506	0.601562	0.0881348	0.657639	-0.361871	-0.578397	-0.319401	9.98805	-1.20062	0.4772	-0.174017	-0.00473455	0.00722666	-0.993164	0.513916	-0.345703	
2	0.582105	-0.366219	-0.445467	-0.573233	9.53543	1.07777	3.37494	0.111331	0.0178658	-0.0323573	-0.837402	0.332764	-0.356445	0.645842	-0.358733	-0.503203	-0.448313	9.64414	0.158679	2.42289	0.0485903	0.0371498	-0.0268798	-0.735107	0.302734	-0.300293	0.863638	-0.213135	-0.198711	-0.41136	5.73685	-2.10238	9.17271	0.011944	-0.0412152	0.0339415	-0.323975	0.450684	-0.864502	0.213755	0.0508852	-0.123753	-0.96768	-0.566508	2.39066	9.65542	0.0197368	0.0352291	0.0405205	-0.343262	0.0275879	-0.984619	0.609955	-0.288425	-0.361191	-0.643667	8.01401	1.18256	5.7314	0.0916073	0.0437	-0.0160596	-0.778076	0.317383	-0.54541	0.989466	-0.000538724	0.130236	0.0632168	-3.22034	0.317554	12.8581	-0.000201569	-0.0537003	0.0596559	0.721191	-0.0869141	-0.783203	0.602383	-0.412792	-0.590142	-0.344193	9.76835	-0.811524	-0.438037	0.0278536	-0.049916	-0.0325392	-0.890625	0.429688	-0.141113	0.915275	-0.115111	-0.286654	-0.258555	6.41298	-0.690649	8.84272	0.0497495	-0.0448864	-0.000881171	-0.317627	0.252686	-0.965576	-0.0206566	-0.109261	-0.949412	-0.293688	0.108896	5.15072	-7.71074	0.0204956	-0.0146739	-0.0519063	-0.424072	-0.525146	0.89502	0.558335	-0.52436	-0.56311	-0.310188	9.34168	-2.29952	-1.82098	-0.00299346	0.0432929	-0.0562813	-0.8479	0.597168	0.0859375	0.655064	-0.365475	-0.576924	-0.32323	9.7527	-0.616951	0.69768	-0.441789	-0.0181852	-0.0261659	-0.995361	0.513916	-0.329834	
3	0.583383	-0.364153	-0.446554	-0.572403	9.48533	1.2907	3.37158	0.0953633	0.0346445	-0.00209267	-0.833008	0.332764	-0.36084	0.645989	-0.358617	-0.503764	-0.447565	9.49183	0.0824077	2.32849	0.0232948	-0.0159836	-0.00677927	-0.730713	0.304932	-0.293457	0.864259	-0.212705	-0.198899	-0.410184	5.64199	-1.97002	9.05204	0.0356913	0.0107027	0.0471483	-0.321777	0.448486	-0.862305	0.214908	0.0507669	-0.123967	-0.967403	-0.597805	2.53063	9.65702	0.00855998	0.00336434	0.0501334	-0.33667	0.0275879	-0.986816	0.610793	-0.287335	-0.360937	-0.643502	7.86627	1.16842	5.3964	0.0144387	0.0542383	0.00842265	-0.77832	0.317383	-0.552246	0.989473	-0.000424114	0.129564	0.0644767	-3.11556	0.170144	12.8246	0.000340564	0.00543464	0.0237925	0.721191	-0.0869141	-0.778809	0.6031	-0.412014	-0.589587	-0.344821	9.66331	-1.01428	-0.473171	0.0201899	0.0945295	-0.0328455	-0.888428	0.429688	-0.141113	0.915003	-0.114877	-0.287034	-0.2592	6.20767	-0.5322	9.07723	0.00411366	0.00692174	-0.0541558	-0.317383	0.246094	-0.967773	-0.0214205	-0.109514	-0.949342	-0.293764	0.302995	5.22441	-7.64502	-0.0430097	-0.0189101	-0.00159175	-0.419434	-0.527344	0.892822	0.558062	-0.523254	-0.563329	-0.31214	9.25697	-2.34703	-1.79305	-0.0355384	0.0380808	-0.0944268	-0.852051	0.594971	0.0837402	0.650482	-0.371871	-0.574266	-0.329854	9.83776	-0.524236	0.480854	-0.477645	-0.0139266	-0.0525169	-0.997803	0.520508	-0.320801	
4	0.583971	-0.363497	-0.44689	-0.571958	9.43872	1.22714	3.42629	0.0206219	-0.00504305	0.0081619	-0.835205	0.330566	-0.356445	0.646069	-0.359461	-0.503403	-0.447178	9.66493	0.0965334	2.57517	-0.0439369	0.0160869	0.0214629	-0.733154	0.309326	-0.29834	0.864701	-0.212673	-0.198055	-0.409679	5.38669	-1.94198	9.09924	-0.0200866	0.0345272	0.0248204	-0.315186	0.452637	-0.862305	0.215241	0.0500374	-0.123895	-0.967377	-0.595586	2.58147	9.41386	-0.0130429	-0.0316294	0.00135428	-0.338867	0.0253906	-0.989014	0.611641	-0.287818	-0.359979	-0.643017	8.02089	1.24138	5.40195	-0.037477	0.0152176	0.041358	-0.778076	0.312988	-0.554443	0.989337	-0.000434036	0.130548	0.0645698	-3.13288	-0.125851	12.7801	0.00762299	0.0649577	-0.0197103	0.721436	-0.0913086	-0.778809	0.603998	-0.411701	-0.588586	-0.345334	9.8321	-0.779414	-0.153026	-0.0229893	0.0392762	0.00652064	-0.890869	0.433838	-0.145508	0.914426	-0.114964	-0.287649	-0.260512	6.3636	-0.347209	8.86982	-0.0419429	0.00753169	-0.0804457	-0.322021	0.250488	-0.967773	-0.022554	-0.110679	-0.949305	-0.293364	0.312822	5.36135	-7.50156	0.0256004	-0.053307	0.0191901	-0.416992	-0.525146	0.89502	0.557664	-0.522853	-0.562908	-0.314276	9.21095	-2.23915	-1.49094	-0.0627933	0.0610395	-0.0186357	-0.851807	0.588379	0.0837402	0.647352	-0.375904	-0.572494	-0.334488	9.6934	-1.41147	0.68125	-0.108714	0.0129174	-0.0556222	-0.993164	0.516113	-0.316162	
5	0.584091	-0.364075	-0.446444	-0.571817	9.53824	1.1133	3.43517	-0.0306582	-0.00036395	0.0284409	-0.835205	0.332764	-0.358643	0.646001	-0.360844	-0.502291	-0.447413	9.53942	-0.00442964	2.42141	-0.0729998	0.0148153	0.0121619	-0.735107	0.307129	-0.302979	0.864411	-0.213991	-0.196445	-0.41038	5.45673	-1.97737	9.00096	-0.0926499	0.0443816	-0.0109919	-0.313232	0.454834	-0.860107	0.214018	0.0485626	-0.123595	-0.967761	-0.560886	2.46072	9.31402	-0.0248974	-0.0674735	-0.0524072	-0.338867	0.0253906	-0.989014	0.611396	-0.289536	-0.358875	-0.643096	8.05646	1.2608	5.48424	-0.0868905	-0.0185774	0.00428332	-0.778564	0.326172	-0.554443	0.989177	-3.36886e-06	0.132216	0.0636188	-3.09028	0.0966025	12.7455	0.0341215	0.0793651	-0.0642394	0.723633	-0.0913086	-0.778809	0.603568	-0.413426	-0.587452	-0.345956	9.75469	-0.847313	-0.367774	-0.059027	0.0434746	0.0172683	-0.888428	0.429688	-0.141113	0.913845	-0.115285	-0.287645	-0.262407	6.15546	-0.536948	9.01689	-0.0185703	0.0043236	-0.0904189	-0.324219	0.252686	-0.967773	-0.0235067	-0.112441	-0.949032	-0.2935	0.308187	5.10481	-7.76649	0.0129131	-0.060321	0.0443255	-0.421631	-0.525146	0.897217	0.556913	-0.523798	-0.561647	-0.316285	9.30451	-2.38953	-1.6915	-0.0927974	0.0517184	0.00693076	-0.851807	0.588379	0.0861816	0.645191	-0.379074	-0.570538	-0.338406	9.75483	-1.65547	0.459083	-0.158736	0.0319095	-0.0392878	-1.00024	0.520508	-0.316162	
6	0.583901	-0.365714	-0.445448	-0.571742	9.45856	0.915474	3.42566	-0.0716989	-0.0329735	0.0399483	-0.830811	0.334961	-0.354248	0.645327	-0.362714	-0.501209	-0.448087	9.74464	0.0169754	2.57018	-0.111479	0.012005	0.00633519	-0.733154	0.313721	-0.293701	0.8638	-0.215755	-0.194693	-0.411575	5.46629	-2.13224	8.80092	-0.0956959	0.0420705	-0.0252041	-0.309082	0.461182	-0.860352	0.212162	0.0464486	-0.124473	-0.968161	-0.455485	2.54121	9.42445	0.0256268	-0.0949802	-0.0619122	-0.352051	0.0253906	-0.984619	0.610406	-0.291482	-0.358447	-0.643395	8.1351	1.25015	5.6321	-0.0714824	-0.0503185	-0.0234097	-0.780518	0.321777	-0.547607	0.989175	-0.000813859	0.133149	0.0616676	-3.09912	0.142148	12.9073	-0.0252886	0.0478412	-0.107846	0.725586	-0.0849609	-0.774658	0.603702	-0.414546	-0.585664	-0.34741	9.93262	-0.876092	-0.269053	-0.0988511	0.063115	0.0167117	-0.884277	0.433838	-0.143555	0.913126	-0.1159	-0.287653	-0.264622	6.39607	-0.501763	8.82602	-0.0563534	0.024544	-0.100144	-0.319824	0.250488	-0.963135	-0.0244395	-0.114464	-0.948834	-0.293282	0.258289	5.27575	-7.68744	0.00359831	-0.0524349	0.047978	-0.416992	-0.525146	0.89502	0.556355	-0.524292	-0.560256	-0.318903	9.41067	-2.43172	-1.5109	-0.114601	0.0838151	-0.00221064	-0.856201	0.586182	0.0861816	0.642795	-0.38243	-0.568615	-0.342401	9.90478	-2.07977	0.910973	-0.253661	0.0175388	-0.0213767	-1.00708	0.5271	-0.300537	
7	0.582901	-0.368088	-0.444219	-0.572195	9.49464	0.79445	3.35104	-0.118579	-0.0355028	0.0232082	-0.831299	0.341309	-0.352295	0.644704	-0.364462	-0.4997	-0.449248	9.53518	-0.184541	2.40691	-0.109039	0.0261441	-0.0130505	-0.737549	0.311523	-0.29126	0.862897	-0.21702	-0.193432	-0.413395	5.38567	-2.1014	8.83048	-0.0744022	0.0387637	-0.0674771	-0.319824	0.465576	-0.855713	0.209797	0.0449343	-0.124821	-0.968703	-0.470397	2.56284	9.34738	-0.0040114	-0.0618252	-0.0982426	-0.354248	0.0231934	-0.986816	0.608419	-0.293346	-0.357695	-0.644847	8.19306	1.04439	5.82106	-0.114268	-0.0243018	-0.0777309	-0.789551	0.325928	-0.54541	0.989265	-0.000861966	0.133639	0.0591235	-3.25053	0.0890815	12.9215	0.028627	0.0236865	-0.112361	0.727539	-0.0827637	-0.774658	0.60315	-0.416944	-0.583987	-0.34832	9.69197	-0.889942	-0.255774	-0.0804239	0.00660774	0.0311559	-0.884521	0.438232	-0.143555	0.912564	-0.11638	-0.287158	-0.266875	6.44209	-0.602927	9.00381	-0.0429751	0.0318121	-0.0929507	-0.319824	0.254883	-0.960693	-0.0247754	-0.115439	-0.94867	-0.293404	0.351858	5.26709	-7.70521	-0.00871093	-0.041537	0.0504181	-0.421875	-0.522949	0.899414	0.556186	-0.525794	-0.558772	-0.31933	9.30868	-2.43645	-1.51429	-0.128585	0.0490535	0.109284	-0.849854	0.592773	0.0905762	0.644985	-0.379061	-0.569386	-0.340746	9.54554	-0.568826	0.507323	0.147004	0.0521473	-0.00673302	-0.991211	0.520508	-0.307129	
8	0.58109	-0.37079	-0.443307	-0.572999	9.52305	0.583235	3.28096	-0.117334	-0.0794836	-0.0112982	-0.835693	0.341309	-0.3479	0.644277	-0.36496	-0.499318	-0.449881	9.53974	-0.135344	2.32472	-0.0850055	0.0174669	-0.0357609	-0.735352	0.313721	-0.293701	0.862335	-0.217349	-0.192789	-0.414693	5.46469	-2.10922	8.74259	-0.069823	0.0520933	-0.0898693	-0.313232	0.461182	-0.853516	0.207061	0.0439921	-0.124472	-0.96938	-0.313757	2.64101	9.47456	-0.0283159	-0.0298172	-0.103075	-0.354248	0.0209961	-0.980225	0.607547	-0.293471	-0.357559	-0.645688	8.18764	0.904713	5.77084	-0.0586015	0.00256668	-0.0932891	-0.784912	0.32373	-0.540771	0.989345	-0.000706809	0.133511	0.0580504	-3.37197	0.116267	12.8678	0.0274818	0.00234961	-0.0997586	0.729736	-0.0847168	-0.774658	0.60305	-0.417544	-0.583365	-0.348816	9.71857	-0.77386	-0.278204	-0.0584299	0.0369433	0.00568274	-0.886719	0.44043	-0.141602	0.912385	-0.116642	-0.286682	-0.267884	6.34102	-0.617861	8.93506	-0.0496305	0.0504595	-0.0818115	-0.328857	0.263428	-0.960938	-0.0247366	-0.117627	-0.948204	-0.294043	0.406149	5.12321	-7.67575	-0.0158914	-0.00935747	0.0737995	-0.419678	-0.520508	0.897217	0.556082	-0.527116	-0.55716	-0.320147	9.19422	-2.30481	-1.43405	-0.0376414	0.0492847	0.00105296	-0.849854	0.594971	0.0905762	0.645916	-0.377808	-0.569638	-0.339949	9.94607	-1.06058	0.558476	0.089158	0.0271772	-0.00789523	-0.997803	0.516113	-0.316162	
9	0.579121	-0.372861	-0.443163	-0.57376	9.90548	0.65104	3.1878	-0.0889977	-0.0517719	-0.0261892	-0.837891	0.341309	-0.339355	0.643606	-0.365382	-0.498592	-0.451301	9.77876	0.0118206	2.65709	-0.0761734	0.040376	-0.0457482	-0.733154	0.313721	-0.29126	0.861189	-0.217776	-0.191778	-0.41731	5.53801	-2.41043	8.76262	-0.0408363	0.0369766	-0.0952861	-0.319824	0.463623	-0.855713	0.205848	0.044033	-0.124266	-0.969663	-0.26327	2.65105	9.45343	-0.0128765	-0.000412271	-0.0979925	-0.354248	0.0209961	-0.984619	0.606286	-0.293493	-0.356675	-0.64735	8.16293	1.17786	5.81825	-0.086523	0.0320052	-0.0718857	-0.785156	0.325928	-0.542969	0.989497	0.000590297	0.133285	0.0559543	-3.35384	0.137463	13.0435	0.0729528	0.00480513	-0.0910393	0.734131	-0.0847168	-0.776855	0.603386	-0.418434	-0.581172	-0.350822	9.9626	-0.961524	-0.195249	-0.0644528	0.103798	-0.00517503	-0.884521	0.44043	-0.143555	0.912352	-0.116816	-0.285667	-0.269002	6.42528	-0.604591	8.65488	-0.00185433	0.0639509	-0.0403524	-0.322266	0.25708	-0.965576	-0.0244597	-0.119014	-0.947926	-0.294404	0.0270339	5.15255	-7.69105	0.0011903	-0.00377823	0.0283484	-0.419922	-0.513672	0.896973	0.555815	-0.527711	-0.55694	-0.320013	9.44108	-2.10745	-1.65272	-0.00644518	-0.00438768	0.0203215	-0.845459	0.594971	0.0905762	0.646541	-0.376976	-0.569836	-0.339353	9.90326	-0.911099	0.655319	0.0956947	0.0296203	-0.000319784	-0.98877	0.518311	-0.313965	
10	0.578571	-0.373217	-0.442723	-0.574422	9.7994	0.633987	3.20948	-0.0759098	0.0020256	-0.0307607	-0.840088	0.341309	-0.34375	0.643119	-0.36596	-0.497082	-0.453189	9.60411	-0.303175	2.52042	-0.10143	0.0665246	-0.0464771	-0.733398	0.315918	-0.284424	0.860356	-0.217039	-0.191518	-0.419527	5.48392	-2.20924	9.01124	-0.00817062	0.0452687	-0.0909204	-0.31543	0.467773	-0.851318	0.203394	0.0444147	-0.123779	-0.970225	-0.242822	2.52317	9.54652	-0.0306796	0.0102384	-0.099375	-0.356201	0.0187988	-0.982422	0.6049	-0.293538	-0.355469	-0.649287	8.05326	0.808947	5.84399	-0.0456966	0.0393016	-0.0903149	-0.787109	0.319336	-0.538574	0.989626	0.00166345	0.132932	0.0544582	-3.39391	0.178468	12.7908	0.0635067	-0.010962	-0.0613751	0.731689	-0.0805664	-0.776855	0.603365	-0.41938	-0.579729	-0.352116	9.78457	-0.905313	-0.194182	-0.0444146	0.0308698	0.000687163	-0.884766	0.442627	-0.141602	0.912247	-0.116622	-0.28533	-0.269799	6.41672	-0.497868	8.8647	0.00518579	0.0180148	-0.0437928	-0.326416	0.256836	-0.960938	-0.0243682	-0.119686	-0.947694	-0.294886	0.0943212	5.27636	-7.69777	-0.021814	0.00666568	0.00672916	-0.417236	-0.520508	0.892822	0.555785	-0.528539	-0.556553	-0.319373	9.39368	-2.03823	-1.63203	-0.00516963	-0.00075249	0.0344369	-0.850098	0.597168	0.0881348	0.649611	-0.372295	-0.571845	-0.335253	9.83103	-0.701505	0.585749	0.290819	0.0205461	0.00663445	-1	0.518311	-0.316162	
11	0.577956	-0.373272	-0.441677	-0.575809	9.59757	0.677124	3.36964	-0.055714	0.0316129	-0.0237698	-0.833496	0.343506	-0.341553	0.64241	-0.366132	-0.496789	-0.454376	9.59615	-0.159161	2.5678	-0.030388	0.0105883	-0.0592708	-0.737549	0.311523	-0.29126	0.859552	-0.216843	-0.190348	-0.421802	5.51631	-2.43444	8.82603	-0.0177175	0.0717804	-0.0795855	-0.311035	0.461182	-0.85791	0.201322	0.0441296	-0.122476	-0.970836	-0.157445	2.38442	9.58265	-0.0478912	-0.0080139	-0.0786963	-0.352051	0.0209961	-0.984619	0.604111	-0.292207	-0.355077	-0.650834	7.98989	0.873803	5.81023	-0.0101941	0.0583451	-0.0810121	-0.787109	0.319336	-0.54541	0.989786	0.00343778	0.132131	0.0534122	-3.42893	0.285684	12.8199	0.063979	-0.0250694	-0.0442885	0.729736	-0.0849609	-0.776855	0.603135	-0.419846	-0.578352	-0.354212	9.79056	-0.892839	-0.24453	-0.0712597	0.0721019	-0.0485099	-0.884521	0.438232	-0.141357	0.912309	-0.116329	-0.284645	-0.270438	6.43206	-0.422675	8.83817	-0.0174807	0.0507965	-0.0379993	-0.320068	0.259277	-0.968018	-0.0242373	-0.120288	-0.947365	-0.295708	0.0980694	5.22154	-7.58525	-0.03188	0.011649	0.0145322	-0.428711	-0.522949	0.892822	0.555661	-0.529624	-0.555986	-0.318777	9.21439	-2.19126	-1.66713	-0.0386416	-0.0196148	0.0771299	-0.845703	0.599365	0.090332	0.65098	-0.370732	-0.572296	-0.333557	9.69352	-1.55126	0.601737	0.139752	0.0318345	0.0189922	-0.997559	0.511719	-0.325195	
12	0.577622	-0.372796	-0.440832	-0.5771	9.54563	0.633057	3.46244	-0.0256038	0.0476982	-0.0472948	-0.839844	0.336914	-0.34375	0.642268	-0.364892	-0.497276	-0.455041	9.59653	-0.0278675	2.5345	0.0195749	0.0327682	-0.0666225	-0.741943	0.311523	-0.288818	0.859495	-0.2151	-0.189781	-0.423065	5.52238	-2.27305	8.64517	0.0547292	0.052942	-0.0434653	-0.31543	0.459229	-0.85791	0.200521	0.0444616	-0.120929	-0.97118	-0.215641	2.58723	9.26906	-0.0493864	0.0384176	-0.0242558	-0.349854	0.0253906	-0.986816	0.603638	-0.291482	-0.354526	-0.651898	7.95305	1.0199	5.87435	-0.0347053	0.0484248	-0.0472482	-0.786865	0.314941	-0.542969	0.98988	0.00449797	0.131663	0.0527432	-3.41991	0.321561	12.8219	0.0515498	-0.00529051	-0.0293966	0.727783	-0.0869141	-0.776611	0.602803	-0.419708	-0.577897	-0.35568	9.87064	-0.785638	-0.0948356	-0.0304532	0.0157852	-0.048305	-0.886719	0.44043	-0.145752	0.912365	-0.115732	-0.284182	-0.270993	6.36968	-0.401968	8.85198	0.0106175	0.0531435	-0.041657	-0.319824	0.254883	-0.963135	-0.0239249	-0.120866	-0.947145	-0.296203	0.163011	5.28212	-7.69791	-0.0143164	0.00838017	0.00875364	-0.419922	-0.516113	0.897217	0.5554	-0.530548	-0.555758	-0.318093	9.46084	-2.22736	-1.68429	0.0100743	-0.0210752	0.0140656	-0.847656	0.597168	0.0927734	0.653565	-0.367261	-0.573436	-0.33037	9.80288	-0.84703	0.477069	0.191274	0.0365353	0.02331	-0.995117	0.509521	-0.332031	
13	0.577085	-0.371373	-0.441378	-0.578136	9.572	0.897909	3.50565	0.0328051	0.00998779	-0.0665664	-0.839844	0.336914	-0.339355	0.642333	-0.36385	-0.497879	-0.455124	9.65839	-0.0117416	2.61794	0.030556	0.0169694	-0.046804	-0.735107	0.304932	-0.298096	0.859553	-0.21409	-0.190453	-0.423157	5.5885	-2.25166	8.81045	0.0486385	-0.0110547	-0.00421917	-0.319824	0.461426	-0.85791	0.200663	0.0455428	-0.120581	-0.971144	-0.288354	2.59256	9.40879	-0.00131678	0.053977	0.0114776	-0.349854	0.0231934	-0.984619	0.603785	-0.290914	-0.353674	-0.652478	7.89867	0.914209	5.77691	0.0143238	0.0489182	-0.0146251	-0.787109	0.31958	-0.550049	0.989938	0.00534677	0.131087	0.0530071	-3.26871	0.0436904	12.804	0.0258835	-0.012748	0.0121061	0.727783	-0.0869141	-0.778809	0.603422	-0.418406	-0.577285	-0.357156	9.91102	-1.0033	-0.386996	0.0310006	0.103588	-0.0662069	-0.884521	0.438232	-0.145752	0.91244	-0.115385	-0.283967	-0.271113	6.35921	-0.602856	8.84214	0.0115476	0.0212238	-0.013801	-0.315674	0.25708	-0.965576	-0.0238002	-0.120969	-0.946985	-0.296682	0.0118891	5.14718	-7.7743	0.00614965	0.0123244	-0.0193304	-0.421631	-0.525146	0.899414	0.555174	-0.530316	-0.556414	-0.317727	9.48368	-2.11958	-1.80664	0.00582534	-0.0105989	-0.0239432	-0.843506	0.599365	0.0949707	0.653621	-0.367368	-0.573264	-0.330437	10.0723	-0.79804	0.673375	-0.112148	0.00707588	-0.0082159	-0.990723	0.509521	-0.33667	
14	0.577534	-0.370017	-0.442106	-0.578	9.58293	0.986289	3.43122	0.0611483	0.0308154	-0.00906903	-0.835205	0.332764	-0.352295	0.642761	-0.362845	-0.498173	-0.455001	9.57059	-0.0510567	2.61601	0.030772	0.0384741	-0.0291968	-0.737305	0.307129	-0.300537	0.859691	-0.21378	-0.191392	-0.422609	5.52744	-2.18493	9.03508	0.0288023	-0.0291452	0.0139462	-0.31543	0.454834	-0.862305	0.201101	0.0464154	-0.12038	-0.971037	-0.367881	2.48187	9.52008	0.00614487	0.0381143	0.0124967	-0.352295	0.0275879	-0.984619	0.60441	-0.289728	-0.354604	-0.651922	7.90224	1.16279	5.81881	0.0557429	0.00823528	-0.0189582	-0.782715	0.31958	-0.550049	0.98996	0.0055185	0.130425	0.0542024	-3.18762	0.252506	12.789	-0.00713464	-0.0124014	0.0353388	0.725586	-0.0869141	-0.778809	0.603461	-0.418176	-0.576736	-0.358246	9.77651	-0.932382	-0.032436	0.00277588	0.0186365	-0.0315737	-0.884277	0.433838	-0.141357	0.912398	-0.114732	-0.284121	-0.271369	6.50063	-0.595894	9.0149	0.036256	0.0145314	-0.0415996	-0.317871	0.254883	-0.967773	-0.0242498	-0.120855	-0.946914	-0.296917	0.286587	5.26576	-7.63813	-0.0253221	-0.00249253	-0.0254689	-0.424316	-0.518311	0.894775	0.555153	-0.530977	-0.555621	-0.318048	9.16163	-2.2673	-1.57839	-0.0433069	0.0268349	0.0492891	-0.845703	0.599365	0.0927734	0.653871	-0.367063	-0.573082	-0.330598	9.63043	-1.01139	0.633479	0.0532446	0.0273205	-0.0061587	-0.995117	0.507324	-0.338867	
15	0.578239	-0.368637	-0.442619	-0.577785	9.36373	0.981693	3.44795	0.0551041	0.0140016	-0.0187715	-0.8396	0.330322	-0.3479	0.64336	-0.361738	-0.498444	-0.454739	9.57939	0.0601397	2.42622	0.0405562	0.031292	-0.0271991	-0.735107	0.304932	-0.293457	0.860216	-0.213343	-0.191534	-0.421695	5.57345	-2.11005	8.93808	0.0323454	0.00972786	0.0448584	-0.31958	0.452637	-0.862305	0.202108	0.0464464	-0.119684	-0.970912	-0.4203	2.36155	9.49376	-0.0402066	0.0104459	0.0536552	-0.349854	0.0253906	-0.984619	0.60459	-0.289252	-0.354912	-0.651799	7.86012	1.00936	5.78436	0.0455667	0.0194399	-0.0199573	-0.782471	0.312988	-0.549805	0.989971	0.00583898	0.129774	0.0555155	-3.28715	0.378389	12.7943	0.020637	-0.0104349	0.0335383	0.721191	-0.0849609	-0.776855	0.603946	-0.417224	-0.576971	-0.358159	9.70922	-0.750581	-0.311342	0.0411054	0.052293	-0.0357262	-0.886475	0.433838	-0.149902	0.912366	-0.114943	-0.283975	-0.27154	6.34226	-0.509207	8.84962	-0.0291353	0.0353172	-0.0142342	-0.313232	0.248291	-0.972412	-0.0240081	-0.120876	-0.946794	-0.297311	0.359399	5.24994	-7.73655	-0.00582554	0.0141387	-0.0150839	-0.424072	-0.527344	0.89502	0.555552	-0.531019	-0.555142	-0.318117	9.30145	-2.44064	-1.59109	0.0179455	0.0357214	0.0120558	-0.843506	0.599365	0.0927734	0.654103	-0.366978	-0.572929	-0.330497	9.75351	-1.14578	0.659366	0.0179579	0.0145046	-0.00041308	-0.995117	0.509521	-0.329834	
16	0.578325	-0.36785	-0.443615	-0.577436	9.60416	1.03249	3.45914	0.048997	-0.0169969	-0.0132051	-0.837402	0.330322	-0.343506	0.643664	-0.361249	-0.498729	-0.454384	9.63518	0.153359	2.50161	0.0507827	0.01929	-0.017198	-0.739258	0.302734	-0.291016	0.860565	-0.21306	-0.191556	-0.421117	5.54304	-2.0845	8.89559	0.0377436	0.00836296	0.0483143	-0.311035	0.456787	-0.860107	0.203597	0.0467654	-0.1199	-0.970559	-0.481917	2.58318	9.52605	0.0192629	0.0308916	0.0596105	-0.352051	0.0253906	-0.986816	0.605648	-0.288039	-0.355315	-0.651134	7.92093	1.1411	5.67213	0.0607577	0.032821	0.014699	-0.780273	0.317383	-0.554443	0.989914	0.00527637	0.129814	0.0564886	-3.14277	0.111531	12.9339	-0.0380734	0.028478	0.019593	0.719238	-0.0891113	-0.781006	0.604416	-0.416402	-0.57693	-0.358388	9.79422	-0.858762	-0.158565	0.0583103	0.0670303	-0.0502495	-0.886475	0.436035	-0.1521	0.912537	-0.114811	-0.283538	-0.271478	6.42427	-0.778659	8.86332	0.00651996	0.0537218	-0.00608067	-0.313232	0.250488	-0.967773	-0.0236991	-0.120819	-0.946682	-0.297715	0.238563	5.17504	-7.60597	-0.0249317	0.0344293	-0.0126291	-0.424072	-0.525146	0.890625	0.555574	-0.530923	-0.555263	-0.318026	9.22405	-2.18251	-1.69319	0.0146287	0.00520244	-0.00219236	-0.838867	0.599365	0.0927734	0.653748	-0.3676	-0.572488	-0.331271	9.91935	-1.18192	0.572787	-0.0527818	0.0178001	-0.0108198	-0.993164	0.513916	-0.33667	
17	0.578526	-0.367606	-0.444038	-0.577066	9.61563	1.04754	3.41515	0.0508007	-0.0141474	0.00481576	-0.8396	0.33252	-0.3479	0.644055	-0.360985	-0.498699	-0.454073	9.62845	-0.0373434	2.66486	0.0106033	0.0363006	-0.00499844	-0.728516	0.304932	-0.300537	0.861239	-0.212197	-0.191874	-0.420029	5.40445	-2.05899	9.00178	0.0513564	3.2287e-05	0.0369737	-0.317383	0.452637	-0.864502	0.204095	0.0470475	-0.119565	-0.970482	-0.498415	2.58999	9.44215	-0.0216237	0.0388416	0.0378847	-0.345703	0.0319824	-0.989258	0.606041	-0.288773	-0.354574	-0.650847	8.02881	1.02688	5.74963	-0.0243598	0.00594504	0.0222057	-0.778076	0.317383	-0.547607	0.989844	0.00526087	0.130136	0.0569696	-3.15877	0.0908048	12.891	-0.000340786	0.0407848	0.0218996	0.721436	-0.0891113	-0.783203	0.605025	-0.415474	-0.577417	-0.357652	9.83936	-0.856781	-0.136207	0.0699192	0.0270769	-0.0104288	-0.884277	0.433838	-0.149902	0.912528	-0.114148	-0.284139	-0.27116	6.344	-0.342426	8.73767	0.0469511	-0.0128009	-0.0110266	-0.319824	0.250488	-0.977051	-0.0237202	-0.12047	-0.946691	-0.297826	0.0742447	5.21911	-7.59041	0.0111002	-0.00179272	-0.0428093	-0.419434	-0.522705	0.888184	0.556129	-0.530432	-0.555089	-0.318181	9.33136	-2.21171	-1.63405	0.020867	0.050419	0.0208166	-0.843506	0.60376	0.0925293	0.653794	-0.367523	-0.572412	-0.331398	9.74456	-1.04007	0.691057	-0.000547761	0.0187814	-0.0117994	-0.997559	0.509521	-0.332031	
18	0.579244	-0.366868	-0.444196	-0.576693	9.4842	1.03991	3.42612	0.0329213	0.0283074	0.00397034	-0.841553	0.328125	-0.350098	0.644352	-0.360794	-0.498533	-0.453985	9.44963	-0.0223788	2.60396	0.00732645	0.0384869	-0.00676823	-0.73291	0.302734	-0.295654	0.861439	-0.212357	-0.191804	-0.419569	5.3993	-1.95298	8.93917	-0.0223249	0.00177561	0.0208072	-0.313232	0.454834	-0.860107	0.204374	0.0471856	-0.119069	-0.970478	-0.486214	2.24429	9.40439	-0.0131254	0.00879719	0.00982335	-0.341309	0.0297852	-0.982666	0.607139	-0.287618	-0.355324	-0.649925	7.83845	1.08809	5.79001	0.0860084	0.0381161	0.0112204	-0.782471	0.315186	-0.552246	0.989737	0.00553735	0.130328	0.0583516	-3.16068	0.470885	12.6792	0.00576316	0.0142401	0.0453072	0.721191	-0.0869141	-0.778809	0.605003	-0.415131	-0.578113	-0.356963	9.60519	-0.873081	-0.262899	0.041186	-0.0210797	-0.0205714	-0.886475	0.431885	-0.158203	0.912699	-0.114429	-0.283742	-0.270881	6.32013	-0.716017	9.0116	-0.000205476	0.0373368	0.00145277	-0.319824	0.252686	-0.965332	-0.0233877	-0.119983	-0.94662	-0.298274	0.328774	5.18206	-7.73194	-0.0109981	0.033171	-0.0252633	-0.424072	-0.525146	0.888184	0.556619	-0.529473	-0.555282	-0.318583	9.30567	-2.43917	-1.73251	0.0408978	0.0437079	-0.0537366	-0.850342	0.60376	0.0856934	0.653033	-0.368919	-0.571721	-0.332537	9.87119	-0.915147	0.56126	-0.12102	0.00415324	-0.00220135	-0.995361	0.511719	-0.327393	
19	0.579502	-0.366761	-0.444299	-0.576422	9.58486	0.968385	3.45552	0.0105085	-0.0137948	0.0117585	-0.8396	0.33252	-0.352295	0.644705	-0.360545	-0.498218	-0.454029	9.73177	0.0456676	2.77241	-0.00527211	0.0230717	-0.00599793	-0.737305	0.307129	-0.300537	0.861813	-0.212058	-0.191921	-0.418898	5.4579	-2.24892	8.92447	0.0577015	-0.00134916	0.0333375	-0.31958	0.454834	-0.862305	0.20542	0.0472828	-0.119026	-0.970258	-0.419199	2.37031	9.48609	0.0200612	0.0225476	0.0497195	-0.345459	0.0275879	-0.984619	0.607859	-0.287486	-0.355219	-0.649368	7.93239	1.38881	5.71323	-0.0271892	0.000987902	0.0141699	-0.780273	0.317383	-0.552246	0.989699	0.00546889	0.130447	0.058738	-3.11604	0.255785	12.9908	-0.0193217	0.0268686	-0.0152115	0.721436	-0.0913086	-0.778809	0.605369	-0.414628	-0.578054	-0.357023	10.0246	-0.730962	0.0124204	0.00107839	0.0443929	-0.0163246	-0.886475	0.433838	-0.15625	0.912824	-0.113822	-0.284108	-0.270333	6.27418	-0.264049	8.74014	0.0319037	0.00405809	-0.000284388	-0.31543	0.248291	-0.967773	-0.0232907	-0.119539	-0.946703	-0.298196	0.068531	5.28753	-7.53722	0.00939325	0.00941566	-0.039556	-0.419434	-0.525146	0.892822	0.556928	-0.528708	-0.555733	-0.318528	9.3982	-2.16268	-1.52969	0.0225711	0.0149494	-0.00115937	-0.854736	0.603516	0.0812988	0.652188	-0.370342	-0.570806	-0.334183	9.80388	-1.3513	0.815596	-0.0525595	0.0253345	-0.0103225	-0.997559	0.511719	-0.327393	
20	0.580035	-0.366434	-0.444196	-0.576173	9.46488	0.922015	3.45876	0.021129	0.0215077	0.0125782	-0.835205	0.330566	-0.3479	0.645244	-0.360327	-0.497754	-0.453945	9.47604	-0.0328912	2.55346	-0.00516884	0.0379531	-0.00653345	-0.73291	0.307129	-0.298096	0.862266	-0.211139	-0.192534	-0.418149	5.41716	-1.85689	9.03106	0.0241802	-0.000663112	0.016077	-0.315186	0.448242	-0.864502	0.206156	0.0476636	-0.119631	-0.970008	-0.537933	2.54064	9.41311	0.00449666	0.0136034	0.0237983	-0.341064	0.0275879	-0.989014	0.60747	-0.288818	-0.354442	-0.649565	7.95467	0.882153	5.79151	-0.0377095	-0.00454613	-0.00278522	-0.773926	0.31958	-0.549805	0.989623	0.00438192	0.130965	0.0589487	-3.22924	0.136527	12.6872	-0.0153802	0.0324029	-0.00418963	0.725586	-0.0891113	-0.783203	0.60547	-0.414461	-0.57886	-0.355737	9.67563	-0.884732	-0.195628	0.0921568	-0.0271608	-0.0115956	-0.88623	0.429688	-0.154053	0.912837	-0.114134	-0.284434	-0.269815	6.43711	-0.71598	9.06165	0.037306	-0.00282603	0.00974575	-0.317871	0.254883	-0.963135	-0.0231852	-0.118562	-0.946692	-0.298631	0.380532	5.23596	-7.74633	-0.0116679	0.0309049	-0.0540539	-0.426025	-0.531982	0.890625	0.557801	-0.528273	-0.555175	-0.318695	9.28464	-2.36414	-1.61279	0.0180476	0.0625982	0.00381451	-0.8479	0.597168	0.0859375	0.652275	-0.370602	-0.570371	-0.334467	9.85294	-0.983961	0.66232	-0.0732514	0.0140376	0.00397761	-0.993408	0.518311	-0.329834	
21	0.580345	-0.366383	-0.444433	-0.57571	9.56869	0.945085	3.49476	0.0186068	-0.0179124	0.0112517	-0.837402	0.330566	-0.354248	0.645388	-0.360384	-0.497824	-0.453617	9.64169	0.0575274	2.65185	0.000730855	0.00182592	-0.00482868	-0.734863	0.300537	-0.304932	0.862154	-0.212107	-0.192207	-0.418041	5.47475	-2.22283	8.89142	-0.030746	-0.000725826	0.0152426	-0.311035	0.452637	-0.862305	0.206267	0.0472448	-0.119204	-0.970058	-0.385738	2.42327	9.52926	-0.00890427	-0.00693445	0.00461011	-0.350098	0.0275879	-0.984619	0.608423	-0.287927	-0.355398	-0.648546	7.93254	1.22999	5.79859	0.0797738	0.00591448	0.0118675	-0.780273	0.315186	-0.547607	0.989559	0.00486678	0.131129	0.0596217	-3.17754	0.285539	12.947	0.00481109	0.0194979	0.0162888	0.725586	-0.0869141	-0.781006	0.605246	-0.414446	-0.579203	-0.355579	9.92093	-0.758823	-0.00370069	-0.0233266	-0.0080608	-0.0172898	-0.888672	0.436035	-0.1521	0.913066	-0.113871	-0.284495	-0.269086	6.32327	-0.393541	8.94048	0.0160491	0.0311993	0.0107491	-0.317627	0.250488	-0.967773	-0.0227358	-0.117881	-0.946746	-0.298764	0.314809	5.28578	-7.63704	0.000426813	0.032893	-0.0351925	-0.430908	-0.529785	0.888428	0.558386	-0.527575	-0.555365	-0.318497	9.31534	-2.23641	-1.5481	0.0476659	0.0111046	-0.0073093	-0.850098	0.599365	0.0859375	0.65236	-0.370747	-0.56996	-0.334841	9.87018	-0.917165	0.671912	0.0137445	0.0253175	-0.00570189	-0.993164	0.513916	-0.325195	
22	0.580654	-0.365995	-0.444827	-0.575341	9.58914	0.967883	3.5028	0.0360081	-0.00135095	-0.000173337	-0.837158	0.328369	-0.352051	0.645712	-0.360354	-0.497839	-0.453164	9.74243	-0.0133301	2.69007	0.00800022	0.0214311	0.000550588	-0.730713	0.304932	-0.300537	0.862432	-0.211821	-0.192968	-0.417261	5.54564	-2.09351	8.91719	0.0491285	-0.0292164	0.0287999	-0.317383	0.454834	-0.864746	0.207046	0.0476201	-0.11982	-0.969798	-0.441765	2.41251	9.44685	0.0321277	0.0262924	0.0452924	-0.347656	0.0253906	-0.986816	0.608515	-0.288638	-0.355272	-0.648213	8.00726	1.06822	5.80674	-0.0380243	-0.0106602	0.0105359	-0.778564	0.328369	-0.550049	0.989476	0.00404644	0.131608	0.0599977	-3.29382	0.379681	12.7968	-0.0225434	0.0370639	-0.0142677	0.723633	-0.0891113	-0.781006	0.605286	-0.414585	-0.579705	-0.354529	9.90015	-0.968538	-0.067774	0.0805932	-0.0242266	0.00415083	-0.895264	0.436035	-0.143555	0.913327	-0.114189	-0.284378	-0.268187	6.30363	-0.655202	8.8148	0.00920292	0.00483055	0.0249125	-0.317871	0.254883	-0.970215	-0.0223306	-0.116856	-0.946838	-0.298905	0.0519168	5.22369	-7.64994	0.00621669	0.0281632	-0.059418	-0.42627	-0.527344	0.885986	0.559285	-0.52602	-0.555896	-0.318563	9.42121	-2.20967	-1.62286	0.0563879	0.0626574	-0.0302044	-0.8479	0.597168	0.0837402	0.651421	-0.372223	-0.569277	-0.336191	9.91156	-1.00046	0.628246	-0.139488	-0.00336829	-0.0114515	-0.993408	0.518311	-0.325439	
23	0.581318	-0.36569	-0.445383	-0.574434	9.68106	0.972879	3.48941	0.0506055	-0.00512828	0.0286828	-0.837402	0.330566	-0.352051	0.646316	-0.3605	-0.497546	-0.452508	9.5837	-0.0411305	2.67688	-0.00669782	0.0172767	0.017676	-0.737549	0.311279	-0.310059	0.86265	-0.212065	-0.193812	-0.416293	5.50687	-2.09351	9.12064	0.00295048	-0.0339386	0.0325082	-0.317383	0.448242	-0.866699	0.208091	0.0477886	-0.120907	-0.969431	-0.378732	2.51379	9.64567	0.0430029	0.00339721	0.0454429	-0.347656	0.0231934	-0.989014	0.608666	-0.289384	-0.355225	-0.647763	7.91516	1.01598	5.92984	-0.00772161	-0.0165892	0.0132581	-0.780762	0.326172	-0.556885	0.989413	0.00301337	0.131912	0.0604298	-3.29753	0.209	12.8777	-0.0476204	0.0268534	0.00662245	0.725586	-0.0891113	-0.783203	0.605263	-0.414849	-0.580171	-0.353494	9.85905	-0.846637	-0.0771272	0.0101655	-0.0150583	0.0164194	-0.886475	0.433838	-0.151855	0.913336	-0.114226	-0.285362	-0.267091	6.28238	-0.397703	8.84983	0.0238523	-0.0210584	0.0223326	-0.322021	0.254883	-0.965576	-0.0223099	-0.115658	-0.947067	-0.298647	0.178168	5.25521	-7.67437	0.0247594	0.0158257	-0.0651494	-0.424072	-0.525146	0.885986	0.559875	-0.523924	-0.556522	-0.319886	9.46037	-2.18919	-1.56629	0.0420595	0.0810995	-0.115713	-0.854492	0.597168	0.0791016	0.648975	-0.375329	-0.568372	-0.338987	10.0414	-0.5437	0.852279	-0.22582	-0.0434522	-0.0240375	-1	0.516113	-0.322998	
24	0.582637	-0.365074	-0.445486	-0.573408	9.55843	1.0602	3.51164	0.0499538	0.0225689	0.0462153	-0.835205	0.332764	-0.358643	0.646396	-0.360944	-0.497535	-0.452051	9.57757	-0.0259468	2.67585	-0.0117886	-0.0119903	0.0252916	-0.72876	0.311523	-0.30542	0.862714	-0.212667	-0.19392	-0.415803	5.49393	-2.20661	9.15182	-0.0266839	-0.0301125	0.0446888	-0.31958	0.452637	-0.857666	0.208899	0.0474913	-0.121377	-0.969213	-0.375662	2.3302	9.61029	0.0187309	-0.00928864	0.0351508	-0.345459	0.0253906	-0.991211	0.608934	-0.289689	-0.35531	-0.647328	7.93224	0.945665	5.80207	0.00668666	-0.0154091	0.0268033	-0.778564	0.326172	-0.550049	0.989347	0.00273299	0.132211	0.0608713	-3.30314	0.274891	12.9106	-0.0208824	0.0402514	0.0162847	0.721191	-0.0849609	-0.774658	0.605259	-0.415075	-0.580228	-0.353142	9.83543	-0.880675	-0.0946417	0.0214153	-0.00897581	0.00929599	-0.890869	0.436035	-0.1521	0.913314	-0.11444	-0.285757	-0.266652	6.28572	-0.464215	8.91085	0.00759325	-0.0214209	0.0184383	-0.317627	0.252686	-0.967773	-0.0225889	-0.115019	-0.947216	-0.2984	0.172722	5.40962	-7.65638	0.0236124	-0.00188565	-0.0747699	-0.419434	-0.527344	0.897217	0.560138	-0.522609	-0.556929	-0.320866	9.57039	-2.24996	-1.50968	0.0394392	0.0793423	-0.110226	-0.854004	0.588379	0.0769043	0.647091	-0.376809	-0.568326	-0.34102	9.75637	-1.14738	0.558593	-0.0594719	-0.00982258	-0.0490044	-0.995605	0.518311	-0.318604	
25	0.583335	-0.36519	-0.445194	-0.572851	9.39121	1.05575	3.5309	0.0214215	0.0139682	0.0697707	-0.837158	0.328369	-0.354248	0.646603	-0.361753	-0.497819	-0.450795	9.58381	-0.123378	2.57975	0.011999	-0.0159863	0.0239319	-0.726562	0.309326	-0.302979	0.863093	-0.213312	-0.193982	-0.414656	5.46609	-2.13091	9.1003	-0.00280943	8.81165e-05	0.0495045	-0.317627	0.457031	-0.866943	0.209296	0.0470286	-0.1216	-0.969122	-0.372209	2.26232	9.61152	0.00983218	-0.0297367	0.0392897	-0.345459	0.0253906	-0.984619	0.609951	-0.289641	-0.355975	-0.646027	8.01732	0.90281	5.7525	0.0562122	-0.00712434	0.0375052	-0.778564	0.323975	-0.554443	0.98916	0.00219691	0.133291	0.061571	-3.4599	0.341835	12.7345	-0.0279176	0.060446	0.00189327	0.723389	-0.0869141	-0.774658	0.605815	-0.414858	-0.580527	-0.35195	9.78534	-1.0209	-0.146538	0.0897149	0.00807453	0.0114538	-0.886719	0.438232	-0.143555	0.913271	-0.114273	-0.286567	-0.266002	6.3295	-0.431588	9.01515	0.0204676	-0.0135331	0.00295874	-0.320068	0.25708	-0.963135	-0.0228712	-0.114152	-0.947443	-0.297989	0.39947	5.28483	-7.62511	0.0233577	0.0106149	-0.0503392	-0.421631	-0.529785	0.89502	0.56088	-0.520418	-0.557203	-0.32265	9.27359	-2.3768	-1.435	0.0210591	0.0832326	-0.0674523	-0.856445	0.590332	0.0722656	0.645713	-0.378649	-0.567603	-0.342793	9.80451	-1.23585	0.85856	-0.235283	-0.0149834	-0.0286329	-1.00024	0.520508	-0.313965	
26	0.583552	-0.367761	-0.444456	-0.571557	9.3435	0.656671	3.34033	-0.0460459	-0.0658864	0.0349242	-0.839844	0.336914	-0.354492	0.646998	-0.362068	-0.497923	-0.44986	9.46896	-0.0451216	2.52862	0.0131532	0.0070349	0.011731	-0.735352	0.313721	-0.296143	0.863704	-0.213367	-0.193003	-0.41381	5.42508	-2.22335	8.7706	0.0042113	0.0438452	0.0479401	-0.311035	0.458984	-0.869385	0.210213	0.0459749	-0.121531	-0.968982	-0.310673	2.49309	9.48646	-0.0227376	-0.0238624	0.0413579	-0.350098	0.0297852	-0.984863	0.610364	-0.290902	-0.3553	-0.64544	8.00486	1.08899	5.70765	-0.0711504	-0.00590382	0.0345882	-0.780762	0.323975	-0.547607	0.988988	0.00133626	0.134459	0.0618129	-3.32583	0.208313	12.8584	-0.0127557	0.0687884	-0.0125964	0.725342	-0.0827637	-0.772461	0.605398	-0.415602	-0.580513	-0.351814	9.68921	-0.721887	-0.179467	-0.0411517	0.00434166	-0.000723043	-0.886719	0.438232	-0.149902	0.913277	-0.11516	-0.286387	-0.265794	6.192	-0.542074	8.98761	-0.0362363	0.0181303	0.00778501	-0.319824	0.254883	-0.960693	-0.0225644	-0.113974	-0.947491	-0.297928	0.517052	5.2693	-7.49399	-0.00980041	0.0300323	-0.014426	-0.419189	-0.529541	0.890625	0.561382	-0.520502	-0.556748	-0.322428	9.10759	-2.26422	-1.22274	0.0195887	0.00847737	0.0522275	-0.856445	0.590332	0.0722656	0.647329	-0.376465	-0.567835	-0.341765	9.52175	-1.00318	0.736399	0.219979	0.063949	-0.00362407	-0.995605	0.518311	-0.318604	
27	0.583006	-0.368675	-0.444713	-0.571325	9.53651	0.588547	3.29503	-0.0385709	-0.0825742	0.0104606	-0.833496	0.341309	-0.350098	0.647413	-0.361877	-0.497865	-0.449479	9.59376	-0.0271117	2.58274	0.0075334	0.0222868	-0.00639129	-0.735352	0.309326	-0.29834	0.864601	-0.212083	-0.191977	-0.413075	5.43545	-2.02476	8.66092	0.0534609	0.0619296	0.037147	-0.308838	0.456787	-0.860107	0.211126	0.0455161	-0.120288	-0.968961	-0.516141	2.62422	9.22164	-0.0605655	0.0108403	0.0334706	-0.352539	0.0341797	-0.987061	0.611334	-0.291494	-0.354112	-0.644908	8.05339	0.999965	5.76344	0.0075116	0.0376879	0.048441	-0.780762	0.328369	-0.550049	0.988784	0.00188594	0.13575	0.0622525	-3.18868	0.112898	12.8742	0.036271	0.0589555	0.0128376	0.72998	-0.0891113	-0.774414	0.60474	-0.416472	-0.580541	-0.351871	9.83241	-0.827795	-0.170207	-0.0402329	-0.0203626	-0.00624183	-0.886719	0.438232	-0.1521	0.913669	-0.115527	-0.285612	-0.26512	6.41892	-0.592444	8.80215	-0.00137603	0.0598617	0.0264131	-0.319824	0.250488	-0.963135	-0.0215122	-0.113694	-0.947656	-0.297589	0.385329	5.3957	-7.59001	0.0329638	0.05305	-0.0238472	-0.42627	-0.525146	0.892822	0.5617	-0.520381	-0.557264	-0.321177	9.38908	-2.4623	-1.29396	0.0415653	-0.0244999	0.0396949	-0.858643	0.590332	0.0700684	0.649377	-0.374541	-0.568019	-0.339682	9.79194	-2.2661	1.04938	0.195285	0.0518199	0.0445208	-0.993164	0.516113	-0.322998	
28	0.582438	-0.369037	-0.445776	-0.570842	9.88719	0.61455	3.28749	0.0404466	-0.0367023	-0.0164042	-0.837646	0.334717	-0.3479	0.647858	-0.361529	-0.497582	-0.449433	9.67931	-0.160489	2.59766	0.0074429	0.0369121	-0.0151801	-0.731201	0.313721	-0.296143	0.864945	-0.211314	-0.191884	-0.412792	5.40618	-1.98305	8.77565	0.0213107	0.00734643	0.00194566	-0.308838	0.450439	-0.862305	0.211504	0.0459037	-0.119235	-0.96899	-0.506982	2.45403	9.27609	-0.0331077	0.0367757	0.0113339	-0.345947	0.0341797	-0.982666	0.61236	-0.290811	-0.353699	-0.64447	7.973	1.14669	5.79523	0.0128444	0.0436682	0.008839	-0.77417	0.328369	-0.547607	0.988626	0.00277648	0.136365	0.0633661	-3.19831	0.21947	12.6966	0.0375334	0.0279142	0.0366305	0.734375	-0.0935059	-0.778564	0.604547	-0.416651	-0.581072	-0.351113	9.94133	-1.10982	-0.148397	0.0764192	-0.0320413	-0.00275347	-0.888916	0.44043	-0.143555	0.914479	-0.114836	-0.284631	-0.263678	6.25193	-0.870663	8.74602	0.0708637	0.0466271	0.0525322	-0.317871	0.254883	-0.965576	-0.0199936	-0.112481	-0.947565	-0.298442	0.0857535	4.98847	-7.80226	-0.0264088	0.0820827	-0.0554511	-0.428467	-0.531982	0.88623	0.562393	-0.521087	-0.557414	-0.318547	9.49681	-2.01373	-1.75004	0.0750099	-0.0416774	0.0224852	-0.856934	0.601318	0.0744629	0.652304	-0.370701	-0.569684	-0.33547	10.0527	0.135172	0.416241	0.0877043	-0.00212485	0.0370769	-0.995361	0.513916	-0.332031	
29	0.5834	-0.367872	-0.446817	-0.569797	9.86527	0.916511	3.33875	0.088775	0.015381	0.0230781	-0.833496	0.341309	-0.345703	0.648722	-0.360795	-0.497449	-0.448923	9.77017	-0.139045	2.80254	0.0449947	0.0415771	0.00313618	-0.724365	0.309326	-0.300537	0.864889	-0.211298	-0.192995	-0.412398	5.43365	-2.35701	9.05506	0.039104	-0.0511184	0.00955498	-0.304688	0.45459	-0.862305	0.212203	0.0464761	-0.119344	-0.968797	-0.249571	2.4012	9.55657	0.0372852	0.0296707	0.0336791	-0.348389	0.0385742	-0.991455	0.612472	-0.29037	-0.354051	-0.644369	8.03111	0.981219	5.85258	0.029087	0.000311825	-0.033071	-0.785156	0.328369	-0.547607	0.988622	0.00274553	0.13599	0.0642255	-3.31811	0.274558	12.9353	-0.0305693	-0.00869676	0.0139672	0.728271	-0.0979004	-0.77417	0.605526	-0.416076	-0.581088	-0.35008	9.92865	-0.912632	-0.0926771	0.0600666	0.0143563	0.00825577	-0.886475	0.433838	-0.145508	0.915131	-0.11391	-0.284625	-0.261816	6.58506	-0.353689	8.89447	0.0461929	0.0202754	0.0494586	-0.319824	0.250488	-0.965332	-0.0194636	-0.110595	-0.947966	-0.29791	-0.0106374	5.44146	-7.65636	0.0180835	0.0496531	-0.0887976	-0.428223	-0.534424	0.890625	0.562709	-0.519734	-0.559362	-0.316779	9.50513	-1.92135	-1.48883	0.0995433	-0.0540113	-0.0178186	-0.854248	0.592773	0.0700684	0.653919	-0.368103	-0.571011	-0.332922	9.9081	-0.485495	0.740928	0.190332	0.00883146	-0.00724646	-0.995361	0.513916	-0.33667	
30	0.585403	-0.366196	-0.446406	-0.569145	9.4636	0.944038	3.46386	0.0620536	0.0814728	0.0379176	-0.837891	0.341309	-0.352295	0.649383	-0.360368	-0.497467	-0.448289	9.54391	-0.131499	2.52582	0.0230607	0.0214847	-0.00226646	-0.729004	0.313721	-0.303223	0.864947	-0.211512	-0.194166	-0.411618	5.50261	-2.15008	9.21326	-0.00255386	-0.0373041	0.0259144	-0.308838	0.450439	-0.871338	0.213113	0.0468677	-0.120014	-0.968495	-0.251163	2.39112	9.60807	0.00967368	0.0106972	0.0396997	-0.350098	0.0275879	-0.984619	0.612424	-0.289814	-0.354917	-0.644188	8.08218	0.666624	5.88476	0.042405	0.00625475	-0.014851	-0.774414	0.328369	-0.556885	0.988632	0.0019141	0.135372	0.0653971	-3.64735	0.300897	12.7402	-0.0205354	-0.0078962	0.0311064	0.730225	-0.0913086	-0.772217	0.605381	-0.415424	-0.583208	-0.34757	9.73597	-0.794225	-0.339241	0.120167	-0.0751871	-0.0129697	-0.886475	0.436035	-0.143555	0.915544	-0.113461	-0.285197	-0.259938	6.35255	-0.491298	8.89749	0.0442746	0.00300637	0.047351	-0.317383	0.248291	-0.965332	-0.0191152	-0.108671	-0.948339	-0.297453	0.262062	5.21925	-7.66302	0.0443101	0.0334128	-0.0832867	-0.426025	-0.531982	0.879395	0.563558	-0.518503	-0.559956	-0.316239	9.23348	-2.24819	-1.63107	0.0634223	0.0342127	-0.019352	-0.856689	0.594727	0.0654297	0.652936	-0.369656	-0.570617	-0.333805	9.80941	-1.22734	0.5165	-0.0186632	-0.00767015	-0.00889058	-0.993164	0.513916	-0.332031	
31	0.586342	-0.365654	-0.445902	-0.568921	9.40273	0.748931	3.50507	0.0102673	0.0236014	0.0107299	-0.833252	0.337158	-0.354248	0.649959	-0.359756	-0.497777	-0.447601	9.47142	0.0158678	2.54402	0.0310482	0.0181384	-0.00922586	-0.729004	0.313721	-0.303223	0.865133	-0.211865	-0.193944	-0.41115	5.54377	-2.30297	9.01418	-0.0187155	0.0030844	0.0486553	-0.31543	0.454834	-0.869141	0.214455	0.0464781	-0.119579	-0.968272	-0.292298	2.47724	9.65368	-0.0224248	0.0103363	0.0610463	-0.343506	0.0319824	-0.991455	0.613002	-0.289183	-0.355419	-0.643645	7.98634	0.774725	5.85924	0.0839531	0.0187139	0.0118973	-0.771973	0.326172	-0.554443	0.988549	0.00195207	0.135214	0.0669708	-3.4042	0.352374	12.9269	-0.000735533	0.0210057	0.0532109	0.732422	-0.0935059	-0.778564	0.603966	-0.416266	-0.584232	-0.347305	9.60668	-0.854194	-0.344655	-0.0300442	-0.068689	-0.0270948	-0.884521	0.438232	-0.141357	0.915796	-0.113083	-0.285147	-0.25927	6.41185	-0.337235	9.01937	0.04848	0.0277658	0.0314137	-0.319824	0.250488	-0.963135	-0.0187886	-0.108129	-0.948502	-0.297152	0.381299	5.38573	-7.56658	0.0343149	0.0410406	-0.0526398	-0.428711	-0.527344	0.881592	0.563625	-0.517873	-0.560648	-0.315926	9.23875	-2.20587	-1.47433	0.0650038	-0.0142251	-0.038528	-0.856445	0.588135	0.0700684	0.651816	-0.371283	-0.570304	-0.334721	9.79829	-0.90673	0.646817	-0.117519	-0.025425	-0.00310145	-0.986572	0.516113	-0.332031	
32	0.586781	-0.364832	-0.446267	-0.56871	9.44529	0.665993	3.52162	0.0533384	0.00166084	-0.00207929	-0.828857	0.337158	-0.36084	0.650134	-0.359657	-0.497951	-0.447234	9.61817	-0.0731511	2.58039	0.0232666	0.00484033	-0.00257481	-0.735352	0.311279	-0.307861	0.866094	-0.210908	-0.193929	-0.409622	5.50291	-2.12165	8.74928	0.0806153	0.0119432	0.0620515	-0.308838	0.450439	-0.866943	0.21541	0.0467303	-0.119349	-0.968076	-0.439617	2.45177	9.42965	-0.0143775	0.0387801	0.0758383	-0.34375	0.036377	-0.987061	0.614537	-0.288697	-0.355104	-0.642573	7.95851	0.970924	5.69774	0.0111803	0.0364557	0.0627244	-0.77002	0.332764	-0.561279	0.988438	0.00193558	0.135621	0.0677713	-3.39739	0.250175	12.8365	-0.0032064	0.0478284	0.0481991	0.730225	-0.0957031	-0.772217	0.603188	-0.416453	-0.585246	-0.346724	9.82291	-1.01692	-0.335518	0.0353367	-0.0976883	-0.0349342	-0.892822	0.433838	-0.136963	0.916141	-0.112903	-0.284645	-0.258682	6.10149	-0.341356	8.75584	0.0102868	0.0290688	0.00234255	-0.31543	0.248291	-0.967773	-0.0182785	-0.107693	-0.948435	-0.297554	-0.1296	5.26628	-7.53324	-0.0269867	0.0242034	-0.0238195	-0.430664	-0.531982	0.888428	0.563657	-0.51634	-0.56213	-0.315743	9.51633	-2.04467	-1.72634	0.0454658	-0.00502126	-0.0529554	-0.858643	0.590332	0.0654297	0.650723	-0.372905	-0.569741	-0.336	10.0214	-0.936702	0.581332	-0.188823	-0.0193237	-0.0103996	-0.997803	0.520508	-0.325439	
33	0.587112	-0.364361	-0.446959	-0.568126	9.43465	0.738188	3.46201	0.0839534	-0.0192716	0.00456959	-0.837646	0.334717	-0.354492	0.650679	-0.359157	-0.498438	-0.446299	9.52608	-0.0708533	2.68585	0.0403157	0.0119352	-0.00361219	-0.726807	0.315674	-0.307861	0.866851	-0.210154	-0.194659	-0.40806	5.31019	-2.0287	9.02111	0.0487929	-0.0203283	0.0522355	-0.308838	0.452393	-0.862305	0.217104	0.0476701	-0.119636	-0.967616	-0.465126	2.48499	9.32265	0.0187783	0.0457046	0.0663031	-0.343994	0.0407715	-0.987061	0.615869	-0.288845	-0.355018	-0.641277	8.00138	1.15715	5.72193	0.0325508	0.00193014	0.0408922	-0.772217	0.332764	-0.552246	0.988241	0.00121362	0.136338	0.069212	-3.15968	0.0857867	12.7832	-0.0345941	0.0413175	0.0390512	0.732422	-0.0957031	-0.772217	0.602284	-0.416745	-0.58613	-0.346452	9.78518	-0.817585	-0.262066	-0.0174743	-0.0464535	-0.0219061	-0.888672	0.436035	-0.137207	0.915913	-0.112561	-0.285498	-0.258696	6.36644	-0.354159	8.89212	0.0202706	-0.0100005	-0.0308812	-0.317383	0.246094	-0.965332	-0.0190389	-0.107634	-0.948624	-0.296925	0.268862	5.41863	-7.48142	0.0399676	-0.0276091	-0.0296958	-0.428223	-0.53418	0.888428	0.563558	-0.5165	-0.561999	-0.31589	9.35348	-2.04829	-1.71317	-0.0187315	0.0145605	0.0061388	-0.856445	0.588135	0.0700684	0.649961	-0.374014	-0.569237	-0.337096	9.6888	-0.703402	0.750111	-0.0371176	0.00303396	-0.0160312	-0.993164	0.513916	-0.322998	
34	0.587747	-0.363531	-0.448224	-0.567004	9.51094	0.98833	3.49777	0.0639907	-0.0208622	0.00878215	-0.828857	0.337158	-0.358643	0.650754	-0.359032	-0.498879	-0.445797	9.58868	0.00508904	2.53967	0.00681529	-0.00953631	-0.0186612	-0.726562	0.311279	-0.310059	0.866963	-0.210912	-0.194757	-0.407384	5.38311	-2.08701	8.95663	-0.0287102	-0.0133041	0.0296547	-0.311035	0.450439	-0.862305	0.217823	0.0478228	-0.119534	-0.967459	-0.470825	2.35183	9.3306	-0.0174926	0.00701183	0.0264357	-0.339111	0.0341797	-0.989258	0.61665	-0.288504	-0.35539	-0.640473	8.00264	1.03009	5.6179	0.0538542	0.00711938	0.0126314	-0.769775	0.326172	-0.563721	0.98816	0.00118183	0.136305	0.0704165	-3.2068	0.235562	12.695	0.00804493	0.00499878	0.0234584	0.734863	-0.104248	-0.767578	0.600961	-0.4175	-0.587068	-0.346251	9.6927	-0.766966	-0.255545	-0.00662263	-0.0464616	-0.0379594	-0.888916	0.438232	-0.128662	0.915658	-0.112394	-0.285897	-0.259231	6.24244	-0.517487	9.07051	0.011932	-0.00111139	-0.047686	-0.31543	0.248291	-0.965332	-0.0196525	-0.108053	-0.948487	-0.297172	0.35175	5.21365	-7.69476	-0.0159827	-0.0217293	0.00129915	-0.418945	-0.536377	0.890625	0.562957	-0.517297	-0.560996	-0.317439	9.29792	-2.32094	-1.62511	-0.0488392	0.0190029	0.00586763	-0.858643	0.588135	0.0678711	0.648268	-0.376656	-0.568326	-0.338948	9.92876	-1.47382	0.379143	-0.0548626	0.000137396	-0.0155849	-0.993164	0.516113	-0.320801	
35	0.587183	-0.363626	-0.449192	-0.566762	9.59106	0.908885	3.39658	0.00514921	-0.0435703	-0.0321189	-0.833008	0.334961	-0.36084	0.650504	-0.358962	-0.499577	-0.445436	9.66675	-0.0766264	2.70961	0.00804378	-0.00762446	-0.0230008	-0.726807	0.315674	-0.305664	0.867118	-0.211169	-0.195429	-0.406597	5.39081	-2.05482	8.93199	0.0300273	-0.0393093	0.0252596	-0.311035	0.450439	-0.864502	0.218416	0.0477152	-0.12043	-0.96722	-0.524887	2.43116	9.43978	0.0616052	-0.0018171	0.0274405	-0.348145	0.0341797	-0.993652	0.616581	-0.288505	-0.3565	-0.639922	7.9932	1.34993	5.73374	-0.00859441	-0.0402591	-0.0250738	-0.771973	0.323975	-0.561279	0.988248	0.00010203	0.135634	0.0704967	-3.18228	0.297076	12.9281	-0.0675912	-0.0112607	-0.0311976	0.732422	-0.0979004	-0.77417	0.599197	-0.418993	-0.587591	-0.346619	9.97134	-0.94612	-0.304485	-0.0274583	-0.0405838	-0.013496	-0.886475	0.436035	-0.128662	0.915286	-0.11263	-0.286226	-0.260077	6.34074	-0.522992	8.87752	-0.0240764	0.00319241	-0.0451702	-0.31958	0.246094	-0.962891	-0.0203765	-0.108874	-0.948459	-0.296912	0.213364	5.40818	-7.63772	0.0165238	-0.035158	-0.00155114	-0.423828	-0.531982	0.890625	0.562083	-0.518252	-0.560555	-0.318206	9.5296	-2.26885	-1.24544	-0.0670369	0.0238013	0.0223317	-0.86084	0.590332	0.0678711	0.646157	-0.379884	-0.566792	-0.34193	9.75963	-1.7597	0.954098	-0.219218	-0.0040459	-0.00728671	-0.993408	0.520508	-0.304932	
36	0.586572	-0.363983	-0.449774	-0.566704	9.61536	0.804836	3.3559	-0.000214643	-0.0351858	-0.00809027	-0.835205	0.332764	-0.354248	0.650478	-0.358823	-0.499807	-0.445328	9.5566	-0.106736	2.65431	0.00190402	0.0104731	-0.0285191	-0.726562	0.309326	-0.302979	0.866803	-0.211725	-0.196294	-0.406564	5.43541	-1.94535	8.93203	-0.022077	-0.0300846	-0.0173715	-0.308838	0.452393	-0.864502	0.218464	0.0481823	-0.12124	-0.967085	-0.540114	2.44108	9.52363	0.0072065	0.0245184	-0.00137789	-0.345703	0.0319824	-0.984863	0.615516	-0.28933	-0.356803	-0.640406	8.01184	0.810628	5.89926	0.0017442	-0.0217859	-0.0472943	-0.772217	0.328369	-0.552246	0.988343	-0.000860883	0.135103	0.0701789	-3.30737	0.220511	12.859	-0.00456173	-0.00570507	-0.0295947	0.726074	-0.0957031	-0.774414	0.597678	-0.420332	-0.588592	-0.345921	9.73914	-1.02731	-0.406403	-0.0188946	-0.0919223	-0.00289208	-0.888672	0.433838	-0.120117	0.914977	-0.112453	-0.28642	-0.261026	6.46335	-0.600467	9.05275	-0.00313916	0.0231869	-0.059364	-0.314941	0.241699	-0.965332	-0.0205356	-0.109712	-0.94807	-0.297834	0.417351	5.06381	-7.88529	-0.0371068	0.00167667	0.0288471	-0.425781	-0.538818	0.888428	0.561132	-0.520374	-0.559332	-0.318573	9.25812	-2.40858	-1.75677	-0.0911909	-0.0240524	0.0259617	-0.854248	0.590576	0.0793457	0.646247	-0.379576	-0.566798	-0.342092	9.86234	-1.31598	0.486571	0.0144232	0.0251632	-0.0243767	-0.997803	0.520508	-0.313965	
37	0.586661	-0.363457	-0.45037	-0.566477	9.56293	0.880365	3.37429	0.0402887	0.00463402	-0.0115085	-0.833008	0.332764	-0.358643	0.650114	-0.359157	-0.500069	-0.445296	9.59093	-8.8754e-05	2.55094	-0.0189293	-0.0152461	-0.0162866	-0.72876	0.307129	-0.302979	0.866258	-0.2121	-0.197346	-0.407021	5.42124	-2.19898	8.98989	0.0156198	-0.0467077	-0.0280859	-0.315186	0.450439	-0.862305	0.218084	0.0489551	-0.121864	-0.967053	-0.428803	2.45622	9.54891	0.0574359	0.0308042	-0.0213496	-0.33667	0.0275879	-0.986816	0.615464	-0.288487	-0.357692	-0.640341	8.08418	1.14832	5.74362	0.0196429	0.0147228	-0.0336106	-0.771973	0.323975	-0.554443	0.988422	-0.00119049	0.134462	0.0702948	-3.33309	0.286655	12.9855	-0.0107842	-0.00712386	-0.014159	0.728027	-0.0957031	-0.772217	0.596372	-0.421746	-0.589399	-0.345077	9.82172	-0.806236	-0.530646	-0.0230415	-0.0668726	0.00169811	-0.888672	0.433838	-0.11792	0.914722	-0.112941	-0.286278	-0.261864	6.35337	-0.496339	8.85905	-0.036034	0.00926866	-0.0349287	-0.321777	0.248291	-0.965332	-0.0207729	-0.11094	-0.948069	-0.297364	0.279699	5.39408	-7.56211	0.00396978	-0.0164552	0.0186151	-0.416748	-0.531738	0.884033	0.560523	-0.520457	-0.55957	-0.319094	9.40546	-2.20892	-1.36787	-0.00357926	0.0130095	-0.00737057	-0.856445	0.592529	0.0722656	0.644136	-0.382424	-0.56524	-0.345463	9.80281	-1.01406	0.869454	0.011757	0.00226103	-0.0297161	-0.995605	0.518311	-0.307129	
38	0.586639	-0.36359	-0.450663	-0.56618	9.55055	0.997444	3.36046	-0.00963445	-0.0261265	0.00758928	-0.833008	0.334961	-0.356445	0.649245	-0.359834	-0.500556	-0.445471	9.7411	-0.113444	2.5395	-0.0280529	-0.0145066	-0.0419106	-0.737549	0.311279	-0.307861	0.865764	-0.211959	-0.198186	-0.407736	5.56134	-2.12812	9.14688	-0.00375283	-0.00595859	-0.0455411	-0.311035	0.450439	-0.864502	0.21746	0.0498723	-0.12221	-0.967103	-0.418209	2.46173	9.57471	0.010728	0.0284274	-0.0272896	-0.339111	0.0297852	-0.982666	0.614949	-0.288445	-0.357635	-0.640886	8.17565	0.994233	5.6106	-0.0123891	0.00275909	-0.0419599	-0.778564	0.328369	-0.556885	0.988498	-0.00126273	0.134237	0.069642	-3.40147	0.110431	12.8136	-0.000589187	0.00487308	-0.0520082	0.728027	-0.0935059	-0.776611	0.595327	-0.423038	-0.589779	-0.344654	9.8141	-0.855802	-0.394827	-0.00399604	-0.032934	-0.00376378	-0.895264	0.438232	-0.115967	0.914452	-0.113854	-0.286125	-0.262578	6.27508	-0.713784	8.81884	-0.018655	0.00363197	-0.0271478	-0.317627	0.250488	-0.969971	-0.0210438	-0.111599	-0.948047	-0.29717	0.110985	5.04259	-7.68477	0.0397353	-0.0212172	-0.00275326	-0.428467	-0.529785	0.890625	0.560233	-0.520936	-0.559292	-0.319308	9.34256	-2.12025	-1.6226	-0.0307282	0.0282513	0.0116048	-0.856445	0.592529	0.081543	0.643943	-0.38253	-0.564898	-0.346263	9.73743	-0.922733	0.523254	-0.064248	0.0194118	-0.0188074	-0.995605	0.520508	-0.304932	
39	0.585401	-0.364817	-0.45037	-0.566905	9.42934	0.879544	3.24893	-0.0795596	-0.0378408	-0.0314542	-0.835205	0.332764	-0.356445	0.648474	-0.360317	-0.500713	-0.446026	9.45822	-0.063307	2.46299	-0.0489904	-0.00725385	-0.0368085	-0.733398	0.315918	-0.298584	0.865764	-0.211959	-0.198186	-0.407736	5.56134	-2.12812	9.14688	-0.00375283	-0.00595859	-0.0455411	-0.311035	0.450439	-0.864502	0.216257	0.0497929	-0.122537	-0.967336	-0.398198	2.59468	9.54779	-0.00222596	-0.0131222	-0.0529861	-0.341309	0.0319824	-0.989258	0.614007	-0.288914	-0.357139	-0.641854	7.95082	1.10249	5.64743	-0.069749	0.01292	-0.0540816	-0.772217	0.330566	-0.559082	0.988593	-0.00127102	0.134156	0.0684473	-3.20757	0.107051	12.791	0.0280697	0.0163783	-0.0635397	0.72998	-0.0891113	-0.770264	0.5933	-0.425465	-0.589099	-0.34632	9.57378	-1.03837	-0.6256	-0.126224	-0.0241884	-0.0115775	-0.890869	0.438232	-0.109619	0.91425	-0.114078	-0.286244	-0.263053	6.33178	-0.392319	8.92743	-0.0274673	0.0296163	-0.0367288	-0.315186	0.246094	-0.960693	-0.0212662	-0.111891	-0.948233	-0.296449	0.373808	5.32154	-7.55334	0.0628774	-0.0242028	-0.00379391	-0.42627	-0.527344	0.892822	0.560189	-0.520885	-0.55905	-0.319891	9.28654	-2.19922	-1.35081	-0.0283227	0.0458237	-0.0170528	-0.858887	0.592529	0.074707	0.643203	-0.383243	-0.564866	-0.346902	9.86129	-1.12382	0.710385	-0.0309315	-0.00982901	-0.0133849	-0.998047	0.524902	-0.302734	
40	0.583778	-0.366421	-0.450194	-0.567683	9.66885	0.741359	3.23123	-0.0717843	-0.0569366	-0.0154831	-0.833496	0.341309	-0.352295	0.64798	-0.360715	-0.500734	-0.446399	9.60725	-0.112311	2.43434	-0.0565445	-0.0103585	-0.0407332	-0.733154	0.311523	-0.300781	0.86513	-0.211975	-0.197238	-0.409529	5.53638	-2.12894	8.80788	-0.0130017	0.0551993	-0.0440258	-0.315186	0.450439	-0.866943	0.215554	0.0494932	-0.12192	-0.967586	-0.480628	2.55021	9.40867	-0.0512944	-0.0145626	-0.0569987	-0.341064	0.0275879	-0.989014	0.61363	-0.289003	-0.356744	-0.642393	8.03274	0.888163	5.60032	-0.0503571	0.023256	-0.0495449	-0.77417	0.326172	-0.559082	0.988632	-0.000626747	0.134242	0.0677157	-3.3298	0.0833068	12.729	0.0637296	0.016444	-0.0664223	0.728271	-0.0979004	-0.776367	0.592826	-0.426063	-0.589033	-0.346508	9.69846	-1.05122	-0.541097	-0.0402158	-0.0169927	-0.00754886	-0.888916	0.44043	-0.109619	0.914183	-0.114406	-0.285928	-0.263489	6.17208	-0.463408	8.80794	-0.0372528	0.0347958	-0.0377176	-0.31543	0.248291	-0.965332	-0.021281	-0.112652	-0.947981	-0.296966	0.0915176	5.14535	-7.61775	-0.0322658	-0.00157874	0.0169063	-0.419434	-0.527344	0.892822	0.559675	-0.521227	-0.559251	-0.31988	9.40744	-2.19364	-1.65783	-0.0137574	-0.0381042	0.0111011	-0.856445	0.588135	0.0769043	0.644382	-0.381631	-0.565268	-0.345833	9.77576	-1.39955	0.592786	0.149495	0.040918	0.00276763	-0.997803	0.520508	-0.309326	
41	0.583288	-0.366996	-0.45018	-0.567826	9.71547	0.749352	3.15807	-0.0467067	-0.0418006	-0.0094566	-0.835693	0.339111	-0.345703	0.647338	-0.360973	-0.500561	-0.447315	9.66393	-0.0883501	2.6131	-0.0430542	0.0236078	-0.0491467	-0.724365	0.311523	-0.29834	0.864607	-0.211769	-0.196754	-0.41097	5.48243	-2.24226	8.74631	-0.00785762	0.0186875	-0.0557899	-0.310791	0.443848	-0.864502	0.214134	0.0494137	-0.121545	-0.967952	-0.38407	2.57235	9.35569	-0.0137382	-0.00457015	-0.0574885	-0.345947	0.0341797	-0.993652	0.612845	-0.289164	-0.356718	-0.643084	8.05953	1.23135	5.73977	-0.0480511	-0.00906345	-0.0563188	-0.77832	0.321777	-0.556885	0.98873	-0.00037998	0.134257	0.0662414	-3.29313	0.0995966	12.9226	0.00723216	0.0163403	-0.0745148	0.72998	-0.0913086	-0.774414	0.591487	-0.427073	-0.589309	-0.347085	9.87773	-0.795571	-0.463635	-0.0540603	-0.0343512	-0.0336635	-0.895508	0.442383	-0.105469	0.913834	-0.114541	-0.286408	-0.264118	6.4395	-0.630873	8.80225	-0.0021461	-0.00847997	-0.0444201	-0.319824	0.252686	-0.963135	-0.0219342	-0.113292	-0.947997	-0.296624	0.245707	5.32081	-7.55834	0.00660931	-0.0243973	-0.00619825	-0.421631	-0.527344	0.890625	0.559241	-0.522834	-0.558268	-0.319735	9.27708	-1.93521	-1.35227	-0.060013	0.0132621	0.0580099	-0.854492	0.594971	0.0769043	0.644889	-0.380908	-0.565633	-0.34509	9.58212	-0.521213	0.587286	0.0984926	0.0088028	0.00426212	-0.993408	0.518311	-0.307129	
42	0.582722	-0.367313	-0.449845	-0.568468	9.7025	0.867397	3.23571	-0.0352575	0.00595368	-0.0191752	-0.835205	0.330566	-0.3479	0.646735	-0.361388	-0.500108	-0.448358	9.66787	-0.0919159	2.48932	-0.0609307	0.0187558	-0.041413	-0.733154	0.309326	-0.300537	0.864033	-0.211799	-0.196633	-0.412217	5.58615	-2.12434	8.89284	-0.0239119	0.0114086	-0.0476189	-0.31958	0.448242	-0.857666	0.212792	0.0497145	-0.121202	-0.968276	-0.442454	2.51107	9.30183	-0.0175039	0.0102776	-0.0510933	-0.343506	0.0319824	-0.991455	0.611585	-0.289998	-0.355723	-0.644458	8.01699	0.685209	5.78479	-0.044181	0.0182432	-0.0499854	-0.77417	0.323975	-0.554443	0.988814	0.000225973	0.134183	0.0651273	-3.40972	0.206402	12.6556	0.0431432	0.0019493	-0.0510639	0.728027	-0.0913086	-0.772217	0.589744	-0.428599	-0.58971	-0.347487	9.71079	-0.946058	-0.634278	-0.0509073	-0.0571958	-0.0197123	-0.890869	0.436035	-0.0966797	0.913623	-0.114344	-0.286266	-0.265087	6.28642	-0.345735	8.97185	-0.0153972	0.0331191	-0.0527554	-0.317627	0.252686	-0.963135	-0.0223847	-0.114096	-0.947803	-0.296902	0.14284	5.10559	-7.80404	-0.00117431	-0.0265131	0.0136187	-0.416992	-0.525146	0.890625	0.558485	-0.523634	-0.558005	-0.320206	9.39076	-2.36466	-1.84545	-0.0383582	-0.0165803	0.00861734	-0.858643	0.588135	0.0837402	0.644543	-0.38137	-0.565528	-0.345396	9.94568	-1.07348	0.530055	-0.0161424	0.00752253	-0.0134028	-0.991455	0.5271	-0.311768	
43	0.582308	-0.367649	-0.449052	-0.569301	9.62514	0.80172	3.24686	-0.0502091	0.0218688	-0.00888792	-0.833008	0.33252	-0.341309	0.646256	-0.361451	-0.500002	-0.449115	9.52908	-0.0987964	2.55645	-0.0361333	0.0122646	-0.0481874	-0.73291	0.304932	-0.291016	0.863607	-0.211832	-0.196697	-0.413061	5.48098	-2.34628	8.78895	0.00743041	0.00644265	-0.028279	-0.31958	0.448486	-0.864502	0.211823	0.0497377	-0.121349	-0.968469	-0.224139	2.56378	9.60909	0.0128987	0.00839668	-0.037174	-0.345459	0.0275879	-0.991211	0.61129	-0.289085	-0.356624	-0.64465	8.03549	1.28656	5.81451	0.0131267	0.000794896	-0.0601314	-0.77832	0.321777	-0.547607	0.98897	0.000375413	0.133355	0.0644623	-3.29617	0.197732	12.9886	0.000186532	-0.0188428	-0.0409625	0.725586	-0.0891113	-0.781006	0.587615	-0.430087	-0.590599	-0.347743	9.78355	-0.812579	-0.69038	-0.0488953	-0.090847	-0.0242169	-0.886719	0.442383	-0.0925293	0.913154	-0.114918	-0.286487	-0.26621	6.56183	-0.689745	8.86728	-0.0200244	0.000923461	-0.0569584	-0.317383	0.246094	-0.969971	-0.0229962	-0.115202	-0.947764	-0.296553	0.343353	5.37554	-7.62152	0.00161909	-0.0217749	0.0163669	-0.421631	-0.529541	0.888428	0.557852	-0.525386	-0.557027	-0.320142	9.355	-2.28201	-1.2803	-0.0652684	0.00464677	0.0854039	-0.849854	0.594971	0.0791016	0.646404	-0.378692	-0.56642	-0.343399	9.48244	-1.43665	0.773538	0.246809	0.0387454	0.00751739	-0.993408	0.518311	-0.318604	
44	0.581739	-0.36754	-0.448282	-0.570559	9.42283	0.680819	3.31779	-0.0396967	0.0132686	-0.0457934	-0.839844	0.334717	-0.352295	0.645563	-0.361337	-0.500153	-0.450035	9.66302	-0.0112384	2.40508	-0.0283076	0.00536562	-0.0627207	-0.730713	0.304932	-0.295654	0.863544	-0.21106	-0.196549	-0.413658	5.67307	-2.00719	8.80839	0.0230807	0.0343121	-0.0259372	-0.315186	0.450439	-0.862305	0.211256	0.0501473	-0.120604	-0.968664	-0.54914	2.55257	9.36598	-0.031543	0.0238128	-0.0191202	-0.341064	0.0275879	-0.986816	0.610586	-0.289086	-0.355873	-0.645731	8.08084	0.807674	5.7741	-0.0171168	0.0423367	-0.0370449	-0.776123	0.317383	-0.552246	0.989081	0.00113381	0.132723	0.0640527	-3.39324	0.204564	12.7564	0.0479035	-0.0172982	-0.0231481	0.723633	-0.0891113	-0.774414	0.585489	-0.431899	-0.591095	-0.348243	9.71514	-0.769733	-0.724971	-0.0800896	-0.0483418	-0.0272633	-0.890869	0.436035	-0.090332	0.9131	-0.115034	-0.285948	-0.266925	6.28709	-0.584131	8.85504	-0.0132099	0.0427813	-0.028245	-0.328613	0.254883	-0.963135	-0.0226962	-0.115993	-0.947541	-0.29698	0.262915	4.89917	-7.80791	0.00899249	0.00877822	0.0173304	-0.424072	-0.527344	0.890625	0.557879	-0.526302	-0.556206	-0.320018	9.2347	-2.41525	-1.86545	-0.0133937	-0.00639782	0.0176843	-0.856445	0.590332	0.0861816	0.647582	-0.377241	-0.567047	-0.341738	9.9119	-1.13446	0.377906	0.0774423	0.0165091	0.00991297	-1	0.518311	-0.320801	
45	0.580647	-0.366891	-0.449077	-0.571463	9.79813	0.801071	3.27479	0.0193751	-0.0046617	-0.0727024	-0.839844	0.334717	-0.3479	0.64529	-0.361028	-0.49993	-0.450921	9.63955	-0.064725	2.63132	-0.0309872	0.038671	-0.042259	-0.730957	0.309326	-0.293457	0.863473	-0.210125	-0.197052	-0.414045	5.5033	-2.14235	8.77793	0.0516754	-0.00886668	-0.0287675	-0.315186	0.446045	-0.866699	0.210941	0.0511495	-0.120241	-0.968726	-0.472667	2.5868	9.45765	0.00698925	0.0599516	-0.0190565	-0.338867	0.0253906	-0.989014	0.610826	-0.287913	-0.355927	-0.645998	7.89103	1.33226	5.72725	0.000627928	0.0352862	-0.0384517	-0.775879	0.315186	-0.556885	0.989155	0.00194012	0.132227	0.0639087	-3.15298	0.100975	12.9803	0.0269879	0.00262429	-0.016659	0.727783	-0.0891113	-0.774414	0.583151	-0.433584	-0.591455	-0.349457	9.87843	-1.13592	-0.677333	-0.0829791	-0.0711144	-0.0388912	-0.890869	0.436035	-0.0881348	0.913024	-0.115659	-0.2856	-0.267288	6.55018	-0.741391	8.63772	-0.0171774	0.0198289	-0.0229695	-0.315674	0.254883	-0.965576	-0.0226077	-0.116553	-0.94758	-0.296641	0.0118143	5.42871	-7.60812	-0.000432357	0.00485752	-0.00446574	-0.428711	-0.527588	0.89502	0.557598	-0.526008	-0.557095	-0.319444	9.57874	-1.98124	-1.41698	0.0325448	-0.0143141	-0.0267585	-0.8479	0.597168	0.0812988	0.648876	-0.375172	-0.568076	-0.339847	9.89639	-0.419812	0.759149	0.0433568	-0.00493783	0.00117589	-0.995361	0.513916	-0.325195	
46	0.581145	-0.365202	-0.449586	-0.571638	9.52198	1.06438	3.34695	0.0599915	0.0340953	-0.013719	-0.837158	0.328369	-0.350098	0.645134	-0.360933	-0.49985	-0.451308	9.72945	-0.118547	2.58542	-0.00586828	0.0181937	-0.0332396	-0.73291	0.307129	-0.295898	0.863025	-0.209948	-0.19784	-0.414691	5.62083	-2.02036	9.09777	-0.0114436	-0.0179579	-0.0383009	-0.32373	0.446289	-0.864502	0.210337	0.052193	-0.120326	-0.968791	-0.502456	2.43377	9.39647	0.011746	0.0269273	-0.0267916	-0.339111	0.0297852	-0.989258	0.610292	-0.28795	-0.355747	-0.646586	8.00136	0.781791	5.7485	0.00948472	0.00439855	-0.038755	-0.776123	0.321777	-0.552246	0.989191	0.00190352	0.131931	0.0639715	-3.37879	0.190779	12.6168	-0.00350024	-0.00862143	-0.0123593	0.723389	-0.0869141	-0.781006	0.581979	-0.434486	-0.592188	-0.34905	9.76254	-0.777451	-0.731691	0.0013601	-0.0521691	-0.0166101	-0.893311	0.442383	-0.079834	0.913115	-0.114723	-0.285611	-0.26737	6.21088	-0.561523	8.85213	0.0491014	0.0156069	-0.0276657	-0.319824	0.252686	-0.963135	-0.0230781	-0.116319	-0.947496	-0.296965	0.00375159	5.0319	-7.66896	-0.00165084	-0.0145869	-0.0362405	-0.419434	-0.522705	0.892822	0.55747	-0.526476	-0.556744	-0.319509	9.26554	-2.15997	-1.77315	-0.0285945	0.0218873	0.0258459	-0.854492	0.597168	0.0881348	0.648872	-0.375055	-0.568164	-0.339838	9.79966	-1.0848	0.628908	0.0521381	0.0156018	-0.0121797	-0.993408	0.520508	-0.318604	
47	0.581655	-0.364835	-0.449532	-0.571396	9.54381	1.07671	3.32282	-0.00178062	0.013729	0.00854442	-0.837158	0.328369	-0.352051	0.64532	-0.36041	-0.499679	-0.45165	9.44736	0.0441564	2.46735	-0.00541633	0.0337585	-0.0336237	-0.730713	0.302734	-0.300293	0.862845	-0.209871	-0.197842	-0.415104	5.51551	-2.32001	8.869	0.0223199	0.0188801	-0.00777698	-0.325928	0.450684	-0.864502	0.209968	0.0521473	-0.119974	-0.968917	-0.239253	2.48592	9.63072	-0.0182419	0.00903524	-0.0108746	-0.334473	0.0275879	-0.991211	0.610268	-0.287388	-0.356316	-0.646545	7.99017	1.04199	5.75739	0.0565211	0.00700139	-0.0428085	-0.773926	0.317383	-0.549805	0.989249	0.00222691	0.131478	0.0639846	-3.29769	0.246652	12.9347	0.0220995	0.00342355	-0.0128209	0.728027	-0.0957031	-0.780762	0.57983	-0.435645	-0.593371	-0.349173	9.60048	-0.84247	-0.749897	-0.0345206	-0.085211	-0.0453008	-0.893066	0.437988	-0.0839844	0.91298	-0.114584	-0.286159	-0.267302	6.55911	-0.480804	8.96609	-0.0175095	0.0209489	-0.0114618	-0.317627	0.252686	-0.967773	-0.0233247	-0.115987	-0.94753	-0.296969	0.467221	5.39957	-7.69522	-0.0153249	0.0149698	-0.0276458	-0.421631	-0.527344	0.890625	0.557543	-0.527046	-0.556144	-0.319488	9.29973	-2.32896	-1.45891	0.0048805	0.0175095	0.0122473	-0.854248	0.592773	0.0859375	0.64951	-0.374151	-0.568551	-0.338966	9.73842	-0.734779	0.68814	0.0399269	0.00648214	0.00313824	-0.995361	0.516113	-0.320801	
48	0.581166	-0.364898	-0.44898	-0.572287	9.52743	0.933996	3.37555	-0.0420423	0.00117098	-0.0295711	-0.837158	0.328125	-0.3479	0.645231	-0.36031	-0.499724	-0.451807	9.62158	0.0477737	2.43203	-0.0104943	0.0159161	-0.0353918	-0.737305	0.304932	-0.295654	0.862972	-0.209443	-0.197785	-0.415084	5.66472	-2.08274	8.87242	0.0339635	0.0246178	0.00193417	-0.32373	0.448486	-0.862305	0.21025	0.0522376	-0.119831	-0.968869	-0.534616	2.5757	9.42578	-0.00490114	0.00899673	0.0198762	-0.339111	0.0297852	-0.99585	0.609995	-0.287149	-0.355992	-0.647087	7.98489	1.0575	5.75274	-0.0138831	0.0201506	-0.0271179	-0.776367	0.323975	-0.554443	0.989255	0.00231932	0.131409	0.0640371	-3.41535	0.231445	12.7969	0.0107672	0.00791127	-0.0112347	0.728027	-0.0913086	-0.774414	0.579463	-0.435354	-0.594131	-0.348852	9.74023	-0.908695	-0.678869	0.0508152	-0.0441973	-0.0518578	-0.89502	0.435791	-0.0732422	0.913066	-0.114619	-0.285882	-0.267293	6.32503	-0.723111	8.89634	-0.00306744	0.0373467	-0.00903606	-0.326416	0.254883	-0.963135	-0.0232152	-0.115918	-0.947361	-0.297543	0.205009	5.09506	-7.78316	-0.0412869	0.0209463	-0.0175378	-0.430908	-0.525146	0.892822	0.557473	-0.526812	-0.556519	-0.319343	9.32389	-2.3355	-1.78999	0.0260351	-0.00888106	-0.0184004	-0.861084	0.596924	0.0837402	0.650168	-0.37324	-0.56875	-0.338375	9.8569	-1.33681	0.740544	0.105452	0.0317069	-0.0100962	-0.995605	0.520508	-0.327637	
49	0.580598	-0.365259	-0.448968	-0.572643	9.57355	0.812692	3.28243	-0.0114576	-0.00996865	-0.00994767	-0.835205	0.330566	-0.3479	0.645331	-0.36001	-0.499536	-0.452111	9.69831	0.0188253	2.70342	-0.00611529	0.04265	-0.024415	-0.735107	0.304932	-0.302734	0.863306	-0.208941	-0.197646	-0.414708	5.53747	-2.14575	8.8583	0.0310614	0.0150629	0.0190213	-0.319336	0.444092	-0.862061	0.210412	0.0523661	-0.119836	-0.968826	-0.502067	2.67051	9.5575	0.00346187	0.0175779	0.0135333	-0.339111	0.0297852	-0.987061	0.610265	-0.287252	-0.355868	-0.646855	8.00105	1.27944	5.86047	-0.0108508	0.0039494	-0.00291875	-0.780518	0.31958	-0.554443	0.989257	0.00217184	0.131319	0.0642023	-3.14719	0.116363	13.0279	-0.00314135	0.0134641	-0.00627658	0.72583	-0.0957031	-0.778564	0.580846	-0.43315	-0.594747	-0.348245	9.90329	-0.829023	-0.692487	0.105594	0.0545763	-0.0391334	-0.88623	0.431641	-0.0795898	0.913154	-0.11387	-0.286201	-0.266968	6.49654	-0.446475	8.83175	0.0266434	0.0150401	-0.014335	-0.323975	0.248291	-0.960693	-0.0233089	-0.115534	-0.947506	-0.297224	0.212218	5.47153	-7.56886	0.0100225	0.0119956	-0.0391074	-0.421631	-0.527344	0.888428	0.557587	-0.527096	-0.556403	-0.318876	9.38975	-2.15079	-1.29807	-0.0052924	0.0122084	0.0504307	-0.852295	0.597168	0.0837402	0.650989	-0.37209	-0.569134	-0.337414	9.65339	-1.23836	0.953511	0.140609	0.0269109	0.00325212	-0.990967	0.516113	-0.329834	
50	0.580666	-0.365039	-0.449047	-0.572652	9.58361	0.793994	3.28693	0.0161012	0.00661144	-0.00859235	-0.836914	0.321777	-0.352051	0.645827	-0.359135	-0.499392	-0.452258	9.59013	0.0212805	2.39432	0.0328775	0.0345842	-0.0335698	-0.732666	0.300537	-0.302734	0.863521	-0.208277	-0.197358	-0.414731	5.58639	-1.88523	8.89535	0.00603194	0.0333054	-0.00313214	-0.32373	0.448486	-0.869141	0.210471	0.0526445	-0.118784	-0.968928	-0.631422	2.45737	9.32435	-0.0547593	0.019785	0.000872386	-0.339111	0.0341797	-0.993652	0.610545	-0.286584	-0.355868	-0.646887	8.02581	0.927425	5.87594	0.0557156	0.0423825	-0.0164297	-0.77832	0.31958	-0.552246	0.989225	0.00282746	0.131118	0.0650673	-3.28299	0.281066	12.7459	0.0349209	-0.00464826	0.0312909	0.72583	-0.0935059	-0.782959	0.581574	-0.431443	-0.596243	-0.346586	9.68052	-0.86022	-0.681114	0.160752	-0.0127683	-0.0377622	-0.899414	0.435791	-0.0795898	0.913545	-0.113173	-0.285822	-0.266334	6.39618	-0.722349	8.89928	0.0496761	0.0545607	0.0146746	-0.317627	0.248291	-0.974609	-0.0226233	-0.114655	-0.947297	-0.29828	0.420569	4.93057	-7.87413	-0.0137217	0.0481482	-0.0403359	-0.423828	-0.529785	0.888428	0.558217	-0.527027	-0.556089	-0.318435	9.20066	-2.48361	-1.853	0.0445385	0.013211	-0.00137758	-0.848145	0.60376	0.0812988	0.652194	-0.370523	-0.56981	-0.335665	9.88471	-0.994453	0.491626	0.0838061	0.0128054	0.0120015	-0.997559	0.513916	-0.327637	
51	0.580815	-0.36432	-0.450024	-0.572191	9.63258	0.86693	3.289	0.0544672	-0.0195907	-0.0183143	-0.841797	0.330322	-0.350098	0.64634	-0.358174	-0.499425	-0.45225	9.58407	0.0862383	2.71668	0.0247721	0.0387983	-0.0226044	-0.737305	0.302734	-0.302734	0.86386	-0.207547	-0.197042	-0.414541	5.5019	-2.25626	8.81084	0.0507533	0.0295826	0.016088	-0.31958	0.446289	-0.864502	0.210939	0.0527082	-0.117974	-0.968921	-0.376154	2.47396	9.60132	-0.0266928	0.0255328	0.023315	-0.327881	0.0322266	-0.993652	0.611367	-0.284863	-0.356179	-0.6467	7.90151	1.40688	5.80151	0.0239002	0.0515925	-0.0244328	-0.77832	0.31958	-0.561279	0.989263	0.0036183	0.130296	0.0660992	-3.11728	0.299635	13.0104	0.0252184	-0.0165025	0.0242483	0.723633	-0.0935059	-0.782959	0.584298	-0.427377	-0.597442	-0.344977	9.85407	-0.816725	-0.617898	0.204198	0.071851	-0.0505596	-0.89502	0.431641	-0.0881348	0.914129	-0.112499	-0.284987	-0.265507	6.40584	-0.61388	8.8307	0.0331817	0.0400487	0.0179247	-0.317627	0.250488	-0.979492	-0.0216185	-0.11383	-0.947136	-0.299181	0.172321	5.27703	-7.61187	-0.0665725	0.0705477	-0.0411559	-0.428711	-0.527344	0.888428	0.558577	-0.526491	-0.557143	-0.316845	9.4214	-2.14304	-1.42199	0.072457	-0.0399546	0.0304881	-0.8479	0.597168	0.0859375	0.65457	-0.367037	-0.571155	-0.332573	9.68431	-0.859498	0.781746	0.245519	0.0276262	0.01134	-0.99292	0.509521	-0.341064	
52	0.580998	-0.363062	-0.450914	-0.572105	9.43776	0.960448	3.34944	0.0512799	0.0070119	-0.0279121	-0.839111	0.321777	-0.352051	0.647076	-0.356673	-0.50013	-0.451605	9.63489	-0.0887437	2.55531	0.0831817	0.0184822	-0.0333204	-0.732666	0.29834	-0.30249	0.864397	-0.205912	-0.19737	-0.414081	5.62207	-1.90642	8.93322	0.0624037	0.0201325	0.00971967	-0.319336	0.439697	-0.866455	0.21194	0.0532002	-0.117162	-0.968775	-0.57845	2.49609	9.31734	-0.016096	0.0281602	0.0401142	-0.330322	0.0344238	-0.989258	0.611585	-0.284292	-0.355727	-0.646993	8.095	0.883167	5.82946	0.023574	0.0390869	-0.0105147	-0.773682	0.310791	-0.556885	0.989295	0.00383109	0.129592	0.0669899	-3.35237	0.205925	12.7232	-0.00311522	-0.0245853	0.0242817	0.723877	-0.0979004	-0.778564	0.588348	-0.422626	-0.597841	-0.343249	9.82281	-0.727777	-0.778076	0.255839	0.186911	-0.0533491	-0.896729	0.425049	-0.102783	0.91489	-0.11176	-0.284373	-0.263853	6.45667	-0.639492	8.79645	0.0514406	0.0553044	0.0536296	-0.313232	0.250488	-0.972412	-0.0204925	-0.112029	-0.947085	-0.300099	0.176355	5.24384	-7.61887	-0.0144546	0.0739412	-0.0783548	-0.426025	-0.536621	0.890625	0.559601	-0.525423	-0.557843	-0.315578	9.23759	-2.40383	-1.65678	0.0746433	0.00513549	0.0201988	-0.8479	0.599365	0.0791016	0.656172	-0.365121	-0.571877	-0.330275	9.79294	-1.80424	0.872861	0.147385	0.024063	0.0288687	-0.997559	0.511719	-0.341064	
53	0.580803	-0.362245	-0.452093	-0.571889	9.71939	0.941635	3.28519	0.0494398	-0.00952467	-0.0377061	-0.841553	0.323975	-0.352051	0.648214	-0.354499	-0.501057	-0.450657	9.46855	0.0600002	2.60275	0.107116	0.0432811	-0.0288453	-0.732666	0.29834	-0.312012	0.865002	-0.205102	-0.19691	-0.413438	5.49522	-2.21756	8.81411	0.0400917	0.0398805	0.0338706	-0.310791	0.439453	-0.871094	0.213062	0.0531954	-0.11577	-0.968696	-0.387416	2.59654	9.45135	-0.0743749	0.028935	0.0407882	-0.332764	0.0410156	-0.998047	0.61264	-0.281962	-0.356471	-0.646605	7.72056	1.08047	5.95851	0.095728	0.0661575	-0.018288	-0.769287	0.310791	-0.563721	0.989285	0.00477293	0.128773	0.0686257	-3.17813	0.242098	12.8678	0.0288211	-0.0278189	0.0618919	0.717773	-0.104248	-0.780518	0.590898	-0.41955	-0.597425	-0.343367	9.60439	-0.852597	-0.871632	0.13047	0.0553685	-0.0344788	-0.896973	0.427246	-0.10498	0.915935	-0.110254	-0.283557	-0.261731	6.39183	-0.672126	8.89624	0.0901719	0.0773219	0.0732383	-0.310791	0.244141	-0.977051	-0.0183809	-0.109728	-0.94691	-0.301635	0.421215	5.0834	-7.79337	-0.0458432	0.131321	-0.0798229	-0.425781	-0.538818	0.881836	0.5605	-0.52586	-0.55812	-0.312751	9.29871	-2.29832	-1.73804	0.104188	-0.0479303	0.0353554	-0.843506	0.60376	0.0881348	0.659501	-0.360336	-0.573797	-0.325536	9.88501	-0.130777	0.50889	0.203972	0.0198422	0.0352409	-0.99292	0.509521	-0.352539	
54	0.581474	-0.360097	-0.453063	-0.571797	9.57564	1.00841	3.38336	0.0990986	0.0348801	-0.0305395	-0.839111	0.31958	-0.354248	0.649451	-0.352155	-0.502358	-0.449262	9.73053	0.0792843	2.7461	0.11862	0.017886	-0.0209083	-0.734863	0.296143	-0.314209	0.8658	-0.203981	-0.197362	-0.412105	5.55398	-2.05515	8.8603	0.0730557	-0.00839996	0.0611351	-0.312988	0.4375	-0.873291	0.214813	0.0536773	-0.114607	-0.968421	-0.495218	2.30974	9.33757	-0.0172452	0.0440345	0.0788891	-0.330322	0.0341797	-0.987061	0.614533	-0.279638	-0.357253	-0.645385	7.89546	0.984125	5.82193	0.129738	0.0574261	0.0300637	-0.773438	0.308594	-0.565918	0.989187	0.00554038	0.127964	0.0714451	-3.34223	0.409763	12.781	-0.00783977	-0.0222268	0.102509	0.715576	-0.108643	-0.782471	0.593121	-0.415684	-0.598867	-0.34172	9.89744	-0.797256	-0.564963	0.204876	0.0637615	-0.0758308	-0.894531	0.423096	-0.113281	0.917224	-0.108811	-0.282718	-0.25871	6.15516	-0.561409	8.66821	0.104549	0.0333596	0.0975369	-0.306396	0.241699	-0.965332	-0.0167463	-0.106898	-0.947	-0.302461	-0.174268	5.08504	-7.51836	-0.0219441	0.100527	-0.117922	-0.427979	-0.543213	0.873047	0.561293	-0.522884	-0.561442	-0.310362	9.36915	-2.02128	-1.81714	0.183488	-0.0653217	-0.0798134	-0.8479	0.599365	0.0766602	0.661034	-0.358274	-0.574744	-0.323022	9.97309	-0.814378	0.722351	0.172435	0.0126537	0.0112821	-0.990234	0.500732	-0.354736	
55	0.582045	-0.358971	-0.453844	-0.571305	9.6703	1.08267	3.39795	0.122831	0.0192521	-0.0151477	-0.843018	0.312988	-0.354248	0.651077	-0.350037	-0.503292	-0.447515	9.58384	0.0954531	2.76218	0.122278	0.0377551	0.00610596	-0.732666	0.296143	-0.31665	0.86635	-0.203398	-0.198012	-0.410924	5.44131	-2.13868	8.96196	0.0927211	-0.0317786	0.0815326	-0.312744	0.430908	-0.87085	0.217455	0.054676	-0.114839	-0.967748	-0.468179	2.43691	9.55596	0.0241599	0.0621779	0.109097	-0.332764	0.0388184	-0.991455	0.615853	-0.278828	-0.357822	-0.644161	7.81026	1.14	5.93188	0.0345476	0.0142719	0.0363275	-0.764893	0.312988	-0.568115	0.989069	0.00497129	0.127295	0.0742524	-3.14205	0.39773	12.8684	-0.0401211	-0.00324296	0.09392	0.715576	-0.106445	-0.782471	0.594436	-0.413795	-0.599201	-0.341142	9.7741	-0.717563	-0.686774	0.0980976	0.0515429	-0.0263188	-0.894287	0.418701	-0.115479	0.917536	-0.108404	-0.28336	-0.257067	6.29578	-0.410209	8.5883	0.0875395	-0.0294957	0.0975785	-0.312988	0.241943	-0.974609	-0.016358	-0.105098	-0.947337	-0.302058	-0.130445	5.26166	-7.58213	0.0452769	0.075997	-0.14759	-0.428223	-0.538818	0.877441	0.561898	-0.521365	-0.562742	-0.309467	9.53847	-2.00809	-1.66722	0.168217	-0.0199033	-0.0647115	-0.847656	0.594971	0.0791016	0.660758	-0.35871	-0.574668	-0.323238	9.95887	-0.595831	0.675054	-0.146015	-0.0082719	-0.00678461	-0.988281	0.507324	-0.352539	
56	0.585115	-0.355391	-0.454808	-0.569638	9.29681	1.24244	3.52317	0.0999844	0.052967	0.0331858	-0.83667	0.317627	-0.367188	0.652331	-0.348565	-0.504278	-0.445724	9.5384	0.0907199	2.61385	0.105389	0.00325317	0.0102539	-0.732422	0.293945	-0.31665	0.867125	-0.203383	-0.199487	-0.408577	5.50958	-1.91537	9.23758	0.031531	-0.0592051	0.0849104	-0.317383	0.439697	-0.880127	0.219964	0.0548807	-0.115465	-0.967094	-0.607546	2.32448	9.57966	0.0170941	0.00435458	0.102774	-0.332764	0.0410156	-0.998047	0.617808	-0.277155	-0.359476	-0.642087	7.95554	1.1046	5.75805	0.167929	0.0168464	0.0408511	-0.769043	0.306396	-0.570557	0.988949	0.00408283	0.126537	0.0771486	-3.18052	0.289695	12.9035	-0.0471266	-0.0153271	0.095795	0.713623	-0.11084	-0.780273	0.59556	-0.411028	-0.600759	-0.339783	9.70861	-0.765511	-0.598789	0.151391	0.0165663	-0.0611234	-0.901123	0.422852	-0.117676	0.918216	-0.106674	-0.285346	-0.253136	6.21121	-0.222913	9.09616	0.0892811	-0.0529856	0.0372953	-0.3125	0.235352	-0.965088	-0.0164156	-0.101596	-0.947807	-0.30178	0.06235	5.35128	-7.65392	0.0155428	0.0334974	-0.142751	-0.430176	-0.545654	0.884033	0.563336	-0.51891	-0.563702	-0.309233	9.35777	-2.15885	-1.83871	0.0873542	0.0562397	-0.0643346	-0.852295	0.597168	0.0700684	0.658482	-0.362046	-0.573353	-0.326483	9.71219	-1.12214	0.65257	-0.189062	-0.00662002	-0.0272682	-0.988525	0.511719	-0.345703	
57	0.585785	-0.3548	-0.455078	-0.569102	9.33509	1.1889	3.50618	0.0785898	0.0204777	0.0253196	-0.832275	0.317627	-0.36499	0.652733	-0.348119	-0.504854	-0.444831	9.46798	0.12495	2.58889	0.082632	-0.00920928	0.00816797	-0.730225	0.291748	-0.314209	0.868144	-0.203457	-0.200016	-0.406109	5.43468	-1.96696	9.07676	0.0366411	-0.0184671	0.100446	-0.314941	0.435303	-0.875488	0.221054	0.0546303	-0.115564	-0.966848	-0.543311	2.40604	9.69929	0.00166964	-0.00370305	0.0932417	-0.332764	0.0388184	-0.991455	0.618732	-0.276378	-0.360205	-0.641122	7.82273	1.39786	5.68379	0.122757	0.0164782	0.0425335	-0.769287	0.312988	-0.574951	0.988865	0.0037672	0.126415	0.0784235	-3.05906	0.324526	12.9838	-0.0341597	0.0072365	0.0824508	0.722412	-0.115234	-0.782227	0.595931	-0.409971	-0.601593	-0.338934	9.68659	-0.714461	-0.67271	0.141515	-0.0086754	-0.043984	-0.900879	0.418701	-0.117432	0.918276	-0.106337	-0.285723	-0.252633	6.33837	0.00937347	9.08861	0.0489296	-0.00699597	0.0128398	-0.314697	0.235352	-0.974609	-0.0167442	-0.0997491	-0.948121	-0.301391	0.438259	5.64164	-7.49411	0.00482185	0.0167564	-0.0742447	-0.427979	-0.545654	0.881836	0.563949	-0.516976	-0.564567	-0.309775	9.33325	-2.3554	-1.48355	0.0448091	0.0295901	-0.0636208	-0.856689	0.594727	0.0700684	0.657463	-0.363581	-0.572666	-0.328032	9.806	-1.19354	1.01522	-0.196757	0.00154325	-0.0230548	-0.997803	0.516113	-0.343506	
58	0.586389	-0.354795	-0.455631	-0.568039	9.2873	1.10597	3.43313	0.0295535	-0.0404276	0.0290969	-0.832031	0.31543	-0.369141	0.653396	-0.347464	-0.505582	-0.443542	9.61581	0.186375	2.54093	0.0414325	0.0104846	0.000292552	-0.728271	0.296143	-0.321289	0.869044	-0.203437	-0.199546	-0.404423	5.4773	-1.86422	8.93307	0.0265104	0.0275993	0.0728531	-0.310791	0.435303	-0.873291	0.222843	0.0541174	-0.115429	-0.966483	-0.737139	2.38718	9.38129	-0.0160364	-0.00872717	0.0716516	-0.326416	0.0476074	-0.996094	0.620094	-0.276472	-0.360237	-0.639746	8.00207	1.22517	5.60059	0.0279467	0.0039662	0.0574352	-0.765137	0.317627	-0.574951	0.988667	0.00299816	0.126854	0.0802309	-3.08647	0.177693	12.8225	-0.0393757	0.0373244	0.0409819	0.713867	-0.115234	-0.784424	0.596024	-0.408932	-0.602355	-0.338672	9.77772	-0.572321	-0.477645	0.0329339	0.00735095	-0.0464426	-0.898682	0.420898	-0.121826	0.918362	-0.106288	-0.285491	-0.252606	6.11197	-0.550994	9.0424	0.0230739	0.0235326	-0.0156932	-0.314941	0.237549	-0.976807	-0.0168269	-0.0991305	-0.948002	-0.301965	0.41516	5.34811	-7.47069	-0.0213274	0.00963955	-0.0324281	-0.432373	-0.547852	0.881836	0.564477	-0.517356	-0.563663	-0.309828	9.09774	-2.28959	-1.53475	-0.0185524	0.043774	0.0447301	-0.849609	0.588379	0.0700684	0.658453	-0.362334	-0.572638	-0.327473	9.79309	-0.834503	0.759885	0.110963	0.0443523	-0.00957353	-0.99292	0.509521	-0.345703	
59	0.585387	-0.356033	-0.457451	-0.566834	9.8446	1.231	3.23956	0.00400111	-0.0512234	0.00560628	-0.838867	0.315186	-0.360596	0.654184	-0.346761	-0.505619	-0.442888	9.60301	0.207885	2.75736	0.0274739	0.0357346	-0.00291479	-0.734619	0.291748	-0.323486	0.869672	-0.203244	-0.199452	-0.403215	5.35579	-1.78898	8.92956	0.00832391	-0.00339245	0.0420633	-0.310791	0.439697	-0.87793	0.223777	0.0537997	-0.115348	-0.966294	-0.738409	2.50642	9.38972	0.00174802	0.00417582	0.024634	-0.328613	0.0476074	-0.991699	0.620961	-0.276737	-0.360181	-0.638822	7.92413	1.53843	5.71842	-0.00506589	0.00224324	0.0241643	-0.767334	0.317383	-0.574951	0.988519	0.00281068	0.127413	0.0811723	-2.84138	0.144551	12.9881	0.00650827	0.0411641	0.0126715	0.713867	-0.117432	-0.782227	0.596149	-0.408281	-0.602273	-0.339383	9.85299	-0.699739	-0.635931	0.0010054	0.0207019	-0.0448663	-0.898438	0.414307	-0.119629	0.918337	-0.105954	-0.285178	-0.253188	6.1778	-0.193392	9.11256	-0.0164664	0.036321	-0.0508334	-0.317139	0.237549	-0.976807	-0.0168351	-0.0996578	-0.947938	-0.301992	0.326269	5.62025	-7.44941	-0.02084	-0.00126521	0.00817142	-0.430176	-0.547852	0.879639	0.564403	-0.517826	-0.563065	-0.310265	9.43413	-2.27655	-1.37993	-0.0267253	0.0293836	0.019572	-0.852295	0.594971	0.067627	0.658493	-0.362788	-0.571961	-0.328075	9.97857	-0.665025	0.796882	-0.0260736	0.0132576	-0.00656523	-0.995117	0.509521	-0.3479	
60	0.585381	-0.356457	-0.457387	-0.566626	9.80212	1.21207	3.24249	-0.0149011	-0.0249592	0.0261405	-0.841064	0.315186	-0.360596	0.654506	-0.346486	-0.505311	-0.442979	9.72285	0.0840234	2.7363	-0.017846	0.0358	-0.0195334	-0.732666	0.296143	-0.31665	0.869408	-0.204241	-0.19929	-0.403359	5.41356	-1.79284	9.17116	-0.0450363	-0.00446404	-0.00828363	-0.308594	0.435059	-0.868652	0.223425	0.0533766	-0.115369	-0.966397	-0.757164	2.29298	9.4158	-0.00206786	-0.0154844	-0.0118763	-0.333008	0.0432129	-0.996094	0.620959	-0.276952	-0.360707	-0.638434	8.08288	1.27201	5.77265	0.039528	-0.0179699	-0.021143	-0.76709	0.312988	-0.574951	0.988501	0.00256186	0.127381	0.0814477	-3.04489	0.320184	12.8541	-0.0121782	0.000172813	-0.0154447	0.711426	-0.113037	-0.786621	0.596155	-0.408076	-0.602167	-0.339807	9.95506	-0.716402	-0.433197	0.00215656	0.0328347	-0.020587	-0.900879	0.418701	-0.115479	0.918122	-0.10586	-0.285062	-0.254135	6.2004	-0.360672	8.88784	-0.00226777	0.0248531	-0.0549322	-0.310547	0.235352	-0.967529	-0.0172083	-0.100473	-0.947712	-0.30241	0.139671	5.27746	-7.63842	0.0133276	-0.0305655	0.011513	-0.427979	-0.545654	0.877441	0.564158	-0.518515	-0.562333	-0.310887	9.40081	-2.32149	-1.65461	-0.0465668	0.0276928	0.0163967	-0.849854	0.594971	0.0722656	0.658434	-0.362929	-0.57172	-0.328454	9.88558	-1.43158	0.805481	-0.0306701	0.0247562	-0.0124414	-0.990723	0.511719	-0.350342	
61	0.585331	-0.357402	-0.456271	-0.566982	9.67382	1.11075	3.22223	-0.0698237	0.0188487	0.0162231	-0.83667	0.317383	-0.358398	0.654692	-0.346386	-0.504525	-0.443678	9.50831	0.207258	2.62139	-0.0358825	0.0495567	-0.0317931	-0.732422	0.293945	-0.32373	0.868861	-0.20524	-0.199003	-0.404172	5.39988	-1.99853	9.05766	-0.041449	0.00941091	-0.0304274	-0.310791	0.433105	-0.873291	0.22219	0.0525675	-0.115967	-0.966654	-0.541186	2.34322	9.72108	0.0241307	-0.0315453	-0.051998	-0.333008	0.0429688	-0.991699	0.619922	-0.277015	-0.361322	-0.639066	8.0322	1.38152	5.8938	-0.0383708	-0.0114986	-0.0702273	-0.769043	0.304199	-0.572754	0.988651	0.00239102	0.126689	0.08071	-3.09741	0.382153	13.1267	-0.00160113	-0.0100743	-0.054264	0.71167	-0.115234	-0.788818	0.596488	-0.40834	-0.600891	-0.34116	9.73538	-0.609463	-0.380449	-0.0387932	0.0680449	-0.0203115	-0.900635	0.414307	-0.119629	0.917752	-0.105697	-0.285292	-0.255281	6.47351	-0.444245	9.08101	0.00158834	0.0176859	-0.0584763	-0.308594	0.239746	-0.977051	-0.0176378	-0.10148	-0.947487	-0.302753	0.525884	5.32731	-7.75379	-0.00947115	-0.0159976	0.0192242	-0.427734	-0.547852	0.884277	0.563996	-0.519916	-0.56075	-0.311698	9.27851	-2.37469	-1.47314	-0.0624324	0.0490896	0.0357259	-0.852295	0.594971	0.0700684	0.658715	-0.362511	-0.571554	-0.328643	9.72681	-0.848399	0.786094	-0.0341555	0.0136469	-0.0105016	-0.99292	0.509521	-0.3479	
62	0.584698	-0.358378	-0.454535	-0.568412	9.48938	0.929748	3.33863	-0.10127	0.0163833	-0.0121798	-0.839111	0.321777	-0.360596	0.654309	-0.346574	-0.503889	-0.444816	9.66246	0.137718	2.64857	-0.0541598	0.0344858	-0.0459201	-0.730225	0.291748	-0.318848	0.868398	-0.205143	-0.198293	-0.405562	5.53688	-1.90521	8.95726	-0.014125	0.0459369	-0.0561082	-0.308594	0.437256	-0.875732	0.220705	0.0520412	-0.115529	-0.967075	-0.665898	2.40136	9.56029	-0.0287459	-0.0160221	-0.057506	-0.332764	0.0385742	-0.989258	0.619053	-0.277115	-0.360885	-0.640111	8.03672	1.1617	5.82026	-0.026476	0.0224126	-0.0509507	-0.76709	0.313232	-0.577393	0.988801	0.00291967	0.126297	0.0794528	-3.20173	0.368044	12.9703	0.0450414	-0.00289663	-0.0667468	0.713623	-0.11084	-0.784668	0.596198	-0.408779	-0.600267	-0.342238	9.86488	-0.667619	-0.66785	-0.041279	0.0445596	-0.026522	-0.900635	0.414307	-0.119629	0.9176	-0.106302	-0.284342	-0.256633	6.24062	-0.569484	8.90189	-0.0389805	0.0356531	-0.056923	-0.306396	0.239746	-0.979248	-0.0175099	-0.10299	-0.947212	-0.30311	0.236475	5.20986	-7.62254	-0.0155239	-0.00660321	0.0435214	-0.430176	-0.545654	0.875244	0.563745	-0.52015	-0.560419	-0.312354	9.31341	-2.40748	-1.67083	-0.0335528	0.00228662	0.0117227	-0.852295	0.597168	0.0700684	0.658997	-0.362064	-0.571427	-0.32879	9.8525	-1.36122	0.740738	0.0508944	0.0351644	-0.0138145	-0.995361	0.511719	-0.350342	
63	0.583719	-0.358796	-0.453748	-0.569781	9.64324	0.895928	3.3251	-0.0475425	0.0159584	-0.0415104	-0.839111	0.31958	-0.356445	0.654341	-0.346332	-0.503075	-0.445879	9.52857	0.129041	2.70629	-0.0333258	0.0572682	-0.03467	-0.732422	0.289551	-0.318848	0.867968	-0.204505	-0.197604	-0.407138	5.48	-2.02965	8.96607	0.00479998	0.0474584	-0.0580041	-0.308594	0.437256	-0.87793	0.219067	0.0521479	-0.11509	-0.967494	-0.529504	2.50836	9.58186	-0.00798404	0.0120878	-0.0739789	-0.333008	0.0429688	-0.984863	0.618232	-0.27743	-0.359516	-0.641537	7.85769	1.19895	5.95207	-0.0911522	0.0422343	-0.0493279	-0.771484	0.315186	-0.572754	0.988871	0.00391317	0.126484	0.0782315	-3.0817	0.274517	12.9963	0.0461817	0.0253636	-0.0498861	0.711182	-0.106445	-0.784668	0.595902	-0.409951	-0.59897	-0.343623	9.77355	-0.831168	-0.497619	-0.0568302	0.0264061	0.00305118	-0.898682	0.416504	-0.121826	0.917627	-0.106247	-0.283382	-0.257619	6.25552	-0.576338	8.9532	-0.0138856	0.0628014	-0.0478381	-0.308594	0.244141	-0.977051	-0.0174025	-0.104292	-0.94711	-0.302989	0.244034	5.45434	-7.51107	-0.00596494	-0.00146222	0.0307078	-0.430176	-0.547852	0.879639	0.563533	-0.520144	-0.560379	-0.312819	9.39283	-2.11242	-1.43624	-0.00388612	0.0287316	-0.0389695	-0.854492	0.594971	0.0700684	0.659027	-0.361884	-0.57141	-0.328959	9.83943	-0.62484	0.743447	-0.0588968	-0.000816106	-0.0119503	-0.99292	0.509521	-0.350342	
64	0.583689	-0.358178	-0.453553	-0.570355	9.5896	1.03988	3.39461	0.0125626	0.0168112	-0.0135525	-0.838867	0.31958	-0.360596	0.654188	-0.346608	-0.502483	-0.446555	9.58858	0.0169392	2.56653	-0.0752178	0.0475524	-0.0316508	-0.730225	0.291748	-0.318848	0.867705	-0.204215	-0.197261	-0.40801	5.63145	-1.96778	9.014	-0.00611918	0.0478342	-0.0667379	-0.310791	0.44165	-0.880371	0.217474	0.0520295	-0.11393	-0.967997	-0.454098	2.42043	9.46688	-0.0505008	-0.00599958	-0.0576787	-0.330811	0.0454102	-0.993896	0.61812	-0.277346	-0.358828	-0.642067	7.88722	1.01434	5.80694	-0.0497288	0.0543089	-0.0336449	-0.769287	0.312988	-0.570557	0.988868	0.00453422	0.126696	0.0779008	-3.19776	0.274463	12.7786	0.0584775	0.0270777	-0.034941	0.71582	-0.113037	-0.782471	0.596088	-0.410244	-0.598429	-0.343891	9.82386	-0.82094	-0.477258	-0.0203154	0.0478324	0.00788077	-0.900635	0.414307	-0.121826	0.91751	-0.106026	-0.28347	-0.25803	6.19758	-0.539992	8.85086	0.0128843	0.0151394	-0.0527053	-0.310547	0.237549	-0.976807	-0.0173894	-0.104767	-0.946905	-0.303468	0.0363598	5.17519	-7.71368	-0.0350145	-0.000705231	0.0210171	-0.432617	-0.543457	0.877441	0.563228	-0.51979	-0.560692	-0.313397	9.50657	-2.24055	-1.76355	-0.0123383	0.0161543	-0.0595243	-0.854492	0.594971	0.0744629	0.658076	-0.362746	-0.571127	-0.330403	9.82563	-0.995623	0.711841	-0.058944	0.00551994	-0.0385664	-0.99292	0.511719	-0.345703	
65	0.584057	-0.357771	-0.453511	-0.570268	9.68868	1.12463	3.40397	0.0311046	0.0287865	0.00647799	-0.839111	0.321777	-0.358643	0.654086	-0.347178	-0.502142	-0.446646	9.57044	0.0434655	2.77501	-0.0131332	0.0131867	0.000404052	-0.730225	0.291748	-0.318848	0.867212	-0.204424	-0.196494	-0.409322	5.51762	-2.25622	9.10333	-0.0304357	0.0288354	-0.0326565	-0.308594	0.44165	-0.868896	0.216828	0.0516924	-0.113864	-0.968168	-0.305784	2.357	9.50191	-0.0087061	-0.0260588	-0.0489293	-0.333008	0.045166	-0.991699	0.618045	-0.276883	-0.358387	-0.642584	7.75573	1.20768	5.8608	-0.0221592	0.0220385	-0.0341455	-0.77124	0.308594	-0.574951	0.988854	0.00556071	0.127139	0.0772838	-3.21216	0.372021	12.8077	0.0276335	0.0328951	-0.0356092	0.709229	-0.108643	-0.788818	0.59689	-0.410764	-0.596422	-0.345362	9.90208	-0.881173	-0.469905	-0.0413748	0.099672	0.0155379	-0.898682	0.416504	-0.130371	0.91725	-0.105876	-0.283654	-0.25881	6.41933	-0.455053	9.01867	-0.00937394	0.0192193	-0.0491721	-0.310547	0.237549	-0.972168	-0.0179999	-0.105573	-0.946853	-0.303314	0.275322	5.46305	-7.58672	-0.00564996	-0.0219288	0.0074787	-0.425537	-0.543213	0.877441	0.563088	-0.518929	-0.560806	-0.314868	9.32402	-2.09031	-1.41956	-0.0109853	0.0484368	-0.0721262	-0.856201	0.585938	0.0771484	0.656938	-0.364012	-0.570818	-0.331804	9.7535	-0.610765	0.719171	-0.168979	-0.0209809	-0.0420263	-0.990723	0.509521	-0.345703	
66	0.585166	-0.357471	-0.452731	-0.569938	9.45245	1.07133	3.4255	0.00176407	0.0313628	0.0414565	-0.841064	0.315186	-0.358398	0.654428	-0.347534	-0.501617	-0.446459	9.56227	-0.0306667	2.70801	-0.0234998	0.0257633	0.0132412	-0.726074	0.296143	-0.32373	0.867158	-0.205081	-0.195004	-0.409819	5.53922	-2.24165	9.00185	-0.0617107	0.0548496	0.0128707	-0.302246	0.44165	-0.868896	0.216277	0.0501734	-0.113442	-0.96842	-0.245025	2.378	9.52581	-0.0432599	-0.0593192	-0.00131591	-0.335449	0.0473633	-0.993896	0.617749	-0.27766	-0.357549	-0.643	7.83563	0.941904	5.82569	-0.0360865	0.00779686	-0.00566041	-0.769043	0.308594	-0.570557	0.98882	0.00590569	0.127723	0.0767234	-3.29851	0.36072	12.8105	0.0346326	0.0364379	-0.0342178	0.716064	-0.117432	-0.782227	0.597738	-0.411067	-0.595321	-0.345434	9.75276	-0.738687	-0.466563	-0.0126825	0.0404309	0.0119396	-0.898682	0.418701	-0.128174	0.916955	-0.105697	-0.283756	-0.259814	6.18072	-0.283743	9.02532	-0.000363057	0.0185519	-0.0561264	-0.310303	0.233154	-0.969727	-0.0182869	-0.106621	-0.946695	-0.303424	0.390817	5.21638	-7.66151	0.0205235	-0.021612	0.0223758	-0.425781	-0.541016	0.872803	0.563106	-0.517362	-0.561003	-0.317054	9.32783	-2.40185	-1.62978	-0.00904637	0.0668013	-0.0866073	-0.858398	0.58374	0.0656738	0.653596	-0.367989	-0.569667	-0.335968	9.90272	-1.23588	0.631087	-0.233196	-0.0212496	-0.0554759	-0.993164	0.516113	-0.334473	
67	0.58566	-0.357678	-0.451879	-0.569978	9.47438	1.0534	3.38526	-0.024171	0.0245622	0.0232451	-0.834717	0.321777	-0.358643	0.655003	-0.347993	-0.500904	-0.446058	9.43609	0.0802659	2.725	-0.0225249	0.0303289	0.0213571	-0.730225	0.293945	-0.321289	0.867582	-0.205505	-0.193344	-0.409497	5.30559	-2.08308	8.9349	-0.0191568	0.0573198	0.0406895	-0.304443	0.439453	-0.866455	0.216255	0.0482628	-0.113225	-0.968548	-0.3945	2.35017	9.49451	-0.0140985	-0.0648524	0.00625714	-0.3396	0.045166	-0.991699	0.618115	-0.278132	-0.356627	-0.642957	7.87939	1.06791	5.83321	-0.0457326	0.0294383	0.0205822	-0.767334	0.315186	-0.568115	0.988725	0.00639016	0.128595	0.0764502	-3.29193	0.34691	12.8396	0.0228341	0.0502738	-0.0211299	0.71582	-0.11084	-0.784668	0.59831	-0.41125	-0.594146	-0.346251	9.67838	-0.753551	-0.391949	-0.0155112	0.0722071	-0.00445053	-0.902832	0.414307	-0.132324	0.916456	-0.106833	-0.2837	-0.26117	6.15808	-0.351848	8.84286	-0.0486445	-0.00371341	-0.0607044	-0.317139	0.237549	-0.972168	-0.0187076	-0.108102	-0.946587	-0.303211	0.159177	5.50359	-7.34929	-0.00499956	-0.0301832	0.0339949	-0.42334	-0.545654	0.879639	0.562621	-0.515902	-0.562083	-0.31838	9.3669	-2.03513	-1.34441	0.00630024	0.0248864	-0.0972172	-0.858398	0.58374	0.0725098	0.651189	-0.370719	-0.568725	-0.339224	9.67077	-0.974691	0.802833	-0.216676	-0.0133445	-0.0388864	-0.993164	0.513916	-0.332031	
68	0.586243	-0.358615	-0.450254	-0.570075	9.49283	0.942744	3.44306	-0.0618157	0.0246603	0.0559168	-0.839355	0.328369	-0.363037	0.655177	-0.348916	-0.499747	-0.446378	9.4812	-0.11907	2.75123	-0.0633455	0.0378692	0.00511168	-0.728516	0.300293	-0.323975	0.867809	-0.20607	-0.19142	-0.409635	5.15862	-2.0086	8.93625	-0.0485185	0.0658999	0.0110273	-0.302246	0.445801	-0.866699	0.215811	0.0467629	-0.112467	-0.968809	-0.478897	2.19151	9.39969	-0.0399946	-0.0414823	-0.0180402	-0.342041	0.0495605	-0.987305	0.618494	-0.278992	-0.35527	-0.642971	7.90216	1.03448	5.79934	-0.0468469	0.0221751	0.0197801	-0.769775	0.321777	-0.574951	0.988574	0.00734348	0.129947	0.0760357	-3.2191	0.39298	12.7907	0.042461	0.0664324	-0.0297103	0.722656	-0.119629	-0.784424	0.599224	-0.411103	-0.592933	-0.346924	9.75922	-0.800674	-0.325288	0.00204112	0.0813174	-0.00322738	-0.898926	0.423096	-0.138916	0.915824	-0.106933	-0.283982	-0.263031	6.06689	-0.387573	8.84069	0.00222223	0.0106101	-0.0945104	-0.314697	0.235352	-0.972168	-0.0196127	-0.109666	-0.946281	-0.303547	0.147085	5.32165	-7.41291	-0.00643189	-0.054111	0.0322435	-0.425537	-0.543213	0.877441	0.561664	-0.51699	-0.561313	-0.31966	9.33686	-2.09195	-1.53854	-0.10143	0.0176019	0.0203971	-0.862793	0.581543	0.0749512	0.649412	-0.372894	-0.567676	-0.34199	9.7734	-1.19076	0.809785	-0.124471	0.0184019	-0.0328874	-0.997559	0.513916	-0.322998	
69	0.586469	-0.359962	-0.448203	-0.570609	9.50859	0.837402	3.49507	-0.0916185	0.0257059	0.0376516	-0.835205	0.330566	-0.363037	0.655303	-0.349513	-0.498442	-0.447185	9.5598	-0.00689606	2.76875	-0.0672472	0.0589748	-0.0119754	-0.724121	0.30249	-0.323975	0.867711	-0.205969	-0.19026	-0.410433	5.15369	-2.05065	8.91141	-0.0108586	0.0467596	-0.0252344	-0.302246	0.443848	-0.871338	0.214691	0.0459342	-0.112109	-0.969139	-0.414984	2.22619	9.39943	-0.0162849	-0.0227099	-0.0486582	-0.35083	0.045166	-0.985107	0.61835	-0.279972	-0.353807	-0.64349	7.96129	1.13398	5.7726	-0.0844216	0.0192565	-0.00850855	-0.769775	0.321777	-0.570557	0.988485	0.00789612	0.131156	0.0750519	-3.20917	0.359078	12.7961	0.0383475	0.056209	-0.0618695	0.718018	-0.11084	-0.778076	0.599586	-0.411468	-0.5915	-0.348308	9.71979	-0.789526	-0.392455	-0.0446122	0.0514791	-0.0180237	-0.892334	0.423096	-0.134766	0.914974	-0.106626	-0.285004	-0.265002	6.42669	-0.238018	8.98638	-0.0141151	-0.0165091	-0.104664	-0.319336	0.237549	-0.976807	-0.0211002	-0.111299	-0.945858	-0.304171	0.342129	5.42567	-7.6038	-0.0370414	-0.0662721	0.0288167	-0.428223	-0.538818	0.88623	0.560381	-0.519484	-0.55959	-0.320888	9.41385	-2.2407	-1.44843	-0.133779	0.0108511	0.0590153	-0.86084	0.585938	0.074707	0.648777	-0.373707	-0.566903	-0.343587	9.71777	-1.06582	0.693666	-0.0580742	0.025753	-0.0227012	-0.995361	0.513916	-0.325195	
70	0.585882	-0.361866	-0.446049	-0.571695	9.54555	0.752892	3.46431	-0.131696	0.00346644	0.0230435	-0.834961	0.326172	-0.358643	0.654744	-0.350643	-0.496978	-0.448746	9.52165	-0.0387131	2.78399	-0.11763	0.0262177	-0.0343761	-0.726318	0.302734	-0.314453	0.867115	-0.20621	-0.189277	-0.412022	5.2065	-2.04446	9.0271	-0.0447103	0.0457984	-0.0606455	-0.300293	0.447998	-0.866699	0.213012	0.0453776	-0.111573	-0.969597	-0.436212	2.25905	9.48232	-0.0207221	-0.0195313	-0.0739165	-0.342041	0.0473633	-0.987305	0.618018	-0.280564	-0.353036	-0.643975	8.01167	1.14755	5.82789	-0.0908022	0.0167657	-0.0211633	-0.763184	0.321777	-0.572754	0.988529	0.00875363	0.13181	0.0732053	-3.16341	0.349307	12.8745	0.0439452	0.027966	-0.0899099	0.724365	-0.11084	-0.778076	0.598856	-0.412345	-0.590826	-0.349667	9.81601	-0.651835	-0.225117	-0.0819547	0.0149935	-0.0226673	-0.896973	0.425293	-0.134766	0.914274	-0.106938	-0.285154	-0.267123	6.31719	-0.589544	9.00847	-0.0172717	0.00381595	-0.0984153	-0.314941	0.237549	-0.969971	-0.02229	-0.112919	-0.945495	-0.304616	0.321371	5.45519	-7.60883	-0.0169114	-0.052098	0.032356	-0.427979	-0.543213	0.879639	0.55936	-0.521746	-0.557835	-0.322053	9.36403	-2.28223	-1.46191	-0.125167	0.0111923	0.0527073	-0.858643	0.588135	0.0793457	0.648527	-0.373789	-0.566797	-0.344143	9.87329	-1.26052	0.834131	0.0115652	0.0162417	-0.0189261	-0.995117	0.505127	-0.322754	
71	0.584794	-0.363791	-0.443608	-0.573484	9.51795	0.593364	3.47291	-0.147674	0.0218609	-0.00672916	-0.826416	0.334961	-0.354248	0.653925	-0.351133	-0.495666	-0.451001	9.57367	-0.0522504	2.83284	-0.104717	0.0689232	-0.0759599	-0.726318	0.30249	-0.321533	0.866371	-0.205646	-0.188549	-0.414198	5.25643	-2.05488	8.85323	0.00686979	0.0549818	-0.0904346	-0.302246	0.445801	-0.871338	0.210708	0.0453881	-0.110586	-0.970213	-0.431429	2.20893	9.42394	-0.0472063	0.012989	-0.0964662	-0.348633	0.0473633	-0.991699	0.61571	-0.281588	-0.351584	-0.646527	8.00116	1.0453	5.97992	-0.0679186	0.0106447	-0.086819	-0.765137	0.317383	-0.568115	0.988692	0.00966636	0.131698	0.0710727	-3.28557	0.461847	12.8872	0.0614498	-0.00282869	-0.0956911	0.720459	-0.117432	-0.773682	0.598295	-0.413318	-0.589667	-0.351431	9.83213	-0.724586	-0.324651	-0.0651858	0.0373131	-0.0306721	-0.896729	0.423096	-0.128418	0.913807	-0.106512	-0.285223	-0.268813	6.30509	-0.546065	9.00044	-0.00527727	0.0343254	-0.0762757	-0.317139	0.237549	-0.974609	-0.0229978	-0.114251	-0.945025	-0.305525	0.40662	5.21608	-7.73075	-0.0351168	-0.0288373	0.0208796	-0.430664	-0.536621	0.881836	0.558593	-0.523831	-0.556383	-0.32251	9.30493	-2.344	-1.49559	-0.0657091	0.0216767	0.0466694	-0.856201	0.586182	0.081543	0.649308	-0.372482	-0.567281	-0.34329	9.71149	-1.10382	0.826532	0.145105	0.0283226	-0.0118913	-0.997803	0.516113	-0.325195	
72	0.582965	-0.366299	-0.441612	-0.575287	9.68825	0.756352	3.32689	-0.176592	-0.0329291	-0.0124514	-0.837646	0.334717	-0.354492	0.653283	-0.350669	-0.493719	-0.454415	9.5158	-0.0497499	2.90319	-0.110882	0.115747	-0.114847	-0.726074	0.296143	-0.326172	0.86602	-0.204985	-0.188235	-0.415402	5.21976	-2.05867	8.80994	0.01469	0.0628986	-0.0981552	-0.302246	0.445801	-0.875977	0.208509	0.0464071	-0.10881	-0.97084	-0.320993	2.24133	9.49538	-0.0647937	0.0686927	-0.0969576	-0.337646	0.0495605	-0.987305	0.615005	-0.281452	-0.351232	-0.647448	8.09949	1.02799	6.06561	-0.0548395	0.0326162	-0.0919631	-0.762939	0.31958	-0.570557	0.988984	0.0112008	0.130541	0.0688766	-3.30954	0.491117	12.9877	0.0784489	-0.0501585	-0.0941159	0.720215	-0.115234	-0.782227	0.59799	-0.413705	-0.588972	-0.352659	9.86501	-0.567578	-0.268671	-0.0901614	0.0612889	-0.0422519	-0.896973	0.425293	-0.132568	0.913684	-0.106498	-0.285197	-0.269263	6.42653	-0.494863	9.09295	-0.00646143	0.0195249	-0.0503536	-0.323486	0.235352	-0.969727	-0.0230255	-0.114774	-0.944948	-0.305565	0.450001	5.20028	-7.6383	0.000522172	-0.00893177	0.0211367	-0.421143	-0.541016	0.879639	0.558626	-0.524699	-0.55566	-0.322289	9.11656	-2.5361	-1.41973	-0.0432844	0.0132989	0.0827115	-0.856689	0.594727	0.0837402	0.654652	-0.364517	-0.570425	-0.336413	9.92661	-0.763228	0.543111	0.470825	0.0490963	0.00989188	-0.994873	0.50293	-0.343262	
73	0.581104	-0.368503	-0.438394	-0.578217	9.81269	0.493271	3.42731	-0.196558	0.0583045	-0.0320471	-0.828857	0.339355	-0.352295	0.652829	-0.349777	-0.493138	-0.456383	9.49177	-0.121501	2.88241	-0.0738065	0.113496	-0.156741	-0.723877	0.29834	-0.321533	0.865414	-0.201823	-0.188264	-0.41819	5.08045	-2.06826	8.76999	0.113546	0.0680952	-0.140107	-0.300049	0.443604	-0.875732	0.207487	0.0475731	-0.107477	-0.971151	-0.363733	2.18116	9.38579	-0.0819497	0.108088	-0.098206	-0.337891	0.0517578	-0.987305	0.613038	-0.280365	-0.350585	-0.650131	8.07436	1.0709	6.24938	-0.0576175	0.0620654	-0.152647	-0.769287	0.315186	-0.568115	0.989186	0.012255	0.1294	0.0679503	-3.32078	0.499092	12.9524	0.0910018	-0.0847081	-0.0785644	0.720215	-0.113037	-0.775879	0.59702	-0.414958	-0.587415	-0.355417	9.80942	-0.663836	-0.190574	-0.071026	0.040439	-0.0503079	-0.894531	0.420898	-0.136719	0.913675	-0.108199	-0.283997	-0.269884	6.40874	-0.359381	9.05961	-0.102169	0.0611436	-0.00320899	-0.310547	0.237549	-0.976807	-0.0221619	-0.115719	-0.9449	-0.30542	0.216177	5.41964	-7.80669	0.0281342	0.0263757	0.0348169	-0.430176	-0.543457	0.881836	0.558448	-0.525832	-0.555691	-0.320692	9.52418	-2.30617	-1.67778	0.042306	-0.0545405	0.0041368	-0.854492	0.594971	0.0837402	0.656715	-0.361793	-0.571359	-0.333738	9.93961	-0.628998	0.857352	0.351955	0.0477414	0.0394592	-0.990723	0.509521	-0.345703	
74	0.580372	-0.368812	-0.436795	-0.579962	9.60371	0.483739	3.55364	-0.170581	0.0833411	-0.0578608	-0.835449	0.334717	-0.354248	0.651627	-0.347733	-0.492548	-0.460284	9.56117	0.101282	2.91124	-0.0563779	0.0972418	-0.176172	-0.728027	0.291748	-0.328369	0.864427	-0.198067	-0.190212	-0.421135	5.32055	-1.88318	8.92072	0.140259	0.00848429	-0.164285	-0.304199	0.430908	-0.877686	0.205624	0.0512795	-0.10512	-0.971617	-0.519629	2.20891	9.51539	-0.0428683	0.171514	-0.0948169	-0.328857	0.0498047	-0.989502	0.611312	-0.277332	-0.350328	-0.653188	7.87277	1.01669	6.14018	0.0356183	0.110636	-0.179153	-0.769043	0.308594	-0.572754	0.989664	0.0152051	0.12613	0.0665224	-3.24773	0.6341	12.9229	0.111741	-0.134196	-0.05117	0.709473	-0.115234	-0.786621	0.59541	-0.415122	-0.587433	-0.357887	9.92319	-0.86064	-0.379785	-0.120608	-0.000144729	-0.0904878	-0.894531	0.420898	-0.132568	0.913734	-0.108798	-0.283408	-0.270063	6.46247	-0.400947	9.08086	-0.0562155	0.0488204	-0.00826107	-0.315186	0.243896	-0.967529	-0.0206612	-0.116819	-0.944695	-0.305742	0.202779	5.61365	-7.6125	-0.0237874	0.0696697	0.0493897	-0.427979	-0.541016	0.88623	0.558343	-0.525337	-0.55789	-0.317857	9.57357	-2.07027	-1.30599	0.107104	-0.0883217	-0.0182239	-0.856934	0.603516	0.0881348	0.663897	-0.350655	-0.57577	-0.323683	9.9381	0.0677609	1.09632	0.627642	0.0531162	0.0267626	-0.991943	0.487305	-0.370361	
75	0.578466	-0.36864	-0.435002	-0.583314	9.43525	0.715036	3.72065	-0.109277	0.0487257	-0.109783	-0.833008	0.334961	-0.356445	0.650448	-0.345712	-0.492795	-0.4632	9.706	0.0574325	2.94072	-0.00906506	0.056242	-0.152335	-0.72998	0.287354	-0.325684	0.863394	-0.194292	-0.193345	-0.423579	5.63855	-2.06762	9.1897	0.162554	-0.0370481	-0.148789	-0.312744	0.426514	-0.879883	0.204519	0.0559558	-0.10353	-0.971763	-0.454347	2.35499	9.60508	-0.00832355	0.193306	-0.0563433	-0.322021	0.0498047	-0.991699	0.609938	-0.274129	-0.350273	-0.655849	7.83053	1.19353	5.97933	0.00951555	0.0984743	-0.151356	-0.770996	0.299805	-0.57959	0.990107	0.0173678	0.122795	0.0656398	-3.21011	0.45534	12.9989	0.0747544	-0.119737	-0.0337348	0.709473	-0.115234	-0.788818	0.594618	-0.415206	-0.586899	-0.359977	9.98383	-0.760317	-0.288419	-0.0091233	0.0411122	-0.0829336	-0.898438	0.414307	-0.130127	0.91447	-0.10917	-0.281312	-0.26961	6.18035	-0.627963	8.81146	0.0403623	0.0598368	0.0432038	-0.310791	0.241699	-0.967529	-0.0194207	-0.116365	-0.944647	-0.306143	0.129912	5.25505	-7.55237	0.0248507	0.0543847	-0.0375631	-0.432861	-0.53418	0.879395	0.559404	-0.524955	-0.558313	-0.315874	9.301	-2.0542	-1.73454	0.0978881	0.0208462	0.0322889	-0.850098	0.597168	0.0812988	0.66585	-0.348034	-0.576979	-0.320331	9.98925	-0.688138	0.492463	0.293201	0.00777529	0.015829	-0.994385	0.491699	-0.370361	
76	0.576185	-0.368416	-0.435307	-0.585481	9.21846	0.992045	3.66856	-0.0445162	-0.0349489	-0.104003	-0.832764	0.328369	-0.356445	0.650359	-0.343359	-0.492649	-0.465226	9.4622	0.290042	3.02906	0.00319805	0.100429	-0.101026	-0.727539	0.276367	-0.334717	0.862904	-0.191597	-0.195547	-0.424793	5.68871	-1.99985	9.44398	0.10844	0.00239812	-0.064639	-0.314697	0.420166	-0.884277	0.204093	0.0593976	-0.102132	-0.971796	-0.444253	2.33474	9.81137	-0.0507811	0.12765	-0.0243908	-0.317871	0.0541992	-0.996094	0.608998	-0.271802	-0.34968	-0.658004	7.55516	1.01241	6.01504	0.00884884	0.0934404	-0.106314	-0.766602	0.297852	-0.588623	0.990378	0.0192905	0.120341	0.0655546	-3.11552	0.47392	12.7672	0.0904741	-0.0765455	0.000280695	0.703125	-0.119629	-0.792969	0.594311	-0.414735	-0.58708	-0.36073	9.90674	-0.704171	-0.281627	-0.00315702	0.0278677	-0.0886391	-0.894287	0.416504	-0.132324	0.914917	-0.108279	-0.281242	-0.268524	6.20584	-0.415159	8.69217	0.0508447	0.0268153	0.0184805	-0.308838	0.246094	-0.972412	-0.0185557	-0.115238	-0.94463	-0.306676	0.258998	5.40324	-7.48324	-0.0348435	0.052334	-0.0607503	-0.432617	-0.541016	0.879639	0.566994	-0.513711	-0.563286	-0.311974	9.34136	-0.978976	-0.429745	0.648473	0.138835	-0.153661	-0.856445	0.590332	0.0585938	0.668071	-0.344338	-0.578898	-0.316212	9.71603	-1.37798	0.936166	0.250576	-0.00824608	0.0242007	-0.98999	0.491699	-0.379639	
77	0.574682	-0.369294	-0.435918	-0.585951	9.40873	1.11742	3.5843	-0.0391923	-0.0610094	-0.0151424	-0.8396	0.33252	-0.354248	0.650407	-0.342307	-0.491466	-0.467182	9.34758	0.111211	2.8173	-0.0494657	0.0788838	-0.0690797	-0.723145	0.278564	-0.334961	0.863302	-0.189462	-0.194634	-0.42536	5.50682	-1.70638	9.17939	0.0586999	0.101116	-0.0145283	-0.3125	0.415771	-0.886475	0.204139	0.0597173	-0.0993138	-0.972059	-0.808335	2.09181	9.61972	-0.12239	0.0157664	-2.18579e-05	-0.311279	0.0563965	-0.998535	0.6096	-0.268754	-0.349678	-0.658699	7.55604	0.975171	5.95283	0.0828303	0.101412	-0.0421209	-0.76416	0.293457	-0.586426	0.99046	0.0216222	0.118709	0.0665569	-3.2022	0.675838	12.7242	0.0810917	-0.0488069	0.0411077	0.703369	-0.124023	-0.797119	0.593211	-0.414101	-0.587206	-0.363056	9.70237	-0.546652	-0.239933	-0.0229412	0.0255895	-0.0831926	-0.89624	0.412109	-0.132324	0.915581	-0.107949	-0.280766	-0.266886	6.21247	-0.493459	9.01313	0.0191932	0.0217386	0.0537695	-0.308594	0.241943	-0.972412	-0.017528	-0.113631	-0.94472	-0.307058	0.292448	5.09661	-7.61153	0.00441215	0.0744689	-0.0624418	-0.435059	-0.541016	0.868408	0.569203	-0.51122	-0.564816	-0.309265	9.07029	-2.15568	-1.74467	0.149707	-0.0251633	0.00840814	-0.856445	0.588135	0.0541992	0.671567	-0.338645	-0.581408	-0.310295	9.84844	-1.096	0.441896	0.404757	0.0236835	0.0299325	-0.994141	0.48291	-0.381592	
78	0.57374	-0.371972	-0.435714	-0.585332	9.65763	1.0171	3.5309	-0.0852715	-0.0939818	0.0630624	-0.837646	0.334717	-0.343506	0.650806	-0.340443	-0.490802	-0.468683	9.76038	0.0645583	3.23992	0.00316346	0.126472	-0.0788077	-0.7229	0.271973	-0.336914	0.863944	-0.186072	-0.193717	-0.425971	5.3114	-1.39778	8.9639	0.128249	0.0975441	-0.0404857	-0.308105	0.413574	-0.884033	0.204665	0.0602817	-0.0966392	-0.972183	-1.22864	2.07832	9.34681	-0.0838721	0.0701979	0.0142269	-0.309326	0.060791	-0.998535	0.60981	-0.267148	-0.349658	-0.659168	7.91043	1.37903	6.15813	-0.00421305	0.047223	-0.0498899	-0.76416	0.29126	-0.591064	0.990466	0.0224329	0.118243	0.0670272	-3.12357	0.644858	12.9277	0.0618017	-0.0263731	0.0301976	0.701172	-0.124023	-0.797119	0.59339	-0.41207	-0.587416	-0.364732	9.77758	-0.439332	-0.332328	0.0802583	0.0743213	-0.111985	-0.904541	0.405762	-0.136475	0.916015	-0.108843	-0.280601	-0.265203	6.71853	-0.153338	9.2631	-0.0429033	0.0145062	0.0734428	-0.308838	0.246338	-0.974609	-0.016977	-0.113089	-0.944979	-0.306491	0.220827	5.16508	-7.82956	0.0588596	0.0559658	-0.0484557	-0.434814	-0.543457	0.875244	0.570565	-0.509147	-0.566445	-0.307188	9.38807	-2.5019	-1.34576	0.149558	-0.00364151	0.0242191	-0.863525	0.596924	0.0517578	0.675279	-0.332837	-0.583406	-0.304722	9.63921	-1.93623	1.23219	0.390983	0.0404877	0.0406107	-0.991455	0.471924	-0.390625	
79	0.5735	-0.37684	-0.432951	-0.584502	9.66293	0.415436	3.58922	-0.176124	-0.0570418	0.139084	-0.833496	0.339111	-0.334961	0.65135	-0.337089	-0.491334	-0.469793	9.52455	-0.0362573	2.87524	0.137237	0.0498474	-0.14221	-0.727051	0.267578	-0.343994	0.861589	-0.182614	-0.193952	-0.432086	4.79395	-0.35337	8.88107	0.00696347	0.0648756	-0.381647	-0.308105	0.40918	-0.897705	0.201981	0.0627122	-0.0965509	-0.972599	-1.62268	1.96588	9.89751	0.0533055	0.124683	-0.175216	-0.311279	0.0563965	-0.998535	0.607894	-0.264725	-0.352587	-0.660355	7.69876	1.41066	6.44507	0.174508	-0.027283	-0.194628	-0.765869	0.282471	-0.588623	0.99056	0.0228336	0.116837	0.0679591	-2.73614	0.807853	13.4454	-0.104239	-0.0375166	0.0470203	0.697021	-0.125977	-0.794922	0.591247	-0.409081	-0.589997	-0.367399	10.001	-0.798686	-0.551287	-0.0277701	-0.0168711	-0.245599	-0.90625	0.394775	-0.134033	0.916869	-0.112129	-0.278361	-0.263238	6.39796	-0.807525	9.02716	-0.103548	0.0859058	0.115854	-0.30249	0.250488	-0.965576	-0.0132831	-0.111383	-0.945745	-0.304933	0.374245	5.65633	-7.7409	0.00664304	0.138757	-0.0167555	-0.44458	-0.534424	0.875	0.572676	-0.505877	-0.568698	-0.304488	9.69999	-2.06309	-1.35711	0.232054	-0.0160292	-0.0880733	-0.854248	0.592529	0.0473633	0.679357	-0.32608	-0.586102	-0.29771	9.994	-0.165479	0.881602	0.310705	0.0050586	0.0483629	-0.984863	0.476318	-0.404297	
80	0.57141	-0.379608	-0.432202	-0.585312	9.45297	0.642547	3.59781	-0.111717	-0.0821181	-0.0588548	-0.835938	0.345459	-0.333008	0.651567	-0.333844	-0.493134	-0.469924	9.3629	0.312141	2.91816	0.228321	0.0535199	-0.193026	-0.724854	0.260986	-0.35083	0.859179	-0.181253	-0.194766	-0.437065	4.86433	-1.39306	8.74238	0.0126394	0.03063	-0.458148	-0.318848	0.400879	-0.892822	0.200012	0.066038	-0.0943223	-0.973004	-0.651401	2.05565	10.1562	-0.112262	0.283831	-0.19417	-0.293701	0.0610352	-1.00513	0.60724	-0.261741	-0.355097	-0.660801	8.13256	1.96605	6.20291	0.249751	0.0338531	-0.207634	-0.77002	0.275879	-0.593262	0.990556	0.0225668	0.116537	0.0686182	-2.57504	0.566334	13.7786	-0.0243626	-0.00701913	0.0349248	0.697266	-0.130371	-0.79248	0.590523	-0.40814	-0.590318	-0.369092	10.1917	-0.676091	-0.502195	-0.0351559	0.0458273	-0.172213	-0.908203	0.388428	-0.129639	0.917559	-0.111926	-0.277384	-0.261946	6.37322	-1.23154	8.68974	0.0337432	0.0962511	0.0989601	-0.300537	0.254883	-0.972656	-0.0117053	-0.110466	-0.945815	-0.305112	0.350459	5.74099	-7.41842	0.00608553	0.149536	-0.0497736	-0.444336	-0.541016	0.868408	0.574076	-0.50396	-0.569937	-0.302708	9.63021	-2.6104	-1.52516	0.259081	-0.00717178	-0.0194986	-0.854248	0.590576	0.0427246	0.683218	-0.319853	-0.588543	-0.29073	9.7424	-0.3711	0.882364	0.490429	0.012547	0.043705	-0.986572	0.467529	-0.415527	
81	0.569546	-0.380273	-0.43275	-0.586291	9.45358	0.779691	3.53956	-0.094575	-0.0933265	-0.126323	-0.837891	0.341064	-0.333008	0.65139	-0.32838	-0.496004	-0.470997	9.69036	1.18954	3.11111	0.114794	0.0689255	-0.18561	-0.735107	0.247803	-0.352539	0.854939	-0.175755	-0.199207	-0.445541	5.70201	-2.38504	9.40837	0.23917	-0.0372018	-0.415502	-0.324951	0.385742	-0.899414	0.197552	0.0752273	-0.0888668	-0.973353	-0.292731	1.98921	9.4879	-0.072318	0.393778	-0.13063	-0.27832	0.0634766	-1.00952	0.605338	-0.256341	-0.356403	-0.663952	7.96372	1.98383	6.17278	0.029237	0.146876	-0.231069	-0.767334	0.264893	-0.593262	0.990447	0.0278689	0.116947	0.0675429	-3.00789	0.821391	13.024	0.203624	0.0040796	-0.0448865	0.69751	-0.13916	-0.792236	0.591234	-0.404067	-0.592818	-0.368428	10.0114	-0.0614397	0.0424149	0.210955	-0.0154704	-0.110598	-0.908203	0.388428	-0.133789	0.919396	-0.109521	-0.276056	-0.257893	5.85974	-0.474372	8.68762	0.111976	0.0895939	0.151642	-0.295898	0.246338	-0.970215	-0.00834055	-0.107128	-0.945792	-0.306482	0.083094	4.97065	-7.55561	-0.0153495	0.181968	-0.113803	-0.444092	-0.545654	0.868408	0.577027	-0.499199	-0.573265	-0.298676	9.26343	-1.98649	-1.50758	0.235492	-0.0527016	-0.0912669	-0.858398	0.58374	0.0314941	0.683856	-0.319157	-0.589077	-0.288909	9.85869	-0.20696	0.714165	0.155503	-0.0217979	0.0629196	-0.984619	0.469727	-0.415527	
82	0.565023	-0.380537	-0.435717	-0.588295	9.35128	1.00287	3.26565	-0.0129317	-0.135332	-0.208788	-0.842041	0.332275	-0.324219	0.651812	-0.324474	-0.496446	-0.472652	9.22207	0.802562	2.93853	0.0746319	0.0953521	-0.119711	-0.728516	0.243408	-0.364258	0.854577	-0.168086	-0.20267	-0.447628	5.75864	-1.68938	9.76219	0.262085	0.0625045	-0.0663548	-0.333496	0.375	-0.908203	0.197734	0.0800885	-0.0863001	-0.97316	-0.285683	2.0545	9.39404	-0.0987655	0.143396	0.0280902	-0.271729	0.0656738	-1.01392	0.603948	-0.253203	-0.353699	-0.667856	7.0725	1.49742	5.92058	-0.0855267	0.177515	-0.141448	-0.769287	0.260498	-0.602295	0.990617	0.0307567	0.114889	0.0673282	-2.88477	0.607395	12.0305	0.142001	-0.102467	0.0050531	0.695312	-0.136963	-0.796631	0.590262	-0.402713	-0.59359	-0.370222	9.58272	-0.0775358	-0.420523	-0.0570814	0.0315015	-0.128208	-0.914551	0.38623	-0.133789	0.920737	-0.108439	-0.276527	-0.253016	5.99081	-0.550477	8.54641	0.117654	0.00414566	0.155803	-0.295654	0.244141	-0.969971	-0.00668948	-0.102632	-0.946339	-0.306374	0.336968	5.43433	-7.22761	0.021333	0.110333	-0.181637	-0.446533	-0.541016	0.861572	0.577963	-0.495871	-0.576746	-0.295694	9.33349	-2.19904	-1.36283	0.193925	-0.0620552	-0.04786	-0.86084	0.585938	0.0358887	0.684658	-0.317804	-0.590354	-0.285879	9.69503	-0.545101	1.0024	0.117788	-0.0374869	0.0297951	-0.982178	0.465332	-0.415527	
83	0.562329	-0.379015	-0.439823	-0.588803	9.54887	1.39272	3.17068	0.106178	-0.0825304	-0.128964	-0.848145	0.32373	-0.328369	0.652541	-0.322456	-0.496462	-0.473009	9.31475	0.517887	3.1455	0.0169682	0.0717378	-0.0318035	-0.732666	0.243408	-0.359619	0.856228	-0.167319	-0.200768	-0.445611	5.6594	-1.23531	9.30735	-0.044103	0.0941729	0.150249	-0.322754	0.375	-0.908203	0.20022	0.0777295	-0.0837319	-0.973067	-1.11303	1.94907	8.86266	-0.0937405	-0.120247	0.114385	-0.27417	0.0700684	-1.01416	0.603948	-0.253203	-0.353699	-0.667856	7.0725	1.49742	5.92058	-0.0855267	0.177515	-0.141448	-0.769287	0.260498	-0.602295	0.990778	0.0344956	0.111828	0.0682883	-3.00627	0.612299	12.0956	0.107001	-0.119802	0.0565571	0.684814	-0.147705	-0.802734	0.589493	-0.401734	-0.594579	-0.370923	9.61303	-0.573802	-0.317877	0.0861853	-0.0198294	-0.0715615	-0.914062	0.377441	-0.133545	0.921539	-0.106352	-0.277399	-0.250009	5.94797	-0.149823	9.03249	0.136977	-0.0340414	0.0503465	-0.293457	0.239746	-0.979248	-0.00619289	-0.0990243	-0.946578	-0.306833	0.011807	5.44068	-7.40358	-0.0236968	0.0578768	-0.132285	-0.448486	-0.550293	0.866211	0.578118	-0.496652	-0.576984	-0.293608	9.21358	-2.11317	-1.7338	-0.0199704	-0.0321766	0.1262	-0.86084	0.585938	0.0314941	0.685795	-0.316142	-0.591058	-0.283531	9.64931	-1.16354	0.748205	0.233796	0.0252712	0.00788793	-0.984131	0.463135	-0.420166	
84	0.563194	-0.378331	-0.442047	-0.586748	9.69742	1.28999	3.30546	0.116093	-0.0384181	0.0595287	-0.845703	0.319336	-0.323975	0.653979	-0.321448	-0.49616	-0.472025	9.35734	0.214909	3.05764	0.0933781	0.0471962	0.0289914	-0.730469	0.241211	-0.361816	0.857497	-0.17043	-0.197138	-0.443609	5.06992	-1.03183	8.65724	-0.154369	0.036219	0.112478	-0.316406	0.387695	-0.904053	0.20246	0.0727148	-0.0847676	-0.972901	-1.12388	2.01544	9.58711	0.00155828	-0.163699	0.103021	-0.278564	0.0722656	-1.00977	0.603948	-0.253203	-0.353699	-0.667856	7.0725	1.49742	5.92058	-0.0855267	0.177515	-0.141448	-0.769287	0.260498	-0.602295	0.990898	0.0329149	0.109328	0.0713081	-2.73272	0.580611	12.8838	-0.120937	-0.0485152	0.105751	0.687012	-0.149902	-0.806885	0.589072	-0.399348	-0.597415	-0.369609	9.81875	-0.376894	-0.278437	0.130034	-0.0669839	-0.088958	-0.913818	0.371094	-0.141846	0.921241	-0.107246	-0.278676	-0.249304	6.36513	-0.12853	9.34283	-0.094603	-0.0248225	0.00130486	-0.302246	0.246338	-0.979492	-0.00604438	-0.0979038	-0.946709	-0.306792	0.595311	5.80449	-7.73668	0.00588606	0.0225305	-0.0291993	-0.446289	-0.550293	0.861816	0.577651	-0.498901	-0.575863	-0.292915	9.48972	-2.51416	-1.56001	-0.0516514	-0.0302896	0.0765561	-0.854248	0.590332	0.0336914	0.68723	-0.314356	-0.591272	-0.281589	9.89869	-1.47115	0.913913	0.18814	0.0381234	0.0138936	-0.981934	0.463135	-0.429199	
85	0.564736	-0.377739	-0.443143	-0.584817	9.56101	1.31353	3.39454	0.0754614	-0.0169804	0.0437333	-0.852783	0.325684	-0.322021	0.655186	-0.319588	-0.497317	-0.470395	9.55932	1.21538	3.10708	0.0962985	0.0108542	-0.0117732	-0.730469	0.241211	-0.364258	0.857647	-0.173536	-0.196625	-0.442341	5.07462	-1.31948	9.09304	-0.093444	-0.0606176	0.0620338	-0.316406	0.387695	-0.901611	0.204007	0.0714622	-0.0855228	-0.972605	-0.977497	1.75	9.48229	0.048695	-0.0196662	0.0628888	-0.283203	0.076416	-1.00537	0.605579	-0.249029	-0.357963	-0.665673	8.01459	1.85158	6.02487	0.0613093	-0.0963556	0.0529247	-0.766846	0.253906	-0.604736	0.990796	0.0310442	0.109477	0.073307	-3.01057	0.822314	13.1944	-0.0691686	0.0408207	0.0294529	0.689209	-0.147705	-0.807129	0.588124	-0.397945	-0.599814	-0.368746	10.0246	0.149114	-0.505297	0.0825646	-0.0665931	-0.0870964	-0.917969	0.366699	-0.133301	0.921054	-0.108786	-0.278709	-0.24929	6.25288	-0.789897	8.73976	-0.0480005	0.000536115	-0.00018628	-0.295654	0.241943	-0.977051	-0.00566843	-0.0977671	-0.946321	-0.308037	0.369429	5.12295	-7.52723	-0.0196167	0.0213576	-0.010749	-0.446045	-0.554688	0.861816	0.578037	-0.499813	-0.575011	-0.292273	9.23299	-2.31557	-1.52227	0.0154724	0.0548652	0.0422572	-0.852051	0.590576	0.0358887	0.688065	-0.313627	-0.591083	-0.280759	9.75863	-0.880558	0.82125	-0.0602216	0.0183222	0.0160809	-0.981934	0.463135	-0.422363	
