40	Head	00b4120a												Throax	00b411e8												LUpArm	00b411d9												LFoArm	00b41148												RUpArm	00b411db												RFoArm	00b41204												Waist	00b411f7												Lthigh	00b411f4												Lshank	00b4111b												Rthigh	00b411c8												Rshank	00b411ee												
PacketCount	q0	q1	q2	q3	accX	accY	accZ	gyrX	gyrY	gyrZ	magX	magY	magZ	q0	q1	q2	q3	accX	accY	accZ	gyrX	gyrY	gyrZ	magX	magY	magZ	q0	q1	q2	q3	accX	accY	accZ	gyrX	gyrY	gyrZ	magX	magY	magZ	q0	q1	q2	q3	accX	accY	accZ	gyrX	gyrY	gyrZ	magX	magY	magZ	q0	q1	q2	q3	accX	accY	accZ	gyrX	gyrY	gyrZ	magX	magY	magZ	q0	q1	q2	q3	accX	accY	accZ	gyrX	gyrY	gyrZ	magX	magY	magZ	q0	q1	q2	q3	accX	accY	accZ	gyrX	gyrY	gyrZ	magX	magY	magZ	q0	q1	q2	q3	accX	accY	accZ	gyrX	gyrY	gyrZ	magX	magY	magZ	q0	q1	q2	q3	accX	accY	accZ	gyrX	gyrY	gyrZ	magX	magY	magZ	q0	q1	q2	q3	accX	accY	accZ	gyrX	gyrY	gyrZ	magX	magY	magZ	q0	q1	q2	q3	accX	accY	accZ	gyrX	gyrY	gyrZ	magX	magY	magZ	
0	0.0781681	0.156838	-0.0197595	-0.984328	-3.47411	1.05297	10.3348	-0.000283323	-0.0134777	0.00112374	0.0270996	0.101318	-1.14331	0.184773	0.277717	0.0506333	-0.941365	-4.98842	0.62652	8.72417	-0.0183228	0.012312	-0.0288439	0.366455	0.0349121	-1.03052	0.10755	0.212951	-0.323508	-0.915657	-3.3931	6.55439	7.41821	0.0172591	0.00583348	-0.0135003	-0.0666504	-0.605469	-0.935303	-0.343314	0.168614	-0.679351	-0.626248	-6.58253	7.25467	0.227159	0.00962465	0.00985222	0.0021535	0.346436	-0.941162	-0.108643	0.31928	0.048505	0.206176	-0.923688	-2.35177	-3.55955	8.74003	0.0184194	0.0254245	-0.0191136	0.0151367	0.58374	-0.93335	0.617106	-0.0540618	0.268798	-0.737567	-4.04701	-4.06991	11.5588	-0.0479474	0.00315812	-0.0817796	0.210205	0.765381	-0.794922	0.0749106	0.0154983	-0.103631	-0.99167	1.7555	0.302036	10.3179	0.0445108	0.233239	-0.0343887	-0.507568	0.0866699	-0.954346	0.180578	0.824313	0.167362	-0.509794	-8.11429	1.39937	-3.78886	0.0125835	0.0239277	-0.0227791	1.04248	0.132812	0.295654	0.0740864	-0.124996	-0.0347913	-0.988775	2.72986	0.512491	10.2214	-0.0163535	0.00174762	-0.0131425	-0.629883	0.0251465	-0.816406	-0.017221	-0.105747	-0.0540745	-0.992772	2.08511	1.15649	10.2301	-0.00576162	0.0200458	0.00706872	-0.604492	-0.130615	-0.911377	0.0209396	-0.0468378	0.0938115	-0.994267	0.891121	-1.86535	9.59174	-0.00438188	0.00986731	-0.000877049	-0.560791	0.145996	-1.05688	
1	0.0781681	0.156838	-0.0197595	-0.984328	-3.47411	1.05297	10.3348	-0.000283323	-0.0134777	0.00112374	0.0270996	0.101318	-1.14331	0.18485	0.277687	0.0509058	-0.941344	-4.90848	0.601979	8.70911	-0.0295458	0.0178993	-0.0227844	0.368164	0.0415039	-1.0332	0.107172	0.213137	-0.323181	-0.915774	-3.46178	6.56605	7.4143	-0.00848736	0.000821449	-0.019172	-0.0705566	-0.616211	-0.941895	-0.343033	0.168894	-0.679396	-0.626278	-6.60194	7.22513	0.281354	0.00623335	0.0277177	-0.00195208	0.346436	-0.941162	-0.113037	0.319065	0.0489201	0.206707	-0.923621	-2.35031	-3.65134	8.7721	-0.0126421	0.0248571	-0.0110342	0.0129395	0.58374	-0.93335	0.617106	-0.0540618	0.268798	-0.737567	-4.04701	-4.06991	11.5588	-0.0479474	0.00315812	-0.0817796	0.210205	0.765381	-0.794922	0.0750025	0.0194928	-0.103727	-0.991582	1.74108	0.28051	10.3828	0.0253305	0.165558	-0.0279563	-0.507568	0.0866699	-0.962891	0.180398	0.824459	0.16735	-0.509625	-8.07739	1.33126	-3.75861	0.0112126	0.0277153	-0.0161593	1.04492	0.126221	0.295898	0.0740889	-0.125019	-0.0344912	-0.988783	2.77106	0.472769	10.2195	-0.00230324	0.0105008	-0.01484	-0.63916	0.0249023	-0.812012	-0.017212	-0.105891	-0.0536473	-0.99278	2.12733	1.11864	10.2217	-0.00932639	0.00126346	0.00862019	-0.602295	-0.126221	-0.902344	0.0209871	-0.046827	0.093739	-0.994273	0.877395	-1.84263	9.61153	0.00591466	0.0071467	-0.00233401	-0.56543	0.148193	-1.05249	
2	0.0781681	0.156838	-0.0197595	-0.984328	-3.47411	1.05297	10.3348	-0.000283323	-0.0134777	0.00112374	0.0270996	0.101318	-1.14331	0.184892	0.27746	0.0511168	-0.941391	-4.97553	0.494983	8.69191	-0.0053344	0.00468481	-0.0249507	0.364014	0.0415039	-1.0332	0.106403	0.213498	-0.324494	-0.915314	-3.43758	6.52895	7.49391	0.0853745	0.00907946	-0.0135183	-0.0620117	-0.616455	-0.9375	-0.34285	0.169398	-0.679228	-0.626425	-6.60437	7.14545	0.24504	-0.0165052	0.0134192	-0.00675685	0.344482	-0.949951	-0.11499	0.319178	0.0491984	0.206791	-0.923549	-2.39157	-3.69826	8.74932	0.00517538	0.0200961	-0.0156937	0.0129395	0.58374	-0.930908	0.617106	-0.0540618	0.268798	-0.737567	-4.04701	-4.06991	11.5588	-0.0479474	0.00315812	-0.0817796	0.210205	0.765381	-0.794922	0.0752875	0.0211668	-0.103415	-0.991559	1.69237	0.255002	10.2829	0.00366526	0.151265	-0.022386	-0.498779	0.0847168	-0.962891	0.180384	0.824607	0.167358	-0.509389	-8.15697	1.37275	-3.85266	-0.00230662	0.0252007	-0.0123443	1.04663	0.13501	0.293213	0.0740739	-0.124799	-0.0341254	-0.988824	2.71276	0.452083	10.2457	-0.00497013	0.0187946	-0.0168081	-0.63916	0.0270996	-0.814209	-0.0171838	-0.105909	-0.0533787	-0.992793	2.0911	1.16217	10.2301	-0.0122009	0.0111506	0.0057604	-0.608887	-0.128418	-0.904541	0.0210096	-0.0468454	0.0940299	-0.994245	0.882942	-1.75278	9.60448	-0.0185043	0.00743512	-0.00197544	-0.561035	0.148193	-1.05688	
3	0.0781681	0.156838	-0.0197595	-0.984328	-3.47411	1.05297	10.3348	-0.000283323	-0.0134777	0.00112374	0.0270996	0.101318	-1.14331	0.184928	0.277501	0.0510205	-0.941377	-4.91799	0.517068	8.69534	0.000551833	0.0180047	-0.0173898	0.368408	0.0371094	-1.0354	0.106225	0.213513	-0.32488	-0.915195	-3.47018	6.59776	7.4836	0.0384553	-0.0018028	-0.00393142	-0.064209	-0.616455	-0.932861	-0.342961	0.169633	-0.679111	-0.626427	-6.65737	7.2363	0.317528	-0.00658987	0.00192628	-0.00878855	0.35083	-0.943115	-0.117432	0.319203	0.0498656	0.206083	-0.923663	-2.38631	-3.65235	8.73552	0.0458414	0.0274297	-0.0136031	0.0197754	0.581543	-0.937744	0.617106	-0.0540618	0.268798	-0.737567	-4.04701	-4.06991	11.5588	-0.0479474	0.00315812	-0.0817796	0.210205	0.765381	-0.794922	0.0753322	0.0246336	-0.103444	-0.991472	1.66375	0.204063	10.4734	0.0194484	0.0993336	-0.0233166	-0.496582	0.0847168	-0.967041	0.180438	0.824755	0.167256	-0.509162	-8.08169	1.25815	-3.85649	0.0120495	0.0258151	-0.00999266	1.04224	0.13501	0.295654	0.0739004	-0.124579	-0.0341267	-0.988865	2.69434	0.466743	10.2454	0.00129888	0.0183663	-0.0248696	-0.634521	0.0249023	-0.816406	-0.01732	-0.105788	-0.0528929	-0.99283	2.13455	1.09447	10.22	-0.0186843	0.0198447	0.00159652	-0.602295	-0.130615	-0.902344	0.020976	-0.0469055	0.0945331	-0.994195	0.875597	-1.88121	9.59726	-0.00964081	0.00513154	-0.00333517	-0.560791	0.145996	-1.05469	
4	0.0781681	0.156838	-0.0197595	-0.984328	-3.47411	1.05297	10.3348	-0.000283323	-0.0134777	0.00112374	0.0270996	0.101318	-1.14331	0.18492	0.277682	0.0506152	-0.941348	-5.0707	0.550347	8.69552	0.00886304	0.0130972	-0.0205703	0.361816	0.0393066	-1.02832	0.106558	0.213509	-0.324484	-0.915298	-3.52567	6.48758	7.43094	-0.00371934	0.00719279	0.0253135	-0.064209	-0.616455	-0.9375	-0.343184	0.169624	-0.678929	-0.626504	-6.62419	7.1435	0.308152	-0.000708359	-0.00488855	-0.00342577	0.348633	-0.941162	-0.115234	0.319186	0.0503714	0.205356	-0.923803	-2.43556	-3.57062	8.74072	0.0304749	0.0153288	-0.0187406	0.0175781	0.579346	-0.930908	0.617106	-0.0540618	0.268798	-0.737567	-4.04701	-4.06991	11.5588	-0.0479474	0.00315812	-0.0817796	0.210205	0.765381	-0.794922	0.075418	0.0280843	-0.103083	-0.991412	1.51629	0.285137	10.3873	0.0103487	0.178794	-0.0255109	-0.492188	0.0803223	-0.967041	0.180238	0.824928	0.166891	-0.509072	-8.07232	1.40678	-3.8308	0.0163683	0.0213033	-0.0049356	1.04663	0.13501	0.293213	0.0734523	-0.124481	-0.0337932	-0.988922	2.668	0.458497	10.2391	-0.0120674	0.0134382	-0.0331925	-0.638916	0.0202637	-0.816406	-0.0172888	-0.105699	-0.0528015	-0.992845	2.08556	1.06491	10.2452	-0.00126814	0.00753035	0.00606178	-0.599854	-0.130371	-0.904541	0.0209916	-0.0468702	0.0946461	-0.994185	0.876009	-1.79869	9.5805	-0.00837097	0.0106432	-0.00153997	-0.556396	0.148193	-1.04565	
5	0.0781681	0.156838	-0.0197595	-0.984328	-3.47411	1.05297	10.3348	-0.000283323	-0.0134777	0.00112374	0.0270996	0.101318	-1.14331	0.1851	0.277535	0.0502132	-0.941377	-4.96649	0.555749	8.67898	-0.00165618	0.00835444	-0.00898458	0.364014	0.0371094	-1.03296	0.107057	0.213379	-0.325037	-0.915073	-3.39906	6.671	7.40667	0.0216589	0.00589303	0.0224361	-0.064209	-0.618652	-0.93042	-0.343446	0.169496	-0.678853	-0.626478	-6.63732	7.1514	0.293629	0.00223307	-0.00321761	-0.000655161	0.344238	-0.943359	-0.108643	0.31941	0.0505466	0.204897	-0.923818	-2.47941	-3.60255	8.71971	0.0182007	0.00715682	-0.00430181	0.0200195	0.574951	-0.935547	0.617106	-0.0540618	0.268798	-0.737567	-4.04701	-4.06991	11.5588	-0.0479474	0.00315812	-0.0817796	0.210205	0.765381	-0.794922	0.0758797	0.0323588	-0.102893	-0.991266	1.45664	0.217755	10.3974	0.0325084	0.174063	-0.0164291	-0.481445	0.0825195	-0.979736	0.18034	0.824983	0.166592	-0.509046	-8.10984	1.40598	-3.88699	0.00628594	0.0142354	-0.00472798	1.04688	0.128418	0.295654	0.0730547	-0.124404	-0.0337839	-0.988962	2.65682	0.43573	10.2647	0.0103436	0.00998577	-0.0318433	-0.636719	0.0227051	-0.814209	-0.0174077	-0.10584	-0.0532006	-0.992806	2.09201	1.09495	10.2813	0.0263348	0.0080283	-2.34537e-05	-0.602295	-0.128418	-0.900146	0.0209606	-0.0468289	0.0951671	-0.994138	0.863898	-1.89327	9.61919	-0.0134461	0.00350125	-0.00594726	-0.563232	0.148193	-1.05688	
6	0.0781681	0.156838	-0.0197595	-0.984328	-3.47411	1.05297	10.3348	-0.000283323	-0.0134777	0.00112374	0.0270996	0.101318	-1.14331	0.185475	0.277237	0.0501135	-0.941396	-5.0649	0.561513	8.68578	-0.00694614	-0.00226137	-0.00940862	0.364014	0.0415039	-1.0332	0.107231	0.213287	-0.324811	-0.915155	-3.49275	6.57788	7.42131	-0.0048423	0.000104968	0.00234189	-0.0683594	-0.616455	-0.926025	-0.343445	0.169443	-0.67895	-0.626388	-6.65305	7.19835	0.312721	0.0119643	0.00617709	0.00268345	0.346436	-0.943359	-0.11084	0.319871	0.0506494	0.203985	-0.923855	-2.4519	-3.55715	8.70141	0.0388004	-0.00502703	5.67247e-05	0.0219727	0.577148	-0.935547	0.617106	-0.0540618	0.268798	-0.737567	-4.04701	-4.06991	11.5588	-0.0479474	0.00315812	-0.0817796	0.210205	0.765381	-0.794922	0.0760635	0.0343043	-0.102856	-0.99119	1.36276	0.255829	10.3897	0.027024	0.173822	-0.0146492	-0.4729	0.0869141	-0.977783	0.180562	0.824906	0.166433	-0.509144	-8.11704	1.42641	-3.86513	-0.00162314	0.00660829	-0.0104276	1.04248	0.132812	0.298096	0.0729149	-0.124448	-0.0339318	-0.988961	2.67986	0.473273	10.2446	0.0048491	0.00497551	-0.0178312	-0.641357	0.0227051	-0.816406	-0.0175748	-0.105817	-0.0531947	-0.992806	2.04776	1.11284	10.1801	-0.00802163	0.0114366	-0.00173741	-0.606689	-0.128418	-0.906982	0.0208511	-0.0467811	0.0952211	-0.994138	0.869449	-1.89968	9.57339	-0.00201797	0.00632944	-0.00587175	-0.561279	0.152588	-1.05933	
7	0.0781681	0.156838	-0.0197595	-0.984328	-3.47411	1.05297	10.3348	-0.000283323	-0.0134777	0.00112374	0.0270996	0.101318	-1.14331	0.185837	0.277009	0.0493127	-0.941435	-4.86528	0.591309	8.73839	0.0159546	0.00832673	0.00717273	0.370605	0.0371094	-1.03076	0.107231	0.213287	-0.324811	-0.915155	-3.49275	6.57788	7.42131	-0.0048423	0.000104968	0.00234189	-0.0683594	-0.616455	-0.926025	-0.343114	0.169546	-0.679059	-0.626423	-6.58659	7.11417	0.251532	-0.00116556	0.0192945	0.0101472	0.348633	-0.941162	-0.113037	0.320168	0.0505158	0.203637	-0.923836	-2.41993	-3.52018	8.76159	0.0216751	-0.0145315	0.00361318	0.0197754	0.579346	-0.937744	0.617106	-0.0540618	0.268798	-0.737567	-4.04701	-4.06991	11.5588	-0.0479474	0.00315812	-0.0817796	0.210205	0.765381	-0.794922	0.0763148	0.0379259	-0.103162	-0.991007	1.34584	0.29156	10.3845	0.0326446	0.152651	-0.0108186	-0.468506	0.0847168	-0.984131	0.180955	0.824654	0.166499	-0.509391	-8.14179	1.37901	-3.79879	-0.00975078	-0.00113981	-0.0139848	1.04492	0.126221	0.295898	0.0729579	-0.12456	-0.0340561	-0.98894	2.67216	0.470922	10.2092	0.0147164	-0.000517268	-0.0128594	-0.636719	0.0227051	-0.818604	-0.0175645	-0.105877	-0.0533729	-0.99279	2.10865	1.05047	10.2021	0.0165408	0.0075879	0.0051781	-0.604492	-0.128418	-0.90918	0.0208607	-0.0466599	0.0945954	-0.994203	0.938754	-1.8154	9.59119	0.0296321	0.0124919	-0.00335801	-0.556396	0.148193	-1.04785	
8	0.0775586	0.156733	-0.0233686	-0.984314	-3.47549	1.07747	10.3279	0.00969286	-0.00118708	-3.53434e-05	0.0341797	0.0927734	-1.14331	0.186091	0.27697	0.0492009	-0.941402	-4.92751	0.567578	8.73225	-0.00451226	0.0107497	-0.000686563	0.368408	0.0349121	-1.02832	0.107086	0.213192	-0.32486	-0.915177	-3.39316	6.70966	7.43338	-0.012069	-0.00110854	-0.0113374	-0.0664062	-0.614258	-0.930664	-0.342687	0.169508	-0.679319	-0.626385	-6.56314	7.21895	0.238699	0.00515393	0.0209983	0.0149999	0.348633	-0.943359	-0.113037	0.320932	0.0503901	0.203052	-0.923706	-2.32705	-3.56944	8.75256	0.0298456	-0.00368097	0.0101468	0.015625	0.574951	-0.937744	0.617106	-0.0540618	0.268798	-0.737567	-4.04701	-4.06991	11.5588	-0.0479474	0.00315812	-0.0817796	0.210205	0.765381	-0.794922	0.0769311	0.0400837	-0.103585	-0.99083	1.37487	0.300165	10.419	0.037731	0.109684	-0.00251347	-0.462158	0.0827637	-0.986084	0.181161	0.824505	0.166493	-0.509561	-8.12572	1.31621	-3.77026	-0.00772659	-0.00401295	-0.0119607	1.04932	0.12207	0.288818	0.0730299	-0.125029	-0.0343869	-0.988864	2.80835	0.464914	10.2006	0.0169939	-0.0108151	-0.0158182	-0.641357	0.0227051	-0.816406	-0.0175751	-0.106035	-0.054331	-0.992721	2.11967	1.19782	10.2399	0.0419251	0.00231537	-0.000369397	-0.606445	-0.132812	-0.902344	0.0209167	-0.046609	0.0944165	-0.994221	0.898342	-1.79669	9.59785	0.0154143	0.0112979	1.33406e-05	-0.563232	0.148193	-1.05688	
9	0.0775586	0.156733	-0.0233686	-0.984314	-3.47549	1.07747	10.3279	0.00969286	-0.00118708	-3.53434e-05	0.0341797	0.0927734	-1.14331	0.186504	0.276756	0.0492848	-0.941378	-4.9468	0.577088	8.71472	-0.0149898	0.0063857	-0.0116477	0.368408	0.0371094	-1.03296	0.107077	0.212958	-0.324208	-0.915463	-3.49704	6.43183	7.45881	-0.0143889	-0.00434439	-0.000280325	-0.0620117	-0.616455	-0.939697	-0.342386	0.169531	-0.679307	-0.626557	-6.65716	7.28408	0.246316	-0.0164213	0.00760011	0.00714015	0.348633	-0.941162	-0.11084	0.321458	0.0504859	0.202318	-0.923679	-2.33449	-3.52305	8.75419	0.0260888	0.00568398	-0.00428016	0.015625	0.572754	-0.937744	0.617106	-0.0540618	0.268798	-0.737567	-4.04701	-4.06991	11.5588	-0.0479474	0.00315812	-0.0817796	0.210205	0.765381	-0.794922	0.077224	0.0422118	-0.103741	-0.990703	1.21455	0.329915	10.3553	0.0321865	0.095893	-0.0152663	-0.46167	0.0761719	-0.992432	0.181547	0.824436	0.166324	-0.509591	-8.01981	1.39575	-3.75112	-0.00453915	0.0152656	-0.00615318	1.04468	0.130615	0.291016	0.0728821	-0.124991	-0.0346419	-0.988871	2.79218	0.565045	10.2289	0.00827766	0.0175892	-0.021564	-0.638916	0.0227051	-0.816406	-0.0176289	-0.106174	-0.0543491	-0.992705	2.11362	1.23876	10.3207	-0.00891964	0.00955043	0.00660625	-0.599854	-0.130371	-0.902344	0.0209763	-0.0465275	0.0942391	-0.994241	0.867419	-1.77904	9.65574	0.00774488	0.0088711	-0.00221717	-0.561035	0.148193	-1.05933	
10	0.0775586	0.156733	-0.0233686	-0.984314	-3.47549	1.07747	10.3279	0.00969286	-0.00118708	-3.53434e-05	0.0341797	0.0927734	-1.14331	0.186576	0.276822	0.0492649	-0.941346	-5.00921	0.55923	8.68207	-0.00350302	0.0194137	-0.0205933	0.368652	0.0327148	-1.03052	0.10667	0.212952	-0.323771	-0.915666	-3.44087	6.63894	7.37594	-0.0301829	-0.00324643	-0.0213414	-0.0600586	-0.612305	-0.930664	-0.342409	0.169664	-0.679107	-0.626725	-6.60371	7.12597	0.252111	0.00111211	0.00616422	-0.00421955	0.346436	-0.941162	-0.115234	0.32175	0.0505651	0.202136	-0.923613	-2.40078	-3.54605	8.78272	0.00414478	0.0111607	-0.00780426	0.0158691	0.570557	-0.935547	0.617106	-0.0540618	0.268798	-0.737567	-4.04701	-4.06991	11.5588	-0.0479474	0.00315812	-0.0817796	0.210205	0.765381	-0.794922	0.0771217	0.0429432	-0.104766	-0.990572	1.19646	0.323219	10.4595	0.0632673	0.0224884	-0.0193592	-0.459717	0.0783691	-0.988281	0.181595	0.824499	0.166118	-0.509538	-8.11952	1.46703	-3.82382	0.0120206	0.0158115	-0.00735708	1.04492	0.126221	0.295898	0.072687	-0.124595	-0.0347202	-0.988932	2.6904	0.52463	10.2466	0.0133453	0.0223504	-0.0259661	-0.641357	0.0227051	-0.816406	-0.0176963	-0.106416	-0.0542394	-0.992683	2.0946	1.08547	10.1886	0.000413838	0.000462426	0.0010216	-0.602051	-0.13501	-0.9021	0.0209675	-0.0466405	0.0948061	-0.994181	0.862866	-1.84607	9.57461	-0.0268932	0.0033138	-0.00349048	-0.563232	0.150391	-1.05469	
11	0.0775586	0.156733	-0.0233686	-0.984314	-3.47549	1.07747	10.3279	0.00969286	-0.00118708	-3.53434e-05	0.0341797	0.0927734	-1.14331	0.186641	0.276824	0.0492843	-0.941331	-4.96889	0.603237	8.68624	-0.00924785	0.0140361	-0.0172372	0.368408	0.0349121	-1.03296	0.10603	0.212998	-0.323724	-0.915747	-3.43874	6.43648	7.46112	0.0331144	-0.000719284	-0.0209292	-0.064209	-0.614258	-0.9375	-0.342303	0.169842	-0.678945	-0.62691	-6.62882	7.09044	0.237566	-0.0205591	0.00532366	0.00341394	0.348633	-0.943359	-0.115234	0.321833	0.0506829	0.201776	-0.923657	-2.44077	-3.40265	8.74767	0.0111613	0.00228956	-0.01562	0.0153809	0.577148	-0.937744	0.617106	-0.0540618	0.268798	-0.737567	-4.04701	-4.06991	11.5588	-0.0479474	0.00315812	-0.0817796	0.210205	0.765381	-0.794922	0.0769747	0.0428263	-0.105259	-0.990536	1.21814	0.333987	10.291	0.0324642	0.0154505	-0.01823	-0.464111	0.0783691	-0.983887	0.181655	0.824401	0.166215	-0.509644	-8.13194	1.44222	-3.85013	0.0039651	0.00964445	-0.024954	1.04248	0.130615	0.291016	0.0727092	-0.124523	-0.0345507	-0.988946	2.59672	0.521953	10.2232	-0.00620105	0.00850818	-0.0102494	-0.638916	0.0205078	-0.820801	-0.0177471	-0.10648	-0.0543685	-0.992669	2.08859	1.11809	10.208	0.0159528	0.0085782	0.00571909	-0.599854	-0.134766	-0.904541	0.0209369	-0.0466601	0.0949037	-0.994172	0.889439	-1.9176	9.58493	0.00677466	0.0105975	-0.0049094	-0.563232	0.148193	-1.05688	
12	0.0775586	0.156733	-0.0233686	-0.984314	-3.47549	1.07747	10.3279	0.00969286	-0.00118708	-3.53434e-05	0.0341797	0.0927734	-1.14331	0.186866	0.276738	0.0493561	-0.941308	-4.96211	0.601886	8.66731	-0.015574	0.0184288	-0.0126979	0.364258	0.0327148	-1.03052	0.105578	0.212991	-0.323599	-0.915845	-3.44955	6.69387	7.43051	-0.0324592	-0.00393518	-0.0203896	-0.064209	-0.618652	-0.937256	-0.34206	0.169782	-0.678643	-0.627386	-6.61726	7.23529	0.252024	-0.0302985	0.000642835	0.0115793	0.346191	-0.936768	-0.113037	0.322318	0.0502007	0.202271	-0.923405	-2.40603	-3.49632	8.74711	-0.0268258	-0.00220563	-0.00286323	0.00927734	0.570557	-0.937744	0.617106	-0.0540618	0.268798	-0.737567	-4.04701	-4.06991	11.5588	-0.0479474	0.00315812	-0.0817796	0.210205	0.765381	-0.794922	0.0770798	0.0426283	-0.105526	-0.990508	1.23031	0.336078	10.3909	0.023146	-0.00176587	-0.00535749	-0.466064	0.0761719	-0.988281	0.181556	0.82417	0.166295	-0.510027	-8.09927	1.3803	-3.79831	0.0121779	-0.0014525	-0.0272603	1.04688	0.128418	0.291016	0.0728025	-0.124891	-0.0344336	-0.988897	2.75129	0.497001	10.2487	-0.00289916	-0.00517709	-0.0119272	-0.641357	0.0224609	-0.812012	-0.0177645	-0.106435	-0.0544517	-0.992669	2.10949	1.13394	10.2227	0.00143599	0.0155392	0.0037662	-0.602051	-0.132812	-0.902344	0.0209894	-0.0465596	0.0944204	-0.994222	0.853212	-1.84993	9.61166	0.0221436	0.0112648	-0.000535344	-0.561035	0.150391	-1.05005	
13	0.0775586	0.156733	-0.0233686	-0.984314	-3.47549	1.07747	10.3279	0.00969286	-0.00118708	-3.53434e-05	0.0341797	0.0927734	-1.14331	0.187193	0.276252	0.0496913	-0.941368	-4.97626	0.592136	8.67185	-0.0210716	-0.00213522	-0.0150633	0.359863	0.0349121	-1.03296	0.105998	0.212897	-0.322085	-0.916352	-3.49869	6.50034	7.48032	-0.0482115	0.0125394	0.00562436	-0.0620117	-0.618652	-0.941895	-0.341935	0.169726	-0.678028	-0.628133	-6.55135	7.23942	0.334713	-0.0325567	-0.00373543	0.0124364	0.348633	-0.943115	-0.119629	0.322804	0.0495796	0.203092	-0.923089	-2.36835	-3.47793	8.76972	-0.0472878	-0.0042337	-0.0124699	0.0109863	0.579346	-0.942383	0.617106	-0.0540618	0.268798	-0.737567	-4.04701	-4.06991	11.5588	-0.0479474	0.00315812	-0.0817796	0.210205	0.765381	-0.794922	0.0771229	0.0411162	-0.105971	-0.990521	1.21996	0.354488	10.3529	0.0215933	-0.0524066	0.00190741	-0.464111	0.0783691	-0.990234	0.181309	0.824069	0.166244	-0.510295	-8.06974	1.25373	-3.74983	0.0160974	0.00955764	-0.0183289	1.04932	0.124268	0.29126	0.072738	-0.125102	-0.0341393	-0.988885	2.77343	0.443889	10.1886	-0.0122406	0.00219206	-0.0192908	-0.63208	0.0227051	-0.816406	-0.0177766	-0.106518	-0.0547069	-0.992645	2.14053	1.23903	10.2192	0.00379003	0.0075449	0.00503905	-0.606445	-0.132812	-0.902344	0.0210629	-0.0464751	0.0941749	-0.994247	0.88642	-1.80188	9.58611	0.00787316	0.0108109	-0.00121873	-0.556396	0.148193	-1.05688	
14	0.0775586	0.156733	-0.0233686	-0.984314	-3.47549	1.07747	10.3279	0.00969286	-0.00118708	-3.53434e-05	0.0341797	0.0927734	-1.14331	0.187399	0.27599	0.0499737	-0.941389	-4.90463	0.540779	8.71661	-0.0221808	0.0112148	-0.0191164	0.359863	0.0349121	-1.04224	0.106215	0.212693	-0.322295	-0.9163	-3.41108	6.38314	7.4121	0.0371951	-0.00243703	0.0198944	-0.0600586	-0.60791	-0.933105	-0.341888	0.169787	-0.677981	-0.628193	-6.52883	7.15857	0.324356	0.0144865	0.0123672	-0.00555142	0.343994	-0.938965	-0.119629	0.323194	0.0488414	0.204312	-0.922722	-2.34822	-3.67693	8.78386	-0.0552773	0.00142544	-0.00850764	0.0175781	0.579346	-0.935547	0.617106	-0.0540618	0.268798	-0.737567	-4.04701	-4.06991	11.5588	-0.0479474	0.00315812	-0.0817796	0.210205	0.765381	-0.794922	0.077224	0.0381635	-0.106469	-0.990578	1.36265	0.303042	10.4873	0.0330643	-0.110798	0.00127849	-0.466064	0.0783691	-0.983887	0.18121	0.82415	0.165935	-0.510299	-8.10364	1.38257	-3.76492	0.00852349	0.0174193	-0.0041293	1.04663	0.132812	0.293457	0.072406	-0.125153	-0.0338261	-0.988914	2.76609	0.416232	10.2136	-0.00551893	0.00896328	-0.0280907	-0.636719	0.0227051	-0.814209	-0.0177763	-0.106426	-0.0544339	-0.99267	2.12469	1.13794	10.2743	-0.00277745	0.0210177	0.00651638	-0.602051	-0.132812	-0.895508	0.0210621	-0.0464777	0.0945021	-0.994216	0.892319	-1.79914	9.62477	-0.0210613	0.00776958	-0.00278805	-0.567627	0.145996	-1.05005	
15	0.0775586	0.156733	-0.0233686	-0.984314	-3.47549	1.07747	10.3279	0.00969286	-0.00118708	-3.53434e-05	0.0341797	0.0927734	-1.14331	0.187671	0.276098	0.0503574	-0.941283	-4.96402	0.522951	8.64874	-0.0193324	0.0275596	-0.0153612	0.366211	0.0393066	-1.0332	0.106137	0.212695	-0.323037	-0.916047	-3.41169	6.46772	7.44298	0.0660914	-0.00102614	0.0110742	-0.0727539	-0.616211	-0.937256	-0.341926	0.169832	-0.678233	-0.627888	-6.5387	7.16934	0.331188	0.0290305	0.0167558	-0.00833248	0.348633	-0.943359	-0.115234	0.323422	0.0486923	0.204589	-0.922589	-2.37163	-3.70842	8.78232	-0.0263128	0.00269705	-0.00183057	0.0153809	0.579346	-0.937744	0.617106	-0.0540618	0.268798	-0.737567	-4.04701	-4.06991	11.5588	-0.0479474	0.00315812	-0.0817796	0.210205	0.765381	-0.794922	0.0772117	0.0367873	-0.10694	-0.99058	1.37052	0.326037	10.468	0.0464741	-0.0952108	-0.00172036	-0.474609	0.0739746	-0.979492	0.181359	0.824169	0.165781	-0.510265	-8.11948	1.36448	-3.80584	0.00130029	0.0149149	0.000773295	1.04468	0.128418	0.295898	0.0722829	-0.125095	-0.0339085	-0.988927	2.73385	0.37775	10.2295	0.0104827	0.0127994	-0.0266966	-0.634277	0.0205078	-0.816406	-0.0178646	-0.106499	-0.0542358	-0.992672	2.11741	1.09516	10.2353	-0.0143865	0.00586872	0.00101027	-0.599854	-0.130371	-0.904541	0.0210585	-0.0465376	0.0949734	-0.994168	0.874017	-1.92346	9.58291	-0.0113579	0.00557783	-0.00382148	-0.558838	0.150391	-1.05469	
16	0.0775586	0.156733	-0.0233686	-0.984314	-3.47549	1.07747	10.3279	0.00969286	-0.00118708	-3.53434e-05	0.0341797	0.0927734	-1.14331	0.187892	0.276127	0.0502898	-0.941234	-4.99378	0.553265	8.69299	-0.00417107	0.0146473	-0.01331	0.366211	0.0371094	-1.03296	0.106034	0.212782	-0.323913	-0.91573	-3.44374	6.63549	7.46456	0.039263	0.00281661	0.00491727	-0.064209	-0.616455	-0.935059	-0.341818	0.170107	-0.678653	-0.627419	-6.57319	7.19919	0.339608	0.013342	0.0268741	-0.00832867	0.348389	-0.938965	-0.117432	0.323941	0.048526	0.204585	-0.922417	-2.43346	-3.65901	8.76199	0.00418986	7.62498e-05	0.000993171	0.0131836	0.581543	-0.935547	0.617106	-0.0540618	0.268798	-0.737567	-4.04701	-4.06991	11.5588	-0.0479474	0.00315812	-0.0817796	0.210205	0.765381	-0.794922	0.0771908	0.0354328	-0.107007	-0.990624	1.35176	0.327013	10.4628	0.0139629	-0.0908224	-0.00397049	-0.472656	0.0783691	-0.983887	0.181855	0.824185	0.165564	-0.510134	-8.11352	1.4152	-3.8333	-0.0105083	0.0148602	0.000273008	1.05127	0.126465	0.293457	0.0722132	-0.124947	-0.0343755	-0.988935	2.69386	0.427519	10.2284	0.0231654	0.0126385	-0.0165069	-0.638916	0.0227051	-0.818604	-0.0179253	-0.106376	-0.0542062	-0.992685	2.06468	1.06595	10.2032	0.0128037	0.0177371	0.00415692	-0.604248	-0.132812	-0.904541	0.0210624	-0.046521	0.0949399	-0.994172	0.861707	-1.90549	9.58558	0.00352445	0.00903403	-0.00357858	-0.56543	0.145996	-1.05225	
17	0.0775586	0.156733	-0.0233686	-0.984314	-3.47549	1.07747	10.3279	0.00969286	-0.00118708	-3.53434e-05	0.0341797	0.0927734	-1.14331	0.188074	0.276084	0.0503041	-0.94121	-4.96066	0.566695	8.68597	-0.012297	0.0127782	-0.00986938	0.364014	0.0393066	-1.0332	0.105941	0.212752	-0.323739	-0.915809	-3.47156	6.49854	7.43681	0.00574391	0.00390232	-0.00123851	-0.0686035	-0.612061	-0.932861	-0.34142	0.170436	-0.679136	-0.627024	-6.65674	7.13562	0.282543	0.0155094	0.0336171	0.00134628	0.346191	-0.938965	-0.113037	0.324504	0.0483361	0.204089	-0.922339	-2.41447	-3.53609	8.74412	0.0178092	-0.00560544	0.00099039	0.0153809	0.581543	-0.940186	0.617106	-0.0540618	0.268798	-0.737567	-4.04701	-4.06991	11.5588	-0.0479474	0.00315812	-0.0817796	0.210205	0.765381	-0.794922	0.077038	0.0324273	-0.107674	-0.990666	1.43892	0.326956	10.4538	0.0282586	-0.0675641	-0.00408681	-0.483643	0.0825195	-0.973389	0.182412	0.82404	0.165475	-0.510198	-8.12494	1.43396	-3.83824	-0.00933446	0.0042313	-0.00420725	1.04688	0.130615	0.291016	0.072407	-0.125023	-0.034859	-0.988894	2.61685	0.493033	10.2395	0.022272	0.000491542	-0.00805855	-0.641113	0.0202637	-0.812012	-0.0180093	-0.10656	-0.0545747	-0.992644	2.10077	1.08333	10.2681	0.0186302	0.00343509	-0.000812388	-0.604492	-0.130615	-0.904541	0.0210661	-0.0464329	0.0944413	-0.994224	0.84373	-1.88612	9.62597	0.0289438	0.0104018	-0.00405911	-0.561035	0.150391	-1.05005	
18	0.0775586	0.156733	-0.0233686	-0.984314	-3.47549	1.07747	10.3279	0.00969286	-0.00118708	-3.53434e-05	0.0341797	0.0927734	-1.14331	0.18854	0.276073	0.0502687	-0.941122	-4.98256	0.589546	8.65516	-0.0101925	0.0117934	-0.00445939	0.366211	0.0371094	-1.03076	0.105931	0.212791	-0.324132	-0.915662	-3.51102	6.52298	7.43527	0.0186021	0.000778584	0.00869721	-0.0664062	-0.614258	-0.9375	-0.340993	0.170605	-0.679416	-0.626906	-6.67546	7.14269	0.252141	0.00408932	0.0225201	0.00746164	0.351318	-0.949951	-0.11499	0.325202	0.0479894	0.203912	-0.92215	-2.37991	-3.51162	8.77217	-0.00511833	-0.0100671	0.00797102	0.0112305	0.572754	-0.935547	0.617106	-0.0540618	0.268798	-0.737567	-4.04701	-4.06991	11.5588	-0.0479474	0.00315812	-0.0817796	0.210205	0.765381	-0.794922	0.0771591	0.031389	-0.107738	-0.990683	1.45342	0.372147	10.4745	0.0160347	-0.0644103	0.00443535	-0.479004	0.0739746	-0.977539	0.182994	0.823741	0.165457	-0.510478	-8.09591	1.39795	-3.81633	-0.0126448	-0.0033852	-0.00649147	1.04932	0.126221	0.305176	0.0725597	-0.125329	-0.0353535	-0.988826	2.70524	0.512161	10.2505	0.0254056	-0.00401689	-0.0146291	-0.641357	0.0202637	-0.816406	-0.0181244	-0.10657	-0.0551739	-0.992608	2.11289	1.23265	10.2083	0.0267657	0.0155149	-0.00124457	-0.606445	-0.137207	-0.904541	0.0210214	-0.0464409	0.0940069	-0.994266	0.865363	-1.8371	9.60233	0.0137624	0.00723505	-0.00620573	-0.556396	0.148193	-1.05688	
19	0.0775586	0.156733	-0.0233686	-0.984314	-3.47549	1.07747	10.3279	0.00969286	-0.00118708	-3.53434e-05	0.0341797	0.0927734	-1.14331	0.188912	0.276052	0.0503429	-0.941049	-4.93508	0.585702	8.7248	-0.0130478	0.0189829	-0.0132149	0.366211	0.0371094	-1.03076	0.106113	0.21279	-0.323822	-0.915751	-3.45138	6.59986	7.45084	-0.0250849	0.00772167	0.00437741	-0.0664062	-0.616455	-0.9375	-0.34061	0.170698	-0.679614	-0.626874	-6.59954	7.23434	0.270361	0.00139101	0.019783	0.00900397	0.348877	-0.947754	-0.110596	0.325761	0.0476628	0.203761	-0.922003	-2.32087	-3.57553	8.77187	0.00213463	-0.00921677	0.000338017	0.0153809	0.579346	-0.935547	0.617106	-0.0540618	0.268798	-0.737567	-4.04701	-4.06991	11.5588	-0.0479474	0.00315812	-0.0817796	0.210205	0.765381	-0.794922	0.0772412	0.0287948	-0.108015	-0.990726	1.50564	0.40701	10.4177	0.0183061	-0.0592596	-0.00158297	-0.48999	0.0803223	-0.975586	0.183556	0.823533	0.165042	-0.510747	-8.0852	1.33334	-3.75085	-0.000124109	-0.00417764	0.0107009	1.04297	0.12207	0.295898	0.0722625	-0.12553	-0.0358382	-0.988805	2.81366	0.468145	10.196	0.0202328	0.00168686	-0.0350753	-0.638916	0.0202637	-0.814209	-0.0182265	-0.106624	-0.0552107	-0.992598	2.10726	1.26698	10.1649	-0.0026706	0.0146085	0.00218688	-0.599854	-0.134766	-0.9021	0.0210023	-0.0464632	0.0936293	-0.994301	0.852705	-1.75607	9.58455	0.0123423	0.00739987	-0.00477148	-0.556396	0.143799	-1.05688	
20	0.0775586	0.156733	-0.0233686	-0.984314	-3.47549	1.07747	10.3279	0.00969286	-0.00118708	-3.53434e-05	0.0341797	0.0927734	-1.14331	0.189113	0.276094	0.0503461	-0.940996	-4.95625	0.529653	8.7175	-0.00715267	0.013612	-0.0176799	0.368164	0.0415039	-1.03076	0.106452	0.212755	-0.323496	-0.915835	-3.41125	6.47251	7.36935	0.000755896	0.00696483	0.0125093	-0.0705566	-0.616211	-0.939697	-0.340492	0.170807	-0.680016	-0.626473	-6.58397	7.20045	0.168231	0.0215599	0.0189765	-0.00540827	0.348633	-0.943359	-0.113037	0.326212	0.0476876	0.203175	-0.921971	-2.33268	-3.60791	8.7669	0.0330388	0.000403568	-0.000892904	0.0131836	0.581543	-0.937744	0.617106	-0.0540618	0.268798	-0.737567	-4.04701	-4.06991	11.5588	-0.0479474	0.00315812	-0.0817796	0.210205	0.765381	-0.794922	0.0770771	0.0259745	-0.108017	-0.990816	1.59221	0.360655	10.3907	0.00233797	-0.0846167	-0.012173	-0.494385	0.0803223	-0.973389	0.184215	0.82354	0.1645	-0.510672	-8.08813	1.53355	-3.70706	-0.00684281	0.0144053	0.0122823	1.04956	0.119873	0.293701	0.0718085	-0.125367	-0.0363277	-0.988841	2.7504	0.61933	10.2192	0.0222517	0.0160179	-0.0318959	-0.641357	0.0202637	-0.816406	-0.0182085	-0.106665	-0.0551611	-0.992597	2.17293	1.18729	10.2871	0.000212618	0.00597811	0.00747015	-0.604248	-0.132812	-0.902344	0.021011	-0.0464006	0.093922	-0.994276	0.891598	-1.77781	9.62114	-0.0240851	0.0105752	-0.00219724	-0.560791	0.145996	-1.05688	
21	0.0779392	0.155793	-0.0255889	-0.984378	-3.4828	1.13732	10.3158	0.0064971	-0.00360996	0.00168136	0.0231934	0.0905762	-1.14771	0.189299	0.275815	0.0501947	-0.941048	-4.96851	0.51397	8.76304	-0.013491	0.00536381	-0.0142864	0.366211	0.0393066	-1.02832	0.106279	0.212825	-0.32387	-0.915707	-3.4045	6.63854	7.50766	0.0227786	0.00524314	-0.00388364	-0.0664062	-0.612061	-0.930664	-0.340426	0.170911	-0.680564	-0.625885	-6.64223	7.28949	0.20941	0.0347879	0.0228656	-0.00293456	0.34668	-0.945557	-0.108398	0.326612	0.0476831	0.202603	-0.921956	-2.34031	-3.45899	8.76862	0.00917205	0.00329511	-0.00679733	0.0153809	0.577148	-0.935547	0.617106	-0.0540618	0.268798	-0.737567	-4.04701	-4.06991	11.5588	-0.0479474	0.00315812	-0.0817796	0.210205	0.765381	-0.794922	0.0769883	0.0249293	-0.1081	-0.990841	1.61827	0.293209	10.4219	0.0176396	-0.067231	-0.0120564	-0.494141	0.0759277	-0.971191	0.184557	0.823457	0.164325	-0.510739	-8.17852	1.5425	-3.75343	-0.00458737	0.0102035	-0.00749443	1.04932	0.12207	0.29126	0.0717672	-0.125322	-0.0368841	-0.988829	2.75961	0.603016	10.2552	0.0267918	0.00444111	-0.0151233	-0.638916	0.0180664	-0.816406	-0.0184304	-0.106685	-0.0552202	-0.992587	2.11018	1.09113	10.2302	0.000511206	0.0141127	-0.00818411	-0.604248	-0.137207	-0.904541	0.0209222	-0.0465328	0.0946347	-0.994204	0.864045	-1.94915	9.59944	-0.0302138	0.00295572	-0.00896293	-0.563477	0.152588	-1.05933	
22	0.0779392	0.155793	-0.0255889	-0.984378	-3.4828	1.13732	10.3158	0.0064971	-0.00360996	0.00168136	0.0231934	0.0905762	-1.14771	0.189502	0.275866	0.0505353	-0.940975	-5.02156	0.604729	8.72002	-0.0254837	0.0257638	-0.0191361	0.366211	0.0415039	-1.02612	0.105976	0.212969	-0.3243	-0.915556	-3.51053	6.66049	7.40437	0.0230023	0.00180486	-0.00872363	-0.0664062	-0.616455	-0.928223	-0.340233	0.171087	-0.680664	-0.625833	-6.64279	7.14491	0.213108	-0.00453311	0.0166862	0.00282319	0.348877	-0.947754	-0.108398	0.326954	0.0475911	0.202458	-0.921871	-2.36116	-3.52876	8.74863	0.0111077	0.00114627	-0.00564568	0.0131836	0.579346	-0.937744	0.617106	-0.0540618	0.268798	-0.737567	-4.04701	-4.06991	11.5588	-0.0479474	0.00315812	-0.0817796	0.210205	0.765381	-0.794922	0.0766777	0.0223067	-0.10827	-0.990909	1.62064	0.382349	10.4217	0.00487043	-0.0649783	-0.00531599	-0.504883	0.078125	-0.971191	0.184598	0.823427	0.164617	-0.510678	-8.10561	1.4787	-3.79876	-0.00532527	0.0113209	-0.0166688	1.04956	0.117676	0.289062	0.0719646	-0.125394	-0.0369015	-0.988805	2.68079	0.563882	10.2298	0.000940814	0.00545063	-0.00715616	-0.638916	0.0227051	-0.816406	-0.0185001	-0.106605	-0.0549569	-0.992609	2.05931	1.16283	10.1674	-0.00793509	0.00579084	0.00978239	-0.606445	-0.137207	-0.906738	0.0209168	-0.0465025	0.0941652	-0.99425	0.883303	-1.90716	9.54494	0.0386689	0.0114959	-0.00376767	-0.563232	0.150391	-1.05933	
23	0.0783455	0.155729	-0.0255069	-0.984358	-3.48832	1.17263	10.3148	-0.00174505	-0.00217981	0.00396388	0.0300293	0.0861816	-1.14966	0.189658	0.275761	0.0504263	-0.94098	-4.95607	0.575393	8.69875	0.00569644	0.0123266	-0.0117496	0.366211	0.0371094	-1.03076	0.105911	0.212895	-0.323661	-0.915807	-3.44874	6.50494	7.46362	-0.0261588	0.00207831	0.000267071	-0.0686035	-0.612061	-0.928467	-0.340132	0.171147	-0.680703	-0.625829	-6.63526	7.14022	0.190919	0.000177024	0.0143576	0.00327599	0.348389	-0.936768	-0.108643	0.327351	0.0473071	0.20241	-0.921756	-2.33739	-3.49135	8.82563	-0.0117771	-0.00704647	-0.00394943	0.0134277	0.574951	-0.93335	0.617106	-0.0540618	0.268798	-0.737567	-4.04701	-4.06991	11.5588	-0.0479474	0.00315812	-0.0817796	0.210205	0.765381	-0.794922	0.076953	0.0218735	-0.10799	-0.990928	1.63163	0.365052	10.2372	-0.00759344	-0.0169489	-0.00609388	-0.498291	0.0759277	-0.964844	0.184688	0.823266	0.164772	-0.510855	-8.15876	1.46787	-3.79741	-0.0027515	0.00474953	-0.0208423	1.04932	0.124268	0.293457	0.0720593	-0.12547	-0.0368891	-0.988789	2.6796	0.565108	10.23	0.00447145	0.00297092	-0.00878082	-0.643555	0.0180664	-0.812012	-0.0184783	-0.106711	-0.0550883	-0.992591	2.12443	1.09297	10.1964	0.0128349	0.00385993	0.00740133	-0.602051	-0.132812	-0.904541	0.0209776	-0.0463694	0.0933745	-0.994329	0.859427	-1.69432	9.63814	0.0223243	0.0123648	-0.00250723	-0.558838	0.148193	-1.05688	
24	0.0783455	0.155729	-0.0255069	-0.984358	-3.48832	1.17263	10.3148	-0.00174505	-0.00217981	0.00396388	0.0300293	0.0861816	-1.14966	0.189913	0.275866	0.0505065	-0.940893	-4.94417	0.578132	8.69648	-0.0155391	0.0252303	-0.0166712	0.370605	0.0349121	-1.02832	0.105847	0.212918	-0.323665	-0.915808	-3.46964	6.48406	7.43265	0.00511726	0.00364721	-0.00290506	-0.0664062	-0.618652	-0.935059	-0.339956	0.171115	-0.680827	-0.625799	-6.59883	7.20637	0.23961	0.0120674	0.0130076	0.00764772	0.348877	-0.945557	-0.101807	0.327515	0.0472738	0.202267	-0.921731	-2.314	-3.56648	8.78998	0.00958516	0.00140465	-0.00554948	0.0153809	0.579346	-0.937744	0.617106	-0.0540618	0.268798	-0.737567	-4.04701	-4.06991	11.5588	-0.0479474	0.00315812	-0.0817796	0.210205	0.765381	-0.794922	0.0768022	0.0201527	-0.108799	-0.990887	1.71066	0.336256	10.467	0.0356927	-0.0629076	-0.00466178	-0.50293	0.0803223	-0.960693	0.184766	0.823183	0.164789	-0.510956	-8.10543	1.40159	-3.73828	-0.000443431	0.00522949	-0.0168079	1.05371	0.119873	0.29126	0.0721024	-0.125708	-0.0369698	-0.988753	2.75013	0.53622	10.2171	0.0081863	-0.00251965	-0.0161834	-0.643555	0.0202637	-0.816406	-0.0185891	-0.106749	-0.0559271	-0.992538	2.12271	1.35755	10.2582	0.0296391	0.0134499	-0.0013282	-0.602051	-0.13501	-0.9021	0.020971	-0.0463892	0.0934778	-0.994319	0.866013	-1.7449	9.61401	-0.00749014	0.0063603	-0.00421984	-0.560791	0.145996	-1.05469	
25	0.0782191	0.155709	-0.0254682	-0.984372	-3.49809	1.14038	10.3181	-0.00120665	-0.00315754	-0.00466079	0.027832	0.0883789	-1.14551	0.190006	0.275863	0.050611	-0.94087	-4.99438	0.557649	8.73454	-0.0166011	0.0173625	-0.0188628	0.364014	0.0371094	-1.03296	0.105638	0.212965	-0.323799	-0.915773	-3.45606	6.58679	7.47234	-0.000692455	0.00118772	-0.00206147	-0.0664062	-0.616455	-0.932861	-0.33978	0.171211	-0.680862	-0.62583	-6.63645	7.22715	0.219718	-0.0119128	0.0111616	0.00312769	0.344238	-0.941162	-0.104248	0.327956	0.0472059	0.201962	-0.921644	-2.35885	-3.55097	8.77431	0.00952599	0.00116765	0.000349287	0.015625	0.572754	-0.937744	0.617106	-0.0540618	0.268798	-0.737567	-4.04701	-4.06991	11.5588	-0.0479474	0.00315812	-0.0817796	0.210205	0.765381	-0.794922	0.0767955	0.0189534	-0.108828	-0.990908	1.67503	0.378781	10.4169	0.012313	-0.07837	-0.00428859	-0.50708	0.078125	-0.964844	0.184985	0.823057	0.164782	-0.511081	-8.13113	1.45892	-3.738	-0.00515456	0.00728274	-0.0118124	1.04932	0.119873	0.28418	0.0721418	-0.125854	-0.0369936	-0.98873	2.75855	0.531385	10.2198	0.00646387	0.00709809	-0.0150102	-0.641113	0.0180664	-0.80957	-0.0186525	-0.106875	-0.0551378	-0.992567	2.06386	1.17182	10.2359	-0.0352403	0.00197511	0.00952183	-0.604248	-0.13501	-0.899902	0.0209703	-0.046499	0.0940463	-0.99426	0.839456	-1.764	9.62766	-0.0286684	0.00464833	-0.00523367	-0.558838	0.148193	-1.05469	
26	0.0781655	0.155573	-0.0254152	-0.984399	-3.51411	1.1574	10.3206	-0.00248204	-0.00752738	-0.00179372	0.0302734	0.0839844	-1.14526	0.190231	0.275798	0.0506266	-0.940843	-4.96829	0.54533	8.69668	-0.00256979	0.0132115	-0.0136619	0.364014	0.0393066	-1.03076	0.105629	0.213005	-0.32298	-0.916054	-3.48313	6.56591	7.37641	-0.0364943	0.00338385	-0.00929896	-0.0664062	-0.612061	-0.939697	-0.339698	0.171284	-0.680752	-0.625974	-6.59218	7.18512	0.170704	-0.00533758	0.0072225	-0.00115021	0.353027	-0.943359	-0.11084	0.328326	0.0471301	0.201659	-0.921583	-2.37061	-3.58381	8.8323	0.00843166	0.000384632	-0.00392442	0.0153809	0.577148	-0.937744	0.617106	-0.0540618	0.268798	-0.737567	-4.04701	-4.06991	11.5588	-0.0479474	0.00315812	-0.0817796	0.210205	0.765381	-0.794922	0.0766255	0.0167779	-0.108796	-0.990964	1.72582	0.321502	10.4093	0.0231223	-0.0452129	-0.00994372	-0.505127	0.0825195	-0.960693	0.185233	0.82295	0.164793	-0.51116	-8.08846	1.55072	-3.75145	-0.00944596	0.011432	-0.013885	1.04712	0.12207	0.293457	0.0722655	-0.125739	-0.0371337	-0.988731	2.72838	0.578403	10.2399	0.0146414	0.0171872	-0.00897163	-0.645752	0.0180664	-0.812012	-0.018803	-0.106932	-0.0549339	-0.99257	2.1705	1.04416	10.2253	0.00775918	0.0161611	-0.0017455	-0.608643	-0.13501	-0.9021	0.0209205	-0.0466371	0.0947316	-0.99419	0.894148	-1.95903	9.58851	-0.0176843	0.00403804	-0.00589265	-0.563477	0.152588	-1.06152	
27	0.078162	0.155361	-0.0255634	-0.984429	-3.46468	1.13451	10.3026	0.00518976	-0.00551876	-7.32036e-05	0.0275879	0.0905762	-1.14551	0.190379	0.275826	0.050541	-0.940809	-4.91987	0.583898	8.71027	-0.00393116	0.0188524	-0.0182437	0.361816	0.0371094	-1.02588	0.105296	0.212939	-0.322496	-0.916278	-3.45601	6.45874	7.50345	0.00210683	0.00135926	-0.010333	-0.0686035	-0.616211	-0.941895	-0.339628	0.17137	-0.680995	-0.625725	-6.60668	7.2131	0.261854	0.0161043	0.0161455	-0.000518508	0.344238	-0.941162	-0.113037	0.32871	0.0471945	0.201288	-0.921523	-2.32404	-3.50959	8.78259	0.00955899	0.00557687	-0.00305879	0.0175781	0.579346	-0.940186	0.617106	-0.0540618	0.268798	-0.737567	-4.04701	-4.06991	11.5588	-0.0479474	0.00315812	-0.0817796	0.210205	0.765381	-0.794922	0.0765575	0.0157929	-0.108916	-0.990973	1.80909	0.309382	10.4407	0.0211486	-0.0627718	-0.0108231	-0.511719	0.0844727	-0.960693	0.185473	0.822771	0.164797	-0.51136	-8.11412	1.33905	-3.75844	0.00463885	0.00478895	-0.0117006	1.04932	0.12207	0.288818	0.0723446	-0.125737	-0.037342	-0.988717	2.74516	0.520096	10.1977	0.0106512	0.00394282	-0.0183663	-0.643555	0.0180664	-0.816406	-0.0188253	-0.106884	-0.0551813	-0.992561	2.11871	1.22477	10.2046	-0.000942982	0.015767	0.00551323	-0.606445	-0.132812	-0.902344	0.0209104	-0.0466583	0.094526	-0.994209	0.873254	-1.87206	9.58449	0.0160061	0.00710626	-0.00312201	-0.558838	0.148193	-1.05688	
28	0.0781165	0.155324	-0.025805	-0.984432	-3.4756	1.14961	10.3161	0.0095112	-0.00826019	0.00176328	0.0324707	0.0839844	-1.14746	0.1905	0.276075	0.0504113	-0.940718	-4.9376	0.599039	8.6854	0.00541851	0.0281489	-0.0163431	0.37085	0.0327148	-1.02808	0.10514	0.213222	-0.323417	-0.915906	-3.42949	6.57422	7.4154	0.0478984	0.0090249	0.0019748	-0.064209	-0.616455	-0.935059	-0.339547	0.171405	-0.680941	-0.625817	-6.57147	7.15069	0.191315	-0.00768284	0.00558096	0.00289552	0.348633	-0.941162	-0.11084	0.329066	0.047101	0.201125	-0.921437	-2.32822	-3.48828	8.8052	0.00567737	0.00170418	-0.00726397	0.0109863	0.579346	-0.940186	0.617106	-0.0540618	0.268798	-0.737567	-4.04701	-4.06991	11.5588	-0.0479474	0.00315812	-0.0817796	0.210205	0.765381	-0.794922	0.0762538	0.013374	-0.108751	-0.99105	1.79923	0.351332	10.3488	-0.00995697	-0.0717043	-0.0103171	-0.524414	0.0800781	-0.956299	0.185589	0.822687	0.164727	-0.511476	-8.13237	1.47279	-3.716	-0.000419189	0.00948533	-0.01478	1.04736	0.117676	0.286621	0.0722544	-0.12581	-0.0372109	-0.98872	2.73432	0.546442	10.2011	-0.00263282	0.00727485	-0.0178441	-0.638916	0.0180664	-0.816406	-0.018856	-0.106808	-0.054907	-0.992583	2.14772	1.1147	10.2592	0.00280796	0.0134447	0.00358542	-0.608887	-0.130615	-0.902344	0.0209605	-0.0466043	0.0943255	-0.994229	0.888121	-1.80442	9.62498	-0.000507025	0.010211	-0.00277307	-0.554199	0.148193	-1.05249	
29	0.0779937	0.155407	-0.0260295	-0.984423	-3.43437	1.18341	10.3115	0.00866747	0.00399671	-0.00266985	0.0300293	0.0861816	-1.14331	0.190752	0.275597	0.0504001	-0.940808	-4.97217	0.586544	8.68719	-0.00368592	-0.00506871	-0.0146928	0.368408	0.0393066	-1.02612	0.105294	0.213096	-0.322778	-0.916143	-3.46522	6.50713	7.5145	-0.0384902	0.00526531	0.0078638	-0.064209	-0.614258	-0.932861	-0.339523	0.171391	-0.681027	-0.62574	-6.62199	7.30503	0.23494	0.00259045	0.00546717	0.00163925	0.344238	-0.943359	-0.106201	0.329342	0.047094	0.201032	-0.921359	-2.3479	-3.53246	8.80232	0.00552418	0.008578	-0.00955848	0.0153809	0.577148	-0.937744	0.617106	-0.0540618	0.268798	-0.737567	-4.04701	-4.06991	11.5588	-0.0479474	0.00315812	-0.0817796	0.210205	0.765381	-0.794922	0.0761593	0.0116522	-0.108729	-0.991081	1.91671	0.302325	10.3014	0.00776369	-0.0182335	-0.011963	-0.522461	0.0844727	-0.954346	0.185747	0.822629	0.164635	-0.511542	-8.11219	1.44185	-3.7371	0.003891	0.0148458	-0.0108122	1.05151	0.12207	0.28418	0.0720974	-0.125801	-0.0372361	-0.988731	2.77449	0.53016	10.2542	0.00428736	0.0115928	-0.0231095	-0.638916	0.0180664	-0.811768	-0.0189538	-0.106909	-0.0552781	-0.99255	2.15165	1.25029	10.2242	0.00793843	0.0122652	-0.00125747	-0.604248	-0.13501	-0.899902	0.0209195	-0.0466354	0.0943777	-0.994223	0.876343	-1.84607	9.59331	0.000716838	0.00549894	-0.0063435	-0.558838	0.150391	-1.05005	
30	0.0779042	0.155679	-0.0261502	-0.984384	-3.47353	1.16579	10.3111	0.00503865	0.00606744	-0.00105729	0.0322266	0.0861816	-1.14111	0.190947	0.275446	0.0506081	-0.940801	-4.95654	0.581836	8.70949	-0.0198664	0.0147896	-0.019188	0.368164	0.0415039	-1.03076	0.105641	0.213124	-0.322832	-0.916077	-3.4414	6.54398	7.41839	0.0148425	0.00838201	0.0152993	-0.064209	-0.614258	-0.935059	-0.339368	0.171418	-0.680826	-0.626036	-6.5514	7.11555	0.192464	-0.0063009	0.00782438	0.00657799	0.344238	-0.941162	-0.117432	0.329762	0.0470335	0.200913	-0.921238	-2.34067	-3.50261	8.8314	0.00159502	0.0031115	-0.000973577	0.0136719	0.568359	-0.940186	0.581836	-0.0371619	0.279069	-0.763024	-4.08895	-4.36478	11.368	0.0065856	0.0125098	-0.00984905	0.199219	0.767578	-0.80127	0.0760135	0.0107917	-0.108058	-0.991176	1.89304	0.335358	10.4452	-0.0207829	-0.0242525	-0.00975311	-0.524414	0.0822754	-0.952148	0.185902	0.822636	0.164412	-0.511546	-8.12554	1.44194	-3.7049	0.00267725	0.0128328	-0.00706971	1.04932	0.119873	0.286621	0.071914	-0.125788	-0.0372363	-0.988746	2.74302	0.521876	10.1548	0.0058007	0.00601568	-0.0235162	-0.641113	0.015625	-0.811768	-0.0189727	-0.106925	-0.0549683	-0.992565	2.12357	1.12125	10.2101	-0.0135465	0.00316823	0.00945885	-0.604248	-0.132812	-0.904541	0.020963	-0.0466406	0.0944487	-0.994216	0.867593	-1.86614	9.56299	-0.000121684	0.00883586	-0.00251693	-0.558838	0.150391	-1.05688	
31	0.077787	0.155928	-0.0262802	-0.98435	-3.5481	1.14001	10.316	0.00770844	0.00351651	-0.00271459	0.0322266	0.0883789	-1.14331	0.191226	0.275451	0.0508133	-0.940732	-4.92721	0.558598	8.67026	-0.0102812	0.019151	-0.0151622	0.364014	0.0415039	-1.03076	0.105926	0.213141	-0.32309	-0.915949	-3.4421	6.54881	7.4755	0.00422118	0.0153849	0.0121148	-0.0686035	-0.612061	-0.939697	-0.339242	0.171421	-0.680959	-0.625959	-6.55928	7.23785	0.265194	0.00950166	0.0174621	0.00675772	0.346436	-0.943359	-0.11084	0.329927	0.0470208	0.200876	-0.921188	-2.32659	-3.50868	8.79991	0.000571965	0.00527131	-0.00331185	0.0153809	0.57959	-0.942383	0.581762	-0.0367481	0.278556	-0.763288	-4.06328	-4.33041	11.3271	0.0168143	0.00200018	-0.00734696	0.197021	0.769775	-0.803467	0.0760135	0.0107917	-0.108058	-0.991176	1.89304	0.335358	10.4452	-0.0207829	-0.0242525	-0.00975311	-0.524414	0.0822754	-0.952148	0.186231	0.822579	0.16436	-0.511534	-8.11512	1.52949	-3.74764	-0.0119301	0.01322	-0.0109742	1.05151	0.119873	0.293457	0.0718433	-0.125876	-0.037366	-0.988735	2.75041	0.515814	10.1929	0.0140827	0.00109057	-0.0220405	-0.648193	0.0202637	-0.816406	-0.0190445	-0.106887	-0.0548621	-0.992574	2.10326	1.10671	10.2076	-0.00706107	0.0145856	0.000528744	-0.606689	-0.130615	-0.900146	0.0208706	-0.0466569	0.0946914	-0.994194	0.851403	-1.74656	9.62638	-0.023731	0.00620912	-0.00881612	-0.561035	0.150391	-1.05469	
32	0.0777038	0.155916	-0.0264041	-0.984355	-3.51498	1.15425	10.3187	0.0102759	-0.00591308	-0.00364704	0.027832	0.0861816	-1.14331	0.191348	0.275473	0.0507318	-0.940705	-4.98395	0.561214	8.68909	-0.00230219	0.0168651	-0.0127438	0.364014	0.0371094	-1.03296	0.106072	0.213252	-0.322988	-0.915943	-3.49209	6.60131	7.43034	-0.00481491	0.0165683	0.00819935	-0.064209	-0.612061	-0.928467	-0.339005	0.171505	-0.681116	-0.625893	-6.60206	7.16203	0.180477	-0.00166826	0.0160273	0.00461481	0.35083	-0.943359	-0.11084	0.330274	0.0468997	0.200737	-0.921099	-2.38715	-3.55599	8.8051	0.00822079	-0.000714442	-0.00502235	0.0090332	0.574951	-0.942383	0.581688	-0.0366541	0.278376	-0.763415	-4.1352	-4.31884	11.361	0.00843289	0.00127663	-0.0104781	0.199219	0.767578	-0.803467	0.0760135	0.0107917	-0.108058	-0.991176	1.89304	0.335358	10.4452	-0.0207829	-0.0242525	-0.00975311	-0.524414	0.0822754	-0.952148	0.186482	0.822526	0.164429	-0.511506	-8.12726	1.46774	-3.76168	-0.0149422	0.0133772	-0.0107328	1.04956	0.117676	0.281982	0.0718476	-0.126061	-0.0373123	-0.988713	2.70473	0.524259	10.2492	0.00330182	0.0020399	-0.0152476	-0.643311	0.015625	-0.80957	-0.0191849	-0.106841	-0.0550633	-0.992565	2.1262	1.2079	10.2794	0.000497937	0.0149312	-0.000561794	-0.604248	-0.13501	-0.899902	0.0207747	-0.0467191	0.0950942	-0.994154	0.887375	-1.90181	9.60637	-0.0319886	0.00427862	-0.0106872	-0.552002	0.148438	-1.05249	
33	0.0774434	0.155969	-0.0268612	-0.984355	-3.52637	1.20046	10.3164	0.0125328	-0.00556599	-0.000628636	0.027832	0.0861816	-1.14331	0.191873	0.27552	0.0505296	-0.940596	-4.94331	0.523667	8.68498	-0.00354755	0.0173696	-0.00707452	0.366211	0.0371094	-1.0354	0.106195	0.213127	-0.323269	-0.915858	-3.45419	6.47292	7.43165	0.0268959	-0.00277598	0.0145434	-0.0620117	-0.62085	-0.937256	-0.338841	0.171613	-0.681523	-0.62551	-6.62355	7.22201	0.18897	0.0207208	0.0193017	-0.0018375	0.344238	-0.941162	-0.102051	0.330711	0.0468827	0.200469	-0.921002	-2.36209	-3.50697	8.79747	0.00723171	0.00406717	-0.0010708	0.0134277	0.572754	-0.940186	0.581432	-0.0361957	0.278007	-0.763767	-4.03109	-4.29033	11.349	0.0107556	0.00961912	-0.0118574	0.199463	0.767578	-0.799072	0.0760135	0.0107917	-0.108058	-0.991176	1.89304	0.335358	10.4452	-0.0207829	-0.0242525	-0.00975311	-0.524414	0.0822754	-0.952148	0.187038	0.822414	0.164368	-0.511502	-8.16041	1.46669	-3.76026	-0.00162061	0.01256	-0.00966055	1.04541	0.115479	0.29126	0.071859	-0.126121	-0.0377634	-0.988688	2.74388	0.591601	10.2123	0.0284958	0.00924043	-0.0172973	-0.638672	0.015625	-0.80957	-0.0194036	-0.106751	-0.0543561	-0.992609	2.13	1.08002	10.172	-0.0178486	0.0225101	0.00215173	-0.604248	-0.13501	-0.904541	0.0206695	-0.0467012	0.0950456	-0.994162	0.874656	-1.9087	9.58353	0.026085	0.010775	-0.00111332	-0.563232	0.148193	-1.04785	
34	0.0774166	0.155889	-0.0269705	-0.984367	-3.49898	1.18607	10.2992	0.00797068	-0.0109712	0.000807438	0.0300293	0.0861816	-1.14551	0.191974	0.275524	0.0504391	-0.940579	-4.98337	0.557538	8.69576	-0.00155057	0.0152685	-0.0147316	0.364014	0.0415039	-1.02612	0.106191	0.213243	-0.323546	-0.915734	-3.46771	6.61868	7.42651	-0.00419786	0.00454961	-0.00226324	-0.064209	-0.616455	-0.93042	-0.338761	0.171649	-0.681606	-0.625453	-6.59027	7.19758	0.137771	-0.00102301	0.00615911	0.00254703	0.34668	-0.945557	-0.104004	0.331066	0.0467447	0.200335	-0.92091	-2.30966	-3.48738	8.80414	-0.00131966	-0.00136843	-0.00663935	0.0134277	0.574951	-0.940186	0.581331	-0.0360363	0.277919	-0.763882	-4.03755	-4.32887	11.3783	0.00744518	0.0111734	-0.0124022	0.203613	0.769775	-0.807861	0.0751047	0.00894696	-0.107825	-0.991289	1.95249	0.340263	10.3248	0.00369029	-0.0154758	-0.013751	-0.526855	0.0844727	-0.954346	0.187061	0.822389	0.164322	-0.51155	-8.13047	1.49269	-3.75603	0.00638362	0.0107715	-0.0132157	1.05396	0.117676	0.286621	0.0718172	-0.126133	-0.0380422	-0.988679	2.73343	0.595628	10.2343	0.0113655	0.00627481	-0.0187386	-0.641113	0.015625	-0.811768	-0.0193332	-0.106862	-0.0552047	-0.992552	2.09474	1.15698	10.2101	0.0422328	0.000204653	0.00444905	-0.606445	-0.13501	-0.904541	0.0207365	-0.04666	0.0947185	-0.994194	0.869499	-1.85771	9.58225	0.0271968	0.0108244	-0.000256229	-0.561035	0.148193	-1.05469	
35	0.0772723	0.155798	-0.0272267	-0.984386	-3.46141	1.17584	10.3183	0.0122053	-0.00804664	-0.00326079	0.026123	0.0795898	-1.14111	0.192117	0.275531	0.0501997	-0.94056	-4.94612	0.605931	8.69298	0.00291992	0.0171583	-0.01288	0.368408	0.0371094	-1.02832	0.106298	0.212957	-0.322611	-0.916118	-3.50569	6.52034	7.45196	-0.0384893	-0.00928762	0.0021141	-0.0620117	-0.612061	-0.9375	-0.338807	0.171551	-0.681799	-0.625244	-6.63982	7.18496	0.18624	0.0259851	0.0072698	-0.000624029	0.344238	-0.945557	-0.101807	0.331351	0.0467639	0.200022	-0.920875	-2.32751	-3.49808	8.82659	0.0185151	0.00682007	-0.00688882	0.00878906	0.581543	-0.935547	0.581125	-0.0355294	0.277355	-0.764268	-4.08161	-4.30857	11.3838	0.0298341	0.00721175	-0.0166087	0.193115	0.763184	-0.807617	0.0749444	0.00848341	-0.107667	-0.991322	1.92312	0.297571	10.3532	0.0177476	-0.00379444	-0.0198027	-0.526855	0.0866699	-0.952393	0.187105	0.822338	0.164293	-0.511625	-8.1162	1.53268	-3.73244	0.00531298	0.0150856	-0.0191367	1.0498	0.111084	0.289062	0.0719012	-0.126335	-0.0383959	-0.988633	2.71921	0.620345	10.2231	0.0189474	-0.00225176	-0.0110013	-0.643311	0.015625	-0.811768	-0.0193886	-0.106828	-0.0553643	-0.992546	2.15721	1.31841	10.2601	-0.002532	0.0181052	0.00486866	-0.606201	-0.141602	-0.904297	0.0207444	-0.046631	0.0943294	-0.994232	0.88706	-1.73722	9.6139	0.00720016	0.00854169	-0.00479229	-0.560791	0.145996	-1.05908	
36	0.0771201	0.155884	-0.0276095	-0.984373	-3.50139	1.17245	10.3117	0.0161451	0.000737367	-0.00380533	0.0258789	0.0839844	-1.14331	0.192283	0.275594	0.0500423	-0.940516	-4.98016	0.574166	8.73181	-0.00366182	0.0144304	-0.0202003	0.368408	0.0371094	-1.03076	0.106091	0.212951	-0.322958	-0.916021	-3.46416	6.61399	7.45235	0.0375064	0.00156262	-0.00351508	-0.0620117	-0.616455	-0.9375	-0.338737	0.17151	-0.682177	-0.624881	-6.62575	7.25247	0.167013	0.0205366	0.0170881	0.0033609	0.342041	-0.945557	-0.108398	0.331638	0.0466678	0.199836	-0.920817	-2.34756	-3.47624	8.76954	9.21325e-05	0.000539699	-0.0102601	0.0131836	0.577148	-0.935547	0.580833	-0.035381	0.277197	-0.764554	-4.05938	-4.32059	11.3808	-0.00779153	0.0100119	-0.0176705	0.203613	0.767578	-0.80127	0.0749444	0.00848341	-0.107667	-0.991322	1.92312	0.297571	10.3532	0.0177476	-0.00379444	-0.0198027	-0.526855	0.0866699	-0.952393	0.187145	0.822238	0.164365	-0.511747	-8.12115	1.497	-3.69714	0.000806088	0.0100534	-0.0186603	1.04956	0.119873	0.293701	0.0720841	-0.126632	-0.0384594	-0.988579	2.75776	0.573034	10.2147	0.00559137	-0.00214552	-0.00804487	-0.645752	0.015625	-0.80957	-0.0195645	-0.106861	-0.0548552	-0.992567	2.111	1.10394	10.2013	-0.0246321	0.00865322	-0.00145063	-0.604248	-0.137207	-0.906738	0.0206608	-0.0467875	0.0949415	-0.994168	0.876104	-1.88179	9.57671	-0.0295178	0.00122964	-0.00688789	-0.558838	0.148193	-1.05469	
37	0.0768871	0.15588	-0.0279761	-0.984382	-3.47482	1.24664	10.3042	0.0141453	-0.00656324	-0.00555345	0.0283203	0.0795898	-1.14111	0.192513	0.275655	0.04999	-0.940454	-4.97902	0.566065	8.69222	-0.00766072	0.0152272	-0.0157883	0.370361	0.0415039	-1.02612	0.105735	0.213014	-0.32389	-0.915718	-3.45059	6.59352	7.44995	0.037132	0.00151456	-0.00178431	-0.0664062	-0.614258	-0.9375	-0.338585	0.171471	-0.682303	-0.624836	-6.61644	7.20332	0.13741	0.00257417	0.00774653	0.00598421	0.346436	-0.941162	-0.106445	0.332004	0.0466407	0.199743	-0.920707	-2.33285	-3.44514	8.80989	0.0110683	0.00981995	-0.00502997	0.0090332	0.577148	-0.940186	0.580561	-0.0350803	0.277128	-0.7648	-4.05084	-4.35373	11.4205	0.0119071	0.0171992	-0.0177394	0.201416	0.767578	-0.803467	0.0749444	0.00848341	-0.107667	-0.991322	1.92312	0.297571	10.3532	0.0177476	-0.00379444	-0.0198027	-0.526855	0.0866699	-0.952393	0.187185	0.822179	0.164457	-0.511798	-8.127	1.44102	-3.73786	0.0032902	0.0148322	-0.020011	1.05371	0.119873	0.286621	0.0721566	-0.126724	-0.0385127	-0.98856	2.7629	0.599385	10.1989	0.0072096	0.0065394	-0.0138535	-0.640869	0.0134277	-0.807373	-0.0195712	-0.106851	-0.0550483	-0.992557	2.12044	1.17476	10.1808	0.0219123	0.00926109	0.00923992	-0.602295	-0.128418	-0.906982	0.0206568	-0.0467907	0.0949909	-0.994163	0.884453	-1.86581	9.58313	0.0031859	0.00948502	-0.00263247	-0.556396	0.145996	-1.05469	
38	0.0767445	0.155917	-0.0281176	-0.984383	-3.52628	1.24606	10.3027	0.00218595	-0.00237225	-0.00132542	0.0280762	0.0839844	-1.14966	0.192679	0.275241	0.0497854	-0.940553	-4.92801	0.598654	8.7523	-0.00790945	-0.0114154	-0.0176021	0.368408	0.0393066	-1.03784	0.105745	0.212959	-0.322846	-0.916099	-3.44098	6.5375	7.47837	-0.0599694	0.00386181	-0.00536712	-0.0664062	-0.616455	-0.932861	-0.338584	0.171407	-0.682366	-0.624785	-6.63734	7.24976	0.182485	0.00822187	0.00460444	0.00409701	0.346436	-0.941162	-0.106445	0.332178	0.0466039	0.199914	-0.920609	-2.29628	-3.43664	8.76759	-0.0102315	0.0120331	-0.0184109	0.0114746	0.570557	-0.935547	0.580355	-0.034801	0.277101	-0.764979	-4.01791	-4.32257	11.3361	-0.00467755	0.0151573	-0.0133134	0.199219	0.769775	-0.80127	0.0749444	0.00848341	-0.107667	-0.991322	1.92312	0.297571	10.3532	0.0177476	-0.00379444	-0.0198027	-0.526855	0.0866699	-0.952393	0.18701	0.822191	0.164463	-0.51184	-8.11246	1.4424	-3.7355	0.0155884	0.0169579	-0.0197451	1.05176	0.113281	0.289062	0.0721287	-0.126739	-0.0385313	-0.98856	2.78787	0.601668	10.2106	0.0061049	0.00774802	-0.017731	-0.641113	0.0180664	-0.807373	-0.0195567	-0.106822	-0.0550751	-0.992559	2.11314	1.16655	10.2454	0.00440738	0.0140633	0.00530676	-0.606689	-0.130615	-0.895508	0.0207302	-0.0466892	0.0947816	-0.994187	0.843711	-1.85453	9.60173	0.00982763	0.0105466	-0.00151878	-0.565186	0.141602	-1.05225	
39	0.0766282	0.155878	-0.0281871	-0.984396	-3.4745	1.18991	10.3155	0.00401528	-0.00468382	-0.00317887	0.0236816	0.0817871	-1.14746	0.192912	0.275125	0.0503398	-0.940509	-5.02873	0.560667	8.66379	-0.0317461	0.0160528	-0.0200447	0.370605	0.0393066	-1.0332	0.105895	0.213112	-0.322654	-0.916114	-3.4743	6.51708	7.38894	0.00837649	0.0113081	0.00782772	-0.0664062	-0.607666	-0.935303	-0.338535	0.171336	-0.681972	-0.625261	-6.61041	7.22286	0.141488	-0.030368	-0.00673032	0.00961427	0.348633	-0.941162	-0.106445	0.332334	0.0464579	0.200251	-0.920486	-2.41306	-3.49717	8.77777	-0.0157257	0.00744582	-0.00944788	0.015625	0.575195	-0.94458	0.580083	-0.0347102	0.2774	-0.76508	-4.11844	-4.3269	11.402	-0.0130824	0.0186585	-0.0130181	0.197266	0.765381	-0.80542	0.0749444	0.00848341	-0.107667	-0.991322	1.92312	0.297571	10.3532	0.0177476	-0.00379444	-0.0198027	-0.526855	0.0866699	-0.952393	0.186763	0.82222	0.164527	-0.511864	-8.14117	1.51565	-3.76202	0.00801106	0.0172513	-0.024425	1.04932	0.119873	0.28418	0.0720048	-0.126806	-0.0380455	-0.988579	2.73924	0.576406	10.1731	-0.0199982	0.00827226	-0.0185707	-0.643311	0.0158691	-0.818604	-0.0196014	-0.1067	-0.0548433	-0.992584	2.11779	1.16112	10.2534	0.000535471	0.015031	0.00628842	-0.604248	-0.137207	-0.906738	0.0207158	-0.0466912	0.0947995	-0.994185	0.872259	-1.8273	9.63065	-0.00754903	0.00699911	-0.00409099	-0.558838	0.148193	-1.05249	
40	0.0765747	0.155989	-0.0282228	-0.984382	-3.43629	1.2067	10.306	0.0037277	0.00480042	-0.00234635	0.0283203	0.0795898	-1.14307	0.193195	0.274829	0.0502046	-0.940545	-4.92527	0.539529	8.70559	0.00362633	0.00920516	-0.0122642	0.368408	0.0371094	-1.03296	0.105815	0.21312	-0.322645	-0.916124	-3.47948	6.6049	7.37216	0.00455277	0.0019464	-0.00417885	-0.0664062	-0.612061	-0.935303	-0.338474	0.171263	-0.681604	-0.625715	-6.5968	7.17945	0.201448	-0.0125429	0.000590229	0.00683658	0.343994	-0.938965	-0.108643	0.332426	0.0464381	0.200303	-0.920443	-2.40914	-3.52006	8.7948	-0.00466243	0.00827128	-0.0107325	0.0134277	0.574951	-0.93335	0.579949	-0.0346457	0.277603	-0.765111	-4.10938	-4.33087	11.3279	-0.0155566	0.0216422	-0.011752	0.199219	0.767578	-0.805664	0.0749444	0.00848341	-0.107667	-0.991322	1.92312	0.297571	10.3532	0.0177476	-0.00379444	-0.0198027	-0.526855	0.0866699	-0.952393	0.186745	0.822182	0.164605	-0.511907	-8.14064	1.46774	-3.79625	0.00301459	0.0131523	-0.0233083	1.04932	0.119873	0.286621	0.0719599	-0.126812	-0.0377397	-0.988593	2.73186	0.51625	10.2531	-0.00345824	0.00815173	-0.0155901	-0.641357	0.0224609	-0.812012	-0.0196431	-0.106676	-0.0547965	-0.992588	2.1099	1.1403	10.2059	-0.00217671	0.0135829	0.00313208	-0.606689	-0.130615	-0.895508	0.0207109	-0.0467142	0.0949079	-0.994174	0.885493	-1.89244	9.56161	-0.00804605	0.00618653	-0.0039948	-0.560791	0.145996	-1.05688	
41	0.0766385	0.156164	-0.0282841	-0.984347	-3.52777	1.18305	10.3046	0.00405973	-0.00164578	0.00425418	0.0283203	0.0795898	-1.14111	0.193242	0.274909	0.0501302	-0.940516	-4.87929	0.553868	8.75683	-0.000419535	0.0214811	-0.0188974	0.370605	0.0349121	-1.03296	0.10565	0.213119	-0.322693	-0.916126	-3.44066	6.42998	7.4708	0.016485	0.00231217	-0.00182615	-0.064209	-0.618652	-0.935059	-0.338429	0.171269	-0.681792	-0.625534	-6.54147	7.25147	0.198901	0.0161337	0.0110038	-0.00126662	0.34668	-0.947754	-0.101807	0.332694	0.0462171	0.200356	-0.920346	-2.2472	-3.57751	8.82855	0.00623605	0.00696887	-0.010579	0.00927734	0.570557	-0.937744	0.579752	-0.0346805	0.278086	-0.765084	-4.0411	-4.40833	11.3731	-0.010847	0.0164304	-0.0118447	0.203613	0.769775	-0.803467	0.0749444	0.00848341	-0.107667	-0.991322	1.92312	0.297571	10.3532	0.0177476	-0.00379444	-0.0198027	-0.526855	0.0866699	-0.952393	0.186779	0.822097	0.16471	-0.511997	-8.12848	1.47764	-3.67596	0.00051528	0.0121672	-0.0222418	1.04736	0.119873	0.288818	0.0720579	-0.126937	-0.0377605	-0.988569	2.79632	0.56374	10.1874	0.00645152	0.0028287	-0.0105273	-0.647949	0.0134277	-0.811768	-0.0196509	-0.106628	-0.0548105	-0.992593	2.1275	1.17019	10.1966	0.00359832	0.0111258	0.00837339	-0.604248	-0.137207	-0.904541	0.0207622	-0.0466205	0.0947227	-0.994195	0.905206	-1.82492	9.5946	0.00943619	0.0119161	-0.00177318	-0.554443	0.152832	-1.06152	
42	0.0766003	0.15613	-0.028453	-0.984351	-3.49175	1.21174	10.3122	0.00578026	-0.00552884	0.00185649	0.0305176	0.0795898	-1.14307	0.193526	0.275138	0.050208	-0.940386	-4.97815	0.56289	8.71688	-0.0136015	0.0170335	-0.017757	0.368164	0.0415039	-1.03076	0.105443	0.213272	-0.323351	-0.915883	-3.42267	6.64903	7.4299	0.0245007	0.00581601	-0.00219257	-0.0727539	-0.614014	-0.926025	-0.338305	0.171319	-0.681899	-0.625471	-6.5523	7.2036	0.244732	0.00366878	0.0139833	0.00315292	0.346436	-0.943359	-0.108643	0.332863	0.0463674	0.20006	-0.920341	-2.38161	-3.49153	8.78715	0.0118586	0.0120114	-0.00972832	0.0090332	0.574951	-0.940186	0.579667	-0.0346438	0.278081	-0.765152	-4.07898	-4.37137	11.3515	-0.000888259	0.0112248	-0.0159492	0.201416	0.767578	-0.805664	0.0749444	0.00848341	-0.107667	-0.991322	1.92312	0.297571	10.3532	0.0177476	-0.00379444	-0.0198027	-0.526855	0.0866699	-0.952393	0.186881	0.822017	0.164846	-0.512044	-8.09833	1.42674	-3.71238	-0.00622708	0.0150176	-0.0150351	1.04517	0.117676	0.28418	0.072239	-0.127054	-0.0377826	-0.98854	2.79859	0.46381	10.1821	0.009764	0.00832379	-0.00827509	-0.643311	0.015625	-0.80957	-0.0196837	-0.106657	-0.0547539	-0.992592	2.11278	1.17479	10.2657	-0.00495532	0.0149567	0.00247899	-0.599854	-0.132568	-0.899902	0.0207724	-0.0465753	0.0946272	-0.994206	0.868295	-1.85574	9.63236	0.00504001	0.00752332	-0.00530432	-0.558838	0.152588	-1.05469	
43	0.0765667	0.156032	-0.0287078	-0.984361	-3.51188	1.22947	10.2984	0.00927559	-0.0111049	0.00379469	0.026123	0.0795898	-1.14746	0.193648	0.275159	0.0502148	-0.940354	-4.95231	0.55637	8.67163	-0.00882575	0.0180916	-0.0150638	0.372803	0.0371094	-1.03296	0.105562	0.2132	-0.322896	-0.916046	-3.48956	6.41323	7.48481	-0.0139322	0.0090423	0.00830606	-0.0576172	-0.618652	-0.93042	-0.338266	0.171483	-0.681935	-0.625408	-6.62934	7.26516	0.204869	-0.00602884	0.00759991	-0.00580928	0.348389	-0.936768	-0.108643	0.333096	0.0463227	0.200026	-0.920267	-2.33801	-3.46717	8.85272	0.000127398	0.00849586	-0.0114709	0.0131836	0.577148	-0.937744	0.579486	-0.034218	0.277981	-0.765344	-4.1108	-4.33812	11.3275	0.0110123	0.0130648	-0.0044971	0.199219	0.767578	-0.807861	0.0749444	0.00848341	-0.107667	-0.991322	1.92312	0.297571	10.3532	0.0177476	-0.00379444	-0.0198027	-0.526855	0.0866699	-0.952393	0.187044	0.822022	0.164749	-0.512008	-8.13663	1.47445	-3.76513	0.0048436	0.0166197	-0.0108504	1.04932	0.119873	0.29126	0.0723081	-0.126826	-0.0379007	-0.98856	2.74472	0.547838	10.2292	0.00585489	0.0215821	-0.0140554	-0.636475	0.0158691	-0.811768	-0.0197469	-0.106694	-0.0545131	-0.9926	2.14046	1.13304	10.2427	-0.00540949	0.00665221	0.00445297	-0.604248	-0.137207	-0.9021	0.0208077	-0.0466447	0.0948335	-0.994182	0.864226	-1.86358	9.59915	-0.0118454	0.00447237	-0.00244359	-0.556396	0.148193	-1.06372	
44	0.0766028	0.155875	-0.0289216	-0.984377	-3.49344	1.22731	10.3191	0.0074657	-0.0104905	0.00424895	0.026123	0.0773926	-1.14307	0.193825	0.275366	0.0501717	-0.94026	-4.99753	0.557602	8.73211	-0.00767648	0.026053	-0.0164925	0.368408	0.0393066	-1.03076	0.105513	0.213369	-0.323359	-0.915849	-3.46465	6.52778	7.33362	0.0318472	-0.000117075	0.0063839	-0.0705566	-0.614258	-0.932861	-0.338291	0.171725	-0.681973	-0.625285	-6.60379	7.0834	0.164893	0.0172692	0.0173043	-0.00747634	0.341797	-0.941162	-0.104248	0.333442	0.046391	0.199933	-0.920158	-2.33055	-3.58069	8.80891	0.0135721	0.0124385	-0.00590907	0.015625	0.572754	-0.93335	0.579339	-0.0337733	0.277633	-0.765602	-4.10189	-4.36305	11.3758	0.0207891	0.0106762	-0.00845857	0.197266	0.763184	-0.803223	0.0749444	0.00848341	-0.107667	-0.991322	1.92312	0.297571	10.3532	0.0177476	-0.00379444	-0.0198027	-0.526855	0.0866699	-0.952393	0.187273	0.822049	0.164573	-0.511937	-8.13737	1.50057	-3.74088	0.002373	0.0165413	-0.00517643	1.04736	0.117676	0.28418	0.0722798	-0.126521	-0.0382111	-0.988589	2.71003	0.526346	10.1689	0.0245051	0.0170721	-0.0194041	-0.641113	0.015625	-0.811768	-0.0198194	-0.106702	-0.0544951	-0.992599	2.08992	1.13521	10.1656	0.00426956	0.0106119	0.00264996	-0.606689	-0.130615	-0.902344	0.0207979	-0.0466781	0.0946811	-0.994195	0.883691	-1.84925	9.55571	0.00979016	0.00776838	-0.00549834	-0.556885	0.155029	-1.05469	
45	0.0766736	0.155768	-0.0291247	-0.984383	-3.4685	1.23798	10.2995	0.00527255	-0.00726914	0.00627388	0.0285645	0.0751953	-1.14746	0.194014	0.275787	0.0500719	-0.940103	-4.97226	0.579003	8.65545	0.00815286	0.03469	-0.0153483	0.370605	0.0371094	-1.02832	0.105397	0.21335	-0.324471	-0.915473	-3.44445	6.54567	7.48215	0.0560655	0.00438557	0.0105685	-0.0664062	-0.612061	-0.932861	-0.338252	0.171843	-0.682325	-0.62489	-6.59101	7.26573	0.185974	0.0149548	0.0154393	-0.00284932	0.342041	-0.945557	-0.108398	0.333603	0.0465413	0.199775	-0.920127	-2.33384	-3.42246	8.77977	-0.00252089	0.00721386	-0.00848495	0.015625	0.575195	-0.94458	0.579191	-0.0334807	0.277266	-0.765859	-4.05114	-4.31477	11.354	0.00920812	0.0106137	-0.0125827	0.203613	0.765381	-0.807617	0.0749444	0.00848341	-0.107667	-0.991322	1.92312	0.297571	10.3532	0.0177476	-0.00379444	-0.0198027	-0.526855	0.0866699	-0.952393	0.187564	0.822013	0.164308	-0.511974	-8.12207	1.49634	-3.71966	0.00518465	0.0116448	-0.00232856	1.04736	0.115479	0.286621	0.0721668	-0.126474	-0.0385994	-0.988588	2.77708	0.589309	10.231	0.0146134	0.00747995	-0.0216778	-0.643311	0.0134277	-0.813965	-0.0198399	-0.106757	-0.0548402	-0.992573	2.16619	1.20453	10.2507	0.0103699	0.0146395	0.00189163	-0.604248	-0.137207	-0.9021	0.020774	-0.0466582	0.094537	-0.99421	0.898439	-1.8774	9.60824	0.00608605	0.00848228	-0.00564405	-0.558838	0.152588	-1.05933	
46	0.0767437	0.155783	-0.0292524	-0.984371	-3.46032	1.21805	10.3032	0.00478626	-0.00262007	0.00461076	0.0217285	0.0751953	-1.14111	0.194277	0.275343	0.0501761	-0.940173	-4.93013	0.610682	8.67527	-0.014178	-0.00482811	-0.0153914	0.368164	0.0437012	-1.0332	0.105342	0.213319	-0.324792	-0.915374	-3.43245	6.66355	7.4034	0.000578546	0.00170265	0.00128007	-0.0664062	-0.616455	-0.932861	-0.338255	0.17201	-0.682536	-0.624612	-6.6229	7.2535	0.0920277	0.0112049	0.0145439	-0.00806205	0.346436	-0.943359	-0.101807	0.333787	0.0465856	0.19959	-0.920098	-2.33799	-3.47154	8.80932	0.0156497	0.00979467	-0.012478	0.0136719	0.568359	-0.937744	0.579152	-0.0332403	0.27704	-0.765981	-4.05057	-4.28737	11.3809	0.0104613	0.011668	-0.0091591	0.20166	0.765381	-0.80127	0.0749444	0.00848341	-0.107667	-0.991322	1.92312	0.297571	10.3532	0.0177476	-0.00379444	-0.0198027	-0.526855	0.0866699	-0.952393	0.187701	0.822042	0.164323	-0.511873	-8.1401	1.56068	-3.71904	0.000256859	0.0213885	-0.0167021	1.04932	0.119873	0.288818	0.0722832	-0.12637	-0.0387848	-0.988586	2.74225	0.642313	10.2424	0.013835	0.01253	-0.010395	-0.643066	0.0112305	-0.816162	-0.0198853	-0.106775	-0.0547474	-0.992576	2.10814	1.13983	10.2402	0.00592341	0.00510814	0.0045552	-0.606445	-0.132812	-0.899902	0.0207712	-0.0467034	0.0945366	-0.994208	0.882711	-1.80868	9.6252	-0.00623071	0.00464091	-0.00517987	-0.561035	0.150391	-1.05469	
47	0.0766051	0.155884	-0.0294786	-0.984359	-3.46223	1.2268	10.3111	0.0115891	-0.00107399	-0.00505267	0.0327148	0.0776367	-1.14526	0.194546	0.275367	0.0503254	-0.940102	-4.95787	0.606663	8.71242	-0.013341	0.0206448	-0.0159598	0.372803	0.0393066	-1.02832	0.10524	0.213313	-0.324655	-0.915435	-3.46727	6.55946	7.43779	0.00727308	0.00363427	-0.000652708	-0.0683594	-0.620605	-0.928223	-0.338229	0.172097	-0.682563	-0.624572	-6.61812	7.21245	0.144564	0.0015913	0.0119662	-0.00318507	0.344238	-0.943359	-0.11084	0.334016	0.0465222	0.199648	-0.920005	-2.32447	-3.44275	8.8258	-0.010945	0.0072281	-0.00739398	0.0112305	0.575195	-0.94458	0.579024	-0.033303	0.277254	-0.765997	-4.05796	-4.33912	11.3948	-0.0129371	0.0145168	-0.0113224	0.205811	0.767578	-0.805664	0.0749444	0.00848341	-0.107667	-0.991322	1.92312	0.297571	10.3532	0.0177476	-0.00379444	-0.0198027	-0.526855	0.0866699	-0.952393	0.187798	0.822034	0.164383	-0.511831	-8.13688	1.47585	-3.73617	0.000291772	0.0167669	-0.015755	1.05591	0.12207	0.288818	0.0723406	-0.126348	-0.0388457	-0.988582	2.74782	0.594566	10.2378	0.0104072	0.0105369	-0.0115833	-0.645752	0.0178223	-0.807373	-0.0199373	-0.106808	-0.0548548	-0.992565	2.11795	1.14192	10.2057	0.0102278	0.00953454	0.000565745	-0.602051	-0.132812	-0.899902	0.0207738	-0.0467121	0.0946344	-0.994199	0.896319	-1.88289	9.55221	0.000415513	0.00896951	-0.00276771	-0.558838	0.148193	-1.05469	
48	0.0764816	0.15598	-0.0296026	-0.98435	-3.47884	1.24484	10.3318	0.0114684	0.00266517	-0.00688829	0.0283203	0.0773926	-1.14111	0.194709	0.275336	0.0503944	-0.940074	-4.95841	0.602146	8.71953	-0.0153492	0.0147153	-0.0138858	0.364014	0.0393066	-1.02832	0.105207	0.213381	-0.325062	-0.915279	-3.46652	6.50221	7.43366	0.0383034	0.00736409	0.0066221	-0.0705566	-0.620605	-0.932617	-0.338119	0.172214	-0.682683	-0.624469	-6.62446	7.21081	0.165542	0.00158922	0.0116841	0.00078267	0.344238	-0.945557	-0.104004	0.334016	0.0465222	0.199648	-0.920005	-2.32447	-3.44275	8.8258	-0.010945	0.0072281	-0.00739398	0.0112305	0.575195	-0.94458	0.579024	-0.033303	0.277254	-0.765997	-4.05796	-4.33912	11.3948	-0.0129371	0.0145168	-0.0113224	0.205811	0.767578	-0.805664	0.0749444	0.00848341	-0.107667	-0.991322	1.92312	0.297571	10.3532	0.0177476	-0.00379444	-0.0198027	-0.526855	0.0866699	-0.952393	0.187822	0.822055	0.16438	-0.511788	-8.11633	1.48242	-3.73771	0.00329476	0.019403	-0.0141345	1.04761	0.113281	0.289062	0.0724221	-0.126391	-0.0389177	-0.988568	2.73482	0.610579	10.2005	0.0071282	0.00708489	-0.0141923	-0.648193	0.0180664	-0.816406	-0.0200098	-0.106639	-0.0547273	-0.992589	2.12069	1.23134	10.2062	-0.0017489	0.0169887	0.00522283	-0.604248	-0.132812	-0.902344	0.0207923	-0.0466617	0.0944787	-0.994215	0.881594	-1.85369	9.55941	0.0134011	0.0113936	-0.00241827	-0.560791	0.143799	-1.05908	
49	0.0763497	0.156099	-0.029797	-0.984335	-3.55585	1.22653	10.2982	0.00843926	-0.00278952	-0.00108079	0.0305176	0.0773926	-1.13892	0.194916	0.27542	0.05049	-0.940001	-4.99642	0.563556	8.66496	-0.00789137	0.0206179	-0.0183715	0.365967	0.0437012	-1.03101	0.105185	0.21341	-0.325228	-0.915215	-3.50519	6.60334	7.41812	-0.0120138	0.00473734	0.00544728	-0.0664062	-0.616455	-0.926025	-0.33807	0.172193	-0.682733	-0.624447	-6.6308	7.20095	0.167077	0.00405805	0.00497949	0.00214122	0.344238	-0.945557	-0.101807	0.334054	0.0464827	0.199975	-0.919922	-2.35194	-3.56405	8.79856	-0.00123334	0.0112789	-0.0156392	0.0112305	0.574951	-0.940186	0.578883	-0.0333543	0.277316	-0.76608	-4.07762	-4.36732	11.3743	0.00639244	0.00460134	-0.0130954	0.20166	0.760986	-0.80542	0.0749444	0.00848341	-0.107667	-0.991322	1.92312	0.297571	10.3532	0.0177476	-0.00379444	-0.0198027	-0.526855	0.0866699	-0.952393	0.187739	0.822118	0.164306	-0.511741	-8.10135	1.5004	-3.75312	0.00982415	0.0188353	-0.0143864	1.05151	0.119873	0.279541	0.0723225	-0.126564	-0.0387363	-0.98856	2.73827	0.563339	10.2446	-0.00555102	0.00271625	-0.0199194	-0.641113	0.0158691	-0.816406	-0.0199815	-0.106751	-0.054646	-0.992582	2.1064	1.1452	10.242	-0.00599157	0.00928938	0.00362159	-0.606445	-0.137207	-0.9021	0.0208199	-0.0465936	0.09449	-0.994217	0.833054	-1.78444	9.63548	-0.00875018	0.00776633	-0.00198197	-0.554443	0.152832	-1.05005	
50	0.0763016	0.155991	-0.0300451	-0.984349	-3.47534	1.20943	10.3106	0.0107297	-0.00944506	0.00183023	0.0239258	0.0773926	-1.14111	0.194988	0.275463	0.050239	-0.939987	-5.00244	0.54359	8.70254	0.0041896	0.0154072	-0.02171	0.370605	0.0393066	-1.02832	0.105202	0.213373	-0.324932	-0.915327	-3.5114	6.5184	7.37515	0.00332868	0.00177807	0.00095789	-0.0598145	-0.62085	-0.928223	-0.33817	0.172102	-0.682939	-0.624193	-6.64223	7.16418	0.143331	0.0207062	0.00410103	-0.00129978	0.34668	-0.947754	-0.0996094	0.334172	0.0466112	0.199622	-0.91995	-2.37588	-3.43061	8.81197	0.0183018	0.0101481	-0.0113777	0.015625	0.572754	-0.940186	0.578767	-0.0331452	0.276994	-0.766293	-4.11513	-4.33693	11.4025	0.0154285	0.0101666	-0.014419	0.197266	0.767578	-0.803467	0.0749444	0.00848341	-0.107667	-0.991322	1.92312	0.297571	10.3532	0.0177476	-0.00379444	-0.0198027	-0.526855	0.0866699	-0.952393	0.187836	0.822168	0.164117	-0.511686	-8.08246	1.48435	-3.77024	0.00486067	0.0173741	-0.00472137	1.05176	0.115479	0.286621	0.0720902	-0.126578	-0.0387645	-0.988574	2.7182	0.570042	10.2423	0.010164	0.0108132	-0.0274917	-0.643311	0.015625	-0.811768	-0.0200843	-0.106566	-0.0544426	-0.992611	2.11967	1.20023	10.2354	-0.00632264	0.0175794	0.00576427	-0.606445	-0.137207	-0.906738	0.0207958	-0.0466612	0.0949737	-0.994168	0.896285	-1.89274	9.57071	-0.0186035	0.00495894	-0.00464341	-0.563232	0.145996	-1.05469	
51	0.0762202	0.156003	-0.0303626	-0.984343	-3.49561	1.24199	10.3007	0.0115432	-0.00268485	0.00213273	0.0305176	0.0776367	-1.14966	0.195216	0.275494	0.0501355	-0.939936	-4.98361	0.535911	8.73043	-0.00431702	0.0182451	-0.0159599	0.368164	0.0415039	-1.03564	0.104953	0.213453	-0.325482	-0.915142	-3.45292	6.61464	7.46441	0.0266524	0.00376455	-0.00428654	-0.0683594	-0.618652	-0.93042	-0.338239	0.172099	-0.68302	-0.624067	-6.60341	7.28881	0.137542	-0.00234823	0.00368361	-0.000566934	0.348633	-0.943359	-0.101807	0.334417	0.046707	0.1995	-0.919882	-2.3629	-3.53185	8.78844	0.00663905	0.00822389	-0.00430294	0.0136719	0.568359	-0.942383	0.578589	-0.0328002	0.276664	-0.766561	-4.08016	-4.30738	11.3495	0.0158278	0.0164188	-0.0169755	0.199463	0.765381	-0.807617	0.0749444	0.00848341	-0.107667	-0.991322	1.92312	0.297571	10.3532	0.0177476	-0.00379444	-0.0198027	-0.526855	0.0866699	-0.952393	0.187903	0.822169	0.164014	-0.511693	-8.12686	1.54697	-3.75254	0.00909405	0.0155957	-0.0150909	1.05615	0.113525	0.281982	0.0718671	-0.126492	-0.0388474	-0.988598	2.74971	0.580839	10.2283	0.00424851	0.0109965	-0.0214596	-0.638428	0.0112305	-0.816162	-0.0200922	-0.106581	-0.0541148	-0.992627	2.10919	1.05241	10.1828	-0.00606142	0.0129399	0.00546207	-0.602051	-0.13501	-0.897705	0.0208192	-0.0466199	0.0950425	-0.994163	0.879759	-1.89532	9.58818	-0.00101303	0.00913175	-0.00133714	-0.558838	0.148193	-1.05469	
52	0.0761511	0.155992	-0.0307535	-0.984338	-3.4649	1.21397	10.2944	0.017475	-0.0064399	-0.00094562	0.0283203	0.0773926	-1.14111	0.19547	0.275327	0.0500162	-0.939939	-4.92917	0.569847	8.72382	-0.00709596	0.00986205	-0.0133376	0.366211	0.0371094	-1.03076	0.104787	0.213481	-0.325295	-0.915221	-3.40036	6.60543	7.36564	-0.0168444	-0.00145677	-0.0104735	-0.0661621	-0.622803	-0.934814	-0.33813	0.172067	-0.683041	-0.624112	-6.55964	7.15016	0.146198	0.00554741	0.00924677	0.00597441	0.344238	-0.945557	-0.0996094	0.334628	0.0467082	0.199198	-0.919871	-2.32431	-3.45134	8.82116	0.0081983	0.00471296	-0.0109673	0.0090332	0.572754	-0.94458	0.578457	-0.0327495	0.276644	-0.76667	-4.04889	-4.3452	11.3581	0.000868539	0.0120871	-0.0171016	0.199463	0.765381	-0.803467	0.0749444	0.00848341	-0.107667	-0.991322	1.92312	0.297571	10.3532	0.0177476	-0.00379444	-0.0198027	-0.526855	0.0866699	-0.952393	0.188017	0.822081	0.164106	-0.511763	-8.11861	1.51663	-3.72017	-0.00344558	0.011725	-0.0187266	1.05176	0.117676	0.289062	0.0718997	-0.126592	-0.0388385	-0.988583	2.75807	0.572947	10.1834	0.00819747	0.00280309	-0.0146254	-0.640869	0.0134277	-0.811768	-0.0201267	-0.106582	-0.0546594	-0.992596	2.1427	1.19389	10.2717	0.0207896	0.0104184	0.00279727	-0.608887	-0.132812	-0.899902	0.0208271	-0.046572	0.0948645	-0.994182	0.900302	-1.88121	9.57445	0.00819811	0.00991677	-0.00361654	-0.558838	0.150391	-1.05469	
53	0.0760286	0.156095	-0.0312385	-0.984316	-3.48259	1.25771	10.3035	0.0204483	0.000483528	0.000126634	0.0285645	0.0710449	-1.14746	0.195772	0.275311	0.0497551	-0.939894	-4.98585	0.57745	8.69784	0.00437346	0.0138788	-0.0104938	0.368408	0.0393066	-1.02612	0.104728	0.213462	-0.325075	-0.91531	-3.48806	6.57144	7.44847	0.00573125	0.00534188	-0.00161373	-0.064209	-0.618652	-0.932861	-0.338078	0.172003	-0.683186	-0.623999	-6.61204	7.25698	0.155069	0.00567098	0.00650623	0.0028008	0.342041	-0.945557	-0.104004	0.334928	0.0466373	0.199224	-0.91976	-2.31289	-3.47496	8.84372	-0.00338883	0.00697262	-0.0104123	0.00708008	0.568359	-0.94458	0.578303	-0.0326839	0.276364	-0.76689	-4.03511	-4.37328	11.3604	0.0136287	0.00683068	-0.0157889	0.199463	0.765381	-0.807617	0.0749444	0.00848341	-0.107667	-0.991322	1.92312	0.297571	10.3532	0.0177476	-0.00379444	-0.0198027	-0.526855	0.0866699	-0.952393	0.18812	0.822008	0.164182	-0.511817	-8.09651	1.42006	-3.72752	0.00558312	0.0139184	-0.0160482	1.05176	0.113281	0.286621	0.0719466	-0.126741	-0.038859	-0.98856	2.79409	0.566532	10.2197	0.00265294	0.00435644	-0.0159833	-0.643311	0.0134277	-0.811768	-0.0201926	-0.106522	-0.0543806	-0.992617	2.08993	1.16238	10.205	-0.00961977	0.0163029	0.00379188	-0.604248	-0.13501	-0.9021	0.0208329	-0.0465171	0.0946493	-0.994205	0.894025	-1.8286	9.58952	0.00753603	0.0110873	-0.00308149	-0.563232	0.148193	-1.05469	
54	0.0759402	0.156163	-0.0317706	-0.984295	-3.5032	1.25009	10.2952	0.0225086	-0.00401356	0.000667957	0.0285645	0.072998	-1.14307	0.1959	0.275174	0.049541	-0.939919	-4.91883	0.609364	8.68687	-0.00130796	0.00956933	-0.0207753	0.370605	0.0349121	-1.02832	0.104636	0.213483	-0.325497	-0.915166	-3.44292	6.60709	7.40519	0.0217593	-0.000280882	0.00431829	-0.0661621	-0.618652	-0.928223	-0.33814	0.172025	-0.683028	-0.624133	-6.60572	7.15298	0.151923	-0.008094	-0.000309912	0.00038914	0.344238	-0.945557	-0.104004	0.335067	0.0467374	0.198924	-0.919769	-2.33435	-3.48161	8.80878	0.017912	0.0114033	-0.0129185	0.015625	0.570801	-0.94458	0.578174	-0.0323346	0.2758	-0.767205	-4.05726	-4.3144	11.3971	0.0256783	0.00932545	-0.0178357	0.20166	0.760986	-0.807617	0.0749444	0.00848341	-0.107667	-0.991322	1.92312	0.297571	10.3532	0.0177476	-0.00379444	-0.0198027	-0.526855	0.0866699	-0.952393	0.188124	0.822065	0.16415	-0.511736	-8.13129	1.47785	-3.74213	0.00478465	0.0193689	-0.0142031	1.04956	0.115479	0.281982	0.0718179	-0.126569	-0.0387623	-0.988595	2.74473	0.558084	10.1879	0.0028836	0.017172	-0.0228912	-0.641113	0.0158691	-0.816406	-0.0201973	-0.106454	-0.0545414	-0.992615	2.12064	1.12992	10.2148	0.014579	0.0177976	0.00384589	-0.602051	-0.132812	-0.902344	0.0208452	-0.0465067	0.0945808	-0.994212	0.869359	-1.82452	9.60233	0.00218401	0.00784648	-0.00244399	-0.558838	0.150391	-1.05005	
55	0.0757221	0.156138	-0.0323753	-0.984296	-3.47248	1.27056	10.3096	0.0258041	-0.00638398	-0.00454746	0.0244141	0.0686035	-1.14307	0.19611	0.275077	0.0492845	-0.939917	-5.02051	0.556371	8.70242	0.00594089	0.0044213	-0.0154912	0.368408	0.0393066	-1.03076	0.104673	0.21346	-0.325328	-0.915227	-3.4517	6.62374	7.43606	-0.0111388	0.00339684	0.0024107	-0.0705566	-0.618408	-0.93042	-0.338178	0.171991	-0.682984	-0.624169	-6.6044	7.23581	0.121642	-0.00197402	-0.000341394	0.00118072	0.348633	-0.941162	-0.102051	0.335112	0.0468423	0.198768	-0.919781	-2.34608	-3.43321	8.82004	0.0148152	0.0125183	-0.012461	0.0136719	0.568359	-0.940186	0.578092	-0.0319964	0.275221	-0.767489	-4.04624	-4.24911	11.3652	0.0249128	0.00872818	-0.0149863	0.197266	0.763184	-0.80542	0.0749444	0.00848341	-0.107667	-0.991322	1.92312	0.297571	10.3532	0.0177476	-0.00379444	-0.0198027	-0.526855	0.0866699	-0.952393	0.188074	0.822162	0.164035	-0.511636	-8.16232	1.54969	-3.71781	0.0100562	0.0194716	-0.0141498	1.04736	0.115479	0.29126	0.071678	-0.126477	-0.0388123	-0.988615	2.75105	0.605891	10.2053	0.00781331	0.0154403	-0.0283186	-0.643066	0.0112305	-0.811768	-0.0201937	-0.106405	-0.054666	-0.992614	2.11468	1.18126	10.2287	0.00593801	0.00799076	0.00221587	-0.606445	-0.132812	-0.899902	0.0208534	-0.0464756	0.0946035	-0.994211	0.871295	-1.84422	9.62356	0.00356485	0.00809912	-0.00237578	-0.561035	0.148193	-1.05688	
56	0.0756182	0.15619	-0.0326539	-0.984287	-3.46272	1.32848	10.2817	0.0230074	-0.00145596	-0.00305211	0.0288086	0.0688477	-1.14087	0.196221	0.274915	0.0491019	-0.939951	-4.96158	0.585774	8.77189	0.00325469	0.000144536	-0.0141587	0.366211	0.0371094	-1.03076	0.104611	0.213397	-0.324932	-0.915389	-3.45677	6.57827	7.39562	-0.00990774	0.00087315	-0.00477834	-0.0639648	-0.623047	-0.932617	-0.338222	0.171911	-0.682907	-0.624252	-6.60621	7.16038	0.146714	-0.00120366	0.00167711	0.00339191	0.348877	-0.945557	-0.108398	0.335247	0.0467988	0.19881	-0.919725	-2.35513	-3.43563	8.8078	-0.0100954	0.00516955	-0.0146237	0.015625	0.570801	-0.94458	0.57804	-0.0319504	0.275135	-0.767561	-4.05947	-4.28908	11.3642	0.00723965	0.0104931	-0.0140153	0.199463	0.765381	-0.812012	0.0749444	0.00848341	-0.107667	-0.991322	1.92312	0.297571	10.3532	0.0177476	-0.00379444	-0.0198027	-0.526855	0.0866699	-0.952393	0.188074	0.822162	0.164035	-0.511636	-8.16232	1.54969	-3.71781	0.0100562	0.0194716	-0.0141498	1.04736	0.115479	0.29126	0.0715603	-0.12649	-0.0387049	-0.988626	2.72366	0.589747	10.2063	-0.000921256	0.00575392	-0.0190692	-0.643311	0.015625	-0.811768	-0.0202144	-0.106375	-0.0546333	-0.992618	2.11546	1.14414	10.2378	-0.00456537	0.0138238	0.00486155	-0.599609	-0.136963	-0.908936	0.0208498	-0.0464795	0.0946193	-0.994209	0.863284	-1.85123	9.61399	-0.000587742	0.00758071	-0.00392908	-0.554443	0.150635	-1.05688	
57	0.0756194	0.156258	-0.0330169	-0.984264	-3.52056	1.32936	10.2917	0.0111698	-0.0045473	0.00571278	0.0285645	0.0710449	-1.14307	0.196482	0.274535	0.049209	-0.940002	-4.9804	0.547426	8.60267	-0.0197395	0.00694015	-0.0191181	0.368408	0.0371094	-1.03296	0.104414	0.213398	-0.325272	-0.915291	-3.51777	6.58993	7.416	0.0238189	0.00327557	-0.00448784	-0.0683594	-0.618408	-0.932861	-0.338194	0.17188	-0.682937	-0.624243	-6.64298	7.23583	0.153569	-0.00424198	0.00544739	0.00216332	0.348633	-0.943359	-0.101807	0.335383	0.0467837	0.198691	-0.919702	-2.36186	-3.50576	8.7866	0.0158585	0.00722154	-0.0151293	0.0136719	0.566162	-0.940186	0.57789	-0.0318271	0.274902	-0.767762	-4.08673	-4.26189	11.3706	0.00609992	0.0119079	-0.0199136	0.199463	0.763184	-0.807617	0.0689659	0.0241601	-0.112742	-0.990934	1.76139	0.280067	10.3116	0.00162902	0.109284	-0.0229078	-0.516113	0.0844727	-0.956543	0.187749	0.822214	0.164226	-0.511609	-8.10698	1.48229	-3.77564	0.00984106	0.0137238	-0.0209411	1.05396	0.115479	0.28418	0.071551	-0.126648	-0.0385088	-0.988614	2.72133	0.576509	10.2232	-0.00656868	0.00393585	-0.0141353	-0.643555	0.0202637	-0.814209	-0.0202899	-0.106388	-0.0544759	-0.992624	2.06836	1.16447	10.2091	0.000857118	0.00760514	0.00350581	-0.608887	-0.132812	-0.902344	0.0208265	-0.0464985	0.0947022	-0.994201	0.860015	-1.82801	9.58648	-0.00418112	0.00696915	-0.00437683	-0.561035	0.148193	-1.05688	
58	0.0757802	0.156254	-0.0331798	-0.984247	-3.44691	1.32265	10.2962	0.00307307	-0.00232156	0.00970768	0.0288086	0.0688477	-1.14307	0.19655	0.274233	0.0490106	-0.940086	-4.94784	0.60199	8.74203	0.0109098	-0.00237768	-0.0219903	0.364258	0.0349121	-1.03296	0.104048	0.213369	-0.325691	-0.91519	-3.46951	6.54281	7.37424	0.0229457	-0.00733983	-0.00505806	-0.0661621	-0.625	-0.932617	-0.338148	0.171869	-0.683016	-0.624185	-6.58968	7.10806	0.14273	0.0123637	0.00954623	0.00147383	0.344238	-0.943359	-0.0974121	0.335448	0.0467706	0.198291	-0.919765	-2.36315	-3.39663	8.82884	0.00948989	0.00386043	-0.0134325	0.0090332	0.574951	-0.942383	0.577602	-0.0318249	0.275003	-0.767943	-4.0549	-4.30607	11.3875	-0.0024351	0.0180538	-0.0204227	0.20166	0.763184	-0.809814	0.0689638	0.025556	-0.112733	-0.9909	1.75628	0.253931	10.3168	0.0229202	0.0683623	-0.0190976	-0.511719	0.0822754	-0.960693	0.187737	0.822167	0.16425	-0.511681	-8.1225	1.49097	-3.76027	0.00258817	0.0119376	-0.0168182	1.05396	0.115479	0.286621	0.071524	-0.126763	-0.0383751	-0.988607	2.72536	0.556138	10.1997	0.00592225	0.0047402	-0.0176996	-0.643311	0.0134277	-0.816406	-0.0203409	-0.10637	-0.0544486	-0.992626	2.13263	1.16604	10.2532	4.64243e-05	0.017809	0.00405264	-0.606689	-0.130615	-0.902344	0.0208094	-0.046544	0.0948763	-0.994183	0.893239	-1.86192	9.59676	-0.006609	0.00575351	-0.00410773	-0.556396	0.143799	-1.05688	
59	0.0758885	0.15629	-0.0331866	-0.984232	-3.474	1.28892	10.2735	0.00168534	-0.0027291	0.00140958	0.0310059	0.0688477	-1.14307	0.196766	0.274377	0.0486169	-0.94002	-4.92906	0.606802	8.71821	0.00105118	0.0204382	-0.0169658	0.366455	0.0327148	-1.03516	0.103773	0.213423	-0.326067	-0.915075	-3.38489	6.66415	7.46188	0.0141891	0.00641468	-0.00150565	-0.0683594	-0.622803	-0.925781	-0.338107	0.171716	-0.683218	-0.624027	-6.54766	7.30589	0.174671	0.00363808	0.00611568	0.00736309	0.344238	-0.943359	-0.104004	0.33571	0.0466739	0.198418	-0.919647	-2.31805	-3.50755	8.81282	0.00386057	0.00950408	-0.0076747	0.0112305	0.572998	-0.94458	0.577413	-0.0318146	0.27505	-0.768069	-4.03704	-4.3746	11.367	0.0011246	0.0134395	-0.0146372	0.20166	0.765381	-0.809814	0.068984	0.0260045	-0.113027	-0.990853	1.80442	0.279144	10.3373	0.0275577	0.0450297	-0.0138094	-0.509521	0.0844727	-0.960693	0.187731	0.822065	0.164218	-0.511857	-8.14399	1.44553	-3.66918	0.00988102	0.0103946	-0.0183365	1.04956	0.115479	0.286621	0.0714513	-0.126991	-0.0383657	-0.988583	2.84336	0.536794	10.1947	0.000194445	-0.00141669	-0.0179243	-0.643311	0.0134277	-0.818604	-0.0204007	-0.10638	-0.0543508	-0.992629	2.1146	1.123	10.2039	0.00715907	0.0114572	0.00363731	-0.604248	-0.13501	-0.904541	0.0208096	-0.0465382	0.0950214	-0.994169	0.886863	-1.88928	9.57855	-0.00511575	0.00794311	-0.00304596	-0.558594	0.145996	-1.05688	
60	0.0758589	0.156286	-0.0331847	-0.984235	-3.49658	1.31964	10.2959	-0.00168033	-0.00396165	0.001606	0.0263672	0.072998	-1.14307	0.197056	0.274343	0.0487212	-0.939963	-4.94978	0.590498	8.72998	-0.0139423	0.0159002	-0.0151051	0.364258	0.0349121	-1.03052	0.103768	0.213447	-0.325914	-0.915125	-3.44711	6.52978	7.38919	0.00134936	0.00674136	0.00143865	-0.0661621	-0.62085	-0.932617	-0.33799	0.171828	-0.683114	-0.624174	-6.59077	7.24719	0.153679	-0.0149683	0.00735995	0.00204151	0.346436	-0.941162	-0.104248	0.33589	0.0466922	0.198086	-0.919652	-2.34655	-3.44544	8.82253	0.0157332	0.00804363	-0.0117636	0.0161133	0.564209	-0.94458	0.577434	-0.0317362	0.274924	-0.768101	-4.07147	-4.32269	11.3792	0.00789109	0.0107319	-0.00949166	0.199707	0.760986	-0.80542	0.069135	0.0263045	-0.112762	-0.990865	1.75109	0.29241	10.3159	0.00445922	0.0336102	-0.0102407	-0.511719	0.0844727	-0.960693	0.187849	0.822051	0.164293	-0.511814	-8.08816	1.48296	-3.70168	-0.00552006	0.0178339	-0.0165822	1.04712	0.124268	0.288818	0.0715477	-0.126997	-0.0382525	-0.988579	2.7704	0.540331	10.2261	-0.000817268	0.0131936	-0.00960781	-0.645752	0.015625	-0.807373	-0.0204358	-0.10646	-0.0543426	-0.992621	2.12288	1.16999	10.2891	-0.00299608	0.0115089	0.00552287	-0.601807	-0.137207	-0.899902	0.0208178	-0.0465194	0.0950295	-0.994169	0.859808	-1.86709	9.61562	-0.00202598	0.00798516	-0.00385094	-0.561035	0.150391	-1.05469	
61	0.075845	0.156272	-0.0330992	-0.984241	-3.48038	1.3073	10.284	-0.00516072	-0.0023083	-0.000744095	0.0310059	0.0688477	-1.14087	0.197173	0.274367	0.0487216	-0.939932	-4.9642	0.584725	8.70064	-0.00796078	0.0187198	-0.0166405	0.372803	0.0349121	-1.04004	0.103939	0.213504	-0.325484	-0.915245	-3.48987	6.53886	7.37915	-0.0274682	0.00894114	0.00524826	-0.0683594	-0.616455	-0.932861	-0.338045	0.171978	-0.683056	-0.624166	-6.6033	7.16582	0.176079	0.00409812	0.00787052	-0.00483432	0.348633	-0.943359	-0.104004	0.33617	0.0467239	0.198011	-0.919564	-2.36452	-3.49625	8.85274	0.00171204	0.00920134	-0.00304353	0.015625	0.572998	-0.94458	0.577506	-0.0315168	0.274756	-0.768116	-4.09483	-4.33729	11.3935	0.0138451	0.0140465	-0.00568325	0.195068	0.763184	-0.807617	0.0691977	0.0263901	-0.113212	-0.990807	1.71016	0.276514	10.4153	0.0397994	0.0118578	-0.0107997	-0.513916	0.0866699	-0.960693	0.188094	0.82203	0.164197	-0.511788	-8.09971	1.49583	-3.79038	-0.00245328	0.0151669	-0.00287102	1.05176	0.117676	0.28418	0.0715577	-0.126711	-0.0384099	-0.988609	2.73283	0.504445	10.2441	0.0169515	0.0215238	-0.0197891	-0.641113	0.015625	-0.811768	-0.0205215	-0.106358	-0.0540186	-0.992647	2.12386	1.12201	10.1999	-0.0114108	0.0159114	0.00121903	-0.602051	-0.132812	-0.902344	0.0207845	-0.0465762	0.0950162	-0.994168	0.871496	-1.85192	9.56652	0.00233331	0.0063454	-0.00557883	-0.558838	0.148193	-1.05249	
62	0.0758688	0.156396	-0.0328508	-0.984228	-3.53055	1.29333	10.2987	-0.0115662	0.000800135	0.00195668	0.0310059	0.0688477	-1.14307	0.197242	0.274635	0.0488171	-0.939834	-4.96405	0.561549	8.67916	-0.00538486	0.0188669	-0.0157775	0.366455	0.0349121	-1.03052	0.103966	0.213573	-0.325615	-0.915179	-3.42629	6.56534	7.4261	0.0182651	0.00557662	0.00193085	-0.0576172	-0.623047	-0.932617	-0.338056	0.172113	-0.683248	-0.623913	-6.55952	7.17151	0.194281	0.0152449	0.0143394	-0.00329124	0.344238	-0.943359	-0.0974121	0.336497	0.04686	0.197532	-0.919541	-2.35892	-3.43726	8.79592	0.0228855	0.00348439	-0.00440424	0.0136719	0.568359	-0.942383	0.577557	-0.0313356	0.274476	-0.768186	-4.06054	-4.30577	11.3307	0.0100234	0.00824414	-0.00722017	0.20166	0.763184	-0.809814	0.0693202	0.026391	-0.113299	-0.990788	1.75724	0.287254	10.381	0.0169214	0.0207196	-0.00759506	-0.509521	0.0844727	-0.965088	0.188595	0.821979	0.163927	-0.511771	-8.10694	1.48511	-3.74732	-0.00639193	0.00965051	0.00444208	1.052	0.111084	0.289062	0.0714195	-0.126464	-0.0388577	-0.988634	2.71968	0.50906	10.1621	0.0249034	0.014244	-0.0252498	-0.638916	0.0180664	-0.811768	-0.0205706	-0.106488	-0.0540623	-0.99263	2.12197	1.15965	10.2241	0.00511256	0.00545739	0.00494293	-0.604248	-0.132812	-0.902344	0.020775	-0.0466035	0.0949514	-0.994173	0.86619	-1.82919	9.59196	-0.00075695	0.00630044	-0.00477672	-0.563232	0.148193	-1.05933	
63	0.0760825	0.156252	-0.0326238	-0.984242	-3.48164	1.23672	10.2971	-0.00988675	-0.0113863	0.00978031	0.0241699	0.072998	-1.14307	0.197582	0.27493	0.0487977	-0.939678	-4.96203	0.566356	8.72006	-0.00291462	0.0356289	-0.0114126	0.366211	0.0393066	-1.0332	0.104112	0.213531	-0.325748	-0.915125	-3.44367	6.56365	7.3781	0.00849954	0.000829317	0.0109132	-0.0661621	-0.625	-0.93042	-0.338004	0.172174	-0.683406	-0.623751	-6.5415	7.20256	0.187446	0.0151168	0.0172205	-0.00210773	0.348633	-0.943359	-0.0996094	0.336629	0.0468672	0.197372	-0.919526	-2.34926	-3.47637	8.81056	0.0123515	0.00439427	-0.00714912	0.0112305	0.575195	-0.94458	0.577736	-0.0311514	0.274009	-0.768225	-4.06165	-4.31441	11.3587	0.0195888	0.0018612	-0.00568471	0.199707	0.758789	-0.80957	0.069387	0.0265833	-0.113407	-0.990766	1.75356	0.275411	10.389	0.0270403	0.0321532	-0.00988569	-0.507324	0.0844727	-0.962891	0.189281	0.821923	0.163661	-0.511693	-8.11169	1.51241	-3.70797	-0.0132033	0.0123798	0.00632537	1.04956	0.115479	0.284424	0.0713954	-0.126371	-0.0391435	-0.988636	2.76245	0.525269	10.1695	0.0277833	0.0143634	-0.0216518	-0.643066	0.0065918	-0.80957	-0.0205911	-0.10642	-0.0540518	-0.992638	2.12672	1.18049	10.2273	0.000840668	0.0174809	0.00372207	-0.599854	-0.134766	-0.906738	0.0207389	-0.046667	0.0951353	-0.994154	0.887387	-1.87751	9.58269	-0.00799814	0.00573434	-0.00553302	-0.554199	0.148193	-1.05688	
64	0.0761048	0.156237	-0.0326245	-0.984243	-3.43504	1.24186	10.2958	-0.000725568	-0.0048709	0.00334826	0.0307617	0.0754395	-1.14526	0.197958	0.274721	0.0488514	-0.939657	-4.98822	0.608567	8.67911	-0.00821706	0.00638435	-0.0127796	0.368408	0.0371094	-1.03076	0.104088	0.213532	-0.325902	-0.915073	-3.50617	6.5993	7.38386	0.0164667	0.00290546	0.00386576	-0.0661621	-0.625	-0.93042	-0.337885	0.172383	-0.683912	-0.623203	-6.64789	7.18818	0.127247	0.0268581	0.0244786	-0.00703835	0.346436	-0.943359	-0.0996094	0.336988	0.0469977	0.19701	-0.919466	-2.33664	-3.47366	8.80495	0.0156669	0.00693147	-0.00176467	0.0112305	0.572754	-0.942383	0.577797	-0.0310796	0.27378	-0.768263	-4.05481	-4.31147	11.4106	0.0174703	0.0043603	-0.00794249	0.197266	0.763184	-0.80542	0.0692609	0.0261956	-0.113727	-0.990749	1.7381	0.26107	10.3436	0.0280434	-0.00353376	-0.0165311	-0.509521	0.0822754	-0.962891	0.189535	0.821936	0.163541	-0.511617	-8.12668	1.52502	-3.74131	-0.0074808	0.0163763	0.00334069	1.05396	0.115479	0.28418	0.0714356	-0.126195	-0.0397588	-0.988631	2.7584	0.620969	10.2516	0.0308382	0.0161374	-0.015167	-0.638428	0.0112305	-0.813965	-0.0206607	-0.10646	-0.053926	-0.992639	2.12044	1.10462	10.256	0.000672203	0.00989222	0.00440055	-0.606445	-0.132812	-0.902344	0.0207037	-0.0466777	0.0951839	-0.994149	0.895783	-1.91265	9.61181	-0.00330405	0.00664766	-0.00556501	-0.558838	0.148193	-1.04785	
65	0.0761492	0.15637	-0.0327548	-0.984214	-3.53504	1.23832	10.3046	0.00829227	-0.00236933	0.0028715	0.0310059	0.0666504	-1.14307	0.1983	0.274917	0.0490724	-0.939516	-4.94729	0.609711	8.6967	-0.0172328	0.0299333	-0.0128963	0.370605	0.0393066	-1.03076	0.104093	0.213597	-0.32652	-0.914836	-3.42749	6.63612	7.40828	0.0375097	0.00607276	0.00768051	-0.0705566	-0.622803	-0.925781	-0.337714	0.172546	-0.684272	-0.622856	-6.59632	7.23507	0.120011	0.0138156	0.0216952	0.00105172	0.346436	-0.943359	-0.101807	0.337366	0.0470425	0.196695	-0.919392	-2.33293	-3.39941	8.82673	0.00589098	0.00533095	-0.00142611	0.0136719	0.568359	-0.942383	0.577891	-0.0309161	0.273435	-0.768322	-4.0227	-4.2807	11.3882	0.0129438	0.00934113	-0.00960768	0.199707	0.758789	-0.807373	0.0693709	0.0260782	-0.113619	-0.990756	1.74867	0.300136	10.4662	0.014598	-0.00427624	-0.00805579	-0.515625	0.0759277	-0.960449	0.190062	0.821885	0.163413	-0.511544	-8.11743	1.51812	-3.72488	-0.0129678	0.013095	-0.000211344	1.04956	0.117676	0.286621	0.0714667	-0.126061	-0.0402633	-0.988625	2.75548	0.605659	10.2015	0.0242481	0.0118677	-0.0181348	-0.640869	0.0112305	-0.813965	-0.0207707	-0.106505	-0.0541268	-0.992621	2.12326	1.10759	10.1653	0.0140433	0.0117654	-0.00154874	-0.604248	-0.137207	-0.906738	0.0206358	-0.0467208	0.0950682	-0.99416	0.903147	-1.91279	9.54894	0.010117	0.00730366	-0.00641086	-0.558838	0.150391	-1.05249	
66	0.0761272	0.156287	-0.0330744	-0.984218	-3.43954	1.29147	10.2814	0.0120392	-0.00598589	0.00211866	0.0288086	0.0666504	-1.14307	0.198519	0.275012	0.0492104	-0.939434	-4.96554	0.586763	8.69883	-0.0194871	0.0266336	-0.0107367	0.368408	0.0393066	-1.03076	0.104166	0.213516	-0.326781	-0.914754	-3.48954	6.55079	7.38092	0.00981336	-0.00274542	0.0126162	-0.064209	-0.618652	-0.93042	-0.337465	0.172707	-0.68451	-0.622684	-6.63096	7.16405	0.0772962	0.00649052	0.0186465	0.000313566	0.346436	-0.941162	-0.0976562	0.337791	0.0470564	0.196659	-0.919243	-2.3213	-3.4019	8.81881	0.00280564	0.00684477	-0.0037925	0.0117188	0.563965	-0.937744	0.577939	-0.0309123	0.273276	-0.768343	-4.0176	-4.20995	11.4071	0.01063	0.00460317	-0.0105896	0.188965	0.756592	-0.807373	0.0692995	0.0252738	-0.113625	-0.990782	1.76837	0.309665	10.3293	0.0237339	-0.0088921	-0.0158774	-0.51123	0.0759277	-0.960449	0.190209	0.821985	0.163455	-0.511316	-8.10856	1.56975	-3.71968	-0.00397783	0.0169162	-0.00403818	1.04785	0.104736	0.284424	0.0714937	-0.126012	-0.0406142	-0.988615	2.72265	0.646058	10.2148	0.0160943	0.00928259	-0.0141175	-0.640869	0.0134277	-0.816162	-0.0208294	-0.106559	-0.0545572	-0.99259	2.10701	1.2421	10.2396	0.0185551	0.00670286	0.00507029	-0.599854	-0.134766	-0.9021	0.0206824	-0.0466014	0.094408	-0.994227	0.894484	-1.80292	9.59557	0.0297862	0.0131718	-0.00238762	-0.558838	0.150391	-1.05469	
67	0.0761733	0.156365	-0.0334116	-0.984191	-3.55118	1.31738	10.3072	0.0113902	-0.00279483	0.00848259	0.0268555	0.0644531	-1.14941	0.198803	0.275041	0.0491667	-0.939368	-5.01024	0.585727	8.67519	-0.00259093	0.0100139	-0.0133157	0.370605	0.0393066	-1.02832	0.104149	0.213374	-0.327031	-0.914699	-3.43741	6.56623	7.3296	0.0173351	-0.00609202	0.00317346	-0.0661621	-0.629395	-0.930176	-0.337438	0.172778	-0.684999	-0.622141	-6.61512	7.18748	0.0839295	0.0394929	0.0203026	-0.00506097	0.351074	-0.945557	-0.0930176	0.338036	0.0469976	0.196488	-0.919193	-2.34842	-3.43994	8.83536	0.00974774	0.00341079	-0.00852422	0.0158691	0.568604	-0.949219	0.577862	-0.0308911	0.273175	-0.768438	-4.04764	-4.28508	11.4364	0.00529666	0.0111684	-0.0108364	0.199707	0.760986	-0.80542	0.0692441	0.0248326	-0.113587	-0.990801	1.76248	0.339946	10.3295	0.0124317	0.0076802	-0.0113909	-0.507324	0.0822754	-0.956299	0.190547	0.821949	0.1634	-0.511266	-8.10774	1.58562	-3.70574	-0.0087122	0.0139281	-0.00723089	1.0498	0.108887	0.291504	0.0716417	-0.126125	-0.0411847	-0.988566	2.75734	0.635575	10.2106	0.0349852	0.00137827	-0.0136497	-0.640869	0.00878906	-0.811768	-0.0208557	-0.106572	-0.054775	-0.992576	2.11174	1.18579	10.2597	0.00876361	0.0124349	0.00161989	-0.604248	-0.137207	-0.904541	0.0206709	-0.0465859	0.0943118	-0.994237	0.84238	-1.80065	9.61114	-0.00469024	0.00662582	-0.00699393	-0.561279	0.152588	-1.05688	
68	0.0764096	0.156334	-0.0337839	-0.984165	-3.46808	1.28174	10.2744	0.0131763	-0.00448648	0.012828	0.0290527	0.0644531	-1.14307	0.199007	0.274945	0.0488038	-0.939372	-4.99716	0.611417	8.69581	0.0035928	0.00842064	-0.0167575	0.370605	0.0393066	-1.02832	0.103697	0.213424	-0.328602	-0.914176	-3.51283	6.64695	7.34758	0.0893695	-0.00309198	0.000372072	-0.0683594	-0.625	-0.925781	-0.337541	0.172962	-0.685634	-0.621335	-6.63825	7.24412	0.0681369	0.0304054	0.0193741	-0.0138268	0.343994	-0.939209	-0.0888672	0.338108	0.0469689	0.196099	-0.919251	-2.33356	-3.3764	8.81424	0.0132124	0.00364195	-0.0212625	0.0158691	0.568359	-0.940186	0.578048	-0.0308299	0.27298	-0.76837	-4.02393	-4.25742	11.4028	0.00582268	0.00890742	-0.00386524	0.199463	0.765381	-0.812012	0.069207	0.024231	-0.113504	-0.990828	1.73598	0.344038	10.3605	0.011493	-0.0170249	-0.014763	-0.509521	0.0822754	-0.956299	0.190946	0.821975	0.163418	-0.511068	-8.11696	1.55174	-3.71759	-0.00828404	0.019569	-0.0063057	1.05396	0.113281	0.293701	0.0718463	-0.126076	-0.0417259	-0.988535	2.76734	0.666633	10.2108	0.0216121	0.0117082	-0.00967114	-0.640869	0.00878906	-0.811768	-0.0209463	-0.106611	-0.0544574	-0.992587	2.09121	1.21425	10.2116	-0.0185539	0.00958641	0.00717581	-0.606445	-0.132812	-0.904541	0.0205955	-0.0467413	0.0946938	-0.994195	0.874827	-1.83493	9.59182	-0.0173335	0.00347562	-0.00698028	-0.558838	0.150391	-1.05249	
69	0.0762851	0.156386	-0.0342897	-0.984148	-3.46718	1.296	10.3059	0.02217	-0.00434544	-0.00295511	0.0266113	0.0666504	-1.14746	0.199066	0.274911	0.0486869	-0.939375	-4.93658	0.628879	8.70138	0.00151321	0.0115689	-0.0190199	0.370605	0.0371094	-1.03076	0.103257	0.213542	-0.329681	-0.91381	-3.46037	6.70688	7.38897	0.0318585	-0.000678882	-0.0052846	-0.0639648	-0.629395	-0.921143	-0.337644	0.173316	-0.685885	-0.620902	-6.66955	7.22671	0.0477481	0.00260034	0.014134	-0.0145775	0.348633	-0.941162	-0.0932617	0.338045	0.0470057	0.195863	-0.919323	-2.32036	-3.42649	8.83816	0.0148845	0.0120331	-0.0186902	0.0117188	0.564209	-0.947021	0.578129	-0.0308083	0.272937	-0.768325	-4.03109	-4.30118	11.4509	0.00360702	0.0104102	-0.00456356	0.199463	0.760986	-0.811768	0.069072	0.0225058	-0.113365	-0.990894	1.84294	0.256641	10.3531	0.00767432	-0.0544918	-0.0120901	-0.520508	0.0866699	-0.956543	0.191139	0.822001	0.163431	-0.510951	-8.11607	1.58676	-3.74274	-0.0088207	0.0221943	-0.00694258	1.0498	0.108887	0.286865	0.0720114	-0.125838	-0.0420447	-0.98854	2.727	0.709886	10.2517	0.0162735	0.0180455	-0.0106532	-0.640869	0.0090332	-0.820557	-0.0209426	-0.10647	-0.0540165	-0.992627	2.15365	1.07124	10.208	-0.0110277	0.0160428	0.00599649	-0.597656	-0.132568	-0.895508	0.0205859	-0.0467876	0.0947717	-0.994186	0.909892	-1.88193	9.58126	0.0070313	0.00701362	-0.0042599	-0.567871	0.148193	-1.05933	
70	0.075992	0.156507	-0.0347879	-0.984134	-3.45584	1.3978	10.2897	0.0172443	-0.000745607	-0.00602698	0.0268555	0.0644531	-1.14526	0.199032	0.275096	0.0485048	-0.939338	-4.96901	0.592285	8.68518	0.00283551	0.0168477	-0.0187177	0.364258	0.0327148	-1.02808	0.102994	0.213608	-0.329516	-0.913883	-3.47824	6.74929	7.35788	-0.0188453	0.00115307	-0.0115999	-0.0681152	-0.629395	-0.925537	-0.337671	0.173357	-0.686013	-0.620735	-6.63843	7.1724	0.0548087	0.00812021	0.0100232	0.000874585	0.35083	-0.943359	-0.0930176	0.338172	0.0469311	0.196119	-0.919225	-2.31737	-3.38981	8.85613	-0.0222509	0.0105248	-0.013318	0.0180664	0.564209	-0.94458	0.577928	-0.0305237	0.272924	-0.768492	-4.043	-4.2654	11.3968	0.00147798	0.0165224	-0.0142134	0.199463	0.760986	-0.807617	0.0690181	0.021432	-0.113426	-0.990915	1.85319	0.29723	10.4071	0.0149663	-0.0221631	-0.0103344	-0.516113	0.0844727	-0.956543	0.19104	0.822132	0.163728	-0.510681	-8.13169	1.58938	-3.76264	0.00380908	0.0176708	-0.0192315	1.0498	0.108887	0.286865	0.07216	-0.125818	-0.0421945	-0.988525	2.72428	0.659086	10.2131	0.011346	0.00654517	-0.0114973	-0.640869	0.0112305	-0.811768	-0.0209855	-0.106453	-0.0544524	-0.992604	2.12167	1.18563	10.2001	0.023136	0.0163519	0.00104254	-0.601807	-0.137207	-0.9021	0.020608	-0.0467855	0.094809	-0.994182	0.883626	-1.87379	9.58116	-0.00401467	0.00798746	-0.00219483	-0.563232	0.145996	-1.06152	
71	0.0759729	0.156572	-0.0348981	-0.984122	-3.52115	1.37733	10.2845	0.00252083	-0.00213114	0.00231096	0.0290527	0.0644531	-1.14087	0.199165	0.275249	0.0485294	-0.939264	-4.94245	0.628685	8.65377	-0.00578822	0.0229011	-0.0206218	0.366211	0.0371094	-1.03296	0.102899	0.213515	-0.329039	-0.914088	-3.48608	6.45168	7.33252	0.00852438	0.00293831	0.000260892	-0.0639648	-0.625244	-0.925781	-0.337645	0.173366	-0.686092	-0.62066	-6.61901	7.20005	0.0997053	0.00811936	0.0100233	0.000874014	0.348877	-0.945557	-0.088623	0.338158	0.0469659	0.196343	-0.91918	-2.33554	-3.42254	8.85971	-0.00515439	0.0109076	-0.016192	0.0114746	0.568359	-0.942383	0.577889	-0.0305042	0.273001	-0.768494	-4.05349	-4.30543	11.4139	-0.0023412	0.0174366	-0.0148274	0.197266	0.763184	-0.809814	0.0689942	0.0209043	-0.113319	-0.99094	1.85961	0.32612	10.3633	0.00510108	-0.025289	-0.0114316	-0.522461	0.0822754	-0.956543	0.191008	0.822113	0.163789	-0.510705	-8.08073	1.53434	-3.70037	0.00581921	0.0171254	-0.0176662	1.04785	0.108887	0.289062	0.0721963	-0.125895	-0.0421832	-0.988513	2.74865	0.649526	10.2197	0.0040617	0.00291959	-0.0127146	-0.645508	0.00878906	-0.80957	-0.020998	-0.106411	-0.0543564	-0.992613	2.10989	1.21221	10.2146	-0.00595989	0.0151971	0.00573511	-0.599854	-0.132568	-0.906738	0.0206196	-0.0467492	0.0946055	-0.994203	0.87901	-1.83212	9.59162	0.0107861	0.00890266	-0.00295723	-0.554199	0.145996	-1.05469	
72	0.0759293	0.156557	-0.0348784	-0.984128	-3.49022	1.35457	10.3068	-0.00165748	-0.00513943	-0.00217261	0.0332031	0.0666504	-1.14087	0.199206	0.275325	0.0485151	-0.939233	-5.02537	0.615594	8.68014	-0.00391829	0.0229369	-0.0223242	0.364258	0.0349121	-1.02832	0.102667	0.213651	-0.329679	-0.913852	-3.46582	6.60302	7.29354	0.0618876	0.00612998	-0.00520545	-0.0661621	-0.627197	-0.932617	-0.337717	0.173486	-0.686305	-0.620351	-6.59557	7.15576	0.075118	0.0188071	0.0115768	-0.00912196	0.348877	-0.945557	-0.0952148	0.338237	0.0469426	0.19633	-0.919156	-2.36522	-3.42315	8.82621	0.00163285	0.00803338	-0.013177	0.00927734	0.566162	-0.94458	0.577867	-0.0304193	0.272963	-0.768528	-4.06856	-4.30111	11.4237	0.00722876	0.0163324	-0.01141	0.199463	0.765381	-0.805664	0.0688261	0.0196109	-0.113249	-0.990986	1.82993	0.294863	10.3419	0.0094234	-0.0427371	-0.0156954	-0.522461	0.0844727	-0.956543	0.190985	0.822154	0.163759	-0.510657	-8.09275	1.54758	-3.74715	0.00827202	0.0205388	-0.0138933	1.04956	0.115479	0.293701	0.0722349	-0.125907	-0.0421572	-0.98851	2.74861	0.621647	10.2047	0.00800463	0.0117894	-0.0159324	-0.63623	0.0090332	-0.816162	-0.020967	-0.10637	-0.0540578	-0.992635	2.12805	1.1363	10.2085	0.00260028	0.0162849	0.00766531	-0.599854	-0.132568	-0.902344	0.0206287	-0.046738	0.0946125	-0.994202	0.872819	-1.80133	9.62091	0.00018377	0.00809087	-0.00212938	-0.558838	0.152588	-1.05469	
73	0.0758821	0.156501	-0.0347702	-0.984145	-3.50167	1.34631	10.2609	-0.00527014	-0.00473011	-0.0019662	0.0290527	0.0644531	-1.14722	0.199379	0.275104	0.04835	-0.93927	-4.95975	0.635947	8.74392	-0.0047561	0.00726149	-0.0161458	0.372803	0.0349121	-1.0354	0.102418	0.213858	-0.330092	-0.913682	-3.48032	6.70753	7.39064	0.0034546	0.0104677	-0.0031746	-0.0681152	-0.631592	-0.925537	-0.337735	0.173642	-0.686402	-0.62019	-6.67463	7.20114	0.0584042	-0.00643735	0.00884396	-0.00267665	0.353027	-0.943359	-0.0908203	0.338352	0.0469934	0.19627	-0.919123	-2.35254	-3.36735	8.81916	-0.00255197	0.00751738	-0.0113727	0.0114746	0.566162	-0.94458	0.577887	-0.0303162	0.272833	-0.768563	-4.07309	-4.23785	11.3883	0.00341121	0.0135427	-0.00972515	0.201904	0.758789	-0.811768	0.0687819	0.0183836	-0.113304	-0.991006	1.93845	0.264734	10.4412	0.018921	-0.0310093	-0.00852825	-0.524414	0.0822754	-0.952148	0.19102	0.822186	0.163799	-0.51058	-8.1232	1.56185	-3.77703	0.00555342	0.0178347	-0.0161788	1.0498	0.111084	0.284424	0.0723026	-0.125785	-0.0422019	-0.988519	2.69956	0.656073	10.2369	0.00356688	0.0152845	-0.0158983	-0.640381	0.00219727	-0.816162	-0.0210261	-0.106418	-0.054086	-0.992627	2.10647	1.16489	10.229	-0.00423133	0.00637372	0.00203654	-0.604248	-0.137207	-0.9021	0.0206573	-0.0467667	0.0948588	-0.994177	0.85988	-1.86369	9.6039	-0.0107467	0.00472689	-0.00299586	-0.561279	0.152588	-1.05933	
74	0.0758274	0.156348	-0.0345804	-0.98418	-3.49628	1.34202	10.2867	-0.0101924	-0.0100498	-0.00100418	0.0288086	0.0666504	-1.14526	0.199682	0.274907	0.0487155	-0.939244	-4.99928	0.562695	8.57041	-0.0253074	0.014985	-0.0230548	0.368408	0.0371094	-1.02368	0.102435	0.213982	-0.329587	-0.913833	-3.48247	6.69112	7.35361	-0.0299215	0.0103381	-0.00465421	-0.0617676	-0.625244	-0.93042	-0.3376	0.173694	-0.686452	-0.620194	-6.62637	7.1707	0.0583593	0.00167139	0.0108812	0.00446403	0.353271	-0.945557	-0.0974121	0.338584	0.0469632	0.196446	-0.919002	-2.34854	-3.42989	8.80416	-0.00427408	0.00972311	-0.00891391	0.0114746	0.566162	-0.94458	0.577883	-0.03028	0.272891	-0.768548	-4.06192	-4.27514	11.3763	-0.000813487	0.0163176	-0.0128628	0.199707	0.758789	-0.811768	0.0688238	0.0177651	-0.113068	-0.991041	1.85405	0.28109	10.2954	-0.000183062	0.00518076	-0.0101492	-0.524414	0.0822754	-0.952148	0.191017	0.822141	0.163826	-0.510645	-8.11843	1.53874	-3.75021	0.00640359	0.0115478	-0.0173775	1.0498	0.113281	0.286621	0.0723076	-0.12587	-0.0421385	-0.98851	2.74054	0.627618	10.2156	0.0014068	0.00349676	-0.0151755	-0.640625	0.0065918	-0.813965	-0.0211023	-0.106281	-0.054006	-0.992644	2.07772	1.11125	10.1872	-0.00047083	0.0151869	0.00276876	-0.604248	-0.132812	-0.902344	0.0206232	-0.0467734	0.094955	-0.994168	0.856717	-1.91217	9.56079	0.00249668	0.00761177	-0.0047332	-0.558838	0.148193	-1.05688	
75	0.0759438	0.15632	-0.0342844	-0.984186	-3.42767	1.34745	10.2892	-0.0138656	-0.00111742	0.00615119	0.03125	0.0644531	-1.14307	0.199852	0.274731	0.0488249	-0.939254	-4.97049	0.5878	8.74025	-0.00295948	0.0037315	-0.02061	0.362061	0.0349121	-1.03052	0.102527	0.214041	-0.329742	-0.913753	-3.50306	6.51244	7.29548	0.0312479	0.00631802	0.00523921	-0.0639648	-0.625244	-0.92334	-0.337614	0.173731	-0.686488	-0.620136	-6.62851	7.10853	0.0527145	0.0101774	0.0077049	-0.00205996	0.348389	-0.938965	-0.0932617	0.338651	0.0469778	0.196291	-0.91901	-2.35363	-3.35517	8.84274	0.00586775	0.00446244	-0.0159083	0.0161133	0.564209	-0.947021	0.577883	-0.03028	0.272891	-0.768548	-4.06192	-4.27514	11.3763	-0.000813487	0.0163176	-0.0128628	0.199707	0.758789	-0.811768	0.0689108	0.0172429	-0.112521	-0.991107	1.8856	0.274497	10.2431	-0.00555786	0.0184612	-0.00841726	-0.526855	0.0888672	-0.954346	0.191001	0.822147	0.163779	-0.510656	-8.13432	1.5555	-3.72371	0.0035769	0.0148437	-0.0136835	1.0542	0.111084	0.286621	0.0723237	-0.12592	-0.0420967	-0.988505	2.73492	0.605302	10.2058	0.00542396	0.00662618	-0.0152041	-0.640869	0.0112305	-0.811768	-0.0210776	-0.106254	-0.0540514	-0.992645	2.12725	1.15288	10.2497	0.00937414	0.0169555	0.00702892	-0.606689	-0.128418	-0.902344	0.0205921	-0.0465955	0.0945938	-0.994212	0.875702	-1.85332	9.59355	0.0149763	0.0107574	-0.00291255	-0.556641	0.150391	-1.05469	
76	0.0761295	0.156403	-0.0340839	-0.984165	-3.45767	1.24162	10.2701	-0.00266723	0.00120565	0.00334343	0.0290527	0.0644531	-1.14087	0.200051	0.274873	0.0485428	-0.939185	-4.92994	0.586674	8.73964	0.000330886	0.0247874	-0.0167509	0.366455	0.0349121	-1.03052	0.102441	0.214313	-0.329897	-0.913643	-3.39717	6.755	7.3639	0.00175752	0.0167016	-0.00113072	-0.0617676	-0.625244	-0.923584	-0.337699	0.173727	-0.686633	-0.61993	-6.59048	7.24912	0.0608426	0.00555143	0.00724007	-0.00236311	0.348877	-0.945557	-0.0952148	0.338827	0.0469537	0.196355	-0.918932	-2.27214	-3.55401	8.84724	0.0105262	0.0159417	-0.0113055	0.0158691	0.566162	-0.940186	0.577368	-0.0301203	0.273335	-0.768783	-4.04633	-4.31705	11.4005	-0.00410144	0.0136229	-0.0123437	0.199707	0.758789	-0.80957	0.0688578	0.0160827	-0.112776	-0.991101	2.00464	0.242827	10.3554	0.0296019	-0.0221922	-0.0133147	-0.526855	0.0844727	-0.950195	0.191141	0.822119	0.163588	-0.51071	-8.10186	1.48085	-3.68582	0.00886088	0.0125172	-0.0064276	1.0498	0.111084	0.291504	0.0721701	-0.125982	-0.0421914	-0.988504	2.81619	0.63778	10.1818	0.00661233	0.00649001	-0.0231518	-0.638428	0.0112305	-0.807373	-0.0210894	-0.106369	-0.0543263	-0.992617	2.17316	1.17305	10.2128	0.010492	0.00618102	0.00278422	-0.604248	-0.13501	-0.904541	0.0206643	-0.0465624	0.0946399	-0.994207	0.882385	-1.85706	9.59315	-0.00744374	0.00864027	-0.00181639	-0.563232	0.148193	-1.05469	
77	0.0760541	0.15655	-0.0342003	-0.984143	-3.51715	1.31906	10.29	0.00564889	-0.000119547	0.00141777	0.0288086	0.0666504	-1.14526	0.200321	0.274892	0.0484786	-0.939125	-4.98326	0.592979	8.72935	-0.00933416	0.0120036	-0.0165836	0.370605	0.0349121	-1.02588	0.102622	0.214372	-0.329877	-0.913616	-3.45277	6.6062	7.35219	0.0122134	0.00231137	0.00967437	-0.0617676	-0.625244	-0.921143	-0.337753	0.173833	-0.686438	-0.620088	-6.64726	7.22935	0.0548758	-0.0110747	0.00100777	-0.00326107	0.359863	-0.945557	-0.0908203	0.338768	0.0475801	0.195664	-0.919069	-2.34613	-3.35275	8.81285	0.0347325	0.0249068	-0.0171247	0.0158691	0.566406	-0.94458	0.577372	-0.0299826	0.273106	-0.768866	-4.02303	-4.29498	11.3769	0.022059	0.0106094	-0.0130353	0.199707	0.758789	-0.80542	0.0687093	0.0145602	-0.112568	-0.991159	1.93684	0.292618	10.2851	-0.00491155	-0.045511	-0.0131037	-0.526855	0.0866699	-0.947998	0.190963	0.82227	0.163292	-0.510627	-8.07687	1.58996	-3.68206	0.0184836	0.0232708	-0.00825292	1.04785	0.106689	0.289062	0.0720435	-0.125798	-0.0422322	-0.988535	2.76658	0.672266	10.214	0.0063933	0.0201211	-0.0201876	-0.645508	0.00878906	-0.813965	-0.0211463	-0.106321	-0.0540961	-0.992634	2.09038	1.15	10.2702	-0.00789804	0.0101228	0.00488985	-0.608643	-0.13501	-0.899902	0.0206434	-0.0465281	0.0948298	-0.994191	0.862413	-1.88452	9.59252	-0.0100518	0.00988257	-0.0038165	-0.561035	0.148193	-1.04565	
78	0.0762869	0.156488	-0.03428	-0.984132	-3.51319	1.32123	10.3144	0.000798689	-0.0082095	0.0135145	0.0268555	0.0644531	-1.14307	0.20055	0.27497	0.0484561	-0.939054	-4.99935	0.599796	8.6652	-0.00117136	0.022161	-0.0169806	0.366211	0.0371094	-1.0354	0.102773	0.214462	-0.328719	-0.913996	-3.5251	6.70446	7.36037	-0.0745917	0.0138156	-0.00670507	-0.0639648	-0.625244	-0.925781	-0.337817	0.173938	-0.686234	-0.620248	-6.66075	7.18461	0.0601839	-0.0197972	-0.00166314	-0.0059208	0.353027	-0.943359	-0.0930176	0.338731	0.047964	0.195746	-0.919045	-2.37475	-3.41143	8.86359	-0.00244846	0.0243276	-0.0143789	0.0158691	0.566406	-0.94458	0.577372	-0.0299826	0.273106	-0.768866	-4.02303	-4.29498	11.3769	0.022059	0.0106094	-0.0130353	0.199707	0.758789	-0.80542	0.0684588	0.0127264	-0.112535	-0.991205	1.97167	0.269823	10.4224	0.0147135	-0.0676889	-0.0164597	-0.537598	0.0866699	-0.943848	0.190905	0.822445	0.163375	-0.510342	-8.12574	1.59371	-3.75982	0.00256307	0.021853	-0.0087002	1.0498	0.111084	0.286621	0.0719903	-0.125592	-0.0422535	-0.988564	2.74689	0.632961	10.2481	0.00733608	0.0255155	-0.0206904	-0.640869	0.0112305	-0.813965	-0.0211944	-0.106425	-0.0541099	-0.992621	2.10565	1.07464	10.1729	0.00860323	0.00566388	0.00166257	-0.604248	-0.132812	-0.906738	0.020712	-0.0465013	0.0946088	-0.994212	0.878679	-1.88744	9.56487	0.0143195	0.00993683	-0.000990063	-0.558594	0.145996	-1.05688	
79	0.0763407	0.156541	-0.0344005	-0.984116	-3.46824	1.31708	10.2846	0.00577397	-0.000251028	0.000562028	0.0334473	0.0622559	-1.14722	0.200733	0.275005	0.0483034	-0.939013	-4.97824	0.618611	8.67966	-0.00352262	0.0152623	-0.0175907	0.370605	0.0349121	-1.0354	0.102673	0.214607	-0.32826	-0.914137	-3.47568	6.59463	7.32873	0.0156633	0.00883155	-0.00592182	-0.0661621	-0.627197	-0.927979	-0.337922	0.174133	-0.685969	-0.62043	-6.63352	7.13352	0.041289	-0.0171554	0.00349498	-0.00511965	0.348389	-0.936768	-0.0932617	0.338804	0.0483115	0.195412	-0.919071	-2.3883	-3.38121	8.81136	0.0250002	0.0149572	-0.0127108	0.0161133	0.559814	-0.94458	0.576829	-0.0286786	0.272439	-0.76956	-4.07409	-4.24974	11.4169	0.0232368	0.0153198	-0.0104422	0.203857	0.758789	-0.811768	0.0682397	0.011091	-0.112408	-0.991254	1.99091	0.263116	10.3083	0.00462915	-0.0412788	-0.0135608	-0.537354	0.0822754	-0.947998	0.191125	0.822444	0.16333	-0.510275	-8.11918	1.59924	-3.77522	5.62621e-05	0.0150714	-0.0121956	1.0542	0.106934	0.289062	0.071901	-0.125205	-0.0422657	-0.988619	2.65331	0.623209	10.2323	0.00449344	0.0234407	-0.0209857	-0.63623	0.0112305	-0.813965	-0.0211675	-0.106438	-0.0544723	-0.992601	2.11591	1.17397	10.205	0.0311337	0.0114744	0.00443094	-0.604248	-0.13501	-0.9021	0.0208283	-0.0463497	0.0937618	-0.994297	0.873081	-1.80405	9.58311	0.0386653	0.0137132	0.000419089	-0.558838	0.148193	-1.05688	
80	0.0762952	0.156595	-0.0344643	-0.984108	-3.50887	1.33415	10.2869	0.0051814	-0.000256917	-0.00134939	0.0310059	0.0666504	-1.14526	0.200878	0.27501	0.0483101	-0.93898	-4.97835	0.628334	8.6757	-0.00901022	0.017474	-0.0156505	0.368408	0.0349121	-1.03052	0.102659	0.214668	-0.328334	-0.914098	-3.54179	6.67701	7.39982	0.0109103	0.00814619	0.00153984	-0.0595703	-0.629639	-0.925537	-0.337808	0.174191	-0.685892	-0.620561	-6.66355	7.2149	0.0952476	-0.0060268	0.00667172	0.00460711	0.348877	-0.947754	-0.0952148	0.338864	0.0483726	0.195313	-0.919067	-2.37478	-3.29391	8.84597	0.00885047	0.0105838	-0.0104293	0.0161133	0.559814	-0.949219	0.576823	-0.0286388	0.272319	-0.769609	-4.04648	-4.18305	11.3832	0.0116364	0.011504	-0.0180563	0.201904	0.758789	-0.80957	0.0682096	0.0104583	-0.112331	-0.991272	2.05977	0.280424	10.315	0.00681291	-0.034029	-0.0109331	-0.537598	0.0844727	-0.939453	0.191231	0.822387	0.163317	-0.510331	-8.15452	1.59716	-3.77097	-0.00108072	0.00828766	-0.0128498	1.04785	0.106689	0.291504	0.0718173	-0.125116	-0.0423417	-0.988633	2.71285	0.657767	10.2635	0.0034025	0.00828905	-0.0188976	-0.642822	0.00439453	-0.813965	-0.0210307	-0.106329	-0.0549994	-0.992586	2.10689	1.14988	10.1987	0.025739	0.0227887	0.00858369	-0.602051	-0.132812	-0.904541	0.0209057	-0.046231	0.0934324	-0.994332	0.86876	-1.7808	9.62217	0.0277721	0.0161962	0.00195429	-0.558594	0.143799	-1.06152	
81	0.0762462	0.156502	-0.0345558	-0.984124	-3.46443	1.33356	10.2894	0.00243451	-0.00797429	-0.00169967	0.0290527	0.0600586	-1.14307	0.201159	0.274965	0.0483167	-0.938933	-4.99319	0.579814	8.7169	-0.0211804	0.000478098	-0.0178348	0.368408	0.0393066	-1.03784	0.102706	0.214698	-0.327566	-0.914362	-3.51766	6.62299	7.30931	-0.031748	0.00313871	-0.00490555	-0.0617676	-0.625244	-0.927979	-0.33771	0.174254	-0.685628	-0.620888	-6.647	7.10434	0.0337601	-0.0165247	0.00288726	0.0034832	0.355225	-0.941162	-0.0908203	0.33924	0.04814	0.195517	-0.918897	-2.3754	-3.44717	8.81894	-0.0116235	-0.000255643	-0.00270535	0.0183105	0.563965	-0.942383	0.576823	-0.0286388	0.272319	-0.769609	-4.04648	-4.18305	11.3832	0.0116364	0.011504	-0.0180563	0.201904	0.758789	-0.80957	0.0681185	0.0089803	-0.112043	-0.991325	2.03559	0.260063	10.302	-0.00235986	-0.0457902	-0.0114126	-0.537598	0.0864258	-0.94165	0.191305	0.822278	0.163326	-0.510477	-8.09537	1.57804	-3.75722	0.00373298	0.00697477	-0.0168878	1.0498	0.111084	0.289062	0.0717931	-0.125234	-0.0420904	-0.988631	2.70904	0.632042	10.2186	-0.00373531	0.00641716	-0.0142827	-0.635986	0.00439453	-0.818359	-0.0209677	-0.105815	-0.0549936	-0.992643	2.0834	1.2428	10.2061	-0.0179109	0.0380856	0.00953253	-0.601807	-0.137207	-0.9021	0.0210808	-0.0458384	0.0925026	-0.994433	0.875309	-1.922	9.57064	0.0519186	0.0254221	0.00372805	-0.558838	0.148193	-1.05249	
82	0.07606	0.156639	-0.0345516	-0.984117	-3.48732	1.33275	10.2949	0.000257361	0.00250313	-0.00511757	0.0334473	0.0644531	-1.14502	0.201617	0.274538	0.0483961	-0.938955	-4.96929	0.600086	8.71517	-0.010719	0.015745	-0.0185397	0.364258	0.0327148	-1.03052	0.102705	0.21455	-0.327271	-0.914502	-3.522	6.63924	7.40508	0.000371467	0.00169162	0.00212991	-0.0617676	-0.625244	-0.925781	-0.337812	0.174177	-0.68562	-0.620863	-6.67011	7.24221	0.0843002	0.0074451	0.000174898	-0.000421914	0.35083	-0.943359	-0.0974121	0.339537	0.0480672	0.195305	-0.918836	-2.33789	-3.3947	8.83375	0.00552037	0.00300795	-0.00516378	0.0161133	0.562012	-0.949219	0.576074	-0.0285778	0.272932	-0.769955	-4.0437	-4.2358	11.4145	-0.0023525	0.0193944	-0.02011	0.20166	0.760986	-0.807617	0.0681572	0.00810692	-0.111721	-0.991366	2.08691	0.233792	10.4022	0.0127055	-0.0304923	-0.0106269	-0.541992	0.0864258	-0.943848	0.191131	0.822303	0.163365	-0.510489	-8.10079	1.54932	-3.75438	0.00780973	0.00947952	-0.01288	1.052	0.111084	0.286621	0.0715403	-0.125239	-0.0420928	-0.988648	2.73375	0.675439	10.2473	-0.000484474	0.00725805	-0.0260703	-0.640869	0.0112305	-0.816162	-0.0208421	-0.105385	-0.053865	-0.992753	2.07885	1.10044	10.1715	-0.0324547	0.0230275	0.0157613	-0.604248	-0.13501	-0.9021	0.0215163	-0.0449508	0.0906517	-0.994635	0.891908	-1.85988	9.55507	0.0734118	0.0441756	0.0153865	-0.55835	0.137207	-1.06128	
83	0.0762164	0.156659	-0.0344166	-0.984106	-3.48055	1.3477	10.2873	-0.00942823	-0.00283139	0.0109464	0.0246582	0.0622559	-1.14941	0.201757	0.27456	0.0485215	-0.938912	-4.97179	0.563767	8.70359	-0.0174538	0.0212965	-0.0190259	0.372803	0.0393066	-1.02612	0.102449	0.214505	-0.326936	-0.914661	-3.40247	6.59156	7.3469	-0.0121024	-0.00455227	-0.0111909	-0.0598145	-0.623047	-0.923584	-0.337705	0.174009	-0.685676	-0.620907	-6.58617	7.15843	0.0554369	0.00801284	0.00689158	0.0118527	0.351074	-0.945557	-0.0974121	0.339868	0.0479061	0.195392	-0.918704	-2.34312	-3.37689	8.85457	-0.0108882	0.00248738	-0.00716742	0.0114746	0.568359	-0.942383	0.576	-0.0286503	0.273041	-0.769968	-4.03485	-4.2443	11.401	-0.00797353	0.0168704	-0.0221728	0.199463	0.760986	-0.811768	0.0680597	0.00712344	-0.11144	-0.991412	2.10175	0.256401	10.3124	0.00513484	-0.0126582	-0.0135395	-0.546143	0.0864258	-0.939453	0.191039	0.822225	0.163288	-0.510673	-8.12027	1.62422	-3.70695	0.00925813	0.00706395	-0.0174224	1.05029	0.102539	0.289307	0.0713276	-0.125475	-0.0419017	-0.988642	2.7499	0.645897	10.192	-0.000547523	-0.00413441	-0.0220366	-0.640869	0.0112305	-0.80957	-0.0205704	-0.105461	-0.054665	-0.992707	2.1501	1.10682	10.3128	0.041051	0.0215831	0.00892911	-0.599854	-0.134766	-0.9021	0.021972	-0.0441409	0.0883395	-0.994869	0.806076	-1.69836	9.70915	0.0871757	0.0307244	0.0112406	-0.560547	0.137207	-1.05908	
84	0.0764528	0.156583	-0.0343099	-0.984103	-3.5127	1.31144	10.31	-0.00399113	-0.00866824	0.00920929	0.0246582	0.0622559	-1.14087	0.201961	0.274664	0.0484761	-0.938841	-5.00708	0.632518	8.68321	-0.00258595	0.019064	-0.0149798	0.370605	0.0349121	-1.03296	0.102227	0.214397	-0.326476	-0.914876	-3.4947	6.61945	7.37519	-0.00779139	-0.00266052	-0.00654459	-0.0617676	-0.627441	-0.927979	-0.337654	0.173888	-0.685816	-0.620814	-6.63727	7.19098	0.0751191	0.0115387	0.00740769	0.00126919	0.350586	-0.938965	-0.095459	0.340097	0.0477536	0.195516	-0.918601	-2.39023	-3.3945	8.84096	-3.93131e-05	0.00612333	-0.0116631	0.013916	0.563965	-0.94458	0.575829	-0.0287877	0.273092	-0.770073	-4.0513	-4.28808	11.4075	-0.00221464	0.0114292	-0.0212088	0.199463	0.763184	-0.812012	0.0678291	0.00608826	-0.111473	-0.991431	2.11682	0.25001	10.2452	0.0166208	-0.0224878	-0.0172693	-0.552979	0.0908203	-0.939697	0.19102	0.822115	0.163456	-0.510803	-8.12051	1.55111	-3.75395	0.000954157	0.0103336	-0.025135	1.052	0.111084	0.289062	0.0713976	-0.125785	-0.04179	-0.988602	2.74682	0.623508	10.2513	-0.000665936	-0.00187818	-0.00970696	-0.640869	0.0090332	-0.818359	-0.020512	-0.10572	-0.0548836	-0.992668	2.04316	1.30853	10.2304	-0.0049808	-0.00296126	0.0075389	-0.604248	-0.132812	-0.902344	0.0222431	-0.0436773	0.0870751	-0.994995	0.808639	-1.65033	9.58434	0.0487616	0.0284607	0.00569225	-0.553955	0.139404	-1.06128	
