40	Head	00b4120a												Throax	00b411e8												LUpArm	00b411d9												LFoArm	00b41148												RUpArm	00b411db												RFoArm	00b41204												Waist	00b411f7												Lthigh	00b411f4												Lshank	00b4111b												Rthigh	00b411c8												Rshank	00b411ee												
PacketCount	q0	q1	q2	q3	accX	accY	accZ	gyrX	gyrY	gyrZ	magX	magY	magZ	q0	q1	q2	q3	accX	accY	accZ	gyrX	gyrY	gyrZ	magX	magY	magZ	q0	q1	q2	q3	accX	accY	accZ	gyrX	gyrY	gyrZ	magX	magY	magZ	q0	q1	q2	q3	accX	accY	accZ	gyrX	gyrY	gyrZ	magX	magY	magZ	q0	q1	q2	q3	accX	accY	accZ	gyrX	gyrY	gyrZ	magX	magY	magZ	q0	q1	q2	q3	accX	accY	accZ	gyrX	gyrY	gyrZ	magX	magY	magZ	q0	q1	q2	q3	accX	accY	accZ	gyrX	gyrY	gyrZ	magX	magY	magZ	q0	q1	q2	q3	accX	accY	accZ	gyrX	gyrY	gyrZ	magX	magY	magZ	q0	q1	q2	q3	accX	accY	accZ	gyrX	gyrY	gyrZ	magX	magY	magZ	q0	q1	q2	q3	accX	accY	accZ	gyrX	gyrY	gyrZ	magX	magY	magZ	q0	q1	q2	q3	accX	accY	accZ	gyrX	gyrY	gyrZ	magX	magY	magZ	
0	0.948479	0.0891475	-0.289991	0.0913526	5.58927	0.944289	9.25805	-0.00797087	-0.00288157	0.0069006	-0.228516	-0.189697	-1.02148	0.703894	0.297019	-0.590389	0.260296	9.84048	1.03347	1.16032	-0.0305107	-0.0199187	-0.0194849	-0.862305	-0.337158	-0.376221	0.600946	0.570251	-0.215478	0.516959	8.73841	3.76967	3.21916	-0.0150033	-0.00876392	0.0445619	-0.920166	-0.773682	-0.237305	0.8368	0.231762	-0.40391	0.287939	8.03209	1.68355	5.65706	-0.00867418	-0.000216039	0.00848393	-0.827881	-0.268311	-0.975098	0.765335	-0.316622	-0.532227	-0.175351	9.29767	-3.45711	2.28041	-0.024279	-0.00666139	-0.0309635	-0.760254	0.517334	-0.541016	0.919122	0.0487396	-0.381161	0.0869229	8.31574	-0.703715	9.04536	-0.010063	0.0486061	-0.00973813	-0.640381	-0.111328	-0.99707	0.411689	0.254962	-0.872368	0.0669434	7.36635	0.510333	-5.83523	0.0384757	0.0420503	-0.014974	-0.994629	-0.254639	0.484131	-0.242657	-0.606157	0.756714	0.0327862	3.69621	2.23009	-7.33782	1.31899	-0.616533	0.1488	-0.825684	-0.222168	0.701172	-0.10073	0.835772	-0.536841	0.0560359	0.0501805	-3.11932	-8.88061	-0.151479	0.0268685	-0.00288198	-0.420898	0.356689	0.995361	-0.201715	0.196113	0.959236	0.0267842	4.49347	-0.370337	-8.92215	1.49235	-1.07109	0.0967559	-0.863037	0.0422363	0.755615	0.0136333	0.100562	-0.994078	-0.0388566	0.0851633	0.849348	-9.7018	0.0613499	0.0214622	-0.00182055	-0.481445	-0.198242	1.14453	
1	0.948398	0.0888694	-0.290237	0.0916775	5.85393	0.894983	9.16583	0.00498036	-0.0136942	-0.00591315	-0.226074	-0.19165	-1.01929	0.703843	0.297139	-0.590358	0.260367	9.9327	0.86029	1.14245	0.0116885	0.0105711	-0.0235403	-0.862061	-0.34375	-0.380615	0.600946	0.570251	-0.215478	0.516959	8.73841	3.76967	3.21916	-0.0150033	-0.00876392	0.0445619	-0.920166	-0.773682	-0.237305	0.837266	0.232483	-0.402529	0.287938	8.00715	1.55355	5.5326	0.0724439	0.0692942	-0.0466638	-0.821045	-0.272705	-0.977295	0.765356	-0.316072	-0.532422	-0.175654	9.04536	-2.79292	2.32613	-0.0117916	0.00485009	-0.0482071	-0.758301	0.521973	-0.547852	0.919517	0.048439	-0.380042	0.0878084	8.27786	-0.532588	8.8806	-0.0405541	0.0704308	-0.000118401	-0.644775	-0.106934	-0.986328	0.412531	0.255239	-0.871859	0.0673258	7.52608	0.494971	-5.70805	0.00755194	0.0499111	-0.0280022	-0.994629	-0.254639	0.477783	-0.242657	-0.606157	0.756714	0.0327862	3.69621	2.23009	-7.33782	1.31899	-0.616533	0.1488	-0.825684	-0.222168	0.701172	-0.10073	0.835772	-0.536841	0.0560359	0.0501805	-3.11932	-8.88061	-0.151479	0.0268685	-0.00288198	-0.420898	0.356689	0.995361	-0.201715	0.196113	0.959236	0.0267842	4.49347	-0.370337	-8.92215	1.49235	-1.07109	0.0967559	-0.863037	0.0422363	0.755615	0.0136333	0.100562	-0.994078	-0.0388566	0.0851633	0.849348	-9.7018	0.0613499	0.0214622	-0.00182055	-0.481445	-0.198242	1.14453	
2	0.948344	0.0888939	-0.290232	0.0922333	5.81766	0.948979	9.01475	0.0142545	-0.0127735	0.0140642	-0.226074	-0.19165	-1.01709	0.703877	0.297055	-0.590212	0.260701	9.69917	1.01917	1.23004	0.00131056	0.0168564	-0.012034	-0.864258	-0.34375	-0.375977	0.600946	0.570251	-0.215478	0.516959	8.73841	3.76967	3.21916	-0.0150033	-0.00876392	0.0445619	-0.920166	-0.773682	-0.237305	0.837703	0.232837	-0.401532	0.287772	7.97605	1.59229	5.39267	0.00720424	0.0463915	-0.0196814	-0.825195	-0.2771	-0.979492	0.76468	-0.317349	-0.532202	-0.17696	9.0826	-2.71148	2.23771	-0.0968294	0.0120552	-0.0327892	-0.760254	0.519775	-0.547852	0.919886	0.0481121	-0.379053	0.088399	8.34908	-0.591669	8.89958	-0.00319514	0.0562015	-0.0174409	-0.640381	-0.109131	-0.99292	0.412984	0.255627	-0.871519	0.0674825	7.38288	0.484093	-5.78278	0.0349901	0.0228439	-0.0204181	-1.00317	-0.256836	0.47998	-0.242657	-0.606157	0.756714	0.0327862	3.69621	2.23009	-7.33782	1.31899	-0.616533	0.1488	-0.825684	-0.222168	0.701172	-0.10073	0.835772	-0.536841	0.0560359	0.0501805	-3.11932	-8.88061	-0.151479	0.0268685	-0.00288198	-0.420898	0.356689	0.995361	-0.201715	0.196113	0.959236	0.0267842	4.49347	-0.370337	-8.92215	1.49235	-1.07109	0.0967559	-0.863037	0.0422363	0.755615	0.0136333	0.100562	-0.994078	-0.0388566	0.0851633	0.849348	-9.7018	0.0613499	0.0214622	-0.00182055	-0.481445	-0.198242	1.14453	
3	0.948524	0.0888835	-0.289343	0.0931796	5.69293	0.964397	9.10665	0.0208317	0.0338388	0.0146853	-0.221924	-0.187256	-1.01709	0.70398	0.296822	-0.590353	0.260367	9.78939	0.948844	1.10279	-0.0222448	0.00748596	-0.0274972	-0.862061	-0.34375	-0.380615	0.600946	0.570251	-0.215478	0.516959	8.73841	3.76967	3.21916	-0.0150033	-0.00876392	0.0445619	-0.920166	-0.773682	-0.237305	0.838517	0.234235	-0.399088	0.287666	7.95152	1.58652	5.53846	0.0665762	0.0811928	-0.057299	-0.816406	-0.2771	-0.979492	0.764773	-0.3162	-0.532669	-0.177207	9.35422	-3.41659	2.15716	0.1137	0.0179006	-0.0290694	-0.762451	0.519775	-0.545654	0.920345	0.0471992	-0.377836	0.0893174	8.21276	-0.762788	9.10661	-0.0401496	0.0474424	0.00711813	-0.638184	-0.106934	-0.99292	0.412751	0.256036	-0.871506	0.0675249	7.33292	0.557196	-5.57327	0.00651043	-0.0127695	-0.0244876	-0.996582	-0.256836	0.47998	-0.242657	-0.606157	0.756714	0.0327862	3.69621	2.23009	-7.33782	1.31899	-0.616533	0.1488	-0.825684	-0.222168	0.701172	-0.10073	0.835772	-0.536841	0.0560359	0.0501805	-3.11932	-8.88061	-0.151479	0.0268685	-0.00288198	-0.420898	0.356689	0.995361	-0.201715	0.196113	0.959236	0.0267842	4.49347	-0.370337	-8.92215	1.49235	-1.07109	0.0967559	-0.863037	0.0422363	0.755615	0.0136333	0.100562	-0.994078	-0.0388566	0.0851633	0.849348	-9.7018	0.0613499	0.0214622	-0.00182055	-0.481445	-0.198242	1.14453	
4	0.948667	0.0887892	-0.288745	0.0936642	5.78128	0.969499	9.21672	0.0090505	0.0127718	-0.00110514	-0.22583	-0.196045	-1.02344	0.704106	0.296537	-0.590493	0.260036	9.80554	0.870738	1.17161	-0.0124621	0.0135312	-0.0231307	-0.860107	-0.339355	-0.376221	0.600946	0.570251	-0.215478	0.516959	8.73841	3.76967	3.21916	-0.0150033	-0.00876392	0.0445619	-0.920166	-0.773682	-0.237305	0.839431	0.234917	-0.396887	0.287491	7.93774	1.65882	5.50248	0.03772	0.0822558	-0.047081	-0.818604	-0.279297	-0.981445	0.764187	-0.317332	-0.532247	-0.178975	9.00197	-2.44071	2.25515	-0.0839994	0.0186367	-0.036314	-0.762451	0.517578	-0.545654	0.920856	0.0463042	-0.376558	0.0899095	8.28984	-0.541051	8.8982	-0.0632204	0.0925555	0.00292156	-0.636475	-0.100586	-0.995117	0.41234	0.256379	-0.871625	0.0672025	7.45242	0.432672	-5.775	0.0100134	-0.0145625	-0.0250689	-0.994385	-0.259033	0.482178	-0.242657	-0.606157	0.756714	0.0327862	3.69621	2.23009	-7.33782	1.31899	-0.616533	0.1488	-0.825684	-0.222168	0.701172	-0.10073	0.835772	-0.536841	0.0560359	0.0501805	-3.11932	-8.88061	-0.151479	0.0268685	-0.00288198	-0.420898	0.356689	0.995361	-0.201715	0.196113	0.959236	0.0267842	4.49347	-0.370337	-8.92215	1.49235	-1.07109	0.0967559	-0.863037	0.0422363	0.755615	0.0136333	0.100562	-0.994078	-0.0388566	0.0851633	0.849348	-9.7018	0.0613499	0.0214622	-0.00182055	-0.481445	-0.198242	1.14453	
5	0.948787	0.08864	-0.28826	0.0940844	5.65344	0.981931	9.25327	0.0056416	-0.00314112	0.00611405	-0.219727	-0.189453	-1.02148	0.703996	0.296631	-0.5905	0.26021	9.86187	0.996606	1.07178	0.0109149	0.00705375	-0.0168854	-0.862061	-0.345947	-0.378174	0.600946	0.570251	-0.215478	0.516959	8.73841	3.76967	3.21916	-0.0150033	-0.00876392	0.0445619	-0.920166	-0.773682	-0.237305	0.839849	0.235792	-0.395564	0.287376	7.95567	1.90423	5.73602	0.0107513	0.0282639	-0.0210257	-0.811523	-0.287842	-0.981445	0.76379	-0.31685	-0.532696	-0.180184	9.20112	-3.08936	2.15118	0.0624534	0.0097241	-0.0681673	-0.766846	0.521729	-0.538574	0.921491	0.046169	-0.374709	0.091188	8.27354	-0.659047	9.02068	0.0307375	0.0831195	0.00398391	-0.631836	-0.106934	-0.99292	0.411338	0.25696	-0.871932	0.067135	7.41371	0.494647	-5.81075	0.0168774	-0.037066	-0.0226512	-0.994385	-0.259033	0.484375	-0.242657	-0.606157	0.756714	0.0327862	3.69621	2.23009	-7.33782	1.31899	-0.616533	0.1488	-0.825684	-0.222168	0.701172	-0.10073	0.835772	-0.536841	0.0560359	0.0501805	-3.11932	-8.88061	-0.151479	0.0268685	-0.00288198	-0.420898	0.356689	0.995361	-0.201715	0.196113	0.959236	0.0267842	4.49347	-0.370337	-8.92215	1.49235	-1.07109	0.0967559	-0.863037	0.0422363	0.755615	0.0136333	0.100562	-0.994078	-0.0388566	0.0851633	0.849348	-9.7018	0.0613499	0.0214622	-0.00182055	-0.481445	-0.198242	1.14453	
6	0.948696	0.0886153	-0.288227	0.0951181	5.7698	1.04556	9.10028	0.0197105	0.00430154	0.029996	-0.226074	-0.193848	-1.01929	0.703841	0.296629	-0.590692	0.260195	9.72386	0.989547	1.21707	-0.0114554	-0.010386	-0.019119	-0.866699	-0.339355	-0.380859	0.600946	0.570251	-0.215478	0.516959	8.73841	3.76967	3.21916	-0.0150033	-0.00876392	0.0445619	-0.920166	-0.773682	-0.237305	0.840456	0.236467	-0.3942	0.28692	7.8518	1.61023	5.53294	0.0262566	0.0466715	-0.0449637	-0.811523	-0.285645	-0.979248	0.763441	-0.316101	-0.533367	-0.18099	9.35026	-3.15043	2.26795	-0.0324237	0.00473908	-0.054878	-0.764893	0.521729	-0.543213	0.922064	0.045459	-0.37317	0.0920683	8.15755	-0.757016	9.16811	-0.0202822	0.0673963	0.00301698	-0.636475	-0.100586	-0.999512	0.410801	0.257172	-0.872136	0.0669622	7.41689	0.543756	-5.7859	0.0122012	-0.0413727	-0.0227377	-0.998779	-0.259033	0.484375	-0.242657	-0.606157	0.756714	0.0327862	3.69621	2.23009	-7.33782	1.31899	-0.616533	0.1488	-0.825684	-0.222168	0.701172	-0.10073	0.835772	-0.536841	0.0560359	0.0501805	-3.11932	-8.88061	-0.151479	0.0268685	-0.00288198	-0.420898	0.356689	0.995361	-0.201715	0.196113	0.959236	0.0267842	4.49347	-0.370337	-8.92215	1.49235	-1.07109	0.0967559	-0.863037	0.0422363	0.755615	0.0136333	0.100562	-0.994078	-0.0388566	0.0851633	0.849348	-9.7018	0.0613499	0.0214622	-0.00182055	-0.481445	-0.198242	1.14453	
7	0.948781	0.0884309	-0.28777	0.0958265	5.70026	1.09326	9.13007	0.010383	0.0297681	0.0393602	-0.223877	-0.196045	-1.01709	0.703678	0.296714	-0.590871	0.260136	9.78699	0.925466	1.24598	0.00188581	-0.00912715	-0.0215471	-0.864502	-0.339355	-0.378418	0.597489	0.570131	-0.218371	0.519877	8.80069	3.755	3.22794	0.00605202	-0.00441003	0.0295923	-0.926758	-0.762939	-0.230713	0.840676	0.236286	-0.394228	0.286388	7.87057	1.94385	5.85035	-0.0319877	0.00595674	-0.0329318	-0.809082	-0.287842	-0.983643	0.763353	-0.316056	-0.533383	-0.181391	9.07689	-2.84494	2.22916	-0.0188682	0.013653	-0.0436544	-0.768799	0.512939	-0.541016	0.922196	0.0460465	-0.372615	0.0926906	8.17002	-0.669754	9.00902	0.0538054	0.054203	-0.00722236	-0.629883	-0.104736	-0.999512	0.409124	0.257668	-0.872808	0.0665657	7.34829	0.503237	-5.699	0.00387158	-0.0914479	-0.0190393	-0.994385	-0.259033	0.490723	-0.242657	-0.606157	0.756714	0.0327862	3.69621	2.23009	-7.33782	1.31899	-0.616533	0.1488	-0.825684	-0.222168	0.701172	-0.10073	0.835772	-0.536841	0.0560359	0.0501805	-3.11932	-8.88061	-0.151479	0.0268685	-0.00288198	-0.420898	0.356689	0.995361	-0.201715	0.196113	0.959236	0.0267842	4.49347	-0.370337	-8.92215	1.49235	-1.07109	0.0967559	-0.863037	0.0422363	0.755615	0.0136333	0.100562	-0.994078	-0.0388566	0.0851633	0.849348	-9.7018	0.0613499	0.0214622	-0.00182055	-0.481445	-0.198242	1.14453	
8	0.948834	0.0882632	-0.287175	0.0972351	5.67996	0.960145	9.19355	0.0266944	0.00951425	0.034576	-0.223633	-0.196045	-1.01929	0.703796	0.296278	-0.590877	0.260298	9.77895	1.08839	1.16547	-0.0147791	0.0197537	-0.0068319	-0.862305	-0.337158	-0.376221	0.598039	0.569419	-0.219063	0.519734	8.65879	3.09447	3.10157	-0.0885585	-0.00145566	0.0105812	-0.928955	-0.764893	-0.242188	0.841207	0.23626	-0.39357	0.285752	7.92655	1.63561	5.55176	0.0369193	0.0457291	-0.0405208	-0.804688	-0.287842	-0.988037	0.762631	-0.315725	-0.534023	-0.183117	9.38526	-3.20397	2.17757	-0.0104112	-0.000166735	-0.0836218	-0.766602	0.512939	-0.543213	0.922757	0.0454655	-0.371021	0.093782	8.17394	-0.685758	9.15813	-0.0279744	0.0768908	0.0160501	-0.621094	-0.104736	-0.995117	0.406237	0.257923	-0.874171	0.0653718	7.36858	0.460888	-5.94237	0.0110043	-0.12766	-0.0121341	-0.987793	-0.26123	0.499268	-0.242657	-0.606157	0.756714	0.0327862	3.69621	2.23009	-7.33782	1.31899	-0.616533	0.1488	-0.825684	-0.222168	0.701172	-0.10073	0.835772	-0.536841	0.0560359	0.0501805	-3.11932	-8.88061	-0.151479	0.0268685	-0.00288198	-0.420898	0.356689	0.995361	-0.201715	0.196113	0.959236	0.0267842	4.49347	-0.370337	-8.92215	1.49235	-1.07109	0.0967559	-0.863037	0.0422363	0.755615	0.0136333	0.100562	-0.994078	-0.0388566	0.0851633	0.849348	-9.7018	0.0613499	0.0214622	-0.00182055	-0.481445	-0.198242	1.14453	
9	0.948774	0.0882507	-0.286961	0.09845	5.65005	0.954275	9.27189	0.0148844	-0.0135112	0.0282998	-0.221436	-0.196045	-1.02124	0.703879	0.295762	-0.591201	0.259926	9.86569	0.909395	1.0849	-0.0266523	0.0137595	-0.016045	-0.868896	-0.339355	-0.378418	0.596755	0.569837	-0.219227	0.520682	8.86531	3.82846	3.21235	0.0454947	-0.00356677	0.0478859	-0.931152	-0.760498	-0.235352	0.841491	0.23644	-0.393128	0.285377	7.83444	1.80612	5.68896	-0.00709794	0.00688446	-0.0107387	-0.808838	-0.294434	-0.987793	0.762629	-0.315442	-0.534106	-0.183371	9.20024	-2.66806	2.3178	-0.0536027	0.0107955	-0.024118	-0.766602	0.515137	-0.53418	0.922957	0.0452226	-0.370379	0.0944646	8.17655	-0.68111	9.12639	-0.0002169	0.0327569	-0.0121841	-0.627686	-0.102783	-1.00586	0.40402	0.257885	-0.875281	0.0643895	7.30979	0.504998	-5.89869	-0.0318982	-0.0976908	-0.00835785	-0.987793	-0.263428	0.503662	-0.242657	-0.606157	0.756714	0.0327862	3.69621	2.23009	-7.33782	1.31899	-0.616533	0.1488	-0.825684	-0.222168	0.701172	-0.10073	0.835772	-0.536841	0.0560359	0.0501805	-3.11932	-8.88061	-0.151479	0.0268685	-0.00288198	-0.420898	0.356689	0.995361	-0.201715	0.196113	0.959236	0.0267842	4.49347	-0.370337	-8.92215	1.49235	-1.07109	0.0967559	-0.863037	0.0422363	0.755615	0.0136333	0.100562	-0.994078	-0.0388566	0.0851633	0.849348	-9.7018	0.0613499	0.0214622	-0.00182055	-0.481445	-0.198242	1.14453	
10	0.948396	0.0886632	-0.287763	0.0993801	5.81107	0.848693	9.06619	0.0371022	-0.0511585	0.0186195	-0.226074	-0.19165	-1.02148	0.703808	0.295465	-0.59147	0.259843	9.7724	1.01931	1.1285	-0.0187579	0.000519652	-0.0154866	-0.864258	-0.34375	-0.380615	0.597749	0.56857	-0.220383	0.520438	8.85643	3.58412	3.19881	-0.0520277	0.000752881	0.00614079	-0.935547	-0.760498	-0.237549	0.84164	0.235907	-0.393375	0.285038	7.91031	1.67346	5.47665	-0.0234991	0.0142412	-0.00693037	-0.800049	-0.294434	-0.992188	0.762396	-0.316035	-0.533892	-0.183941	9.22831	-2.9212	2.28768	-0.0713367	0.0170282	-0.0225826	-0.768799	0.512939	-0.538574	0.922988	0.0457286	-0.369953	0.0955826	8.15843	-0.686204	9.12244	0.034402	0.0229806	0.00678023	-0.625732	-0.100586	-1.00391	0.40243	0.258014	-0.876014	0.0638581	7.21654	0.53016	-5.93394	0.019474	-0.052986	-0.00953023	-0.987793	-0.259033	0.505615	-0.242657	-0.606157	0.756714	0.0327862	3.69621	2.23009	-7.33782	1.31899	-0.616533	0.1488	-0.825684	-0.222168	0.701172	-0.10073	0.835772	-0.536841	0.0560359	0.0501805	-3.11932	-8.88061	-0.151479	0.0268685	-0.00288198	-0.420898	0.356689	0.995361	-0.201715	0.196113	0.959236	0.0267842	4.49347	-0.370337	-8.92215	1.49235	-1.07109	0.0967559	-0.863037	0.0422363	0.755615	0.0136333	0.100562	-0.994078	-0.0388566	0.0851633	0.849348	-9.7018	0.0613499	0.0214622	-0.00182055	-0.481445	-0.198242	1.14453	
11	0.948214	0.0898835	-0.287548	0.100636	5.70789	0.864916	9.15457	0.0729698	-0.00125359	0.0233563	-0.228027	-0.198242	-1.02344	0.703519	0.29537	-0.591968	0.259597	9.80382	0.907554	1.10418	-0.00162651	-0.00764397	-0.0189636	-0.866699	-0.339355	-0.378418	0.597665	0.568376	-0.220767	0.520583	8.80781	3.98421	3.31785	-0.0169942	-0.0065651	0.0275739	-0.931152	-0.756104	-0.235352	0.841654	0.235942	-0.393713	0.284501	7.82514	1.98616	5.83737	-0.0423882	-0.0298659	-0.00520294	-0.809082	-0.290039	-0.98584	0.763266	-0.31406	-0.534035	-0.183297	9.10802	-2.71101	2.20955	0.0651671	0.0127849	-0.0230624	-0.768799	0.510742	-0.543213	0.922788	0.0471763	-0.36997	0.0967398	8.18081	-0.655175	9.06366	0.0663291	0.00525396	-0.0137302	-0.623535	-0.0983887	-1.00171	0.401319	0.257962	-0.876572	0.0634081	7.25275	0.534907	-5.85286	-0.00925817	-0.0334377	-0.0112921	-0.983643	-0.259033	0.511963	-0.242657	-0.606157	0.756714	0.0327862	3.69621	2.23009	-7.33782	1.31899	-0.616533	0.1488	-0.825684	-0.222168	0.701172	-0.10073	0.835772	-0.536841	0.0560359	0.0501805	-3.11932	-8.88061	-0.151479	0.0268685	-0.00288198	-0.420898	0.356689	0.995361	-0.201715	0.196113	0.959236	0.0267842	4.49347	-0.370337	-8.92215	1.49235	-1.07109	0.0967559	-0.863037	0.0422363	0.755615	0.0147243	0.102761	-0.994057	-0.0327768	0.105879	0.692204	-9.7223	-0.00718448	0.011717	-0.00694818	-0.484131	-0.189453	1.15356	
12	0.947895	0.0914376	-0.287523	0.102302	5.80668	0.995659	9.16861	0.085963	-0.0180147	0.031226	-0.228027	-0.200439	-1.01489	0.703211	0.295514	-0.592058	0.260066	9.8465	0.948443	1.11853	0.0238498	0.0174921	-0.00672729	-0.862305	-0.341553	-0.375977	0.600948	0.565309	-0.222749	0.519298	8.83105	3.62547	3.15028	-0.133111	0.0104725	-0.0192042	-0.927002	-0.758545	-0.244629	0.841604	0.234941	-0.394782	0.283995	7.90516	1.63526	5.44559	-0.0162201	-0.00625426	0.00827304	-0.809326	-0.285645	-0.988037	0.763644	-0.312493	-0.534493	-0.183063	9.30763	-2.96925	2.19936	0.0631724	0.0159003	-0.0431886	-0.766357	0.508545	-0.536377	0.922774	0.0478614	-0.369633	0.0978196	8.16502	-0.709399	9.16463	0.0262552	0.0198968	0.00260164	-0.627686	-0.106934	-1.00586	0.400599	0.258237	-0.876846	0.0630504	7.29053	0.485529	-5.92012	0.0210752	-0.0181924	-0.0165674	-0.979248	-0.259033	0.516113	-0.242657	-0.606157	0.756714	0.0327862	3.69621	2.23009	-7.33782	1.31899	-0.616533	0.1488	-0.825684	-0.222168	0.701172	-0.10073	0.835772	-0.536841	0.0560359	0.0501805	-3.11932	-8.88061	-0.151479	0.0268685	-0.00288198	-0.420898	0.356689	0.995361	-0.201715	0.196113	0.959236	0.0267842	4.49347	-0.370337	-8.92215	1.49235	-1.07109	0.0967559	-0.863037	0.0422363	0.755615	0.0146283	0.102916	-0.994028	-0.0332149	0.1103	0.697464	-9.70515	-0.0171214	-0.00405074	-0.00646219	-0.481934	-0.189453	1.15576	
13	0.947696	0.0924036	-0.287449	0.103474	5.80542	1.11805	9.09773	0.0402044	-0.0116528	0.0164841	-0.22998	-0.207031	-1.01489	0.703156	0.295592	-0.592083	0.260066	9.81085	0.954956	1.14602	-0.00221116	0.00129635	-0.0252681	-0.862549	-0.330811	-0.376465	0.601029	0.565552	-0.222385	0.519096	8.8713	3.56211	3.32602	0.0108451	-0.000856707	-0.0187771	-0.935547	-0.756104	-0.249023	0.841482	0.235177	-0.394867	0.284043	7.87097	1.74763	5.73723	-0.0106042	-0.00564779	0.000677419	-0.813232	-0.294434	-0.985596	0.764132	-0.311387	-0.534725	-0.182234	9.14912	-2.67992	2.25473	0.0418172	0.0056429	-0.0150782	-0.772949	0.506348	-0.543213	0.92268	0.0493282	-0.369518	0.098414	8.20084	-0.649003	9.07172	0.045749	0.0125478	-0.032533	-0.62085	-0.111328	-0.999268	0.40024	0.258379	-0.876974	0.0629694	7.18679	0.581521	-5.99239	0.0124685	-0.0237367	-0.0173038	-0.981445	-0.259033	0.51416	-0.242657	-0.606157	0.756714	0.0327862	3.69621	2.23009	-7.33782	1.31899	-0.616533	0.1488	-0.825684	-0.222168	0.701172	-0.10073	0.835772	-0.536841	0.0560359	0.0501805	-3.11932	-8.88061	-0.151479	0.0268685	-0.00288198	-0.420898	0.356689	0.995361	-0.201715	0.196113	0.959236	0.0267842	4.49347	-0.370337	-8.92215	1.49235	-1.07109	0.0967559	-0.863037	0.0422363	0.755615	0.0146283	0.102916	-0.994028	-0.0332149	0.1103	0.697464	-9.70515	-0.0171214	-0.00405074	-0.00646219	-0.481934	-0.189453	1.15576	
14	0.947886	0.0923215	-0.286781	0.103658	5.89814	1.07193	9.09079	-0.00341392	0.0266026	-0.0223296	-0.231934	-0.209229	-1.01489	0.70314	0.295637	-0.592169	0.259865	9.79403	1.09622	1.11614	-0.0050469	0.0146334	-0.0285588	-0.864258	-0.34375	-0.371338	0.600311	0.566158	-0.222155	0.519364	8.7467	3.60062	3.17053	0.0389785	-0.00820416	0.00888353	-0.927002	-0.756348	-0.242432	0.841644	0.234971	-0.394867	0.283732	7.92145	1.62184	5.45042	-0.0253317	0.0108705	-0.01624	-0.807129	-0.285645	-0.988037	0.764716	-0.309195	-0.535471	-0.181325	9.23942	-2.94498	2.08847	0.15509	0.000635952	-0.0400493	-0.766357	0.506348	-0.54541	0.922765	0.0497842	-0.369113	0.0989009	8.19147	-0.629067	9.10604	-0.000155514	0.0290504	-0.014928	-0.623291	-0.106934	-1.00586	0.399981	0.258656	-0.877045	0.0624889	7.21771	0.547322	-5.91717	0.009134	-0.00530148	-0.0175037	-0.981201	-0.263428	0.51416	-0.242657	-0.606157	0.756714	0.0327862	3.69621	2.23009	-7.33782	1.31899	-0.616533	0.1488	-0.825684	-0.222168	0.701172	-0.10073	0.835772	-0.536841	0.0560359	0.0501805	-3.11932	-8.88061	-0.151479	0.0268685	-0.00288198	-0.420898	0.356689	0.995361	-0.201715	0.196113	0.959236	0.0267842	4.49347	-0.370337	-8.92215	1.49235	-1.07109	0.0967559	-0.863037	0.0422363	0.755615	0.0147941	0.103138	-0.993999	-0.0333035	0.107202	0.704362	-9.70969	-0.00179951	0.00466112	-0.00474593	-0.472656	-0.193604	1.14673	
15	0.948444	0.0923069	-0.285326	0.102583	6.12899	0.906118	8.92993	-0.00247511	0.056574	-0.0693111	-0.227539	-0.207031	-1.01685	0.703223	0.295453	-0.592374	0.259381	9.89022	1.17354	1.0552	-0.0197846	0.02031	-0.0244262	-0.862305	-0.341553	-0.373779	0.600591	0.565425	-0.222937	0.519504	8.771	3.40806	3.3488	-0.0015865	-0.0041022	0.0374121	-0.935547	-0.753906	-0.242432	0.841644	0.234971	-0.394867	0.283732	7.92145	1.62184	5.45042	-0.0253317	0.0108705	-0.01624	-0.807129	-0.285645	-0.988037	0.76525	-0.307536	-0.536176	-0.179806	9.22587	-2.5809	2.42811	0.0227547	-0.0114409	-0.00434985	-0.772705	0.501953	-0.547852	0.923021	0.0498594	-0.368418	0.0990718	8.18542	-0.558864	9.13635	0.00985394	0.0428144	-0.0253986	-0.618652	-0.115723	-0.999023	0.399836	0.258651	-0.877128	0.0622723	7.21121	0.552006	-5.97087	-0.00586743	-0.01014	-0.0129107	-0.979248	-0.26123	0.516357	-0.242657	-0.606157	0.756714	0.0327862	3.69621	2.23009	-7.33782	1.31899	-0.616533	0.1488	-0.825684	-0.222168	0.701172	-0.10073	0.835772	-0.536841	0.0560359	0.0501805	-3.11932	-8.88061	-0.151479	0.0268685	-0.00288198	-0.420898	0.356689	0.995361	-0.201715	0.196113	0.959236	0.0267842	4.49347	-0.370337	-8.92215	1.49235	-1.07109	0.0967559	-0.863037	0.0422363	0.755615	0.0147509	0.103237	-0.994	-0.0329956	0.123139	0.695638	-9.71202	0.0103662	0.0029592	-0.00431286	-0.479492	-0.189453	1.15576	
16	0.948905	0.0928971	-0.283839	0.101904	6.1569	0.809275	8.87248	0.0412965	0.100897	-0.0939071	-0.218506	-0.213379	-1.01245	0.703223	0.295453	-0.592374	0.259381	9.89022	1.17354	1.0552	-0.0197846	0.02031	-0.0244262	-0.862305	-0.341553	-0.373779	0.600008	0.565385	-0.2234	0.520022	8.87615	3.86762	3.15458	0.0160006	-0.00812453	0.066767	-0.933594	-0.749756	-0.237793	0.841644	0.234971	-0.394867	0.283732	7.92145	1.62184	5.45042	-0.0253317	0.0108705	-0.01624	-0.807129	-0.285645	-0.988037	0.765157	-0.307915	-0.536144	-0.179645	9.30135	-2.68458	2.35847	-0.0218314	-0.00323776	0.0107084	-0.766113	0.501953	-0.547852	0.92313	0.0497397	-0.368117	0.0992346	8.20353	-0.54517	9.1407	-0.013626	0.0392876	-0.0143196	-0.623291	-0.109131	-1.00366	0.399463	0.258349	-0.877397	0.0621224	7.1903	0.590938	-5.97865	-0.0175686	0.00712306	0.00240541	-0.981445	-0.256836	0.51416	-0.242657	-0.606157	0.756714	0.0327862	3.69621	2.23009	-7.33782	1.31899	-0.616533	0.1488	-0.825684	-0.222168	0.701172	-0.0707056	0.833272	-0.542581	0.0791501	0.223735	-2.42064	-8.8331	-0.0085947	0.0245461	0.00129408	-0.450684	0.347412	0.975342	-0.201715	0.196113	0.959236	0.0267842	4.49347	-0.370337	-8.92215	1.49235	-1.07109	0.0967559	-0.863037	0.0422363	0.755615	0.0146841	0.103273	-0.993999	-0.0329473	0.0903113	0.695498	-9.71832	0.00571413	0.000826203	-0.0041162	-0.483887	-0.19165	1.15576	
17	0.950336	0.094907	-0.278799	0.100625	5.94509	1.37168	9.04471	0.0742375	0.203762	-0.101255	-0.202881	-0.215332	-1.0144	0.704228	0.293659	-0.592593	0.258189	9.87945	0.957767	1.15272	-0.0574061	0.0275483	0.00257601	-0.85791	-0.341553	-0.378418	0.601954	0.563232	-0.224863	0.519478	8.83729	3.42741	3.18023	-0.171306	0.0220869	-0.0282996	-0.933594	-0.751709	-0.244629	0.841644	0.234971	-0.394867	0.283732	7.92145	1.62184	5.45042	-0.0253317	0.0108705	-0.01624	-0.807129	-0.285645	-0.988037	0.765058	-0.308498	-0.536106	-0.17918	9.17264	-2.77928	2.29664	0.00995896	-0.00670949	0.0105538	-0.770752	0.506348	-0.547852	0.923383	0.0490565	-0.367453	0.0996753	8.12942	-0.572313	9.14147	-0.0209964	0.0467446	0.00185241	-0.62085	-0.111328	-1.00342	0.39936	0.258073	-0.877523	0.0621619	7.22755	0.447001	-5.98483	0.0277138	0.0198541	0.00331444	-0.981201	-0.263428	0.51416	-0.242657	-0.606157	0.756714	0.0327862	3.69621	2.23009	-7.33782	1.31899	-0.616533	0.1488	-0.825684	-0.222168	0.701172	-0.0706344	0.833342	-0.542463	0.0792902	0.459624	-2.26129	-8.90052	-0.00402436	0.00683908	-0.0157884	-0.455078	0.338135	0.973389	-0.201715	0.196113	0.959236	0.0267842	4.49347	-0.370337	-8.92215	1.49235	-1.07109	0.0967559	-0.863037	0.0422363	0.755615	0.0146019	0.103288	-0.994003	-0.0328003	0.103405	0.699017	-9.72004	0.0092118	0.00361078	-0.00210052	-0.479736	-0.187256	1.15356	
18	0.952013	0.0955656	-0.272987	0.10008	5.47325	1.58689	9.28894	0.0250363	0.217819	-0.0543693	-0.194092	-0.215332	-1.021	0.704853	0.292544	-0.592502	0.257955	9.76038	0.87568	1.06059	-0.0332209	0.0281832	-0.0115911	-0.862305	-0.341553	-0.383057	0.601746	0.563486	-0.224295	0.519689	8.87462	3.58531	3.27951	0.0761967	0.00839175	-0.0121136	-0.935547	-0.751709	-0.24707	0.841644	0.234971	-0.394867	0.283732	7.92145	1.62184	5.45042	-0.0253317	0.0108705	-0.01624	-0.807129	-0.285645	-0.988037	0.76518	-0.30876	-0.535887	-0.178864	9.09046	-2.69919	2.3242	-0.0412363	0.016874	-0.010046	-0.768555	0.508545	-0.547852	0.923475	0.0488046	-0.366909	0.100944	8.1351	-0.651832	9.11745	-0.00309471	0.0376982	0.0252001	-0.623291	-0.106934	-1.00781	0.399232	0.258251	-0.877458	0.0631463	7.16877	0.572046	-6.00865	0.0546705	0.0117533	-0.000422013	-0.983643	-0.259033	0.51416	-0.242657	-0.606157	0.756714	0.0327862	3.69621	2.23009	-7.33782	1.31899	-0.616533	0.1488	-0.825684	-0.222168	0.701172	-0.0706344	0.833342	-0.542463	0.0792902	0.459624	-2.26129	-8.90052	-0.00402436	0.00683908	-0.0157884	-0.455078	0.338135	0.973389	-0.201715	0.196113	0.959236	0.0267842	4.49347	-0.370337	-8.92215	1.49235	-1.07109	0.0967559	-0.863037	0.0422363	0.755615	0.0146404	0.103408	-0.993996	-0.0326254	0.111695	0.689266	-9.72737	0.00733057	0.00521461	-0.00567135	-0.479492	-0.189453	1.15356	
19	0.953345	0.0940275	-0.26855	0.100865	5.13666	1.14331	9.4649	-0.0346862	0.155029	0.0271598	-0.185303	-0.212891	-1.021	0.705364	0.292201	-0.59213	0.257802	9.83863	0.877169	1.14471	-0.0163013	0.0303992	-0.0159703	-0.862305	-0.339355	-0.378418	0.601218	0.564219	-0.223165	0.519992	8.92251	3.59959	3.17665	0.0559404	0.0130951	-0.0180015	-0.929199	-0.751953	-0.251465	0.841644	0.234971	-0.394867	0.283732	7.92145	1.62184	5.45042	-0.0253317	0.0108705	-0.01624	-0.807129	-0.285645	-0.988037	0.764869	-0.309276	-0.535968	-0.17906	9.28465	-3.1523	2.28579	0.0192456	-0.00848659	-0.00946631	-0.766113	0.501953	-0.543213	0.923667	0.0482538	-0.366246	0.101861	8.09768	-0.767051	9.16913	0.00855572	0.0405858	0.00730233	-0.621338	-0.102539	-1.00586	0.400385	0.258406	-0.876844	0.0637409	7.23129	0.421646	-5.91652	0.0229528	0.0666795	-0.0199342	-0.98584	-0.254883	0.513916	-0.242657	-0.606157	0.756714	0.0327862	3.69621	2.23009	-7.33782	1.31899	-0.616533	0.1488	-0.825684	-0.222168	0.701172	-0.0706344	0.833342	-0.542463	0.0792902	0.459624	-2.26129	-8.90052	-0.00402436	0.00683908	-0.0157884	-0.455078	0.338135	0.973389	-0.201715	0.196113	0.959236	0.0267842	4.49347	-0.370337	-8.92215	1.49235	-1.07109	0.0967559	-0.863037	0.0422363	0.755615	0.0146831	0.103479	-0.993992	-0.0325046	0.12396	0.692163	-9.71733	0.0108991	0.0102602	-0.00627498	-0.481934	-0.185059	1.15356	
20	0.954099	0.0927083	-0.265734	0.102397	5.03488	1.0947	9.55736	-0.0285606	0.0995025	0.052495	-0.181152	-0.210693	-1.02954	0.705649	0.292005	-0.591857	0.257872	9.75563	1.03716	1.22192	-0.00348531	0.0164426	-0.0271931	-0.862305	-0.337158	-0.380859	0.601055	0.563838	-0.22364	0.520388	8.76757	3.4529	3.28429	-0.0217504	0.000951542	0.0548267	-0.931396	-0.749756	-0.24707	0.841644	0.234971	-0.394867	0.283732	7.92145	1.62184	5.45042	-0.0253317	0.0108705	-0.01624	-0.807129	-0.285645	-0.988037	0.764416	-0.310389	-0.535749	-0.179722	9.16316	-2.42242	2.30292	-0.134497	0.00305859	-0.0248496	-0.768555	0.508545	-0.547852	0.923556	0.0488656	-0.366107	0.103063	8.25534	-0.572691	9.10208	0.00128141	0.0203197	0.0140108	-0.619141	-0.102539	-1.00586	0.400796	0.258819	-0.876437	0.0650642	7.25015	0.584147	-5.97913	0.0577251	0.0459321	-0.0059133	-0.981445	-0.256836	0.507568	-0.242657	-0.606157	0.756714	0.0327862	3.69621	2.23009	-7.33782	1.31899	-0.616533	0.1488	-0.825684	-0.222168	0.701172	-0.0706344	0.833342	-0.542463	0.0792902	0.459624	-2.26129	-8.90052	-0.00402436	0.00683908	-0.0157884	-0.455078	0.338135	0.973389	-0.201715	0.196113	0.959236	0.0267842	4.49347	-0.370337	-8.92215	1.49235	-1.07109	0.0967559	-0.863037	0.0422363	0.755615	0.0147761	0.103629	-0.993988	-0.0320979	0.118763	0.690856	-9.71568	0.00757626	0.000824216	-0.00486649	-0.481689	-0.19165	1.1582	
21	0.954389	0.0920543	-0.264476	0.10354	4.99114	0.929988	9.53157	0.00711442	0.0268148	0.0207718	-0.185547	-0.208496	-1.02319	0.705544	0.292131	-0.59201	0.257667	9.67814	0.966913	1.14034	0.00251541	0.00105099	-0.0221696	-0.862305	-0.341553	-0.378418	0.600073	0.563815	-0.224523	0.521167	8.79582	3.65597	3.16558	0.00289865	-0.0104184	0.0479397	-0.933594	-0.749756	-0.242432	0.841644	0.234971	-0.394867	0.283732	7.92145	1.62184	5.45042	-0.0253317	0.0108705	-0.01624	-0.807129	-0.285645	-0.988037	0.763619	-0.311294	-0.535885	-0.181133	9.01532	-2.90054	1.95891	-0.136622	-0.012744	-0.0774845	-0.775146	0.506348	-0.543213	0.923844	0.0486562	-0.365115	0.104093	8.05821	-0.910808	9.25878	0.0188202	0.0514138	0.00191166	-0.612549	-0.104736	-1.00806	0.401347	0.259067	-0.876077	0.065526	7.22073	0.547483	-5.85077	0.0378619	0.0652341	-0.0226395	-0.983643	-0.256836	0.511963	-0.242657	-0.606157	0.756714	0.0327862	3.69621	2.23009	-7.33782	1.31899	-0.616533	0.1488	-0.825684	-0.222168	0.701172	-0.0706344	0.833342	-0.542463	0.0792902	0.459624	-2.26129	-8.90052	-0.00402436	0.00683908	-0.0157884	-0.455078	0.338135	0.973389	-0.201715	0.196113	0.959236	0.0267842	4.49347	-0.370337	-8.92215	1.49235	-1.07109	0.0967559	-0.863037	0.0422363	0.755615	0.0147189	0.103746	-0.993975	-0.0321488	0.110083	0.690274	-9.72567	-0.0034597	0.00532841	-0.00558096	-0.479736	-0.187256	1.15796	
22	0.95435	0.0923571	-0.264496	0.103576	5.08597	1.00448	9.51668	0.0204915	-0.034289	-0.0238421	-0.183105	-0.212891	-1.02295	0.70571	0.291581	-0.59229	0.257191	9.74711	0.756212	1.14338	-0.0265939	0.002521	-0.0168404	-0.862549	-0.335205	-0.383301	0.598681	0.564469	-0.224841	0.521922	8.95283	3.97275	3.21723	0.0390607	-0.023046	0.0241857	-0.933594	-0.749512	-0.244873	0.841644	0.234971	-0.394867	0.283732	7.92145	1.62184	5.45042	-0.0253317	0.0108705	-0.01624	-0.807129	-0.285645	-0.988037	0.76311	-0.310345	-0.536914	-0.18186	8.8295	-1.99747	2.30732	-0.0991806	-0.0153473	-0.0919617	-0.772705	0.501953	-0.541016	0.924354	0.0485867	-0.363575	0.104986	8.17567	-0.572543	9.00897	-0.0336145	0.111948	0.0186472	-0.605957	-0.106934	-1.01001	0.402101	0.259448	-0.875597	0.0658086	7.20745	0.411408	-5.80354	0.00836969	0.0458274	-0.0255659	-0.983887	-0.254639	0.509766	-0.242657	-0.606157	0.756714	0.0327862	3.69621	2.23009	-7.33782	1.31899	-0.616533	0.1488	-0.825684	-0.222168	0.701172	-0.0706344	0.833342	-0.542463	0.0792902	0.459624	-2.26129	-8.90052	-0.00402436	0.00683908	-0.0157884	-0.455078	0.338135	0.973389	-0.201715	0.196113	0.959236	0.0267842	4.49347	-0.370337	-8.92215	1.49235	-1.07109	0.0967559	-0.863037	0.0422363	0.755615	0.0145458	0.103775	-0.993977	-0.0320622	0.10819	0.68212	-9.71431	0.0135539	-0.0043411	-0.00384578	-0.479736	-0.187256	1.15576	
23	0.953784	0.0930043	-0.266276	0.103652	5.36559	1.16034	9.48719	0.0197686	-0.110279	-0.00374548	-0.183105	-0.212891	-1.02515	0.705542	0.291534	-0.592433	0.257373	9.80654	0.915591	1.07308	0.00534468	0.00181492	-0.00192652	-0.864502	-0.341553	-0.378418	0.597593	0.565352	-0.224569	0.52233	8.61916	2.8419	3.22189	0.144948	-0.0259241	0.0525581	-0.935547	-0.749512	-0.235596	0.841644	0.234971	-0.394867	0.283732	7.92145	1.62184	5.45042	-0.0253317	0.0108705	-0.01624	-0.807129	-0.285645	-0.988037	0.762022	-0.311062	-0.537353	-0.183885	9.30698	-3.14787	2.05827	-0.154032	-0.0255406	-0.134194	-0.772949	0.506348	-0.538574	0.925156	0.048502	-0.36112	0.106424	8.08733	-0.984415	9.27295	0.0845848	0.101423	0.00484903	-0.608154	-0.106934	-1.01855	0.402712	0.259985	-0.875114	0.0663757	7.2732	0.428524	-6.07536	0.0603156	0.0391915	-0.0205357	-0.987793	-0.259033	0.507812	-0.242657	-0.606157	0.756714	0.0327862	3.69621	2.23009	-7.33782	1.31899	-0.616533	0.1488	-0.825684	-0.222168	0.701172	-0.0706344	0.833342	-0.542463	0.0792902	0.459624	-2.26129	-8.90052	-0.00402436	0.00683908	-0.0157884	-0.455078	0.338135	0.973389	-0.201715	0.196113	0.959236	0.0267842	4.49347	-0.370337	-8.92215	1.49235	-1.07109	0.0967559	-0.863037	0.0422363	0.755615	0.0144434	0.103825	-0.993984	-0.0317324	0.0910085	0.677859	-9.71778	0.0287894	0.000256989	-0.00576826	-0.479736	-0.184814	1.1604	
24	0.95338	0.0931957	-0.267673	0.103597	5.51611	1.09846	9.34917	0.00843328	-0.131759	-0.00671604	-0.1875	-0.212891	-1.02515	0.70599	0.291386	-0.592264	0.256702	9.84792	1.08091	1.08589	-0.0253088	0.0155706	-0.0322929	-0.868896	-0.339355	-0.378418	0.59593	0.566466	-0.224344	0.523118	8.97989	4.02516	3.24158	0.153453	-0.0291643	0.0739176	-0.937744	-0.751709	-0.235596	0.841644	0.234971	-0.394867	0.283732	7.92145	1.62184	5.45042	-0.0253317	0.0108705	-0.01624	-0.807129	-0.285645	-0.988037	0.762727	-0.306888	-0.539217	-0.18252	9.28869	-2.63694	2.31818	0.281285	-0.0270172	-0.0666972	-0.776611	0.493164	-0.543213	0.925439	0.0490795	-0.360107	0.107127	8.14312	-0.465214	9.26709	0.0611226	0.0927694	0.00193055	-0.610352	-0.106934	-1.0166	0.403732	0.260222	-0.874511	0.0672023	7.34374	0.619239	-5.90838	0.00305509	0.0696774	-0.0241893	-0.981445	-0.256836	0.503418	-0.242657	-0.606157	0.756714	0.0327862	3.69621	2.23009	-7.33782	1.31899	-0.616533	0.1488	-0.825684	-0.222168	0.701172	-0.0706344	0.833342	-0.542463	0.0792902	0.459624	-2.26129	-8.90052	-0.00402436	0.00683908	-0.0157884	-0.455078	0.338135	0.973389	-0.201715	0.196113	0.959236	0.0267842	4.49347	-0.370337	-8.92215	1.49235	-1.07109	0.0967559	-0.863037	0.0422363	0.755615	0.0145283	0.103928	-0.993981	-0.0314715	0.102543	0.681907	-9.72202	0.0107266	0.00733675	-0.00536252	-0.481934	-0.189453	1.15356	
25	0.952796	0.0941183	-0.269574	0.103201	5.62876	1.11866	9.10706	0.0389574	-0.0787446	-0.0369918	-0.196045	-0.219482	-1.02734	0.705961	0.291604	-0.592186	0.256713	9.74007	0.910545	1.21699	0.0119972	0.00777681	-0.0178331	-0.860107	-0.339355	-0.378418	0.59593	0.566466	-0.224344	0.523118	8.97989	4.02516	3.24158	0.153453	-0.0291643	0.0739176	-0.937744	-0.751709	-0.235596	0.841644	0.234971	-0.394867	0.283732	7.92145	1.62184	5.45042	-0.0253317	0.0108705	-0.01624	-0.807129	-0.285645	-0.988037	0.762468	-0.305761	-0.540134	-0.182777	9.38998	-2.68707	2.38306	-0.0712982	-0.00560395	-0.0378882	-0.78125	0.499756	-0.54541	0.925725	0.0493588	-0.359033	0.108125	7.99081	-0.629535	9.41974	0.00970185	0.0367179	-0.00381154	-0.608154	-0.109131	-1.01636	0.405163	0.260474	-0.873804	0.066806	7.2798	0.257458	-5.92019	0.00369073	0.0674954	-0.0393666	-0.989746	-0.263428	0.499268	-0.242657	-0.606157	0.756714	0.0327862	3.69621	2.23009	-7.33782	1.31899	-0.616533	0.1488	-0.825684	-0.222168	0.701172	-0.0706344	0.833342	-0.542463	0.0792902	0.459624	-2.26129	-8.90052	-0.00402436	0.00683908	-0.0157884	-0.455078	0.338135	0.973389	-0.201715	0.196113	0.959236	0.0267842	4.49347	-0.370337	-8.92215	1.49235	-1.07109	0.0967559	-0.863037	0.0422363	0.755615	0.0145807	0.103921	-0.99397	-0.0318091	0.102233	0.672229	-9.72493	-0.0249512	0.00693102	-0.000490853	-0.479736	-0.184814	1.1604	
26	0.952508	0.0949616	-0.270117	0.10367	5.49711	1.3348	9.28457	0.027751	-0.0311481	0.0290953	-0.196289	-0.215332	-1.021	0.705433	0.292162	-0.592386	0.257069	9.75003	1.02788	1.11563	0.025833	-0.00676763	-0.0141478	-0.862305	-0.337158	-0.378662	0.594996	0.567397	-0.223843	0.523387	8.92472	3.67756	3.18232	0.0285509	-0.00481821	0.00245113	-0.939941	-0.745117	-0.22876	0.841644	0.234971	-0.394867	0.283732	7.92145	1.62184	5.45042	-0.0253317	0.0108705	-0.01624	-0.807129	-0.285645	-0.988037	0.761337	-0.306847	-0.540539	-0.184469	9.32227	-2.90559	2.16468	-0.0308772	-0.00930337	-0.0744507	-0.787598	0.490967	-0.541016	0.925771	0.0492814	-0.358774	0.108629	8.04969	-0.589959	9.29331	-0.01346	0.0249817	0.00225715	-0.604248	-0.100586	-1.0188	0.405886	0.260963	-0.873255	0.0676819	7.29375	0.614789	-5.72346	0.0383086	0.0507826	-0.0172792	-0.994385	-0.256836	0.501221	-0.242657	-0.606157	0.756714	0.0327862	3.69621	2.23009	-7.33782	1.31899	-0.616533	0.1488	-0.825684	-0.222168	0.701172	-0.0706344	0.833342	-0.542463	0.0792902	0.459624	-2.26129	-8.90052	-0.00402436	0.00683908	-0.0157884	-0.455078	0.338135	0.973389	-0.201715	0.196113	0.959236	0.0267842	4.49347	-0.370337	-8.92215	1.49235	-1.07109	0.0967559	-0.863037	0.0422363	0.755615	0.0144554	0.103941	-0.993968	-0.031864	0.110903	0.678545	-9.73126	0.0265203	-0.00622309	-0.00488501	-0.479736	-0.187256	1.15576	
27	0.951936	0.0956623	-0.271209	0.105409	5.56454	1.38834	9.34578	0.0480978	-0.0639197	0.0546892	-0.198486	-0.217529	-1.0188	0.705119	0.292593	-0.592502	0.257173	9.88378	1.01378	1.04393	0.0199907	-0.00527546	-0.0248274	-0.866455	-0.34375	-0.378418	0.593949	0.568281	-0.22317	0.523904	8.98107	3.73205	3.24644	0.0785078	0.000708514	0.0089639	-0.944336	-0.749512	-0.233398	0.841644	0.234971	-0.394867	0.283732	7.92145	1.62184	5.45042	-0.0253317	0.0108705	-0.01624	-0.807129	-0.285645	-0.988037	0.762129	-0.304711	-0.541102	-0.183082	9.11081	-2.37498	2.29214	0.0926116	0.0104484	0.0036297	-0.778809	0.48877	-0.541016	0.925498	0.0488708	-0.359471	0.108839	7.98014	-0.726903	9.23714	-0.0265731	-0.0246374	-0.0231197	-0.608643	-0.0983887	-1.01465	0.407533	0.261124	-0.872459	0.0674317	7.32381	0.523618	-6.0124	-0.004669	0.0813105	-0.0354937	-0.990234	-0.256836	0.492676	-0.242657	-0.606157	0.756714	0.0327862	3.69621	2.23009	-7.33782	1.31899	-0.616533	0.1488	-0.825684	-0.222168	0.701172	-0.0721952	0.835253	-0.53888	0.0821477	0.451253	-2.26433	-8.88501	0.0115175	0.00463884	-0.0173703	-0.45752	0.344971	0.973145	-0.201715	0.196113	0.959236	0.0267842	4.49347	-0.370337	-8.92215	1.49235	-1.07109	0.0967559	-0.863037	0.0422363	0.755615	0.014306	0.104054	-0.993979	-0.0311968	0.103228	0.664375	-9.72545	0.0264709	0.00722157	-0.00745356	-0.479736	-0.187256	1.15576	
28	0.951211	0.0956057	-0.272978	0.107429	5.66642	1.13328	9.29654	0.0201435	-0.0870989	0.0691475	-0.204834	-0.219727	-1.021	0.704937	0.292692	-0.592773	0.256935	9.96562	1.023	1.20803	-0.0185316	0.00208627	-0.0263069	-0.864502	-0.341553	-0.380859	0.593822	0.568118	-0.223299	0.52417	8.91862	3.84533	3.12045	-0.0403055	0.000943501	0.011665	-0.937744	-0.751709	-0.22876	0.841644	0.234971	-0.394867	0.283732	7.92145	1.62184	5.45042	-0.0253317	0.0108705	-0.01624	-0.807129	-0.285645	-0.988037	0.761572	-0.30749	-0.54023	-0.183331	9.65707	-3.67304	2.22252	-0.0999602	0.0251729	0.0842303	-0.779053	0.495361	-0.543213	0.924927	0.0476043	-0.361437	0.107734	7.93653	-0.850536	9.53047	-0.0685869	-0.101344	-0.0556878	-0.614746	-0.102539	-1.01025	0.409582	0.261261	-0.87143	0.0677892	7.45885	0.511542	-5.87746	0.00540422	0.082371	-0.0235416	-0.985596	-0.263428	0.490723	-0.242657	-0.606157	0.756714	0.0327862	3.69621	2.23009	-7.33782	1.31899	-0.616533	0.1488	-0.825684	-0.222168	0.701172	-0.0721952	0.835253	-0.53888	0.0821477	0.451253	-2.26433	-8.88501	0.0115175	0.00463884	-0.0173703	-0.45752	0.344971	0.973145	-0.201715	0.196113	0.959236	0.0267842	4.49347	-0.370337	-8.92215	1.49235	-1.07109	0.0967559	-0.863037	0.0422363	0.755615	0.0144672	0.104121	-0.993988	-0.0306053	0.107015	0.6585	-9.71418	0.0260105	0.0164841	-0.00380501	-0.484131	-0.189453	1.1604	
29	0.95062	0.0956586	-0.274577	0.108526	5.73058	1.15067	9.17227	-0.00129998	-0.0709142	0.0363327	-0.209229	-0.219727	-1.02319	0.704935	0.292624	-0.593002	0.256489	9.73188	0.876941	1.10259	0.000378609	-0.000224828	-0.0254891	-0.862061	-0.34375	-0.373535	0.595536	0.56676	-0.224157	0.523329	8.89237	3.31457	3.25947	-0.0597177	0.00595087	-0.0331182	-0.942139	-0.749512	-0.235596	0.841644	0.234971	-0.394867	0.283732	7.92145	1.62184	5.45042	-0.0253317	0.0108705	-0.01624	-0.807129	-0.285645	-0.988037	0.762671	-0.307818	-0.53938	-0.18069	8.93417	-2.15298	2.12507	0.0407035	0.00774058	0.0471693	-0.776855	0.499756	-0.538574	0.923721	0.0486668	-0.364734	0.106488	8.29274	-0.560649	8.99504	-0.0216931	-0.103102	-0.0642907	-0.619141	-0.104736	-1.01025	0.410426	0.261253	-0.871029	0.0678632	7.41754	0.459524	-5.94208	-0.00475668	0.0802832	-0.0191112	-0.991943	-0.267822	0.490967	-0.242657	-0.606157	0.756714	0.0327862	3.69621	2.23009	-7.33782	1.31899	-0.616533	0.1488	-0.825684	-0.222168	0.701172	-0.0721952	0.835253	-0.53888	0.0821477	0.451253	-2.26433	-8.88501	0.0115175	0.00463884	-0.0173703	-0.45752	0.344971	0.973145	-0.201715	0.196113	0.959236	0.0267842	4.49347	-0.370337	-8.92215	1.49235	-1.07109	0.0967559	-0.863037	0.0422363	0.755615	0.0147607	0.104268	-0.993985	-0.0300842	0.111693	0.650685	-9.72302	0.0209894	0.0167637	-0.00561838	-0.481934	-0.187256	1.15576	
30	0.950391	0.0954722	-0.275076	0.109433	5.61523	1.03075	9.12803	0.00852867	-0.0216666	0.0254442	-0.209229	-0.221924	-1.02319	0.704454	0.293532	-0.592974	0.256839	9.7668	0.899185	1.13656	0.0377774	-0.00911668	-0.0173045	-0.862305	-0.341553	-0.378418	0.595652	0.567533	-0.223117	0.522803	8.8103	3.64413	3.19732	0.037695	0.000983441	-0.0520971	-0.935547	-0.753906	-0.235596	0.837919	0.247894	-0.387914	0.293196	7.87714	1.811	5.61315	0.0451216	0.00779839	0.0059542	-0.812256	-0.318848	-0.972168	0.762758	-0.30731	-0.539644	-0.180405	9.07301	-2.45955	2.03004	0.0472111	-0.00380407	-0.0247118	-0.774902	0.499756	-0.543213	0.923291	0.0479861	-0.366035	0.106067	7.92477	-0.746449	9.33121	-0.0809603	-0.0451484	-0.0232697	-0.623535	-0.102539	-1.00586	0.412785	0.261289	-0.869878	0.0681812	7.32951	0.45727	-5.69872	-0.00266615	0.115621	-0.0299046	-0.992188	-0.26123	0.484375	-0.242657	-0.606157	0.756714	0.0327862	3.69621	2.23009	-7.33782	1.31899	-0.616533	0.1488	-0.825684	-0.222168	0.701172	-0.0721952	0.835253	-0.53888	0.0821477	0.451253	-2.26433	-8.88501	0.0115175	0.00463884	-0.0173703	-0.45752	0.344971	0.973145	-0.201715	0.196113	0.959236	0.0267842	4.49347	-0.370337	-8.92215	1.49235	-1.07109	0.0967559	-0.863037	0.0422363	0.755615	0.0148111	0.104398	-0.993976	-0.0298847	0.115103	0.634305	-9.72047	0.00583556	0.0060297	-0.00613612	-0.481934	-0.185059	1.15576	
31	0.950147	0.0956671	-0.275541	0.110209	5.80752	1.17553	9.18025	0.00901544	-0.0293667	0.0215526	-0.213623	-0.224121	-1.02319	0.704431	0.293648	-0.592947	0.256831	9.85901	1.0044	1.11813	-0.00664604	0.0135307	-0.0256285	-0.862061	-0.34375	-0.373535	0.597284	0.566836	-0.222975	0.521758	8.83879	3.47485	3.19571	-0.0925743	0.010403	-0.0652167	-0.935547	-0.751709	-0.230957	0.837152	0.247474	-0.390018	0.29295	7.91434	1.79244	5.5237	-0.0223353	-0.0695658	0.0266922	-0.819092	-0.314453	-0.974365	0.764338	-0.306257	-0.538895	-0.177725	8.95451	-2.24018	2.06492	0.0142507	0.0462988	0.058618	-0.772705	0.501953	-0.547852	0.922249	0.0501664	-0.36856	0.10537	8.25321	-0.617131	8.88132	0.0521633	-0.0922448	-0.0829588	-0.625732	-0.100586	-1.00806	0.414784	0.26126	-0.868905	0.0685645	7.45859	0.694044	-5.90004	0.00460199	0.0610333	-0.00462304	-0.996338	-0.26123	0.473633	-0.242657	-0.606157	0.756714	0.0327862	3.69621	2.23009	-7.33782	1.31899	-0.616533	0.1488	-0.825684	-0.222168	0.701172	-0.0721952	0.835253	-0.53888	0.0821477	0.451253	-2.26433	-8.88501	0.0115175	0.00463884	-0.0173703	-0.45752	0.344971	0.973145	-0.201715	0.196113	0.959236	0.0267842	4.49347	-0.370337	-8.92215	1.49235	-1.07109	0.0967559	-0.863037	0.0422363	0.755615	0.0145614	0.104455	-0.993969	-0.0300372	0.112666	0.662982	-9.73598	-0.00169118	-0.00699368	-0.00462692	-0.479736	-0.182617	1.15796	
32	0.950091	0.0955255	-0.275663	0.110508	5.72899	1.02937	9.18082	-0.00375481	-0.0195412	0.015744	-0.209473	-0.219727	-1.0188	0.704533	0.293631	-0.592934	0.256599	9.87201	0.934701	1.07817	-0.0177931	0.0138754	-0.0351807	-0.864258	-0.34375	-0.378418	0.597284	0.566836	-0.222975	0.521758	8.83879	3.47485	3.19571	-0.0925743	0.010403	-0.0652167	-0.935547	-0.751709	-0.230957	0.837152	0.247474	-0.390018	0.29295	7.91434	1.79244	5.5237	-0.0223353	-0.0695658	0.0266922	-0.819092	-0.314453	-0.974365	0.7649	-0.305729	-0.538773	-0.176583	9.35165	-2.89206	2.02796	0.0910466	0.0190119	0.0427553	-0.772705	0.499756	-0.54541	0.922249	0.0501664	-0.36856	0.10537	8.25321	-0.617131	8.88132	0.0521633	-0.0922448	-0.0829588	-0.625732	-0.100586	-1.00806	0.415662	0.261286	-0.86847	0.068654	7.4551	0.582752	-5.86005	-0.00246688	0.0830686	-0.0229916	-0.994141	-0.265625	0.478027	-0.242657	-0.606157	0.756714	0.0327862	3.69621	2.23009	-7.33782	1.31899	-0.616533	0.1488	-0.825684	-0.222168	0.701172	-0.0721952	0.835253	-0.53888	0.0821477	0.451253	-2.26433	-8.88501	0.0115175	0.00463884	-0.0173703	-0.45752	0.344971	0.973145	-0.201715	0.196113	0.959236	0.0267842	4.49347	-0.370337	-8.92215	1.49235	-1.07109	0.0967559	-0.863037	0.0422363	0.755615	0.0145034	0.104477	-0.993966	-0.0300869	0.0926454	0.656872	-9.72767	-0.00127056	0.000358066	-0.00509919	-0.477539	-0.182617	1.15796	
33	0.950089	0.0957155	-0.275788	0.110048	5.81721	1.26112	9.17619	-0.00657601	-0.0149461	-0.0361309	-0.21582	-0.222168	-1.0188	0.704873	0.293794	-0.592589	0.256275	9.85958	1.054	1.07173	-0.00447664	0.0304052	-0.0379231	-0.860107	-0.34375	-0.383057	0.59841	0.566385	-0.223398	0.520775	8.88992	3.81482	3.15378	-0.0487116	-0.00356433	-0.0335777	-0.931152	-0.758301	-0.233154	0.836276	0.248574	-0.391261	0.292861	7.87417	1.95518	5.63809	0.0517144	-0.0438376	0.00261005	-0.812256	-0.31665	-0.967773	0.766304	-0.305722	-0.537653	-0.173901	8.95989	-2.37684	2.48575	-0.0357665	0.0456147	0.0996654	-0.768555	0.504395	-0.55249	0.921116	0.053568	-0.371224	0.104254	8.12253	-0.72401	9.05291	0.109618	-0.103741	-0.0824582	-0.631592	-0.111328	-0.99707	0.416917	0.261402	-0.867844	0.0685349	7.48873	0.579001	-5.74333	0.0103482	0.0490688	-0.0129694	-0.998291	-0.267822	0.47168	-0.242657	-0.606157	0.756714	0.0327862	3.69621	2.23009	-7.33782	1.31899	-0.616533	0.1488	-0.825684	-0.222168	0.701172	-0.0721952	0.835253	-0.53888	0.0821477	0.451253	-2.26433	-8.88501	0.0115175	0.00463884	-0.0173703	-0.45752	0.344971	0.973145	-0.201715	0.196113	0.959236	0.0267842	4.49347	-0.370337	-8.92215	1.49235	-1.07109	0.0967559	-0.863037	0.0422363	0.755615	0.0147896	0.104518	-0.993964	-0.0298675	0.120105	0.64555	-9.71999	0.0128429	0.0177641	-0.00296503	-0.477783	-0.178223	1.15796	
34	0.95029	0.0959181	-0.275304	0.109343	5.68227	1.11238	8.96131	0.0221364	0.0163719	-0.052731	-0.209229	-0.221924	-1.0188	0.705359	0.293642	-0.592165	0.256093	9.61318	0.787737	1.239	0.00862209	0.0296871	-0.0273294	-0.862305	-0.341553	-0.378418	0.599	0.566058	-0.223559	0.520383	8.86388	3.50856	3.10959	-0.0548206	3.30506e-05	-0.0324601	-0.93335	-0.758301	-0.23999	0.835696	0.248851	-0.392375	0.29279	7.91264	1.82343	5.48635	0.0156227	-0.0411279	0.0163529	-0.81665	-0.31665	-0.969971	0.766468	-0.307878	-0.536234	-0.173757	8.87643	-3.03945	2.09329	-0.00438301	0.0172308	0.0207584	-0.766357	0.506348	-0.54541	0.920405	0.0557097	-0.372772	0.103886	8.1235	-0.604014	8.8988	0.0498068	-0.0472131	-0.0621244	-0.633789	-0.113525	-0.99707	0.417873	0.261728	-0.867293	0.0684337	7.38979	0.400081	-5.52658	-0.000716236	0.0366084	-0.0366499	-1.00488	-0.267822	0.469482	-0.242657	-0.606157	0.756714	0.0327862	3.69621	2.23009	-7.33782	1.31899	-0.616533	0.1488	-0.825684	-0.222168	0.701172	-0.0721952	0.835253	-0.53888	0.0821477	0.451253	-2.26433	-8.88501	0.0115175	0.00463884	-0.0173703	-0.45752	0.344971	0.973145	-0.201715	0.196113	0.959236	0.0267842	4.49347	-0.370337	-8.92215	1.49235	-1.07109	0.0967559	-0.863037	0.0422363	0.755615	0.0146895	0.10456	-0.993982	-0.0291644	0.118848	0.627041	-9.72599	0.0357734	0.00242719	-0.00538028	-0.47998	-0.178223	1.15332	
35	0.95073	0.0960497	-0.273548	0.109812	5.38591	1.16288	9.19071	0.0151607	0.0565506	0.0139825	-0.209473	-0.219727	-1.0166	0.705331	0.293846	-0.591909	0.256528	9.76004	1.01507	1.11948	0.0352958	0.0325878	-0.0114773	-0.866455	-0.345947	-0.375977	0.600282	0.566153	-0.2227	0.51917	8.73959	2.9919	3.22946	0.0423375	0.0104377	-0.0340749	-0.931396	-0.75415	-0.235596	0.835696	0.248851	-0.392375	0.29279	7.91264	1.82343	5.48635	0.0156227	-0.0411279	0.0163529	-0.81665	-0.31665	-0.969971	0.76679	-0.307101	-0.536377	-0.173268	8.92731	-2.76751	2.30252	0.0767109	0.0119791	-0.0174358	-0.768066	0.497559	-0.547852	0.920008	0.0570192	-0.373516	0.104016	8.3859	-0.415046	9.15548	0.0360329	-0.0278563	-0.0350068	-0.629395	-0.115723	-0.999023	0.417608	0.262121	-0.867274	0.0687819	7.43188	0.623167	-5.63728	0.0300805	-0.00390082	-0.01478	-0.998291	-0.269775	0.469727	-0.242657	-0.606157	0.756714	0.0327862	3.69621	2.23009	-7.33782	1.31899	-0.616533	0.1488	-0.825684	-0.222168	0.701172	-0.0721952	0.835253	-0.53888	0.0821477	0.451253	-2.26433	-8.88501	0.0115175	0.00463884	-0.0173703	-0.45752	0.344971	0.973145	-0.201715	0.196113	0.959236	0.0267842	4.49347	-0.370337	-8.92215	1.49235	-1.07109	0.0967559	-0.863037	0.0422363	0.755615	0.0144729	0.104641	-0.993982	-0.0289804	0.113972	0.624628	-9.73131	-0.00332163	-0.0062536	-0.00723161	-0.481934	-0.187256	1.15796	
36	0.950956	0.0962647	-0.272286	0.110799	5.46669	1.31073	9.30768	0.0139906	0.0452123	0.028967	-0.204834	-0.224121	-1.0188	0.705581	0.293695	-0.591814	0.256232	9.82517	0.985442	1.08583	0.00304402	0.0116375	-0.0175047	-0.862061	-0.348145	-0.375732	0.599435	0.566668	-0.222659	0.519604	8.87479	3.87417	3.08761	-0.0193478	-0.00253068	0.00412633	-0.929199	-0.75415	-0.22876	0.835696	0.248851	-0.392375	0.29279	7.91264	1.82343	5.48635	0.0156227	-0.0411279	0.0163529	-0.81665	-0.31665	-0.969971	0.767315	-0.306155	-0.536206	-0.173143	9.1331	-2.48062	2.17385	-0.122462	0.0194869	-0.0455599	-0.772461	0.497803	-0.559326	0.920003	0.0571769	-0.37338	0.10446	8.31174	-0.557903	8.93145	-0.0105818	0.0347196	-0.00337515	-0.635742	-0.119873	-0.994629	0.417325	0.262451	-0.867322	0.0686416	7.45227	0.61367	-5.65278	0.00821675	-0.00395077	-0.0190793	-1.00293	-0.263428	0.47168	-0.242657	-0.606157	0.756714	0.0327862	3.69621	2.23009	-7.33782	1.31899	-0.616533	0.1488	-0.825684	-0.222168	0.701172	-0.0721952	0.835253	-0.53888	0.0821477	0.451253	-2.26433	-8.88501	0.0115175	0.00463884	-0.0173703	-0.45752	0.344971	0.973145	-0.201715	0.196113	0.959236	0.0267842	4.49347	-0.370337	-8.92215	1.49235	-1.07109	0.0967559	-0.863037	0.0422363	0.755615	0.0142963	0.10468	-0.993962	-0.0296331	0.101955	0.639643	-9.712	-0.0232848	-0.000554331	-0.0038487	-0.484375	-0.182861	1.15332	
37	0.950932	0.0966571	-0.271951	0.111482	5.55234	1.2882	9.35152	0.0323925	-0.0122228	-0.00253639	-0.207031	-0.224121	-1.0188	0.706154	0.293018	-0.591593	0.255939	9.84017	0.983657	1.04132	-0.0311645	0.0432582	-0.0270561	-0.860107	-0.34375	-0.385498	0.598418	0.567385	-0.222589	0.520023	9.03873	4.29607	3.08708	0.0889953	-0.0189945	0.0114426	-0.93335	-0.756104	-0.237793	0.835696	0.248851	-0.392375	0.29279	7.91264	1.82343	5.48635	0.0156227	-0.0411279	0.0163529	-0.81665	-0.31665	-0.969971	0.76761	-0.305791	-0.536184	-0.172552	8.98995	-2.86049	2.33942	0.0960818	0.00952591	0.00895936	-0.772705	0.501953	-0.550049	0.919909	0.0574645	-0.373519	0.104632	8.18662	-0.598821	8.97014	0.0398467	-0.00633003	-0.0337417	-0.633545	-0.11792	-0.999023	0.417123	0.262702	-0.867362	0.0684043	7.50083	0.462519	-5.76304	-0.00121406	-0.00787453	-0.02455	-0.998047	-0.271973	0.476074	-0.242657	-0.606157	0.756714	0.0327862	3.69621	2.23009	-7.33782	1.31899	-0.616533	0.1488	-0.825684	-0.222168	0.701172	-0.0721952	0.835253	-0.53888	0.0821477	0.451253	-2.26433	-8.88501	0.0115175	0.00463884	-0.0173703	-0.45752	0.344971	0.973145	-0.201715	0.196113	0.959236	0.0267842	4.49347	-0.370337	-8.92215	1.49235	-1.07109	0.0967559	-0.863037	0.0422363	0.755615	0.0143054	0.104781	-0.993949	-0.0296992	0.103719	0.646485	-9.7175	-0.00143567	0.00282723	-0.00572592	-0.481934	-0.189453	1.15356	
38	0.950698	0.0962703	-0.272508	0.112444	5.68823	1.14259	9.166	-0.00997556	-0.0271746	0.0413594	-0.213623	-0.224121	-1.0144	0.706266	0.29291	-0.591373	0.256262	9.81034	1.04298	1.16713	-0.00414853	0.0315636	-0.00605465	-0.85791	-0.341553	-0.378418	0.597916	0.568489	-0.221303	0.519943	8.75586	3.14339	3.34528	0.1013	0.00616689	-0.0207338	-0.935547	-0.758301	-0.233154	0.835696	0.248851	-0.392375	0.29279	7.91264	1.82343	5.48635	0.0156227	-0.0411279	0.0163529	-0.81665	-0.31665	-0.969971	0.767684	-0.30371	-0.537088	-0.173082	9.48831	-3.28463	2.21433	0.0608955	-0.000819489	-0.0863079	-0.770508	0.5	-0.554688	0.920177	0.0568054	-0.372662	0.105685	8.21193	-0.641772	9.15044	-0.0340456	0.0525021	0.0247164	-0.637939	-0.115723	-0.996826	0.416803	0.262985	-0.867426	0.0684638	7.48364	0.528972	-5.65254	0.0184061	-0.0077087	-0.0196428	-1.00293	-0.26123	0.473633	-0.242657	-0.606157	0.756714	0.0327862	3.69621	2.23009	-7.33782	1.31899	-0.616533	0.1488	-0.825684	-0.222168	0.701172	-0.0721952	0.835253	-0.53888	0.0821477	0.451253	-2.26433	-8.88501	0.0115175	0.00463884	-0.0173703	-0.45752	0.344971	0.973145	-0.201715	0.196113	0.959236	0.0267842	4.49347	-0.370337	-8.92215	1.49235	-1.07109	0.0967559	-0.863037	0.0422363	0.755615	0.0141226	0.104863	-0.993947	-0.0295555	0.111557	0.633424	-9.73076	0.00911494	-0.00219441	-0.00681923	-0.482178	-0.18042	1.15796	
39	0.950663	0.0960003	-0.272252	0.113588	5.52285	1.28774	9.13443	-0.00813818	0.0123233	0.0449273	-0.211426	-0.224121	-1.0166	0.706242	0.292943	-0.591343	0.256359	9.64741	0.959694	1.24973	0.00719303	0.00352824	-0.0231016	-0.862061	-0.34375	-0.380615	0.597883	0.568252	-0.222194	0.519861	8.79545	3.90767	2.90641	-0.0960314	-0.0236111	0.0161931	-0.93335	-0.756104	-0.233154	0.835696	0.248851	-0.392375	0.29279	7.91264	1.82343	5.48635	0.0156227	-0.0411279	0.0163529	-0.81665	-0.31665	-0.969971	0.767557	-0.304175	-0.53699	-0.173137	8.91788	-2.00768	2.41386	-0.147479	0.00971254	-0.0240682	-0.768066	0.497803	-0.55249	0.920134	0.0576356	-0.37254	0.106044	8.31442	-0.511149	8.8467	0.0230061	0.0247974	-0.0265784	-0.635742	-0.11792	-0.999023	0.416552	0.263242	-0.867456	0.0686177	7.35371	0.588762	-5.67912	0.0306682	-0.010897	-0.0216404	-0.996094	-0.267822	0.473877	-0.242657	-0.606157	0.756714	0.0327862	3.69621	2.23009	-7.33782	1.31899	-0.616533	0.1488	-0.825684	-0.222168	0.701172	-0.0721952	0.835253	-0.53888	0.0821477	0.451253	-2.26433	-8.88501	0.0115175	0.00463884	-0.0173703	-0.45752	0.344971	0.973145	-0.201715	0.196113	0.959236	0.0267842	4.49347	-0.370337	-8.92215	1.49235	-1.07109	0.0967559	-0.863037	0.0422363	0.755615	0.014092	0.104893	-0.993942	-0.0296241	0.0981599	0.631638	-9.71733	-0.00689955	0.00583628	-0.0054211	-0.475098	-0.187012	1.15576	
40	0.950655	0.0954361	-0.272131	0.11442	5.39183	0.993497	9.15019	-0.0228315	0.00976705	0.0634101	-0.213623	-0.224121	-1.021	0.706196	0.293027	-0.591317	0.25645	9.6483	0.952184	1.18734	0.00763776	0.0131881	-0.01904	-0.864502	-0.341553	-0.378418	0.59839	0.567558	-0.22278	0.519785	8.76044	3.09472	3.27777	-0.0801706	0.00723822	0.0107871	-0.931152	-0.758301	-0.235352	0.835696	0.248851	-0.392375	0.29279	7.91264	1.82343	5.48635	0.0156227	-0.0411279	0.0163529	-0.81665	-0.31665	-0.969971	0.766718	-0.304965	-0.537135	-0.175003	9.14074	-3.00241	2.17844	-0.149737	-0.00233803	-0.110513	-0.768066	0.497559	-0.54541	0.920362	0.0572289	-0.37188	0.106602	8.3046	-0.459843	8.9946	-0.0168545	0.0729757	0.0201201	-0.631348	-0.119873	-0.994629	0.415745	0.263678	-0.867726	0.0684251	7.35281	0.563661	-5.48639	0.00769872	-0.0308864	-0.0263059	-0.996094	-0.267822	0.478027	-0.242657	-0.606157	0.756714	0.0327862	3.69621	2.23009	-7.33782	1.31899	-0.616533	0.1488	-0.825684	-0.222168	0.701172	-0.0721952	0.835253	-0.53888	0.0821477	0.451253	-2.26433	-8.88501	0.0115175	0.00463884	-0.0173703	-0.45752	0.344971	0.973145	-0.201715	0.196113	0.959236	0.0267842	4.49347	-0.370337	-8.92215	1.49235	-1.07109	0.0967559	-0.863037	0.0422363	0.755615	0.0140416	0.104959	-0.993926	-0.0299563	0.10565	0.635248	-9.72386	-0.0226497	-0.00129195	-0.00731626	-0.481934	-0.187256	1.15356	
41	0.950551	0.0959919	-0.27193	0.115292	5.44653	1.07979	9.33978	0.0477867	-0.00673232	-0.00263661	-0.207031	-0.224121	-1.0188	0.705984	0.293081	-0.591578	0.256371	9.76568	1.12588	1.1305	-0.0119752	-0.00938572	-0.0215226	-0.866455	-0.34375	-0.383057	0.596551	0.568538	-0.222583	0.520911	8.92392	4.24782	2.86197	0.0478225	0.000617051	0.041275	-0.93335	-0.756104	-0.226318	0.835696	0.248851	-0.392375	0.29279	7.91264	1.82343	5.48635	0.0156227	-0.0411279	0.0163529	-0.81665	-0.31665	-0.969971	0.767757	-0.30097	-0.538355	-0.173609	9.15313	-2.44102	2.43489	0.190373	0.000313774	-0.051204	-0.772461	0.495361	-0.55249	0.920623	0.0571628	-0.370949	0.107623	8.17865	-0.532409	9.04996	-0.00691036	0.0467304	-0.00169111	-0.631348	-0.12207	-0.998779	0.41435	0.264266	-0.868199	0.0686157	7.40509	0.660027	-5.73603	0.0450395	-0.0474389	-0.0149256	-0.998535	-0.263428	0.480225	-0.242657	-0.606157	0.756714	0.0327862	3.69621	2.23009	-7.33782	1.31899	-0.616533	0.1488	-0.825684	-0.222168	0.701172	-0.0721952	0.835253	-0.53888	0.0821477	0.451253	-2.26433	-8.88501	0.0115175	0.00463884	-0.0173703	-0.45752	0.344971	0.973145	-0.201715	0.196113	0.959236	0.0267842	4.49347	-0.370337	-8.92215	1.49235	-1.07109	0.0967559	-0.863037	0.0422363	0.755615	0.0137787	0.105023	-0.993893	-0.0309486	0.0975714	0.658101	-9.72754	-0.0379536	-0.0109806	-0.00692987	-0.483887	-0.19165	1.1582	
42	0.950239	0.0972222	-0.272538	0.115397	5.60279	1.19364	9.34078	0.0519247	-0.0565542	-0.0256181	-0.215576	-0.226318	-1.021	0.705861	0.292987	-0.591886	0.256104	9.88384	1.02111	1.12789	-0.0134882	-0.0039494	-0.0196901	-0.862061	-0.345947	-0.383057	0.596704	0.567559	-0.223795	0.521284	8.99654	3.7172	3.2699	-0.0252798	-0.00646742	0.0474571	-0.93335	-0.756104	-0.228516	0.835696	0.248851	-0.392375	0.29279	7.91264	1.82343	5.48635	0.0156227	-0.0411279	0.0163529	-0.81665	-0.31665	-0.969971	0.766997	-0.301667	-0.538435	-0.175504	9.35038	-3.14363	2.28746	-0.103726	0.013189	-0.0618413	-0.774414	0.493408	-0.556885	0.920857	0.056634	-0.370164	0.108598	8.16637	-0.619881	9.1747	-0.0109249	0.0389619	0.0168883	-0.633545	-0.119873	-1.00098	0.413333	0.26467	-0.868557	0.0686641	7.4827	0.573974	-5.91107	0.0226546	-0.035652	-0.0171142	-0.998291	-0.27002	0.490967	-0.242657	-0.606157	0.756714	0.0327862	3.69621	2.23009	-7.33782	1.31899	-0.616533	0.1488	-0.825684	-0.222168	0.701172	-0.0721952	0.835253	-0.53888	0.0821477	0.451253	-2.26433	-8.88501	0.0115175	0.00463884	-0.0173703	-0.45752	0.344971	0.973145	-0.201715	0.196113	0.959236	0.0267842	4.49347	-0.370337	-8.92215	1.49235	-1.07109	0.0967559	-0.863037	0.0422363	0.755615	0.013565	0.105081	-0.993863	-0.0317848	0.067377	0.667279	-9.71145	-0.0272657	-0.00611308	-0.00761008	-0.477295	-0.189453	1.15576	
43	0.949773	0.0985198	-0.273734	0.115305	5.71078	1.47332	9.17741	0.0351036	-0.0647366	-0.0108265	-0.206787	-0.228516	-1.0166	0.705436	0.293152	-0.592406	0.255884	9.82708	1.04871	1.09639	-0.00382595	-0.0180164	-0.0212018	-0.864258	-0.348145	-0.375732	0.596926	0.567209	-0.22397	0.521335	8.75976	3.19715	3.1607	0.0223689	0.014036	0.011175	-0.937744	-0.753906	-0.230957	0.835696	0.248851	-0.392375	0.29279	7.91264	1.82343	5.48635	0.0156227	-0.0411279	0.0163529	-0.81665	-0.31665	-0.969971	0.76725	-0.300515	-0.538886	-0.174987	9.21738	-2.74827	2.31601	0.0789571	-0.00411971	-0.0291145	-0.779053	0.497559	-0.55249	0.920711	0.0570407	-0.370284	0.109214	8.26004	-0.559371	9.01827	0.0106165	0.00391639	-0.0132217	-0.631348	-0.119873	-0.994629	0.412999	0.265007	-0.868604	0.0687808	7.42087	0.644001	-5.79768	0.00994499	-0.00250423	-0.0161543	-0.996338	-0.263428	0.482178	-0.242657	-0.606157	0.756714	0.0327862	3.69621	2.23009	-7.33782	1.31899	-0.616533	0.1488	-0.825684	-0.222168	0.701172	-0.0721952	0.835253	-0.53888	0.0821477	0.451253	-2.26433	-8.88501	0.0115175	0.00463884	-0.0173703	-0.45752	0.344971	0.973145	-0.201715	0.196113	0.959236	0.0267842	4.49347	-0.370337	-8.92215	1.49235	-1.07109	0.0967559	-0.863037	0.0422363	0.755615	0.0135532	0.105129	-0.993851	-0.0319958	0.0744053	0.686105	-9.71726	-0.0138508	0.00270315	-0.00689719	-0.479492	-0.189453	1.15576	
44	0.949425	0.0985522	-0.274722	0.115791	5.63189	1.42349	9.10211	-0.0062371	-0.0515808	0.0209318	-0.215332	-0.23291	-1.0188	0.704955	0.293305	-0.59309	0.255451	9.66347	0.911379	1.14754	-0.00162209	-0.0306627	-0.0229415	-0.860107	-0.341553	-0.378418	0.59664	0.56692	-0.22463	0.521693	8.98055	4.10275	3.13334	-0.0869017	-0.00146678	0.0133875	-0.939941	-0.756104	-0.233154	0.835696	0.248851	-0.392375	0.29279	7.91264	1.82343	5.48635	0.0156227	-0.0411279	0.0163529	-0.81665	-0.31665	-0.969971	0.767565	-0.299062	-0.53935	-0.174665	9.15734	-2.59028	2.27913	0.0336286	0.00994479	-0.0386754	-0.774414	0.489014	-0.559326	0.92056	0.0566869	-0.370558	0.109741	8.18993	-0.599381	9.05042	-0.0117848	0.00290729	-0.00495921	-0.631348	-0.11792	-0.999023	0.41289	0.265384	-0.868551	0.068642	7.32454	0.504256	-5.63857	0.00764439	-0.00760808	-0.0263663	-0.996094	-0.27002	0.484619	-0.242657	-0.606157	0.756714	0.0327862	3.69621	2.23009	-7.33782	1.31899	-0.616533	0.1488	-0.825684	-0.222168	0.701172	-0.0721952	0.835253	-0.53888	0.0821477	0.451253	-2.26433	-8.88501	0.0115175	0.00463884	-0.0173703	-0.45752	0.344971	0.973145	-0.201715	0.196113	0.959236	0.0267842	4.49347	-0.370337	-8.92215	1.49235	-1.07109	0.0967559	-0.863037	0.0422363	0.755615	0.0137142	0.105211	-0.993845	-0.0318639	0.0982776	0.678516	-9.72613	0.0132592	0.00678095	-0.00591159	-0.479492	-0.189453	1.15356	
45	0.949217	0.0975982	-0.275348	0.116812	5.71615	1.13335	9.18893	-0.0272524	-0.025428	0.0467613	-0.217773	-0.230713	-1.0144	0.70449	0.29373	-0.593362	0.255612	9.77103	0.954907	1.1543	0.0345617	-0.0286689	-0.0155966	-0.862061	-0.348145	-0.378174	0.597671	0.565629	-0.225788	0.521415	8.79938	3.04874	3.20248	0.00539609	-0.0036582	0.0169262	-0.939941	-0.756104	-0.235352	0.835696	0.248851	-0.392375	0.29279	7.91264	1.82343	5.48635	0.0156227	-0.0411279	0.0163529	-0.81665	-0.31665	-0.969971	0.76728	-0.298554	-0.539781	-0.17545	9.14202	-2.69015	2.25647	0.0223026	-0.00197545	-0.0655437	-0.77417	0.484619	-0.559326	0.920592	0.0564807	-0.370282	0.110504	8.27281	-0.603259	9.00041	0.0133798	0.0327489	0.00731816	-0.631592	-0.115723	-1.00342	0.412574	0.266039	-0.868488	0.0688072	7.38475	0.532062	-5.7122	0.0225736	-0.00721616	-0.0244425	-0.993896	-0.269775	0.484619	-0.242657	-0.606157	0.756714	0.0327862	3.69621	2.23009	-7.33782	1.31899	-0.616533	0.1488	-0.825684	-0.222168	0.701172	-0.0721952	0.835253	-0.53888	0.0821477	0.451253	-2.26433	-8.88501	0.0115175	0.00463884	-0.0173703	-0.45752	0.344971	0.973145	-0.201715	0.196113	0.959236	0.0267842	4.49347	-0.370337	-8.92215	1.49235	-1.07109	0.0967559	-0.863037	0.0422363	0.755615	0.0135774	0.105281	-0.993838	-0.031893	0.0973166	0.681876	-9.71429	-0.00355076	-0.00417927	-0.00694001	-0.479492	-0.189453	1.1604	
46	0.948925	0.0971823	-0.276074	0.117811	5.77095	1.06672	9.13448	-0.00109426	-0.0334072	0.0319869	-0.218018	-0.224365	-1.0144	0.704023	0.294459	-0.593428	0.255908	9.84978	1.0647	1.10796	0.0065337	0.00011188	-0.0140934	-0.866211	-0.350342	-0.373291	0.596589	0.566669	-0.224776	0.521961	8.8698	4.07801	3.12921	0.0434448	0.00624914	-0.00707317	-0.935547	-0.753906	-0.22876	0.835696	0.248851	-0.392375	0.29279	7.91264	1.82343	5.48635	0.0156227	-0.0411279	0.0163529	-0.81665	-0.31665	-0.969971	0.767754	-0.296017	-0.540597	-0.175165	9.29541	-2.79875	2.34212	0.0854988	0.00643109	-0.0506129	-0.771973	0.482422	-0.561523	0.920705	0.0562467	-0.369681	0.111694	8.1173	-0.693506	9.13871	0.0103948	0.0268717	0.00820175	-0.635742	-0.115723	-0.999023	0.41176	0.266428	-0.868748	0.0689033	7.41002	0.580242	-5.89263	0.0308601	-0.0275691	-0.0129255	-0.996094	-0.27002	0.482422	-0.242657	-0.606157	0.756714	0.0327862	3.69621	2.23009	-7.33782	1.31899	-0.616533	0.1488	-0.825684	-0.222168	0.701172	-0.0721952	0.835253	-0.53888	0.0821477	0.451253	-2.26433	-8.88501	0.0115175	0.00463884	-0.0173703	-0.45752	0.344971	0.973145	-0.201715	0.196113	0.959236	0.0267842	4.49347	-0.370337	-8.92215	1.49235	-1.07109	0.0967559	-0.863037	0.0422363	0.755615	0.0133838	0.105339	-0.993819	-0.0323914	0.0773952	0.674766	-9.71769	-0.0199368	-0.000920605	-0.00606779	-0.479492	-0.19165	1.1582	
47	0.948712	0.0976702	-0.276467	0.118206	5.82153	1.09851	9.16159	0.0274404	-0.0311315	-0.00419567	-0.224609	-0.226562	-1.01465	0.703772	0.294266	-0.593859	0.255822	9.87896	1.11775	1.06871	-0.0160522	-0.00397132	-0.0118901	-0.868652	-0.345947	-0.373535	0.596979	0.566293	-0.224728	0.521944	8.9153	3.75237	3.22654	-0.0328185	0.0260468	-0.0152853	-0.937744	-0.751709	-0.237793	0.835696	0.248851	-0.392375	0.29279	7.91264	1.82343	5.48635	0.0156227	-0.0411279	0.0163529	-0.81665	-0.31665	-0.969971	0.767862	-0.295727	-0.540708	-0.174838	9.18112	-2.32687	2.37211	0.00297891	0.00177298	-0.00978143	-0.780518	0.480225	-0.561523	0.920668	0.0562064	-0.369747	0.111794	8.23027	-0.562144	9.05491	-0.00429982	0.00381681	-0.00976943	-0.631592	-0.111328	-0.99707	0.411423	0.266696	-0.868801	0.0692033	7.40946	0.609033	-5.78772	0.0417973	-0.0152559	-0.0153065	-0.991943	-0.267822	0.495117	-0.242657	-0.606157	0.756714	0.0327862	3.69621	2.23009	-7.33782	1.31899	-0.616533	0.1488	-0.825684	-0.222168	0.701172	-0.0721952	0.835253	-0.53888	0.0821477	0.451253	-2.26433	-8.88501	0.0115175	0.00463884	-0.0173703	-0.45752	0.344971	0.973145	-0.201715	0.196113	0.959236	0.0267842	4.49347	-0.370337	-8.92215	1.49235	-1.07109	0.0967559	-0.863037	0.0422363	0.755615	0.0134091	0.105366	-0.993804	-0.0327513	0.0711831	0.694099	-9.70989	-0.0260342	0.00428093	-0.00558957	-0.479492	-0.189453	1.1626	
48	0.948513	0.0989555	-0.276754	0.118059	5.88488	1.13296	9.13944	0.0572601	-0.0312596	-0.0411105	-0.224121	-0.233154	-1.0144	0.703799	0.293427	-0.594345	0.255579	9.93083	1.09274	0.983072	-0.0412068	0.0120452	0.00270851	-0.864014	-0.350342	-0.373291	0.597712	0.566046	-0.224369	0.521526	9.00042	4.01178	3.20796	-0.0178106	0.0111635	-0.0328726	-0.935547	-0.753906	-0.230957	0.835696	0.248851	-0.392375	0.29279	7.91264	1.82343	5.48635	0.0156227	-0.0411279	0.0163529	-0.81665	-0.31665	-0.969971	0.767848	-0.295516	-0.540872	-0.174751	9.25147	-2.72753	2.36909	0.0159961	-0.00170982	-0.0225062	-0.776123	0.480225	-0.566162	0.92069	0.0550085	-0.369823	0.111959	8.16425	-0.590795	9.11251	-0.0917562	0.0187865	0.0184985	-0.629395	-0.113525	-0.99707	0.410472	0.266736	-0.869227	0.0693395	7.41873	0.608589	-5.86226	0.0187478	-0.0276303	0.00232591	-0.985352	-0.267822	0.490967	-0.242657	-0.606157	0.756714	0.0327862	3.69621	2.23009	-7.33782	1.31899	-0.616533	0.1488	-0.825684	-0.222168	0.701172	-0.0721952	0.835253	-0.53888	0.0821477	0.451253	-2.26433	-8.88501	0.0115175	0.00463884	-0.0173703	-0.45752	0.344971	0.973145	-0.201715	0.196113	0.959236	0.0267842	4.49347	-0.370337	-8.92215	1.49235	-1.07109	0.0967559	-0.863037	0.0422363	0.755615	0.0135812	0.105446	-0.993794	-0.0327017	0.0780225	0.691175	-9.72166	0.0182707	0.011727	-0.00282093	-0.481934	-0.187256	1.1604	
49	0.948479	0.100036	-0.276823	0.117262	5.96111	1.38141	9.06201	0.0636708	-0.0334867	-0.0929672	-0.226318	-0.235352	-1.01221	0.704022	0.292763	-0.594458	0.255464	9.92438	1.0777	1.02304	-0.0543503	0.028826	0.00374141	-0.868652	-0.341553	-0.373779	0.598473	0.566555	-0.222276	0.520999	8.82489	3.311	3.10333	0.0535172	0.0371679	-0.0629266	-0.93335	-0.753906	-0.230957	0.835696	0.248851	-0.392375	0.29279	7.91264	1.82343	5.48635	0.0156227	-0.0411279	0.0163529	-0.81665	-0.31665	-0.969971	0.768085	-0.295989	-0.540792	-0.173147	9.3514	-2.69542	2.41797	-0.0115711	-0.0102916	0.0755372	-0.780518	0.482422	-0.561523	0.920308	0.0549032	-0.370837	0.111796	8.19369	-0.692625	9.12143	-0.00411896	-0.0494063	-0.0522911	-0.633545	-0.115723	-0.996826	0.409633	0.266793	-0.86958	0.0696626	7.39913	0.557188	-5.84777	0.0265448	-0.019413	-0.0002226	-0.989502	-0.269775	0.490967	-0.242657	-0.606157	0.756714	0.0327862	3.69621	2.23009	-7.33782	1.31899	-0.616533	0.1488	-0.825684	-0.222168	0.701172	-0.0721952	0.835253	-0.53888	0.0821477	0.451253	-2.26433	-8.88501	0.0115175	0.00463884	-0.0173703	-0.45752	0.344971	0.973145	-0.201715	0.196113	0.959236	0.0267842	4.49347	-0.370337	-8.92215	1.49235	-1.07109	0.0967559	-0.863037	0.0422363	0.755615	0.013648	0.105453	-0.993799	-0.0325018	0.0954475	0.692524	-9.70672	0.0174136	0.0122029	-0.00514574	-0.479736	-0.187256	1.15796	
50	0.948893	0.100712	-0.276218	0.114729	5.83828	1.59054	9.04639	-0.00145779	0.00912813	-0.112804	-0.217773	-0.230713	-1.0144	0.704287	0.291715	-0.5948	0.255136	9.6961	0.943872	1.12273	-0.0485653	0.0136578	-0.00664433	-0.866699	-0.341553	-0.371338	0.60116	0.564324	-0.223458	0.519818	8.8033	3.77816	3.16315	-0.148959	0.0162071	-0.0396755	-0.931152	-0.760498	-0.235352	0.835696	0.248851	-0.392375	0.29279	7.91264	1.82343	5.48635	0.0156227	-0.0411279	0.0163529	-0.81665	-0.31665	-0.969971	0.76805	-0.298435	-0.539841	-0.172065	9.09283	-2.80548	2.26651	-0.0496428	0.0145266	0.0763337	-0.774414	0.491211	-0.563721	0.919653	0.0552296	-0.372566	0.11128	8.14654	-0.708163	8.99246	-0.021208	-0.0665485	-0.0397361	-0.637939	-0.115723	-0.994873	0.409208	0.266829	-0.8697	0.0705163	7.28445	0.587551	-5.78317	0.0445016	-0.00485804	0.00366156	-0.98999	-0.26123	0.494873	-0.242657	-0.606157	0.756714	0.0327862	3.69621	2.23009	-7.33782	1.31899	-0.616533	0.1488	-0.825684	-0.222168	0.701172	-0.0721952	0.835253	-0.53888	0.0821477	0.451253	-2.26433	-8.88501	0.0115175	0.00463884	-0.0173703	-0.45752	0.344971	0.973145	-0.201715	0.196113	0.959236	0.0267842	4.49347	-0.370337	-8.92215	1.49235	-1.07109	0.0967559	-0.863037	0.0422363	0.755615	0.0137382	0.105452	-0.993804	-0.0323326	0.0903603	0.687637	-9.71702	0.00581441	0.0120456	-0.00341945	-0.477295	-0.189453	1.15576	
51	0.94941	0.0996745	-0.275607	0.112808	5.61022	1.32873	9.20154	-0.0566031	0.00593236	-0.0653637	-0.221924	-0.23291	-1.0166	0.704512	0.291132	-0.59469	0.255437	9.83806	0.834546	1.04055	-0.00631489	0.033367	0.00194045	-0.864502	-0.337158	-0.378662	0.604167	0.563217	-0.222322	0.518018	8.93383	3.59825	3.20258	0.0535144	0.0418596	-0.150485	-0.930908	-0.769287	-0.239746	0.835696	0.248851	-0.392375	0.29279	7.91264	1.82343	5.48635	0.0156227	-0.0411279	0.0163529	-0.81665	-0.31665	-0.969971	0.768296	-0.2994	-0.539374	-0.17075	9.07315	-2.80763	2.29693	0.00738764	-0.00044804	0.043022	-0.768066	0.495605	-0.559326	0.919121	0.0555824	-0.373869	0.111129	8.16208	-0.625696	8.95017	-0.0121002	-0.041283	-0.03144	-0.646729	-0.109131	-0.988525	0.409008	0.266924	-0.869753	0.0706572	7.33279	0.372141	-5.79337	0.00595696	-0.00619501	-0.0132114	-0.992188	-0.26123	0.49707	-0.242657	-0.606157	0.756714	0.0327862	3.69621	2.23009	-7.33782	1.31899	-0.616533	0.1488	-0.825684	-0.222168	0.701172	-0.0721952	0.835253	-0.53888	0.0821477	0.451253	-2.26433	-8.88501	0.0115175	0.00463884	-0.0173703	-0.45752	0.344971	0.973145	-0.201715	0.196113	0.959236	0.0267842	4.49347	-0.370337	-8.92215	1.49235	-1.07109	0.0967559	-0.863037	0.0422363	0.755615	0.0139231	0.105413	-0.993809	-0.0322013	0.0925752	0.705353	-9.72124	0.00537704	0.0126419	-0.00297398	-0.477295	-0.187012	1.15356	
52	0.94945	0.0990046	-0.275868	0.112427	5.69389	1.23399	9.21977	-0.0198546	-0.0226693	0.000980307	-0.217529	-0.235107	-1.00806	0.704968	0.290188	-0.594364	0.256013	9.84074	1.06424	1.19763	-0.0302721	0.0434958	0.00989641	-0.862305	-0.341553	-0.378418	0.604979	0.566011	-0.216851	0.51634	8.60306	3.9661	3.34932	0.123915	0.0371742	-0.19764	-0.916016	-0.771729	-0.241943	0.835696	0.248851	-0.392375	0.29279	7.91264	1.82343	5.48635	0.0156227	-0.0411279	0.0163529	-0.81665	-0.31665	-0.969971	0.768608	-0.300949	-0.538409	-0.169666	9.166	-2.58502	2.29074	-0.070027	0.0224404	0.0752324	-0.768066	0.497803	-0.554688	0.91845	0.0564958	-0.375386	0.111098	8.28674	-0.544244	8.93391	0.0204714	-0.0592339	-0.0440646	-0.637939	-0.113525	-0.990479	0.408682	0.267057	-0.869801	0.0714552	7.40848	0.558326	-5.94928	0.0405074	-0.000176416	0.00165228	-0.98999	-0.259033	0.49707	-0.242657	-0.606157	0.756714	0.0327862	3.69621	2.23009	-7.33782	1.31899	-0.616533	0.1488	-0.825684	-0.222168	0.701172	-0.0721952	0.835253	-0.53888	0.0821477	0.451253	-2.26433	-8.88501	0.0115175	0.00463884	-0.0173703	-0.45752	0.344971	0.973145	-0.201715	0.196113	0.959236	0.0267842	4.49347	-0.370337	-8.92215	1.49235	-1.07109	0.0967559	-0.863037	0.0422363	0.755615	0.0139452	0.105429	-0.993829	-0.0315289	0.0946455	0.679766	-9.68235	0.0382796	0.00940222	-0.0039833	-0.486572	-0.182861	1.15576	
53	0.949243	0.099029	-0.276163	0.113421	5.5856	1.32487	9.22431	0.0131425	-0.0288076	0.0379719	-0.221924	-0.23291	-1.0144	0.705369	0.289219	-0.594349	0.256041	9.80991	0.981179	1.12068	-0.0388759	0.0321251	-0.00149043	-0.862305	-0.339355	-0.376221	0.606912	0.565693	-0.215599	0.514943	8.81448	4.1517	3.42092	-0.0738604	0.045235	-0.202281	-0.913818	-0.776123	-0.246338	0.835696	0.248851	-0.392375	0.29279	7.91264	1.82343	5.48635	0.0156227	-0.0411279	0.0163529	-0.81665	-0.31665	-0.969971	0.768856	-0.303959	-0.536897	-0.167962	9.32352	-2.91165	2.35878	-0.0482113	0.0259994	0.148153	-0.759521	0.5	-0.554688	0.917576	0.0570773	-0.3777	0.110181	8.32643	-0.573787	9.02603	0.0278767	-0.10589	-0.0748408	-0.646729	-0.113525	-0.988281	0.408455	0.267098	-0.869854	0.0719509	7.35061	0.528566	-5.87451	0.0189415	-0.00524591	-0.00221661	-0.994141	-0.263428	0.49707	-0.242657	-0.606157	0.756714	0.0327862	3.69621	2.23009	-7.33782	1.31899	-0.616533	0.1488	-0.825684	-0.222168	0.701172	-0.0721952	0.835253	-0.53888	0.0821477	0.451253	-2.26433	-8.88501	0.0115175	0.00463884	-0.0173703	-0.45752	0.344971	0.973145	-0.201715	0.196113	0.959236	0.0267842	4.49347	-0.370337	-8.92215	1.49235	-1.07109	0.0967559	-0.863037	0.0422363	0.755615	0.0141154	0.10544	-0.993852	-0.0306924	0.0958365	0.657854	-9.74569	0.0309428	0.0154562	-0.00335518	-0.482178	-0.182861	1.15796	
54	0.948955	0.0985153	-0.276899	0.114483	5.68012	1.15012	9.04676	-0.0156191	-0.028673	0.0372187	-0.230957	-0.22876	-1.01025	0.705369	0.289219	-0.594349	0.256041	9.80991	0.981179	1.12068	-0.0388759	0.0321251	-0.00149043	-0.862305	-0.339355	-0.376221	0.60943	0.566029	-0.212665	0.512815	8.45936	3.58776	3.17975	0.081909	0.0144301	-0.0558095	-0.909424	-0.782715	-0.243896	0.835696	0.248851	-0.392375	0.29279	7.91264	1.82343	5.48635	0.0156227	-0.0411279	0.0163529	-0.81665	-0.31665	-0.969971	0.768866	-0.308038	-0.534874	-0.166935	8.95993	-2.84984	2.23	-0.128768	0.0238697	0.118065	-0.758057	0.515381	-0.554688	0.91675	0.0577964	-0.379916	0.109053	8.26073	-0.541548	8.84138	-0.0242327	-0.0750549	-0.0706632	-0.650879	-0.115723	-0.988281	0.408321	0.267153	-0.869855	0.0724895	7.30806	0.482258	-5.68329	0.0171067	-0.00412433	-0.00365613	-0.988037	-0.256836	0.494873	-0.242657	-0.606157	0.756714	0.0327862	3.69621	2.23009	-7.33782	1.31899	-0.616533	0.1488	-0.825684	-0.222168	0.701172	-0.0721952	0.835253	-0.53888	0.0821477	0.451253	-2.26433	-8.88501	0.0115175	0.00463884	-0.0173703	-0.45752	0.344971	0.973145	-0.201715	0.196113	0.959236	0.0267842	4.49347	-0.370337	-8.92215	1.49235	-1.07109	0.0967559	-0.863037	0.0422363	0.755615	0.0142202	0.105428	-0.993857	-0.0305227	0.120598	0.640415	-9.69805	0.000618085	0.00808808	-0.00383371	-0.484375	-0.182861	1.15796	
55	0.948902	0.0983037	-0.277118	0.11457	5.66499	1.2436	9.0042	-0.0124843	-0.0172386	-0.0103304	-0.226562	-0.230957	-1.00806	0.706476	0.287494	-0.594378	0.254861	9.62528	0.865129	1.18327	-0.0463625	0.012365	-0.0110058	-0.860352	-0.337158	-0.380859	0.61134	0.564002	-0.214035	0.512205	8.56254	3.36163	3.25371	-0.159384	0.00196087	0.0153369	-0.90918	-0.786865	-0.248291	0.835696	0.248851	-0.392375	0.29279	7.91264	1.82343	5.48635	0.0156227	-0.0411279	0.0163529	-0.81665	-0.31665	-0.969971	0.768987	-0.309792	-0.533864	-0.166364	9.21429	-2.93646	2.138	-0.0960589	0.0375733	0.121513	-0.755859	0.517578	-0.55249	0.916334	0.0581374	-0.381045	0.108425	8.32982	-0.274705	8.76428	-0.0250042	-0.0134953	-0.0456313	-0.650635	-0.11792	-0.981934	0.408	0.267231	-0.86996	0.0727472	7.22314	0.461823	-5.66021	0.0316471	-0.0150655	-0.00324102	-0.992188	-0.259033	0.494873	-0.242657	-0.606157	0.756714	0.0327862	3.69621	2.23009	-7.33782	1.31899	-0.616533	0.1488	-0.825684	-0.222168	0.701172	-0.0721952	0.835253	-0.53888	0.0821477	0.451253	-2.26433	-8.88501	0.0115175	0.00463884	-0.0173703	-0.45752	0.344971	0.973145	-0.201715	0.196113	0.959236	0.0267842	4.49347	-0.370337	-8.92215	1.49235	-1.07109	0.0967559	-0.863037	0.0422363	0.755615	0.014177	0.105418	-0.993849	-0.0308223	0.105778	0.652374	-9.72921	-0.0114911	0.00100642	-0.00574105	-0.477295	-0.187012	1.15356	
56	0.948984	0.0980416	-0.276972	0.114476	5.72258	1.22799	9.09935	-0.0221595	0.00527253	-0.0123443	-0.219971	-0.230713	-1.0144	0.706349	0.28735	-0.594592	0.254873	9.89587	0.887686	1.07467	0.00851328	0.0140709	-0.0154955	-0.862549	-0.334961	-0.381104	0.61137	0.563481	-0.214839	0.512407	8.63061	3.7101	3.32197	-0.0553743	-0.00654143	0.0501266	-0.913574	-0.782471	-0.246338	0.835696	0.248851	-0.392375	0.29279	7.91264	1.82343	5.48635	0.0156227	-0.0411279	0.0163529	-0.81665	-0.31665	-0.969971	0.768778	-0.311782	-0.532915	-0.166655	9.00351	-2.9971	2.17817	-0.0825649	0.0278284	0.00829623	-0.755859	0.517578	-0.55249	0.91625	0.0579408	-0.381229	0.108597	8.29998	-0.796884	8.79532	-0.0211625	-0.00228957	-0.0116476	-0.655029	-0.115723	-0.979736	0.407479	0.267458	-0.870104	0.0731166	7.29083	0.423216	-5.84247	0.0333839	-0.0151936	-0.00968655	-0.98999	-0.26123	0.49707	-0.242657	-0.606157	0.756714	0.0327862	3.69621	2.23009	-7.33782	1.31899	-0.616533	0.1488	-0.825684	-0.222168	0.701172	-0.0721952	0.835253	-0.53888	0.0821477	0.451253	-2.26433	-8.88501	0.0115175	0.00463884	-0.0173703	-0.45752	0.344971	0.973145	-0.201715	0.196113	0.959236	0.0267842	4.49347	-0.370337	-8.92215	1.49235	-1.07109	0.0967559	-0.863037	0.0422363	0.755615	0.0141584	0.105463	-0.993837	-0.0310735	0.118021	0.654308	-9.70228	-0.0170217	0.00200592	-0.00739455	-0.481934	-0.187256	1.1626	
57	0.949053	0.0973617	-0.276873	0.114723	5.73402	1.05086	9.20172	-0.0143676	-0.0105671	0.0165574	-0.219727	-0.23291	-1.01221	0.706147	0.287499	-0.594625	0.255189	9.91331	0.812812	1.04897	0.0239606	0.00688871	-0.00450005	-0.866699	-0.341553	-0.380859	0.612308	0.562471	-0.215631	0.512062	8.85216	4.27943	3.19201	-0.129657	0.0052966	-0.00682462	-0.907227	-0.784912	-0.248535	0.835696	0.248851	-0.392375	0.29279	7.91264	1.82343	5.48635	0.0156227	-0.0411279	0.0163529	-0.81665	-0.31665	-0.969971	0.768454	-0.310958	-0.533578	-0.167566	9.06047	-3.13876	2.14659	0.0327334	-0.0238074	-0.105582	-0.757812	0.513184	-0.55249	0.916762	0.0562777	-0.38009	0.109144	8.35148	-0.477375	8.82726	-0.154601	0.0888872	0.0219461	-0.653076	-0.111328	-0.988525	0.407203	0.267895	-0.870096	0.0731534	7.35435	0.393999	-5.96734	0.0108961	0.00490533	-0.028054	-0.996582	-0.259033	0.494873	-0.242657	-0.606157	0.756714	0.0327862	3.69621	2.23009	-7.33782	1.31899	-0.616533	0.1488	-0.825684	-0.222168	0.701172	-0.0721952	0.835253	-0.53888	0.0821477	0.451253	-2.26433	-8.88501	0.0115175	0.00463884	-0.0173703	-0.45752	0.344971	0.973145	-0.201715	0.196113	0.959236	0.0267842	4.49347	-0.370337	-8.92215	1.49235	-1.07109	0.0967559	-0.863037	0.0422363	0.755615	0.0140623	0.105499	-0.993824	-0.0314104	0.115293	0.661286	-9.71858	-0.00611259	0.00114186	-0.00495798	-0.479736	-0.184814	1.15796	
58	0.948709	0.0980834	-0.277241	0.116051	5.8072	1.10307	9.09468	0.0577541	-0.0320602	0.0459352	-0.224121	-0.233154	-1.0144	0.705618	0.287913	-0.594652	0.25612	9.83606	0.952222	1.16171	0.0346699	-0.00242017	0.000306507	-0.864502	-0.337158	-0.376221	0.615609	0.560402	-0.216816	0.509868	8.75687	4.25607	3.28516	-0.102279	0.0126579	-0.101173	-0.905029	-0.780518	-0.255371	0.835696	0.248851	-0.392375	0.29279	7.91264	1.82343	5.48635	0.0156227	-0.0411279	0.0163529	-0.81665	-0.31665	-0.969971	0.768706	-0.309537	-0.534207	-0.167037	9.28017	-3.28829	2.52033	0.0295255	0.00568297	-0.00944214	-0.758057	0.519775	-0.554688	0.916777	0.0551103	-0.380242	0.109085	8.23316	-0.625469	9.00572	-0.00425373	-0.0219332	-0.0407452	-0.65332	-0.109131	-0.986328	0.407421	0.268375	-0.869815	0.073524	7.35518	0.526364	-5.89761	0.0268697	0.0198372	-0.0229683	-0.994385	-0.26123	0.494873	-0.242657	-0.606157	0.756714	0.0327862	3.69621	2.23009	-7.33782	1.31899	-0.616533	0.1488	-0.825684	-0.222168	0.701172	-0.0721952	0.835253	-0.53888	0.0821477	0.451253	-2.26433	-8.88501	0.0115175	0.00463884	-0.0173703	-0.45752	0.344971	0.973145	-0.201715	0.196113	0.959236	0.0267842	4.49347	-0.370337	-8.92215	1.49235	-1.07109	0.0967559	-0.863037	0.0422363	0.755615	0.0139873	0.105552	-0.993821	-0.0313527	0.0923402	0.661318	-9.71511	0.0088825	0.00430369	-0.00668429	-0.475098	-0.187012	1.1626	
59	0.94842	0.0991468	-0.276992	0.118088	5.8376	1.17718	9.06531	0.0630478	0.0149646	0.0522934	-0.230713	-0.237549	-1.01025	0.705089	0.288335	-0.594914	0.256494	9.80674	0.918254	1.07713	0.0155902	-0.00584109	-0.0149531	-0.862549	-0.334961	-0.374023	0.616379	0.560532	-0.216122	0.509089	8.6433	3.71057	3.08196	-0.0126281	0.00923032	-0.107633	-0.900635	-0.787109	-0.250732	0.835696	0.248851	-0.392375	0.29279	7.91264	1.82343	5.48635	0.0156227	-0.0411279	0.0163529	-0.81665	-0.31665	-0.969971	0.768701	-0.30979	-0.534071	-0.167024	9.08341	-2.86601	2.29369	-0.00128395	0.00336614	-0.0218988	-0.762207	0.513184	-0.547852	0.916367	0.0561099	-0.381131	0.108914	8.42175	-0.441128	8.7766	0.00884958	-0.0190007	-0.0406132	-0.650879	-0.113525	-0.984131	0.407576	0.268752	-0.86961	0.0737074	7.31743	0.590151	-5.7824	4.27826e-05	0.0153517	-0.0249264	-0.989746	-0.263428	0.499268	-0.242657	-0.606157	0.756714	0.0327862	3.69621	2.23009	-7.33782	1.31899	-0.616533	0.1488	-0.825684	-0.222168	0.701172	-0.0721952	0.835253	-0.53888	0.0821477	0.451253	-2.26433	-8.88501	0.0115175	0.00463884	-0.0173703	-0.45752	0.344971	0.973145	-0.201715	0.196113	0.959236	0.0267842	4.49347	-0.370337	-8.92215	1.49235	-1.07109	0.0967559	-0.863037	0.0422363	0.755615	0.0139432	0.105598	-0.993824	-0.0311227	0.0989265	0.648335	-9.71078	0.0089623	0.00496492	-0.00497912	-0.481689	-0.19165	1.1604	
60	0.948446	0.100272	-0.276234	0.118698	5.62519	1.38516	9.20445	0.0457752	0.00896974	-0.0184738	-0.224121	-0.235352	-1.01221	0.704856	0.288459	-0.595264	0.256184	9.82793	0.985847	1.01642	-0.0133288	-0.0127796	-0.0283302	-0.864746	-0.334961	-0.371582	0.616809	0.560463	-0.215978	0.508705	8.79423	3.99409	3.27429	-0.0362757	-0.00691695	0.01099	-0.907227	-0.782715	-0.26001	0.835696	0.248851	-0.392375	0.29279	7.91264	1.82343	5.48635	0.0156227	-0.0411279	0.0163529	-0.81665	-0.31665	-0.969971	0.769301	-0.308858	-0.534055	-0.166037	9.12497	-2.74187	2.36751	0.0343207	0.0198922	0.0184178	-0.760254	0.515381	-0.550049	0.916063	0.0567081	-0.381768	0.108928	8.34526	-0.565904	8.8438	0.0237147	-0.0222386	-0.0471554	-0.655273	-0.111328	-0.97998	0.408097	0.268903	-0.869344	0.0734076	7.29626	0.469239	-5.89276	-0.0093701	0.0242214	-0.0226663	-0.992188	-0.259033	0.499268	-0.242657	-0.606157	0.756714	0.0327862	3.69621	2.23009	-7.33782	1.31899	-0.616533	0.1488	-0.825684	-0.222168	0.701172	-0.0721952	0.835253	-0.53888	0.0821477	0.451253	-2.26433	-8.88501	0.0115175	0.00463884	-0.0173703	-0.45752	0.344971	0.973145	-0.201715	0.196113	0.959236	0.0267842	4.49347	-0.370337	-8.92215	1.49235	-1.07109	0.0967559	-0.863037	0.0422363	0.755615	0.0138797	0.10558	-0.993821	-0.0313163	0.114699	0.662306	-9.72366	-0.00747376	0.000329087	-0.00261397	-0.486328	-0.189453	1.1604	
61	0.948422	0.1003	-0.276453	0.118359	5.77181	1.23917	9.13278	-0.00682567	-0.023767	-0.0251279	-0.224121	-0.235352	-1.01025	0.704634	0.289067	-0.595093	0.256508	9.81366	0.913436	1.04408	0.0225253	0.0144819	-0.0279597	-0.866699	-0.339355	-0.378418	0.616271	0.560887	-0.215779	0.508975	8.68551	3.89054	3.31369	0.0294237	-0.00165403	0.00687377	-0.90918	-0.789062	-0.255127	0.835696	0.248851	-0.392375	0.29279	7.91264	1.82343	5.48635	0.0156227	-0.0411279	0.0163529	-0.81665	-0.31665	-0.969971	0.768946	-0.310122	-0.533606	-0.166766	9.09853	-3.08029	2.23904	-0.0482343	0.0160768	-0.00982344	-0.762451	0.517578	-0.55249	0.915865	0.0572601	-0.382105	0.109125	8.38247	-0.572476	8.78559	0.0268942	-0.00514917	-0.0231125	-0.653076	-0.113525	-0.981934	0.408653	0.268926	-0.869069	0.0734891	7.33261	0.552309	-5.74909	0.000587491	0.0547248	-0.0182751	-0.98999	-0.26123	0.490723	-0.242657	-0.606157	0.756714	0.0327862	3.69621	2.23009	-7.33782	1.31899	-0.616533	0.1488	-0.825684	-0.222168	0.701172	-0.0721952	0.835253	-0.53888	0.0821477	0.451253	-2.26433	-8.88501	0.0115175	0.00463884	-0.0173703	-0.45752	0.344971	0.973145	-0.201715	0.196113	0.959236	0.0267842	4.49347	-0.370337	-8.92215	1.49235	-1.07109	0.0967559	-0.863037	0.0422363	0.755615	0.0138064	0.105604	-0.993814	-0.0314726	0.100538	0.659579	-9.7387	0.00425212	0.00215976	-0.00650341	-0.479736	-0.182617	1.15112	
62	0.94829	0.100651	-0.276787	0.118336	5.82899	1.29405	9.15171	0.0151936	-0.0277224	0.000230312	-0.230713	-0.233154	-1.01245	0.704303	0.289686	-0.594879	0.257211	9.91632	1.04527	0.988067	0.0278816	0.0195397	-0.00716234	-0.862305	-0.337158	-0.373779	0.616984	0.56093	-0.215198	0.508309	8.86629	4.57593	3.32799	-0.0173097	0.0112764	-0.0932076	-0.902832	-0.789307	-0.257568	0.835696	0.248851	-0.392375	0.29279	7.91264	1.82343	5.48635	0.0156227	-0.0411279	0.0163529	-0.81665	-0.31665	-0.969971	0.76973	-0.308439	-0.533874	-0.165407	9.51382	-3.38292	2.28715	0.119024	0.0161648	0.0175722	-0.76001	0.513184	-0.556885	0.915582	0.056967	-0.382829	0.109115	8.38849	-0.662538	8.96808	-0.0198625	-0.0409132	-0.0367585	-0.657227	-0.115723	-0.984131	0.412568	0.268915	-0.86717	0.0740867	7.46388	0.549261	-5.92454	0.0117829	0.189996	-0.019992	-0.996338	-0.26123	0.47998	-0.242657	-0.606157	0.756714	0.0327862	3.69621	2.23009	-7.33782	1.31899	-0.616533	0.1488	-0.825684	-0.222168	0.701172	-0.0721952	0.835253	-0.53888	0.0821477	0.451253	-2.26433	-8.88501	0.0115175	0.00463884	-0.0173703	-0.45752	0.344971	0.973145	-0.201715	0.196113	0.959236	0.0267842	4.49347	-0.370337	-8.92215	1.49235	-1.07109	0.0967559	-0.863037	0.0422363	0.755615	0.0137681	0.105603	-0.993823	-0.0311981	0.112261	0.659384	-9.70032	0.0138228	0.00504191	-0.00545501	-0.484131	-0.189453	1.15576	
63	0.948145	0.101227	-0.277021	0.11846	5.80813	1.32388	9.06177	0.045656	-0.0351553	-0.00877552	-0.228516	-0.235352	-1.01221	0.704297	0.2896	-0.594959	0.257138	9.7865	1.1014	1.05083	-0.0138842	0.00974082	-0.0180099	-0.866455	-0.34375	-0.375977	0.616984	0.56093	-0.215198	0.508309	8.86629	4.57593	3.32799	-0.0173097	0.0112764	-0.0932076	-0.902832	-0.789307	-0.257568	0.835696	0.248851	-0.392375	0.29279	7.91264	1.82343	5.48635	0.0156227	-0.0411279	0.0163529	-0.81665	-0.31665	-0.969971	0.770313	-0.308565	-0.533409	-0.163953	9.13352	-2.91365	2.47738	0.0602987	0.0240922	0.0992635	-0.753662	0.515381	-0.559326	0.915119	0.05784	-0.383885	0.108834	8.32985	-0.591583	8.84385	0.0361338	-0.0894596	-0.072078	-0.657227	-0.115723	-0.979736	0.415264	0.268696	-0.865919	0.07445	7.38718	0.553848	-5.59384	-0.0281805	0.242	-0.0256063	-1.00073	-0.26123	0.478027	-0.242657	-0.606157	0.756714	0.0327862	3.69621	2.23009	-7.33782	1.31899	-0.616533	0.1488	-0.825684	-0.222168	0.701172	-0.0721952	0.835253	-0.53888	0.0821477	0.451253	-2.26433	-8.88501	0.0115175	0.00463884	-0.0173703	-0.45752	0.344971	0.973145	-0.201715	0.196113	0.959236	0.0267842	4.49347	-0.370337	-8.92215	1.49235	-1.07109	0.0967559	-0.863037	0.0422363	0.755615	0.0138022	0.105616	-0.993824	-0.0311368	0.104231	0.657551	-9.71046	0.00749962	0.0078986	-0.00452017	-0.483887	-0.19165	1.15356	
64	0.947888	0.101583	-0.277326	0.119496	5.80712	1.34687	9.05688	0.0025428	-0.0148341	0.0150812	-0.223877	-0.237305	-1.01001	0.704637	0.289221	-0.594813	0.256972	9.78834	0.961978	1.14638	-0.0150198	0.0336176	-0.0180174	-0.866699	-0.341553	-0.375977	0.620271	0.560171	-0.213788	0.505734	8.65675	4.39942	3.36645	-0.136996	0.0240907	-0.131065	-0.89624	-0.793701	-0.259766	0.835696	0.248851	-0.392375	0.29279	7.91264	1.82343	5.48635	0.0156227	-0.0411279	0.0163529	-0.81665	-0.31665	-0.969971	0.770332	-0.30981	-0.532793	-0.163519	8.98838	-2.87084	2.45087	-0.068247	0.0195004	0.0802639	-0.755859	0.515381	-0.559326	0.914101	0.0590615	-0.386385	0.107878	8.39197	-0.588188	8.84616	0.0194322	-0.121746	-0.0780166	-0.666016	-0.113525	-0.977539	0.418877	0.268337	-0.86425	0.0748907	7.45432	0.616506	-5.57018	-0.00202559	0.117393	-0.0175936	-1.00488	-0.265625	0.47168	-0.242657	-0.606157	0.756714	0.0327862	3.69621	2.23009	-7.33782	1.31899	-0.616533	0.1488	-0.825684	-0.222168	0.701172	-0.0721952	0.835253	-0.53888	0.0821477	0.451253	-2.26433	-8.88501	0.0115175	0.00463884	-0.0173703	-0.45752	0.344971	0.973145	-0.201715	0.196113	0.959236	0.0267842	4.49347	-0.370337	-8.92215	1.49235	-1.07109	0.0967559	-0.863037	0.0422363	0.755615	0.0138084	0.105659	-0.993821	-0.0310612	0.10993	0.661685	-9.72208	0.0045329	0.00428884	-0.00494221	-0.484375	-0.185059	1.15796	
65	0.947933	0.101492	-0.277145	0.119634	5.86861	1.38021	9.11094	-0.00311	0.00588212	0.00370851	-0.228271	-0.239746	-1.01221	0.704806	0.288966	-0.594789	0.256852	9.78484	0.997935	1.07243	-0.0277761	0.0261115	-0.0182014	-0.864502	-0.337158	-0.373779	0.620271	0.560171	-0.213788	0.505734	8.65675	4.39942	3.36645	-0.136996	0.0240907	-0.131065	-0.89624	-0.793701	-0.259766	0.835696	0.248851	-0.392375	0.29279	7.91264	1.82343	5.48635	0.0156227	-0.0411279	0.0163529	-0.81665	-0.31665	-0.969971	0.772016	-0.311753	-0.530382	-0.159677	9.01137	-2.85749	2.47686	0.0338337	0.0320906	0.118208	-0.745361	0.526367	-0.561523	0.912946	0.0611278	-0.389248	0.106203	8.42919	-0.445286	8.67212	0.0347543	-0.130076	-0.0979873	-0.667725	-0.12207	-0.975342	0.420421	0.268532	-0.863394	0.0754147	7.51508	0.565736	-5.64317	0.0269562	0.0848575	-0.0194669	-1.00049	-0.265625	0.469482	-0.242657	-0.606157	0.756714	0.0327862	3.69621	2.23009	-7.33782	1.31899	-0.616533	0.1488	-0.825684	-0.222168	0.701172	-0.0738475	0.84256	-0.525956	0.0894909	0.454946	-2.28896	-8.87517	0.00654724	0.00427457	-0.0175652	-0.45752	0.342773	0.975342	-0.201715	0.196113	0.959236	0.0267842	4.49347	-0.370337	-8.92215	1.49235	-1.07109	0.0967559	-0.863037	0.0422363	0.755615	0.0137915	0.10567	-0.993805	-0.0315381	0.110636	0.653155	-9.72228	-0.0186199	0.00324296	-0.00476118	-0.479736	-0.185059	1.15576	
66	0.948057	0.101275	-0.276837	0.11955	5.62925	1.29556	9.14569	-0.00481417	-0.0101011	-0.0193888	-0.230225	-0.244141	-1.00586	0.705007	0.288702	-0.59477	0.256643	9.76304	0.987258	1.08354	-0.0217497	0.0227434	-0.0247056	-0.864746	-0.334961	-0.374023	0.622801	0.560003	-0.211874	0.503613	8.62409	3.96931	3.36715	-0.0266378	0.0172483	-0.0983605	-0.891846	-0.795898	-0.261963	0.835696	0.248851	-0.392375	0.29279	7.91264	1.82343	5.48635	0.0156227	-0.0411279	0.0163529	-0.81665	-0.31665	-0.969971	0.773784	-0.312856	-0.528545	-0.154983	9.19472	-4.14909	2.27023	0.139988	0.0376992	0.230492	-0.743408	0.532959	-0.561523	0.910959	0.0633649	-0.394087	0.104085	8.33858	-0.561888	8.80263	0.0680702	-0.253608	-0.156579	-0.682617	-0.126465	-0.962158	0.422517	0.268365	-0.862388	0.0758019	7.50843	0.696507	-5.69149	-0.0112945	0.101206	-0.0119644	-1.00684	-0.27002	0.467529	-0.242657	-0.606157	0.756714	0.0327862	3.69621	2.23009	-7.33782	1.31899	-0.616533	0.1488	-0.825684	-0.222168	0.701172	-0.0738475	0.84256	-0.525956	0.0894909	0.454946	-2.28896	-8.87517	0.00654724	0.00427457	-0.0175652	-0.45752	0.342773	0.975342	-0.201715	0.196113	0.959236	0.0267842	4.49347	-0.370337	-8.92215	1.49235	-1.07109	0.0967559	-0.863037	0.0422363	0.755615	0.0138496	0.10561	-0.993814	-0.0314415	0.0944857	0.661449	-9.71342	0.0139097	0.0134477	-0.00172811	-0.484375	-0.182861	1.15332	
67	0.947992	0.101389	-0.27731	0.118873	5.79281	1.297	9.0663	-0.0067089	-0.0315327	-0.0353203	-0.226074	-0.239502	-1.01221	0.705177	0.288517	-0.594753	0.256421	9.81016	1.13092	1.06587	-0.029094	0.0224774	-0.0278706	-0.860352	-0.337158	-0.378662	0.622801	0.560003	-0.211874	0.503613	8.62409	3.96931	3.36715	-0.0266378	0.0172483	-0.0983605	-0.891846	-0.795898	-0.261963	0.835696	0.248851	-0.392375	0.29279	7.91264	1.82343	5.48635	0.0156227	-0.0411279	0.0163529	-0.81665	-0.31665	-0.969971	0.778068	-0.311693	-0.525698	-0.145254	9.04169	-3.3511	2.61186	0.276507	0.0682235	0.331109	-0.730225	0.531006	-0.570557	0.907507	0.0705425	-0.401413	0.101599	8.652	-0.232901	8.50364	0.244479	-0.364526	-0.208398	-0.695068	-0.139404	-0.946777	0.424198	0.268128	-0.861582	0.0764154	7.60197	0.586877	-5.66604	-0.0073875	0.083793	-0.00610082	-1.00293	-0.259033	0.456543	-0.242657	-0.606157	0.756714	0.0327862	3.69621	2.23009	-7.33782	1.31899	-0.616533	0.1488	-0.825684	-0.222168	0.701172	-0.0738475	0.84256	-0.525956	0.0894909	0.454946	-2.28896	-8.87517	0.00654724	0.00427457	-0.0175652	-0.45752	0.342773	0.975342	-0.201715	0.196113	0.959236	0.0267842	4.49347	-0.370337	-8.92215	1.49235	-1.07109	0.0967559	-0.863037	0.0422363	0.755615	0.0140965	0.105634	-0.993817	-0.0311598	0.11645	0.660579	-9.69852	0.00882891	0.014706	-0.0041677	-0.477295	-0.187012	1.16479	
68	0.948096	0.101479	-0.277185	0.118255	5.73571	1.35725	9.06714	-0.0061432	0.00186409	-0.0294576	-0.228516	-0.237549	-1.01025	0.706036	0.287591	-0.594494	0.255697	9.75682	0.928262	1.15605	-0.0352152	0.0217398	-0.0143168	-0.866699	-0.337158	-0.380859	0.629	0.556954	-0.211113	0.499592	8.59519	4.14077	3.36458	-0.116642	0.0218416	-0.1095	-0.887451	-0.804688	-0.273193	0.835696	0.248851	-0.392375	0.29279	7.91264	1.82343	5.48635	0.0156227	-0.0411279	0.0163529	-0.81665	-0.31665	-0.969971	0.780194	-0.314819	-0.522309	-0.13921	8.89591	-3.19728	2.34364	-0.0314929	0.0621343	0.282729	-0.722168	0.546387	-0.575195	0.904407	0.0751757	-0.408123	0.0991548	8.70573	-0.321203	8.34627	0.0701434	-0.294417	-0.156338	-0.707275	-0.154785	-0.942139	0.425564	0.267836	-0.86097	0.076748	7.5766	0.508171	-5.46365	0.0106501	0.0611058	-0.00295004	-1.00952	-0.26123	0.452393	-0.242657	-0.606157	0.756714	0.0327862	3.69621	2.23009	-7.33782	1.31899	-0.616533	0.1488	-0.825684	-0.222168	0.701172	-0.0738475	0.84256	-0.525956	0.0894909	0.454946	-2.28896	-8.87517	0.00654724	0.00427457	-0.0175652	-0.45752	0.342773	0.975342	-0.201715	0.196113	0.959236	0.0267842	4.49347	-0.370337	-8.92215	1.49235	-1.07109	0.0967559	-0.863037	0.0422363	0.755615	0.0142662	0.105559	-0.993834	-0.0307794	0.11836	0.647754	-9.70414	0.0246396	0.0128593	0.00019715	-0.486572	-0.180664	1.15576	
69	0.948142	0.101221	-0.277264	0.117919	5.64753	1.42671	9.07079	-0.0244552	-0.0176844	-0.00679503	-0.223877	-0.237549	-1.00806	0.706207	0.287066	-0.594738	0.255248	9.66681	0.856491	1.19896	-0.0257024	0.0102837	-0.0206923	-0.864502	-0.337158	-0.380859	0.630535	0.556079	-0.21082	0.498755	8.53128	3.71888	3.39947	-0.0572342	0.0199851	-0.0537605	-0.887451	-0.806885	-0.272949	0.835696	0.248851	-0.392375	0.29279	7.91264	1.82343	5.48635	0.0156227	-0.0411279	0.0163529	-0.81665	-0.31665	-0.969971	0.781686	-0.318273	-0.519062	-0.135068	8.76381	-2.99741	2.40031	-0.0221896	0.0653156	0.24301	-0.709473	0.552979	-0.568359	0.902017	0.0795355	-0.412874	0.0978541	8.84425	0.0283781	7.97633	0.0815167	-0.184149	-0.103914	-0.717773	-0.16333	-0.933105	0.426637	0.267863	-0.860367	0.0774535	7.52478	0.508793	-5.58578	0.0195567	0.0643919	-0.00928241	-1.01147	-0.263428	0.443848	-0.242657	-0.606157	0.756714	0.0327862	3.69621	2.23009	-7.33782	1.31899	-0.616533	0.1488	-0.825684	-0.222168	0.701172	-0.0738475	0.84256	-0.525956	0.0894909	0.454946	-2.28896	-8.87517	0.00654724	0.00427457	-0.0175652	-0.45752	0.342773	0.975342	-0.201715	0.196113	0.959236	0.0267842	4.49347	-0.370337	-8.92215	1.49235	-1.07109	0.0967559	-0.863037	0.0422363	0.755615	0.0142607	0.105521	-0.993848	-0.0304501	0.11125	0.642049	-9.71454	0.0282858	0.00692763	-0.00246499	-0.484375	-0.180664	1.15332	
70	0.94813	0.100117	-0.27747	0.118475	5.65554	1.09993	9.16729	-0.0320463	-0.0122839	0.0361967	-0.226318	-0.235352	-1.01221	0.705674	0.287477	-0.595098	0.255419	9.83123	0.82873	1.04487	0.0264533	-0.014285	-0.01083	-0.866699	-0.337158	-0.380859	0.632579	0.5539	-0.212258	0.497981	8.55853	4.1984	3.50527	-0.135767	0.00825593	-0.0129904	-0.876709	-0.804688	-0.277588	0.817346	0.227718	-0.437054	0.29845	8.2055	1.50411	5.22251	-0.0281711	-0.0433725	0.03477	-0.907715	-0.227783	-0.914307	0.781369	-0.319115	-0.518915	-0.135479	8.82903	-3.46781	2.20765	-0.0202753	-0.0175098	-0.0556962	-0.716309	0.55957	-0.575195	0.901823	0.0796344	-0.413099	0.0986092	8.82561	-0.173027	8.07411	-0.0401601	0.0404298	0.0217313	-0.71582	-0.156738	-0.931152	0.427288	0.268151	-0.859916	0.0778751	7.58271	0.39899	-5.49775	0.0205898	0.0369789	-0.0226892	-1.01343	-0.267822	0.450439	-0.242657	-0.606157	0.756714	0.0327862	3.69621	2.23009	-7.33782	1.31899	-0.616533	0.1488	-0.825684	-0.222168	0.701172	-0.0739049	0.843493	-0.524276	0.0905142	0.457885	-2.30382	-8.86315	0.00321295	0.00504166	-0.0161218	-0.455322	0.347412	0.973145	-0.201715	0.196113	0.959236	0.0267842	4.49347	-0.370337	-8.92215	1.49235	-1.07109	0.0967559	-0.863037	0.0422363	0.755615	0.0143153	0.105577	-0.99387	-0.0295282	0.109356	0.629859	-9.72034	0.0375444	0.00863774	-0.00432022	-0.484375	-0.180664	1.16016	
71	0.947973	0.100119	-0.277797	0.118962	5.69453	1.11442	9.1456	0.00839561	-0.0348065	0.0346579	-0.228516	-0.237549	-1.00806	0.705491	0.28754	-0.595234	0.255539	9.80082	1.08638	1.12065	0.00741729	-0.000497727	-0.0089958	-0.862305	-0.339355	-0.378418	0.632567	0.554503	-0.211009	0.497856	8.53106	3.57566	3.42512	0.0393961	0.0177693	-0.0382036	-0.876709	-0.806885	-0.279785	0.817346	0.227718	-0.437054	0.29845	8.2055	1.50411	5.22251	-0.0281711	-0.0433725	0.03477	-0.907715	-0.227783	-0.914307	0.781549	-0.317785	-0.519459	-0.135482	8.80922	-3.16428	2.47928	0.0892371	-0.00323333	-0.0824811	-0.716064	0.555176	-0.572998	0.902161	0.0795373	-0.412121	0.0996771	8.81403	-0.0383898	8.04437	0.0198745	0.0975258	0.0366673	-0.713379	-0.161133	-0.931152	0.427643	0.268375	-0.859614	0.0784867	7.60276	0.507422	-5.53513	0.0472625	0.0508333	-0.012526	-1.00708	-0.263428	0.452393	-0.242657	-0.606157	0.756714	0.0327862	3.69621	2.23009	-7.33782	1.31899	-0.616533	0.1488	-0.825684	-0.222168	0.701172	-0.0739049	0.843493	-0.524276	0.0905142	0.457885	-2.30382	-8.86315	0.00321295	0.00504166	-0.0161218	-0.455322	0.347412	0.973145	-0.201715	0.196113	0.959236	0.0267842	4.49347	-0.370337	-8.92215	1.49235	-1.07109	0.0967559	-0.863037	0.0422363	0.755615	0.0144037	0.105667	-0.993884	-0.0286569	0.114984	0.615766	-9.72715	0.0354862	0.0098541	-0.00546835	-0.480225	-0.176025	1.16016	
72	0.947565	0.100889	-0.278388	0.120173	5.80483	1.03427	9.07404	0.0551145	-0.0310397	0.0255018	-0.235107	-0.235352	-1.00806	0.705131	0.287119	-0.59594	0.255361	9.829	0.993903	1.09506	-0.0175606	-0.00873266	-0.0142671	-0.862305	-0.337158	-0.380859	0.632567	0.554503	-0.211009	0.497856	8.53106	3.57566	3.42512	0.0393961	0.0177693	-0.0382036	-0.876709	-0.806885	-0.279785	0.817346	0.227718	-0.437054	0.29845	8.2055	1.50411	5.22251	-0.0281711	-0.0433725	0.03477	-0.907715	-0.227783	-0.914307	0.781026	-0.317183	-0.520377	-0.136384	8.86498	-3.56641	2.65736	-0.0068702	-0.040877	-0.125327	-0.71167	0.552979	-0.572998	0.902709	0.0777462	-0.410983	0.100821	8.55238	-0.369897	8.53309	-0.00865413	0.0198272	0.00957119	-0.713867	-0.150391	-0.933594	0.428417	0.268508	-0.859109	0.0793286	7.5956	0.598926	-5.49525	0.0207997	0.0478431	-0.010284	-1.01123	-0.269775	0.439697	-0.242657	-0.606157	0.756714	0.0327862	3.69621	2.23009	-7.33782	1.31899	-0.616533	0.1488	-0.825684	-0.222168	0.701172	-0.0739049	0.843493	-0.524276	0.0905142	0.457885	-2.30382	-8.86315	0.00321295	0.00504166	-0.0161218	-0.455322	0.347412	0.973145	-0.201715	0.196113	0.959236	0.0267842	4.49347	-0.370337	-8.92215	1.49235	-1.07109	0.0967559	-0.863037	0.0422363	0.755615	0.0143316	0.105666	-0.99388	-0.0288341	0.126654	0.61038	-9.71161	-0.0127273	0.000109576	-0.00493874	-0.484131	-0.187256	1.15796	
73	0.947161	0.102762	-0.278766	0.120896	5.90903	1.34278	9.02097	0.0681868	-0.0326241	0.00493401	-0.234863	-0.241943	-1.00806	0.705032	0.287064	-0.596153	0.255198	9.768	0.930479	1.14917	-0.015591	-0.00491769	-0.018826	-0.858154	-0.337158	-0.376221	0.631918	0.554512	-0.210796	0.498759	8.5298	4.21197	3.44277	0.0133832	0.0103088	0.0141759	-0.876709	-0.806885	-0.282227	0.817337	0.229303	-0.435206	0.29996	8.3799	1.25861	4.94459	0.0305566	0.016396	0.0182051	-0.900879	-0.234375	-0.907471	0.780793	-0.318443	-0.520103	-0.135829	8.82362	-2.97015	2.47948	-0.0293081	-0.00306935	0.00826311	-0.716064	0.555176	-0.572998	0.902264	0.0788495	-0.411653	0.101211	8.82936	0.0990939	8.04194	-0.0005727	-0.00377839	-0.0219195	-0.713623	-0.154541	-0.93335	0.429667	0.268329	-0.858496	0.0798085	7.67761	0.622343	-5.51482	-0.00139621	0.0589284	-0.0106742	-1.01562	-0.267822	0.441895	-0.242657	-0.606157	0.756714	0.0327862	3.69621	2.23009	-7.33782	1.31899	-0.616533	0.1488	-0.825684	-0.222168	0.701172	-0.0739049	0.843493	-0.524276	0.0905142	0.457885	-2.30382	-8.86315	0.00321295	0.00504166	-0.0161218	-0.455322	0.347412	0.973145	-0.201715	0.196113	0.959236	0.0267842	4.49347	-0.370337	-8.92215	1.49235	-1.07109	0.0967559	-0.863037	0.0422363	0.755615	0.0143356	0.105719	-0.993858	-0.0293902	0.11324	0.618864	-9.69764	-0.0181439	0.00349945	-0.00558705	-0.477539	-0.184814	1.1626	
74	0.946999	0.103925	-0.278652	0.121428	5.75909	1.35164	9.02582	0.0457937	-0.00817703	-0.00238834	-0.241211	-0.244141	-1.01025	0.704707	0.287513	-0.596366	0.255092	9.77697	0.981808	1.14503	0.00903432	-0.00926712	-0.0274894	-0.864258	-0.34375	-0.373535	0.631294	0.554694	-0.2107	0.499387	8.5249	4.07551	3.49676	0.00979687	0.00769403	0.0148192	-0.878906	-0.804688	-0.284424	0.817337	0.229303	-0.435206	0.29996	8.3799	1.25861	4.94459	0.0305566	0.016396	0.0182051	-0.900879	-0.234375	-0.907471	0.780881	-0.317295	-0.520651	-0.135908	8.86359	-3.47352	2.39996	0.0330593	0.00551469	-0.0442245	-0.713867	0.555176	-0.577393	0.902383	0.0781403	-0.411212	0.102487	8.71183	-0.21787	8.25104	0.00562142	0.0344061	0.0105808	-0.718262	-0.148193	-0.931396	0.430546	0.268333	-0.858062	0.0797362	7.62283	0.504727	-5.52	-0.00389815	0.0393026	-0.0155286	-1.01147	-0.265625	0.439697	-0.242657	-0.606157	0.756714	0.0327862	3.69621	2.23009	-7.33782	1.31899	-0.616533	0.1488	-0.825684	-0.222168	0.701172	-0.0739049	0.843493	-0.524276	0.0905142	0.457885	-2.30382	-8.86315	0.00321295	0.00504166	-0.0161218	-0.455322	0.347412	0.973145	-0.201715	0.196113	0.959236	0.0267842	4.49347	-0.370337	-8.92215	1.49235	-1.07109	0.0967559	-0.863037	0.0422363	0.755615	0.0143052	0.105702	-0.993858	-0.0294901	0.114813	0.630432	-9.72558	0.00698156	0.00501431	-0.00271442	-0.482178	-0.18042	1.15796	
75	0.946751	0.104869	-0.278971	0.121823	5.74387	1.47809	9.0685	0.0327981	-0.0348939	0.00770075	-0.236816	-0.248535	-1.00586	0.704492	0.287753	-0.596622	0.254816	9.78664	0.859637	0.999968	-0.00387415	0.000653878	-0.0289821	-0.868896	-0.337158	-0.369141	0.631294	0.554694	-0.2107	0.499387	8.5249	4.07551	3.49676	0.00979687	0.00769403	0.0148192	-0.878906	-0.804688	-0.284424	0.817965	0.230816	-0.432572	0.300896	8.443	1.10073	4.90571	0.046043	0.0463547	-0.0128321	-0.89624	-0.234375	-0.907471	0.780322	-0.318101	-0.520815	-0.136609	8.86557	-3.45057	2.44706	-0.0430091	0.00268871	-0.0417364	-0.71582	0.552979	-0.577393	0.902483	0.0781978	-0.410718	0.103544	8.79464	-0.0620716	8.18349	0.0273695	0.039448	0.00665957	-0.71582	-0.154785	-0.935547	0.431162	0.268539	-0.857655	0.0800892	7.61399	0.527197	-5.49025	0.0102535	0.0393001	-0.0162613	-1.01587	-0.263428	0.441895	-0.242657	-0.606157	0.756714	0.0327862	3.69621	2.23009	-7.33782	1.31899	-0.616533	0.1488	-0.825684	-0.222168	0.701172	-0.0739049	0.843493	-0.524276	0.0905142	0.457885	-2.30382	-8.86315	0.00321295	0.00504166	-0.0161218	-0.455322	0.347412	0.973145	-0.201715	0.196113	0.959236	0.0267842	4.49347	-0.370337	-8.92215	1.49235	-1.07109	0.0967559	-0.863037	0.0422363	0.755615	0.0143468	0.105676	-0.99387	-0.0291392	0.11918	0.625271	-9.70912	0.0298242	0.0116588	-0.00240345	-0.481934	-0.187256	1.15576	
76	0.946488	0.10528	-0.279277	0.122807	5.90011	1.32111	9.07508	0.0304658	-0.0101068	0.0304575	-0.236816	-0.244141	-1.00806	0.70382	0.288685	-0.596817	0.255163	9.99915	0.904443	1.02083	0.0441203	-0.00229554	-0.0197763	-0.868652	-0.341553	-0.378418	0.631294	0.554694	-0.2107	0.499387	8.5249	4.07551	3.49676	0.00979687	0.00769403	0.0148192	-0.878906	-0.804688	-0.284424	0.818482	0.231151	-0.431419	0.30089	8.40161	1.29095	5.02429	0.0209365	0.0477209	-0.0212705	-0.900635	-0.236572	-0.91626	0.779945	-0.316537	-0.522022	-0.137783	8.96351	-3.7415	2.46415	0.0283388	-0.0205749	-0.0991012	-0.718018	0.548584	-0.575195	0.903245	0.0767631	-0.408909	0.105114	8.68689	-0.332575	8.34347	-0.0485688	0.0994937	0.0393335	-0.705322	-0.148193	-0.940186	0.431797	0.268734	-0.85726	0.0802396	7.73465	0.440123	-5.43823	0.0159816	0.0253711	-0.0245022	-1.01562	-0.267822	0.441895	-0.242657	-0.606157	0.756714	0.0327862	3.69621	2.23009	-7.33782	1.31899	-0.616533	0.1488	-0.825684	-0.222168	0.701172	-0.0739049	0.843493	-0.524276	0.0905142	0.457885	-2.30382	-8.86315	0.00321295	0.00504166	-0.0161218	-0.455322	0.347412	0.973145	-0.201715	0.196113	0.959236	0.0267842	4.49347	-0.370337	-8.92215	1.49235	-1.07109	0.0967559	-0.863037	0.0422363	0.755615	0.0145494	0.105777	-0.993898	-0.0276876	0.12395	0.589952	-9.71605	0.0318264	0.00890194	-0.00512848	-0.486816	-0.178467	1.15796	
77	0.946182	0.105756	-0.279752	0.123671	5.93343	1.58054	8.87169	0.010345	-0.0304664	0.0280641	-0.239014	-0.248535	-1.00146	0.703915	0.288776	-0.596568	0.255382	9.72281	0.952967	1.16295	-0.0117194	0.0333062	-0.0169588	-0.871094	-0.339355	-0.376221	0.631294	0.554694	-0.2107	0.499387	8.5249	4.07551	3.49676	0.00979687	0.00769403	0.0148192	-0.878906	-0.804688	-0.284424	0.818482	0.231151	-0.431419	0.30089	8.40161	1.29095	5.02429	0.0209365	0.0477209	-0.0212705	-0.900635	-0.236572	-0.91626	0.779905	-0.316067	-0.522358	-0.137814	8.95629	-3.6321	2.56053	0.0244607	-0.00769113	-0.0458667	-0.718018	0.548584	-0.577393	0.903575	0.0770372	-0.407754	0.106557	8.71464	-0.1501	8.22938	0.00553922	0.059601	0.00258315	-0.705322	-0.148193	-0.940186	0.432122	0.26894	-0.856977	0.080818	7.59882	0.61933	-5.50738	0.0319118	0.0142199	-0.00617405	-1.01367	-0.265625	0.431152	-0.242657	-0.606157	0.756714	0.0327862	3.69621	2.23009	-7.33782	1.31899	-0.616533	0.1488	-0.825684	-0.222168	0.701172	-0.0739049	0.843493	-0.524276	0.0905142	0.457885	-2.30382	-8.86315	0.00321295	0.00504166	-0.0161218	-0.455322	0.347412	0.973145	-0.201715	0.196113	0.959236	0.0267842	4.49347	-0.370337	-8.92215	1.49235	-1.07109	0.0967559	-0.863037	0.0422363	0.755615	0.0144039	0.105749	-0.993908	-0.0275185	0.110563	0.576141	-9.7318	0.00542929	0.00113237	-0.00309306	-0.480225	-0.173828	1.16235	
78	0.946355	0.104911	-0.27935	0.123976	5.9477	1.29481	8.98275	-0.0263537	0.0284594	-0.00259104	-0.239014	-0.244141	-1.00366	0.704034	0.288674	-0.596456	0.25543	9.8175	0.89576	1.05557	0.00207818	0.0229718	-0.0180466	-0.866699	-0.341553	-0.373779	0.631294	0.554694	-0.2107	0.499387	8.5249	4.07551	3.49676	0.00979687	0.00769403	0.0148192	-0.878906	-0.804688	-0.284424	0.818482	0.231151	-0.431419	0.30089	8.40161	1.29095	5.02429	0.0209365	0.0477209	-0.0212705	-0.900635	-0.236572	-0.91626	0.778933	-0.316546	-0.522784	-0.140569	8.842	-3.61879	2.41234	-0.0413973	-0.00331075	-0.0876551	-0.718018	0.550781	-0.568359	0.904316	0.0756623	-0.406017	0.107881	8.64759	-0.261536	8.28944	-0.0316229	0.0986316	0.0281241	-0.705566	-0.143799	-0.942383	0.431503	0.269249	-0.85718	0.0809449	7.67888	0.502754	-5.40299	0.0160785	-0.0264878	-0.0118227	-1.01367	-0.265625	0.435547	-0.242657	-0.606157	0.756714	0.0327862	3.69621	2.23009	-7.33782	1.31899	-0.616533	0.1488	-0.825684	-0.222168	0.701172	-0.0759795	0.84472	-0.521592	0.0928246	0.457851	-2.31341	-8.86926	0.0153591	0.00335705	-0.0166947	-0.448486	0.347412	0.970947	-0.201715	0.196113	0.959236	0.0267842	4.49347	-0.370337	-8.92215	1.49235	-1.07109	0.0967559	-0.863037	0.0422363	0.755615	0.0143931	0.105784	-0.9939	-0.0276517	0.110042	0.582803	-9.71983	-0.00575876	0.00423787	-0.0073272	-0.478027	-0.173828	1.15552	
79	0.946719	0.104304	-0.278486	0.123647	5.85678	1.29568	9.0332	-0.0226212	0.0239953	-0.0213373	-0.234863	-0.241943	-1.00586	0.704391	0.288207	-0.596297	0.255342	9.87636	0.901303	1.04724	-0.031693	0.031866	-0.0169678	-0.864502	-0.339355	-0.376221	0.631294	0.554694	-0.2107	0.499387	8.5249	4.07551	3.49676	0.00979687	0.00769403	0.0148192	-0.878906	-0.804688	-0.284424	0.820109	0.233307	-0.427157	0.300876	8.37378	1.23677	5.01139	0.0430392	0.0586448	-0.0380442	-0.891357	-0.247314	-0.92041	0.778894	-0.316581	-0.52266	-0.14116	8.90801	-3.28149	2.46853	-0.0471638	0.0274807	-0.0122154	-0.71582	0.550781	-0.568359	0.904756	0.0757412	-0.40469	0.109117	8.67149	-0.250313	8.34692	0.0287563	0.0593362	-0.00815149	-0.69873	-0.150391	-0.939941	0.431144	0.269266	-0.857367	0.0808275	7.69186	0.52743	-5.45214	0.00188386	-0.0296648	-0.00817853	-1.01147	-0.263428	0.443848	-0.242657	-0.606157	0.756714	0.0327862	3.69621	2.23009	-7.33782	1.31899	-0.616533	0.1488	-0.825684	-0.222168	0.701172	-0.0759795	0.84472	-0.521592	0.0928246	0.457851	-2.31341	-8.86926	0.0153591	0.00335705	-0.0166947	-0.448486	0.347412	0.970947	-0.201715	0.196113	0.959236	0.0267842	4.49347	-0.370337	-8.92215	1.49235	-1.07109	0.0967559	-0.863037	0.0422363	0.755615	0.0141351	0.105787	-0.993893	-0.0280297	0.110854	0.59485	-9.73104	-0.0137785	-0.00790854	-0.00590908	-0.478027	-0.171631	1.15771	
80	0.946894	0.104044	-0.27804	0.123537	5.8602	1.32338	9.01944	-0.0199071	0.0300846	-0.0141492	-0.234619	-0.246338	-1.00366	0.704766	0.287945	-0.59593	0.255462	9.79596	0.976662	1.05172	-0.00972534	0.0459363	-0.0175168	-0.868896	-0.337158	-0.378662	0.631294	0.554694	-0.2107	0.499387	8.5249	4.07551	3.49676	0.00979687	0.00769403	0.0148192	-0.878906	-0.804688	-0.284424	0.820109	0.233307	-0.427157	0.300876	8.37378	1.23677	5.01139	0.0430392	0.0586448	-0.0380442	-0.891357	-0.247314	-0.92041	0.778314	-0.317405	-0.522674	-0.142452	8.73021	-3.12597	2.52073	-0.127307	0.00754149	-0.0690469	-0.722168	0.546387	-0.568359	0.905123	0.0753313	-0.403797	0.109665	8.66223	-0.0945462	8.21928	-0.0223981	0.0924437	0.0068731	-0.701172	-0.143799	-0.946533	0.430266	0.269588	-0.8577	0.0809008	7.63845	0.549759	-5.45791	0.0163266	-0.0427976	-0.012741	-1.01343	-0.265625	0.446045	-0.242657	-0.606157	0.756714	0.0327862	3.69621	2.23009	-7.33782	1.31899	-0.616533	0.1488	-0.825684	-0.222168	0.701172	-0.0759795	0.84472	-0.521592	0.0928246	0.457851	-2.31341	-8.86926	0.0153591	0.00335705	-0.0166947	-0.448486	0.347412	0.970947	-0.201715	0.196113	0.959236	0.0267842	4.49347	-0.370337	-8.92215	1.49235	-1.07109	0.0967559	-0.863037	0.0422363	0.755615	0.0140027	0.105774	-0.993887	-0.0283456	0.10893	0.599247	-9.73079	-0.0222346	-0.00719257	-0.00581949	-0.477783	-0.176025	1.16016	
81	0.947208	0.103774	-0.276898	0.123918	5.72962	1.2274	9.04421	0.00951414	0.0352339	0.00711204	-0.232422	-0.244141	-1.00586	0.704861	0.287929	-0.595825	0.255463	9.82918	0.986445	1.04076	-0.00414889	0.0254954	-0.0231583	-0.868896	-0.339355	-0.376221	0.626476	0.556966	-0.210278	0.503091	8.57152	4.10363	3.48094	0.0341	0.00122822	0.0264316	-0.878906	-0.800537	-0.26416	0.820293	0.234863	-0.425937	0.300892	8.29669	1.51992	5.28652	0.0160225	-0.0310334	0.00441395	-0.888916	-0.251709	-0.922607	0.778263	-0.316921	-0.522902	-0.142974	8.95083	-3.78744	2.47313	0.0533125	0.0210038	-0.0168183	-0.726562	0.544189	-0.568359	0.90544	0.0747055	-0.402937	0.110633	8.55242	-0.324893	8.47537	0.0148375	0.0274426	-0.0138852	-0.699219	-0.139404	-0.94458	0.428897	0.269994	-0.858286	0.0805991	7.59334	0.551835	-5.51839	0.00569536	-0.0578137	-0.0221729	-1.00952	-0.26123	0.443848	-0.242657	-0.606157	0.756714	0.0327862	3.69621	2.23009	-7.33782	1.31899	-0.616533	0.1488	-0.825684	-0.222168	0.701172	-0.0755295	0.845215	-0.520827	0.0929816	0.451053	-2.31276	-8.85958	-0.0081474	0.00568677	-0.0191256	-0.453125	0.347412	0.970947	-0.201715	0.196113	0.959236	0.0267842	4.49347	-0.370337	-8.92215	1.49235	-1.07109	0.0967559	-0.863037	0.0422363	0.755615	0.0139676	0.105784	-0.993872	-0.0288459	0.108265	0.609093	-9.73019	-0.0111651	0.0048324	-0.00490971	-0.479736	-0.182617	1.16016	
82	0.94728	0.104362	-0.276026	0.124815	5.81053	1.42306	9.06229	0.0343519	0.0311738	0.0226821	-0.230225	-0.244141	-1.00366	0.704823	0.287847	-0.595907	0.255466	9.78477	1.0644	1.14055	-0.0139927	0.0130287	-0.0154066	-0.868652	-0.341553	-0.378418	0.626299	0.557764	-0.208923	0.502991	8.58726	3.98098	3.39879	0.0502883	0.0150971	-0.0384873	-0.887451	-0.804688	-0.263916	0.820249	0.235257	-0.42585	0.300827	8.43052	1.19435	4.90226	0.0504	0.0343547	-0.0203326	-0.886719	-0.249512	-0.918213	0.777725	-0.318481	-0.522395	-0.144283	9.09815	-3.32521	2.46246	-0.141539	0.0255015	-0.025078	-0.71582	0.548584	-0.563721	0.905478	0.0748387	-0.402607	0.111425	8.72609	-0.134973	8.38204	-0.003895	0.0241406	-0.00182968	-0.703369	-0.145996	-0.944336	0.427907	0.270511	-0.858591	0.0808749	7.62066	0.626843	-5.53485	0.043705	-0.0147243	-0.0117336	-1.01343	-0.265625	0.450439	-0.242657	-0.606157	0.756714	0.0327862	3.69621	2.23009	-7.33782	1.31899	-0.616533	0.1488	-0.825684	-0.222168	0.701172	-0.0755295	0.845215	-0.520827	0.0929816	0.451053	-2.31276	-8.85958	-0.0081474	0.00568677	-0.0191256	-0.453125	0.347412	0.970947	-0.201715	0.196113	0.959236	0.0267842	4.49347	-0.370337	-8.92215	1.49235	-1.07109	0.0967559	-0.863037	0.0422363	0.755615	0.0138263	0.105806	-0.99387	-0.0289133	0.111227	0.610392	-9.71332	0.00600509	-0.00392902	-0.00484493	-0.484375	-0.182861	1.16016	
83	0.947519	0.104597	-0.274845	0.125411	5.62488	1.44214	9.07499	0.0147398	0.0369151	0.00181544	-0.232666	-0.239746	-1.00586	0.705152	0.287385	-0.595833	0.255252	9.74197	0.899566	1.1194	-0.0160492	0.0311887	-0.0154084	-0.860352	-0.334961	-0.381104	0.625345	0.557866	-0.209195	0.503952	8.63078	4.04366	3.40027	-0.0692363	0.00997004	0.0132134	-0.889648	-0.806885	-0.261719	0.820467	0.235717	-0.425182	0.300818	8.3116	1.4181	5.06679	0.0438469	0.0503682	-0.0310613	-0.888672	-0.256104	-0.92041	0.777077	-0.320169	-0.521904	-0.145805	8.81121	-3.22296	2.36336	-0.119503	0.0187742	-0.0334371	-0.722656	0.555176	-0.568359	0.905794	0.073695	-0.401882	0.112236	8.60924	-0.341243	8.33233	-0.0441058	0.0556633	0.0096514	-0.701416	-0.139404	-0.948975	0.426775	0.270768	-0.859113	0.0804578	7.53728	0.532565	-5.49187	-0.00694401	-0.0613195	-0.015166	-1.00928	-0.265625	0.456787	-0.242657	-0.606157	0.756714	0.0327862	3.69621	2.23009	-7.33782	1.31899	-0.616533	0.1488	-0.825684	-0.222168	0.701172	-0.0757251	0.845427	-0.520402	0.0932786	0.481612	-2.32119	-8.85407	0.00265844	0.0052073	-0.0189542	-0.457764	0.347168	0.977539	-0.201715	0.196113	0.959236	0.0267842	4.49347	-0.370337	-8.92215	1.49235	-1.07109	0.0967559	-0.863037	0.0422363	0.755615	0.0136963	0.105836	-0.993869	-0.0289148	0.0888156	0.602188	-9.72207	-7.83631e-05	0.00298951	-0.00510999	-0.475342	-0.184814	1.15796	
84	0.947669	0.10448	-0.274364	0.125424	5.63407	1.4058	9.18856	-0.00536824	0.00522182	-0.00965438	-0.232422	-0.244141	-1.00146	0.70516	0.287115	-0.596055	0.255015	9.80421	0.991968	1.00652	-0.0232482	0.00244619	-0.0190453	-0.864502	-0.337158	-0.376221	0.624732	0.558261	-0.208923	0.504387	8.55476	3.66605	3.43791	0.0647692	0.00884213	0.0220532	-0.885498	-0.795898	-0.26416	0.820995	0.235898	-0.42416	0.300677	8.35714	1.31962	5.02805	0.011802	0.0441711	-0.0221402	-0.886719	-0.251709	-0.922607	0.776495	-0.320652	-0.522081	-0.147207	8.96013	-3.8336	2.45387	-0.00146168	0.00831727	-0.0510527	-0.720459	0.555176	-0.559326	0.906268	0.072143	-0.400806	0.113259	8.54538	-0.255261	8.49315	-0.0543344	0.0605081	0.0165218	-0.699463	-0.137451	-0.953369	0.425482	0.271196	-0.859614	0.0805072	7.57086	0.527357	-5.50409	0.0217642	-0.0426273	-0.0148384	-1.00684	-0.269775	0.454834	-0.242657	-0.606157	0.756714	0.0327862	3.69621	2.23009	-7.33782	1.31899	-0.616533	0.1488	-0.825684	-0.222168	0.701172	-0.0757251	0.845427	-0.520402	0.0932786	0.481612	-2.32119	-8.85407	0.00265844	0.0052073	-0.0189542	-0.457764	0.347168	0.977539	-0.201715	0.196113	0.959236	0.0267842	4.49347	-0.370337	-8.92215	1.49235	-1.07109	0.0967559	-0.863037	0.0422363	0.755615	0.0137031	0.105832	-0.993871	-0.0288549	0.0989633	0.614486	-9.72835	0.00760535	0.00588044	-0.00330042	-0.484619	-0.17627	1.15332	
85	0.947583	0.104057	-0.274768	0.125541	5.74098	1.38643	9.17343	-0.0214168	-0.0302064	0.0131601	-0.234619	-0.244141	-1.00366	0.70508	0.287041	-0.596177	0.255034	9.88348	0.966748	1.09114	0.00436965	0.0107744	-0.0129357	-0.866699	-0.337158	-0.376221	0.624804	0.558123	-0.208634	0.504569	8.6053	3.71736	3.42546	-0.0695435	0.0252675	-0.0350529	-0.885254	-0.804688	-0.266357	0.820993	0.23561	-0.424246	0.30079	8.32624	1.39147	5.11811	-0.00504111	0.00460529	0.00734456	-0.895752	-0.247314	-0.922607	0.776223	-0.321959	-0.52159	-0.147525	8.88397	-3.1429	2.45748	-0.117085	0.0109795	0.00150146	-0.724854	0.557373	-0.561523	0.906187	0.0725822	-0.400719	0.113931	8.70066	-0.207146	8.32201	0.0154148	0.0136013	-0.0278445	-0.695068	-0.137207	-0.944824	0.424206	0.271705	-0.860063	0.0807259	7.60045	0.597442	-5.66733	0.0372277	-0.0392891	-0.0100276	-1.00928	-0.265625	0.458984	-0.242657	-0.606157	0.756714	0.0327862	3.69621	2.23009	-7.33782	1.31899	-0.616533	0.1488	-0.825684	-0.222168	0.701172	-0.0757251	0.845427	-0.520402	0.0932786	0.481612	-2.32119	-8.85407	0.00265844	0.0052073	-0.0189542	-0.457764	0.347168	0.977539	-0.201715	0.196113	0.959236	0.0267842	4.49347	-0.370337	-8.92215	1.49235	-1.07109	0.0967559	-0.863037	0.0422363	0.755615	0.0136856	0.105818	-0.993878	-0.0286716	0.107496	0.617447	-9.70653	0.0169525	0.00483418	-0.00460912	-0.482422	-0.176025	1.15796	
86	0.947441	0.103692	-0.275226	0.125912	5.73407	1.30456	9.05162	-0.00920344	-0.0211597	0.0167153	-0.230225	-0.246338	-1.00366	0.704882	0.287108	-0.596399	0.254988	9.79681	0.94225	1.10292	-0.000289981	0.00710658	-0.0191115	-0.864746	-0.332764	-0.371582	0.624029	0.558783	-0.208288	0.504941	8.60006	4.30197	3.42304	0.0369406	-0.00476106	0.00182221	-0.885254	-0.804688	-0.261719	0.820973	0.236185	-0.423792	0.301033	8.33104	1.25752	4.9994	0.0296236	0.0152052	-0.00424943	-0.884277	-0.253906	-0.931396	0.776043	-0.321566	-0.521868	-0.148345	8.938	-3.52947	2.34606	0.0392736	0.00966436	-0.0617799	-0.724854	0.557129	-0.556885	0.906444	0.0717392	-0.399983	0.115006	8.60654	-0.346282	8.44252	-0.0159558	0.0505314	0.0154199	-0.690918	-0.135254	-0.951172	0.423688	0.271918	-0.860252	0.0807229	7.59667	0.546919	-5.6403	0.0197738	-0.039178	-0.0165684	-1.00513	-0.259033	0.460938	-0.242657	-0.606157	0.756714	0.0327862	3.69621	2.23009	-7.33782	1.31899	-0.616533	0.1488	-0.825684	-0.222168	0.701172	-0.0757251	0.845427	-0.520402	0.0932786	0.481612	-2.32119	-8.85407	0.00265844	0.0052073	-0.0189542	-0.457764	0.347168	0.977539	-0.201715	0.196113	0.959236	0.0267842	4.49347	-0.370337	-8.92215	1.49235	-1.07109	0.0967559	-0.863037	0.0422363	0.755615	0.0135852	0.10592	-0.993879	-0.0283146	0.106593	0.59423	-9.72435	0.00200995	5.42342e-05	-0.00579863	-0.480225	-0.173828	1.15796	
