40	Head	00b4120a												Throax	00b411e8												LUpArm	00b411d9												LFoArm	00b41148												RUpArm	00b411db												RFoArm	00b41204												Waist	00b411f7												Lthigh	00b411f4												Lshank	00b4111b												Rthigh	00b411c8												Rshank	00b411ee												
PacketCount	q0	q1	q2	q3	accX	accY	accZ	gyrX	gyrY	gyrZ	magX	magY	magZ	q0	q1	q2	q3	accX	accY	accZ	gyrX	gyrY	gyrZ	magX	magY	magZ	q0	q1	q2	q3	accX	accY	accZ	gyrX	gyrY	gyrZ	magX	magY	magZ	q0	q1	q2	q3	accX	accY	accZ	gyrX	gyrY	gyrZ	magX	magY	magZ	q0	q1	q2	q3	accX	accY	accZ	gyrX	gyrY	gyrZ	magX	magY	magZ	q0	q1	q2	q3	accX	accY	accZ	gyrX	gyrY	gyrZ	magX	magY	magZ	q0	q1	q2	q3	accX	accY	accZ	gyrX	gyrY	gyrZ	magX	magY	magZ	q0	q1	q2	q3	accX	accY	accZ	gyrX	gyrY	gyrZ	magX	magY	magZ	q0	q1	q2	q3	accX	accY	accZ	gyrX	gyrY	gyrZ	magX	magY	magZ	q0	q1	q2	q3	accX	accY	accZ	gyrX	gyrY	gyrZ	magX	magY	magZ	q0	q1	q2	q3	accX	accY	accZ	gyrX	gyrY	gyrZ	magX	magY	magZ	
0	-0.709608	0.619268	-0.128422	0.310599	2.25849	-9.45481	1.96807	-0.00864974	-0.036633	-0.026794	0.186035	0.983154	0.107178	0.0486472	-0.48801	0.367125	-0.790379	7.16926	-6.07418	2.5847	0.0255437	0.00437001	-0.0557482	-0.399658	0.748779	0.116211	0.321816	-0.0118722	0.766074	-0.556258	-4.63641	-8.02787	-2.06634	-0.0193515	0.00480383	-0.00587361	0.0168457	0.840576	0.345215	-0.043569	0.0533745	0.50161	-0.862346	-0.344498	-8.7455	4.97715	-0.00778914	-0.0358625	0.0159131	-0.316162	0.860596	-0.547852	-0.111218	-0.136913	-0.364424	0.914374	-3.46541	-5.81932	6.74509	-0.0368596	-0.0386178	0.00127643	-0.0432129	0.68335	-0.705078	0.452375	0.162146	0.693679	-0.53654	-7.14781	-5.4762	0.0919088	0.0178067	-0.0554585	-0.0441449	0.424316	0.752686	0.460205	-0.51077	0.646041	0.377632	0.423249	8.91004	-3.36409	-1.33973	0.0253655	0.0449675	-0.0819021	-0.690918	0.693848	0.171875	0.24226	-0.620183	-0.389229	-0.63654	9.57311	1.95877	-0.500624	-0.0457829	0.0215977	-0.00587256	-1.03296	0.236084	0.17041	0.417387	-0.478506	-0.594975	-0.492773	9.39268	2.12888	-1.42758	-0.0636228	-0.0288517	0.0287761	-1.06079	0.169922	0.143066	-0.336978	0.616882	0.426358	0.569317	9.68638	0.911238	-1.50409	-0.0518673	0.0551828	0.00671739	-0.936035	0.319824	0.283691	0.401915	-0.574003	-0.497332	-0.511513	9.80234	1.68162	-1.54136	-0.378012	-0.0618787	0.00515547	-1.02588	0.379395	0.228027	
1	-0.709129	0.619792	-0.128166	0.310753	2.05912	-9.47424	1.91769	-0.0322468	-0.0190176	-0.00941557	0.194824	0.983398	0.105225	0.0481404	-0.488694	0.366701	-0.790184	7.45406	-6.40197	2.55807	-0.0136948	0.00854614	-0.0498921	-0.393311	0.755371	0.12085	0.323625	-0.0120401	0.765942	-0.555387	-4.53939	-8.4542	-1.90422	-0.0228595	-0.0599386	0.045786	0.010498	0.842773	0.347412	-0.0437008	0.0531284	0.50179	-0.86225	-0.411671	-8.82345	4.97698	-0.0147936	-0.00928961	-0.0169894	-0.320557	0.860596	-0.545654	-0.111299	-0.136493	-0.365205	0.914116	-3.28731	-6.43381	6.64821	-0.0713341	-0.0176906	-0.0217451	-0.0473633	0.678955	-0.695801	0.453103	0.161092	0.692599	-0.537637	-7.09217	-5.62265	0.0103124	0.0260528	-0.0628163	-0.0436771	0.431152	0.748535	0.460205	-0.510059	0.645973	0.377231	0.424566	9.29595	-3.40455	-0.805979	-0.0463605	0.034614	-0.0446067	-0.679932	0.691895	0.171875	0.241974	-0.619736	-0.387655	-0.638043	9.69747	1.7881	-0.728836	-0.0633902	0.115561	0.00272062	-1.03271	0.229492	0.163574	0.415676	-0.481318	-0.593505	-0.493252	9.34938	2.06683	-1.47415	-0.108542	-0.0668348	0.035488	-1.04956	0.177002	0.145264	-0.335436	0.617801	0.424536	0.57059	9.51588	0.997946	-1.16591	-0.159265	-0.00257001	0.00938811	-0.933838	0.317627	0.283936	0.389644	-0.583384	-0.487846	-0.519467	9.38124	0.50413	-1.56251	-0.835548	-0.109506	0.00663215	-1.0188	0.372803	0.250977	
2	-0.708708	0.620248	-0.1274	0.311117	2.14489	-9.55211	1.82797	0.00212958	-0.00930834	-0.0535744	0.185791	0.985352	0.10083	0.0481374	-0.488851	0.365887	-0.790465	7.22124	-6.22773	2.36183	0.0369837	0.0122203	-0.0146757	-0.395508	0.755371	0.125488	0.324784	-0.0129964	0.765001	-0.555986	-4.48585	-7.99849	-1.43531	0.0044546	-0.0540538	0.0110477	0.0231934	0.846924	0.335938	-0.0424509	0.0526995	0.502149	-0.862129	-0.634274	-8.4472	4.8495	-0.0196361	-0.0549659	0.0409442	-0.327637	0.867188	-0.550293	-0.110782	-0.136455	-0.361255	0.915752	-2.96249	-6.32684	6.87167	0.170207	-0.0171944	-0.00956413	-0.0449219	0.674561	-0.707275	0.453421	0.160442	0.690711	-0.539987	-7.32409	-5.66842	0.0867149	0.139946	-0.0535828	-0.0785668	0.424316	0.752686	0.449463	-0.510489	0.644881	0.377141	0.425787	8.9553	-3.64537	-1.52073	0.0590127	0.0590145	-0.0455241	-0.686279	0.689697	0.174072	0.241363	-0.619127	-0.385801	-0.639987	9.72904	1.66476	-0.608331	-0.0501556	0.0643425	-0.0311703	-1.02612	0.227539	0.163574	0.412784	-0.485265	-0.591298	-0.494465	9.61192	1.12274	-1.92676	-0.162869	-0.0702743	0.0326483	-1.04932	0.174561	0.1521	-0.334829	0.617054	0.422455	0.573294	9.86918	-0.00492442	-0.574278	-0.0288025	0.119469	0.0110862	-0.931641	0.322021	0.283691	0.377623	-0.591548	-0.480068	-0.526313	9.78156	-0.378287	-1.8198	-0.642249	-0.105341	0.0062121	-1.02051	0.359619	0.264893	
3	-0.708985	0.619956	-0.126608	0.311392	2.04105	-9.45156	1.91685	0.0329141	-0.0240336	-0.0106787	0.185791	0.987549	0.0986328	0.0489401	-0.488819	0.36533	-0.790693	7.36542	-6.20735	2.3684	0.0678266	-0.00112321	0.0103175	-0.393066	0.748779	0.12085	0.325259	-0.0147209	0.76533	-0.555212	-4.39951	-8.63578	-1.80074	-0.0263164	-0.0595924	-0.0516674	0.019043	0.838379	0.345215	-0.0415594	0.0526395	0.501818	-0.862369	-0.325299	-8.46284	4.94819	0.0284853	-0.0372538	0.065903	-0.322754	0.860596	-0.545654	-0.110782	-0.136455	-0.361255	0.915752	-2.96249	-6.32684	6.87167	0.170207	-0.0171944	-0.00956413	-0.0449219	0.674561	-0.707275	0.453404	0.160285	0.689703	-0.541335	-6.95047	-5.33636	-0.105591	0.116187	-0.0468676	-0.0634159	0.428711	0.752686	0.455811	-0.511084	0.644126	0.37723	0.426137	9.13986	-3.19662	-0.970389	0.0680655	0.0699616	-0.0395091	-0.684326	0.691895	0.169922	0.242477	-0.618089	-0.386705	-0.640023	9.44315	1.71852	-0.576772	0.0701272	0.049708	-0.017344	-1.02612	0.227539	0.156494	0.41234	-0.486485	-0.591791	-0.493044	9.3696	1.91233	-1.56466	0.00981442	-0.0607644	0.0147281	-1.04712	0.177002	0.1521	-0.334077	0.617671	0.421522	0.573755	9.53135	0.0537949	-0.999618	-0.111346	0.00712608	0.0226366	-0.933838	0.322021	0.283691	0.375425	-0.59286	-0.479468	-0.526957	9.7449	-0.380884	-1.84389	-0.190771	-0.0834604	-0.0381543	-1.02295	0.361816	0.269287	
4	-0.709076	0.619881	-0.126336	0.311444	2.11309	-9.40198	1.97396	0.0174406	-0.016086	-0.0148991	0.183594	0.987549	0.109375	0.0492276	-0.488653	0.364591	-0.791118	7.15134	-6.25066	2.58744	0.00429152	0.0145538	-0.0291604	-0.395264	0.750977	0.118652	0.326207	-0.0139981	0.764938	-0.555215	-4.33845	-7.88533	-1.57236	0.00413634	0.0176038	0.0553236	0.0168457	0.842773	0.347412	-0.0406007	0.0523976	0.501857	-0.862407	-0.416893	-8.53974	5.11908	-0.0462891	-0.0212419	0.0242594	-0.325195	0.862793	-0.545654	-0.113564	-0.136595	-0.362874	0.91475	-3.1876	-6.20881	6.73774	-0.173274	-0.0474119	0.0225949	-0.045166	0.678955	-0.700439	0.454705	0.158314	0.69071	-0.539536	-7.07269	-5.55149	0.357843	-0.163557	-0.0287387	-0.00775681	0.430908	0.752686	0.460205	-0.512275	0.642734	0.37739	0.426666	9.08904	-3.43813	-1.01765	0.052083	0.0437449	-0.037227	-0.692871	0.691895	0.165527	0.242634	-0.617683	-0.386595	-0.640422	9.52997	1.83602	-0.541897	0.0014274	0.0647277	-0.0234681	-1.03052	0.227539	0.154297	0.411052	-0.488166	-0.59152	-0.492782	9.53153	1.65016	-1.91292	-0.0449879	-0.0498622	0.00112116	-1.04956	0.181396	0.160889	-0.333419	0.618089	0.419962	0.57483	9.53212	0.397362	-1.32123	-0.0490211	0.0407868	0.0192625	-0.933838	0.322021	0.281494	0.37599	-0.592611	-0.481688	-0.524805	9.58525	-0.0501096	-1.74642	0.178902	-0.0550493	-0.0216009	-1.01831	0.359619	0.269531	
5	-0.708991	0.620098	-0.125866	0.311397	1.98217	-9.4345	1.92796	-0.00590046	-0.0245756	-0.00352754	0.183594	0.985352	0.10498	0.0498547	-0.488443	0.364253	-0.791364	7.26311	-6.3606	2.55142	0.02464	0.0228643	0.0017365	-0.395264	0.750977	0.11377	0.326236	-0.0144664	0.765351	-0.554616	-4.56647	-8.22987	-1.72507	-0.0627582	-0.0100542	-0.0114774	0.0124512	0.844971	0.340576	-0.0395924	0.0527072	0.503086	-0.861718	-0.483062	-8.24889	4.56274	-0.027364	-0.0101446	0.0329581	-0.316162	0.860596	-0.545654	-0.114586	-0.136492	-0.364842	0.913855	-3.00832	-6.22857	6.91019	-0.185066	-0.00439263	0.0512457	-0.0432129	0.68335	-0.698242	0.45575	0.157521	0.692005	-0.537223	-7.13868	-5.54358	0.155321	-0.107479	0.00706607	0.0113186	0.431152	0.746338	0.458252	-0.512927	0.641992	0.377358	0.427029	9.18041	-3.56909	-0.957984	0.0711616	0.0624633	-0.0193421	-0.686279	0.689697	0.169922	0.241296	-0.617799	-0.385131	-0.641696	9.44269	1.77001	-1.0865	-0.104225	0.0256902	-0.0245337	-1.02832	0.227539	0.156494	0.410642	-0.488582	-0.591532	-0.492697	9.44473	1.68985	-1.98441	-0.0197924	-0.0308617	-0.0138631	-1.0498	0.183594	0.16748	-0.334611	0.617406	0.420632	0.574382	9.66983	0.728041	-1.11682	0.0829022	0.0345118	-0.00922585	-0.931641	0.322021	0.281494	0.375785	-0.592412	-0.483419	-0.523583	9.82389	1.50424	-1.82186	-0.0516722	-0.0406913	-0.0362853	-1.02051	0.359619	0.273926	
6	-0.709137	0.62023	-0.125583	0.310916	2.10382	-9.42765	1.93219	0.000842403	-0.0258205	0.0114226	0.187988	0.985352	0.107178	0.0501067	-0.488091	0.363766	-0.79179	7.12707	-6.24905	2.64738	0.0244149	0.0216588	-0.00658855	-0.391113	0.755371	0.115967	0.326027	-0.0146365	0.765335	-0.554757	-4.36807	-8.16724	-1.92361	0.0409015	0.045955	-0.0168379	0.0168457	0.844971	0.347412	-0.0388524	0.0529347	0.50344	-0.861532	-0.369774	-8.54552	4.78425	-0.0283247	0.0060085	0.0448682	-0.318604	0.866943	-0.534912	-0.11574	-0.136536	-0.36873	0.912141	-3.05141	-6.33127	6.66021	-0.159512	0.00689068	-0.00277514	-0.0390625	0.689941	-0.691406	0.456034	0.157039	0.692974	-0.535872	-7.07323	-5.65083	0.127721	-0.0184984	0.0285578	-0.0084348	0.431152	0.748535	0.462402	-0.514464	0.640263	0.378339	0.426908	8.99176	-3.38253	-1.04375	0.0879317	0.00697982	-0.0492075	-0.684326	0.691895	0.156982	0.241879	-0.61743	-0.386807	-0.640824	9.41565	1.44999	-0.552843	0.140515	-0.00274679	-0.0418241	-1.02808	0.220947	0.154297	0.410629	-0.488163	-0.592148	-0.492384	9.38578	1.25559	-2.04495	0.0950428	0.0078324	-0.042796	-1.05176	0.178955	0.160889	-0.335008	0.616851	0.422023	0.573726	9.7716	0.739017	-1.47747	0.0528343	-0.00325596	-0.019861	-0.938232	0.317383	0.279297	0.375199	-0.592514	-0.483699	-0.52363	9.788	0.050459	-1.80585	0.11547	0.00670411	-0.0255443	-1.02271	0.359619	0.271729	
7	-0.708987	0.620585	-0.125877	0.310431	2.02093	-9.48031	1.90234	-0.0214674	-0.0151169	0.0112339	0.181396	0.985352	0.102783	0.0496817	-0.4883	0.364373	-0.791408	7.30912	-6.11895	2.68481	-0.0537061	0.0147625	-0.0333913	-0.390869	0.748779	0.116211	0.325813	-0.0151305	0.765151	-0.555122	-4.57232	-8.42867	-1.88732	-0.0227512	-0.0169025	-0.00127553	0.0126953	0.838379	0.343018	-0.0388663	0.0532932	0.503401	-0.861531	-0.431536	-8.59509	4.74457	0.00544252	0.01444	-0.0126639	-0.314453	0.869385	-0.543701	-0.115998	-0.135906	-0.370449	0.911505	-2.95964	-6.3308	6.81521	-0.05245	-0.00220887	-0.0114506	-0.0412598	0.689941	-0.686768	0.456159	0.156588	0.693518	-0.535194	-6.99794	-5.52095	0.233235	-0.0264965	0.0195843	-0.0256599	0.426758	0.746338	0.462402	-0.513431	0.641092	0.377888	0.427305	9.12256	-3.32843	-1.0296	-0.0379327	-0.0233055	-0.0196302	-0.688721	0.691895	0.16333	0.242736	-0.617412	-0.38863	-0.639413	9.76021	2.08678	-0.909623	0.0646598	-0.0245994	-0.0263553	-1.02612	0.225342	0.161377	0.412416	-0.4856	-0.594756	-0.490276	9.52142	1.82428	-1.62209	0.114714	0.0133144	-0.059054	-1.05176	0.174561	0.160889	-0.335023	0.616722	0.422603	0.573429	9.61052	0.18779	-0.994039	0.00643494	-0.0198256	-0.00877385	-0.938477	0.321777	0.279297	0.379201	-0.589578	-0.487258	-0.520754	9.66462	-0.150223	-1.64848	0.306163	0.0250243	-0.022113	-1.02051	0.359619	0.269531	
8	-0.70816	0.621646	-0.126387	0.309986	2.23458	-9.61311	1.9231	-0.0733798	0.00521073	0.00919357	0.186035	0.983154	0.107178	0.0492947	-0.488235	0.364555	-0.791389	7.30188	-6.36445	2.49406	0.0129294	0.0136802	-0.0219628	-0.395264	0.748779	0.116211	0.325685	-0.0147684	0.764975	-0.55545	-4.32858	-7.90386	-1.59917	0.00500915	0.0278861	-0.0120008	0.0126953	0.840576	0.340576	-0.0392132	0.053273	0.503018	-0.861741	-0.401023	-8.57873	4.61645	0.0231551	0.0132765	0.0185361	-0.316406	0.867188	-0.537109	-0.115726	-0.135629	-0.369689	0.911889	-3.49086	-6.25449	6.72512	0.0558432	-0.00419796	-0.023303	-0.0437012	0.694336	-0.688965	0.455587	0.156673	0.693196	-0.536071	-7.45315	-5.69711	-0.0509179	0.0814369	0.00697789	-0.0417284	0.428955	0.748535	0.462402	-0.51313	0.64116	0.378346	0.42716	9.16006	-3.33556	-1.35639	0.0640865	0.0317144	-0.0345023	-0.684082	0.6875	0.163574	0.242267	-0.618229	-0.389222	-0.638441	9.4431	1.82942	-0.496999	0.00981824	-0.0575085	-0.0102192	-1.02588	0.223145	0.158936	0.412862	-0.484307	-0.595668	-0.490072	9.40102	1.86839	-1.86731	0.0362838	0.0390125	-0.0597679	-1.05615	0.172119	0.156494	-0.336999	0.615859	0.424772	0.571593	9.86027	0.35813	-1.22753	0.19701	0.0141861	0.00745806	-0.936279	0.322021	0.283691	0.387782	-0.58274	-0.49562	-0.514198	9.69797	0.48327	-1.68915	0.609601	0.032223	-0.0547821	-1.0188	0.370605	0.253418	
9	-0.707284	0.622329	-0.125772	0.310866	1.94678	-9.55074	1.87161	-0.0119945	-0.0208084	-0.0792825	0.183594	0.985352	0.111572	0.0487056	-0.488773	0.364523	-0.791108	7.31332	-6.0368	2.54514	-0.047457	-0.00212443	-0.043636	-0.397217	0.744629	0.121094	0.32612	-0.015603	0.764438	-0.55591	-4.64916	-8.45611	-1.63063	0.0322053	-0.0467007	0.0191156	0.019043	0.842773	0.347412	-0.0389823	0.0533328	0.502867	-0.861835	-0.558971	-8.73052	4.92846	0.00706047	-0.00049872	0.0110178	-0.322998	0.862793	-0.545654	-0.11552	-0.13549	-0.36908	0.912183	-3.42109	-6.11824	6.74602	0.052189	-0.0074684	-0.0228894	-0.0410156	0.685547	-0.688965	0.455688	0.156484	0.692303	-0.537195	-7.17244	-5.51499	0.1091	0.044897	-0.0124993	-0.0442358	0.428955	0.748535	0.458252	-0.512372	0.641615	0.378201	0.427515	9.10005	-3.47755	-1.05526	-0.0603511	-0.0249195	-0.0216578	-0.688477	0.689697	0.167725	0.2416	-0.618979	-0.390385	-0.637255	9.72091	1.74492	-0.695314	0.0557166	-0.0351464	-0.0540765	-1.02612	0.225342	0.161377	0.413312	-0.482667	-0.596536	-0.490256	9.39103	2.099	-1.52112	0.0522207	0.0420043	-0.0728857	-1.04907	0.170166	0.149902	-0.340665	0.613131	0.428394	0.569646	9.53454	1.51422	-1.21498	0.16429	0.0380484	-0.0460795	-0.934082	0.326416	0.272217	0.390777	-0.5799	-0.499139	-0.511732	9.86811	1.45107	-1.83262	0.0645412	0.0131166	-0.0444822	-1.0188	0.372803	0.246338	
10	-0.706328	0.623534	-0.124846	0.310996	2.31442	-9.46851	1.93146	-0.0554381	-0.0218799	-0.0243229	0.178955	0.989502	0.111328	0.0488704	-0.489016	0.364522	-0.790948	7.33814	-6.46589	2.5707	0.0171967	-0.0126316	-0.0218889	-0.397217	0.746582	0.121094	0.325697	-0.0150086	0.763983	-0.556801	-4.36653	-8.57145	-1.97867	0.0825907	0.0283554	-0.048966	0.0212402	0.844727	0.344971	-0.0386948	0.0535848	0.501969	-0.862356	-0.164318	-8.20398	4.74016	0.0511355	0.00710399	0.008882	-0.318359	0.858398	-0.543457	-0.115586	-0.136091	-0.368628	0.912268	-3.30182	-6.39049	6.64198	0.0151479	-0.0143009	-0.000724927	-0.0456543	0.689941	-0.688965	0.455963	0.156094	0.691872	-0.53763	-6.99487	-5.30969	0.13657	-0.0268632	-0.00907958	-0.00856651	0.435303	0.748535	0.458252	-0.513079	0.641031	0.378968	0.426864	9.17665	-3.27252	-0.967064	0.117569	0.00626133	-0.0372384	-0.684326	0.689697	0.163574	0.242227	-0.618619	-0.391626	-0.636604	9.70762	1.58613	-0.536098	0.125058	-0.00122587	-0.0448423	-1.02808	0.220947	0.161377	0.414175	-0.480882	-0.598639	-0.488716	9.32231	1.94588	-1.61473	0.17318	-0.0194942	-0.0590784	-1.05396	0.172363	0.1521	-0.339013	0.613768	0.428638	0.569762	9.91436	0.887976	-1.40963	-0.151354	-0.0336586	-0.0256584	-0.931641	0.317627	0.270264	0.395112	-0.576282	-0.502393	-0.5093	9.83632	0.459198	-1.73232	0.371109	0.0705603	-0.0320005	-1.02344	0.372803	0.239502	
11	-0.705381	0.624702	-0.125316	0.310615	1.99262	-9.6844	1.9125	-0.0709861	-0.0378626	0.011092	0.179199	0.985107	0.113525	0.0482897	-0.489956	0.364335	-0.790488	7.55702	-6.0326	2.66725	-0.030864	-0.00881665	-0.0449259	-0.393066	0.746826	0.123291	0.326504	-0.0158106	0.763647	-0.556766	-4.56785	-8.16924	-1.5622	-0.0634995	-0.0472055	0.0194455	0.019043	0.842773	0.338135	-0.0391661	0.0536683	0.501637	-0.862523	-0.643478	-8.88684	4.81671	0.0154857	0.0137442	-0.011527	-0.320801	0.86499	-0.545898	-0.11583	-0.135126	-0.367846	0.912696	-3.21448	-6.19325	6.98729	0.0453805	-0.029473	-0.0175256	-0.043457	0.687744	-0.691406	0.455901	0.155584	0.692736	-0.536716	-7.61773	-5.96857	-0.0245381	0.00603509	0.0243117	-0.0433692	0.428955	0.748535	0.466797	-0.512071	0.640961	0.379632	0.427588	9.40367	-3.07261	-1.11222	-0.0749276	0.0175927	-0.0586156	-0.695068	0.689697	0.163574	0.243667	-0.616646	-0.393806	-0.636625	9.61599	2.44393	-1.16119	0.0186469	0.0203581	-0.0441652	-1.03027	0.220947	0.156738	0.414591	-0.479899	-0.600237	-0.487368	9.64906	1.57461	-1.79668	0.0746998	-0.00264411	-0.0376361	-1.05591	0.165527	0.1521	-0.337176	0.615019	0.426801	0.570881	9.4413	0.384867	-1.15859	-0.0925611	-0.0113298	0.0172217	-0.938232	0.317383	0.274658	0.399757	-0.572645	-0.505541	-0.506656	9.60641	0.0323199	-1.8982	0.379435	0.0693789	-0.0193851	-1.02344	0.377197	0.228271	
12	-0.704923	0.625836	-0.123528	0.310088	2.46117	-9.60341	1.87854	-0.00367369	-0.0725477	-0.0727967	0.178955	0.989502	0.109131	0.0477948	-0.490411	0.364444	-0.790186	7.35069	-5.92542	2.7967	-0.0424345	-0.0121061	-0.0577547	-0.397217	0.746826	0.123535	0.32696	-0.0148057	0.762424	-0.558201	-4.77944	-8.44194	-1.96347	0.152134	-0.00243215	0.0448487	0.019043	0.842773	0.338135	-0.0391661	0.0536683	0.501637	-0.862523	-0.643478	-8.88684	4.81671	0.0154857	0.0137442	-0.011527	-0.320801	0.86499	-0.545898	-0.115931	-0.134779	-0.369088	0.912233	-3.09758	-6.54786	6.80607	-0.0556518	0.0165239	0.00396765	-0.0412598	0.687744	-0.691406	0.455652	0.154757	0.69111	-0.539257	-7.36493	-5.60911	0.196974	0.0748513	-0.0578984	-0.0857085	0.428711	0.752686	0.455811	-0.512128	0.640763	0.379233	0.42817	9.13448	-3.00283	-1.03781	-0.00677697	0.0664277	-0.0254973	-0.690674	0.689697	0.163574	0.241684	-0.618076	-0.391766	-0.637252	9.3076	1.59041	-0.479038	-0.184701	-0.0390692	0.00476942	-1.03052	0.227539	0.161377	0.413896	-0.479885	-0.599737	-0.488586	9.43172	1.69168	-2.04008	-0.0536984	0.0290727	-0.0469184	-1.05371	0.165527	0.1521	-0.338393	0.614744	0.428314	0.569322	9.56214	0.39122	-1.52984	0.155149	-0.0129732	0.0153564	-0.938477	0.326172	0.28125	0.410667	-0.563955	-0.513127	-0.500008	9.65097	0.601622	-1.76914	0.696693	0.14424	-0.0225978	-1.02173	0.388184	0.216553	
13	-0.704383	0.62631	-0.122674	0.310696	2.40006	-9.27666	1.84634	-0.0253592	-0.0282469	-0.0965141	0.176758	0.989502	0.107178	0.0461532	-0.492032	0.364909	-0.78906	7.28745	-6.1967	2.57264	-0.0696066	-0.0357073	-0.0744443	-0.404053	0.750977	0.125732	0.327939	-0.0142964	0.761681	-0.558654	-4.79057	-7.93443	-1.75994	0.0797327	-0.0533576	0.0616374	0.0234375	0.838379	0.340576	-0.0385644	0.054489	0.501625	-0.862506	-0.564525	-9.04801	4.76677	0.0235745	0.0522848	0.04099	-0.313965	0.860596	-0.539062	-0.115667	-0.135704	-0.365659	0.913509	-3.41619	-7.13686	6.60266	0.296025	0.0341943	0.0248694	-0.0410156	0.681152	-0.695801	0.455799	0.154196	0.690453	-0.540135	-7.5979	-6.20065	0.555909	0.0584697	-0.0537916	-0.0663929	0.42627	0.75708	0.455811	-0.513904	0.638729	0.37874	0.429516	9.02843	-3.16643	-1.02644	0.065087	0.112264	-0.0245886	-0.692383	0.680908	0.161621	0.240481	-0.619205	-0.391057	-0.637047	9.54662	1.81231	-0.773861	-0.124583	-0.0780999	-0.00261595	-1.03027	0.223145	0.166016	0.413971	-0.479381	-0.599518	-0.489285	9.46454	1.9647	-1.79411	-0.0174465	0.0657983	-0.055297	-1.05835	0.167725	0.147705	-0.339478	0.614453	0.429495	0.568099	9.3377	0.877223	-1.2865	0.157204	-0.0287434	0.0171345	-0.940674	0.323975	0.283691	0.414779	-0.560687	-0.51546	-0.497885	9.4754	1.16417	-1.61776	0.475659	0.13518	-0.0121644	-1.02832	0.385986	0.209717	
14	-0.702802	0.627695	-0.1215	0.311939	2.39206	-9.25815	1.83297	-0.0558327	-0.0148679	-0.0868753	0.177002	0.98291	0.113525	0.0457913	-0.493161	0.36458	-0.788528	7.46463	-6.18482	2.61128	-0.0103848	-0.0292073	-0.0515733	-0.401855	0.748779	0.123291	0.329518	-0.0149584	0.761911	-0.557391	-4.43236	-8.42609	-1.3132	-0.0470975	-0.0205733	0.050628	0.019043	0.846924	0.342773	-0.0384221	0.0567955	0.499581	-0.863549	-0.665457	-8.3039	5.06461	0.0449892	0.0896502	0.0667449	-0.318604	0.862793	-0.550293	-0.11417	-0.139181	-0.354187	0.917685	-3.25371	-5.68565	6.71598	0.45403	0.104928	0.0495199	-0.0402832	0.665771	-0.716309	0.455913	0.15631	0.687621	-0.543035	-7.11064	-5.45	0.0712134	0.200732	-0.00482218	0.0310752	0.433105	0.748535	0.44751	-0.51565	0.637493	0.379326	0.428741	9.1473	-3.37453	-0.762928	0.123163	0.00416867	-0.00669957	-0.688232	0.683105	0.157227	0.240286	-0.620056	-0.391631	-0.635939	9.59898	1.63581	-0.855812	0.0628521	-0.00723111	-0.0165993	-1.02588	0.223145	0.163574	0.41462	-0.477806	-0.599432	-0.490381	9.41626	1.98118	-1.79422	0.0470618	0.0749854	-0.0642341	-1.05371	0.167725	0.156494	-0.339131	0.614339	0.430608	0.567587	9.8216	1.06799	-0.996526	-0.0141762	-0.0267801	-0.0307105	-0.934082	0.324219	0.279053	0.420248	-0.555936	-0.518003	-0.495985	9.83341	0.725353	-1.43236	0.281302	0.129239	-0.0240935	-1.02393	0.388184	0.196045	
15	-0.701541	0.629063	-0.121894	0.311868	2.31335	-9.38401	1.7724	-0.0850616	0.00211404	0.0131814	0.170166	0.987305	0.113525	0.0457404	-0.494212	0.364411	-0.787951	7.53767	-6.12504	2.38539	0.00191182	-0.0384233	-0.0327466	-0.401855	0.751221	0.13501	0.32991	-0.0137026	0.761032	-0.558392	-4.51925	-8.45874	-1.67998	0.0985698	-0.0051801	0.0117345	0.0275879	0.846924	0.335938	-0.0383394	0.0590709	0.49797	-0.86433	-0.602842	-8.10948	4.85952	0.075958	0.0706255	0.0414125	-0.307373	0.860596	-0.554443	-0.114475	-0.141391	-0.351935	0.918175	-3.29442	-5.57854	6.9515	-0.0379767	0.0362319	0.0195308	-0.0358887	0.663574	-0.711914	0.456751	0.156999	0.687281	-0.542563	-7.07582	-4.99353	0.415217	0.0108345	0.000706413	0.0386957	0.435059	0.754883	0.445068	-0.51649	0.636476	0.38178	0.42706	9.24261	-3.03784	-1.16023	0.124757	-0.0133703	-0.0537941	-0.690674	0.6875	0.152832	0.241319	-0.619888	-0.393866	-0.634329	9.62926	2.25609	-0.733263	0.121107	-0.036694	-0.034805	-1.02808	0.223145	0.163574	0.41648	-0.47494	-0.600973	-0.489702	9.37636	2.00846	-1.45056	0.159254	0.0623197	-0.0686014	-1.05811	0.160889	0.143311	-0.3392	0.614014	0.431769	0.567016	9.63241	0.522227	-0.958626	0.086218	-0.0017581	-0.0160373	-0.938477	0.321777	0.281494	0.422239	-0.554005	-0.517794	-0.496671	9.62283	0.386053	-1.36082	-0.00917493	0.0997086	-0.00687996	-1.02612	0.388184	0.189209	
16	-0.700435	0.630676	-0.121846	0.311116	2.14969	-9.74475	1.70226	-0.0706541	-0.0632886	-0.0137418	0.176758	0.987305	0.124268	0.0447109	-0.495782	0.36413	-0.787153	7.5372	-6.05906	2.40746	-0.0478247	-0.0357343	-0.0808037	-0.403809	0.749023	0.130371	0.330607	-0.0126753	0.760107	-0.559264	-4.77801	-7.7531	-1.31114	0.00487732	-0.00566463	0.0391133	0.0275879	0.846924	0.335938	-0.0386013	0.0600376	0.497702	-0.864406	-0.907506	-8.70375	4.36556	0.00793468	0.032086	0.0318107	-0.30957	0.860596	-0.552246	-0.116816	-0.139967	-0.359695	0.915086	-3.49974	-5.85326	6.85196	-0.397251	-0.0214971	0.0292143	-0.0385742	0.676758	-0.702637	0.457524	0.156192	0.688689	-0.540355	-7.45364	-5.50984	0.178362	-0.103835	-0.00213506	-0.00594767	0.433105	0.752686	0.455811	-0.515358	0.637068	0.382621	0.426792	9.2897	-3.27864	-1.05556	-0.0816629	-0.0766156	-0.0361093	-0.692871	0.6875	0.155029	0.242409	-0.619054	-0.395126	-0.633945	9.75785	2.22704	-0.44212	0.0190328	0.0463437	-0.0246452	-1.02368	0.220947	0.168457	0.416556	-0.474268	-0.601	-0.490255	9.58678	2.12001	-1.38437	-0.0406394	0.0305694	-0.0343992	-1.05811	0.160889	0.143311	-0.340145	0.612989	0.432533	0.566975	9.56619	0.459225	-1.27047	0.0634761	0.0574097	-0.00274846	-0.936279	0.322021	0.281494	0.424873	-0.551674	-0.519108	-0.495646	9.58332	0.256394	-1.44103	0.195202	0.0450641	-0.0167524	-1.02417	0.392578	0.18457	
17	-0.699954	0.631602	-0.121063	0.310624	2.37714	-9.69861	1.66633	-0.0598502	-0.0912792	-0.0346619	0.17041	0.985107	0.115723	0.0444622	-0.496575	0.36373	-0.786853	7.52617	-6.1042	2.52943	0.00487293	-0.00859476	-0.0461786	-0.403809	0.744629	0.135254	0.33111	-0.0139738	0.75941	-0.559881	-4.634	-8.492	-1.57332	0.100177	-0.0554861	-0.039478	0.0231934	0.846924	0.333496	-0.0372649	0.0597277	0.496624	-0.865106	-0.723339	-8.42671	4.39538	0.0597246	-0.0508253	0.0423072	-0.314209	0.86499	-0.55249	-0.118021	-0.139385	-0.362256	0.91401	-3.39701	-6.67073	6.55778	0.0349599	-0.0146298	0.0315782	-0.0344238	0.681152	-0.698242	0.458244	0.15483	0.687817	-0.541247	-7.20375	-5.20292	0.403013	0.0327148	-0.0655736	-0.0606527	0.432861	0.752686	0.449463	-0.514532	0.637688	0.383561	0.426019	9.26856	-3.21639	-1.07902	0.0417043	-0.0388084	-0.0353513	-0.69043	0.685303	0.155029	0.241359	-0.619391	-0.393857	-0.634805	9.45842	1.78453	-0.85219	-0.0665332	0.0229334	-0.0156163	-1.02808	0.223145	0.170654	0.417015	-0.473511	-0.601292	-0.490238	9.48023	2.09946	-1.6242	0.0792922	0.0266757	-0.0370014	-1.05566	0.158691	0.145508	-0.342747	0.611414	0.433867	0.566089	9.665	1.00842	-0.983968	0.146392	0.0701657	0.0194534	-0.934082	0.322021	0.274658	0.426671	-0.549799	-0.520988	-0.494211	9.81242	0.860359	-1.5187	0.0837649	0.0153852	-0.0250513	-1.0332	0.392578	0.180176	
18	-0.69956	0.632414	-0.117742	0.311136	2.62326	-9.20791	1.66504	0.0358052	-0.0224207	-0.0689834	0.170166	0.987305	0.115723	0.0449217	-0.497724	0.3626	-0.786622	7.39103	-6.02072	2.54346	0.0217116	-0.0536782	-0.0344492	-0.403809	0.744629	0.130615	0.332515	-0.0160232	0.758572	-0.56013	-4.68057	-8.07716	-1.37151	-0.0750055	-0.118538	-0.0270628	0.0231934	0.849121	0.331299	-0.0358101	0.0584452	0.496115	-0.865547	-0.740174	-8.72963	5.09861	-0.0236715	-0.0708558	0.0440473	-0.30957	0.860596	-0.556641	-0.118837	-0.139528	-0.354721	0.916833	-3.18223	-5.80397	6.65591	0.334343	-0.0656253	0.0471991	-0.0361328	0.667969	-0.705078	0.458345	0.153235	0.686867	-0.542819	-7.29039	-5.31927	-0.0279306	0.0391321	-0.0627488	-0.0917629	0.432861	0.752686	0.443115	-0.514494	0.637373	0.384897	0.42533	9.23692	-3.16814	-1.02446	0.0684948	-0.00543023	-0.0283693	-0.692871	0.6875	0.157227	0.242815	-0.618325	-0.395044	-0.634551	9.46618	2.13652	-0.644087	0.105704	0.0475084	-0.0254543	-1.03247	0.225342	0.163574	0.417409	-0.472928	-0.601252	-0.490516	9.30017	2.14627	-1.53472	-0.00968106	0.0333708	-0.0268567	-1.05542	0.154053	0.143311	-0.342291	0.611733	0.43293	0.566738	9.57199	1.02063	-1.40862	-0.0895766	0.0151608	0.00542969	-0.940918	0.328369	0.272217	0.425878	-0.550232	-0.519982	-0.495471	9.75408	0.974972	-1.6642	-0.110796	0.0319104	-0.00853393	-1.02417	0.390381	0.182373	
19	-0.699738	0.632388	-0.116865	0.311117	2.1874	-9.41183	1.61648	0.023087	-0.0569957	-0.00237499	0.170166	0.989502	0.12207	0.04562	-0.498015	0.361989	-0.786679	7.54929	-6.16308	2.54361	0.0417644	0.0102709	-0.018214	-0.407715	0.73584	0.135498	0.33371	-0.0177461	0.758501	-0.559463	-4.60626	-8.75132	-1.54943	0.0729513	-0.0879872	-0.0350557	0.029541	0.849121	0.331299	-0.0336637	0.0567652	0.496241	-0.865673	-0.581451	-8.28752	4.63384	0.0298235	-0.115301	0.0301235	-0.30957	0.86499	-0.55249	-0.120229	-0.138128	-0.353952	0.917161	-3.25961	-6.07577	6.98326	-0.079391	-0.0629244	0.0338744	-0.0317383	0.670166	-0.707275	0.459384	0.150402	0.686214	-0.543558	-7.16143	-5.51641	0.440079	-0.0387176	-0.0761846	-0.0818934	0.430908	0.750488	0.443115	-0.515224	0.636358	0.385808	0.425141	9.28231	-3.21159	-0.752084	0.107257	0.0215716	-0.0569902	-0.697021	0.6875	0.152832	0.242762	-0.61798	-0.394288	-0.635377	9.61108	1.9988	-0.868966	-0.0571375	0.0501876	-0.0143163	-1.03027	0.220947	0.161377	0.417227	-0.473045	-0.600762	-0.491157	9.41583	2.1323	-1.66877	-0.0552275	0.0359969	-0.0234364	-1.05811	0.158691	0.138916	-0.340897	0.612088	0.432294	0.56768	9.62131	0.843547	-1.2905	-0.0563355	0.00426117	-0.0259739	-0.933838	0.322021	0.279297	0.418697	-0.556239	-0.513384	-0.501724	9.76781	0.914868	-1.15256	-0.74277	-0.035432	0.0348743	-1.03076	0.388184	0.196045	
20	-0.700134	0.632333	-0.116389	0.310516	2.5747	-9.31139	1.69333	0.0310976	-0.063753	0.0186039	0.168213	0.985107	0.12207	0.0461926	-0.49825	0.36155	-0.786699	7.277	-6.13714	2.41793	0.0449063	-0.0188768	-0.00671261	-0.408203	0.744629	0.130615	0.334923	-0.0188245	0.757398	-0.560197	-4.55183	-7.92645	-1.32987	0.0709325	-0.147604	-0.0328876	0.0275879	0.846924	0.333496	-0.0322361	0.0557868	0.496824	-0.865457	-0.689562	-8.60239	5.08751	-0.0522866	-0.1218	0.0605307	-0.307373	0.86499	-0.545898	-0.121184	-0.138296	-0.35386	0.917045	-3.17855	-6.22995	6.87394	-0.0065325	-0.0093537	0.0675573	-0.0317383	0.667969	-0.709473	0.459343	0.14917	0.685688	-0.544596	-7.41921	-6.16982	0.493928	0.0387034	-0.0696319	-0.11903	0.430664	0.754883	0.442871	-0.516091	0.635253	0.386648	0.424979	9.13225	-3.37291	-1.33515	0.136397	0.0330411	-0.0588556	-0.697021	0.685303	0.152832	0.242295	-0.617924	-0.394265	-0.635625	9.40841	2.0072	-0.725661	-0.027723	0.0177401	-0.0456192	-1.03027	0.220947	0.163818	0.417189	-0.472571	-0.600259	-0.49226	9.3862	1.85797	-1.73968	-0.0266232	0.0419228	-0.0306881	-1.05811	0.158691	0.138916	-0.340239	0.612149	0.432185	0.568091	9.86897	0.695363	-0.995685	-0.0521645	0.0107096	-0.0309256	-0.936279	0.322021	0.272461	0.415192	-0.559041	-0.509991	-0.504973	9.78318	0.194993	-1.56156	-0.516594	0.0102201	0.0102077	-1.03052	0.383789	0.200684	
21	-0.700842	0.631767	-0.11623	0.310132	2.26087	-9.46468	1.75092	0.0401278	-0.0243434	0.0192457	0.172607	0.985107	0.11792	0.0475473	-0.498776	0.360824	-0.786618	7.56504	-5.84218	2.69574	0.0230542	-0.0170445	-0.0110647	-0.403564	0.742432	0.125977	0.335495	-0.0210072	0.758401	-0.558418	-4.93704	-8.80202	-1.8045	-0.0498865	-0.0597903	-0.0315523	0.0275879	0.846924	0.335938	-0.0301072	0.0549218	0.49642	-0.86582	-0.671811	-8.30266	5.13444	0.072806	-0.0489373	0.0303294	-0.30957	0.862793	-0.543457	-0.121801	-0.138296	-0.35203	0.917667	-3.19799	-6.04482	6.96377	0.087379	-0.0325022	0.0273923	-0.0336914	0.663574	-0.709473	0.459462	0.147857	0.683769	-0.547259	-6.93305	-5.46844	0.637304	0.0399853	-0.0503885	-0.0708951	0.42627	0.759277	0.442871	-0.517552	0.633599	0.387207	0.425162	9.26653	-3.04044	-0.787447	0.0819648	0.042057	-0.0343561	-0.694824	0.685303	0.146484	0.242952	-0.617309	-0.394854	-0.635605	9.71771	1.63163	-0.661655	0.049503	0.0515589	-0.0117487	-1.02612	0.227539	0.161133	0.418096	-0.471324	-0.600959	-0.491831	9.54992	1.77158	-1.638	0.100026	0.0347606	-0.0406441	-1.05811	0.160889	0.141113	-0.339732	0.611952	0.431717	0.568962	9.71404	0.300627	-1.26617	-0.0282672	0.0405255	-0.013119	-0.934082	0.324219	0.27002	0.414086	-0.559702	-0.508906	-0.506242	9.77525	0.225223	-1.37802	0.0393963	0.0179528	-0.0208185	-1.02808	0.379395	0.193848	
22	-0.701185	0.63201	-0.11571	0.309055	2.48241	-9.31556	1.7511	-0.0179873	-0.0409204	0.0201733	0.174805	0.985107	0.115723	0.0474291	-0.499225	0.360849	-0.786329	7.35779	-6.16412	2.47246	0.0045863	-0.00499902	-0.0322595	-0.410156	0.744629	0.128174	0.336484	-0.0217562	0.757578	-0.55891	-4.24358	-7.89931	-1.39422	0.0400683	0.0157755	-0.00645052	0.0231934	0.844727	0.338135	-0.0295383	0.0547538	0.496377	-0.865875	-0.700664	-8.29906	5.33176	0.00407897	-0.0304433	0.0364615	-0.312012	0.869385	-0.543701	-0.122432	-0.138252	-0.347556	0.919294	-3.3797	-5.66524	7.19808	0.191896	-0.0293011	-0.00431713	-0.0332031	0.654785	-0.71875	0.459737	0.146667	0.68297	-0.548345	-7.14382	-6.01665	0.789868	0.0856591	-0.0373576	-0.0606848	0.428223	0.761475	0.440674	-0.517761	0.633364	0.387366	0.425113	9.02134	-3.2363	-1.02746	0.053996	0.016118	-0.0223424	-0.699219	0.685303	0.140137	0.243402	-0.617021	-0.395314	-0.635427	9.52754	1.94584	-0.689299	0.0365282	0.0130412	-0.0229541	-1.03247	0.220947	0.158936	0.41908	-0.470015	-0.601944	-0.491041	9.43514	1.9434	-1.53672	0.0418672	0.0240377	-0.0342503	-1.05322	0.156494	0.136719	-0.33956	0.611929	0.431656	0.569136	9.50384	0.584529	-0.815494	0.00185767	-0.0168065	0.00260531	-0.938477	0.323975	0.27002	0.415923	-0.558208	-0.510112	-0.505171	9.69886	0.123855	-1.58571	0.158761	0.0352435	-0.00743713	-1.02588	0.379395	0.196289	
23	-0.700631	0.632758	-0.115385	0.308902	2.18708	-9.46927	1.63038	-0.0319147	-0.0363177	-0.0273623	0.172607	0.985107	0.115723	0.0471691	-0.499774	0.360196	-0.786295	7.61338	-6.01559	2.55912	-0.0101601	0.0146699	-0.0381792	-0.406006	0.744629	0.130615	0.337015	-0.022472	0.757315	-0.558918	-4.86352	-8.42294	-1.39222	-0.0477726	-0.101884	-0.00417978	0.0317383	0.846924	0.333496	-0.0297883	0.055003	0.494434	-0.866961	-0.844496	-8.48659	5.02634	0.0997559	0.038555	-0.00776323	-0.313965	0.862793	-0.548096	-0.122482	-0.138621	-0.345139	0.920142	-3.26809	-5.78836	6.82279	0.111589	-0.00346417	0.0190395	-0.0354004	0.652832	-0.725586	0.459621	0.146982	0.682214	-0.549299	-7.2634	-5.71001	0.487488	0.00183953	-0.000202214	-0.00981029	0.428223	0.763672	0.436279	-0.517897	0.633271	0.387768	0.42472	9.49793	-3.19909	-0.750449	-0.0238881	-0.0030568	-0.0134301	-0.699219	0.685303	0.146484	0.243843	-0.617107	-0.395645	-0.634969	9.44678	1.98447	-0.747848	0.0390879	0.00401894	-0.00504375	-1.02417	0.229492	0.168213	0.418642	-0.470062	-0.601037	-0.492479	9.37553	1.6915	-1.89141	-0.0368025	0.0481039	-0.0417258	-1.05811	0.161133	0.127686	-0.339941	0.611652	0.432325	0.568698	9.60852	0.585853	-1.29654	0.0764274	0.00859733	-0.00430033	-0.933838	0.319824	0.27002	0.418946	-0.55577	-0.512123	-0.503322	9.73108	0.527038	-1.27428	0.15567	0.0376601	-0.00964259	-1.02612	0.385986	0.187012	
24	-0.700235	0.633602	-0.114362	0.308449	2.51605	-9.49922	1.64796	-0.0124825	-0.0418102	-0.0189088	0.166016	0.985107	0.119873	0.0475152	-0.499727	0.359603	-0.786575	7.38464	-6.01042	2.49717	0.0182656	-0.00066944	-0.0275137	-0.412354	0.742432	0.125977	0.336301	-0.0226062	0.756907	-0.559895	-4.41731	-8.64161	-1.5878	0.111948	0.0957705	-0.0294793	0.0231934	0.846924	0.333496	-0.0291278	0.0552174	0.494419	-0.866979	-0.607477	-8.02598	5.12878	-0.0192232	-0.0183177	0.0133644	-0.313965	0.862793	-0.550293	-0.122021	-0.138615	-0.346938	0.919528	-3.20979	-5.90243	7.17191	-0.177098	0.0403104	-0.0197373	-0.0334473	0.656982	-0.71875	0.459577	0.146983	0.681447	-0.550286	-7.07899	-5.29896	0.590329	0.0795249	0.0119658	-0.0437828	0.430176	0.767822	0.431885	-0.517168	0.633846	0.387112	0.425348	9.09089	-3.0933	-0.80209	-0.0414359	0.0129978	-0.0175846	-0.697021	0.685303	0.148682	0.243812	-0.617615	-0.396188	-0.634147	9.68158	2.00171	-0.677485	0.00576554	-0.0112828	-0.013708	-1.02808	0.220947	0.161377	0.419296	-0.468948	-0.601271	-0.492699	9.33177	2.16317	-1.27422	-0.00285984	0.0383563	-0.0368874	-1.0625	0.156494	0.127686	-0.340609	0.611302	0.433242	0.567975	9.68881	0.726154	-1.00042	0.108782	-0.00875706	-0.00408852	-0.940674	0.31958	0.27002	0.422852	-0.55259	-0.514893	-0.500726	9.81555	0.230127	-1.44524	0.30378	0.0579592	-0.0117369	-1.0332	0.390381	0.177734	
25	-0.69974	0.633982	-0.11466	0.308682	2.43954	-9.46545	1.76458	-0.0355963	0.0196407	-0.0092658	0.168213	0.985107	0.120117	0.0469814	-0.500476	0.359613	-0.786126	7.48716	-6.13224	2.5206	-0.0267996	-0.0148475	-0.0365778	-0.403564	0.742432	0.130615	0.336455	-0.0219896	0.756382	-0.560536	-4.82445	-7.8444	-1.38591	-0.0562368	-0.0511099	0.00203908	0.019043	0.844971	0.333496	-0.0302407	0.0552936	0.494136	-0.867097	-0.734998	-8.72506	4.79638	0.0285856	0.0410713	-0.0288909	-0.305176	0.862793	-0.548096	-0.122621	-0.137923	-0.347887	0.919193	-3.40551	-5.89413	6.7638	0.0283989	-0.0415191	-0.0298993	-0.0336914	0.663574	-0.71875	0.45982	0.14613	0.683078	-0.548285	-7.29036	-6.25463	0.580707	-0.0972769	0.0272322	0.00255412	0.432617	0.761475	0.436279	-0.513392	0.636867	0.38572	0.426672	9.42686	-3.49617	-1.04931	-0.222209	-0.0346107	-0.0299467	-0.69873	0.678711	0.163818	0.243925	-0.617373	-0.396206	-0.634328	9.65688	1.99976	-0.679256	0.0110801	0.0347687	-0.0175156	-1.02588	0.220947	0.161377	0.418738	-0.469266	-0.600513	-0.493793	9.51757	2.00113	-1.59906	-0.0340108	0.0243505	-0.0268646	-1.0603	0.156494	0.127686	-0.341262	0.610677	0.433992	0.567684	9.85932	0.960886	-1.35592	0.0228688	0.0675089	-0.0157747	-0.936035	0.319824	0.27002	0.425584	-0.549893	-0.516291	-0.499939	9.83731	1.552	-1.29833	0.0106823	0.0781951	-0.0239749	-1.02368	0.383789	0.175781	
26	-0.699527	0.634469	-0.113702	0.308518	2.15867	-9.39566	1.48782	0.00423993	-0.0759532	-0.0165287	0.17041	0.985107	0.120117	0.0475402	-0.50026	0.360196	-0.785963	7.58817	-6.15991	2.5326	-0.00257258	0.033431	0.0277886	-0.403564	0.740234	0.125977	0.336671	-0.0228616	0.75701	-0.559522	-4.42466	-8.37103	-1.11516	-0.107914	-0.0346572	-0.014233	0.0251465	0.851318	0.32666	-0.0303506	0.0549812	0.495011	-0.866614	-0.729007	-8.10718	4.7913	-0.0812991	-0.0237534	0.00423812	-0.313965	0.862793	-0.550293	-0.121622	-0.139124	-0.345776	0.919941	-3.16354	-6.0287	6.83744	0.117521	0.0752733	0.0133153	-0.0356445	0.659424	-0.723389	0.459116	0.147623	0.681791	-0.550074	-7.21732	-5.34076	0.319873	0.107763	0.0233149	-0.02061	0.432373	0.767822	0.434082	-0.509668	0.639916	0.383819	0.428287	9.08069	-3.11744	-0.752791	-0.190871	-0.0350193	-0.0112929	-0.69458	0.678711	0.167969	0.243384	-0.617236	-0.396305	-0.634608	9.50659	1.93537	-0.713996	-0.010766	0.0289593	-0.0391531	-1.03247	0.223145	0.158936	0.419055	-0.468543	-0.600986	-0.493635	9.39036	2.04807	-1.43135	0.0355536	0.012752	-0.0347097	-1.05298	0.149658	0.132324	-0.341125	0.61037	0.433699	0.56832	9.28293	1.09486	-1.09327	-0.0376275	-0.00420138	0.00165162	-0.936279	0.322021	0.267822	0.421946	-0.552629	-0.512349	-0.504045	9.59333	-0.168275	-1.55036	-0.276725	0.0384261	0.0092424	-1.03711	0.376953	0.18042	
27	-0.699407	0.634762	-0.113381	0.308305	2.65886	-9.72891	1.61085	-0.00190235	0.0260215	-0.0200393	0.17041	0.985107	0.12207	0.0480948	-0.499635	0.359922	-0.786453	7.51527	-6.16886	2.43568	0.0499759	0.0555826	0.0214989	-0.403564	0.742432	0.125977	0.335732	-0.0227271	0.757998	-0.558754	-4.56635	-8.3949	-1.75267	0.0404537	0.0415906	-0.0273876	0.0253906	0.842529	0.335938	-0.0299313	0.0544672	0.495846	-0.866184	-0.604346	-8.30044	5.0829	-0.0750435	-0.0485482	0.00802435	-0.311768	0.862793	-0.55249	-0.120622	-0.138928	-0.343	0.921141	-3.54166	-5.6436	7.09095	0.0823416	-0.0454976	-0.0614306	-0.0375977	0.652832	-0.730225	0.459115	0.147574	0.681594	-0.550331	-7.27719	-5.38241	0.434466	0.0246786	0.00205216	-0.0273866	0.426025	0.761475	0.434082	-0.509129	0.639614	0.38468	0.428605	9.07835	-2.96627	-1.48327	0.0507151	0.0567452	-0.0837465	-0.692627	0.683105	0.165771	0.243249	-0.617442	-0.395547	-0.634931	9.29477	2.04277	-0.520384	-0.0433703	-0.00381835	0.00524656	-1.03027	0.220947	0.166016	0.418444	-0.469024	-0.600367	-0.49445	9.35907	1.92532	-1.63972	-0.0462758	0.0133203	-0.0215041	-1.05542	0.151855	0.132324	-0.33861	0.612081	0.432405	0.568969	9.80259	0.328887	-1.21256	-0.126597	-0.0170143	-0.0108557	-0.936279	0.322021	0.276855	0.421979	-0.552656	-0.511766	-0.504579	9.64202	0.0032273	-1.52673	-0.0419819	0.0512425	0.00577641	-1.02832	0.383789	0.177979	
28	-0.699079	0.634511	-0.113002	0.309701	2.33253	-9.33511	1.54069	0.00581926	0.0100293	-0.0509357	0.163574	0.987061	0.12207	0.0483297	-0.499861	0.358888	-0.786767	7.49714	-5.75006	2.56461	0.00364777	0.000331211	-0.0475255	-0.403809	0.744629	0.128174	0.33594	-0.0226976	0.757181	-0.559738	-4.70677	-8.19985	-1.35395	0.024669	-0.0275547	-0.00433253	0.0253906	0.849121	0.335693	-0.030257	0.0536833	0.496356	-0.865929	-0.584674	-8.58071	4.8199	-0.0154153	-0.00666164	-0.0442153	-0.313965	0.860596	-0.545654	-0.12154	-0.137277	-0.346137	0.920094	-2.94216	-5.56218	7.21319	-0.202385	-0.0370152	0.00178543	-0.0400391	0.661377	-0.720947	0.459056	0.147359	0.682298	-0.549566	-7.06794	-5.57948	0.37755	-0.0763846	0.0419709	-0.00416985	0.427979	0.765625	0.434082	-0.506215	0.642116	0.382846	0.429956	9.52635	-3.22711	-0.946975	-0.18958	-0.00654721	0.0112939	-0.696533	0.676514	0.172363	0.242463	-0.618276	-0.395019	-0.634749	9.73395	1.93951	-0.94414	-0.0259613	-0.000710846	-0.0157752	-1.02832	0.225342	0.161377	0.417995	-0.469292	-0.599774	-0.495293	9.49518	1.7804	-1.55302	0.000665579	0.0211167	-0.0293834	-1.0603	0.156494	0.125488	-0.338818	0.611892	0.432237	0.569177	9.65904	0.727174	-0.984095	0.0537376	0.0228826	0.0185771	-0.938232	0.317383	0.2771	0.42239	-0.552346	-0.511208	-0.505141	9.75708	0.110288	-1.21824	0.0373429	0.0177121	-0.00411384	-1.03711	0.381348	0.184814	
29	-0.698826	0.634644	-0.113127	0.309955	2.47676	-9.36561	1.59392	-0.0195527	0.0145938	-0.0162615	0.16333	0.991455	0.12207	0.0478585	-0.499151	0.359041	-0.787177	7.53441	-6.42212	2.49744	0.00857839	0.0736061	-0.0172037	-0.405762	0.742432	0.128418	0.33563	-0.0231095	0.757575	-0.559374	-4.51876	-8.0567	-1.35571	-0.0467988	0.0129241	-0.0284802	0.0253906	0.846924	0.331299	-0.0300976	0.053241	0.497205	-0.865475	-0.785973	-8.53051	4.82655	-0.0309427	-0.0241422	0.0176407	-0.312012	0.86499	-0.537109	-0.12154	-0.137277	-0.346137	0.920094	-2.94216	-5.56218	7.21319	-0.202385	-0.0370152	0.00178543	-0.0400391	0.661377	-0.720947	0.459463	0.146212	0.68279	-0.548921	-7.40937	-6.24209	0.398853	0.0209235	-0.0257127	-0.0457658	0.428467	0.759277	0.442871	-0.505396	0.642779	0.382453	0.430278	9.28059	-3.45694	-1.14687	-0.0786634	-0.00369704	-0.0187361	-0.696533	0.678711	0.176514	0.242387	-0.61836	-0.394684	-0.634904	9.68818	1.76212	-0.749469	-0.0244154	0.0243562	-0.00445634	-1.02588	0.220947	0.166016	0.418062	-0.469211	-0.599698	-0.495406	9.47859	2.24103	-1.3481	0.00150456	0.0213519	-0.0216881	-1.05762	0.151855	0.134521	-0.339435	0.611832	0.432842	0.568413	9.71522	0.541748	-0.979719	0.0862933	-0.016868	0.0200056	-0.938477	0.323975	0.279053	0.423915	-0.551061	-0.512609	-0.503844	9.84584	0.31807	-1.40484	0.224087	0.018389	-0.0142571	-1.02832	0.385986	0.17334	
30	-0.698332	0.634363	-0.114605	0.311097	2.39269	-9.3399	1.75978	-0.0185616	0.089627	0.00699206	0.161621	0.982666	0.126465	0.0479527	-0.499315	0.357939	-0.787569	7.40824	-6.04869	2.48544	0.0323137	-0.00339935	-0.0361107	-0.405762	0.742432	0.123535	0.335497	-0.0231758	0.75763	-0.559376	-4.51895	-7.84503	-1.34918	-0.0692822	-0.0112861	0.00151689	0.0231934	0.849121	0.333496	-0.0305446	0.0526082	0.496959	-0.865639	-0.399452	-8.81714	5.10567	0.0324313	0.0110614	-0.0243627	-0.312012	0.867188	-0.545898	-0.120346	-0.137254	-0.345071	0.920654	-3.20964	-5.51263	6.98919	0.257454	-0.00497852	-0.008463	-0.0375977	0.650635	-0.725586	0.458716	0.146456	0.68215	-0.550275	-7.15363	-6.01018	0.372364	0.0359019	0.0293178	-0.0225283	0.43042	0.763672	0.436279	-0.504649	0.642702	0.383477	0.430358	9.22741	-3.15666	-0.935415	-0.00986063	-0.0179224	-0.0570156	-0.694336	0.674561	0.174561	0.241666	-0.618667	-0.394472	-0.635012	9.54009	2.02541	-0.561182	0.00191303	-0.00290594	-0.0386617	-1.02808	0.220947	0.166016	0.417815	-0.46942	-0.599406	-0.495771	9.39327	1.90303	-1.56448	0.0141053	0.00895961	-0.021582	-1.06714	0.154053	0.127686	-0.340089	0.611126	0.433236	0.568481	9.56595	1.04876	-1.15778	0.0258838	0.0433539	-0.00541981	-0.938232	0.31958	0.279297	0.423832	-0.551011	-0.512523	-0.504056	9.70558	0.686133	-1.2333	-0.127437	0.0118752	0.00195507	-1.03516	0.387939	0.168701	
31	-0.698194	0.634244	-0.116053	0.311112	2.20945	-9.44526	1.73435	-0.0215648	0.0100383	0.0483007	0.166016	0.985107	0.11792	0.0479018	-0.499179	0.357732	-0.787752	7.55784	-5.90644	2.52379	0.0109285	0.0301953	-0.0268105	-0.408203	0.746582	0.123535	0.335081	-0.023339	0.758229	-0.558807	-4.60969	-8.67658	-1.60324	-0.0624481	0.0354977	-0.0121161	0.019043	0.844971	0.340576	-0.0306465	0.0533247	0.49687	-0.865643	-0.633413	-8.34641	4.9817	-0.0205319	0.0289725	0.0103163	-0.312012	0.867188	-0.545898	-0.12029	-0.137324	-0.345351	0.920546	-2.96778	-5.5357	7.33227	-0.0257583	0.0154807	-0.0122493	-0.0397949	0.654785	-0.71875	0.459441	0.146729	0.682184	-0.549554	-7.2842	-5.53114	0.456372	-0.0334157	0.00190755	0.0129752	0.427979	0.765625	0.438232	-0.505306	0.641827	0.384142	0.430301	9.12708	-2.93806	-1.23599	0.0818073	0.00296582	-0.0296964	-0.700928	0.676514	0.172363	0.242854	-0.61791	-0.395423	-0.634705	9.47929	1.88312	-0.725452	0.0498123	0.0374109	-0.00915328	-1.03027	0.223145	0.161377	0.417965	-0.469235	-0.599626	-0.495552	9.4212	2.04035	-1.49559	0.00313956	0.00459718	-0.0191316	-1.06226	0.151855	0.123291	-0.339438	0.611499	0.432563	0.568982	9.72664	0.629994	-1.0628	-0.0534038	0.0214707	0.00724624	-0.933838	0.317627	0.270264	0.423965	-0.550868	-0.512805	-0.503815	9.77394	0.367309	-1.30299	0.0890798	0.00123176	-0.0121878	-1.03076	0.388184	0.17334	
32	-0.698039	0.634412	-0.116668	0.310887	2.16484	-9.62899	1.71236	-0.00836788	0.00681629	0.0052703	0.165527	0.991455	0.12207	0.047618	-0.499212	0.356389	-0.788357	7.6427	-5.96841	2.59414	0.0208097	-0.00154698	-0.0433251	-0.412354	0.740234	0.121338	0.335334	-0.0222556	0.757529	-0.559648	-4.56903	-7.93286	-1.46026	0.0312217	0.0118021	0.0199443	0.0253906	0.846924	0.335938	-0.0310157	0.0536295	0.496724	-0.865694	-0.566073	-8.5897	4.75006	0.00493206	0.0233048	0.00531338	-0.314209	0.86499	-0.548096	-0.120958	-0.137175	-0.347426	0.919699	-3.52044	-5.73632	6.93959	-0.0587373	-0.00808692	-0.00741407	-0.0378418	0.65918	-0.71875	0.459705	0.146726	0.682481	-0.548965	-7.12567	-5.85302	0.344809	-0.00556847	0.00444222	0.00307211	0.432373	0.765869	0.438232	-0.506494	0.640235	0.384199	0.431224	9.32505	-3.04462	-0.852503	0.0175535	0.0701829	-0.0379553	-0.700928	0.676514	0.167969	0.242338	-0.618273	-0.395095	-0.634753	9.60586	2.19933	-0.650786	-0.0272661	0.00266241	-0.0216015	-1.03442	0.21875	0.166016	0.417865	-0.469359	-0.599649	-0.495492	9.44382	1.95984	-1.48904	0.0239781	0.00154377	-0.021301	-1.05762	0.151855	0.127686	-0.339864	0.611111	0.432286	0.569355	9.61466	0.747605	-1.37873	0.012401	0.0537144	0.0122432	-0.942627	0.317383	0.2771	0.423758	-0.5509	-0.51301	-0.503745	9.78458	0.540286	-1.34015	-0.0411379	-0.00255101	-0.0118356	-1.03296	0.385986	0.175537	
33	-0.698244	0.6347	-0.116109	0.310049	2.49757	-9.50467	1.7117	0.00321807	-0.0459714	0.00523993	0.170166	0.987061	0.126465	0.0469246	-0.498976	0.356009	-0.788719	7.31398	-6.08639	2.38188	-0.00362033	0.0409198	-0.0432968	-0.412354	0.742188	0.114258	0.335374	-0.022898	0.758289	-0.558567	-4.67607	-8.56676	-1.56469	-0.0399057	-0.00424355	0.0120204	0.0231934	0.849121	0.333496	-0.0307378	0.0536352	0.497759	-0.86511	-0.733486	-8.48379	4.71457	-0.0478048	-0.00355124	0.00864303	-0.314209	0.867188	-0.543701	-0.120686	-0.136415	-0.350637	0.918629	-3.05254	-6.38829	6.92011	-0.113909	0.00309506	-0.0392003	-0.0383301	0.667969	-0.716309	0.460271	0.146571	0.681508	-0.54974	-7.28396	-5.52669	0.497171	0.0303333	-0.0354083	-0.0252455	0.43457	0.767822	0.434082	-0.506711	0.640044	0.38426	0.431197	9.1192	-3.22724	-1.24211	0.00830926	-0.0118456	-0.022512	-0.69873	0.676514	0.172363	0.241843	-0.618445	-0.394153	-0.635359	9.37126	1.81951	-0.599637	-0.0662136	0.0205197	-0.00749483	-1.02588	0.220947	0.166016	0.417349	-0.47002	-0.599309	-0.495711	9.39827	2.04529	-1.60625	-0.044035	-0.00715683	-0.0107157	-1.05542	0.1521	0.123291	-0.339349	0.61163	0.431381	0.56979	9.72494	0.880536	-1.19684	-0.0936771	0.0229497	0.0114398	-0.942627	0.317383	0.270264	0.423729	-0.550874	-0.513081	-0.503726	9.72202	0.294644	-1.47142	0.00572184	0.00438822	-0.0108137	-1.03271	0.383789	0.175537	
34	-0.698062	0.634803	-0.116085	0.310257	2.27858	-9.40643	1.68336	-0.00654349	0.00650281	-0.00879099	0.163574	0.987061	0.128662	0.0467393	-0.499345	0.355826	-0.78858	7.54646	-5.93156	2.63974	-0.0161854	0.000255415	-0.0365395	-0.412109	0.738037	0.119141	0.335489	-0.0228789	0.75799	-0.558905	-4.50496	-8.295	-1.5678	0.0325547	-0.00826022	-0.028876	0.0253906	0.846924	0.338135	-0.0306707	0.0535398	0.497315	-0.865373	-0.493233	-8.42871	4.79992	0.0210204	-0.00266921	0.00345216	-0.316406	0.867188	-0.543701	-0.120744	-0.136597	-0.346991	0.919978	-3.35305	-5.84354	6.85428	0.193366	-0.0135716	0.0251349	-0.0378418	0.65918	-0.71875	0.460945	0.145837	0.6812	-0.549753	-7.18822	-5.45495	0.379517	-0.0222523	-0.0296032	-0.0166536	0.436768	0.763672	0.431885	-0.505634	0.640817	0.383377	0.432099	9.25946	-2.95499	-1.01256	-0.0400181	0.0504738	-0.018912	-0.703125	0.676514	0.174561	0.240971	-0.619163	-0.393208	-0.635577	9.4956	2.03415	-0.86483	-0.0380365	0.00976434	-0.00879482	-1.02344	0.214355	0.16626	0.416852	-0.470655	-0.598833	-0.496102	9.3676	1.94268	-1.49988	-0.00947562	-0.000599004	-0.0145491	-1.0647	0.151855	0.129883	-0.339131	0.611925	0.430616	0.570183	9.58789	0.734434	-0.998567	-0.0206903	0.0148203	0.0178638	-0.940674	0.31958	0.272461	0.424062	-0.55055	-0.51308	-0.5038	9.73086	0.459802	-1.44064	-0.0240433	0.0151564	0.000472318	-1.03931	0.37915	0.175781	
35	-0.697538	0.635542	-0.116089	0.309921	2.3378	-9.58469	1.67064	-0.0472481	-0.0314259	-0.00215258	0.170166	0.984863	0.130859	0.0452408	-0.498764	0.356631	-0.788671	7.38769	-6.14767	2.49367	-0.0568779	0.0616187	-0.0347113	-0.412354	0.73999	0.118896	0.335654	-0.0229537	0.757526	-0.559431	-4.63629	-8.30948	-1.44417	0.0142462	0.00561159	0.0181997	0.0253906	0.844727	0.338135	-0.0306231	0.0530881	0.497994	-0.865012	-0.734612	-8.56414	4.88802	-0.0308935	-0.0161506	-0.00942517	-0.31665	0.871582	-0.541504	-0.1205	-0.136114	-0.345675	0.920577	-3.0178	-5.72555	7.07171	0.00407275	-0.0173722	-0.0311369	-0.0356445	0.656982	-0.71875	0.461367	0.144898	0.681276	-0.549553	-7.18481	-5.96535	0.658623	0.0186066	-0.00795181	-0.0427834	0.43457	0.763672	0.434082	-0.505225	0.641093	0.383209	0.432318	9.22783	-3.42789	-1.06809	0.0132529	-0.00512717	-0.0202797	-0.698486	0.670166	0.176758	0.240265	-0.619577	-0.392176	-0.636078	9.51738	1.74447	-0.770194	-0.0540948	0.0121546	-0.0079577	-1.03223	0.220947	0.168457	0.416471	-0.471166	-0.598334	-0.496538	9.46273	1.87644	-1.7301	-0.0368807	0.0111568	-0.0125808	-1.06226	0.151855	0.129883	-0.338124	0.612638	0.429693	0.570711	9.72931	0.562529	-1.26842	-0.0529403	0.00170918	0.00535976	-0.936035	0.31543	0.272461	0.42462	-0.550213	-0.513095	-0.503684	9.83391	0.53959	-1.27816	0.0268562	0.020947	-0.00295048	-1.03491	0.381348	0.177979	
36	-0.697252	0.635631	-0.115444	0.310621	2.56498	-9.53348	1.74083	0.0233439	0.0194754	-0.0564503	0.163574	0.987061	0.126465	0.0448143	-0.498376	0.357078	-0.788739	7.41653	-6.07935	2.57607	-0.0479466	0.0546588	-0.0168025	-0.410156	0.740234	0.125977	0.335414	-0.0226698	0.757947	-0.559016	-4.60224	-8.35139	-1.66648	-0.00581225	0.0287465	-0.00195163	0.0209961	0.844727	0.338135	-0.0306346	0.0529397	0.497996	-0.86502	-0.569618	-8.44984	4.93315	0.00193917	-0.00530539	-0.00331572	-0.318848	0.871582	-0.543701	-0.119992	-0.136047	-0.347478	0.919974	-3.31722	-6.08662	6.92833	-0.0807177	0.0280105	-0.0379699	-0.0400391	0.65918	-0.71875	0.461233	0.145011	0.68057	-0.550508	-7.23074	-5.92723	0.590541	0.0926249	-0.010118	-0.0441323	0.430176	0.767822	0.429688	-0.506506	0.640055	0.383381	0.432203	9.11132	-3.11147	-1.40917	0.103534	0.0714339	-0.0108029	-0.705078	0.672363	0.163818	0.240536	-0.61937	-0.392787	-0.635799	9.57157	1.76249	-0.842076	0.030576	0.00537074	-0.0170817	-1.03027	0.223145	0.161377	0.417139	-0.470479	-0.598829	-0.496033	9.40258	2.11852	-1.47559	0.0622967	0.0194598	-0.02437	-1.05542	0.154297	0.129883	-0.338267	0.612582	0.429959	0.570486	9.64106	0.591859	-1.00504	0.0180445	0.00350351	0.0026348	-0.94043	0.315186	0.2771	0.425194	-0.549809	-0.513464	-0.503265	9.71047	0.50132	-1.34685	0.0490273	0.0111738	-0.0052207	-1.03516	0.383545	0.17334	
37	-0.697043	0.635455	-0.115448	0.311447	2.25502	-9.34251	1.71509	0.00787073	0.0443646	-0.0503964	0.163574	0.987061	0.128662	0.0438433	-0.498968	0.358186	-0.787916	7.46416	-6.03556	2.55035	-0.0783577	-0.0135797	-0.0430932	-0.416748	0.742432	0.125977	0.335175	-0.022222	0.757838	-0.559326	-4.58386	-8.32099	-1.72581	0.0398649	0.0347461	0.00822708	0.0231934	0.846924	0.340332	-0.0315841	0.0534962	0.497908	-0.865002	-0.607773	-8.46749	4.76803	0.00737652	0.0594182	-0.0194509	-0.318604	0.867188	-0.543701	-0.119649	-0.135885	-0.347176	0.920157	-3.25877	-6.37848	6.93826	0.028296	-0.00127165	-0.0373857	-0.0402832	0.663574	-0.71875	0.461059	0.145563	0.680413	-0.550703	-7.25505	-5.70143	0.617743	-0.00566216	0.0448806	-0.00165961	0.436768	0.763672	0.425537	-0.507378	0.639272	0.383588	0.432157	9.11225	-3.07004	-1.26543	0.0977505	0.0545845	-0.0202028	-0.700928	0.676514	0.166016	0.240643	-0.61929	-0.393069	-0.635663	9.5494	2.09034	-0.586006	0.0278399	0.0117985	-0.0250905	-1.02344	0.216553	0.166016	0.417017	-0.470589	-0.598597	-0.496311	9.44263	2.11735	-1.46601	-0.0257285	0.016449	-0.0196026	-1.05981	0.147217	0.130127	-0.338441	0.612468	0.430255	0.570281	9.7072	0.635923	-1.09338	0.0328808	0.00600261	-0.00183638	-0.945068	0.31958	0.27002	0.425199	-0.549776	-0.513432	-0.503329	9.81947	0.619196	-1.24739	9.64147e-05	0.0133234	-0.00743553	-1.03516	0.383545	0.168701	
38	-0.696097	0.636499	-0.114803	0.311669	2.35099	-9.36293	1.60069	-0.0546132	-0.0473736	-0.0426067	0.163818	0.980469	0.128662	0.0425751	-0.499499	0.358789	-0.787374	7.61304	-6.14737	2.48731	-0.044413	0.00723829	-0.0469587	-0.416504	0.740234	0.137939	0.334711	-0.023049	0.757236	-0.560385	-4.6515	-8.60005	-1.30507	0.0492355	-0.0372975	-0.066278	0.0212402	0.842773	0.335938	-0.0327634	0.0537774	0.495807	-0.866147	-0.638728	-8.68867	4.78194	0.0925031	0.015479	-0.0207182	-0.316162	0.860596	-0.547852	-0.119287	-0.135672	-0.345361	0.920918	-3.12941	-5.6673	7.19235	0.0529346	0.00567968	-0.00755047	-0.0400391	0.656982	-0.720947	0.46025	0.146296	0.680511	-0.551065	-7.45173	-5.80653	0.212143	0.0584135	0.0415986	-0.041454	0.427979	0.765625	0.436279	-0.50786	0.638992	0.384187	0.431471	9.27505	-3.09295	-0.822237	0.0911988	-0.0231634	-0.0128961	-0.69873	0.676514	0.167969	0.240925	-0.619018	-0.393328	-0.635661	9.4721	1.8997	-0.675074	0.0228443	0.0216906	-0.0210159	-1.03027	0.223145	0.163574	0.417217	-0.470384	-0.598705	-0.496208	9.42056	2.05061	-1.61702	0.0396366	0.0133283	-0.0231099	-1.0603	0.156494	0.129883	-0.339055	0.611877	0.430842	0.570108	9.77227	1.00674	-1.23863	0.0176963	0.0399558	-0.00731692	-0.936035	0.317627	0.274658	0.424828	-0.549909	-0.513001	-0.503935	9.91456	0.861229	-1.3651	-0.0439925	0.0176601	-0.0131309	-1.03516	0.383545	0.166504	
39	-0.695153	0.637797	-0.113945	0.311437	2.51402	-9.42961	1.48699	-0.0419471	-0.0384711	-0.0248191	0.163818	0.982666	0.128662	0.0424377	-0.499344	0.359412	-0.787196	7.524	-5.91478	2.41549	-0.0306462	0.0213134	-0.00420162	-0.416748	0.740234	0.125977	0.334641	-0.0228087	0.75748	-0.560106	-4.54399	-8.45765	-1.7195	-0.0414529	0.0395154	0.018788	0.019043	0.842773	0.338135	-0.0317769	0.0535009	0.496519	-0.865792	-0.376259	-8.51787	4.93556	-0.0320543	-0.0333728	0.0279777	-0.312012	0.867188	-0.548096	-0.119216	-0.136055	-0.345965	0.920644	-3.23531	-6.14745	6.82432	-0.0175793	0.00888745	-0.0134548	-0.0400391	0.656982	-0.71875	0.460251	0.145961	0.679084	-0.55291	-7.10384	-5.28725	0.239591	0.0534809	-0.0442266	-0.0440146	0.432129	0.77002	0.429688	-0.509431	0.637662	0.384583	0.431235	9.1816	-2.87022	-0.99233	0.0589576	0.0181469	-0.0156386	-0.698486	0.672363	0.166016	0.240933	-0.619093	-0.393727	-0.635338	9.52952	2.21039	-0.667896	0.0148652	0.00939068	-0.0206251	-1.03247	0.223145	0.168457	0.417383	-0.4703	-0.598792	-0.496042	9.3847	2.05642	-1.42424	-0.0041515	0.00602282	-0.014976	-1.0647	0.154053	0.125488	-0.338342	0.61239	0.430432	0.57029	9.56281	0.891326	-1.07095	-0.0493849	-0.0192258	0.00508396	-0.938232	0.31958	0.272461	0.423603	-0.550987	-0.51154	-0.505273	9.71469	0.508646	-1.46502	-0.0784722	0.0151519	0.00329797	-1.03955	0.385742	0.17334	
40	-0.69451	0.638306	-0.1144	0.311664	2.55396	-9.36501	1.49886	-0.0425856	0.030961	-0.00261382	0.156738	0.989258	0.130615	0.0419883	-0.499729	0.359966	-0.786723	7.34907	-6.11563	2.45497	-0.0344225	-0.00217133	-0.0290582	-0.412109	0.738037	0.126221	0.335906	-0.0231219	0.756477	-0.560692	-4.58945	-8.26774	-1.48783	0.0637671	-0.0520922	0.0115934	0.0253906	0.849121	0.331299	-0.0312111	0.053041	0.497539	-0.865256	-0.751598	-8.40775	5.03958	-0.0792228	-0.014787	0.021863	-0.312012	0.869385	-0.539307	-0.120194	-0.135738	-0.343126	0.921625	-3.33265	-5.94852	6.99412	0.13836	-0.0542634	0.0365669	-0.0439453	0.650391	-0.725586	0.460848	0.14438	0.679801	-0.551946	-7.26414	-5.84928	0.531535	-0.0704658	-0.00720738	-0.0289693	0.427734	0.772217	0.431641	-0.507454	0.639642	0.384573	0.430641	9.05172	-3.23123	-1.29659	-0.110616	-0.114622	-0.0102458	-0.702881	0.672363	0.168213	0.240385	-0.619448	-0.393185	-0.635536	9.62281	1.98945	-0.533095	-0.0461717	0.00315137	-0.0141516	-1.02832	0.225342	0.168213	0.416796	-0.471061	-0.5983	-0.496408	9.45185	1.85714	-1.51428	-0.034736	-0.00950733	-0.00839653	-1.05542	0.154297	0.125488	-0.336834	0.613129	0.42936	0.571197	9.74827	0.578434	-1.31121	-0.100418	0.0109807	-0.00105375	-0.936035	0.317627	0.270264	0.422684	-0.551819	-0.510394	-0.506293	9.72216	0.337465	-1.22385	-0.0625801	0.00812452	0.00327208	-1.03491	0.37915	0.182617	
41	-0.693265	0.638698	-0.11558	0.313192	2.59973	-9.48385	1.70436	-0.037475	0.085322	-0.058605	0.154785	0.986816	0.13501	0.0424023	-0.50099	0.360538	-0.785636	7.66536	-5.93361	2.53976	-0.038109	-0.0468126	0.00429988	-0.412109	0.73584	0.128662	0.336737	-0.0226682	0.755385	-0.561684	-4.80108	-8.42422	-1.22929	0.0392108	-0.0612853	0.0322987	0.0231934	0.842773	0.33374	-0.0310621	0.0526772	0.499732	-0.864018	-0.732548	-8.71259	4.99551	-0.0884489	-0.0144293	-0.0124975	-0.314453	0.873779	-0.539307	-0.120867	-0.134957	-0.342801	0.921773	-3.1611	-5.76214	7.1851	-0.0355998	-0.00585516	0.00857692	-0.0397949	0.652588	-0.723389	0.460677	0.143306	0.680642	-0.551332	-7.2221	-5.93201	0.719733	-0.0522842	0.00721865	-0.0348198	0.426025	0.765625	0.429688	-0.504138	0.643421	0.383944	0.429465	9.33111	-3.20664	-0.836874	-0.160871	-0.122431	0.0369981	-0.696533	0.676514	0.176514	0.239282	-0.62007	-0.392042	-0.636051	9.5899	1.76182	-1.07709	-0.0661863	0.0107745	-0.0108611	-1.02808	0.220947	0.168457	0.416095	-0.471925	-0.597837	-0.496733	9.53692	2.00101	-1.62107	-0.0687021	-0.0108172	-0.00740155	-1.0625	0.15625	0.136719	-0.336576	0.6134	0.428504	0.5717	9.62747	0.709647	-0.999656	-0.0303328	0.0253509	0.012388	-0.936035	0.317627	0.281494	0.422549	-0.551993	-0.510326	-0.506285	9.81836	0.481161	-1.30905	0.00877544	0.00442326	-0.00574079	-1.03931	0.37915	0.17334	
42	-0.691865	0.639353	-0.116277	0.314691	2.17895	-9.43002	1.64152	-0.0587829	0.0210486	-0.0212021	0.152588	0.984619	0.141357	0.0428263	-0.501251	0.360448	-0.785487	7.42328	-6.07904	2.33911	0.00941946	-0.00749196	-0.0213065	-0.409912	0.73584	0.130859	0.335982	-0.0217349	0.756157	-0.561133	-4.59635	-8.48323	-1.69453	-0.000375998	0.0848661	-0.0403296	0.0231934	0.851318	0.32666	-0.0308332	0.0537084	0.500073	-0.863766	-0.463184	-8.15831	4.54215	0.0423945	0.036856	0.0218947	-0.307861	0.873779	-0.539307	-0.120278	-0.135674	-0.342207	0.921965	-3.31929	-5.90422	7.0535	0.0823622	0.0470812	-0.0208166	-0.0463867	0.652588	-0.723389	0.460602	0.143838	0.679908	-0.552161	-7.31897	-5.83207	0.806167	0.0367096	0.0027808	-0.000658175	0.430176	0.767822	0.431885	-0.502392	0.645809	0.385155	0.426836	9.22038	-2.96927	-0.637991	-0.0147546	-0.158072	-0.00200728	-0.694336	0.676514	0.187256	0.239091	-0.620298	-0.391605	-0.63617	9.42087	1.80304	-0.59017	-0.00685482	0.00812461	-0.00877959	-1.03027	0.220947	0.170654	0.416131	-0.47185	-0.598076	-0.496486	9.36342	2.17966	-1.54754	0.0372852	0.00590751	-0.025097	-1.06445	0.147217	0.134521	-0.335809	0.613915	0.427734	0.572175	9.65495	0.482909	-1.26397	-0.0459316	0.00225989	0.00809391	-0.933838	0.317627	0.274658	0.422827	-0.55183	-0.510628	-0.505925	9.79258	0.359943	-1.30109	0.0450738	0.00104272	-0.00375046	-1.03271	0.383545	0.17334	
43	-0.691213	0.640015	-0.11645	0.314713	2.34436	-9.42852	1.70443	-0.0363795	-0.00215284	-0.00785824	0.154785	0.986816	0.141357	0.0424753	-0.502094	0.359994	-0.785176	7.52588	-5.86767	2.52077	-0.0257132	-0.0112723	-0.0667755	-0.418701	0.73584	0.133301	0.336619	-0.0212287	0.755119	-0.562168	-4.34804	-7.92963	-1.45336	0.0477558	0.0302287	0.0472509	0.029541	0.855469	0.331055	-0.0315444	0.0548426	0.499451	-0.864029	-0.4506	-8.72481	4.88317	0.0260034	0.0739493	0.0125575	-0.314209	0.86499	-0.539307	-0.119381	-0.136672	-0.340028	0.92274	-2.92096	-5.78851	7.27377	0.114037	0.0490557	-0.0217387	-0.0397949	0.650635	-0.730225	0.460182	0.144776	0.679488	-0.552782	-7.08072	-5.75977	0.26082	0.081316	0.040182	-0.018726	0.432373	0.767822	0.42749	-0.501894	0.646472	0.385765	0.425867	9.15951	-2.96013	-1.48211	0.0267553	-0.02969	-0.00351372	-0.696533	0.676514	0.189453	0.239396	-0.620325	-0.391878	-0.63586	9.60369	2.01427	-0.778235	0.0345986	0.0112012	-0.014881	-1.02808	0.223145	0.166016	0.415767	-0.472202	-0.597609	-0.497017	9.3733	1.94533	-1.50914	0.00498169	0.0105611	-0.0203944	-1.06494	0.158691	0.13208	-0.336533	0.613479	0.428208	0.571862	9.75447	0.699933	-1.09126	0.0441797	0.0229511	0.00158497	-0.938232	0.315186	0.2771	0.423645	-0.551055	-0.511825	-0.504875	9.79302	0.777361	-1.33062	0.100162	-0.00134869	-0.0177948	-1.03491	0.381348	0.171143	
44	-0.690268	0.641888	-0.115111	0.313463	2.47345	-9.52278	1.37185	-0.0583629	-0.113094	-0.0225735	0.161621	0.982666	0.141602	0.041616	-0.502595	0.360222	-0.784797	7.66415	-6.02095	2.45202	-0.0667099	-0.00804935	-0.0761137	-0.414062	0.731445	0.133301	0.336107	-0.0214977	0.754188	-0.563711	-4.90866	-8.7913	-1.34126	0.0739026	-0.056847	-0.0393777	0.0187988	0.853516	0.322021	-0.0318755	0.0555758	0.498519	-0.864508	-0.475566	-8.58195	4.43856	0.0839626	0.0682222	0.0153444	-0.307861	0.873779	-0.541504	-0.119076	-0.137024	-0.338459	0.923304	-3.41746	-5.72727	6.93102	0.0248724	-0.00137993	-0.0212879	-0.041748	0.64624	-0.727783	0.460157	0.144873	0.679091	-0.553265	-7.29051	-5.73808	0.36049	0.0513094	0.000499734	-0.0261092	0.432129	0.772217	0.42749	-0.500749	0.647445	0.385219	0.42623	9.44095	-2.96883	-0.832875	-0.113873	-0.0159618	-0.0133313	-0.692139	0.676514	0.191406	0.239971	-0.619661	-0.392618	-0.635834	9.47117	1.88595	-0.879413	0.0382029	0.0277919	-0.0350773	-1.02808	0.223145	0.166016	0.416322	-0.47146	-0.598271	-0.496461	9.48509	1.85682	-1.66947	0.0745905	0.0201209	-0.0287685	-1.0625	0.156494	0.13208	-0.336869	0.613059	0.428471	0.571919	9.7427	0.897192	-1.26768	0.0383146	0.0392305	-0.0105476	-0.94043	0.315186	0.274658	0.423414	-0.551081	-0.511867	-0.504998	9.98008	0.810641	-1.2277	-0.0121316	0.000798833	-0.019626	-1.03076	0.385986	0.175537	
45	-0.689836	0.642555	-0.114527	0.313261	2.75963	-9.49116	1.41909	-0.0452233	-0.0594016	-0.0373726	0.156982	0.982422	0.147949	0.0413394	-0.50271	0.359876	-0.784897	7.49732	-6.12926	2.24711	0.0338635	0.0108847	-0.0229845	-0.418701	0.73584	0.133301	0.336578	-0.0210506	0.753469	-0.564407	-4.24143	-8.07053	-1.17886	0.0911834	-0.0239183	0.0288565	0.0253906	0.846924	0.319824	-0.0319937	0.0561614	0.496984	-0.865349	-0.522165	-8.44254	5.09299	0.00417435	0.0285867	0.0350055	-0.314209	0.867188	-0.550293	-0.118819	-0.137313	-0.338384	0.923322	-3.22401	-6.08455	6.93195	0.0119265	0.0344266	-0.020315	-0.0373535	0.64624	-0.732422	0.459972	0.14568	0.67732	-0.555375	-7.03099	-5.41368	0.348365	0.1357	0.00268089	-0.0306077	0.432129	0.772217	0.420898	-0.4996	0.648369	0.385711	0.425728	9.17835	-3.22426	-1.2501	0.0683889	-0.00297107	-0.0273129	-0.692139	0.676514	0.193604	0.240114	-0.619767	-0.393221	-0.635305	9.51094	2.07386	-0.705682	0.0556171	-0.0216971	-0.0258709	-1.03003	0.21875	0.166016	0.416322	-0.47146	-0.598271	-0.496461	9.48509	1.85682	-1.66947	0.0745905	0.0201209	-0.0287685	-1.0625	0.156494	0.13208	-0.337344	0.612642	0.429277	0.571481	9.6448	0.821366	-1.06696	0.0218847	-0.00256479	-0.00458117	-0.940674	0.31958	0.27002	0.423669	-0.550784	-0.512404	-0.504562	9.79047	0.446644	-1.3735	0.0718566	0.00439013	-0.0147192	-1.03296	0.388184	0.17334	
46	-0.689337	0.64308	-0.114156	0.313419	2.40899	-9.85214	1.35111	0.00863512	-0.0229407	-0.0290713	0.154785	0.984619	0.141357	0.042264	-0.502553	0.35885	-0.785418	7.69323	-6.0313	2.37842	0.0459034	0.0195919	-0.00423511	-0.409668	0.731445	0.131104	0.336072	-0.0216398	0.754191	-0.563722	-4.8765	-8.57526	-1.35533	-0.0691431	-0.0350609	-0.0291204	0.0187988	0.851562	0.319824	-0.0315281	0.0564079	0.496261	-0.865765	-0.790579	-8.5012	4.5348	0.0700325	-0.0154767	0.010818	-0.312012	0.867188	-0.545898	-0.119224	-0.137599	-0.337493	0.923553	-3.45695	-5.6486	6.96502	-0.0125148	-0.0217947	0.00221618	-0.0395508	0.648438	-0.732422	0.460891	0.144948	0.677551	-0.554521	-7.33018	-5.55494	0.615459	-0.0863821	-0.0106831	0.00485277	0.430176	0.767822	0.42334	-0.498217	0.649481	0.385355	0.425975	9.30713	-3.20586	-1.2475	-0.126425	-0.0296235	-0.0114844	-0.692139	0.676514	0.195801	0.240115	-0.619825	-0.393569	-0.635031	9.49027	2.13	-0.458707	0.00581449	0.0166315	-0.0265953	-1.03247	0.223145	0.168457	0.416403	-0.471041	-0.598348	-0.496698	9.42693	1.9729	-1.54198	-0.0235374	0.00657162	-0.0228629	-1.05762	0.149658	0.130127	-0.337377	0.612414	0.429474	0.571558	9.55816	0.692938	-1.32816	0.00030755	0.0199887	-0.00721028	-0.937988	0.312988	0.279297	0.423637	-0.550865	-0.512323	-0.504584	9.71777	0.549637	-1.31687	-0.0387558	0.00825575	0.000877522	-1.03052	0.381592	0.17334	
47	-0.690471	0.642382	-0.112401	0.312988	2.5882	-9.48806	1.45372	0.0728449	-0.06722	0.000187484	0.148193	0.984619	0.141357	0.0444928	-0.501259	0.357404	-0.78678	7.48024	-5.98988	2.58363	0.114585	0.047044	0.0412265	-0.410156	0.740234	0.125977	0.337239	-0.0225992	0.753999	-0.563245	-4.28816	-8.25748	-1.26046	0.016136	-0.0215778	0.0114234	0.0253906	0.844727	0.319824	-0.0299257	0.0554741	0.497624	-0.8651	-0.543657	-8.40985	5.05708	-0.142235	-0.0702895	0.0573614	-0.307861	0.871582	-0.545898	-0.121439	-0.137287	-0.341309	0.921907	-3.14943	-5.73947	7.17671	-0.205108	0.00222391	0.0763792	-0.0375977	0.652832	-0.727783	0.461471	0.143916	0.678167	-0.553554	-7.28471	-5.61754	0.348794	-0.0473128	-0.019415	-0.0352847	0.427979	0.765625	0.425537	-0.497546	0.649998	0.38538	0.425949	9.11432	-3.04133	-1.4554	0.0351384	0.0239908	-0.0326196	-0.696289	0.672119	0.197998	0.239149	-0.620602	-0.392911	-0.635044	9.59218	1.68538	-0.809657	-0.0542258	-0.0235866	-0.00718823	-1.02808	0.223145	0.168457	0.416727	-0.470623	-0.598819	-0.496253	9.47367	2.10365	-1.34798	0.0391612	0.00576494	-0.0219458	-1.06006	0.154053	0.134521	-0.337096	0.612891	0.43007	0.570764	9.69663	0.765074	-0.816517	-0.0127757	-0.0510323	-0.00134866	-0.938232	0.317383	0.2771	0.424233	-0.550566	-0.512429	-0.5043	9.87205	0.440895	-1.33624	0.0472519	0.0210808	0.00272395	-1.03271	0.381348	0.171143	
48	-0.691825	0.64135	-0.110758	0.312699	2.60971	-9.25894	1.474	0.0783358	-0.0423285	-0.031432	0.152588	0.986816	0.13501	0.0455955	-0.50024	0.356101	-0.787955	7.4586	-6.15915	2.43002	0.0671387	0.0515231	-0.00266595	-0.407959	0.738037	0.126221	0.337661	-0.0230446	0.754337	-0.562521	-4.9232	-8.46409	-1.62969	-0.0311329	-0.0671578	0.0088107	0.0231934	0.851318	0.324219	-0.0299257	0.0554741	0.497624	-0.8651	-0.543657	-8.40985	5.05708	-0.142235	-0.0702895	0.0573614	-0.307861	0.871582	-0.545898	-0.123067	-0.137427	-0.341617	0.921556	-3.28007	-6.40566	7.03406	0.100246	-0.00495505	0.0538762	-0.0375977	0.652588	-0.723145	0.46182	0.142185	0.678771	-0.55297	-7.1198	-5.91348	0.793737	-0.0611948	-0.00339979	-0.047509	0.429932	0.77002	0.431885	-0.49717	0.65031	0.386098	0.425261	9.26383	-3.32545	-1.39837	0.0218172	-0.0637616	-0.022211	-0.694092	0.672119	0.197998	0.23988	-0.620395	-0.39371	-0.634477	9.55673	2.01327	-0.603319	0.0803635	0.0287639	-0.0273676	-1.02808	0.223145	0.166016	0.416365	-0.470974	-0.598589	-0.496503	9.43461	1.87695	-1.61306	0.0249439	0.00349545	-0.0214774	-1.0603	0.156494	0.13208	-0.336675	0.613085	0.430229	0.570684	9.87181	0.522166	-1.15876	0.0196797	0.0274059	-0.00215252	-0.938232	0.315186	0.281494	0.424447	-0.55036	-0.512964	-0.503802	9.73367	0.558193	-1.15641	0.0290043	-0.0150005	-0.0191174	-1.02612	0.383789	0.168945	
49	-0.691803	0.64139	-0.110024	0.312925	2.52468	-9.21174	1.49052	-0.0103287	-0.0121384	-0.0115226	0.150146	0.991211	0.13501	0.0467717	-0.500578	0.355055	-0.788143	7.46498	-5.87352	2.59169	0.0307091	-0.0254612	-0.0206954	-0.414551	0.742188	0.123535	0.337722	-0.0238184	0.755291	-0.56117	-4.6199	-8.03032	-1.79194	-0.0778435	0.0648794	-0.0210059	0.0273438	0.849121	0.32666	-0.0269085	0.0536852	0.500195	-0.863828	-0.598881	-8.59749	4.64186	-0.0694027	-0.0198395	0.055162	-0.312256	0.871582	-0.541504	-0.124442	-0.138256	-0.337269	0.922848	-3.12746	-5.41277	7.30924	0.13115	-0.00586664	0.0631364	-0.032959	0.648438	-0.730225	0.461423	0.141785	0.678543	-0.553683	-7.27401	-5.80519	0.366161	0.0400856	-0.00328813	-0.0527447	0.427734	0.772217	0.425293	-0.498137	0.649347	0.386684	0.425068	8.97619	-2.95103	-1.5372	0.0685733	0.0382445	-0.0197401	-0.696289	0.670166	0.19165	0.240616	-0.619601	-0.394852	-0.634264	9.6412	2.11015	-0.885337	0.045408	0.0424851	-0.0398744	-1.02368	0.21875	0.173096	0.416683	-0.470698	-0.599264	-0.495683	9.4057	2.3021	-1.37901	-0.00127393	-0.0117709	-0.0136248	-1.06006	0.154053	0.13208	-0.33759	0.612317	0.430341	0.570884	9.69246	1.02377	-1.1352	0.0277341	0.0337495	0.00212994	-0.940674	0.31958	0.276855	0.422817	-0.551266	-0.51264	-0.504512	9.89874	0.707301	-1.34491	-0.110832	-0.0272792	-0.0256879	-1.03516	0.383545	0.175537	
50	-0.690459	0.642715	-0.110476	0.313014	2.32504	-9.39591	1.43759	-0.0949282	-0.00785469	-0.0200024	0.152588	0.984619	0.139404	0.0463903	-0.501579	0.354626	-0.787723	7.62711	-6.26838	2.40454	0.00642754	-0.0163738	-0.0491329	-0.414307	0.738037	0.123779	0.338588	-0.0255333	0.752789	-0.563929	-4.46147	-8.56567	-1.24719	0.212957	-0.150188	-0.0604661	0.0209961	0.851318	0.322021	-0.0268145	0.0531927	0.497558	-0.865383	-0.605942	-8.65377	4.67377	0.114041	-0.0152523	0.0089859	-0.312256	0.873779	-0.539307	-0.125802	-0.136665	-0.338801	0.922339	-3.18405	-5.65999	7.08569	-0.119328	-0.0640354	1.5926e-06	-0.0397949	0.652588	-0.725586	0.461541	0.139897	0.679116	-0.553362	-7.14225	-6.16969	0.559804	-0.0393032	-0.0154107	-0.064038	0.427979	0.767822	0.425293	-0.497157	0.649507	0.386014	0.426579	9.44301	-3.3086	-1.09187	-0.0845984	0.0811103	-0.0549088	-0.689941	0.676514	0.197754	0.240671	-0.619034	-0.39501	-0.634698	9.41398	1.97395	-0.765484	0.00951276	0.0212271	-0.0229656	-1.02808	0.220947	0.166016	0.416624	-0.47093	-0.599517	-0.495206	9.53357	1.84999	-1.69774	0.0424193	-0.00463721	-0.0149041	-1.06006	0.154053	0.13208	-0.337682	0.612019	0.430264	0.571206	9.52375	0.971605	-1.35033	-0.000868849	0.023698	-0.00413488	-0.938232	0.317383	0.272461	0.42139	-0.552374	-0.511921	-0.505223	9.70774	0.599299	-1.5318	-0.0590786	-0.00943493	-0.00931531	-1.03052	0.383789	0.182373	
51	-0.689668	0.644031	-0.110608	0.312006	2.56	-9.79227	1.45492	-0.0400299	-0.0291392	0.0197785	0.150146	0.991211	0.145752	0.046905	-0.501704	0.353026	-0.788331	7.59966	-5.96613	2.54912	0.0542398	0.00751351	-0.049415	-0.416504	0.735596	0.114502	0.337837	-0.026822	0.752012	-0.565354	-4.45564	-8.82116	-1.56558	0.0120915	0.00166954	-0.0818858	0.0251465	0.851318	0.319824	-0.02558	0.0523096	0.496568	-0.866043	-0.274114	-8.5331	5.1466	0.0473408	-0.0601803	0.0169194	-0.312256	0.871582	-0.543701	-0.126784	-0.135698	-0.340857	0.92159	-3.35381	-6.01748	7.06033	-0.0834654	-0.0391667	0.00182726	-0.0332031	0.655029	-0.725586	0.461761	0.138843	0.677253	-0.555722	-7.17994	-5.42978	0.4347	0.0693928	-0.0764466	-0.0717107	0.425537	0.776611	0.425049	-0.499177	0.646785	0.386849	0.427596	9.13332	-2.6633	-1.40722	0.181839	0.109139	-0.0714997	-0.698486	0.672119	0.193604	0.240546	-0.619603	-0.394675	-0.634398	9.33789	2.10264	-0.640964	-0.0184304	-0.00228265	-0.000341233	-1.03467	0.2229	0.170654	0.416259	-0.47162	-0.598946	-0.495547	9.2986	2.1875	-1.59708	-0.0761307	-0.00162811	-0.00178827	-1.06445	0.149414	0.132324	-0.336633	0.612966	0.429827	0.571138	9.52441	0.79611	-1.33491	-0.0467913	-0.052352	0.0112793	-0.942871	0.31958	0.274658	0.421224	-0.552901	-0.511319	-0.505395	9.75568	0.344106	-1.45355	0.0137053	0.0131736	0.0128566	-1.03516	0.383545	0.175537	
52	-0.689826	0.644135	-0.109379	0.311874	2.3412	-9.69416	1.35179	0.0375152	-0.0608285	-0.0444031	0.152832	0.980225	0.143555	0.0464518	-0.501675	0.351782	-0.788932	7.60946	-6.06763	2.48407	0.0394424	0.0375331	-0.038539	-0.416504	0.73584	0.119141	0.339595	-0.0280582	0.750405	-0.566375	-4.6571	-8.5551	-1.14812	0.0543361	-0.10007	-0.0130443	0.020752	0.855713	0.31958	-0.024932	0.0519469	0.496232	-0.866276	-0.597674	-8.92563	5.25067	0.0317578	-0.0470177	0.0357777	-0.314209	0.86499	-0.537109	-0.127303	-0.134817	-0.338075	0.922672	-3.33666	-5.81527	7.16455	0.150136	-0.0396562	0.0122059	-0.0395508	0.648438	-0.727783	0.463082	0.136715	0.67629	-0.556324	-7.38224	-6.12403	0.503599	0.0137645	-0.0946826	-0.0480823	0.427734	0.774414	0.420898	-0.498037	0.646637	0.386269	0.42967	9.2243	-3.35166	-1.07328	-0.0719153	0.0394467	-0.0626818	-0.698242	0.667969	0.19165	0.239443	-0.62058	-0.393591	-0.634534	9.58481	1.79291	-0.977738	-0.0708646	-0.0276789	-0.00783485	-1.02783	0.21875	0.175537	0.415871	-0.472261	-0.598136	-0.49624	9.53511	1.60574	-1.80119	0.0132628	0.0211517	-0.0156427	-1.05786	0.156494	0.13208	-0.336626	0.613136	0.430631	0.570355	9.72039	0.699047	-1.06701	0.0248318	-0.0086958	-0.0136278	-0.938232	0.315186	0.2771	0.421409	-0.553179	-0.510568	-0.505695	9.91734	0.614359	-1.32956	-0.0545124	0.0267194	0.0202764	-1.03052	0.383789	0.175537	
53	-0.690182	0.644022	-0.108253	0.311713	2.53963	-9.45561	1.38463	0.0525045	-0.0749998	-0.0404569	0.159424	0.982666	0.141602	0.0471561	-0.501161	0.351178	-0.789486	7.66851	-6.03935	2.48333	0.0787748	0.045719	0.0144791	-0.412354	0.73999	0.116699	0.340576	-0.0285587	0.750022	-0.566268	-4.44293	-8.64031	-0.896134	0.00384869	-0.0895637	0.0168397	0.0253906	0.846924	0.315186	-0.0228612	0.0510235	0.497057	-0.865915	-0.687372	-8.33704	5.33028	-0.0701545	-0.0849457	0.0494963	-0.312256	0.871582	-0.539307	-0.128105	-0.135065	-0.33761	0.922695	-3.21341	-5.82291	7.1804	0.0290197	-0.00142016	0.0607412	-0.0351562	0.648438	-0.727783	0.463731	0.136111	0.675689	-0.556662	-7.23384	-6.09835	0.489621	0.0186776	-0.0731028	-0.0262053	0.42749	0.776611	0.420898	-0.498301	0.646221	0.385936	0.430288	9.30797	-3.17816	-1.34624	0.0136397	0.0795071	-0.0292271	-0.702637	0.667969	0.193848	0.239256	-0.620978	-0.393699	-0.634148	9.65929	1.45679	-0.833661	0.00542201	-0.0296803	-0.0115018	-1.02783	0.21875	0.175537	0.416513	-0.471685	-0.59859	-0.495702	9.4934	2.09466	-1.39866	0.0921196	0.0264676	-0.0208084	-1.0625	0.154053	0.136719	-0.336147	0.613473	0.431193	0.56985	9.75318	0.80672	-0.932812	0.010684	-0.0591372	-0.0213218	-0.931396	0.31543	0.279297	0.421752	-0.55328	-0.510267	-0.505602	9.81073	0.301505	-1.25061	0.00543002	0.0233148	0.0286176	-1.02832	0.385986	0.177979	
54	-0.691196	0.643258	-0.106526	0.311639	2.58211	-9.58061	1.51418	0.085266	-0.0400356	-0.0314321	0.148193	0.986816	0.13501	0.0481358	-0.500661	0.349543	-0.790469	7.44896	-5.94415	2.6872	0.0736172	0.0157718	-0.0331959	-0.414307	0.737793	0.112061	0.34164	-0.0280672	0.751229	-0.564047	-4.62935	-8.12385	-1.41509	-0.125825	0.0164458	0.0485843	0.0275879	0.846924	0.324463	-0.0201888	0.0514529	0.499391	-0.864612	-0.584508	-8.58118	5.04961	-0.075066	-0.00930068	0.106329	-0.316895	0.875732	-0.532715	-0.130486	-0.135724	-0.337364	0.922354	-3.34541	-5.61971	7.28688	-0.0151473	-0.0149196	0.0770429	-0.0351562	0.648438	-0.727783	0.465434	0.134537	0.67635	-0.554817	-7.28607	-6.07159	0.748862	-0.155662	-0.0382222	0.0279051	0.427979	0.77002	0.42749	-0.49908	0.64475	0.386748	0.430863	9.09811	-3.09883	-1.51654	0.0539615	0.0148372	-0.0740189	-0.707031	0.669922	0.187256	0.240325	-0.620671	-0.395017	-0.633225	9.58671	2.23216	-0.401511	0.0690418	0.0268833	-0.0247819	-1.02808	0.225098	0.177734	0.416634	-0.471717	-0.598717	-0.495416	9.39368	2.01288	-1.44872	0.0272616	-0.00524506	-0.013529	-1.05811	0.158691	0.134277	-0.335608	0.61389	0.431538	0.569456	9.8895	0.322878	-1.15619	0.0234029	0.0259702	-0.00503888	-0.94043	0.315186	0.286133	0.422813	-0.552753	-0.511354	-0.504193	9.68524	0.25732	-0.962457	0.110191	-0.0242151	-0.00132384	-1.03076	0.385986	0.182373	
55	-0.691967	0.642554	-0.104533	0.312058	2.57154	-9.17475	1.56969	0.054244	-0.0452425	-0.050901	0.152588	0.987061	0.128418	0.0494406	-0.501039	0.347711	-0.790957	7.59891	-5.89337	2.6541	0.090014	-0.00144829	-0.0107544	-0.414551	0.73999	0.104736	0.34339	-0.0279269	0.750355	-0.564155	-4.80224	-8.72924	-1.34802	0.140393	-0.0656465	0.0631513	0.0339355	0.848877	0.322021	-0.0189859	0.0527383	0.500972	-0.863646	-0.91042	-8.7308	4.86109	-0.0898576	0.0441415	0.0608071	-0.303955	0.882568	-0.532959	-0.133018	-0.136019	-0.342969	0.919879	-3.39717	-5.63053	7.29182	-0.252282	0.0228794	0.074878	-0.0292969	0.665771	-0.71875	0.466951	0.134097	0.677874	-0.55178	-7.24665	-6.08308	0.944391	-0.11561	0.0214266	0.058994	0.43457	0.763672	0.431885	-0.498147	0.645164	0.387212	0.430907	9.24746	-3.1015	-1.29188	-0.0193483	-0.0153269	-0.0257322	-0.700195	0.663574	0.189697	0.241011	-0.619746	-0.395868	-0.633338	9.65114	1.71688	-1.0455	0.0565466	0.0407088	-0.0408324	-1.02808	0.223145	0.166016	0.417027	-0.471441	-0.599499	-0.494401	9.55059	2.00382	-1.50699	0.0512114	-0.0118634	-0.0138427	-1.0647	0.154053	0.134521	-0.338095	0.612122	0.432489	0.569168	9.74487	0.707583	-1.07863	0.118699	0.0804453	0.0176769	-0.940674	0.31958	0.276855	0.423168	-0.55213	-0.5136	-0.50229	9.87493	0.528565	-1.35649	0.0805301	-0.0564236	-0.0361105	-1.03076	0.385986	0.177979	
56	-0.692222	0.642791	-0.102793	0.311578	2.54074	-9.28804	1.49508	0.0185433	-0.0733869	-0.0363348	0.141602	0.986816	0.132812	0.0499384	-0.501384	0.34601	-0.791452	7.49461	-5.8736	2.72575	0.0649555	0.00381407	-0.0534606	-0.42334	0.742188	0.107178	0.344213	-0.0275669	0.749942	-0.56422	-4.60078	-8.14185	-1.13792	-0.0838127	-0.0172929	0.00207288	0.029541	0.846924	0.322021	-0.0181879	0.0547062	0.499681	-0.864289	-0.73576	-8.1317	4.76337	0.0527229	0.0464469	0.0711513	-0.301514	0.880371	-0.530762	-0.135239	-0.137047	-0.347069	0.917863	-3.14666	-5.84884	7.02144	-0.129845	0.0439619	0.0583248	-0.029541	0.670166	-0.716309	0.46845	0.134237	0.678916	-0.549189	-7.06971	-5.61868	0.610431	-0.103952	0.00222139	0.0573864	0.439209	0.759277	0.436279	-0.497299	0.645488	0.387827	0.430848	9.17564	-3.03756	-1.16006	0.0327338	-0.0196572	-0.0514166	-0.70459	0.665771	0.19165	0.24231	-0.618543	-0.397096	-0.63325	9.4196	1.83982	-0.671175	0.0776402	0.0556286	-0.0294711	-1.03223	0.21875	0.166016	0.417255	-0.471292	-0.600241	-0.493449	9.44304	1.82627	-1.69142	0.0598165	-0.0102427	-0.0187998	-1.0647	0.151855	0.132324	-0.339605	0.611105	0.433238	0.568792	9.58788	0.870826	-1.4594	0.0676436	0.0268103	-0.00415981	-0.936279	0.322021	0.267822	0.423148	-0.551803	-0.515282	-0.500943	9.77574	0.630643	-1.50909	0.0425331	-0.0389463	-0.0270046	-1.03296	0.385986	0.180176	
57	-0.692384	0.643129	-0.101342	0.310996	2.5878	-9.32814	1.45622	0.00815988	-0.0626712	-0.00623648	0.150391	0.986816	0.130615	0.0501593	-0.501299	0.344716	-0.792057	7.43672	-5.88988	2.56929	0.0511653	0.0158148	-0.0280701	-0.412109	0.735596	0.102539	0.345099	-0.026647	0.749814	-0.563893	-4.50249	-8.14191	-1.33216	0.0698542	0.0191722	0.0713442	0.0314941	0.853516	0.315186	-0.017486	0.0555977	0.500116	-0.863995	-0.655869	-8.4926	4.61601	-0.0140659	0.0316943	0.0451665	-0.301514	0.878174	-0.530518	-0.135637	-0.138934	-0.345423	0.918141	-3.38706	-5.78963	6.78437	0.10899	0.0427846	0.0213541	-0.020752	0.666016	-0.71875	0.469263	0.134405	0.678472	-0.549003	-6.87328	-5.61582	0.80765	0.0659502	-0.00133497	0.0100446	0.438965	0.763672	0.434082	-0.498325	0.644023	0.388969	0.430824	9.17966	-3.0296	-1.25171	0.0853459	0.0354935	-0.0469197	-0.702393	0.661377	0.189697	0.243019	-0.618297	-0.397981	-0.632663	9.48046	2.23963	-0.910589	0.0663682	-0.000535103	-0.0147829	-1.03223	0.220947	0.170654	0.417583	-0.470906	-0.600896	-0.492743	9.4247	2.07356	-1.60509	0.0225873	0.000320027	-0.0197645	-1.06274	0.158691	0.13208	-0.340604	0.610397	0.433479	0.568771	9.46805	0.929311	-1.2034	0.0319173	0.0439951	0.008137	-0.942871	0.323975	0.27002	0.423232	-0.551639	-0.51625	-0.500054	9.76925	0.569257	-1.60396	0.0560053	-0.0148599	-0.0102961	-1.02856	0.388184	0.180176	
58	-0.692233	0.643725	-0.100236	0.310457	2.71021	-9.30843	1.48175	-0.0175463	-0.0508054	-0.034057	0.14624	0.982422	0.130615	0.0495518	-0.501711	0.343572	-0.792331	7.48706	-5.73138	2.67938	0.00805415	0.0122531	-0.0735946	-0.416748	0.742188	0.102539	0.34517	-0.0273915	0.749922	-0.563671	-4.79549	-8.50279	-1.29055	-0.0260492	-0.0257912	-0.025553	0.0380859	0.855469	0.317383	-0.017199	0.0560478	0.499973	-0.864054	-0.9379	-8.16793	4.65836	0.00586668	0.0121847	0.0208777	-0.305908	0.880371	-0.526367	-0.135484	-0.138995	-0.34405	0.91867	-3.21096	-5.63422	7.1504	0.0226742	0.0168109	-0.0077241	-0.0251465	0.665771	-0.716309	0.469756	0.134174	0.678335	-0.548806	-7.21621	-5.56843	0.821511	-0.0323198	-0.00613349	-0.0318196	0.438965	0.761475	0.429932	-0.497972	0.643492	0.389366	0.431667	9.2145	-2.99936	-1.32344	0.00648676	0.0403054	-0.0651851	-0.702393	0.661377	0.1875	0.243097	-0.618149	-0.398077	-0.632717	9.49535	2.01029	-0.654402	-0.0276055	0.0164157	-0.0213231	-1.03467	0.2229	0.170654	0.417336	-0.471132	-0.600796	-0.492858	9.42031	1.95959	-1.65191	-0.00760954	0.00316224	-0.0193668	-1.06934	0.154053	0.141113	-0.340556	0.610405	0.434027	0.568373	9.72397	0.690957	-1.22747	0.00714013	-0.0102368	-0.003728	-0.940674	0.31958	0.272461	0.423949	-0.551325	-0.516554	-0.49948	9.7505	0.254048	-1.45591	0.0613354	0.0153584	0.0101693	-1.03076	0.385986	0.180176	
59	-0.691493	0.644574	-0.0994766	0.310589	2.83806	-9.20037	1.47141	-0.0338116	-0.0155247	-0.032498	0.143799	0.986816	0.13501	0.0491148	-0.50215	0.343176	-0.792252	7.69574	-5.8278	2.75679	0.00300989	-0.00729439	-0.0425775	-0.423096	0.735596	0.102783	0.344539	-0.0264097	0.748952	-0.56539	-4.85567	-8.1635	-1.39195	0.0913412	0.0194684	-0.0416391	0.0317383	0.849121	0.319824	-0.0175867	0.0561678	0.499386	-0.864378	-0.909917	-8.48005	4.6228	0.0721905	0.0249339	-0.00639296	-0.299316	0.880371	-0.530762	-0.135499	-0.138392	-0.345477	0.918223	-3.45188	-5.75967	6.96678	-0.0801327	-0.0218666	-0.0367001	-0.0251465	0.665771	-0.716309	0.469176	0.134697	0.677435	-0.550284	-7.21263	-5.68246	0.655499	0.10848	0.0216838	-0.0323963	0.438965	0.761475	0.432129	-0.496548	0.64434	0.389167	0.432221	9.20998	-2.83793	-1.3296	-0.0461445	-0.0279556	-0.0251999	-0.702393	0.661377	0.189697	0.241697	-0.619115	-0.396674	-0.633189	9.64256	1.9193	-0.90295	-0.0776645	-0.00132123	-0.000938044	-1.02808	0.223145	0.168457	0.416921	-0.471671	-0.600138	-0.493495	9.50669	1.8131	-1.57278	-0.0542245	0.0130906	-0.0135931	-1.0603	0.158691	0.138916	-0.340744	0.610372	0.433854	0.568427	9.58611	0.686912	-1.27793	0.0151641	0.0143662	0.0128977	-0.938232	0.31958	0.267822	0.425914	-0.549916	-0.518017	-0.497844	9.70196	0.428706	-1.45649	0.131525	0.0117446	0.00272416	-1.02612	0.388184	0.180176	
60	-0.690646	0.645218	-0.099906	0.311	2.77984	-9.12769	1.5672	-0.0854476	0.0313112	-0.027772	0.148193	0.984619	0.130615	0.0484933	-0.502454	0.342906	-0.792214	7.55119	-5.79177	2.73551	-0.0154985	0.00835994	-0.0765378	-0.418457	0.731201	0.102783	0.344232	-0.0267531	0.747699	-0.567216	-4.44052	-8.28627	-1.14571	0.0848505	0.0156713	-0.0230628	0.0314941	0.855469	0.314941	-0.0178475	0.0560349	0.498997	-0.864606	-0.704759	-8.23977	4.74709	0.0390986	0.00576792	-0.0184746	-0.294922	0.880371	-0.535156	-0.134824	-0.13773	-0.344466	0.918801	-3.42125	-5.87629	6.95072	0.104414	-0.0203175	-0.0400075	-0.0270996	0.661621	-0.71875	0.46853	0.135167	0.676698	-0.551624	-7.31904	-5.57119	0.770765	0.133861	0.0291759	-0.0618485	0.43457	0.765625	0.429688	-0.496412	0.644296	0.389379	0.432252	9.24735	-2.7358	-1.48433	0.0149293	0.00226928	-0.0364586	-0.70874	0.661377	0.189697	0.241358	-0.619484	-0.395988	-0.633387	9.52976	1.89737	-0.714591	-0.0614264	0.0107809	0.00790394	-1.03247	0.223145	0.168457	0.416004	-0.4726	-0.599025	-0.494731	9.36685	2.15739	-1.64464	-0.109281	0.00964665	-0.0130928	-1.0625	0.154053	0.134521	-0.340767	0.610523	0.433713	0.56836	9.5846	0.755039	-1.09101	-0.00738284	0.00691907	0.0178661	-0.940674	0.321777	0.27002	0.426698	-0.549284	-0.51859	-0.497273	9.73208	0.836344	-1.68598	0.105393	0.0212181	-0.00685769	-1.03296	0.388184	0.171143	
61	-0.688654	0.647351	-0.0998588	0.310998	2.40599	-9.58134	1.34664	-0.0976549	-0.0543006	-0.0411875	0.136963	0.98877	0.136963	0.0472374	-0.503877	0.342455	-0.791582	7.61606	-5.9129	2.72976	-0.0152836	-0.0417821	-0.0748002	-0.425049	0.731201	0.102783	0.343929	-0.0270554	0.747826	-0.567219	-4.65345	-8.33438	-0.960953	-0.0100236	0.0107165	-0.0314177	0.0273438	0.849121	0.317627	-0.0179041	0.0553247	0.498908	-0.864702	-0.789187	-8.69343	4.77634	0.00587687	-0.0333268	-6.4938e-05	-0.303711	0.880371	-0.535156	-0.134383	-0.137194	-0.342687	0.919611	-3.19441	-5.7309	6.9175	0.07289	-0.0326009	-0.0209081	-0.03125	0.659424	-0.720947	0.466504	0.137071	0.673614	-0.556623	-7.2297	-6.01253	0.584813	0.34849	0.0306914	-0.0860282	0.429932	0.772217	0.420898	-0.496331	0.643763	0.389213	0.433287	9.30647	-3.20593	-1.24496	0.0174718	0.0702971	-0.0362953	-0.707031	0.667969	0.1875	0.240259	-0.620205	-0.394433	-0.634069	9.52833	1.80426	-0.885581	-0.0723841	0.0117311	-0.00890524	-1.02783	0.216553	0.170898	0.415662	-0.472931	-0.598526	-0.495306	9.48433	1.89416	-1.69464	-0.0663431	0.0171997	-0.0171848	-1.0603	0.156494	0.134277	-0.340279	0.610819	0.433506	0.568491	9.59984	1.01507	-1.17161	-0.018609	-0.0110821	-0.00655587	-0.94043	0.317383	0.274658	0.425198	-0.550457	-0.515995	-0.499954	9.78734	0.584254	-1.47919	-0.209507	0.0543653	0.00375141	-1.03271	0.383545	0.17334	
62	-0.687073	0.649156	-0.0989267	0.311033	2.60055	-9.51176	1.44932	-0.0849746	-0.0333403	-0.0492837	0.143799	0.982422	0.141357	0.0469119	-0.505345	0.341924	-0.790894	7.45068	-5.90876	2.4202	0.0135996	-0.0526288	-0.0561798	-0.427002	0.729004	0.109863	0.343418	-0.0274632	0.749201	-0.565693	-4.63398	-8.67785	-1.51373	-0.0453824	0.0621008	0.0126177	0.029541	0.851318	0.319824	-0.0170983	0.0539969	0.50127	-0.863435	-0.701776	-8.53624	4.92204	-0.11898	-0.0530991	-0.025915	-0.301514	0.878174	-0.52832	-0.133854	-0.1373	-0.341358	0.920167	-3.23536	-6.194	6.93079	0.119994	0.00921165	-0.0369766	-0.0227051	0.659424	-0.720947	0.466625	0.135706	0.672242	-0.558512	-7.07256	-5.35182	0.829801	-0.0869575	-0.0570956	-0.0720064	0.429688	0.778809	0.420898	-0.497418	0.642492	0.389631	0.433552	9.12801	-2.95395	-1.57301	0.0537166	0.0565823	-0.0462578	-0.710938	0.661377	0.191895	0.240888	-0.619868	-0.395248	-0.633653	9.55419	1.78606	-0.768703	0.0480812	0.00894333	-0.0137655	-1.03247	0.223145	0.170654	0.415472	-0.473007	-0.598295	-0.495672	9.34192	1.9606	-1.43703	-0.021895	0.00688364	-0.0207178	-1.05786	0.154297	0.132324	-0.3379	0.612211	0.432337	0.569303	9.8743	0.50002	-1.10735	-0.127873	-0.0139889	-0.0130957	-0.938232	0.315186	0.281494	0.423729	-0.55149	-0.514043	-0.502068	9.77627	0.263594	-1.1497	-0.102941	0.0307004	-0.0121087	-1.0332	0.392578	0.175537	
63	-0.686155	0.650415	-0.0976957	0.310815	2.6836	-9.5285	1.32978	-0.0231589	-0.061666	-0.0495626	0.143799	0.984619	0.145752	0.0469365	-0.50662	0.341844	-0.790112	7.71219	-5.78029	2.6149	-0.0286405	-0.0447028	-0.0275162	-0.429443	0.731201	0.109863	0.344087	-0.0284033	0.749478	-0.564871	-4.41808	-8.0786	-0.875799	-0.0960813	-0.0589334	-0.0109761	0.0317383	0.851318	0.319824	-0.0171254	0.0531456	0.50221	-0.862941	-0.835195	-8.2764	4.89354	-0.0856134	-0.0310827	0.00564772	-0.310547	0.882324	-0.526367	-0.134125	-0.135669	-0.337697	0.921719	-3.21124	-5.29021	7.23516	0.118483	-0.0907217	0.00468857	-0.0332031	0.650635	-0.723145	0.46701	0.133897	0.673997	-0.556509	-7.45044	-6.12559	0.382063	-0.111916	0.00210123	-0.0198244	0.432373	0.767822	0.421143	-0.495711	0.643757	0.388864	0.434318	9.45889	-2.97755	-1.2789	-0.0924488	0.0599774	-0.0149247	-0.70874	0.65918	0.185547	0.240714	-0.619554	-0.39457	-0.634448	9.57156	2.14578	-0.848855	-0.0571206	0.0447611	-0.0232949	-1.03027	0.225342	0.166016	0.415785	-0.472516	-0.599016	-0.495006	9.48628	2.02087	-1.58317	0.0678009	-0.00061506	-0.026631	-1.0603	0.156494	0.134277	-0.338266	0.611699	0.431649	0.570158	9.66753	0.570397	-1.17891	0.0278181	0.0664045	0.0205929	-0.935791	0.31543	0.2771	0.422409	-0.552308	-0.513229	-0.503113	9.74919	0.157462	-1.4239	-0.0623782	-0.00800565	-0.013844	-1.03296	0.385986	0.180176	
64	-0.685867	0.651147	-0.0960473	0.310433	2.69787	-9.61683	1.18766	0.00211968	-0.0665202	-0.0306426	0.139404	0.982422	0.143555	0.0475099	-0.506944	0.341498	-0.790019	7.58602	-6.00406	2.43092	0.0532888	-0.010429	-0.0150895	-0.427002	0.729004	0.107666	0.343197	-0.0279998	0.74993	-0.564834	-4.71181	-8.55527	-1.52184	0.0371747	0.0354211	-0.00224476	0.029541	0.853271	0.328857	-0.0164767	0.0525397	0.503672	-0.862139	-0.530156	-8.83621	4.83745	-0.00124335	-0.0164632	0.00727401	-0.30835	0.884521	-0.526367	-0.135082	-0.134397	-0.341701	0.920288	-3.32466	-6.32122	7.1882	-0.226481	-0.00203564	-0.00913429	-0.0334473	0.656982	-0.71875	0.468925	0.129895	0.676661	-0.5526	-7.20359	-5.91485	0.777702	-0.275078	-0.0331017	-0.0231424	0.436768	0.761475	0.429932	-0.495704	0.642873	0.3894	0.435154	9.14132	-3.01086	-1.30728	0.0201581	0.0319982	-0.0532032	-0.712891	0.65918	0.187744	0.240388	-0.619529	-0.394474	-0.634656	9.24184	1.64157	-0.73165	0.000656318	0.021966	-0.019613	-1.02808	0.223145	0.170654	0.415833	-0.472317	-0.599217	-0.494913	9.3213	1.93975	-1.70068	0.01456	0.0104123	-0.0261596	-1.06006	0.154053	0.136719	-0.338437	0.611768	0.431491	0.570101	9.62717	0.882821	-1.07296	-0.004416	0.0065464	-0.00242889	-0.942627	0.312988	0.2771	0.423107	-0.551599	-0.513972	-0.502545	9.83691	0.55449	-1.35066	0.0509049	0.0191844	-0.00784779	-1.03516	0.385742	0.182373	
65	-0.686052	0.650787	-0.0947014	0.311194	2.81208	-9.28366	1.26597	0.0262006	0.000684995	-0.0639081	0.13916	0.986816	0.13916	0.0484492	-0.507243	0.340447	-0.790223	7.63746	-5.7578	2.56115	0.0251323	0.00473615	-0.00752367	-0.427002	0.729004	0.103027	0.343263	-0.0297684	0.749545	-0.565213	-4.6173	-8.55313	-1.25394	0.0372627	-0.0399282	-0.0856583	0.0317383	0.849121	0.322021	-0.0155043	0.0536803	0.502616	-0.862702	-0.859176	-8.49901	4.53344	0.0535873	0.0266506	0.0748866	-0.301514	0.882568	-0.528564	-0.136525	-0.134214	-0.339807	0.920803	-3.1777	-5.54364	7.17113	0.130945	-0.0372043	0.0609454	-0.0310059	0.652832	-0.725586	0.470384	0.126629	0.679475	-0.548651	-7.33049	-5.8992	0.231306	-0.234686	-0.0322981	-0.00956859	0.434814	0.761475	0.438477	-0.495965	0.642124	0.389978	0.435445	9.33996	-2.94402	-1.1912	0.0110542	0.0241708	-0.0361241	-0.715332	0.663574	0.189697	0.240989	-0.619461	-0.395469	-0.633874	9.60619	2.07123	-0.813329	0.0630811	-0.00778986	-0.0294167	-1.03003	0.21875	0.166016	0.416154	-0.471733	-0.599454	-0.494913	9.45156	2.00447	-1.54209	0.0314137	0.0265627	-0.0325473	-1.06006	0.154053	0.134521	-0.338654	0.611253	0.432181	0.570003	9.74263	0.573306	-1.16518	0.0285249	0.0234682	-0.0154831	-0.938232	0.31958	0.272461	0.42403	-0.550817	-0.514728	-0.501851	9.82382	0.64614	-1.41635	0.0834473	0.0132436	-0.0114031	-1.03296	0.385986	0.180176	
66	-0.686025	0.650855	-0.0932656	0.311544	2.97522	-9.25512	1.28622	0.0238442	-0.0445159	-0.0402278	0.130371	0.98877	0.136963	0.0490453	-0.507352	0.340164	-0.790239	7.55916	-5.9817	2.74477	0.0120357	-0.00228596	-0.0127574	-0.425293	0.737793	0.100342	0.342851	-0.0293508	0.746844	-0.569048	-4.68549	-8.07463	-1.26951	0.134327	-0.0163945	-0.0459749	0.0229492	0.855713	0.312744	-0.0139108	0.054624	0.500313	-0.864008	-0.776705	-8.38273	4.70501	0.103885	-0.00378667	0.0844245	-0.301758	0.884766	-0.528564	-0.138652	-0.133727	-0.341733	0.919843	-3.23507	-5.98499	7.18791	-0.129818	-0.022743	0.0551134	-0.0356445	0.657227	-0.723389	0.47137	0.124589	0.680751	-0.546686	-7.18472	-5.74309	0.544919	-0.231611	-0.048556	-0.0238185	0.432617	0.759277	0.442871	-0.495285	0.642617	0.390431	0.435086	9.28869	-3.03303	-1.46826	0.0207924	-0.0598363	-0.0246742	-0.712891	0.656982	0.185547	0.240934	-0.619205	-0.395785	-0.633948	9.6637	1.9358	-0.648406	0.0022308	0.0450973	-0.0243913	-1.02808	0.225098	0.177734	0.41634	-0.471211	-0.599917	-0.494693	9.48221	1.90417	-1.58589	0.0307431	0.006508	-0.0322862	-1.06934	0.151611	0.134521	-0.338847	0.611005	0.43302	0.569516	9.6923	0.680487	-1.2044	0.0389822	-0.00687152	-0.00341759	-0.945068	0.31958	0.27002	0.425122	-0.549855	-0.5159	-0.500777	9.69497	0.372532	-1.25139	0.107177	0.00104807	-0.013739	-1.0332	0.392578	0.177734	
67	-0.685713	0.650895	-0.093703	0.312014	2.54341	-9.253	1.38628	-0.0322273	0.015667	0.00961667	0.137207	0.984619	0.13916	0.0495747	-0.507965	0.339624	-0.790044	7.65506	-5.88245	2.57461	0.0249651	0.00361786	-0.0267668	-0.420898	0.735596	0.102783	0.342843	-0.0308876	0.746524	-0.569391	-4.51034	-8.71083	-1.24659	0.0403777	-0.0267935	-0.0300558	0.0229492	0.853516	0.312744	-0.0126122	0.0538023	0.50008	-0.864214	-0.74213	-8.78954	4.75197	0.0109648	-0.0462752	0.0260765	-0.299316	0.880371	-0.530762	-0.139224	-0.133487	-0.340935	0.920088	-3.36923	-5.45212	7.01573	0.0543096	-0.00958103	-0.0134825	-0.0290527	0.659424	-0.725586	0.471607	0.121647	0.681203	-0.546581	-7.0318	-5.80057	0.834742	0.066445	-0.0167284	-0.05965	0.432617	0.759277	0.445068	-0.495199	0.642224	0.391192	0.435081	9.31591	-2.83188	-1.00765	0.0167227	-0.0189514	-0.0479952	-0.710693	0.656982	0.187744	0.24112	-0.618958	-0.396276	-0.633812	9.51317	1.93772	-0.903066	0.0441057	0.00503064	-0.0266297	-1.03027	0.220947	0.170654	0.417023	-0.470247	-0.600843	-0.49391	9.48506	2.10883	-1.64502	0.0625964	0.017671	-0.0322613	-1.0647	0.154053	0.134521	-0.339864	0.610248	0.433396	0.569436	9.59342	0.830355	-1.1753	0.0504801	0.0327924	0.00515375	-0.94043	0.317383	0.272461	0.426023	-0.549027	-0.517182	-0.499597	9.72705	0.434621	-1.35759	0.11506	-0.00373248	-0.0141542	-1.0332	0.390381	0.17334	
68	-0.685743	0.651249	-0.0934194	0.311295	2.51407	-9.55421	1.24756	-0.0155998	-0.0656199	0.0212106	0.137207	0.982422	0.141357	0.0496908	-0.50791	0.339147	-0.790277	7.55441	-5.73396	2.61347	0.0341639	0.0223674	-0.0303428	-0.427246	0.731201	0.107666	0.343226	-0.0329184	0.747063	-0.568339	-4.68158	-8.8339	-1.18668	-0.0777197	-0.0582574	-0.0511355	0.0229492	0.85791	0.312744	-0.0119614	0.053546	0.499467	-0.864594	-0.959435	-8.45182	5.05561	0.0562206	-0.0403905	0.040924	-0.301758	0.886963	-0.526367	-0.138987	-0.133327	-0.340247	0.920401	-3.09101	-5.90128	7.0452	0.0489031	-0.0079803	-0.0101918	-0.0290527	0.656982	-0.714111	0.471349	0.12169	0.680227	-0.548008	-7.12585	-5.75204	0.471467	0.129226	-0.0188751	-0.0696565	0.432617	0.763672	0.44043	-0.495678	0.641408	0.392131	0.434894	9.09048	-2.81367	-1.50228	0.108666	0.0211738	-0.0353824	-0.712891	0.65918	0.18335	0.241821	-0.618567	-0.397276	-0.633301	9.56429	1.9581	-0.738451	0.0523815	0.0228093	-0.0268342	-1.03223	0.21875	0.168457	0.417461	-0.46954	-0.601215	-0.493761	9.36655	2.06346	-1.50807	0.0499699	0.0230794	-0.0352648	-1.0625	0.154053	0.134521	-0.340587	0.609831	0.434028	0.56897	9.60485	0.645998	-1.02849	0.045004	0.0187222	0.00118436	-0.942627	0.317383	0.270264	0.427435	-0.547624	-0.519067	-0.497972	9.73915	0.781841	-1.42878	0.107488	0.00219199	-0.0172485	-1.0354	0.390381	0.175537	
69	-0.685901	0.651317	-0.0926109	0.311045	2.92402	-9.35908	1.45048	0.0117468	-0.0320177	-0.0132588	0.136963	0.986572	0.141357	0.0502572	-0.507955	0.338895	-0.79032	7.6143	-5.83639	2.4912	-0.00813183	0.00881354	-0.00761961	-0.425049	0.733398	0.0981445	0.343783	-0.0320405	0.745833	-0.569666	-4.24355	-8.60767	-0.998568	0.164818	-0.0208289	0.038404	0.020752	0.855713	0.310547	-0.01152	0.0525982	0.50011	-0.864286	-0.617922	-8.66098	5.09792	-0.0393681	-0.0114027	0.00457081	-0.301758	0.886963	-0.532959	-0.139128	-0.133375	-0.33914	0.920782	-3.38323	-5.78414	7.02235	0.0922724	-0.009548	0.00820577	-0.03125	0.655029	-0.723145	0.471437	0.120474	0.679959	-0.548533	-7.04588	-6.03498	0.869445	-0.00800416	-0.00757822	-0.0411006	0.430664	0.75708	0.442871	-0.496034	0.641056	0.392302	0.434852	9.22311	-2.86516	-1.28024	0.0524616	0.0262957	-0.0239146	-0.717285	0.65918	0.185547	0.241799	-0.618386	-0.397383	-0.633419	9.4376	1.96189	-0.621864	0.00769254	0.0294333	-0.0309653	-1.02588	0.21875	0.168457	0.417594	-0.469216	-0.601431	-0.493692	9.39929	2.03423	-1.59024	0.0329562	0.0179703	-0.0355658	-1.06226	0.151855	0.136719	-0.340913	0.609483	0.434403	0.568861	9.67263	0.700324	-1.27483	0.046328	0.0242703	-0.00959251	-0.938232	0.31958	0.267822	0.427297	-0.547597	-0.519149	-0.498036	9.79672	0.770181	-1.42012	-0.00184759	0.00341892	-0.0186367	-1.03296	0.388184	0.168701	
70	-0.685948	0.651778	-0.0911008	0.310421	2.75207	-9.2405	1.26017	0.0128193	-0.0874154	-0.0236185	0.134766	0.986572	0.136963	0.0502521	-0.507907	0.339379	-0.790144	7.69544	-5.85185	2.5628	-0.0180433	0.0169071	0.00462148	-0.425049	0.733398	0.102783	0.343549	-0.0332046	0.74634	-0.569077	-4.67545	-8.64082	-1.09373	-0.106389	-0.0559983	-0.0603466	0.0185547	0.85791	0.314941	-0.0116811	0.0525655	0.498709	-0.865095	-0.859932	-8.32875	4.90681	0.0819497	-0.00316736	-0.0121184	-0.301514	0.880371	-0.532959	-0.139723	-0.133096	-0.33798	0.921158	-3.10986	-5.42395	7.22597	0.0083712	-0.00310669	0.0110966	-0.0266113	0.652832	-0.730225	0.471606	0.120679	0.68043	-0.547758	-7.16549	-5.83619	0.719708	-0.0476957	0.0198611	0.00673645	0.432861	0.75708	0.445068	-0.497158	0.639998	0.392566	0.434889	9.33904	-2.99571	-1.2885	0.102305	0.0494995	-0.0219242	-0.708496	0.652588	0.181396	0.241957	-0.618231	-0.398179	-0.633009	9.55899	1.93192	-0.838867	0.0535356	0.00960165	-0.0288632	-1.03027	0.220947	0.170654	0.417857	-0.468622	-0.601769	-0.493623	9.41414	1.94693	-1.57933	0.0366106	0.019332	-0.0348994	-1.05762	0.151855	0.130127	-0.341437	0.608838	0.435643	0.568289	9.64951	0.874431	-0.945324	0.0466447	-0.0105245	-0.0165388	-0.94043	0.317383	0.270264	0.4277	-0.547026	-0.519657	-0.497786	9.76146	0.518122	-1.33045	0.065847	0.0188893	-0.0164632	-1.03076	0.388184	0.168701	
71	-0.685747	0.652425	-0.0903557	0.309723	2.96532	-9.52093	1.15929	-0.0218885	-0.0367476	0.00411252	0.136963	0.98877	0.141357	0.0501279	-0.507346	0.339962	-0.790262	7.60526	-5.7409	2.69304	-0.042514	0.0307178	-0.0178819	-0.420654	0.731201	0.105225	0.343172	-0.0328115	0.746535	-0.569071	-4.45084	-8.3003	-1.29121	0.0225137	0.0748155	0.00465801	0.0229492	0.851318	0.317383	-0.0114423	0.0526923	0.499264	-0.86477	-0.655972	-8.48732	4.991	-0.0348401	0.00745944	0.0120183	-0.303955	0.886963	-0.530762	-0.140028	-0.132711	-0.342253	0.919588	-3.36191	-5.87671	7.14621	-0.214291	0.0180061	-0.0223248	-0.0314941	0.661621	-0.720947	0.471475	0.120898	0.680777	-0.547391	-7.13676	-5.70498	0.626859	0.0338008	0.048444	-0.0156862	0.432373	0.765869	0.438232	-0.500334	0.637028	0.393575	0.434695	9.19054	-2.7195	-1.24217	0.165851	0.0934821	-0.0286532	-0.717041	0.654785	0.175049	0.242491	-0.617849	-0.39928	-0.632484	9.62448	1.99892	-0.610498	0.0534748	0.0163652	-0.0321357	-1.03442	0.21875	0.168457	0.418095	-0.467786	-0.602476	-0.49335	9.42311	1.99929	-1.48294	0.041475	0.00950305	-0.0338147	-1.06006	0.151855	0.138916	-0.341533	0.608497	0.436366	0.568041	9.78161	0.628057	-1.22305	0.0340726	0.0194652	-0.0149036	-0.938232	0.317383	0.274658	0.427649	-0.546925	-0.519729	-0.497867	9.76902	0.293007	-1.27304	-0.0135448	0.00307752	-0.0131551	-1.0376	0.390137	0.168701	
72	-0.685977	0.651878	-0.0902277	0.310403	3.06363	-9.30703	1.17689	0.0316027	0.0347568	-0.0254302	0.134766	0.986572	0.13916	0.0493783	-0.507303	0.341029	-0.789876	7.65269	-5.8578	2.65486	-0.0429472	0.021374	-0.00851011	-0.425293	0.735596	0.10498	0.343733	-0.0333409	0.746048	-0.56934	-4.53755	-8.54218	-1.03333	0.0326611	-0.0777096	0.0143131	0.0187988	0.855713	0.315186	-0.0125603	0.0519548	0.498688	-0.865132	-0.759876	-8.50949	4.67244	0.0257514	-0.000628146	-0.0577505	-0.308105	0.880371	-0.530762	-0.140377	-0.131695	-0.343511	0.919212	-3.31499	-5.72326	7.11103	-0.0350001	-0.0220646	-0.0273502	-0.0380859	0.665771	-0.71875	0.471483	0.120553	0.681808	-0.546177	-7.26347	-5.96766	0.806843	-0.0756383	0.0295057	-0.00465964	0.430664	0.754883	0.440918	-0.502604	0.635603	0.39337	0.434348	9.23446	-2.98538	-1.06996	0.0868281	0.0645979	0.0196373	-0.70874	0.65918	0.170654	0.243036	-0.617207	-0.400175	-0.632336	9.49108	1.97272	-0.802205	0.0482084	0.024656	-0.0337929	-1.02588	0.220947	0.163574	0.41792	-0.467693	-0.60285	-0.493131	9.41876	1.88369	-1.62296	0.0114881	-0.00434076	-0.0284018	-1.05542	0.151855	0.127686	-0.34226	0.607909	0.437148	0.567633	9.68908	0.705813	-1.0978	0.0376417	0.0155817	-0.00953011	-0.942871	0.31958	0.260986	0.428454	-0.546061	-0.52102	-0.496772	9.88002	0.490796	-1.4347	0.0718765	-0.00227676	-0.0169205	-1.0332	0.390381	0.175537	
73	-0.686104	0.651132	-0.0910999	0.311431	2.913	-9.27525	1.25569	0.0211029	0.0558112	0.0103905	0.134766	0.98877	0.13916	0.049338	-0.506435	0.341018	-0.790441	7.59992	-5.72683	2.48453	0.019728	0.0484889	-0.0113471	-0.427246	0.735596	0.102783	0.343219	-0.0338471	0.747299	-0.567978	-4.55605	-8.35731	-1.1811	-0.117507	0.0462872	-0.0231855	0.0209961	0.851318	0.317383	-0.0125236	0.0517835	0.499235	-0.864827	-0.767658	-8.54732	4.81566	-0.0485004	-0.00714175	-0.00358696	-0.301514	0.880371	-0.530762	-0.139878	-0.131997	-0.342302	0.919696	-3.30463	-5.89947	6.99533	0.0915098	0.0175829	-0.00845061	-0.0358887	0.663574	-0.714111	0.471034	0.121086	0.681029	-0.547417	-7.30801	-5.74032	0.388471	0.084924	0.00291282	-0.0402642	0.432617	0.759277	0.440674	-0.504089	0.634988	0.393935	0.433013	9.27992	-2.77601	-0.930469	0.118526	0.0130988	-0.00351741	-0.713135	0.663574	0.17041	0.242771	-0.617216	-0.400341	-0.632324	9.48083	2.04326	-0.716738	-0.000614991	0.00728223	-0.0228348	-1.02783	0.214355	0.16626	0.417716	-0.467652	-0.603067	-0.493077	9.39429	2.04899	-1.51776	-0.0131482	0.00121135	-0.0243638	-1.06006	0.154053	0.13208	-0.342488	0.60783	0.437982	0.566936	9.5845	0.833046	-1.33403	0.0499644	-0.0141379	0.0011542	-0.94043	0.315186	0.270264	0.429153	-0.545448	-0.521983	-0.49583	9.66292	0.514324	-1.43927	0.0749938	-0.00392292	-0.0129665	-1.03516	0.383545	0.168701	
74	-0.686178	0.650202	-0.0929339	0.312666	2.75184	-9.11365	1.49141	-0.00517186	0.0938877	0.015075	0.134766	0.986572	0.134766	0.0489294	-0.506551	0.341651	-0.790118	7.62362	-5.75803	2.6543	-0.0804586	0.00094026	-0.0241492	-0.422852	0.731201	0.109863	0.34369	-0.0330008	0.746635	-0.568617	-4.60414	-8.2469	-1.27949	0.123483	-0.00457191	0.0589832	0.0251465	0.85791	0.31958	-0.0120992	0.0509033	0.500098	-0.864386	-0.807612	-8.41477	4.98332	-0.0384049	-0.0359379	-0.00359678	-0.30835	0.882324	-0.526367	-0.139978	-0.131401	-0.341731	0.919978	-3.1847	-5.58585	7.04563	-0.0258169	-0.0345817	-0.011876	-0.0361328	0.667969	-0.716309	0.471013	0.120575	0.681577	-0.546865	-7.0567	-5.6449	0.608846	-0.108521	0.0268148	-0.00482265	0.432617	0.763672	0.447021	-0.504761	0.634504	0.393249	0.433561	9.36953	-2.90504	-1.12202	-0.0490118	0.0657209	-0.000236625	-0.715088	0.65918	0.159912	0.24219	-0.617491	-0.399814	-0.632612	9.51499	2.13764	-0.758074	-0.0408314	0.0271319	-0.0178216	-1.03223	0.21875	0.166016	0.416786	-0.46845	-0.602507	-0.49379	9.37944	2.21356	-1.54752	-0.0605774	-0.0110848	-0.0195856	-1.05981	0.149658	0.134521	-0.342805	0.607655	0.438462	0.566561	9.66232	0.92794	-1.29236	0.0198844	0.0049666	-0.00086624	-0.938232	0.317383	0.267822	0.429906	-0.544717	-0.522989	-0.494921	9.79218	0.736403	-1.46712	0.0589523	0.000262699	-0.015239	-1.03516	0.385742	0.166504	
75	-0.685616	0.650895	-0.0940758	0.312115	2.60919	-9.57038	1.31937	-0.0525553	-0.0258561	0.0389922	0.137207	0.982422	0.141357	0.0484023	-0.506676	0.342341	-0.789771	7.78058	-5.94986	2.73407	-0.0793874	0.00773346	-0.0251856	-0.427246	0.735596	0.102783	0.343292	-0.034624	0.747517	-0.567601	-4.60448	-8.78425	-1.07962	-0.0864807	-0.0431944	-0.0782773	0.0251465	0.853516	0.31958	-0.0126722	0.0511432	0.500604	-0.864071	-0.762366	-8.41574	4.37494	0.0251602	0.0358826	0.00163986	-0.303955	0.882568	-0.526367	-0.140485	-0.130774	-0.3426	0.919667	-3.17179	-5.65894	7.24198	-0.083229	-0.0392664	0.00394639	-0.0314941	0.661377	-0.716309	0.471129	0.119657	0.682679	-0.54559	-7.45298	-6.13192	0.677509	-0.0357998	0.0129515	-0.0404456	0.430664	0.75708	0.449219	-0.505162	0.634512	0.392165	0.434065	9.3886	-3.14596	-1.02636	0.0491768	0.021424	0.00988541	-0.710938	0.65918	0.162109	0.241704	-0.617508	-0.399203	-0.633167	9.48848	1.73335	-1.01017	-0.0323971	0.0245569	-0.0199829	-1.02563	0.214355	0.161377	0.416168	-0.468862	-0.602186	-0.494312	9.47224	1.93377	-1.67085	-0.0138223	0.00440691	-0.0257637	-1.06226	0.149658	0.134521	-0.342685	0.607798	0.438383	0.566541	9.55257	0.889657	-1.26464	-0.0124682	0.00317573	0.00685676	-0.947266	0.321777	0.272217	0.42954	-0.544837	-0.522672	-0.495441	9.79676	0.512589	-1.53507	-0.0283147	0.0198781	-0.00986504	-1.04199	0.390137	0.170898	
76	-0.685453	0.651416	-0.0946022	0.311226	2.8562	-9.70899	1.29765	-0.0171747	-0.00803257	0.0311251	0.13916	0.98877	0.143555	0.0480541	-0.506379	0.342878	-0.78975	7.68903	-5.94772	2.53501	-0.0153271	0.0270661	-0.0118159	-0.420654	0.733398	0.114502	0.342484	-0.0344277	0.748439	-0.566885	-4.66739	-8.2432	-1.46341	-0.0401283	0.0920448	-0.0060473	0.0144043	0.851562	0.319824	-0.0123262	0.0508828	0.500462	-0.864174	-0.760622	-8.84971	5.18975	-0.0509293	-0.0123883	0.0460337	-0.306152	0.884521	-0.521973	-0.139968	-0.130301	-0.34443	0.919129	-3.34852	-6.01127	7.14725	0.0930587	0.00766502	-0.055899	-0.0336914	0.663574	-0.714111	0.471023	0.119491	0.680728	-0.54815	-7.32791	-5.82042	0.557479	0.12884	-0.0500893	-0.0593848	0.428223	0.761475	0.442871	-0.506621	0.633214	0.392758	0.433725	9.04619	-2.95404	-1.45758	0.126564	-0.0123557	-0.0406786	-0.715576	0.665771	0.157715	0.241638	-0.617539	-0.399417	-0.633026	9.51282	1.92971	-0.655342	0.0197441	0.0125168	-0.022468	-1.03223	0.216553	0.166016	0.415416	-0.46929	-0.601667	-0.49517	9.42687	1.98492	-1.62442	-0.0496331	0.00713424	-0.0295484	-1.05981	0.14502	0.134521	-0.341736	0.608372	0.439476	0.565651	9.76573	0.478345	-1.17705	0.0641441	-0.0505684	-0.0200933	-0.94043	0.317383	0.265625	0.429352	-0.544773	-0.522272	-0.496096	9.81399	0.865218	-1.41671	-0.0365511	0.0244589	-0.0151314	-1.03516	0.385742	0.171143	
77	-0.685697	0.65104	-0.0946219	0.31147	2.79474	-9.67934	1.3367	0.0355528	0.017379	-0.00483494	0.132812	0.984375	0.145508	0.0475562	-0.506745	0.342835	-0.789565	7.61013	-5.83362	2.52072	-0.0196262	-0.0102734	-0.0403654	-0.422852	0.733398	0.109863	0.342582	-0.0349417	0.748508	-0.566703	-4.70195	-9.15339	-1.42249	-0.0235129	-0.0249016	-0.0203745	0.0187988	0.853516	0.322021	-0.0117138	0.0514835	0.500483	-0.864135	-0.619466	-8.47517	4.74015	0.0617469	0.00907391	0.00309523	-0.299316	0.882568	-0.528564	-0.139207	-0.130476	-0.34254	0.919926	-3.17922	-6.0494	6.93578	0.171001	0.011113	-0.0508769	-0.0336914	0.661377	-0.714111	0.471329	0.119034	0.680158	-0.548693	-7.05424	-5.85904	0.76514	0.0386957	-0.0474467	-0.0426424	0.428467	0.759277	0.445068	-0.50678	0.633129	0.393014	0.433429	9.208	-3.01127	-0.884201	0.0425018	-0.00566103	-0.0161281	-0.719727	0.663574	0.161865	0.241692	-0.617375	-0.399787	-0.632932	9.57199	2.04919	-0.712629	0.0306817	0.0151411	-0.0355416	-1.03003	0.216553	0.168457	0.41543	-0.469034	-0.601957	-0.495048	9.3639	1.99324	-1.59122	0.0315509	0.00505314	-0.0377274	-1.05981	0.147217	0.134521	-0.342021	0.607943	0.440509	0.565136	9.84823	0.8027	-1.01566	0.0897298	-0.0115985	-0.0354387	-0.940674	0.31958	0.272461	0.428322	-0.54551	-0.521341	-0.497154	9.84341	0.729432	-1.13505	-0.148522	0.013826	-0.0116549	-1.03271	0.383545	0.166504	
78	-0.686143	0.650083	-0.0946594	0.312473	2.52019	-9.31648	1.29318	0.0281357	0.0269532	-0.00518981	0.132568	0.98877	0.13916	0.0477374	-0.506828	0.342583	-0.78961	7.62891	-6.14129	2.42931	0.0132633	0.011412	-0.0126345	-0.425049	0.733398	0.107422	0.343549	-0.0346826	0.747802	-0.567066	-4.12369	-8.35009	-0.938074	0.0680031	-0.061511	0.0479413	0.0229492	0.855713	0.317383	-0.0113507	0.0523101	0.501059	-0.863756	-0.674228	-8.37381	4.90353	-0.0322021	0.0294246	0.0375155	-0.297119	0.882568	-0.530762	-0.138701	-0.131414	-0.338522	0.921355	-3.05916	-5.70781	7.29324	0.151536	0.0269213	0.00776249	-0.0356445	0.661621	-0.723389	0.471966	0.11972	0.679586	-0.548706	-7.26636	-5.78759	0.453485	0.0497303	0.0108623	0.0209703	0.428467	0.759277	0.445068	-0.507104	0.632767	0.394003	0.432681	9.41486	-2.98972	-1.07908	0.0669237	-0.0190545	-0.0433766	-0.70874	0.656982	0.162109	0.24272	-0.616542	-0.401579	-0.632216	9.48811	2.04136	-0.711305	0.118775	0.0256201	-0.0400002	-1.02783	0.21875	0.166016	0.416066	-0.46807	-0.603176	-0.493942	9.36027	2.09466	-1.57308	0.0856354	0.000436881	-0.0303124	-1.06445	0.14502	0.132324	-0.342224	0.607493	0.44149	0.564731	9.68708	0.917603	-1.17415	0.00529962	-0.00330847	-0.00719106	-0.942871	0.31958	0.274658	0.427975	-0.545726	-0.521474	-0.497076	9.73013	0.0383858	-1.03661	0.109909	-0.0082478	-0.0134989	-1.02832	0.385986	0.168701	
79	-0.687066	0.649261	-0.0944917	0.312204	2.82054	-9.33153	1.37851	0.051097	-0.00951847	0.0124532	0.134766	0.990967	0.134766	0.0478024	-0.506868	0.342435	-0.789645	7.69193	-5.67133	2.65422	-0.0230171	0.0165927	-0.0277258	-0.420898	0.735596	0.112061	0.343667	-0.0350512	0.748589	-0.565931	-4.556	-8.72459	-1.15907	0.0179843	-0.0536969	0.0574351	0.0253906	0.849121	0.322021	-0.0115299	0.0520438	0.501181	-0.863699	-0.785837	-8.86519	5.02572	-0.0251985	-0.000668898	-0.011551	-0.303955	0.886719	-0.519775	-0.139308	-0.13086	-0.341418	0.920273	-3.31749	-5.50154	7.16409	-0.196935	-0.0129186	-0.00866828	-0.0378418	0.65918	-0.720947	0.472459	0.119356	0.680833	-0.546812	-7.19626	-5.78507	0.59052	-0.11667	0.0313021	0.0175502	0.432617	0.759277	0.440674	-0.506611	0.63261	0.394792	0.432769	9.3562	-2.84862	-1.12193	-0.00711588	0.00306779	-0.0455822	-0.717285	0.65918	0.159912	0.243593	-0.615961	-0.402721	-0.63172	9.54261	2.2524	-0.827692	0.0375174	0.0214081	-0.0311275	-1.03198	0.214355	0.161377	0.416315	-0.46773	-0.603776	-0.493321	9.48179	1.98992	-1.66668	0.0436411	-0.00152667	-0.0264596	-1.06226	0.147217	0.136719	-0.342584	0.607052	0.441755	0.56478	9.59335	0.600964	-1.34303	0.044619	0.0382378	-0.00616085	-0.94043	0.315186	0.270264	0.4289	-0.544943	-0.523104	-0.495424	9.7229	0.704198	-1.46258	0.0954811	-0.0227714	-0.0147567	-1.03979	0.387939	0.166504	
80	-0.687352	0.64891	-0.09431	0.312358	2.78776	-9.54064	1.36945	0.0280082	-0.00529326	-0.0196711	0.132812	0.984375	0.136963	0.0475544	-0.506538	0.342387	-0.789891	7.51724	-5.76894	2.64263	-0.00132517	0.028859	-0.0293633	-0.427246	0.733398	0.109863	0.34358	-0.0338696	0.749116	-0.565359	-4.74481	-8.40832	-1.51238	-0.032307	0.0297035	0.024019	0.0209961	0.853516	0.322021	-0.0109297	0.0525559	0.502612	-0.862844	-0.740827	-8.56851	4.60842	-0.0434592	0.0118828	0.0238629	-0.301758	0.886963	-0.52417	-0.139681	-0.130397	-0.34482	0.919013	-3.26566	-5.62409	7.15068	-0.29411	0.0139695	-0.0165754	-0.0358887	0.663574	-0.707275	0.473299	0.119268	0.681148	-0.545712	-7.33098	-5.95516	0.55695	-0.00403857	0.00209585	0.0155509	0.430664	0.75708	0.447266	-0.506682	0.632143	0.394821	0.433342	9.19477	-2.9179	-1.12227	0.0396629	0.0265262	-0.0328372	-0.717285	0.65918	0.159912	0.242995	-0.616223	-0.402748	-0.631678	9.45207	1.93833	-0.745622	-0.0233324	-0.00367953	-0.024453	-1.03223	0.21875	0.168457	0.416417	-0.467665	-0.603992	-0.493032	9.39639	2.12978	-1.49127	0.0179213	0.00316478	-0.0166537	-1.06421	0.140381	0.136963	-0.344074	0.606151	0.443032	0.563841	9.48461	0.887935	-1.18617	0.0875709	0.0044843	0.00473846	-0.947266	0.31958	0.27002	0.430224	-0.54386	-0.524535	-0.493951	9.72441	0.450125	-1.69978	0.105961	0.00880251	-0.00259789	-1.03296	0.388184	0.171143	
81	-0.687613	0.64832	-0.093716	0.313189	2.85829	-9.20867	1.42457	0.0169729	0.0168962	-0.0278095	0.132568	0.98877	0.130371	0.0474395	-0.506225	0.341889	-0.790315	7.6273	-5.75361	2.58886	0.0221355	0.0376399	-0.0322078	-0.425049	0.733398	0.109863	0.345362	-0.0337023	0.748707	-0.564825	-4.48347	-8.38438	-1.32098	0.0304356	-0.0494258	0.0504976	0.029541	0.853516	0.31958	-0.0116972	0.0527515	0.501787	-0.863302	-0.697202	-8.61659	4.86326	0.0290575	0.0319081	-0.018765	-0.299561	0.886963	-0.52417	-0.140702	-0.131894	-0.344475	0.918773	-3.47178	-5.86982	7.094	0.225344	0.0191102	0.0283674	-0.029541	0.667969	-0.716309	0.474379	0.11921	0.681491	-0.544356	-7.36898	-5.73538	0.651586	-0.0443022	-0.00513791	0.0310892	0.435059	0.752686	0.449463	-0.507203	0.63136	0.394754	0.433934	9.17981	-2.78568	-1.15064	0.0487741	0.0594593	-0.0303255	-0.719727	0.661377	0.153564	0.242621	-0.616534	-0.40231	-0.631797	9.46937	1.87992	-0.883507	-0.0158112	0.0104507	-0.00875121	-1.02759	0.209961	0.16626	0.415667	-0.468365	-0.603317	-0.493827	9.37533	1.85373	-1.58026	-0.0516679	0.00311985	-0.0198227	-1.05762	0.149658	0.134521	-0.343725	0.606411	0.442845	0.56392	9.60456	0.867141	-1.29539	-0.0309473	0.0081093	0.003783	-0.944824	0.317383	0.270264	0.430946	-0.543307	-0.525122	-0.493305	9.72423	0.615545	-1.43611	0.0175446	0.0081537	-0.00451593	-1.03979	0.390137	0.168701	
82	-0.686963	0.648543	-0.0932588	0.314286	2.68576	-9.35544	1.3991	-0.00794554	0.00146723	-0.0658927	0.132568	0.990967	0.134766	0.0470737	-0.506404	0.341474	-0.790401	7.53397	-5.80847	2.57007	0.00796501	0.0137717	-0.0632157	-0.427246	0.733398	0.105225	0.346148	-0.032959	0.748697	-0.564401	-4.83711	-8.48997	-1.28424	-0.0339188	-0.0090564	0.0419303	0.0273438	0.849121	0.324463	-0.0119908	0.0538242	0.500496	-0.863981	-0.89316	-8.5275	4.48303	0.0871337	0.0469319	0.0167085	-0.301514	0.882568	-0.526367	-0.140329	-0.132715	-0.343051	0.919244	-3.24448	-5.55069	7.13474	-0.0431687	0.0431266	0.00497588	-0.0358887	0.665771	-0.716309	0.47545	0.11937	0.680308	-0.544866	-7.25211	-5.6843	0.375566	0.0643372	-0.0410472	0.00340171	0.439453	0.750732	0.443115	-0.507127	0.631094	0.394329	0.434795	9.34166	-3.02502	-0.906886	-0.0489635	0.0243472	-0.0233762	-0.72168	0.661377	0.151367	0.242855	-0.616591	-0.402467	-0.631552	9.48232	2.08611	-0.707444	0.0101555	0.00741297	-0.0150398	-1.02783	0.214355	0.173096	0.415259	-0.46861	-0.60321	-0.494066	9.37206	2.07854	-1.6519	-0.0173376	6.32565e-05	-0.0222354	-1.05981	0.147217	0.132324	-0.343359	0.606683	0.442647	0.564008	9.74458	0.721853	-1.24443	-0.0230445	0.00723669	0.00680377	-0.936035	0.319824	0.27002	0.430792	-0.543211	-0.52528	-0.493377	9.84959	0.558996	-1.37211	0.00429626	0.00627849	-0.0172967	-1.03516	0.385742	0.166504	
83	-0.686711	0.648994	-0.0924492	0.314146	2.81827	-9.19349	1.27111	-0.0161661	-0.0397549	0.00226158	0.134766	0.990967	0.134766	0.0457155	-0.506555	0.341618	-0.790322	7.72009	-5.83927	2.57912	-0.0366394	0.0193856	-0.0511724	-0.429443	0.733398	0.107422	0.347435	-0.0328059	0.747471	-0.565243	-4.46451	-8.04017	-0.934957	0.0650861	-0.0161081	0.0136439	0.0339355	0.849121	0.315186	-0.011959	0.0541678	0.499636	-0.864457	-0.858081	-8.33555	4.60441	0.0796845	0.026782	0.0229268	-0.301758	0.884766	-0.528564	-0.1413	-0.133237	-0.344782	0.918372	-3.11506	-6.03091	7.01773	-0.0784676	0.0324528	0.0218614	-0.029541	0.67041	-0.720947	0.476557	0.11876	0.680268	-0.544082	-7.05627	-5.46309	0.526805	-0.070151	-0.0645463	0.0287151	0.435059	0.752686	0.447266	-0.506811	0.631118	0.393811	0.435597	9.32831	-3.11554	-0.93389	0.00961534	0.0305323	-0.0354068	-0.723877	0.661377	0.164062	0.242439	-0.616789	-0.40239	-0.631568	9.55204	2.00374	-0.894472	-0.0119867	0.0183989	-0.0157806	-1.03223	0.216553	0.166016	0.41526	-0.468451	-0.603577	-0.493769	9.43289	2.04671	-1.64758	0.0327021	-0.000274834	-0.026785	-1.06445	0.149414	0.138916	-0.343216	0.60672	0.442526	0.56415	9.68568	0.779248	-1.18389	-0.0183993	0.0163029	-0.00058406	-0.945068	0.317383	0.265625	0.430528	-0.543309	-0.525268	-0.493513	9.7947	0.510105	-1.46544	-0.0187409	-0.000968729	-0.0162201	-1.03296	0.385986	0.168701	
84	-0.686979	0.648728	-0.0931086	0.313916	2.88418	-9.3939	1.36443	0.0155249	0.0215049	0.0322556	0.134766	0.98877	0.134766	0.0452693	-0.506071	0.341661	-0.790639	7.52359	-5.95588	2.49025	0.0033313	0.0270848	-0.0186115	-0.429443	0.731201	0.100586	0.347645	-0.0326978	0.748231	-0.564113	-4.57174	-8.51326	-1.31248	-0.0395108	-0.00591599	0.0438069	0.029541	0.844727	0.322266	-0.0106753	0.0543371	0.500972	-0.86369	-0.872518	-8.22273	4.94425	-0.0531591	-0.024845	0.026873	-0.299561	0.886963	-0.52417	-0.14223	-0.133531	-0.344052	0.91846	-3.47133	-5.66342	6.70661	0.0747192	-0.0155768	0.0431377	-0.0270996	0.665771	-0.716309	0.477142	0.117915	0.680104	-0.543957	-7.08936	-5.38839	0.726437	0.0237432	0.00701302	-0.0452662	0.445801	0.754883	0.442871	-0.506766	0.630524	0.394163	0.436192	9.19348	-2.7879	-0.927268	-0.0186572	0.0277657	-0.0439969	-0.715088	0.65918	0.151367	0.242268	-0.616936	-0.402764	-0.631251	9.51022	2.05593	-0.783596	0.0284619	-0.00948523	-0.0297044	-1.02539	0.212158	0.168457	0.41519	-0.468504	-0.603747	-0.493568	9.39144	2.09626	-1.57718	0.00244701	-0.000850764	-0.018283	-1.05981	0.149658	0.136719	-0.342898	0.606892	0.44248	0.564194	9.68781	0.805716	-1.12371	-0.00917535	0.00689477	-6.65634e-05	-0.949219	0.315186	0.270264	0.43037	-0.543473	-0.525279	-0.493458	9.80215	0.358918	-1.43268	0.0115136	0.0022545	-0.00305841	-1.03516	0.385742	0.17334	
85	-0.687168	0.648396	-0.0936047	0.314039	2.88227	-9.43846	1.39467	0.017083	0.0368742	0.0247647	0.136963	0.990967	0.136963	0.045298	-0.505992	0.341703	-0.79067	7.6528	-5.64982	2.68996	-0.0133044	0.0199843	-0.0186249	-0.424805	0.729004	0.112305	0.348046	-0.0326587	0.747944	-0.56425	-4.64176	-8.27604	-1.12574	0.0277523	-0.0268981	0.0164392	0.0339355	0.851074	0.319824	-0.0107365	0.053946	0.50131	-0.863518	-0.887711	-8.54303	4.83954	-0.0321326	0.000420192	0.00243469	-0.297363	0.886963	-0.52417	-0.14327	-0.132342	-0.347186	0.91729	-3.14864	-5.555	7.30452	-0.248047	-0.00576867	-0.00848585	-0.0317383	0.670166	-0.702637	0.477943	0.116823	0.681963	-0.541156	-7.14771	-5.76589	0.749851	-0.175043	0.017112	0.0364546	0.439453	0.750732	0.449463	-0.506516	0.630638	0.393885	0.436568	9.24627	-2.82085	-0.946391	-0.0262803	0.0301493	-0.0244158	-0.72583	0.656982	0.153564	0.242267	-0.616868	-0.403011	-0.63116	9.57843	2.1007	-0.869036	0.0205383	0.0114152	-0.0292419	-1.02783	0.21875	0.168457	0.414972	-0.468678	-0.603692	-0.493655	9.3953	2.02859	-1.54704	-0.015261	-0.00386233	-0.0205619	-1.06226	0.149658	0.134521	-0.342646	0.60698	0.442471	0.56426	9.65938	0.603519	-1.18185	-0.0163467	0.0236828	0.000415818	-0.94043	0.317383	0.270264	0.430653	-0.543175	-0.52571	-0.49308	9.71957	0.470756	-1.43444	0.0585191	0.000651755	-0.0129934	-1.03076	0.388184	0.171143	
86	-0.687268	0.647755	-0.0941387	0.314982	2.83199	-9.38051	1.43862	0.0148061	0.0321903	-0.0121208	0.132568	0.986572	0.141357	0.045315	-0.505732	0.341731	-0.790823	7.63161	-5.88856	2.61258	0.0162597	0.017685	-0.0125044	-0.431396	0.729004	0.107666	0.347707	-0.0328784	0.748727	-0.563406	-4.71701	-8.55129	-1.39253	-0.0293258	0.0139585	-0.00767886	0.0358887	0.853271	0.324219	-0.0104209	0.053843	0.502161	-0.863033	-0.850013	-8.39731	4.52966	0.0109257	-0.00944275	-0.0072518	-0.299561	0.886963	-0.52417	-0.143891	-0.132115	-0.350046	0.916138	-3.41757	-6.11756	7.17048	-0.250023	0.0186595	0.011869	-0.0297852	0.674561	-0.702637	0.478297	0.115908	0.683115	-0.539584	-7.25968	-5.76416	0.772453	-0.0557912	0.0252238	-0.0226509	0.441895	0.746338	0.453857	-0.507364	0.629569	0.394097	0.436935	9.27759	-2.97844	-1.07537	0.0803645	0.0637188	-0.0364208	-0.715088	0.656982	0.147217	0.242045	-0.616802	-0.402764	-0.631467	9.54561	1.71937	-0.782468	-0.0079317	0.0200796	-0.0224124	-1.03223	0.216553	0.166016	0.414717	-0.468794	-0.603788	-0.493641	9.45483	2.01686	-1.6214	0.00316997	0.000883588	-0.0241582	-1.06421	0.142578	0.136719	-0.343076	0.606694	0.442974	0.56391	9.6977	0.5844	-1.29738	0.0384213	-0.0158423	-0.000100055	-0.944824	0.317383	0.270264	0.431331	-0.542252	-0.526946	-0.492183	9.80031	0.515926	-1.4522	0.0427407	-0.00581623	-0.0205523	-1.03296	0.388184	0.168701	
