40	Head	00b4120a												Throax	00b411e8												LUpArm	00b411d9												LFoArm	00b41148												RUpArm	00b411db												RFoArm	00b41204												Waist	00b411f7												Lthigh	00b411f4												Lshank	00b4111b												Rthigh	00b411c8												Rshank	00b411ee												
PacketCount	q0	q1	q2	q3	accX	accY	accZ	gyrX	gyrY	gyrZ	magX	magY	magZ	q0	q1	q2	q3	accX	accY	accZ	gyrX	gyrY	gyrZ	magX	magY	magZ	q0	q1	q2	q3	accX	accY	accZ	gyrX	gyrY	gyrZ	magX	magY	magZ	q0	q1	q2	q3	accX	accY	accZ	gyrX	gyrY	gyrZ	magX	magY	magZ	q0	q1	q2	q3	accX	accY	accZ	gyrX	gyrY	gyrZ	magX	magY	magZ	q0	q1	q2	q3	accX	accY	accZ	gyrX	gyrY	gyrZ	magX	magY	magZ	q0	q1	q2	q3	accX	accY	accZ	gyrX	gyrY	gyrZ	magX	magY	magZ	q0	q1	q2	q3	accX	accY	accZ	gyrX	gyrY	gyrZ	magX	magY	magZ	q0	q1	q2	q3	accX	accY	accZ	gyrX	gyrY	gyrZ	magX	magY	magZ	q0	q1	q2	q3	accX	accY	accZ	gyrX	gyrY	gyrZ	magX	magY	magZ	q0	q1	q2	q3	accX	accY	accZ	gyrX	gyrY	gyrZ	magX	magY	magZ	
0	-0.598537	0.331426	0.32134	0.654714	8.58879	0.106202	6.11732	0.0126213	0.0431754	-0.0368881	-0.769287	0.399902	-0.516357	0.33418	-0.58153	-0.308302	-0.674608	9.93029	0.368493	1.35311	0.00528111	-0.005155	-0.0350874	-0.836426	0.286377	-0.0664062	0.778525	-0.105305	0.0813704	-0.613343	0.256403	-2.50187	10.4967	-0.110984	0.0172188	0.0292168	0.0388184	0.588867	-0.837158	0.78397	-0.183714	0.123408	-0.580009	0.178765	-4.22114	8.64824	-0.0657899	0.00423465	0.0381881	0.125	0.898193	-0.693848	-0.704503	-0.0417373	0.0232807	0.70809	-0.22477	0.599732	9.66831	-0.0669201	0.0488023	0.00198374	0.0612793	0.309326	-0.980957	0.629814	0.169318	-0.0662608	-0.755166	-0.0467643	1.35663	13.255	-0.0214221	0.0504753	-0.0217272	0.0793457	0.305664	-1.05981	-0.385135	0.575288	0.59035	0.414972	9.16001	0.473983	-3.46964	0.0311112	-0.00902671	-0.018961	-0.920166	0.335205	0.348633	0.747956	-0.120388	0.164233	-0.631741	-0.774639	-4.11568	10.2978	-0.0416624	0.000325237	-0.0271891	0.183594	0.7771	-0.717285	0.209019	-0.562397	-0.79942	0.0307905	2.85185	-2.412	-8.53356	0.0260123	0.0193906	0.00615966	-0.452881	0.623047	0.786133	-0.692392	-0.115418	0.0463568	0.71072	-0.766153	2.46133	10.5575	0.0187777	0.046007	0.00610553	0.11377	0.137451	-1.06226	-0.0119741	-0.673181	-0.691912	-0.260656	3.50731	3.61549	-8.81646	0.000719644	0.0317891	-0.012676	-0.408203	0.0429688	1.0769	
1	-0.598522	0.330535	0.321806	0.654949	8.59491	0.217885	6.12193	0.0344834	0.00110109	-0.0230405	-0.766846	0.395508	-0.520508	0.334115	-0.581445	-0.308681	-0.674541	9.95164	0.206722	1.32979	0.0135345	0.00655263	-0.0354495	-0.832031	0.288574	-0.064209	0.778575	-0.106144	0.0824015	-0.612997	0.336718	-3.15709	10.4735	0.0130129	0.0114679	0.00659983	0.0429688	0.593018	-0.841797	0.784639	-0.184935	0.123728	-0.578646	0.149962	-4.32918	8.76396	-0.0363849	-0.0320386	0.0583677	0.118652	0.893799	-0.687256	-0.70438	-0.0441303	0.0249874	0.70801	-0.285078	0.956677	9.88653	0.126123	0.021196	-0.0163095	0.0634766	0.309326	-0.98999	0.62997	0.169984	-0.0663461	-0.754879	0.0771844	1.31812	13.2894	0.0349094	0.0337159	-0.00467257	0.0812988	0.309814	-1.05786	-0.385164	0.574994	0.59107	0.414326	9.1087	0.543804	-3.65047	0.0352395	-0.00886015	-0.0307932	-0.911621	0.335205	0.35083	0.747533	-0.121443	0.164282	-0.632027	-0.792611	-4.13576	10.0417	-0.0271627	-0.00426647	-0.0466835	0.185547	0.779297	-0.712646	0.209425	-0.562905	-0.79894	0.0312186	2.64257	-2.41049	-8.32602	0.0260484	0.0150282	0.0110745	-0.450684	0.629883	0.7771	-0.692635	-0.115644	0.0460401	0.710467	-0.866241	2.23287	10.2512	-0.00670274	0.0486476	0.0243584	0.115967	0.139893	-1.06006	-0.0120608	-0.672585	-0.691969	-0.262036	3.00222	3.56494	-8.1787	-0.0290464	0.0438189	-0.0347339	-0.412354	0.0341797	1.07715	
2	-0.598449	0.330231	0.322327	0.654914	8.5665	0.247818	6.08471	0.0402036	-0.0155829	-0.0259448	-0.769043	0.395508	-0.518311	0.334177	-0.581185	-0.309116	-0.674535	9.90546	0.362523	1.32145	0.0278456	0.016935	-0.0420315	-0.838135	0.279785	-0.0615234	0.779307	-0.103361	0.0795329	-0.612921	0.27839	-2.81744	10.4578	0.179751	-0.0262125	0.0115446	0.0432129	0.577881	-0.84375	0.785009	-0.185241	0.123551	-0.578085	0.144559	-4.37	8.81142	-0.00867899	-0.028984	0.0474058	0.125244	0.895996	-0.69165	-0.704377	-0.0454463	0.0263659	0.707879	-0.35396	1.23113	9.65841	0.0556867	0.00985266	-0.0145854	0.0639648	0.300537	-0.985596	0.630068	0.170547	-0.0670108	-0.754611	-0.0292484	1.32393	13.2902	0.0757698	0.0213983	0.00601303	0.0856934	0.305664	-1.06641	-0.384988	0.575094	0.591218	0.41414	8.91327	0.540641	-3.60586	0.0162017	-0.0136201	-0.0201549	-0.920166	0.333008	0.352783	0.747246	-0.121118	0.164466	-0.63238	-0.637656	-4.3038	9.8944	0.0158531	0.0564364	-0.0485976	0.181396	0.779297	-0.717285	0.209221	-0.563586	-0.798526	0.0308871	2.84772	-2.60648	-8.53934	-0.0218919	0.0167428	0.00975015	-0.450684	0.629883	0.779297	-0.693238	-0.116216	0.0463942	0.709762	-1.04615	2.29863	9.92728	0.0246389	0.0182375	0.037385	0.122803	0.137695	-1.05786	-0.0122952	-0.67223	-0.692199	-0.262328	3.12715	3.59328	-8.17742	-0.021069	0.0165838	-0.0421816	-0.410156	0.036377	1.07251	
3	-0.598135	0.329975	0.323281	0.65486	8.47564	0.29197	5.99625	0.0257232	-0.0260649	-0.0257677	-0.769287	0.397705	-0.518311	0.33375	-0.581391	-0.309347	-0.674463	9.6748	0.164834	1.35085	-0.0136532	-0.0254801	-0.027173	-0.838135	0.279785	-0.0708008	0.779699	-0.102348	0.0786209	-0.61271	0.382754	-2.68796	10.46	0.107263	-0.00813163	0.0274844	0.0390625	0.580078	-0.834717	0.78578	-0.183927	0.122031	-0.577779	0.246734	-4.20924	8.8262	0.0986535	-0.0107687	0.0186586	0.118408	0.895996	-0.696045	-0.70441	-0.0442478	0.0248722	0.707976	-0.239965	0.604779	9.59624	-0.0938827	0.0259298	-0.00922019	0.0634766	0.309326	-0.980957	0.63073	0.171726	-0.0684574	-0.75366	-0.00554382	1.74528	13.3769	0.0341496	0.0361151	0.0416136	0.081543	0.305664	-1.05762	-0.384657	0.575624	0.591506	0.4133	8.76368	0.207418	-3.38295	0.0412741	-0.0482117	-0.00411643	-0.916016	0.341553	0.352783	0.74685	-0.120433	0.164087	-0.633077	-0.785266	-4.21389	10.2504	0.0622095	0.020127	-0.0400356	0.179443	0.774902	-0.717285	0.209287	-0.563822	-0.798351	0.0306358	2.89894	-2.75253	-8.52867	-0.0124056	0.0274096	0.000340053	-0.455078	0.620605	0.783936	-0.693542	-0.115966	0.0468994	0.709473	-0.882262	2.50658	10.3505	-0.0091701	-0.000266448	0.0165913	0.122559	0.14209	-1.0625	-0.0127067	-0.671933	-0.692477	-0.262337	3.48877	3.83483	-8.58244	-0.00544881	0.00203152	-0.0199223	-0.407959	0.036377	1.07471	
4	-0.597876	0.33013	0.324259	0.654534	8.5541	0.302026	5.98386	0.0214522	-0.0396884	-0.00654606	-0.773438	0.395508	-0.518311	0.333916	-0.581398	-0.309927	-0.674108	9.70561	0.235251	1.33793	0.0205211	0.0048398	-0.0229302	-0.836182	0.279785	-0.0661621	0.779699	-0.102348	0.0786209	-0.61271	0.382754	-2.68796	10.46	0.107263	-0.00813163	0.0274844	0.0390625	0.580078	-0.834717	0.786117	-0.185076	0.122763	-0.576798	0.277045	-4.27395	8.97169	-0.104786	0.00346636	0.0381249	0.125	0.898193	-0.69165	-0.704495	-0.0453978	0.0257199	0.707789	-0.21509	0.596829	9.55475	0.112749	0.0252869	0.00362951	0.0637207	0.302734	-0.987793	0.631485	0.172262	-0.0680978	-0.752938	-0.0833455	1.38574	13.4358	0.0672363	0.0477361	0.00394941	0.0881348	0.30127	-1.06616	-0.385026	0.575116	0.59254	0.41218	8.99726	0.535921	-3.42539	0.100634	0.0028443	-0.039826	-0.920166	0.337158	0.352783	0.746682	-0.120592	0.16423	-0.633208	-0.925073	-3.9888	9.97348	-0.0204915	0.0172557	-0.020794	0.185547	0.779297	-0.721924	0.209738	-0.563897	-0.798183	0.0305536	2.60858	-2.65606	-8.19879	0.0119146	0.018996	-0.0177741	-0.450439	0.620605	0.786133	-0.693886	-0.11609	0.046606	0.709136	-0.92636	2.3383	10.0356	0.00732644	0.0347712	0.0212747	0.120361	0.139893	-1.06006	-0.0126551	-0.671612	-0.692639	-0.262735	3.15536	3.73475	-8.2881	-0.00122378	0.0232466	-0.0195787	-0.412354	0.036377	1.07471	
5	-0.597976	0.330714	0.32519	0.653686	8.70088	0.313764	5.959	0.0188676	-0.0494481	0.0253956	-0.775879	0.397705	-0.51416	0.334556	-0.580861	-0.310311	-0.674076	9.85806	0.304881	1.29744	0.0314025	0.0372058	-0.0181736	-0.831787	0.28418	-0.0686035	0.780177	-0.103964	0.0804524	-0.61159	0.36727	-2.74755	10.5099	-0.0633311	0.00916271	0.0321862	0.0454102	0.584229	-0.834717	0.78628	-0.18516	0.123224	-0.57645	0.26176	-4.17615	8.83195	0.0137648	0.0210903	0.0213564	0.115967	0.900391	-0.689453	-0.704576	-0.0470952	0.0265018	0.707568	-0.323241	1.17804	9.82441	-0.0118632	0.0302972	-0.00260457	0.065918	0.304932	-0.983154	0.631873	0.172732	-0.0678042	-0.752531	-0.119633	1.50588	13.3369	-0.0236597	0.0366063	0.0013566	0.0837402	0.30127	-1.05981	-0.38525	0.574705	0.592633	0.41241	8.89016	0.536343	-3.47984	0.00452837	0.00677397	-0.0194631	-0.917969	0.337158	0.359131	0.74697	-0.121363	0.164587	-0.632628	-0.878483	-4.21055	10.0732	-0.0242622	0.00296611	0.00519983	0.178955	0.781494	-0.721924	0.209508	-0.563494	-0.79851	0.0310261	2.83093	-2.59477	-8.32329	0.0210061	-0.0174742	-0.0380781	-0.450684	0.627441	0.783691	-0.694043	-0.116271	0.0470006	0.708926	-1.03416	2.49178	10.0976	0.0131263	0.00196002	0.00765304	0.120605	0.137695	-1.06006	-0.0129487	-0.671358	-0.692919	-0.262628	3.2697	3.8512	-8.28596	0.000177825	-0.0101332	-0.0221272	-0.407715	0.0319824	1.07251	
6	-0.598271	0.330931	0.32555	0.653126	8.71439	0.271245	5.9567	0.0149361	-0.0130791	0.0116576	-0.775635	0.393311	-0.509766	0.333957	-0.581397	-0.310627	-0.673766	9.65205	0.283985	1.28217	-0.00622863	-0.0490412	-0.0294156	-0.838379	0.281982	-0.0639648	0.780534	-0.103262	0.0806305	-0.61123	0.31726	-2.68677	10.4201	0.0193254	0.0215324	0.0212736	0.0368652	0.584473	-0.830078	0.786596	-0.184568	0.123793	-0.576087	0.0952369	-4.24644	8.82752	0.0327599	0.0376003	0.0208578	0.118408	0.898193	-0.69165	-0.704755	-0.0461333	0.0249686	0.707509	-0.35706	0.974122	9.61324	-0.0790879	0.0298925	-0.0122089	0.0612793	0.311523	-0.985596	0.632189	0.17361	-0.0682255	-0.752025	-0.0542627	1.62696	13.2997	0.0389845	0.0449147	0.00780336	0.0922852	0.303467	-1.05981	-0.384592	0.574827	0.593101	0.412182	8.86266	0.306362	-3.41963	0.00797195	-0.0405722	-0.0348524	-0.909668	0.341553	0.354736	0.747591	-0.121509	0.164468	-0.631897	-0.748098	-4.15296	10.3314	0.00871499	0.011562	0.0241322	0.187744	0.781494	-0.719727	0.209492	-0.562986	-0.798867	0.0311646	2.94098	-2.61862	-8.5752	0.0171108	0.0123284	-0.0421381	-0.457764	0.629883	0.781494	-0.693956	-0.116652	0.047565	0.708912	-0.943065	2.39985	10.2923	0.0213713	0.0152941	-0.00160277	0.116211	0.135498	-1.06006	-0.0133084	-0.671333	-0.692954	-0.262581	3.43875	3.89022	-8.49888	-0.0127886	-0.015294	-0.0165983	-0.405762	0.0407715	1.07251	
7	-0.598351	0.331276	0.325484	0.652911	8.69391	0.171761	5.97879	-0.00797258	-0.0213774	0.00504437	-0.773438	0.393311	-0.511963	0.334183	-0.581719	-0.31162	-0.672918	10.0579	0.26747	1.33398	0.0226094	-0.00170755	-0.0238287	-0.838379	0.28418	-0.0664062	0.780945	-0.1018	0.0799418	-0.611041	0.231495	-2.84428	10.5	0.0661543	0.0157264	0.0182994	0.0432129	0.582275	-0.839355	0.786753	-0.184314	0.124046	-0.5759	0.180762	-4.2245	8.69513	-0.00749277	0.0160497	0.0107806	0.125244	0.893799	-0.69165	-0.704752	-0.0472631	0.0260752	0.707397	-0.212628	0.818089	9.78866	0.137339	0.0125333	-0.00214685	0.065918	0.302734	-0.985596	0.632678	0.173922	-0.0682949	-0.751535	-0.164528	1.444	13.3067	0.0408866	0.0121666	0.00433507	0.0839844	0.299072	-1.06616	-0.385914	0.573589	0.593169	0.412573	9.25367	0.541646	-3.37904	0.0507654	0.0909196	-0.0423458	-0.916016	0.337158	0.357178	0.748082	-0.121102	0.164362	-0.631422	-0.834083	-4.16246	9.97429	0.0362868	0.0218812	0.00365682	0.192139	0.779297	-0.715088	0.209773	-0.562618	-0.799055	0.031103	2.56487	-2.50918	-8.22021	0.0062216	0.0106321	-0.0319748	-0.450684	0.629883	0.783691	-0.69396	-0.117272	0.0481622	0.708764	-0.978842	2.44921	10.0885	0.0429108	0.0119642	0.0112547	0.120605	0.135498	-1.06226	-0.0143359	-0.670949	-0.693033	-0.2633	3.1015	3.70474	-8.28163	-0.0244341	0.00169635	-0.0265272	-0.412109	0.0297852	1.07275	
8	-0.598216	0.331319	0.3259	0.652805	8.75372	0.272982	5.93599	0.0108257	-0.00773941	-0.0067759	-0.773682	0.395508	-0.511963	0.334359	-0.581879	-0.312101	-0.672468	9.71324	0.314688	1.28979	0.0106345	-0.00413086	-0.0152242	-0.840332	0.277588	-0.0637207	0.781103	-0.101563	0.0799629	-0.610876	0.250756	-2.5573	10.5736	-0.0166091	-0.00642535	0.0119283	0.0432129	0.582275	-0.834717	0.786499	-0.184401	0.12378	-0.576276	0.172508	-4.01263	8.96163	-0.0245954	-0.00111613	-0.0191605	0.125244	0.891602	-0.693848	-0.70506	-0.0484788	0.0275659	0.706951	-0.366677	1.10148	9.78573	0.0222785	-0.00242898	0.0226836	0.0617676	0.29834	-0.985596	0.633002	0.173672	-0.0692844	-0.751229	-0.138027	1.5238	13.4057	0.00515476	-0.0130048	0.00327789	0.0905762	0.294678	-1.06177	-0.38682	0.572414	0.592843	0.413823	8.85025	0.434479	-3.64375	0.0272057	0.0906272	-0.0344379	-0.911621	0.337402	0.346436	0.748335	-0.121103	0.163784	-0.631271	-0.902195	-4.1885	10.1985	0.0047224	-0.00340545	-0.0125672	0.181396	0.7771	-0.719482	0.2095	-0.562398	-0.799272	0.0313344	2.96042	-2.60326	-8.51202	0.00845234	-0.00986189	-0.0251394	-0.450684	0.627441	0.785889	-0.694025	-0.117361	0.0492177	0.708614	-0.8924	2.38303	10.1734	0.0408642	-0.012262	0.012131	0.118408	0.133301	-1.06006	-0.0153657	-0.67071	-0.693178	-0.263469	3.33066	3.74228	-8.39318	-0.0324439	-0.0165891	-0.028223	-0.409668	0.0275879	1.07715	
9	-0.598587	0.330774	0.325691	0.652846	8.57886	0.177825	5.96554	0.0150433	0.02207	0.00256219	-0.77124	0.393311	-0.509766	0.334255	-0.582071	-0.312314	-0.672255	9.66003	0.301945	1.21638	0.00204548	-0.0152339	-0.0234107	-0.838379	0.281982	-0.0615234	0.780943	-0.102378	0.080875	-0.610823	0.227741	-2.62991	10.4062	-0.0925274	0.0227565	-0.0033434	0.0454102	0.586426	-0.839355	0.786195	-0.185342	0.124521	-0.57623	0.208124	-4.28518	8.83301	-0.0970818	0.0136243	-0.00934196	0.118408	0.898193	-0.689453	-0.705607	-0.0476866	0.0270711	0.706478	-0.339448	1.11639	9.74698	-0.0614432	0.0014272	0.0102443	0.0678711	0.309326	-0.985596	0.632921	0.174042	-0.0700469	-0.751142	-0.139972	1.5487	13.4325	0.0719612	0.00035102	-0.011414	0.0883789	0.294678	-1.06177	-0.38736	0.571782	0.593148	0.413755	8.89889	0.608303	-3.27478	0.0291008	0.0150826	-0.03294	-0.91626	0.341553	0.346191	0.748401	-0.121407	0.163971	-0.631086	-0.800344	-4.12144	10.2858	-0.025847	0.0404609	-0.0115476	0.18335	0.781494	-0.717285	0.209812	-0.56233	-0.799231	0.0315148	2.89751	-2.60504	-8.529	0.0215567	0.0236101	-0.0163091	-0.455078	0.625244	0.781494	-0.69409	-0.117613	0.0499711	0.708456	-0.887184	2.63189	10.1535	-0.00584981	0.0092361	0.0015106	0.118164	0.137695	-1.06006	-0.0156537	-0.67055	-0.69331	-0.263511	3.36065	3.61654	-8.51722	-0.0122393	-0.00392857	-0.0275051	-0.409668	0.0275879	1.07715	
10	-0.598734	0.330085	0.325967	0.652921	8.62536	0.227298	6.01991	0.0247158	0.00707099	-0.0164905	-0.769287	0.397705	-0.516113	0.334195	-0.582209	-0.31306	-0.671818	9.8945	0.36678	1.36077	0.021351	-0.00408449	-0.0258503	-0.840576	0.281982	-0.0615234	0.780967	-0.103114	0.0817404	-0.610554	0.280756	-2.97749	10.3837	-0.0431513	0.0101205	0.00927895	0.0473633	0.588623	-0.834961	0.785834	-0.184552	0.124473	-0.576985	0.165065	-4.23567	8.90301	0.0657216	0.0346953	-0.0331933	0.12085	0.893799	-0.700439	-0.706029	-0.0460189	0.0254222	0.706229	-0.332147	0.796301	9.74061	-0.0878214	0.00863692	0.00686204	0.0656738	0.307129	-0.985596	0.633435	0.1737	-0.0698061	-0.75081	-0.0910089	1.5556	13.4002	-0.0435056	0.0181628	0.0124542	0.0861816	0.296875	-1.06396	-0.387534	0.571525	0.593334	0.41368	9.18659	0.473509	-3.36542	0.038795	0.0186942	-0.0311753	-0.92041	0.339355	0.352783	0.74836	-0.121645	0.164234	-0.63102	-0.872188	-4.11691	10.1336	-0.0250563	0.0252722	-0.0168967	0.187744	0.779297	-0.719727	0.210302	-0.562322	-0.799099	0.0317443	2.62667	-2.57982	-8.24338	0.0251911	0.0139844	-0.0148108	-0.45752	0.625244	0.78833	-0.694142	-0.117378	0.0497055	0.708463	-0.872837	2.57223	10.1665	-0.0274366	0.0157442	0.00116509	0.118164	0.137695	-1.06226	-0.0154801	-0.670631	-0.693383	-0.263125	3.22837	3.48283	-8.41781	0.0319539	0.000132635	0.001741	-0.412109	0.0319824	1.07251	
11	-0.598715	0.329759	0.326269	0.652953	8.57372	0.260557	6.00635	0.0298592	-0.000772999	-0.0213646	-0.773438	0.391113	-0.516113	0.334542	-0.582154	-0.313201	-0.671627	9.86951	0.3143	1.2393	0.0134597	0.0159527	-0.00761953	-0.833984	0.280029	-0.0566406	0.780883	-0.101351	0.0808091	-0.611081	0.275395	-2.6175	10.5679	-0.00725748	0.0324933	-0.0222544	0.0432129	0.584229	-0.837158	0.785651	-0.184768	0.124804	-0.577093	0.0776797	-4.33205	8.80738	-0.0228071	0.00782146	0.000124248	0.125	0.898193	-0.693848	-0.706663	-0.0481407	0.0274363	0.705377	-0.218935	1.11156	9.71002	0.161364	0.0116819	0.0256238	0.0681152	0.302734	-0.987793	0.633994	0.173829	-0.0700674	-0.750283	0.0294795	1.606	13.3086	0.0279942	0.0213075	0.0100874	0.090332	0.296875	-1.06616	-0.387914	0.571245	0.593336	0.413708	8.78069	0.411414	-3.40635	0.014197	0.0130267	-0.0193011	-0.92041	0.341553	0.346191	0.748377	-0.122267	0.164192	-0.630891	-0.825561	-4.21973	10.0478	-0.0190902	0.00894021	-0.0191138	0.187744	0.781494	-0.715088	0.210236	-0.562341	-0.799098	0.0318879	2.66699	-2.56285	-8.32333	0.0108434	-0.00226762	-0.0141749	-0.457764	0.629883	0.781494	-0.694637	-0.116399	0.048845	0.708198	-0.914874	2.3337	10.225	-0.0588223	0.0153749	0.0247883	0.120605	0.135498	-1.06689	-0.0143569	-0.670681	-0.69369	-0.262251	3.28794	3.89903	-8.43264	0.0530217	0.0188556	-0.00119115	-0.407715	0.0341797	1.07251	
12	-0.59899	0.329176	0.326732	0.652763	8.64022	0.291072	5.98207	0.017902	0.00575971	0.00259766	-0.773438	0.393311	-0.511963	0.334768	-0.582406	-0.313155	-0.671318	9.79108	0.212071	1.26328	0.0080421	0.0108451	-0.00102359	-0.840576	0.28418	-0.0593262	0.779752	-0.101669	0.0819367	-0.612321	0.26983	-2.62073	10.5442	-0.0360244	0.0388882	-0.0631583	0.0476074	0.584229	-0.841553	0.78579	-0.186236	0.125737	-0.576229	0.20155	-4.15052	8.93288	-0.103719	-0.00343822	0.048347	0.129395	0.900391	-0.69165	-0.706693	-0.0490083	0.0288072	0.705233	-0.305384	1.0981	9.67236	0.0460411	-0.0118855	-0.000416553	0.0661621	0.29834	-0.985596	0.635029	0.173449	-0.069616	-0.749538	-0.097441	1.43448	13.2347	-0.0113494	0.0266945	0.0293579	0.0927734	0.294678	-1.06396	-0.388386	0.570557	0.592999	0.414697	9.01072	0.378458	-3.42382	-0.0175704	0.0560919	-0.0348227	-0.918213	0.339355	0.342041	0.748651	-0.121687	0.163745	-0.630794	-0.680809	-4.19057	10.5107	0.0079341	0.0493452	-0.00451846	0.18335	0.779297	-0.719727	0.210421	-0.561891	-0.799316	0.0330818	3.17078	-2.78848	-8.75293	0.0620388	-0.00366185	-0.0273531	-0.45752	0.625244	0.779297	-0.695414	-0.11656	0.0481638	0.707455	-1.01689	2.47541	10.2012	-0.0147568	0.0394788	0.025289	0.120605	0.133301	-1.05542	-0.01362	-0.670365	-0.694035	-0.262183	3.36891	3.87086	-8.51308	0.030752	0.0335023	-0.0179624	-0.405762	0.0385742	1.07715	
13	-0.599163	0.329069	0.326745	0.652652	8.64817	0.335151	5.97407	0.0135137	0.00327085	0.00932968	-0.775879	0.395508	-0.51416	0.334874	-0.582698	-0.313331	-0.670929	9.8705	0.364537	1.19615	0.00171614	-0.0114532	-0.0112731	-0.840576	0.286377	-0.0568848	0.779009	-0.102221	0.0827907	-0.61306	0.0601188	-3.03479	10.5336	-0.0761752	0.0408305	-0.08187	0.0432129	0.59082	-0.834961	0.785904	-0.187074	0.126494	-0.575637	0.227871	-4.08968	9.08469	-0.0300908	0.0148299	0.00320356	0.127197	0.898193	-0.687256	-0.706739	-0.0490746	0.0292193	0.705166	-0.311661	1.32734	9.86075	0.0272645	-0.0118664	-0.00430886	0.0686035	0.293945	-0.992432	0.635523	0.17464	-0.071351	-0.748679	-0.177955	1.63179	13.3287	0.108218	0.0042626	0.0307652	0.0927734	0.290527	-1.06592	-0.388505	0.570364	0.592983	0.414874	8.97018	0.496061	-3.44901	0.0156994	0.031672	-0.0284125	-0.924316	0.333008	0.335938	0.748651	-0.121687	0.163745	-0.630794	-0.680809	-4.19057	10.5107	0.0079341	0.0493452	-0.00451846	0.18335	0.779297	-0.719727	0.211124	-0.561681	-0.799271	0.0332632	2.88001	-2.77625	-8.44125	0.0514533	0.0452319	-0.0277206	-0.450684	0.629883	0.781494	-0.69564	-0.116452	0.0479293	0.707267	-0.887503	2.39149	10.0181	-0.020329	0.0237456	0.0215092	0.120605	0.135498	-1.06226	-0.0132618	-0.67004	-0.694235	-0.262503	3.10902	3.75351	-8.30716	-0.000515262	0.0255013	-0.0174149	-0.414307	0.0319824	1.07251	
14	-0.599217	0.329017	0.326922	0.65254	8.55557	0.266538	5.93093	0.0111771	-0.0125948	-0.00823631	-0.773926	0.4021	-0.518555	0.334801	-0.582954	-0.313685	-0.670578	9.89643	0.400287	1.20722	0.00809887	-0.00504391	-0.0233649	-0.840576	0.281982	-0.0615234	0.778397	-0.101693	0.0839596	-0.613765	0.296246	-3.0012	10.4035	-0.00979579	0.0567621	-0.0309156	0.0498047	0.584229	-0.834717	0.784514	-0.187046	0.12826	-0.577148	0.192741	-4.70745	8.68291	0.015581	0.106153	-0.0857649	0.12915	0.904785	-0.6875	-0.706487	-0.0487789	0.0295903	0.705423	-0.16441	0.886478	9.74621	0.0223664	-0.0096187	-0.0247847	0.0664062	0.293945	-0.98999	0.635595	0.177388	-0.0758348	-0.74753	0.0463707	1.85388	13.384	0.248868	-0.00305014	0.0244006	0.0908203	0.286133	-1.06787	-0.389159	0.570021	0.592076	0.416025	8.92763	0.499013	-3.45106	-0.0321029	0.0802318	-0.0155584	-0.920166	0.337402	0.340088	0.748703	-0.120228	0.164877	-0.630718	-0.769699	-4.27087	9.86635	0.022731	0.0472473	0.00990208	0.187744	0.781494	-0.715088	0.211711	-0.561174	-0.799478	0.0331335	2.39904	-2.59591	-8.22831	-0.0108226	0.00729057	-0.0502501	-0.450684	0.627686	0.779297	-0.69599	-0.115967	0.0475512	0.707027	-0.831921	2.43483	10.0558	-0.0279958	0.00900215	0.0138036	0.120361	0.14209	-1.05566	-0.0130784	-0.669867	-0.694418	-0.26247	3.10158	3.63997	-8.37597	0.00913217	0.00879851	-0.00990354	-0.414551	0.036377	1.07251	
15	-0.598981	0.32907	0.327372	0.652505	8.60593	0.275184	5.84259	0.00759707	-0.015862	-0.0123012	-0.769043	0.391113	-0.513916	0.335006	-0.58276	-0.313687	-0.670643	9.64561	0.172106	1.171	0.00591044	0.0194325	-0.0207635	-0.842529	0.277588	-0.0683594	0.777883	-0.103784	0.0871214	-0.613626	0.417765	-2.55176	10.5554	-0.216018	0.0761348	-0.0141769	0.0410156	0.595215	-0.832764	0.783471	-0.185436	0.12952	-0.578802	0.185617	-4.15203	8.94295	-0.0628844	0.0938447	-0.0341643	0.122559	0.904785	-0.685303	-0.706588	-0.0545958	0.0353539	0.70463	-0.164173	1.03398	9.6869	0.41229	0.0190207	0.0185194	0.0625	0.282959	-0.994629	0.635442	0.179123	-0.077938	-0.74703	0.0744722	1.82555	13.5564	0.0981889	0.0186066	-0.0157944	0.0913086	0.273193	-1.07178	-0.389589	0.569822	0.591728	0.416391	8.85577	0.501145	-3.25853	0.0103195	0.0656723	-0.00887548	-0.92041	0.339355	0.333496	0.749429	-0.119124	0.164062	-0.630277	-0.834696	-4.03751	9.93143	0.061745	0.00896271	0.0131208	0.191895	0.781494	-0.721924	0.21028	-0.5604	-0.800394	0.0332292	2.6329	-2.62001	-8.19269	-0.036611	-0.0468718	-0.0567411	-0.455322	0.627441	0.783691	-0.696349	-0.115349	0.0469493	0.706816	-0.845404	2.36437	10.2176	-0.0483377	0.018746	0.0151558	0.115967	0.139893	-1.0625	-0.0123804	-0.669869	-0.694603	-0.262008	3.32912	3.7508	-8.4764	0.0372879	0.0176868	-0.000697819	-0.407959	0.036377	1.07031	
16	-0.599035	0.328659	0.327718	0.652489	8.61351	0.369013	5.84363	0.0192091	0.00132746	-0.00360517	-0.77124	0.391113	-0.516113	0.335227	-0.582603	-0.313648	-0.670687	9.84237	0.280906	1.1723	-0.000925016	0.0244472	-0.0047467	-0.838135	0.279785	-0.0615234	0.777176	-0.105617	0.0901683	-0.613768	0.186022	-3.28903	10.254	-0.0432512	0.0480539	-0.0129243	0.0515137	0.601562	-0.826172	0.782859	-0.185879	0.131962	-0.578936	0.118653	-4.6957	8.44031	-0.00424311	0.0704606	0.00225744	0.12915	0.902588	-0.682861	-0.706742	-0.0572433	0.0365351	0.704205	-0.231613	1.93413	9.69273	-0.0520627	0.0510129	-0.00868505	0.0671387	0.27417	-0.992432	0.634748	0.180991	-0.0789665	-0.747062	0.124	2.01314	13.3701	0.058484	0.0546742	-0.0401556	0.0893555	0.268799	-1.06738	-0.390863	0.568908	0.59126	0.41711	8.81863	0.518803	-3.38198	0.0287163	0.0411165	-0.0240106	-0.918213	0.337402	0.335693	0.749807	-0.119122	0.16372	-0.629917	-0.944471	-3.91305	10.1253	-0.0169941	0.0110732	-0.00234174	0.190186	0.774902	-0.717285	0.20926	-0.560128	-0.800881	0.0325063	2.85386	-2.53713	-8.30493	-0.0411806	0.0026517	-0.0370968	-0.455078	0.620605	0.779297	-0.696787	-0.11547	0.046609	0.706387	-1.01283	2.24183	10.0225	0.0146332	0.0294558	0.028098	0.120605	0.137695	-1.06226	-0.0119794	-0.669575	-0.694925	-0.261925	3.18624	3.73522	-8.2516	0.0155723	0.0168275	-0.0272696	-0.414551	0.036377	1.07471	
17	-0.599297	0.328615	0.327716	0.652272	8.61143	0.377796	5.87892	0.00137514	-0.00480616	0.0110475	-0.77124	0.393311	-0.518311	0.335175	-0.582617	-0.313619	-0.670715	9.75813	0.278772	1.12133	-0.0100301	0.0133014	-0.0203672	-0.840576	0.281982	-0.059082	0.777088	-0.103285	0.0894601	-0.61438	0.197884	-2.99503	10.3176	0.0891155	0.0300768	-0.00646024	0.0517578	0.594971	-0.828125	0.782937	-0.185095	0.13206	-0.579059	0.0860133	-4.42073	8.52589	0.0484758	0.0514327	0.00601827	0.124512	0.906982	-0.678711	-0.707062	-0.0530589	0.0311319	0.704471	-0.0454215	0.997298	9.77575	-0.262545	0.0437422	-0.0212832	0.0686035	0.291748	-0.992432	0.634809	0.181446	-0.0776576	-0.747037	0.0475554	1.85741	13.3372	-0.0248622	0.0586495	-0.0246266	0.0893555	0.273193	-1.06958	-0.390771	0.569145	0.590789	0.417541	9.0914	0.537509	-3.33811	-0.0194886	0.0260156	-0.00832688	-0.922607	0.339355	0.333496	0.74988	-0.119418	0.163333	-0.629874	-1.03009	-3.98646	10.0594	0.0210555	-0.000738053	-0.0279735	0.183594	0.7771	-0.721924	0.209298	-0.560362	-0.800739	0.0317134	2.87563	-2.44617	-8.25862	-0.014369	0.0385767	-0.00377149	-0.459717	0.622803	0.786133	-0.697111	-0.115855	0.0471382	0.705969	-0.908791	2.39778	10.1448	0.0336261	0.0126764	0.0195333	0.120361	0.139893	-1.06226	-0.0123404	-0.669111	-0.695385	-0.261875	3.29221	3.76287	-8.42282	-0.00240378	-0.0025044	-0.0330368	-0.412109	0.0297852	1.07275	
18	-0.59912	0.329388	0.327404	0.6522	8.79955	0.361691	5.94125	-0.0393644	-0.016595	0.00878743	-0.773682	0.397705	-0.516357	0.335201	-0.582363	-0.313144	-0.671144	10.0161	0.299107	1.35285	-0.0282671	0.0595085	-0.00842022	-0.838135	0.277588	-0.0612793	0.777268	-0.102653	0.089482	-0.614255	0.343103	-2.52107	10.4396	-0.0140403	0.0254857	-0.00126511	0.045166	0.597168	-0.825928	0.782577	-0.184679	0.132848	-0.579498	0.193772	-4.43698	8.44037	0.0152947	0.0403619	-0.0193317	0.131348	0.906982	-0.678711	-0.707116	-0.0538098	0.0307158	0.704378	-0.308734	0.735808	9.61163	0.134358	0.0374394	-0.00289753	0.0754395	0.285156	-0.987793	0.634809	0.181446	-0.0776576	-0.747037	0.0475554	1.85741	13.3372	-0.0248622	0.0586495	-0.0246266	0.0893555	0.273193	-1.06958	-0.390928	0.569166	0.589561	0.419098	9.10266	0.457642	-3.20492	-0.0345276	0.0781406	-0.0102559	-0.92041	0.339355	0.333496	0.749381	-0.120303	0.163402	-0.630282	-1.02386	-4.02288	10.3598	-0.0292752	0.00919417	-0.0527941	0.190186	0.774902	-0.717285	0.209468	-0.561245	-0.800097	0.0311754	2.94166	-2.54859	-8.47271	-0.00872459	0.0250222	0.0247303	-0.45752	0.622803	0.783691	-0.69719	-0.11614	0.0473529	0.705829	-0.995362	2.46539	10.1287	0.0129341	0.0148132	0.00241628	0.120361	0.14209	-1.06006	-0.0125738	-0.66899	-0.695483	-0.26191	3.29322	3.7762	-8.40343	-0.00895874	-0.00217912	-0.0224462	-0.410156	0.036377	1.07471	
19	-0.598818	0.330042	0.326434	0.652634	8.76585	0.206935	5.91352	-0.0485643	0.00457732	-0.00367164	-0.766846	0.395508	-0.511963	0.335335	-0.581652	-0.313032	-0.671745	9.78961	0.201858	1.24684	-0.021418	0.0318296	-0.0393672	-0.840332	0.277588	-0.0661621	0.77697	-0.105001	0.0914064	-0.613953	0.0398882	-3.42544	10.4129	-0.0586075	0.000370759	0.0112752	0.0515137	0.60376	-0.823975	0.782712	-0.185145	0.133483	-0.579022	0.0249816	-4.56223	8.5961	-0.0460614	0.00366184	0.0233683	0.133545	0.904785	-0.67627	-0.706641	-0.0579877	0.0338737	0.704378	-0.327563	1.71601	9.82332	0.142706	0.0329768	-0.0419304	0.0693359	0.27417	-0.994629	0.634574	0.182212	-0.0766719	-0.747152	-0.132726	1.83653	13.2952	0.0488781	0.0365938	-0.0271043	0.095459	0.277344	-1.06763	-0.391514	0.568846	0.588551	0.420403	9.02533	0.54099	-3.36425	-0.0512279	0.0736073	-0.0178794	-0.926758	0.337158	0.331543	0.74853	-0.121197	0.163367	-0.63113	-0.805018	-4.20481	10.2225	-0.0148724	0.0192316	-0.0754414	0.185547	0.779297	-0.717285	0.209437	-0.562442	-0.799252	0.0314844	2.8685	-2.52406	-8.51073	0.00425141	0.00424251	0.0456926	-0.450684	0.627441	0.785889	-0.696777	-0.116268	0.0478499	0.706183	-0.917396	2.47942	10.0918	0.0215688	-0.00518744	-0.0247199	0.122803	0.137695	-1.05542	-0.0130635	-0.669129	-0.695377	-0.261815	3.16898	3.83362	-8.34433	-0.0112573	-0.0174481	0.00150471	-0.412354	0.036377	1.06787	
20	-0.598818	0.330042	0.326434	0.652634	8.76585	0.206935	5.91352	-0.0485643	0.00457732	-0.00367164	-0.766846	0.395508	-0.511963	0.335142	-0.581514	-0.312652	-0.672138	9.87134	0.326787	1.27061	-0.00917969	0.0328971	-0.021462	-0.840332	0.279785	-0.0686035	0.777368	-0.103506	0.089914	-0.613923	-0.0372664	-3.25957	10.4698	0.174312	-0.0184716	0.0182501	0.0539551	0.592773	-0.828125	0.782874	-0.185245	0.132947	-0.578894	-0.101145	-4.38726	8.63928	0.00823308	-0.0190988	0.00512439	0.12915	0.906982	-0.678711	-0.70639	-0.057545	0.0331355	0.704701	-0.428472	1.58998	9.81095	-0.0674464	0.022808	-0.0466531	0.0734863	0.278564	-0.992432	0.634642	0.183284	-0.0771042	-0.746788	-0.230825	1.84777	13.2682	0.0499166	0.0388565	-0.00819331	0.09375	0.266602	-1.06519	-0.391312	0.569121	0.587783	0.421291	9.19411	0.468478	-3.32417	-0.0720955	0.0568081	-0.00483061	-0.922363	0.337402	0.329346	0.748082	-0.121246	0.16312	-0.631716	-0.834871	-4.14258	10.1394	0.0164868	0.0157631	-0.0793661	0.187744	0.781494	-0.717285	0.209357	-0.563107	-0.798796	0.0316965	2.75899	-2.58175	-8.42373	0.00465611	0.00314605	0.048476	-0.452881	0.627441	0.78833	-0.696435	-0.116126	0.0481442	0.706523	-0.957405	2.56012	10.1722	0.0112647	-0.0149328	-0.0349618	0.122803	0.137695	-1.06226	-0.0136475	-0.669656	-0.695006	-0.261423	3.24241	3.73312	-8.40084	0.00318257	-0.0302327	0.0171851	-0.407715	0.0341797	1.07715	
21	-0.598927	0.329635	0.324632	0.653637	8.69691	0.204041	6.00046	-0.0283965	0.0583444	0.00264893	-0.766846	0.395508	-0.516113	0.33502	-0.581587	-0.312678	-0.672124	9.95915	0.2539	1.42788	-0.0114804	0.00284786	-0.0182602	-0.838379	0.281982	-0.0710449	0.777724	-0.102527	0.0881223	-0.613896	0.342647	-2.49291	10.5497	0.0144668	-0.0227797	0.0033989	0.0495605	0.597168	-0.835205	0.783351	-0.186029	0.13248	-0.578104	0.107157	-4.35869	8.85323	-0.00764044	-0.0414519	0.0315386	0.133545	0.904785	-0.683105	-0.706145	-0.0560335	0.0313986	0.705148	-0.452624	1.00624	9.72076	-0.0660583	0.0175773	-0.0319502	0.0776367	0.282959	-0.98999	0.634878	0.183191	-0.0765098	-0.746671	-0.203388	1.86026	13.3367	-0.0414307	0.0290261	-0.0156103	0.104492	0.270996	-1.06738	-0.392114	0.568863	0.585917	0.423488	9.04973	0.488154	-3.14667	-0.066613	0.107846	-0.00549528	-0.926514	0.333008	0.32959	0.747168	-0.122003	0.16323	-0.632622	-0.780931	-4.27382	10.3358	-0.00472695	0.0212265	-0.0670315	0.178955	0.781494	-0.712646	0.209449	-0.564143	-0.798015	0.0323561	2.86487	-2.69835	-8.53341	0.0272915	0.00597661	0.0338873	-0.44165	0.634521	0.781494	-0.695679	-0.116325	0.0479716	0.707246	-0.675593	2.47808	10.6439	-0.00366301	0.0355012	-0.0412567	0.125	0.137695	-1.05786	-0.0139654	-0.670427	-0.694071	-0.261912	3.6357	3.88571	-8.91706	-0.0340932	0.023064	0.0435582	-0.403076	0.0319824	1.07495	
22	-0.59917	0.329053	0.323622	0.654208	8.63445	0.206138	6.05805	-0.0135981	0.0409237	-0.00623864	-0.775879	0.399658	-0.516357	0.334877	-0.5814	-0.312508	-0.672436	9.75381	0.331188	1.21857	-0.0149022	0.0145147	-0.0275217	-0.838135	0.277588	-0.0612793	0.77778	-0.103951	0.0885277	-0.613527	-0.00635083	-3.20476	10.4397	-0.0359974	-0.0300478	0.0120053	0.0515137	0.597168	-0.828369	0.783846	-0.187182	0.131885	-0.577196	-0.00775299	-4.61006	8.62147	0.00570205	-0.0453431	0.0252754	0.131348	0.906982	-0.685303	-0.70608	-0.0571795	0.0324061	0.705076	-0.4269	1.33432	9.73007	0.102009	0.0114588	-0.0113285	0.0734863	0.280762	-0.992432	0.634396	0.183364	-0.0767761	-0.747011	-0.134694	1.89391	13.3236	0.0476528	0.00524593	-0.0451843	0.0981445	0.266602	-1.06738	-0.392085	0.56893	0.583611	0.426599	9.15071	0.715772	-3.40889	-0.0934128	0.128817	-0.0113473	-0.926758	0.337402	0.325195	0.746797	-0.121381	0.162625	-0.633335	-0.765494	-4.24347	10.1058	0.0384413	0.022899	-0.0444715	0.174805	0.7771	-0.719482	0.209579	-0.564719	-0.797552	0.0328611	2.60711	-2.65726	-8.34991	0.0158485	0.00326276	0.0107333	-0.450684	0.629883	0.781494	-0.695509	-0.117213	0.0470702	0.707328	-1.01954	2.33506	9.97854	0.0181063	0.0552193	-0.00122159	0.127197	0.137695	-1.06226	-0.0134229	-0.670672	-0.693191	-0.263639	3.00856	3.64127	-8.19661	-0.0350604	0.0669197	0.0228699	-0.414062	0.0253906	1.07959	
23	-0.599281	0.328744	0.322881	0.654628	8.44779	0.228944	6.01244	-0.0169177	0.0228361	-0.00118631	-0.77124	0.395508	-0.520508	0.333999	-0.581857	-0.312292	-0.672578	9.83861	0.302569	1.24841	-0.0472906	0.0110329	-0.0391827	-0.836182	0.279785	-0.059082	0.778055	-0.102515	0.0861559	-0.613757	0.309339	-2.56297	10.588	0.114437	-0.0238497	-0.0176854	0.0495605	0.592773	-0.832764	0.784359	-0.187747	0.130728	-0.576578	0.0880864	-4.08045	9.03317	-0.0522286	-0.0482271	0.0278669	0.131104	0.911377	-0.680908	-0.705766	-0.0567063	0.0325874	0.70542	-0.237989	1.23075	9.71927	-0.0460396	-0.0196783	-0.0360719	0.0732422	0.282959	-0.98999	0.634243	0.182973	-0.0771989	-0.747192	-0.0852356	1.69465	13.2401	0.0327177	-0.0130737	-0.0251233	0.0981445	0.268799	-1.06958	-0.392264	0.568989	0.581123	0.42974	9.06682	0.413391	-3.22899	-0.122971	0.144996	-0.00822908	-0.932861	0.330811	0.321045	0.746475	-0.121045	0.161658	-0.634027	-0.675446	-4.16874	10.0805	0.0378589	0.00888555	-0.0491547	0.177002	0.781494	-0.717285	0.209628	-0.564877	-0.797415	0.0331705	2.64265	-2.60285	-8.37833	0.0120636	0.000107714	0.0018456	-0.446045	0.629883	0.783691	-0.695276	-0.117088	0.0474628	0.707552	-1.05039	2.49469	9.82631	-0.00551324	-0.016942	-0.0195397	0.120605	0.133301	-1.05762	-0.0132596	-0.671025	-0.692747	-0.263917	3.06811	3.54222	-8.15045	0.0112656	-0.00483817	0.0196575	-0.414307	0.0319824	1.06567	
24	-0.59888	0.32887	0.322711	0.655015	8.43594	0.21638	5.97642	-0.015136	-0.00784498	-0.0235189	-0.769287	0.397705	-0.51416	0.333147	-0.582274	-0.312125	-0.672717	9.707	0.26468	1.20731	-0.0203633	-0.0204298	-0.0321225	-0.840576	0.281982	-0.0661621	0.777903	-0.102556	0.0860036	-0.613965	0.354567	-2.91372	10.3653	0.0171411	0.0107344	-0.00700126	0.0476074	0.588623	-0.823486	0.784537	-0.188439	0.130558	-0.576148	0.311542	-4.36269	8.8665	0.0362241	-0.00368535	0.00495619	0.131104	0.911377	-0.683105	-0.705416	-0.0576091	0.0334712	0.705655	-0.364665	1.15175	9.6152	0.0793029	0.0197883	-0.0285517	0.0690918	0.278564	-0.994629	0.633577	0.183874	-0.0787641	-0.747373	-0.0477902	2.04919	13.4975	0.05049	0.0121529	-0.0356074	0.0981445	0.266602	-1.06519	-0.391943	0.569391	0.579098	0.432226	8.87445	0.515385	-2.80437	-0.0616191	0.0397941	-0.00422737	-0.932617	0.326416	0.321045	0.746164	-0.120466	0.161209	-0.634617	-0.757064	-4.0197	10.1537	0.0167115	0.0308295	-0.0384946	0.172852	0.774902	-0.717285	0.209681	-0.565286	-0.797119	0.0329715	2.85776	-2.71405	-8.42423	-0.00242519	0.0239493	-0.00262384	-0.44165	0.634521	0.785889	-0.695129	-0.116344	0.0471811	0.707838	-0.812044	2.28918	10.3388	-0.0365643	0.0116769	-0.0054766	0.118164	0.139893	-1.05786	-0.0129122	-0.671547	-0.692557	-0.263103	3.56399	3.75086	-8.62841	0.0358021	-0.00348916	0.0146452	-0.409912	0.0341797	1.07495	
25	-0.598369	0.328528	0.323121	0.655452	8.5758	0.278277	5.97847	0.0162286	-0.00329063	-0.0381782	-0.773438	0.393311	-0.518311	0.333097	-0.58209	-0.312179	-0.672876	9.73932	0.367017	1.28299	-0.00440842	0.0278081	-0.0327837	-0.842529	0.277588	-0.059082	0.777748	-0.102894	0.086437	-0.614044	0.312855	-2.83364	10.4749	-0.0660061	0.00668199	-0.00136569	0.0473633	0.599365	-0.828369	0.784537	-0.188439	0.130558	-0.576148	0.311542	-4.36269	8.8665	0.0362241	-0.00368535	0.00495619	0.131104	0.911377	-0.683105	-0.705111	-0.0592122	0.0339342	0.705806	-0.285539	1.55975	9.7024	0.0404887	0.0459316	-0.0247883	0.0737305	0.27417	-0.994629	0.633344	0.184158	-0.078611	-0.747517	-0.0569693	1.85485	13.4087	0.0140099	0.0367089	-0.0444948	0.0981445	0.268799	-1.07373	-0.391558	0.569766	0.578493	0.432891	9.01128	0.555295	-2.80182	0.00610336	-0.00906896	-0.0141138	-0.932861	0.328613	0.318848	0.745911	-0.119777	0.161623	-0.63494	-0.838178	-4.12703	9.99394	0.0127543	0.0438186	-0.0186431	0.179199	0.774902	-0.721924	0.209813	-0.565488	-0.796944	0.0328971	2.62995	-2.65599	-8.24613	0.00361102	0.00867501	-0.00972038	-0.443848	0.629883	0.783691	-0.695357	-0.11664	0.0465905	0.707604	-0.962416	2.19675	10.0002	0.00675052	0.0420799	0.015434	0.120605	0.135498	-1.06006	-0.0124807	-0.671449	-0.692559	-0.263367	3.20488	3.62691	-8.30878	0.00393877	0.0288237	-0.0117708	-0.407715	0.0341797	1.07251	
26	-0.598282	0.328302	0.323298	0.655556	8.60976	0.33945	5.97466	0.0151924	0.000508917	-0.0218324	-0.77124	0.393311	-0.520508	0.333062	-0.581924	-0.312097	-0.673074	9.82555	0.315449	1.28087	-0.00136459	0.025859	-0.0185319	-0.838135	0.279785	-0.0615234	0.777686	-0.103389	0.0871012	-0.613945	0.264344	-2.81313	10.5248	-0.0579281	0.0203253	0.00376963	0.045166	0.593018	-0.832764	0.784218	-0.186932	0.130822	-0.577013	0.126242	-4.25247	8.82116	0.0229051	0.0419014	-0.0309573	0.131348	0.904785	-0.683105	-0.704972	-0.058569	0.0321736	0.70608	-0.339212	1.22412	9.68792	-0.059503	0.0373105	-0.0377041	0.0778809	0.278809	-0.999268	0.63295	0.184826	-0.0777914	-0.747772	-0.137654	1.87974	13.378	-0.0211064	0.0566608	-0.0384618	0.102539	0.264404	-1.06934	-0.391565	0.569842	0.578982	0.43213	9.14472	0.507647	-2.92204	0.0635482	-0.0413215	-0.0124751	-0.926758	0.335205	0.325195	0.745963	-0.119235	0.16139	-0.63504	-0.814091	-4.12241	10.0111	0.0493464	0.0352558	-0.0171111	0.174805	0.7771	-0.714844	0.209692	-0.565532	-0.796942	0.0329554	2.66917	-2.69428	-8.30396	0.0024305	-0.00185145	-0.0147035	-0.446289	0.63208	0.785889	-0.695438	-0.116937	0.0465282	0.707479	-1.02248	2.43006	9.92408	0.0129299	0.0361928	0.0102534	0.122803	0.135498	-1.05762	-0.0124244	-0.671322	-0.692701	-0.26332	3.07696	3.70597	-8.19066	0.0114104	0.0102442	-0.0194364	-0.407471	0.0297852	1.07275	
27	-0.598419	0.327698	0.323336	0.655716	8.5882	0.404167	6.0441	0.0131181	0.0161751	-0.00725228	-0.769043	0.393311	-0.522705	0.333027	-0.581526	-0.311936	-0.67351	9.82678	0.329979	1.2343	-0.015197	0.0355709	-0.0216577	-0.846924	0.277588	-0.0637207	0.777694	-0.103547	0.0876019	-0.613837	0.185659	-2.88287	10.4818	-0.0328114	0.0273595	0.0091375	0.0476074	0.588623	-0.828125	0.783582	-0.18734	0.131854	-0.57751	-0.0148411	-4.4453	8.66724	-0.0313557	0.0342744	-0.0243125	0.122559	0.902588	-0.680664	-0.704784	-0.0600365	0.0324102	0.706134	-0.405753	1.19979	9.62825	0.083583	0.0350673	-0.0169085	0.078125	0.27417	-0.992432	0.632768	0.185323	-0.0771331	-0.747871	-0.134803	1.84823	13.26	0.000903318	0.038454	-0.0348586	0.0979004	0.270996	-1.07178	-0.391503	0.570112	0.578915	0.431921	9.12529	0.548085	-3.06423	-0.0114036	0.00502049	-0.00823622	-0.926514	0.333008	0.322998	0.74604	-0.119381	0.161511	-0.634891	-0.83558	-4.16243	10.2756	-0.00507065	0.0244887	-0.0103155	0.181152	0.781494	-0.719727	0.209512	-0.565589	-0.796947	0.0330038	2.91191	-2.73559	-8.55663	0.00393099	0.00766209	-0.0164932	-0.446045	0.629883	0.783691	-0.69552	-0.117219	0.0467575	0.707337	-0.952508	2.45544	10.27	0.00908362	0.0142655	0.00449781	0.118408	0.135498	-1.06006	-0.0126165	-0.671229	-0.692874	-0.263092	3.40275	3.70848	-8.50898	0.00889085	-0.00183846	-0.0140612	-0.410156	0.036377	1.07251	
28	-0.598555	0.32803	0.323165	0.655509	8.62227	0.343749	6.09063	-0.0141021	-0.018682	0.0175335	-0.773438	0.393311	-0.522705	0.332932	-0.581431	-0.311598	-0.673797	9.97502	0.272646	1.23461	-0.0156543	0.0343105	-0.0254046	-0.840332	0.275635	-0.0612793	0.777694	-0.103547	0.0876019	-0.613837	0.185659	-2.88287	10.4818	-0.0328114	0.0273595	0.0091375	0.0476074	0.588623	-0.828125	0.783404	-0.18749	0.131987	-0.577672	0.123916	-4.38298	8.71605	-0.0149313	0.0143984	-0.0163701	0.131348	0.904785	-0.678711	-0.704648	-0.0606594	0.0327505	0.7062	-0.407165	1.37627	9.72388	0.0540354	0.0219889	-0.0240635	0.078125	0.272217	-0.994629	0.632479	0.185831	-0.0768435	-0.748019	-0.113822	1.83466	13.1693	0.0174913	0.0377307	-0.0342465	0.0981445	0.268799	-1.07178	-0.391472	0.570517	0.578801	0.431567	9.24055	0.529039	-3.12627	0.0121344	0.0245747	-0.00210373	-0.924316	0.328613	0.323242	0.746214	-0.11899	0.161513	-0.63476	-0.814627	-4.19369	10.0346	0.0307522	0.0334977	-0.00865841	0.179199	0.779297	-0.719727	0.209776	-0.565531	-0.796922	0.0329255	2.70326	-2.66063	-8.35326	0.00625198	0.0180647	-0.0236166	-0.443848	0.632324	0.783691	-0.695651	-0.11729	0.0460898	0.70724	-0.943307	2.36512	10.2149	-0.0174652	0.0373402	0.00467063	0.120361	0.139893	-1.06689	-0.012497	-0.671191	-0.692839	-0.263287	3.2989	3.74731	-8.40549	-0.00723276	0.0192826	-0.00232583	-0.409912	0.0297852	1.06812	
29	-0.598443	0.32865	0.32326	0.655254	8.64293	0.341382	6.04267	-0.0109927	-0.0286356	0.00976704	-0.775635	0.395508	-0.518311	0.332952	-0.581409	-0.311307	-0.67394	9.91221	0.348341	1.28321	-0.0175143	0.0122645	-0.00375477	-0.840332	0.279785	-0.0637207	0.777181	-0.104139	0.0871569	-0.614449	0.157973	-3.06441	10.5303	0.0555799	-0.0464184	-0.0189206	0.0495605	0.592773	-0.828125	0.783258	-0.187448	0.131038	-0.578099	0.103708	-4.29155	8.70457	0.0518731	-0.0308351	-0.0312731	0.129395	0.902588	-0.685059	-0.704867	-0.0602202	0.0321844	0.706046	-0.418009	1.34388	9.825	-0.0482422	0.00526307	-0.000515523	0.0734863	0.276611	-0.999268	0.632444	0.185275	-0.0763009	-0.748242	-0.224816	1.7744	13.1946	-0.0174169	-0.000395769	-0.0250394	0.09375	0.270996	-1.06958	-0.39155	0.570511	0.578922	0.431342	9.16107	0.489836	-3.16112	0.0283425	0.00400734	-0.0135424	-0.924316	0.333008	0.322998	0.746388	-0.118835	0.161168	-0.634671	-0.821274	-4.10403	10.1857	0.00995992	0.00430342	-0.0126539	0.179199	0.775146	-0.726562	0.209796	-0.565422	-0.796993	0.0329401	2.73409	-2.64371	-8.39923	0.0043722	0.00513666	-0.0232783	-0.446289	0.632324	0.779297	-0.695786	-0.117415	0.0461553	0.707082	-0.94369	2.39803	10.0995	0.00828324	0.0112676	0.0107419	0.122559	0.139893	-1.06006	-0.0124952	-0.671047	-0.692901	-0.263491	3.20487	3.73642	-8.33969	-0.00620612	0.0107877	-0.0140924	-0.414551	0.0341797	1.07495	
30	-0.598356	0.329709	0.323167	0.654847	8.59053	0.218913	5.94253	-0.0240866	-0.0323768	0.0193963	-0.773682	0.397705	-0.520508	0.333044	-0.581144	-0.310804	-0.674355	9.78829	0.265647	1.26675	-0.00955738	0.0381665	-0.0147647	-0.842773	0.28418	-0.0686035	0.777132	-0.10439	0.0864933	-0.614563	0.305957	-2.79905	10.44	0.0101057	-0.0247751	-0.00982284	0.0429688	0.601562	-0.828369	0.782664	-0.189635	0.131426	-0.578103	0.170618	-4.71268	8.68466	-0.0790028	-0.0237913	-0.0212336	0.124512	0.90918	-0.678711	-0.704898	-0.059293	0.0315167	0.706123	-0.388384	1.19567	9.57613	-0.0241173	-0.000398379	-0.0130746	0.0734863	0.278564	-0.994629	0.632478	0.184588	-0.0763764	-0.748375	-0.119848	1.83791	13.2636	-0.0141179	-0.00042335	-0.0209537	0.102295	0.270996	-1.07178	-0.391687	0.570778	0.578627	0.431259	9.15658	0.499567	-3.06714	0.0139401	0.00522661	-0.00639633	-0.930664	0.330811	0.323242	0.746239	-0.119452	0.161491	-0.634648	-0.839927	-4.14942	10.247	-0.0134011	0.0161638	-0.0263295	0.179199	0.7771	-0.721924	0.209927	-0.565421	-0.79696	0.0329287	2.85291	-2.65608	-8.42074	0.00700314	0.0164335	-0.0168549	-0.446045	0.629883	0.781494	-0.69563	-0.117147	0.0461849	0.707278	-1.06776	2.50451	10.1799	-0.0168832	0.00410781	-0.0193896	0.125	0.139893	-1.05786	-0.0127048	-0.671264	-0.692685	-0.263496	3.36507	3.95198	-8.39252	-0.012303	-0.00485248	0.0135358	-0.407471	0.0297852	1.07275	
31	-0.598472	0.330174	0.322991	0.654594	8.55772	0.226331	5.9444	-0.00929569	-0.0117249	0.0200749	-0.771484	0.397705	-0.511963	0.333215	-0.581287	-0.3105	-0.674287	9.77509	0.306507	1.2854	-0.0190031	0.00984885	-0.00119425	-0.840576	0.286377	-0.0593262	0.777112	-0.106192	0.0871474	-0.614186	0.325623	-2.84223	10.4457	-0.0532919	-0.017603	0.00327648	0.045166	0.599365	-0.828369	0.782633	-0.189868	0.130765	-0.578218	0.269648	-4.46098	8.94487	-0.0065009	-0.0174378	0.00108274	0.124512	0.906982	-0.683105	-0.704816	-0.0590953	0.0314917	0.706223	-0.382897	1.31057	9.73167	-0.0176471	0.00997704	-0.0236453	0.0778809	0.276367	-0.985596	0.632333	0.184928	-0.0766455	-0.748386	-0.113776	1.9346	13.4383	0.0250504	0.022841	-0.0202383	0.0959473	0.266602	-1.06934	-0.392116	0.57065	0.578475	0.431243	8.92212	0.515942	-2.9998	0.0288301	0.0258127	-0.00954261	-0.926514	0.333008	0.322998	0.746571	-0.119258	0.161032	-0.634412	-0.857237	-3.98582	10.047	0.0094421	0.0110674	0.00303267	0.177246	0.774902	-0.719482	0.210211	-0.565168	-0.797057	0.033118	2.76039	-2.77416	-8.30189	0.0275664	0.0102093	-0.0291983	-0.450684	0.629883	0.785889	-0.695342	-0.117258	0.0463923	0.707529	-0.909464	2.26231	10.1396	0.0102878	0.0113418	-0.00652398	0.120361	0.139893	-1.06006	-0.0134647	-0.671457	-0.692132	-0.264418	3.25192	3.88909	-8.4011	-0.0639075	0.0143173	-0.000778638	-0.407715	0.0319824	1.06812	
32	-0.598676	0.331003	0.322916	0.654025	8.56706	0.15914	5.94287	-0.00939739	-0.0302121	0.0239313	-0.773682	0.395508	-0.511963	0.333341	-0.580919	-0.310096	-0.674728	9.81848	0.380496	1.42	-0.0131189	0.0478856	-0.0191355	-0.838135	0.279785	-0.0661621	0.777295	-0.107001	0.0880086	-0.613691	0.152498	-3.31169	10.3875	-0.0140719	0.00491945	0.0312231	0.045166	0.597168	-0.82373	0.782624	-0.190809	0.131532	-0.577746	0.127719	-4.74164	8.86087	-0.0245838	0.0130986	0.0145318	0.12207	0.911377	-0.676514	-0.704671	-0.0584564	0.030339	0.706471	-0.2911	1.18375	9.7637	-0.0507968	0.0170232	-0.0192415	0.0778809	0.280762	-0.98999	0.632493	0.184341	-0.0755453	-0.748508	-0.0968266	1.67324	13.3389	-0.0413128	0.0227972	-0.0279181	0.0981445	0.268799	-1.07178	-0.391944	0.570696	0.578568	0.431213	9.2529	0.629931	-2.93246	0.0200473	0.00340699	-0.0275936	-0.930664	0.326416	0.321045	0.746916	-0.120187	0.160917	-0.63386	-0.865836	-3.90584	10.1365	-0.0374851	-0.0204913	-0.00489333	0.177002	0.779297	-0.717285	0.21077	-0.564872	-0.79706	0.0345235	2.73537	-2.74388	-8.30913	0.0802657	-0.00971624	-0.0113574	-0.444092	0.636719	0.779297	-0.695137	-0.117715	0.0471983	0.707601	-1.15125	2.43684	9.9707	0.0410537	-0.00241203	-0.00481634	0.12085	0.131104	-1.05762	-0.0154059	-0.671577	-0.691456	-0.265774	3.1909	3.79326	-8.17548	-0.0935131	-0.0253264	-0.00472	-0.414307	0.0275879	1.07275	
33	-0.598663	0.331457	0.32277	0.65388	8.63024	0.142593	5.95861	-0.0144153	-0.0101042	0.00227123	-0.767578	0.40625	-0.511963	0.333628	-0.580471	-0.309843	-0.675088	9.81996	0.110589	1.24794	-0.0151378	0.0332488	-0.012514	-0.833984	0.279785	-0.0615234	0.777791	-0.105601	0.0873117	-0.613405	0.443766	-2.52044	10.515	0.00830532	0.0159741	0.00772399	0.0429688	0.599609	-0.830566	0.78289	-0.190645	0.13177	-0.577386	0.192107	-4.47629	8.69317	0.00189597	0.0224042	0.040848	0.124268	0.913574	-0.678711	-0.704468	-0.0583494	0.0296616	0.706711	-0.540923	1.1532	9.69762	-0.0204443	0.0299424	-0.0319074	0.0778809	0.280762	-0.992432	0.632115	0.185033	-0.075924	-0.748618	-0.166011	2.00676	13.4015	0.011218	0.0356183	-0.0314488	0.0979004	0.270996	-1.07178	-0.392603	0.570133	0.578284	0.431739	8.85412	0.313598	-2.96989	0.029715	0.055731	-0.0205357	-0.930664	0.328613	0.318848	0.746944	-0.122266	0.161705	-0.633228	-0.875243	-4.25376	10.1754	-0.0664996	-0.00037366	-0.00511957	0.174805	0.7771	-0.717285	0.211601	-0.564724	-0.79686	0.0364116	2.89689	-2.60026	-8.44005	0.0815171	-0.00421075	-0.00620867	-0.444092	0.63916	0.776855	-0.69484	-0.117431	0.0482092	0.707872	-1.02233	2.49963	10.1101	0.0219936	-0.0239028	-0.0118204	0.123047	0.131104	-1.05981	-0.0175207	-0.671817	-0.691144	-0.265847	3.30221	3.57771	-8.34003	-0.0219238	-0.0567127	-0.0145794	-0.409424	0.0209961	1.07056	
34	-0.598537	0.331554	0.322895	0.653884	8.65149	0.133042	5.95077	-0.00130675	-0.017715	-0.00994487	-0.773682	0.397705	-0.516357	0.333628	-0.580471	-0.309843	-0.675088	9.81996	0.110589	1.24794	-0.0151378	0.0332488	-0.012514	-0.833984	0.279785	-0.0615234	0.778197	-0.106727	0.088882	-0.61247	0.150379	-3.4098	10.3827	-0.00897489	0.00693647	0.0498758	0.0515137	0.597168	-0.825928	0.783444	-0.190912	0.132411	-0.576399	0.096994	-4.55914	8.80795	-0.0212773	0.00973015	0.0425671	0.126953	0.906982	-0.674316	-0.704364	-0.0592958	0.029698	0.706735	-0.520932	1.3008	9.79916	0.0407124	0.0297221	-0.0218045	0.0800781	0.278809	-0.994629	0.632084	0.184897	-0.07516	-0.748755	-0.159328	1.78479	13.3438	-0.0459829	0.0450897	-0.038285	0.100098	0.270996	-1.06738	-0.392201	0.570292	0.578808	0.431193	9.11025	0.503417	-2.7745	0.0337536	-0.0543622	-0.0309351	-0.928711	0.333008	0.322998	0.747011	-0.12255	0.162137	-0.632983	-0.837564	-4.31683	10.0054	-0.0378567	0.0295755	0.000588728	0.174805	0.779297	-0.717285	0.212082	-0.564417	-0.7969	0.0374873	2.76976	-2.61622	-8.35876	0.0414309	-0.00180099	-0.0250096	-0.444092	0.636719	0.776855	-0.694792	-0.117087	0.0484418	0.707961	-0.978182	2.48973	10.1879	-0.00564773	-0.0194332	-0.00399753	0.116211	0.135498	-1.06006	-0.0182343	-0.671957	-0.691146	-0.26544	3.29364	3.76271	-8.30523	-0.0126406	-0.058317	-0.0136728	-0.402588	0.0187988	1.08203	
35	-0.598765	0.331539	0.322588	0.653835	8.79476	0.0956838	6.04876	-0.0064349	0.0199794	0.0164221	-0.76709	0.399902	-0.516113	0.333784	-0.580195	-0.309961	-0.675194	9.97447	0.230281	1.40092	0.0261583	0.00659758	-0.0232196	-0.836182	0.279785	-0.0708008	0.778907	-0.105632	0.0880621	-0.611874	0.110165	-2.66296	10.5097	0.0050849	-0.00838294	0.0314667	0.0495605	0.594971	-0.82373	0.783872	-0.190758	0.132859	-0.575764	0.124033	-4.52985	8.44631	0.0146219	0.018644	0.0346654	0.128906	0.911377	-0.674316	-0.704437	-0.0583155	0.0284067	0.706796	-0.542141	1.02275	9.83943	-0.081156	0.022778	0.00432382	0.0732422	0.285156	-0.992432	0.631958	0.185338	-0.0749619	-0.748772	-0.361974	1.78513	13.2592	0.0104416	0.0305024	-0.018669	0.100098	0.270996	-1.06958	-0.393335	0.569507	0.578774	0.431242	9.31364	0.63246	-3.18754	0.0417788	0.109363	-0.0149098	-0.928711	0.333008	0.31665	0.747282	-0.123494	0.162411	-0.632409	-0.880821	-4.14116	10.1804	-0.00319005	-0.0176005	0.00757845	0.177002	0.781494	-0.717285	0.212144	-0.564161	-0.797051	0.0377679	2.72414	-2.73081	-8.35039	0.0294261	-0.00374117	-0.0370431	-0.446533	0.63916	0.776855	-0.694638	-0.11632	0.0487809	0.708214	-0.895231	2.56385	10.3008	-0.0185762	-0.0109563	-0.00718184	0.115967	0.137695	-1.06226	-0.0188317	-0.672353	-0.691251	-0.264118	3.29048	3.71665	-8.51277	0.0437656	-0.0468624	-0.00596416	-0.402588	0.0209961	1.07959	
36	-0.599349	0.330532	0.322551	0.653827	8.68848	0.219671	6.07469	0.0360249	0.0343313	0.00274733	-0.769287	0.399902	-0.51416	0.334547	-0.579801	-0.310634	-0.674844	9.82475	0.318363	1.47133	0.03702	0.0120831	-0.00403439	-0.840332	0.277588	-0.0683594	0.779452	-0.106037	0.0877378	-0.611157	0.107223	-3.02959	10.522	0.0271003	-0.0178287	0.0220566	0.0473633	0.597168	-0.828369	0.784289	-0.190818	0.132494	-0.575261	-0.0109418	-4.22267	8.7802	-0.0197983	-0.0217602	0.0215905	0.135742	0.90918	-0.680908	-0.704653	-0.0594161	0.0293623	0.70645	-0.544522	1.19364	9.72041	0.0911875	0.0117828	-0.00027236	0.0800781	0.278564	-0.987793	0.631794	0.185421	-0.0753969	-0.748846	-0.318485	1.8077	13.3721	0.0396428	0.000916306	-0.0254916	0.0979004	0.273193	-1.07178	-0.393992	0.568783	0.579496	0.430628	9.17803	0.492264	-3.04856	0.0923346	-0.0287302	-0.0300473	-0.931152	0.339355	0.31665	0.747769	-0.123983	0.162382	-0.631746	-0.618624	-4.25813	10.0602	-0.015042	0.0181862	0.00996358	0.178955	0.781494	-0.712646	0.212001	-0.563446	-0.797587	0.0379287	2.681	-2.44697	-8.56026	-0.0190172	0.0060664	-0.040715	-0.448486	0.634521	0.774658	-0.695219	-0.115075	0.0485675	0.707863	-0.799784	2.32613	10.3613	-0.033052	-0.00790651	0.0412298	0.11377	0.137451	-1.06689	-0.0188351	-0.672031	-0.691861	-0.263339	3.32118	3.73294	-8.54455	0.0292456	-0.0139051	-0.0288638	-0.398193	0.0231934	1.08179	
37	-0.600143	0.329345	0.322306	0.653818	8.62717	0.243087	6.12246	0.0345533	0.0485826	0.00597404	-0.764648	0.395508	-0.522705	0.334864	-0.579738	-0.31119	-0.674486	9.76295	0.280666	1.41069	0.0228536	-0.00258507	-0.0249578	-0.840332	0.279785	-0.0661621	0.779452	-0.106037	0.0877378	-0.611157	0.107223	-3.02959	10.522	0.0271003	-0.0178287	0.0220566	0.0473633	0.597168	-0.828369	0.784539	-0.19193	0.132071	-0.574647	-0.0765388	-4.57196	8.71053	0.00808397	-0.0353313	0.00791696	0.128906	0.90918	-0.680908	-0.704923	-0.0593745	0.0294348	0.706181	-0.535185	1.45233	9.7685	0.000409404	0.00225933	0.01828	0.0842285	0.283203	-0.98999	0.632122	0.184787	-0.0746924	-0.748797	-0.198097	1.65359	13.2881	-0.0385185	0.0224487	-0.00549603	0.100098	0.273193	-1.06738	-0.393527	0.568936	0.581302	0.428411	9.08311	0.371262	-2.93585	0.08903	-0.114183	-0.0400478	-0.926758	0.337402	0.325195	0.747984	-0.123434	0.16233	-0.631611	-0.649326	-4.33823	10.3199	0.0197748	0.0208791	0.00356885	0.176758	0.785889	-0.719727	0.211365	-0.563146	-0.797967	0.03796	2.73726	-2.65162	-8.65511	-0.0179301	-0.0411091	-0.0517074	-0.44873	0.63916	0.774658	-0.696082	-0.114636	0.0484559	0.707093	-0.826788	2.39879	10.2814	-0.0114636	0.0155464	0.0401463	0.115967	0.14209	-1.06006	-0.0185738	-0.671247	-0.692586	-0.263453	3.3231	3.81526	-8.55994	0.0124465	0.0226053	-0.0413704	-0.403076	0.0275879	1.07959	
38	-0.60089	0.32816	0.321629	0.654062	8.44813	0.225144	6.13725	0.011978	0.0493993	0.00297804	-0.764648	0.395508	-0.518311	0.334801	-0.58012	-0.311659	-0.673971	9.91454	0.210035	1.36943	0.00037148	-0.0140626	-0.0225203	-0.840332	0.277588	-0.0708008	0.78017	-0.104922	0.0854391	-0.610758	0.330521	-2.67454	10.5577	0.0596104	-0.0305419	-0.0087397	0.0473633	0.594971	-0.828125	0.784891	-0.192032	0.131144	-0.574345	0.0838696	-4.45284	8.8617	-0.00340547	-0.0286788	0.0137622	0.128906	0.911377	-0.678711	-0.705385	-0.0576333	0.0281783	0.705915	-0.410878	1.08937	9.70249	-0.0820661	-0.00969687	0.00607036	0.0732422	0.282959	-0.985596	0.632784	0.18457	-0.0749204	-0.748268	-0.232053	1.7832	13.3669	0.0100969	0.00275964	0.0270605	0.09375	0.270996	-1.06738	-0.393389	0.568681	0.584025	0.425161	9.18641	0.608755	-3.29837	0.145759	-0.0829482	-0.0326153	-0.926758	0.335205	0.325195	0.748507	-0.121971	0.16132	-0.631535	-0.763934	-4.0878	10.0557	0.0873975	0.0200531	-0.0011625	0.179199	0.779297	-0.714844	0.210576	-0.562645	-0.79856	0.037285	2.61217	-2.94546	-8.26163	-0.0250417	0.00526225	-0.0511286	-0.450928	0.634277	0.783691	-0.696992	-0.114378	0.0473878	0.706311	-0.839371	2.5096	10.1764	-0.0608916	0.0301655	0.0471552	0.120361	0.14209	-1.05786	-0.0178173	-0.670816	-0.692896	-0.263787	3.02259	3.77714	-8.41636	0.0164482	0.0363833	-0.0132614	-0.411865	0.0275879	1.07959	
39	-0.600883	0.32819	0.321701	0.654018	8.3624	0.247733	6.07025	-0.00620003	-0.0207373	0.00336172	-0.769531	0.4021	-0.518311	0.3344	-0.580662	-0.311803	-0.673638	9.74532	0.362049	1.32363	-0.035262	0.00645335	-0.0168601	-0.836182	0.281982	-0.0686035	0.780561	-0.105783	0.0852186	-0.610141	0.340784	-2.94398	10.4877	0.00292631	-0.0306867	0.0414724	0.045166	0.593018	-0.828125	0.784793	-0.192734	0.130753	-0.574332	0.291143	-4.31973	8.79334	-0.00953637	-0.018124	-0.0120152	0.128662	0.913574	-0.678711	-0.705604	-0.0578718	0.029	0.705643	-0.316243	1.02276	9.6597	0.0650428	-0.0121105	0.00213332	0.0776367	0.282959	-0.98999	0.633714	0.183779	-0.0746674	-0.747701	-0.179672	1.76535	13.2473	-0.0307393	0.00846838	0.0207248	0.0981445	0.266602	-1.06934	-0.391857	0.569413	0.585518	0.42354	8.9369	0.544553	-3.22286	0.00511599	-0.112212	-0.036154	-0.922363	0.335205	0.327393	0.748581	-0.121568	0.160711	-0.63168	-0.889314	-4.15474	10.0164	0.00416961	0.00167614	-0.0258688	0.179199	0.779297	-0.714844	0.210242	-0.562458	-0.798794	0.0369736	2.71738	-2.73067	-8.24197	-0.0247035	-0.00229444	-0.024221	-0.446289	0.63208	0.781494	-0.697678	-0.113494	0.0468648	0.705811	-0.881325	2.40895	9.90536	-0.0374669	9.2774e-06	0.0214203	0.111328	0.141846	-1.0625	-0.0173493	-0.670846	-0.693053	-0.263331	2.96162	3.98337	-8.16009	0.0326103	-0.00188182	-0.000609083	-0.402832	0.0253906	1.07275	
40	-0.600495	0.328706	0.322268	0.653836	8.38996	0.184336	5.97262	0.00476085	-0.0417522	-0.0107029	-0.76709	0.397705	-0.522705	0.333773	-0.58119	-0.311988	-0.673408	9.59323	0.243435	1.28209	-0.00161216	-0.0295454	-0.0331607	-0.840576	0.281982	-0.059082	0.780632	-0.106168	0.0853258	-0.609969	0.283211	-2.75564	10.2935	-0.0476276	0.00214216	0.00354915	0.045166	0.595215	-0.830566	0.78466	-0.193371	0.130898	-0.574267	0.245873	-4.44012	8.80332	-0.007353	0.010288	-0.00119316	0.122314	0.90918	-0.674316	-0.70576	-0.0590826	0.030488	0.705324	-0.27429	1.36723	9.61683	0.0452008	0.00969041	0.000995061	0.079834	0.283203	-0.992432	0.633946	0.184623	-0.075945	-0.747168	0.0598095	1.92725	13.3679	0.0739628	0.0206274	0.00557586	0.102539	0.266602	-1.06738	-0.389788	0.570857	0.587538	0.420699	8.80656	0.364423	-3.09974	0.0534526	-0.158863	-0.0169856	-0.926514	0.333008	0.337891	0.74877	-0.12087	0.159973	-0.631777	-0.733748	-4.30043	10.1275	0.0558056	0.0254635	-0.00638222	0.176758	0.781494	-0.724365	0.20824	-0.562466	-0.79933	0.0365904	2.813	-2.49695	-8.45644	-0.0937737	-0.0511233	-0.037068	-0.446289	0.63208	0.785889	-0.69734	-0.112891	0.0462335	0.706283	-0.778155	2.65945	10.3768	-0.0487163	0.0248459	-0.0384114	0.122559	0.14209	-1.0625	-0.0163379	-0.671478	-0.692724	-0.262647	3.32866	3.90169	-8.49628	0.044557	0.00600769	0.0336643	-0.402832	0.0253906	1.07495	
41	-0.600055	0.329349	0.323038	0.653536	8.49949	0.218102	5.9826	0.00145452	-0.0500029	-0.00592291	-0.771484	0.399902	-0.522705	0.333344	-0.581645	-0.312138	-0.673158	9.68876	0.238869	1.1533	-0.0189485	-0.0124665	-0.0265675	-0.837891	0.273438	-0.0612793	0.780431	-0.10612	0.0855295	-0.610205	0.267071	-2.9409	10.4389	0.00930106	0.0205007	-0.0284109	0.045166	0.593018	-0.830566	0.784844	-0.192581	0.130793	-0.574305	0.0874421	-4.38438	8.61945	0.0462514	0.0224704	0.00263222	0.12207	0.911377	-0.676514	-0.70583	-0.0591753	0.0304041	0.70525	-0.350219	1.25174	9.62117	-0.00417387	0.00730358	-0.00619854	0.0734863	0.280762	-0.994629	0.63451	0.184499	-0.0752474	-0.74679	-0.108027	1.87622	13.2834	-0.0520145	0.0371378	0.00300727	0.104492	0.268799	-1.07178	-0.388704	0.571387	0.588699	0.419356	9.01595	0.410383	-3.23191	0.0250676	-0.0775396	-0.0202709	-0.915771	0.335205	0.340088	0.749033	-0.118571	0.159014	-0.632143	-0.94146	-3.67867	10.0732	0.0710439	0.0339066	-0.028111	0.174805	0.7771	-0.726562	0.206948	-0.562625	-0.799606	0.0354293	2.71303	-2.7954	-8.18402	-0.0493081	0.00452374	-0.0122916	-0.446289	0.636719	0.788086	-0.696455	-0.112618	0.0444809	0.707311	-0.897548	1.94408	9.97328	-0.0288642	0.0469279	-0.0620065	0.120117	0.144287	-1.0625	-0.0149707	-0.672817	-0.691378	-0.262848	3.0567	3.9956	-8.19699	0.00952865	0.0425816	0.0757262	-0.403076	0.0297852	1.06812	
42	-0.599557	0.330537	0.323934	0.65295	8.55451	0.272826	5.97586	-0.0124835	-0.0792703	0.00952308	-0.769287	0.397705	-0.518311	0.332845	-0.582204	-0.312384	-0.672807	9.84795	0.297855	1.29146	-0.020202	-0.0520566	-0.0332434	-0.842529	0.279785	-0.0637207	0.780191	-0.106216	0.0854629	-0.610505	0.349088	-2.73626	10.4011	0.0114388	0.00284052	-0.018353	0.0429688	0.599365	-0.825928	0.784672	-0.192744	0.130802	-0.574483	0.0793534	-4.14481	8.73319	-0.00925515	0.00590637	-0.0192687	0.126465	0.913574	-0.674316	-0.705846	-0.0588164	0.0300025	0.705281	-0.276394	1.13482	9.75755	-0.0208815	0.0024846	-0.0182853	0.0820312	0.285156	-0.98999	0.634721	0.184513	-0.0750905	-0.746623	-0.0967318	1.67436	13.2225	-0.00472929	0.0284568	-0.000320499	0.102295	0.270996	-1.06958	-0.38811	0.571767	0.589286	0.418564	8.98112	0.521987	-3.81406	0.0319807	-0.083697	-0.022624	-0.917969	0.335205	0.342285	0.748432	-0.11915	0.15918	-0.632704	-0.795038	-3.99338	10.1524	-0.0355738	0.0199193	-0.0556907	0.179199	0.774902	-0.721924	0.207227	-0.563722	-0.798792	0.0347258	2.68503	-2.57905	-8.37208	-0.0118446	0.0523195	0.0356114	-0.443604	0.627686	0.78833	-0.695947	-0.113326	0.0448603	0.707674	-0.923349	2.03066	9.81198	0.0643596	0.0281074	-0.0476249	0.124512	0.148682	-1.0603	-0.0147196	-0.673092	-0.690998	-0.26316	2.87579	3.7261	-8.01699	-0.00827589	0.0309306	0.0355348	-0.409668	0.0275879	1.07495	
43	-0.59848	0.33258	0.325013	0.652364	8.70718	0.121862	5.90744	-0.0270748	-0.105101	-0.0149438	-0.773682	0.399658	-0.509766	0.331907	-0.582583	-0.312075	-0.673086	9.80098	0.313509	1.17275	-0.0500897	0.0151691	-0.0441612	-0.842773	0.281982	-0.0639648	0.779365	-0.107863	0.0868453	-0.611076	0.239722	-2.91617	10.2047	-0.0911953	0.00178924	-0.0334954	0.045166	0.601562	-0.833008	0.783787	-0.194698	0.132028	-0.574751	0.201626	-4.64635	8.5251	-0.0787553	0.0137769	-0.0323374	0.126465	0.913574	-0.669922	-0.705592	-0.0600908	0.031742	0.705352	-0.372898	1.33297	9.72904	0.100939	-0.00369093	-0.0262367	0.0734863	0.276367	-0.992432	0.634609	0.185092	-0.0763693	-0.746445	-0.136739	1.91012	13.2719	0.0648501	-0.00735227	-0.00893779	0.0981445	0.264404	-1.06934	-0.386947	0.572262	0.588889	0.41952	9.08909	0.47435	-3.12128	-0.0113439	-0.0279372	-0.0206159	-0.922119	0.333008	0.344482	0.747623	-0.119232	0.159287	-0.633618	-0.888672	-4.148	10.4052	0.0269069	0.0375006	-0.0662994	0.177002	0.7771	-0.724365	0.207855	-0.56501	-0.797758	0.0338001	2.86781	-2.6613	-8.54139	-0.0200538	0.0581606	0.0377474	-0.443848	0.629883	0.783691	-0.694779	-0.114232	0.0456906	0.708623	-1.00478	2.61989	10.2739	0.0378622	0.00762603	-0.0631496	0.115967	0.14209	-1.0625	-0.0142249	-0.673831	-0.690324	-0.263064	3.32848	3.62228	-8.48068	0.0158157	0.0068014	0.0478552	-0.40332	0.0341797	1.07251	
44	-0.59779	0.333177	0.325491	0.652454	8.79288	0.124009	5.93757	-0.0242042	-0.0730666	-0.0393741	-0.780273	0.397461	-0.507568	0.330906	-0.582961	-0.312576	-0.673019	9.86813	0.446729	1.23373	-0.0145132	-0.0172938	-0.0435872	-0.842529	0.275635	-0.0517578	0.779277	-0.108091	0.0867308	-0.611165	0.237836	-2.9001	10.3968	-0.00601858	-0.0126178	-0.0139715	0.0473633	0.601562	-0.821533	0.783105	-0.193838	0.131598	-0.576069	0.275434	-4.24544	8.70582	0.0327462	0.0314176	-0.0534686	0.128662	0.913574	-0.676514	-0.705326	-0.060906	0.0333702	0.705473	-0.359263	1.42266	9.71024	0.0752909	-0.0207621	-0.0118659	0.0759277	0.27417	-0.994629	0.634329	0.185508	-0.0771821	-0.746496	-0.0928139	1.95397	13.2967	0.0395527	-0.000837447	-0.0145345	0.100586	0.262207	-1.06714	-0.386757	0.572489	0.588981	0.419257	8.95805	0.457194	-3.40846	0.0136428	-0.0201562	-0.00986218	-0.920166	0.335205	0.344238	0.747283	-0.119229	0.159094	-0.634068	-0.834705	-3.96713	10.2361	0.0161813	0.0183707	-0.063923	0.175049	0.772705	-0.724121	0.208112	-0.565593	-0.797287	0.0335682	2.84462	-2.75268	-8.55381	-0.00700379	0.0446224	0.035872	-0.443604	0.627686	0.783691	-0.693826	-0.113968	0.0450635	0.709638	-0.858186	2.11524	10.3324	-0.0152469	0.0279355	-0.0506418	0.115967	0.14209	-1.05786	-0.0134856	-0.674784	-0.68938	-0.263135	3.50903	3.77854	-8.60484	-0.000731423	0.0273261	0.0486881	-0.407959	0.0385742	1.07251	
45	-0.596068	0.333842	0.326932	0.652968	8.74878	0.166954	5.85095	0.00647306	-0.0764255	-0.0775163	-0.778076	0.397461	-0.507568	0.329949	-0.583296	-0.312669	-0.673156	9.88149	0.391468	1.31098	-0.0291001	-0.00667601	-0.0470865	-0.835693	0.27124	-0.0563965	0.778865	-0.107771	0.085855	-0.611869	0.18807	-2.94388	10.595	0.0511758	-0.0159429	-0.0357132	0.0407715	0.599609	-0.828369	0.782285	-0.194454	0.131833	-0.576921	0.0334955	-4.61931	8.6904	-0.00571757	0.00313491	-0.0504717	0.124023	0.917969	-0.678711	-0.705264	-0.0609431	0.0334751	0.705527	-0.433025	1.60708	9.81232	0.00796732	0.00294772	-0.0186468	0.0737305	0.271973	-0.992432	0.634303	0.185943	-0.0784463	-0.746278	-0.117137	2.0192	13.3832	0.0687788	-0.00571373	-0.00363944	0.102783	0.26001	-1.07568	-0.385886	0.573142	0.589283	0.418743	9.12965	0.583304	-3.38811	-0.0225854	-0.054113	-0.0196298	-0.917969	0.335205	0.346436	0.746626	-0.119837	0.159572	-0.634607	-0.759728	-4.25519	10.0354	-0.0245816	0.0221591	-0.0526482	0.170654	0.774902	-0.717285	0.208571	-0.566515	-0.796505	0.0337385	2.54096	-2.65024	-8.29421	0.015326	0.0188794	0.0284688	-0.443848	0.634521	0.788086	-0.693364	-0.115155	0.0452213	0.709888	-1.06065	2.23247	10.0847	0.0436713	0.0358675	-0.0129	0.115967	0.14209	-1.05786	-0.0132218	-0.674953	-0.688828	-0.264157	3.25046	3.70355	-8.31666	-0.0344034	0.0366098	0.00896391	-0.405273	0.0297852	1.07495	
46	-0.594874	0.333734	0.328499	0.653326	8.82119	0.277676	5.84276	0.0228826	-0.0471462	-0.0630879	-0.777832	0.390869	-0.503174	0.32925	-0.583731	-0.312521	-0.673189	9.74144	0.257686	1.14949	-0.0358626	-0.00537424	-0.0308664	-0.844727	0.277832	-0.0541992	0.778517	-0.10719	0.0849696	-0.612538	0.336017	-2.84027	10.5025	-0.00283337	0.00938626	-0.0392506	0.045166	0.595215	-0.82373	0.781763	-0.195331	0.131567	-0.577392	0.179981	-4.65722	8.92343	-0.0396039	-0.00987503	-0.0259446	0.119629	0.915527	-0.669922	-0.704524	-0.0605535	0.0341376	0.706268	-0.491869	1.27271	9.72093	0.0545699	-0.0306392	-0.0546057	0.0737305	0.27002	-0.999268	0.634758	0.185835	-0.078788	-0.745883	-0.30742	1.88054	13.4041	0.0249695	0.00730539	0.0121813	0.102539	0.262207	-1.06934	-0.385581	0.5736	0.588786	0.419096	8.96378	0.367476	-3.36237	0.0112907	0.027142	-0.0044221	-0.918213	0.337158	0.350586	0.746228	-0.120112	0.158857	-0.635201	-0.796206	-4.08951	10.2561	0.0152297	-0.00804476	-0.045577	0.179443	0.772705	-0.721924	0.208465	-0.567168	-0.796054	0.0340788	2.83029	-2.75316	-8.48901	0.00992002	0.000746733	0.00919049	-0.44165	0.632324	0.785889	-0.693063	-0.115722	0.0457019	0.710059	-1.03895	2.50964	10.1059	0.0162281	0.0123817	-0.0107981	0.115967	0.14209	-1.05786	-0.013205	-0.675003	-0.688641	-0.264519	3.32472	3.51429	-8.35303	0.003356	0.00833666	0.000567148	-0.405518	0.036377	1.07251	
47	-0.594589	0.332976	0.329373	0.653533	8.62278	0.378053	5.86874	0.0340607	-0.00357808	-0.0304619	-0.781982	0.386475	-0.505371	0.328805	-0.584062	-0.313111	-0.672845	9.80288	0.350844	1.19464	0.0254824	-0.00711865	-0.0361708	-0.844482	0.275635	-0.0517578	0.778232	-0.107036	0.0848016	-0.612949	0.468333	-2.8681	10.4368	0.0588576	0.00880809	-0.0224585	0.0385742	0.601807	-0.833008	0.781538	-0.194865	0.131522	-0.577865	0.301859	-4.54366	8.99528	0.0274403	0.0285841	-0.0182444	0.115479	0.91333	-0.674316	-0.703142	-0.0618714	0.0358918	0.707443	-0.408079	1.32654	9.70547	0.0720815	-0.00398106	-0.0894097	0.0671387	0.271973	-0.992432	0.634559	0.188214	-0.0815316	-0.74516	-0.183512	2.25354	13.3269	0.142945	0.0301692	0.0019198	0.10083	0.251465	-1.07104	-0.385053	0.573853	0.589194	0.418661	8.90072	0.605391	-3.32368	-0.0195383	-0.0283687	-0.0245335	-0.922119	0.330811	0.348633	0.74624	-0.120563	0.158827	-0.63511	-0.792209	-4.19267	10.2261	-0.00722389	0.0110002	-0.0120722	0.177246	0.774902	-0.721924	0.208878	-0.567325	-0.795823	0.0343143	2.80737	-2.80339	-8.4505	0.0268525	0.0222766	-0.009869	-0.44165	0.634521	0.790283	-0.69305	-0.115556	0.0450961	0.710138	-0.932271	2.29837	10.4011	-0.0295126	0.036741	-0.0026944	0.118164	0.14209	-1.05566	-0.0126935	-0.675082	-0.688536	-0.264618	3.54096	3.71299	-8.57722	0.0113176	0.0192421	0.00752035	-0.410156	0.036377	1.07471	
48	-0.594113	0.332257	0.330474	0.653775	8.61922	0.363631	5.89651	0.0430303	-0.0213294	-0.0536599	-0.777588	0.388916	-0.509766	0.328019	-0.584269	-0.313564	-0.672837	9.90182	0.475383	1.14162	-0.0403365	-0.00941085	-0.0357876	-0.840332	0.275635	-0.0541992	0.778144	-0.107378	0.0857145	-0.612875	0.309207	-2.85778	10.581	-0.0567031	0.0073135	0.0131885	0.0388184	0.595215	-0.821289	0.781318	-0.194069	0.132271	-0.57826	0.105979	-4.70964	8.73972	0.0413343	0.0535009	-0.00690739	0.119873	0.91333	-0.672119	-0.702524	-0.063678	0.0374492	0.707816	-0.165306	1.27779	9.74241	0.104732	0.0249576	-0.0155557	0.0720215	0.260986	-0.992432	0.633461	0.189433	-0.0824964	-0.745679	-0.0771839	1.94067	13.4552	0.0700746	0.0171007	-0.0806968	0.0944824	0.251465	-1.07104	-0.385237	0.573739	0.589531	0.418173	9.00851	0.553191	-3.22818	0.0373796	0.0243583	-0.0252979	-0.915771	0.335205	0.35083	0.7466	-0.121283	0.157743	-0.63482	-0.82302	-4.0768	9.98512	0.014106	-0.0462087	-0.0108325	0.172607	0.7771	-0.729004	0.209094	-0.567314	-0.795761	0.0346163	2.63326	-2.66728	-8.28064	0.0343761	0.00947968	-0.011858	-0.439453	0.636719	0.783691	-0.693347	-0.116226	0.0443397	0.709785	-0.974851	2.2633	10.0413	0.00465167	0.0537328	0.0206036	0.118164	0.137695	-1.06006	-0.0117997	-0.674753	-0.68865	-0.265198	3.13861	3.63784	-8.26548	0.0131975	0.0496757	-0.0155637	-0.410156	0.036377	1.06787	
49	-0.593564	0.331978	0.331513	0.65389	8.75582	0.555002	5.86422	0.0100504	-0.0252134	-0.0201859	-0.781982	0.386475	-0.505371	0.327464	-0.585126	-0.313678	-0.672311	10.0142	0.334503	1.14581	-0.0152719	-0.0284777	-0.0219429	-0.846436	0.266846	-0.0561523	0.77805	-0.107978	0.0872501	-0.612672	0.231543	-2.86021	10.5121	-0.0623197	0.0426118	0.00558496	0.0407715	0.601807	-0.828369	0.781379	-0.193913	0.133042	-0.578052	0.210303	-4.53712	8.63446	-0.0372544	0.0241645	0.0283125	0.11792	0.908936	-0.669922	-0.702765	-0.0614827	0.0345296	0.707918	-0.368338	1.57607	9.76251	-0.255764	0.0170144	-0.0109321	0.0737305	0.27417	-0.994629	0.633034	0.188047	-0.0803193	-0.746629	-0.149075	2.0053	13.1623	-0.163861	0.0231938	-0.055278	0.10083	0.253662	-1.07324	-0.385246	0.574058	0.589236	0.418143	9.03261	0.581856	-3.59666	0.012207	0.0439219	0.00434127	-0.920166	0.335205	0.348633	0.746523	-0.121756	0.158005	-0.634754	-0.732615	-4.11247	10.4033	-0.0198625	0.0478223	-0.0276368	0.172607	0.781494	-0.719727	0.208989	-0.567221	-0.795833	0.0351184	2.78151	-2.59192	-8.47246	0.00415691	-0.00338647	-0.00847371	-0.439697	0.641357	0.783691	-0.693798	-0.116296	0.0443424	0.709333	-1.18138	2.33375	10.0127	0.000319433	0.00382436	0.0240331	0.120361	0.139893	-1.05542	-0.0116279	-0.674412	-0.688978	-0.265222	3.21467	3.71198	-8.18124	0.0091519	0.0012425	-0.0219099	-0.414551	0.0341797	1.07495	
50	-0.593482	0.332166	0.331569	0.65384	8.76392	0.476252	5.83432	-0.00692405	-0.0195391	-0.000434813	-0.781982	0.384521	-0.505371	0.327282	-0.585197	-0.313627	-0.67236	9.90611	0.296476	1.16175	-0.0191991	0.00842091	-0.0251381	-0.842529	0.275635	-0.0495605	0.777583	-0.108139	0.0882972	-0.613086	0.338897	-3.20046	10.3238	-0.0352923	0.031168	-0.0229065	0.0385742	0.604004	-0.823975	0.781672	-0.194186	0.13343	-0.577475	0.226982	-4.55825	8.67494	-0.0350091	0.00771253	0.0538096	0.12207	0.911133	-0.667725	-0.702757	-0.0602191	0.0329439	0.708111	-0.430468	0.964897	9.59841	0.0302334	0.011528	-0.0235336	0.0737305	0.27417	-0.987793	0.633002	0.187405	-0.0794548	-0.74691	-0.253743	1.48869	13.2381	-0.0797195	0.017411	-0.0442795	0.0983887	0.258057	-1.07568	-0.385322	0.574101	0.588991	0.418359	9.15626	0.375202	-3.27125	-0.00262781	0.0307663	-0.0089517	-0.917969	0.333008	0.35083	0.746379	-0.121839	0.157799	-0.63496	-0.836261	-4.13749	10.3202	0.0108129	0.00830005	-0.0408748	0.16626	0.7771	-0.717285	0.208901	-0.567828	-0.795428	0.0350154	2.83105	-2.65404	-8.42349	-0.00661776	0.0172305	0.012589	-0.439453	0.636719	0.785889	-0.693858	-0.116061	0.0445553	0.709299	-1.10207	2.30031	10.1709	-0.00114174	-0.0101366	0.00884398	0.127197	0.137695	-1.06006	-0.0118383	-0.674375	-0.689082	-0.265035	3.41845	3.78942	-8.34471	0.00401118	-0.0144709	-0.0179397	-0.409912	0.0341797	1.07251	
51	-0.593483	0.332295	0.331433	0.653843	8.77174	0.403148	5.82449	-0.00558265	0.00346873	0.00186465	-0.779785	0.388672	-0.507568	0.327427	-0.585499	-0.313767	-0.671962	9.8904	0.352159	1.1496	0.0118371	-0.00772075	-0.00317767	-0.844727	0.277832	-0.0541992	0.777821	-0.107421	0.0877841	-0.612983	0.287568	-3.31994	10.3933	0.0752718	0.00614045	0.0183408	0.0429688	0.60376	-0.830811	0.782102	-0.193452	0.133371	-0.577152	0.227829	-4.60024	8.58661	0.026947	0.0142652	0.0238452	0.12207	0.911133	-0.672119	-0.702742	-0.0613952	0.033751	0.707987	-0.337833	1.17241	9.65397	0.112003	0.0288367	-0.0054915	0.0737305	0.274414	-1.00366	0.63238	0.188347	-0.0804039	-0.747098	-0.103186	2.06885	13.3032	0.0284551	0.0221235	-0.0334011	0.100342	0.262207	-1.07568	-0.386401	0.573593	0.588557	0.418672	8.81173	0.427063	-3.652	0.0596102	0.0719569	-0.000865384	-0.915771	0.333008	0.348633	0.74602	-0.121874	0.157327	-0.635491	-0.848936	-4.18509	10.0529	0.0044138	0.0176887	-0.0443638	0.172852	0.774902	-0.721924	0.208806	-0.568156	-0.795223	0.0349145	2.70128	-2.71727	-8.26561	-0.0107337	0.0112076	0.0100096	-0.437256	0.63916	0.785889	-0.693818	-0.11585	0.0446718	0.709366	-1.03825	2.41225	10.256	-0.0072357	0.00568432	-0.00164358	0.120117	0.148682	-1.06494	-0.0123084	-0.674431	-0.689042	-0.264976	3.42187	3.78541	-8.39404	-0.0154021	-0.00473036	-0.00586824	-0.405518	0.036377	1.07251	
52	-0.593966	0.332074	0.330929	0.653771	8.69708	0.43078	5.86362	-0.000358853	0.0187682	0.0243179	-0.777588	0.388916	-0.507568	0.328064	-0.585634	-0.313486	-0.671664	9.72363	0.325889	1.13182	-0.00178621	0.0129457	0.0108212	-0.844727	0.277832	-0.0541992	0.778062	-0.106279	0.0865856	-0.613047	0.295407	-2.59931	10.4633	-0.0350218	-0.00588018	-0.00406204	0.0429688	0.595215	-0.828125	0.782159	-0.193755	0.13361	-0.576918	0.0574328	-4.3898	8.70983	-0.0827489	0.00181231	0.00887314	0.124512	0.911133	-0.669922	-0.702906	-0.0630159	0.0351317	0.707614	-0.480034	1.63658	9.68786	0.0569135	0.00406828	-0.00589924	0.0759277	0.269775	-0.992432	0.632753	0.187641	-0.0791993	-0.747089	-0.174454	1.86374	13.1302	-0.0472582	0.0248662	-0.00536787	0.102783	0.258057	-1.07349	-0.387507	0.572887	0.587807	0.41967	9.03655	0.621467	-3.46843	-0.0261657	0.0970113	-0.0217668	-0.924316	0.330811	0.342285	0.745996	-0.121557	0.156841	-0.635701	-0.780667	-4.03849	10.23	0.018287	0.0223619	-0.0174698	0.172852	0.7771	-0.721924	0.208242	-0.568439	-0.795166	0.0349859	2.66399	-2.71472	-8.35995	-0.0077812	-0.0187042	-0.0129959	-0.44165	0.634521	0.788086	-0.69386	-0.116007	0.0453781	0.709254	-1.03187	2.36939	10.1153	0.0286637	0.00228305	0.0088277	0.120361	0.14209	-1.06006	-0.0127155	-0.674329	-0.689131	-0.264985	3.3261	3.70789	-8.34558	-0.00402984	-0.00328209	-0.0177109	-0.409668	0.0275879	1.07031	
53	-0.594665	0.332599	0.330229	0.653223	8.66692	0.384198	5.91657	-0.0184489	-0.00432087	0.0465483	-0.775391	0.388916	-0.509766	0.328116	-0.585906	-0.313018	-0.67162	9.96131	0.316595	1.12133	-0.0291728	0.032314	-0.00184737	-0.846924	0.277832	-0.0495605	0.777854	-0.108537	0.0881801	-0.612688	0.27432	-2.88829	10.3612	-0.0652843	-0.00830487	-0.0144858	0.0429688	0.599609	-0.828369	0.78223	-0.19428	0.133633	-0.57664	0.156797	-4.33765	8.4304	0.0210632	-0.0100532	0.00874581	0.130859	0.917969	-0.667725	-0.703271	-0.0604146	0.0330035	0.707581	-0.366655	0.974709	9.68642	-0.145792	-0.00843406	0.00388478	0.0734863	0.278564	-0.994629	0.633308	0.187432	-0.0794686	-0.746642	-0.254353	1.68096	13.1982	0.0669186	-0.00396829	0.00964859	0.0964355	0.258057	-1.06714	-0.388157	0.57266	0.58673	0.420883	9.10007	0.410342	-3.21186	0.000493845	0.0712886	-0.00926051	-0.924561	0.335205	0.342285	0.746151	-0.121772	0.156299	-0.635611	-0.679921	-4.14789	10.2212	0.0214017	-0.00192944	-0.0134915	0.174805	0.7771	-0.721924	0.207741	-0.568425	-0.795306	0.0350077	2.75023	-2.63982	-8.49925	-0.00501847	-0.00614311	-0.024625	-0.434814	0.636963	0.785889	-0.694089	-0.115895	0.0455874	0.709035	-0.995257	2.45401	10.2079	0.00241254	-0.000412356	0.0141071	0.118164	0.14209	-1.0625	-0.0130258	-0.674189	-0.689372	-0.2647	3.35745	3.71498	-8.3777	0.00704078	-0.00595605	-0.0229349	-0.409912	0.0341797	1.07251	
54	-0.594701	0.333505	0.329952	0.652868	8.68368	0.31234	5.87227	-0.0226583	-0.0291636	0.0124529	-0.784424	0.388672	-0.501221	0.328225	-0.586044	-0.312501	-0.671687	9.91522	0.388116	1.19132	-0.0230963	-0.00605615	-0.00727641	-0.842529	0.280029	-0.0495605	0.777847	-0.109602	0.0872437	-0.612642	0.23518	-3.27729	10.3327	0.0473252	-0.0785335	0.00033529	0.0385742	0.604004	-0.826172	0.781913	-0.194835	0.13278	-0.577079	0.134575	-4.44118	8.28838	0.0274603	-0.0312614	-0.0475956	0.12207	0.915527	-0.672119	-0.703676	-0.0602525	0.033632	0.707162	-0.333308	1.31658	9.76814	0.0115192	-0.00854454	0.0219735	0.0671387	0.27417	-0.992432	0.633733	0.186719	-0.0797323	-0.746433	-0.153841	2.07815	13.2673	-0.0813856	-0.00735732	0.0044392	0.0961914	0.262207	-1.07153	-0.388423	0.572327	0.586829	0.420952	8.9839	0.509451	-3.24694	0.0275671	0.00193536	-0.0194323	-0.922363	0.335205	0.340088	0.746436	-0.122067	0.156114	-0.635265	-0.71125	-4.14808	10.1725	0.0057326	0.00846229	-0.000558372	0.168213	0.779297	-0.726562	0.207368	-0.5681	-0.795638	0.0349297	2.66148	-2.68958	-8.33452	-0.00203905	-0.00539771	-0.0395995	-0.439453	0.636719	0.783691	-0.69446	-0.115699	0.046013	0.708676	-0.903058	2.30678	10.2512	0.0131469	0.00748526	0.0220593	0.120361	0.139893	-1.06689	-0.0132989	-0.673845	-0.68971	-0.264681	3.43372	3.78933	-8.55607	-0.00238836	0.00806808	-0.0252315	-0.414307	0.0319824	1.07495	
55	-0.594631	0.334572	0.329591	0.652568	8.66222	0.216224	5.81458	-0.0312994	-0.0287772	0.0244693	-0.780029	0.393066	-0.503418	0.329054	-0.585609	-0.312212	-0.671795	9.71323	0.252532	1.20486	0.0203968	0.0357866	-0.00448537	-0.842529	0.277832	-0.052002	0.7781	-0.10886	0.0851943	-0.612741	0.380595	-2.83471	10.368	0.153003	-0.0871264	-0.00762716	0.0385742	0.601807	-0.828369	0.780889	-0.196847	0.131882	-0.577989	0.131342	-4.59372	8.54599	-0.091534	-0.0521461	-0.0698635	0.117432	0.915527	-0.672119	-0.7041	-0.0599702	0.0348042	0.706708	-0.557583	1.59825	9.7002	0.0235532	-0.0358438	0.00197331	0.078125	0.274414	-0.994629	0.634516	0.18594	-0.0802633	-0.745905	-0.200447	2.00777	13.276	0.0405897	-0.0138183	0.0321674	0.0983887	0.26001	-1.07129	-0.38888	0.572353	0.586232	0.421326	9.069	0.505535	-3.36018	0.00676798	0.0471727	-0.00319424	-0.928955	0.339355	0.339844	0.746886	-0.122251	0.155018	-0.634968	-0.719003	-4.0403	10.1415	0.0240291	-0.0240109	-0.00464468	0.17041	0.779297	-0.726562	0.206907	-0.567708	-0.796039	0.0349047	2.70855	-2.68356	-8.40751	-0.00321611	-0.00986359	-0.0392874	-0.44165	0.634521	0.783691	-0.694892	-0.115782	0.0462613	0.708222	-0.952525	2.35585	9.99725	0.00843031	0.00894105	0.0281845	0.120361	0.14209	-1.06006	-0.0135399	-0.673455	-0.689976	-0.26497	3.2055	3.64757	-8.28537	-0.0139093	0.0108251	-0.0288558	-0.407959	0.036377	1.07251	
56	-0.594976	0.334933	0.329262	0.652235	8.70508	0.215517	5.8152	-0.00258305	0.00909922	0.0257849	-0.782227	0.393066	-0.503418	0.329825	-0.585392	-0.312504	-0.671471	9.71797	0.313621	1.20858	0.0234796	0.0231724	0.00169819	-0.840332	0.280029	-0.052002	0.77832	-0.111485	0.0840864	-0.612143	0.462271	-2.62965	10.5788	-0.055093	-0.0495291	-0.00535606	0.0322266	0.599609	-0.82373	0.780587	-0.198035	0.13034	-0.57834	0.229251	-4.46428	8.94529	-0.0154532	-0.0667195	-0.016331	0.110596	0.919922	-0.672363	-0.704055	-0.0581421	0.0337173	0.706958	-0.220253	0.984522	9.61511	-0.070081	-0.0151791	-0.0199201	0.0649414	0.276367	-0.994629	0.635464	0.185714	-0.0809449	-0.745079	-0.139612	1.94801	13.3305	0.0262362	0.00159792	0.0249714	0.0983887	0.258057	-1.07568	-0.390218	0.571502	0.586025	0.421533	8.90356	0.468777	-3.29677	0.0377202	0.0582098	-0.00926859	-0.922607	0.339355	0.333496	0.747256	-0.12277	0.154583	-0.634539	-0.638052	-4.12914	10.2033	-0.00569137	-0.00638461	0.0018201	0.166504	0.770752	-0.72876	0.206645	-0.567365	-0.796358	0.0347815	2.77143	-2.65249	-8.49373	-0.00502576	0.002978	-0.0367366	-0.44165	0.63208	0.788086	-0.695126	-0.116284	0.0461776	0.707917	-0.920105	2.4165	10.4132	0.00329212	0.0430377	0.0139488	0.122803	0.135498	-1.06226	-0.013704	-0.673227	-0.690025	-0.265411	3.41984	3.71459	-8.52411	-0.0189416	0.0228939	-0.0112798	-0.407471	0.0275879	1.06812	
57	-0.595676	0.334846	0.328809	0.651869	8.6085	0.250834	5.91145	0.00403712	0.00625796	0.0316166	-0.782471	0.397461	-0.503418	0.330102	-0.585445	-0.312563	-0.67126	9.65999	0.28617	1.15833	0.0152346	0.00599378	0.000381519	-0.84668	0.275635	-0.0517578	0.778221	-0.11322	0.0842233	-0.611931	0.290396	-3.52488	10.4409	0.0258284	-0.0373243	0.00932069	0.0300293	0.606201	-0.828369	0.780546	-0.199462	0.130523	-0.577864	0.214078	-4.81372	8.92554	-0.101125	-0.0536279	0.0168127	0.112793	0.919922	-0.665527	-0.704054	-0.0585975	0.0346185	0.706877	-0.393715	1.00312	9.5889	0.0763696	-0.0165367	-0.00440286	0.0649414	0.27417	-0.999268	0.635893	0.184842	-0.0801833	-0.745013	-0.0757052	2.08587	13.2936	-0.100093	0.0121063	-0.0125632	0.0983887	0.258057	-1.07349	-0.390918	0.571131	0.585769	0.421744	9.0203	0.421099	-3.24165	0.0346679	0.0343258	-0.017365	-0.92041	0.341553	0.327148	0.747606	-0.121408	0.155399	-0.634189	-0.604465	-4.10778	10.4992	-0.00479588	0.0892726	0.0194947	0.170654	0.774902	-0.719482	0.205429	-0.566621	-0.797145	0.0360425	2.761	-2.52964	-8.49293	0.0184993	-0.0829579	-0.0522939	-0.439453	0.636719	0.790283	-0.695502	-0.11679	0.0453801	0.707515	-0.67176	2.35044	10.4888	0.0109586	0.0810409	0.0180179	0.120605	0.137695	-1.0647	-0.0133629	-0.672796	-0.690015	-0.266544	3.63251	4.00834	-8.74853	-0.0273562	0.065958	-0.0110772	-0.414307	0.0275879	1.07495	
58	-0.595834	0.335107	0.328708	0.651642	8.66706	0.259649	5.93135	-0.00733825	-0.014157	0.0267411	-0.780273	0.397461	-0.503418	0.330301	-0.585561	-0.312503	-0.67109	9.96584	0.29691	1.13749	-0.0080319	0.0281598	-0.0042671	-0.844727	0.281982	-0.0544434	0.778827	-0.109702	0.0808546	-0.612255	0.46621	-2.59683	10.586	0.150579	-0.0153967	-0.0095849	0.0322266	0.595459	-0.828125	0.780789	-0.20008	0.130011	-0.577437	0.346761	-4.61016	8.89302	0.0111102	-0.0171474	0.0156578	0.112793	0.919922	-0.667969	-0.704124	-0.0571787	0.0340975	0.70695	-0.293742	1.33191	9.77063	-0.121709	-0.02791	-0.0115389	0.0646973	0.278564	-0.98999	0.635868	0.18428	-0.0798525	-0.745209	-0.150521	1.71387	13.2017	-0.0434498	-0.00326166	-0.0318816	0.0961914	0.26001	-1.07349	-0.390939	0.57115	0.585341	0.422292	9.18145	0.536274	-3.25228	-0.0271912	0.0494912	-0.0143797	-0.924561	0.335205	0.331543	0.748001	-0.12061	0.155523	-0.633846	-0.728416	-4.31352	10.2739	0.0451252	0.0605733	0.0333567	0.172852	0.774902	-0.717285	0.204461	-0.566187	-0.797692	0.036275	2.62444	-2.74854	-8.51733	-0.0189542	-0.0742587	-0.0638945	-0.434326	0.627686	0.783936	-0.69569	-0.117764	0.044753	0.707209	-0.892428	2.32484	10.4047	0.0182566	0.108139	0.0192181	0.127197	0.137695	-1.06226	-0.0132002	-0.672581	-0.689817	-0.267605	3.37869	3.85253	-8.49591	-0.0513011	0.0769081	-0.00234641	-0.416504	0.0275879	1.07275	
59	-0.595432	0.337235	0.328962	0.650783	8.66382	0.201903	5.76697	-0.0324641	-0.0765366	0.0205319	-0.776123	0.399658	-0.499023	0.330324	-0.585698	-0.312163	-0.671117	9.99663	0.227861	1.105	-0.0246999	0.000210151	-0.0164066	-0.842529	0.275635	-0.0517578	0.778631	-0.111396	0.081792	-0.612075	0.558841	-3.07326	10.475	-0.0850247	-0.00798595	0.00478626	0.027832	0.599854	-0.828369	0.781136	-0.199897	0.129679	-0.577105	0.436934	-4.61729	8.8333	0.036084	0.000569745	0.00758664	0.113037	0.915527	-0.672119	-0.7041	-0.054756	0.0331842	0.707208	-0.245668	1.12814	9.74642	-0.0930039	-0.0414933	-0.0214364	0.0622559	0.285156	-0.996826	0.635562	0.183265	-0.0804997	-0.745651	-0.0439717	2.00207	13.2877	-0.0326437	-0.0395767	-0.0226316	0.0939941	0.262207	-1.07153	-0.391251	0.57095	0.584713	0.423143	8.99233	0.476093	-3.48432	-0.0248657	0.0588683	-0.0234913	-0.92041	0.341553	0.331299	0.749064	-0.119405	0.154806	-0.632993	-0.605766	-4.06938	10.0395	0.0245351	0.0124918	0.0115355	0.177246	0.770752	-0.731201	0.202444	-0.565199	-0.798933	0.0356671	2.4751	-2.5853	-8.306	-0.0417532	-0.0037791	-0.0541436	-0.439209	0.63208	0.790527	-0.696359	-0.118232	0.0445007	0.706488	-1.1597	2.36162	9.53031	-0.0224129	-0.0332103	0.0167775	0.127197	0.139893	-1.05786	-0.0132272	-0.672112	-0.689758	-0.268931	2.80994	3.60096	-7.861	0.0109236	-0.0111526	-0.0134307	-0.421143	0.0297852	1.07275	
60	-0.594962	0.338938	0.329731	0.649937	8.64599	0.133965	5.56725	-0.00916036	-0.0782532	0.0190607	-0.782471	0.397461	-0.494873	0.330225	-0.585561	-0.311882	-0.671415	9.95746	0.288172	1.16472	-0.0275928	0.0396333	-0.0217279	-0.838379	0.286377	-0.0522461	0.77907	-0.112266	0.0822521	-0.611295	0.445756	-3.07354	10.1474	-0.0139965	-0.00533123	0.0415872	0.0341797	0.606201	-0.828369	0.780875	-0.199691	0.129433	-0.577585	0.401223	-4.64973	8.61075	0.00971864	0.0140332	-0.0326206	0.115234	0.917725	-0.667725	-0.704046	-0.05477	0.0344221	0.707201	-0.265967	1.16012	9.58679	0.0831348	-0.020215	-0.0119766	0.0600586	0.287354	-0.992432	0.635125	0.182337	-0.0815552	-0.746136	0.00181818	1.96593	13.4054	0.0367516	-0.0368942	-0.0413215	0.0961914	0.262207	-1.06714	-0.390978	0.571425	0.58404	0.423683	8.79359	0.346372	-2.87966	0.00725073	-0.00708788	-2.47167e-05	-0.922363	0.337402	0.329346	0.749324	-0.118658	0.154207	-0.632973	-0.788519	-4.0178	9.94036	0.04968	0.0248254	-0.0114857	0.170898	0.770508	-0.724121	0.202638	-0.565136	-0.799026	0.033421	2.77501	-2.5683	-8.31358	-0.0667022	0.0923412	-0.0374267	-0.438965	0.623047	0.786133	-0.696342	-0.116939	0.0454001	0.706662	-0.954913	2.34492	10.2353	-0.0185689	-0.0480915	-0.000456899	0.129395	0.139893	-1.05786	-0.0132479	-0.672157	-0.690005	-0.268183	3.2187	3.62996	-8.17748	0.0478259	-0.0361021	-0.0175936	-0.414307	0.0275879	1.07275	
61	-0.594973	0.339403	0.330061	0.649517	8.66992	0.11514	5.54038	0.0064962	-0.0545087	0.0221104	-0.782959	0.403809	-0.49707	0.331125	-0.584728	-0.311428	-0.671909	9.66078	0.259712	1.17559	0.0279156	0.0393082	0.00231039	-0.842773	0.28418	-0.0544434	0.779443	-0.111998	0.0818514	-0.610922	0.623066	-2.76657	10.2365	0.0416845	-0.0134126	0.0377934	0.0302734	0.595459	-0.830566	0.780233	-0.199347	0.129796	-0.578489	0.47163	-4.45392	8.65147	-0.0179623	0.0373836	-0.0290659	0.113281	0.911133	-0.672119	-0.703918	-0.0552327	0.0349368	0.707268	-0.268603	1.29679	9.57226	0.056295	0.0042923	-0.0223128	0.0649414	0.276367	-0.992432	0.634962	0.181591	-0.0815843	-0.746453	-0.00803311	1.80205	13.3785	-0.010557	-0.0014291	-0.0265824	0.0898438	0.257812	-1.07568	-0.391469	0.571241	0.584125	0.423361	8.79657	0.477076	-3.12611	0.0594555	0.022885	-0.00394642	-0.920654	0.34375	0.327148	0.749561	-0.117794	0.153935	-0.632919	-0.917187	-3.82782	10.1938	0.0712642	0.0449571	0.0055305	0.175537	0.76416	-0.730957	0.203397	-0.56514	-0.79889	0.0319454	2.76816	-2.64815	-8.29177	-0.0553291	0.125585	-0.0372988	-0.443359	0.618408	0.797363	-0.696344	-0.116658	0.0455028	0.706701	-0.923729	2.1597	10.2662	-0.00951122	-0.00829358	0.00019318	0.12915	0.146484	-1.0625	-0.0135914	-0.672269	-0.690257	-0.267236	3.59883	3.76828	-8.48741	0.00825302	-0.0172546	-0.0151155	-0.411865	0.0275879	1.07031	
62	-0.595426	0.33968	0.33093	0.648515	8.76605	0.197024	5.63718	0.0408729	-0.0383012	0.0272534	-0.782471	0.397461	-0.499023	0.332352	-0.584038	-0.311778	-0.671741	9.77205	0.313339	1.20838	0.0285427	0.0333089	-0.000742649	-0.840576	0.28418	-0.0615234	0.779624	-0.112569	0.0826686	-0.610476	0.241936	-2.86521	10.4037	-0.0582503	0.00957324	0.0189086	0.0385742	0.601807	-0.833008	0.780265	-0.199031	0.130336	-0.578434	0.244807	-4.74794	8.53733	0.0393859	0.0271089	0.0130309	0.113037	0.917725	-0.669922	-0.703972	-0.054384	0.0336423	0.707343	-0.15572	1.41592	9.7178	-0.0977795	0.0261984	-0.0133308	0.0622559	0.285156	-0.992432	0.634659	0.182083	-0.081546	-0.746595	0.0376714	2.05967	13.4011	-0.00488397	0.0362414	-0.0294193	0.0900879	0.251465	-1.06909	-0.39271	0.570508	0.583938	0.423458	9.04003	0.491939	-3.20862	0.0414274	0.0771302	-0.0112722	-0.922363	0.337402	0.322998	0.749993	-0.117502	0.153875	-0.632476	-0.832052	-3.86995	10.0823	0.0138052	0.0252454	0.010246	0.175293	0.768555	-0.731201	0.20431	-0.565046	-0.798813	0.0296449	2.68974	-2.4351	-8.38065	-0.050231	0.0699935	-0.0337895	-0.443604	0.623047	0.792725	-0.69655	-0.117814	0.0458841	0.70628	-0.912875	2.21994	10.2967	0.0749541	0.0584735	0.0256768	0.125	0.135498	-1.06006	-0.0137049	-0.672008	-0.690485	-0.267296	3.56889	3.88766	-8.48793	-0.00192671	0.00946014	-0.0349738	-0.411865	0.0253906	1.06812	
63	-0.596109	0.339466	0.331515	0.6477	8.95982	0.297517	5.76106	0.0364402	-0.00427252	0.0227563	-0.776123	0.399658	-0.496826	0.33239	-0.584392	-0.311097	-0.671731	9.80267	0.287864	1.18833	-0.0286139	0.00167418	-0.00204253	-0.838379	0.281982	-0.0544434	0.779843	-0.1118	0.0826805	-0.610335	0.279936	-2.99195	10.5502	0.0507269	0.0227719	-0.0015077	0.0344238	0.604004	-0.826172	0.780749	-0.199317	0.130487	-0.577647	0.1342	-4.46308	8.79529	-0.0648998	-0.0082585	0.0451678	0.11084	0.91333	-0.665527	-0.704171	-0.0537025	0.0321029	0.707269	-0.233732	0.900978	9.72496	0.00220183	0.0271502	0.000271718	0.0625	0.282959	-0.994629	0.634817	0.181355	-0.0799187	-0.746814	-0.0477101	1.78109	13.3421	-0.0366267	0.0303057	-0.0366581	0.09375	0.266602	-1.07153	-0.393075	0.570233	0.583327	0.424331	9.2169	0.411249	-3.30394	-0.0111774	0.0501842	-0.0166651	-0.922607	0.341553	0.327148	0.750429	-0.117312	0.153658	-0.632047	-0.712714	-4.01736	10.4041	0.0263171	0.00917124	0.00240853	0.173096	0.768555	-0.731201	0.204188	-0.565023	-0.798903	0.0284505	2.78247	-2.43451	-8.63337	-0.0282524	0.0244941	-0.0296132	-0.450195	0.618408	0.790527	-0.697142	-0.119146	0.0460712	0.705461	-1.03496	2.55089	10.0788	0.0273889	0.0425867	0.0398395	0.127197	0.135498	-1.05542	-0.0143739	-0.670353	-0.691456	-0.268903	3.19462	3.79871	-8.20852	-0.0355772	0.0278774	-0.0584721	-0.418457	0.0209961	1.07056	
64	-0.596514	0.339885	0.331094	0.647322	8.9561	0.234284	5.81324	-0.0248705	-0.00892252	0.0266965	-0.780518	0.401611	-0.494873	0.332685	-0.584375	-0.311109	-0.671593	10.2174	0.212446	1.27564	-0.000287842	0.0290618	-0.013723	-0.838379	0.28418	-0.0568848	0.77982	-0.110144	0.0817116	-0.610796	0.40972	-3.0224	10.5018	0.0789405	0.0147208	-0.01453	0.0300293	0.597656	-0.830566	0.781225	-0.199027	0.130167	-0.577176	0.344179	-4.53452	8.76266	0.0676909	-0.00040512	0.0138814	0.115234	0.915527	-0.667725	-0.704277	-0.0547273	0.0330606	0.707041	-0.35291	1.32079	9.97189	0.04856	0.00507316	-0.00214903	0.0690918	0.280762	-0.992432	0.634813	0.181022	-0.0794367	-0.746949	-0.176632	1.72916	13.3697	-0.00928499	0.00656575	-0.0165559	0.0917969	0.264404	-1.06714	-0.394458	0.569245	0.582058	0.426112	9.323	0.561513	-3.09964	-0.011194	0.129602	-0.0208816	-0.926758	0.335205	0.322998	0.750519	-0.117184	0.153507	-0.632	-0.712824	-4.06344	10.3986	0.0194391	0.0168054	-0.00994221	0.17334	0.76416	-0.733398	0.204188	-0.564985	-0.79895	0.027887	2.74199	-2.50655	-8.49611	-0.00670412	0.0184809	-0.0234578	-0.450439	0.622803	0.797119	-0.697604	-0.119616	0.0465351	0.704894	-0.915225	2.54781	10.2834	0.021706	0.0157707	0.0292496	0.129639	0.131104	-1.05762	-0.0150312	-0.669639	-0.691949	-0.269378	3.31765	3.97184	-8.40784	-0.0234225	0.00794191	-0.041913	-0.42041	0.0141602	1.06836	
65	-0.596309	0.340478	0.330578	0.647463	8.87974	0.117746	5.74362	-0.030843	-0.00531171	-0.00452483	-0.780762	0.406006	-0.49707	0.332848	-0.584057	-0.310984	-0.671848	9.96185	0.304871	1.18723	-0.00206666	0.0497705	-0.0188072	-0.838135	0.279785	-0.059082	0.779648	-0.110487	0.0815397	-0.610978	0.445732	-2.73223	10.5977	-0.0447069	-0.0205304	0.000128805	0.0344238	0.595215	-0.828125	0.781314	-0.198872	0.12991	-0.577168	0.30769	-4.43739	8.82053	0.0248837	-0.00210704	0.00243038	0.113281	0.91333	-0.667725	-0.704203	-0.0541692	0.0327655	0.707171	-0.350606	1.20242	9.8637	-0.0481719	0.00717321	-0.0185066	0.0666504	0.285156	-0.992432	0.63463	0.181448	-0.0804313	-0.746895	-0.18838	1.86134	13.4659	0.0894521	-0.00925341	-0.0155249	0.0876465	0.26001	-1.06494	-0.394748	0.568831	0.580813	0.428091	9.1267	0.559945	-3.34905	-0.0507186	0.117158	-0.0220052	-0.931152	0.339355	0.318604	0.750562	-0.116604	0.151725	-0.632487	-0.78693	-4.04659	10.2571	0.0511412	-0.015854	-0.030414	0.17334	0.761963	-0.735596	0.204078	-0.565095	-0.798912	0.0275539	2.78858	-2.47792	-8.45686	-0.00992244	0.0125322	-0.0135953	-0.447754	0.61377	0.788574	-0.697997	-0.119893	0.0469071	0.704433	-1.00438	2.62252	10.2503	0.018416	0.0181181	0.0245132	0.131836	0.131104	-1.06226	-0.0155128	-0.669133	-0.692077	-0.270278	3.382	3.94783	-8.36441	-0.0295041	0.0293939	-0.0214782	-0.413818	0.0187988	1.06836	
66	-0.596152	0.340553	0.33028	0.64772	8.7288	0.109456	5.68136	-0.00674135	0.0079895	-0.0057225	-0.784912	0.401611	-0.494873	0.333375	-0.583526	-0.310772	-0.672146	9.94239	0.286591	1.2521	0.00564352	0.0480337	-0.00110465	-0.836182	0.282227	-0.0544434	0.779421	-0.112691	0.0834214	-0.61061	0.446897	-2.99039	10.4657	-0.12406	0.0195255	-0.00136907	0.0366211	0.601807	-0.826172	0.780842	-0.199684	0.129806	-0.577549	0.382591	-4.34343	8.87816	-0.0483974	-0.0161776	-0.0285225	0.119629	0.919922	-0.665527	-0.704681	-0.0544826	0.032609	0.706678	-0.266917	1.32985	9.78791	0.0254224	0.0319222	0.0117626	0.0668945	0.280762	-0.992432	0.634674	0.180828	-0.080095	-0.747044	-0.000815588	1.91492	13.5795	-0.0530567	0.0113061	-0.0281222	0.0915527	0.268799	-1.06738	-0.395586	0.568405	0.579294	0.429937	9.15932	0.429421	-3.01334	-0.0309711	0.103634	-0.0104408	-0.928955	0.337402	0.310303	0.75041	-0.11645	0.151053	-0.632856	-0.749312	-3.94172	10.2001	0.00202444	0.024269	-0.0370686	0.171143	0.76416	-0.738037	0.203851	-0.565259	-0.798865	0.0272367	2.80703	-2.48153	-8.42869	-0.0147124	0.00828764	-0.0128262	-0.447998	0.618408	0.795166	-0.697997	-0.119893	0.0469071	0.704433	-1.00438	2.62252	10.2503	0.018416	0.0181181	0.0245132	0.131836	0.131104	-1.06226	-0.0155128	-0.669133	-0.692077	-0.270278	3.382	3.94783	-8.36441	-0.0295041	0.0293939	-0.0214782	-0.413818	0.0187988	1.06836	
67	-0.596267	0.340384	0.330249	0.64772	8.6621	0.131757	5.6287	0.00957461	0.0097956	0.000535441	-0.77832	0.401855	-0.496826	0.333829	-0.582989	-0.310487	-0.672518	9.74025	0.272409	1.22179	0.00552715	0.0331267	-0.014171	-0.838379	0.28418	-0.0615234	0.779177	-0.112031	0.0834429	-0.61104	0.377697	-3.08561	10.3387	0.0219612	0.0217336	-0.0181285	0.0366211	0.601807	-0.826172	0.780524	-0.201236	0.130895	-0.577194	0.307199	-4.99102	8.80572	-0.0139093	0.0146902	0.00975692	0.11499	0.919922	-0.66333	-0.704707	-0.0533961	0.0301887	0.706842	-0.157274	1.04371	9.73574	-0.120495	0.0552087	-0.0242847	0.0710449	0.287354	-0.992432	0.634635	0.180761	-0.0792182	-0.747187	0.0830701	2.05783	13.4829	-0.039973	0.0488845	-0.0261366	0.0854492	0.262207	-1.06934	-0.395586	0.568405	0.579294	0.429937	9.15932	0.429421	-3.01334	-0.0309711	0.103634	-0.0104408	-0.928955	0.337402	0.310303	0.750246	-0.116101	0.151083	-0.633108	-0.815931	-3.84632	10.0889	0.0245636	0.0446581	-0.036575	0.175537	0.761963	-0.733398	0.204049	-0.565177	-0.798849	0.0279173	2.93507	-2.85124	-8.39254	0.0547007	-0.00392023	-0.0146599	-0.447754	0.611572	0.790771	-0.697518	-0.119955	0.0471775	0.704878	-1.0095	2.50399	9.98986	0.0204893	0.000385542	-0.0329176	0.127197	0.135498	-1.06226	-0.0160892	-0.669468	-0.69135	-0.271274	3.18885	4.32126	-8.16499	-0.0442039	-0.00694786	0.0195921	-0.415771	0.00976562	1.06836	
68	-0.596731	0.339748	0.330302	0.647599	8.71134	0.229214	5.69664	0.0130881	0.0112869	-0.0106064	-0.778564	0.403809	-0.490479	0.334121	-0.58219	-0.310115	-0.673236	9.71453	0.387955	1.2397	-0.00553485	0.0673825	-0.0252759	-0.836182	0.281982	-0.0661621	0.779177	-0.112031	0.0834429	-0.61104	0.377697	-3.08561	10.3387	0.0219612	0.0217336	-0.0181285	0.0366211	0.601807	-0.826172	0.780812	-0.199655	0.131013	-0.577327	0.322617	-4.60117	8.88095	0.0230018	0.0594907	0.0147179	0.117432	0.919922	-0.667969	-0.704458	-0.0553156	0.0301713	0.706943	-0.200946	1.37536	9.7042	0.0908924	0.0629228	-0.0383737	0.0732422	0.287354	-0.98999	0.634661	0.181561	-0.0779123	-0.747108	0.0337853	1.8056	13.4801	0.0269549	0.0774053	-0.0342017	0.09375	0.270996	-1.06958	-0.396115	0.567872	0.577311	0.432811	8.9742	0.758664	-2.84057	-0.0502537	0.0248292	-0.0115499	-0.930908	0.335205	0.310303	0.749951	-0.116916	0.152224	-0.633034	-0.925007	-3.70876	10.1364	-0.106006	0.0288028	-0.0156475	0.171143	0.76416	-0.72876	0.205163	-0.564993	-0.798616	0.0300536	2.83533	-2.69567	-8.37434	0.113203	-0.00395972	-0.00395901	-0.445801	0.623047	0.794922	-0.696522	-0.122529	0.0493768	0.70527	-1.05341	2.23001	10.1204	0.199267	0.0349922	-0.0290889	0.129883	0.124512	-1.05981	-0.0191395	-0.669358	-0.690285	-0.274044	3.4952	4.04176	-8.26126	-0.164325	0.00460371	-0.0259039	-0.420166	0.00537109	1.06836	
69	-0.596668	0.339659	0.330203	0.647753	8.72776	0.295743	5.72325	-0.00629831	0.00847037	-0.0122493	-0.785156	0.403809	-0.494873	0.333898	-0.58149	-0.309158	-0.67439	9.89471	0.368507	1.37588	-0.039246	0.0835455	-0.0251711	-0.838379	0.281982	-0.0639648	0.779177	-0.112031	0.0834429	-0.61104	0.377697	-3.08561	10.3387	0.0219612	0.0217336	-0.0181285	0.0366211	0.601807	-0.826172	0.780803	-0.198391	0.132358	-0.577468	0.139473	-4.42704	8.86116	-0.00929009	0.0782486	0.0151071	0.113281	0.91333	-0.672119	-0.704262	-0.0558647	0.0296558	0.707117	-0.346476	1.28913	9.82627	0.00212583	0.0658432	-0.0372976	0.0708008	0.289551	-0.992432	0.634671	0.1824	-0.0774921	-0.746939	0.0341316	2.0404	13.3551	0.0249749	0.0903745	-0.021008	0.0895996	0.266602	-1.06934	-0.395017	0.568446	0.576771	0.433781	9.13774	0.552959	-2.83667	-0.0399008	8.60417e-05	-0.0296704	-0.92627	0.328613	0.310303	0.749956	-0.118256	0.15461	-0.6322	-0.867044	-4.01972	10.1497	-0.127014	0.0289908	0.0182159	0.175049	0.770752	-0.726562	0.205782	-0.564706	-0.798614	0.0312502	2.67211	-2.48617	-8.37241	0.113945	-0.00697128	-0.0183495	-0.448242	0.627441	0.78833	-0.695276	-0.125262	0.0511275	0.705894	-1.23601	3.31981	9.98891	0.0739387	0.0254153	-0.0560509	0.130371	0.115723	-1.06396	-0.0203417	-0.669685	-0.689504	-0.275124	3.17337	3.45327	-8.12851	-0.011447	-0.00604485	0.0374159	-0.417969	0.00756836	1.0708	
70	-0.596254	0.339123	0.329421	0.648813	8.90546	0.19553	5.82748	-0.0289184	0.0570646	-0.043447	-0.77832	0.399658	-0.501221	0.333479	-0.58034	-0.308318	-0.675971	9.76854	0.379824	1.39314	-0.0417113	0.0851455	-0.0488666	-0.838135	0.279785	-0.0661621	0.779177	-0.112031	0.0834429	-0.61104	0.377697	-3.08561	10.3387	0.0219612	0.0217336	-0.0181285	0.0366211	0.601807	-0.826172	0.780878	-0.197327	0.1344	-0.577259	0.136613	-4.64944	8.58114	0.0315506	0.100722	0.0341158	0.124023	0.917725	-0.669922	-0.70385	-0.0581851	0.0298795	0.707331	-0.594744	1.30489	9.67842	0.10938	0.0682353	-0.0397301	0.0688477	0.285156	-0.98999	0.634299	0.184973	-0.0764246	-0.746733	-0.322082	2.00225	13.333	0.0939751	0.0766628	-0.034374	0.0981445	0.264404	-1.07373	-0.39403	0.56888	0.575812	0.435382	9.13074	0.669343	-2.9396	-0.0689666	0.0366092	-0.0279038	-0.928711	0.330811	0.3125	0.750112	-0.120257	0.157169	-0.631005	-0.836814	-3.84651	10.3651	-0.155613	0.0294669	0.0133697	0.177246	0.772705	-0.721924	0.206921	-0.563933	-0.798763	0.0337786	2.72433	-2.53201	-8.45875	0.122889	-0.0139966	-0.0246129	-0.445801	0.623047	0.781738	-0.694344	-0.123408	0.050149	0.707207	-0.995078	2.39992	10.039	-0.104916	-0.0241804	-0.0600708	0.132324	0.124756	-1.06665	-0.0192661	-0.67126	-0.688808	-0.273098	3.29192	3.88472	-8.29267	0.0829649	-0.0574733	0.0619516	-0.411133	0.00537109	1.0686	
71	-0.59606	0.338329	0.328775	0.649733	8.76704	0.22142	5.85669	-0.0256661	0.0880032	-0.0595179	-0.784912	0.401611	-0.499023	0.333072	-0.579336	-0.307966	-0.677193	9.83911	0.377171	1.51352	-0.0192196	0.0608363	-0.0506954	-0.838135	0.279785	-0.0708008	0.77903	-0.10784	0.0872646	-0.611448	0.290063	-2.86127	10.436	0.0132104	0.0753626	0.00458478	0.0473633	0.599365	-0.830566	0.781272	-0.194782	0.135288	-0.577383	0.0520201	-4.25224	8.52281	0.0443295	0.0853621	0.0215664	0.124268	0.91333	-0.669922	-0.703617	-0.0589911	0.0289582	0.707534	-0.638892	1.22584	9.69656	-0.0449532	0.0543707	-0.0170156	0.0710449	0.282959	-0.992432	0.634234	0.186016	-0.0755544	-0.746617	-0.426119	1.81704	13.1668	-0.00821753	0.068464	-0.0300225	0.100586	0.262207	-1.06934	-0.393075	0.569465	0.575133	0.436376	9.24991	0.685021	-3.00907	-0.0555956	0.0121458	-0.0228067	-0.930908	0.330811	0.314697	0.749861	-0.125643	0.16076	-0.629348	-0.654889	-4.35463	10.4218	-0.241671	-0.000604826	0.00850672	0.176758	0.785889	-0.715088	0.20833	-0.563448	-0.798648	0.0358655	2.6039	-2.39964	-8.50499	0.0956059	0.00988841	-0.0154298	-0.446045	0.629883	0.785889	-0.694192	-0.122754	0.0498372	0.707493	-0.808468	2.31065	10.442	-0.0198936	0.0211648	0.00270383	0.125488	0.126709	-1.06201	-0.0190586	-0.671818	-0.688739	-0.271913	3.51152	3.81169	-8.58241	0.0395683	-0.0288716	0.0155997	-0.411133	0.0100098	1.073	
72	-0.595639	0.335422	0.327656	0.652187	8.77247	0.287219	6.02674	0.0198848	0.0778856	-0.0639266	-0.780273	0.395264	-0.505371	0.333268	-0.578267	-0.308173	-0.677915	9.91902	0.362091	1.45471	0.0147051	0.0478771	-0.0400857	-0.840332	0.279785	-0.0756836	0.779515	-0.102621	0.0849141	-0.612058	0.159336	-2.84231	10.4784	0.150411	0.038338	-0.000185726	0.0410156	0.593018	-0.837402	0.781345	-0.193957	0.135508	-0.577511	-0.0499486	-4.36378	8.44201	0.0453476	0.0609582	0.00832481	0.12207	0.915527	-0.672119	-0.703638	-0.0598959	0.028982	0.707436	-0.551905	1.38885	9.6817	0.030123	0.0235151	-0.00808759	0.0800781	0.276611	-0.994629	0.63419	0.186943	-0.0755943	-0.746419	-0.399667	1.96348	13.0428	0.0161192	0.0367987	-0.00749463	0.10498	0.26001	-1.07153	-0.392529	0.569727	0.575073	0.436603	9.33495	0.320175	-3.03684	0.0229687	-0.0144032	-0.0240339	-0.928711	0.330811	0.314697	0.749938	-0.127948	0.161918	-0.628494	-0.57594	-4.48987	10.2582	-0.0563846	-0.00798537	-0.00533235	0.174561	0.785889	-0.715088	0.20898	-0.563043	-0.798733	0.036542	2.53142	-2.38587	-8.45815	0.0247029	0.012424	-0.0310658	-0.444092	0.636719	0.781494	-0.694973	-0.122504	0.0490127	0.706826	-1.19231	2.49431	10.19	-0.0463471	0.0235572	0.0497546	0.129883	0.126709	-1.06445	-0.0189382	-0.671825	-0.688765	-0.271838	3.51332	3.79265	-8.65787	0.0142683	0.00914523	-0.00445879	-0.417969	0.00756836	1.0752	
73	-0.595711	0.333266	0.32711	0.653499	8.58227	0.481457	5.98065	0.013947	0.0829474	-0.0419851	-0.777588	0.388916	-0.505371	0.333483	-0.577949	-0.308215	-0.678061	9.90343	0.303604	1.45303	0.011149	0.0412628	-0.0207342	-0.835938	0.277588	-0.0754395	0.779515	-0.102621	0.0849141	-0.612058	0.159336	-2.84231	10.4784	0.150411	0.038338	-0.000185726	0.0410156	0.593018	-0.837402	0.78145	-0.192248	0.134681	-0.578134	-0.0790066	-4.24118	8.44593	0.0774891	0.0219611	-0.0136314	0.128906	0.90918	-0.674316	-0.703659	-0.0598768	0.0292022	0.707408	-0.554818	1.1457	9.55859	0.0296254	-0.00382893	-0.00973748	0.079834	0.281006	-0.992432	0.634388	0.186993	-0.0757383	-0.746223	-0.430736	1.82297	13.0499	0.0147552	0.0164752	0.00440876	0.0981445	0.266602	-1.07153	-0.392074	0.570163	0.575651	0.43568	9.13351	0.424408	-3.32293	0.00771589	-0.0475417	-0.0114488	-0.928467	0.328613	0.316895	0.750272	-0.126527	0.160839	-0.628661	-0.603469	-4.37908	10.0953	0.0998452	0.0371508	-0.00979973	0.176758	0.783691	-0.710449	0.208755	-0.562711	-0.799076	0.0354344	2.70853	-2.48802	-8.54675	-0.0638478	0.0228311	-0.047993	-0.450684	0.629883	0.785889	-0.696252	-0.121214	0.0489257	0.705795	-1.05549	2.36452	10.0486	-0.024215	-0.017888	0.075017	0.127686	0.126709	-1.06665	-0.0184734	-0.670945	-0.690021	-0.270854	3.18138	3.67076	-8.19131	0.0361135	-7.21336e-05	-0.037641	-0.413574	0.0100098	1.073	
74	-0.596268	0.332201	0.32613	0.654023	8.48529	0.373993	5.9631	1.11568e-05	0.0590877	0.00954665	-0.775879	0.397461	-0.507568	0.33426	-0.577302	-0.307994	-0.678331	9.73635	0.235539	1.43424	0.0143893	0.0511929	-0.00111139	-0.831543	0.275391	-0.0754395	0.778965	-0.103445	0.0847518	-0.612642	0.228858	-2.73123	10.532	-0.0136089	-0.0119939	-0.0236809	0.0432129	0.59082	-0.832764	0.781292	-0.192739	0.134506	-0.578223	0.0748062	-4.27022	8.61916	-0.0228103	-0.0227422	-0.0211413	0.128662	0.913574	-0.674316	-0.703518	-0.0604874	0.0301473	0.707456	-0.537497	1.28017	9.54481	0.0241204	-0.0117133	-0.0192832	0.0756836	0.280762	-0.987793	0.634808	0.187384	-0.0768095	-0.745658	-0.266767	1.99807	13.1776	0.0435865	0.0108662	0.0156919	0.102783	0.26001	-1.07153	-0.391446	0.570777	0.575781	0.435269	9.06254	0.496729	-2.94539	-0.0106031	-0.0618616	-0.00475508	-0.924316	0.333008	0.321045	0.750378	-0.124129	0.159532	-0.629344	-0.826257	-4.10681	10.0438	0.12293	0.0351256	-0.0352045	0.174561	0.783691	-0.721924	0.208442	-0.562618	-0.799311	0.0333822	2.73934	-2.63989	-8.3871	-0.0697473	0.0381999	-0.0337193	-0.450684	0.629883	0.783691	-0.696897	-0.120051	0.0488304	0.705363	-1.1287	2.58684	10.0748	-0.0744455	-0.0396358	0.0648023	0.123291	0.124512	-1.05981	-0.0182433	-0.670631	-0.690702	-0.269911	3.26943	3.86103	-8.33249	0.0818692	-0.0236972	-0.055994	-0.413574	0.012207	1.073	
75	-0.596825	0.331733	0.32562	0.654006	8.46619	0.325446	5.96057	0.0112011	0.0594707	0.0293384	-0.773438	0.391113	-0.505371	0.335558	-0.5766	-0.307462	-0.678528	9.64314	0.22583	1.39938	0.0194311	0.0598867	0.0273647	-0.840576	0.281982	-0.078125	0.778964	-0.103736	0.0835445	-0.61276	0.291204	-2.93054	10.3362	0.02245	-0.0416606	-0.0104926	0.0410156	0.588623	-0.834961	0.780276	-0.193343	0.13321	-0.579693	0.316503	-4.46794	8.71913	0.0424074	-0.00984087	-0.0560291	0.119873	0.91333	-0.674316	-0.703516	-0.0602244	0.0300044	0.707487	-0.529218	1.20609	9.60097	-0.0228993	0.000395395	-0.0140994	0.0820312	0.281006	-0.996826	0.635013	0.187636	-0.0767938	-0.745422	-0.331783	2.03545	13.2467	0.00443207	0.0304258	-0.020144	0.106934	0.26001	-1.06714	-0.390731	0.571441	0.576658	0.433878	8.99143	0.463095	-2.93672	0.0614529	-0.0609525	-0.0171548	-0.932861	0.328613	0.325195	0.750414	-0.122885	0.158859	-0.629716	-1.05683	-4.04166	9.97443	0.117274	0.0463586	-0.0284626	0.178955	0.781494	-0.721924	0.208395	-0.562419	-0.79948	0.0329771	2.81292	-3.06626	-8.23472	-0.0205172	0.0199973	-0.0450645	-0.450684	0.629883	0.783691	-0.698337	-0.118341	0.0485753	0.704245	-0.709509	2.33487	10.2973	-0.056431	-0.00955336	0.0790846	0.122803	0.135498	-1.05762	-0.0177204	-0.669728	-0.692067	-0.268688	3.39933	3.9065	-8.56566	0.072101	0.0118854	-0.0668285	-0.406982	0.0166016	1.07739	
76	-0.598372	0.331258	0.324965	0.653159	8.39201	0.28987	5.95037	0.0293306	0.0183277	0.0720198	-0.775635	0.391113	-0.511963	0.33677	-0.576178	-0.307298	-0.678361	9.84517	0.412284	1.46095	0.0272696	0.0404032	0.0117881	-0.833984	0.281982	-0.0827637	0.778751	-0.10536	0.084001	-0.612691	0.215791	-3.06536	10.463	-0.0932261	-0.0155406	0.00815216	0.0429688	0.595215	-0.830566	0.779891	-0.193736	0.13322	-0.580076	0.293443	-4.54015	8.86175	-0.0253708	0.000423922	-0.0459355	0.115234	0.915527	-0.669922	-0.704015	-0.0587715	0.0280583	0.707193	-0.226196	1.32117	9.67792	-0.126278	0.0242721	0.00920074	0.0820312	0.285156	-0.983154	0.635229	0.186047	-0.074908	-0.745828	-0.128556	1.87015	13.1767	-0.116042	0.00970307	-0.0315461	0.111084	0.266602	-1.06958	-0.390662	0.571676	0.57711	0.433028	9.05966	0.891098	-2.95974	0.0188932	-0.0126688	-0.0107057	-0.930664	0.326416	0.327393	0.750806	-0.122643	0.158569	-0.629369	-0.816865	-4.09577	9.98927	-0.0242738	0.0158367	0.00821836	0.179199	0.7771	-0.717285	0.208145	-0.561922	-0.799887	0.0331835	2.8237	-2.71746	-8.27958	-0.000888277	-0.013584	-0.0311707	-0.450439	0.623047	0.779297	-0.699923	-0.117615	0.0478245	0.702842	-1.23125	2.55254	9.96535	-0.044256	0.012157	0.0805734	0.125244	0.133301	-1.05981	-0.0171919	-0.668654	-0.693277	-0.268279	3.19	4.16089	-8.08139	0.0325664	0.017634	-0.0589435	-0.407227	0.0209961	1.07275	
77	-0.599828	0.332087	0.324823	0.651471	8.65765	0.173403	5.99542	0.0139792	-0.028024	0.08916	-0.771729	0.404053	-0.51416	0.337751	-0.575244	-0.306457	-0.679045	9.69436	0.176773	1.50981	0.00376577	0.0691745	-0.00230954	-0.831787	0.279785	-0.0849609	0.778792	-0.104649	0.0835374	-0.612824	0.294827	-2.64856	10.541	0.0323043	0.0295373	-0.0172337	0.0410156	0.595215	-0.825928	0.779069	-0.194102	0.133706	-0.580946	0.190424	-4.65842	8.84761	-0.0270956	0.0246164	0.0014539	0.115234	0.915527	-0.672119	-0.704424	-0.055308	0.025292	0.707169	-0.298224	0.937154	9.67623	-0.161539	-0.0166853	-0.00248815	0.0773926	0.289551	-0.985596	0.635278	0.184535	-0.0739936	-0.746253	-0.189369	1.55469	13.1419	-0.013791	-0.0181938	-0.0361718	0.104492	0.266602	-1.06738	-0.389751	0.572722	0.576881	0.432773	9.21463	0.145544	-3.13901	0.00632215	-0.0517385	0.00796958	-0.924316	0.333008	0.327393	0.751024	-0.123244	0.158556	-0.628995	-0.909027	-4.23517	10.1952	0.00879005	-0.00906498	-0.00439119	0.181396	0.7771	-0.714844	0.207765	-0.561623	-0.800182	0.0334876	2.91022	-2.60803	-8.45954	0.00818344	-0.0128314	-0.0344158	-0.455078	0.625244	0.783691	-0.700102	-0.117267	0.048426	0.702681	-1.04479	2.49664	9.93723	0.019232	-0.00967722	-0.0121148	0.122803	0.133301	-1.06689	-0.0175953	-0.668461	-0.693802	-0.267373	3.1347	4.13667	-8.10456	0.0255484	-0.0397718	-0.0198195	-0.405029	0.0209961	1.07056	
78	-0.600819	0.332522	0.324691	0.650401	8.72325	0.0900579	5.97862	0.0142799	-0.00603338	0.0449489	-0.771729	0.404053	-0.511963	0.338181	-0.575196	-0.305758	-0.679188	9.76525	0.1621	1.63146	-0.0164262	0.0231942	0.0154569	-0.832031	0.286377	-0.0852051	0.778443	-0.104911	0.0841077	-0.613144	0.254386	-3.19685	10.5821	0.0323666	0.0196104	-0.00981744	0.0366211	0.591064	-0.832764	0.779054	-0.19331	0.133858	-0.581196	0.118849	-4.45704	8.87184	0.0278615	0.0317112	-0.0117234	0.119629	0.917725	-0.669922	-0.704728	-0.0552609	0.0263835	0.70683	-0.609184	1.05223	9.64595	0.0818045	-0.0259702	0.00331907	0.0751953	0.291748	-0.992432	0.635148	0.184051	-0.074974	-0.746385	-0.331848	1.92863	13.4162	-0.00828553	-0.0173694	-0.00530961	0.104248	0.273193	-1.06543	-0.389779	0.573002	0.577014	0.432199	9.04328	0.650188	-2.98706	0.0266036	-0.04434	-0.00410834	-0.922119	0.328613	0.327393	0.751395	-0.123161	0.158458	-0.628592	-0.924101	-4.1226	10.2232	-0.0122728	0.0108364	-0.00141695	0.18335	0.781494	-0.721924	0.20747	-0.561326	-0.800458	0.0337156	2.8	-2.68194	-8.3991	0.0136442	-0.00976088	-0.0308457	-0.452881	0.627441	0.785889	-0.699172	-0.116725	0.0490705	0.703652	-0.852036	2.64919	10.3915	-0.00413939	-0.0278209	-0.0556206	0.122803	0.133301	-1.06445	-0.0183837	-0.669281	-0.693463	-0.266147	3.41505	3.78781	-8.66505	0.0244356	-0.0502072	0.0256075	-0.405029	0.0209961	1.0752	
79	-0.601616	0.332291	0.324081	0.650086	8.6893	0.051589	6.03464	-0.000407905	0.0270466	0.0350495	-0.767334	0.404297	-0.516357	0.33885	-0.575775	-0.3061	-0.678208	9.94754	0.297461	1.70738	0.0162785	-0.035395	0.00508661	-0.836426	0.288574	-0.0852051	0.77857	-0.103891	0.0836815	-0.613215	0.267762	-2.87346	10.5677	0.044325	0.0145568	0.00200613	0.0410156	0.59082	-0.8396	0.778503	-0.193499	0.134644	-0.581689	0.036973	-4.6978	8.59973	-0.00654211	0.0346283	-0.0308418	0.115479	0.911133	-0.672119	-0.704813	-0.055219	0.0273943	0.70671	-0.491182	1.35737	9.92478	-0.0160962	-0.0301707	-0.0101777	0.0732422	0.285156	-0.992432	0.635732	0.183144	-0.0750591	-0.746103	-0.27923	1.81448	13.2706	-0.00598455	-0.0121829	0.00949177	0.0959473	0.266602	-1.06299	-0.390737	0.572555	0.576422	0.432715	9.30117	0.659596	-2.90017	-0.00817687	0.119977	-0.0112602	-0.933105	0.337158	0.327148	0.751769	-0.123805	0.15796	-0.628144	-0.735366	-4.107	10.1967	0.000592339	-0.00756896	-0.00220169	0.179199	0.7771	-0.717285	0.207256	-0.561182	-0.800594	0.0341795	2.66164	-2.42585	-8.45351	0.0118029	-0.011032	-0.019097	-0.450684	0.629883	0.783691	-0.698753	-0.116204	0.0484977	0.704194	-0.712162	2.36682	10.4179	-0.0296436	0.00498235	-0.0282256	0.12085	0.131104	-1.06226	-0.018152	-0.670034	-0.692987	-0.265506	3.19242	3.85829	-8.52295	0.00270992	-5.06257e-05	0.023018	-0.407227	0.0187988	1.06372	
80	-0.6021	0.331818	0.323847	0.649996	8.67652	0.104602	6.0071	0.0150787	0.0183958	0.00266085	-0.771729	0.4021	-0.51416	0.338721	-0.576607	-0.306299	-0.677475	9.81213	0.187974	1.55415	-0.00871141	-0.0113101	-0.0113733	-0.834229	0.288574	-0.0759277	0.778159	-0.107924	0.0869323	-0.612588	0.05232	-2.99048	10.464	-0.253866	0.00938331	0.0102009	0.0366211	0.601807	-0.826172	0.77799	-0.194167	0.135373	-0.581984	-0.0320533	-4.65718	8.53256	-0.0603065	0.0138413	-0.00998011	0.117432	0.915527	-0.672119	-0.705224	-0.0536323	0.0274573	0.706419	-0.530354	0.916532	9.84179	-0.00986434	-0.0365263	0.00819371	0.0771484	0.293945	-0.98999	0.636084	0.182057	-0.0763197	-0.745941	-0.224185	1.812	13.4854	0.0375696	-0.0540256	0.00353885	0.102539	0.264404	-1.07153	-0.391294	0.572189	0.576381	0.43275	9.14986	0.484724	-3.11993	0.0794429	-0.00932284	-0.0116336	-0.930908	0.335205	0.320801	0.751511	-0.12369	0.157454	-0.628602	-0.580612	-4.04314	10.2809	0.031119	0.0317551	-0.0562452	0.177002	0.779297	-0.724365	0.207178	-0.561578	-0.800325	0.0344563	2.7438	-2.25513	-8.51344	0.00609264	0.0117436	0.0121607	-0.448242	0.625244	0.781494	-0.698768	-0.116379	0.0488562	0.704125	-0.942734	2.50988	10.1661	0.0126669	0.0119103	0.00541805	0.118164	0.137695	-1.06006	-0.0182401	-0.670023	-0.692895	-0.265768	3.22659	3.7529	-8.46635	-0.00243001	0.00945276	-0.00941952	-0.404785	0.0187988	1.07739	
81	-0.602285	0.331312	0.323307	0.650352	8.64801	0.17851	6.03359	-0.0123226	0.036651	-0.00512513	-0.769287	0.399902	-0.518311	0.338555	-0.576959	-0.30663	-0.677109	9.74281	0.163146	1.58926	0.00502258	-0.0355353	-0.0244314	-0.833984	0.28418	-0.0756836	0.777757	-0.109028	0.0876835	-0.612795	0.217322	-3.14988	10.2813	-0.0519062	0.00165394	-0.0173173	0.0407715	0.60376	-0.821533	0.778007	-0.194361	0.135316	-0.58191	0.0340163	-4.6396	8.47229	-0.00867645	-0.00568389	0.00168508	0.115234	0.915527	-0.667725	-0.705417	-0.0531833	0.0283003	0.706227	-0.333417	1.07128	9.65719	0.00594895	-0.0264016	0.0023419	0.0664062	0.289551	-0.987793	0.636174	0.18147	-0.076731	-0.745965	-0.098384	1.95922	13.5202	-0.00170555	-0.0399463	-0.00514302	0.0959473	0.266602	-1.07153	-0.391754	0.571718	0.578708	0.429842	9.03409	0.448324	-3.09416	0.126137	-0.0859966	-0.0386985	-0.922607	0.3396	0.320801	0.750897	-0.122959	0.15732	-0.629512	-0.796954	-4.29057	10.3671	0.055477	0.0430652	-0.0494068	0.179443	0.772705	-0.717285	0.205809	-0.562291	-0.800192	0.0341209	2.86869	-2.33482	-8.81838	-0.0301179	-0.071134	-0.000774905	-0.443604	0.625244	0.790527	-0.699011	-0.116453	0.0488935	0.703869	-0.87692	2.42235	10.3299	-0.014124	0.0160331	0.0152357	0.122803	0.133301	-1.06445	-0.0184119	-0.669943	-0.692807	-0.266189	3.4119	3.80639	-8.53382	-0.0313537	0.0213643	-0.00875943	-0.407227	0.0209961	1.07275	
82	-0.602446	0.330905	0.322208	0.650955	8.53237	0.126111	6.05428	-0.0257188	0.0369406	-0.00153689	-0.764893	0.399902	-0.51416	0.338111	-0.578032	-0.307593	-0.675978	9.72111	0.141917	1.42944	0.0123897	-0.0743623	-0.0231499	-0.836426	0.288574	-0.0830078	0.778135	-0.106737	0.0843249	-0.61319	0.269093	-3.19553	10.3074	0.207847	-0.0648767	-0.012742	0.0388184	0.593018	-0.828125	0.778064	-0.195145	0.135151	-0.581608	0.219597	-4.59612	8.43037	-0.0161336	-0.0135447	0.00121621	0.113037	0.917725	-0.665527	-0.705033	-0.0533171	0.0296366	0.706546	-0.183017	1.13563	9.76428	0.0387333	-0.0185532	-0.0341423	0.0688477	0.287354	-0.987793	0.636266	0.181138	-0.0773176	-0.745906	0.022335	1.88021	13.3291	0.032905	0.00400144	-0.00925534	0.09375	0.268799	-1.07373	-0.391463	0.571875	0.57957	0.428736	9.14132	0.433965	-3.06869	0.0756721	-0.0854357	-0.0260889	-0.928955	0.337158	0.329346	0.75089	-0.121513	0.157076	-0.629861	-0.580004	-4.27331	10.2954	0.107216	0.0823912	-0.023806	0.175049	0.772705	-0.721924	0.202344	-0.562586	-0.800971	0.0316215	2.65599	-2.87049	-8.64836	-0.159747	-0.0392523	-0.0606883	-0.443604	0.625244	0.794922	-0.699207	-0.117055	0.0481547	0.703626	-0.686988	2.52298	10.5014	-0.00852719	0.0922028	0.0160667	0.12085	0.131104	-1.06226	-0.0172988	-0.669537	-0.692783	-0.267343	3.58129	3.78595	-8.79452	0.0223637	0.0921184	0.000581769	-0.411865	0.0231934	1.07056	
83	-0.602577	0.331337	0.321429	0.651	8.52737	0.103487	6.00193	-0.0304184	-0.00300186	0.0238484	-0.765137	0.406494	-0.520508	0.337837	-0.57948	-0.309285	-0.674101	9.87685	0.157241	1.24924	0.0497449	-0.10952	-0.0195629	-0.832031	0.288574	-0.0734863	0.778176	-0.105994	0.081789	-0.613611	0.497137	-2.51646	10.5626	0.00359278	-0.0568358	-0.0237119	0.0388184	0.595215	-0.834961	0.778029	-0.194299	0.13318	-0.582394	0.225416	-4.32607	8.4863	0.0747451	-0.0305614	-0.0461363	0.115234	0.915527	-0.672119	-0.704263	-0.0544112	0.0316628	0.707143	-0.208921	1.09122	9.78137	0.0888147	-0.0247763	-0.0417242	0.0666504	0.282959	-0.98999	0.636468	0.180855	-0.0780338	-0.745729	0.0299477	1.84375	13.2885	0.0431531	-0.0184356	-0.00706104	0.09375	0.270996	-1.07178	-0.390622	0.571809	0.583698	0.423965	8.99829	0.360148	-3.20251	0.119926	-0.158022	-0.0611834	-0.926758	0.339355	0.337891	0.751362	-0.114483	0.154791	-0.63118	-0.805222	-3.56696	9.96052	0.118202	0.0505521	-0.0351793	0.184082	0.766357	-0.733398	0.201358	-0.562583	-0.801304	0.0294506	2.42998	-2.98821	-8.14722	-0.0810253	0.0352114	-0.0301165	-0.445557	0.615967	0.797363	-0.700321	-0.117575	0.0463178	0.702553	-0.928557	2.41294	9.66711	-0.0117138	0.0287854	0.0469475	0.127197	0.137695	-1.0647	-0.0160165	-0.669198	-0.6925	-0.269001	2.90433	3.68013	-8.06967	-0.0189427	0.0855776	-0.00113649	-0.411865	0.0231934	1.06812	
84	-0.60259	0.331714	0.321309	0.650855	8.39227	0.0414776	5.88019	-0.0205555	-0.0210795	0.0184099	-0.767578	0.406494	-0.516357	0.337033	-0.580962	-0.310412	-0.672708	9.80022	0.209799	1.15803	-0.00142946	-0.0899646	-0.0412188	-0.836182	0.28418	-0.0615234	0.777932	-0.108262	0.0827606	-0.613394	0.504931	-2.80961	10.434	-0.188754	-0.0464307	-0.00743111	0.0300293	0.599609	-0.82373	0.777317	-0.196043	0.132391	-0.582939	0.294169	-4.66761	8.65169	-0.0531093	-0.0485094	-0.0520117	0.108643	0.91333	-0.669922	-0.703809	-0.0549025	0.03289	0.7075	-0.303611	1.22343	9.80154	0.097689	-0.0368531	-0.0543045	0.0644531	0.285156	-0.98999	0.635907	0.181382	-0.0801857	-0.745851	-0.0633024	2.04797	13.3869	0.0831954	-0.0241134	-0.0312933	0.0895996	0.262207	-1.06934	-0.389496	0.572226	0.585596	0.421815	8.85913	0.625371	-3.21924	0.114587	-0.212684	-0.0568806	-0.920166	0.337402	0.337891	0.751201	-0.113813	0.154886	-0.63147	-0.859393	-3.77536	9.81031	0.0413703	0.0647708	-0.0344175	0.181885	0.761963	-0.730957	0.201732	-0.56271	-0.801136	0.0290329	2.40289	-2.98824	-7.975	-0.00681485	0.0539041	-0.0100639	-0.445557	0.615967	0.803955	-0.700689	-0.117184	0.0466131	0.702232	-0.949129	2.36469	9.57989	-0.00711319	-0.0199837	0.0437805	0.120605	0.137695	-1.05786	-0.0153936	-0.668804	-0.69283	-0.269167	2.80954	3.77934	-7.926	0.015912	0.0125607	-0.0217975	-0.41626	0.0209961	1.07056	
85	-0.602184	0.3327	0.321878	0.650446	8.39009	0.0617148	5.7723	-0.00808112	-0.058674	-0.004154	-0.763184	0.410889	-0.516357	0.336377	-0.581749	-0.311796	-0.671715	9.49328	0.340125	1.23189	0.0214772	-0.0450289	-0.0411124	-0.833984	0.281982	-0.0686035	0.778014	-0.110867	0.0837489	-0.61269	0.620641	-2.88462	10.1847	-0.0292339	-0.0187308	0.0181782	0.0280762	0.599854	-0.825928	0.776858	-0.197456	0.13204	-0.583154	0.528601	-4.64764	8.85316	-0.0428258	-0.0240002	-0.0111447	0.115234	0.915527	-0.674316	-0.703125	-0.054565	0.0328381	0.708209	-0.180149	1.26384	9.60501	-0.0450773	0.0098555	-0.0480567	0.0600586	0.287354	-0.994629	0.634554	0.182472	-0.0821404	-0.746524	-0.0193651	2.17931	13.4345	0.0883993	-0.00328698	-0.0766807	0.0942383	0.253662	-1.07324	-0.387943	0.572913	0.587693	0.419389	8.79982	0.419595	-3.26762	0.0360554	-0.069173	-0.0259577	-0.928711	0.334961	0.346436	0.751157	-0.114565	0.154536	-0.631471	-0.966094	-4.2698	9.8662	0.00217976	-0.0134632	-0.00607025	0.177734	0.761963	-0.730957	0.203013	-0.562819	-0.800785	0.0276379	2.71349	-2.57583	-8.17844	-0.0272328	0.0840029	-0.0323697	-0.447754	0.616211	0.792969	-0.700927	-0.116793	0.0473914	0.702008	-0.951028	2.52168	10.1999	-0.00238721	-0.00742879	0.00626621	0.115967	0.137695	-1.06226	-0.0150078	-0.668665	-0.693372	-0.268136	3.54066	3.85408	-8.4054	0.0540361	-0.00685256	-0.0157426	-0.414062	0.0253906	1.07275	
86	-0.601309	0.333407	0.323111	0.650283	8.49151	0.0940521	5.7719	0.0120837	-0.0687444	-0.0372237	-0.769531	0.404053	-0.509766	0.335496	-0.58226	-0.312714	-0.671287	9.65919	0.238888	1.12488	-0.000485208	-0.0405044	-0.0422768	-0.836426	0.288574	-0.0688477	0.778634	-0.11127	0.083398	-0.611876	0.44496	-3.1205	10.2331	0.0200544	-0.0317008	0.0503591	0.027832	0.601807	-0.821533	0.777266	-0.196829	0.131872	-0.58286	0.311199	-4.84211	8.64735	0.0857012	0.0200793	0.0141996	0.11084	0.915527	-0.669922	-0.702852	-0.0553032	0.0321622	0.708453	-0.113596	1.13191	9.44797	0.035184	0.0534765	-0.0231341	0.0646973	0.280762	-0.992432	0.633695	0.182453	-0.0808692	-0.747397	0.123303	1.85156	13.3053	-0.0402465	0.0482447	-0.0765422	0.092041	0.257812	-1.07349	-0.387475	0.572924	0.589569	0.417169	8.83001	0.448505	-3.27501	0.0910852	-0.0890472	-0.0397111	-0.917969	0.335205	0.344238	0.752386	-0.113124	0.15338	-0.63055	-0.949447	-3.86337	10.1463	0.103811	0.0290279	0.0545349	0.184082	0.766357	-0.73584	0.203274	-0.562131	-0.801266	0.025701	3.08546	-2.62474	-8.58112	-0.0451521	0.0463758	-0.073571	-0.447754	0.61377	0.799561	-0.700609	-0.117197	0.0467509	0.7023	-1.0044	2.14228	10.1979	0.0183189	0.055996	-0.0230951	0.127197	0.135498	-1.05762	-0.0143472	-0.668915	-0.693181	-0.268044	3.58152	4.01757	-8.40933	-0.00191006	0.0295299	0.014903	-0.414062	0.0231934	1.07056	
