40	Head	00b4120a												Throax	00b411e8												LUpArm	00b411d9												LFoArm	00b41148												RUpArm	00b411db												RFoArm	00b41204												Waist	00b411f7												Lthigh	00b411f4												Lshank	00b4111b												Rthigh	00b411c8												Rshank	00b411ee												
PacketCount	q0	q1	q2	q3	accX	accY	accZ	gyrX	gyrY	gyrZ	magX	magY	magZ	q0	q1	q2	q3	accX	accY	accZ	gyrX	gyrY	gyrZ	magX	magY	magZ	q0	q1	q2	q3	accX	accY	accZ	gyrX	gyrY	gyrZ	magX	magY	magZ	q0	q1	q2	q3	accX	accY	accZ	gyrX	gyrY	gyrZ	magX	magY	magZ	q0	q1	q2	q3	accX	accY	accZ	gyrX	gyrY	gyrZ	magX	magY	magZ	q0	q1	q2	q3	accX	accY	accZ	gyrX	gyrY	gyrZ	magX	magY	magZ	q0	q1	q2	q3	accX	accY	accZ	gyrX	gyrY	gyrZ	magX	magY	magZ	q0	q1	q2	q3	accX	accY	accZ	gyrX	gyrY	gyrZ	magX	magY	magZ	q0	q1	q2	q3	accX	accY	accZ	gyrX	gyrY	gyrZ	magX	magY	magZ	q0	q1	q2	q3	accX	accY	accZ	gyrX	gyrY	gyrZ	magX	magY	magZ	q0	q1	q2	q3	accX	accY	accZ	gyrX	gyrY	gyrZ	magX	magY	magZ	
0	-0.268276	-0.125294	0.363381	0.883336	-0.86966	7.13725	7.76031	-0.0414354	-0.0423923	0.0941318	-0.226562	-0.5625	-0.855713	0.0928399	-0.0824585	-0.851058	-0.510178	2.16977	8.3509	-4.34029	-0.0224903	0.00872451	-0.0179116	-0.458008	-0.925293	0.350342	0.723743	0.110089	-0.68025	0.0365679	9.4232	1.04839	0.391682	0.0137506	0.00573861	-0.0280242	-1.07568	-0.271729	-0.345947	0.647225	0.414073	-0.572803	0.285553	9.25156	2.52932	-0.0979303	-0.15948	0.0318349	0.0641478	-0.982422	-0.455322	-0.236328	0.0738355	-0.604639	0.0750833	0.789507	-9.14318	0.120567	2.27083	0.0643331	0.0577468	-0.00127814	0.816895	-0.130615	-0.609863	0.344661	0.483813	0.423427	-0.683991	-9.54257	-0.469291	3.37588	0.120723	0.00472967	0.0219183	0.877686	0.39917	-0.308594	0.0657789	0.161953	0.927845	0.329467	-0.118588	6.04527	-6.82606	0.0305939	-0.029913	-0.0146998	-0.334473	-0.538574	0.832275	0.938443	-0.209453	-0.159205	-0.223846	4.23912	-3.80997	9.29784	0.074709	-0.0216872	0.0321426	-0.0830078	0.475342	-0.930664	0.700179	0.191839	-0.672757	0.14264	9.88363	0.666878	0.277148	-0.0477645	0.0427178	-0.000541598	-1.07202	-0.230225	-0.236816	-0.340662	0.24299	0.7597	0.497757	7.56195	6.10973	-2.11517	0.134519	-0.105526	0.0342579	-0.993652	-0.32373	0.198486	0.285574	-0.301029	-0.635051	-0.651567	7.54371	6.36276	0.113902	0.00203504	-0.00737619	0.0486258	-1.09253	-0.345703	0.0256348	
1	-0.267741	-0.124276	0.36439	0.883227	-0.357694	7.40412	7.58394	0.0520983	-0.0596741	-0.0139576	-0.226562	-0.5625	-0.849365	0.0927899	-0.082223	-0.851248	-0.509909	2.60827	8.30287	-4.41901	0.0227109	0.0149933	-0.0379467	-0.451416	-0.931885	0.350586	0.7235	0.104581	-0.681532	0.0335243	10.0761	0.741018	0.471469	-0.26299	-0.0324201	0.0651467	-1.08447	-0.258545	-0.348633	0.6489	0.412044	-0.573504	0.283269	9.63259	1.78719	-0.211692	-0.0563521	0.0183158	-0.0446756	-0.971191	-0.455078	-0.236328	0.0755153	-0.603864	0.0785041	0.789609	-9.36452	0.166011	2.54191	0.0986395	-0.0403293	0.0378372	0.81958	-0.143799	-0.612305	0.346252	0.482832	0.422256	-0.684604	-9.55213	-0.741966	3.69629	-0.00844111	-0.0337076	-0.0262249	0.873535	0.396973	-0.310791	0.0657686	0.162038	0.92799	0.329019	-0.187851	6.16629	-7.13379	0.0362251	-0.0187259	-0.0236032	-0.338867	-0.538574	0.830078	0.938732	-0.208608	-0.159716	-0.223061	4.50121	-2.6887	9.67925	0.0977096	0.050082	0.01933	-0.0849609	0.470947	-0.932861	0.702499	0.187395	-0.672292	0.139291	9.72487	0.896877	0.282582	-0.102509	0.0246056	0.0284425	-1.07178	-0.237061	-0.243408	-0.340497	0.243747	0.758544	0.499259	7.21429	5.87056	-2.33277	-0.0819644	0.0313328	0.0141007	-0.989014	-0.330322	0.189453	0.286099	-0.301367	-0.636233	-0.650025	7.35571	6.90985	0.266722	0.00678611	-0.024894	0.0254226	-1.09058	-0.339111	0.0300293	
2	-0.26692	-0.124682	0.364933	0.883194	-0.438733	6.89198	7.46735	0.0653556	-0.00897171	-0.0511836	-0.226318	-0.56665	-0.851562	0.092372	-0.0817618	-0.851621	-0.509435	2.27799	8.56532	-4.27257	0.0100327	-0.0408927	-0.0458527	-0.453369	-0.931885	0.353027	0.723922	0.102307	-0.681515	0.0317434	9.52798	1.117	1.00557	-0.113468	0.00282759	0.015052	-1.08667	-0.258545	-0.35083	0.65133	0.406023	-0.576447	0.280399	9.69454	1.57452	0.104621	-0.344782	0.0126907	0.110451	-0.978271	-0.446289	-0.240723	0.0738552	-0.603379	0.0786519	0.790122	-9.33212	0.685995	2.70693	-0.0995541	-0.0288625	0.0304357	0.815186	-0.143799	-0.612305	0.347025	0.481895	0.422015	-0.685022	-9.60132	-0.690989	3.55438	-0.0343286	-0.0578661	-0.0328525	0.873291	0.39917	-0.308594	0.0663296	0.162705	0.927782	0.329162	0.340871	5.79889	-6.71728	-0.0180965	-0.00627922	0.0250274	-0.334473	-0.538574	0.834473	0.938192	-0.211297	-0.159313	-0.223089	3.63237	-4.07295	9.63295	-0.110131	-0.0136163	-0.023405	-0.083252	0.479736	-0.932861	0.702702	0.186347	-0.672399	0.139154	10.2591	0.398319	0.544321	0.0043162	0.0223464	0.0100413	-1.07007	-0.225586	-0.241455	-0.338957	0.245334	0.75819	0.500068	7.29827	5.10602	-2.70529	-0.0872583	-0.0462496	0.0158484	-0.991211	-0.330322	0.196289	0.285429	-0.302658	-0.634986	-0.650939	7.38062	6.37522	-0.0878725	-0.154066	-0.0424663	0.0340992	-1.08813	-0.343506	0.034668	
3	-0.266293	-0.125273	0.365809	0.882937	-0.348796	7.76527	7.66562	0.0929541	-0.00458496	-0.0472582	-0.224365	-0.5625	-0.851562	0.0929437	-0.0818806	-0.85161	-0.50933	2.66884	7.88571	-4.16855	-0.00356707	0.0651634	0.0153738	-0.453613	-0.929688	0.357666	0.723783	0.100326	-0.682012	0.0305241	9.8124	1.04236	0.91562	-0.180608	-0.0391256	0.0392788	-1.07812	-0.252197	-0.346436	0.649611	0.407785	-0.575263	0.284235	9.42033	2.24635	0.240074	0.1754	0.0367252	0.0596879	-0.97168	-0.448486	-0.238525	0.0732674	-0.60273	0.078583	0.790679	-9.33271	-0.05209	2.57606	-0.0345149	-0.0568071	0.0256824	0.814941	-0.139404	-0.612305	0.347877	0.480313	0.418524	-0.687836	-9.53123	-1.71184	4.01155	0.208017	-0.0917564	-0.0341751	0.869385	0.392578	-0.314941	0.0662249	0.163238	0.927944	0.328462	0.154575	5.4868	-6.66533	0.0737604	-0.00401378	0.0162539	-0.33252	-0.536377	0.832275	0.938198	-0.211244	-0.159354	-0.223085	4.20203	-3.96072	9.38015	0.00880228	0.0157451	-0.0175047	-0.0788574	0.479736	-0.930664	0.702452	0.18591	-0.672833	0.138903	9.85505	1.52866	0.881483	-0.0381106	-0.0283572	-0.00261589	-1.07227	-0.225586	-0.243652	-0.338703	0.245672	0.758292	0.499919	7.01515	4.68849	-2.40936	8.2543e-06	-0.0215444	0.014841	-0.991455	-0.32373	0.193848	0.285823	-0.302242	-0.636198	-0.649774	7.63888	6.76447	0.0933825	0.102728	0.0201632	-0.019714	-1.09058	-0.339111	0.034668	
4	-0.266646	-0.125111	0.366493	0.88257	-0.379405	7.00383	7.62787	0.0521649	-0.0301574	0.0282656	-0.224121	-0.56665	-0.847168	0.0923292	-0.0829976	-0.852236	-0.508213	2.89485	8.21615	-4.31008	0.0583341	-0.0466911	0.00908352	-0.458252	-0.923096	0.359619	0.723885	0.0972482	-0.682411	0.0291178	9.59609	0.452687	1.02746	-0.0909245	-0.00173777	0.0290662	-1.07837	-0.245605	-0.353516	0.650926	0.403547	-0.57763	0.28247	9.51026	2.15217	0.221875	-0.270835	-0.0216808	0.0629964	-0.983154	-0.439697	-0.247559	0.0771147	-0.601592	0.0845703	0.790562	-8.92599	0.441675	3.03514	0.364887	-0.0197652	0.00791959	0.808838	-0.148193	-0.607666	0.347222	0.480158	0.412355	-0.691988	-9.16821	-0.30158	4.3965	0.094222	-0.104427	0.0114906	0.86499	0.392578	-0.323486	0.0654082	0.16349	0.928922	0.325724	0.253857	5.83794	-7.09814	0.104278	0.00836832	-0.00172228	-0.334473	-0.536377	0.836426	0.938511	-0.209832	-0.159135	-0.223256	3.90928	-3.6767	9.39451	0.0892771	0.0603243	-0.0379337	-0.0808105	0.475342	-0.932861	0.702281	0.185271	-0.673322	0.138251	9.7846	0.216021	0.208832	0.0673907	-0.0245538	0.00776871	-1.06958	-0.234619	-0.239014	-0.338015	0.24527	0.760209	0.497666	7.64853	6.05407	-3.00671	0.101101	-0.0258107	-0.00962579	-0.991455	-0.32373	0.196045	0.286466	-0.301632	-0.634524	-0.65141	7.54582	6.21037	-0.131939	-0.0500801	0.0755967	-0.00455795	-1.08374	-0.338867	0.027832	
5	-0.266154	-0.124206	0.368376	0.882062	-0.693149	7.33159	7.54576	0.057188	-0.0905861	0.00396988	-0.230713	-0.566895	-0.844971	0.0935844	-0.0841954	-0.852446	-0.507433	2.30124	8.15624	-4.61776	0.031149	0.0234482	0.0563983	-0.462402	-0.923096	0.35498	0.72329	0.0984788	-0.682761	0.0314907	9.66841	0.646268	0.753964	0.141997	-0.0308756	0.0410424	-1.08252	-0.25415	-0.346436	0.650127	0.402647	-0.578728	0.283345	9.39397	2.89871	0.122456	-0.0395222	-0.0340343	0.0851906	-0.979004	-0.435303	-0.247559	0.0774068	-0.600638	0.0879732	0.790887	-9.2574	1.10137	2.75209	0.0439257	0.00303916	0.0721134	0.807129	-0.161377	-0.612305	0.347596	0.47915	0.409974	-0.693912	-9.58483	-1.72008	4.28345	0.153805	-0.0478838	-0.0356999	0.866943	0.39917	-0.325928	0.0654146	0.16447	0.929182	0.324485	-0.226703	5.8151	-7.13818	0.0588985	0.00146221	0.0158613	-0.341064	-0.53418	0.836426	0.93776	-0.212023	-0.158518	-0.224776	4.14352	-3.29787	9.4743	-0.168807	0.0288297	-0.0761081	-0.083252	0.481689	-0.928223	0.701966	0.182882	-0.674355	0.137995	10.0494	1.16218	0.271494	-0.170315	-0.0290617	0.0515342	-1.07471	-0.225586	-0.24585	-0.337071	0.246188	0.76047	0.497453	7.56423	5.94715	-2.46916	-0.00958668	-0.0466169	0.010233	-0.986816	-0.325928	0.200684	0.286761	-0.301453	-0.633063	-0.652783	7.41875	6.1057	0.365103	-0.0275448	0.0458106	0.00438242	-1.08862	-0.334717	0.0231934	
6	-0.264197	-0.123201	0.371214	0.881602	-0.56335	7.73072	7.3446	0.120201	-0.0926518	-0.0443374	-0.228027	-0.575439	-0.842773	0.0923406	-0.0859666	-0.852813	-0.506747	2.12519	8.50669	-4.61475	0.00620748	-0.0866725	3.84284e-05	-0.460449	-0.920898	0.359619	0.723009	0.101137	-0.682553	0.0339128	9.42581	1.0564	0.180799	0.087616	0.0108998	-0.0444813	-1.08887	-0.258545	-0.343994	0.651381	0.397112	-0.582898	0.279705	9.72014	0.684034	0.247876	-0.181176	-0.0700032	0.0896741	-0.985596	-0.43335	-0.245361	0.0755611	-0.600924	0.0883843	0.790803	-9.29149	0.319964	2.3689	-0.0327009	0.0320852	0.0504502	0.811523	-0.156982	-0.612305	0.349607	0.479041	0.40687	-0.694804	-9.61287	-0.679733	4.44544	-0.0592393	-0.0453113	0.0811813	0.865234	0.388184	-0.329834	0.0652915	0.165447	0.929372	0.323468	-0.0467443	6.11999	-7.11866	0.0414728	0.040053	0.010908	-0.339355	-0.525635	0.838379	0.93702	-0.213323	-0.157622	-0.227247	4.32143	-3.56206	9.04745	-0.0639839	0.0645861	-0.0975276	-0.0788574	0.479736	-0.930664	0.701292	0.180511	-0.675634	0.138293	9.34151	0.175572	0.00302875	0.0720856	-0.0316976	0.0653825	-1.07471	-0.221191	-0.239258	-0.336953	0.246402	0.759236	0.499309	7.02337	5.45335	-2.20258	-0.0660208	0.0468537	-0.000787644	-0.986816	-0.330322	0.200928	0.286541	-0.301166	-0.633834	-0.652264	7.16861	6.37441	0.207434	0.0612024	-0.0148625	-0.0284833	-1.08569	-0.345703	0.0300293	
7	-0.261257	-0.122947	0.373096	0.881719	-0.545568	7.70017	7.34045	0.102623	-0.087952	-0.110069	-0.234619	-0.575684	-0.844971	0.090354	-0.0873771	-0.853218	-0.506183	2.79836	8.09049	-4.37201	0.0172653	-0.0578148	-0.0137279	-0.460449	-0.923096	0.359619	0.722751	0.0999708	-0.68307	0.0324292	9.65077	0.483826	0.309204	-0.147612	-0.0498655	-0.0190441	-1.08032	-0.256348	-0.346436	0.649825	0.397655	-0.583608	0.28107	9.82524	2.44253	0.062344	-0.0671799	-0.0417954	0.0380246	-0.979004	-0.430908	-0.25	0.0768699	-0.602384	0.0917805	0.789177	-9.55325	1.03568	2.65312	0.141834	0.0866108	0.0106744	0.811523	-0.161377	-0.605469	0.354378	0.478637	0.404935	-0.693794	-9.61274	-0.410769	4.51277	-0.0252157	-0.0415465	0.145166	0.869141	0.392578	-0.336426	0.0622518	0.165952	0.929518	0.32339	0.173009	5.77465	-6.7553	0.0898486	0.116181	0.0318569	-0.341553	-0.527832	0.838379	0.93703	-0.213272	-0.157801	-0.227129	4.72233	-4.09722	9.45479	0.0233441	-0.0219181	0.0129026	-0.0812988	0.490479	-0.919189	0.700898	0.180383	-0.676	0.138666	10.4631	-0.31956	-0.218055	-0.0437622	-0.00202272	-0.0102237	-1.07251	-0.21875	-0.239258	-0.33629	0.24696	0.758996	0.499844	7.08875	5.84935	-2.80867	-0.0357307	-0.0366992	0.00848928	-0.989014	-0.328125	0.193848	0.285869	-0.301172	-0.633035	-0.653331	7.27666	6.97113	-0.0802127	-0.106401	0.0228743	-0.0110079	-1.09302	-0.336914	0.0209961	
8	-0.260375	-0.121674	0.374555	0.881538	-0.34436	7.78751	7.30307	0.0291564	-0.0730098	0.0245601	-0.23877	-0.584473	-0.836182	0.0906183	-0.0874157	-0.853474	-0.505696	2.4306	8.19691	-4.43847	0.0412913	0.0232095	-0.00563594	-0.462402	-0.923096	0.359619	0.721801	0.09114	-0.685424	0.0298337	9.62493	0.418704	0.426328	-0.103191	-0.0965617	0.0749945	-1.08716	-0.239014	-0.346924	0.652031	0.392351	-0.58679	0.276756	9.85469	1.64108	0.285266	-0.618687	-0.0750997	0.0764356	-0.990479	-0.424316	-0.254395	0.076022	-0.604288	0.0910024	0.787893	-9.15771	0.649381	2.46789	-0.093186	0.126326	-0.0368352	0.813721	-0.15918	-0.603027	0.356267	0.478608	0.404243	-0.69325	-9.49348	-0.128048	4.35511	-0.0625116	-0.0104013	0.109802	0.874023	0.379639	-0.335938	0.0603357	0.16531	0.930217	0.32207	-0.0185758	5.95282	-7.18095	0.15332	0.155546	-0.0341322	-0.348145	-0.523438	0.833984	0.937531	-0.212023	-0.157934	-0.226138	4.16845	-3.07984	9.34235	0.0131189	0.00159099	0.0141994	-0.0830078	0.479736	-0.930664	0.700053	0.180657	-0.676652	0.139397	9.58942	0.547326	0.0656691	0.013665	-0.0142688	-0.0228281	-1.07495	-0.21875	-0.237061	-0.335831	0.247295	0.759144	0.499763	7.1323	5.56465	-2.6674	-0.00611298	-0.0350883	0.00337138	-0.986816	-0.328125	0.198486	0.28581	-0.301088	-0.632833	-0.653592	7.14496	6.21788	0.204286	-0.020312	0.0202205	-0.0147881	-1.09277	-0.343506	0.0231934	
9	-0.260153	-0.121075	0.377362	0.880488	-0.531553	7.92088	7.21761	0.134097	-0.0596554	0.0315196	-0.23877	-0.584473	-0.836182	0.0903783	-0.0882219	-0.854329	-0.504153	2.43396	8.21445	-4.77338	0.0719157	-0.0230913	0.00755375	-0.460205	-0.923096	0.371582	0.721994	0.0917273	-0.685079	0.0312652	9.94659	0.268928	0.528574	0.130001	0.0681308	0.0276512	-1.08276	-0.236816	-0.351562	0.651973	0.392078	-0.58711	0.2766	9.6237	2.3423	0.210242	0.214404	0.0158154	-0.0324026	-0.988281	-0.422363	-0.25	0.0750736	-0.604846	0.0892967	0.787751	-9.89894	0.544544	2.30726	-0.154467	0.0471367	-0.039454	0.815918	-0.161377	-0.609863	0.358381	0.479053	0.40381	-0.692104	-9.77499	-0.451808	4.18021	-0.012216	0.0767966	0.0294557	0.874023	0.379639	-0.323242	0.0565858	0.163439	0.931867	0.318921	-0.000358349	5.88578	-7.27794	0.1274	0.0839556	-0.056548	-0.352539	-0.519043	0.835938	0.936802	-0.215417	-0.157534	-0.226233	4.60339	-3.54486	9.53132	-0.110636	0.0197558	5.661e-05	-0.0876465	0.483887	-0.923584	0.700268	0.180237	-0.676533	0.139438	9.94975	0.676625	-0.240826	-0.0377481	0.0220652	-0.00511068	-1.07227	-0.223389	-0.237061	-0.335586	0.245981	0.762412	0.495584	7.33562	5.98761	-2.55383	0.145842	-0.0489677	-0.0188581	-0.987061	-0.321533	0.20752	0.286726	-0.299512	-0.635834	-0.650996	7.46757	6.78531	0.148799	-0.00096598	0.00803021	-0.00972543	-1.08569	-0.3479	0.0234375	
10	-0.260179	-0.120368	0.379211	0.879782	-0.161402	7.59721	7.20567	0.082169	-0.0270284	0.00997209	-0.240967	-0.58667	-0.832031	0.0908981	-0.0880553	-0.85506	-0.502849	2.35508	8.44078	-4.68497	0.0475714	0.0314037	-0.0202758	-0.458252	-0.920898	0.366699	0.72229	0.095419	-0.684042	0.0357645	9.41762	1.17175	0.431785	0.18258	0.0417589	0.0142058	-1.08276	-0.243408	-0.351318	0.652612	0.391596	-0.587204	0.275576	9.38228	1.78788	0.132084	-0.13183	-0.00603528	-0.00132264	-0.988281	-0.426514	-0.252197	0.0740102	-0.605461	0.0907576	0.787212	-9.50689	0.601261	2.40348	0.0735397	0.0156289	-0.00386869	0.820312	-0.161377	-0.60083	0.360019	0.47951	0.404376	-0.690606	-9.57092	0.0103237	3.88363	-0.134952	0.0264979	0.0304465	0.874023	0.381836	-0.323242	0.0558582	0.162432	0.932571	0.317502	-0.172077	6.01077	-7.22276	0.0652744	0.060509	-0.0421779	-0.352783	-0.51709	0.842285	0.937311	-0.213576	-0.157667	-0.225774	3.90579	-3.64778	9.44711	0.143534	0.0213172	-0.00150677	-0.0791016	0.483887	-0.928467	0.700211	0.180056	-0.676557	0.139842	9.58645	0.479814	0.16035	0.0297257	0.0164154	-0.00859009	-1.07007	-0.220947	-0.243652	-0.335646	0.245344	0.762935	0.495054	7.52334	5.94501	-2.6609	0.0681199	0.0407588	-0.00392688	-0.986816	-0.325928	0.212158	0.28715	-0.29915	-0.637695	-0.649153	7.38229	6.48885	0.19181	0.145149	-0.0220752	-0.00733834	-1.09253	-0.345703	0.0324707	
11	-0.260198	-0.120963	0.379904	0.879396	-0.31899	8.03352	7.32399	0.0788315	0.0196932	-0.00214185	-0.238525	-0.588867	-0.827637	0.0908055	-0.0884042	-0.854963	-0.502969	2.43544	8.49798	-4.70081	-0.0290895	-0.00733502	-0.0149482	-0.460449	-0.920898	0.366699	0.723067	0.0955087	-0.68326	0.0347404	9.82304	0.286638	0.422903	0.0216721	0.0718397	-0.0210313	-1.08057	-0.245605	-0.348877	0.651337	0.394101	-0.586097	0.277372	9.90718	1.80779	-0.0890022	0.156371	0.0204577	-0.00420164	-0.988281	-0.426758	-0.247803	0.0739852	-0.605202	0.0915264	0.787324	-9.76362	0.823936	2.39583	-0.0681452	0.015329	-0.00972192	0.820312	-0.163574	-0.605469	0.361607	0.478693	0.40359	-0.690803	-10.1863	-0.221387	3.81519	0.00550508	-0.0476915	-0.00302062	0.874023	0.381836	-0.331787	0.0555947	0.162445	0.932539	0.317634	-0.0416658	6.09664	-7.17578	0.00769388	0.0307459	-0.0118148	-0.348389	-0.514893	0.840332	0.937469	-0.212967	-0.157925	-0.225513	3.87767	-3.41167	9.6178	0.0601761	0.00677589	-0.00638747	-0.083252	0.481934	-0.930664	0.700422	0.180109	-0.67599	0.141444	10.1271	0.562007	-0.0385282	0.035603	0.0500872	0.0316064	-1.07495	-0.21875	-0.237061	-0.335693	0.245372	0.763489	0.494154	7.32736	5.99462	-2.22612	0.0777904	-0.0174513	0.0187783	-0.986816	-0.330322	0.209961	0.286929	-0.299405	-0.638361	-0.648478	7.43303	6.674	0.216183	0.0608803	-0.0471668	-0.00431473	-1.08813	-0.343506	0.0300293	
12	-0.259654	-0.121942	0.379712	0.879505	-0.341479	7.57679	7.36162	0.0157292	0.0144049	-0.0424129	-0.23877	-0.58667	-0.829834	0.0903324	-0.0877547	-0.854199	-0.504464	2.49474	8.25733	-4.61102	-0.0677083	0.0111091	-0.0446001	-0.460449	-0.923096	0.362061	0.722888	0.0963888	-0.683247	0.0362742	9.52466	0.486203	0.400355	0.13655	0.00202316	0.0392196	-1.08057	-0.243408	-0.351318	0.650672	0.39353	-0.587238	0.277332	9.71774	1.3327	-0.684456	0.0275057	-0.07259	0.0280248	-0.983643	-0.426514	-0.245605	0.0744136	-0.604937	0.0916923	0.787468	-9.55681	0.146237	2.0645	0.0314827	-0.0174201	-0.0295372	0.813965	-0.167969	-0.609863	0.362807	0.477662	0.401058	-0.69236	-9.5622	-0.642337	4.27489	0.152631	-0.043663	-0.00955909	0.874023	0.384033	-0.336182	0.0541243	0.161969	0.932336	0.318726	0.182781	5.52083	-7.05548	-0.00452606	0.0966927	-0.0273219	-0.359375	-0.514893	0.842285	0.937554	-0.212265	-0.157535	-0.226093	4.54993	-3.5341	9.38289	0.0129916	0.064138	-0.0582821	-0.0766602	0.479736	-0.932861	0.700562	0.179275	-0.675979	0.141865	9.79607	0.583025	0.480931	-0.0248262	0.0320296	0.0462988	-1.07495	-0.214111	-0.239258	-0.33464	0.246515	0.762128	0.496395	7.15052	5.00206	-3.09281	-0.139447	0.0244353	-0.010302	-0.989258	-0.32373	0.20752	0.285977	-0.300676	-0.637721	-0.64894	7.45365	6.36714	-0.450257	-0.0076502	-0.0203895	0.00669513	-1.09033	-0.3479	0.0302734	
13	-0.261033	-0.121576	0.380423	0.87884	-0.318464	8.03449	7.54991	0.00289521	-0.0181338	0.11419	-0.242676	-0.595459	-0.825439	0.0916664	-0.0872303	-0.854296	-0.504149	2.54083	8.09464	-4.20602	0.0387202	0.0826021	-0.00356301	-0.462402	-0.925293	0.366943	0.720708	0.0936567	-0.686064	0.033545	10.0304	0.132602	0.691992	-0.271256	-0.182096	0.0171249	-1.08496	-0.239014	-0.344482	0.647495	0.395763	-0.588662	0.278567	9.74064	1.62047	0.153536	-0.0527809	-0.131002	0.0671744	-0.986084	-0.424561	-0.241211	0.0768016	-0.603907	0.0946349	0.787681	-8.91318	0.893454	2.77138	0.0659916	-0.0114648	-0.0529363	0.816162	-0.167969	-0.603027	0.362529	0.476813	0.399096	-0.694222	-9.19563	-0.105787	4.50615	0.00422325	-0.0514381	-0.0545628	0.871826	0.379639	-0.335938	0.0521251	0.160476	0.933357	0.316819	0.254458	5.74733	-7.10222	0.100599	0.0880431	-0.0515028	-0.357178	-0.514893	0.835938	0.937361	-0.21317	-0.15817	-0.225598	4.12287	-4.13448	9.27939	-0.0439136	-0.0536629	0.0246974	-0.0788574	0.481934	-0.930664	0.700851	0.178009	-0.676357	0.14022	9.75403	-0.125038	0.105196	-0.0834251	-0.00322562	-0.0211784	-1.07251	-0.21875	-0.241455	-0.334669	0.245927	0.763504	0.494549	7.2549	5.56301	-2.56796	0.192976	-0.0481164	-0.000180599	-0.984619	-0.327881	0.218994	0.28621	-0.300499	-0.638476	-0.648177	7.39458	6.43389	0.0311	0.0416045	0.00481519	0.0019852	-1.08789	-0.3479	0.027832	
14	-0.263794	-0.119998	0.381972	0.87756	-0.527248	7.53937	7.27055	0.0684424	-0.0396729	0.12715	-0.243164	-0.58667	-0.825439	0.0934546	-0.086774	-0.854453	-0.503634	2.49818	8.20976	-4.76266	0.0258854	0.0643744	0.0056076	-0.4646	-0.923096	0.369141	0.719101	0.0856412	-0.688952	0.0300603	9.76659	0.827564	0.575693	-0.310616	-0.146844	0.132938	-1.08716	-0.230225	-0.342529	0.648028	0.391296	-0.592914	0.274591	9.88914	1.96264	0.655608	-0.119496	-0.0708974	0.0376505	-0.986328	-0.420166	-0.236816	0.0760151	-0.602749	0.0932713	0.788807	-9.56599	0.705826	2.46967	-0.0847991	-0.0690654	0.0228223	0.811768	-0.165771	-0.609863	0.36191	0.475765	0.400398	-0.694515	-9.5924	-0.82824	4.20097	-0.021349	0.0650425	-0.115436	0.875977	0.38623	-0.336182	0.0517995	0.159711	0.934076	0.315138	0.0378731	5.55587	-7.2676	0.0801701	0.0175456	-0.0428126	-0.359375	-0.512695	0.840088	0.93774	-0.212775	-0.158347	-0.224269	4.29135	-3.58793	9.53068	0.0419797	0.0241241	0.0393877	-0.083252	0.484131	-0.933105	0.700486	0.181009	-0.675824	0.140774	10.0612	0.774662	0.446932	0.104517	-0.00377727	-0.0775378	-1.07471	-0.220947	-0.241455	-0.334392	0.245713	0.765471	0.491794	7.23564	5.34889	-2.69526	0.120798	-0.0274092	0.00484583	-0.984863	-0.32373	0.214355	0.286449	-0.300167	-0.638906	-0.647801	7.4842	6.54252	0.107286	0.0576254	0.0178369	-0.0111164	-1.08569	-0.345703	0.0368652	
15	-0.26368	-0.11889	0.382489	0.87752	-0.264994	7.29259	7.08367	0.00985712	-0.0478899	-0.026395	-0.249512	-0.591064	-0.825439	0.094384	-0.0870529	-0.854609	-0.503147	2.39232	8.1727	-4.83108	0.0163183	0.0238426	0.00155962	-0.464844	-0.920898	0.357178	0.718962	0.0850044	-0.689221	0.0290423	9.7121	-0.190264	0.697579	0.120151	0.0342487	-0.0713754	-1.08521	-0.226074	-0.340332	0.647321	0.392908	-0.592222	0.275448	9.52132	2.74333	0.841653	0.039468	0.0180456	-0.0264286	-0.995361	-0.417969	-0.234619	0.0730388	-0.602691	0.0909189	0.789407	-9.33193	0.789329	2.56366	-0.142993	0.00968606	0.00207649	0.811768	-0.165771	-0.614502	0.36174	0.475393	0.399968	-0.695105	-9.69457	-1.23484	4.43583	0.0903022	0.00203742	-0.0314976	0.875977	0.388184	-0.336182	0.0527967	0.159648	0.934054	0.315068	-0.118361	5.62886	-7.47249	-0.0030543	-0.0650102	-0.0356441	-0.35498	-0.514893	0.840088	0.937969	-0.212744	-0.158278	-0.223388	4.0352	-3.45883	9.60168	0.0771745	0.0362426	0.014702	-0.0788574	0.481934	-0.930664	0.70033	0.180882	-0.676112	0.140329	9.41165	0.478856	-0.219655	0.0227364	0.000358875	-0.0105176	-1.07471	-0.221191	-0.237061	-0.335103	0.244566	0.766366	0.490486	7.44573	6.12119	-2.67206	0.0881256	0.0394746	-0.000288494	-0.989258	-0.32373	0.214355	0.286928	-0.299159	-0.640492	-0.646488	7.32458	6.70219	0.223792	0.0113757	-0.0176536	-0.0156961	-1.09033	-0.3479	0.034668	
16	-0.261132	-0.119621	0.381911	0.878433	-0.202507	7.98975	7.27197	-0.048659	-0.0182166	-0.135812	-0.247559	-0.584717	-0.823486	0.0942179	-0.0866878	-0.855032	-0.502523	2.30956	8.61233	-4.53485	0.0248761	0.00653035	-0.0473465	-0.464844	-0.920898	0.369141	0.721023	0.0890784	-0.686509	0.029937	10.1297	0.814882	0.32131	0.0866808	0.17357	-0.0823879	-1.07837	-0.241211	-0.346924	0.64759	0.39592	-0.58886	0.277702	9.81116	1.41628	0.200558	0.285301	0.127935	-0.0679876	-0.988037	-0.428955	-0.239014	0.0745246	-0.602289	0.0943717	0.789169	-9.2601	0.811388	2.77631	0.221473	0.055792	0.0381382	0.814209	-0.170166	-0.609863	0.3633	0.475118	0.397416	-0.695942	-9.71202	-0.907649	4.33489	0.015701	-0.0791784	0.0571534	0.869629	0.384033	-0.344727	0.0552262	0.160318	0.933101	0.31713	-0.155534	6.45587	-7.18858	-0.150272	-0.0710768	8.92141e-05	-0.348389	-0.514893	0.835938	0.937902	-0.212841	-0.158633	-0.223325	3.82678	-3.45055	9.58202	0.00263444	-0.0126346	-0.018027	-0.0788574	0.479492	-0.921387	0.699623	0.182324	-0.6761	0.142039	10.3458	0.910536	0.112796	0.0695812	0.00103082	0.000604287	-1.07715	-0.21875	-0.241455	-0.335193	0.245635	0.765065	0.49192	7.31839	5.75955	-2.88071	-0.148324	0.0457721	0.0296839	-0.984619	-0.325684	0.212158	0.285848	-0.299847	-0.640186	-0.64695	7.40461	6.36642	-0.163168	-0.0264258	-0.0251587	-0.0203674	-1.08569	-0.3479	0.034668	
17	-0.258317	-0.121888	0.379782	0.879876	-0.527593	8.11645	7.29618	-0.0479709	0.0548167	-0.145989	-0.238281	-0.595215	-0.82959	0.0942096	-0.0861505	-0.854864	-0.502902	2.3748	8.56284	-4.49153	-0.033323	0.0370927	-0.0589772	-0.462402	-0.923096	0.369141	0.723505	0.0952898	-0.682967	0.031884	9.60487	0.682885	0.437859	0.187986	0.149234	-0.13352	-1.08472	-0.249756	-0.355713	0.647483	0.397796	-0.586435	0.280389	9.78263	2.04797	-0.000899895	0.280831	0.169513	-0.0221209	-0.988037	-0.428955	-0.243408	0.0753608	-0.603114	0.0964163	0.788212	-9.65583	1.13578	2.40382	0.0313435	0.0673437	0.00754486	0.814209	-0.172363	-0.605469	0.363799	0.475235	0.395107	-0.696916	-9.81218	-1.02411	4.56768	0.147178	-0.0707436	0.0542946	0.869629	0.381836	-0.336182	0.0563139	0.160853	0.932027	0.319813	0.0514602	5.98974	-7.10061	-0.223945	-0.0543881	0.0177455	-0.348145	-0.52124	0.840332	0.937743	-0.213093	-0.15835	-0.223953	4.5759	-3.34065	9.42364	-0.0152601	0.0215253	-0.0292975	-0.0810547	0.481934	-0.928223	0.699508	0.180523	-0.676818	0.141483	9.57918	0.252236	0.130431	-0.110172	0.00393885	0.0038751	-1.0769	-0.223389	-0.234619	-0.335183	0.246269	0.763998	0.493265	6.99858	5.32824	-2.77289	-0.140468	0.0420456	0.025661	-0.984375	-0.330078	0.2146	0.285358	-0.300056	-0.640049	-0.647205	7.19048	6.66682	0.0230808	-0.0336565	-0.0185565	-0.0221848	-1.09253	-0.345703	0.0393066	
18	-0.257889	-0.122351	0.378399	0.880533	-0.473124	8.03699	7.45844	-0.100358	0.0309534	-0.0701811	-0.243164	-0.58667	-0.829834	0.0941883	-0.0849228	-0.854643	-0.503489	2.51494	8.02656	-4.46799	-0.0310877	0.0401953	-0.0571994	-0.462402	-0.925293	0.366943	0.72417	0.0969124	-0.682009	0.0324088	9.85642	0.566351	0.391243	0.0149434	-0.0006329	0.000576652	-1.07617	-0.247803	-0.353516	0.649315	0.397419	-0.584176	0.281402	9.65334	0.92665	-0.651538	0.0116872	0.101282	-0.0217547	-0.983643	-0.430908	-0.245605	0.0721495	-0.605212	0.092833	0.787334	-9.02563	-0.126968	2.25219	-0.214188	0.091095	-0.0253245	0.811768	-0.165771	-0.603027	0.365723	0.475582	0.391855	-0.697509	-9.39094	0.0357406	4.42675	0.00470545	-0.0446534	0.0732047	0.869629	0.379639	-0.344482	0.0591466	0.162121	0.930721	0.322454	-0.0968811	5.8695	-6.96359	-0.0912354	-0.133418	-0.00142691	-0.345703	-0.530029	0.836426	0.937785	-0.212548	-0.158216	-0.22439	4.27046	-3.80052	9.33519	-0.00149544	0.000386539	-0.0348887	-0.0852051	0.479736	-0.939941	0.699654	0.180573	-0.676657	0.141464	10.0713	-0.0108853	0.059096	0.000774597	0.0244303	-0.0278846	-1.07495	-0.21875	-0.24585	-0.33505	0.246615	0.76355	0.493876	7.14927	5.4548	-2.90713	0.0384448	0.0139506	0.00688654	-0.986816	-0.325928	0.212158	0.28474	-0.300077	-0.63941	-0.648099	7.46515	6.63123	-0.387194	-0.00356291	0.0270818	-0.022896	-1.09033	-0.3479	0.034668	
19	-0.259133	-0.12119	0.377425	0.880746	-0.624809	7.66446	7.35767	-0.0159546	-0.0657829	0.0786629	-0.245117	-0.591064	-0.833984	0.0943677	-0.0848652	-0.854396	-0.503884	2.48018	8.04719	-4.56091	0.00102554	0.0110147	-0.00986793	-0.458008	-0.925293	0.362061	0.723368	0.0942124	-0.683322	0.0305611	9.65791	0.465258	0.659236	-0.161153	-0.0541873	0.0326126	-1.07837	-0.247803	-0.342041	0.650121	0.396786	-0.583837	0.281137	9.65435	1.46241	-0.254728	-0.0754074	0.0104606	-0.00730327	-0.988037	-0.428955	-0.247803	0.0724428	-0.605893	0.0937745	0.786671	-9.26614	0.886824	2.62464	0.0350298	0.0541779	-0.0103703	0.822754	-0.167969	-0.605469	0.368252	0.476248	0.393054	-0.695045	-9.56596	-0.365602	4.27443	-0.122156	0.125332	0.0552636	0.874268	0.375244	-0.340088	0.060407	0.162283	0.930333	0.323259	-0.144253	5.84015	-7.17224	-0.0696163	-0.078713	-0.0316928	-0.3479	-0.530029	0.836426	0.938456	-0.211397	-0.157936	-0.222862	4.07524	-3.43595	9.50836	0.00900878	0.0182153	0.0268909	-0.0766602	0.481934	-0.937744	0.699572	0.182171	-0.67625	0.141767	9.7587	0.138291	0.132355	-0.0358155	0.000817755	-0.0496516	-1.07251	-0.21875	-0.237061	-0.335132	0.246788	0.765021	0.491453	7.10599	5.81888	-2.81387	0.110334	-0.0499794	0.0223602	-0.987061	-0.32373	0.218994	0.285402	-0.299681	-0.639305	-0.648094	7.19933	6.39618	0.34311	0.035418	0.0316033	0.00494354	-1.08545	-0.352295	0.0371094	
20	-0.259413	-0.119955	0.377585	0.880764	-0.478793	7.1947	7.3003	-0.0140964	-0.0907179	0.0572768	-0.243164	-0.584473	-0.827637	0.095553	-0.0848319	-0.854602	-0.503318	2.39335	8.28047	-4.70615	0.0267864	0.049565	0.0130789	-0.471191	-0.923096	0.366699	0.723092	0.0931992	-0.683777	0.0300319	9.64374	0.496826	0.732832	-0.0867438	-0.0397245	0.0268458	-1.07837	-0.241211	-0.349121	0.650415	0.397089	-0.584222	0.279223	9.54008	2.0517	0.438532	-0.0579528	-0.0299632	-0.0614515	-0.981201	-0.430908	-0.25	0.0714773	-0.6069	0.0927646	0.786103	-9.02612	0.739492	2.39718	-0.112323	0.101123	-0.0123187	0.820557	-0.167969	-0.598633	0.370676	0.476605	0.395682	-0.692014	-9.31213	-0.33379	4.36129	-0.108703	0.108238	0.0141737	0.871826	0.381836	-0.331787	0.0643137	0.162384	0.929851	0.323841	-0.219444	6.04577	-7.27244	0.0188419	-0.0960039	-0.0456993	-0.339355	-0.527832	0.836182	0.938194	-0.212789	-0.158255	-0.222415	4.02005	-3.3408	9.56558	-0.0937547	-0.0421121	0.024194	-0.0766602	0.479736	-0.923584	0.69967	0.182573	-0.676001	0.141957	9.91061	0.566698	-0.0869402	0.0345306	0.0256137	-0.0365675	-1.07715	-0.221191	-0.241455	-0.334944	0.245728	0.766479	0.489836	7.55029	5.64124	-2.49186	0.0746767	0.0142717	-0.0232783	-0.984619	-0.325684	0.221191	0.286304	-0.298753	-0.641206	-0.646244	7.41731	6.53113	0.143718	0.0805993	-3.16352e-05	-0.00397404	-1.08813	-0.345703	0.0393066	
21	-0.2582	-0.118435	0.379239	0.880616	-0.482609	7.80465	7.28687	0.0498194	-0.106182	-0.0336294	-0.249512	-0.591064	-0.825439	0.0959674	-0.0847251	-0.855019	-0.502548	2.53509	8.25866	-4.58065	0.0326673	0.0299183	-0.0317517	-0.460205	-0.925293	0.366943	0.724057	0.0949794	-0.682466	0.0310055	9.75431	0.908079	0.612135	0.136648	0.110119	-0.0848702	-1.08276	-0.243408	-0.353516	0.650319	0.398089	-0.583398	0.279744	9.79279	2.00255	0.274164	0.144548	0.0430338	-0.00199979	-0.987793	-0.435547	-0.23877	0.0718982	-0.606922	0.0936374	0.785945	-9.45317	1.26677	2.46648	0.0210615	0.0262696	-0.00797893	0.818115	-0.161377	-0.591553	0.370898	0.477037	0.396268	-0.691261	-9.94425	-0.440111	3.98197	-0.0393556	0.099562	-0.00600014	0.878418	0.381836	-0.333984	0.0680793	0.162669	0.928906	0.325634	0.0427947	5.97542	-6.84847	-0.117477	-0.160623	-0.051807	-0.328125	-0.538574	0.838623	0.93829	-0.213109	-0.157815	-0.222014	4.10353	-3.632	9.40443	-0.00188422	0.0420024	-0.00459521	-0.0769043	0.484131	-0.930664	0.699622	0.18292	-0.675637	0.14347	9.56049	1.39776	0.507338	0.0256342	0.00394481	0.0318807	-1.07715	-0.21875	-0.239258	-0.334765	0.246214	0.766026	0.490424	7.25292	5.51555	-2.77932	-0.0541165	0.0109743	0.00426455	-0.984619	-0.325684	0.214355	0.28559	-0.299116	-0.641497	-0.646103	7.39995	6.3166	-0.0213621	0.0153322	-0.0262884	-0.0211969	-1.08789	-0.3479	0.034668	
22	-0.25537	-0.117872	0.379535	0.881388	-0.0710325	7.80924	7.37284	0.00679554	-0.0534324	-0.104501	-0.247314	-0.588867	-0.827637	0.0966349	-0.0838414	-0.854745	-0.503035	2.74923	8.49975	-4.32667	-0.0376491	0.0684677	-0.0397886	-0.4646	-0.923096	0.362061	0.725314	0.0975077	-0.680763	0.0311994	9.82116	0.68874	0.775716	0.0582542	0.0841575	-0.0524837	-1.08032	-0.251953	-0.360107	0.650511	0.399128	-0.582115	0.280491	9.55673	1.99239	0.316388	-0.025881	0.0395944	-0.0338126	-0.974365	-0.4375	-0.243164	0.0711824	-0.607097	0.0935921	0.78588	-9.75001	0.506053	2.11913	0.0480851	-0.0216908	0.0209473	0.825195	-0.172363	-0.598389	0.372568	0.475998	0.397564	-0.690335	-9.86302	0.17423	4.36969	-0.134439	0.0422035	-0.0242655	0.869873	0.377441	-0.322998	0.0710313	0.163267	0.927816	0.327804	-0.0054606	6.34136	-7.1094	-0.105149	-0.06916	-0.0190306	-0.328125	-0.538574	0.832275	0.938785	-0.211511	-0.157986	-0.221328	4.19237	-3.69925	9.47168	0.0864348	0.000865046	0.00347482	-0.0805664	0.473145	-0.928223	0.699717	0.182726	-0.675526	0.143778	10.2423	-0.130848	-0.144845	0.0993061	0.0273848	-0.00237711	-1.07739	-0.216553	-0.241455	-0.335272	0.246267	0.765596	0.490722	7.05361	6.01376	-2.7568	0.0363757	0.0188716	0.0289735	-0.989258	-0.325928	0.214355	0.285188	-0.299602	-0.640949	-0.6466	7.35948	6.88742	-0.237688	-0.073493	0.00302207	0.00720698	-1.08789	-0.3479	0.0324707	
23	-0.254734	-0.117917	0.37891	0.881835	-0.298124	8.19083	7.37655	-0.0463231	-0.0173427	-0.0615226	-0.247559	-0.586914	-0.821289	0.0976462	-0.0825912	-0.853936	-0.504417	2.34147	8.17347	-4.39066	-0.0549648	0.0667022	-0.0374686	-0.4646	-0.925293	0.359863	0.725688	0.0998461	-0.679941	0.0329937	9.69687	0.548005	0.567725	0.142833	0.00663562	-0.000887954	-1.07812	-0.25415	-0.360107	0.649211	0.402687	-0.579794	0.28321	9.61316	1.87034	-0.131499	0.288778	0.0396235	-0.0365922	-0.978516	-0.444092	-0.240967	0.0689056	-0.606929	0.090302	0.786597	-9.08528	0.626699	2.55541	-0.27497	-0.00213632	-0.0668284	0.818359	-0.165771	-0.598633	0.375186	0.473515	0.399869	-0.689292	-9.42262	-0.648738	4.3755	-0.0213671	-0.0223407	-0.0567303	0.87207	0.379639	-0.325195	0.072991	0.163434	0.927026	0.329523	-0.116303	5.85174	-6.70567	-0.158029	-0.121921	-0.0398594	-0.327637	-0.544922	0.830322	0.938934	-0.211374	-0.157261	-0.221346	4.18736	-3.45487	9.34774	-0.0819593	0.052527	-0.0184954	-0.076416	0.475342	-0.930664	0.699342	0.183024	-0.67571	0.144357	9.68061	1.11334	0.599194	-0.089106	-0.0193193	-0.017708	-1.07935	-0.221191	-0.237061	-0.333383	0.247743	0.765008	0.492181	7.31874	4.83524	-3.07067	-0.112269	-0.0376927	-0.0198735	-0.984619	-0.330078	0.209961	0.285634	-0.299415	-0.640974	-0.646465	7.41336	6.42216	-0.0305025	0.0672617	0.0300209	0.000312168	-1.08789	-0.350098	0.0415039	
24	-0.256143	-0.118449	0.377971	0.881759	-0.730979	7.68763	7.44638	0.0413306	0.0373843	0.0735567	-0.247559	-0.584717	-0.823486	0.0974121	-0.0825583	-0.853745	-0.504792	2.40701	8.29983	-4.56568	-0.0387771	0.00167605	-0.0335794	-0.466797	-0.923096	0.35498	0.725684	0.100497	-0.679747	0.0350361	9.73055	0.934244	0.57436	-0.00752537	-0.00361822	0.0316592	-1.07812	-0.258545	-0.362305	0.64915	0.403203	-0.579511	0.283192	9.48734	2.22608	-0.211089	0.0340724	0.00531138	-0.0309032	-0.97876	-0.439697	-0.247559	0.0694588	-0.60597	0.0886547	0.787475	-9.45041	0.57044	2.39813	0.0631726	-0.042437	-0.0579294	0.813721	-0.15918	-0.605469	0.374297	0.472918	0.401393	-0.6893	-9.42676	-0.187584	3.99423	-0.115886	0.0537457	-0.0843417	0.875977	0.38623	-0.323242	0.076001	0.163642	0.927	0.328811	-0.165712	5.79202	-6.98138	0.0256496	0.0105762	-0.0174396	-0.321533	-0.540771	0.84082	0.938773	-0.212169	-0.157085	-0.221392	4.37561	-3.77523	9.41561	0.0107867	0.0191926	-0.00393153	-0.0744629	0.477539	-0.926025	0.699729	0.182436	-0.67582	0.142701	9.90491	-0.109322	-0.0217493	0.0205112	0.00806785	-0.0612025	-1.07471	-0.220947	-0.243652	-0.333787	0.246673	0.766781	0.48968	7.45242	5.6606	-2.66177	0.171673	-0.00593594	-0.0047248	-0.987061	-0.32373	0.218994	0.285886	-0.298956	-0.641037	-0.646502	7.49734	6.11141	0.107721	0.026392	0.024981	-0.0147908	-1.08813	-0.343506	0.034668	
25	-0.256884	-0.117933	0.378352	0.881449	-0.571555	7.32566	7.48555	0.0215589	-0.0267707	0.077266	-0.249756	-0.584717	-0.827637	0.0968942	-0.0831882	-0.854102	-0.504184	2.6026	8.14746	-4.5229	0.0186715	-0.0316025	0.002166	-0.462646	-0.918701	0.359619	0.724461	0.0980467	-0.681478	0.03362	9.82238	0.59075	0.670908	-0.0920605	-0.10055	0.0238197	-1.07837	-0.247803	-0.353516	0.646296	0.408435	-0.577942	0.285421	9.76203	1.10416	-0.62731	0.44134	-0.049011	-0.0598207	-0.976318	-0.442139	-0.22998	0.0706756	-0.604615	0.0883406	0.788442	-9.4275	0.516958	2.50701	0.0463823	-0.0752611	-0.0239971	0.813721	-0.15918	-0.596191	0.373845	0.472799	0.402201	-0.689156	-9.50541	-0.936642	4.01807	-0.0182056	0.0747489	-0.0928065	0.878174	0.38623	-0.325439	0.0761772	0.16359	0.927447	0.327534	-0.263152	5.90112	-6.79571	0.117235	-0.0158715	-0.0432327	-0.319336	-0.540771	0.843018	0.939065	-0.21122	-0.157076	-0.221066	4.28588	-3.68382	9.49427	0.084086	0.0333541	0.00117866	-0.0700684	0.477539	-0.932861	0.69969	0.183776	-0.675386	0.143227	9.97258	1.17589	0.377473	0.109652	0.0223093	-0.069405	-1.07471	-0.225586	-0.236816	-0.334091	0.24636	0.767014	0.489265	7.56785	5.86745	-3.10082	0.0499144	0.0289836	0.00137867	-0.984863	-0.32373	0.214355	0.286311	-0.298491	-0.641386	-0.646183	7.61183	6.84414	0.0568088	0.0581468	0.0382135	-0.00864906	-1.08569	-0.345703	0.0368652	
26	-0.255273	-0.116801	0.38124	0.880823	-0.38575	8.07086	7.26871	0.117797	-0.116713	-0.0413636	-0.249512	-0.591064	-0.832031	0.0978464	-0.0833227	-0.854457	-0.503376	2.52231	8.22909	-4.49558	0.0400124	0.0639339	-0.00790616	-0.466797	-0.925293	0.362061	0.724173	0.0978212	-0.681853	0.0328778	9.40528	0.806414	0.804299	-0.0238336	-0.00939234	-0.00620214	-1.07812	-0.252197	-0.351074	0.645521	0.407113	-0.580165	0.284552	9.6343	2.67542	0.238666	-0.305424	-0.0984068	0.0653102	-0.985352	-0.442139	-0.232178	0.071759	-0.603088	0.0900024	0.789325	-9.11026	0.511762	2.68248	0.0428191	-0.0559053	0.00513997	0.813721	-0.161377	-0.612305	0.372398	0.472182	0.403695	-0.689488	-9.79281	-0.783191	4.09895	-0.057718	0.0370487	-0.114615	0.875732	0.392578	-0.323486	0.0738309	0.16342	0.928666	0.324687	0.0484033	6.21535	-7.1604	0.1115	0.122952	-0.00638822	-0.321533	-0.540771	0.845215	0.939686	-0.208139	-0.157867	-0.220784	3.95774	-3.44889	9.42407	0.0964288	-0.00766909	-0.0353924	-0.0783691	0.470947	-0.9375	0.700229	0.183431	-0.675128	0.142247	9.79023	0.603438	0.119882	-0.0771676	0.0413339	-0.0665725	-1.07495	-0.214111	-0.241455	-0.333901	0.246718	0.76713	0.489032	7.17986	5.87649	-3.0041	-0.077719	-0.0297748	-0.00235764	-0.989258	-0.32373	0.221191	0.286395	-0.299336	-0.639148	-0.647971	7.36949	6.0908	-0.183025	-0.0699133	0.0367317	0.0251003	-1.08789	-0.352295	0.0256348	
27	-0.25316	-0.116941	0.38239	0.880916	-0.360842	8.21098	7.18085	0.0267915	0.0178263	-0.0587736	-0.253662	-0.595703	-0.819092	0.0975865	-0.0830878	-0.854423	-0.503522	2.3883	8.40967	-4.58498	-0.0272352	-0.0113284	-0.0236226	-0.4646	-0.923096	0.359619	0.72415	0.0969671	-0.681997	0.0329276	9.92223	0.242353	0.577029	0.00239389	0.0311049	0.0162268	-1.08691	-0.247559	-0.353516	0.645243	0.407475	-0.580674	0.283625	9.55918	2.08611	0.462568	0.146013	0.00212071	-0.0494881	-0.985352	-0.442139	-0.227783	0.0736646	-0.602837	0.093577	0.788926	-9.44906	0.628731	2.59622	0.154503	0.0305177	0.0239159	0.818115	-0.161377	-0.609863	0.369235	0.472669	0.403134	-0.691182	-9.7453	-0.851865	4.50897	0.126583	0.0959906	-0.125168	0.869385	0.392578	-0.321289	0.0694254	0.162794	0.928784	0.325634	-0.311566	5.47922	-6.89184	-0.00369573	0.132232	0.0180595	-0.325928	-0.536377	0.842773	0.939326	-0.209676	-0.156913	-0.221544	4.49381	-3.84328	9.39601	-0.0619126	0.0662761	-0.0571123	-0.076416	0.473145	-0.942139	0.700203	0.18229	-0.675629	0.141463	9.93705	0.726745	0.080485	-0.192386	-0.00301812	0.0100775	-1.07227	-0.223389	-0.241455	-0.333363	0.247306	0.766547	0.490015	7.04618	5.36114	-2.64491	-0.0282388	-0.0130992	0.00478023	-0.984375	-0.332275	0.221436	0.286989	-0.298955	-0.639306	-0.647728	7.18849	6.4248	0.182927	-0.0761974	-0.00185664	-0.0116258	-1.09033	-0.343506	0.034668	
28	-0.253042	-0.117267	0.38183	0.881149	-0.355908	7.94955	7.25547	-0.0364478	0.0210026	-0.0287588	-0.24707	-0.597656	-0.821045	0.0975392	-0.0835598	-0.854197	-0.503837	2.33009	7.81259	-4.59985	0.0059748	-0.00927817	-0.00487573	-0.466797	-0.925293	0.364502	0.723939	0.0988836	-0.681879	0.0342769	9.79448	0.243432	0.631007	0.187155	0.00271694	-0.0296822	-1.08252	-0.25	-0.351074	0.644961	0.408872	-0.579683	0.284283	9.78325	2.28791	0.181127	0.134278	0.0335746	-0.0560222	-0.98291	-0.444336	-0.225342	0.0733897	-0.603546	0.0943927	0.788312	-8.97875	0.588245	2.38293	0.0400938	0.0889125	0.0372264	0.816406	-0.172363	-0.603027	0.368188	0.473997	0.406136	-0.68907	-9.34022	-1.1369	4.44391	-0.0486261	0.200756	-0.0518015	0.867188	0.392578	-0.312744	0.0683771	0.162494	0.929499	0.323963	-0.32206	5.38142	-7.06258	0.168993	0.0794123	-0.0335408	-0.330566	-0.531982	0.846924	0.939325	-0.209388	-0.15678	-0.221914	4.3374	-3.81376	9.4066	0.0178892	0.0391638	-0.0460252	-0.0742188	0.475342	-0.935303	0.700239	0.182303	-0.675669	0.141077	9.64928	-0.496317	-0.132564	-0.0210386	0.00188982	-0.0425337	-1.07251	-0.21875	-0.239258	-0.333886	0.246546	0.766272	0.490471	7.35729	5.3751	-3.21737	-0.0066025	0.0913062	-0.0295624	-0.986816	-0.330322	0.212158	0.287009	-0.298659	-0.639993	-0.647176	7.28112	6.0576	-0.0780516	0.0740956	-0.00383646	-0.0234819	-1.0835	-0.345703	0.0324707	
29	-0.253846	-0.117308	0.383082	0.880369	-0.433394	7.62916	7.16919	0.0904236	-0.0156592	0.0592268	-0.249023	-0.599854	-0.821045	0.0971885	-0.0845191	-0.854556	-0.503135	2.6211	8.51068	-4.51583	0.00752838	0.00435088	0.00135696	-0.467041	-0.920898	0.364258	0.724271	0.0989334	-0.681497	0.0347362	9.81527	0.661961	0.562334	-0.0729552	0.0487312	0.00912711	-1.07617	-0.25	-0.351074	0.645975	0.409282	-0.57889	0.283005	9.74999	1.25821	-0.011488	0.0627424	0.0241398	-0.0477851	-0.978027	-0.453125	-0.225342	0.0713882	-0.604903	0.0919768	0.787742	-9.61673	1.58154	2.78165	-0.243063	0.047776	-0.0289442	0.816162	-0.167969	-0.60083	0.371541	0.474386	0.412018	-0.683488	-9.72947	-0.930137	3.75839	-0.39196	0.15526	0.0611225	0.871338	0.396973	-0.302246	0.0665704	0.162747	0.930044	0.322646	0.0337305	6.4668	-7.021	0.0309274	0.0724481	0.0132223	-0.334961	-0.529785	0.840576	0.939985	-0.207553	-0.156915	-0.220742	4.13041	-3.42575	9.53125	0.0682274	0.03787	0.0362734	-0.076416	0.475342	-0.935303	0.699494	0.185847	-0.674988	0.14339	10.0698	1.12199	0.146249	0.132747	0.015161	-0.0450931	-1.06763	-0.223389	-0.236816	-0.335347	0.245262	0.767154	0.488736	6.96924	6.05712	-2.51999	0.120523	-0.027118	0.015948	-0.987061	-0.32373	0.218994	0.287248	-0.298367	-0.640344	-0.646859	7.39975	6.81783	-0.0646083	-0.0795506	0.0140361	0.00617764	-1.0835	-0.345703	0.0300293	
30	-0.253949	-0.11665	0.384127	0.879971	-0.270643	7.58562	7.10141	0.0230182	-0.0330407	0.00454949	-0.260254	-0.5979	-0.819092	0.0982785	-0.083804	-0.854816	-0.502601	2.57167	7.74175	-4.56013	0.0290322	0.0491833	-0.0271218	-0.462402	-0.923096	0.359619	0.724121	0.102371	-0.681024	0.0370846	9.77855	0.513093	0.61405	0.214406	0.0206839	-0.0113389	-1.08252	-0.25415	-0.353271	0.645017	0.41206	-0.577597	0.283799	9.47122	2.59081	-0.11118	0.0508944	-0.01817	-0.0615268	-0.976074	-0.450928	-0.227539	0.069802	-0.606571	0.0897498	0.786857	-9.05657	0.107448	2.36343	0.0781194	0.101888	-0.0411262	0.820312	-0.163574	-0.60083	0.37229	0.475806	0.410184	-0.683196	-9.87505	-0.691637	3.80031	0.192149	0.014542	0.0291824	0.875732	0.396973	-0.300049	0.0647866	0.161667	0.930741	0.321541	-0.300578	5.29479	-6.87053	0.112335	0.0676208	-0.0616315	-0.332764	-0.530029	0.846924	0.939748	-0.208727	-0.156425	-0.220991	4.20666	-3.48974	9.66809	-0.0322696	0.0160564	-0.0275764	-0.0742188	0.475342	-0.9375	0.699209	0.186203	-0.675006	0.144228	9.97914	0.116134	0.162928	0.122645	-0.0226734	0.00214469	-1.0769	-0.228027	-0.239014	-0.334352	0.245934	0.766967	0.489374	7.42433	5.56458	-2.88127	-0.0831276	-0.0570325	-0.00887848	-0.989258	-0.32373	0.214355	0.288101	-0.297519	-0.641442	-0.64578	7.38732	6.34123	0.031941	0.138846	0.0264994	-0.0146224	-1.08813	-0.343506	0.0324707	
31	-0.253898	-0.117402	0.384121	0.879889	-0.0229204	7.75915	7.24007	-0.0156983	0.0443624	-0.0159776	-0.253662	-0.595703	-0.819092	0.0973305	-0.0834856	-0.855186	-0.502209	2.04745	8.8314	-4.74921	-6.01671e-05	-0.0452092	-0.047959	-0.467041	-0.920898	0.359619	0.724418	0.101788	-0.680821	0.0366194	9.48889	1.0504	0.467146	-0.137277	-0.00424313	0.00221952	-1.08032	-0.25415	-0.353271	0.645223	0.412889	-0.577472	0.282377	9.57908	2.04681	-0.165308	0.00858792	-0.0134619	-0.0564446	-0.973389	-0.45752	-0.225342	0.0728268	-0.607421	0.0929144	0.785559	-9.53136	0.0910918	1.98126	0.118672	0.0400449	-0.0147929	0.82251	-0.161377	-0.596191	0.373559	0.477156	0.408168	-0.68277	-9.58057	-0.550717	3.81552	0.0587383	0.0748509	0.0673907	0.875977	0.388428	-0.29541	0.0617072	0.160247	0.931884	0.319538	-0.242777	6.54354	-7.54191	0.0628032	0.188222	-0.0274174	-0.341553	-0.527832	0.840576	0.939583	-0.209788	-0.156053	-0.220953	3.94647	-3.82886	9.2524	-0.0419382	0.0320365	0.00631496	-0.0698242	0.473145	-0.935303	0.698455	0.187335	-0.675279	0.14514	9.84803	1.35819	0.384859	-0.0179044	-0.0153976	-0.0448519	-1.07227	-0.225586	-0.236816	-0.334721	0.244959	0.766605	0.490178	7.44437	5.60763	-2.74636	0.00402725	-0.0308185	-0.0075578	-0.987061	-0.32373	0.218994	0.287751	-0.297823	-0.640715	-0.646518	7.45925	6.59625	0.0421544	-0.123864	0.00144505	0.000725104	-1.09033	-0.345703	0.027832	
32	-0.253475	-0.121008	0.384312	0.879438	-0.384452	8.30267	7.32679	0.0864079	0.136371	-0.0579544	-0.242188	-0.606445	-0.814453	0.0965116	-0.0836395	-0.855192	-0.502332	2.91311	7.93601	-4.35055	-0.00124311	0.0457655	-0.022805	-0.464844	-0.920898	0.359619	0.723365	0.0976488	-0.682697	0.0336432	10.1657	0.456585	0.570166	-0.213592	-0.0756474	0.0307964	-1.08691	-0.251953	-0.353271	0.645609	0.412702	-0.57779	0.281115	9.78019	2.09944	-0.140337	-0.087968	-0.0303707	-0.0532821	-0.980225	-0.453125	-0.227539	0.0724912	-0.609053	0.093369	0.784271	-9.82863	1.19621	2.63399	-0.155407	0.0631869	-0.00782949	0.824707	-0.161377	-0.589355	0.375001	0.477742	0.408087	-0.681617	-9.79755	-0.895419	3.99555	0.0299038	0.0411635	0.00621646	0.882568	0.38623	-0.297607	0.0582903	0.160097	0.93192	0.320151	0.436866	5.35117	-6.90345	0.100171	0.158247	0.000319471	-0.348145	-0.523438	0.844727	0.940068	-0.208388	-0.156304	-0.220036	4.30577	-3.70446	9.55994	0.16516	0.0113812	0.00607918	-0.0698242	0.468994	-0.9375	0.698664	0.188818	-0.674896	0.143985	10.01	0.043947	0.077559	0.101741	0.00445822	-0.0938038	-1.07446	-0.230225	-0.232422	-0.334812	0.245395	0.765577	0.491501	7.06744	5.59626	-2.83877	-0.0617086	0.0259909	-0.00055628	-0.989014	-0.328125	0.216797	0.287959	-0.297592	-0.64053	-0.646715	7.42086	6.46859	-0.0332267	0.0540748	0.0328525	-0.0125292	-1.09253	-0.3479	0.027832	
33	-0.254848	-0.123411	0.382928	0.879311	-0.611163	7.74129	7.47282	-0.0283956	0.0887999	0.00149975	-0.240234	-0.599854	-0.821045	0.0966462	-0.0834235	-0.85512	-0.502464	2.33959	8.37383	-4.56469	-0.0127542	0.0319107	-0.0307619	-0.466797	-0.925293	0.359863	0.7228	0.0927842	-0.684094	0.0310904	9.79907	0.333026	0.628995	-0.209879	-0.0584718	0.0640505	-1.08057	-0.239014	-0.346924	0.646746	0.411173	-0.579068	0.278097	9.73119	1.44837	0.323856	-0.0820108	-0.01907	-0.0395193	-0.973389	-0.45752	-0.225342	0.0704713	-0.611069	0.0902293	0.783254	-9.58349	0.143907	2.2319	-0.0619806	0.0971272	-0.0602873	0.82666	-0.154785	-0.589355	0.375371	0.478279	0.406871	-0.681764	-9.67703	-0.512733	3.81744	0.0974791	0.0142537	0.039222	0.878418	0.384033	-0.303955	0.0561056	0.159086	0.932874	0.318261	-0.139114	6.24703	-7.32174	0.0256011	0.0636182	-0.0260334	-0.348389	-0.519043	0.840332	0.940589	-0.207306	-0.15681	-0.218464	4.1632	-3.11973	9.51715	-0.0212727	0.0178527	0.0453696	-0.0720215	0.470947	-0.935059	0.698565	0.190062	-0.674945	0.14259	9.94132	0.914732	0.0561544	-0.067823	-0.00804992	-0.0793609	-1.06958	-0.232422	-0.234619	-0.334839	0.244866	0.766159	0.490839	7.32908	5.50995	-2.57894	0.105052	0.00816566	0.00492251	-0.989014	-0.330322	0.209961	0.288455	-0.296985	-0.640828	-0.646478	7.36501	6.72114	0.104339	-0.0257853	0.0252363	-0.00739886	-1.08813	-0.345703	0.0256348	
34	-0.254465	-0.123396	0.382204	0.879739	-0.549165	8.20512	7.38199	-0.0695963	-0.0437461	-0.0136194	-0.242432	-0.599854	-0.825439	0.0970201	-0.0826993	-0.854605	-0.503387	2.5642	8.0346	-4.57885	-0.0216696	0.0545935	-0.0452978	-0.4646	-0.925293	0.366943	0.723032	0.0946606	-0.683549	0.0320193	9.65733	0.894026	0.681459	0.138047	0.0172594	-0.0528229	-1.07837	-0.247803	-0.344482	0.647072	0.412641	-0.578195	0.276976	9.47281	2.18789	-0.0451713	0.0646445	-0.00379653	-0.0451263	-0.973145	-0.461914	-0.227295	0.0696663	-0.613047	0.0903847	0.781761	-9.49739	1.54666	2.55989	-0.0951539	0.134921	0.017708	0.829102	-0.15918	-0.584717	0.380913	0.478055	0.406893	-0.678828	-9.86391	-0.975316	3.7221	-0.0706595	-0.0271457	0.10639	0.882812	0.379639	-0.297363	0.054422	0.158096	0.933325	0.317724	0.0203576	5.59978	-7.09196	0.0990869	0.0637113	-0.0654453	-0.352539	-0.519043	0.840332	0.940359	-0.208684	-0.156704	-0.21822	4.1066	-3.58012	9.45561	-0.00937069	0.0101235	-0.0100227	-0.067627	0.473145	-0.932861	0.698766	0.190213	-0.674835	0.141927	9.8452	0.628892	0.19185	0.0142854	0.0103461	-0.0473408	-1.07666	-0.232422	-0.236816	-0.334996	0.244823	0.765944	0.49109	7.25031	5.74173	-2.997	-0.0604469	0.0546741	-0.0149744	-0.982666	-0.323486	0.209717	0.288544	-0.296758	-0.640922	-0.646449	7.30801	6.43494	-0.00745851	0.111353	0.0160944	-0.0161769	-1.08545	-0.352295	0.0302734	
35	-0.254197	-0.122875	0.380995	0.880414	-0.195202	7.76042	7.22365	-0.110075	-0.0353547	-0.0294832	-0.242676	-0.597656	-0.823242	0.0972603	-0.0821376	-0.854221	-0.504084	2.42149	8.75372	-4.55765	-0.0620859	0.0585528	-0.0516101	-0.460449	-0.920898	0.359619	0.722321	0.0936312	-0.684436	0.0321312	9.94539	0.606746	0.460543	-0.0580661	-0.0222755	0.0454323	-1.07837	-0.245605	-0.348877	0.64706	0.413132	-0.578035	0.276607	9.42559	2.04573	-0.0505037	0.0122608	-0.00969978	-0.0456013	-0.979736	-0.464111	-0.225098	0.0669293	-0.61442	0.0882441	0.781167	-9.34793	0.18221	2.06263	-0.135789	0.0647022	0.0196759	0.828857	-0.154785	-0.591553	0.381847	0.478651	0.405436	-0.678755	-9.26877	-0.429252	4.24104	0.0838784	-0.000946647	0.0896987	0.885254	0.375488	-0.297363	0.0539668	0.157644	0.933354	0.317941	-0.0810231	6.47654	-7.25101	0.0034862	0.0591138	-0.0422019	-0.350586	-0.514893	0.83374	0.940498	-0.208572	-0.156524	-0.217858	4.04199	-3.73566	9.33325	0.0160583	0.0286263	0.0143897	-0.0698242	0.473145	-0.928223	0.698481	0.192151	-0.674439	0.142599	9.96883	0.825683	0.0455635	0.0976711	0.00540864	-0.0485887	-1.07153	-0.241699	-0.234375	-0.335216	0.244311	0.765802	0.491416	7.21374	5.8132	-2.77216	-0.00658348	0.0557863	-0.0265608	-0.984619	-0.330078	0.207764	0.28858	-0.296664	-0.641134	-0.646265	7.40661	6.96252	0.118713	0.0263262	0.00567812	-0.00833421	-1.08374	-0.338867	0.0322266	
36	-0.253999	-0.123066	0.377619	0.881898	-0.518067	7.4673	7.13702	-0.147298	0.0327015	-0.0475657	-0.236084	-0.593262	-0.825439	0.0975326	-0.0815661	-0.852713	-0.506671	2.48828	7.65134	-4.46305	-0.109181	0.0569372	-0.0437625	-0.455811	-0.92749	0.355225	0.722856	0.0939631	-0.683844	0.031747	9.89884	0.745563	0.488597	-0.00401983	0.0611922	-0.0482107	-1.08057	-0.241211	-0.349121	0.647512	0.412813	-0.578241	0.275593	9.51007	2.15416	-0.510108	0.0229942	-0.00235999	-0.0181501	-0.96875	-0.463867	-0.225098	0.0669444	-0.615291	0.0888079	0.780416	-9.23966	1.1816	2.25995	0.0367645	0.105095	0.00387099	0.835449	-0.154785	-0.58252	0.386955	0.477407	0.405853	-0.676485	-9.41673	-0.457672	3.80666	-0.15904	-0.0545229	0.103977	0.885254	0.373291	-0.297119	0.0534356	0.157199	0.932346	0.321192	-0.037404	5.1398	-6.89953	-0.104019	0.0190225	-0.0210775	-0.352295	-0.525635	0.832031	0.941187	-0.206754	-0.155896	-0.217061	4.16838	-3.18463	9.70665	0.0812565	0.0580158	-0.00950459	-0.0654297	0.468994	-0.935059	0.698548	0.192011	-0.674411	0.14259	9.93995	1.274	0.264561	-0.00858559	0.014549	-0.0144091	-1.07422	-0.234863	-0.22998	-0.334632	0.244451	0.76601	0.49142	7.34892	5.20891	-2.63333	-0.0469916	0.00246841	-0.00440473	-0.984619	-0.330078	0.209961	0.288254	-0.296804	-0.64119	-0.646292	7.26238	5.9481	-0.0467423	0.064465	-0.00512406	-0.0205396	-1.09253	-0.3479	0.0302734	
37	-0.253334	-0.123909	0.375305	0.882958	-0.389161	7.52898	7.20454	-0.0617847	0.0331007	-0.0495759	-0.236084	-0.593018	-0.82959	0.0977003	-0.0808645	-0.852372	-0.507324	2.36635	8.28252	-4.34781	-0.0265845	0.0190661	-0.0359683	-0.4646	-0.925293	0.352783	0.723038	0.0979718	-0.683065	0.0322408	9.51287	0.767653	0.567134	0.143395	0.00264518	-0.0989632	-1.07837	-0.25	-0.351074	0.646125	0.414365	-0.578329	0.276332	9.37491	2.46974	-0.159674	0.0257972	-0.0491965	0.00106048	-0.975342	-0.466309	-0.2229	0.0671047	-0.615642	0.0893927	0.780058	-9.35281	0.223622	2.05991	0.110273	0.0203644	-0.00191844	0.831055	-0.155029	-0.575684	0.385962	0.479366	0.401628	-0.678186	-9.59147	0.920488	4.05562	0.207244	0.0243162	8.28288e-05	0.883301	0.368896	-0.299316	0.0546163	0.157095	0.931756	0.322753	-0.0466216	6.17236	-7.13789	-0.104589	-0.0466431	-0.0247245	-0.354248	-0.532227	0.832031	0.941125	-0.206591	-0.155253	-0.217945	4.01941	-3.71507	9.4969	-0.0172852	0.0585029	-0.0377074	-0.0720215	0.473145	-0.935303	0.698384	0.191016	-0.674922	0.142314	9.68241	0.0507842	-0.0459255	0.036289	-0.019836	-0.00743927	-1.06738	-0.230225	-0.232422	-0.335703	0.243376	0.7657	0.491707	6.87759	6.00078	-3.00482	0.0972192	0.0577422	-0.00949285	-0.991211	-0.328125	0.212158	0.288292	-0.29618	-0.642109	-0.645648	7.30612	6.99409	-0.262496	-0.0278506	0.0108786	-0.0158847	-1.0835	-0.3479	0.0302734	
38	-0.253817	-0.125128	0.373089	0.883586	-0.570379	7.00787	7.1603	-0.0508416	0.0747094	-0.0192621	-0.227539	-0.588623	-0.833984	0.0978158	-0.0787698	-0.852384	-0.50761	2.35958	8.38867	-4.17347	-0.00323821	0.0532366	-0.0804757	-0.455566	-0.931885	0.355225	0.723184	0.095769	-0.683332	0.0298257	9.54628	0.657954	0.363763	-0.181556	-0.0446722	0.0118658	-1.07812	-0.252197	-0.348877	0.645179	0.416886	-0.577945	0.275553	9.64196	1.72423	0.0141288	0.131744	-0.0438216	-0.0920496	-0.970459	-0.4729	-0.218262	0.0668429	-0.615703	0.087363	0.780263	-9.30805	0.746978	2.22634	-0.174218	0.00337332	-0.0753908	0.837402	-0.150391	-0.589355	0.38842	0.477143	0.404001	-0.67694	-9.55934	-0.868963	4.20998	-0.0637213	0.0124081	-0.0656211	0.889648	0.373291	-0.299316	0.0568466	0.156934	0.930815	0.325152	-0.122403	5.98344	-6.72821	-0.0792291	-0.0774278	-0.0494318	-0.349609	-0.536377	0.834229	0.941287	-0.206362	-0.155052	-0.217607	4.2969	-3.59861	9.30666	0.0360298	0.0226967	0.00881759	-0.0695801	0.466797	-0.939697	0.697758	0.193178	-0.67453	0.144309	9.77227	1.10763	0.433156	0.0778155	-0.00227621	-0.0305289	-1.08105	-0.237305	-0.22998	-0.334809	0.243996	0.765318	0.492603	7.53243	5.53062	-2.91429	-0.120712	0.00783051	-0.00581456	-0.984375	-0.332275	0.207764	0.288385	-0.29626	-0.641266	-0.646407	7.42077	6.13083	0.0545583	-0.00774208	0.0257783	0.00160137	-1.08569	-0.350098	0.027832	
39	-0.254428	-0.128083	0.371475	0.883667	-0.787049	7.28829	7.53717	-0.0505547	0.135694	-0.0424336	-0.225342	-0.588623	-0.833984	0.0976288	-0.0779384	-0.852009	-0.508403	2.23109	8.392	-4.68811	-0.0302827	-0.0110574	-0.060974	-0.458008	-0.92749	0.352783	0.72252	0.0916653	-0.684633	0.0289721	9.95057	0.380286	0.311893	-0.111883	-0.0249335	0.0984652	-1.08057	-0.241211	-0.342285	0.646842	0.416184	-0.578468	0.271589	9.84677	1.69669	0.094105	-0.165566	-0.0189873	-0.102801	-0.968262	-0.475098	-0.216064	0.0667688	-0.615474	0.0834301	0.780879	-9.44433	0.345549	2.30854	-0.109417	-0.000565774	-0.11692	0.834961	-0.145996	-0.589355	0.385696	0.478331	0.401924	-0.678893	-9.58929	-0.232341	4.00374	0.121811	0.0396456	-0.0550537	0.880859	0.375488	-0.301514	0.0599638	0.158215	0.929774	0.326945	-0.22232	6.0384	-7.44536	-0.0997962	-0.114071	0.00449209	-0.34082	-0.540771	0.830322	0.94143	-0.206251	-0.155607	-0.216694	4.33112	-3.49917	9.59603	0.0258558	-0.0258808	0.00793082	-0.0673828	0.4646	-0.9375	0.698285	0.192658	-0.674558	0.142313	9.84257	0.504852	-0.344429	-0.0379935	0.0204539	-0.0534809	-1.07397	-0.239502	-0.232178	-0.334853	0.244276	0.764722	0.493358	7.09427	5.65348	-2.42714	0.0015961	-0.00591409	0.0110264	-0.982422	-0.327881	0.209961	0.288884	-0.296081	-0.641045	-0.646486	7.32636	6.70902	-0.077218	-0.0794026	0.0252076	0.00910849	-1.08813	-0.343506	0.0300293	
40	-0.251822	-0.13187	0.370914	0.884092	-0.944728	8.15953	7.73444	0.038363	0.0718049	-0.17655	-0.211914	-0.592773	-0.838135	0.0968427	-0.0766038	-0.852327	-0.508225	2.53552	8.26118	-4.65795	0.0171891	0.0264096	-0.0696001	-0.453369	-0.934082	0.348389	0.722649	0.0884815	-0.684965	0.0277875	10.0537	0.546086	0.494305	-0.138909	0.0099043	0.0276041	-1.08276	-0.234619	-0.349365	0.646243	0.419923	-0.576224	0.272032	9.87361	2.24353	-0.124166	0.166341	0.0224014	-0.0832137	-0.963623	-0.474854	-0.220459	0.0681377	-0.615977	0.0822639	0.780489	-9.875	-0.203811	2.16119	0.0182681	0.0234415	-0.062317	0.837158	-0.143799	-0.58252	0.386136	0.478466	0.403496	-0.677613	-9.58618	-0.933151	3.94681	0.00097687	0.131206	-0.0504252	0.887451	0.375488	-0.297363	0.0629183	0.158437	0.929136	0.328094	-0.0792638	5.89135	-7.17618	-0.0188225	-0.0526211	-0.0570928	-0.338623	-0.540771	0.832275	0.941339	-0.206647	-0.156297	-0.216214	4.02932	-3.49802	9.61232	-0.0474936	-0.0267523	0.00469061	-0.0739746	0.466797	-0.9375	0.698645	0.193499	-0.674155	0.141312	9.92673	0.572472	0.259191	0.00610906	0.017026	-0.073487	-1.07642	-0.237061	-0.234619	-0.335139	0.244296	0.764128	0.494075	7.53014	5.37792	-3.14486	-0.00314789	0.0693559	-0.00409193	-0.984619	-0.327881	0.212158	0.289009	-0.295737	-0.640653	-0.646976	7.43129	6.28486	0.031944	-0.0158083	0.0265822	-0.00946077	-1.09009	-0.350098	0.027832	
41	-0.249677	-0.132942	0.370241	0.884822	-0.78059	7.75058	7.68453	0.00858039	-0.0235333	-0.0684545	-0.212158	-0.588379	-0.835938	0.0964787	-0.0764238	-0.852642	-0.507793	2.27976	8.34633	-4.49189	0.0377035	-0.00951002	-0.0459315	-0.455566	-0.936279	0.360107	0.723663	0.0855549	-0.684377	0.0249176	9.85797	0.623362	0.699784	-0.159843	0.0399902	0.00755704	-1.07861	-0.234863	-0.35376	0.646264	0.420644	-0.575643	0.272097	9.78114	2.35981	0.0389062	0.0525803	0.0230058	-0.0489093	-0.96582	-0.477295	-0.213867	0.0688259	-0.617027	0.0827373	0.779548	-9.53144	1.17783	2.37143	-0.0401726	0.0633761	-0.0456352	0.839355	-0.143799	-0.577881	0.386222	0.479333	0.40465	-0.676262	-9.66015	-0.40841	3.57898	-0.0532532	0.170209	-0.00842071	0.887207	0.375488	-0.299561	0.0636643	0.158201	0.928814	0.328973	-0.297943	6.22255	-7.14455	-0.0691978	-0.0284675	-0.0490429	-0.332031	-0.542969	0.83667	0.941325	-0.207099	-0.156444	-0.215735	4.02867	-3.59156	9.60295	-0.0220388	-0.00884763	0.0226141	-0.0742188	0.473145	-0.932861	0.698687	0.194656	-0.67379	0.141256	9.88239	1.00333	-0.0697736	0.025961	0.014032	-0.0512534	-1.06689	-0.243896	-0.227783	-0.336437	0.243481	0.764806	0.492543	7.41106	6.37503	-2.50192	0.168471	0.0765646	0.0314872	-0.993408	-0.328125	0.20752	0.288946	-0.295962	-0.640051	-0.647496	7.46649	6.95705	0.215156	-0.0614691	0.0198166	0.00541084	-1.08813	-0.345703	0.0324707	
42	-0.249671	-0.132824	0.370625	0.884681	-0.802569	8.21529	7.68093	0.0315881	-0.0228502	0.0105274	-0.21875	-0.588623	-0.836182	0.0962243	-0.0759084	-0.852755	-0.507728	2.59842	8.64201	-4.31144	-0.0415475	0.0379091	-0.027105	-0.449219	-0.931885	0.353027	0.723897	0.0874165	-0.683868	0.0256249	9.62486	0.869738	0.783292	0.0971104	0.00315101	-0.0394964	-1.08276	-0.236816	-0.35376	0.647105	0.42039	-0.575004	0.27184	9.49357	2.30225	-0.172896	0.026288	0.0487193	-0.00768203	-0.96582	-0.479248	-0.220459	0.0666724	-0.618038	0.0787773	0.779345	-9.23156	-0.109802	1.93538	-0.126049	0.0506414	-0.0214889	0.836914	-0.141602	-0.577881	0.389618	0.478763	0.407238	-0.673157	-10.1296	-1.50521	3.43383	-0.06148	0.0391723	0.0497072	0.887207	0.377686	-0.286621	0.0668362	0.159277	0.927397	0.331812	0.116266	5.95424	-6.87435	-0.144848	-0.106863	0.0123342	-0.332031	-0.547119	0.830322	0.941626	-0.206251	-0.156471	-0.215215	4.2767	-3.33178	9.41801	0.0803108	0.0258994	0.0170381	-0.0678711	0.473389	-0.942139	0.698852	0.1945	-0.673677	0.14119	9.54376	1.23255	0.100541	-0.0122259	0.0244825	-0.0195906	-1.07373	-0.243896	-0.236572	-0.335939	0.244888	0.763267	0.494569	7.07538	5.51444	-2.6012	-0.201716	-0.00657706	0.00809078	-0.991455	-0.325928	0.20752	0.288356	-0.296995	-0.638845	-0.648477	7.32614	6.10774	0.0214775	0.00901715	-0.00823842	0.0025268	-1.08569	-0.345703	0.027832	
43	-0.249377	-0.13086	0.369885	0.885365	-0.694622	7.62088	7.32755	-0.0538204	-0.0960542	-0.0112826	-0.220947	-0.586426	-0.838379	0.0964768	-0.0757913	-0.851906	-0.509122	2.57274	8.16902	-4.45504	-0.0639559	0.0170294	-0.0321999	-0.451172	-0.936279	0.353027	0.723739	0.0879423	-0.683948	0.0261305	9.77944	0.763902	0.642106	0.0595453	-0.00907152	-0.00157865	-1.08276	-0.234619	-0.346924	0.647556	0.420899	-0.574093	0.271906	9.43649	2.42681	-0.220179	-0.0120397	0.0245885	-0.0321729	-0.961182	-0.483643	-0.218262	0.0680327	-0.618877	0.0808676	0.778347	-9.1118	0.106981	2.28915	0.197666	0.110126	-0.0072563	0.836914	-0.139404	-0.577881	0.389008	0.480889	0.401334	-0.675537	-9.56875	0.377469	3.75471	0.161061	-0.0674151	0.0770052	0.889893	0.366699	-0.30127	0.0700372	0.160724	0.925723	0.33511	-0.0781206	6.23022	-6.8386	-0.140616	-0.110496	0.00264058	-0.320801	-0.555908	0.826416	0.941781	-0.205251	-0.156175	-0.215706	4.01463	-3.29055	9.77745	-0.000788907	0.0237409	-0.0046945	-0.0695801	0.466797	-0.939697	0.698967	0.195021	-0.673387	0.141289	9.81244	0.450171	0.267878	0.102637	0.000162915	-0.0262506	-1.07373	-0.243896	-0.234375	-0.336021	0.244462	0.762528	0.495863	7.23455	5.342	-2.9311	0.0490435	0.0554735	-0.010563	-0.986816	-0.330322	0.200928	0.288348	-0.297053	-0.638765	-0.648532	7.31384	6.7068	-0.0170186	-0.0828778	0.00886063	0.0042633	-1.09692	-0.3479	0.0302734	
44	-0.249923	-0.128614	0.367992	0.886329	-0.20485	7.22141	7.22378	-0.134181	-0.042388	0.0498929	-0.225586	-0.584229	-0.836182	0.0961658	-0.0750188	-0.851524	-0.509933	2.20231	8.25994	-4.40712	-0.0138296	-0.00679673	-0.0545971	-0.455566	-0.934082	0.348389	0.72412	0.0866178	-0.6838	0.0237837	9.86262	0.689904	0.479451	-0.165129	0.0270036	-0.0505946	-1.08057	-0.241211	-0.35376	0.647163	0.421579	-0.573665	0.272688	9.76978	2.18968	0.114808	0.0528328	0.0157737	0.0188206	-0.95874	-0.488037	-0.21582	0.0699514	-0.61914	0.0845487	0.777576	-9.27893	0.494944	2.16831	0.137847	0.0231497	0.0366447	0.835205	-0.148438	-0.573486	0.392831	0.479886	0.401099	-0.674176	-9.34133	-0.456818	3.60764	-0.0580544	-0.00804302	0.0702039	0.887695	0.368896	-0.297119	0.0701594	0.160443	0.924464	0.338676	-0.24857	6.13305	-6.85742	-0.161266	0.0499738	-0.0150071	-0.333496	-0.562256	0.822266	0.942007	-0.204838	-0.155454	-0.215635	4.0327	-3.59469	9.5828	0.0188235	0.0454775	-0.0265773	-0.0654297	0.468994	-0.9375	0.697861	0.197393	-0.6734	0.143382	10.0247	1.0695	0.300537	0.0460193	-0.000501829	-0.00733217	-1.07153	-0.246338	-0.225342	-0.33592	0.244891	0.763004	0.494986	7.35976	5.67445	-2.32124	0.00116113	-0.0282273	0.0170147	-0.984619	-0.330078	0.212158	0.288612	-0.297083	-0.638177	-0.64898	7.40765	6.32443	0.124312	0.0211862	0.0317677	0.00039709	-1.08325	-0.350098	0.0256348	
45	-0.250812	-0.129732	0.368274	0.885797	-0.530254	7.38081	7.32375	0.079858	0.0720151	0.025668	-0.216553	-0.588379	-0.840332	0.0963616	-0.0745039	-0.851935	-0.509284	2.72037	8.17556	-4.29599	0.022177	0.0609243	-0.0180652	-0.451172	-0.936279	0.345947	0.725166	0.0862402	-0.682767	0.0229336	9.65744	0.422526	0.826569	0.0455819	0.0630444	-0.0142816	-1.08057	-0.239014	-0.349121	0.647164	0.421377	-0.573658	0.273015	9.42986	2.33541	0.136583	0.00479889	0.0103256	0.0133612	-0.960938	-0.488037	-0.220215	0.0657961	-0.619801	0.0809739	0.777792	-9.71009	0.332591	2.15733	-0.308696	-0.0125909	0.0189909	0.843506	-0.139404	-0.575684	0.395285	0.478605	0.401749	-0.673265	-9.33651	0.000965014	3.93838	-0.0978351	0.000652019	-0.0078132	0.894043	0.366699	-0.297119	0.0727762	0.160818	0.92356	0.340408	-0.00625491	5.88798	-6.75303	-0.0841926	-0.0879012	-0.0214093	-0.326904	-0.564453	0.824463	0.94169	-0.205887	-0.155078	-0.21629	4.05186	-3.44229	9.7092	-0.0854865	0.0242127	-0.037201	-0.0698242	0.470947	-0.9375	0.698032	0.195787	-0.673917	0.142321	9.804	0.595223	0.0491977	-0.0458294	0.00263756	0.00553124	-1.07373	-0.246338	-0.232178	-0.335284	0.245051	0.762663	0.495862	7.24581	5.44138	-2.46845	0.0075372	0.00612364	-0.0195057	-0.98877	-0.33252	0.209961	0.28867	-0.296698	-0.638264	-0.649045	7.52823	6.51638	0.172194	-0.0227059	0.0191615	-0.0205587	-1.08813	-0.345703	0.0231934	
46	-0.25242	-0.130516	0.368819	0.884998	-0.797008	7.03936	7.42323	0.0442632	0.0204223	0.0450969	-0.223145	-0.586426	-0.838379	0.0959979	-0.0750786	-0.852418	-0.50846	2.37871	8.41818	-4.50521	0.050419	-0.0640711	-0.0122953	-0.457764	-0.931885	0.357666	0.726192	0.0893268	-0.681259	0.023485	9.79681	0.670807	0.777737	0.127461	0.0924689	-0.105351	-1.07837	-0.247803	-0.36499	0.646612	0.421864	-0.573472	0.273959	9.4687	2.61665	0.0384424	0.0784744	0.0139628	0.00878482	-0.963379	-0.481445	-0.222656	0.0651882	-0.619434	0.0822482	0.778002	-9.26543	0.706574	2.16767	0.165327	0.018514	0.0372259	0.836914	-0.139648	-0.575684	0.396105	0.47754	0.402807	-0.672907	-9.93719	-0.373413	3.68817	-0.0236834	0.00276144	-0.0606245	0.889648	0.368896	-0.292725	0.0761926	0.161439	0.922806	0.341412	-0.339373	6.38217	-6.93569	-0.0936764	-0.138417	-0.0104284	-0.320312	-0.56665	0.828613	0.941475	-0.206256	-0.155032	-0.216906	3.93221	-3.5535	9.50512	-0.0207171	0.0194677	-0.0466251	-0.0656738	0.473145	-0.935303	0.698033	0.19478	-0.674266	0.142046	9.80986	1.07374	0.203147	-0.0408131	0.000392681	0.0140524	-1.07422	-0.237061	-0.22998	-0.336218	0.24432	0.762543	0.495776	7.32473	6.00084	-2.79514	0.0259566	0.0712409	0.0206519	-0.989014	-0.33252	0.198486	0.288375	-0.296597	-0.638153	-0.649331	7.21483	6.75672	0.168927	0.0113362	0.000706008	-0.0195777	-1.08594	-0.343506	0.0209961	
47	-0.25218	-0.131495	0.370772	0.884105	-0.646272	8.06949	7.57672	0.056473	0.0130785	-0.000326108	-0.220703	-0.59082	-0.833984	0.0960518	-0.0748669	-0.852298	-0.508682	2.25585	8.4158	-4.37134	-0.0343759	0.0392476	-0.0333276	-0.453369	-0.936279	0.35083	0.726601	0.0932421	-0.680245	0.0249686	9.70884	0.887658	0.546913	0.116499	0.00923301	-0.0582136	-1.07837	-0.25	-0.353516	0.646165	0.423046	-0.57253	0.275157	9.64609	2.06583	0.096155	0.0463276	0.0268713	-0.00653329	-0.961182	-0.481445	-0.218262	0.0690234	-0.617797	0.0869007	0.778467	-9.38412	0.244007	1.90503	0.280378	-0.0400332	-0.0175385	0.841797	-0.150635	-0.573486	0.391588	0.480312	0.395075	-0.678141	-9.86248	-0.794513	4.09072	0.439458	-0.0566417	-0.0311308	0.887939	0.360107	-0.30542	0.0785476	0.162247	0.921578	0.343803	-0.20398	6.44917	-6.58675	-0.0623184	-0.0390198	-0.0327669	-0.313721	-0.56665	0.82666	0.941998	-0.203767	-0.154834	-0.217129	4.23558	-3.68661	9.36941	0.0963647	0.0442212	-0.0141768	-0.0698242	0.46875	-0.935059	0.697922	0.193642	-0.674859	0.141327	9.84661	0.292668	0.106247	-0.0388618	-0.0137749	-0.0207787	-1.07178	-0.234863	-0.22998	-0.335505	0.245232	0.761993	0.496653	7.07094	5.6355	-2.65576	-0.120885	-0.0221073	-0.010499	-0.989014	-0.330322	0.203125	0.287934	-0.29693	-0.637309	-0.650203	7.46193	6.34959	-0.0851144	-0.0116792	0.0225071	-0.00846406	-1.09229	-0.350098	0.027832	
48	-0.251378	-0.132653	0.370693	0.884194	-0.711092	7.77181	7.36878	0.0205551	0.0283707	-0.0577456	-0.218506	-0.592773	-0.838135	0.0956877	-0.0746278	-0.852186	-0.508973	2.26937	8.55196	-4.34488	-0.0289386	-0.000139013	-0.0530276	-0.453125	-0.940674	0.35083	0.726723	0.0928589	-0.680162	0.0250891	9.94224	0.583953	0.484859	-0.0317278	0.0151057	0.0454356	-1.08057	-0.25	-0.360352	0.646257	0.42338	-0.572117	0.275287	9.67278	1.63601	0.0627576	0.029457	0.0282122	-0.023466	-0.967773	-0.483887	-0.216064	0.0747433	-0.617624	0.0921731	0.777469	-9.78776	0.728132	2.33943	0.210288	-0.0191362	-0.0698283	0.835449	-0.159424	-0.571045	0.391727	0.480322	0.392459	-0.679571	-9.60872	0.538878	4.2873	0.215721	-0.1022	0.0236456	0.890137	0.355957	-0.30957	0.0802118	0.16282	0.921008	0.344673	-0.099551	6.29587	-6.65309	0.00366864	-0.0408489	-0.00220593	-0.311279	-0.575195	0.813965	0.941848	-0.204656	-0.15479	-0.216977	4.30175	-3.59529	9.44074	-0.00886507	-0.0118469	-0.0143994	-0.0610352	0.468994	-0.9375	0.697733	0.194124	-0.674931	0.141251	10.1001	0.580842	-0.01737	-0.00679588	0.00240911	-0.0477426	-1.07373	-0.246094	-0.234375	-0.334888	0.245428	0.761594	0.497584	7.26616	5.15022	-2.69722	-0.0889906	-0.00398269	-0.0273776	-0.984375	-0.332275	0.200928	0.288096	-0.296555	-0.63748	-0.650134	7.25926	6.35792	0.136462	0.0280275	0.0312277	-0.0183588	-1.09473	-0.345703	0.0209961	
49	-0.251834	-0.133664	0.370008	0.884199	-0.842038	7.65432	7.43186	-0.0155658	0.0458806	-0.0026057	-0.211914	-0.592773	-0.835938	0.0954952	-0.0736942	-0.851963	-0.509519	2.11984	8.22871	-4.59567	-0.00929153	0.0231158	-0.0588455	-0.446533	-0.942871	0.34375	0.726223	0.0923192	-0.680793	0.0244548	9.6652	0.638208	0.453466	-0.0336966	-0.0742791	-0.0259329	-1.07837	-0.243408	-0.360352	0.646692	0.424213	-0.571072	0.275155	9.84001	2.03404	-0.517747	0.0304821	0.0208204	-0.0263492	-0.960693	-0.492432	-0.213623	0.0735189	-0.617596	0.0909008	0.777758	-9.39978	0.24985	2.11518	-0.0630396	0.0235069	-0.0155785	0.837646	-0.155029	-0.575684	0.393462	0.479762	0.393144	-0.678567	-9.33956	-0.48574	3.87106	0.0151356	0.079225	-0.0243527	0.890137	0.358154	-0.30957	0.0799378	0.162589	0.921512	0.343497	-0.457515	6.2719	-7.09863	0.118886	0.0262185	-0.0439761	-0.315918	-0.56665	0.820312	0.941558	-0.20581	-0.155012	-0.216983	4.07132	-3.69208	9.63507	-0.0475465	-0.0248716	-0.00782042	-0.0695801	0.46875	-0.932861	0.697162	0.195053	-0.675249	0.141275	9.61082	0.411165	0.192911	0.0563615	-0.0395886	-0.0638524	-1.07617	-0.243896	-0.227783	-0.335835	0.244749	0.761725	0.497079	7.4469	5.84722	-2.58715	0.082346	0.0623759	0.0137768	-0.989014	-0.328125	0.20752	0.287314	-0.296787	-0.636897	-0.650946	7.39294	6.54003	0.282233	-0.0769429	-0.0104424	-0.0223048	-1.08325	-0.350098	0.0234375	
50	-0.253216	-0.135493	0.373323	0.88213	-0.956386	8.29383	7.62292	0.166658	0.0613354	0.074289	-0.218262	-0.599365	-0.82959	0.0951541	-0.0737636	-0.853171	-0.507547	2.67578	8.69296	-4.49867	0.0918649	0.00399091	-0.0106236	-0.449219	-0.931885	0.353027	0.726607	0.0883689	-0.681008	0.0214658	9.93385	0.806118	0.493091	-0.198148	0.0552333	0.0231597	-1.07642	-0.241211	-0.36499	0.647174	0.423324	-0.571786	0.273905	9.86969	1.77442	0.0522463	-0.110191	-0.0195089	-0.0132247	-0.95874	-0.483643	-0.218262	0.0728839	-0.616785	0.0888465	0.778698	-9.75615	0.0804456	1.70248	-0.0798231	-0.0347417	-0.0145059	0.837402	-0.150635	-0.575684	0.39381	0.479387	0.396173	-0.676867	-10.2298	-0.0525806	3.54677	-0.212527	0.0941389	-0.066138	0.89209	0.364502	-0.303467	0.0796355	0.162799	0.922598	0.34054	0.0567156	6.57591	-6.56678	0.142798	0.0320727	-0.00987523	-0.307617	-0.562256	0.824463	0.941193	-0.207165	-0.156441	-0.216251	4.2572	-3.563	9.31654	-0.0699728	-0.129731	0.0257705	-0.076416	0.473145	-0.935303	0.696323	0.197877	-0.674796	0.14363	9.98551	1.66239	0.0521192	0.108765	0.0118563	0.0109441	-1.07617	-0.246338	-0.21875	-0.336859	0.244934	0.76084	0.49765	6.96219	6.30835	-2.79535	-0.0814602	0.0363211	0.0338114	-0.989014	-0.328125	0.198486	0.286977	-0.297059	-0.636448	-0.651409	7.40434	7.06138	-0.149069	-0.0123043	0.012305	-0.00111489	-1.08594	-0.343506	0.0231934	
51	-0.253979	-0.134914	0.374213	0.881622	-0.99038	8.05	7.3688	-0.000211031	-0.0431727	0.0309703	-0.213867	-0.597168	-0.827393	0.0966088	-0.0733312	-0.852958	-0.507693	2.17663	8.3305	-4.42692	-0.0334821	0.0562498	-0.004023	-0.453369	-0.931885	0.353027	0.726888	0.0939549	-0.679905	0.0231221	9.29381	1.0758	0.848664	0.347262	0.0299032	-0.157047	-1.07617	-0.254395	-0.35791	0.647343	0.421465	-0.572735	0.274389	9.41772	2.93228	-0.251516	-0.00966426	0.0200621	0.101564	-0.967773	-0.483643	-0.227051	0.0752849	-0.616088	0.0929028	0.778548	-9.4907	1.3396	2.30032	0.160444	-0.00471648	0.0132843	0.839844	-0.157227	-0.573486	0.393039	0.479642	0.396464	-0.676964	-9.94035	0.0551621	3.53779	0.0960208	0.0447205	-0.0442486	0.889893	0.366699	-0.30127	0.0759533	0.162086	0.92402	0.337854	-0.203431	6.10095	-6.60237	0.0357251	0.073135	0.0495355	-0.318604	-0.557861	0.828613	0.940755	-0.20864	-0.155127	-0.217682	3.71904	-3.74649	9.64095	-0.101171	0.0589846	-0.0600589	-0.0742188	0.475342	-0.930664	0.696757	0.196233	-0.675041	0.142625	9.80693	1.6813	0.215026	-0.153779	0.0216462	0.0108844	-1.07617	-0.246338	-0.22998	-0.335533	0.245902	0.760168	0.499093	7.16643	5.36026	-2.52685	0.0637572	0.017815	-0.00267719	-0.986816	-0.330322	0.203125	0.287287	-0.297565	-0.635234	-0.652226	7.12838	6.24206	0.169705	0.0256494	0.0289814	0.0167942	-1.09229	-0.352295	0.0212402	
52	-0.254181	-0.133856	0.373534	0.882013	-0.73629	8.17435	7.41872	-0.082468	-0.0657674	0.0320053	-0.216309	-0.594971	-0.83374	0.0978608	-0.073	-0.852136	-0.508879	2.32871	8.3155	-4.45782	-0.0698989	0.0856202	-0.0119564	-0.451172	-0.934082	0.350586	0.726831	0.0964529	-0.679601	0.0235736	9.54324	1.36826	0.795768	0.171052	0.0155901	-0.11455	-1.07397	-0.256592	-0.360107	0.647404	0.419158	-0.573949	0.27524	9.23629	2.43073	-0.045291	-0.0776787	0.00600243	0.079446	-0.96582	-0.474854	-0.218262	0.0745068	-0.615385	0.0925983	0.779215	-9.36433	0.662517	2.06697	-0.0578972	-0.0683233	0.0305637	0.837891	-0.161621	-0.577881	0.395676	0.477277	0.397532	-0.676473	-9.53443	-0.737936	3.59578	-0.0496645	-0.0613513	-0.0191799	0.887451	0.373291	-0.301514	0.074069	0.162236	0.924493	0.336907	-0.230215	6.29864	-6.73754	0.122719	0.137369	0.0295159	-0.322754	-0.557861	0.824219	0.940811	-0.208001	-0.154968	-0.218162	3.8235	-3.87375	9.4908	0.0446478	0.0500369	-0.0565805	-0.0700684	0.475342	-0.9375	0.697646	0.19465	-0.674668	0.142215	9.78214	0.421016	0.066466	-0.0589922	0.0441865	0.0130146	-1.07178	-0.239258	-0.22998	-0.335946	0.245233	0.761092	0.497735	7.403	5.89781	-2.52426	0.14645	0.0133283	-0.00368785	-0.986572	-0.33252	0.198486	0.287604	-0.297613	-0.635233	-0.652066	7.37133	6.50812	0.340436	-0.0373526	0.00407453	0.00592624	-1.09033	-0.345703	0.0163574	
53	-0.254277	-0.131868	0.371321	0.883219	-0.497327	6.82206	7.20275	-0.0725227	-0.0517678	-0.00914528	-0.220947	-0.588623	-0.833984	0.0978803	-0.0728909	-0.851439	-0.510057	2.68649	8.24014	-4.35993	-0.047813	0.0208519	-0.0295502	-0.446533	-0.940674	0.35083	0.726624	0.0968644	-0.679825	0.0217437	9.75436	0.477122	0.610129	-0.050223	-0.0440911	-0.0656919	-1.07153	-0.265137	-0.359863	0.647269	0.417673	-0.574858	0.275918	9.77406	1.9549	0.0494055	-0.0321907	0.00624078	0.0659545	-0.96582	-0.477051	-0.224854	0.0731498	-0.614681	0.0917957	0.779993	-9.47538	0.704266	2.47732	-0.0403191	-0.0619659	0.0223979	0.837646	-0.154785	-0.58252	0.396623	0.475169	0.396139	-0.678217	-9.41936	0.238879	4.07165	-0.0344342	-0.08696	-0.0566858	0.887695	0.366699	-0.307861	0.0699463	0.162197	0.92517	0.335947	0.32794	5.8632	-6.78792	0.0649955	0.158024	0.0374037	-0.32959	-0.553711	0.824219	0.941036	-0.206773	-0.154687	-0.218561	4.20602	-3.56625	9.4665	0.00231432	0.0169496	-0.0356915	-0.0695801	0.466797	-0.9375	0.697996	0.193457	-0.674666	0.142133	9.82957	0.587178	0.28333	-0.114444	0.0138883	-0.00176406	-1.07422	-0.237061	-0.22998	-0.335352	0.245988	0.760598	0.498517	7.23091	5.57159	-2.36128	-0.120423	-0.0210969	0.0115573	-0.984375	-0.334473	0.203125	0.287486	-0.297908	-0.634836	-0.652369	7.46454	6.27071	0.0413635	-0.0182134	0.00582661	-0.00422839	-1.08789	-0.350098	0.0119629	
54	-0.254505	-0.131296	0.371248	0.883269	-0.324514	7.17841	7.37267	-0.00625689	-0.0142134	0.0362804	-0.2229	-0.59082	-0.836182	0.0988207	-0.0724465	-0.851791	-0.50935	2.31357	8.33501	-4.29684	0.0626774	0.0332594	-0.00282624	-0.455322	-0.938477	0.346191	0.726118	0.0938784	-0.68085	0.0195582	10.0704	0.611309	0.785868	-0.191709	-0.034679	0.0471326	-1.07837	-0.252197	-0.35791	0.647645	0.415379	-0.576388	0.275305	9.89457	1.40943	0.261715	-0.0965432	-0.0130494	0.0590331	-0.966553	-0.463867	-0.2229	0.0733331	-0.612713	0.0915148	0.781556	-9.17981	0.181951	2.30707	0.0542741	-0.0781615	-0.0311607	0.831299	-0.161377	-0.587158	0.397041	0.472264	0.396739	-0.679649	-9.55895	-0.590134	4.02328	0.0210442	-0.0412536	-0.131447	0.885498	0.368896	-0.310059	0.0652247	0.161343	0.926762	0.332905	-0.356223	6.12332	-7.1394	0.218935	0.141689	-0.0275946	-0.332031	-0.544922	0.830322	0.940792	-0.208476	-0.15506	-0.217727	4.05292	-3.76063	9.72774	-0.108576	-0.0414644	0.0369759	-0.0698242	0.470947	-0.93042	0.698125	0.193132	-0.674805	0.141281	10.1207	0.348909	0.0929028	0.0227037	-0.000586568	-0.0459176	-1.07397	-0.239502	-0.232178	-0.334972	0.246515	0.759224	0.500603	7.5416	5.47876	-2.53964	-0.0165089	0.0545626	0.00498906	-0.986816	-0.328125	0.200684	0.286877	-0.298068	-0.634368	-0.65302	7.54466	6.3405	0.181876	-0.0395032	-0.00247495	-0.0203992	-1.09033	-0.3479	0.0209961	
55	-0.255053	-0.133214	0.3741	0.881619	-0.875015	7.96384	7.421	0.183535	0.0645348	0.0165255	-0.218506	-0.593018	-0.82959	0.0998678	-0.0725175	-0.852749	-0.507529	2.4987	8.33258	-4.56289	0.0746293	0.0571629	0.0096125	-0.453369	-0.936279	0.353027	0.726369	0.0920018	-0.680872	0.0183683	9.66132	0.61396	0.704884	-0.00789811	0.0125793	-0.0286099	-1.07397	-0.256592	-0.355469	0.647921	0.41339	-0.576984	0.276399	9.80296	2.34234	0.0974186	0.00284427	0.0547797	0.0784016	-0.96875	-0.46167	-0.225098	0.0735089	-0.610795	0.0907852	0.783125	-9.79525	0.372176	2.26414	-0.0593791	-0.134942	-0.00946328	0.828857	-0.154785	-0.591553	0.395643	0.471161	0.397288	-0.680909	-9.78931	-1.34503	4.07175	0.107002	0.0472719	-0.112313	0.883057	0.373291	-0.312256	0.0618139	0.160703	0.928264	0.329664	0.0405476	5.88121	-7.02896	0.171986	0.134403	-0.0273856	-0.349365	-0.542969	0.830322	0.940429	-0.209876	-0.155494	-0.21764	4.10991	-3.40141	9.65872	-0.0394412	-0.00254118	-0.0306249	-0.0720215	0.475342	-0.932861	0.698178	0.193043	-0.6749	0.140685	9.58819	1.05338	0.0753865	-0.0579755	0.00784792	-0.0330214	-1.07373	-0.243896	-0.227783	-0.336085	0.24654	0.758933	0.500286	7.32305	5.53341	-2.77602	0.0390901	0.0398429	0.0285986	-0.991211	-0.330322	0.198486	0.285887	-0.298754	-0.633443	-0.654037	7.47774	6.207	0.0661116	-0.0369316	-0.00857659	-0.0108648	-1.09009	-0.352295	0.0166016	
56	-0.255701	-0.133697	0.375329	0.880835	-0.775375	7.93437	7.44113	0.0378548	-0.00113268	0.0258364	-0.2229	-0.595215	-0.82959	0.100073	-0.0734311	-0.852862	-0.507168	2.23561	8.56832	-4.52697	-0.00829894	-0.0165684	0.0155317	-0.457764	-0.931885	0.345947	0.726228	0.0957509	-0.680431	0.0209561	9.79111	1.08738	0.663459	0.225558	0.0218713	0.000959523	-1.07812	-0.254395	-0.35791	0.648087	0.411686	-0.577302	0.277884	9.2753	2.46474	0.0561445	-0.045563	0.0456887	0.0906945	-0.97583	-0.455078	-0.234131	0.0744393	-0.610543	0.091935	0.783099	-9.22193	0.481413	2.32359	0.0769368	0.0301381	-0.0289218	0.828857	-0.156982	-0.587158	0.395731	0.47057	0.397332	-0.68124	-9.48927	-0.737346	4.16749	-0.0709072	0.0120438	-0.0331305	0.878418	0.379639	-0.3125	0.0594721	0.160501	0.929024	0.328051	-0.0939268	6.32124	-7.06707	0.0806725	0.140278	0.00715754	-0.345459	-0.531982	0.832031	0.940052	-0.210721	-0.15675	-0.21755	4.25871	-3.06177	9.45413	0.0210097	-0.0254042	-0.0186818	-0.076416	0.473145	-0.935303	0.69815	0.19358	-0.674685	0.141119	10.0369	0.940923	0.146292	0.0886255	0.00412178	-0.0120503	-1.07642	-0.239502	-0.232178	-0.336775	0.24599	0.75923	0.499641	7.16594	6.03395	-2.68805	0.0803599	0.0558759	0.00797328	-0.991211	-0.328125	0.198486	0.286404	-0.298562	-0.634095	-0.653267	7.15865	7.03961	0.357789	-0.0345505	0.00622522	0.0174944	-1.08789	-0.350098	0.0234375	
57	-0.255297	-0.132106	0.375293	0.881208	-0.686702	8.07695	7.33861	-0.0577186	-0.107136	0.00428731	-0.222656	-0.599609	-0.827393	0.0999569	-0.0738972	-0.852725	-0.507354	2.37476	8.30052	-4.53487	-0.0261242	-0.0116824	0.00560862	-0.451172	-0.934082	0.343506	0.727467	0.0999412	-0.678474	0.0218167	9.41643	1.17753	0.45611	0.144718	0.104399	-0.178228	-1.07153	-0.265137	-0.362061	0.648369	0.410432	-0.577381	0.278916	9.60393	2.60867	-0.301229	-0.0279247	0.0762587	0.108249	-0.973633	-0.455078	-0.234131	0.0747729	-0.610586	0.0946641	0.782708	-9.26133	1.29117	2.50605	0.0379123	0.0547052	0.0855731	0.831543	-0.165771	-0.587158	0.396219	0.47073	0.397311	-0.680858	-9.78538	-1.21808	3.90308	-0.00110163	0.0511807	0.00718466	0.878662	0.375244	-0.312256	0.0561015	0.159754	0.929471	0.327743	0.0613259	5.6863	-6.87944	0.0638216	0.103893	-0.0163336	-0.352051	-0.53418	0.830078	0.940216	-0.209671	-0.156155	-0.218284	4.03507	-3.36397	9.56778	0.0128675	0.0679708	-0.0704493	-0.0720215	0.473145	-0.928223	0.69873	0.191456	-0.674736	0.1409	9.67718	1.04925	-0.0145238	-0.123123	0.0500907	0.0477972	-1.07446	-0.230225	-0.230225	-0.336287	0.24663	0.759202	0.499697	7.22287	5.39759	-2.4549	-0.0405099	-0.00106495	-0.00756184	-0.989014	-0.330322	0.198486	0.286333	-0.298869	-0.633761	-0.653481	7.15064	6.21897	0.120455	-0.0340125	0.00186929	0.00998839	-1.08813	-0.343506	0.0187988	
58	-0.254952	-0.130825	0.374571	0.881805	-0.368094	7.53797	7.10789	-0.090789	-0.0984587	-0.00436537	-0.229492	-0.595215	-0.82959	0.100165	-0.0737145	-0.852148	-0.508308	2.54001	8.31022	-4.45055	-0.0473785	0.0443516	-0.0202392	-0.455566	-0.931885	0.348145	0.727883	0.103046	-0.677545	0.022399	9.56015	0.767264	0.750897	0.211256	0.0775412	-0.145746	-1.07373	-0.271729	-0.362061	0.648622	0.407455	-0.578397	0.280583	9.19016	2.0844	-0.426008	-0.118583	0.023577	0.134064	-0.980469	-0.44873	-0.236328	0.0711208	-0.611965	0.0916082	0.782336	-9.34921	0.121101	2.20034	-0.152754	0.0235394	0.00482203	0.831055	-0.15918	-0.58252	0.399547	0.46996	0.397723	-0.679203	-9.35812	-0.211633	4.25335	-0.149114	-0.0110085	0.0743889	0.878662	0.373291	-0.307861	0.055081	0.159578	0.929605	0.327621	0.0592802	6.01636	-7.10261	0.0402244	0.090961	-0.00931189	-0.352051	-0.530029	0.834229	0.939937	-0.209844	-0.156189	-0.219293	4.14898	-3.50657	9.5651	-0.0257406	0.0257738	-0.0956256	-0.0766602	0.477539	-0.928223	0.698866	0.190358	-0.674699	0.141886	9.73758	0.422453	0.785232	0.0849754	0.00444591	0.0186315	-1.07422	-0.237061	-0.234619	-0.33653	0.246473	0.759105	0.499758	7.31328	5.61642	-2.79097	0.00246257	0.0375353	0.0029051	-0.991211	-0.330322	0.198486	0.286155	-0.298834	-0.634315	-0.653038	7.44652	6.99732	0.199221	-0.00491509	-0.00641028	-0.0103468	-1.09033	-0.3479	0.0187988	
59	-0.255247	-0.129873	0.373231	0.882429	-0.160916	7.34141	7.26091	-0.0710089	-0.000910071	0.0202411	-0.223145	-0.588623	-0.836182	0.100016	-0.0737621	-0.851891	-0.508761	2.30117	8.33974	-4.13109	-0.013008	-0.0215215	-0.0330882	-0.453613	-0.929688	0.341064	0.727054	0.0989503	-0.679137	0.0193213	9.7095	0.598962	0.436285	-0.328434	-0.0559533	0.0612496	-1.07812	-0.267334	-0.364502	0.649236	0.40248	-0.581837	0.279229	9.76074	1.55577	0.248195	-0.21067	-0.0456504	0.118856	-0.980957	-0.437744	-0.23877	0.0707785	-0.612641	0.0918056	0.781814	-9.62128	0.711712	2.21446	-0.000773832	0.0290017	-0.0157592	0.829102	-0.163574	-0.587158	0.403826	0.468283	0.398802	-0.677194	-9.55255	-0.594809	3.86863	-0.0739925	-0.0198715	0.0389502	0.883301	0.368896	-0.310059	0.0522461	0.158976	0.929839	0.327715	0.0918054	6.16074	-7.01472	3.20362e-07	0.14421	0.00177255	-0.356445	-0.532227	0.830078	0.939927	-0.210516	-0.156256	-0.218643	3.99713	-4.18362	9.39145	-0.0264455	-0.0377852	0.0485837	-0.0744629	0.477539	-0.928223	0.699115	0.190898	-0.674331	0.141683	9.92898	0.241721	-0.260539	-0.00534656	0.0231572	-0.0251268	-1.07178	-0.237061	-0.236816	-0.335862	0.24715	0.759169	0.499777	7.3999	5.95903	-2.45173	-0.0240078	-0.0502894	0.013346	-0.984619	-0.330078	0.198486	0.285613	-0.29987	-0.633003	-0.654072	7.51015	6.15574	0.140024	-0.022241	-0.00462948	0.00913275	-1.09033	-0.345703	0.0163574	
60	-0.255812	-0.131435	0.373304	0.882003	-0.70713	7.26983	7.19323	0.0677403	0.0678682	-0.010167	-0.218262	-0.597168	-0.835938	0.0999033	-0.0731148	-0.851652	-0.509277	2.60221	8.11094	-4.52559	-0.0117397	0.0538337	-0.035659	-0.459717	-0.936279	0.34375	0.726759	0.0958857	-0.679925	0.018164	9.73145	0.470072	0.632559	-0.239364	-0.0647992	0.103012	-1.07373	-0.262939	-0.362305	0.650494	0.397779	-0.584465	0.277543	9.63877	1.72686	0.0079993	-0.107917	0.00676256	0.0649414	-0.98999	-0.437744	-0.245361	0.0709052	-0.612439	0.0915362	0.781993	-9.46209	0.473736	2.20358	-0.0121359	-0.0161943	-0.0320813	0.833252	-0.154785	-0.587158	0.405182	0.467784	0.398143	-0.677117	-9.52476	-0.0921949	4.04576	-0.0089068	0.00983959	-0.00351636	0.885254	0.375488	-0.303711	0.0513278	0.158886	0.930032	0.327354	0.188589	5.68549	-7.10271	0.0820651	0.0385709	-0.024434	-0.355957	-0.538574	0.828125	0.940152	-0.209765	-0.156248	-0.218402	4.49222	-3.21794	9.56075	0.0422542	0.0228576	-0.0184233	-0.0698242	0.473145	-0.935303	0.6992	0.190602	-0.674326	0.141688	9.58909	0.824383	0.202108	-0.0154896	0.0163262	-0.00541476	-1.07666	-0.232666	-0.234619	-0.335116	0.248223	0.758508	0.500747	7.25748	5.07315	-2.70272	-0.0235021	0.012757	-0.0033402	-0.989014	-0.330322	0.203125	0.28596	-0.299866	-0.633707	-0.65324	7.35533	6.38052	0.167379	0.0425191	0.000618618	0.00392654	-1.09229	-0.352295	0.0234375	
61	-0.255279	-0.132694	0.374327	0.881535	-0.565338	7.49205	7.39083	0.0685611	0.00722036	-0.0371828	-0.2229	-0.595215	-0.825195	0.0996118	-0.0731442	-0.85217	-0.508461	2.59022	8.33774	-4.45957	0.0422268	-0.0315724	-0.0207547	-0.453125	-0.938477	0.348389	0.726735	0.0947968	-0.680109	0.0179556	9.77684	0.928112	0.980439	0.0232772	0.00690681	-0.0116955	-1.07397	-0.256592	-0.35791	0.650604	0.394561	-0.587165	0.276175	9.68846	2.23282	0.12972	-0.196218	-0.0645656	0.105257	-0.98584	-0.428711	-0.247803	0.0714378	-0.612416	0.0909655	0.782029	-9.2435	0.696311	2.43509	-0.00460517	-0.00189941	-0.0360352	0.824463	-0.157227	-0.584717	0.405035	0.467182	0.397699	-0.677881	-9.52298	-0.467642	4.23528	0.0662042	0.0180391	-0.0755505	0.880859	0.373291	-0.310059	0.0511083	0.158597	0.930404	0.326471	-0.138761	5.8705	-7.17578	0.0936659	0.0265127	-0.044186	-0.36499	-0.530029	0.825684	0.939726	-0.211753	-0.156793	-0.217927	3.91225	-3.65083	9.56003	-0.0753357	-0.0193515	-0.00315562	-0.0744629	0.479736	-0.930664	0.699327	0.190464	-0.674313	0.141304	10.4255	0.79236	-0.0694502	0.0260018	0.0251861	-0.0268951	-1.07202	-0.232422	-0.236816	-0.336035	0.246727	0.760497	0.497846	7.4397	5.91046	-2.56918	0.187418	0.000410991	0.0159417	-0.986816	-0.328125	0.20752	0.285956	-0.300072	-0.633953	-0.652908	7.4105	6.72256	0.0106906	-0.0178359	-0.00365686	0.00664146	-1.0813	-0.345703	0.0209961	
62	-0.255242	-0.132988	0.375809	0.880871	-0.631237	8.13385	7.37771	0.0186494	-0.0126744	0.0404884	-0.222412	-0.60376	-0.825195	0.0999783	-0.0730348	-0.851968	-0.508744	2.12148	8.30761	-4.41846	-0.0302372	0.0239704	-0.0172719	-0.45752	-0.938477	0.353271	0.726648	0.0982381	-0.679668	0.0195772	9.53927	0.867093	0.542965	0.161233	0.0457603	-0.0585607	-1.07373	-0.267334	-0.357666	0.650563	0.39181	-0.589039	0.276199	9.41902	1.90396	0.348399	-0.0159675	0.0197112	0.0705605	-0.993164	-0.417969	-0.24585	0.0715592	-0.611961	0.0916192	0.782297	-9.15307	0.616906	2.1615	0.0783748	0.019944	0.00662153	0.826904	-0.161377	-0.589355	0.404866	0.467469	0.397455	-0.677927	-9.50912	-0.4018	4.00228	-0.00298682	0.0482936	-0.00919577	0.883057	0.375488	-0.303711	0.051235	0.157367	0.930749	0.326063	-0.0862337	5.98528	-6.79028	-0.00795903	0.0125014	-0.0412638	-0.356445	-0.532227	0.832031	0.940066	-0.209804	-0.156597	-0.218484	4.11946	-3.27964	9.50953	0.10242	0.0614655	-0.0475751	-0.0720215	0.473145	-0.930664	0.699489	0.189915	-0.674052	0.142481	9.40786	0.895558	0.198529	-0.00207608	0.026742	0.0366386	-1.07422	-0.237061	-0.236816	-0.336269	0.247019	0.760424	0.497654	7.09262	5.92246	-2.94351	-0.0648861	0.0385136	-0.00659414	-0.993408	-0.33252	0.203125	0.286271	-0.300071	-0.634589	-0.652153	7.20285	6.46574	0.0825714	0.106533	0.0022156	-0.000532213	-1.0835	-0.3479	0.0234375	
63	-0.255222	-0.132983	0.375147	0.881159	-0.697196	7.53556	7.25818	-0.0287596	0.00668008	-0.0273276	-0.222656	-0.597412	-0.82959	0.0994699	-0.0731027	-0.851728	-0.509235	2.20868	8.47168	-4.39124	-0.0516223	-0.0209682	-0.0383282	-0.457764	-0.934082	0.343506	0.727396	0.0992996	-0.678682	0.0206302	9.85591	1.15883	0.740735	-0.0132942	0.0580707	0.0313031	-1.07373	-0.262939	-0.357666	0.650959	0.390938	-0.589103	0.276366	9.6824	1.80709	-0.0399516	-0.11231	0.0143907	0.0257027	-0.990723	-0.420166	-0.245605	0.07216	-0.612299	0.0913722	0.782007	-9.67663	0.621191	2.14936	-0.0191645	0.00758886	-0.049009	0.829102	-0.163574	-0.584717	0.406597	0.467378	0.397275	-0.677059	-9.71963	-0.874985	4.0529	0.0720705	0.0327907	0.0236358	0.887207	0.377441	-0.308105	0.0511342	0.157871	0.929861	0.32836	0.123965	5.81556	-7.1088	-0.101983	0.0311306	0.0151635	-0.356201	-0.53418	0.82373	0.939832	-0.210516	-0.156693	-0.218739	4.19337	-3.7264	9.58597	-0.0264963	0.0318806	-0.021312	-0.0766602	0.477539	-0.932861	0.699931	0.188406	-0.673991	0.142603	10.4996	0.348512	0.0775651	-4.64252e-05	0.0463927	0.0149421	-1.07202	-0.230225	-0.239014	-0.335434	0.247505	0.759976	0.49866	7.21509	5.46306	-2.29702	-0.065071	-0.049631	0.00841867	-0.989014	-0.330322	0.198486	0.285709	-0.300846	-0.633427	-0.653171	7.34202	6.3627	0.0711811	-0.138779	9.69231e-05	0.00597308	-1.09033	-0.345703	0.0209961	
64	-0.255244	-0.132428	0.374466	0.881526	-0.575607	7.25516	7.38258	-0.0303809	-0.0368891	0.00370707	-0.220459	-0.597412	-0.825195	0.0992775	-0.0725724	-0.851267	-0.51012	2.41501	8.24517	-4.66194	0.0157535	-0.00419223	-0.0295905	-0.455566	-0.934082	0.343506	0.727632	0.100678	-0.678181	0.0220543	9.74867	0.714065	0.519661	0.0963672	0.00785617	-0.0148638	-1.07593	-0.262939	-0.359863	0.65098	0.389762	-0.58989	0.276298	9.56665	1.59022	-0.21054	-0.0652526	-0.0219307	0.0441918	-0.990723	-0.417969	-0.250244	0.0729242	-0.613144	0.0905472	0.781369	-9.17211	0.363809	2.424	-0.0409289	0.0308377	-0.07816	0.828857	-0.156982	-0.584717	0.407695	0.467828	0.396065	-0.676798	-9.47076	0.125146	4.13345	-0.037619	0.0282608	0.0186337	0.883545	0.362305	-0.309814	0.0517884	0.158193	0.929553	0.328975	-0.0690694	5.58962	-7.1717	-0.0449497	-0.0385248	-0.00720084	-0.360352	-0.538574	0.825928	0.939687	-0.21054	-0.155811	-0.219962	4.07695	-3.9283	9.27101	0.00884767	0.0481135	-0.0646953	-0.0722656	0.479736	-0.930664	0.700078	0.186807	-0.674261	0.142709	9.59432	0.824777	0.467916	-0.123443	-0.000970815	0.00935003	-1.07446	-0.230225	-0.239014	-0.33507	0.247903	0.759296	0.499742	7.40569	5.12427	-3.0775	0.00676142	0.0527107	-0.0130085	-0.989258	-0.325928	0.202881	0.285925	-0.300249	-0.634293	-0.652511	7.56133	6.52579	0.203356	0.0992619	0.0138463	-0.0264472	-1.08789	-0.350098	0.0234375	
65	-0.254634	-0.132663	0.375346	0.881293	-0.38056	7.23392	7.39642	0.0805232	-0.0230213	-0.0342897	-0.2229	-0.595215	-0.82959	0.0990147	-0.0724581	-0.851587	-0.509653	2.51452	8.65099	-4.48466	0.0400132	-0.00630494	-0.037026	-0.453369	-0.934082	0.343506	0.727374	0.0994312	-0.678671	0.0211297	9.41676	1.04486	0.587657	-0.121103	-0.045648	0.0145023	-1.07373	-0.265137	-0.362061	0.651062	0.389186	-0.590516	0.275578	9.80069	1.22206	-0.016278	-0.0801155	-0.0326385	0.0080453	-0.986572	-0.41333	-0.250244	0.0732802	-0.612965	0.0905668	0.781474	-9.77521	0.768621	2.28485	0.0251555	0.00547791	0.0180056	0.82666	-0.156982	-0.587158	0.408187	0.467641	0.397646	-0.675702	-9.759	-0.175577	3.99392	-0.114877	0.115437	-0.0449103	0.889648	0.368896	-0.299316	0.0534199	0.158863	0.92911	0.329642	0.165464	6.13778	-7.31181	-0.0315285	-0.0604188	-0.00272932	-0.358154	-0.538574	0.825928	0.939517	-0.210571	-0.156411	-0.220235	4.03223	-3.81399	9.21376	0.00619684	-0.025338	-0.0497771	-0.0720215	0.470947	-0.93042	0.700323	0.186109	-0.674385	0.14183	9.65835	-0.161253	-0.25091	-0.0894928	0.00940198	-0.0331624	-1.07251	-0.220947	-0.239258	-0.336114	0.246589	0.760512	0.497838	7.57272	6.09403	-2.76936	0.220929	0.0583907	-0.00923942	-0.986816	-0.328125	0.205322	0.285877	-0.300307	-0.634051	-0.65274	7.66635	6.82024	0.173372	-0.0238249	0.0137358	-0.00382499	-1.0813	-0.343262	0.0231934	
66	-0.253898	-0.132834	0.376434	0.881016	-0.779194	8.02255	7.38248	0.0100829	-0.0351936	-0.0172349	-0.218262	-0.597412	-0.820801	0.0988936	-0.0727236	-0.851353	-0.510028	2.2875	8.19652	-4.37636	-0.0450045	-0.00344324	-0.010735	-0.453369	-0.936279	0.348389	0.726926	0.0924932	-0.680225	0.0178378	10.1626	0.38307	0.73756	-0.223364	-0.043295	0.113447	-1.07617	-0.252197	-0.35791	0.653046	0.384597	-0.592944	0.272091	9.75899	1.47325	0.293898	-0.309468	-0.00721314	0.056529	-0.991211	-0.411133	-0.256836	0.0716282	-0.613279	0.0875257	0.781728	-9.43766	0.471229	2.13045	-0.127892	-0.00229902	-0.0545323	0.830811	-0.148193	-0.58252	0.409142	0.466957	0.400644	-0.673824	-9.67605	-0.402559	3.70867	-0.061447	0.069962	-0.0393155	0.88501	0.377441	-0.297363	0.0573883	0.160226	0.927258	0.333507	-0.151435	5.90584	-6.92493	-0.210131	-0.176698	0.00946929	-0.35376	-0.542969	0.821777	0.939745	-0.210013	-0.15634	-0.219845	4.41407	-3.52715	9.70248	0.0320619	0.0356986	0.00307985	-0.0742188	0.475342	-0.932861	0.700153	0.188024	-0.673768	0.143071	10.2394	1.12789	0.343433	0.0678421	0.0297513	-0.0489483	-1.07422	-0.232422	-0.243408	-0.336037	0.247051	0.760779	0.497253	7.25625	5.89242	-2.56773	-0.0953825	-0.0107368	0.0220196	-0.98877	-0.33252	0.203125	0.285983	-0.300619	-0.633606	-0.652981	7.37021	6.39424	0.183275	-0.0186168	0.00664546	0.0106591	-1.09229	-0.350098	0.0187988	
67	-0.252577	-0.132414	0.376671	0.881357	-0.645137	8.27628	7.18463	0.00443952	-0.0420223	-0.0403432	-0.224609	-0.601807	-0.825195	0.0983288	-0.072916	-0.851415	-0.510008	2.47819	8.33329	-4.56813	0.00602062	0.000396236	-0.0245405	-0.453613	-0.929688	0.348145	0.726471	0.0926846	-0.680651	0.0190656	9.66036	0.798739	0.638416	0.0360494	-0.0147634	0.0020976	-1.07617	-0.254395	-0.360107	0.652321	0.386531	-0.591496	0.274234	9.78393	1.95794	0.434148	0.299709	0.0589802	-0.0484438	-0.991211	-0.411377	-0.250244	0.0723781	-0.612796	0.0886737	0.781908	-9.8219	-0.195832	1.93658	0.110499	-0.0316082	0.00192531	0.828613	-0.150391	-0.584717	0.409426	0.466974	0.40102	-0.673416	-9.83956	-1.15631	3.58144	0.103265	0.0631016	-0.0417643	0.889404	0.375488	-0.299561	0.0627559	0.162382	0.925404	0.336632	-0.172816	6.18649	-7.03099	-0.120497	-0.188626	-0.0196905	-0.342529	-0.553711	0.826172	0.939647	-0.210103	-0.156429	-0.220113	4.07455	-3.52823	9.30952	0.0247265	0.0142987	-0.0306843	-0.0725098	0.481934	-0.935303	0.70081	0.186838	-0.673574	0.142322	9.55613	0.313609	-0.146281	-0.0476552	0.0375081	-0.0136037	-1.06982	-0.230225	-0.241211	-0.336003	0.247429	0.7596	0.498887	7.06589	5.42749	-2.67127	0.0138588	0.0466942	-0.00244878	-0.986816	-0.325928	0.200684	0.286071	-0.300866	-0.633353	-0.653075	7.17704	6.46079	0.110739	-0.0325652	0.00640454	0.00309268	-1.08594	-0.343506	0.0256348	
68	-0.252426	-0.131498	0.376021	0.881815	-0.490274	7.38696	7.04149	-0.00928275	-0.0319004	0.00446558	-0.227295	-0.595215	-0.831787	0.0982393	-0.0729225	-0.8518	-0.50938	2.38657	8.42796	-4.40136	0.0211658	-0.0064286	-0.0295191	-0.453125	-0.938477	0.353271	0.727327	0.0944959	-0.679457	0.0200728	9.90503	0.946716	0.813214	0.105808	0.0688634	-0.0163028	-1.07593	-0.260742	-0.366943	0.653952	0.385202	-0.591083	0.273105	9.80389	1.23774	0.230649	-0.20981	0.0486554	0.00275928	-0.98877	-0.415527	-0.263428	0.0762864	-0.612878	0.0931594	0.78095	-9.34341	1.16995	2.19145	0.166994	0.0344117	-0.043961	0.829102	-0.159424	-0.580322	0.409249	0.467714	0.399395	-0.673976	-9.74376	0.188773	3.83045	-0.0435622	0.0195161	0.00709153	0.881104	0.371094	-0.294922	0.0693997	0.163492	0.923721	0.339402	-0.0568044	6.11362	-6.62114	-0.192503	-0.249125	-0.0302473	-0.33374	-0.555908	0.826416	0.939723	-0.20961	-0.156894	-0.21993	4.1891	-3.28755	9.17091	0.053094	-0.0107331	-0.0154709	-0.0720215	0.475342	-0.928223	0.700878	0.18871	-0.672571	0.144244	10.3225	0.761935	0.472981	0.117731	0.0425498	-0.0348735	-1.07446	-0.227783	-0.241455	-0.336432	0.247113	0.760056	0.49806	7.20955	5.66203	-2.66017	0.0493907	0.00483828	0.016424	-0.986572	-0.33252	0.194092	0.286358	-0.300802	-0.63363	-0.65271	7.35807	6.58947	0.046942	0.0462794	0.0140751	0.00610061	-1.09058	-0.341309	0.0231934	
69	-0.253252	-0.131214	0.375582	0.881808	-0.327874	7.87864	7.36575	-0.0706857	0.00980897	0.0363472	-0.222656	-0.599609	-0.827393	0.0973585	-0.0736879	-0.851387	-0.51013	2.40611	8.0227	-4.41512	-0.0444497	-0.0428449	-0.00853638	-0.451416	-0.931885	0.345947	0.727952	0.0952488	-0.678646	0.0212692	9.60169	0.706524	0.646255	0.0397555	0.0674095	0.00904347	-1.07373	-0.262939	-0.364502	0.654208	0.386047	-0.589571	0.274567	9.16763	2.05665	-0.399424	0.134217	0.0564795	-0.0234416	-0.98877	-0.41333	-0.263428	0.0733162	-0.613274	0.0891479	0.781391	-9.31778	0.246299	2.10716	-0.263452	-0.00171107	-0.0221744	0.833252	-0.156982	-0.58252	0.410677	0.467744	0.397491	-0.674211	-9.55281	-0.952313	3.63378	0.251543	-0.0113636	0.0295087	0.883057	0.375488	-0.297363	0.0731103	0.164877	0.921703	0.343414	-0.185966	6.01651	-6.99179	-0.193239	-0.0807479	0.000575144	-0.324951	-0.560059	0.817871	0.940184	-0.20844	-0.156586	-0.219289	4.06545	-3.88452	9.30536	0.0935847	0.0453328	0.0132158	-0.076416	0.473145	-0.932861	0.700754	0.189077	-0.672597	0.144246	9.69154	0.693795	0.143728	-0.00507677	0.00642063	-0.0291989	-1.07666	-0.230225	-0.241211	-0.336402	0.24697	0.760796	0.497021	7.22072	5.73253	-2.61786	0.00683694	-0.00722032	-0.00837503	-0.984619	-0.325928	0.200684	0.28689	-0.300524	-0.633991	-0.652254	7.30767	6.24753	0.179209	0.0335311	0.014937	-0.00346811	-1.08594	-0.341309	0.0187988	
70	-0.253213	-0.131109	0.374961	0.882099	-0.513117	7.7612	7.17548	-0.00481979	-0.00579987	-0.00636418	-0.222656	-0.599365	-0.82959	0.0969464	-0.0735788	-0.851467	-0.51009	2.56673	8.46251	-4.35827	-0.0143454	0.0197218	-0.032526	-0.451172	-0.936279	0.345947	0.727852	0.0936484	-0.678989	0.0208647	9.82461	1.22872	0.751858	-0.144789	-0.0417501	0.0511834	-1.07617	-0.254395	-0.366943	0.655054	0.385498	-0.589848	0.272717	9.68205	1.69927	-0.253102	-0.210305	-0.0194285	-0.0241626	-0.988525	-0.419922	-0.263428	0.0740217	-0.613096	0.0908781	0.781265	-9.43127	0.32895	2.32427	0.151896	0.00557159	0.0253178	0.835449	-0.156982	-0.587158	0.413312	0.46568	0.397034	-0.6743	-9.3206	-0.0687979	3.97799	-0.193489	-0.0723879	-0.00967462	0.881104	0.371094	-0.301514	0.0758155	0.165683	0.920621	0.345337	-0.032115	5.86729	-6.57954	-0.187776	-0.190688	-0.00994382	-0.317627	-0.577393	0.82251	0.940498	-0.207028	-0.156991	-0.218991	4.10319	-3.26309	9.803	0.0344881	0.0257699	-0.0232217	-0.0742188	0.473145	-0.932861	0.700797	0.189807	-0.67223	0.14479	10.1247	0.974867	0.371092	0.0380725	0.018691	-0.016121	-1.07666	-0.232422	-0.239014	-0.336007	0.247217	0.760038	0.498322	7.51505	5.39963	-2.5397	-0.0612798	0.0151887	-0.00146105	-0.984375	-0.332275	0.200928	0.287045	-0.300361	-0.633997	-0.652255	7.58612	6.60887	0.199438	-0.0445583	0.016706	-0.000975839	-1.09253	-0.345703	0.0209961	
71	-0.253616	-0.130602	0.373767	0.882565	-0.467218	7.08105	7.23299	-0.0367914	-0.00717528	-0.000549212	-0.227295	-0.593018	-0.82959	0.0960302	-0.0740323	-0.851628	-0.509929	2.54903	8.03515	-4.43227	0.0330746	-0.0539186	-0.0290829	-0.448975	-0.934082	0.350586	0.727402	0.0934294	-0.679502	0.0208503	9.55617	1.06161	0.62631	0.0375901	-0.0512419	-0.0494091	-1.07397	-0.252197	-0.362549	0.652926	0.387898	-0.590495	0.273017	9.83313	1.42667	-0.229913	0.225253	-0.0969784	-0.00868978	-0.984131	-0.419922	-0.256836	0.0748107	-0.611943	0.0940292	0.781721	-9.22462	1.11793	2.43282	0.0697676	-0.0356845	0.0380288	0.827148	-0.17041	-0.58252	0.414283	0.464163	0.39653	-0.675046	-9.66945	0.0308134	3.94288	0.0252804	-0.034795	-0.0440374	0.880859	0.373291	-0.305908	0.0827754	0.166582	0.918668	0.348494	-0.186072	5.89405	-6.72319	-0.110054	-0.165771	-0.0316415	-0.313477	-0.575195	0.818359	0.940054	-0.208163	-0.156071	-0.220473	4.05391	-3.6501	9.34049	-0.0900918	0.0500304	-0.0721814	-0.0739746	0.468994	-0.939697	0.700967	0.188567	-0.672504	0.144311	9.67622	0.582861	0.301469	-0.0427394	0.00505153	-0.000778317	-1.07202	-0.230225	-0.239014	-0.336041	0.246969	0.760408	0.497858	7.30386	5.58601	-2.82698	0.0571178	0.0271829	-0.00631603	-0.989258	-0.325928	0.205322	0.287153	-0.300074	-0.633957	-0.652378	7.46204	6.15786	0.00726834	0.0816298	0.0254624	-0.0158348	-1.09229	-0.350098	0.0209961	
72	-0.253863	-0.131204	0.373749	0.882412	-0.454011	8.20568	7.43705	-0.0405576	0.0390016	0.0116033	-0.227051	-0.597412	-0.82959	0.0956829	-0.0741619	-0.852044	-0.509279	2.68595	8.51759	-4.30003	0.0533597	-0.0241373	-0.0225989	-0.453369	-0.931885	0.357666	0.726692	0.0897771	-0.680848	0.0174457	9.86459	0.352192	0.811971	-0.211228	-0.0301211	0.0638687	-1.07617	-0.252197	-0.355713	0.65224	0.387556	-0.591786	0.272345	9.85365	1.61828	0.689958	-0.0558984	-0.107593	0.0370952	-0.988525	-0.417969	-0.250244	0.0722569	-0.610782	0.0914861	0.78317	-9.4079	0.340245	2.06565	-0.168983	-0.0808928	0.00363027	0.822266	-0.154785	-0.587158	0.415445	0.462467	0.397237	-0.67508	-9.71952	-0.28141	4.16071	-0.114092	-0.0631679	-0.0553963	0.880859	0.377441	-0.303711	0.086061	0.167326	0.917813	0.349592	-0.556454	6.79253	-6.67517	-0.0911683	-0.0886569	-0.0345407	-0.300293	-0.581787	0.822754	0.940091	-0.207543	-0.156755	-0.220415	4.38106	-3.55476	9.50267	0.0984235	0.000619646	-0.00953003	-0.0717773	0.466797	-0.935059	0.701062	0.188951	-0.672275	0.14442	10.027	0.163735	-0.02797	0.0602318	0.0197109	-0.0269617	-1.07446	-0.230225	-0.241211	-0.336734	0.245818	0.76111	0.496885	7.40144	5.93998	-2.65563	0.08365	0.0291961	-0.00996294	-0.991455	-0.325928	0.198486	0.287621	-0.299627	-0.634099	-0.65224	7.33732	6.74341	0.279228	-0.0420839	0.0229335	0.00161349	-1.08813	-0.341309	0.0209961	
73	-0.253615	-0.132916	0.371987	0.882972	-1.13578	7.53058	7.27315	-0.0140224	0.0562387	-0.0684206	-0.2229	-0.593018	-0.833984	0.0954494	-0.0745741	-0.851611	-0.509988	2.10676	8.33145	-4.57733	-0.0426624	-0.0267318	-0.0180002	-0.451172	-0.936279	0.353027	0.72619	0.0891384	-0.681451	0.0181083	10.013	0.91539	0.583308	-0.0261153	-0.0163962	-0.0109722	-1.07397	-0.25	-0.360352	0.651953	0.386089	-0.59381	0.270707	9.8733	1.03035	0.570524	0.216319	-0.0182578	-0.0142385	-0.990967	-0.413574	-0.248047	0.0755217	-0.609993	0.0942253	0.783151	-10.026	0.808141	2.31681	0.236064	-0.0255549	-0.0350583	0.827148	-0.17041	-0.584717	0.413023	0.462821	0.393963	-0.678235	-9.71133	-0.604719	4.30518	0.201097	-0.0435778	-0.0705568	0.876465	0.377441	-0.312256	0.0891853	0.16845	0.916677	0.351246	-0.241889	6.40073	-6.51479	-0.0569565	-0.0968454	0.0109992	-0.298096	-0.581543	0.816406	0.940366	-0.206723	-0.155702	-0.220757	3.99791	-3.2947	9.59261	-0.0503082	0.0629415	-0.0316586	-0.0742188	0.470947	-0.935059	0.700815	0.189177	-0.672482	0.144354	9.79936	0.925734	0.319901	-0.0429283	-0.00877532	-0.0236898	-1.0769	-0.228027	-0.239014	-0.336786	0.24594	0.760876	0.497149	7.22331	6.16639	-2.44566	-0.0268362	0.0219203	0.00911605	-0.989014	-0.328125	0.203125	0.287562	-0.299807	-0.633655	-0.652614	7.25927	6.39554	0.095481	-0.044743	0.0151294	0.00266081	-1.09253	-0.345703	0.0187988	
74	-0.253609	-0.133044	0.371639	0.8831	-0.833404	8.40203	7.47879	-0.0243337	0.00863518	-0.010799	-0.220703	-0.593018	-0.82959	0.094803	-0.0748105	-0.85115	-0.510842	2.11831	8.56648	-4.48703	-0.0722608	0.0157247	-0.0262457	-0.451172	-0.936279	0.348389	0.727158	0.0891408	-0.68041	0.0183687	9.93554	0.166623	0.824336	0.00949659	0.116727	0.00331904	-1.07617	-0.25	-0.362549	0.652101	0.389163	-0.590753	0.27263	9.68035	3.07868	0.996715	-0.204235	0.0860507	-0.0514262	-0.986328	-0.417969	-0.248047	0.0779631	-0.609818	0.0951447	0.782938	-9.32219	0.705473	2.26381	0.0850043	0.0110262	-0.0942436	0.824951	-0.168213	-0.584717	0.413806	0.462406	0.393862	-0.678098	-9.57386	-1.26702	4.22906	0.0984809	0.0406177	-0.0291463	0.883057	0.373291	-0.31665	0.090088	0.169063	0.916213	0.35193	-0.465389	6.89482	-6.61654	-0.0560814	-0.0652558	0.0102734	-0.300049	-0.58374	0.814209	0.94033	-0.206879	-0.155601	-0.220835	4.0708	-3.39535	9.54215	-0.0111209	0.023651	-0.019244	-0.0678711	0.477539	-0.932861	0.700889	0.188894	-0.67258	0.14391	9.95829	0.41103	0.0714338	-0.0389865	0.00369992	-0.0302242	-1.07227	-0.227783	-0.241211	-0.335799	0.246782	0.759381	0.499679	7.19577	5.2512	-2.89712	-0.133541	0.0126506	-0.0215782	-0.984619	-0.330078	0.198486	0.287824	-0.299409	-0.633868	-0.652474	7.3887	6.60801	0.146905	0.0265498	0.0258824	-0.0106049	-1.08813	-0.343506	0.0209961	
75	-0.2574	-0.131551	0.371313	0.882364	-0.725417	7.99604	7.50309	-0.00831078	0.000172039	0.12879	-0.223145	-0.588623	-0.833984	0.0928784	-0.0751617	-0.850974	-0.511437	2.73416	8.3281	-4.34801	-0.00874658	-0.0515453	-0.0427421	-0.446533	-0.94043	0.355469	0.729529	0.0945593	-0.676953	0.0241046	10.0254	0.210739	0.739293	0.192823	0.16336	-0.0131149	-1.07397	-0.256592	-0.366943	0.652101	0.390531	-0.588414	0.275715	10.3291	-0.112591	-0.18047	0.640086	0.130941	-0.0193482	-0.990479	-0.426758	-0.247803	0.0785487	-0.610015	0.0920505	0.783095	-9.37509	0.277224	2.29703	-0.194483	-0.00596752	-0.101493	0.829102	-0.15918	-0.589355	0.4129	0.463622	0.392315	-0.678718	-9.68436	0.541436	4.29548	-0.0819005	0.0429651	-0.0232579	0.887207	0.375488	-0.310059	0.0899952	0.169637	0.915644	0.353157	-0.161484	6.39859	-6.46415	0.048196	0.0265526	-0.0111702	-0.300049	-0.585938	0.812256	0.940683	-0.20506	-0.155787	-0.2209	4.25975	-3.43215	9.536	0.0484735	0.016383	-0.0342577	-0.0739746	0.46875	-0.935059	0.701145	0.189645	-0.672103	0.143903	10.0422	0.546465	0.213576	-0.0143755	0.0240732	-0.0477817	-1.07422	-0.237061	-0.243408	-0.336437	0.246209	0.759569	0.499245	7.20963	5.84497	-2.62565	0.0553082	0.0286126	0.00935822	-0.986816	-0.328125	0.193848	0.287854	-0.299532	-0.632919	-0.653326	7.41173	6.43972	0.0965338	-0.0196165	0.0310648	0.000912259	-1.09033	-0.345703	0.0187988	
76	-0.258463	-0.130652	0.37108	0.882285	-0.556441	7.22867	7.40827	-0.042683	-0.0326192	0.101293	-0.229736	-0.59082	-0.836182	0.0937531	-0.0753295	-0.850614	-0.511851	2.52872	8.36524	-4.77815	-0.0322724	0.0538296	0.0116266	-0.451172	-0.934082	0.353027	0.729247	0.0977995	-0.676705	0.0265364	9.33547	1.07226	0.672358	0.32358	0.0134517	-0.0377359	-1.07178	-0.256592	-0.366943	0.649445	0.395164	-0.585478	0.28157	9.39301	2.59142	-0.343034	0.0402189	0.0268061	0.0677409	-0.988281	-0.422363	-0.25	0.0782279	-0.610214	0.090831	0.783115	-9.70106	0.20167	1.96237	-0.0944945	0.0127915	-0.0537353	0.82666	-0.156982	-0.589355	0.412453	0.46368	0.394851	-0.677477	-9.87944	-0.40405	3.74605	0.0213332	0.151434	-0.0849186	0.880859	0.373291	-0.305908	0.0894385	0.169535	0.915873	0.352753	-0.393929	6.37241	-6.60841	0.0583247	0.0518309	-0.0185882	-0.300049	-0.585938	0.818604	0.940563	-0.20568	-0.155621	-0.220949	4.18862	-3.34226	9.62142	-0.0479727	0.0188659	-0.011587	-0.0759277	0.464355	-0.932617	0.701015	0.190484	-0.671966	0.144068	9.88405	0.278205	0.119134	0.0616055	0.00176822	-0.0569072	-1.06958	-0.232422	-0.241211	-0.336433	0.246339	0.759543	0.499223	7.24201	5.62576	-2.67366	-0.00911519	0.00507063	0.00981264	-0.984375	-0.334473	0.200928	0.288805	-0.298946	-0.632906	-0.653187	7.37854	6.62809	0.144289	0.00988779	0.0480655	0.00983795	-1.08813	-0.341309	0.0187988	
77	-0.258579	-0.129425	0.371264	0.882354	-0.452007	8.2002	7.36245	-0.0615812	-0.0507861	0.0280381	-0.22998	-0.584229	-0.833984	0.095051	-0.0748821	-0.850463	-0.511928	2.20934	8.32462	-4.35974	-0.0203599	0.0690404	-0.0147609	-0.448975	-0.938477	0.353027	0.72797	0.0967623	-0.678309	0.0243617	9.65971	0.771864	0.479352	-0.226622	-0.0598667	-0.0194828	-1.07178	-0.254395	-0.360107	0.650648	0.394148	-0.585905	0.27932	9.29473	2.12508	-0.675667	-0.0167169	-0.0134632	-0.111368	-0.988281	-0.424316	-0.252197	0.0767461	-0.609887	0.088042	0.783834	-9.48417	0.455118	2.68221	-0.137249	-0.033017	-0.0307224	0.822266	-0.152588	-0.591797	0.414247	0.462576	0.398638	-0.674916	-9.48693	-1.34305	3.46204	-0.0998545	0.0671787	-0.04326	0.88501	0.379639	-0.301758	0.0879227	0.168912	0.916512	0.351773	-0.381857	6.40834	-6.44752	0.0314287	0.0531441	-0.0320966	-0.300049	-0.585938	0.818604	0.940693	-0.205775	-0.155718	-0.220238	4.08683	-3.86102	9.46134	-0.00363004	-0.0302588	0.0119144	-0.0761719	0.46875	-0.9375	0.700837	0.19159	-0.671808	0.144204	9.65525	0.72069	0.3021	0.0767196	-0.00300535	-0.0731668	-1.06934	-0.239258	-0.241211	-0.33639	0.246106	0.759903	0.49882	7.56213	5.49307	-2.49522	-0.000920046	0.0252253	-0.0102648	-0.98877	-0.33252	0.207764	0.289495	-0.298338	-0.632841	-0.653223	7.39515	6.15986	0.305428	0.0562412	0.0371299	-0.0085909	-1.09033	-0.345703	0.0163574	
78	-0.258735	-0.128005	0.369871	0.883101	-0.681657	7.18017	7.02047	-0.0426845	-0.0487122	0.00172558	-0.232178	-0.584229	-0.833984	0.0954581	-0.0742866	-0.849885	-0.512899	2.46913	8.0919	-4.4669	-0.0399708	0.052488	-0.0369319	-0.453369	-0.936279	0.338867	0.725832	0.0920425	-0.68134	0.0217154	9.9257	1.36296	0.724996	-0.257847	-0.164616	0.0696636	-1.07617	-0.252197	-0.360352	0.653342	0.391266	-0.58786	0.272903	9.81519	1.29585	0.31396	-0.39373	-0.0543024	-0.0423369	-0.988281	-0.424316	-0.254395	0.0788297	-0.609222	0.0907154	0.78384	-9.2682	0.812079	2.17611	0.239826	0.00369248	-0.0175061	0.82666	-0.156982	-0.593994	0.412432	0.462593	0.395851	-0.67765	-9.5535	0.174566	3.56319	0.0445294	-0.0658123	-0.0557715	0.882812	0.379639	-0.303955	0.0841923	0.168251	0.917647	0.350039	-0.253754	6.2404	-6.49474	0.139408	0.19569	0.00025716	-0.311279	-0.577393	0.813965	0.94096	-0.205218	-0.156554	-0.219023	4.16281	-2.85982	9.63682	0.0325095	-0.013426	0.023484	-0.0673828	0.466797	-0.935059	0.699806	0.196943	-0.671092	0.145333	9.97461	0.759242	0.381454	0.282863	-0.0451452	-0.0794507	-1.06445	-0.243652	-0.23877	-0.337506	0.245449	0.759813	0.498527	7.06808	5.96577	-2.45083	0.0496461	0.0483951	0.0126027	-0.986816	-0.328125	0.196289	0.289658	-0.297721	-0.633753	-0.652547	7.2396	6.56788	0.15804	0.0658976	0.00347112	-0.0244478	-1.08813	-0.341309	0.0141602	
79	-0.258162	-0.126958	0.369267	0.883672	-0.0392946	6.75806	7.16646	-0.0156088	-0.0342661	-0.0342916	-0.229736	-0.586426	-0.840576	0.0957924	-0.0740811	-0.849589	-0.513355	2.57521	8.29149	-4.35634	-0.0226419	0.0171666	-0.0171076	-0.446533	-0.942871	0.34375	0.725894	0.0893281	-0.681741	0.0181008	9.6878	0.348783	1.0284	-0.0582888	0.0217316	-0.066392	-1.08032	-0.251953	-0.35791	0.654223	0.389593	-0.588791	0.271172	9.81976	1.63008	0.0326184	-0.216241	-0.0191235	-0.00155028	-0.986084	-0.424316	-0.263184	0.077963	-0.608189	0.0902612	0.784781	-9.02697	0.279972	2.33467	-0.0965465	-0.0421865	0.0372588	0.822266	-0.154785	-0.591553	0.416013	0.459328	0.396457	-0.677328	-9.4508	-0.595445	3.91545	-0.0321715	-0.0690928	-0.0166164	0.874023	0.381836	-0.308105	0.0782717	0.167012	0.918813	0.348945	-0.0826819	6.36912	-6.61802	0.079773	0.255641	0.0047895	-0.313477	-0.572998	0.82251	0.941199	-0.205242	-0.155387	-0.218806	3.89197	-3.49657	9.50218	-0.0502645	0.064278	-0.0107842	-0.0761719	0.468994	-0.942139	0.699377	0.198236	-0.671064	0.145763	9.99352	1.08255	0.160818	-0.0458778	0.0210502	-0.0447971	-1.06689	-0.246094	-0.236572	-0.337422	0.245195	0.75951	0.49917	7.12366	5.3437	-2.75686	-0.0202896	0.0162193	-0.0169488	-0.986572	-0.334717	0.200928	0.289673	-0.297269	-0.633676	-0.652821	7.40324	6.71289	0.0886549	-0.0396078	0.0332499	-0.0128188	-1.08813	-0.345703	0.0187988	
80	-0.258166	-0.128235	0.370589	0.882933	-0.243509	8.11923	7.4252	0.0176637	0.038424	0.0484066	-0.227783	-0.584229	-0.831787	0.0966768	-0.0738174	-0.849578	-0.513247	2.61421	7.94271	-4.21682	0.00977571	0.0833219	-0.000617668	-0.451172	-0.934082	0.343506	0.727166	0.0941689	-0.679688	0.0196579	9.80205	0.762903	0.829677	0.202709	0.123425	-0.105576	-1.07397	-0.258789	-0.362305	0.653321	0.390498	-0.589287	0.270967	9.46172	2.43979	0.560141	0.0280903	-0.044615	-0.00888176	-0.992676	-0.424561	-0.25	0.076167	-0.606816	0.0872581	0.786358	-9.01539	0.48528	2.52851	-0.177292	-0.105363	-0.0456469	0.822021	-0.148193	-0.60083	0.417271	0.457492	0.396935	-0.677517	-9.49257	0.0942085	4.1783	-0.1071	-0.0886735	-0.0493679	0.880371	0.384033	-0.303955	0.0709775	0.164992	0.920542	0.346904	-0.339281	6.06964	-6.81037	0.192728	0.297201	-0.0143976	-0.337402	-0.568848	0.811768	0.941336	-0.204419	-0.154618	-0.21953	4.11477	-3.55035	9.50347	0.0741836	0.0670505	-0.051279	-0.0717773	0.4646	-0.9375	0.699733	0.19803	-0.670757	0.14575	9.75922	0.988622	0.267183	-0.0130788	0.0198559	-0.0179242	-1.07153	-0.243896	-0.236572	-0.337165	0.244386	0.760122	0.498808	7.58264	5.90946	-2.66061	0.0312636	0.0127409	-0.0280834	-0.986572	-0.33252	0.198486	0.2902	-0.29677	-0.633403	-0.653079	7.53299	6.36293	0.344882	0.0406597	0.0442813	-0.000641267	-1.09497	-0.339111	0.0163574	
81	-0.259635	-0.129717	0.370794	0.882199	-0.582786	7.20547	7.43104	0.0684433	0.0795108	0.00209502	-0.227539	-0.586426	-0.836182	0.0967666	-0.0736332	-0.850162	-0.512288	2.37463	8.79472	-4.20719	0.0386479	-0.0197524	-0.0333774	-0.446533	-0.940674	0.346191	0.727852	0.0992877	-0.678067	0.0244746	9.67717	0.78082	0.571714	0.274503	0.0455325	-7.65107e-05	-1.06958	-0.263184	-0.359863	0.653233	0.392426	-0.588158	0.270849	9.41534	2.06746	0.675874	0.168493	0.0369941	-0.0892466	-0.981201	-0.430908	-0.252197	0.0751203	-0.605109	0.0843239	0.788093	-10.2227	0.55454	2.37572	-0.0695127	-0.11474	-0.0396671	0.817627	-0.148193	-0.605469	0.418113	0.454124	0.399452	-0.677785	-9.63194	-0.0831128	4.26631	-0.108227	0.017705	-0.150093	0.87793	0.392578	-0.306396	0.066872	0.164574	0.921608	0.345083	0.174959	6.71511	-6.72957	0.0833788	0.0910454	0.012277	-0.337646	-0.562256	0.817871	0.941424	-0.2033	-0.154678	-0.220145	4.03327	-3.59425	9.49905	0.00129943	0.0025763	-0.030496	-0.0671387	0.458008	-0.944336	0.700645	0.195972	-0.67091	0.143426	9.86865	0.28259	0.218662	-0.132589	0.016972	-0.0464723	-1.06909	-0.246094	-0.23877	-0.336751	0.244728	0.759682	0.49959	7.23828	5.54765	-2.50849	-0.0338104	0.00263375	-0.000663628	-0.990967	-0.336914	0.19873	0.290851	-0.296508	-0.632726	-0.653564	7.44464	6.48072	0.27524	-0.0729272	0.0410612	0.00975907	-1.08813	-0.343506	0.0119629	
82	-0.25967	-0.131034	0.370769	0.882005	-0.650915	8.06293	7.68066	0.0320577	0.0901775	-0.0325241	-0.221191	-0.584229	-0.833984	0.0962516	-0.0733036	-0.849698	-0.513202	2.2469	8.36964	-4.43876	-0.0594749	0.00384098	-0.0472977	-0.453125	-0.938477	0.34375	0.727163	0.100282	-0.678593	0.0262464	9.90283	1.03	0.479663	-0.00434357	-0.0725957	0.0612332	-1.07593	-0.267334	-0.359863	0.653196	0.397228	-0.584611	0.271615	9.9042	0.922705	-0.617576	0.293026	0.0468916	-0.168718	-0.981201	-0.433105	-0.25	0.0766358	-0.603299	0.0844674	0.789318	-9.24223	0.115223	2.53533	0.11415	-0.0743849	-0.0519688	0.81543	-0.145996	-0.609863	0.417986	0.452145	0.402835	-0.677183	-9.69949	-1.45424	4.13285	0.0463136	0.0765426	-0.131489	0.869385	0.390625	-0.299805	0.0641034	0.163725	0.922005	0.344951	-0.074511	6.16476	-7.22525	0.0674545	0.240038	-0.0126119	-0.348633	-0.560303	0.811523	0.94133	-0.203756	-0.154562	-0.220208	4.30823	-3.59815	9.63309	-0.0356673	0.018463	-0.0156995	-0.0759277	0.4646	-0.939697	0.701094	0.195656	-0.670684	0.142722	10.132	0.458268	0.190075	-0.0576595	0.0376779	-0.0518328	-1.06909	-0.243896	-0.234375	-0.336751	0.244728	0.759682	0.49959	7.23828	5.54765	-2.50849	-0.0338104	0.00263375	-0.000663628	-0.990967	-0.336914	0.19873	0.290919	-0.296648	-0.632001	-0.654172	7.44895	6.1972	0.453944	-0.0673488	0.0358661	0.00850281	-1.09277	-0.343506	0.0141602	
83	-0.258291	-0.133818	0.37011	0.882268	-0.918989	7.67106	7.61719	0.0455379	0.0731022	-0.124097	-0.21875	-0.586426	-0.836182	0.0949721	-0.0739266	-0.849349	-0.513928	2.72796	8.59658	-4.60201	-0.0474231	-0.0109215	-0.0171754	-0.446777	-0.934082	0.343506	0.726443	0.0972882	-0.679882	0.0240074	9.78894	0.860118	0.572819	-0.18898	-0.0606823	-0.0364139	-1.08228	-0.260742	-0.35083	0.653428	0.39733	-0.584927	0.270225	10.1077	1.90049	-0.439837	-0.292765	-0.0472636	0.0234062	-0.98291	-0.441895	-0.247559	0.0822182	-0.601288	0.088009	0.789903	-9.72345	0.735194	2.48788	0.197502	-0.079227	-0.0980473	0.813477	-0.152588	-0.612305	0.4154	0.452375	0.402737	-0.678677	-10.0024	-0.690552	4.30129	0.0105852	0.0456158	-0.12728	0.873779	0.388428	-0.304199	0.0603313	0.163414	0.922668	0.344006	0.339628	6.20245	-7.05267	0.0766735	0.145013	0.0289775	-0.348633	-0.560303	0.815674	0.941239	-0.204341	-0.154226	-0.220293	4.05332	-3.59718	9.37813	0.0279806	0.0412872	-0.0175076	-0.0698242	0.473145	-0.9375	0.701223	0.196442	-0.670701	0.140914	9.76742	0.166709	0.0274957	0.033845	-0.00737101	-0.0922324	-1.07104	-0.25293	-0.23877	-0.3376	0.243742	0.758883	0.500712	7.14295	5.92542	-2.49395	0.00341363	0.0497599	0.00481298	-0.986572	-0.334717	0.189453	0.291341	-0.296365	-0.63161	-0.65449	7.32127	6.72476	0.168754	-0.0379432	0.0375102	0.000771926	-1.08813	-0.343506	0.00952148	
84	-0.256947	-0.133634	0.369563	0.882918	-0.935048	8.06059	7.54189	-0.0549062	-0.0711438	-0.0193994	-0.218506	-0.590576	-0.838135	0.0951557	-0.0735468	-0.849232	-0.514141	2.20654	8.48487	-4.44577	-0.0125416	0.0125441	-0.0447247	-0.446777	-0.936279	0.34375	0.726443	0.0972882	-0.679882	0.0240074	9.78894	0.860118	0.572819	-0.18898	-0.0606823	-0.0364139	-1.08228	-0.260742	-0.35083	0.652987	0.397883	-0.585654	0.268899	9.36599	2.21428	0.0991149	0.0753352	-0.0489478	-0.0497686	-0.980713	-0.444092	-0.247559	0.0836724	-0.601251	0.0887261	0.789699	-9.30024	0.591631	2.58179	0.115421	0.00957474	-0.0713063	0.81543	-0.145996	-0.603027	0.411719	0.45448	0.400406	-0.680889	-9.51152	-0.624872	4.27366	0.257857	0.111754	-0.0903482	0.875488	0.401367	-0.300293	0.0577457	0.163058	0.923047	0.3436	-0.159351	6.33545	-6.60163	0.0501487	0.0756737	-0.0223137	-0.35083	-0.558105	0.809326	0.941611	-0.20291	-0.154638	-0.219734	4.36125	-3.32778	9.7355	0.0422531	0.012386	-0.00140892	-0.0673828	0.466797	-0.942139	0.699677	0.20277	-0.669415	0.145674	10.0528	0.313765	0.333492	0.651125	0.00104304	-0.0958231	-1.0686	-0.259766	-0.234131	-0.337874	0.243977	0.758028	0.501707	7.23943	5.69576	-2.71421	-0.0474539	0.0574648	0.0102899	-0.984619	-0.328125	0.187012	0.291589	-0.296619	-0.629762	-0.656043	7.34481	6.39087	0.273785	-0.0510537	0.0621648	0.015111	-1.09058	-0.341309	0.0119629	
85	-0.256806	-0.130908	0.369321	0.883468	-0.348454	8.0841	7.4051	-0.0698318	-0.100162	0.0607535	-0.223145	-0.586426	-0.838379	0.0954559	-0.072817	-0.84854	-0.51533	2.1469	8.38301	-4.41773	-0.0571813	0.0453604	-0.0355857	-0.451172	-0.936279	0.341309	0.726164	0.094491	-0.680722	0.0193505	9.90512	1.14411	0.793301	-0.167714	0.0417109	-0.0769594	-1.07373	-0.258789	-0.355469	0.653576	0.397276	-0.5863	0.266951	9.89784	1.68334	0.121851	-0.0121519	-0.00968398	-0.0420321	-0.980713	-0.444092	-0.247559	0.0852029	-0.601531	0.0865252	0.789566	-9.68456	0.612179	2.72995	-0.0631324	0.00664091	-0.12884	0.81543	-0.145996	-0.605469	0.411678	0.455373	0.402456	-0.679107	-9.76189	-1.54007	4.04558	0.00533283	0.157997	-0.0348851	0.88208	0.401367	-0.293701	0.0548482	0.162707	0.923702	0.342479	0.0661455	6.31969	-6.9577	0.0989435	0.117992	0.00588168	-0.361572	-0.558105	0.815674	0.941181	-0.203562	-0.155882	-0.220094	3.46681	-2.70886	9.70574	-0.0473654	-0.048199	-0.0543457	-0.0693359	0.462402	-0.939697	0.695478	0.217749	-0.665367	0.161808	9.65318	0.352306	-0.176297	0.590368	-0.00976054	0.109119	-1.0708	-0.262207	-0.220703	-0.339621	0.242976	0.757398	0.501965	7.46618	6.10222	-2.57757	0.0407202	0.116134	0.01181	-0.989014	-0.33252	0.187256	0.287314	-0.303053	-0.619425	-0.664773	7.19722	5.85896	0.0876047	-0.786325	-0.0377119	0.0810343	-1.09302	-0.334717	-0.00878906	
86	-0.257993	-0.12981	0.368497	0.883628	-0.275401	7.18408	7.33438	-0.00621169	-0.00375366	0.0159034	-0.227539	-0.588623	-0.831787	0.0945303	-0.0723844	-0.84742	-0.517401	2.59018	8.61922	-3.99309	-0.148615	0.0244767	-0.0640398	-0.446533	-0.940674	0.339111	0.727033	0.0928463	-0.680106	0.016065	9.51115	0.761059	0.754806	-0.0925875	0.0134813	-0.0237296	-1.06958	-0.258789	-0.353271	0.652878	0.399406	-0.584803	0.268758	9.52828	2.68566	0.574704	-0.0427764	0.0404391	0.00641296	-0.974121	-0.444092	-0.243164	0.0857931	-0.601829	0.0851162	0.789428	-9.65454	0.048947	2.41884	-0.0621842	0.0180716	-0.120879	0.81958	-0.145996	-0.609863	0.40957	0.458272	0.402069	-0.67866	-9.63809	-0.123533	3.64906	0.00599828	0.132912	-0.0168211	0.875732	0.396973	-0.293701	0.0513091	0.163741	0.922758	0.34507	0.388799	5.98366	-6.70639	-0.113998	0.147537	0.0840598	-0.365967	-0.555908	0.807129	0.940586	-0.207057	-0.154402	-0.22042	4.69771	-3.43767	9.37839	-0.215552	0.0571522	-0.00617884	-0.0742188	0.470947	-0.935059	0.694789	0.216377	-0.666491	0.161988	9.32501	0.234578	-0.119925	-0.101027	-0.0690247	0.0302258	-1.0686	-0.257568	-0.2229	-0.341328	0.242416	0.75598	0.503213	7.31459	6.0469	-1.77208	-0.125596	0.0779859	0.0180865	-0.989014	-0.33252	0.184814	0.284809	-0.305082	-0.617528	-0.666684	7.48392	6.76547	0.437419	-0.106338	-0.0838154	-0.017677	-1.08862	-0.334717	-0.00195312	
