40	Head	00b4120a												Throax	00b411e8												LUpArm	00b411d9												LFoArm	00b41148												RUpArm	00b411db												RFoArm	00b41204												Waist	00b411f7												Lthigh	00b411f4												Lshank	00b4111b												Rthigh	00b411c8												Rshank	00b411ee												
PacketCount	q0	q1	q2	q3	accX	accY	accZ	gyrX	gyrY	gyrZ	magX	magY	magZ	q0	q1	q2	q3	accX	accY	accZ	gyrX	gyrY	gyrZ	magX	magY	magZ	q0	q1	q2	q3	accX	accY	accZ	gyrX	gyrY	gyrZ	magX	magY	magZ	q0	q1	q2	q3	accX	accY	accZ	gyrX	gyrY	gyrZ	magX	magY	magZ	q0	q1	q2	q3	accX	accY	accZ	gyrX	gyrY	gyrZ	magX	magY	magZ	q0	q1	q2	q3	accX	accY	accZ	gyrX	gyrY	gyrZ	magX	magY	magZ	q0	q1	q2	q3	accX	accY	accZ	gyrX	gyrY	gyrZ	magX	magY	magZ	q0	q1	q2	q3	accX	accY	accZ	gyrX	gyrY	gyrZ	magX	magY	magZ	q0	q1	q2	q3	accX	accY	accZ	gyrX	gyrY	gyrZ	magX	magY	magZ	q0	q1	q2	q3	accX	accY	accZ	gyrX	gyrY	gyrZ	magX	magY	magZ	q0	q1	q2	q3	accX	accY	accZ	gyrX	gyrY	gyrZ	magX	magY	magZ	
0	-0.553863	0.435987	0.382466	0.597387	9.50063	-0.121779	3.09782	0.0164836	0.0290797	-0.0168519	-0.803955	0.447266	-0.232422	0.541666	-0.420229	-0.418638	-0.595606	9.2449	0.541599	2.88938	-0.0121252	0.0663386	-0.0051923	-0.76416	0.272705	-0.195557	0.646593	-0.384778	-0.435226	-0.494412	9.22366	-0.457913	3.5193	-0.0491722	0.0553496	-0.0138304	-0.898438	0.366699	-0.411377	0.200544	0.361166	0.00551071	-0.910665	-6.42052	1.16722	6.94621	-0.0488726	0.000196473	-0.057503	0.338379	0.103516	-0.988037	-0.408343	0.549262	0.304244	0.662573	9.57992	-0.245386	1.99308	0.00831733	0.0566037	0.00872726	-0.909668	0.399414	-0.0224609	0.896305	-0.227688	0.248182	0.288445	-6.1283	-4.32562	9.59964	0.0782099	0.00691713	0.0353024	0.916992	0.327637	-0.347412	-0.351148	0.502666	0.567379	0.549639	8.89158	2.34038	-0.609203	0.070154	0.0574354	-0.0266736	-0.957031	0.146973	0.189209	0.383979	-0.506965	-0.381495	-0.670827	9.80602	1.32073	2.1393	0.0564389	-0.0175555	-0.0862595	-1.02271	0.283447	-0.0358887	0.427816	-0.47102	-0.605888	-0.477509	9.25462	3.01155	-1.01926	-0.403467	0.0651295	-0.032588	-1.05054	0.201904	0.153809	-0.235682	0.289557	0.104033	0.921839	5.60561	0.712739	8.35793	0.0187436	0.000761781	0.0029708	-0.826172	0.162842	-0.567383	-0.120093	-0.970119	-0.187241	0.0968901	-2.06139	2.23616	-9.1086	-0.000394024	0.00732779	-0.0163077	0.597656	-0.0302734	0.858398	
1	-0.553949	0.435768	0.382381	0.597521	9.89951	-0.120322	3.29943	0.00513709	0.018824	-0.0070397	-0.80835	0.449463	-0.234619	0.541826	-0.419361	-0.418395	-0.596244	9.47538	0.538187	3.20846	0.00574403	0.0490415	-0.0454587	-0.761963	0.270508	-0.193115	0.646681	-0.384455	-0.435077	-0.494678	9.38511	-0.512565	3.49799	0.00812988	0.031101	-0.0152115	-0.900635	0.369141	-0.40918	0.1994	0.36135	0.00598689	-0.91084	-6.50742	1.06749	7.1461	0.00503215	0.0199807	-0.0381838	0.338135	0.110107	-0.990479	-0.408335	0.549129	0.303863	0.662863	9.56373	-0.171423	1.98511	-0.026605	0.0404863	-0.00905424	-0.907715	0.401611	-0.0270996	0.896604	-0.22593	0.24896	0.288227	-6.29597	-4.09532	9.63203	0.0861205	0.0563311	-0.0135326	0.919189	0.327637	-0.343018	-0.350333	0.503198	0.568112	0.548915	9.08012	2.50005	-0.897134	0.0596435	0.0128778	-0.027478	-0.957031	0.144775	0.195557	0.383153	-0.506612	-0.383499	-0.670423	9.99856	1.23098	2.82836	0.0292862	0.0233255	-0.112932	-1.02686	0.276855	-0.03125	0.424832	-0.473719	-0.602668	-0.481559	9.69307	0.203974	-1.93652	-0.518849	0.0232431	-0.0197759	-1.06201	0.201904	0.156006	-0.235626	0.289276	0.104256	0.921917	6.13714	0.941697	8.47122	0.0047503	0.0254052	0.00648345	-0.828369	0.162842	-0.565186	-0.121197	-0.970047	-0.187052	0.0966026	-2.19518	1.65194	-9.4012	-0.0246541	0.0126302	0.0213607	0.599854	-0.027832	0.858154	
2	-0.554195	0.435569	0.381276	0.598144	9.74762	-0.180344	3.35849	-0.0340364	0.0395957	0.00749129	-0.806152	0.449463	-0.236816	0.540816	-0.420494	-0.419158	-0.595826	9.71799	0.479761	3.19371	-0.0126076	-0.0603261	-0.0158601	-0.761963	0.272705	-0.193359	0.646424	-0.38362	-0.435963	-0.494883	9.7878	-0.401138	3.63449	0.0274386	-0.0172941	-0.0460285	-0.900635	0.364746	-0.408936	0.198003	0.362361	0.00334199	-0.910757	-6.60106	1.39454	7.51903	0.153617	0.0286547	0.0084821	0.338379	0.105713	-0.990479	-0.407502	0.550131	0.302527	0.663156	10.0364	-0.483959	2.01351	-0.0649411	-0.0189848	0.00436711	-0.912109	0.406006	-0.0249023	0.896578	-0.226201	0.249095	0.28798	-6.51206	-3.9334	9.66898	-0.00082616	0.0498462	-0.0284978	0.917236	0.323486	-0.345215	-0.348511	0.505224	0.568176	0.548148	10.0677	2.74886	-1.53349	-0.0391544	-0.0402774	-0.00188965	-0.959229	0.144775	0.199951	0.382485	-0.506371	-0.384387	-0.670477	10.044	1.35853	2.11459	0.019805	-0.0273255	-0.0158356	-1.02686	0.28125	-0.0358887	0.422015	-0.476307	-0.600201	-0.484556	9.50799	2.06248	-1.27748	-0.371201	-0.0464587	-0.00236143	-1.05493	0.199463	0.165039	-0.234853	0.290015	0.102721	0.922054	6.03402	0.679329	8.66401	-0.0906399	-0.0119978	-0.00209907	-0.828369	0.165039	-0.565186	-0.119406	-0.970367	-0.186251	0.0971666	-2.19522	2.51852	-9.4077	0.0384153	-0.0106887	0.00994881	0.594971	-0.0236816	0.862793	
3	-0.553772	0.435906	0.380478	0.598798	9.53147	-0.355242	3.23275	-0.0373246	0.00695548	-0.0113974	-0.805908	0.445312	-0.240967	0.539911	-0.421214	-0.419434	-0.595945	9.47371	0.483004	2.97282	-0.0470434	0.0191055	-0.0270128	-0.755371	0.268555	-0.186035	0.645739	-0.3841	-0.437039	-0.494455	9.79135	-0.480835	3.639	0.013563	-0.0611115	0.00561435	-0.900635	0.364746	-0.404297	0.19786	0.363125	0.0013521	-0.910489	-6.55492	1.38137	7.39546	0.0834952	0.0193117	0.0195086	0.34082	0.101318	-0.994629	-0.406075	0.551662	0.302331	0.662848	9.79464	-0.215291	2.1744	-0.0781406	-0.0507351	-0.0343217	-0.914062	0.399414	-0.015625	0.89597	-0.230507	0.249147	0.286408	-6.38037	-4.60645	9.70588	-0.00871914	0.0769335	-0.0751396	0.912842	0.329834	-0.33667	-0.347976	0.505976	0.568477	0.54748	8.97686	1.97006	-1.1121	0.0373011	-0.0634006	0.000703677	-0.956787	0.142578	0.204102	0.381585	-0.505374	-0.383291	-0.672367	9.61961	1.46181	2.22272	-0.0725817	0.114702	-0.0909567	-1.02881	0.274658	-0.0334473	0.418048	-0.480446	-0.596986	-0.487868	9.26912	1.77237	-1.48112	-0.261944	-0.068436	0.00718492	-1.05493	0.199463	0.165039	-0.23387	0.289816	0.10248	0.922393	6.34094	0.666203	8.63081	0.0106124	0.0462816	-0.0371621	-0.828369	0.162842	-0.565186	-0.119734	-0.970532	-0.185282	0.0969625	-1.88852	1.92552	-9.4559	0.0256191	0.0246251	0.0439637	0.602051	-0.0300293	0.862793	
4	-0.553632	0.43621	0.380019	0.598998	9.49801	-0.271894	3.22393	-0.0230734	-0.00864687	0.013754	-0.803711	0.443115	-0.230225	0.539855	-0.421413	-0.418487	-0.596521	9.37314	0.438804	2.83171	-0.0677014	0.0631951	-0.00300897	-0.76416	0.270508	-0.188477	0.645379	-0.384926	-0.436579	-0.494689	9.18429	-0.555322	3.78399	-0.0520612	0.00382209	0.0047439	-0.898438	0.368896	-0.4021	0.196794	0.362974	0.000866579	-0.91078	-6.49875	1.12149	7.17351	0.0440837	-0.0177285	-0.0461629	0.336426	0.0969238	-0.994629	-0.405292	0.552099	0.301052	0.663546	9.57656	-0.650389	1.98328	-0.0347955	0.0541011	0.00201244	-0.91626	0.401611	-0.0180664	0.896747	-0.228067	0.25014	0.28506	-6.43787	-4.03319	9.51121	0.11472	0.0285165	-0.0187973	0.921143	0.334229	-0.336914	-0.346001	0.508141	0.569428	0.545736	9.80923	2.79994	-1.30351	-0.015546	-0.129083	-0.00633602	-0.952881	0.148926	0.208252	0.380839	-0.506018	-0.381793	-0.673158	9.98528	1.4391	2.01944	-0.0731069	0.00782665	0.013513	-1.02905	0.276855	-0.0405273	0.417099	-0.481594	-0.597828	-0.486516	9.7433	0.983415	-2.1536	0.174573	-0.0540351	-0.0148063	-1.05273	0.199463	0.169434	-0.233426	0.288385	0.102294	0.922975	5.77667	0.842518	8.63373	-0.0421999	0.0609612	-0.0246345	-0.825928	0.160645	-0.562988	-0.118342	-0.970979	-0.184242	0.0961722	-2.21987	2.04248	-9.33385	0.0621979	0.0376019	0.0291906	0.597412	-0.0280762	0.86499	
5	-0.553318	0.437751	0.379664	0.598388	9.74626	-0.335857	3.20232	-0.0385015	-0.0455528	0.0353796	-0.801758	0.45166	-0.230225	0.539027	-0.422451	-0.417945	-0.596915	9.5363	0.378467	3.01666	-0.0521074	-0.01312	-0.00872831	-0.759766	0.272705	-0.183838	0.644706	-0.385625	-0.435305	-0.496142	9.68055	-0.424149	3.6111	-0.0866398	0.0389416	-0.0166872	-0.898438	0.362549	-0.404297	0.195679	0.362799	0.000170509	-0.911091	-6.54293	1.23199	7.33423	0.0793917	-0.0233707	-0.0631469	0.341064	0.0925293	-0.994629	-0.406895	0.55063	0.301468	0.663596	9.92168	-0.260732	1.99264	0.0595655	0.0425066	-0.00484968	-0.905273	0.399414	-0.0224609	0.896866	-0.227579	0.250624	0.284651	-6.61632	-4.28525	9.6968	0.0308226	0.0558108	-0.0182428	0.92334	0.334229	-0.334717	-0.344694	0.509408	0.568828	0.546008	9.17161	2.50645	-1.08194	-0.0534504	-0.057409	-0.0226671	-0.957275	0.148926	0.208252	0.380446	-0.508251	-0.381316	-0.671967	9.98665	1.21586	2.12871	-0.0142187	-0.0633328	0.0387368	-1.02905	0.279053	-0.0336914	0.418269	-0.481213	-0.598826	-0.484657	9.54123	1.13937	-1.98753	0.0976976	0.00171611	0.0147668	-1.05054	0.201904	0.165039	-0.232059	0.28813	0.100555	0.92359	5.74916	0.458193	8.37353	-0.0590574	0.0350723	-0.040583	-0.828369	0.165039	-0.567627	-0.118056	-0.971167	-0.183601	0.0958522	-2.4598	2.24553	-9.08047	-0.0147945	0.00901376	0.0256971	0.594971	-0.0214844	0.862793	
6	-0.553092	0.438757	0.378452	0.598628	9.65085	-0.450482	3.18942	-0.06238	0.0158517	0.0173798	-0.801758	0.447266	-0.230225	0.538591	-0.422492	-0.417653	-0.597483	9.56395	0.356411	3.15855	-0.034246	0.0346038	-0.0317999	-0.76416	0.270508	-0.186035	0.64406	-0.386668	-0.433823	-0.497465	9.43799	-0.612331	3.54294	-0.0600892	0.0198401	-0.000504198	-0.902832	0.366943	-0.404541	0.193985	0.36265	-0.000295696	-0.911512	-6.47195	1.25929	7.41466	0.0228588	-0.00322733	-0.0497666	0.336426	0.0969238	-0.988037	-0.404387	0.552866	0.29897	0.6644	9.72169	-0.46033	2.18265	-0.219946	-0.0320195	-0.0132575	-0.912354	0.408203	-0.0202637	0.896949	-0.227513	0.251011	0.2841	-6.57834	-4.16964	9.60291	0.0365917	0.0629413	-0.0388541	0.914795	0.332031	-0.338867	-0.342591	0.510984	0.569274	0.545393	9.47974	2.3222	-1.43543	0.0206901	-0.0759317	-0.0396072	-0.95459	0.140381	0.217041	0.379979	-0.508758	-0.379769	-0.672724	9.74671	1.21848	2.03332	-0.0659522	0.0274117	-0.000478849	-1.03125	0.28125	-0.0288086	0.420252	-0.479635	-0.600783	-0.482077	9.39768	1.85773	-1.63615	0.0556841	0.00444849	-0.0270277	-1.05078	0.20874	0.164795	-0.231258	0.288985	0.102114	0.923353	5.85649	0.586507	8.27752	0.0525994	-0.0471373	-0.030615	-0.825684	0.15625	-0.562744	-0.120601	-0.970903	-0.182965	0.0965712	-2.20012	1.76448	-9.08288	-0.0744784	-0.054026	0.0172488	0.600098	-0.0368652	0.860596	
7	-0.552794	0.438946	0.378034	0.599029	9.57589	-0.556017	3.23801	-0.0504697	0.0116367	-0.0122572	-0.806641	0.458252	-0.228271	0.538255	-0.422585	-0.417323	-0.597951	9.44625	0.387881	3.16078	-0.0390036	0.0286665	-0.0358241	-0.761963	0.270508	-0.183838	0.644143	-0.38655	-0.433484	-0.497746	9.36124	-0.4965	3.52185	-0.0101741	0.0336613	-0.00274234	-0.902832	0.371338	-0.406738	0.192921	0.362475	-0.000615354	-0.911808	-6.37782	1.27632	7.15552	0.027847	-0.0103468	-0.0306722	0.334229	0.0969238	-0.990234	-0.403272	0.553689	0.298242	0.66472	9.57206	-0.681366	2.2375	-0.128406	-0.0250504	-0.0317058	-0.909912	0.401611	-0.0134277	0.897103	-0.228009	0.251293	0.282965	-6.4055	-4.09973	9.62887	0.00915857	0.0519193	-0.0555064	0.916992	0.329834	-0.334717	-0.342231	0.511089	0.570128	0.544629	9.10173	2.39463	-1.31303	0.0716747	-0.0637292	-0.0436804	-0.952637	0.144775	0.218994	0.379966	-0.508961	-0.379146	-0.672929	9.67592	1.15146	1.98945	-0.0402051	0.033532	0.0075653	-1.02905	0.279053	-0.03125	0.420252	-0.479635	-0.600783	-0.482077	9.39768	1.85773	-1.63615	0.0556841	0.00444849	-0.0270277	-1.05078	0.20874	0.164795	-0.231068	0.289562	0.102608	0.923165	5.91205	0.722238	8.5923	0.0220258	-0.0431503	-0.0125119	-0.837158	0.1604	-0.567383	-0.120713	-0.970852	-0.182829	0.0972038	-2.21969	1.9576	-9.14578	0.00439364	-0.0458013	-0.00198731	0.593262	-0.0324707	0.85376	
8	-0.552575	0.438022	0.378247	0.599772	9.55496	-0.468787	3.26358	0.0397676	0.0311749	-0.0503441	-0.801758	0.45166	-0.228271	0.537681	-0.422357	-0.41742	-0.59856	9.23317	0.527933	2.928	-0.0285077	-0.00919141	-0.0110953	-0.761719	0.268311	-0.190674	0.644427	-0.386664	-0.432844	-0.497847	9.21209	-0.570027	3.51932	0.023047	-0.0210333	0.012156	-0.89209	0.375244	-0.402344	0.192105	0.36232	-0.00136298	-0.912041	-6.30391	1.50712	7.11315	0.0244937	-0.00506526	-0.00866469	0.332275	0.0947266	-0.990234	-0.404652	0.552611	0.299614	0.664161	9.44538	-0.571369	2.01847	0.108007	0.0444132	-0.000258029	-0.907715	0.401611	-0.0202637	0.89755	-0.226988	0.251116	0.282525	-6.24818	-3.92289	9.50007	0.0624389	-0.00460731	-0.00307981	0.921143	0.334229	-0.33252	-0.340422	0.512221	0.572863	0.541822	9.16546	2.61626	-1.13582	0.0752094	-0.193775	-0.0602822	-0.950439	0.142578	0.229736	0.380088	-0.508417	-0.380466	-0.672526	9.61395	1.50704	1.93634	0.0693475	-0.00209987	-0.0639456	-1.02686	0.28125	-0.0266113	0.421382	-0.477849	-0.600328	-0.483429	9.37826	1.02381	-1.88347	-0.0650981	0.0673624	-0.025179	-1.05762	0.204102	0.162598	-0.231614	0.290835	0.103917	0.922481	5.9822	0.748493	8.46227	0.0669311	-0.0362208	0.033449	-0.832275	0.154053	-0.562744	-0.121161	-0.970658	-0.18315	0.0979781	-1.94483	2.29332	-9.18943	-0.00419664	-0.0166995	-0.0280236	0.600098	-0.0368652	0.85376	
9	-0.553363	0.436828	0.378672	0.599648	9.43912	-0.291219	3.31005	0.0578383	0.0120398	0.00011634	-0.806152	0.449463	-0.234619	0.538429	-0.421987	-0.418323	-0.597517	9.4975	0.373289	3.00538	0.0801623	-0.0141506	0.00554055	-0.761719	0.266113	-0.188232	0.644465	-0.386668	-0.433237	-0.497452	9.2946	-0.48242	3.41967	0.0352569	-0.0312314	0.0103531	-0.896484	0.371094	-0.40918	0.192221	0.362126	-0.0011235	-0.912093	-6.35336	1.44511	7.053	-0.0236478	-0.00324076	0.00399177	0.334473	0.0947266	-0.988037	-0.405976	0.55151	0.300743	0.663757	9.67683	-0.452806	1.97191	0.160556	0.0433558	-0.00570512	-0.907715	0.401611	-0.0224609	0.897287	-0.227545	0.249632	0.284224	-6.45167	-4.23016	9.57838	-0.0785611	-0.0305731	0.0368222	0.916992	0.329834	-0.33252	-0.339604	0.513162	0.573557	0.540709	9.46251	2.50229	-1.79613	0.0387489	0.06338	-0.00943747	-0.948242	0.142578	0.227539	0.380389	-0.509343	-0.382278	-0.670625	9.84274	1.44851	2.23811	0.0743614	-0.0769236	0.00213899	-1.0249	0.283447	-0.0266113	0.422328	-0.476727	-0.600404	-0.483618	9.6104	2.02437	-1.46026	0.072948	0.101556	-0.0461527	-1.05029	0.199707	0.160645	-0.231647	0.291566	0.105007	0.922119	5.93795	0.661655	8.5648	0.0354302	-0.032795	-0.00820328	-0.826172	0.162842	-0.560547	-0.123231	-0.970263	-0.183754	0.0981725	-2.17669	2.07677	-9.35743	-0.0947674	-0.0188942	-0.0237751	0.602539	-0.0390625	0.854004	
10	-0.553969	0.436211	0.379596	0.598953	9.57718	-0.275022	3.23893	0.0544081	-0.00952714	0.00149523	-0.806152	0.447266	-0.230225	0.538802	-0.421844	-0.418706	-0.597014	9.39496	0.447196	3.03796	0.0171686	0.0291878	-0.00300283	-0.759766	0.268311	-0.188477	0.643774	-0.387843	-0.432862	-0.497757	9.6421	-0.480382	3.52477	-0.0769257	-0.0137809	0.000349215	-0.902832	0.373291	-0.400146	0.192272	0.362521	-0.00247445	-0.911923	-6.4026	1.45891	7.29934	0.0211097	0.0123392	0.0275214	0.334473	0.0947266	-0.990234	-0.407314	0.550778	0.30261	0.662697	9.65733	-0.142003	1.9386	0.0540594	-0.023122	-0.00810696	-0.911865	0.397217	-0.0249023	0.897328	-0.227346	0.249095	0.284724	-6.32986	-4.20839	9.57453	0.03129	0.0122176	-0.00231904	0.915039	0.327637	-0.33667	-0.339667	0.512926	0.574625	0.539759	9.06553	2.34084	-1.61934	0.0736505	-0.0239239	-0.0321695	-0.943848	0.142578	0.223389	0.379741	-0.509508	-0.383999	-0.669884	9.79574	1.33171	2.25578	0.0432201	-0.0245334	-0.0540925	-1.02661	0.274658	-0.0241699	0.421144	-0.477841	-0.597047	-0.487689	9.33941	1.53976	-1.27546	-0.255647	0.0586088	-0.00532047	-1.05518	0.204102	0.1604	-0.232308	0.291603	0.106577	0.92176	5.92817	0.810723	8.61525	0.0630999	0.0163536	0.00654965	-0.830078	0.151855	-0.564941	-0.124175	-0.970018	-0.184486	0.0980381	-2.03655	2.09261	-9.29514	-0.029679	0.017077	-0.0316993	0.604736	-0.0366211	0.858398	
11	-0.554682	0.43557	0.3801	0.598441	9.44885	-0.209071	3.19256	0.0390452	-0.00346118	0.0134558	-0.803955	0.449463	-0.234619	0.539166	-0.422264	-0.418387	-0.596612	9.351	0.381042	2.80049	0.00312814	-0.013475	0.0185368	-0.757568	0.268311	-0.195557	0.643805	-0.388597	-0.433031	-0.496982	9.3136	-0.776079	3.43609	0.0451553	-0.0394081	0.0519784	-0.898682	0.375488	-0.400146	0.193112	0.362055	-0.00253384	-0.91193	-6.33647	1.28835	7.14141	-0.00317751	-0.0180345	0.0384993	0.341064	0.0947266	-0.994629	-0.406757	0.551677	0.302306	0.662429	9.46802	-0.586859	1.80436	-0.0151066	-0.0139894	-0.00184064	-0.912354	0.408203	-0.0224609	0.897254	-0.227679	0.248522	0.285191	-6.33017	-4.16202	9.34873	-0.0356366	0.00766319	0.00436906	0.921387	0.327637	-0.338867	-0.340043	0.512748	0.575652	0.538596	9.23728	2.67879	-1.70768	0.072235	-0.0344775	-0.0227968	-0.948486	0.146729	0.231689	0.379452	-0.509095	-0.384616	-0.670007	9.70685	1.24184	2.45754	0.0148744	0.041464	-0.0562056	-1.03345	0.279053	-0.0288086	0.419338	-0.479333	-0.59453	-0.490846	9.36115	2.48097	-1.133	-0.21985	0.0284297	-0.0219225	-1.05273	0.197266	0.156006	-0.232965	0.291267	0.107989	0.921536	6.13528	0.958542	8.51104	0.0483802	0.0281165	0.0185298	-0.828125	0.15625	-0.560547	-0.124502	-0.96997	-0.184702	0.0976848	-2.04976	1.67543	-9.3138	0.0242234	0.0199343	-0.00331454	0.602539	-0.0412598	0.863037	
12	-0.554653	0.436237	0.380612	0.597655	9.69761	-0.338909	3.18473	0.000855847	-0.0576253	0.0178654	-0.803955	0.44751	-0.236816	0.538679	-0.42338	-0.419442	-0.595519	9.69256	0.457788	2.89835	0.0311604	-0.0799703	-0.00705217	-0.757812	0.279297	-0.186523	0.644697	-0.388322	-0.434142	-0.495068	9.48212	-0.424855	3.55414	0.0623344	-0.0330124	0.0320787	-0.898682	0.373291	-0.395508	0.193728	0.361364	-0.00358012	-0.91207	-6.5531	1.5058	7.32666	0.0294704	-0.0284767	0.0402728	0.33667	0.0925293	-0.994629	-0.409025	0.550748	0.3041	0.660983	9.85219	-0.277833	1.72233	0.146025	-0.000432786	0.023828	-0.91626	0.399414	-0.0202637	0.896671	-0.229693	0.247567	0.286239	-6.47035	-4.32268	9.58983	-0.11115	0.0177132	0.00461859	0.923584	0.327637	-0.33667	-0.34018	0.512914	0.576064	0.53791	9.5283	2.90841	-1.72554	0.00531236	0.0059819	0.00402549	-0.948242	0.144531	0.229736	0.378899	-0.508929	-0.385177	-0.670123	10.2344	1.40641	2.35175	-0.0128548	0.00842423	-0.0383279	-1.0332	0.276855	-0.0217285	0.417813	-0.480571	-0.593176	-0.492571	9.86685	0.753428	-1.43511	0.0902911	-0.00492257	-0.033648	-1.05493	0.195068	0.165039	-0.232203	0.29084	0.106572	0.922028	5.94092	0.955285	8.53054	-0.0598626	0.0384817	-0.016155	-0.830078	0.154053	-0.567383	-0.12314	-0.970334	-0.183834	0.0974335	-2.20292	2.25918	-9.39976	0.0462891	0.0122024	0.0352346	0.604736	-0.0412598	0.858398	
13	-0.554026	0.437441	0.381261	0.596943	9.8881	-0.347521	3.08657	-0.015646	-0.0634761	0.00769395	-0.80835	0.449463	-0.230469	0.537648	-0.424692	-0.419917	-0.595182	9.80601	0.446158	3.06287	-0.0281564	-0.0327776	-0.0255331	-0.759766	0.270508	-0.186035	0.644002	-0.389736	-0.433498	-0.495426	9.92156	-0.499593	3.52348	-0.0940738	-0.00690934	0.0156089	-0.900635	0.371094	-0.397705	0.193966	0.361151	-0.004051	-0.912102	-6.64119	1.46523	7.51696	0.025295	-0.017327	0.0340314	0.33252	0.0881348	-0.996582	-0.408818	0.551914	0.303841	0.660257	10.1261	-0.100385	1.90244	-0.0964222	-0.0505562	0.00549184	-0.912109	0.403809	-0.0202637	0.896058	-0.232445	0.247317	0.286154	-6.58457	-4.62777	9.80688	-0.0500264	0.0718993	-0.0519707	0.916992	0.334229	-0.330322	-0.340834	0.512516	0.573918	0.540164	9.4704	2.32782	-1.5481	-0.0491669	0.157771	-0.00616555	-0.950684	0.148926	0.225342	0.37867	-0.509249	-0.383519	-0.670961	9.89105	1.35555	2.27407	-0.0647658	0.0549119	0.00211096	-1.03101	0.272461	-0.0288086	0.415774	-0.482835	-0.591723	-0.493828	9.56363	1.56918	-1.53048	-0.200991	-0.0503943	0.0100596	-1.05273	0.197266	0.162842	-0.230919	0.291241	0.105387	0.92236	6.08508	0.433695	8.56097	-0.0683675	0.00618961	-0.025792	-0.832275	0.154053	-0.560547	-0.123273	-0.970546	-0.18256	0.0975499	-2.20491	1.925	-9.3717	0.0119515	-0.00338462	0.0422358	0.602539	-0.0412598	0.858398	
14	-0.553296	0.438339	0.381517	0.596798	9.67107	-0.434924	2.95557	-0.017929	-0.0439359	-0.0156619	-0.80835	0.449463	-0.230469	0.537355	-0.424776	-0.419359	-0.595779	9.68423	0.456029	3.0388	-0.0561004	0.0443799	-0.0330858	-0.766357	0.272705	-0.183838	0.644214	-0.389782	-0.433852	-0.494804	9.47466	-0.666642	3.61766	0.0222326	-0.0159517	0.0165935	-0.896484	0.373291	-0.395508	0.194665	0.360852	-0.00420757	-0.912071	-6.58068	1.45089	7.41865	-0.0266215	0.000113926	0.0200662	0.334717	0.090332	-0.999023	-0.405565	0.554767	0.30136	0.661009	9.7579	-0.46123	2.14016	-0.20053	-0.0414717	-0.0220482	-0.912109	0.406006	-0.0134277	0.896091	-0.232868	0.247746	0.285333	-6.53515	-4.42126	9.73355	0.0094937	0.0833342	-0.0681696	0.919189	0.332031	-0.330322	-0.343509	0.510755	0.571372	0.542831	9.41204	2.25926	-1.57402	-0.0283566	0.207106	0.0216751	-0.952637	0.142578	0.217041	0.377567	-0.508671	-0.381227	-0.673322	9.6245	1.39791	1.86578	-0.0989544	0.0789642	-0.0515326	-1.02637	0.270264	-0.0288086	0.416023	-0.482573	-0.592619	-0.492799	9.64445	1.30816	-1.73488	0.107676	-0.0393445	-0.0224385	-1.05029	0.197266	0.160645	-0.229754	0.291411	0.105828	0.922547	6.09885	0.759588	8.53579	0.0183553	0.0005041	-0.0507533	-0.834473	0.151855	-0.567139	-0.123023	-0.970793	-0.181174	0.0979933	-2.02202	2.13798	-9.28502	-0.00542158	-0.0117999	0.0470053	0.604736	-0.0390625	0.86084	
15	-0.552731	0.438897	0.381524	0.596906	9.80354	-0.370309	2.98982	-0.0318114	-0.00365983	-0.00286181	-0.803711	0.445068	-0.223877	0.535902	-0.425466	-0.416199	-0.598804	9.36558	0.426622	2.90124	-0.105232	0.0749008	-0.0403125	-0.759766	0.270508	-0.186035	0.644997	-0.388365	-0.433783	-0.494959	9.20838	-0.429261	3.71696	0.029404	0.0492386	-0.0131304	-0.896484	0.377686	-0.400146	0.193665	0.360573	-0.00372324	-0.912396	-6.38104	1.43949	7.22794	-0.0174072	-0.00125141	-0.0491936	0.330078	0.0925293	-0.996826	-0.405306	0.554853	0.299339	0.662013	9.64606	-0.584235	2.07593	-0.0379549	0.0905785	0.0143802	-0.903564	0.406006	-0.0202637	0.896869	-0.231231	0.24909	0.28304	-6.38688	-4.15861	9.52318	0.118901	0.0310056	-0.0231609	0.918945	0.336426	-0.330566	-0.344193	0.510237	0.56989	0.54444	8.9001	2.57526	-1.02874	-0.0471619	0.0237542	-0.00366862	-0.952881	0.146729	0.218994	0.377449	-0.509825	-0.380206	-0.673092	10.0931	1.38196	2.27847	-0.0319245	-0.00199786	0.0469773	-1.02661	0.274658	-0.03125	0.416071	-0.482383	-0.594186	-0.491055	9.63073	0.910471	-2.13696	0.096987	-0.0280776	-0.0160907	-1.05054	0.201904	0.167236	-0.228952	0.290581	0.105855	0.923005	5.84648	0.69011	8.57904	-0.028627	0.0530076	-0.030982	-0.827881	0.154053	-0.558105	-0.12314	-0.970985	-0.180406	0.0973561	-2.23149	1.99173	-9.34551	-0.00192892	0.0302358	0.0206071	0.600098	-0.0390625	0.86084	
16	-0.552667	0.438912	0.38084	0.597392	9.87386	-0.391777	3.16398	-0.0496087	0.0424507	-0.000700155	-0.801758	0.449463	-0.22168	0.535902	-0.425466	-0.416199	-0.598804	9.36558	0.426622	2.90124	-0.105232	0.0749008	-0.0403125	-0.759766	0.270508	-0.186035	0.644401	-0.388733	-0.432336	-0.49671	9.31034	-0.444008	3.55257	-0.107005	0.0451007	-0.0326709	-0.898682	0.379883	-0.402588	0.192896	0.360476	-0.00290359	-0.912601	-6.33733	1.25601	7.13546	-0.0382121	0.0082862	-0.0793206	0.334473	0.0947266	-0.992432	-0.405858	0.553123	0.298846	0.663344	9.73423	-0.480919	2.00634	0.009479	0.0934355	-0.0232463	-0.916504	0.406006	-0.015625	0.897288	-0.229888	0.249138	0.282766	-6.43978	-4.17868	9.41491	0.123576	-0.00128174	-0.00900485	0.919189	0.332031	-0.330322	-0.34294	0.511611	0.570058	0.543764	9.29851	2.63717	-1.50649	-0.0338715	-0.137086	0.000920675	-0.948242	0.144775	0.218994	0.377591	-0.510163	-0.379628	-0.673083	9.89139	1.30717	1.99569	-0.0292533	0.0203398	0.0250067	-1.02881	0.276855	-0.0266113	0.420851	-0.478173	-0.598463	-0.485878	9.49187	2.43914	-1.12847	0.300576	0.0440188	-0.0142953	-1.05518	0.201904	0.1604	-0.228639	0.290573	0.105332	0.923145	5.87798	0.733566	8.41763	-0.0479587	0.0251702	-0.00985884	-0.834473	0.151855	-0.564941	-0.123231	-0.970993	-0.180413	0.0971507	-2.26305	1.86309	-9.22544	-0.00694479	0.0210414	-0.00315462	0.602539	-0.0412598	0.856201	
17	-0.552126	0.439032	0.37954	0.59863	9.58765	-0.360676	3.22411	-0.067384	0.0250119	-0.0229544	-0.804199	0.45166	-0.223877	0.535902	-0.425466	-0.416199	-0.598804	9.36558	0.426622	2.90124	-0.105232	0.0749008	-0.0403125	-0.759766	0.270508	-0.186035	0.643605	-0.389596	-0.431075	-0.498157	9.54863	-0.490742	3.42605	-0.165115	0.048172	-0.0364142	-0.900879	0.379883	-0.402588	0.19044	0.360979	-0.00321726	-0.912916	-6.41971	1.18803	7.31861	0.0690792	0.0212549	-0.075094	0.334473	0.0925293	-0.996826	-0.40563	0.552788	0.298797	0.663785	9.84184	-0.363533	1.94307	-0.0173252	0.0416596	-0.0452001	-0.912109	0.406006	-0.0134277	0.897976	-0.228593	0.248507	0.282184	-6.49825	-4.34769	9.68829	0.0643418	0.000263932	-0.0486591	0.918945	0.338623	-0.332764	-0.341618	0.512007	0.569443	0.544867	9.31369	2.29943	-1.41444	-0.0592684	0.0342608	-0.0474112	-0.952637	0.146729	0.223145	0.378057	-0.510705	-0.379647	-0.6724	9.89056	1.30042	2.05697	0.0229436	0.0148349	0.0040042	-1.03125	0.283447	-0.0219727	0.420922	-0.478342	-0.598024	-0.486191	9.36748	1.92865	-1.33102	-0.0298959	0.0315964	-0.00249953	-1.06226	0.204102	0.1604	-0.229469	0.290709	0.105231	0.922908	5.68024	0.360615	8.40285	0.0242241	-0.00669625	0.0394956	-0.832275	0.154053	-0.562744	-0.122581	-0.970939	-0.181109	0.0972175	-2.33745	2.41018	-8.99296	0.00361772	0.00279761	-0.0466186	0.600098	-0.0390625	0.865234	
18	-0.551591	0.438505	0.377802	0.600605	9.75687	-0.566008	3.32185	-0.0552971	0.110307	-0.042028	-0.808594	0.45166	-0.230469	0.535902	-0.425466	-0.416199	-0.598804	9.36558	0.426622	2.90124	-0.105232	0.0749008	-0.0403125	-0.759766	0.270508	-0.186035	0.642243	-0.390485	-0.429156	-0.50087	9.57808	-0.785522	3.29272	-0.0867806	0.0478197	-0.0581534	-0.894531	0.379639	-0.395752	0.188748	0.36182	-0.00337699	-0.912934	-6.38738	1.32661	7.28805	0.0384582	0.0368171	-0.0541134	0.334961	0.0837402	-0.994385	-0.4033	0.553626	0.29861	0.664589	9.66655	-0.449308	2.20927	-0.103717	-0.0315558	-0.0815809	-0.912109	0.401367	-0.0109863	0.899012	-0.227589	0.248138	0.280014	-6.50676	-4.18092	9.48424	0.0596801	0.00895039	-0.0944999	0.918945	0.338623	-0.336914	-0.340242	0.512359	0.570593	0.544194	9.61154	2.3555	-1.59625	0.0198364	-0.0819983	-0.0529874	-0.952393	0.138184	0.221436	0.378446	-0.50997	-0.378565	-0.673349	9.77546	1.35564	1.86627	-0.0191185	0.0570093	-0.00574193	-1.0293	0.283447	-0.0266113	0.425889	-0.473397	-0.601948	-0.481842	9.498	1.94568	-1.64621	0.446792	0.0795845	-0.0594462	-1.05981	0.201904	0.149414	-0.229689	0.292119	0.10849	0.92203	5.90217	0.963496	8.39634	0.117496	-0.0949756	-0.0303619	-0.83667	0.147461	-0.560303	-0.12623	-0.970241	-0.181832	0.0981622	-2.20947	2.30603	-9.08842	-0.175784	-0.0724395	-0.0209879	0.60498	-0.0478516	0.854004	
19	-0.552503	0.43546	0.377	0.602484	9.38198	-0.357934	3.21871	0.062056	0.137815	-0.0546688	-0.797119	0.44751	-0.23877	0.531938	-0.424347	-0.411496	-0.606336	9.47495	0.372939	3.02498	-0.079817	0.0562321	-0.0578577	-0.759766	0.272705	-0.190918	0.643332	-0.387908	-0.430302	-0.500492	9.39938	-0.722722	3.27853	0.178531	0.014344	-0.0107871	-0.896484	0.373291	-0.406982	0.18743	0.362656	-0.00504812	-0.912866	-6.27075	1.59704	7.33979	0.0658007	0.0252411	-0.000434145	0.337158	0.0837402	-0.992188	-0.401911	0.55397	0.299674	0.664665	9.3538	-0.656689	2.18201	0.0274892	-0.0311397	-0.0617002	-0.91626	0.401367	-0.0134277	0.899896	-0.226546	0.247339	0.278724	-6.3749	-4.01915	9.5554	0.0627162	-0.0134288	-0.0443279	0.916992	0.332031	-0.330322	-0.341565	0.510245	0.572696	0.543142	8.90704	2.40889	-1.05907	0.185613	0.0238649	-0.071763	-0.950684	0.146729	0.221191	0.379208	-0.509961	-0.379264	-0.672532	9.654	1.34659	2.20189	0.0848943	-0.0168083	0.000293369	-1.03125	0.28125	-0.0266113	0.427034	-0.471933	-0.602061	-0.482124	9.26178	1.48131	-1.84731	0.0103087	0.0732489	-0.0398542	-1.05273	0.201904	0.153809	-0.229768	0.293433	0.110865	0.92131	6.00793	0.887291	8.41732	0.0617571	-0.0546862	0.00139866	-0.836426	0.143066	-0.551025	-0.12932	-0.969596	-0.182577	0.0991221	-2.08602	1.89097	-9.23474	-0.0761174	-0.0430284	-0.0394077	0.60498	-0.0478516	0.863037	
20	-0.553699	0.432882	0.378097	0.602556	9.27056	-0.29016	3.31235	0.117298	0.0275982	-0.0288884	-0.803711	0.44751	-0.239014	0.533175	-0.423193	-0.411217	-0.606245	9.22495	0.413628	2.87906	0.0597266	0.0574428	0.00513583	-0.755371	0.268311	-0.197754	0.644771	-0.386253	-0.432383	-0.49812	9.24105	-0.392621	3.51389	0.114204	-0.0342135	0.0387895	-0.900635	0.368896	-0.406738	0.189941	0.362452	-0.0032141	-0.912437	-6.28793	1.28234	7.0542	-0.131711	0.0174478	0.0872518	0.334717	0.0881348	-0.992188	-0.404092	0.552432	0.301841	0.663642	9.33741	-0.564679	2.10747	0.167883	0.0355939	0.0124806	-0.909912	0.403809	-0.015625	0.899987	-0.225678	0.245965	0.280346	-6.31313	-3.86651	9.32637	-0.0374726	-0.0595806	0.0707264	0.914551	0.336426	-0.336914	-0.342072	0.509623	0.573707	0.542339	9.06166	2.6992	-1.62306	0.0216348	0.0238561	-0.0210518	-0.952637	0.142578	0.221191	0.380225	-0.510028	-0.381334	-0.670735	9.5456	1.27533	2.27476	0.110141	-0.0593004	-0.000757652	-1.03369	0.2854	-0.0219727	0.428374	-0.469962	-0.602453	-0.482371	9.21481	2.66012	-1.00315	-0.0832701	0.0781398	-0.0480046	-1.05737	0.201904	0.147217	-0.231197	0.293739	0.111942	0.920725	6.13157	0.876181	8.40056	0.0646318	0.0177917	0.0722819	-0.843262	0.14502	-0.553467	-0.129967	-0.969207	-0.184127	0.099219	-2.10883	1.83058	-9.22875	-0.00514748	0.0216567	-0.069511	0.609619	-0.0500488	0.858643	
21	-0.554681	0.430993	0.380688	0.601375	9.51844	0.0495979	3.44983	0.130513	-0.0289357	-0.0060409	-0.808105	0.445312	-0.243164	0.534397	-0.422436	-0.41252	-0.60481	9.40487	0.5395	2.90439	0.137477	-0.000117647	0.0203287	-0.757568	0.268311	-0.190674	0.645387	-0.386877	-0.432549	-0.496692	9.34514	-0.44881	3.60074	-0.00447994	-0.0268328	0.0582704	-0.896484	0.371094	-0.402344	0.192334	0.361918	-0.00215484	-0.91215	-6.41114	1.53668	7.18943	-0.0781345	-0.00321789	0.0697618	0.336426	0.0969238	-0.994629	-0.408312	0.550007	0.304243	0.661974	9.57011	-0.251013	1.71717	0.216695	0.0475355	0.0446895	-0.91626	0.401611	-0.0224609	0.899096	-0.226902	0.243895	0.284004	-6.23286	-4.24629	9.47444	-0.10749	-0.055632	0.113397	0.917236	0.327637	-0.345215	-0.341922	0.509675	0.575322	0.540671	9.35854	2.53668	-1.84645	0.124982	-0.0561354	-0.0238795	-0.948242	0.140381	0.221191	0.380636	-0.508344	-0.382697	-0.671003	10.0224	1.33603	2.54326	0.0404441	0.0907901	-0.068324	-1.02856	0.270508	-0.0334473	0.427151	-0.470851	-0.600765	-0.484689	9.65273	1.22824	-1.32022	-0.0257815	0.0145593	-0.0318586	-1.05957	0.195068	0.140625	-0.233015	0.293598	0.111553	0.920359	5.89458	0.829453	8.53819	-0.0067794	0.0161929	0.0661033	-0.839111	0.151611	-0.562744	-0.128703	-0.969104	-0.185669	0.0989924	-2.15132	2.23798	-9.3194	0.0422512	0.0290679	-0.0675869	0.60498	-0.0456543	0.858643	
22	-0.555476	0.430614	0.382828	0.59955	9.70041	-0.0264302	3.33558	0.0974258	-0.0661839	0.0230664	-0.805908	0.443115	-0.236816	0.5353	-0.422679	-0.41428	-0.602634	9.76073	0.435402	3.21138	0.0603037	-0.0711182	0.0247626	-0.76416	0.270508	-0.195557	0.64523	-0.388163	-0.432007	-0.496364	9.9259	-0.569183	3.38228	-0.0265758	-0.0175871	0.0396983	-0.898682	0.373291	-0.402344	0.193578	0.361439	-0.00243343	-0.912076	-6.65225	1.28048	7.46782	0.0483979	-0.0150633	0.052254	0.334473	0.0925293	-0.990234	-0.41039	0.549342	0.3065	0.660198	9.93458	-0.119268	1.70715	0.102134	-0.0559369	0.000603534	-0.91626	0.399414	-0.0270996	0.898293	-0.229384	0.242311	0.2859	-6.45864	-4.58232	9.72742	-0.10766	0.00727369	0.00961392	0.918945	0.336426	-0.341309	-0.344122	0.508209	0.575088	0.540905	9.59036	2.27164	-1.39353	0.0774677	0.131362	-0.0018928	-0.950439	0.142578	0.218994	0.381699	-0.508231	-0.382543	-0.670573	9.91435	1.24026	2.21596	0.0432063	0.00175558	0.0389208	-1.03345	0.28125	-0.0383301	0.426983	-0.470761	-0.601259	-0.484311	9.64178	1.85807	-1.47293	0.00200543	-0.0123111	-0.0180724	-1.05762	0.204346	0.144775	-0.233671	0.292834	0.111244	0.920473	6.26341	0.950755	8.7048	-0.00802594	0.0618551	0.0291462	-0.836914	0.153809	-0.562744	-0.127902	-0.96914	-0.186094	0.098881	-2.30052	2.09093	-9.39451	0.0417092	0.0234805	-0.0186124	0.60498	-0.043457	0.856201	
23	-0.555795	0.43167	0.384602	0.597356	9.69982	-0.0642227	3.17782	0.0424336	-0.105127	0.041401	-0.805908	0.443115	-0.239014	0.535383	-0.423279	-0.414688	-0.601858	9.81626	0.547123	3.22418	0.0258332	-0.0559962	0.0278711	-0.759766	0.270508	-0.190918	0.645701	-0.388247	-0.433129	-0.494705	9.65452	-0.723796	3.58699	0.10991	-0.0656465	0.0364784	-0.898682	0.375488	-0.400146	0.194334	0.361295	-0.00317493	-0.911971	-6.68508	1.49596	7.52333	0.0303587	-0.0119492	0.081214	0.334229	0.0969238	-0.992432	-0.41001	0.550822	0.307889	0.658553	10.0928	-0.175064	1.89683	-0.0119776	-0.0979297	-0.00947006	-0.912109	0.401611	-0.0180664	0.897591	-0.232999	0.241715	0.285684	-6.54201	-4.23252	9.8495	-0.152868	0.0648526	-0.056632	0.919189	0.332031	-0.336914	-0.345496	0.507442	0.574757	0.5411	9.6003	2.87114	-1.51206	0.0161358	0.0682068	0.0068541	-0.950195	0.140381	0.217041	0.382071	-0.508049	-0.382632	-0.670448	9.94226	1.53717	2.22682	0.0174902	0.0151681	-0.00113236	-1.0271	0.283447	-0.0290527	0.427701	-0.469809	-0.602181	-0.483456	9.54903	1.66422	-1.43246	0.131814	0.023447	-0.0393272	-1.05957	0.195068	0.147217	-0.233585	0.293079	0.109932	0.920575	5.92275	0.506576	8.623	-0.0498505	0.00658974	-0.00331795	-0.834717	0.15625	-0.555908	-0.127203	-0.9692	-0.186358	0.0987015	-1.96315	2.48851	-9.35423	-0.00339685	0.0127598	-0.0148584	0.602783	-0.0456543	0.863037	
24	-0.55569	0.432456	0.385343	0.596407	9.63886	-0.133305	3.01714	0.0269742	-0.10907	0.0344694	-0.801514	0.44751	-0.236816	0.535468	-0.42405	-0.415617	-0.600599	9.56046	0.484728	2.98199	0.0343568	-0.034137	0.00263531	-0.761719	0.268311	-0.188477	0.646568	-0.387354	-0.434644	-0.492942	9.58624	-0.56262	3.6547	0.198695	-0.067059	0.0490302	-0.898682	0.377686	-0.397949	0.196856	0.360844	-0.00383507	-0.911605	-6.56642	1.36531	7.3237	-0.0306785	-0.0130956	0.102696	0.330078	0.090332	-0.996826	-0.409062	0.552164	0.307284	0.658301	9.7885	-0.132701	2.03951	-0.114965	-0.0770239	0.00531632	-0.914551	0.407959	-0.0134277	0.897102	-0.235108	0.241567	0.285619	-6.4112	-4.43125	9.7027	-0.148909	0.0763503	-0.0452798	0.914551	0.336426	-0.330566	-0.345917	0.507503	0.573887	0.541697	9.34538	2.22648	-1.36594	-0.0325103	0.0771158	0.0211896	-0.952637	0.142578	0.217041	0.382146	-0.508775	-0.381738	-0.670365	9.72171	1.44934	2.12735	-0.058579	0.00486417	0.0481729	-1.03149	0.285645	-0.0336914	0.42722	-0.470204	-0.601979	-0.483749	9.42955	2.00493	-0.889564	-0.0481128	-0.0124164	-0.0212367	-1.05493	0.199707	0.142578	-0.233267	0.29248	0.110075	0.920829	6.09367	0.496732	8.49415	0.0110273	0.0590845	-0.0330191	-0.834717	0.154053	-0.562744	-0.127951	-0.969108	-0.186544	0.0982791	-1.87167	2.27721	-9.34652	-0.0633576	0.0290585	-0.0120677	0.609375	-0.0432129	0.858643	
25	-0.555318	0.434276	0.386545	0.59465	9.89274	-0.262575	2.86284	0.00668379	-0.103021	0.0404295	-0.805908	0.445068	-0.232422	0.53591	-0.424525	-0.414875	-0.600382	9.42755	0.428491	2.81872	-0.033643	0.0517349	0.0328102	-0.755371	0.268311	-0.188477	0.648196	-0.386032	-0.435088	-0.491447	9.28016	-0.279368	3.75427	0.0353787	0.0513469	0.0302314	-0.898682	0.377686	-0.400146	0.197509	0.360081	-0.00339999	-0.911768	-6.42558	1.38726	7.21696	-0.0267401	-0.0187978	-0.0146164	0.327637	0.0947266	-0.992432	-0.407859	0.554157	0.304586	0.658626	9.6051	-0.586417	2.02066	-0.110328	0.0226323	0.0392844	-0.905518	0.403809	-0.0109863	0.896898	-0.235382	0.242255	0.285449	-6.37976	-4.3222	9.5429	0.0653363	0.0482617	0.00988438	0.921143	0.334229	-0.330566	-0.347662	0.506914	0.573913	0.541104	9.02768	2.53267	-1.17309	0.131241	0.0154663	0.0164287	-0.948486	0.148926	0.208252	0.382166	-0.509678	-0.380398	-0.670429	9.73177	1.18267	2.56181	-0.0426475	0.0529893	-0.0301024	-1.0293	0.285645	-0.03125	0.425631	-0.471152	-0.601445	-0.48489	9.42956	1.22592	-1.71405	0.0167224	-0.0114185	-0.0407569	-1.05957	0.199707	0.144775	-0.233208	0.290551	0.110792	0.921368	5.9719	1.11828	8.45644	0.0071953	0.0766277	-0.00919007	-0.832275	0.151855	-0.562744	-0.128268	-0.969169	-0.1866	0.0971562	-2.16469	1.70107	-9.28173	0.0258263	0.0526289	0.00201021	0.600586	-0.0456543	0.854004	
26	-0.555851	0.434801	0.386043	0.594095	9.82933	-0.266784	2.99332	-0.0137095	0.0179228	0.0471476	-0.801758	0.447266	-0.232422	0.536529	-0.4246	-0.412811	-0.601198	9.52509	0.360911	3.02318	-0.0304026	0.0796618	0.0118885	-0.757812	0.2771	-0.188721	0.648275	-0.386172	-0.43276	-0.493285	9.37253	-0.614338	3.55451	-0.0872942	0.0893864	-0.0140641	-0.896484	0.375488	-0.40918	0.196267	0.359563	-0.00201501	-0.912244	-6.40274	1.41215	7.32171	-0.0315858	-0.000791568	-0.0671457	0.327393	0.101318	-0.990234	-0.410513	0.55242	0.304722	0.658373	9.83708	-0.601387	1.87507	0.15211	0.0915986	0.0351773	-0.907959	0.408203	-0.0180664	0.896798	-0.233752	0.242793	0.286646	-6.52413	-4.24716	9.57616	0.0616056	0.0108488	0.0711103	0.921387	0.329834	-0.33252	-0.346654	0.507599	0.57437	0.540623	9.51526	2.90164	-1.22977	-0.00062722	-0.0481244	-0.0181001	-0.950684	0.148926	0.212646	0.382466	-0.509927	-0.3803	-0.670124	9.91785	1.15782	2.18199	0.0290525	0.00277499	0.0275596	-1.0293	0.287842	-0.0314941	0.425387	-0.471397	-0.602574	-0.483462	9.49675	1.68497	-1.36283	0.0054347	-0.0692774	-0.00829613	-1.05029	0.19751	0.149414	-0.233073	0.289946	0.108459	0.92187	5.85748	0.713992	8.37703	-0.0971798	0.0619842	0.0292916	-0.828125	0.15625	-0.562744	-0.125948	-0.969586	-0.186389	0.0964314	-2.27048	2.10395	-9.19895	0.0977306	0.048003	-0.0074202	0.602539	-0.0412598	0.858398	
27	-0.555944	0.435346	0.384679	0.594493	9.63879	-0.453149	3.08012	-0.0559853	0.0242947	0.00718546	-0.801758	0.449463	-0.232422	0.537188	-0.423203	-0.412202	-0.602012	9.4863	0.393634	3.15623	0.0227489	0.0848054	-0.0398302	-0.755615	0.274902	-0.195801	0.64829	-0.386172	-0.431775	-0.494128	9.37768	-0.575517	3.51431	-0.00958899	0.0214067	0.00282873	-0.890137	0.379639	-0.404785	0.196497	0.359444	0.000734905	-0.912243	-6.41583	1.20511	7.24581	-0.11163	0.0302735	-0.0180135	0.333984	0.101318	-0.994629	-0.412634	0.551018	0.304813	0.65818	9.87281	0.0376107	2.06533	-0.0072234	0.0487999	0.0145019	-0.903564	0.408203	-0.0249023	0.896449	-0.233571	0.242522	0.288111	-6.43184	-4.3025	9.62523	-0.00333635	0.0041028	0.0304207	0.919189	0.329834	-0.330322	-0.345991	0.508332	0.57275	0.542076	9.37925	2.24314	-1.52086	-0.0523137	0.0331605	0.00665868	-0.94873	0.151123	0.218994	0.382531	-0.508777	-0.379473	-0.671429	9.63641	1.33475	2.04783	-0.0306807	0.098188	-0.0602255	-1.0271	0.285645	-0.0361328	0.42595	-0.47097	-0.604953	-0.480403	9.44333	1.9948	-1.57502	0.131371	-0.0638873	-0.0066151	-1.05713	0.195068	0.153809	-0.233112	0.289673	0.106721	0.922149	5.90491	0.74072	8.47607	-0.0481299	0.032005	0.00999408	-0.83252	0.154053	-0.564941	-0.124393	-0.969855	-0.185998	0.0964964	-2.02151	2.12616	-9.14859	0.0600924	0.00732456	0.0128426	0.602539	-0.0412598	0.86084	
28	-0.555087	0.435334	0.383918	0.595793	9.62649	-0.393919	3.21058	-0.0500428	0.0282988	-0.0411462	-0.80835	0.447266	-0.232422	0.536716	-0.423129	-0.411206	-0.603165	9.43601	0.510907	3.1942	-0.0502198	0.0245051	-0.0369266	-0.76001	0.274902	-0.197998	0.648644	-0.385387	-0.431041	-0.494916	9.49272	-0.453253	3.58988	-0.00392177	0.0691811	-0.0250574	-0.896484	0.375488	-0.406982	0.195865	0.359693	0.00190526	-0.912279	-6.5589	1.09834	7.11374	0.00241119	0.0200658	-0.0382966	0.32959	0.101318	-0.994629	-0.410676	0.551987	0.301985	0.659894	9.70351	-0.498401	1.9883	-0.155724	0.0530733	-0.0172108	-0.910156	0.408203	-0.0202637	0.896762	-0.232945	0.242548	0.287621	-6.37056	-4.26962	9.6821	0.0371095	0.00867702	-0.0187081	0.923584	0.327637	-0.328125	-0.34628	0.508013	0.571781	0.543211	9.3162	2.55034	-1.07324	-0.0122311	0.0517061	-0.0192408	-0.948242	0.144775	0.214844	0.382403	-0.508863	-0.379231	-0.671574	10.0623	1.27203	2.39892	-0.0179402	0.039165	-0.0110826	-1.0249	0.283447	-0.0336914	0.424941	-0.472309	-0.60511	-0.479781	9.49836	1.70143	-1.51206	-0.0588599	-0.0532233	-0.00240041	-1.05493	0.199463	0.158203	-0.232957	0.28943	0.105808	0.92237	5.76786	0.629228	8.55723	-0.0295779	0.0218603	0.00840626	-0.825928	0.15625	-0.567383	-0.122974	-0.970141	-0.185445	0.096506	-2.28772	2.15588	-9.27882	0.0613541	0.00845176	0.00690881	0.602539	-0.0390625	0.86084	
29	-0.554734	0.434987	0.382768	0.597114	9.7467	-0.43018	3.34026	-0.0410799	0.0607726	-0.0217058	-0.803711	0.445068	-0.232422	0.535788	-0.423252	-0.410532	-0.604361	9.53344	0.354137	3.11142	-0.0412983	0.0309561	-0.0548398	-0.757324	0.266113	-0.195312	0.648503	-0.383885	-0.431559	-0.495815	9.17621	-0.551081	3.62251	0.0553489	0.00908454	-0.0644947	-0.894287	0.373291	-0.411377	0.194857	0.360475	0.00204025	-0.912187	-6.44685	1.24437	7.20509	0.0117291	0.0456699	-0.0362652	0.331787	0.101318	-0.994629	-0.410596	0.550836	0.301746	0.661014	9.79449	-0.524291	2.1235	0.022386	0.0579607	-0.0544401	-0.907959	0.4104	-0.0270996	0.897637	-0.231393	0.24233	0.286324	-6.54824	-4.16208	9.59117	0.0752444	-0.00173534	-0.0477128	0.919434	0.325684	-0.338867	-0.346084	0.50828	0.570418	0.544518	9.46893	2.61065	-1.66062	-0.0904731	0.045444	-0.011277	-0.950439	0.142578	0.214844	0.382528	-0.508355	-0.378178	-0.672479	9.9056	1.15143	2.11197	-0.00899977	0.0362586	0.00458836	-1.02271	0.283447	-0.0358887	0.428032	-0.469454	-0.608308	-0.475776	9.47822	1.54484	-1.59702	0.390084	0.00926484	-0.0243778	-1.05493	0.195068	0.149414	-0.232683	0.289762	0.10495	0.922433	6.05289	0.96038	8.61428	-0.0422454	0.0215016	0.00412136	-0.825928	0.15625	-0.567383	-0.122155	-0.970268	-0.184949	0.0972202	-2.2067	2.06017	-9.28944	0.0395591	-0.017062	0.00774432	0.597656	-0.034668	0.863037	
30	-0.554569	0.434652	0.382459	0.597709	9.51451	-0.366432	3.33304	-0.0229932	0.0429012	-0.034927	-0.801758	0.449463	-0.232422	0.534873	-0.422784	-0.409885	-0.605936	9.49701	0.48665	3.22765	-0.0431318	0.0673695	-0.0676578	-0.755371	0.272705	-0.197998	0.647693	-0.382882	-0.432272	-0.497028	9.68098	-0.29118	3.66514	-0.0235049	0.0171587	-0.0781163	-0.89209	0.373291	-0.411377	0.193416	0.36202	0.00143379	-0.911882	-6.58497	1.22336	7.30901	0.0485317	0.0668764	-0.037366	0.34082	0.101318	-0.994629	-0.409424	0.550655	0.301362	0.662067	9.74375	-0.303397	2.18005	-0.0912343	0.0227429	-0.0500041	-0.907715	0.403809	-0.0180664	0.898248	-0.230658	0.241739	0.2855	-6.47795	-4.20156	9.75906	0.0455752	0.00284904	-0.0426712	0.921631	0.325684	-0.33667	-0.346303	0.507788	0.56956	0.545735	9.32256	2.44173	-1.20251	-0.00189881	0.0452491	-0.0289481	-0.950439	0.144775	0.206299	0.383142	-0.507833	-0.377179	-0.673085	9.80245	1.41815	2.19945	-0.0189268	0.101812	-0.0197604	-1.02734	0.287842	-0.0336914	0.428137	-0.470166	-0.609498	-0.473449	9.55008	1.89463	-1.68624	0.00177147	-0.0740253	0.0293923	-1.05518	0.201904	0.156006	-0.232811	0.290577	0.103631	0.922293	5.91475	0.501795	8.5552	-0.0646495	-0.00192247	0.0298843	-0.823975	0.165039	-0.562988	-0.12063	-0.970463	-0.184567	0.0979066	-2.06222	2.0864	-9.32152	0.0985169	-0.0116697	-0.00688596	0.604248	-0.0300293	0.858398	
31	-0.553808	0.434246	0.382486	0.598691	9.56017	-0.269614	3.3177	-0.0180208	0.0132758	-0.0475782	-0.801758	0.44751	-0.234619	0.534688	-0.422213	-0.409265	-0.606916	9.42358	0.429028	3.12506	-0.0417815	0.0951195	-0.0644465	-0.759766	0.272705	-0.195557	0.646958	-0.382392	-0.431368	-0.499143	9.45866	-0.676135	3.63809	-0.032423	0.0584773	-0.0562644	-0.898438	0.364746	-0.406738	0.192801	0.362784	0.00152806	-0.911709	-6.49979	1.26458	7.2798	0.0237627	0.0686004	-0.0416066	0.34082	0.101318	-0.990234	-0.40867	0.550441	0.300201	0.663237	9.53346	-0.617827	2.17343	-0.0178804	0.0659348	-0.0232144	-0.909912	0.403809	-0.0224609	0.898645	-0.229694	0.241687	0.285069	-6.449	-4.1264	9.62681	0.09801	0.00252072	-0.0313476	0.917236	0.323486	-0.34082	-0.346072	0.508026	0.568987	0.546257	9.28003	2.53464	-1.41819	-0.0478586	0.0280928	-0.00916784	-0.950439	0.144775	0.208496	0.383298	-0.507779	-0.376856	-0.673218	9.71368	1.41738	1.82869	-0.00738025	0.0406083	-0.000864878	-1.02515	0.287842	-0.0429688	0.428589	-0.470154	-0.610387	-0.471905	9.3983	1.63638	-2.00844	0.146564	-0.00281316	-0.0185428	-1.05981	0.204102	0.158203	-0.232652	0.290879	0.103178	0.922289	5.78847	0.559212	8.61307	-0.0439652	-0.00122691	0.00467557	-0.825928	0.160645	-0.567383	-0.120134	-0.970502	-0.184516	0.098217	-2.01165	2.38155	-9.18247	0.0467712	-0.00994657	-0.00810941	0.604492	-0.0322266	0.865234	
32	-0.553368	0.432851	0.382375	0.600178	9.84364	-0.142709	3.30458	-0.00937199	0.0663176	-0.0107705	-0.803467	0.438721	-0.236572	0.534635	-0.421456	-0.407403	-0.608739	9.33234	0.46786	3.22073	-0.0564413	0.106542	-0.0250129	-0.755371	0.270508	-0.200195	0.647804	-0.379588	-0.432305	-0.499375	9.26426	-0.47841	3.6948	0.138364	0.039477	-0.0464476	-0.896484	0.368896	-0.42041	0.191614	0.363891	0.00248631	-0.911516	-6.47079	1.31276	7.26924	-0.0228875	0.0560786	-0.0503599	0.338623	0.101318	-0.988037	-0.409911	0.548667	0.299915	0.66407	9.44168	-0.392727	2.2436	0.0301027	0.0965978	-0.0097321	-0.907715	0.406006	-0.0270996	0.899301	-0.227284	0.241508	0.285083	-6.34879	-4.0708	9.66474	0.114573	-0.0158422	0.0141983	0.917236	0.327637	-0.343018	-0.346064	0.507461	0.568552	0.54724	9.16614	2.3726	-1.08046	0.00198089	0.063986	-0.0504829	-0.957031	0.146729	0.208252	0.383744	-0.509468	-0.377918	-0.67109	9.74994	1.23886	2.10467	0.0477529	-0.0420375	0.0120873	-1.02734	0.287842	-0.0336914	0.428949	-0.469904	-0.610368	-0.471852	9.27275	2.22101	-1.56526	0.0291078	0.0335991	-0.0153357	-1.05518	0.201904	0.158203	-0.233209	0.290921	0.104589	0.921976	5.91507	0.536915	8.44657	0.0822385	0.00419337	0.0190871	-0.828369	0.165039	-0.565186	-0.121403	-0.970274	-0.18498	0.0980368	-1.92139	2.00934	-9.16644	-0.0569389	0.0113955	-0.0307349	0.604492	-0.0344238	0.856201	
33	-0.554045	0.431762	0.381563	0.600854	9.62492	-0.252329	3.40461	0.0128452	0.129707	-0.0035088	-0.805908	0.443115	-0.236816	0.535291	-0.420121	-0.405444	-0.610391	9.13898	0.36623	3.08019	-0.0249058	0.109926	-0.0240299	-0.755127	0.263916	-0.202393	0.648236	-0.378722	-0.432722	-0.499111	9.17535	-0.28067	3.73126	0.0877521	0.0202111	-0.0108137	-0.898438	0.362549	-0.42041	0.191676	0.364268	0.00524095	-0.911341	-6.33755	0.977651	6.91136	-0.0903593	0.0354235	-0.0318316	0.344727	0.110107	-0.986084	-0.410114	0.548227	0.299467	0.664509	9.38469	-0.450744	2.22701	-0.0146161	0.0702961	-0.00767925	-0.909912	0.406006	-0.0339355	0.899863	-0.224476	0.241298	0.285713	-6.31578	-3.76539	9.4297	0.0848493	-0.0303662	0.0369765	0.919678	0.319092	-0.34082	-0.345698	0.507465	0.569041	0.546959	9.31008	2.53761	-1.52615	0.0240523	-0.00621095	-0.0274679	-0.950684	0.146973	0.208252	0.383942	-0.509788	-0.378774	-0.670249	9.72546	1.23241	2.16243	0.0755686	-0.0542669	-0.00527457	-1.02539	0.292236	-0.0361328	0.429617	-0.468899	-0.609979	-0.472745	9.42195	1.79029	-1.716	0.00329061	0.0627313	-0.0295619	-1.05029	0.199707	0.153809	-0.233909	0.290708	0.10542	0.921771	5.84203	0.832397	8.43754	0.0404923	-0.000785888	0.0294657	-0.825684	0.15625	-0.560547	-0.12222	-0.969988	-0.186099	0.0977342	-2.23012	2.02884	-9.12689	-0.0508853	0.0150521	-0.0506912	0.602295	-0.034668	0.865234	
34	-0.555042	0.429601	0.380664	0.602051	9.48807	-0.173531	3.53093	0.0240023	0.0929972	-0.0297101	-0.805908	0.443115	-0.247559	0.5353	-0.420081	-0.404368	-0.611124	9.26088	0.557847	3.18078	-0.0394715	0.0198087	-0.00537058	-0.753174	0.270508	-0.205078	0.647653	-0.380148	-0.431554	-0.499795	9.36357	-0.317383	3.60163	-0.13479	-0.00467659	0.0198944	-0.89209	0.368896	-0.422852	0.191465	0.364387	0.00552638	-0.911336	-6.48289	1.30555	7.12266	-0.00925105	0.0102326	0.0135592	0.342773	0.10791	-0.988281	-0.411237	0.547434	0.299975	0.66424	9.35807	-0.546772	1.96096	0.0994386	0.0112215	-0.00354852	-0.90332	0.399414	-0.0339355	0.899935	-0.223833	0.240129	0.286972	-6.16324	-3.8952	9.59713	-0.0124624	-0.0261428	0.0231915	0.917236	0.321289	-0.35376	-0.347052	0.505355	0.569076	0.548018	8.87967	2.52101	-0.968091	0.0465796	0.075962	-0.0548144	-0.952637	0.142578	0.208496	0.384167	-0.509358	-0.380551	-0.669441	9.87319	1.24276	2.20164	0.0817047	-0.0160648	-0.0364098	-1.02734	0.291992	-0.0268555	0.429396	-0.468845	-0.609175	-0.474035	9.49244	1.41995	-1.57618	0.00676824	0.0333785	-0.0261333	-1.05298	0.206543	0.156006	-0.235639	0.290678	0.106735	0.921188	5.73401	0.805455	8.46522	0.0575254	0.0155186	0.0487934	-0.832764	0.160645	-0.565186	-0.121728	-0.969816	-0.187306	0.0977548	-2.10363	2.16361	-9.18291	0.0446287	0.00928011	-0.0525475	0.602295	-0.034668	0.85376	
35	-0.555508	0.42802	0.380211	0.603034	9.20073	-0.207355	3.41053	0.0208565	0.0447472	-0.0325137	-0.805664	0.443115	-0.249756	0.535643	-0.419962	-0.404943	-0.610524	9.32711	0.508762	3.14591	0.0664601	-0.0140876	0.00376168	-0.755371	0.272705	-0.209717	0.646659	-0.382676	-0.430535	-0.500031	9.51506	-0.637064	3.34856	-0.0550627	-0.0364066	0.0329803	-0.898682	0.373291	-0.416016	0.192304	0.364155	0.00541943	-0.911252	-6.49317	1.28266	7.1572	-0.00976592	-0.00477504	0.0343136	0.340576	0.105713	-0.992676	-0.412844	0.546708	0.303063	0.662437	9.69855	-0.0316807	2.06157	0.129182	-0.0682797	-0.0200611	-0.907715	0.403809	-0.0270996	0.899299	-0.226668	0.238386	0.288194	-6.3482	-4.32286	9.7291	-0.142406	0.00251408	-0.0194161	0.919678	0.319092	-0.347168	-0.347247	0.505412	0.569637	0.547259	9.81078	2.43547	-1.11842	0.0874018	0.113102	-0.0214643	-0.956787	0.142578	0.206299	0.384249	-0.50903	-0.382159	-0.668727	9.56603	1.37363	2.27229	0.0559503	0.004766	-0.0716181	-1.02515	0.292236	-0.0314941	0.426987	-0.471085	-0.605614	-0.478531	9.13414	2.79289	-1.91642	-0.418938	0.0693169	-0.0263788	-1.05981	0.201904	0.153809	-0.23606	0.291279	0.107303	0.920825	6.25933	0.759791	8.41824	0.0340338	-0.0271336	0.0257114	-0.828125	0.158447	-0.567383	-0.123206	-0.969486	-0.187996	0.0978518	-2.0748	1.87064	-9.33534	-0.065773	-0.00306281	-0.0256758	0.599854	-0.0302734	0.858398	
36	-0.555137	0.427326	0.381408	0.603111	9.7695	-0.0717446	3.45976	0.0359974	-0.0207982	-0.0351725	-0.801025	0.436768	-0.249512	0.53505	-0.420949	-0.407006	-0.608991	9.47028	0.532012	3.23486	0.0138283	-0.0677634	-0.000959925	-0.755615	0.2771	-0.205322	0.646628	-0.383283	-0.431401	-0.498858	9.50604	-0.511801	3.60285	0.0518268	-0.071154	0.0238987	-0.896484	0.373291	-0.413818	0.19351	0.364098	0.00415371	-0.911026	-6.63742	1.28486	7.20598	0.0258916	0.00128044	0.0739255	0.345215	0.101318	-0.988037	-0.411438	0.548194	0.303924	0.66169	9.87932	-0.314109	2.00103	-0.0575627	-0.0677266	-0.0380747	-0.906006	0.412598	-0.0317383	0.899317	-0.228334	0.237716	0.287375	-6.42803	-4.04541	9.73099	-0.041177	0.0272393	-0.0646396	0.921631	0.321289	-0.344971	-0.347595	0.505028	0.569125	0.547924	9.34258	2.90446	-1.36738	-0.0651451	-0.0640398	-0.00239508	-0.95459	0.140381	0.197754	0.383605	-0.508841	-0.383885	-0.668251	10.3032	1.2077	2.07031	0.0375867	-0.0604944	-0.0117049	-1.0293	0.285645	-0.03125	0.426388	-0.471432	-0.605113	-0.479357	9.67149	1.11794	-1.44934	0.147516	-0.00961864	-0.0328014	-1.05273	0.201904	0.153809	-0.236328	0.290753	0.107533	0.920896	5.71925	0.918646	8.75519	-0.00169645	0.0338248	-0.00857609	-0.830811	0.167236	-0.560791	-0.122313	-0.969595	-0.188121	0.0976541	-2.24768	2.4636	-9.34695	0.0347109	0.0137097	-0.00558898	0.604492	-0.0344238	0.858398	
37	-0.55507	0.426979	0.381881	0.60312	9.65942	-0.028771	3.31854	0.0112981	-0.0024748	-0.0136222	-0.807861	0.438721	-0.251709	0.534141	-0.422137	-0.408696	-0.607832	9.66503	0.444575	3.28462	0.0156163	-0.0737708	-0.0326957	-0.757568	0.268311	-0.195557	0.647232	-0.381961	-0.434349	-0.496526	9.60652	-0.411468	3.68392	0.176343	-0.0778268	-2.79591e-05	-0.900635	0.364746	-0.413574	0.194684	0.364521	0.00215706	-0.910614	-6.68466	1.22192	7.40227	0.0628886	0.017891	0.0774542	0.345215	0.101318	-0.98584	-0.410288	0.549412	0.304383	0.661182	9.89189	-0.328437	2.14083	-0.0262678	-0.058783	-0.0352246	-0.909912	0.406006	-0.0224609	0.899074	-0.231328	0.236553	0.2867	-6.51939	-4.2867	9.86362	-0.11449	0.0347055	-0.071333	0.910645	0.327637	-0.338867	-0.348044	0.50481	0.569088	0.547878	9.398	2.33091	-1.2183	0.0884214	0.0394173	-0.0219801	-0.952637	0.144775	0.201904	0.383914	-0.509223	-0.382856	-0.668374	9.7175	1.14813	2.37323	-0.0350541	0.0812543	-0.0158563	-1.02734	0.287842	-0.0290527	0.424391	-0.473848	-0.603246	-0.481098	9.36912	2.44099	-1.24772	-0.210235	0.00675137	0.00141924	-1.05737	0.199463	0.160645	-0.236066	0.291252	0.107614	0.920796	6.03047	0.70793	8.44901	-0.00992217	-0.0283121	-0.0120433	-0.832764	0.162842	-0.567627	-0.123344	-0.969461	-0.187938	0.0980384	-2.28482	1.68718	-9.27864	0.0124423	-0.0220212	0.00443295	0.604492	-0.0344238	0.860596	
38	-0.554808	0.426991	0.382436	0.603	9.67355	-0.138027	3.29914	0.0148389	-0.0284199	-0.0117705	-0.80542	0.436523	-0.247559	0.533879	-0.422322	-0.40849	-0.608073	9.48874	0.506339	3.03663	-0.0313044	0.0134206	-0.0252606	-0.753174	0.270508	-0.200195	0.647214	-0.381798	-0.435431	-0.495725	9.44203	-0.225561	3.87	-0.0234621	-0.0199207	0.00877958	-0.898682	0.368896	-0.411377	0.195094	0.364772	0.00167143	-0.910427	-6.62279	1.38144	7.28543	0.0279849	0.0219511	0.050287	0.347412	0.103516	-0.983643	-0.408977	0.550629	0.303998	0.661159	9.59139	-0.44202	2.04203	-0.0599751	-0.00766655	-0.0139353	-0.912109	0.406006	-0.0202637	0.899292	-0.231363	0.236533	0.286002	-6.28564	-4.23759	9.62012	0.0761107	0.0217249	-0.0169018	0.916992	0.329834	-0.341064	-0.347256	0.505889	0.569664	0.546784	9.19534	2.65214	-1.2469	-0.00187844	-0.113222	-0.00768046	-0.954834	0.142578	0.212646	0.382941	-0.507316	-0.382608	-0.670521	10.0273	1.40194	2.16588	-0.0270773	0.0893811	-0.0901516	-1.0293	0.285645	-0.0336914	0.421397	-0.477001	-0.600348	-0.484228	9.73851	1.15512	-1.6662	-0.157045	-0.0221481	0.0038514	-1.05493	0.199463	0.158203	-0.235675	0.291607	0.10759	0.920786	5.93547	0.737727	8.58709	0.00185808	-0.000362124	-0.0133612	-0.830566	0.162842	-0.55835	-0.122228	-0.969793	-0.186915	0.0981042	-1.95867	2.1657	-9.38761	0.0285205	0.0186641	0.0404759	0.608643	-0.027832	0.855957	
39	-0.554795	0.427223	0.382591	0.60275	9.4536	-0.0621623	3.29098	-0.0042045	-0.0272374	0.00936458	-0.810059	0.438721	-0.249756	0.534164	-0.422242	-0.407562	-0.608501	9.45582	0.515312	3.05529	-0.0170535	0.0372964	-0.000610157	-0.753418	0.272705	-0.195557	0.64679	-0.382692	-0.434747	-0.49619	9.35391	-0.43443	3.79725	-0.0983828	2.99551e-07	0.0123979	-0.896484	0.368896	-0.406738	0.195128	0.364512	0.00227153	-0.910522	-6.58994	1.2754	7.22242	-0.0358881	-0.00561822	-0.0194489	0.347412	0.101318	-0.990234	-0.41091	0.549341	0.30462	0.660745	9.75089	-0.459079	1.90723	0.12635	0.0485042	0.0174032	-0.916504	0.403809	-0.0270996	0.899426	-0.230549	0.236635	0.286154	-6.30509	-4.14447	9.60772	0.0740492	0.00982697	0.0168082	0.921631	0.325684	-0.33667	-0.346251	0.506917	0.569604	0.546532	9.6651	2.64956	-1.34155	-0.0434265	-0.0869065	-0.00625877	-0.948242	0.142578	0.206299	0.38327	-0.50841	-0.381855	-0.669933	9.72798	1.31585	1.92946	-0.00559405	-0.0291877	0.0443301	-1.0293	0.287842	-0.0361328	0.421313	-0.477103	-0.60088	-0.483541	9.58857	1.41437	-1.82002	0.16213	-0.00708968	-0.0166044	-1.05981	0.20166	0.165039	-0.235489	0.291379	0.10751	0.920915	6.08552	0.761738	8.49852	-0.00809869	0.0343105	-0.0125607	-0.832764	0.162842	-0.560547	-0.121586	-0.969948	-0.186491	0.09818	-2.13898	2.18758	-9.43045	0.0586467	0.0080924	0.0237819	0.599609	-0.0256348	0.860596	
40	-0.554308	0.427919	0.382912	0.6025	9.58571	-0.130837	3.2176	-0.0233779	-0.0740783	-0.00329506	-0.810059	0.440918	-0.240967	0.534046	-0.42288	-0.406573	-0.608824	9.58412	0.377821	3.3102	-0.0538882	0.0113901	-0.000621175	-0.759766	0.270508	-0.195557	0.645992	-0.38431	-0.433142	-0.497381	9.63152	-0.55396	3.61345	-0.10427	0.0141976	0.00681768	-0.898682	0.373291	-0.400146	0.193788	0.363875	0.00262455	-0.911062	-6.65915	1.07464	7.29421	0.0246007	-0.0305578	-0.0621997	0.343262	0.0969238	-0.990234	-0.411531	0.548899	0.305143	0.660485	9.90631	-0.0794887	1.89718	0.0734197	0.0173885	-0.00456696	-0.912354	0.408203	-0.0202637	0.89914	-0.231221	0.236493	0.286627	-6.50159	-4.36771	9.74924	-0.0506867	0.0385208	-0.0106887	0.919189	0.327637	-0.341064	-0.345918	0.507796	0.569411	0.546128	9.379	2.36052	-1.31553	0.0239258	-0.0285938	-0.00433134	-0.950439	0.140381	0.210693	0.383003	-0.508636	-0.381912	-0.669882	9.66702	1.30532	2.15178	-0.00773253	-0.00685259	-0.0250668	-1.03345	0.283447	-0.0405273	0.421675	-0.477024	-0.600402	-0.483896	9.45852	2.76033	-1.32428	-0.0139864	0.0582645	-0.00305106	-1.05273	0.197266	0.171631	-0.234808	0.291798	0.106313	0.921095	5.85801	0.423608	8.39285	-0.0495031	-0.0301369	-0.00852521	-0.825928	0.160645	-0.55835	-0.122293	-0.969918	-0.186212	0.0981274	-2.31536	1.9914	-9.16045	-0.0594197	0.003405	0.0104703	0.602295	-0.0368652	0.860596	
41	-0.553274	0.428996	0.383632	0.602226	9.74292	-0.18813	3.11166	-0.0130651	-0.0515973	-0.0185239	-0.807861	0.440918	-0.245361	0.533781	-0.423425	-0.40416	-0.610282	9.39704	0.381568	3.11949	-0.0967099	0.06568	0.00460269	-0.753418	0.2771	-0.205322	0.645967	-0.385311	-0.43097	-0.498524	9.33118	-0.727867	3.55495	-0.0749731	0.063222	0.0345409	-0.890137	0.375244	-0.404785	0.192531	0.362787	0.00293528	-0.911761	-6.36227	1.3727	7.21438	-0.0445824	-0.0429779	-0.0559673	0.333984	0.103516	-0.98584	-0.409505	0.550661	0.302977	0.661273	9.50381	-0.373526	2.03412	-0.189866	-0.00633028	-0.00729377	-0.907959	0.4104	-0.0292969	0.899712	-0.229707	0.237758	0.284999	-6.29246	-3.99766	9.47639	0.121526	0.0641105	-0.047841	0.915039	0.323486	-0.34082	-0.345346	0.508236	0.568815	0.546701	9.12909	2.45539	-1.35996	-0.0475532	0.00586469	-0.00443307	-0.952881	0.148926	0.208252	0.381815	-0.508234	-0.382864	-0.670321	9.71551	1.43779	2.0573	0.0141613	-0.0132861	-0.0634905	-1.02905	0.28125	-0.0336914	0.41768	-0.481763	-0.593944	-0.490589	9.33295	1.5559	-1.4199	-0.458796	0.0549352	0.0344615	-1.05737	0.199463	0.160645	-0.235005	0.291444	0.108181	0.92094	5.99892	0.708698	8.57371	0.100063	0.0421974	-0.0109697	-0.832764	0.165039	-0.560791	-0.122823	-0.969889	-0.186128	0.0979131	-1.96508	2.37979	-9.21181	-0.0594153	0.0181686	-0.003108	0.600098	-0.034668	0.858398	
42	-0.553271	0.428843	0.383609	0.602353	9.47625	-0.163262	3.11083	0.00505606	0.00895766	0.000272202	-0.807617	0.436523	-0.249512	0.534047	-0.423537	-0.403158	-0.610634	9.15675	0.344492	2.87547	-0.0557985	0.0714486	0.0189996	-0.755615	0.274902	-0.20752	0.647225	-0.384779	-0.429048	-0.498962	8.98558	-0.48395	3.48925	-0.00783424	0.0997588	0.0242576	-0.896484	0.375488	-0.413818	0.190937	0.361034	0.00530795	-0.912781	-6.16602	1.21848	6.95181	-0.0726839	-0.0521728	-0.116155	0.335938	0.110107	-0.990479	-0.409008	0.551293	0.301791	0.661597	9.37595	-0.788843	2.03116	-0.118474	0.0147471	0.0170357	-0.912354	0.408203	-0.0224609	0.899962	-0.227976	0.238478	0.284996	-6.2272	-4.12193	9.35044	0.112338	0.0220424	0.0275188	0.919434	0.321289	-0.34082	-0.346284	0.508329	0.567819	0.547057	8.96452	2.19811	-1.48944	0.0386554	0.0715043	0.0119653	-0.952637	0.144775	0.206299	0.380566	-0.507041	-0.384043	-0.67126	9.39339	1.30089	2.24586	0.0151381	0.0523027	-0.13271	-1.03101	0.272461	-0.0310059	0.414049	-0.485542	-0.588373	-0.496619	9.25896	1.86002	-1.485	-0.481887	0.0431822	0.0150181	-1.05981	0.20166	0.167236	-0.234878	0.290583	0.109554	0.921082	6.22233	1.05624	8.34089	0.0298305	0.0496614	-0.020673	-0.830078	0.154053	-0.567383	-0.124189	-0.969837	-0.186119	0.0967061	-1.80769	1.72751	-9.18941	-0.0105929	0.0622567	0.00559238	0.600098	-0.0390625	0.856201	
43	-0.554195	0.429096	0.382314	0.602147	9.84103	-0.0948441	3.38818	-0.0380691	0.0285589	0.0702065	-0.807861	0.440918	-0.245361	0.534962	-0.423848	-0.400681	-0.611247	9.6841	0.176787	3.25721	-0.0142426	-0.0210548	0.0287039	-0.751465	0.279297	-0.207764	0.646917	-0.385387	-0.426587	-0.500998	9.45167	-0.555358	3.38645	-0.13287	0.0586689	-0.0294119	-0.892334	0.377441	-0.409424	0.187813	0.360365	0.00564878	-0.913691	-6.43089	1.24105	7.41237	0.0665156	-0.0191846	-0.114924	0.335938	0.10791	-0.99707	-0.411894	0.549171	0.302827	0.661098	9.98036	-0.523583	1.7548	0.0948904	0.0417016	0.0259414	-0.910156	0.408203	-0.0270996	0.899972	-0.226409	0.239062	0.285725	-6.66952	-4.02966	9.5785	0.0013955	0.0197453	0.0334244	0.919678	0.321289	-0.336426	-0.34699	0.508363	0.566214	0.548241	10.0733	3.09219	-1.55487	-0.107454	0.0810808	0.0308597	-0.952881	0.148926	0.201904	0.379889	-0.508011	-0.384878	-0.670431	10.6109	1.18002	2.2015	-0.0114	-0.0384989	0.0117974	-1.02905	0.28125	-0.03125	0.413258	-0.48566	-0.587817	-0.497819	9.92324	0.384564	-1.96985	0.105306	0.00541648	-0.0657617	-1.05249	0.195068	0.162842	-0.234346	0.289198	0.108703	0.921754	5.75986	0.795515	8.51998	-0.0519237	0.0480373	-0.0216893	-0.828125	0.15625	-0.562744	-0.123025	-0.970201	-0.185478	0.0957785	-2.6657	2.37251	-9.32435	0.0214596	0.018741	0.0230618	0.593262	-0.034668	0.860596	
44	-0.554429	0.430471	0.380772	0.601927	9.65465	-0.403144	3.25711	-0.056244	-0.0103231	0.0446506	-0.803467	0.440918	-0.245361	0.534776	-0.424345	-0.401491	-0.610533	10.0321	0.170794	3.49578	0.035053	-0.0755758	-0.00653144	-0.757812	0.2771	-0.200439	0.645466	-0.386665	-0.425457	-0.502842	10.2095	-0.881898	3.26608	-0.064863	-0.017188	-0.020583	-0.896484	0.375488	-0.40918	0.186955	0.360918	0.00328311	-0.91366	-6.6314	1.48957	7.83741	0.0969524	0.0227042	0.0499312	0.333984	0.105713	-0.992676	-0.411842	0.550329	0.303962	0.659645	10.3889	-0.0413006	1.97242	-0.0397045	-0.113669	-0.0169844	-0.912354	0.408203	-0.0224609	0.898985	-0.230854	0.238562	0.285692	-6.81911	-4.58129	9.97395	-0.161207	0.0900246	-0.0738853	0.921631	0.325684	-0.33667	-0.349489	0.506692	0.564218	0.550253	9.41092	2.13076	-1.00778	0.0600773	0.191548	-0.0183494	-0.952881	0.146973	0.199707	0.380152	-0.509138	-0.383345	-0.670305	9.89816	1.14521	2.51037	-0.0450627	0.0375437	0.0296688	-1.03125	0.28125	-0.0219727	0.415036	-0.484414	-0.58922	-0.495891	9.35388	1.89638	-1.46264	0.0736388	-0.00365426	0.00359696	-1.05737	0.20166	0.167236	-0.23366	0.290367	0.10807	0.921635	6.06498	0.440847	8.36767	-0.0246668	-0.0460346	0.000196833	-0.828125	0.158447	-0.560547	-0.123829	-0.970089	-0.185163	0.09648	-2.39973	1.9109	-9.20475	-0.0197259	-0.0300031	0.00285403	0.600098	-0.0368652	0.863037	
45	-0.554418	0.430809	0.380053	0.60215	9.4547	-0.586854	3.21078	-0.00790625	0.0226962	-0.00108875	-0.801514	0.445312	-0.247559	0.534823	-0.423539	-0.402774	-0.610207	9.14371	0.339069	2.9592	0.0423963	0.0276244	-0.014343	-0.751465	0.281494	-0.200684	0.646731	-0.385513	-0.427976	-0.499956	9.21606	-0.812478	3.56918	0.219068	-0.063072	0.054569	-0.894287	0.373291	-0.404541	0.189922	0.360685	0.00408909	-0.913137	-6.29495	1.16031	7.05381	-0.0965826	-0.0018821	0.0974088	0.33374	0.10791	-0.994873	-0.406793	0.554756	0.301263	0.660307	9.39182	-0.419475	2.40297	-0.311309	-0.0879969	-0.0478937	-0.909912	0.403809	-0.0134277	0.899275	-0.232196	0.238848	0.283445	-6.3075	-3.97158	9.44425	0.0240028	0.042702	-0.0873587	0.917236	0.323486	-0.334473	-0.349479	0.507369	0.563913	0.549948	9.40317	2.15465	-1.28637	-0.000175525	-0.061609	0.0327371	-0.955078	0.148926	0.197754	0.380413	-0.508361	-0.380392	-0.672426	9.54819	1.13897	2.06172	-0.0695475	0.0864143	0.0410142	-1.03125	0.279053	-0.0266113	0.420497	-0.479486	-0.596465	-0.487344	9.25896	2.67808	-1.16533	0.59386	-0.0490352	-0.0411294	-1.06006	0.206299	0.158203	-0.233846	0.290812	0.109775	0.921246	6.04418	0.792226	8.69266	0.0718445	0.00289628	-0.00828615	-0.828125	0.15625	-0.560547	-0.123567	-0.97012	-0.18456	0.0976539	-1.94856	1.94233	-9.25168	0.0132409	-0.0327097	0.0135205	0.602295	-0.0368652	0.860596	
46	-0.55482	0.429984	0.381454	0.601483	9.37798	-0.287615	3.16895	0.0890236	-0.0365741	-0.008471	-0.812256	0.440918	-0.243164	0.534959	-0.424453	-0.403889	-0.608714	9.35547	0.359737	3.07094	0.0385088	-0.0695535	0.0224524	-0.751221	0.2771	-0.200439	0.648743	-0.383172	-0.429837	-0.497546	9.17752	-0.295241	3.70925	0.11726	0.00918993	0.0262553	-0.898438	0.368896	-0.40918	0.190882	0.360129	0.00322684	-0.91316	-6.34756	1.21874	7.20056	0.0379413	-0.017445	0.044629	0.336182	0.103516	-0.992676	-0.407417	0.554041	0.301394	0.660464	9.45865	-1.14559	1.8961	0.177984	0.0775618	0.00911308	-0.907715	0.401611	-0.0180664	0.899433	-0.232336	0.238331	0.283264	-6.34367	-3.8348	9.38829	0.001697	-0.00605743	-0.0434387	0.915039	0.325684	-0.334473	-0.351566	0.505987	0.564823	0.548956	9.19439	2.64689	-0.777182	0.113543	0.044741	-0.0210313	-0.955078	0.148926	0.191162	0.38114	-0.50839	-0.379929	-0.672255	9.75118	1.5859	2.42841	0.00962802	0.0536976	-0.0241581	-1.03369	0.285645	-0.0383301	0.421982	-0.478129	-0.598882	-0.484422	9.40899	2.18815	-1.27871	0.105218	-0.0193584	-0.0134103	-1.05518	0.204102	0.1604	-0.233682	0.290462	0.108753	0.921519	5.92166	1.04798	8.57553	-0.0810812	0.0649247	0.00406956	-0.834717	0.154053	-0.564941	-0.123365	-0.970201	-0.184289	0.0976158	-1.86921	1.62545	-9.52984	0.0210946	0.0107807	0.0152563	0.602295	-0.0368652	0.860596	
47	-0.55581	0.429847	0.38239	0.600071	9.85283	-0.130509	3.34418	0.0478526	-0.0157116	0.0422501	-0.803467	0.440918	-0.245361	0.535335	-0.424288	-0.404157	-0.60832	9.59564	0.258069	3.24327	0.013143	0.017558	-0.0204865	-0.753662	0.279297	-0.198242	0.648291	-0.383777	-0.429844	-0.497662	9.28678	-0.512126	3.818	-0.0381452	-0.0288194	-0.00611175	-0.890137	0.373047	-0.404541	0.192269	0.360531	0.00366166	-0.912709	-6.51005	1.09874	7.35675	-0.0521579	0.0455527	0.0496321	0.338135	0.10791	-0.99707	-0.41286	0.549975	0.304013	0.65928	9.86148	-0.152712	1.9004	0.205196	0.100585	0.0558714	-0.906006	0.412598	-0.0202637	0.899121	-0.231597	0.237241	0.285763	-6.60618	-4.09331	9.68096	-0.0277373	-0.0165995	0.0768189	0.923828	0.321289	-0.338623	-0.3511	0.506412	0.563845	0.549868	9.34208	2.45348	-1.08343	-0.0939851	0.028342	-0.0161696	-0.953125	0.15332	0.191162	0.380783	-0.508174	-0.379976	-0.672593	9.76236	1.39007	2.17758	0.00187313	0.00450669	-0.0291917	-1.03369	0.285645	-0.0358887	0.42207	-0.477925	-0.599825	-0.483378	9.58575	1.21646	-1.7247	0.113965	-0.0212204	-0.0280138	-1.05078	0.206543	0.162598	-0.233778	0.289834	0.10595	0.922019	5.82409	0.394656	8.60905	-0.0916964	0.0570814	0.0294951	-0.828369	0.162842	-0.567383	-0.120421	-0.970668	-0.184103	0.0970025	-2.01867	2.08602	-9.26138	0.0585111	0.0355671	0.000576218	0.600098	-0.0368652	0.860596	
48	-0.556362	0.42988	0.382111	0.599712	9.75799	-0.152093	3.43859	0.0157827	0.0124659	0.0518909	-0.803711	0.445312	-0.247559	0.535563	-0.423663	-0.404076	-0.608609	9.61187	0.284589	3.25876	0.0237983	0.0650335	-0.0344501	-0.751465	0.279297	-0.200684	0.647936	-0.383795	-0.430082	-0.497906	9.49943	-0.657476	3.88675	-0.00544949	-0.016318	-0.0316776	-0.894287	0.373291	-0.411377	0.192631	0.360882	0.00423173	-0.912491	-6.57663	1.13217	7.41972	-0.0453972	0.0474674	0.016663	0.331543	0.110107	-0.992676	-0.413189	0.550059	0.303029	0.659457	9.85165	0.00106011	1.99306	-0.0499154	0.0524843	0.042796	-0.901367	0.4104	-0.0270996	0.898646	-0.232413	0.237	0.286792	-6.55708	-4.33403	9.65529	-0.0790682	0.0172535	0.0562321	0.923584	0.325684	-0.34082	-0.350379	0.507038	0.564024	0.549567	9.5972	2.29337	-1.16107	-0.00886089	-0.0653969	-0.0210586	-0.957031	0.146973	0.193359	0.380778	-0.508263	-0.379846	-0.672602	9.92831	1.33052	2.16759	-0.00469086	0.0166433	-0.0094059	-1.0293	0.283447	-0.03125	0.422753	-0.47722	-0.60094	-0.482092	9.55061	1.90774	-1.26322	0.159706	-0.01868	-0.0264984	-1.05542	0.206299	0.1604	-0.233845	0.289408	0.105508	0.922186	5.93818	0.379022	8.55198	-0.0256598	0.0582704	0.0119005	-0.828369	0.165039	-0.572021	-0.119948	-0.970759	-0.184075	0.0967205	-2.16611	2.21652	-9.21526	0.0366074	0.0363608	-0.00433052	0.599854	-0.0324707	0.862793	
49	-0.556859	0.430227	0.380782	0.599849	9.75136	-0.479314	3.41467	-0.0314889	0.0373323	0.0157234	-0.801514	0.445312	-0.240967	0.535269	-0.42333	-0.402115	-0.610395	9.48222	0.320589	3.40677	-0.100282	0.0764725	-0.0394082	-0.751465	0.283691	-0.203125	0.648255	-0.382276	-0.430569	-0.498238	9.52967	-0.495533	3.72898	0.0582254	0.0289948	-0.0199612	-0.892334	0.375488	-0.411621	0.192334	0.36183	0.00520002	-0.912173	-6.6214	0.96989	7.31317	0.0179159	0.0490142	-0.029182	0.338135	0.10791	-0.988281	-0.410156	0.552641	0.299789	0.660671	9.80055	-0.584581	2.15135	-0.207203	-0.0298649	-0.0226624	-0.905762	0.408203	-0.0134277	0.89856	-0.232673	0.237091	0.286778	-6.53801	-4.23467	9.73402	0.0388611	0.0324539	-0.0253425	0.919678	0.321289	-0.332275	-0.350405	0.505923	0.564812	0.549768	9.72247	2.30973	-1.01157	0.0144229	0.0292362	-0.0621433	-0.952881	0.146973	0.195557	0.380885	-0.507765	-0.379318	-0.673216	10.1648	1.26233	2.37076	-0.0218111	0.0887882	-0.0233106	-1.03125	0.28125	-0.03125	0.422803	-0.477349	-0.601832	-0.480806	9.65012	1.51163	-1.6989	0.0512529	-0.0352264	-0.0119043	-1.05762	0.20874	0.162598	-0.234164	0.289199	0.106424	0.922066	6.03895	0.982239	8.50776	0.0348763	0.00142657	0.00329849	-0.830322	0.158447	-0.567383	-0.119324	-0.970871	-0.183817	0.096864	-2.13983	2.14913	-9.24318	0.0460171	-0.00423866	0.000761182	0.602051	-0.0300293	0.865234	
50	-0.556761	0.429654	0.380412	0.600584	9.47639	-0.383387	3.33856	-4.11907e-05	0.0239721	-0.0270215	-0.801514	0.445312	-0.245361	0.53524	-0.42273	-0.40123	-0.611418	9.34727	0.473525	3.35425	-0.0246367	0.0574101	-0.0253405	-0.751465	0.279297	-0.207764	0.648978	-0.381034	-0.430613	-0.498211	9.39109	-0.603846	3.75254	0.0664716	0.036802	-0.00369978	-0.898438	0.366943	-0.418213	0.192719	0.362262	0.0058265	-0.911917	-6.55847	1.23665	7.26989	-0.0248777	0.0275672	0.00861581	0.338135	0.110107	-0.990479	-0.410744	0.552103	0.300785	0.660303	9.77868	-0.640233	2.36894	0.121258	0.0197786	-0.0274831	-0.910156	0.408203	-0.0224609	0.89887	-0.232331	0.236681	0.286419	-6.43676	-3.89203	9.7099	-0.00301008	-0.0108245	-0.0182089	0.926025	0.321289	-0.334473	-0.348068	0.507465	0.565971	0.548639	9.0582	2.70131	-0.772243	0.0487892	-0.192565	-0.0358298	-0.950439	0.140381	0.202148	0.380618	-0.506983	-0.378608	-0.674355	9.64998	1.41997	2.26064	0.00891544	-0.00665705	-0.0308392	-1.03149	0.285645	-0.0383301	0.422842	-0.477257	-0.602416	-0.480131	9.25765	1.72609	-1.82385	0.0116881	-0.00370895	-0.0221381	-1.05981	0.204102	0.164795	-0.233364	0.289571	0.106131	0.922186	5.95531	0.711967	8.45747	-0.0256969	-0.00421315	-0.0363421	-0.823975	0.162842	-0.572021	-0.119893	-0.970915	-0.18318	0.0969324	-1.99634	1.92062	-9.28298	-0.0288549	-0.00274853	0.0256316	0.604736	-0.0390625	0.863037	
51	-0.556985	0.428545	0.38043	0.601157	9.49347	-0.245199	3.535	0.026856	0.0343273	-0.030665	-0.80127	0.440918	-0.249512	0.535228	-0.421806	-0.401364	-0.611978	9.37541	0.372833	3.2795	0.00214422	0.0363714	-0.0532942	-0.753662	0.279297	-0.207764	0.649334	-0.380621	-0.431005	-0.497722	9.10655	-0.183921	3.7801	-0.0139829	-0.00384035	0.000554004	-0.889893	0.368896	-0.413574	0.193251	0.362215	0.00759649	-0.91181	-6.43711	1.13108	7.14045	-0.0441451	0.0247561	-0.0156199	0.342285	0.116699	-0.986084	-0.41203	0.549715	0.302443	0.660737	9.60542	-0.32635	2.17382	0.0801907	0.0869652	-0.0488201	-0.909668	0.399414	-0.0249023	0.899457	-0.230761	0.234904	0.287307	-6.42751	-4.11553	9.68526	0.0657128	-0.0819811	0.0222739	0.919678	0.319092	-0.342773	-0.347516	0.50792	0.566245	0.548285	9.3234	2.72076	-1.12269	0.010193	-0.0547959	-0.02325	-0.952881	0.146973	0.201904	0.380367	-0.507694	-0.378126	-0.674232	9.98046	1.34521	2.44291	-0.0416156	0.0109986	0.0128501	-1.0271	0.283447	-0.03125	0.423751	-0.476496	-0.60339	-0.47886	9.519	1.51477	-1.59249	0.0987274	-0.00646434	-0.0239064	-1.05273	0.201904	0.162842	-0.232829	0.289174	0.105755	0.922488	5.71121	0.719267	8.51743	-0.0152728	0.0280137	-0.00893596	-0.826172	0.162842	-0.569824	-0.119455	-0.971098	-0.182531	0.0968607	-2.14738	1.91591	-9.2522	0.0263014	0.00619792	0.0189846	0.602051	-0.0300293	0.858398	
52	-0.556827	0.427674	0.380355	0.601971	9.53988	-0.120281	3.54736	-0.0100329	0.0180239	-0.0382916	-0.803467	0.443115	-0.249756	0.535095	-0.420515	-0.401669	-0.612783	9.38599	0.399163	3.40749	0.0316716	0.0478633	-0.0682859	-0.750977	0.270508	-0.207275	0.647692	-0.381703	-0.429941	-0.499948	9.39543	-0.411342	3.63011	-0.104818	0.0105277	-0.0643534	-0.894287	0.371094	-0.411377	0.192955	0.363307	0.00857686	-0.911429	-6.58214	1.05839	7.17303	-0.0218593	0.0698012	-0.0192145	0.344727	0.110107	-0.983887	-0.413089	0.547452	0.303095	0.661654	9.65863	-0.384341	1.96561	0.069416	0.072827	-0.0474605	-0.909912	0.401611	-0.0270996	0.900252	-0.228341	0.233342	0.288025	-6.36971	-3.98731	9.67935	0.0717809	-0.0668831	0.00641102	0.919434	0.323486	-0.351562	-0.346642	0.507699	0.56633	0.548955	9.26137	2.72671	-1.16803	0.0344628	0.00118407	-0.0431389	-0.954834	0.144775	0.208496	0.380142	-0.50825	-0.376824	-0.674668	9.83011	1.17757	2.15951	-0.0360183	0.00807788	0.00659139	-1.02686	0.28125	-0.0358887	0.424588	-0.475813	-0.604493	-0.477404	9.52546	1.7338	-1.75576	0.0893388	0.00716473	-0.0112788	-1.05518	0.204102	0.1604	-0.232105	0.289547	0.105242	0.922613	5.86019	0.727975	8.49852	-0.023726	0.00126343	-0.0172193	-0.830322	0.158447	-0.565186	-0.118916	-0.971226	-0.181851	0.0975185	-2.2946	2.11939	-9.20677	0.0112964	-0.022474	0.0182848	0.601807	-0.0256348	0.867432	
53	-0.555709	0.427953	0.381321	0.602194	9.70936	-0.198606	3.41598	0.00171904	-0.0572518	-0.0491487	-0.807617	0.434326	-0.245361	0.534276	-0.420264	-0.401812	-0.613576	9.47041	0.547852	3.45467	-0.0207846	0.00539955	-0.0525585	-0.753418	0.272705	-0.209717	0.64684	-0.381251	-0.430837	-0.500626	9.60726	-0.614824	3.63554	0.0598556	-0.0195224	-0.0595915	-0.894287	0.364502	-0.411133	0.192404	0.364967	0.00807256	-0.910887	-6.75641	1.06484	7.20643	0.0637859	0.0656446	0.00251686	0.346924	0.110107	-0.990479	-0.412763	0.546786	0.303926	0.662027	9.62765	-0.230021	2.04987	-0.0104467	0.00693828	-0.0559105	-0.909912	0.403809	-0.0317383	0.900488	-0.228141	0.232663	0.287995	-6.36892	-4.01386	9.7518	0.0155955	-0.0326054	-0.0223018	0.91748	0.319092	-0.349365	-0.346232	0.507675	0.566072	0.549502	9.52151	2.35925	-0.968181	-0.0131059	0.0157867	-0.0362281	-0.952393	0.135986	0.200195	0.379407	-0.509401	-0.3773	-0.673947	9.74945	1.30843	1.87768	0.0152503	-0.0743448	-0.00997331	-1.02734	0.287842	-0.0361328	0.42528	-0.475254	-0.604696	-0.477088	9.47225	1.77028	-1.51369	0.0454009	0.0285412	-0.0173181	-1.05518	0.204102	0.158203	-0.231108	0.290702	0.105616	0.922457	5.99955	0.464836	8.45358	0.00348201	-0.032393	-0.0360133	-0.836914	0.156006	-0.567383	-0.119976	-0.971144	-0.181165	0.098303	-2.11774	2.19157	-9.1402	-0.0455376	-0.0329736	0.0181681	0.600098	-0.034668	0.860596	
54	-0.555482	0.426983	0.38194	0.6027	9.63705	-0.198465	3.38087	0.0372603	0.0463012	-0.0403485	-0.80542	0.436523	-0.251709	0.533717	-0.419794	-0.401197	-0.614785	9.25205	0.388784	3.28745	-0.0622123	0.0730409	-0.0528802	-0.751221	0.274902	-0.205078	0.647245	-0.378586	-0.433225	-0.500063	9.42213	-0.273858	3.82526	0.125064	-0.0113312	-0.0567954	-0.900635	0.362549	-0.417969	0.192137	0.366273	0.00799778	-0.910419	-6.52594	1.06776	7.14238	0.0112128	0.056834	-0.010859	0.351562	0.110107	-0.986084	-0.411441	0.547499	0.302924	0.66272	9.51489	-0.398045	2.31648	-0.0899312	-0.00217819	-0.0191815	-0.912109	0.401611	-0.0292969	0.90095	-0.22835	0.232288	0.286684	-6.33616	-4.18031	9.66009	0.0715918	0.0292336	-0.0485257	0.917236	0.323486	-0.351562	-0.345335	0.508443	0.565787	0.549649	9.21251	2.25728	-1.32079	-0.00249099	-0.00399131	-0.0128163	-0.948486	0.144775	0.204102	0.379051	-0.50989	-0.377854	-0.673468	9.70297	1.35833	2.20992	-0.000569146	0.00982331	-0.0386224	-1.03125	0.283447	-0.0290527	0.425835	-0.47483	-0.604603	-0.477132	9.37071	1.72445	-1.63092	0.0406163	0.0390689	-0.0323134	-1.05542	0.210938	0.158203	-0.230225	0.291864	0.10736	0.922109	5.92753	0.808052	8.49477	0.0494186	-0.0625394	-0.0379711	-0.834717	0.158447	-0.55835	-0.122156	-0.970869	-0.180754	0.0990897	-2.06487	1.93276	-9.27259	-0.0697566	-0.0465994	0.010117	0.604492	-0.0344238	0.860596	
55	-0.555949	0.425258	0.382781	0.602955	9.2961	-0.0240734	3.35061	0.0658909	0.0194343	-0.0304542	-0.807373	0.432129	-0.251709	0.533447	-0.419829	-0.400181	-0.615657	9.19599	0.475843	3.23901	-0.0859081	0.0762767	-0.031	-0.753418	0.272705	-0.20752	0.646848	-0.37854	-0.433427	-0.500436	9.43296	-0.384241	3.79752	-0.0485346	-0.00138624	0.00298151	-0.89624	0.362549	-0.415771	0.191503	0.366689	0.00768926	-0.910388	-6.52399	1.11184	7.07905	0.047693	0.0330054	-0.0332563	0.351562	0.10791	-0.986084	-0.410676	0.547763	0.302483	0.663178	9.3824	-0.57528	2.11942	-0.0143101	0.0198232	-0.0301089	-0.909912	0.406006	-0.0292969	0.901383	-0.227086	0.23259	0.286082	-6.29032	-3.86607	9.51642	0.130411	0.0209861	-0.0328796	0.921875	0.319092	-0.349365	-0.345264	0.508052	0.566738	0.549076	9.15139	2.74623	-1.08582	0.0510646	0.0038218	-0.0379054	-0.950439	0.142578	0.199951	0.378708	-0.510165	-0.378781	-0.672932	9.76653	1.32142	2.50005	0.0375273	-0.0210431	-0.0285616	-1.0293	0.287842	-0.0290527	0.425102	-0.47517	-0.603541	-0.478791	9.36467	2.53813	-1.01346	-0.241878	0.0366544	-0.035206	-1.05762	0.206299	0.158203	-0.230387	0.292243	0.108338	0.921834	5.9672	0.692528	8.57801	0.019523	0.00253906	0.0089917	-0.839111	0.153809	-0.562744	-0.122798	-0.970764	-0.180814	0.0992183	-1.99509	1.92822	-9.3104	0.0124755	0.0116896	-0.00710945	0.606934	-0.0388184	0.856201	
56	-0.555949	0.425258	0.382781	0.602955	9.2961	-0.0240734	3.35061	0.0658909	0.0194343	-0.0304542	-0.807373	0.432129	-0.251709	0.533415	-0.420039	-0.399512	-0.615975	9.31021	0.411053	3.22793	-0.0145265	0.0310936	-0.0110017	-0.753418	0.2771	-0.209961	0.64635	-0.380563	-0.430701	-0.501897	9.42822	-0.416895	3.62169	-0.162965	0.0649904	0.0202785	-0.900635	0.366943	-0.404541	0.190603	0.366377	0.0076003	-0.910703	-6.51999	1.11089	7.21235	0.00164711	-0.0216166	-0.0312513	0.349121	0.110107	-0.986084	-0.412836	0.546463	0.303655	0.662373	9.53267	-0.348295	1.95041	0.134482	0.0356896	0.0299741	-0.907715	0.403809	-0.0339355	0.90144	-0.226734	0.232342	0.286381	-6.31105	-4.07635	9.64018	0.00760876	0.00764839	0.01481	0.91748	0.319092	-0.344971	-0.345136	0.508378	0.566531	0.549068	9.23063	2.66483	-1.24251	-0.00612626	-0.00281275	-0.000884821	-0.950439	0.142578	0.202148	0.378296	-0.509785	-0.379198	-0.673216	9.74404	1.44143	2.50716	0.0137038	0.0244218	-0.0763206	-1.0271	0.285645	-0.0336914	0.421865	-0.477372	-0.600076	-0.483792	9.49652	0.940339	-2.05298	-0.248284	0.0437192	-0.0392958	-1.05737	0.199463	0.160645	-0.230383	0.292267	0.10851	0.921808	6.02481	0.704722	8.45587	0.0115016	0.00868709	0.000383137	-0.839111	0.151611	-0.562744	-0.12284	-0.970782	-0.180743	0.0991194	-2.11041	1.89991	-9.39653	-0.00106431	0.0136422	0.000942368	0.604736	-0.0390625	0.856201	
57	-0.556268	0.424309	0.384285	0.602373	9.68454	0.17829	3.34921	0.0271131	-0.0287625	-0.00458234	-0.80542	0.436523	-0.253906	0.533685	-0.420162	-0.399268	-0.615816	9.46025	0.392726	3.30983	0.00576317	0.000674123	0.00984765	-0.746826	0.272705	-0.212158	0.646022	-0.381558	-0.428955	-0.503056	9.47749	-0.661238	3.51307	-0.165773	0.0761734	0.0164439	-0.896484	0.368896	-0.411377	0.189949	0.365228	0.00879825	-0.911291	-6.58404	1.2362	7.2185	-0.043739	-0.0360033	-0.0425336	0.34668	0.118896	-0.986328	-0.413725	0.546063	0.30397	0.662004	9.64158	-0.208705	1.93672	0.0749505	0.0238474	0.0229493	-0.909912	0.406006	-0.0361328	0.901242	-0.226551	0.232581	0.286957	-6.4083	-4.1463	9.66434	-0.000181233	0.0372737	0.0121791	0.919678	0.316895	-0.35791	-0.344597	0.509133	0.566067	0.549186	9.50741	2.54911	-1.50363	-0.0148988	-0.0137356	-0.014126	-0.950439	0.140381	0.206299	0.377233	-0.509994	-0.381335	-0.672447	10.0399	1.32974	2.0978	0.0756744	-0.111937	-0.0351318	-1.03125	0.283447	-0.0266113	0.421621	-0.477356	-0.599477	-0.484761	9.64803	1.68535	-1.43547	-0.0733374	0.0540408	-0.0392456	-1.05273	0.201904	0.165039	-0.230258	0.291603	0.108785	0.922017	5.92413	0.899273	8.70943	0.00860517	0.0377131	-0.0152457	-0.828125	0.15625	-0.562744	-0.122458	-0.97094	-0.180429	0.0986159	-2.22157	2.32307	-9.32209	-0.00315419	0.0292573	0.0102813	0.602295	-0.0368652	0.860596	
58	-0.5572	0.424725	0.382931	0.602081	9.53551	-0.115716	3.34637	-0.0308768	0.0470254	0.0732122	-0.805664	0.443115	-0.258301	0.533658	-0.420787	-0.398501	-0.61591	9.54354	0.306415	3.31834	-0.0367972	0.018753	-0.00539464	-0.74707	0.2771	-0.20752	0.646592	-0.380922	-0.429397	-0.50243	9.48045	-0.653631	3.52403	0.115255	-0.0187261	0.0079908	-0.89209	0.366699	-0.413574	0.189336	0.364711	0.00860184	-0.911627	-6.53049	1.15393	7.32099	0.0172745	-0.00853376	-0.0086825	0.342285	0.114502	-0.986084	-0.412826	0.547287	0.302744	0.662116	9.911	-0.277394	2.00124	-0.117385	-0.0309585	-0.0034759	-0.905518	0.403809	-0.0317383	0.901019	-0.227269	0.23332	0.286489	-6.6012	-4.04708	9.67536	-0.0281639	0.0729425	-0.0330043	0.919434	0.321289	-0.343018	-0.344014	0.509558	0.56556	0.549679	9.45988	2.55783	-1.19476	-0.0506897	-0.0263426	-0.00927881	-0.950439	0.144775	0.210449	0.376419	-0.510218	-0.381711	-0.672519	9.87998	1.32525	2.06506	-0.0331433	0.0249574	-0.0481915	-1.02905	0.279053	-0.0288086	0.419849	-0.478954	-0.597735	-0.48687	9.41139	1.57563	-1.58747	-0.285087	0.000770127	-0.0162436	-1.05029	0.199707	0.158447	-0.229422	0.291786	0.10856	0.922194	6.10505	0.791769	8.48924	-0.0218389	0.0221579	-0.0253027	-0.83667	0.151611	-0.564941	-0.123408	-0.970928	-0.179976	0.0983781	-2.13946	1.9523	-9.31505	-0.0105668	0.00596538	0.0152967	0.602295	-0.0368652	0.858398	
59	-0.557578	0.425626	0.381784	0.601822	9.62655	-0.242252	3.28203	-0.0366457	-0.0180958	0.0403377	-0.805664	0.443115	-0.256104	0.533127	-0.421443	-0.398483	-0.615933	9.44122	0.490011	3.2786	-0.0157452	-0.000210356	-0.0177591	-0.757812	0.279297	-0.209961	0.647199	-0.37989	-0.430395	-0.501575	9.45986	-0.230147	3.72937	0.0307029	0.00466042	0.000514942	-0.89624	0.364502	-0.411133	0.188992	0.364611	0.00775599	-0.911746	-6.55624	1.28693	7.24728	0.0364853	-0.00763804	0.00616686	0.349365	0.10791	-0.988281	-0.410875	0.549734	0.300982	0.662106	9.68308	-0.504685	2.13252	-0.109055	-0.0498096	0.00694821	-0.916748	0.408203	-0.0249023	0.900672	-0.22901	0.233891	0.285725	-6.3634	-4.24201	9.77265	-0.00766338	0.0749289	-0.0433428	0.919678	0.319092	-0.349365	-0.344335	0.509183	0.565512	0.549875	9.29594	2.55072	-1.18924	0.0419353	0.0325913	-0.0359076	-0.950195	0.138184	0.208496	0.375938	-0.510704	-0.381198	-0.672711	9.87722	1.41529	2.36638	-0.0433929	0.0277083	-0.0278428	-1.03076	0.270264	-0.0310059	0.418989	-0.479992	-0.598316	-0.485875	9.56072	1.51825	-1.75595	0.0138289	-0.0384929	-0.00617032	-1.05737	0.199463	0.158203	-0.229258	0.291706	0.10916	0.922189	5.8325	0.664979	8.38243	0.0391075	-0.00819725	-0.0125774	-0.839111	0.153809	-0.555908	-0.122987	-0.971088	-0.17939	0.0983917	-2.13998	2.00663	-9.31987	0.0181598	-0.00097033	0.0201763	0.598145	-0.0412598	0.856201	
60	-0.557653	0.426235	0.380934	0.60186	9.52273	-0.434067	3.33619	-0.025845	0.0115579	0.0182978	-0.80127	0.443115	-0.258301	0.533194	-0.421527	-0.398219	-0.615987	9.33064	0.363272	3.25155	-0.0412639	0.0109825	-0.0119935	-0.751221	0.272705	-0.200439	0.646784	-0.381222	-0.428626	-0.502612	9.35726	-0.507705	3.62948	-0.0982973	0.0258163	0.0236698	-0.896484	0.364746	-0.417969	0.18902	0.364368	0.00800704	-0.911835	-6.53365	1.29279	7.21443	-0.0228366	-0.0106863	-0.00401367	0.340332	0.112305	-0.981689	-0.410916	0.550009	0.300897	0.66189	9.66014	-0.375847	2.22205	0.00529413	0.00647865	-0.00956248	-0.907959	0.408203	-0.0224609	0.900675	-0.229342	0.233985	0.285373	-6.4385	-4.1927	9.62665	0.0256618	0.0229486	-0.0227422	0.91748	0.319092	-0.347168	-0.345105	0.508944	0.564617	0.550533	9.16476	2.58791	-1.19527	0.0137072	0.0984678	-0.00284153	-0.957275	0.148926	0.199707	0.375545	-0.511257	-0.381373	-0.672411	9.79643	1.28141	2.12949	0.0200122	-0.0359295	-0.0101277	-1.02466	0.279053	-0.0219727	0.41924	-0.479905	-0.59883	-0.48511	9.38501	1.60417	-1.52282	0.0270366	-0.00896879	-0.0148372	-1.05737	0.201904	0.162842	-0.228807	0.291325	0.108934	0.922448	5.97179	0.801771	8.51119	-0.0332087	0.0388177	-0.00332167	-0.832275	0.151855	-0.564941	-0.122835	-0.971216	-0.178899	0.0982129	-2.21522	2.05103	-9.16456	-0.0126853	0.0201379	0.00742607	0.604736	-0.0366211	0.863037	
61	-0.557652	0.426076	0.380893	0.602	9.67078	-0.14838	3.44721	-0.00192933	0.0102252	0.00492071	-0.805664	0.438721	-0.251709	0.532968	-0.421794	-0.397968	-0.616163	9.31328	0.445658	3.30277	-0.033851	0.0105553	-0.0167628	-0.753662	0.279297	-0.207764	0.646632	-0.381462	-0.428657	-0.502601	9.28915	-0.560058	3.68668	0.0285251	-0.0171868	-0.00327657	-0.896484	0.368896	-0.416016	0.188789	0.363934	0.00881719	-0.912049	-6.52068	1.10064	7.11719	-0.0292524	-0.00923447	-0.0203462	0.342773	0.10791	-0.986084	-0.411143	0.549443	0.30092	0.662209	9.65766	-0.469106	2.11523	0.00539912	0.0298668	-0.0158732	-0.909912	0.401611	-0.0292969	0.901034	-0.228203	0.23391	0.285213	-6.46979	-4.05058	9.61273	0.0628498	0.00377129	-0.0109576	0.923828	0.321289	-0.34082	-0.34471	0.50941	0.563918	0.551065	9.49099	2.28087	-1.5452	-0.00719264	0.0470217	-0.00367391	-0.95459	0.140381	0.199951	0.37582	-0.510774	-0.380711	-0.672999	9.85742	1.25769	2.02637	-0.00341342	0.0471259	0.00554199	-1.03101	0.274658	-0.0263672	0.419328	-0.479673	-0.599772	-0.484098	9.52248	2.50945	-1.39461	-0.0470789	-0.0288848	-0.0187405	-1.05737	0.20166	0.167236	-0.228508	0.2917	0.108313	0.922477	6.07095	0.60544	8.42003	-0.00845605	0.00711056	0.00324438	-0.839111	0.153809	-0.560547	-0.122756	-0.971261	-0.178663	0.0982945	-2.19276	2.01908	-9.28447	0.0117815	-2.42677e-05	0.00154993	0.607178	-0.0456543	0.86084	
62	-0.557735	0.426159	0.380687	0.601995	9.35117	-0.292473	3.36879	-0.000911905	-0.0116304	0.0015748	-0.803223	0.43457	-0.253906	0.532485	-0.422491	-0.397939	-0.616122	9.50759	0.336578	3.32288	-0.0263263	-0.0305489	-0.0196113	-0.751221	0.274902	-0.205078	0.646303	-0.382288	-0.427813	-0.503114	9.63643	-0.30056	3.5455	-0.104148	0.0249965	0.0117404	-0.89209	0.364502	-0.413574	0.187235	0.363579	0.00753756	-0.912522	-6.58298	1.15377	7.26418	0.0776956	-0.00938701	-0.0256124	0.342773	0.105713	-0.986084	-0.411036	0.549454	0.301374	0.66206	9.69396	-0.461007	1.92265	0.00948131	-0.0165217	-0.0301083	-0.907715	0.401611	-0.0292969	0.901196	-0.228684	0.233361	0.284767	-6.45989	-4.22938	9.694	-0.0340771	0.0234766	-0.0415491	0.915283	0.321289	-0.34082	-0.346749	0.508031	0.5623	0.55271	9.3238	2.54122	-1.42055	-0.02704	0.195437	0.0171111	-0.952637	0.142578	0.195557	0.375563	-0.509632	-0.380797	-0.67396	9.72994	1.39339	2.01009	0.00232831	0.0677061	-0.0726809	-1.03101	0.274658	-0.0288086	0.417314	-0.481514	-0.598987	-0.484983	9.44104	1.34996	-1.85772	-0.0180932	-0.0440308	-0.0220306	-1.05542	0.206299	0.169434	-0.228765	0.291743	0.108747	0.922348	5.96262	0.759934	8.53945	0.0189773	8.33071e-05	0.0110862	-0.832275	0.151855	-0.562744	-0.122245	-0.971331	-0.178439	0.0986461	-2.05429	2.01319	-9.22735	0.0332763	-0.0018953	-0.00406902	0.602539	-0.0390625	0.86084	
63	-0.55759	0.426623	0.381803	0.601093	9.82891	-0.227031	3.39293	0.034562	-0.0476461	0.0109402	-0.801025	0.438965	-0.253906	0.532506	-0.422834	-0.396838	-0.616577	9.37685	0.382031	3.21843	-0.035838	0.0490394	0.00427862	-0.753662	0.281494	-0.210205	0.645827	-0.383146	-0.426526	-0.504165	9.39642	-0.865597	3.583	-0.00435229	0.00747829	-0.00207662	-0.892334	0.373291	-0.416016	0.18684	0.363396	0.00751949	-0.912676	-6.49166	1.26017	7.30131	-0.0383969	0.000289061	-0.00470766	0.342285	0.114502	-0.990479	-0.411048	0.549622	0.30152	0.661846	9.62436	-0.338576	2.09385	-0.0126791	0.00474447	0.00390231	-0.914551	0.408203	-0.0249023	0.901382	-0.228272	0.233773	0.284169	-6.40454	-4.03918	9.66339	0.0531775	0.0409207	-0.016826	0.921387	0.327637	-0.343018	-0.34708	0.507945	0.561843	0.553046	9.34789	2.53464	-0.719688	0.00951042	0.0156729	-0.0152146	-0.957031	0.144775	0.195557	0.375645	-0.51022	-0.381218	-0.673231	10.1016	1.43772	2.43997	0.0176749	-0.0317546	0.0177221	-1.0332	0.279053	-0.0241699	0.417515	-0.481075	-0.600064	-0.483913	9.75225	1.34972	-1.89414	0.0793715	-0.00882352	-0.0271291	-1.05298	0.208496	0.171631	-0.228888	0.291389	0.108644	0.922442	5.9309	0.737079	8.61298	-2.42649e-05	0.0226401	0.00516771	-0.832275	0.149658	-0.562744	-0.12232	-0.971336	-0.178548	0.0983048	-2.11618	2.10263	-9.43352	-0.0283381	0.0169365	-0.00743525	0.609375	-0.0410156	0.856201	
64	-0.557941	0.426565	0.381981	0.600695	9.72755	-0.256257	3.38875	0.0359976	-0.0112059	0.0255989	-0.805664	0.440918	-0.251709	0.532673	-0.422834	-0.39673	-0.616503	9.40023	0.239314	3.20269	0.0032243	0.0211558	-0.00151241	-0.746826	0.272705	-0.209717	0.646317	-0.382397	-0.427293	-0.503455	9.33774	-0.704503	3.60784	0.112749	-0.0136189	0.00837763	-0.892334	0.375488	-0.413818	0.18681	0.363202	0.00787389	-0.912756	-6.44934	1.01982	7.19734	-0.0270394	-0.00416722	-0.010317	0.340088	0.114502	-0.986084	-0.410867	0.549954	0.300804	0.662009	9.69052	-0.438172	2.14975	-0.0637486	0.0166419	0.0118336	-0.914551	0.408203	-0.0249023	0.90137	-0.228181	0.233964	0.284125	-6.51487	-4.07424	9.57058	0.0199838	0.034628	-0.000689953	0.921631	0.325684	-0.34082	-0.347064	0.508328	0.56139	0.553164	9.64311	2.47502	-1.42834	-0.0201031	0.0116717	0.0130612	-0.952637	0.142578	0.195557	0.375732	-0.510345	-0.380906	-0.673264	9.95571	1.35364	2.09254	-0.0125984	0.0241536	0.00341922	-1.03296	0.270264	-0.0288086	0.418242	-0.480199	-0.601171	-0.482779	9.50818	1.79198	-1.69801	0.159005	-0.00385806	-0.0387621	-1.05493	0.199463	0.169434	-0.228784	0.29125	0.108405	0.92254	6.05272	0.745399	8.43214	-0.0191313	0.0301314	-0.000957261	-0.83252	0.15625	-0.560547	-0.122465	-0.971306	-0.178622	0.0982926	-2.25919	1.86044	-9.36463	-0.00951998	0.00679561	-0.0114438	0.607178	-0.0412598	0.856201	
65	-0.558416	0.426506	0.382324	0.600077	9.71705	-0.214438	3.39273	0.0203948	-0.0164029	0.0124122	-0.803467	0.440918	-0.253906	0.532741	-0.4231	-0.396713	-0.616273	9.47393	0.315048	3.41794	0.00143035	0.00577676	-0.00604187	-0.751465	0.281494	-0.207764	0.646795	-0.381534	-0.427992	-0.502903	9.41502	-0.437627	3.65689	0.110531	-0.000708258	-0.00224385	-0.894287	0.371094	-0.413574	0.186562	0.363255	0.00759879	-0.912789	-6.51464	1.14087	7.33198	0.00355535	0.0086283	0.00784563	0.344482	0.116699	-0.992676	-0.410098	0.550723	0.30049	0.661989	9.80176	-0.57407	2.09369	-0.023528	-0.0277417	-0.0237178	-0.909912	0.406006	-0.0180664	0.901305	-0.228879	0.233745	0.28395	-6.52342	-4.12633	9.70677	-0.0299077	0.0249776	-0.0250848	0.924072	0.316895	-0.338623	-0.34864	0.507035	0.560855	0.553902	9.31099	2.52539	-1.04595	0.0375401	0.074289	-0.0287876	-0.959229	0.146973	0.193359	0.37624	-0.509758	-0.381084	-0.673323	9.98172	1.38309	2.32645	0.0298399	0.0775068	-0.0296037	-1.02686	0.276855	-0.0241699	0.418605	-0.479785	-0.602323	-0.481439	9.5219	1.4872	-1.7533	0.0667414	-0.0289565	-0.0175263	-1.05054	0.20166	0.173828	-0.229542	0.291521	0.1085	0.922255	5.82311	0.612551	8.52963	0.0192275	-0.0294077	0.0326056	-0.839111	0.153809	-0.560547	-0.121287	-0.971389	-0.178763	0.0986751	-2.27117	2.0926	-9.28236	0.0498448	-0.00471985	-0.0109252	0.604736	-0.0366211	0.858398	
66	-0.559	0.426399	0.381761	0.599968	9.67108	-0.402586	3.35842	-0.000403548	0.0348737	0.0197678	-0.803467	0.443115	-0.253906	0.533	-0.422875	-0.397691	-0.615572	9.40526	0.316237	3.26519	0.057834	-0.0212154	-0.0209139	-0.753418	0.274902	-0.212158	0.646462	-0.382124	-0.427597	-0.503218	9.29481	-0.676219	3.58537	-0.0173334	-0.00523326	0.0060214	-0.892334	0.373291	-0.416016	0.187781	0.363373	0.00807644	-0.912487	-6.45633	1.20441	7.17828	-0.0558223	0.0191057	0.0537496	0.344482	0.114502	-0.990479	-0.410067	0.551192	0.30166	0.661086	9.76555	-0.47963	2.23243	0.0480226	-0.0483871	-0.017546	-0.905518	0.401611	-0.0249023	0.901196	-0.229964	0.23299	0.284039	-6.54242	-3.91495	9.67746	-0.0779126	-0.00257249	-0.0238915	0.915283	0.319092	-0.342773	-0.349574	0.5062	0.560509	0.554427	9.41581	2.64884	-1.15493	0.0623644	0.0651809	-0.0149846	-0.957031	0.146973	0.187012	0.377404	-0.509274	-0.380069	-0.673612	9.95372	1.47818	2.31467	-0.00258006	0.0432919	0.0511242	-1.0332	0.274658	-0.0334473	0.421578	-0.476971	-0.606448	-0.476436	9.64074	1.49143	-1.88121	0.414305	-0.0245127	-0.0315758	-1.05518	0.20166	0.171631	-0.230352	0.291678	0.110556	0.921759	5.99922	0.847899	8.5331	0.121916	0.00578458	0.013078	-0.834473	0.151855	-0.555908	-0.120572	-0.971405	-0.178686	0.0995291	-2.11678	2.08825	-9.40004	0.0305787	-0.0243785	-0.00769927	0.602539	-0.0390625	0.856201	
67	-0.559221	0.425133	0.382461	0.600214	9.58562	-0.28148	3.28645	0.0650982	0.010415	-0.0417848	-0.803223	0.438965	-0.262451	0.533268	-0.422457	-0.398889	-0.614852	9.41997	0.420886	3.39052	0.0399925	0.00673151	-0.0133158	-0.753662	0.279297	-0.207764	0.6469	-0.381427	-0.42893	-0.502049	9.66513	-0.453675	3.54946	0.0969061	-0.0285286	0.00329129	-0.894287	0.373291	-0.411377	0.188789	0.363732	0.00733003	-0.912143	-6.54283	1.26589	7.32319	0.0168719	0.0235171	0.0596695	0.346924	0.112305	-0.986084	-0.410385	0.55079	0.303339	0.660454	9.65189	-0.335993	2.19131	0.0664283	-0.00700135	-0.037752	-0.905518	0.403809	-0.015625	0.901137	-0.230904	0.231321	0.284825	-6.41256	-4.1361	9.81304	0.00325584	-0.0344494	-0.00486999	0.915039	0.323486	-0.345215	-0.351721	0.504515	0.560979	0.55413	9.2898	2.39323	-0.773337	0.119985	0.083203	-0.0337547	-0.957275	0.148926	0.189209	0.377833	-0.50963	-0.380018	-0.673131	9.53852	1.51452	1.64827	0.0317238	-0.0445834	0.00306654	-1.03125	0.279053	-0.0334473	0.423373	-0.475548	-0.608005	-0.474278	9.36597	2.29023	-1.95598	0.00997407	0.0283294	-0.000938054	-1.05737	0.20166	0.169434	-0.230627	0.291982	0.111376	0.921495	5.92952	0.871132	8.58373	0.017569	-0.0110704	0.00937439	-0.832275	0.151855	-0.555908	-0.120842	-0.971289	-0.178947	0.0998657	-2.06637	2.34057	-9.13431	-0.0573586	0.00303319	-0.0269912	0.602539	-0.0390625	0.86084	
68	-0.560272	0.423711	0.382991	0.599902	9.4576	-0.064826	3.27135	0.0583233	0.0357555	0.0174186	-0.803223	0.438965	-0.262451	0.534375	-0.421262	-0.399207	-0.614504	9.19965	0.395149	3.26377	0.0801215	0.0582626	-0.00947478	-0.746826	0.274902	-0.20752	0.647747	-0.380088	-0.43083	-0.500342	9.11332	-0.504006	3.7516	0.130686	-0.0327131	0.00832383	-0.89209	0.371094	-0.416016	0.191219	0.363949	0.0087484	-0.911537	-6.44523	1.06361	7.09066	-0.118085	0.0326886	0.0779594	0.344482	0.116699	-0.988281	-0.411869	0.549258	0.304112	0.66045	9.5596	-0.500357	2.05817	0.077236	0.0499011	-0.00277025	-0.909912	0.406006	-0.0270996	0.901324	-0.229763	0.230267	0.28601	-6.33034	-3.92615	9.6327	0.0182062	-0.0467903	0.044411	0.91748	0.316895	-0.342773	-0.351963	0.503577	0.561208	0.554597	9.18008	2.62903	-1.00936	-0.0334357	0.0497503	-0.0323204	-0.952881	0.146973	0.182861	0.377641	-0.510531	-0.382441	-0.671181	9.50181	1.47624	1.71545	0.0871178	-0.0884086	-0.0364481	-1.0293	0.283447	-0.0244141	0.424342	-0.474675	-0.606902	-0.475697	9.20247	1.8117	-1.88381	0.0198539	0.113735	-0.032354	-1.05298	0.204102	0.158203	-0.231218	0.29231	0.112939	0.921053	5.84101	0.698888	8.35325	0.0780115	-0.00420447	0.0151215	-0.838867	0.149414	-0.560303	-0.123131	-0.970781	-0.180275	0.0996162	-2.01289	2.23521	-8.95784	-0.0961005	0.00765142	-0.0538669	0.602539	-0.043457	0.86084	
69	-0.561494	0.422403	0.382573	0.599948	9.63231	-0.207364	3.43734	0.0346801	0.066523	0.0101651	-0.797119	0.445557	-0.260498	0.53552	-0.419477	-0.400526	-0.61387	9.17512	0.379711	3.33593	0.0828102	0.0275763	-0.0272917	-0.750977	0.270508	-0.216797	0.648589	-0.378281	-0.432151	-0.499482	9.11985	-0.174912	3.83259	0.0642375	0.0179194	-0.0186021	-0.89209	0.362305	-0.417969	0.192954	0.364323	0.0109967	-0.910998	-6.47269	0.804563	6.96626	-0.0783958	0.047611	0.0209606	0.344482	0.118896	-0.986328	-0.413409	0.547703	0.30487	0.660431	9.41129	-0.181411	2.05326	0.0401608	0.04652	-0.00871325	-0.912109	0.406006	-0.0339355	0.901119	-0.229507	0.228952	0.287908	-6.25061	-4.02977	9.5846	-0.00589799	-0.0329643	0.0430089	0.919678	0.314697	-0.349121	-0.351994	0.503047	0.561822	0.554436	9.26767	2.31701	-0.90394	0.0742503	0.0016077	-0.0478638	-0.957031	0.144775	0.185059	0.377663	-0.512042	-0.385241	-0.668411	10.0238	1.23768	2.446	0.0841636	-0.091165	-0.001429	-1.03345	0.28125	-0.0219727	0.426009	-0.472896	-0.606236	-0.476827	9.71019	2.01177	-0.887299	0.0320181	0.0966646	-0.0348779	-1.06421	0.199463	0.158203	-0.232562	0.29239	0.116137	0.920291	5.76031	1.06002	8.21138	0.148298	-0.0311765	0.0229204	-0.834229	0.143066	-0.555664	-0.124696	-0.970442	-0.181198	0.099301	-2.15332	2.12928	-9.00209	-0.133658	0.0150324	-0.0672515	0.609375	-0.0410156	0.86084	
70	-0.562712	0.420376	0.381633	0.600829	9.38989	-0.329118	3.57366	0.0378073	0.109281	-0.0150842	-0.801025	0.438965	-0.266846	0.535778	-0.418752	-0.401363	-0.613593	9.3623	0.433531	3.36	0.0438545	0.00611217	-0.0218295	-0.749023	0.272705	-0.209717	0.648228	-0.378154	-0.431507	-0.5006	9.63972	-0.497978	3.54212	-0.0315313	0.0239421	-0.0180992	-0.89624	0.364746	-0.415771	0.192992	0.364636	0.0110907	-0.910863	-6.58138	0.9237	7.08238	-0.00276129	0.0352504	0.0056521	0.35083	0.123291	-0.988525	-0.413499	0.547829	0.305102	0.660163	9.63447	-0.565046	2.08908	0.024029	-0.0292306	-0.0173812	-0.909912	0.403809	-0.0292969	0.900977	-0.230356	0.227687	0.288678	-6.37354	-4.01137	9.72431	-0.0762137	-0.0134684	-0.00648688	0.921875	0.319092	-0.349365	-0.352151	0.502595	0.563015	0.553536	9.3273	2.4642	-1.30521	0.10131	-0.00136422	-0.0224462	-0.959473	0.148926	0.184814	0.377905	-0.510868	-0.386163	-0.66864	9.57579	1.32509	2.35299	0.0555001	0.0717037	-0.0952604	-1.02466	0.279053	-0.0241699	0.424789	-0.473546	-0.604332	-0.479679	9.16054	1.70103	-1.39521	-0.117167	0.037707	-0.0512959	-1.05493	0.197266	0.160645	-0.233361	0.292814	0.117477	0.919783	6.44293	1.42067	8.46079	0.0156034	-0.00592115	0.0261688	-0.836426	0.143066	-0.560303	-0.127196	-0.969713	-0.183014	0.0999173	-2.12181	1.84466	-9.27468	-0.0122579	-0.0267649	-0.0257991	0.60498	-0.043457	0.858643	
71	-0.56342	0.41818	0.38225	0.601305	9.4327	-0.0962983	3.56921	0.0722751	0.0347642	-0.0365442	-0.798828	0.436768	-0.266846	0.535903	-0.418834	-0.402113	-0.612937	9.4219	0.492699	3.08806	0.0589662	-0.0301783	-0.00793908	-0.751221	0.272705	-0.216797	0.648552	-0.378067	-0.432061	-0.499769	9.37552	-0.617624	3.51653	0.0660135	-0.0373239	0.0218663	-0.896484	0.368896	-0.416016	0.1938	0.364978	0.010158	-0.910565	-6.55116	1.46849	7.20702	-0.0239141	0.00211593	0.0577814	0.340088	0.116699	-0.988281	-0.415033	0.546837	0.307785	0.658776	9.74173	-0.2737	1.85114	0.151316	-0.00489248	-0.0131489	-0.905762	0.4104	-0.0317383	0.900463	-0.232288	0.226229	0.289878	-6.31699	-4.26032	9.65381	-0.103752	-0.0173547	0.0164523	0.924072	0.316895	-0.349121	-0.351453	0.502899	0.564882	0.551799	9.51414	2.83218	-1.06114	0.0114219	-0.0903491	-0.0452195	-0.956787	0.140381	0.189453	0.377753	-0.50891	-0.387695	-0.669333	10.0547	1.5301	2.30909	0.0572181	0.0311959	-0.0615831	-1.03296	0.272461	-0.0241699	0.419443	-0.478661	-0.600444	-0.484168	9.61116	2.24607	-1.84524	-0.528574	-0.0895075	-0.00707962	-1.05518	0.201904	0.165039	-0.233259	0.29366	0.116428	0.919673	6.01643	0.779111	8.46386	-0.0580488	-0.00814528	0.00520682	-0.836426	0.143066	-0.555664	-0.126284	-0.969908	-0.182641	0.0998639	-2.00071	2.03005	-9.54293	0.0627144	0.0181025	0.0133684	0.609375	-0.0410156	0.86084	
72	-0.56357	0.41779	0.382846	0.601056	9.65622	-0.0127332	3.61894	0.0600072	-0.0145262	-0.0146299	-0.798828	0.438965	-0.269043	0.536135	-0.418568	-0.403642	-0.61191	9.62406	0.442543	3.23233	0.125585	-0.0658152	-0.0213631	-0.748779	0.266113	-0.214355	0.648675	-0.377972	-0.432692	-0.499135	9.44489	-0.482852	3.5479	0.0604596	-0.0422646	0.0166751	-0.896484	0.364746	-0.417969	0.194699	0.364832	0.0103097	-0.910431	-6.63101	1.33697	7.30454	-0.0394827	0.00307706	0.0663303	0.34668	0.116699	-0.988281	-0.416325	0.54596	0.30883	0.658199	9.90536	-0.169998	1.81181	0.149392	0.0258457	0.00590766	-0.905762	0.408203	-0.0317383	0.900221	-0.233156	0.225448	0.29054	-6.45448	-4.43791	9.79358	-0.0880732	-0.0223479	0.0175276	0.919678	0.316895	-0.344971	-0.350783	0.503591	0.564687	0.551793	9.73839	2.67373	-1.14984	-0.0378229	-0.0433557	-0.00855549	-0.955078	0.146973	0.189209	0.377499	-0.50876	-0.387702	-0.669586	10.0506	1.6465	1.9778	-0.00769353	0.0277427	-0.0425382	-1.02905	0.279053	-0.0266113	0.418188	-0.479684	-0.599333	-0.485615	9.96019	-0.372623	-2.47421	-0.190113	0.000676916	-0.0250528	-1.05762	0.204102	0.171631	-0.233231	0.2931	0.116034	0.919908	6.34359	1.05223	8.51747	-0.0220042	0.068044	0.002222	-0.832275	0.149658	-0.560303	-0.126284	-0.969908	-0.182641	0.0998639	-2.00071	2.03005	-9.54293	0.0627144	0.0181025	0.0133684	0.609375	-0.0410156	0.86084	
73	-0.563506	0.41834	0.384047	0.599967	9.73953	0.0092802	3.50489	0.0203895	-0.0774015	0.017701	-0.794434	0.437012	-0.270996	0.536083	-0.418361	-0.407011	-0.609862	9.8793	0.373185	3.44661	0.0820815	-0.0783103	-0.0352166	-0.753174	0.270508	-0.214355	0.648295	-0.378098	-0.433538	-0.498798	9.9906	-0.417691	3.61915	0.0133151	-0.032106	-0.0221547	-0.894287	0.366699	-0.415771	0.196116	0.365254	0.00957155	-0.909965	-6.84996	0.998884	7.5301	0.0381837	0.0318214	0.0688836	0.349121	0.114502	-0.981689	-0.416102	0.546224	0.308805	0.658132	10.2989	-0.00646076	1.99651	-0.0972737	-0.0209633	-0.028124	-0.905518	0.403809	-0.0339355	0.899686	-0.236025	0.224248	0.29081	-6.71331	-4.57869	9.86987	-0.117426	0.0273052	-0.0501666	0.921875	0.316895	-0.342773	-0.349747	0.504616	0.564403	0.551805	9.76479	2.35708	-1.15861	-0.0221084	-0.0141949	-0.0276144	-0.95459	0.140381	0.193604	0.377196	-0.510621	-0.386553	-0.669004	10.1004	1.36252	2.0993	-0.0663061	-0.0192255	0.0513782	-1.0332	0.279053	-0.0219727	0.41875	-0.479714	-0.599402	-0.485015	9.60877	1.93386	-1.53616	-0.123628	-0.0172575	0.0315573	-1.05518	0.201904	0.162842	-0.232389	0.292801	0.114746	0.920378	6.0193	0.702261	8.59124	-0.0704991	-0.00252578	-0.0256758	-0.838867	0.149414	-0.555908	-0.125075	-0.970287	-0.181637	0.0995357	-2.39269	2.29372	-9.3297	-0.0269705	0.00810093	0.0235508	0.607178	-0.0412598	0.856201	
74	-0.562884	0.4194	0.384731	0.599372	9.54509	-0.0693157	3.29408	-0.0134789	-0.0488845	-0.00587883	-0.803223	0.436768	-0.269043	0.535406	-0.418548	-0.406843	-0.61044	9.29383	0.541986	3.08539	-0.0274209	0.0573056	-0.0371966	-0.755371	0.268311	-0.209717	0.64839	-0.377044	-0.435548	-0.497721	9.49095	-0.561424	3.88838	0.116318	-0.0377231	-0.00462832	-0.898438	0.362549	-0.415771	0.196853	0.365811	0.00872635	-0.909591	-6.58865	1.24734	7.15802	0.000639927	0.0139797	0.0206305	0.351074	0.116699	-0.981689	-0.412418	0.548961	0.30649	0.659254	9.4654	-0.525642	2.17241	-0.176889	-0.0394139	-0.0429143	-0.909912	0.401611	-0.0202637	0.900003	-0.23659	0.224506	0.289165	-6.2775	-4.22869	9.65961	0.059804	0.053652	-0.067696	0.921631	0.321289	-0.34082	-0.347727	0.505813	0.565672	0.550685	9.07208	2.35148	-1.36811	0.019255	-0.129978	-0.0304151	-0.95459	0.140381	0.197754	0.376876	-0.511019	-0.385547	-0.669461	9.46975	1.40113	1.77367	-0.018286	0.0196724	-0.0232893	-1.03076	0.272461	-0.0170898	0.419859	-0.479584	-0.59965	-0.483877	9.24134	2.03154	-1.51205	0.179243	0.0200687	0.000614613	-1.05981	0.204102	0.162598	-0.231967	0.292727	0.115406	0.920426	6.11882	0.727679	8.31021	0.0706279	0.0310595	-0.013071	-0.838623	0.14502	-0.558105	-0.124877	-0.970406	-0.181309	0.0992241	-2.1737	2.1058	-9.164	0.00878767	0.0158943	0.0114111	0.607178	-0.0456543	0.86084	
75	-0.562378	0.420301	0.384509	0.599359	9.38	-0.153755	3.29717	-0.0336619	-0.0274831	0.0046414	-0.801025	0.436768	-0.264648	0.536105	-0.417876	-0.405821	-0.610967	9.0665	0.446314	2.97853	-0.0064389	0.0594468	-0.0030411	-0.755371	0.268311	-0.216797	0.649043	-0.376477	-0.435214	-0.49759	8.80943	-0.178728	3.87919	-0.0407291	0.0557671	0.0145496	-0.894043	0.360352	-0.420166	0.195625	0.365238	0.0100595	-0.910072	-6.33344	0.989356	6.89664	-0.0318019	-0.0174844	-0.0971109	0.34668	0.116699	-0.986084	-0.413524	0.547601	0.306656	0.659616	9.2005	-0.613694	2.04535	0.113175	0.0976793	0.00170927	-0.910156	0.408203	-0.0292969	0.900673	-0.233701	0.224959	0.289076	-6.14797	-3.91946	9.41098	0.136133	-0.0200087	0.0399815	0.919678	0.316895	-0.344971	-0.346856	0.506039	0.566501	0.550175	9.1195	2.51587	-1.06057	-0.0188317	-0.0443007	-0.0424754	-0.950439	0.140381	0.202148	0.376846	-0.511035	-0.385911	-0.669256	9.621	1.39968	1.95489	0.0150316	-0.00168554	-0.0129606	-1.02905	0.28125	-0.0195312	0.420601	-0.479052	-0.599865	-0.483494	9.35725	1.6329	-1.5766	0.0612669	0.0270923	-0.0189771	-1.05054	0.204102	0.165039	-0.232722	0.291698	0.116878	0.920376	5.76586	0.932553	8.39647	0.053305	0.0350366	0.0142392	-0.838867	0.149414	-0.558105	-0.124622	-0.970513	-0.181419	0.0982902	-2.00025	2.10113	-9.04852	0.0202387	0.0509766	-0.0114929	0.604736	-0.0412598	0.858398	
76	-0.56199	0.421431	0.384001	0.599255	9.70134	-0.238287	3.45853	-0.0422649	-0.0209445	0.0176186	-0.80127	0.441162	-0.266846	0.536204	-0.417631	-0.405004	-0.611589	9.35256	0.378604	3.17258	-0.0241295	0.0423258	-0.0097256	-0.753418	0.274902	-0.2146	0.647301	-0.379741	-0.429573	-0.50226	9.52334	-0.434905	3.42678	-0.365444	0.138581	-0.0177668	-0.89209	0.371094	-0.418213	0.192235	0.36437	0.0109311	-0.911132	-6.44567	1.14486	7.27307	0.029913	-0.0313152	-0.144185	0.348877	0.118896	-0.988525	-0.41713	0.544164	0.308255	0.659445	9.72202	-0.244332	1.84616	0.154354	0.0953728	0.00763316	-0.912109	0.401611	-0.0385742	0.900748	-0.2318	0.224705	0.290568	-6.45607	-4.10417	9.52038	0.0406155	-0.0151779	0.0469757	0.924072	0.3125	-0.349121	-0.34456	0.507936	0.567715	0.548616	9.49529	2.65039	-1.31267	0.0749841	-0.133612	-0.0417423	-0.954346	0.135986	0.208496	0.377246	-0.511388	-0.385296	-0.669115	10.0514	1.16724	2.49336	-0.0296994	0.0655076	-0.00784188	-1.02881	0.274658	-0.0195312	0.423191	-0.476345	-0.602512	-0.480609	9.70045	1.56102	-1.43072	0.299302	0.0233241	-0.0438183	-1.05518	0.201904	0.1604	-0.232539	0.29153	0.116454	0.92053	5.82118	1.04739	8.18954	-0.00873459	0.011016	0.00311908	-0.841064	0.14502	-0.560303	-0.124352	-0.970559	-0.181409	0.0981941	-2.42609	1.79367	-9.1981	0.0231285	-0.00757546	-0.000980624	0.602783	-0.0456543	0.858643	
77	-0.561491	0.422867	0.383717	0.598893	9.68431	-0.401731	3.4194	-0.0384084	-0.0635603	0.0160874	-0.796875	0.443359	-0.258301	0.535963	-0.41803	-0.405062	-0.611489	9.72007	0.367879	3.37369	-0.0194433	-0.0193273	-0.0133908	-0.753174	0.270508	-0.209717	0.646243	-0.381629	-0.426423	-0.50487	9.8346	-0.92459	3.16741	-0.0668693	0.0464163	-0.00129392	-0.896484	0.375488	-0.416016	0.190828	0.364184	0.0108615	-0.911502	-6.57064	1.29822	7.45035	0.0442726	-0.0176982	-0.103366	0.344482	0.114502	-0.983887	-0.416822	0.544827	0.308346	0.65905	10.0461	-0.179366	1.96482	-0.0650304	-0.0626438	-0.0182936	-0.909912	0.406006	-0.0339355	0.900196	-0.233864	0.224287	0.290947	-6.60409	-4.29485	9.8885	-0.117742	0.0523993	-0.0348375	0.919922	0.314697	-0.342773	-0.34393	0.507749	0.568455	0.548418	9.66808	2.80207	-1.27396	0.0189871	-0.0182956	-0.03951	-0.950439	0.140381	0.210693	0.377796	-0.51113	-0.384173	-0.669647	10.0695	1.28996	2.01361	0.00414705	0.0397067	0.0253936	-1.0293	0.283447	-0.0244141	0.423265	-0.476576	-0.603144	-0.479519	9.62279	1.50426	-1.74433	-0.00464586	-0.0337423	0.00350484	-1.0481	0.199707	0.160645	-0.232632	0.292365	0.115152	0.920405	6.02488	0.781127	8.63908	-0.0591431	-0.0045477	0.027614	-0.839111	0.151611	-0.560303	-0.122751	-0.97075	-0.180864	0.0993188	-2.33421	2.24867	-9.30998	0.0925554	-0.0323894	0.00631739	0.600098	-0.0390625	0.86084	
78	-0.560627	0.423085	0.385735	0.598252	9.79182	-0.349541	3.18364	0.0705938	-0.0678511	-0.0552907	-0.807617	0.438721	-0.258301	0.535932	-0.417793	-0.406699	-0.610591	9.42457	0.634473	3.19573	0.0352448	0.00319079	-0.0107448	-0.755127	0.266113	-0.214355	0.648024	-0.379163	-0.427945	-0.503154	9.66433	-0.522353	3.49349	0.197064	0.00739947	0.0254803	-0.89209	0.373291	-0.413818	0.190559	0.364039	0.0108467	-0.911617	-6.63293	1.36686	7.41695	-0.0131604	0.00185657	0.0215144	0.344238	0.123291	-0.986328	-0.414346	0.547898	0.307166	0.658616	9.61726	-0.264305	2.3131	-0.141183	-0.0783993	0.00715308	-0.912354	0.408203	-0.0249023	0.899587	-0.236726	0.224528	0.290328	-6.33908	-4.17219	9.77474	-0.0543567	0.0709341	-0.0421289	0.923828	0.319092	-0.342773	-0.342768	0.508888	0.568834	0.547696	9.3496	2.22073	-1.31485	0.0094362	-0.0409506	-0.0221383	-0.950195	0.138184	0.210693	0.377787	-0.510906	-0.383906	-0.669976	9.49728	1.5408	1.6817	-0.00284359	0.00791666	-0.0349823	-1.02686	0.279053	-0.0219727	0.423365	-0.476496	-0.603121	-0.47954	9.39026	2.52961	-1.06974	-0.0365239	0.0355176	-0.0215062	-1.05762	0.204102	0.162598	-0.231983	0.294069	0.114934	0.920053	6.12616	0.564525	8.43851	0.00682351	-0.0435326	-0.0106898	-0.838623	0.14502	-0.558105	-0.123049	-0.970679	-0.180459	0.100376	-1.91981	2.19085	-9.30282	0.00469922	-0.0300289	0.00269102	0.607178	-0.0410156	0.858398	
79	-0.560637	0.422391	0.386977	0.59793	9.61102	-0.212817	3.10538	0.101807	-0.0358887	-0.0495358	-0.801025	0.43457	-0.258057	0.535932	-0.417793	-0.406699	-0.610591	9.42457	0.634473	3.19573	0.0352448	0.00319079	-0.0107448	-0.755127	0.266113	-0.214355	0.650269	-0.376354	-0.430749	-0.499962	9.03246	-0.302375	3.90349	0.204676	-0.029697	0.037704	-0.887939	0.366699	-0.425049	0.192303	0.363711	0.0116646	-0.911371	-6.49364	1.12117	7.02154	-0.0632494	0.00102226	0.057215	0.344238	0.123291	-0.995117	-0.414973	0.548044	0.305778	0.658745	9.38613	-0.669992	2.18229	0.0239456	0.0792017	0.0359297	-0.90332	0.403809	-0.0270996	0.899587	-0.236726	0.224528	0.290328	-6.33908	-4.17219	9.77474	-0.0543567	0.0709341	-0.0421289	0.923828	0.319092	-0.342773	-0.342907	0.508853	0.569167	0.547295	9.05596	2.31142	-1.36272	0.0561905	-0.00540729	-0.0165339	-0.954834	0.144775	0.210449	0.377466	-0.511122	-0.384907	-0.669418	9.49264	1.58897	1.98896	0.0564421	-0.0569645	-0.0512462	-1.03345	0.28125	-0.0219727	0.421799	-0.477747	-0.600865	-0.482499	9.1413	2.62178	-1.47843	-0.326427	0.0735397	-0.0332705	-1.05518	0.201904	0.162842	-0.232005	0.293924	0.115963	0.919965	6.13819	0.800742	8.53571	0.079185	0.00387836	-0.0177938	-0.838867	0.149414	-0.562744	-0.123049	-0.970679	-0.180459	0.100376	-1.91981	2.19085	-9.30282	0.00469922	-0.0300289	0.00269102	0.607178	-0.0410156	0.858398	
80	-0.561759	0.420299	0.388546	0.597334	9.52802	0.101677	3.18615	0.10463	0.0374898	-0.00253569	-0.802979	0.432373	-0.266846	0.537472	-0.417541	-0.403996	-0.611205	9.05115	0.316252	3.07303	-0.0515782	0.118035	0.0424028	-0.744629	0.272705	-0.216797	0.650542	-0.376207	-0.430361	-0.500054	8.9251	-0.250929	3.99559	-0.0825616	0.0496361	-0.000346946	-0.887939	0.371094	-0.418213	0.192797	0.363182	0.0123209	-0.91147	-6.25521	0.937681	7.02668	-0.0390134	-0.0076618	-0.0106103	0.339844	0.118896	-0.984131	-0.418475	0.545143	0.30585	0.658904	9.36033	-0.478065	1.88471	0.126568	0.129672	0.0422653	-0.912354	0.4104	-0.0361328	0.899899	-0.233565	0.225838	0.290906	-6.2706	-3.82237	9.39566	0.144463	-0.0144129	0.0733868	0.924561	0.306152	-0.348877	-0.343317	0.508958	0.569401	0.546697	8.90587	2.44798	-1.53466	0.0170519	0.0070561	-0.00808201	-0.958984	0.140381	0.210693	0.37676	-0.510264	-0.386707	-0.669433	9.59781	1.39589	2.23181	0.0494859	0.00282517	-0.0723155	-1.0354	0.276855	-0.0241699	0.418657	-0.480117	-0.596495	-0.488271	9.05302	2.30699	-1.48088	-0.43551	0.056097	-0.0336499	-1.05273	0.199463	0.162842	-0.232029	0.2929	0.116988	0.920155	6.1323	1.07663	8.40957	0.0246139	0.0707099	-0.00986706	-0.834229	0.143066	-0.560303	-0.125633	-0.970423	-0.180946	0.0987621	-1.78881	1.73731	-9.28058	-0.0687193	0.0719725	-0.0138922	0.60498	-0.0456543	0.856201	
81	-0.563486	0.419125	0.387507	0.597207	9.76777	-0.0381219	3.55346	0.00658921	0.0772035	0.0505038	-0.80542	0.436768	-0.264648	0.537991	-0.417358	-0.4029	-0.611596	9.15754	0.256205	3.11234	-0.0431156	0.0995093	0.0219863	-0.746826	0.272705	-0.219238	0.649722	-0.377543	-0.428377	-0.501813	9.29386	-0.383751	3.82715	-0.229223	0.0763073	-0.0176783	-0.89209	0.368896	-0.42041	0.190629	0.362636	0.0124697	-0.912141	-6.51948	0.981917	7.2568	0.0657214	-0.0267789	-0.10132	0.344238	0.123291	-0.988525	-0.420068	0.543984	0.305988	0.658783	9.72383	-0.475979	1.72913	0.115853	0.0980006	0.0409891	-0.903809	0.412598	-0.0361328	0.899746	-0.231425	0.225905	0.293029	-6.50877	-4.10881	9.54753	0.0302177	-0.00973359	0.0761391	0.922119	0.310303	-0.346924	-0.343879	0.508768	0.569375	0.546548	9.72682	2.88674	-1.49782	0.0363777	0.0380629	-0.00436651	-0.948242	0.142578	0.208496	0.37683	-0.510179	-0.387142	-0.669206	10.3891	1.20142	2.01019	0.0122645	0.0126195	0.00633316	-1.0332	0.276855	-0.0217285	0.417876	-0.480387	-0.596099	-0.489157	9.88236	1.09847	-1.73521	0.137548	-0.00673497	-0.0462741	-1.05493	0.197266	0.167236	-0.233005	0.291147	0.115897	0.920603	5.94223	1.1105	8.3742	-0.0480606	0.0803833	0.0483267	-0.827637	0.149658	-0.562744	-0.123331	-0.970718	-0.181559	0.0976329	-2.44907	2.2429	-9.3435	0.097759	0.0601212	-0.0372107	0.602539	-0.0390625	0.856201	
82	-0.564109	0.419173	0.385603	0.597817	9.76111	-0.195893	3.59086	-0.0450232	0.0602906	0.0332506	-0.801025	0.438965	-0.273193	0.53736	-0.417812	-0.402825	-0.611891	9.78606	0.423214	3.43754	-0.00174208	-0.0223945	-0.0421705	-0.753418	0.274902	-0.2146	0.648276	-0.379927	-0.425152	-0.504618	10.1099	-0.929745	3.39976	-0.110427	0.0324304	-0.000675681	-0.894531	0.375488	-0.422852	0.18858	0.361821	0.0106243	-0.912913	-6.69278	1.30229	7.62864	0.0757974	-0.0468144	-0.0241973	0.342285	0.116699	-0.986084	-0.421068	0.544065	0.306787	0.657706	10.2551	-0.0301272	1.91248	0.00199862	-0.0631808	-0.000966921	-0.908203	0.412598	-0.0429688	0.898952	-0.233912	0.225676	0.293668	-6.60109	-4.4783	9.91042	-0.127586	0.0636518	-0.0301967	0.924316	0.310303	-0.342529	-0.344332	0.508405	0.568151	0.547872	9.63111	2.37121	-1.48788	-0.0490712	0.0748857	-0.00366059	-0.952393	0.140381	0.208496	0.378164	-0.508721	-0.384966	-0.670817	10.1707	1.13568	2.63536	-0.0413844	0.233265	-0.00479439	-1.03101	0.274658	-0.0263672	0.418027	-0.480821	-0.597001	-0.487498	9.59478	1.22361	-2.02489	0.0356836	-0.0382768	0.0113586	-1.05029	0.199463	0.167236	-0.233456	0.290781	0.114454	0.920785	6.12013	0.766686	8.55605	-0.0559073	0.0212929	0.0196445	-0.83667	0.149414	-0.56958	-0.122148	-0.97082	-0.181634	0.0979639	-2.51098	1.90881	-9.40346	0.0538166	-0.0138592	-0.00216945	0.602295	-0.0368652	0.865234	
83	-0.563427	0.41974	0.384731	0.598624	9.31596	-0.249377	3.31169	-0.0484586	-0.0109905	-0.01719	-0.798828	0.438965	-0.269043	0.536742	-0.417748	-0.402591	-0.61263	9.53585	0.464826	3.28205	-0.0266232	0.0159664	-0.0363831	-0.74707	0.2771	-0.2146	0.649489	-0.378978	-0.426446	-0.502676	9.51534	-0.630412	3.58822	0.133792	-0.02638	0.0512723	-0.889893	0.368896	-0.422852	0.189147	0.360845	0.0104125	-0.913184	-6.52377	1.19286	7.32674	-0.0302892	-0.0303353	0.0366094	0.337402	0.123291	-0.988525	-0.417183	0.547768	0.304703	0.658076	9.78478	-0.282487	2.18895	-0.255277	-0.0805255	-0.0310938	-0.905762	0.408203	-0.0270996	0.898997	-0.235659	0.226274	0.291665	-6.43255	-4.21508	9.74401	-0.00214373	0.0795026	-0.102474	0.924072	0.314697	-0.338379	-0.347411	0.506571	0.565987	0.549863	9.46205	2.58313	-1.14666	0.0528638	0.217938	0.0154517	-0.950439	0.144775	0.193604	0.378923	-0.5064	-0.384325	-0.672511	9.32921	1.5438	1.77789	0.0497955	0.0496255	-0.0226734	-1.02881	0.276855	-0.03125	0.420599	-0.478652	-0.599938	-0.483801	9.09793	2.86268	-1.59284	0.0556621	0.0104577	-0.00870904	-1.05518	0.201904	0.165039	-0.233232	0.291192	0.113155	0.920872	6.09382	0.685304	8.57427	-0.0296528	0.0195048	0.0185069	-0.832031	0.147461	-0.564941	-0.119841	-0.971145	-0.181125	0.098539	-1.94755	2.03159	-9.28984	0.0988676	-0.00339717	0.00737401	0.597656	-0.034668	0.860596	
84	-0.562762	0.420666	0.384821	0.598542	9.58548	-0.180901	3.28874	-0.024041	-0.0389647	0.00569003	-0.801025	0.436768	-0.260254	0.536154	-0.418276	-0.40166	-0.613395	9.03653	0.453194	3.08582	-0.053119	0.0298431	-0.0272396	-0.748779	0.270508	-0.219238	0.650861	-0.377497	-0.427532	-0.501091	8.82982	-0.26755	3.90885	0.0849901	0.0133198	0.0180867	-0.890137	0.371094	-0.422852	0.190326	0.36018	0.0121086	-0.913181	-6.3766	0.888765	6.81613	-0.0933137	-0.00139707	0.0022033	0.330811	0.125488	-0.990723	-0.416149	0.548042	0.303149	0.65922	9.31772	-0.625438	2.14159	-0.0124107	0.0800801	-0.019292	-0.905762	0.4104	-0.0292969	0.899713	-0.234257	0.226606	0.290328	-6.18888	-3.8774	9.51395	0.0933966	0.00732458	-0.0287261	0.924316	0.30835	-0.348877	-0.348907	0.505686	0.56283	0.552962	8.83463	2.45012	-1.05577	-0.11875	0.129056	0.028409	-0.956787	0.140381	0.189453	0.378761	-0.507191	-0.384573	-0.671864	9.82924	1.53607	2.37073	-0.0312624	-0.0296433	0.00853017	-1.02637	0.270264	-0.0288086	0.421675	-0.478114	-0.600359	-0.482874	9.32414	1.43936	-1.56134	0.0625096	0.0154139	0.00572769	-1.06201	0.20166	0.1604	-0.233185	0.28996	0.112815	0.921315	5.64998	0.691121	8.50426	-0.00398706	0.0696805	-0.0142135	-0.827881	0.154053	-0.567383	-0.119423	-0.971327	-0.181008	0.0974565	-1.98252	2.20861	-9.23737	-0.0223625	0.0515724	0.00646664	0.602295	-0.0322266	0.867432	
85	-0.562932	0.421539	0.383696	0.598489	9.84541	-0.154711	3.52914	-0.0537637	0.0217412	0.0490182	-0.796631	0.438965	-0.264648	0.535309	-0.418968	-0.400872	-0.614176	9.56561	0.265684	3.2851	-0.0757664	0.0187684	-0.027897	-0.753418	0.2771	-0.2146	0.649742	-0.378176	-0.426034	-0.503303	9.24258	-0.251214	3.77616	-0.170145	0.0452063	-0.0747032	-0.890137	0.371094	-0.420654	0.188392	0.360648	0.0116276	-0.913404	-6.48128	1.01352	7.29951	0.0788424	0.0345476	-0.0770476	0.335205	0.123291	-0.990723	-0.41759	0.545796	0.302821	0.660322	9.76356	-0.48006	2.02865	0.0421082	0.107113	-0.0146759	-0.910156	0.408203	-0.0407715	0.900417	-0.231929	0.226583	0.290031	-6.60507	-4.09311	9.5755	0.101083	-0.00596645	-0.016949	0.919922	0.314697	-0.342773	-0.350628	0.504602	0.560785	0.554939	9.69313	2.48627	-1.04742	0.00988612	0.174932	-0.0089342	-0.957031	0.144775	0.185059	0.378164	-0.508867	-0.38253	-0.672099	10.1819	1.01826	2.66829	-0.0937775	0.0244948	0.0373529	-1.03125	0.279053	-0.03125	0.423085	-0.477214	-0.602582	-0.479751	9.6471	1.62955	-1.38217	0.124014	-0.0543454	0.00324202	-1.05981	0.20166	0.162598	-0.232857	0.28895	0.1125	0.921753	5.87713	1.14365	8.34943	-0.012346	0.0569732	-0.00215007	-0.839111	0.151611	-0.567139	-0.119277	-0.971486	-0.180461	0.0970701	-2.39517	1.62123	-9.24767	0.0439707	0.00785608	0.026338	0.604248	-0.0300293	0.862793	
86	-0.562753	0.422199	0.382002	0.599276	9.71595	-0.399739	3.5562	-0.0642941	0.0211788	-0.00714144	-0.801025	0.438965	-0.264648	0.533783	-0.419798	-0.399939	-0.615544	9.6783	0.478586	3.55287	-0.055822	0.0153796	-0.061923	-0.751465	0.279297	-0.214844	0.64761	-0.379321	-0.425134	-0.505942	9.95101	-0.670262	3.63945	-0.0728415	-0.00294432	-0.0653086	-0.892334	0.377686	-0.420654	0.186907	0.361624	0.0105321	-0.913336	-6.61316	0.998293	7.40431	0.138205	0.0654567	-0.0719407	0.337646	0.118896	-0.99292	-0.416178	0.546512	0.302385	0.660821	9.9432	-0.400176	2.14495	-0.0966637	-0.0460846	-0.0449361	-0.903564	0.406006	-0.0339355	0.900547	-0.232621	0.226446	0.289179	-6.61655	-4.09326	9.93762	-0.0363068	0.0477353	-0.0570761	0.91748	0.319092	-0.344971	-0.352132	0.503245	0.559576	0.556437	9.62353	2.8644	-0.862672	-0.00207564	0.106113	-0.0085998	-0.961182	0.142578	0.180664	0.378017	-0.508894	-0.381059	-0.672996	9.8261	1.2897	1.72463	-0.0232817	0.033426	-0.0127888	-1.02905	0.279053	-0.03125	0.423563	-0.477226	-0.604345	-0.477092	9.60775	1.84328	-1.73342	0.118613	-0.0549587	0.00232485	-1.05542	0.206299	0.169434	-0.232133	0.290106	0.11014	0.921858	6.00126	0.539482	8.47817	-0.119733	-0.0220597	0.0156212	-0.825684	0.154053	-0.560547	-0.116829	-0.971902	-0.179216	0.0981806	-2.28812	2.22515	-9.11138	0.101509	-0.0251851	0.0237805	0.602051	-0.027832	0.86499	
