40	Head	00b4120a												Throax	00b411e8												LUpArm	00b411d9												LFoArm	00b41148												RUpArm	00b411db												RFoArm	00b41204												Waist	00b411f7												Lthigh	00b411f4												Lshank	00b4111b												Rthigh	00b411c8												Rshank	00b411ee												
PacketCount	q0	q1	q2	q3	accX	accY	accZ	gyrX	gyrY	gyrZ	magX	magY	magZ	q0	q1	q2	q3	accX	accY	accZ	gyrX	gyrY	gyrZ	magX	magY	magZ	q0	q1	q2	q3	accX	accY	accZ	gyrX	gyrY	gyrZ	magX	magY	magZ	q0	q1	q2	q3	accX	accY	accZ	gyrX	gyrY	gyrZ	magX	magY	magZ	q0	q1	q2	q3	accX	accY	accZ	gyrX	gyrY	gyrZ	magX	magY	magZ	q0	q1	q2	q3	accX	accY	accZ	gyrX	gyrY	gyrZ	magX	magY	magZ	q0	q1	q2	q3	accX	accY	accZ	gyrX	gyrY	gyrZ	magX	magY	magZ	q0	q1	q2	q3	accX	accY	accZ	gyrX	gyrY	gyrZ	magX	magY	magZ	q0	q1	q2	q3	accX	accY	accZ	gyrX	gyrY	gyrZ	magX	magY	magZ	q0	q1	q2	q3	accX	accY	accZ	gyrX	gyrY	gyrZ	magX	magY	magZ	q0	q1	q2	q3	accX	accY	accZ	gyrX	gyrY	gyrZ	magX	magY	magZ	
0	-0.572893	0.40525	0.366255	0.611084	9.29844	-0.244483	4.05026	-0.0289101	-0.0310347	-0.016036	-0.786865	0.422119	-0.32251	0.579148	-0.433401	-0.398918	-0.563574	9.48056	-0.439048	3.06543	-0.00480978	-0.0122176	-0.0447092	-0.7146	0.338135	-0.230957	0.666957	-0.344177	-0.390408	-0.533191	9.14516	-0.474084	4.5773	-0.0661992	0.0426129	-0.00477146	-0.853271	0.342529	-0.513428	0.131626	0.369419	-0.00491462	-0.91988	-6.70684	1.15156	7.24	-0.0211668	0.00872694	-0.00652628	0.361572	0.0837402	-0.976807	-0.534899	0.469555	0.308139	0.631231	8.89933	-1.14045	3.63049	0.0442496	0.031475	-0.0047943	-0.843994	0.490967	-0.230469	0.946244	-0.12291	0.299189	-0.00124762	-7.00773	-2.71283	9.75528	-0.012167	-0.0141076	-0.0115644	0.956299	0.156738	-0.355225	-0.53766	0.507995	0.560291	0.372742	9.51647	-1.23283	-1.44521	-0.0113743	-0.000817069	-0.0224567	-0.862549	0.481201	0.0556641	0.851706	-0.141504	-0.33856	-0.374099	7.28331	0.101319	7.92381	0.0573365	0.0463999	-0.02381	-0.509033	0.23584	-0.880371	-0.177705	0.163925	-0.966743	-0.0834155	-3.42947	1.80461	-8.16487	0.0176868	0.0084676	-0.000409802	0.00390625	-0.261475	1.06934	-0.532564	0.509857	0.461262	0.493618	9.68204	-0.879379	0.633593	-0.0297345	0.0379362	0.0302601	-0.914307	0.473389	-0.0366211	0.40949	-0.623222	-0.438672	-0.501477	9.48664	-0.368562	-1.64157	0.148782	0.00751199	0.0117764	-0.969238	0.479248	0.276611	
1	-0.57249	0.405343	0.3666	0.611193	9.55983	-0.250948	4.15757	0.0107064	-0.0129573	-0.0150126	-0.791016	0.419922	-0.316162	0.579256	-0.433166	-0.398784	-0.563739	9.53505	-0.4402	3.08514	-0.00362776	0.0303112	-0.0154403	-0.7146	0.338135	-0.233398	0.666957	-0.344177	-0.390408	-0.533191	9.14516	-0.474084	4.5773	-0.0661992	0.0426129	-0.00477146	-0.853271	0.342529	-0.513428	0.13148	0.369221	-0.00366566	-0.919987	-6.68394	1.06972	7.07735	-0.0208279	0.00653405	-0.0269479	0.363281	0.0949707	-0.983643	-0.535368	0.469308	0.308113	0.631029	9.04169	-1.08103	3.52558	0.0308798	0.0248341	0.0151565	-0.837158	0.48877	-0.223633	0.946332	-0.122427	0.29911	-0.000518033	-7.01343	-2.90323	9.68351	0.0190414	0.0175984	0.0222593	0.956543	0.152344	-0.355225	-0.537739	0.507931	0.560032	0.373104	9.68956	-1.37609	-1.52114	0.0157339	0.0260977	-0.0207319	-0.858398	0.485596	0.0490723	0.851429	-0.141849	-0.338284	-0.374848	7.2669	0.151197	7.93009	-0.0461449	0.0157222	-0.0355164	-0.51123	0.238037	-0.882812	-0.17792	0.163356	-0.96677	-0.0837544	-3.68141	1.53663	-8.39687	0.0335806	-0.0144986	-0.0036865	0.00610352	-0.263672	1.06714	-0.531993	0.509954	0.461396	0.494008	10.1113	-0.809823	0.509317	-0.00365773	0.0157969	-0.0436666	-0.920898	0.473389	-0.0366211	0.407002	-0.62507	-0.436813	-0.502824	9.82821	-0.891242	-1.8489	-0.138767	-0.00673991	0.0116506	-0.964844	0.481445	0.274414	
2	-0.572735	0.405106	0.366942	0.610915	9.43199	-0.070417	4.18857	0.0214987	-0.00335973	0.00776806	-0.788818	0.417725	-0.320312	0.580292	-0.431882	-0.397753	-0.564386	9.43324	-0.455054	3.11634	0.00849954	0.114654	-0.0196837	-0.716797	0.340088	-0.238281	0.667458	-0.342837	-0.391797	-0.532407	9.14629	-0.378635	4.76563	0.0827485	-0.0376172	-0.00931921	-0.853271	0.342529	-0.513428	0.131337	0.369635	-0.00367589	-0.919841	-6.64015	0.97097	7.15402	0.00705787	0.0257247	0.00615547	0.363281	0.0925293	-0.974854	-0.535421	0.469904	0.308067	0.630563	9.22088	-1.07383	3.56239	-0.015703	-0.0238744	-0.00254303	-0.8396	0.490967	-0.228027	0.946114	-0.122666	0.299701	-0.000100433	-6.99473	-2.79183	9.79345	-0.0158937	0.0414432	-0.0100875	0.95874	0.152344	-0.355225	-0.537831	0.508226	0.558776	0.37445	9.58106	-1.16354	-1.32052	-0.0581059	0.057895	-0.00827105	-0.856201	0.483398	0.0512695	0.851029	-0.141589	-0.339101	-0.375117	7.49522	0.171506	7.80361	0.0112856	-0.0134676	-0.0446819	-0.51123	0.23584	-0.880371	-0.17857	0.162742	-0.966738	-0.0839419	-3.51036	1.66651	-8.30875	-0.00982924	-0.0193025	-0.00165724	0.00830078	-0.259033	1.06689	-0.53199	0.510033	0.460955	0.494341	9.77937	-0.84218	0.515026	-0.022061	0.0214407	0.0232591	-0.925293	0.470947	-0.0412598	0.40816	-0.624224	-0.437746	-0.502123	9.69994	-0.945251	-1.61326	0.118536	0.0188336	-0.000141667	-0.964844	0.481445	0.28125	
3	-0.572822	0.405401	0.36626	0.611047	9.23785	-0.108648	4.14114	-0.0394634	0.00836764	0.00549911	-0.784424	0.419922	-0.32251	0.579841	-0.432089	-0.397526	-0.564851	9.22313	-0.425431	2.95594	-0.063716	-0.0206853	-0.0373932	-0.714844	0.34668	-0.231445	0.667301	-0.343228	-0.392002	-0.532202	8.84885	-0.310142	4.86936	-0.0383452	0.000904025	0.0040043	-0.853271	0.342529	-0.508789	0.131399	0.369468	-0.00366912	-0.919899	-6.57041	0.813975	6.98473	0.00140962	-0.0100808	-0.0030636	0.365723	0.0905762	-0.979004	-0.534448	0.470684	0.307698	0.630986	9.05058	-1.02278	3.70065	-0.0635018	0.0015082	-0.0322519	-0.839355	0.484375	-0.22583	0.946023	-0.122892	0.299896	-0.00068086	-6.89412	-2.77601	9.70392	0.013714	0.0159293	-0.0478585	0.963135	0.152344	-0.353027	-0.537638	0.508243	0.558628	0.374926	9.37262	-1.17946	-1.34844	-0.00985324	0.00201981	-0.0326657	-0.854248	0.487793	0.0576172	0.850553	-0.14227	-0.339169	-0.375876	7.24711	0.147797	7.94241	-0.0487439	-0.00668003	-0.0330807	-0.51123	0.23584	-0.875732	-0.179036	0.162185	-0.966728	-0.0841428	-3.3642	1.65659	-8.24107	0.00415394	-0.0111901	-0.00858186	0.00415039	-0.268311	1.06714	-0.532225	0.510769	0.459783	0.49442	9.5916	-0.889341	0.537155	-0.0283148	0.0363849	0.0448086	-0.914307	0.473389	-0.0458984	0.409033	-0.624084	-0.437591	-0.501723	9.61726	-0.933685	-1.74548	0.0495006	0.0238313	0.0212066	-0.964844	0.483643	0.276611	
4	-0.571816	0.406503	0.365471	0.61173	9.42148	-0.170739	4.19542	-0.080897	-0.0263288	-0.0120558	-0.786621	0.419922	-0.32251	0.578292	-0.433638	-0.399006	-0.564207	9.53933	-0.356562	3.06514	-0.0109852	-0.0837505	-0.0422804	-0.710449	0.342529	-0.23584	0.666473	-0.344745	-0.390127	-0.533635	9.05259	-0.334593	4.49738	-0.125334	0.0304217	-0.0101193	-0.853271	0.342529	-0.506592	0.131108	0.36905	-0.00367043	-0.920108	-6.71341	1.03324	7.00852	0.0122803	-0.00751405	-0.0102139	0.361084	0.0925293	-0.981445	-0.533831	0.470627	0.307542	0.631627	9.05328	-1.14097	3.57555	-0.0227086	0.0129116	-0.0328188	-0.839355	0.486572	-0.221191	0.946028	-0.123474	0.299639	-0.00149343	-6.92212	-2.86676	9.73933	-0.0379446	0.0119251	-0.0506672	0.960693	0.156738	-0.357422	-0.536813	0.50918	0.557974	0.375809	9.68084	-1.24742	-1.39608	-0.0617719	0.05074	-0.0138013	-0.860352	0.481201	0.0534668	0.850726	-0.141713	-0.33929	-0.375586	7.3447	0.139052	7.97357	0.0367137	0.0280568	-0.0142718	-0.509033	0.233887	-0.882568	-0.179025	0.162168	-0.966771	-0.0837052	-3.40631	1.73381	-8.31894	0.0207648	0.00731331	-0.0155067	0.00390625	-0.261475	1.07153	-0.531404	0.511528	0.459998	0.494319	10.0691	-0.932329	0.660723	-0.0182389	-0.0314773	-0.0165613	-0.91626	0.468994	-0.0366211	0.409679	-0.623608	-0.438201	-0.501254	9.9553	0.0900905	-1.59757	-0.0447272	0.0036469	-0.0161403	-0.969482	0.483643	0.276611	
5	-0.570569	0.407798	0.365184	0.612203	9.47858	-0.312379	4.10149	-0.0517837	-0.0381115	-0.0223074	-0.793457	0.424316	-0.318359	0.577329	-0.434317	-0.399715	-0.56417	9.62664	-0.420874	3.05995	-0.0253026	-0.0148888	-0.0390709	-0.720947	0.335938	-0.228516	0.665348	-0.34581	-0.390117	-0.534356	9.18142	-0.4722	4.48269	-0.0138347	-0.0505089	-0.0348778	-0.851318	0.348877	-0.509033	0.130295	0.369748	-0.00555995	-0.919934	-6.74088	1.11551	7.12127	0.104843	0.0357587	0.00868627	0.361328	0.0881348	-0.979004	-0.533224	0.470817	0.308417	0.631572	9.33163	-1.00477	3.61047	-0.00563303	-0.0301835	-0.048835	-0.837158	0.484375	-0.22583	0.945865	-0.124302	0.299804	-0.00254339	-7.07556	-2.91044	9.76853	-0.000230123	0.0318336	-0.0703028	0.965088	0.156738	-0.359619	-0.537247	0.509083	0.556418	0.377623	9.72633	-1.38481	-1.376	-0.041057	0.0839275	-0.0194032	-0.855957	0.481201	0.0512695	0.850408	-0.142196	-0.339553	-0.375887	7.35315	0.167488	8.06029	-0.0128833	-0.0200404	-0.0128431	-0.509033	0.23584	-0.87793	-0.179527	0.162123	-0.966666	-0.0839209	-3.59052	1.57388	-8.30426	0.0254296	-0.0140087	-0.0348472	0.00854492	-0.261475	1.06934	-0.531931	0.510923	0.459914	0.494456	9.77631	-0.825006	0.525122	0.0136154	0.0266515	0.026588	-0.914307	0.473389	-0.0390625	0.410165	-0.623423	-0.437852	-0.501392	9.78799	-0.985683	-1.74527	0.0873843	0.035249	-0.00574553	-0.9646	0.479248	0.272217	
6	-0.570014	0.408314	0.365436	0.612226	9.42574	-0.276145	4.01519	-0.00154114	-0.0186234	-0.00913464	-0.789062	0.422119	-0.313965	0.577329	-0.434317	-0.399715	-0.56417	9.62664	-0.420874	3.05995	-0.0253026	-0.0148888	-0.0390709	-0.720947	0.335938	-0.228516	0.664797	-0.345052	-0.392486	-0.533797	9.21813	-0.440324	4.74841	0.0938517	-0.0514766	-0.0364412	-0.853271	0.340332	-0.506592	0.129902	0.370362	-0.0066613	-0.919735	-6.76616	1.19465	7.20325	0.100477	0.0463295	0.00705738	0.361328	0.090332	-0.979004	-0.531582	0.471581	0.308442	0.632373	9.10018	-1.07375	3.80715	-0.0672251	-0.00898124	-0.0645541	-0.839111	0.477783	-0.216553	0.945817	-0.124462	0.29988	-0.00328156	-7.02812	-2.94637	9.85613	0.00845247	0.0291139	-0.0742671	0.960693	0.158936	-0.355225	-0.537617	0.509075	0.555383	0.378628	9.41837	-1.16158	-1.30589	0.0133357	0.0723983	-0.0193107	-0.856201	0.487793	0.0554199	0.850365	-0.14217	-0.340221	-0.375388	7.42374	0.157033	7.87755	0.0278973	0.01633	-0.0108015	-0.513428	0.240234	-0.878174	-0.180013	0.162133	-0.96662	-0.0833925	-3.44753	1.7475	-8.31993	0.0153148	-0.0056888	-0.0241085	0.00854492	-0.263672	1.06494	-0.532019	0.511236	0.45977	0.494171	9.72749	-0.874601	0.439586	-0.00313513	-0.0023969	0.0360475	-0.92334	0.477539	-0.0390625	0.411531	-0.622499	-0.438636	-0.500736	9.75548	-0.614756	-1.50111	0.15523	0.0344708	-0.000132384	-0.967285	0.488037	0.271973	
7	-0.570141	0.407778	0.365665	0.612328	9.35749	-0.143614	4.09658	0.0200705	0.0118931	-0.0154268	-0.789062	0.422119	-0.311768	0.576946	-0.434441	-0.39852	-0.56531	9.28143	-0.431778	3.01176	-0.0343432	0.027572	-0.0260415	-0.718994	0.340332	-0.22876	0.664817	-0.344518	-0.392994	-0.533744	8.94562	-0.280682	4.71284	-0.00772158	0.0169423	-0.0126194	-0.859863	0.342529	-0.508789	0.129384	0.370957	-0.00735796	-0.919563	-6.56078	0.993383	7.09866	0.0186212	0.0189028	-0.0139776	0.365967	0.0839844	-0.983398	-0.530873	0.471541	0.307843	0.633289	9.00269	-1.31249	3.592	-0.0108294	0.0369557	-0.0269586	-0.841553	0.486572	-0.223633	0.946135	-0.12281	0.299541	-0.00472431	-6.98887	-2.67596	9.68995	0.10173	-0.00653105	-0.0396914	0.956055	0.165283	-0.359863	-0.537186	0.509422	0.55485	0.379556	9.50983	-1.20099	-1.50267	-0.0609277	0.0311251	-0.0184094	-0.858154	0.481201	0.0512695	0.850175	-0.142662	-0.340356	-0.375509	7.31515	0.192706	7.92256	-0.0085107	-0.00292753	-0.0097373	-0.510986	0.233643	-0.87793	-0.180083	0.162367	-0.966582	-0.0832265	-3.52231	1.82648	-8.27866	0.00859441	0.00285008	-0.0240035	0.0134277	-0.268311	1.07397	-0.532006	0.511822	0.459341	0.493977	9.77323	-0.872527	0.680096	0.00486466	0.041726	0.0325529	-0.918701	0.473389	-0.0390625	0.412233	-0.62212	-0.439055	-0.500261	9.67638	-0.763283	-1.58213	0.10264	-0.00633275	-0.012481	-0.967285	0.48584	0.269775	
8	-0.570015	0.40772	0.36583	0.612385	9.26682	-0.101066	4.09229	0.00573982	-0.00980352	-0.0173345	-0.791016	0.417725	-0.320312	0.575917	-0.43554	-0.3992	-0.565035	9.53482	-0.407275	3.07547	-0.0419698	-0.0678556	-0.0270655	-0.718994	0.338135	-0.22876	0.664465	-0.345025	-0.392228	-0.534417	9.15272	-0.26293	4.52049	-0.0872452	0.0303047	-0.0146234	-0.861816	0.340576	-0.508789	0.129481	0.37094	-0.00663464	-0.919562	-6.70346	1.01623	7.11255	-0.0222413	0.0100791	0.00154988	0.370605	0.0795898	-0.979004	-0.531953	0.470411	0.308997	0.632662	9.12522	-0.992762	3.49256	0.0883468	-0.00104277	-0.00457665	-0.84375	0.484375	-0.221191	0.94631	-0.123034	0.298896	-0.00461312	-7.02323	-2.77004	9.7291	-0.0568504	-0.00473459	-0.0145062	0.960449	0.160889	-0.357422	-0.53705	0.50969	0.554323	0.380156	9.67612	-1.38442	-1.30946	-0.0447839	0.0445585	-0.0141358	-0.860352	0.483398	0.046875	0.850205	-0.142536	-0.340277	-0.37556	7.48932	-0.0854111	7.86769	0.00918599	0.0275606	-0.0201232	-0.509277	0.240234	-0.882812	-0.180058	0.162429	-0.966557	-0.0834487	-3.41314	1.87908	-8.33451	-0.0111187	0.00760564	-0.02843	0.0131836	-0.26123	1.0603	-0.532287	0.511852	0.459178	0.493795	9.82141	-0.948639	0.63439	0.0120847	0.0208448	0.0300727	-0.914307	0.473389	-0.0344238	0.412233	-0.62212	-0.439055	-0.500261	9.67638	-0.763283	-1.58213	0.10264	-0.00633275	-0.012481	-0.967285	0.48584	0.269775	
9	-0.569307	0.408	0.366505	0.612454	9.55794	-0.117583	4.13462	-0.00386564	-0.0382758	-0.0227443	-0.789062	0.422119	-0.311768	0.575248	-0.436683	-0.399984	-0.564279	9.61124	-0.463403	3.01767	-0.00363961	-0.0366484	-0.00391397	-0.716797	0.342529	-0.22168	0.663616	-0.346036	-0.391195	-0.535573	9.23457	-0.605955	4.42264	-0.045061	-0.000728954	-0.0204736	-0.857666	0.342529	-0.506592	0.12952	0.371401	-0.00755147	-0.919363	-6.67659	1.33477	7.14535	0.0540927	0.0254825	0.0189073	0.36377	0.0861816	-0.981201	-0.531964	0.470518	0.309275	0.632436	9.17986	-0.906727	3.60036	0.0151708	-0.0179543	-0.00945434	-0.84375	0.486572	-0.223633	0.946108	-0.124027	0.299123	-0.00468625	-7.03523	-2.99331	9.66248	-0.0155009	0.0306946	-0.0289526	0.956055	0.163086	-0.357666	-0.536906	0.509437	0.555078	0.379598	9.67804	-1.22233	-1.22541	0.0847748	-0.0153571	-0.0346656	-0.858398	0.483398	0.0534668	0.850532	-0.141674	-0.340223	-0.375195	7.22919	0.298969	7.99003	0.0326329	0.0128726	-0.00292887	-0.506836	0.23584	-0.87793	-0.179961	0.163034	-0.966407	-0.0842098	-3.578	1.6454	-8.33258	-0.0314711	0.00400044	-0.0317469	0.0107422	-0.261475	1.07153	-0.532622	0.511773	0.459155	0.493538	9.92837	-0.85439	0.519681	0.0147168	0.0152706	0.0106522	-0.911865	0.471191	-0.0390625	0.413593	-0.621239	-0.440294	-0.499144	9.8364	-0.259929	-1.55342	0.0394492	0.000412061	-0.00925525	-0.964844	0.483643	0.271973	
10	-0.569205	0.40798	0.367133	0.612186	9.53519	-0.154456	4.07391	0.0263225	-0.0125297	-0.00639823	-0.793457	0.424072	-0.316162	0.576166	-0.43576	-0.399419	-0.564456	9.51516	-0.435257	3.07155	0.0244161	0.0884071	-0.0105097	-0.718994	0.340332	-0.23584	0.664372	-0.344541	-0.393625	-0.533818	9.21769	-0.520598	4.72232	0.179764	-0.0504536	0.0126604	-0.861816	0.340332	-0.506592	0.130376	0.371741	-0.00768838	-0.919104	-6.73392	1.06001	7.17198	-0.0133699	0.0194014	0.040002	0.361572	0.081543	-0.976807	-0.53078	0.472104	0.308543	0.632607	9.18099	-1.13813	3.77519	-0.085609	-0.0276685	-0.0146617	-0.843506	0.482178	-0.218994	0.945959	-0.124627	0.299348	-0.00459671	-7.04337	-2.87441	9.82853	-0.00525222	0.0193801	-0.0115405	0.964355	0.169678	-0.362061	-0.537408	0.508834	0.5551	0.379664	9.63556	-1.2509	-1.45415	0.00653943	0.0371383	-0.021222	-0.858398	0.485596	0.0554199	0.850506	-0.141724	-0.340854	-0.374664	7.52593	0.0338045	7.82126	0.0199827	0.000483653	-0.00373992	-0.51123	0.23584	-0.882812	-0.180355	0.163548	-0.966275	-0.0838885	-3.63347	1.76809	-8.25102	0.0274538	-0.00595924	-0.0522504	0.0107422	-0.263672	1.06714	-0.532924	0.511526	0.459464	0.49318	9.89758	-0.827677	0.631106	0.0208409	0.0073991	0.015064	-0.912109	0.475586	-0.0412598	0.41321	-0.62161	-0.440071	-0.499195	9.70354	-1.00643	-1.62564	0.00949069	0.000433362	-0.00683487	-0.969482	0.488037	0.260498	
11	-0.569944	0.40738	0.367122	0.611905	9.36079	-0.0633512	4.07269	0.0260031	0.0245285	0.0207651	-0.788818	0.419922	-0.311768	0.576737	-0.435237	-0.39952	-0.564205	9.32503	-0.443119	3.03858	0.00693722	-0.0107683	-0.0125848	-0.714355	0.335938	-0.226318	0.665588	-0.34342	-0.395187	-0.531867	8.99589	-0.0959021	4.83318	0.0575312	9.82483e-05	0.042971	-0.859619	0.340332	-0.506592	0.1315	0.371349	-0.00722942	-0.919106	-6.62916	0.883417	7.1161	-0.0451496	-0.00987239	0.032049	0.361572	0.0817871	-0.981201	-0.531063	0.47194	0.308965	0.632286	9.10943	-1.32508	3.66495	0.0711716	0.00949553	-0.00410175	-0.845703	0.484375	-0.216797	0.946028	-0.124642	0.299128	-0.00416106	-6.98753	-2.57551	9.72707	-0.0106532	-0.00459553	0.00419979	0.953857	0.163086	-0.353271	-0.537147	0.508927	0.555091	0.379922	9.42622	-1.12394	-1.32222	0.0201459	0.000732196	-0.0262324	-0.858398	0.483398	0.0490723	0.850625	-0.140792	-0.341313	-0.374325	7.39988	0.251244	7.96034	0.0460274	0.00647956	-0.00954547	-0.513184	0.231689	-0.882568	-0.180638	0.164083	-0.966085	-0.0844213	-3.45049	1.74942	-8.38916	-0.0094308	-0.00309643	-0.0416281	0.00878906	-0.268311	1.06714	-0.533721	0.511338	0.458954	0.492987	9.75073	-0.934187	0.473549	0.0135697	0.0323324	0.0191913	-0.914551	0.47998	-0.0437012	0.413507	-0.621392	-0.44084	-0.498542	9.63629	-0.454205	-1.65297	-0.0174014	-0.0224684	-0.0088439	-0.967285	0.488037	0.269775	
12	-0.570377	0.407204	0.367095	0.611634	9.49728	-0.147263	4.16327	0.0126269	0.000576816	0.00797314	-0.791016	0.417725	-0.320312	0.576073	-0.436341	-0.400926	-0.563032	9.64424	-0.390544	3.09551	0.0106763	-0.0750732	-0.0127796	-0.721191	0.340332	-0.219238	0.665128	-0.344889	-0.393054	-0.533072	9.24049	-0.271733	4.54427	-0.136439	0.0454239	-0.00326119	-0.851074	0.342529	-0.506592	0.132641	0.370926	-0.00635423	-0.919119	-6.84273	1.09654	7.0683	-0.035685	0.000438875	0.0322426	0.361572	0.0859375	-0.974609	-0.532926	0.470494	0.310547	0.63102	9.18108	-0.952935	3.5441	0.109303	0.00240184	0.0208737	-0.839111	0.47998	-0.221191	0.945874	-0.126289	0.298938	-0.00317169	-7.01282	-3.02449	9.89599	-0.0857501	0.0158596	-0.000522174	0.953857	0.165283	-0.359863	-0.536866	0.509003	0.555127	0.380164	9.84826	-1.31657	-1.33805	0.00440386	0.0128713	-0.0269657	-0.854004	0.485596	0.0512695	0.850687	-0.140567	-0.341334	-0.374251	7.3492	0.15234	7.90385	-0.00208513	0.0159205	-0.0213178	-0.509033	0.233643	-0.880371	-0.180676	0.164351	-0.965982	-0.0849886	-3.69352	1.65374	-8.42228	-0.00996507	-0.00152706	-0.0318265	0.0131836	-0.26123	1.06494	-0.5335	0.510963	0.459468	0.493136	10.131	-0.840025	0.537922	0.020585	0.0186016	-0.0406858	-0.916504	0.473389	-0.0458984	0.409174	-0.62442	-0.438211	-0.500647	9.94141	-0.787049	-1.66069	-0.279127	-0.0289462	-0.00422856	-0.9646	0.474854	0.279053	
13	-0.570537	0.406939	0.367199	0.611599	9.34269	-0.121449	4.09961	0.0121347	0.00510397	-0.0026346	-0.788574	0.415527	-0.318115	0.576167	-0.436308	-0.401131	-0.562814	9.65526	-0.359457	3.03742	0.0145591	0.00251542	-0.0128204	-0.719238	0.344727	-0.229004	0.665011	-0.345309	-0.393267	-0.532787	9.06398	-0.66005	4.62969	0.0755378	-0.0479284	0.0149704	-0.855469	0.342529	-0.506592	0.133162	0.371193	-0.00680369	-0.918933	-6.73211	1.1991	7.09036	0.00957089	0.0230291	0.0238665	0.368164	0.0839844	-0.985596	-0.532857	0.471414	0.310317	0.630504	9.31448	-0.887534	3.52423	-0.0669974	-0.021198	0.00350371	-0.84375	0.484375	-0.22583	0.945611	-0.126997	0.299474	-0.0027506	-6.97228	-3.02621	9.68172	-0.0148011	0.0361219	-0.00457152	0.953857	0.163086	-0.353271	-0.53673	0.509114	0.554884	0.380563	9.72532	-1.07043	-1.24324	-0.0101039	0.0144231	-0.0124452	-0.862305	0.476807	0.0515137	0.85046	-0.140168	-0.34213	-0.374189	7.417	0.479146	8.09419	0.0124271	-0.0289101	-0.032228	-0.513184	0.233643	-0.87793	-0.181246	0.164486	-0.965878	-0.0847033	-3.5909	1.73511	-8.28068	0.0166219	-0.0163618	-0.02292	0.00610352	-0.261475	1.0603	-0.534087	0.51	0.459279	0.493675	9.60475	-0.913139	0.4672	0.00217716	0.0530443	0.0170338	-0.916748	0.477783	-0.0483398	0.409439	-0.623823	-0.43877	-0.500685	9.70332	-0.925398	-1.88841	0.0284539	0.0125902	-0.0220142	-0.969482	0.48584	0.274414	
14	-0.57036	0.407215	0.367273	0.611535	9.28564	-0.1051	4.01411	-0.0109757	-0.0194592	-0.000691033	-0.791016	0.419922	-0.311768	0.577116	-0.434774	-0.40033	-0.5636	9.4242	-0.386425	2.96876	0.0173542	0.0892066	-0.0172189	-0.721191	0.342529	-0.231201	0.666219	-0.343244	-0.395804	-0.530731	8.94606	-0.104297	4.82012	0.135989	0.00354276	0.00148079	-0.857666	0.340332	-0.513428	0.133432	0.371276	-0.00640835	-0.918863	-6.67346	1.0468	7.05855	-0.0349899	0.0193428	0.0104167	0.365967	0.0861816	-0.979004	-0.532002	0.472128	0.309898	0.630898	8.96662	-1.08514	3.6291	-0.0198376	0.00629537	-0.0299168	-0.845947	0.486572	-0.218994	0.945583	-0.126963	0.299578	-0.00264759	-6.89243	-2.93919	9.71512	0.00297573	0.0221157	-0.00508141	0.962646	0.160889	-0.357422	-0.535681	0.510419	0.554114	0.381413	9.34323	-1.13848	-1.27484	-0.0427657	0.00263298	-0.0129236	-0.864746	0.485596	0.0532227	0.850294	-0.140934	-0.341859	-0.374527	7.24398	0.166495	7.98733	-0.0455235	0.0334959	-0.0142265	-0.515381	0.231445	-0.875488	-0.181266	0.163662	-0.966074	-0.0840166	-3.30231	1.82888	-8.2391	0.0530767	0.0146753	0.0112614	0.0107422	-0.263672	1.06934	-0.533114	0.511312	0.459011	0.493617	9.72829	-1.04051	0.651629	-0.0574558	-0.0455739	-0.00340146	-0.916748	0.47998	-0.0437012	0.409282	-0.62402	-0.438321	-0.500961	9.53699	-0.83008	-1.75499	-0.0400039	0.0229623	0.00832642	-0.967041	0.481445	0.279053	
15	-0.57012	0.407046	0.367021	0.612023	9.57504	-0.106289	4.15318	-0.011617	0.0254874	-0.0241305	-0.784424	0.417725	-0.316162	0.57727	-0.434303	-0.400232	-0.563874	9.30323	-0.280927	3.12121	-0.018467	0.00487373	-0.0287089	-0.721191	0.338135	-0.22876	0.665826	-0.344108	-0.393349	-0.532487	9.02159	-0.0545437	4.5896	-0.179605	0.0637722	-0.00547826	-0.853271	0.342529	-0.504395	0.133434	0.370697	-0.00486346	-0.919106	-6.66084	0.785877	6.88646	-0.0484463	-0.0167237	-0.0298837	0.363525	0.0905762	-0.983398	-0.532555	0.471326	0.31023	0.630868	9.10384	-1.04804	3.50544	0.0409488	0.0207375	-0.00662258	-0.843506	0.482178	-0.214355	0.945819	-0.125821	0.29931	-0.00297647	-6.80894	-2.65574	9.73902	0.0660196	-0.000276926	-0.0224457	0.962646	0.161133	-0.348877	-0.535477	0.510627	0.554037	0.381534	9.41144	-1.14145	-1.39533	-0.00998813	0.00438959	-0.0168332	-0.855957	0.481201	0.0576172	0.84989	-0.141621	-0.341743	-0.37529	7.3427	0.197064	7.8441	-0.026675	0.00324962	-0.0400024	-0.513184	0.233643	-0.875732	-0.181234	0.162775	-0.966177	-0.0846185	-3.69235	1.71125	-8.30231	-0.0217571	-0.00652955	0.0064423	0.0107422	-0.263672	1.06494	-0.532927	0.511179	0.459031	0.493938	9.9891	-0.920301	0.898482	-0.0116851	0.022771	-0.0239933	-0.918945	0.477783	-0.0458984	0.408541	-0.62459	-0.437397	-0.501663	9.59892	-0.790684	-1.56033	-0.0572417	0.0124224	0.00408088	-0.967041	0.481445	0.28125	
16	-0.569989	0.406821	0.366778	0.61244	9.53011	-0.0660353	4.20417	-0.0180866	0.0281641	-0.025815	-0.788818	0.419922	-0.318359	0.576117	-0.435586	-0.401428	-0.563214	9.69008	-0.412424	3.04828	-0.0466028	-0.0748293	-0.0293614	-0.723389	0.342529	-0.22876	0.664952	-0.345614	-0.392256	-0.533409	9.16116	-0.422281	4.46633	-0.176242	-0.00428873	-0.00977188	-0.855469	0.346924	-0.513672	0.132652	0.371017	-0.00659928	-0.919079	-6.75508	1.05651	6.94768	0.0778811	0.00628434	-0.00215122	0.364014	0.0817871	-0.983398	-0.532583	0.471434	0.310474	0.630643	9.26927	-0.984826	3.45313	0.0147271	-0.0158745	-0.00678918	-0.84375	0.486572	-0.221191	0.945555	-0.126788	0.299722	-0.00404311	-6.93408	-2.86623	9.78084	-0.0236197	0.0309012	-0.0573527	0.964844	0.163086	-0.351074	-0.535331	0.511497	0.552817	0.382342	9.97156	-1.43874	-1.41191	-0.0564291	0.0627513	0.0163253	-0.858154	0.481201	0.0576172	0.849687	-0.14178	-0.341802	-0.375636	7.55272	0.016441	7.90285	-0.016318	0.00675448	-0.0408428	-0.513184	0.231445	-0.87793	-0.181505	0.162504	-0.966191	-0.084404	-3.67444	1.70514	-8.41785	0.031001	-0.0119507	-0.0106159	0.0129395	-0.259033	1.0647	-0.532988	0.51074	0.458749	0.494589	9.97269	-0.841523	0.636716	-0.0168759	0.0177772	-0.00969039	-0.916504	0.475586	-0.0437012	0.405178	-0.626795	-0.435366	-0.503403	9.97101	-0.841092	-1.72405	-0.193888	-0.0176979	-0.0180709	-0.962402	0.479248	0.283447	
17	-0.569494	0.407128	0.366232	0.613024	9.34884	-0.0124305	4.12365	-0.0468047	-0.0038467	-0.0034102	-0.795654	0.422119	-0.318359	0.57491	-0.437569	-0.400734	-0.563404	9.5457	-0.521004	2.98225	-0.075417	-0.00071039	-0.000102767	-0.719238	0.344727	-0.221924	0.663838	-0.345611	-0.395635	-0.532301	9.06769	-0.416207	4.77888	0.104971	-0.0484424	-0.018441	-0.857666	0.340332	-0.508789	0.131535	0.371839	-0.00979841	-0.918879	-6.73277	1.31456	7.25402	0.145026	0.0228822	-0.00405166	0.364258	0.0751953	-0.97876	-0.529624	0.473829	0.309547	0.631795	9.12026	-1.05758	3.64607	-0.13929	-0.0161202	-0.0670356	-0.845947	0.486572	-0.212158	0.945133	-0.127505	0.30072	-0.00577227	-7.00517	-3.17404	9.68845	0.0356008	0.0639305	-0.0866992	0.958008	0.16748	-0.351318	-0.534868	0.512704	0.55153	0.38323	9.56456	-1.17315	-1.10584	-0.0407935	-0.00101803	0.00870995	-0.851807	0.485596	0.0532227	0.849616	-0.141133	-0.342228	-0.375651	7.37107	0.384245	8.07909	0.0333533	0.00983531	-0.0290686	-0.517578	0.233643	-0.87085	-0.181871	0.161938	-0.966215	-0.0844212	-3.37582	1.76198	-8.29727	0.00111806	-0.00343836	0.000153577	0.0134277	-0.268066	1.06274	-0.532917	0.511225	0.457997	0.494861	9.65033	-1.01183	0.59023	-0.0381843	0.0158865	0.0358879	-0.916504	0.475586	-0.0368652	0.405489	-0.626338	-0.435731	-0.503406	9.60941	-0.754309	-1.7739	0.0337839	0.0184614	-0.0184807	-0.962402	0.477051	0.285889	
18	-0.568983	0.408634	0.36508	0.613183	9.32844	-0.140554	4.06968	-0.0730558	-0.0173393	0.0238976	-0.786621	0.419922	-0.316162	0.574882	-0.437668	-0.399797	-0.564021	9.40451	-0.471531	2.93508	-0.028791	0.0364646	-0.0287811	-0.721191	0.342529	-0.224121	0.66381	-0.345658	-0.39531	-0.532547	8.99867	-0.172383	4.75157	-0.0224245	0.0243797	-0.00495802	-0.855469	0.340332	-0.50415	0.13034	0.371557	-0.00982585	-0.919163	-6.60102	1.02741	7.13321	-0.0168598	-0.0158567	-0.051689	0.366211	0.0795898	-0.979004	-0.528515	0.474588	0.308895	0.632472	9.08305	-1.25588	3.69454	-0.124109	-0.00493634	-0.0531187	-0.850098	0.484375	-0.214355	0.94523	-0.125896	0.301051	-0.00763563	-7.03854	-2.84812	9.7047	0.0901682	0.0281267	-0.0525116	0.960205	0.171875	-0.349365	-0.535498	0.512716	0.54972	0.384931	9.52348	-1.17608	-1.34604	-0.0372484	0.128597	-0.0148498	-0.858398	0.485596	0.0490723	0.849382	-0.142449	-0.341656	-0.376204	7.35707	0.0599756	7.89869	-0.0768189	0.025477	-0.00654232	-0.513184	0.231445	-0.87793	-0.181695	0.161155	-0.96642	-0.0839595	-3.48306	1.66105	-8.41244	0.0551633	0.0196531	-0.00109259	0.00854492	-0.263672	1.06714	-0.532383	0.511579	0.458138	0.494939	9.8438	-0.987894	0.675583	-0.00543314	-0.00437669	-0.0197448	-0.914307	0.475586	-0.0344238	0.404877	-0.626903	-0.435146	-0.503701	9.57709	-0.686384	-1.71048	-0.0960283	-0.00908717	0.00160795	-0.962402	0.479248	0.283447	
19	-0.568173	0.409844	0.364341	0.613566	9.40621	-0.34029	4.07573	-0.0565069	-0.0185516	-0.00881217	-0.793701	0.42627	-0.313965	0.574261	-0.438172	-0.40003	-0.564097	9.51861	-0.413963	3.00772	-0.0326058	-0.0203054	-0.0249539	-0.723389	0.344727	-0.224121	0.662587	-0.348009	-0.391797	-0.535129	9.23545	-0.407681	4.44189	-0.210549	0.0556114	-0.00991897	-0.853271	0.340332	-0.499756	0.129666	0.371008	-0.00924044	-0.919486	-6.6892	1.10739	7.12768	-0.00600038	-0.00828601	-0.0217507	0.365967	0.0861816	-0.981201	-0.52861	0.474286	0.309149	0.632496	9.14888	-1.29755	3.62321	0.0505536	0.0121131	-0.00769741	-0.8479	0.47998	-0.209717	0.945272	-0.125164	0.301208	-0.00830709	-7.0705	-2.63337	9.7379	0.00596615	0.0230063	-0.0235522	0.958008	0.16748	-0.353516	-0.534269	0.514464	0.548155	0.386536	9.67578	-1.30824	-1.27016	-0.108958	0.024079	0.00623958	-0.85376	0.481201	0.0534668	0.849529	-0.142115	-0.341298	-0.376325	7.3709	0.328156	7.84641	0.0164342	0.0304145	-0.0347672	-0.513184	0.233643	-0.87793	-0.18137	0.160433	-0.966577	-0.0842279	-3.72096	1.79179	-8.19375	-0.0318358	0.0124465	0.00810217	0.00830078	-0.259277	1.06934	-0.531935	0.511596	0.458463	0.495103	9.92247	-0.791025	0.685378	-0.0137244	-0.00176307	-0.00782568	-0.914307	0.475586	-0.0390625	0.404223	-0.62728	-0.435107	-0.503791	9.67312	-0.815043	-1.67738	0.0102769	-0.00760494	-0.0137909	-0.962402	0.477051	0.285889	
20	-0.5676	0.410399	0.364388	0.613697	9.44594	-0.28551	4.07885	-0.009956	-0.028049	-0.00678572	-0.79126	0.424072	-0.307617	0.573693	-0.439485	-0.399674	-0.563906	9.55208	-0.56179	2.97048	-0.0507555	-0.0230068	0.00649411	-0.710693	0.349121	-0.214844	0.662195	-0.348697	-0.391438	-0.535429	9.12627	-0.720829	4.42917	0.0456515	-0.0113102	-0.00228046	-0.855469	0.342529	-0.501953	0.129162	0.371179	-0.010415	-0.919475	-6.66416	1.25469	7.14675	0.0571032	0.0101727	0.00366298	0.366455	0.0751953	-0.976562	-0.529331	0.473916	0.309216	0.632137	9.19024	-0.97921	3.55914	0.00081724	0.020824	0.00964482	-0.850098	0.484375	-0.218994	0.94507	-0.125619	0.301652	-0.00823456	-7.04761	-3.04372	9.68528	-0.0116857	0.0352037	-0.0136019	0.955811	0.169678	-0.353516	-0.534695	0.514458	0.547394	0.387031	9.67764	-1.24467	-1.14969	-0.00649693	0.0504273	-0.0107058	-0.860352	0.483398	0.0554199	0.849296	-0.142455	-0.341129	-0.376875	7.29669	0.174924	7.95419	-0.0105391	0.00990191	-0.0234895	-0.517578	0.23584	-0.882568	-0.181534	0.160182	-0.966591	-0.084197	-3.65187	1.69273	-8.20601	0.00737295	-0.00311642	-0.00434576	0.0131836	-0.261475	1.06934	-0.531796	0.51216	0.457977	0.495118	9.86388	-0.81872	0.643416	-0.0273042	0.00310528	0.0230529	-0.916504	0.477783	-0.0368652	0.404263	-0.627184	-0.43545	-0.503582	9.79494	-0.516714	-1.72971	0.0237985	0.00536249	-0.00596459	-0.9646	0.477051	0.283447	
21	-0.567765	0.410632	0.364776	0.613158	9.49224	-0.212247	4.02042	0.020628	-0.0159369	0.0194581	-0.795898	0.42627	-0.312012	0.574341	-0.439074	-0.398828	-0.564165	9.48086	-0.474089	3.02892	0.0115796	0.0873451	-0.00479517	-0.719238	0.344727	-0.226562	0.663204	-0.346467	-0.393253	-0.534296	9.11297	-0.383349	4.65585	0.127675	0.00763773	-0.00573636	-0.857422	0.338135	-0.501953	0.129126	0.371337	-0.00995532	-0.919422	-6.6371	1.18225	7.1462	-0.032486	0.0165826	-0.00990129	0.366455	0.0773926	-0.97876	-0.528764	0.474847	0.307999	0.632507	9.1505	-1.19256	3.60798	-0.0716206	0.00345759	-0.00486775	-0.8479	0.484375	-0.209717	0.945085	-0.124809	0.301946	-0.00809105	-7.03714	-2.85965	9.6899	0.0427684	0.0203213	0.00565008	0.953857	0.16748	-0.349121	-0.534695	0.51462	0.547098	0.387235	9.55895	-1.16078	-1.19664	0.0117793	0.0123864	-0.0153929	-0.856201	0.485596	0.0532227	0.849163	-0.14223	-0.341588	-0.376844	7.49964	0.0909295	7.90429	0.019148	0.0200656	-0.0186311	-0.515381	0.233643	-0.875732	-0.181874	0.159904	-0.966573	-0.0841937	-3.49655	1.60138	-8.31546	0.023273	-0.00446249	-0.0149513	0.00610352	-0.263672	1.06494	-0.531323	0.512844	0.457791	0.49509	9.7497	-0.934723	0.43217	-0.0306607	-0.0212231	0.0106066	-0.916504	0.475586	-0.0412598	0.404912	-0.626823	-0.435772	-0.503231	9.60322	-0.853159	-1.68673	0.0812426	0.0135258	-0.00438464	-0.962402	0.479248	0.288086	
22	-0.568468	0.410252	0.364595	0.612868	9.46952	-0.197192	4.07838	0.0166499	0.0244719	0.0202281	-0.797852	0.424072	-0.312012	0.574816	-0.438494	-0.398353	-0.564469	9.35943	-0.507573	2.99471	0.00427409	0.088312	-0.0138511	-0.718994	0.342529	-0.224121	0.663714	-0.346224	-0.393143	-0.533901	9.02728	-0.25432	4.75897	-0.0248395	0.0153579	0.0198996	-0.855469	0.338135	-0.506592	0.129274	0.371173	-0.00916513	-0.919475	-6.59737	1.05101	7.07674	-0.0631229	0.00129475	-0.0114355	0.361572	0.081543	-0.979004	-0.529172	0.474641	0.308134	0.632255	9.10897	-1.30537	3.60804	0.0603712	0.0162619	0.00519008	-0.845703	0.484375	-0.212158	0.94511	-0.124436	0.302029	-0.0077619	-7.00069	-2.82371	9.69687	0.0236624	0.0174044	0.0198244	0.958008	0.169678	-0.349121	-0.534081	0.514904	0.547945	0.386506	9.57529	-1.15288	-1.27727	0.0234132	-0.0379633	-0.0201503	-0.854004	0.485596	0.0554199	0.849052	-0.142355	-0.34183	-0.376826	7.37225	0.347121	7.89365	-0.00512618	0.000236575	-0.0137504	-0.517578	0.231445	-0.87793	-0.182052	0.159477	-0.96663	-0.0839627	-3.5758	1.72634	-8.32878	-0.00922072	-0.000370098	-0.00915075	0.0109863	-0.265869	1.06714	-0.530809	0.51343	0.457904	0.494929	9.96182	-0.869893	0.596615	0.00360064	0.00323317	-0.00424958	-0.916504	0.477783	-0.0415039	0.404846	-0.626976	-0.435805	-0.503066	9.76468	-0.412404	-1.65843	-0.0304259	0.00462827	0.00931732	-0.9646	0.479248	0.283447	
23	-0.568683	0.410015	0.364367	0.612963	9.41221	-0.211922	4.08189	0.00433198	0.0280615	0.00561871	-0.79126	0.421875	-0.309814	0.575255	-0.437975	-0.398306	-0.564457	9.41608	-0.482581	3.00434	0.0300274	0.0538221	-0.0137197	-0.721191	0.340332	-0.224121	0.663471	-0.34691	-0.39238	-0.53432	9.03197	-0.31685	4.64628	-0.0865487	0.0185944	0.00930875	-0.859619	0.340332	-0.506592	0.129274	0.371173	-0.00916513	-0.919475	-6.59737	1.05101	7.07674	-0.0631229	0.00129475	-0.0114355	0.361572	0.081543	-0.979004	-0.530739	0.473601	0.309172	0.631214	9.19265	-0.94567	3.55827	0.0732676	0.00803776	0.018733	-0.8479	0.484375	-0.214355	0.945164	-0.124217	0.301972	-0.00695191	-7.06183	-2.69804	9.73803	-0.0241052	0.00940086	0.0116132	0.9646	0.169678	-0.351318	-0.533656	0.515342	0.547969	0.386476	9.68576	-1.25001	-1.281	-0.0191769	-0.0228753	-0.0116751	-0.856201	0.485596	0.0576172	0.848881	-0.142747	-0.341765	-0.377122	7.45753	0.103885	7.93185	-0.0345596	0.00851337	-0.0286077	-0.517578	0.233643	-0.875732	-0.182189	0.159266	-0.966635	-0.0840191	-3.6368	1.68312	-8.34343	0.0079613	-0.0047758	-0.0113931	0.0107422	-0.261475	1.06934	-0.530748	0.513414	0.457932	0.494986	9.8742	-0.877132	0.579339	-0.00207291	0.0114673	-0.00356574	-0.91626	0.471191	-0.0366211	0.404846	-0.626976	-0.435805	-0.503066	9.76468	-0.412404	-1.65843	-0.0304259	0.00462827	0.00931732	-0.9646	0.479248	0.283447	
24	-0.568738	0.40959	0.36403	0.613397	9.39724	-0.204823	4.10136	-0.00484141	0.023447	-0.0100643	-0.79126	0.424316	-0.313965	0.575026	-0.438184	-0.39874	-0.564222	9.48021	-0.469364	2.96585	-0.00890355	0.00318472	-0.0129148	-0.716797	0.338135	-0.22168	0.663173	-0.347783	-0.391138	-0.535032	9.18676	-0.50967	4.56059	-0.0284536	0.0228147	0.00459357	-0.853271	0.340332	-0.506592	0.130209	0.37088	-0.00763754	-0.919475	-6.72409	1.12676	7.06938	-0.00912844	0.0062435	0.00984464	0.359375	0.0859375	-0.981201	-0.530793	0.473816	0.308944	0.631118	9.20253	-0.866441	3.55168	-0.0165059	0.00410439	0.0094052	-0.845947	0.486572	-0.216797	0.94491	-0.125299	0.302328	-0.0065101	-6.97012	-3.03486	9.70928	-0.0390143	0.0313398	-0.0109098	0.958008	0.16748	-0.351318	-0.533103	0.515857	0.548007	0.386498	9.51941	-1.20394	-1.29154	0.00185278	0.0076446	-0.0179874	-0.856201	0.487793	0.0576172	0.848845	-0.14244	-0.342023	-0.377085	7.42136	0.170486	7.87675	0.0301496	0.0158983	-0.0145133	-0.510986	0.231445	-0.87793	-0.182205	0.159416	-0.966591	-0.0841995	-3.51402	1.70821	-8.29215	-0.00464977	0.00233945	-0.0184102	0.0131836	-0.261475	1.06934	-0.53077	0.513912	0.457426	0.494913	9.80491	-0.946405	0.569085	-0.0177106	0.00928837	0.03028	-0.918945	0.477783	-0.0368652	0.405587	-0.626463	-0.436731	-0.502304	9.68487	-0.795435	-1.70145	0.039988	-0.00454446	-0.00515098	-0.964844	0.481445	0.279053	
25	-0.568982	0.409189	0.363871	0.613532	9.30309	-0.214301	4.08654	0.0131779	0.00858846	0.00141866	-0.791504	0.428467	-0.316162	0.57545	-0.437693	-0.398454	-0.564372	9.4903	-0.460958	2.9462	0.00711905	0.0512643	-0.0161436	-0.721436	0.344727	-0.226562	0.664047	-0.346425	-0.39204	-0.534168	8.96767	-0.393702	4.58341	0.101799	0.00434302	0.00395887	-0.853271	0.340332	-0.506592	0.130021	0.370986	-0.00722807	-0.919463	-6.66388	1.15847	7.01686	-0.00974169	0.0159115	-0.0187654	0.365967	0.0861816	-0.981201	-0.530348	0.474573	0.307983	0.631393	9.14098	-1.21226	3.50185	-0.0289504	0.00944626	-0.00517839	-0.84375	0.486572	-0.214355	0.944912	-0.124842	0.302516	-0.0062492	-6.9644	-2.99313	9.67605	0.0337302	0.0172405	0.00780445	0.956055	0.165283	-0.342529	-0.53268	0.516155	0.548188	0.386427	9.65254	-1.23192	-1.27948	-0.00680046	0.011318	-0.0195841	-0.854004	0.483398	0.0639648	0.8489	-0.142451	-0.342189	-0.376805	7.36824	0.159744	7.939	0.0025226	0.00830213	-0.00183558	-0.515381	0.231445	-0.87793	-0.182252	0.159347	-0.966593	-0.084208	-3.53847	1.70291	-8.32377	0.0126783	0.00667663	-0.0257654	0.0131836	-0.263672	1.06714	-0.530717	0.514044	0.457458	0.494804	9.79993	-0.935452	0.546223	-0.000552405	-0.000414499	0.00466363	-0.918701	0.473389	-0.0322266	0.405669	-0.626555	-0.436958	-0.501925	9.71939	-0.635444	-1.79944	0.0454583	0.00168526	-0.00353134	-0.962402	0.477051	0.288086	
26	-0.569063	0.409086	0.364176	0.613345	9.43738	-0.203051	4.07151	0.0127273	-0.0127036	-0.00542999	-0.795654	0.421875	-0.311768	0.575968	-0.436743	-0.398101	-0.56483	9.48586	-0.404834	2.97226	0.00517929	0.0570608	-0.0289596	-0.714844	0.342529	-0.226562	0.664126	-0.345653	-0.392144	-0.534495	9.1356	-0.156522	4.55282	-0.0276378	0.0268986	-0.0232737	-0.857422	0.338135	-0.501953	0.129731	0.371315	-0.00622845	-0.919378	-6.6997	1.04455	7.0178	-0.0244705	0.0270368	-0.0206934	0.368164	0.0861816	-0.979004	-0.531252	0.473698	0.308584	0.630998	9.18586	-1.08312	3.5336	0.0752213	0.021448	-0.000637206	-0.841553	0.48877	-0.216797	0.945008	-0.124092	0.302535	-0.00580859	-6.96602	-2.91743	9.72797	0.0279215	0.0112329	0.00874682	0.958252	0.163086	-0.351074	-0.532867	0.515922	0.548098	0.386608	9.65662	-1.22002	-1.24467	0.0205566	0.027167	-0.0227166	-0.856201	0.483398	0.0598145	0.849111	-0.141765	-0.342332	-0.37646	7.35187	0.192105	7.9454	0.0495865	0.0270881	-0.0104353	-0.510986	0.231445	-0.87793	-0.182224	0.159349	-0.966558	-0.0846585	-3.55493	1.80909	-8.23553	-0.0351549	0.00425825	-0.0240568	0.00854492	-0.266113	1.07373	-0.530303	0.514501	0.457797	0.494458	9.98719	-0.967475	0.744284	-0.00256684	-0.0161864	0.0085219	-0.914062	0.473389	-0.0322266	0.405985	-0.626386	-0.437474	-0.501431	9.6491	-0.637695	-1.66918	0.0223735	-0.0112786	-0.0130866	-0.9646	0.479248	0.279053	
27	-0.568748	0.408864	0.364722	0.61346	9.55951	-0.180607	4.10362	0.00982872	-0.0183312	-0.0273944	-0.79126	0.422119	-0.311768	0.57581	-0.436802	-0.398233	-0.564851	9.64122	-0.435437	3.11035	-0.0139342	0.00186124	-0.0241488	-0.721191	0.340332	-0.224121	0.663332	-0.346851	-0.391061	-0.535496	9.24283	-0.434104	4.57046	-0.0800334	0.00653467	-0.00999522	-0.855469	0.342529	-0.506592	0.129675	0.371815	-0.00633726	-0.919183	-6.80444	1.13832	7.1021	0.0178604	0.0252167	0.0100138	0.368164	0.0883789	-0.981201	-0.531729	0.473428	0.308641	0.63077	9.27555	-0.918997	3.56835	-0.010876	0.0153118	-0.000340472	-0.843506	0.484375	-0.212158	0.944971	-0.124266	0.302583	-0.00560461	-6.99435	-2.91471	9.79037	-0.0269503	0.0195101	-0.0136265	0.960449	0.161133	-0.353271	-0.533692	0.515281	0.547692	0.386899	9.81138	-1.29318	-1.25295	0.0622651	0.0558494	-0.0125013	-0.856201	0.485596	0.0576172	0.849028	-0.141875	-0.342979	-0.376018	7.34295	0.13123	7.80575	0.0191321	-0.0115792	0.00596897	-0.513184	0.231689	-0.882568	-0.182644	0.159777	-0.966416	-0.084576	-3.63625	1.74591	-8.24845	0.0389824	-0.00891685	-0.0593509	0.0129395	-0.259033	1.06714	-0.530763	0.513862	0.458297	0.494167	9.8235	-0.810072	0.60037	0.0415396	-5.0648e-05	-0.0117017	-0.918457	0.471191	-0.0322266	0.404787	-0.627166	-0.436891	-0.501933	9.77839	-0.391433	-1.47774	-0.124387	-0.0214634	-0.0132322	-0.967041	0.483643	0.285645	
28	-0.568648	0.408622	0.365132	0.613471	9.4812	-0.125402	4.04547	0.0146637	-0.0036806	-0.0039365	-0.786865	0.422119	-0.316162	0.57621	-0.436468	-0.397433	-0.565265	9.49514	-0.516732	3.09622	-0.0197225	0.0831055	-0.00792506	-0.717041	0.344727	-0.224121	0.663633	-0.34591	-0.392734	-0.534506	9.22456	-0.551765	4.81351	0.123359	-0.0335859	-0.00141184	-0.853271	0.340332	-0.50415	0.129671	0.371926	-0.00683263	-0.919135	-6.73735	1.01159	7.2765	0.0117801	0.00324284	0.00314052	0.368164	0.0861816	-0.983398	-0.530955	0.473955	0.307809	0.631433	9.27367	-1.19799	3.6501	-0.0554707	0.0175727	-0.0307204	-0.845947	0.486572	-0.214355	0.945044	-0.123742	0.302559	-0.00611337	-7.10126	-2.91715	9.74152	0.0559918	0.012217	-0.0298873	0.962646	0.165283	-0.344727	-0.534959	0.513952	0.548377	0.385947	9.5715	-1.20173	-1.11989	0.123334	0.00282891	-0.0270254	-0.856201	0.485596	0.0532227	0.849192	-0.140987	-0.343668	-0.37535	7.46598	0.385104	8.15088	0.07073	0.00741117	-0.020821	-0.513184	0.229248	-0.87793	-0.183301	0.160107	-0.966255	-0.0843692	-3.55373	1.71552	-8.33463	0.0191094	-0.017694	-0.0300726	0.0175781	-0.256592	1.0625	-0.53099	0.513209	0.458767	0.494165	9.74126	-0.920999	0.285759	0.0163702	0.0181582	-0.0107609	-0.916504	0.473389	-0.0390625	0.400928	-0.629006	-0.434972	-0.504388	9.76566	-0.591831	-1.83357	-0.137963	-0.00511969	-0.0266031	-0.966797	0.474854	0.292725	
29	-0.56924	0.408405	0.364838	0.613241	9.278	-0.194114	4.07794	0.00959382	0.0126123	0.0220032	-0.789062	0.422119	-0.313965	0.576651	-0.435647	-0.396943	-0.565794	9.35839	-0.510762	3.01615	0.00371671	0.053548	-0.0163262	-0.710205	0.340332	-0.23584	0.664553	-0.344884	-0.39284	-0.533948	8.99569	-0.173089	4.78856	-0.000291494	0.0555701	0.0184313	-0.857666	0.342529	-0.506592	0.129298	0.371334	-0.00600521	-0.919433	-6.62107	0.931215	7.16459	-0.0277791	-0.0191482	-0.0345326	0.359131	0.0881348	-0.976807	-0.53062	0.473918	0.307586	0.63185	9.14477	-1.29517	3.68636	-0.0329422	0.0264643	-0.0385405	-0.845703	0.482178	-0.209717	0.945402	-0.122095	0.302104	-0.00641265	-7.05636	-2.67729	9.66624	0.0720858	-0.00847795	0.00122662	0.962402	0.165283	-0.351318	-0.535837	0.512957	0.54909	0.385038	9.44283	-1.20031	-1.34209	0.0813253	0.0388897	-0.0207266	-0.860596	0.485596	0.0512695	0.84864	-0.1422	-0.34403	-0.37581	7.3299	0.194254	7.80017	-0.0705784	-0.0145682	-0.0173916	-0.517578	0.233643	-0.87793	-0.183458	0.159838	-0.966264	-0.0844352	-3.43097	1.62379	-8.24764	0.00741208	-0.00628014	-0.0060931	0.0131836	-0.261475	1.06934	-0.530385	0.513885	0.459108	0.493795	9.72156	-1.00018	0.293134	-0.0285669	-0.0256851	0.00642931	-0.920898	0.475586	-0.0368652	0.400661	-0.629175	-0.434373	-0.504906	9.71168	-0.834372	-1.99562	-0.0585332	0.0373895	0.00315075	-0.964355	0.472656	0.290527	
30	-0.569508	0.407957	0.364801	0.613312	9.40275	-0.166872	4.20364	0.01109	0.0145812	-0.00757587	-0.793457	0.422119	-0.316162	0.576406	-0.436048	-0.396983	-0.565705	9.38119	-0.429699	3.05719	-0.00298722	-0.0126678	-0.0171668	-0.719238	0.34668	-0.229004	0.66434	-0.345982	-0.390075	-0.535528	9.03669	-0.419876	4.57851	-0.124351	0.0657113	0.00891726	-0.853271	0.344727	-0.509033	0.129153	0.370963	-0.00529053	-0.919608	-6.63442	1.02858	7.05189	-0.0507537	-0.0177726	-0.0318772	0.370361	0.0861816	-0.983398	-0.532214	0.472146	0.307506	0.631876	8.98485	-1.18677	3.51188	0.0648341	0.0531567	0.0320301	-0.843994	0.490967	-0.214355	0.945531	-0.121435	0.301983	-0.00550262	-6.95211	-2.66159	9.63516	-0.015382	0.010608	0.0349469	0.958496	0.158936	-0.357422	-0.535459	0.513235	0.55028	0.383491	9.58553	-1.26753	-1.38785	0.0700349	-0.0845572	0.00197437	-0.856201	0.485596	0.0512695	0.848456	-0.142848	-0.343841	-0.376153	7.4178	0.116512	7.93229	-0.0154593	0.015526	-0.0331943	-0.519531	0.229248	-0.87793	-0.183637	0.158726	-0.966543	-0.0829374	-3.64847	1.99797	-8.27906	0.00894705	0.00901086	0.00621764	0.0129395	-0.259033	1.06934	-0.529116	0.515201	0.459172	0.493725	10.0461	-0.84359	0.806706	-0.0453133	-0.0411189	-0.0072111	-0.918945	0.477783	-0.0322266	0.399082	-0.630116	-0.43295	-0.506204	9.70794	-0.465452	-1.62726	-0.0859613	-0.0059906	-0.00632454	-0.9646	0.474854	0.290527	
31	-0.569488	0.408128	0.364713	0.61327	9.37344	-0.212187	4.15777	-0.00940895	-0.0196912	0.00291998	-0.789307	0.426514	-0.318359	0.576387	-0.436232	-0.397203	-0.565429	9.53569	-0.514537	3.03906	0.00234032	-0.0139559	-0.00943162	-0.714844	0.344727	-0.226562	0.664187	-0.346559	-0.389466	-0.535788	9.09743	-0.57563	4.48699	0.00574065	-0.0132196	-0.000997499	-0.851074	0.342529	-0.51123	0.129087	0.370339	-0.00380399	-0.919876	-6.64266	0.995239	7.04512	-0.0399692	-0.00676399	-0.0177431	0.361328	0.0905762	-0.985596	-0.533009	0.472172	0.307272	0.631299	9.37623	-1.02911	3.40786	-0.00862155	-0.00641831	0.0143175	-0.839355	0.48877	-0.221191	0.945358	-0.122112	0.302264	-0.00487668	-7.03489	-2.93105	9.60956	-0.0648921	0.0344125	0.0185655	0.958496	0.156738	-0.348877	-0.536681	0.512447	0.549702	0.383666	9.86893	-1.56839	-1.19759	0.0255131	0.0935018	-0.0116298	-0.854004	0.485596	0.0512695	0.84814	-0.142712	-0.343992	-0.376778	7.47816	0.126307	7.97703	0.0147991	0.0182108	-0.0361044	-0.519531	0.231445	-0.87793	-0.184006	0.158258	-0.966561	-0.0828048	-3.66172	1.72818	-8.36939	0.0144834	-0.0109508	0.00214699	0.0151367	-0.256836	1.06934	-0.528828	0.515035	0.459044	0.494327	9.78703	-0.933172	0.527544	-0.016471	0.0293704	-0.00444239	-0.920898	0.475586	-0.0300293	0.398519	-0.630245	-0.432864	-0.50656	9.76358	-1.06501	-1.7106	0.0312294	0.0135733	-0.0170794	-0.964355	0.470459	0.295166	
32	-0.56936	0.408498	0.36482	0.613078	9.3861	-0.205309	4.08925	-0.0101035	-0.0367349	0.0077909	-0.788818	0.419922	-0.316162	0.576279	-0.436333	-0.397144	-0.565502	9.6161	-0.58265	3.06406	-0.0102927	0.00599371	-0.011189	-0.716797	0.342529	-0.226562	0.664047	-0.346375	-0.390059	-0.535648	9.32367	-0.530146	4.62336	0.0379662	-0.0286194	-0.0217121	-0.846924	0.342285	-0.51123	0.128286	0.370783	-0.00512534	-0.919803	-6.69692	1.14062	7.16391	0.0900857	0.0216043	-0.00887965	0.365723	0.0883789	-0.981201	-0.53272	0.472622	0.307191	0.631246	9.34138	-1.0676	3.48794	-0.0336084	-0.0209698	-0.0101737	-0.841553	0.486572	-0.221191	0.945023	-0.122649	0.303093	-0.00489938	-7.08963	-3.10392	9.69446	0.0050925	0.0521952	-0.0292183	0.960449	0.160889	-0.357422	-0.536767	0.512353	0.550008	0.383233	9.57711	-1.2693	-1.32991	0.0510597	-0.0125769	-0.0133676	-0.854248	0.48999	0.0510254	0.848192	-0.142229	-0.344085	-0.376758	7.48637	0.127413	7.86926	0.0407932	0.0264039	-0.0264983	-0.517578	0.231445	-0.880371	-0.184068	0.157938	-0.96659	-0.082936	-3.49408	1.80934	-8.20502	0.00244039	-0.00017769	-0.000852	0.010498	-0.254639	1.07153	-0.528507	0.515604	0.458867	0.494242	9.70715	-0.912159	0.623835	-0.03952	-0.0180151	0.0223606	-0.918945	0.477783	-0.0300293	0.399174	-0.62968	-0.433579	-0.506135	9.60926	-0.745704	-1.61668	0.0972959	0.00967083	-0.0210988	-0.96875	0.470459	0.295166	
33	-0.56929	0.409244	0.364724	0.612703	9.30685	-0.25127	4.02416	-0.0164806	-0.0259039	0.0178213	-0.791504	0.426514	-0.318359	0.576558	-0.436076	-0.396638	-0.565771	9.31788	-0.480417	2.9643	-0.00468344	0.0355535	-0.021262	-0.714355	0.335938	-0.228516	0.664249	-0.346156	-0.390556	-0.535178	8.91961	-0.437031	4.73585	0.00831114	-0.00143426	0.0207796	-0.848877	0.342285	-0.501953	0.127561	0.370556	-0.005494	-0.919992	-6.53213	1.06828	7.1458	-0.00849457	-0.0180639	-0.023725	0.36792	0.0905762	-0.983398	-0.531723	0.473168	0.306481	0.632023	9.08486	-1.16783	3.70011	-0.0596604	0.0280284	-0.0340727	-0.841553	0.486572	-0.216797	0.945166	-0.121448	0.303119	-0.00549114	-6.98741	-2.76644	9.60362	0.058448	0.00146071	-0.0158434	0.962891	0.158936	-0.351074	-0.537394	0.511346	0.551275	0.381876	9.42512	-1.18213	-1.20052	0.101271	-0.0100199	-0.0305927	-0.856445	0.487793	0.046875	0.848039	-0.142161	-0.343887	-0.377309	7.27362	0.0370667	7.89606	-0.00341648	0.0245498	-0.028506	-0.519531	0.229248	-0.880127	-0.184147	0.157529	-0.966591	-0.0835234	-3.4304	1.73052	-8.24285	-0.000227646	-0.000400859	-0.0123069	0.0126953	-0.254639	1.06909	-0.528623	0.515867	0.458308	0.494362	9.70714	-0.994579	0.54185	0.000706464	0.0408938	0.0177618	-0.918701	0.473389	-0.0344238	0.399035	-0.629598	-0.434273	-0.505751	9.64216	-0.937933	-1.7876	0.0633995	-0.0122203	-0.0241141	-0.9646	0.474854	0.292725	
34	-0.569014	0.410005	0.364897	0.612347	9.46361	-0.260654	4.02052	-0.0112868	-0.0361277	0.00824526	-0.787109	0.426514	-0.311768	0.576334	-0.43606	-0.396907	-0.565823	9.47516	-0.518816	3.08344	-0.0182027	-0.00213927	-0.0264197	-0.712402	0.340332	-0.231201	0.664153	-0.347285	-0.388711	-0.535909	9.09935	-0.399237	4.66864	-0.101022	0.0466698	0.0126633	-0.849121	0.351074	-0.506836	0.127422	0.369582	-0.00472456	-0.920408	-6.63962	0.909725	7.13333	-0.0181778	-0.0305424	-0.0176134	0.36792	0.0927734	-0.979248	-0.532578	0.47174	0.306758	0.632235	9.1485	-1.2303	3.61278	0.0514086	0.0258573	-0.00691838	-0.843994	0.490967	-0.218994	0.945487	-0.12042	0.302526	-0.00556367	-7.06979	-2.64532	9.68832	0.0364309	-0.00908816	-0.00943291	0.962891	0.156738	-0.357422	-0.536878	0.511449	0.551966	0.381465	9.52468	-1.35032	-1.19809	0.0369335	-0.0362268	-0.0332508	-0.856201	0.483398	0.0512695	0.84818	-0.141627	-0.343712	-0.377353	7.44308	0.107189	7.66917	0.00169354	0.0342778	-0.0227809	-0.512939	0.227051	-0.875488	-0.184125	0.157558	-0.9665	-0.084567	-3.6616	1.49428	-8.33101	-0.00935423	0.0015389	-0.0256901	0.0131836	-0.261475	1.06714	-0.528998	0.515236	0.458476	0.494462	9.87508	-0.882077	0.410704	0.028651	0.0391078	-0.0161626	-0.914551	0.47998	-0.034668	0.39982	-0.628908	-0.435416	-0.505006	9.69771	-0.628435	-1.67569	0.135868	-0.0107914	-0.0320218	-0.964355	0.472656	0.288086	
35	-0.569097	0.410111	0.364701	0.612315	9.49661	-0.333894	4.07499	0.00208428	0.011882	0.00251314	-0.788818	0.419922	-0.30957	0.575862	-0.436751	-0.396974	-0.565723	9.49056	-0.575206	3.09202	-0.0298987	-0.00974074	-0.0188601	-0.717041	0.346924	-0.224365	0.664087	-0.34765	-0.387912	-0.536333	9.08728	-0.556322	4.58831	0.00613029	0.0112661	0.00380029	-0.853271	0.344727	-0.51123	0.127002	0.369335	-0.00502774	-0.920563	-6.62085	0.995522	7.14305	0.0273813	0.00112799	-0.0092235	0.365723	0.0905762	-0.983398	-0.532734	0.471664	0.306886	0.632099	9.11601	-1.14919	3.68157	0.0188311	0.00476216	-0.00486725	-0.837158	0.48877	-0.218994	0.94548	-0.12067	0.302453	-0.00540527	-7.08719	-2.82005	9.69904	-0.013216	0.0176131	-0.0118233	0.958496	0.156738	-0.351074	-0.535882	0.511496	0.554437	0.379213	9.74652	-1.36377	-1.29802	0.0756054	-0.121265	-0.0244795	-0.854004	0.485596	0.0532227	0.848057	-0.141207	-0.344349	-0.377205	7.41295	0.38463	7.81542	0.0192319	-0.0311002	-0.0298264	-0.519531	0.229248	-0.880127	-0.184475	0.157845	-0.966336	-0.0851413	-3.62626	1.52113	-8.28655	-0.0317921	-0.0113978	-0.0366833	0.0153809	-0.263672	1.06714	-0.529944	0.516409	0.45726	0.49335	9.84002	-1.12234	0.55064	-0.0125995	0.02031	0.167926	-0.912109	0.47998	-0.027832	0.402459	-0.627216	-0.437232	-0.503444	9.75016	-1.35239	-1.98595	0.215947	0.0532669	0.0207639	-0.964355	0.472656	0.285889	
36	-0.569691	0.40964	0.36437	0.612276	9.30234	-0.3153	4.01317	0.0178946	0.0302507	0.0146963	-0.786865	0.422119	-0.311768	0.576721	-0.435802	-0.396538	-0.565886	9.25624	-0.479924	3.02524	0.0288642	0.098883	-0.0128246	-0.7146	0.338135	-0.22876	0.664649	-0.346371	-0.389024	-0.535657	8.9326	-0.528135	4.66508	0.0947837	0.00173113	-0.00564128	-0.851318	0.351074	-0.511475	0.126769	0.369563	-0.00511616	-0.920503	-6.49576	1.05645	7.12057	-0.0109981	0.018407	-0.00625904	0.356934	0.090332	-0.985596	-0.532222	0.47226	0.306176	0.632429	9.01672	-1.25474	3.7767	-0.0502024	0.0131239	-0.012724	-0.837158	0.484375	-0.223633	0.945517	-0.120294	0.302494	-0.00498021	-7.00825	-2.7287	9.61823	0.0252973	0.00742201	0.0150621	0.962891	0.158936	-0.348877	-0.535126	0.511247	0.556257	0.377949	9.23061	-0.932072	-1.27138	0.044839	-0.0921173	-0.0517961	-0.858398	0.487793	0.0532227	0.848007	-0.141279	-0.344565	-0.377094	7.49972	0.0621742	7.70971	0.0083148	-0.00264881	-0.0095044	-0.519531	0.227295	-0.880127	-0.184597	0.158072	-0.966304	-0.0848181	-3.31648	1.78073	-8.17572	0.0324117	0.0185475	-0.0376925	0.0222168	-0.259033	1.06714	-0.532127	0.51809	0.454547	0.491743	9.37055	-1.22906	0.555775	-0.0188076	0.0270634	0.207091	-0.907959	0.484375	-0.0300293	0.410269	-0.622686	-0.441641	-0.498893	9.57034	-1.32965	-2.18245	0.537768	0.0673872	0.0402766	-0.967041	0.483643	0.276611	
37	-0.570615	0.408425	0.364125	0.612372	9.231	-0.275574	4.12285	0.0402442	0.0374343	0.00149236	-0.791016	0.419922	-0.316162	0.577478	-0.434589	-0.397124	-0.565636	9.32249	-0.467152	3.00899	0.0610128	-0.0130447	-0.0311819	-0.7146	0.340332	-0.233398	0.665453	-0.34552	-0.38846	-0.535618	8.8781	-0.267416	4.45138	-0.020392	0.0626519	0.0151791	-0.855713	0.353271	-0.513672	0.126986	0.369464	-0.00406951	-0.920519	-6.41047	1.01584	6.97669	-0.0831179	0.0104414	-0.0133838	0.365723	0.090332	-0.976807	-0.533359	0.471216	0.306507	0.63209	8.9393	-1.30285	3.59252	0.10084	0.0400198	0.0122225	-0.832764	0.486572	-0.221191	0.945788	-0.120207	0.301706	-0.00312609	-6.98946	-2.5793	9.58992	-0.0469226	-0.0331187	0.0584177	0.958984	0.147949	-0.35498	-0.533585	0.511871	0.558241	0.376353	9.45335	-1.45309	-1.63222	0.0744891	-0.0783107	-0.0411402	-0.855957	0.479004	0.0576172	0.848699	-0.141373	-0.343704	-0.376286	7.31884	-0.31379	7.8434	0.0043177	0.0600094	0.0484274	-0.517334	0.229248	-0.880127	-0.184144	0.15824	-0.966317	-0.085337	-3.28196	1.56749	-8.35147	-0.0414643	0.0385247	-0.0293479	0.0246582	-0.263672	1.07373	-0.532781	0.519946	0.453591	0.489955	9.78433	-1.13698	0.0717929	-0.00384389	-0.0656795	0.0322907	-0.906006	0.493164	-0.0280762	0.417287	-0.61835	-0.444632	-0.4958	9.69642	0.254594	-1.55766	0.116601	0.0670812	0.0229387	-0.967529	0.490234	0.265137	
38	-0.571209	0.407402	0.364931	0.612021	9.67087	-0.214683	4.24524	0.0641833	0.00766122	-0.00705388	-0.784668	0.422119	-0.316162	0.57755	-0.434341	-0.398199	-0.564997	9.58349	-0.468647	3.12716	0.0752105	-0.0437565	-0.0317744	-0.712402	0.340332	-0.231201	0.665393	-0.345984	-0.387401	-0.53616	9.27466	-0.655136	4.48322	-0.00437777	0.00786299	0.00211197	-0.851318	0.348877	-0.51123	0.128097	0.369388	-0.00240246	-0.920401	-6.59117	1.0635	7.0538	-0.055047	0.0215854	0.035468	0.361084	0.0925293	-0.974854	-0.535887	0.469314	0.308714	0.630289	9.30509	-0.937581	3.56062	0.156496	-0.0136006	0.0216775	-0.837158	0.484375	-0.22583	0.945815	-0.120993	0.301313	-0.00212551	-7.03068	-2.78614	9.7045	-0.0799225	-0.0251554	0.0372104	0.952148	0.154541	-0.355225	-0.533513	0.511384	0.55924	0.375635	9.7585	-1.28542	-1.39685	0.0941423	-0.0491782	-0.0515627	-0.858154	0.483398	0.0617676	0.849223	-0.141373	-0.343801	-0.375013	7.58204	0.631811	7.53122	-0.0267098	-0.0228776	0.0115179	-0.517578	0.231445	-0.87793	-0.183368	0.159477	-0.966394	-0.0838146	-3.74604	1.4709	-8.274	0.0324029	0.0326085	-0.0463532	0.0107422	-0.261475	1.06714	-0.531683	0.520061	0.455199	0.489534	9.89932	-0.926041	0.451016	0.0294721	-0.118083	-0.084734	-0.9104	0.490967	-0.0302734	0.419548	-0.617078	-0.445426	-0.494762	9.85765	-0.637016	-1.65397	0.225281	0.0614043	0.0341337	-0.965332	0.492432	0.258301	
39	-0.572255	0.406003	0.365525	0.611618	9.52333	-0.11241	4.26399	0.0670698	0.0283232	0.00729675	-0.786865	0.422119	-0.320557	0.577985	-0.433396	-0.400218	-0.563851	9.71034	-0.363907	3.05986	0.0814944	-0.0172628	-0.0323411	-0.716797	0.340332	-0.231201	0.666308	-0.344158	-0.391562	-0.533168	9.39748	-0.504448	4.70595	0.243096	-0.128763	0.0129251	-0.851074	0.340332	-0.513428	0.129872	0.370258	-0.0031471	-0.9198	-6.81328	1.1848	7.15389	0.021186	0.0491955	0.0975341	0.363281	0.0927734	-0.981445	-0.535571	0.470163	0.309505	0.629538	9.50724	-0.989017	3.55836	-0.0366244	-0.0538581	-0.0151367	-0.837158	0.48877	-0.221191	0.94559	-0.123693	0.300929	-0.000602027	-7.09323	-3.06819	9.79606	-0.119756	-0.00100429	0.000510411	0.962891	0.156738	-0.355225	-0.533027	0.510592	0.561698	0.37373	9.94673	-1.53005	-1.81328	0.0232533	-0.0387024	-0.0288254	-0.858398	0.485596	0.0617676	0.849438	-0.141631	-0.344895	-0.37342	7.69854	-0.171553	7.89287	0.101924	-0.0268446	0.0485341	-0.515137	0.229248	-0.875488	-0.184259	0.161712	-0.965899	-0.0832877	-3.92501	1.91247	-8.29999	-0.00324429	-0.0286742	-0.13781	0.0153809	-0.263672	1.07153	-0.533504	0.518071	0.456872	0.488103	10.0856	-0.759757	0.662008	0.10803	0.0349644	0.0313087	-0.9104	0.490967	-0.0349121	0.420906	-0.616168	-0.446193	-0.494052	9.93402	-0.19091	-1.35887	0.0151333	0.000637987	-0.0100273	-0.969727	0.494629	0.258301	
40	-0.572671	0.405688	0.365869	0.611232	9.29886	-0.0747581	4.16995	0.0563148	-0.00426948	0.0160604	-0.786865	0.424316	-0.318359	0.578486	-0.432734	-0.401226	-0.563128	9.65817	-0.467368	3.10159	0.0362254	0.0258382	-0.0104017	-0.721191	0.342285	-0.240479	0.666646	-0.34343	-0.393922	-0.531474	9.48393	-0.245414	4.88115	0.204187	-0.127499	0.0159558	-0.846924	0.340088	-0.508789	0.131901	0.371138	-0.00508529	-0.919148	-6.88391	1.08172	7.30061	0.0489648	0.033948	0.106323	0.370361	0.0861816	-0.979004	-0.534971	0.470912	0.309648	0.629417	9.36434	-1.11468	3.6313	-0.0445691	-0.0555958	-0.0236879	-0.84375	0.48877	-0.228027	0.945333	-0.126116	0.300734	-0.000270579	-7.10351	-3.14507	9.87193	-0.071021	0.00984666	-0.041293	0.960449	0.161133	-0.353271	-0.533068	0.510436	0.561768	0.373779	9.68836	-1.46196	-1.56261	0.0229142	0.0169663	-0.0288658	-0.862549	0.483398	0.0598145	0.849695	-0.139988	-0.346077	-0.37236	7.61405	0.363458	7.92934	0.183203	-0.0193318	0.00575806	-0.51709	0.2229	-0.884766	-0.184784	0.162883	-0.965568	-0.0836774	-3.69381	1.86079	-8.3277	-0.035413	-0.034861	-0.120824	0.0224609	-0.26123	1.07373	-0.534356	0.516981	0.457067	0.488143	9.98473	-0.919357	0.633761	0.0887985	0.0790355	-0.0131644	-0.905762	0.486572	-0.0371094	0.417876	-0.618015	-0.445172	-0.495236	9.57846	-1.31645	-1.57112	-0.0740698	-0.0406673	-0.0333239	-0.969482	0.48584	0.265137	
41	-0.573206	0.406105	0.366383	0.610145	9.12451	-0.157472	4.01329	0.0182521	-0.0451746	0.0370944	-0.782471	0.426514	-0.318359	0.579076	-0.432594	-0.401268	-0.562598	9.27749	-0.402924	2.86906	0.0273334	-0.00361402	-0.00367689	-0.7146	0.340332	-0.23584	0.666902	-0.34375	-0.394296	-0.530668	8.90946	-0.315014	4.85072	-0.0386768	0.0202665	0.0297617	-0.851318	0.344482	-0.51123	0.132953	0.370983	-0.00533232	-0.919057	-6.59518	1.09877	7.16321	-0.0412051	-0.00884099	0.0220664	0.365723	0.0927734	-0.98584	-0.534822	0.470627	0.310444	0.629365	9.04929	-1.30823	3.67822	0.0607236	0.0176707	-0.0277144	-0.837402	0.490967	-0.223633	0.945462	-0.125774	0.300469	-0.000616728	-7.00276	-2.9076	9.73511	0.0386171	-0.00506099	-0.0350014	0.958496	0.161133	-0.351074	-0.532773	0.509402	0.563685	0.372723	9.37131	-0.896661	-1.51621	0.0832882	-0.0530431	-0.0612364	-0.860107	0.479004	0.064209	0.84998	-0.138629	-0.347358	-0.371023	7.41714	0.468092	8.12789	0.0527336	-0.00181744	0.0145841	-0.517334	0.225098	-0.882568	-0.185091	0.163937	-0.965293	-0.0841142	-3.43401	1.75525	-8.33817	-0.0402204	-0.0179244	-0.108243	0.0222168	-0.259033	1.06494	-0.536571	0.51548	0.456468	0.487861	9.42097	-1.34412	0.474836	0.0698781	0.0685574	0.066668	-0.90625	0.495361	-0.0395508	0.418878	-0.616843	-0.447603	-0.493657	9.53391	-1.11856	-2.05761	0.169173	-0.020043	-0.0321816	-0.965332	0.492432	0.265137	
42	-0.572912	0.406988	0.367632	0.60908	9.45925	-0.291468	4.01975	0.0279954	-0.0795098	-0.00314883	-0.791504	0.426514	-0.320557	0.580062	-0.43068	-0.403111	-0.561734	9.43538	-0.272521	2.91965	0.138144	0.0256662	-0.0465185	-0.716797	0.338135	-0.238037	0.667425	-0.344377	-0.390807	-0.532183	9.00093	-0.319112	4.35718	-0.102105	0.125095	0.0249401	-0.849121	0.342529	-0.518066	0.134497	0.369921	-0.00167218	-0.919275	-6.64295	1.10488	6.93884	-0.178812	-0.0099979	-0.000502112	0.365479	0.0947266	-0.977051	-0.536932	0.468649	0.311825	0.628361	8.98457	-1.00451	3.63003	0.121968	0.0367253	0.0228143	-0.839355	0.48877	-0.221191	0.945911	-0.125765	0.299054	0.00144865	-6.92874	-2.79014	9.7055	-0.0466834	-0.0402368	0.0731689	0.960693	0.154541	-0.361572	-0.532629	0.508725	0.564685	0.372339	9.4936	-1.10219	-1.45158	0.0523799	-0.0036105	-0.0508702	-0.860107	0.479004	0.0683594	0.850752	-0.138551	-0.346254	-0.370316	7.29439	0.00591072	8.13156	0.0128222	0.0849727	0.0343561	-0.517334	0.229248	-0.880127	-0.183979	0.166386	-0.964975	-0.0853896	-3.51756	1.65348	-8.35423	-0.0255674	0.051292	-0.0565352	0.0134277	-0.270508	1.06494	-0.538191	0.514163	0.456828	0.48713	9.80271	-1.09401	0.542266	0.0957307	0.0547112	-0.0169088	-0.907959	0.484375	-0.0437012	0.418574	-0.617046	-0.447761	-0.493518	9.57874	-0.381454	-1.55711	-0.00773446	-0.0223316	-0.013928	-0.965332	0.494629	0.258301	
43	-0.572757	0.406947	0.368492	0.608734	9.75989	-0.340762	4.09356	0.0491195	-0.0568564	-0.0226074	-0.788818	0.419922	-0.320557	0.580986	-0.42879	-0.404149	-0.561479	9.6639	-0.247743	3.23511	0.0550792	0.0268659	-0.034143	-0.716553	0.331543	-0.240234	0.668552	-0.343161	-0.390915	-0.531474	9.17657	-0.520083	4.43949	0.142069	-0.0131013	0.0171059	-0.842529	0.344482	-0.518066	0.135707	0.370315	-0.000190989	-0.91894	-6.81114	0.99637	6.92098	-0.0287237	0.0467785	0.0485678	0.365234	0.101562	-0.981445	-0.538553	0.468072	0.312363	0.627135	9.26183	-0.933031	3.50583	0.0570876	-0.00594589	0.0377738	-0.839355	0.486572	-0.228027	0.945899	-0.12694	0.298573	0.0038306	-6.92831	-2.97423	9.90808	-0.0678936	-0.0047985	0.0456994	0.960938	0.152344	-0.359375	-0.533182	0.507551	0.565652	0.371681	10.0006	-1.44346	-1.66989	0.067772	0.00147118	-0.0343241	-0.860107	0.474609	0.0664062	0.851312	-0.137902	-0.346272	-0.369253	7.49194	0.369356	7.7247	0.0189796	0.0181155	0.02104	-0.51709	0.2229	-0.877686	-0.18341	0.167195	-0.964877	-0.08613	-3.90066	1.41827	-8.41498	-0.0183764	0.0163546	-0.0496005	0.0158691	-0.270508	1.06934	-0.539119	0.511788	0.458307	0.487215	10.1267	-0.887279	0.323524	0.105701	0.046929	-0.0696014	-0.9104	0.486572	-0.0461426	0.418396	-0.616778	-0.448603	-0.493239	9.95214	-0.204856	-1.54698	-0.180038	0.0151943	-0.00569541	-0.969727	0.492432	0.262695	
44	-0.573819	0.404627	0.370357	0.608149	9.29667	0.0545579	4.08224	0.0706952	0.0243903	0.00627455	-0.791016	0.419922	-0.32251	0.581751	-0.428171	-0.404453	-0.56094	9.39535	-0.329521	3.11964	0.017323	0.000361863	0.00124165	-0.716309	0.329346	-0.242432	0.669364	-0.340327	-0.396823	-0.527884	9.09429	-0.224311	4.93651	0.268249	-0.152959	-0.0138014	-0.855469	0.335938	-0.513184	0.137017	0.371795	-0.00258195	-0.918144	-6.75395	0.828306	7.09026	0.0977173	0.0593781	0.0953259	0.372314	0.0905762	-0.979004	-0.538597	0.468176	0.313711	0.626346	9.35279	-0.920794	3.61455	0.0397042	-0.0429208	-0.0420401	-0.837158	0.486572	-0.230469	0.945701	-0.128484	0.298536	0.0041239	-6.95174	-2.79998	9.84755	-0.0597104	0.0159908	-0.0434224	0.960693	0.156738	-0.353027	-0.533703	0.507578	0.564715	0.37232	9.45812	-0.979455	-1.30407	-0.0498742	0.0726489	-0.000763216	-0.860352	0.481201	0.0576172	0.851212	-0.13813	-0.346885	-0.368822	7.29274	0.557298	7.84633	-0.000274432	-0.0417628	-0.00990776	-0.521484	0.227051	-0.873047	-0.18378	0.167244	-0.964868	-0.0853425	-3.66609	1.70204	-8.11263	0.0310513	-0.000540539	-0.0304924	0.0270996	-0.265869	1.06934	-0.539082	0.511071	0.458837	0.487509	9.72997	-0.95073	0.538251	-0.00499771	0.00698583	-0.00470029	-0.907959	0.486572	-0.0507812	0.417517	-0.617003	-0.448115	-0.494145	9.64448	-1.09403	-1.78021	-0.0181538	0.0197827	-0.0284196	-0.971924	0.490234	0.267334	
45	-0.574026	0.404389	0.370414	0.608077	9.13989	0.0350951	4.08259	-0.00945353	0.000204118	-0.00723637	-0.788818	0.419922	-0.324707	0.581074	-0.428851	-0.40542	-0.560423	9.14886	-0.284054	2.87391	-0.0133706	-0.0545265	-0.0397022	-0.716553	0.331543	-0.233154	0.668921	-0.340939	-0.397911	-0.527231	8.78864	-0.0266859	5.10954	-0.0917633	-0.00611394	0.00062091	-0.853271	0.335938	-0.52002	0.137793	0.372199	-0.00347163	-0.917861	-6.66203	0.942216	6.95177	-0.00442637	0.00348838	0.0175446	0.36792	0.0905762	-0.979004	-0.537632	0.468154	0.313634	0.62723	8.91623	-1.02264	3.54649	-0.0404797	0.0400202	-0.0484465	-0.841309	0.482178	-0.22583	0.946043	-0.128123	0.297618	0.00315221	-6.72653	-2.78141	9.69268	0.0590525	-0.0300812	-0.0452068	0.960938	0.152344	-0.359375	-0.533648	0.507951	0.563593	0.373589	9.15796	-1.08852	-1.79089	-0.0287879	0.034026	-0.0166278	-0.858154	0.479004	0.0576172	0.850779	-0.139337	-0.346779	-0.369465	7.33178	0.134302	7.84585	-0.0468238	0.0231685	-0.0286771	-0.517334	0.227295	-0.882568	-0.183961	0.166972	-0.964898	-0.0851472	-3.46859	1.75141	-8.21048	0.0286868	-0.00363613	-0.0103143	0.0180664	-0.270508	1.06958	-0.538641	0.511609	0.458465	0.487782	9.57538	-1.07961	0.720085	-0.0350489	-0.0055486	-0.00176824	-0.910156	0.482178	-0.0461426	0.417621	-0.616764	-0.4482	-0.494279	9.55162	-0.725082	-1.77822	-0.0168161	0.0155174	-0.00738264	-0.965332	0.492432	0.265137	
46	-0.57273	0.405381	0.36996	0.608914	9.14648	-0.120749	4.09746	-0.0802732	-0.0440147	-0.0383884	-0.793213	0.419922	-0.320557	0.580145	-0.429717	-0.406072	-0.56025	9.26936	-0.242195	2.826	-0.0443005	-0.090362	-0.0468723	-0.716553	0.331543	-0.237793	0.667151	-0.344107	-0.393454	-0.530748	9.04992	-0.293338	4.44666	-0.275283	0.0728842	-0.025339	-0.855469	0.340332	-0.513428	0.137588	0.371828	-0.00265855	-0.918045	-6.70742	0.996103	6.87578	-0.0565479	-0.0168248	-0.0395364	0.369873	0.097168	-0.981445	-0.537842	0.467169	0.313735	0.627733	9.07477	-1.03259	3.25283	0.0332477	0.0315434	-0.0295652	-0.841553	0.486572	-0.232666	0.946208	-0.127861	0.297211	0.00273931	-6.82362	-2.80936	9.61981	0.0344643	-0.0159546	-0.0444184	0.963135	0.150146	-0.36377	-0.533382	0.508693	0.5624	0.374753	9.63165	-1.27807	-1.37947	-0.037296	0.065853	-0.00807385	-0.860352	0.481201	0.0639648	0.850693	-0.139179	-0.346521	-0.369964	7.25326	0.274255	7.79294	0.018379	0.0314423	-0.0352999	-0.517334	0.227295	-0.882568	-0.183892	0.166001	-0.965075	-0.0851873	-3.62414	1.63485	-8.19691	0.00299252	0.0021374	0.0107982	0.0202637	-0.265869	1.06714	-0.538314	0.511878	0.45841	0.487913	9.72298	-1.12096	0.665575	-0.0304671	-0.00250706	-0.00255931	-0.912842	0.490967	-0.048584	0.41842	-0.616347	-0.448224	-0.494101	9.6548	-0.969548	-1.95909	0.0631959	0.0441153	0.014911	-0.97168	0.483643	0.260742	
47	-0.570393	0.407425	0.370421	0.609462	9.58453	-0.219904	4.04367	-0.074449	-0.0900654	-0.0479315	-0.79541	0.417725	-0.311768	0.578309	-0.431613	-0.405994	-0.560748	9.64417	-0.398461	3.08872	-0.0863462	-0.0169935	-0.0444394	-0.71875	0.331543	-0.233154	0.665793	-0.344732	-0.393058	-0.532339	9.13696	-0.637959	4.39873	0.0260356	-0.0235529	-0.0706761	-0.851318	0.344482	-0.51123	0.135233	0.372171	-0.00358696	-0.918253	-6.7629	1.24764	6.9862	0.137556	0.0269439	-0.0747432	0.369873	0.0949707	-0.981445	-0.536979	0.467716	0.313735	0.628065	9.21855	-0.801623	3.49766	-0.0747054	-0.0200622	-0.0366752	-0.841553	0.484375	-0.228027	0.946072	-0.128113	0.297542	0.00170053	-6.87382	-3.20498	9.69814	0.0206103	0.0506935	-0.059905	0.958496	0.154541	-0.359375	-0.533507	0.508889	0.561144	0.376192	9.64769	-1.11837	-1.33848	-0.0212061	0.0524718	-0.0177833	-0.860107	0.476807	0.0620117	0.850395	-0.139698	-0.346448	-0.370522	7.54276	0.227327	7.74075	-0.0329081	0.000264075	-0.0281829	-0.521484	0.225098	-0.882568	-0.184096	0.165423	-0.965126	-0.0852951	-3.73499	1.69531	-8.2731	0.0120642	-0.00142458	-0.0137685	0.0178223	-0.263672	1.06714	-0.537956	0.512443	0.458117	0.48799	9.80305	-0.939085	0.693836	-0.0216509	0.0111256	0.0131199	-0.905762	0.486572	-0.0461426	0.422367	-0.614028	-0.449767	-0.492224	9.70721	-1.04798	-1.62861	0.245867	0.0579223	0.0326937	-0.965332	0.492432	0.251465	
48	-0.56958	0.408037	0.370605	0.609701	9.79061	-0.249602	4.07761	-0.0519256	-0.0578793	-0.0395983	-0.791016	0.419922	-0.311768	0.577502	-0.432186	-0.404524	-0.562198	9.51896	-0.379321	3.05707	-0.0982968	0.0587039	-0.03293	-0.723145	0.33374	-0.226074	0.665451	-0.344016	-0.39447	-0.532185	9.16444	-0.460153	4.51121	0.096345	-0.0563888	-0.0690994	-0.853271	0.344727	-0.513428	0.134319	0.372634	-0.00402293	-0.918197	-6.75694	1.36115	7.04465	0.0661841	0.0375022	-0.0522926	0.374512	0.0949707	-0.983643	-0.535494	0.469006	0.313117	0.628679	9.17784	-0.826512	3.73649	-0.157984	-0.0450361	-0.057284	-0.84375	0.48877	-0.22583	0.945819	-0.127483	0.298622	-0.000383633	-6.94843	-2.89983	9.76908	0.0435854	0.0708893	-0.0876636	0.958496	0.156738	-0.36377	-0.533329	0.509092	0.561046	0.376315	9.61848	-1.27377	-1.44356	-0.009125	0.00679164	-0.0152195	-0.862305	0.479004	0.0576172	0.850361	-0.139732	-0.346546	-0.370497	7.50983	0.051223	7.89077	0.00480134	0.00808822	-0.01445	-0.517334	0.227295	-0.882568	-0.184331	0.165452	-0.965065	-0.0854277	-3.77069	1.74544	-8.35976	-0.00107808	-0.0126229	-0.0307953	0.0202637	-0.265869	1.06934	-0.538069	0.51342	0.45737	0.487539	10.0691	-0.885293	0.599417	-0.0227893	-0.00267634	0.0425456	-0.906006	0.490967	-0.0507812	0.42236	-0.614072	-0.449364	-0.492543	9.84756	-0.26989	-1.39007	-0.0135357	0.0176269	0.00224688	-0.960938	0.494873	0.251465	
49	-0.568558	0.408655	0.371226	0.609864	9.40038	-0.110812	3.96984	-0.00817029	-0.0361384	-0.0113577	-0.797607	0.41748	-0.311768	0.576287	-0.433642	-0.404156	-0.562589	9.61376	-0.468549	3.19658	-0.072069	-0.0246031	-0.019308	-0.71875	0.335938	-0.228516	0.663883	-0.345213	-0.396435	-0.531908	9.27624	-0.486009	4.78424	-0.0328714	-0.0607712	-0.0119776	-0.861816	0.336182	-0.506348	0.132553	0.373867	-0.00715162	-0.917934	-6.72349	0.977555	7.29373	0.114364	0.0126503	0.019293	0.376953	0.0883789	-0.976807	-0.53158	0.471443	0.312563	0.630451	9.26337	-1.36678	3.8989	-0.00599772	-0.0155967	-0.0783727	-0.852051	0.47998	-0.218994	0.945723	-0.127315	0.298982	-0.00281119	-7.21839	-2.67311	9.91467	0.0307067	0.0294576	-0.108648	0.953613	0.169678	-0.353516	-0.533254	0.509187	0.56079	0.376673	9.78244	-1.17658	-1.46152	-0.0202532	0.0489892	-0.0176712	-0.862549	0.481201	0.0620117	0.850272	-0.138639	-0.347427	-0.370286	7.60631	0.396402	7.9261	0.0666442	0.00299284	-0.0301368	-0.519287	0.2229	-0.877686	-0.18504	0.16522	-0.964922	-0.0859507	-3.53094	1.76752	-8.28291	-0.0322682	-0.00251554	-0.00791546	0.0200195	-0.259033	1.06494	-0.538016	0.513017	0.457517	0.487884	9.78821	-1.13337	0.677705	0.010966	0.0352011	-0.0131341	-0.908203	0.48877	-0.0461426	0.422609	-0.613955	-0.449392	-0.492451	9.71988	-0.909917	-1.67391	0.0435063	0.0160916	-0.00876625	-0.969727	0.494629	0.253662	
50	-0.568256	0.408955	0.371335	0.609878	9.36127	-0.110594	3.93413	-0.0184251	-0.0316257	-0.0114271	-0.79541	0.419922	-0.316162	0.57486	-0.435274	-0.404493	-0.562546	9.35401	-0.393207	2.84393	-0.0490341	-0.0717481	-0.0377461	-0.7229	0.331543	-0.226074	0.663668	-0.345621	-0.396261	-0.532041	9.09199	-0.475385	4.75931	-0.0366667	-0.00765441	0.000831908	-0.853271	0.338135	-0.50415	0.132721	0.373834	-0.00857802	-0.917911	-6.6473	1.15308	7.22008	0.00873047	-0.0076119	0.024468	0.379395	0.0839844	-0.976807	-0.531592	0.470764	0.313171	0.630646	9.07569	-1.24556	3.85607	0.0547264	0.0235684	-0.058847	-0.845703	0.484375	-0.212158	0.945983	-0.127273	0.298155	-0.00452846	-7.10887	-2.71303	9.73402	0.0247371	-0.0252528	-0.0627444	0.962402	0.16748	-0.355469	-0.532552	0.509595	0.560653	0.377319	9.3776	-0.968936	-1.4621	-0.0156224	-0.0289015	-0.0334682	-0.859863	0.472412	0.064209	0.850195	-0.138663	-0.347107	-0.370753	7.31776	0.394883	7.98441	-0.0327982	0.0198693	-0.0286924	-0.519287	0.224854	-0.875488	-0.184978	0.164954	-0.964964	-0.0861207	-3.47891	1.61452	-8.30699	-0.00339329	0.00930938	-0.00373482	0.0200195	-0.26123	1.07373	-0.538419	0.512811	0.457027	0.488115	9.75275	-1.12345	0.553685	-0.00102053	0.0654194	0.0215767	-0.906006	0.493164	-0.048584	0.422729	-0.613664	-0.449928	-0.492221	9.65173	-0.905651	-1.73729	0.00397973	-0.00467051	-0.0270524	-0.971924	0.492432	0.251465	
51	-0.567374	0.409546	0.371819	0.610008	9.45041	-0.240447	3.9037	-0.0116281	-0.0492915	-0.0310248	-0.802002	0.41748	-0.309814	0.574104	-0.435538	-0.405697	-0.562247	9.61092	-0.346362	2.96399	0.0181441	-0.00377247	-0.0442687	-0.727295	0.331543	-0.223633	0.664083	-0.345605	-0.394351	-0.532952	9.14656	-0.266745	4.37654	-0.0498436	0.0849941	0.0111163	-0.859619	0.340332	-0.50415	0.133274	0.373139	-0.00630842	-0.918132	-6.77821	1.22469	7.0722	-0.105229	-0.000656336	-0.0236542	0.370361	0.0883789	-0.979004	-0.532451	0.469387	0.313346	0.630861	9.04299	-1.07146	3.5536	0.0315689	0.0559678	-0.0026113	-0.8479	0.47998	-0.221191	0.946287	-0.127677	0.297028	-0.00368845	-7.02484	-3.00339	9.73113	-0.0346519	-0.0281541	0.0235779	0.958252	0.163086	-0.359863	-0.531856	0.510127	0.560201	0.378251	9.63542	-1.27084	-1.40419	-0.042583	0.0311231	-0.0280026	-0.864258	0.474609	0.0578613	0.850536	-0.138515	-0.34634	-0.370743	7.42815	0.120144	7.90455	0.0367273	0.0624083	-0.00639366	-0.523926	0.229248	-0.882568	-0.184515	0.164563	-0.965063	-0.0867577	-3.63019	1.77317	-8.21244	-0.032528	0.0229132	-0.00462152	0.0153809	-0.26123	1.06494	-0.53855	0.513066	0.45664	0.488065	9.89293	-1.06235	0.732525	0.00620004	-0.00168712	-0.00380994	-0.912842	0.490967	-0.048584	0.423529	-0.613272	-0.45041	-0.491581	9.7516	-0.574108	-1.61248	0.0324915	0.00481455	0.00778952	-0.967773	0.499023	0.253662	
52	-0.566851	0.409208	0.37331	0.60981	9.6683	-0.167673	3.92454	0.0559149	-0.0301268	-0.0368504	-0.799561	0.413086	-0.307617	0.575291	-0.433826	-0.405424	-0.562554	9.58751	-0.331624	2.95892	0.0400048	0.108092	-0.0125363	-0.720947	0.33374	-0.226074	0.664445	-0.344559	-0.394453	-0.533103	9.19653	-0.451824	4.41507	0.079546	0.00676949	-0.0258175	-0.853271	0.338135	-0.508789	0.133562	0.373835	-0.00498436	-0.917815	-6.75733	1.20175	6.97488	-0.0309782	0.0549996	0.00101887	0.372559	0.0883789	-0.976807	-0.533251	0.469327	0.312942	0.630431	9.15654	-1.05565	3.53605	0.0130749	0.0104598	0.0308235	-0.845947	0.486572	-0.22583	0.946249	-0.127532	0.297226	-0.00228515	-6.91894	-2.95233	9.76614	0.000777765	0.0262909	0.0417693	0.956299	0.160889	-0.359619	-0.532579	0.509199	0.559694	0.379233	9.71137	-1.21884	-1.35175	0.0445661	0.0772535	-0.0390664	-0.860352	0.481201	0.0576172	0.850925	-0.137461	-0.345977	-0.370583	7.32999	0.396809	7.8552	0.0312973	0.0448982	-0.0147854	-0.51709	0.2229	-0.880127	-0.184387	0.164423	-0.965046	-0.0874835	-3.79497	1.66457	-8.17549	-0.0181741	0.0034638	-0.0226685	0.0180664	-0.272705	1.06274	-0.538695	0.51277	0.456782	0.488082	9.84996	-0.892342	0.657735	0.00964642	0.0101924	0.000809527	-0.912842	0.493164	-0.0463867	0.425041	-0.612064	-0.452281	-0.49006	9.75448	-0.406325	-1.48258	0.107352	-0.0178048	-0.0312567	-0.972168	0.499023	0.249023	
53	-0.567537	0.407979	0.374781	0.609093	9.4528	0.0523973	3.88636	0.0887465	-0.0127749	-0.0011329	-0.793213	0.415527	-0.307373	0.576327	-0.432963	-0.404796	-0.562611	9.57502	-0.371428	3.0573	0.00954242	0.0564197	0.000991759	-0.720947	0.331543	-0.228516	0.664914	-0.34268	-0.397248	-0.531651	9.2049	-0.394799	4.62139	0.140142	-0.0451769	-0.0201565	-0.855225	0.331543	-0.50415	0.134057	0.374904	-0.00523076	-0.917305	-6.73427	1.03111	7.12944	0.017433	0.0464157	0.0333995	0.372559	0.0883789	-0.979004	-0.534144	0.469216	0.313104	0.629676	9.25152	-0.952537	3.61235	0.0336585	0.00353513	0.0153669	-0.845703	0.482178	-0.22583	0.946025	-0.128004	0.297741	-0.00114065	-6.93878	-2.88908	9.82393	-0.0394365	0.0296534	0.0176508	0.956299	0.158936	-0.357422	-0.533172	0.508602	0.558989	0.380241	9.67981	-1.14102	-1.33675	-0.0232851	0.0822936	-0.0302563	-0.862061	0.472412	0.0578613	0.850996	-0.136774	-0.346421	-0.370259	7.40986	0.232877	7.82056	0.0530677	0.0070523	-0.0163563	-0.517334	0.227295	-0.880127	-0.184877	0.164628	-0.964886	-0.087823	-3.6952	1.79588	-8.19839	-0.00741414	-0.0176763	-0.0375756	0.0227051	-0.272705	1.06738	-0.538821	0.513008	0.456692	0.487779	9.84789	-1.00639	0.637087	0.000746779	0.0159597	0.0322904	-0.907959	0.486572	-0.0415039	0.423674	-0.612899	-0.45189	-0.490562	9.71009	-0.893466	-1.64081	-0.0426105	-0.0160579	-0.0157137	-0.963135	0.49707	0.253662	
54	-0.568357	0.407481	0.375687	0.608103	9.50575	0.135689	3.88738	0.048165	-0.0107149	0.0228784	-0.797363	0.41333	-0.30957	0.576773	-0.432608	-0.404977	-0.562296	9.39566	-0.360723	2.98231	0.0180499	0.00790514	-0.0139026	-0.712158	0.329346	-0.228271	0.66549	-0.342054	-0.397567	-0.531095	9.16106	-0.396335	4.84434	0.0176476	0.0313907	0.0226559	-0.848877	0.33374	-0.508545	0.134834	0.374864	-0.00529554	-0.917207	-6.74774	1.07675	7.10851	-0.0302152	-0.00761609	0.0243117	0.374512	0.0905762	-0.979004	-0.534427	0.469061	0.312601	0.629801	9.18244	-0.989278	3.69655	-0.0168387	0.0378651	-0.00307158	-0.836914	0.482178	-0.221191	0.946072	-0.1281	0.297551	-0.00071364	-6.94845	-2.88226	9.73927	0.0155623	-0.00554911	-0.00117732	0.958496	0.156738	-0.359619	-0.533196	0.508115	0.559276	0.380437	9.4755	-1.09406	-1.31961	0.0618445	-0.00188306	-0.0422284	-0.862061	0.470459	0.0537109	0.851014	-0.135747	-0.346771	-0.370267	7.395	0.420253	8.00728	0.038801	0.0240929	-0.0352421	-0.514648	0.218506	-0.877686	-0.185311	0.164526	-0.964774	-0.0883311	-3.57688	1.75728	-8.23254	-0.0143164	-0.00834009	-0.0157985	0.0251465	-0.270264	1.06274	-0.538911	0.513707	0.456181	0.48742	9.74949	-1.04816	0.584294	-0.0139773	0.000608134	0.0299671	-0.90625	0.495361	-0.0441895	0.424339	-0.612242	-0.453435	-0.48938	9.62569	-0.541509	-1.55668	0.0610843	-0.0237454	-0.0213774	-0.969971	0.496826	0.253662	
55	-0.568918	0.407348	0.375246	0.60794	9.50002	-0.0233592	3.91973	-0.00482541	0.019794	0.0164204	-0.797607	0.415527	-0.311768	0.576922	-0.43251	-0.405351	-0.561949	9.48549	-0.339638	3.05166	0.0301583	-0.00548346	-0.0126321	-0.71875	0.33374	-0.226074	0.666538	-0.341675	-0.396358	-0.53093	9.1524	-0.267984	4.64481	-0.00114103	0.0618413	0.0348923	-0.851074	0.338135	-0.510986	0.135264	0.374285	-0.00454026	-0.917384	-6.73351	1.01823	7.06605	-0.0727408	-0.0326553	0.00862124	0.374512	0.0905762	-0.976807	-0.535081	0.468184	0.312165	0.630115	9.08105	-1.15014	3.59157	0.0160083	0.0492778	0.000981182	-0.84375	0.484375	-0.230469	0.946214	-0.127851	0.297209	-0.000476188	-6.93683	-2.77588	9.76653	0.0178504	-0.0169956	0.00492515	0.954102	0.160889	-0.361816	-0.532932	0.507601	0.559811	0.380705	9.75094	-1.02039	-1.35416	-0.0109192	0.0169526	-0.0452175	-0.864258	0.470459	0.0559082	0.850977	-0.135414	-0.346721	-0.370522	7.4453	0.196381	7.91583	0.017083	0.0306343	-0.0260189	-0.519043	0.216309	-0.882324	-0.185528	0.164121	-0.964763	-0.0887468	-3.52951	1.81955	-8.26025	0.00275562	-0.00276672	-0.00865181	0.0229492	-0.274902	1.07178	-0.538834	0.514344	0.455557	0.487417	9.72506	-1.14023	0.625145	-0.0256935	0.0106591	0.0293707	-0.906006	0.493164	-0.0463867	0.421283	-0.614304	-0.451979	-0.49078	9.70391	-0.90503	-1.62451	-0.162455	-0.0326343	-0.0135164	-0.971924	0.492432	0.255859	
56	-0.569099	0.407284	0.374897	0.608028	9.55168	-0.0868663	3.95213	-0.0106189	0.0236724	0.0126454	-0.792969	0.415527	-0.318359	0.577713	-0.431378	-0.406312	-0.561313	9.57984	-0.295775	3.08747	0.080019	0.0257673	-0.0238564	-0.716553	0.331543	-0.230713	0.666929	-0.34164	-0.395673	-0.530971	9.1587	-0.207298	4.57638	-0.014839	0.0548987	0.0307908	-0.848877	0.338135	-0.510986	0.135838	0.373175	-0.00335419	-0.917757	-6.78804	1.02042	7.01509	-0.0428492	-0.0266989	0.00115783	0.370117	0.0905762	-0.976807	-0.535661	0.467728	0.312251	0.629919	9.15317	-1.02528	3.57538	0.0494461	0.0337415	0.0110746	-0.845703	0.484375	-0.228027	0.946228	-0.128195	0.297017	0.000529895	-6.98401	-2.86894	9.77026	-0.0349253	0.00993113	0.0206961	0.958496	0.156738	-0.361816	-0.533061	0.507324	0.559869	0.380808	9.7103	-1.1935	-1.37177	0.0288592	0.0274782	-0.0326641	-0.868652	0.472412	0.0515137	0.851013	-0.135142	-0.346513	-0.370733	7.46717	0.250782	7.89725	0.0107813	0.0426576	-0.0335272	-0.52124	0.218506	-0.884766	-0.185474	0.16386	-0.964763	-0.0893349	-3.69876	1.83969	-8.35014	-0.034877	0.0029302	0.000590053	0.0205078	-0.272705	1.06494	-0.538777	0.514359	0.45548	0.487536	10.0098	-1.10244	0.603979	-0.00914264	0.0176208	-0.00046714	-0.903809	0.490967	-0.0393066	0.421442	-0.614074	-0.452518	-0.490436	9.83448	-0.382503	-1.73912	0.0512229	-0.0124762	-0.0225457	-0.967529	0.492432	0.258301	
57	-0.569707	0.406308	0.374469	0.608375	9.50579	-0.0904457	4.00531	0.0263022	0.0537876	-0.00416001	-0.799561	0.411133	-0.311768	0.577876	-0.431169	-0.40629	-0.56132	9.5375	-0.29777	3.0277	0.00650287	0.0305121	-0.0183286	-0.718506	0.329346	-0.233154	0.667583	-0.341176	-0.395463	-0.530604	9.15654	-0.343837	4.768	0.0475422	0.0158331	0.0137312	-0.853271	0.33374	-0.517822	0.136017	0.372732	-0.00300332	-0.917912	-6.85012	1.02957	6.98227	-0.00864079	-0.00959507	-0.00255914	0.372314	0.0927734	-0.981445	-0.536073	0.468122	0.311199	0.629796	9.08463	-0.964718	3.66356	-0.0538238	0.0230772	0.0288669	-0.84375	0.484375	-0.234863	0.94602	-0.128413	0.297581	0.0012018	-6.85393	-2.9758	9.85809	-0.00198501	0.0405978	0.00922464	0.958496	0.158936	-0.357422	-0.531956	0.507283	0.561933	0.379364	9.61248	-1.22626	-1.19942	0.0441764	-0.141954	-0.039875	-0.862305	0.474609	0.0578613	0.850996	-0.133628	-0.346551	-0.371285	7.40884	0.439467	7.91936	0.0460855	0.0314151	-0.0631814	-0.516602	0.209717	-0.884521	-0.185632	0.163492	-0.964696	-0.0904026	-3.72634	1.76282	-8.22425	-0.0341182	-0.0108805	0.00676404	0.0180664	-0.270508	1.07178	-0.538935	0.514775	0.454333	0.487993	9.73908	-0.999544	0.560531	-0.0500238	0.028919	0.0416882	-0.908447	0.493164	-0.0439453	0.417749	-0.616548	-0.450402	-0.492435	9.65353	-1.06275	-1.85447	-0.156979	-0.0190857	-0.0238883	-0.969727	0.492432	0.258301	
58	-0.570937	0.405391	0.373689	0.608314	9.35105	-0.0103594	4.05493	0.0180348	0.0441477	0.0385305	-0.790771	0.415527	-0.324707	0.578312	-0.431709	-0.405687	-0.560892	9.51319	-0.396873	3.01239	-0.0235204	-0.0114195	0.0203872	-0.720947	0.335938	-0.235596	0.668445	-0.340025	-0.395792	-0.530013	8.99304	-0.279476	4.69418	0.0522453	0.0206645	0.00711547	-0.853271	0.338135	-0.522461	0.135624	0.372186	-0.00276517	-0.918192	-6.69925	0.988939	7.09367	-0.00123412	-0.013062	-0.0173781	0.365479	0.0969238	-0.974854	-0.536161	0.46847	0.30997	0.630068	9.24402	-1.16337	3.63074	-0.0327971	0.0328815	0.0104912	-0.835205	0.48877	-0.230469	0.945946	-0.127548	0.298188	0.00129249	-7.03301	-2.83027	9.74756	0.0220756	0.0353003	-0.00225452	0.958496	0.158936	-0.359619	-0.532023	0.507027	0.562835	0.378274	9.6134	-1.00946	-1.46472	0.049911	0.0453741	-0.0274865	-0.87085	0.474609	0.0578613	0.85084	-0.132854	-0.346707	-0.371774	7.32779	0.241281	7.85342	0.0192282	0.0267447	-0.0341787	-0.516846	0.218506	-0.886963	-0.185934	0.16295	-0.964644	-0.0913158	-3.58288	1.55248	-8.31928	0.00149969	-0.0115001	-0.00793035	0.0185547	-0.279541	1.06299	-0.538708	0.515421	0.45348	0.488356	9.83963	-1.18803	0.577429	-0.0246938	0.0390621	0.00929583	-0.904053	0.495361	-0.0439453	0.415513	-0.617536	-0.450488	-0.49301	9.58	-0.891873	-1.49987	-0.0589597	-0.0467072	-0.0401807	-0.967285	0.48584	0.271973	
59	-0.571878	0.405269	0.372544	0.608214	9.4118	-0.0731178	4.11106	-0.0209218	0.0398532	0.0386378	-0.793213	0.417725	-0.318359	0.578037	-0.432321	-0.405759	-0.560653	9.4344	-0.345634	2.96566	-0.015744	-0.00779542	-0.0248351	-0.716553	0.331543	-0.228516	0.668362	-0.34041	-0.394672	-0.530704	9.06228	-0.311469	4.71146	-0.0708404	0.0380276	-0.00305819	-0.848877	0.338135	-0.517822	0.135292	0.371975	-0.00255926	-0.918327	-6.64693	1.05721	7.10214	-0.00280473	-0.0051703	-0.0152798	0.365479	0.0947266	-0.977051	-0.536844	0.468083	0.309592	0.62996	9.18969	-1.10887	3.62368	0.0247862	0.0307569	0.0105065	-0.846191	0.490967	-0.228027	0.945871	-0.126995	0.298662	0.00148602	-6.98177	-2.82873	9.71192	0.00713432	0.0306139	0.00392245	0.954102	0.156738	-0.357422	-0.531201	0.507578	0.562887	0.378613	9.60546	-0.992966	-1.511	-0.0549366	-0.04218	-0.0150221	-0.864258	0.470459	0.0622559	0.850595	-0.132748	-0.347012	-0.372086	7.5137	0.429049	7.92298	-0.00112597	0.000469038	-0.0364178	-0.514404	0.211914	-0.886963	-0.18625	0.16278	-0.964559	-0.0918728	-3.60993	1.81532	-8.35613	-0.028494	-0.00669502	-0.0173225	0.0231934	-0.279541	1.06958	-0.539059	0.515007	0.453086	0.48877	9.85036	-1.16769	0.554117	0.0162867	0.0505634	0.00231357	-0.908447	0.493164	-0.0463867	0.414486	-0.617953	-0.45072	-0.49314	9.77187	-0.515323	-1.86619	-0.0572923	-0.0462269	-0.0472213	-0.971924	0.488037	0.269775	
60	-0.572053	0.405547	0.371026	0.608791	9.21182	-0.243709	4.03436	-0.0540475	0.0259917	0.00982329	-0.784424	0.419922	-0.32251	0.577773	-0.432387	-0.405735	-0.560891	9.46101	-0.415763	3.02962	-0.023695	0.0267355	-0.0270453	-0.714111	0.329346	-0.233154	0.667975	-0.341358	-0.393567	-0.531403	9.01864	-0.476211	4.59466	-0.049812	0.014707	0.00735681	-0.849121	0.340332	-0.515625	0.134914	0.371582	-0.00214291	-0.918543	-6.67269	0.987448	7.03928	0.0179382	-0.00906831	-0.0294222	0.365723	0.0925293	-0.977051	-0.536811	0.468256	0.309081	0.630111	9.09593	-0.982407	3.66245	-0.0351695	0.0187196	-0.0113884	-0.837402	0.48877	-0.230469	0.945823	-0.12702	0.298802	0.00155472	-6.91165	-2.88371	9.76323	0.00892598	0.01824	-0.0151302	0.960693	0.158936	-0.357422	-0.530754	0.508009	0.562644	0.379023	9.59524	-1.1621	-1.37299	-0.00456525	0.0066926	-0.0227646	-0.864258	0.470459	0.064209	0.85052	-0.132481	-0.346821	-0.372532	7.31172	0.447931	8.03435	0.0139579	0.027493	-0.0385302	-0.51001	0.209961	-0.886963	-0.186301	0.161936	-0.964653	-0.0922637	-3.51342	1.74283	-8.23106	0.00379228	0.00471927	0.0191414	0.0227051	-0.272705	1.06494	-0.538552	0.51561	0.452633	0.489113	9.65838	-1.23374	0.413903	-0.0510521	0.00149532	0.000904018	-0.899414	0.491211	-0.0439453	0.413922	-0.618206	-0.450834	-0.493191	9.60648	-0.891113	-1.91096	0.143557	0.0102787	-0.0105144	-0.969482	0.488037	0.271973	
61	-0.571778	0.405677	0.370384	0.609354	9.48199	-0.2796	4.07841	-0.017865	0.018665	-0.0104823	-0.788818	0.419922	-0.316162	0.578108	-0.431906	-0.405421	-0.561144	9.37999	-0.299993	2.92071	-0.00203323	0.0345571	-0.0191841	-0.725342	0.33374	-0.233154	0.668264	-0.340811	-0.3935	-0.53144	9.00999	-0.34912	4.6983	0.02591	0.0267495	-0.00606282	-0.851074	0.338135	-0.510986	0.133938	0.371128	-0.00229592	-0.918868	-6.64422	1.02184	6.98788	0.0173329	-0.0180847	-0.0331152	0.365234	0.0993652	-0.979248	-0.536228	0.468458	0.30827	0.630854	8.99534	-1.12519	3.64915	-0.0412302	0.0318037	-0.0245798	-0.839355	0.486572	-0.228027	0.946041	-0.125592	0.298718	0.0010422	-6.88842	-2.62232	9.68202	0.0685424	0.0073811	-0.0171792	0.95874	0.150146	-0.357178	-0.530113	0.50863	0.561994	0.380051	9.44988	-1.00428	-1.41095	-0.0328681	0.00844521	-0.0226618	-0.862061	0.470459	0.0600586	0.850195	-0.133514	-0.346158	-0.37352	7.31908	0.282721	7.867	-0.0805239	0.0269602	-0.0326391	-0.514404	0.211914	-0.882324	-0.186261	0.160587	-0.964929	-0.0918237	-3.77947	1.79732	-8.19453	0.0424806	0.00707143	0.0179315	0.0180664	-0.268066	1.06494	-0.53776	0.516434	0.452431	0.489303	9.91421	-1.05177	0.728153	-0.0369978	-0.0109872	0.0077322	-0.906006	0.493164	-0.0439453	0.413283	-0.618844	-0.450081	-0.493615	9.74311	-0.784677	-1.76319	-0.0986853	0.0169766	0.0142783	-0.967041	0.481445	0.276611	
62	-0.572118	0.405101	0.370196	0.609532	9.34099	-0.106938	4.13151	0.01924	0.0174103	-0.00230264	-0.786621	0.417725	-0.316162	0.577903	-0.432147	-0.405368	-0.561208	9.38761	-0.328382	2.98997	-0.0301993	0.00180877	-0.0215427	-0.71875	0.331543	-0.233154	0.668075	-0.341557	-0.392966	-0.531595	9.08462	-0.357955	4.61034	-0.0497996	-0.0095234	0.0136759	-0.853271	0.338135	-0.517822	0.133722	0.370853	-0.00232664	-0.919011	-6.63088	1.0009	7.0499	0.0078098	-0.0178886	-0.015105	0.370117	0.0927734	-0.983643	-0.53635	0.4681	0.308474	0.630916	9.10639	-1.11281	3.57715	0.0250812	0.00431917	-0.0220061	-0.834961	0.486572	-0.228027	0.946024	-0.125915	0.298634	0.00105826	-6.91374	-2.64117	9.70971	-0.0217074	0.00860816	-0.0227793	0.95874	0.152344	-0.355225	-0.528857	0.510189	0.560851	0.381398	9.62702	-1.27205	-1.35798	-0.109461	0.0153322	0.00224622	-0.868652	0.472412	0.064209	0.849767	-0.133562	-0.346215	-0.374424	7.39519	0.272926	7.82251	-0.0136176	0.00468381	-0.0443237	-0.519043	0.218506	-0.886963	-0.186562	0.159676	-0.964987	-0.0921911	-3.59926	1.74691	-8.2882	-1.91953e-05	-0.00764862	0.00668169	0.0180664	-0.272705	1.06274	-0.537665	0.516789	0.452076	0.489359	9.84725	-1.03648	0.694394	-0.0339215	0.0124095	0.0248515	-0.910889	0.499756	-0.0395508	0.41384	-0.618646	-0.449913	-0.49355	9.71901	-0.991101	-1.89244	0.0328175	0.0387045	0.019707	-0.964844	0.483643	0.274414	
63	-0.572269	0.405009	0.370148	0.609481	9.4123	-0.0234701	4.10949	-0.000923972	0.00206383	0.00281486	-0.788574	0.415527	-0.324707	0.57708	-0.433256	-0.405934	-0.56079	9.54552	-0.432781	3.11352	-0.0271686	-0.0490751	-0.0162453	-0.725342	0.335938	-0.233398	0.667733	-0.342348	-0.393262	-0.531297	9.1335	-0.419509	4.75828	0.00437044	-0.03377	0.00506305	-0.851074	0.340332	-0.515625	0.133215	0.370455	-0.00403055	-0.919239	-6.67026	1.04971	7.09714	0.103097	-0.0199528	0.0104623	0.363281	0.0925293	-0.979248	-0.535722	0.468515	0.308633	0.631064	9.07695	-0.963541	3.68456	-0.0518905	-0.0170057	-0.0278592	-0.839355	0.486572	-0.228027	0.945951	-0.125963	0.298847	-0.000417237	-6.94756	-2.83368	9.68257	0.0535918	0.0317697	-0.0616484	0.960693	0.158936	-0.355225	-0.528921	0.510314	0.560213	0.382078	9.59433	-0.984241	-1.36374	-0.00263197	0.0389116	-0.0202039	-0.866455	0.474609	0.0620117	0.84947	-0.133547	-0.346336	-0.374991	7.40248	0.472937	7.96725	0.0152268	0.00264726	-0.0394779	-0.516846	0.214111	-0.884521	-0.18681	0.158664	-0.965144	-0.0917821	-3.55559	1.8695	-8.21598	0.0325167	0.00188731	0.00874521	0.0275879	-0.274902	1.06738	-0.537036	0.518185	0.450935	0.489627	9.66607	-1.19708	0.671331	-0.045739	0.0156246	0.0423718	-0.90625	0.495361	-0.0395508	0.416443	-0.617397	-0.450717	-0.49219	9.62593	-1.35038	-2.02182	0.153107	0.0187748	0.0150232	-0.967285	0.48584	0.258301	
64	-0.572414	0.404956	0.369684	0.609661	9.44928	-0.0194428	4.15679	-0.0212278	0.0300283	0.0107425	-0.790771	0.41333	-0.32251	0.577062	-0.433612	-0.404827	-0.561334	9.35669	-0.323592	2.87462	-0.0513827	0.0555207	-0.00362273	-0.71875	0.33374	-0.228516	0.667679	-0.342551	-0.39352	-0.531043	9.03448	-0.406505	4.83454	0.00922547	-0.0277072	0.00957163	-0.851074	0.340332	-0.51123	0.132675	0.36992	-0.00565165	-0.919524	-6.6804	1.01749	7.07939	0.0491943	-0.02949	-0.00120923	0.365723	0.0883789	-0.983398	-0.534857	0.469471	0.30794	0.631425	8.99684	-1.06537	3.71209	-0.117834	-0.0188814	-0.0212748	-0.84375	0.486572	-0.223633	0.945926	-0.12571	0.299033	-0.000985897	-6.93773	-2.74041	9.72869	0.0356094	0.0348072	-0.0498168	0.958496	0.158936	-0.357422	-0.528921	0.510314	0.560213	0.382078	9.59433	-0.984241	-1.36374	-0.00263197	0.0389116	-0.0202039	-0.866455	0.474609	0.0620117	0.849297	-0.134051	-0.34606	-0.375455	7.55458	0.343595	7.81413	-0.0530991	0.0206206	-0.0349609	-0.516602	0.211914	-0.882324	-0.186644	0.158312	-0.9652	-0.0921462	-3.5187	1.82618	-8.30628	-0.0174793	0.0151679	0.00603872	0.0229492	-0.2771	1.06738	-0.538455	0.519337	0.449013	0.488613	9.81619	-1.43429	0.790411	-0.0279117	0.0588886	0.223904	-0.899902	0.502197	-0.0441895	0.419066	-0.615537	-0.452643	-0.490523	9.761	-0.415028	-1.84762	0.328799	0.0285412	-0.0088267	-0.967529	0.490234	0.258301	
65	-0.572407	0.405515	0.368611	0.609945	9.2273	-0.18311	4.10612	-0.047339	-0.00500605	0.0166033	-0.793457	0.422119	-0.318359	0.576896	-0.433783	-0.404475	-0.561626	9.59508	-0.402326	3.09858	-0.0178681	0.0308661	-0.0271236	-0.721191	0.338135	-0.23584	0.667548	-0.34337	-0.393111	-0.530982	9.14067	-0.281967	4.63749	-0.0539469	0.0024746	0.010966	-0.853271	0.344727	-0.51123	0.13218	0.369219	-0.00615138	-0.919874	-6.70209	1.0763	7.19065	0.0142324	-0.0232298	-0.00988259	0.365723	0.0883789	-0.983398	-0.533878	0.470757	0.307268	0.631624	9.2355	-1.40033	3.66347	-0.0253173	-0.0239485	-0.00706398	-0.841553	0.486572	-0.221191	0.945672	-0.126282	0.299593	-0.0013202	-7.14266	-2.85926	9.75421	-0.0134454	0.0422903	-0.0273691	0.960693	0.156738	-0.353027	-0.528809	0.510998	0.558204	0.384253	9.75089	-1.08624	-1.33245	-0.029688	0.0617664	-0.0190366	-0.864258	0.474609	0.064209	0.849401	-0.134325	-0.345567	-0.375577	7.32195	0.375127	7.95712	0.0111126	0.023251	-0.00623229	-0.519287	0.220703	-0.884766	-0.186504	0.15745	-0.965429	-0.0915003	-3.58054	1.61612	-8.2387	0.0617384	0.0173222	0.0067405	0.0227051	-0.268066	1.06714	-0.538339	0.520153	0.44861	0.488242	9.64439	-1.15587	0.361502	-0.0234423	-0.0367041	-0.00807644	-0.899902	0.504395	-0.0373535	0.421593	-0.613976	-0.453537	-0.489486	9.54694	-0.768414	-1.91155	0.0183064	0.0360575	0.00599202	-0.967285	0.488037	0.256104	
66	-0.57189	0.406291	0.368455	0.610009	9.53614	-0.302078	4.15778	-0.0186094	-0.0250169	-0.00826574	-0.791016	0.419922	-0.318359	0.577308	-0.43314	-0.403875	-0.562131	9.56943	-0.333164	3.06332	-0.00781022	0.0634637	-0.018789	-0.720947	0.33374	-0.235596	0.666872	-0.344699	-0.392313	-0.531559	9.18559	-0.530807	4.67758	-0.00283307	-0.00968962	0.00821005	-0.853516	0.346924	-0.513672	0.131842	0.369055	-0.00649289	-0.919986	-6.75591	1.09577	7.13292	0.0165499	0.00195684	-0.00538727	0.363525	0.090332	-0.979004	-0.534331	0.471014	0.307714	0.630831	9.21249	-1.04951	3.7716	-0.02119	0.00885475	0.00194548	-0.835205	0.490967	-0.221191	0.945426	-0.126716	0.300183	-0.00129257	-7.06058	-2.85075	9.83075	-0.0153189	0.0358969	-0.00924774	0.960693	0.156738	-0.355225	-0.528448	0.511531	0.557712	0.384754	9.63533	-1.12226	-1.50761	-0.0170804	-0.00616776	-0.0124682	-0.862061	0.470459	0.0600586	0.84934	-0.134932	-0.345334	-0.375711	7.31935	0.398611	7.7492	-0.0241192	0.0137281	-0.013089	-0.516846	0.216309	-0.884766	-0.186598	0.156587	-0.965631	-0.0906585	-3.96046	1.72852	-8.19194	0.0386435	-0.00330994	-0.00417237	0.0273438	-0.268066	1.06958	-0.536836	0.52104	0.449579	0.48806	10.1181	-1.0231	0.631458	-0.0206374	-0.0418367	-0.0338004	-0.899902	0.506592	-0.0373535	0.419979	-0.615248	-0.451567	-0.491095	9.82075	-0.550887	-1.53496	-0.242026	0.0296215	0.0283902	-0.967529	0.494629	0.260498	
67	-0.571953	0.406325	0.368703	0.609777	9.3929	-0.213715	4.1096	0.0164026	-0.0141742	0.00737137	-0.793457	0.422119	-0.322754	0.577772	-0.432779	-0.402878	-0.562647	9.51674	-0.442124	3.08516	-0.0285739	0.0497021	-0.00758471	-0.716553	0.331543	-0.237793	0.667098	-0.34432	-0.392842	-0.53113	9.09717	-0.505675	4.70315	0.0652085	-0.0134894	0.00476557	-0.851074	0.340332	-0.513428	0.131444	0.368955	-0.00718812	-0.920078	-6.65371	1.03119	7.20688	0.0331795	-0.00259105	-0.00315446	0.359375	0.0817871	-0.983398	-0.534225	0.471179	0.307359	0.630971	9.28412	-1.19323	3.66689	-0.0327792	0.0170769	-0.00608008	-0.839844	0.495361	-0.223633	0.945366	-0.126389	0.30051	-0.00141014	-7.0752	-2.88499	9.80831	0.0150523	0.0210719	-0.00651482	0.960693	0.158936	-0.355225	-0.528327	0.511966	0.556889	0.385535	9.63992	-1.06849	-1.40775	-0.056239	0.0459674	-0.0026981	-0.868408	0.468262	0.0664062	0.848588	-0.135829	-0.346391	-0.376114	7.40759	0.344503	7.79022	-0.0178473	-0.0595894	-0.0338396	-0.519287	0.2229	-0.877686	-0.187512	0.156141	-0.965603	-0.0898382	-3.77065	1.81156	-8.14109	0.0503913	-0.0239059	-0.0295076	0.029541	-0.268066	1.06714	-0.536093	0.522047	0.449376	0.487988	9.79573	-1.01587	0.638719	-0.0455415	-0.0100609	0.0298272	-0.897461	0.5	-0.0305176	0.421168	-0.61442	-0.451944	-0.490767	9.67158	-0.81999	-1.58742	0.152119	0.0235065	-0.00961428	-0.967529	0.490234	0.258301	
68	-0.572072	0.406882	0.369025	0.609099	9.34604	-0.124085	4.06329	-0.0046546	-0.0387329	0.023963	-0.784668	0.424316	-0.320557	0.577693	-0.432791	-0.402397	-0.563063	9.41852	-0.415201	2.94094	-0.0226333	0.0252327	-0.0288767	-0.720947	0.331543	-0.235596	0.667234	-0.3439	-0.393365	-0.530844	9.01874	-0.354525	4.74467	0.00138907	0.00527558	-0.00487794	-0.853271	0.338135	-0.506592	0.131106	0.368858	-0.00726961	-0.920164	-6.60063	1.0952	7.07046	0.00410666	0.00129276	-0.0145407	0.361328	0.0905762	-0.988037	-0.534437	0.470674	0.307499	0.631099	9.0993	-1.11865	3.55642	0.0322615	0.0258658	-0.0229241	-0.8396	0.490967	-0.230469	0.945503	-0.125855	0.300302	-0.00154215	-6.964	-2.94174	9.71374	0.0269752	0.00597067	-0.0148015	0.960449	0.160889	-0.355469	-0.527964	0.512334	0.556446	0.38618	9.50024	-0.952264	-1.50419	0.00436634	0.00235751	-0.0335238	-0.862061	0.470459	0.064209	0.848211	-0.136016	-0.347065	-0.376277	7.54691	0.431208	8.06692	-0.00221478	0.00242458	-0.0357048	-0.52124	0.216309	-0.877686	-0.188256	0.155775	-0.965548	-0.0894972	-3.56524	1.89153	-8.30359	0.0219671	-0.0165495	-0.0139089	0.0251465	-0.272705	1.06738	-0.535706	0.522889	0.448685	0.488148	9.70699	-1.25009	0.659913	-0.0316145	0.02968	0.0172119	-0.902344	0.510742	-0.0354004	0.419586	-0.615779	-0.450571	-0.491681	9.59803	-1.31945	-1.39699	-0.175102	-0.0035451	0.0142195	-0.973877	0.483643	0.262939	
69	-0.57142	0.407999	0.368952	0.609008	9.30873	-0.215571	4.00193	-0.0366914	-0.038606	0.00275627	-0.789307	0.426514	-0.318359	0.578364	-0.430882	-0.402294	-0.563911	9.36605	-0.355934	2.94494	0.0459439	0.110018	-0.0584732	-0.718994	0.337891	-0.24292	0.666773	-0.34453	-0.391681	-0.532259	8.93167	-0.301178	4.46084	-0.110957	0.0567777	-0.0129811	-0.849121	0.342529	-0.518066	0.13056	0.36859	-0.00590844	-0.920359	-6.4965	1.26939	7.09257	-0.0705231	0.00359207	-0.0444558	0.361084	0.0949707	-0.983643	-0.534424	0.470268	0.307805	0.631265	9.05596	-1.06105	3.59396	0.000173594	0.00779207	-0.0291567	-0.839355	0.48877	-0.230469	0.945679	-0.125134	0.30005	-0.00156171	-6.9282	-2.81356	9.55767	0.0209226	0.000749233	-0.00406048	0.954346	0.154541	-0.353027	-0.527458	0.512436	0.556349	0.386877	9.48339	-1.0222	-1.42282	-0.0380547	0.0264962	-0.0317366	-0.860107	0.474609	0.0664062	0.847734	-0.136839	-0.347092	-0.377026	7.49178	0.358854	7.83174	-0.0533101	0.00100412	-0.0364029	-0.520996	0.214111	-0.884521	-0.187852	0.155788	-0.965564	-0.0901597	-3.50804	1.82185	-8.27129	-0.0243771	0.0158324	-0.0086005	0.0224609	-0.265869	1.06274	-0.536226	0.524505	0.446751	0.487616	9.75569	-1.44142	0.634257	-0.0586228	0.0234729	0.133717	-0.893311	0.508789	-0.0307617	0.4229	-0.613644	-0.45269	-0.489559	9.65544	-0.282351	-1.57491	0.280384	0.0137533	-0.000225478	-0.960693	0.492432	0.251465	
70	-0.570301	0.408802	0.369667	0.609085	9.39507	-0.387398	3.96602	-0.00124059	-0.059144	-0.0397859	-0.79541	0.419922	-0.316162	0.57932	-0.428655	-0.402387	-0.56456	9.42516	-0.317277	2.97403	0.0242657	0.0946726	-0.0438722	-0.720947	0.335693	-0.245117	0.665999	-0.345465	-0.389615	-0.534133	9.16239	-0.525148	4.28265	-0.0728199	0.044992	-0.0296611	-0.851318	0.344482	-0.51123	0.130575	0.368717	-0.00379412	-0.920317	-6.57791	1.09538	6.9917	-0.0447218	0.0310587	-0.020665	0.361084	0.0949707	-0.988037	-0.534041	0.470401	0.307913	0.631437	9.03629	-1.07135	3.67921	-0.0105528	-0.00314585	-0.0191774	-0.839844	0.495361	-0.22583	0.945766	-0.125192	0.299754	-0.000958783	-6.95959	-2.94701	9.70115	0.00696307	-0.00144857	0.00715636	0.960449	0.163086	-0.361816	-0.528283	0.511337	0.555924	0.387814	9.52489	-1.05701	-1.29103	0.0721405	0.0798412	-0.0469422	-0.864258	0.470459	0.0559082	0.84884	-0.135222	-0.345953	-0.376168	7.61246	0.0877819	8.06431	0.107293	0.115363	0.0217339	-0.516846	0.218506	-0.880127	-0.186972	0.155702	-0.965741	-0.0902353	-3.54444	2.04326	-8.08313	-0.0409176	0.0523583	-0.0198492	0.0180664	-0.272705	1.06738	-0.536413	0.526022	0.445952	0.486507	9.74557	-1.33205	0.645425	-0.0237601	-0.0549288	0.0475768	-0.895752	0.513184	-0.0285645	0.425741	-0.611935	-0.45423	-0.487807	9.56328	-0.226935	-1.78265	0.299951	0.0254438	-0.00490803	-0.969971	0.496826	0.249023	
71	-0.570085	0.408108	0.371539	0.608614	9.81165	-0.190702	4.0812	0.08396	-0.0304993	-0.0283959	-0.79541	0.419922	-0.316162	0.579553	-0.428152	-0.40263	-0.564529	9.46176	-0.29204	3.04381	0.0350364	0.0322467	-0.0321437	-0.716553	0.335693	-0.245117	0.666608	-0.343781	-0.391736	-0.532908	9.21894	-0.596767	4.48461	0.182675	-0.0553575	-0.00256285	-0.849121	0.344482	-0.513428	0.130788	0.369155	-0.00370691	-0.920112	-6.60235	1.1278	7.02994	-0.00628844	0.0463636	0.0165551	0.361084	0.0969238	-0.977051	-0.534841	0.469697	0.308716	0.630891	9.22824	-1.24239	3.71153	0.0848008	0.00301972	-0.00190214	-0.841553	0.486572	-0.218994	0.945895	-0.124993	0.299431	-0.000639485	-6.99049	-2.68372	9.72174	0.0118428	-0.0155172	0.0114747	0.958496	0.156738	-0.359619	-0.528131	0.511102	0.556543	0.387444	9.57568	-1.06403	-1.29514	0.0531101	-0.029672	-0.0426848	-0.868408	0.468262	0.0515137	0.84903	-0.134755	-0.345774	-0.376071	7.43078	0.712952	7.82731	0.0355172	0.0473681	-0.0138066	-0.51709	0.2229	-0.889404	-0.186268	0.155911	-0.96575	-0.0912257	-3.84582	1.09591	-8.54278	-0.0809925	0.0514731	-0.0255786	0.0180664	-0.270508	1.07178	-0.536473	0.526246	0.44602	0.486136	10.1622	-1.22372	0.364858	0.010231	-0.0129902	0.0264538	-0.895752	0.515381	-0.0285645	0.426103	-0.611653	-0.454634	-0.487468	9.96102	0.046857	-1.50956	0.0575867	0.00162185	-0.0100145	-0.963379	0.501465	0.253662	
72	-0.570576	0.407275	0.372377	0.608199	9.69548	-0.128391	4.07088	0.107085	-0.000306575	-0.010868	-0.79541	0.419922	-0.313965	0.580122	-0.427553	-0.404605	-0.562984	9.65723	-0.353521	3.29507	0.0839059	-0.0463389	-0.00975737	-0.718506	0.329346	-0.247314	0.667182	-0.342566	-0.394016	-0.531289	9.42621	-0.385433	4.6306	0.231234	-0.0929837	0.00873126	-0.848877	0.335938	-0.517822	0.132692	0.370291	-0.00484084	-0.919377	-6.7847	0.956863	7.25812	0.0353575	0.0562707	0.115862	0.363281	0.0927734	-0.981445	-0.535263	0.469389	0.309823	0.63022	9.34075	-1.04205	3.7879	0.102002	-0.0388438	-0.0106247	-0.839355	0.486572	-0.228027	0.9458	-0.126989	0.298891	0.000258993	-7.14661	-2.88396	9.89766	-0.0993349	-0.0056022	-0.0194043	0.962891	0.152344	-0.359375	-0.529794	0.509681	0.556231	0.387493	9.98895	-1.0414	-1.39338	0.0605006	0.119298	-0.00879144	-0.868408	0.470459	0.0537109	0.8495	-0.135622	-0.345539	-0.374912	7.56024	0.261598	7.98197	-0.00468043	-0.00449381	0.0457024	-0.521484	0.220703	-0.884766	-0.185921	0.156932	-0.965792	-0.089731	-3.86643	1.5144	-8.27121	0.0515091	0.0307087	-0.0634364	0.0180664	-0.272705	1.06958	-0.536848	0.52479	0.447499	0.485936	9.87298	-1.06061	0.469746	0.0763984	0.00118686	-0.0447051	-0.900146	0.512939	-0.0307617	0.424087	-0.613066	-0.453946	-0.488092	9.73826	-0.721684	-1.69312	-0.114024	-0.0218707	-0.0227227	-0.967773	0.496826	0.251465	
73	-0.571945	0.405238	0.373486	0.607593	9.31051	0.0973384	4.08849	0.0953476	0.034001	9.1629e-05	-0.797607	0.419922	-0.320557	0.580334	-0.427694	-0.406897	-0.561004	9.30755	-0.25484	2.99684	0.0698899	-0.0948202	-0.00602708	-0.7229	0.329346	-0.242432	0.668125	-0.341489	-0.397211	-0.52841	9.07706	-0.167055	4.99424	0.113216	-0.0694254	0.0441289	-0.846924	0.340088	-0.51123	0.135322	0.370998	-0.0061046	-0.918701	-6.71659	1.02403	7.11098	-0.0213591	0.0240838	0.11029	0.365723	0.0883789	-0.983398	-0.535158	0.469358	0.311049	0.629728	9.04019	-1.07657	3.77626	0.0265326	-0.0150376	-0.0274746	-0.839355	0.484375	-0.22583	0.945843	-0.128693	0.298023	0.000798792	-6.89731	-2.72076	9.78578	-0.0607014	-0.0297365	-0.013783	0.958496	0.156738	-0.355225	-0.53023	0.509865	0.555997	0.38699	9.37666	-0.979552	-1.58791	0.0170262	-0.0092133	0.00472126	-0.868652	0.472412	0.0537109	0.849591	-0.13641	-0.345853	-0.37413	7.43318	0.159407	7.92376	-0.0141494	0.00183793	0.0327291	-0.512451	0.216309	-0.884766	-0.185653	0.157603	-0.965812	-0.0888857	-3.47234	1.72923	-8.38948	0.0551481	0.0283852	-0.0590839	0.0273438	-0.270264	1.06274	-0.536846	0.523479	0.448851	0.486107	9.77047	-1.29541	0.371623	0.0422567	-0.00180513	-0.06839	-0.897949	0.510986	-0.032959	0.422145	-0.614297	-0.452794	-0.489296	9.73243	-0.447467	-1.71113	-0.255565	-0.010027	-0.0104104	-0.965088	0.490234	0.256104	
74	-0.572499	0.404364	0.374292	0.607157	9.14154	0.0195184	4.03402	0.0437188	-0.0115897	-0.00636615	-0.791016	0.417725	-0.316162	0.579898	-0.428556	-0.409283	-0.559058	9.43737	-0.279738	2.90665	0.0406908	-0.0784422	-0.0111652	-0.720459	0.322754	-0.23999	0.66824	-0.342513	-0.396039	-0.528481	9.03355	-0.221107	4.64144	-0.0944662	0.0325462	0.0221315	-0.848877	0.338135	-0.513428	0.137245	0.370628	-0.00488595	-0.918572	-6.72544	1.05578	7.03635	-0.0744741	-0.00114841	0.0540834	0.365723	0.0905762	-0.981201	-0.536507	0.468169	0.31209	0.62895	9.04401	-1.13879	3.44518	0.119855	0.0217656	0.0129474	-0.837402	0.48877	-0.230469	0.946037	-0.129437	0.297082	0.00175354	-6.91403	-3.06984	9.71788	-0.0134738	-0.0226198	0.0118923	0.960693	0.154541	-0.359375	-0.531893	0.508572	0.555873	0.386587	9.45903	-1.12328	-1.35584	0.090468	0.0637278	-0.0093258	-0.866211	0.470459	0.0515137	0.850214	-0.136158	-0.345351	-0.373269	7.3148	0.496744	7.96868	0.026714	0.0467768	0.0106723	-0.514648	0.216309	-0.875244	-0.184932	0.157696	-0.965946	-0.0887713	-3.63153	1.74016	-8.19065	-0.0249464	0.039151	-0.0186378	0.0202637	-0.268066	1.06494	-0.536258	0.522408	0.4506	0.486289	9.73904	-1.26668	0.534092	0.0384816	-0.00909824	-0.0520608	-0.899902	0.504395	-0.032959	0.419572	-0.616134	-0.450683	-0.491144	9.57421	-1.31768	-1.68146	-0.132262	0.0144127	-0.00861835	-0.969727	0.492432	0.260498	
75	-0.572187	0.404829	0.375592	0.606338	9.32279	-0.0497448	3.97648	0.0257187	-0.0780606	-0.00049918	-0.792969	0.415527	-0.318359	0.580252	-0.428302	-0.409655	-0.558612	9.49352	-0.260667	2.80973	0.013737	0.0221491	-0.0105672	-0.718506	0.329346	-0.235352	0.668073	-0.343121	-0.395242	-0.528896	9.01499	-0.479485	4.47285	-0.00197663	0.000648931	0.00233754	-0.853271	0.340332	-0.506592	0.137711	0.370795	-0.00395174	-0.918439	-6.68759	1.24841	7.00875	-0.03682	0.0282751	0.000748189	0.36792	0.0927734	-0.979248	-0.538199	0.466812	0.313586	0.627768	9.0808	-0.886799	3.36905	0.0843155	0.00350494	0.0130356	-0.841797	0.490967	-0.234863	0.94601	-0.12954	0.297113	0.00274903	-6.86599	-3.0065	9.61575	-0.0131438	0.019761	0.0217482	0.95874	0.150146	-0.361572	-0.532634	0.508312	0.555505	0.386437	9.58556	-0.973139	-1.13284	0.0290109	0.0344163	-0.000880152	-0.864502	0.476807	0.0493164	0.850372	-0.137006	-0.344691	-0.373209	7.27885	0.249543	7.80535	-0.0376624	0.0244923	0.0129351	-0.515137	0.225098	-0.882568	-0.184321	0.157682	-0.966099	-0.0884037	-3.67949	1.78158	-8.07803	0.0182395	0.0355928	-0.0374563	0.0134277	-0.272705	1.06958	-0.536698	0.522066	0.450927	0.485868	9.75967	-1.04426	0.730172	0.0276984	4.77548e-05	0.0133267	-0.899902	0.506592	-0.0351562	0.419327	-0.615957	-0.451029	-0.491259	9.67559	-0.474547	-1.62803	0.0518209	-0.00491475	-0.0214771	-0.965332	0.492432	0.260498	
76	-0.571607	0.405715	0.377379	0.605182	9.62631	-0.0626306	3.9569	0.0351084	-0.0937617	-0.00668733	-0.792969	0.41333	-0.318359	0.580218	-0.428764	-0.409674	-0.558279	9.68663	-0.341934	3.14039	-0.016389	-0.0157466	-0.0014615	-0.720703	0.329346	-0.237793	0.668109	-0.342452	-0.396306	-0.528487	9.28642	-0.401589	4.51033	0.0529863	-0.0245641	-0.0173492	-0.853271	0.342529	-0.51123	0.13793	0.371434	-0.00402942	-0.918148	-6.75412	1.05661	7.04641	0.0334953	0.0332235	0.0197189	0.367676	0.097168	-0.981445	-0.538449	0.467552	0.313482	0.627053	9.24835	-0.933208	3.46343	-0.0274535	-0.0323471	0.0188525	-0.837402	0.48877	-0.230469	0.945651	-0.130071	0.298019	0.0031733	-6.93162	-3.03228	9.72272	-0.0155195	0.059553	-0.0109859	0.962891	0.152344	-0.36377	-0.533249	0.507666	0.55611	0.385567	9.90572	-1.27779	-1.39796	0.0679019	0.0149182	-0.0189669	-0.862305	0.474609	0.0493164	0.850889	-0.136073	-0.345075	-0.372015	7.32887	0.289091	7.767	0.0904563	0.0219219	0.013889	-0.516846	0.218506	-0.880127	-0.184413	0.158509	-0.965917	-0.0887238	-3.84532	1.70213	-8.23182	-0.0054735	-0.00681406	-0.0627873	0.0202637	-0.265869	1.06714	-0.536895	0.521335	0.451744	0.485675	10.0109	-1.0432	0.571946	0.0395478	0.00217845	-0.0207559	-0.9021	0.506348	-0.0305176	0.417269	-0.617642	-0.449366	-0.492417	9.87977	-0.936814	-1.81003	-0.0715834	0.00282856	0.0190719	-0.967285	0.48584	0.267578	
77	-0.571349	0.406607	0.378613	0.604055	9.4849	-0.0297103	3.81644	0.0192901	-0.0682978	0.0152166	-0.795166	0.41333	-0.313965	0.580373	-0.429467	-0.408812	-0.558209	9.4423	-0.390774	3.04376	-0.0524831	0.0247405	0.0152331	-0.714355	0.331543	-0.235596	0.66801	-0.342259	-0.398424	-0.527143	9.24517	-0.534645	4.80224	0.0865537	-0.0723394	0.00757706	-0.855469	0.340332	-0.510986	0.137995	0.372004	-0.00625352	-0.917895	-6.69697	1.03344	7.21173	0.0748156	0.0103014	0.0402903	0.36792	0.0905762	-0.981201	-0.53697	0.469341	0.313131	0.627161	9.22995	-1.08993	3.69938	-0.0836763	-0.0442703	-0.0361593	-0.837158	0.48877	-0.221191	0.945307	-0.130736	0.298826	0.00232275	-7.02262	-2.88194	9.77811	0.00889828	0.0482367	-0.0612593	0.960693	0.154541	-0.357422	-0.533984	0.507116	0.556089	0.385306	9.56676	-1.09167	-1.16707	0.0351397	0.00423224	-0.00898818	-0.868896	0.476807	0.0449219	0.850644	-0.135602	-0.346184	-0.371717	7.35859	0.526986	7.93526	0.035722	-0.0355474	-0.0243405	-0.516846	0.218506	-0.880127	-0.185123	0.158929	-0.965686	-0.0890001	-3.61678	1.69657	-8.19281	-0.00735197	-0.0238585	-0.0371875	0.0200195	-0.263428	1.06494	-0.537311	0.521206	0.451528	0.485555	9.6718	-1.16854	0.381621	-0.00744992	0.0323287	0.0458601	-0.897705	0.504395	-0.0397949	0.417784	-0.617268	-0.449435	-0.492386	9.59875	-0.88015	-1.77678	-0.00835044	0.0329815	0.0109573	-0.967529	0.492432	0.262695	
78	-0.571426	0.407443	0.378796	0.603304	9.43404	-0.11067	3.79396	-0.00901358	-0.0289052	0.0268589	-0.797607	0.415527	-0.311768	0.579966	-0.430612	-0.409025	-0.557595	9.33466	-0.348876	2.92395	-0.0192509	-0.0547155	-0.00772152	-0.723145	0.335938	-0.233398	0.668255	-0.342088	-0.398937	-0.526555	9.08667	-0.461647	4.83049	0.0591942	-0.0249755	0.0212006	-0.855469	0.335938	-0.508789	0.138465	0.37118	-0.00631798	-0.918157	-6.56771	1.13817	7.1232	-0.0430109	-0.0393602	0.00879739	0.365723	0.0883789	-0.976807	-0.536438	0.469615	0.313069	0.627442	9.03279	-1.30194	3.67746	0.00978334	0.0243948	-0.017227	-0.841553	0.484375	-0.223633	0.945387	-0.130392	0.29873	0.00163272	-7.0102	-2.70953	9.62778	0.0142847	0.00191213	-0.0224046	0.960449	0.160889	-0.359619	-0.533999	0.50709	0.555853	0.385658	9.30852	-0.881223	-1.32572	0.0175035	0.0380161	-0.0281373	-0.866455	0.474609	0.0471191	0.850533	-0.135961	-0.346191	-0.371832	7.36828	0.26492	8.05657	-0.0246903	0.0288969	-0.0155684	-0.519287	0.220703	-0.886963	-0.185402	0.158797	-0.965657	-0.0889695	-3.32788	1.70179	-8.24796	0.0142707	-0.0140809	-0.0212313	0.015625	-0.265869	1.07153	-0.536642	0.522473	0.451283	0.485161	9.74454	-1.24378	0.404085	-0.0421867	-0.0465453	-0.00192225	-0.904053	0.497559	-0.0236816	0.418695	-0.617082	-0.448923	-0.492313	9.60646	-0.27589	-1.67161	-0.0545828	0.0343114	0.0282063	-0.967529	0.492432	0.267334	
79	-0.571302	0.407907	0.378582	0.603243	9.67904	-0.16073	3.9436	-0.0189541	-0.00386531	-1.6314e-05	-0.799805	0.415283	-0.313965	0.579597	-0.430939	-0.409792	-0.557163	9.48158	-0.339146	2.94911	0.0129563	-0.0625442	-0.031483	-0.720703	0.331543	-0.223633	0.668548	-0.343344	-0.396041	-0.527551	9.17009	-0.298516	4.50312	-0.103641	0.0419153	0.0150727	-0.848877	0.340332	-0.51123	0.138892	0.370513	-0.00536498	-0.918368	-6.61399	1.16112	7.1033	-0.0884575	-0.0376867	0.00249849	0.361328	0.0881348	-0.981201	-0.537704	0.468789	0.313718	0.626652	9.21296	-1.07731	3.45195	0.0672272	0.000262335	0.023033	-0.8396	0.493164	-0.228027	0.945298	-0.131294	0.298609	0.00242367	-7.06336	-3.01512	9.73641	-0.0549971	0.0171789	0.0071487	0.960938	0.152344	-0.357178	-0.533392	0.50737	0.555671	0.386391	9.90119	-1.13181	-1.33563	-0.0272272	0.0216708	-0.0267506	-0.862061	0.470459	0.0493164	0.84996	-0.136628	-0.346483	-0.372625	7.30878	0.43609	7.75957	-0.0359333	-0.0119878	-0.0485267	-0.516846	0.218506	-0.884766	-0.185906	0.157923	-0.965786	-0.0880683	-3.71904	1.64881	-8.262	0.0322071	-0.0080126	0.0077304	0.015625	-0.268066	1.06494	-0.535641	0.522613	0.451606	0.485815	9.89419	-0.983219	0.366293	-0.0289169	0.0170519	-0.0353929	-0.9021	0.50415	-0.0283203	0.417326	-0.618285	-0.447159	-0.49357	9.88389	-0.303885	-1.70629	-0.219541	0.0331655	0.0283623	-0.967285	0.488037	0.267334	
80	-0.571248	0.407882	0.378254	0.603516	9.58191	-0.144981	3.92458	-0.0249007	0.0197211	-0.006509	-0.793213	0.417725	-0.313965	0.57972	-0.430146	-0.41015	-0.557384	9.61722	-0.291019	3.04222	0.0051918	0.0660279	-0.0374516	-0.716553	0.33374	-0.238037	0.668192	-0.343869	-0.395962	-0.527719	9.22233	-0.476792	4.47008	-0.043945	-0.0212402	-0.00627669	-0.849121	0.344482	-0.506592	0.139382	0.370316	-0.00463278	-0.918378	-6.80342	1.14791	7.07403	-0.00798851	0.019748	0.0132392	0.361328	0.0883789	-0.983398	-0.537869	0.469122	0.313795	0.626222	9.33694	-0.924202	3.46547	0.00579109	-0.0246093	0.0198193	-0.837158	0.48877	-0.223633	0.94512	-0.131803	0.298946	0.00263332	-6.99655	-3.12499	9.76263	-0.041971	0.0423949	-0.00851209	0.962891	0.156738	-0.355225	-0.533111	0.507811	0.555408	0.386579	9.76425	-1.03674	-1.35613	-0.0321617	0.0041985	-0.00426139	-0.866455	0.472412	0.0537109	0.849563	-0.137016	-0.34675	-0.373141	7.51493	0.278955	7.90393	-0.0332583	-0.0183692	-0.0543182	-0.516846	0.218506	-0.882324	-0.185906	0.157923	-0.965786	-0.0880683	-3.71904	1.64881	-8.262	0.0322071	-0.0080126	0.0077304	0.015625	-0.268066	1.06494	-0.535245	0.523142	0.451149	0.486106	9.81575	-1.07412	0.528918	-0.0658823	0.00917735	0.0135911	-0.904297	0.50415	-0.0305176	0.41691	-0.618967	-0.445452	-0.494609	9.72213	-1.10467	-1.67995	-0.0725187	0.0374281	0.0261305	-0.960693	0.492676	0.265137	
81	-0.570965	0.407972	0.377552	0.604163	9.29724	-0.115927	3.88035	-0.0350119	0.00631542	-0.0137898	-0.79541	0.419678	-0.311768	0.579816	-0.429497	-0.409188	-0.558489	9.36383	-0.271986	2.85873	-0.040526	0.0518172	-0.0420429	-0.720703	0.329346	-0.233154	0.668084	-0.343239	-0.398312	-0.526497	8.98036	-0.313103	4.70394	0.103274	-0.0587349	-0.0137935	-0.855469	0.342529	-0.51123	0.139024	0.370912	-0.0051317	-0.918189	-6.68515	1.00598	6.98061	0.0344738	0.0243763	-0.0151786	0.369873	0.0949707	-0.981445	-0.536502	0.470496	0.313257	0.626634	9.22279	-0.892536	3.53942	-0.0739684	-0.0285025	-0.0218033	-0.837402	0.493164	-0.221191	0.944948	-0.131714	0.299533	0.00209379	-6.88262	-2.94413	9.73526	0.0292014	0.0345328	-0.0382748	0.962646	0.158936	-0.355225	-0.531708	0.509442	0.554794	0.387245	9.51011	-1.06161	-1.34226	-0.079271	-0.0196471	-0.0103312	-0.868652	0.476807	0.0512695	0.848643	-0.137827	-0.347303	-0.374418	7.5127	0.259893	7.97128	-0.0622316	-0.0135059	-0.0660089	-0.521729	0.227051	-0.880127	-0.187068	0.156099	-0.965933	-0.0872473	-3.48562	1.76488	-8.40482	0.0211533	-0.0177392	0.0287429	0.0200195	-0.263672	1.06714	-0.534429	0.524902	0.449529	0.486608	9.77148	-1.33956	0.596698	-0.0877726	0.0190538	0.0393405	-0.899902	0.504395	-0.032959	0.416164	-0.619879	-0.444021	-0.495381	9.62764	-0.731677	-1.64792	-0.116257	0.0136505	0.0220548	-0.965088	0.48584	0.265137	
82	-0.569996	0.40869	0.377439	0.604662	9.38749	-0.142521	3.87721	-0.0426127	-0.0301771	-0.0294913	-0.797607	0.41748	-0.307617	0.5783	-0.430832	-0.409574	-0.558751	9.47784	-0.255832	2.89882	-0.0668607	-0.0653949	-0.0420208	-0.7229	0.329346	-0.230713	0.667289	-0.343883	-0.397021	-0.528057	9.17924	-0.178924	4.54444	-0.146963	0.0538199	-0.0354331	-0.851318	0.34668	-0.51123	0.138043	0.370846	-0.00511137	-0.918363	-6.72315	1.00957	6.96398	0.0228188	-0.0032141	-0.0397169	0.361328	0.090332	-0.976807	-0.535725	0.470655	0.312926	0.627344	9.20463	-0.988847	3.54108	-0.0153997	0.0185868	-0.0413765	-0.839355	0.486572	-0.223633	0.945028	-0.131349	0.299447	0.000723108	-6.86559	-3.02262	9.79623	0.0393741	0.0146226	-0.070422	0.956299	0.160889	-0.353271	-0.530619	0.510536	0.554418	0.387836	9.60979	-1.10242	-1.36262	-0.03845	-0.00539164	-0.0120105	-0.864258	0.470459	0.0600586	0.848419	-0.137742	-0.346818	-0.375407	7.43342	0.207698	7.94835	0.000968712	0.0530171	-0.0460018	-0.52124	0.220703	-0.880127	-0.187103	0.154668	-0.966113	-0.0877284	-3.4526	1.8396	-8.34708	-0.0127879	0.00682709	0.0320258	0.0244141	-0.256592	1.06934	-0.533909	0.52564	0.448641	0.487201	9.82606	-1.37741	0.625329	-0.0377673	0.0195907	-0.00129987	-0.895508	0.508789	-0.026123	0.416026	-0.620229	-0.443499	-0.495527	9.68896	-0.685423	-1.68925	0.0389074	0.013692	0.00866147	-0.962891	0.492432	0.271973	
83	-0.56848	0.40952	0.378049	0.605147	9.53647	-0.12387	3.85869	-0.0308819	-0.0591319	-0.0524602	-0.788818	0.417725	-0.303223	0.57695	-0.431739	-0.409957	-0.559165	9.63509	-0.268226	2.98368	-0.0461832	-0.0368184	-0.0409858	-0.718506	0.329346	-0.228271	0.665978	-0.345738	-0.395319	-0.529774	9.20934	-0.516214	4.39755	-0.0859982	-0.00625009	-0.0223074	-0.853271	0.342529	-0.508789	0.136531	0.371033	-0.00673717	-0.918503	-6.7565	1.34919	7.1538	0.0750711	0.00539689	-0.0225589	0.365967	0.0861816	-0.983398	-0.535002	0.470293	0.31321	0.62809	9.2838	-0.962421	3.5731	-0.0211106	0.011232	-0.0582283	-0.841553	0.484375	-0.223633	0.945213	-0.13067	0.299158	-0.00107879	-7.00703	-2.98919	9.73927	0.0474234	0.0109659	-0.0794916	0.964844	0.163086	-0.355469	-0.530257	0.51111	0.553646	0.388677	9.86995	-1.16534	-1.22216	-0.0417761	0.0325985	-0.0105049	-0.862061	0.472656	0.0537109	0.84835	-0.137558	-0.346388	-0.376027	7.52781	0.1918	7.99763	-0.00396049	0.026554	-0.0236443	-0.525635	0.222656	-0.875488	-0.186887	0.153496	-0.966334	-0.0878107	-3.46085	1.70901	-8.41728	0.0370354	0.01806	0.0111597	0.0153809	-0.259033	1.06714	-0.533736	0.525535	0.448409	0.487718	9.714	-1.37337	0.506731	-0.019907	0.0104922	-0.000939288	-0.904297	0.506348	-0.0214844	0.415346	-0.620878	-0.442691	-0.496007	9.80781	-1.09392	-1.78261	-0.0457414	0.00982923	-0.00648602	-0.965332	0.492432	0.267334	
84	-0.567247	0.409789	0.379077	0.605479	9.67308	-0.0938616	3.80833	0.00483903	-0.0332067	-0.0505429	-0.799805	0.415283	-0.303223	0.576946	-0.431652	-0.409064	-0.55989	9.57734	-0.342352	2.8942	-0.0649423	0.0770963	-0.0151301	-0.722656	0.324951	-0.228271	0.665454	-0.345651	-0.396052	-0.529943	9.32829	-0.446839	4.54483	0.0319041	-0.0188673	-0.0235863	-0.857666	0.344727	-0.499756	0.135446	0.371367	-0.00795005	-0.918519	-6.74758	1.14577	7.14683	0.0704671	0.01307	-0.0236933	0.368164	0.0883789	-0.981201	-0.533367	0.471133	0.312518	0.629194	9.11935	-1.06739	3.74342	-0.0999453	0.00179679	-0.048854	-0.848145	0.486572	-0.216797	0.945394	-0.129302	0.299174	-0.00264583	-7.0782	-3.03905	9.7582	0.108401	0.0235032	-0.0478038	0.960449	0.163086	-0.351074	-0.531597	0.510671	0.552175	0.389517	9.53765	-1.04757	-1.3138	0.0484045	0.120927	-0.00228554	-0.862061	0.472656	0.0537109	0.848948	-0.136542	-0.345508	-0.375855	7.47363	0.268037	8.1097	0.0325146	0.0795109	-0.012343	-0.510498	0.218506	-0.882324	-0.186143	0.152579	-0.966607	-0.0879802	-3.66697	1.88924	-8.34833	-0.0239478	0.0370075	0.0152744	0.0200195	-0.263672	1.06934	-0.533469	0.525489	0.448579	0.487902	9.98769	-1.23738	0.648634	0.00268339	0.0185526	-0.0145245	-0.897705	0.506592	-0.0283203	0.415891	-0.620439	-0.443279	-0.495575	9.72716	-0.774187	-1.61337	0.0826798	0.00375017	-0.0146352	-0.967529	0.492432	0.267334	
85	-0.566993	0.409132	0.379945	0.605617	9.59015	0.122033	3.84846	0.0328321	-0.00665253	-0.0219023	-0.799561	0.410889	-0.301025	0.577378	-0.431708	-0.407753	-0.560357	9.58738	-0.346905	3.05174	-0.0192012	0.0489101	0.0113765	-0.725098	0.327148	-0.23291	0.665642	-0.345076	-0.397265	-0.529173	9.29044	-0.422202	4.72904	0.054075	-0.023032	0.000950377	-0.857422	0.333984	-0.508545	0.134699	0.37151	-0.00855509	-0.918566	-6.71583	1.1605	7.27543	0.00550465	0.00190097	-0.0130825	0.368408	0.0795898	-0.981201	-0.532712	0.471744	0.311652	0.629721	9.06532	-1.41662	3.62108	-0.00957634	0.0132975	-0.00432977	-0.839355	0.484375	-0.216797	0.945527	-0.128139	0.299248	-0.00317766	-7.04615	-2.68033	9.70656	0.105269	0.0224391	-0.0267081	0.956055	0.16748	-0.355469	-0.532002	0.510967	0.551548	0.389463	9.86648	-1.30569	-1.35042	0.0116062	0.0388621	0.0228068	-0.866455	0.472412	0.0537109	0.848897	-0.137068	-0.344609	-0.376605	7.43114	0.151127	7.76302	-0.0520801	0.0502979	-0.0206058	-0.512939	0.225098	-0.875488	-0.185319	0.151685	-0.966878	-0.0882962	-3.55397	1.6274	-8.22966	0.0221904	0.0413751	0.0102462	0.0178223	-0.263428	1.06274	-0.532766	0.525076	0.449271	0.488479	9.49442	-1.06945	0.475698	-0.0125957	-0.0102774	-0.0677623	-0.901855	0.499756	-0.0212402	0.413027	-0.622229	-0.441913	-0.496943	9.76429	-0.634283	-1.6331	-0.151004	-0.0255736	-0.0167449	-0.967529	0.490234	0.276611	
