40	Head	00b4120a												Throax	00b411e8												LUpArm	00b411d9												LFoArm	00b41148												RUpArm	00b411db												RFoArm	00b41204												Waist	00b411f7												Lthigh	00b411f4												Lshank	00b4111b												Rthigh	00b411c8												Rshank	00b411ee												
PacketCount	q0	q1	q2	q3	accX	accY	accZ	gyrX	gyrY	gyrZ	magX	magY	magZ	q0	q1	q2	q3	accX	accY	accZ	gyrX	gyrY	gyrZ	magX	magY	magZ	q0	q1	q2	q3	accX	accY	accZ	gyrX	gyrY	gyrZ	magX	magY	magZ	q0	q1	q2	q3	accX	accY	accZ	gyrX	gyrY	gyrZ	magX	magY	magZ	q0	q1	q2	q3	accX	accY	accZ	gyrX	gyrY	gyrZ	magX	magY	magZ	q0	q1	q2	q3	accX	accY	accZ	gyrX	gyrY	gyrZ	magX	magY	magZ	q0	q1	q2	q3	accX	accY	accZ	gyrX	gyrY	gyrZ	magX	magY	magZ	q0	q1	q2	q3	accX	accY	accZ	gyrX	gyrY	gyrZ	magX	magY	magZ	q0	q1	q2	q3	accX	accY	accZ	gyrX	gyrY	gyrZ	magX	magY	magZ	q0	q1	q2	q3	accX	accY	accZ	gyrX	gyrY	gyrZ	magX	magY	magZ	q0	q1	q2	q3	accX	accY	accZ	gyrX	gyrY	gyrZ	magX	magY	magZ	
0	-0.834269	-0.134785	0.476493	-0.242452	9.29424	-0.422181	5.22791	0.00324949	-0.0840006	0.0531282	-0.768799	-0.133057	-0.764893	-0.167275	-0.826999	0.396689	-0.361565	6.94334	-0.535262	-6.85934	0.0179815	0.00283457	-0.0076091	-1.04736	-0.30249	0.793457	0.175112	-0.158718	-0.535201	0.81099	-0.819321	-9.80579	3.57956	0.0437201	0.050172	-0.0130977	-0.112061	0.905029	-0.575928	-0.585378	0.231485	0.183286	-0.755085	-1.28146	-5.47249	8.30198	-0.160655	0.0243835	-0.0130147	0.101562	0.459229	-0.996582	0.607501	0.460013	-0.387365	-0.518921	0.0634604	9.32107	2.67843	-0.0490289	-0.017606	0.0449263	0.0649414	-0.886719	-0.682861	0.778122	0.0250262	-0.000408427	-0.627614	0.0787084	1.58075	13.5734	-0.0295195	-0.0406464	-0.00901902	0.0864258	0.28833	-1.05298	-0.0234389	-0.981876	-0.187845	-0.00918999	0.0218332	0.13102	-9.06595	0.0139606	0.000238258	-0.0177868	-0.124268	-0.174316	1.10693	-0.140428	0.780059	-0.602414	-0.0942635	-2.91393	-0.565191	-8.09525	-0.0153112	0.0544711	-0.0374951	-0.0881348	0.143555	1.0564	-0.306167	0.207458	-0.917685	0.145178	-4.66489	-3.81373	-7.13	-0.0294101	-0.0408279	-0.0289848	0.0891113	0.483887	1.00708	-0.144213	0.0974666	-0.883237	-0.435425	-3.22612	6.91978	-5.25096	-0.0934255	0.0775268	0.0237219	-0.0495605	-0.982422	0.733154	-0.207767	0.264959	-0.897749	-0.284037	-5.09362	3.68484	-7.18472	-0.0220369	0.043669	0.00994295	0.201172	-0.682861	0.868408	
1	-0.833298	-0.134027	0.478096	-0.243056	9.19246	-0.607316	5.13038	-0.037535	-0.0573077	0.0548514	-0.777832	-0.128662	-0.758545	-0.166688	-0.827311	0.396387	-0.361455	7.08478	-0.0536245	-7.02533	0.0159227	0.00555549	-0.0293555	-1.05176	-0.298096	0.793457	0.175673	-0.160098	-0.532882	0.812124	-1.02895	-9.21262	4.11213	0.0780782	0.080162	0.0424302	-0.105713	0.906982	-0.57373	-0.586957	0.234105	0.184817	-0.752675	-1.66807	-4.61474	9.1561	-0.217525	0.115979	-0.0808354	0.103271	0.46582	-0.996826	0.6079	0.461078	-0.38823	-0.516858	-0.185264	9.77441	3.11077	0.0146074	0.0730552	0.0425333	0.0605469	-0.884521	-0.685303	0.777969	0.0250557	-0.00152187	-0.627801	-0.167167	1.40899	13.7643	0.0302715	-0.0267592	-0.0161605	0.0822754	0.286133	-1.06152	-0.0240745	-0.981859	-0.18787	-0.00885718	0.0181685	0.146616	-9.079	-0.0037114	-0.00515623	-0.0179413	-0.12207	-0.176514	1.10693	-0.140381	0.780341	-0.602344	-0.0924318	-2.93606	-0.650459	-7.95365	0.0551772	0.0531765	-0.042216	-0.0839844	0.145752	1.0564	-0.30664	0.207851	-0.91751	0.144725	-4.71591	-3.95434	-7.09157	0.00141119	-0.00854954	-0.0296746	0.0915527	0.481689	1.00488	-0.143218	0.0971635	-0.883929	-0.434417	-3.19106	6.83011	-5.22625	0.101965	0.0488592	0.0210819	-0.0517578	-0.984619	0.742188	-0.206783	0.264817	-0.897925	-0.284331	-5.02243	3.86397	-7.14373	-0.0329489	0.0701411	0.0352806	0.197021	-0.689453	0.868408	
2	-0.832985	-0.13378	0.4783	-0.243862	8.97904	-0.758672	5.14184	0.0326736	-0.00289899	0.00146122	-0.775635	-0.126465	-0.767334	-0.164938	-0.827929	0.395118	-0.362229	6.80618	-0.373111	-6.59438	0.0787134	0.022182	-0.0469986	-1.04077	-0.30249	0.791016	0.176609	-0.165756	-0.538361	0.807156	-0.45835	-9.41259	4.34576	-0.491701	0.249957	0.00679491	-0.105713	0.911377	-0.569092	-0.590256	0.23801	0.184329	-0.748981	-0.969319	-5.76025	8.50973	0.0863755	0.218762	-0.191024	0.107422	0.474609	-0.996826	0.612947	0.45791	-0.384927	-0.516183	0.307781	9.93532	3.15458	-0.258107	0.144113	0.105369	0.0578613	-0.875732	-0.685303	0.779031	0.019414	0.00243746	-0.62668	-0.102831	0.0363076	13.8976	-0.247334	-0.000363577	0.0672825	0.0881348	0.30127	-1.05542	-0.024235	-0.981813	-0.18809	-0.00878652	0.0148096	0.150233	-9.06541	0.00521409	0.00244627	-0.0173454	-0.121826	-0.180908	1.10913	-0.140251	0.780536	-0.60218	-0.0920463	-2.98629	-0.595294	-7.80281	0.0015467	0.0342725	-0.0299336	-0.0881348	0.141602	1.05664	-0.307715	0.207721	-0.917105	0.145196	-4.83148	-3.52513	-6.89626	0.0163736	-0.0392485	-0.00778983	0.0866699	0.486084	1.00708	-0.142623	0.0958905	-0.88523	-0.43224	-3.15239	6.91117	-5.25655	0.114669	0.0284337	0.0578213	-0.0566406	-0.971436	0.741943	-0.204852	0.264279	-0.898796	-0.283474	-4.98865	3.78316	-7.3498	0.0634792	0.0264272	0.00126396	0.19458	-0.687256	0.873047	
3	-0.832954	-0.13459	0.478023	-0.244064	8.9339	-0.631958	5.10448	0.0684124	-0.00144973	-0.0242854	-0.773193	-0.130859	-0.765137	-0.164522	-0.828052	0.394623	-0.362678	6.99028	-0.199338	-6.82222	0.0476876	0.0355242	-0.0381483	-1.04761	-0.295898	0.791016	0.177098	-0.169429	-0.540519	0.804841	-0.514084	-9.81097	3.91553	-0.282851	0.245896	0.0678627	-0.101562	0.917725	-0.560303	-0.594069	0.241132	0.178907	-0.746277	-1.41239	-5.12167	7.85311	0.0650375	0.273915	-0.0908761	0.118896	0.466064	-1.00562	0.619131	0.455018	-0.379009	-0.515739	-0.318155	8.7864	2.70884	-0.233738	0.216616	0.0501506	0.0661621	-0.864746	-0.694336	0.783263	0.0166314	0.00618411	-0.621437	0.082295	0.718448	13.385	-0.195743	0.0870775	0.30697	0.0986328	0.305664	-1.05786	-0.0245394	-0.98181	-0.188074	-0.00866216	0.00748839	0.148961	-9.08649	0.000211027	-0.0018578	-0.0161559	-0.119629	-0.178711	1.10913	-0.139678	0.780666	-0.602125	-0.0921711	-3.09505	-0.617372	-8.07117	-0.0381635	0.0381688	-0.0226712	-0.0859375	0.143555	1.05884	-0.307712	0.208019	-0.917126	0.144644	-4.69732	-3.61541	-6.95953	-0.0419953	-0.00600461	-0.0280773	0.0869141	0.483643	1.00928	-0.141302	0.0951281	-0.885926	-0.431416	-3.15179	7.65243	-5.49218	-0.027347	0.0385676	0.0490481	-0.0588379	-0.97583	0.741943	-0.204693	0.264121	-0.899123	-0.282699	-5.03061	4.18955	-7.37819	0.0649913	0.0355845	0.00331997	0.192139	-0.682861	0.872803	
4	-0.833242	-0.136388	0.476556	-0.24495	8.9505	-0.0149139	5.25941	0.0826528	0.0505135	-0.0176881	-0.773193	-0.130859	-0.769287	-0.164284	-0.828267	0.394141	-0.362819	6.85321	-0.295131	-6.49443	0.00842438	0.0212556	-0.0406511	-1.04297	-0.302246	0.793457	0.180328	-0.173417	-0.536944	0.805667	-0.833667	-9.90651	3.72968	0.227221	0.217697	0.0107773	-0.0949707	0.915527	-0.567139	-0.595747	0.242805	0.177644	-0.744697	-1.26135	-5.5718	7.86768	0.00778285	0.221377	-0.126228	0.119141	0.463867	-0.999023	0.620228	0.457253	-0.378848	-0.512554	0.241596	8.72876	2.63404	0.160285	0.256354	0.11368	0.0666504	-0.875732	-0.696533	0.78588	0.0165388	0.00729854	-0.618115	0.0517819	0.830569	13.2667	-0.063932	0.0826006	0.320918	0.0986328	0.307861	-1.05786	-0.0247753	-0.981762	-0.188291	-0.00869039	0.00303598	0.16166	-9.09023	0.00150664	0.00584949	-0.0169387	-0.119629	-0.180908	1.11328	-0.1388	0.781055	-0.601904	-0.0916484	-2.73278	-0.521384	-7.72385	-0.0154277	0.0470417	-0.0254015	-0.0944824	0.141357	1.05664	-0.307833	0.208527	-0.917024	0.1443	-4.64563	-3.78736	-6.85445	0.00726839	-0.0195342	-0.0257099	0.0913086	0.488281	1.01147	-0.140498	0.0951933	-0.885234	-0.43308	-2.96009	6.65741	-5.09114	-0.146342	0.050179	0.0374058	-0.0610352	-0.97583	0.737549	-0.203185	0.263823	-0.899571	-0.282641	-4.98763	3.61999	-7.37475	0.0399028	0.0496093	0.0211275	0.192139	-0.685059	0.870605	
5	-0.833731	-0.135883	0.475434	-0.245746	9.07511	-0.193043	5.38396	-0.0097842	0.053485	0.0396395	-0.770996	-0.133057	-0.764893	-0.163678	-0.828554	0.393547	-0.363083	6.96856	-0.457435	-6.85209	0.0451165	0.00834653	-0.0303344	-1.04321	-0.293701	0.800293	0.183822	-0.177082	-0.531464	0.807711	-1.13382	-8.8825	3.33678	0.149268	0.191824	-0.00686281	-0.0883789	0.904541	-0.57373	-0.597612	0.246218	0.175275	-0.742641	-1.57604	-5.83523	7.16639	0.0887973	0.191422	-0.0592502	0.125488	0.468262	-1.00122	0.621514	0.46386	-0.377953	-0.505674	-0.22341	9.72957	2.7827	0.0825881	0.288856	0.0294439	0.0715332	-0.884521	-0.689697	0.790705	0.0178848	0.00753166	-0.611889	-0.120634	1.93258	13.2231	0.0204425	0.0704363	0.272959	0.107422	0.305664	-1.05127	-0.02513	-0.981752	-0.188302	-0.00863975	0.011853	0.167664	-9.08657	0.0122796	0.0112456	-0.016353	-0.123779	-0.187256	1.10498	-0.136992	0.781378	-0.601928	-0.0914592	-2.78945	-1.02135	-8.44622	-0.0110564	0.0790544	-0.0182678	-0.0986328	0.136963	1.05908	-0.308663	0.208655	-0.916569	0.145227	-4.47077	-3.61242	-6.86038	0.021685	-0.0104648	-0.0399638	0.0847168	0.479248	1.00488	-0.138508	0.0947196	-0.886811	-0.430593	-3.03721	7.38409	-5.33047	0.304364	0.109241	0.0550383	-0.0678711	-0.97168	0.748779	-0.205067	0.263688	-0.899981	-0.28009	-4.88679	4.31426	-7.5534	0.106509	-0.0357733	-0.0569649	0.19873	-0.678467	0.877441	
6	-0.83424	-0.134607	0.474361	-0.246793	8.9011	-0.260614	5.44854	-0.0166649	0.05551	0.0371316	-0.766602	-0.130615	-0.771484	-0.16231	-0.829098	0.392619	-0.363459	6.98761	-0.0977116	-6.73424	0.0479777	0.0143003	-0.0355252	-1.04346	-0.289307	0.792969	0.185464	-0.179811	-0.531121	0.806958	-0.856298	-9.58325	3.70901	0.0115755	0.0957184	0.0048459	-0.0842285	0.908936	-0.578369	-0.601084	0.245351	0.171154	-0.741085	-1.50257	-5.63115	7.4908	0.0703011	0.096395	-0.0765548	0.136719	0.466309	-1.00342	0.626958	0.462114	-0.3738	-0.503634	-0.130529	9.84135	2.92455	-0.243259	0.167023	0.112409	0.0773926	-0.871094	-0.692139	0.794344	0.0168879	0.00873479	-0.607171	-0.346184	1.74615	13.0238	-0.0447326	0.00556547	0.208646	0.114014	0.303467	-1.05347	-0.02513	-0.981752	-0.188302	-0.00863975	0.011853	0.167664	-9.08657	0.0122796	0.0112456	-0.016353	-0.123779	-0.187256	1.10498	-0.136951	0.781428	-0.602162	-0.0895338	-2.80529	-0.444623	-7.91497	0.0484273	0.0709395	-0.0134515	-0.0986328	0.13916	1.06128	-0.308495	0.208964	-0.916548	0.145274	-4.65943	-3.73704	-6.89441	-0.000632524	0.0149434	-0.0463082	0.09375	0.486328	1.00049	-0.137697	0.0951864	-0.885706	-0.433018	-2.97524	7.34881	-5.399	-0.212397	0.0168695	-0.0114447	-0.0673828	-0.980469	0.73999	-0.202828	0.263838	-0.900123	-0.28112	-4.92541	3.89758	-7.40651	-0.0822037	0.107938	0.0426258	0.1875	-0.678467	0.865967	
7	-0.834504	-0.133318	0.473685	-0.247895	8.82997	-0.323883	5.45268	-0.0164692	0.0363876	0.0508309	-0.766602	-0.128662	-0.769287	-0.161593	-0.829418	0.392317	-0.363375	6.9364	-0.224334	-6.77287	0.0230395	0.00387536	-0.0320985	-1.03906	-0.291504	0.79541	0.18696	-0.17972	-0.52957	0.807652	-0.901115	-9.52076	3.56014	0.0552668	0.0211437	-0.023332	-0.0861816	0.906738	-0.578369	-0.603029	0.242966	0.168686	-0.740857	-1.36179	-5.85367	7.3593	0.228232	-0.00755162	-0.0661368	0.130615	0.455078	-1.00317	0.631075	0.460728	-0.370961	-0.501859	-0.266989	9.00098	2.25132	-0.00622666	0.143355	0.087925	0.0839844	-0.871094	-0.705811	0.797253	0.014976	0.00887141	-0.603395	-0.0165334	1.88784	13.071	-0.124665	-0.0363592	0.164185	0.111328	0.314209	-1.05151	-0.0250341	-0.981681	-0.188675	-0.008751	-0.000890819	0.172804	-9.09742	0.00843639	0.0063231	-0.0166367	-0.121826	-0.180908	1.11133	-0.13585	0.78173	-0.602109	-0.0889206	-2.73559	-0.709951	-8.0992	0.00261568	0.0746483	-0.0242944	-0.105225	0.141357	1.052	-0.307241	0.209298	-0.916507	0.147692	-4.72509	-3.71843	-7.05246	0.0294363	0.0642016	-0.0509168	0.0888672	0.488525	1.00024	-0.137193	0.0946507	-0.886359	-0.431956	-2.98023	6.7225	-5.16698	0.102084	0.0426958	0.0296426	-0.0656738	-0.969482	0.746582	-0.201558	0.264093	-0.900182	-0.281606	-5.03982	3.94424	-7.34259	-0.031745	0.0249887	-0.0136357	0.189941	-0.682861	0.875244	
8	-0.834482	-0.132985	0.473682	-0.248154	8.84678	-0.46707	5.3142	0.0101816	-0.00802112	0.0120893	-0.757812	-0.128418	-0.769287	-0.16115	-0.829482	0.392061	-0.363702	6.86171	-0.478273	-6.80174	0.0136859	0.0212936	-0.0132651	-1.04126	-0.291504	0.790771	0.187932	-0.177602	-0.528334	0.808704	-0.7953	-9.15657	3.58848	0.0960111	-0.035785	-0.104446	-0.0927734	0.906982	-0.585205	-0.601102	0.243203	0.171863	-0.741614	-1.44945	-5.43358	7.59983	-0.173619	-0.113987	0.058861	0.132568	0.459473	-0.998779	0.631271	0.463392	-0.372594	-0.497934	-0.0559383	9.47459	2.90978	0.105024	0.0877043	0.0416868	0.0708008	-0.869141	-0.692139	0.798472	0.0141429	0.00808157	-0.601811	-0.186428	1.48054	13.1322	-0.0153469	-0.0749298	0.144827	0.111572	0.307861	-1.05566	-0.0248923	-0.981641	-0.1889	-0.00883458	-0.000992385	0.161678	-9.08388	0.0159719	0.0108039	-0.0173183	-0.117676	-0.178711	1.10474	-0.134343	0.782121	-0.601991	-0.0885704	-2.83582	-0.60236	-7.90456	-0.0390763	0.0561077	-0.0190137	-0.105225	0.136963	1.05664	-0.306361	0.20955	-0.916888	0.146791	-4.64832	-3.84265	-7.2346	-0.0717888	0.0359352	-0.018369	0.0820312	0.488281	1.00244	-0.135964	0.094929	-0.887444	-0.430053	-2.98122	7.02924	-5.41611	0.121978	0.0690922	0.0209735	-0.0725098	-0.967285	0.746338	-0.201709	0.264164	-0.900715	-0.27972	-4.93998	3.85028	-7.42176	0.142107	0.0422497	-0.024216	0.180664	-0.678467	0.877441	
9	-0.834238	-0.132813	0.473498	-0.249412	8.7768	-0.469779	5.32288	0.0276506	0.00607043	0.0328991	-0.762451	-0.124268	-0.771484	-0.160788	-0.829548	0.391739	-0.364056	6.91405	-0.264991	-6.67062	0.0026233	0.0164989	-0.0236527	-1.03882	-0.293701	0.797852	0.187753	-0.176078	-0.528702	0.808838	-0.978211	-9.40428	3.93276	-0.0429761	-0.0802545	-0.0237006	-0.0927734	0.904785	-0.587402	-0.600409	0.242194	0.174658	-0.741853	-1.46869	-5.31889	8.21899	-0.0554398	-0.0836807	0.00329282	0.125977	0.459473	-1.00757	0.633235	0.462598	-0.373114	-0.495785	0.250183	9.53172	2.59355	-0.0319429	0.0261969	0.111028	0.0795898	-0.868896	-0.692139	0.800729	0.0128018	0.00519781	-0.598868	0.275223	1.56362	13.4563	-0.0214233	-0.0713961	0.0357245	0.10498	0.310059	-1.05151	-0.0251135	-0.981627	-0.188947	-0.00877283	0.0103628	0.169183	-9.07168	0.0172035	0.0102149	-0.0175332	-0.117432	-0.183105	1.10693	-0.135002	0.782088	-0.602176	-0.0865855	-2.74308	-0.563933	-7.97555	0.071859	0.0556406	-0.0156735	-0.109619	0.13916	1.0542	-0.306163	0.209471	-0.916784	0.147967	-4.78068	-3.53247	-7.02779	0.0727062	0.00765748	-0.0327991	0.0820312	0.490723	0.998047	-0.134566	0.0946094	-0.88818	-0.429043	-2.91959	7.12491	-5.37201	0.00185934	0.0754992	0.0194231	-0.0812988	-0.97168	0.753418	-0.199426	0.264383	-0.901142	-0.279775	-4.89907	3.84286	-7.27566	-0.0823846	0.096621	0.0311185	0.178467	-0.67627	0.884277	
10	-0.83405	-0.132904	0.473509	-0.249975	8.89742	-0.377179	5.37289	0.0303487	-0.00873957	0.0337006	-0.76709	-0.12207	-0.767334	-0.159818	-0.829838	0.391335	-0.364258	6.9735	-0.331895	-6.85985	0.0238275	-0.000850839	-0.0277546	-1.03906	-0.291504	0.790771	0.188963	-0.174833	-0.528641	0.808867	-0.847992	-9.44604	4.07193	0.0556578	0.0108071	-0.0334726	-0.0947266	0.898193	-0.589355	-0.600005	0.24129	0.176507	-0.742037	-1.48556	-5.21559	8.50857	0.0260233	-0.055884	-0.0358622	0.116943	0.463867	-0.996826	0.635674	0.460486	-0.372719	-0.494926	-0.118245	9.56493	2.80749	-0.123806	0.0245469	0.0963753	0.0708008	-0.871094	-0.694336	0.801515	0.010472	0.00495244	-0.597863	0.0633899	1.96016	13.2946	-0.172292	-0.042399	0.0360818	0.107178	0.312256	-1.04932	-0.0253599	-0.981613	-0.188991	-0.00865624	-0.000205696	0.166754	-9.10096	0.0133679	0.00854562	-0.0183108	-0.115234	-0.183105	1.10913	-0.133635	0.782779	-0.601446	-0.0875287	-2.94265	-0.610322	-8.35209	-0.0236652	0.00271861	-0.0658535	-0.107178	0.13501	1.05444	-0.30491	0.209829	-0.917551	0.145263	-4.64505	-3.07382	-6.94394	-0.201245	0.0596776	0.0106672	0.0844727	0.486084	1.00708	-0.132275	0.0942873	-0.889116	-0.427885	-2.95817	6.90702	-5.4252	0.0137268	0.0923464	0.0634546	-0.0788574	-0.973877	0.755615	-0.198254	0.264584	-0.900954	-0.281019	-4.93159	3.67163	-7.52435	-0.0290199	0.0144504	-0.0128707	0.181152	-0.6875	0.868408	
11	-0.833713	-0.132263	0.47399	-0.250524	8.86985	-0.363244	5.35807	-0.0134239	-0.0156456	0.0341793	-0.764893	-0.12207	-0.769287	-0.159176	-0.830056	0.390951	-0.364456	6.90051	-0.465511	-6.84992	0.0431931	0.0227385	-0.0207957	-1.04126	-0.291504	0.78833	0.189419	-0.174596	-0.528124	0.809148	-0.916522	-9.70705	4.08136	0.0584826	0.0113958	-0.0317656	-0.0991211	0.900391	-0.587158	-0.600411	0.242389	0.17859	-0.740851	-1.30015	-5.32364	8.61916	-0.136409	0.024457	-0.0608414	0.116455	0.472656	-0.996826	0.637092	0.459525	-0.373102	-0.493705	0.237482	9.37117	2.72624	0.0073384	0.0401439	0.0419972	0.0664062	-0.869141	-0.694336	0.801983	0.00871295	0.00405844	-0.59727	-0.0318538	1.45982	13.8024	0.0502436	-0.0346423	0.0107449	0.100586	0.312012	-1.05786	-0.0253599	-0.981613	-0.188991	-0.00865624	-0.000205696	0.166754	-9.10096	0.0133679	0.00854562	-0.0183108	-0.115234	-0.183105	1.10913	-0.132306	0.783674	-0.600273	-0.0895643	-2.67499	-0.155741	-7.90351	-0.175602	0.0121184	-0.0517212	-0.111328	0.132568	1.05908	-0.30317	0.210697	-0.918721	0.140166	-4.73814	-3.41856	-7.02428	-0.440714	0.0597561	0.0262264	0.0803223	0.474365	1.01831	-0.130703	0.0939355	-0.889218	-0.428234	-3.00099	6.9965	-5.67355	0.0394841	0.035036	0.0341462	-0.0856934	-0.971924	0.753418	-0.197575	0.264683	-0.901081	-0.280998	-4.87132	3.83417	-7.52995	-0.00883984	0.0595802	0.00467205	0.178711	-0.685303	0.877441	
12	-0.833274	-0.131703	0.474751	-0.25084	8.9505	-0.468293	5.32531	-0.0159272	-0.0290153	0.0309217	-0.766846	-0.124268	-0.769287	-0.158749	-0.830146	0.390794	-0.364604	6.98223	-0.296928	-6.92308	0.0286597	0.0119449	-0.0184272	-1.04346	-0.291504	0.790771	0.190766	-0.175751	-0.528265	0.80849	-0.670172	-8.99878	4.0871	-0.050231	0.0995997	0.000816086	-0.0969238	0.904785	-0.582764	-0.603026	0.242436	0.176601	-0.739187	-1.31514	-5.50696	8.30458	0.132237	0.111473	-0.104191	0.123291	0.468262	-0.996826	0.637575	0.459457	-0.373951	-0.492501	0.351573	9.74185	2.93158	0.0189429	0.00154028	0.0325946	0.0664062	-0.869141	-0.694336	0.802633	0.00560105	0.00527042	-0.596423	0.406906	1.55335	13.645	-0.165598	-0.033533	0.0273112	0.0961914	0.314209	-1.04517	-0.0250614	-0.981518	-0.189509	-0.00901422	0.00661754	0.175274	-9.09393	0.0133941	0.0155582	-0.0187723	-0.117432	-0.180908	1.10913	-0.130409	0.783988	-0.600245	-0.0897866	-2.69367	-1.34062	-8.26247	-0.133435	0.0933719	-0.0359132	-0.106934	0.130371	1.06152	-0.302188	0.210979	-0.919801	0.13467	-4.72945	-4.16463	-7.35663	-0.0406145	-0.01721	0.0139525	0.0805664	0.467529	1.02295	-0.1307	0.09324	-0.890048	-0.42666	-2.68086	6.82144	-5.32643	0.149583	0.00829524	0.039711	-0.0878906	-0.969727	0.76001	-0.194357	0.264197	-0.902137	-0.280309	-4.87569	4.02669	-7.5223	0.00216058	0.137916	0.0607421	0.176514	-0.685303	0.879883	
13	-0.833147	-0.131213	0.474941	-0.251157	8.99624	-0.730571	5.31393	0.0106153	-0.000412051	0.00800364	-0.765137	-0.117676	-0.767334	-0.158086	-0.8303	0.390423	-0.36494	6.93713	-0.387338	-6.77598	0.0196281	0.0111357	-0.0241564	-1.04126	-0.287109	0.790527	0.192865	-0.177874	-0.529112	0.806972	-0.726465	-9.9563	3.7003	0.00795807	0.129828	-0.0573404	-0.0927734	0.904785	-0.582764	-0.607033	0.24134	0.172577	-0.737213	-1.31538	-5.53238	7.93291	0.171485	0.11339	-0.149933	0.123535	0.463867	-1.00342	0.639786	0.45647	-0.372493	-0.493515	-0.231609	9.52065	2.83669	-0.176771	-0.0294549	0.0346369	0.0661621	-0.862305	-0.705811	0.802582	0.00324162	0.00688441	-0.596493	-0.343276	1.46554	12.9942	-0.110281	0.0160169	-0.0407224	0.0981445	0.320801	-1.05176	-0.0249694	-0.981456	-0.189827	-0.0092902	0.0134889	0.177882	-9.07432	0.0158379	0.0144721	-0.0195933	-0.119385	-0.185303	1.10913	-0.130283	0.783754	-0.600629	-0.0894456	-2.61211	-0.857266	-8.21018	0.0678547	0.0173742	0.00946408	-0.109131	0.130615	1.05444	-0.303001	0.210757	-0.919514	0.13515	-4.62804	-3.58367	-7.27321	0.0636094	-0.0502141	-0.0116135	0.0808105	0.463135	1.01855	-0.128383	0.092915	-0.889915	-0.427711	-2.86145	7.31189	-5.8671	-0.123024	0.0908112	0.0214899	-0.0878906	-0.971924	0.753418	-0.193163	0.264173	-0.902107	-0.281254	-4.86688	3.92573	-7.70513	-0.0355845	0.00655065	9.95945e-05	0.169922	-0.689697	0.877441	
14	-0.833292	-0.131554	0.474288	-0.251731	9.07685	-0.422319	5.35471	0.0176201	0.0285498	0.00268351	-0.771484	-0.12207	-0.765137	-0.157662	-0.830371	0.390223	-0.365175	6.93195	-0.186313	-6.54423	-0.00147431	0.0186603	-0.0179311	-1.03467	-0.289307	0.797607	0.194383	-0.179292	-0.525658	0.80855	-0.75621	-9.00824	4.05152	0.152826	0.103954	0.0138042	-0.0925293	0.898193	-0.587158	-0.608565	0.24095	0.170734	-0.736507	-1.29044	-5.34911	7.81636	0.149593	0.108162	-0.0936652	0.123779	0.459473	-1.00537	0.640726	0.454791	-0.372456	-0.493874	0.077908	9.363	2.85177	-0.133017	-0.0426432	0.051733	0.0617676	-0.864502	-0.708008	0.8025	0.00153014	0.00697794	-0.596609	0.207503	1.06242	12.9887	-0.112154	-0.0611038	-0.0278375	0.0998535	0.329346	-1.0498	-0.0249778	-0.981451	-0.18985	-0.00933979	0.0046311	0.173366	-9.0949	0.0209596	0.0166145	-0.0181578	-0.121826	-0.178711	1.10913	-0.133533	0.782937	-0.601398	-0.0865946	-2.77174	0.149888	-7.79814	0.151095	0.0260363	-0.01227	-0.105225	0.136963	1.05908	-0.304795	0.210002	-0.918592	0.138522	-4.5285	-3.26426	-6.9264	0.126272	-0.0104778	-0.0319368	0.092041	0.472412	1.01392	-0.127835	0.0930961	-0.889397	-0.42891	-2.95261	7.36594	-5.93159	-0.106722	0.0427767	0.0153211	-0.0922852	-0.974121	0.750977	-0.192624	0.264344	-0.901979	-0.281873	-4.82193	4.11686	-7.75025	-0.0541632	0.0410286	0.00399452	0.167725	-0.689697	0.875244	
15	-0.834165	-0.132426	0.472643	-0.251477	8.8496	-0.226063	5.3393	0.0460369	0.0661648	-0.0632909	-0.766846	-0.126465	-0.771484	-0.156494	-0.830542	0.390085	-0.365436	6.92854	-0.373076	-6.81724	0.0443006	0.00316794	-0.00744456	-1.0437	-0.284912	0.795166	0.195925	-0.179801	-0.525422	0.808218	-0.807018	-9.04563	3.86454	0.01719	0.0937132	-0.0770426	-0.0947266	0.900391	-0.587158	-0.609403	0.240803	0.169542	-0.736137	-1.2732	-5.27076	7.77522	0.0905912	0.0748824	-0.0456932	0.126221	0.455078	-1.00537	0.63947	0.455095	-0.374275	-0.493847	0.216078	8.72577	2.66574	0.179744	-0.0557898	-0.014565	0.0576172	-0.864502	-0.705811	0.801851	0.00386507	0.00319041	-0.597502	-0.134871	1.76999	13.1513	0.180848	-0.0347222	-0.0671174	0.09375	0.322998	-1.05176	-0.0249778	-0.981451	-0.18985	-0.00933979	0.0046311	0.173366	-9.0949	0.0209596	0.0166145	-0.0181578	-0.121826	-0.178711	1.10913	-0.132726	0.783138	-0.601169	-0.0876034	-2.66007	0.0828384	-7.67043	-0.0973229	-0.00700417	-0.026293	-0.107178	0.136963	1.05444	-0.304605	0.210583	-0.918942	0.13571	-4.67402	-3.42909	-6.91401	-0.175287	-0.00516307	-0.0039086	0.0854492	0.463135	1.02075	-0.129313	0.0923638	-0.889545	-0.428319	-2.71601	6.71213	-5.27855	0.111712	-0.0465558	-0.00624455	-0.0927734	-0.965332	0.750977	-0.19198	0.264362	-0.902146	-0.281762	-4.87097	3.70172	-7.76505	0.000463534	0.0577701	0.00915595	0.174316	-0.689697	0.879883	
16	-0.835588	-0.132013	0.470603	-0.250797	8.61305	-0.208028	5.42025	-0.0291996	0.0849012	-0.0245279	-0.757812	-0.128418	-0.777832	-0.155753	-0.830664	0.39025	-0.365299	6.85028	-0.467426	-6.58415	0.0111697	-0.00900791	-0.00111775	-1.03711	-0.287109	0.797607	0.198484	-0.180247	-0.526495	0.806795	-0.700306	-9.45443	3.68471	-0.0173014	0.0528804	-0.103303	-0.0905762	0.902588	-0.5896	-0.612089	0.237608	0.164364	-0.73612	-1.37055	-5.51795	7.67583	0.257181	0.0539896	-0.0508983	0.126709	0.444336	-1.01392	0.636925	0.456798	-0.378122	-0.492632	0.304344	9.77532	3.22954	0.107171	-0.0825486	0.000194424	0.0537109	-0.87793	-0.694336	0.801303	0.00136102	0.00184456	-0.598255	0.301003	0.772604	13.2976	0.0217641	-0.096962	-0.069796	0.0895996	0.320801	-1.05615	-0.0245453	-0.98136	-0.190366	-0.00949119	0.019074	0.160294	-9.06057	0.0146216	0.0110629	-0.0184255	-0.124023	-0.178711	1.11108	-0.129062	0.78403	-0.600584	-0.0890992	-2.52756	-0.860263	-7.89929	-0.00302579	0.0700679	-0.00232762	-0.115723	0.132568	1.05908	-0.304793	0.210832	-0.918841	0.135584	-4.52413	-3.7838	-7.08525	0.0713564	-0.0138993	-0.0496069	0.0852051	0.467773	1.01636	-0.130002	0.0920125	-0.890187	-0.42685	-3.02232	7.49051	-5.63615	0.042459	-0.0219231	0.00220743	-0.0859375	-0.967529	0.750977	-0.193531	0.264149	-0.9031	-0.277816	-4.91429	4.15879	-7.65657	0.113663	-0.0195721	-0.0344107	0.171875	-0.685303	0.886719	
17	-0.836439	-0.13106	0.469511	-0.250504	8.67086	-0.122669	5.58519	-0.0326502	0.0445226	-0.00992635	-0.758301	-0.119629	-0.775879	-0.154538	-0.830998	0.39052	-0.364767	6.95264	-0.296024	-6.87979	0.0104542	-0.024785	-0.00275664	-1.03931	-0.284912	0.797607	0.200532	-0.178791	-0.522779	0.809026	-0.733391	-9.51564	3.78319	0.323527	-0.00602343	-0.0265969	-0.0947266	0.894043	-0.603027	-0.614883	0.232083	0.1598	-0.73656	-1.346	-5.07644	7.91054	0.12386	-0.0442323	-0.0725615	0.123047	0.428955	-1.01367	0.637079	0.454858	-0.378681	-0.493796	-0.0087156	9.37484	2.79487	-0.0204496	-0.0422981	-0.0149107	0.0512695	-0.869141	-0.698975	0.800276	0.00263491	-0.00119447	-0.599625	0.159226	1.54683	13.4862	-0.0193108	-0.0431111	-0.0501776	0.083252	0.314209	-1.04517	-0.0245453	-0.98136	-0.190366	-0.00949119	0.019074	0.160294	-9.06057	0.0146216	0.0110629	-0.0184255	-0.124023	-0.178711	1.11108	-0.128119	0.783743	-0.601333	-0.0879257	-2.61074	-0.819778	-8.26329	0.00915438	0.140754	0.0366102	-0.121826	0.125977	1.06152	-0.305572	0.210692	-0.91755	0.142606	-4.76211	-3.66103	-7.12627	0.276363	0.0186502	-0.097307	0.0822754	0.483643	1.00928	-0.130649	0.0919803	-0.889387	-0.428324	-2.72051	6.99784	-5.3959	-0.0962096	-0.0106669	-0.00713802	-0.0927734	-0.965332	0.750977	-0.193554	0.264006	-0.903048	-0.278105	-4.68975	3.72811	-7.50044	-1.48447e-05	0.00731902	0.00959332	0.174316	-0.685303	0.884277	
18	-0.836601	-0.130151	0.469544	-0.250375	8.82484	-0.212345	5.65652	-0.0658605	0.0155348	0.0182629	-0.758057	-0.126221	-0.773682	-0.154018	-0.831177	0.391089	-0.363968	6.94841	-0.574761	-7.02622	-0.000172977	-0.0245868	-0.00118323	-1.04346	-0.287109	0.804688	0.201807	-0.177674	-0.520897	0.810168	-0.715157	-8.78201	3.81145	0.207517	-0.0175427	-0.080799	-0.101074	0.889893	-0.605225	-0.616158	0.230747	0.16181	-0.735475	-1.49902	-4.79603	8.1849	-0.0850425	-0.0781527	-0.114217	0.122314	0.439941	-1.01611	0.635975	0.455199	-0.381213	-0.492956	0.669857	9.66495	3.11072	0.108709	-0.0364756	0.0369319	0.046875	-0.873535	-0.692139	0.79974	0.00239123	-0.00233298	-0.600337	0.275876	0.86328	13.6252	0.120752	-0.0431986	-0.0609178	0.0830078	0.320801	-1.04956	-0.0242927	-0.981269	-0.190861	-0.00961117	0.0133937	0.176998	-9.08472	0.0133248	0.0088667	-0.0188517	-0.121826	-0.178711	1.10693	-0.126139	0.783685	-0.602	-0.0867292	-2.8266	-0.10417	-7.97359	-0.0279136	0.0961407	0.0140487	-0.121826	0.126221	1.05688	-0.305842	0.210271	-0.916956	0.146415	-4.58339	-3.35014	-7.0728	0.298599	0.0339203	-0.102886	0.0842285	0.49292	1.00684	-0.130809	0.0916686	-0.88933	-0.42846	-2.9245	6.59192	-5.30462	-0.00267112	-0.00627547	0.00864489	-0.0900879	-0.974121	0.755615	-0.193905	0.263729	-0.903066	-0.278066	-4.91057	3.79248	-7.39816	0.0176672	-0.0244686	0.00618614	0.171875	-0.680908	0.886475	
19	-0.836246	-0.128372	0.470835	-0.250057	8.85197	-0.401411	5.52168	-0.0686161	-0.0611644	0.021264	-0.762451	-0.124023	-0.775879	-0.153366	-0.831292	0.39126	-0.363797	6.97234	-0.172256	-6.70579	-0.0104967	0.00868185	-0.0114427	-1.03955	-0.27832	0.802002	0.20347	-0.177276	-0.525173	0.807073	-0.812392	-9.70648	4.07259	-0.232583	0.0058778	-0.103741	-0.105713	0.902832	-0.591797	-0.617371	0.230096	0.165411	-0.733858	-1.21063	-5.68771	8.45522	-0.060606	-0.0744526	-0.0925389	0.111328	0.4375	-1.01392	0.63583	0.455461	-0.382112	-0.492204	0.0207042	9.73834	2.71364	0.0108672	-0.0139341	0.0243324	0.0427246	-0.875732	-0.696533	0.800072	0.00166529	-0.00342388	-0.599892	0.35922	1.41199	13.4976	-0.0749874	-0.0315484	0.0339729	0.0769043	0.312012	-1.04297	-0.0242417	-0.981216	-0.191137	-0.00966102	0.0101652	0.17948	-9.07206	0.0164404	0.00869317	-0.0190802	-0.119629	-0.183105	1.11353	-0.128827	0.785251	-0.600258	-0.080463	-2.60098	-0.593924	-8.01169	0.118628	0.0795839	-0.118813	-0.128906	0.136963	1.05444	-0.30483	0.211084	-0.91725	0.145513	-4.84762	-3.55134	-7.23401	-0.18669	0.0253455	-0.0295117	0.0795898	0.488281	1.00708	-0.130383	0.0915039	-0.889395	-0.428491	-2.81604	6.95672	-5.35599	0.0159275	0.035717	0.0141909	-0.090332	-0.969727	0.755615	-0.195254	0.262808	-0.903427	-0.276816	-4.73294	3.85704	-7.20825	0.101099	0.0161177	0.0219099	0.174072	-0.680908	0.888916	
20	-0.835381	-0.126575	0.473011	-0.249757	9.00589	-0.779997	5.29023	-0.0805738	-0.0760588	0.0489035	-0.769531	-0.115479	-0.775879	-0.153703	-0.831164	0.391534	-0.363653	6.91455	-0.423378	-6.83894	-0.0465473	0.0174782	-0.00893727	-1.03735	-0.27832	0.799805	0.203753	-0.177207	-0.526815	0.805946	-0.676922	-9.5056	4.05375	-0.146278	-0.0156938	-0.0596733	-0.107666	0.89624	-0.589355	-0.617932	0.22907	0.166713	-0.733413	-1.19849	-5.57808	8.40709	0.0289266	-0.0290702	-0.0429187	0.111084	0.441895	-1.01392	0.636069	0.45533	-0.382928	-0.491383	0.420615	9.52356	3.17099	-0.00197556	0.0223705	0.00958278	0.0427246	-0.873535	-0.694336	0.800666	-8.59599e-06	-0.00420903	-0.599096	0.132741	0.912053	13.6747	0.0393307	-0.0575957	0.0191952	0.0769043	0.314209	-1.04712	-0.0242845	-0.981208	-0.191176	-0.00968214	0.0323334	0.170475	-9.09618	0.0189963	0.0142152	-0.0185989	-0.124023	-0.180908	1.11328	-0.129231	0.785636	-0.599871	-0.0789277	-2.55463	-0.666739	-8.10242	0.0975297	0.0922627	-0.0798287	-0.126709	0.13916	1.05664	-0.304498	0.211165	-0.917676	0.143391	-4.60095	-4.07585	-7.32594	-0.00190402	0.00183005	-0.00434245	0.079834	0.483643	1.01147	-0.130387	0.0908263	-0.889916	-0.42755	-2.8667	6.86864	-5.25501	0.0936019	0.000263147	0.0422417	-0.0881348	-0.967529	0.755615	-0.194902	0.262466	-0.903629	-0.27673	-4.78297	4.10618	-7.21699	0.0112228	0.0287752	0.0295169	0.171875	-0.683105	0.886475	
21	-0.835165	-0.126233	0.473487	-0.249749	9.06622	-0.610349	5.30884	-0.000981482	0.00239931	-0.0113427	-0.767334	-0.115479	-0.773682	-0.153586	-0.831008	0.391901	-0.363662	6.87709	-0.36183	-6.72116	-0.000852724	0.0197788	-0.00458751	-1.0437	-0.284912	0.797607	0.205953	-0.175528	-0.524203	0.807456	-0.656556	-9.47295	4.0013	0.266159	-0.0291096	-0.0282843	-0.109863	0.896484	-0.593994	-0.618351	0.228461	0.166286	-0.733346	-1.22823	-5.46859	8.45131	0.0641515	-0.000807005	-0.0275242	0.106934	0.4375	-1.01172	0.636799	0.45489	-0.382196	-0.491414	0.0860056	9.22481	2.63437	-0.0792717	0.048368	-0.00167876	0.0405273	-0.873535	-0.692139	0.800951	0.000390904	-0.0045591	-0.598712	0.338972	1.32114	13.3767	0.0448419	0.0111305	0.0223921	0.074707	0.316406	-1.04517	-0.0243171	-0.981199	-0.191212	-0.0097142	0.00894928	0.165953	-9.07116	0.0189227	0.0144861	-0.0197868	-0.121826	-0.180908	1.10693	-0.128972	0.785432	-0.600119	-0.0795033	-2.50476	-0.637897	-7.77976	-0.0932635	0.00600402	0.0145688	-0.131104	0.13916	1.05664	-0.30585	0.210888	-0.917185	0.144063	-4.63942	-3.98803	-7.06474	0.0723258	-0.0709953	-0.00952739	0.0869141	0.483643	1.01147	-0.12959	0.0901462	-0.890304	-0.427128	-2.75124	6.99922	-5.46066	-0.0320322	0.0645518	0.0314169	-0.0993652	-0.963135	0.753174	-0.194161	0.262131	-0.903753	-0.277162	-4.67836	3.85248	-7.31314	0.0109492	0.0291827	0.0122112	0.167236	-0.680908	0.886475	
22	-0.835477	-0.126025	0.472962	-0.249805	8.91419	-0.542353	5.35542	0.00620333	0.0208822	0.00391283	-0.764893	-0.117676	-0.778076	-0.153579	-0.830839	0.392374	-0.363542	6.91154	-0.698601	-6.94459	-0.0151338	0.00960911	0.000876198	-1.04126	-0.287109	0.797607	0.206642	-0.175732	-0.524033	0.807346	-0.599092	-9.25425	3.99736	-0.121323	0.0417989	-0.0181414	-0.111816	0.896484	-0.593994	-0.61873	0.227798	0.165329	-0.733449	-1.26046	-5.82	8.42986	0.10968	0.0214323	0.000993305	0.107178	0.435303	-1.01392	0.636855	0.45496	-0.382514	-0.49103	0.411563	9.55352	2.71052	0.0251406	0.00952166	0.0155994	0.0402832	-0.869141	-0.694336	0.801614	0.000710824	-0.00495251	-0.597821	0.366695	1.12722	13.5848	0.0770732	0.0186053	0.0165515	0.0749512	0.307861	-1.04907	-0.0243417	-0.981195	-0.19123	-0.00978525	0.0106415	0.1789	-9.08449	0.0190517	0.0177912	-0.0177862	-0.119629	-0.178711	1.10693	-0.124622	0.785468	-0.601121	-0.0785104	-2.58934	-0.518812	-8.18514	-0.0649012	0.196664	0.0119014	-0.128418	0.123779	1.06177	-0.309003	0.209391	-0.916161	0.146021	-4.60271	-3.73763	-6.99095	0.105409	-0.0866029	0.0223203	0.0913086	0.488281	1.00708	-0.128329	0.0898081	-0.890715	-0.426724	-2.73218	7.04193	-5.41783	0.0902892	0.0374483	0.0405656	-0.090332	-0.965332	0.76001	-0.19272	0.261847	-0.904245	-0.276831	-4.81945	4.01742	-7.49374	0.00745032	0.0654238	0.0268009	0.165283	-0.685303	0.884277	
23	-0.835625	-0.125316	0.472651	-0.250257	8.96289	-0.560366	5.46821	-0.0275328	0.0131498	0.032373	-0.760986	-0.111084	-0.778076	-0.153866	-0.830665	0.392553	-0.363624	6.99033	-0.241791	-6.8479	-0.030234	0.0286022	-0.0182228	-1.0415	-0.282715	0.792725	0.205715	-0.176834	-0.524099	0.807299	-0.848973	-9.52916	3.76622	0.0552645	0.00466149	0.0584004	-0.112061	0.898682	-0.596191	-0.620738	0.22454	0.158805	-0.734198	-1.24655	-4.88975	8.59963	0.240677	0.0945638	0.00599507	0.114258	0.424561	-1.01807	0.637033	0.456397	-0.383282	-0.488862	0.285648	9.42716	2.76308	0.101737	0.0302578	0.039513	0.0405273	-0.875732	-0.6875	0.802046	0.000801746	-0.00530163	-0.597239	0.583274	1.50736	13.3332	-0.0552215	5.50147e-05	0.0156907	0.0791016	0.314209	-1.05151	-0.0239843	-0.98114	-0.191535	-0.0101389	0.0324607	0.177347	-9.09041	0.0215355	0.019738	-0.0181196	-0.115234	-0.183105	1.10913	-0.125186	0.785927	-0.600892	-0.07467	-2.5332	-0.441372	-8.23883	0.1728	0.0871498	-0.110693	-0.139893	0.13916	1.052	-0.309872	0.20837	-0.916724	0.14205	-4.59166	-2.98161	-6.87423	-0.258841	-0.029089	0.0985185	0.0915527	0.481689	1.00488	-0.127091	0.0890991	-0.891396	-0.42582	-2.85843	7.06409	-5.61703	0.0124572	0.0588139	0.0383853	-0.097168	-0.965332	0.764648	-0.191072	0.261721	-0.9044	-0.277587	-4.7953	4.12929	-7.76527	-0.0470967	0.0579403	0.0214872	0.160645	-0.680908	0.884277	
24	-0.835462	-0.125087	0.472703	-0.250815	8.812	-0.547058	5.37181	0.0203559	-0.00995922	0.0114426	-0.763184	-0.111084	-0.775879	-0.15334	-0.830469	0.392443	-0.364412	6.91423	-0.530053	-7.03076	0.0413608	0.0295143	-0.00294565	-1.03906	-0.287109	0.79541	0.205634	-0.177824	-0.522965	0.807837	-0.539539	-9.63449	4.14637	0.0540243	0.0240955	0.0594703	-0.105713	0.905029	-0.596436	-0.621656	0.22453	0.156239	-0.733975	-1.40181	-4.97189	8.3248	0.0360593	0.0698259	-0.0190072	0.112305	0.419922	-1.01807	0.637064	0.457038	-0.384038	-0.487627	0.34031	9.91357	2.76149	0.015723	0.0393465	0.00519028	0.045166	-0.880127	-0.696533	0.802147	0.00137605	-0.00623577	-0.597092	0.0582167	1.79255	13.4919	0.013299	-0.00821508	-0.000997127	0.0771484	0.307861	-1.05347	-0.0239825	-0.981123	-0.191615	-0.010287	0.0253325	0.163455	-9.0579	0.0195392	0.0170031	-0.0198744	-0.123779	-0.183105	1.10913	-0.128621	0.78639	-0.599847	-0.0723319	-2.37223	-0.779594	-7.99055	0.0960786	-0.0180793	-0.0620925	-0.14209	0.143555	1.05444	-0.307653	0.208659	-0.918775	0.132903	-4.7625	-4.26324	-7.29724	-0.266684	0.0254961	0.0508943	0.097168	0.45874	1.01196	-0.125965	0.0890271	-0.891743	-0.425443	-2.72373	6.92194	-5.60974	0.0257981	0.0467748	0.0174933	-0.0996094	-0.960938	0.764404	-0.190242	0.261787	-0.904637	-0.277321	-4.81242	3.94423	-7.83888	0.0443684	0.031838	-0.00842958	0.162842	-0.683105	0.884277	
25	-0.835422	-0.125003	0.472431	-0.251504	8.84057	-0.574712	5.38352	0.0160732	0.0112953	0.0274064	-0.762939	-0.113281	-0.780273	-0.153928	-0.830231	0.392325	-0.364834	6.9513	-0.378642	-6.6749	-0.0177042	0.0355133	-0.0159468	-1.0459	-0.280518	0.797363	0.204146	-0.178762	-0.522879	0.808064	-0.708021	-9.20977	3.93815	-0.0713856	0.0381945	0.0279567	-0.101318	0.89624	-0.598389	-0.619876	0.228515	0.159379	-0.733576	-1.18806	-5.25354	8.15458	-0.209282	0.0362745	0.0564187	0.116211	0.428955	-1.01807	0.63848	0.454949	-0.382939	-0.488593	0.423388	9.35286	2.71971	-0.10598	-0.0221075	-0.0107654	0.0424805	-0.869141	-0.692139	0.802783	-0.00112543	-0.00497382	-0.59625	0.445988	1.25021	13.4285	-0.0361295	-0.00421574	0.0153417	0.074707	0.312012	-1.04932	-0.0240548	-0.981105	-0.191693	-0.0104333	0.031006	0.163562	-9.07553	0.0182931	0.017584	-0.0196688	-0.124023	-0.178711	1.10693	-0.127603	0.78618	-0.6001	-0.074279	-2.35855	-0.900961	-7.88943	-0.148373	-0.0550356	0.0333817	-0.139648	0.136963	1.05444	-0.308766	0.206672	-0.918335	0.136423	-4.86944	-3.20289	-7.06619	0.228945	-0.0130065	-0.014481	0.0944824	0.470215	1.01172	-0.125778	0.0889039	-0.892283	-0.424389	-2.89003	7.20632	-5.64734	0.0295085	-0.00146605	0.00498866	-0.101562	-0.963379	0.764404	-0.1897	0.26194	-0.904656	-0.277485	-4.90786	3.80234	-7.87408	-0.0151635	0.0209678	-0.00191036	0.162842	-0.680908	0.88208	
26	-0.835497	-0.125312	0.471885	-0.252126	8.91604	-0.446443	5.51109	0.0239679	0.0213261	0.00304727	-0.758301	-0.119629	-0.780029	-0.153296	-0.830251	0.392235	-0.36515	6.91084	-0.274007	-6.5833	-0.00342594	0.0187149	-0.0152371	-1.0437	-0.282715	0.792725	0.203793	-0.17949	-0.523415	0.807644	-0.69126	-9.58676	4.01347	-0.0659113	0.0332306	0.0352188	-0.0969238	0.902588	-0.596436	-0.620093	0.2278	0.156684	-0.734194	-1.40072	-4.57179	8.31979	0.099886	0.0455107	0.0431008	0.121094	0.422363	-1.02246	0.637797	0.45565	-0.383206	-0.488621	0.141327	9.38068	2.54939	0.0515251	0.0119828	-0.012286	0.0427246	-0.875732	-0.696533	0.802688	-0.000568548	-0.00565036	-0.596372	0.209434	1.70557	13.2272	-0.0230874	0.0078935	-0.0253277	0.0749512	0.309814	-1.04932	-0.0240598	-0.981093	-0.191742	-0.0105873	0.0371422	0.163057	-9.09317	0.02332	0.0175066	-0.0193539	-0.126221	-0.180908	1.10913	-0.122053	0.784299	-0.602702	-0.0820287	-2.61829	-0.274784	-8.2495	-0.0602958	-0.0153019	0.0314401	-0.132568	0.121826	1.05713	-0.309517	0.205983	-0.918059	0.137612	-4.75894	-3.41003	-7.12968	0.0354108	-0.00164302	-0.0205363	0.0939941	0.477051	1.00952	-0.126025	0.0888754	-0.89216	-0.424581	-2.72698	7.2154	-5.74159	-0.0193486	0.00600836	0.000354549	-0.097168	-0.963135	0.76001	-0.190692	0.26169	-0.904654	-0.277048	-4.75514	4.07097	-7.83471	0.014577	-0.0329257	-0.00894778	0.160889	-0.6875	0.891113	
27	-0.835544	-0.12526	0.471743	-0.25226	8.83606	-0.505902	5.48735	0.00582962	0.00851584	0.0044361	-0.760742	-0.113281	-0.778076	-0.153336	-0.830169	0.39246	-0.365078	6.8944	-0.659463	-6.93224	0.00840436	0.0120338	-0.00840648	-1.0437	-0.282715	0.799805	0.202905	-0.179499	-0.522697	0.80833	-0.72665	-9.29728	4.01255	0.0654283	-0.0310711	0.0756623	-0.0969238	0.89624	-0.60083	-0.618586	0.229201	0.157247	-0.734909	-1.38632	-5.08016	7.96923	-0.00671909	0.0135812	0.0510979	0.12085	0.424561	-1.02026	0.636359	0.456526	-0.38452	-0.488647	0.552585	9.4011	2.81873	0.0424716	-0.0331756	-0.050383	0.0405273	-0.87793	-0.692139	0.802129	0.00021018	-0.0065052	-0.597115	0.254647	1.02823	13.5919	0.167177	0.018831	-0.0711174	0.0727539	0.312012	-1.04492	-0.0240598	-0.981093	-0.191742	-0.0105873	0.0371422	0.163057	-9.09317	0.02332	0.0175066	-0.0193539	-0.126221	-0.180908	1.10913	-0.125872	0.784305	-0.602084	-0.080726	-2.54753	-0.483521	-8.05625	0.156687	-0.0629351	-0.0707719	-0.128418	0.128418	1.0498	-0.309212	0.206008	-0.918088	0.138071	-4.62411	-3.25749	-7.02957	0.033685	0.036663	-0.0364878	0.0964355	0.474854	1.00952	-0.126958	0.0887006	-0.891644	-0.425423	-2.77018	6.78507	-5.65422	-0.0402486	-0.0427761	-0.0109419	-0.097168	-0.960938	0.762207	-0.190692	0.26169	-0.904654	-0.277048	-4.75514	4.07097	-7.83471	0.014577	-0.0329257	-0.00894778	0.160889	-0.6875	0.891113	
28	-0.835723	-0.124774	0.471869	-0.251672	8.83866	-0.528856	5.50309	-0.0314654	-0.00263374	-0.00437448	-0.76123	-0.104492	-0.778076	-0.153897	-0.830074	0.392728	-0.364771	6.90708	-0.317868	-6.66721	-0.0602906	0.0176993	-0.0224391	-1.0437	-0.284912	0.804688	0.202346	-0.17933	-0.521106	0.809534	-0.708122	-9.12846	3.95407	0.0143026	-0.00738931	0.0180508	-0.0991211	0.89624	-0.60083	-0.618256	0.229269	0.157168	-0.735183	-1.21951	-4.85112	8.22641	-0.0436041	0.00874527	0.0220744	0.125488	0.420166	-1.01807	0.635708	0.456913	-0.384675	-0.48901	0.400054	9.55973	2.77029	0.0266633	-0.0247705	-0.0432883	0.0407715	-0.880127	-0.685303	0.801844	0.000424837	-0.00603468	-0.597503	0.605617	1.25035	13.5896	-0.0475437	0.0386404	-0.0332067	0.074707	0.312012	-1.04712	-0.0235636	-0.98099	-0.192315	-0.0109031	0.0618018	0.158781	-9.0774	0.0213861	0.0139036	-0.0200508	-0.121826	-0.180908	1.10913	-0.12771	0.783992	-0.601884	-0.0823603	-2.55109	-0.57402	-7.97772	0.00735649	-0.0648885	-0.000190816	-0.126465	0.128174	1.05688	-0.308875	0.206547	-0.918177	0.137422	-4.83566	-3.69897	-7.19781	-0.023961	-0.0148475	-0.0391894	0.0942383	0.474609	1.00952	-0.128269	0.0879987	-0.891904	-0.424631	-2.90774	7.12817	-5.44704	0.00773923	-0.050964	0.0114147	-0.097168	-0.960938	0.764404	-0.192691	0.260762	-0.904504	-0.27703	-4.85561	4.07318	-7.53515	0.0299186	-0.0540501	-0.00544133	0.156006	-0.678711	0.886475	
29	-0.8357	-0.124715	0.472111	-0.251321	8.68645	-0.55233	5.38632	-0.0189486	-0.0243178	-0.022767	-0.763184	-0.111084	-0.778076	-0.153815	-0.830056	0.39271	-0.364864	6.94822	-0.560174	-6.90141	-0.00144129	0.0205957	-0.016718	-1.04761	-0.291504	0.80249	0.201983	-0.179011	-0.522739	0.808642	-0.797461	-9.2149	4.08245	-0.139715	-0.0458027	-0.0311685	-0.0991211	0.902588	-0.593994	-0.617852	0.229715	0.158252	-0.73515	-1.52557	-4.79793	7.7783	-0.0914427	-0.0249999	0.00869072	0.125244	0.428955	-1.01587	0.635246	0.456909	-0.38493	-0.489414	0.557086	9.36802	2.80782	0.013379	-0.0350534	-0.0448713	0.0449219	-0.875732	-0.6875	0.801496	0.00146244	-0.00631745	-0.597965	0.202453	1.21639	13.4336	0.0823295	0.0456501	-0.0623978	0.0749512	0.309814	-1.05151	-0.0235828	-0.980982	-0.192351	-0.0108844	0.0406203	0.161294	-9.11457	0.0208327	0.0111085	-0.0187659	-0.12207	-0.176514	1.10254	-0.12771	0.783992	-0.601884	-0.0823603	-2.55109	-0.57402	-7.97772	0.00735649	-0.0648885	-0.000190816	-0.126465	0.128174	1.05688	-0.309926	0.206509	-0.917755	0.137936	-4.85092	-3.80993	-7.28483	0.0667003	-0.0724723	-0.025791	0.101074	0.477051	1.00732	-0.128917	0.0879632	-0.891397	-0.425505	-2.91636	7.12267	-5.70188	-0.0727942	-0.0471196	-0.013743	-0.0949707	-0.965332	0.762207	-0.193249	0.26058	-0.90433	-0.277381	-4.75408	3.86704	-7.4066	-0.0122615	-0.0484453	-0.00342773	0.169678	-0.685303	0.88208	
30	-0.835708	-0.124638	0.472491	-0.250618	8.95465	-0.61179	5.49894	-0.0161029	-0.0144236	-0.0121923	-0.760742	-0.113281	-0.775879	-0.154429	-0.829922	0.393073	-0.36452	6.97827	-0.259577	-6.74778	-0.076898	0.0200336	-0.0188789	-1.04785	-0.289307	0.804688	0.200262	-0.177959	-0.524368	0.808248	-0.791751	-8.99878	3.80823	-0.0266558	-0.0865335	0.0186425	-0.101318	0.902832	-0.591797	-0.618724	0.226657	0.156674	-0.735704	-1.12426	-6.05987	7.62811	0.300268	-0.0316168	0.0159089	0.116943	0.413574	-1.01562	0.635216	0.456351	-0.384037	-0.490673	-0.0656092	9.57659	2.71142	-0.0713398	-0.0272019	-0.0592321	0.046875	-0.873535	-0.680664	0.802106	0.000108649	-0.00517001	-0.597159	0.193445	1.10248	12.9354	-0.113179	-0.00352218	0.0590712	0.0793457	0.309814	-1.04492	-0.0236367	-0.980961	-0.192449	-0.010941	0.0480265	0.165987	-9.09762	0.0195523	0.0149377	-0.0190877	-0.126221	-0.178711	1.10693	-0.128364	0.784579	-0.601261	-0.0802693	-2.62119	-0.52121	-8.05691	0.0458666	0.0380644	-0.0371362	-0.126465	0.132568	1.05225	-0.312244	0.206005	-0.916898	0.139157	-4.76185	-3.46979	-7.01628	0.0446019	-0.0679855	-0.0072056	0.0986328	0.477051	1.00952	-0.129918	0.0878542	-0.891225	-0.425583	-2.6758	7.05001	-5.33312	0.0244409	-0.0237149	-0.00850579	-0.0927734	-0.963135	0.76001	-0.193751	0.260118	-0.904595	-0.2766	-4.81857	4.07797	-7.15609	0.0299441	0.00032931	0.00551614	0.169678	-0.683105	0.888916	
31	-0.835576	-0.125143	0.472969	-0.249904	8.83467	-0.572738	5.41162	0.0118617	-0.0387634	-0.0607627	-0.769775	-0.111084	-0.778076	-0.155215	-0.829733	0.393543	-0.364109	6.93021	-0.612191	-6.99608	-0.0513024	0.00629843	-0.0158456	-1.04565	-0.287109	0.800049	0.201097	-0.173927	-0.523873	0.809238	-0.804929	-9.9834	3.74792	0.154703	-0.117958	-0.102851	-0.109863	0.900635	-0.593994	-0.621987	0.214398	0.144823	-0.739048	-1.51981	-4.44787	7.92785	0.6492	-0.0932436	0.00575276	0.120361	0.389404	-1.02856	0.634694	0.456854	-0.384385	-0.490607	0.656976	9.3204	2.83846	0.0741351	0.0314059	0.000298502	0.0473633	-0.882324	-0.689697	0.803063	-0.0017843	-0.00494848	-0.595871	0.393898	1.25788	13.0813	-0.0804258	-0.0344835	0.0477786	0.0769043	0.312012	-1.04297	-0.0237137	-0.980947	-0.192515	-0.0109149	0.0566916	0.153589	-9.06727	0.0194713	0.0114885	-0.02048	-0.124023	-0.178711	1.10913	-0.130619	0.785248	-0.600231	-0.0777583	-2.61797	-0.435217	-8.25864	0.172363	0.0415386	-0.120874	-0.124756	0.13916	1.052	-0.313438	0.20596	-0.917207	0.134421	-4.89746	-3.92924	-7.15535	-0.222304	-0.0663762	0.0688396	0.106201	0.463379	1.01416	-0.130192	0.08792	-0.890949	-0.426062	-2.69797	6.79406	-5.63277	0.00405917	0.0208004	-0.0111106	-0.0927734	-0.960938	0.76001	-0.194123	0.260377	-0.904508	-0.27638	-4.56192	4.01449	-7.27084	0.0221217	0.0104584	-0.0249199	0.169678	-0.683105	0.888916	
32	-0.835588	-0.1256	0.473246	-0.249109	8.90204	-0.44743	5.40612	-0.0098704	-0.0182703	-0.0166442	-0.765137	-0.113281	-0.775879	-0.15594	-0.829741	0.393715	-0.363595	6.91722	-0.399068	-6.77115	-0.0551557	-0.00171367	-0.0315638	-1.052	-0.293701	0.800293	0.200634	-0.170248	-0.521666	0.811558	-0.735627	-8.4904	4.08231	0.0489911	-0.139722	-0.0114655	-0.118408	0.894531	-0.605225	-0.619716	0.214124	0.150677	-0.739864	-1.38968	-4.71738	8.80664	-0.45832	-0.170329	0.0608033	0.104492	0.393555	-1.01978	0.634573	0.456833	-0.386281	-0.489294	0.456207	9.60811	2.83214	0.0215644	-0.0142985	0.0617762	0.0410156	-0.884521	-0.685303	0.803142	-0.00300476	-0.00585052	-0.595751	0.429401	1.42268	13.3415	-0.0264332	-0.0585063	-0.016715	0.0788574	0.316406	-1.04517	-0.0234851	-0.980891	-0.192822	-0.0109786	0.0490177	0.152925	-9.07947	0.0194781	0.0108245	-0.0203153	-0.126221	-0.176514	1.10693	-0.127108	0.784479	-0.600833	-0.086231	-2.6904	-0.526542	-7.86585	-0.264	-0.267157	0.0980429	-0.121826	0.125977	1.05933	-0.313446	0.205055	-0.917968	0.130533	-4.78063	-3.45844	-6.9226	-0.14176	-0.010728	0.0547414	0.108643	0.458984	1.01416	-0.130004	0.0881426	-0.891821	-0.424247	-2.88297	7.00535	-5.34805	0.0775686	0.0145583	0.00193867	-0.0949707	-0.960938	0.762207	-0.193087	0.260597	-0.904919	-0.27555	-4.84301	3.79554	-7.31901	0.0312097	0.0647358	-0.0029149	0.16748	-0.685303	0.888916	
33	-0.835357	-0.125811	0.473747	-0.248824	8.9664	-0.532916	5.36685	0.00720985	-0.0340518	-0.00402001	-0.76709	-0.12207	-0.775879	-0.155714	-0.830164	0.39339	-0.363077	6.90609	-0.464549	-6.73895	0.0152467	0.00299626	-0.0372082	-1.04541	-0.293701	0.80249	0.199085	-0.169615	-0.529987	0.806666	-0.630766	-10.1972	4.01262	-0.394373	-0.0919661	-0.064919	-0.122803	0.909668	-0.585205	-0.617474	0.214352	0.154515	-0.740881	-1.11241	-5.32479	8.98626	0.0204386	-0.0873863	0.0433855	0.11084	0.404785	-1.02441	0.634998	0.455609	-0.386918	-0.489381	0.317556	9.51073	2.68179	0.00882025	-0.0470342	-0.00526264	0.0429688	-0.880127	-0.689697	0.802804	-0.00212032	-0.00881021	-0.596174	0.280648	0.574137	13.5391	0.268903	-0.0601927	-0.0546594	0.0705566	0.312012	-1.04712	-0.0232563	-0.980838	-0.193117	-0.0110364	0.043994	0.143848	-9.07854	0.0194872	0.0104587	-0.020084	-0.123779	-0.183105	1.11133	-0.126758	0.783121	-0.602007	-0.0907817	-2.70257	-0.65803	-8.00501	-0.0987342	-0.0714089	0.0512011	-0.112793	0.117432	1.06177	-0.315346	0.203784	-0.917839	0.128845	-4.93336	-3.3455	-6.88602	0.0502345	-0.0878218	0.0532096	0.11084	0.463379	1.01636	-0.12947	0.0881425	-0.892207	-0.423598	-2.68604	6.9439	-5.44167	0.0228327	0.0718517	0.004036	-0.0930176	-0.95874	0.764404	-0.192756	0.26096	-0.904759	-0.275966	-4.7147	3.83496	-7.58297	-0.0798205	-0.00533167	-0.0109709	0.167236	-0.680908	0.891113	
34	-0.835095	-0.125768	0.473977	-0.249286	9.00907	-0.456356	5.35636	0.0144242	-0.0246802	0.0359342	-0.764648	-0.124268	-0.773682	-0.155466	-0.830581	0.393255	-0.362375	7.01082	-0.570483	-7.04425	-0.000747937	-0.0130662	-0.0290037	-1.04761	-0.291504	0.807129	0.198009	-0.169403	-0.531577	0.805929	-0.354397	-10.4325	3.84533	-0.1429	-0.0870459	0.0302777	-0.118408	0.903076	-0.578125	-0.615276	0.215419	0.157223	-0.74183	-1.20926	-5.24798	8.78095	-0.0995027	-0.0304427	0.0864249	0.104248	0.402344	-1.01758	0.632587	0.459134	-0.389275	-0.487334	0.466587	9.46539	2.78418	0.252359	0.0356396	-0.0372525	0.0432129	-0.886719	-0.682861	0.802995	0.00242019	-0.0133629	-0.595831	0.603439	1.63614	14.0684	0.255768	-0.0307846	0.00569561	0.0668945	0.29248	-1.04883	-0.0233171	-0.980828	-0.193161	-0.010999	0.0566246	0.148592	-9.07995	0.0182206	0.00894705	-0.0203469	-0.124268	-0.174316	1.11108	-0.129165	0.781904	-0.603157	-0.0902457	-2.67562	-0.38569	-7.94553	0.114213	-0.02504	0.0251342	-0.113281	0.124023	1.06152	-0.316188	0.20323	-0.917678	0.128797	-4.79919	-3.06176	-6.81427	0.0317826	-0.0547665	0.0275323	0.120361	0.461426	1.01416	-0.128725	0.0885033	-0.891976	-0.424236	-2.94676	7.13841	-5.73912	-0.0683914	0.00329091	-0.000244676	-0.0998535	-0.95459	0.764404	-0.192609	0.261065	-0.904663	-0.276282	-4.70795	3.70137	-7.75854	-0.0270683	0.0108659	-0.00747817	0.165039	-0.683105	0.886475	
35	-0.834917	-0.125689	0.474068	-0.249752	8.93848	-0.444318	5.38014	0.00847171	-0.0103764	0.00664857	-0.764893	-0.117676	-0.775879	-0.155168	-0.830792	0.393096	-0.362192	6.90745	-0.425872	-6.79661	0.0111075	-0.00931806	-0.0305244	-1.0498	-0.295654	0.804932	0.196812	-0.16797	-0.529196	0.808086	-0.62598	-9.46512	4.15101	0.134851	-0.0685257	0.0190621	-0.116455	0.909424	-0.585205	-0.613184	0.216609	0.157138	-0.743231	-1.23119	-4.60887	9.06198	-0.111227	0.0306377	0.125706	0.108154	0.41333	-1.02002	0.631331	0.462022	-0.390733	-0.485062	0.328363	10.3065	2.78425	0.0649619	0.0463449	0.0161531	0.0432129	-0.888916	-0.671387	0.802984	0.00175214	-0.0107324	-0.595901	0.308048	1.30727	13.6154	-0.136256	0.093499	-0.0255009	0.072998	0.303467	-1.05127	-0.0231264	-0.980772	-0.193465	-0.011077	0.0444034	0.146226	-9.08726	0.0176128	0.011026	-0.0198518	-0.128174	-0.183105	1.10913	-0.129986	0.781569	-0.60349	-0.0897401	-2.77329	-0.144863	-7.85556	0.0871167	0.00957705	0.00736272	-0.106689	0.126221	1.05688	-0.316654	0.202663	-0.917396	0.130546	-4.90055	-3.20598	-6.68793	0.138819	0.0196053	-0.0325494	0.120361	0.458984	1.01196	-0.128771	0.088601	-0.891798	-0.424574	-2.84341	6.43418	-5.68417	-0.0293701	0.00730228	-0.00667477	-0.0908203	-0.954346	0.761963	-0.191809	0.260948	-0.904953	-0.275997	-4.77673	3.70212	-7.74177	0.0159786	0.0338143	0.0123165	0.167236	-0.678711	0.886475	
36	-0.834774	-0.125563	0.474295	-0.249862	8.96613	-0.458637	5.38375	-0.00519382	-0.0219545	0.0131496	-0.764893	-0.119873	-0.771484	-0.154615	-0.83112	0.393017	-0.361761	6.90545	-0.54558	-6.8884	0.0129152	-0.0043916	-0.0171592	-1.0498	-0.293457	0.814453	0.195529	-0.168221	-0.528423	0.808851	-0.619877	-9.49053	3.90879	-0.00639015	0.00865541	0.0563091	-0.116455	0.905273	-0.587158	-0.612003	0.217816	0.157263	-0.743825	-1.37332	-4.90244	8.48721	-0.077375	0.0473237	0.113263	0.11084	0.404785	-1.02002	0.63437	0.458173	-0.386202	-0.488365	0.175833	8.99631	2.51052	-0.315875	0.0157374	-0.0822045	0.0471191	-0.87793	-0.680664	0.803173	0.00408407	-0.00969812	-0.595654	0.236547	1.25427	13.5151	0.1719	0.126122	-0.0141039	0.0776367	0.299072	-1.04248	-0.0232399	-0.980756	-0.193533	-0.0110365	0.0454443	0.135932	-9.08686	0.0194219	0.00849879	-0.0211385	-0.132568	-0.183105	1.10498	-0.129077	0.782115	-0.602917	-0.0901453	-2.59933	-0.492212	-7.95462	-0.0701454	0.0422702	-0.0562586	-0.11084	0.117432	1.05713	-0.31597	0.203127	-0.917481	0.130886	-4.83412	-2.79783	-6.71118	-0.100822	0.0348346	-0.0494886	0.115723	0.456787	1.0144	-0.128897	0.0880382	-0.892691	-0.422773	-2.93426	7.40024	-5.61077	0.0617675	0.00597188	0.012012	-0.0952148	-0.954346	0.759766	-0.192163	0.260717	-0.905104	-0.275475	-4.9332	3.96778	-7.70874	-0.000867418	-0.00961229	-0.00463788	0.1604	-0.678711	0.884277	
37	-0.834191	-0.125655	0.474979	-0.250462	8.98312	-0.495026	5.39767	0.0247911	-0.028957	0.0171861	-0.765137	-0.115479	-0.771484	-0.153629	-0.831513	0.392694	-0.361628	6.96867	-0.0660173	-6.75664	0.00757228	-0.00926304	-0.0321129	-1.052	-0.293457	0.812012	0.193798	-0.169013	-0.528332	0.809162	-0.493074	-9.14351	4.02026	0.00846086	-0.0199568	0.0915088	-0.112061	0.902832	-0.5896	-0.612083	0.217027	0.152689	-0.744943	-1.28377	-4.84924	7.92413	0.191662	0.0514328	0.0600217	0.113281	0.395996	-1.02417	0.633414	0.461299	-0.386346	-0.486546	0.470478	9.39495	2.87023	0.230512	0.0996715	-0.0376273	0.043457	-0.891113	-0.680664	0.804204	0.00433734	-0.00778225	-0.594286	0.540381	1.43204	13.6409	-0.0566541	0.0767626	0.0638208	0.0795898	0.299072	-1.04883	-0.0231283	-0.9807	-0.193832	-0.0110577	0.0508154	0.13675	-9.09172	0.0188607	0.00822577	-0.0199139	-0.126221	-0.178711	1.11108	-0.126165	0.783289	-0.602354	-0.0878092	-2.72231	-0.580344	-7.98518	-0.0394814	0.153167	-0.0566766	-0.117432	0.121826	1.05688	-0.315528	0.204364	-0.917453	0.130222	-4.90172	-3.88503	-7.13706	0.0595679	0.00788419	-0.0674845	0.115723	0.456543	1.0188	-0.12952	0.0875296	-0.89194	-0.424272	-2.92344	6.85601	-5.53464	0.0230399	-0.0139556	0.0226877	-0.0930176	-0.95874	0.764404	-0.192574	0.260157	-0.9052	-0.275401	-4.79183	3.90628	-7.60977	0.0319887	-0.013265	0.0135095	0.164795	-0.676514	0.888672	
38	-0.833634	-0.125971	0.475785	-0.250628	9.00403	-0.474957	5.28168	0.00660506	-0.0480273	0.0102777	-0.771973	-0.113525	-0.769531	-0.153663	-0.831534	0.392823	-0.361427	6.84695	-0.46195	-6.85305	0.00126575	-0.000102735	-0.0136848	-1.04761	-0.291504	0.807129	0.194644	-0.168285	-0.525902	0.810691	-0.573648	-9.80633	3.77025	0.20569	0.0100262	-0.0362679	-0.114014	0.898682	-0.593994	-0.613505	0.213361	0.147812	-0.745815	-1.1276	-5.35887	7.87672	0.507704	0.029558	-0.00150481	0.11792	0.391602	-1.02417	0.632374	0.463595	-0.386969	-0.48522	0.359314	9.33125	2.60578	0.219128	0.0818426	-0.0369192	0.0498047	-0.888916	-0.678467	0.804647	0.00465919	-0.00658264	-0.593699	0.243846	1.56667	13.3419	-0.0339063	0.107305	0.0424901	0.081543	0.303467	-1.05127	-0.0231683	-0.980687	-0.193891	-0.0110639	0.0336704	0.13185	-9.08971	0.0187473	0.0123303	-0.0215092	-0.126221	-0.178711	1.10474	-0.123593	0.783269	-0.602999	-0.0872154	-2.62864	-0.528293	-8.08671	-0.113115	0.0522668	0.0367008	-0.121338	0.115234	1.06177	-0.315056	0.204217	-0.916849	0.135732	-4.91523	-3.26015	-6.99063	0.179162	0.0729214	-0.107558	0.110596	0.472656	1.00732	-0.129898	0.0872631	-0.891872	-0.424354	-2.81849	6.9607	-5.48233	-0.000726723	-0.0254483	0.00706104	-0.0952148	-0.95874	0.762207	-0.192916	0.259684	-0.905027	-0.276176	-4.85087	4.04396	-7.39155	-0.0641914	-0.0275796	0.0125228	0.162598	-0.678711	0.891113	
39	-0.833661	-0.126356	0.475894	-0.250136	9.00047	-0.425251	5.34196	3.50593e-05	-0.00250899	-0.0520385	-0.771729	-0.113281	-0.771729	-0.154451	-0.831526	0.392665	-0.361281	6.89824	-0.258738	-6.74937	-0.0313711	0.0167917	-0.0272727	-1.04736	-0.300049	0.814697	0.194321	-0.165973	-0.522291	0.813575	-1.03588	-8.13118	3.79195	0.107916	-0.111385	-0.00832055	-0.118408	0.892334	-0.595947	-0.612352	0.213318	0.148325	-0.746672	-1.47936	-3.5145	8.41108	-0.409834	-0.0545937	0.077596	0.109131	0.393799	-1.03076	0.633948	0.463031	-0.38526	-0.485064	0.224386	10.0543	2.86416	-0.226228	0.0525598	-0.00416301	0.0541992	-0.888916	-0.682861	0.806031	0.000349229	-0.00255824	-0.591867	0.390042	0.849214	13.2607	-0.172171	0.020507	0.0733906	0.0876465	0.312012	-1.04932	-0.0228896	-0.980641	-0.194152	-0.0111531	0.0482789	0.145365	-9.07622	0.0213956	0.012083	-0.0188969	-0.124023	-0.180908	1.10913	-0.123106	0.783983	-0.602653	-0.083816	-2.64829	-0.252989	-8.08192	0.0650679	0.127812	-0.0524026	-0.125977	0.117432	1.05005	-0.313929	0.204861	-0.916879	0.137165	-4.8762	-3.59542	-7.08521	0.0335222	0.0498341	-0.0645328	0.101074	0.474854	1.01392	-0.129688	0.0869038	-0.892124	-0.423962	-2.77501	7.05188	-5.65082	0.0338319	0.0230532	0.0176709	-0.0952148	-0.956543	0.764404	-0.193431	0.259506	-0.904974	-0.276157	-4.63261	4.05706	-7.45007	0.0381774	-0.00223305	-0.00945042	0.1604	-0.678711	0.893311	
40	-0.833948	-0.125946	0.475809	-0.249548	8.91974	-0.71143	5.33831	-0.0119516	0.00789648	-0.00999889	-0.769531	-0.117676	-0.765137	-0.154415	-0.831647	0.392505	-0.361191	6.83088	-0.401794	-6.87212	0.00151049	0.00368424	-0.033353	-1.04321	-0.297852	0.807373	0.192728	-0.167887	-0.53118	0.807786	-0.545151	-9.46927	4.07173	-0.5054	-0.0293983	0.0281398	-0.118408	0.905273	-0.575928	-0.610303	0.218188	0.157653	-0.74503	-1.50963	-5.3616	8.35833	-0.336877	-0.0573029	-0.0370805	0.106445	0.402344	-1.01758	0.635921	0.461088	-0.383235	-0.485936	0.434915	9.07986	2.52493	-0.0161253	0.0616071	0.00788321	0.0561523	-0.882324	-0.682861	0.806398	0.00169686	-0.00257224	-0.591365	0.206869	1.76741	13.0142	-0.0762512	0.0377089	0.0227114	0.0900879	0.307861	-1.04932	-0.0230522	-0.980619	-0.194243	-0.0111468	0.0626817	0.137357	-9.09262	0.0170034	0.0117733	-0.0190305	-0.124023	-0.180908	1.10693	-0.123563	0.784496	-0.602341	-0.0805161	-2.54536	-0.52651	-8.00425	0.0136363	0.0951561	-0.0343055	-0.132568	0.124023	1.05469	-0.313928	0.204898	-0.917121	0.135481	-4.76008	-3.81849	-7.12259	-0.0859352	-0.000445621	0.0263315	0.105957	0.472656	1.00952	-0.130256	0.0863569	-0.892326	-0.423475	-2.74075	6.89357	-5.16751	0.0397141	-0.0273789	0.0100845	-0.0974121	-0.95874	0.766602	-0.193605	0.259348	-0.904426	-0.277975	-4.87473	4.10099	-7.5974	-0.0914873	-0.0476327	0.00594322	0.16748	-0.683105	0.886475	
41	-0.834007	-0.126178	0.475381	-0.250049	8.71493	-0.658383	5.38771	0.0240722	-0.00692569	0.0235255	-0.769287	-0.12207	-0.771484	-0.154164	-0.83212	0.391763	-0.361015	6.9234	-0.427448	-6.81167	0.0175993	0.0088413	-0.0525285	-1.04102	-0.293457	0.812012	0.192005	-0.168169	-0.534772	0.805526	-0.745411	-10.2229	3.78425	-0.0516714	-0.00252953	-0.0213142	-0.114258	0.909424	-0.575928	-0.609252	0.219319	0.160532	-0.744943	-1.21036	-5.29029	8.57606	-0.122063	-0.0389322	0.0115499	0.105713	0.417725	-1.01807	0.634661	0.463362	-0.384857	-0.484135	0.529689	9.3283	2.63033	0.165359	0.00785565	0.00373575	0.0539551	-0.884521	-0.678467	0.80676	0.00140935	-0.00258568	-0.590873	0.349571	1.1882	13.2747	0.116533	0.0107914	-0.0237068	0.0856934	0.310059	-1.04932	-0.0231993	-0.980594	-0.194352	-0.0111392	0.0494778	0.142883	-9.07372	0.0157166	0.01188	-0.0195613	-0.124023	-0.180908	1.10693	-0.125591	0.78532	-0.601573	-0.0748982	-2.49905	-0.474571	-8.11719	0.195254	0.135065	-0.0876317	-0.14209	0.13916	1.0498	-0.31412	0.204077	-0.91778	0.131759	-4.92117	-3.93242	-7.01851	-0.125247	-0.0215992	0.0730178	0.115479	0.46582	1.01416	-0.130719	0.0859685	-0.892442	-0.423165	-2.96547	7.22186	-5.84397	0.0207376	-0.0157323	-0.00781713	-0.0908203	-0.956543	0.768799	-0.19505	0.259059	-0.903653	-0.279742	-4.98985	3.98972	-7.7225	-0.0158234	-0.0712948	-0.00564873	0.176514	-0.685303	0.884277	
42	-0.833567	-0.127582	0.475398	-0.250771	8.73215	-0.532237	5.41583	0.0815676	-0.0306194	-0.0191541	-0.77124	-0.124268	-0.773682	-0.153868	-0.832571	0.39096	-0.360972	6.79342	-0.409987	-6.69055	0.00625371	0.0116183	-0.0492385	-1.04761	-0.293457	0.814453	0.192171	-0.167319	-0.531692	0.807699	-0.88975	-9.93882	3.83034	0.309932	-0.0259516	0.0242992	-0.114258	0.902832	-0.580322	-0.60836	0.219525	0.160653	-0.745586	-1.09229	-4.89672	8.41913	-0.0661345	-0.00113294	0.0485331	0.105957	0.41333	-1.01562	0.633922	0.46482	-0.38579	-0.482961	0.212386	9.7037	2.542	0.0426749	0.0214477	-0.0224903	0.0541992	-0.888916	-0.673828	0.807609	0.00114077	-0.00399557	-0.589703	0.390493	1.15797	13.3154	0.00624363	-0.0492372	0.060779	0.0834961	0.307861	-1.04712	-0.0233859	-0.980573	-0.194437	-0.0111424	0.0546765	0.153799	-9.06569	0.0150541	0.0119972	-0.0201247	-0.126221	-0.178711	1.10913	-0.122443	0.785394	-0.60249	-0.0718971	-2.35803	-0.744542	-8.2047	-0.137252	0.18271	0.0183071	-0.152588	0.132568	1.0498	-0.315596	0.201897	-0.918418	0.127068	-5.00669	-3.50252	-7.11497	-0.150554	-0.0742426	0.105709	0.11377	0.452148	1.01001	-0.131473	0.085926	-0.892676	-0.422447	-2.80317	6.67411	-5.9314	0.0884727	0.00630664	-0.0155374	-0.0905762	-0.960938	0.769043	-0.19803	0.259071	-0.903395	-0.278467	-4.76926	4.36369	-7.83149	0.0681584	-0.0924128	-0.0671201	0.178711	-0.682861	0.88208	
43	-0.833263	-0.128502	0.475735	-0.250669	8.84956	-0.338925	5.40733	0.0573013	-0.0590388	-0.0359763	-0.767334	-0.117676	-0.769531	-0.15363	-0.832951	0.390587	-0.360599	6.94145	-0.264803	-6.80742	0.00943725	-0.0223501	-0.0542212	-1.04297	-0.297852	0.816895	0.192488	-0.166082	-0.528317	0.81009	-0.668064	-8.87833	3.74357	0.345204	-0.059034	0.0120148	-0.116455	0.905273	-0.591797	-0.60792	0.218766	0.159342	-0.746448	-1.52593	-4.52534	8.22929	0.0840129	0.00423225	0.0375124	0.108398	0.408936	-1.01782	0.634202	0.464843	-0.386269	-0.482188	0.428657	9.52003	2.6671	0.0249912	0.0130976	0.0299258	0.0522461	-0.893311	-0.673828	0.808036	0.00101108	-0.00466112	-0.589114	0.141496	1.50785	13.2746	-0.0622427	-0.0125086	0.0213168	0.0856934	0.307861	-1.04712	-0.0236916	-0.980559	-0.194476	-0.0110624	0.0570938	0.134676	-9.08269	0.0101366	0.00554126	-0.0193779	-0.124023	-0.180908	1.10693	-0.120592	0.784776	-0.603387	-0.0742148	-2.41459	-0.623848	-8.30014	-0.215886	-0.0361753	0.0840671	-0.143555	0.125977	1.04761	-0.316088	0.201206	-0.918603	0.125592	-4.95456	-3.48592	-7.16524	-0.0882256	-0.0482112	0.0621301	0.118408	0.452148	1.02563	-0.131473	0.085926	-0.892676	-0.422447	-2.80317	6.67411	-5.9314	0.0884727	0.00630664	-0.0155374	-0.0905762	-0.960938	0.769043	-0.199098	0.259431	-0.902946	-0.278825	-4.88326	3.88616	-7.71605	-0.0167768	-0.0776543	-0.0593866	0.178711	-0.682861	0.884277	
44	-0.833033	-0.129636	0.476113	-0.250135	8.9661	-0.196235	5.38645	0.0250801	-0.0247674	-0.0421499	-0.773438	-0.124268	-0.771484	-0.15302	-0.833776	0.389952	-0.359639	6.90923	-0.313631	-6.83035	-0.0067609	-0.0225812	-0.0438794	-1.04736	-0.300049	0.823975	0.19126	-0.166661	-0.532733	0.807366	-0.764083	-9.61704	3.97896	-0.187322	-0.0318526	-0.00743658	-0.116455	0.913818	-0.57373	-0.606124	0.220155	0.162465	-0.746827	-1.15843	-4.78733	8.53578	-0.17985	-0.0427068	0.0510517	0.103516	0.415527	-1.01782	0.634831	0.464086	-0.386372	-0.482006	0.299521	9.19981	2.53036	-0.00459031	-0.00158747	0.0184188	0.052002	-0.886719	-0.673828	0.80816	0.00053883	-0.00513792	-0.588941	0.287133	1.0775	13.4641	0.123006	0.00155343	-0.0461006	0.0837402	0.305664	-1.05127	-0.0239127	-0.980542	-0.194541	-0.0109635	0.0493977	0.141455	-9.08654	0.0146046	0.00583477	-0.0176862	-0.124268	-0.176514	1.10474	-0.118312	0.782655	-0.605343	-0.0837406	-2.45707	-0.397812	-8.01378	-0.08919	-0.136977	0.0400085	-0.13208	0.113037	1.06177	-0.316316	0.199857	-0.918612	0.127098	-4.93151	-2.97491	-6.94765	0.125728	0.0217693	-0.00299292	0.118164	0.454346	1.0166	-0.134265	0.0878164	-0.890553	-0.425647	-2.85104	6.58591	-5.45842	-0.0986272	-0.0618355	-0.0486958	-0.0812988	-0.969482	0.764648	-0.202656	0.259747	-0.902708	-0.276733	-4.97972	3.43133	-7.48947	0.0926303	-0.0678624	-0.0403454	0.185059	-0.67627	0.881836	
45	-0.832762	-0.129666	0.476687	-0.249926	8.97302	-0.414993	5.39022	-0.00311783	-0.0343184	0.00319809	-0.771484	-0.124268	-0.760742	-0.152831	-0.834053	0.389798	-0.359245	6.99776	-0.241238	-6.95795	-0.00210369	-0.0218031	-0.0380079	-1.04517	-0.300049	0.816895	0.191207	-0.166648	-0.532922	0.807256	-0.54538	-9.70018	3.90648	0.068005	0.000407682	-0.0143019	-0.118408	0.905273	-0.578125	-0.60619	0.219203	0.16186	-0.747184	-1.24804	-4.19073	8.66644	0.0591749	-0.0106518	-0.00220272	0.103516	0.415527	-1.02002	0.633543	0.465826	-0.388089	-0.480642	0.118896	10.0716	2.92483	0.110584	-0.00185299	-0.0256565	0.050293	-0.897705	-0.669189	0.808551	0.000843857	-0.00664904	-0.588387	0.341298	1.55201	13.8168	0.00947478	-0.0342865	0.0373464	0.0859375	0.305664	-1.04907	-0.0238199	-0.980488	-0.194821	-0.0109628	0.0467572	0.14079	-9.08408	0.0145027	0.00711689	-0.0192791	-0.128174	-0.180908	1.10913	-0.117421	0.781983	-0.606033	-0.0862544	-2.51218	-0.367656	-7.99955	-0.165674	-0.0956633	0.0700753	-0.127686	0.106445	1.05493	-0.316266	0.199788	-0.918727	0.126493	-4.97523	-2.98693	-7.07129	-0.0485797	0.00402398	-0.0134078	0.120361	0.456787	1.0188	-0.13607	0.0872745	-0.890944	-0.424367	-2.85154	7.05517	-5.4554	0.0440172	-0.0597192	-0.0100384	-0.0839844	-0.960938	0.762207	-0.204197	0.259537	-0.902835	-0.275379	-4.8463	3.55055	-7.26779	0.138641	-0.0797597	-0.0441053	0.191406	-0.66748	0.890869	
46	-0.832257	-0.130268	0.47758	-0.249593	9.01611	-0.332223	5.36052	0.0055902	-0.0606221	-0.0170477	-0.777832	-0.128662	-0.762939	-0.152524	-0.834322	0.38977	-0.35878	6.89418	-0.242178	-6.9638	-0.00805725	-4.09665e-05	-0.0228679	-1.04517	-0.300049	0.816895	0.192163	-0.1656	-0.531162	0.808404	-0.485847	-9.35333	4.01001	0.0972831	-0.00577737	-0.0344007	-0.116211	0.903076	-0.580322	-0.605933	0.220028	0.163738	-0.746741	-1.21916	-4.43926	8.65996	-0.160335	-0.0301956	-0.0278733	0.103271	0.422119	-1.01807	0.633308	0.46615	-0.388411	-0.480378	0.38099	9.12676	2.56394	0.044963	0.00546425	-0.00933382	0.0524902	-0.900146	-0.662354	0.808321	0.00225335	-0.00735296	-0.588692	0.347782	1.363	13.8233	0.126462	0.0346697	-0.0473392	0.0859375	0.305664	-1.04688	-0.0238199	-0.980488	-0.194821	-0.0109628	0.0467572	0.14079	-9.08408	0.0145027	0.00711689	-0.0192791	-0.128174	-0.180908	1.10913	-0.118257	0.781158	-0.606517	-0.0891308	-2.60214	-0.23788	-8.16836	0.0331508	-0.0882206	-0.00525828	-0.127686	0.11084	1.05957	-0.316039	0.199861	-0.918663	0.12741	-4.96625	-3.41788	-7.19246	0.0932349	0.036275	-0.0538545	0.115723	0.458984	1.0144	-0.136738	0.0869139	-0.890889	-0.424342	-2.81522	7.08279	-5.25751	0.0112297	-0.0487234	0.00218082	-0.0773926	-0.956299	0.762207	-0.205951	0.258493	-0.903212	-0.273814	-4.88852	3.61905	-7.04719	0.0715724	-0.0310732	0.0205747	0.191406	-0.66748	0.890869	
47	-0.831657	-0.131531	0.478896	-0.248405	9.08763	-0.0305111	5.17101	0.0148941	-0.0814053	-0.0669392	-0.777588	-0.133057	-0.762939	-0.15174	-0.8343	0.389657	-0.359285	6.893	-0.53082	-6.95208	0.0396504	0.0335379	0.00244321	-1.05176	-0.297852	0.821533	0.194124	-0.166013	-0.53267	0.806857	-0.61562	-9.47606	3.96111	-0.0822984	0.0446365	-0.105854	-0.125	0.905273	-0.582764	-0.608874	0.217733	0.162301	-0.745334	-1.22965	-4.58969	7.98065	0.271396	0.0123553	-0.155968	0.0991211	0.415527	-1.01782	0.633648	0.467639	-0.388332	-0.478542	0.0933823	10.0951	3.02832	0.00810969	0.0905996	-0.00882849	0.0524902	-0.897949	-0.664551	0.807872	0.00243424	-0.0051857	-0.589331	0.257991	1.23044	14.0547	-0.0846328	0.116533	-0.0355165	0.0859375	0.305664	-1.04688	-0.0236644	-0.980447	-0.195044	-0.0109862	0.0496456	0.140119	-9.08658	0.0170664	0.00840236	-0.0178926	-0.128418	-0.176514	1.10889	-0.1215	0.779795	-0.607081	-0.0927879	-2.71548	-0.34935	-8.20367	-0.026712	-0.213488	0.0535457	-0.114746	0.108643	1.06665	-0.315406	0.200134	-0.918424	0.130244	-5.0469	-2.90734	-7.14596	0.0563441	0.0538023	-0.0628232	0.113281	0.458984	1.01416	-0.136627	0.0859101	-0.890681	-0.425017	-2.77297	6.44887	-5.00128	0.00803368	0.00755928	0.0506496	-0.0773926	-0.954102	0.764404	-0.20614	0.257559	-0.903209	-0.27456	-4.80633	3.53265	-6.59471	-0.0293526	-0.0238253	0.0320163	0.189209	-0.66748	0.884033	
48	-0.830933	-0.131026	0.480673	-0.247661	9.20776	-0.396902	5.022	-0.0509178	-0.0709949	0.0289663	-0.782227	-0.128906	-0.760742	-0.151895	-0.833968	0.389797	-0.359838	6.98324	-0.108913	-6.88923	-0.0343128	0.0435692	-0.0140931	-1.04736	-0.302246	0.824219	0.199372	-0.166251	-0.530663	0.806851	-0.396384	-9.51251	4.08724	0.157697	0.156762	-0.154926	-0.125	0.905273	-0.578125	-0.613567	0.213774	0.161089	-0.74289	-1.02854	-4.49479	8.71306	0.0658303	-0.0255118	-0.222923	0.0949707	0.411133	-1.02002	0.638111	0.465357	-0.384703	-0.477767	0.34824	9.64419	2.57843	-0.199152	0.135429	0.0648173	0.0563965	-0.891113	-0.673828	0.807087	0.00309405	0.000267196	-0.590425	0.383455	1.22168	13.6152	-0.163243	0.194599	-0.0523544	0.0898438	0.316406	-1.04736	-0.0234697	-0.980387	-0.195354	-0.011278	0.0557495	0.136623	-9.08663	0.0151394	0.0163856	-0.0173138	-0.125977	-0.183105	1.10693	-0.130387	0.779237	-0.606469	-0.0893562	-2.97848	-0.436021	-8.29806	0.176575	-0.148059	-0.047217	-0.111328	0.130371	1.06372	-0.312935	0.201374	-0.91873	0.132116	-4.96266	-3.94492	-7.36022	0.136233	0.126213	-0.11294	0.110596	0.468018	1.00977	-0.134137	0.0844827	-0.891849	-0.423645	-3.05571	6.88786	-5.46405	0.0808185	0.103647	0.106272	-0.0861816	-0.95874	0.764404	-0.206244	0.256526	-0.903664	-0.273951	-4.79709	3.28693	-6.79113	0.0890773	0.0330422	0.0269881	0.187012	-0.665283	0.893066	
49	-0.830923	-0.130716	0.480761	-0.247686	9.14139	-0.403402	5.14193	-0.00286261	0.0218689	-0.0117086	-0.779785	-0.131104	-0.756348	-0.152194	-0.833734	0.390228	-0.359786	6.83676	-0.43579	-6.91663	-0.037311	0.0066396	-0.00416747	-1.04321	-0.293457	0.819092	0.205806	-0.166345	-0.526467	0.807964	-0.465462	-9.11319	4.04319	0.185347	0.159476	-0.169752	-0.126953	0.901123	-0.593994	-0.619688	0.209378	0.15746	-0.739834	-0.915869	-4.82771	8.50561	0.30659	0.0452145	-0.248101	0.0952148	0.404541	-1.02441	0.639817	0.466604	-0.382079	-0.476372	0.286249	9.18099	2.12389	-0.0297418	0.146891	-0.0489767	0.0588379	-0.893311	-0.676025	0.80792	0.00376597	0.0041223	-0.589266	0.0616564	1.26027	13.5281	0.00125704	0.164798	0.0553221	0.100586	0.316406	-1.04297	-0.0236618	-0.980378	-0.195374	-0.0112949	0.0519764	0.156372	-9.07368	0.0151259	0.00981105	-0.0187273	-0.128174	-0.183105	1.11133	-0.134385	0.778847	-0.606216	-0.0885423	-2.70087	0.329024	-6.98051	0.054811	-0.0102711	-0.0634594	-0.10083	0.13501	1.05444	-0.312629	0.200508	-0.918455	0.136017	-4.73426	-2.68244	-6.31201	0.0429242	-0.01386	-0.0192784	0.105957	0.470215	1.00952	-0.132378	0.0821351	-0.893797	-0.420544	-2.62797	6.82947	-5.42453	0.204518	0.0577825	0.0895874	-0.0935059	-0.945557	0.773193	-0.202715	0.254615	-0.906151	-0.270125	-4.87657	4.3162	-7.26984	0.114154	0.200411	0.121434	0.179932	-0.658691	0.9021	
50	-0.831648	-0.130502	0.48008	-0.246687	8.96266	-0.478614	5.23658	-0.0196933	0.0207828	-0.0627588	-0.781982	-0.131104	-0.756348	-0.152802	-0.83349	0.390527	-0.359771	6.90106	-0.243916	-6.77826	-0.0628506	0.0378374	-0.00997786	-1.04077	-0.300049	0.814697	0.20879	-0.166934	-0.525641	0.807615	-0.381933	-9.48784	3.97684	0.0711134	0.169677	-0.159365	-0.131348	0.90332	-0.596191	-0.623843	0.210151	0.160482	-0.73546	-1.21156	-4.89798	8.57286	-0.250454	0.0100335	-0.261186	0.0927734	0.406738	-1.02222	0.63902	0.47084	-0.38097	-0.474157	0.304672	9.98441	2.79536	0.0399997	0.137718	-0.057013	0.0654297	-0.895508	-0.666992	0.809643	0.003297	0.00732574	-0.586868	0.128779	1.23246	13.2937	-0.0138901	0.109327	0.0905013	0.106934	0.316406	-1.04517	-0.0237945	-0.980373	-0.195389	-0.0112407	0.0571952	0.162741	-9.05692	0.0183058	0.00842686	-0.0179481	-0.117676	-0.178711	1.10913	-0.131069	0.77993	-0.605186	-0.0909929	-2.60737	-1.14674	-8.2665	-0.160399	0.0519704	-0.0397051	-0.104492	0.124023	1.05933	-0.313299	0.202036	-0.919075	0.127777	-4.65235	-3.52569	-6.40268	-0.351642	-0.0816325	0.0256725	0.115967	0.452148	1.0188	-0.12939	0.0799526	-0.895612	-0.418024	-2.83631	7.41237	-5.60403	0.0420954	0.107572	0.138526	-0.102295	-0.947998	0.780029	-0.198935	0.253892	-0.906535	-0.27232	-4.95782	4.23801	-7.91147	-0.122769	0.0793907	0.0604934	0.173584	-0.66748	0.902344	
51	-0.832015	-0.130624	0.479915	-0.245705	9.12713	-0.365084	5.33532	-0.0279632	0.00816976	-0.0828232	-0.777588	-0.130859	-0.756348	-0.153759	-0.833204	0.390746	-0.359787	6.96324	-0.374729	-6.91958	-0.0416554	0.0265031	-0.0117946	-1.04297	-0.297852	0.814453	0.213054	-0.169621	-0.528007	0.804391	-0.53329	-9.4539	3.95539	-0.185717	0.172466	-0.104397	-0.133545	0.901123	-0.584961	-0.628352	0.210602	0.161587	-0.731239	-0.978519	-5.6989	8.5527	0.0597865	0.0634229	-0.207021	0.090332	0.41333	-1.02222	0.641059	0.469723	-0.377699	-0.475129	0.343566	9.94911	2.3389	-0.104648	0.0621058	-0.0579678	0.0651855	-0.893311	-0.678223	0.810447	0.00372935	0.00965131	-0.585721	0.207752	1.79371	13.205	-0.132454	0.0706388	0.0434163	0.113281	0.320801	-1.04541	-0.0238136	-0.980362	-0.195442	-0.0112248	0.0496495	0.12235	-9.072	0.0201412	0.011583	-0.0179972	-0.12207	-0.176514	1.10474	-0.130528	0.780091	-0.605134	-0.0907381	-2.6359	-1.15714	-8.22022	-0.0178593	0.0603594	-0.0286303	-0.106689	0.124023	1.05933	-0.31295	0.202441	-0.919269	0.126591	-4.65507	-4.3132	-6.833	-0.108062	0.00760684	-0.0349119	0.115967	0.452148	1.021	-0.127358	0.0797171	-0.895328	-0.4193	-2.87778	7.50494	-6.02897	-0.108832	0.138461	0.0965672	-0.100098	-0.945801	0.777832	-0.197363	0.253807	-0.906507	-0.273633	-4.85208	4.0939	-8.1153	-0.123951	0.0911673	0.0548015	0.166992	-0.672119	0.897705	
52	-0.832577	-0.130868	0.479568	-0.244342	9.14845	-0.36328	5.29589	-0.00212899	0.0115966	-0.0495403	-0.777588	-0.133057	-0.762939	-0.153609	-0.832924	0.391117	-0.360097	6.96033	-0.541864	-7.00957	0.00358129	0.0277392	0.00750852	-1.04321	-0.297852	0.809814	0.216979	-0.172269	-0.530614	0.801057	-0.445914	-10.3236	3.65035	-0.0684008	0.158065	-0.125172	-0.137939	0.905518	-0.584961	-0.631576	0.209829	0.161486	-0.728702	-0.924223	-5.80321	8.39159	0.0493464	0.0261353	-0.160012	0.0856934	0.415527	-1.02222	0.642384	0.468372	-0.375936	-0.47607	0.28723	9.01477	2.19908	-0.117692	0.0368331	0.00142949	0.0693359	-0.884521	-0.680664	0.810303	0.005019	0.0102664	-0.585899	-0.0429797	1.85975	12.8697	0.0178391	0.0607923	-0.0375592	0.11792	0.314209	-1.04956	-0.023683	-0.980317	-0.195687	-0.0111884	0.0652376	0.140861	-9.07882	0.0161708	0.00609435	-0.0173929	-0.124268	-0.176514	1.10889	-0.130991	0.779636	-0.606217	-0.086662	-2.55378	-0.676876	-7.7126	0.185827	0.162525	0.00916254	-0.113281	0.128418	1.05908	-0.312143	0.201483	-0.918133	0.137853	-4.5803	-3.0713	-6.3672	0.463057	0.13011	-0.157408	0.10376	0.470215	1.01416	-0.125662	0.0795175	-0.895325	-0.419856	-2.7543	6.52462	-5.72006	0.042225	0.0290188	0.0437976	-0.106934	-0.945801	0.782227	-0.194961	0.253598	-0.907088	-0.273623	-4.92595	3.8431	-8.25468	0.0205751	0.0750371	0.00587926	0.166992	-0.674316	0.890869	
53	-0.832677	-0.130655	0.47956	-0.24413	9.0076	-0.308135	5.22704	-0.0173723	-0.0141836	-0.00301074	-0.775635	-0.128662	-0.758545	-0.153634	-0.832597	0.39133	-0.360611	6.92511	-0.351528	-6.86922	-0.0175293	0.0354058	-0.00963806	-1.03882	-0.295654	0.814453	0.220109	-0.172487	-0.524588	0.804119	-0.539177	-9.52537	3.7063	0.370761	0.0729099	0.00987598	-0.131348	0.898926	-0.596191	-0.633864	0.209729	0.161643	-0.726706	-1.26529	-4.82607	8.38791	-0.085639	0.0142881	-0.102826	0.0900879	0.415527	-1.02222	0.641438	0.468433	-0.376409	-0.476911	0.500784	9.47608	2.73583	-0.0178874	-0.068151	-0.0651252	0.0629883	-0.888916	-0.680664	0.810362	0.00418682	0.00958359	-0.585836	0.289998	1.17037	13.0456	0.134562	-0.0321732	-0.0243411	0.109131	0.316406	-1.04956	-0.0240043	-0.980298	-0.195749	-0.0110501	0.0553799	0.14831	-9.07398	0.0120642	0.00648997	-0.0180224	-0.124023	-0.178711	1.10913	-0.123502	0.780176	-0.60775	-0.0819242	-2.72659	-0.1821	-8.22395	0.0118342	0.443122	-0.064578	-0.132568	0.121826	1.05713	-0.309976	0.201607	-0.91809	0.142757	-4.70032	-3.2199	-6.82019	0.0285139	0.104403	-0.0924428	0.0915527	0.481689	1.00488	-0.125968	0.0788134	-0.89678	-0.41678	-2.85793	7.7668	-5.67888	-0.0129847	-0.017623	-0.00138878	-0.115967	-0.943604	0.777588	-0.195353	0.253736	-0.907328	-0.272417	-4.92607	4.17015	-8.22145	0.0506504	0.00441855	-0.0192301	0.162109	-0.667725	0.904541	
54	-0.832605	-0.129506	0.479803	-0.244513	8.92586	-0.339449	5.14691	-0.0377877	0.00772939	0.0483948	-0.777832	-0.126709	-0.756592	-0.153211	-0.832383	0.391058	-0.361577	6.82056	-0.486119	-6.83106	0.0304758	0.0488902	-0.0198941	-1.04321	-0.298096	0.798096	0.221654	-0.172774	-0.522642	0.8049	-0.483332	-9.31792	3.85992	0.00752338	0.0333138	0.0108562	-0.135498	0.89917	-0.593994	-0.634116	0.211692	0.165434	-0.725062	-1.06629	-5.13559	8.27505	-0.334701	-0.0409445	-0.134893	0.0805664	0.428467	-1.02246	0.641457	0.467773	-0.376629	-0.477359	0.487775	8.98109	2.46392	-0.0404812	-0.045585	-0.00983629	0.0627441	-0.886719	-0.678223	0.810093	0.00431064	0.00877724	-0.586219	0.0361395	1.95653	13.0662	0.0481815	-0.0315895	-0.0522811	0.113281	0.320801	-1.04761	-0.0241202	-0.980291	-0.195772	-0.0109984	0.0471016	0.136088	-9.07703	0.0133091	0.00651835	-0.0180841	-0.128174	-0.180908	1.10913	-0.116476	0.781633	-0.608175	-0.0748761	-2.43572	-0.562466	-8.21103	-0.0530209	0.405348	-0.0516275	-0.149902	0.121582	1.05469	-0.307899	0.202544	-0.918461	0.143541	-4.88616	-4.33913	-7.82739	0.0533511	0.0868153	-0.0712623	0.0935059	0.488525	1.00928	-0.12643	0.0790338	-0.895402	-0.419552	-2.79748	6.97845	-5.64687	-0.24114	-0.0455395	-0.012233	-0.113281	-0.950195	0.773193	-0.195977	0.253725	-0.906857	-0.273546	-4.92413	3.93773	-7.81235	-0.0589301	-0.0395266	-0.00446661	0.162109	-0.667725	0.899902	
55	-0.832597	-0.128041	0.480124	-0.24468	8.98037	-0.634095	5.13796	-0.0368107	-0.00137356	0.0243564	-0.780273	-0.124512	-0.760742	-0.152767	-0.832377	0.390479	-0.362404	6.87895	-0.526544	-6.85043	0.0377022	0.0440095	-0.0233776	-1.04761	-0.295654	0.804932	0.221175	-0.174609	-0.52543	0.802818	-0.456627	-8.94522	3.82645	-0.180614	0.0277103	-0.0333203	-0.126953	0.898926	-0.596191	-0.634615	0.213354	0.167814	-0.72359	-0.797219	-5.64605	7.92431	0.0387192	0.0217662	-0.0104386	0.0827637	0.432861	-1.01831	0.641882	0.4653	-0.377254	-0.478709	0.373825	9.46383	3.04127	-0.129915	-0.0979004	-0.0132083	0.0583496	-0.886719	-0.685303	0.809515	-0.000232918	0.00980131	-0.587017	0.196972	0.873111	13.4157	-0.0701765	-0.0459355	-0.082384	0.108887	0.320801	-1.04102	-0.0241202	-0.980291	-0.195772	-0.0109984	0.0471016	0.136088	-9.07703	0.0133091	0.00651835	-0.0180841	-0.128174	-0.180908	1.10913	-0.116476	0.781633	-0.608175	-0.0748761	-2.43572	-0.562466	-8.21103	-0.0530209	0.405348	-0.0516275	-0.149902	0.121582	1.05469	-0.30792	0.201219	-0.917623	0.150548	-5.08488	-3.71909	-7.86157	0.301004	0.0227341	-0.0679966	0.0839844	0.497559	1.00024	-0.126354	0.0791214	-0.894808	-0.420824	-2.78845	6.66905	-5.73388	0.0119473	0.0271079	0.0140867	-0.113281	-0.950195	0.775635	-0.197355	0.253848	-0.905793	-0.275956	-4.64756	3.52935	-7.44629	-0.0750406	-0.068022	-0.025188	0.173584	-0.671875	0.890869	
56	-0.833175	-0.127696	0.479166	-0.244771	8.90691	-0.327128	5.1834	-0.00167685	0.0613596	-0.0213835	-0.777832	-0.126465	-0.765137	-0.152711	-0.832332	0.390015	-0.363031	6.8774	-0.0079284	-6.37631	-0.0218695	0.0270631	-0.0350703	-1.04126	-0.289307	0.800049	0.221927	-0.174409	-0.524035	0.803565	-0.40702	-9.98171	3.88272	0.215621	-0.0137658	0.0455498	-0.131348	0.896729	-0.598389	-0.63444	0.21259	0.167521	-0.724036	-0.865495	-4.9171	8.31446	-0.0565359	-0.016805	0.0242954	0.0783691	0.428467	-1.02026	0.642933	0.462147	-0.377717	-0.479987	0.103458	9.72221	2.58723	-0.0293659	-0.0628982	0.030435	0.0539551	-0.884521	-0.685303	0.808829	-0.00246715	0.00913313	-0.587968	0.0816087	0.778682	13.1896	-0.155923	-0.0993399	-0.0167747	0.102051	0.331543	-1.03931	-0.0241868	-0.980195	-0.196239	-0.011124	0.0453644	0.158378	-9.05142	0.00827665	0.0113096	-0.0174181	-0.123779	-0.183105	1.10693	-0.108247	0.780378	-0.61119	-0.0757561	-2.39006	-0.18902	-8.43906	-0.0542509	0.0215835	-0.0266695	-0.157959	0.108643	1.05029	-0.311171	0.200371	-0.916447	0.152149	-5.02382	-3.71633	-7.71576	0.100981	-0.116032	0.00453758	0.0881348	0.506592	0.997803	-0.127301	0.0788841	-0.894575	-0.421079	-2.61847	6.66858	-5.44889	0.0297552	-0.0311802	-0.00317072	-0.108887	-0.947998	0.777832	-0.198327	0.253464	-0.906222	-0.274197	-4.75697	3.38849	-7.22235	0.139552	-0.0148962	-0.0132754	0.173584	-0.66748	0.897705	
57	-0.834512	-0.12723	0.477438	-0.243834	8.77784	-0.378826	5.29755	-0.016489	0.0848856	-0.0532764	-0.77124	-0.128662	-0.765137	-0.153438	-0.832141	0.390094	-0.363077	6.89203	-0.5048	-6.77885	-0.0150084	0.0241917	-0.0225689	-1.04565	-0.291504	0.79541	0.221915	-0.173321	-0.521051	0.805742	-0.236192	-8.41808	4.05973	0.0209798	-0.00981891	0.00217799	-0.131348	0.894775	-0.600586	-0.630646	0.217498	0.173379	-0.724513	-0.75589	-5.37087	8.0955	-0.276663	-0.0279306	0.0988351	0.0847168	0.439453	-1.02051	0.642244	0.46178	-0.378833	-0.480382	0.478595	8.68448	2.78661	0.0563257	-0.0432051	0.000562283	0.0539551	-0.882324	-0.694336	0.808433	-0.0014725	0.00706752	-0.588544	-0.0101055	1.0937	13.591	0.116284	0.000540997	-0.06669	0.0979004	0.327393	-1.04126	-0.0243641	-0.980187	-0.196257	-0.0110831	0.0463401	0.142548	-9.06825	0.00890914	0.00654106	-0.0184646	-0.123779	-0.183105	1.11133	-0.114422	0.780304	-0.609816	-0.0784761	-2.37676	-0.371915	-8.24181	0.141335	-0.300046	-0.0680477	-0.147217	0.113037	1.05249	-0.313022	0.200469	-0.916506	0.147804	-4.57429	-3.92509	-7.17733	-0.144109	-0.07197	0.0203189	0.100342	0.493164	1.00244	-0.127158	0.0780346	-0.895223	-0.4199	-2.69652	7.55773	-5.70451	0.0326135	0.0238219	0.0203379	-0.111572	-0.941406	0.777588	-0.197965	0.253112	-0.906532	-0.27376	-4.70932	4.17068	-7.34169	-0.0919887	0.0454963	0.0285443	0.169189	-0.672119	0.897705	
58	-0.836215	-0.126725	0.475084	-0.242858	8.65459	-0.298902	5.53175	-0.0226526	0.102433	-0.0508255	-0.773438	-0.128662	-0.765137	-0.153417	-0.832391	0.3902	-0.362399	6.91196	-0.394536	-6.73042	-0.026196	-0.0208064	-0.0200184	-1.04102	-0.297852	0.798096	0.219783	-0.174647	-0.525729	0.802996	-0.459826	-9.43838	4.15274	-0.210884	-0.043623	0.030945	-0.124756	0.894531	-0.591553	-0.629168	0.218177	0.173019	-0.72568	-1.01704	-4.87628	8.24404	0.0168207	0.0266275	0.118477	0.0888672	0.446045	-1.01416	0.640994	0.463196	-0.380457	-0.479405	0.489248	9.88425	3.27114	-0.00235599	-0.0102257	-0.0324387	0.0603027	-0.880127	-0.680664	0.808504	-0.00374984	0.00749503	-0.58843	0.539789	0.660767	13.7121	-0.0107174	-0.0199651	-0.00956893	0.0976562	0.33374	-1.03711	-0.0243706	-0.98014	-0.196489	-0.0111613	0.0464593	0.153569	-9.08849	0.0101627	0.00949747	-0.0175929	-0.124023	-0.178711	1.10913	-0.126207	0.779529	-0.607991	-0.0821834	-2.51072	-0.307494	-7.63501	0.329675	-0.439103	-0.103752	-0.132812	0.125977	1.05469	-0.314209	0.200063	-0.916569	0.145427	-4.46929	-3.32856	-6.25832	-0.0885022	-0.0770275	0.0266316	0.102783	0.488525	1.00269	-0.126656	0.0777471	-0.894496	-0.421652	-2.52501	6.27927	-5.14938	-0.0705334	0.0243648	0.0408403	-0.111084	-0.947998	0.782471	-0.197227	0.252636	-0.906582	-0.274564	-4.74318	3.7579	-7.54757	0.0403911	-0.00153797	0.00199476	0.166748	-0.669922	0.897705	
59	-0.836565	-0.126385	0.474549	-0.242875	8.65931	-0.0166969	5.50311	-0.0135916	0.0522456	-0.00220198	-0.769043	-0.126465	-0.773682	-0.152355	-0.832668	0.390146	-0.362267	6.9603	-0.661272	-6.86117	0.0613431	-0.0327301	-0.00290432	-1.04102	-0.293701	0.800293	0.220632	-0.174382	-0.52608	0.802591	-0.412505	-9.71288	3.84247	-0.0206194	0.00575961	-0.0743017	-0.12915	0.905518	-0.591797	-0.627159	0.218011	0.172822	-0.727514	-1.05545	-5.06237	7.85116	0.0526168	-0.0314402	0.0707642	0.0847168	0.437256	-1.01611	0.641466	0.461887	-0.379883	-0.480491	0.560982	8.86068	2.85472	-0.140512	-0.0405555	-0.0346612	0.0561523	-0.882324	-0.6875	0.808057	-0.00212316	0.00672429	-0.589063	0.157166	0.879094	13.5173	0.144457	0.041612	-0.0766052	0.0957031	0.329346	-1.04346	-0.024334	-0.980091	-0.196734	-0.0111793	0.0403931	0.157005	-9.08365	0.0120522	0.00738733	-0.0178295	-0.121582	-0.185303	1.11353	-0.127538	0.779619	-0.607649	-0.0818016	-2.14027	-0.421509	-7.66726	0.0993649	-0.0292776	-0.073553	-0.126465	0.128174	1.05469	-0.315277	0.200188	-0.916428	0.143824	-4.49852	-3.7004	-6.24487	-0.0959492	-0.102311	0.0204928	0.109863	0.48877	1.00488	-0.126181	0.0775581	-0.894707	-0.421382	-2.6865	6.90393	-5.7974	0.026813	0.0435601	0.0283158	-0.108887	-0.952393	0.775635	-0.197383	0.252583	-0.906641	-0.274306	-4.73234	4.27568	-7.42166	0.0264129	-0.000278384	-0.00844006	0.171387	-0.669678	0.890869	
60	-0.837212	-0.123767	0.474434	-0.24222	8.90372	-0.161647	5.25053	-0.119491	0.0558562	0.014768	-0.760498	-0.119873	-0.773682	-0.150643	-0.833349	0.390104	-0.361462	6.76388	-0.184449	-6.47343	0.0138645	-0.0464227	-0.0138988	-1.03882	-0.297852	0.805176	0.221821	-0.172212	-0.52207	0.805346	-0.357241	-8.74466	4.0872	0.277985	-0.0528138	-0.0267181	-0.135498	0.892578	-0.598389	-0.62629	0.21484	0.170326	-0.72979	-0.934286	-4.36231	7.87851	0.167696	-0.0714827	0.0856558	0.0893555	0.430908	-1.01831	0.641742	0.462191	-0.380628	-0.479238	0.333473	9.22797	2.9991	0.0063833	0.0302239	0.0355614	0.0539551	-0.884521	-0.682861	0.806879	-0.00112028	0.00828129	-0.590658	0.0564568	0.704312	13.2362	0.0762345	0.0877578	-0.0625322	0.100098	0.32959	-1.04126	-0.0244347	-0.980082	-0.196766	-0.0111605	0.0522886	0.150644	-9.09107	0.0144664	0.00979366	-0.0187002	-0.125977	-0.183105	1.10498	-0.125845	0.778234	-0.60959	-0.0831594	-2.44861	-0.771376	-8.08423	-0.143837	0.0180476	0.153194	-0.124023	0.126221	1.05225	-0.316172	0.199287	-0.9158	0.147071	-4.50139	-3.3815	-5.67445	0.202898	0.0489121	-0.0483996	0.109863	0.48877	0.993652	-0.125952	0.0776026	-0.894521	-0.421837	-2.51181	6.88527	-5.08095	-0.0920711	0.000797301	0.000482445	-0.115479	-0.950195	0.775635	-0.19521	0.252337	-0.906941	-0.275093	-4.61308	3.5966	-7.01717	-0.0172558	0.103361	0.0453472	0.162598	-0.678711	0.891113	
61	-0.838268	-0.120437	0.473514	-0.242048	8.87961	-0.506047	5.51488	-0.106195	0.0715516	0.0556067	-0.765137	-0.115479	-0.775879	-0.149458	-0.833993	0.390464	-0.360078	6.94404	-0.288225	-7.11701	-0.000432875	-0.0553815	-0.0119292	-1.03906	-0.29126	0.814209	0.22499	-0.17013	-0.52076	0.805757	-0.488535	-9.5461	4.0549	-0.00973692	0.00357614	-0.136501	-0.137695	0.896973	-0.607422	-0.625388	0.215115	0.175847	-0.729173	-0.969838	-4.75224	8.26366	-0.311015	-0.125005	-0.0743122	0.0776367	0.446045	-1.01416	0.644022	0.461623	-0.380332	-0.476957	0.329024	10.4733	2.75925	-0.0787585	0.0614019	0.0649357	0.0493164	-0.87793	-0.678467	0.807751	-0.00201552	0.00843639	-0.58946	0.0294596	0.669935	13.1625	-0.00653274	-0.053797	0.0913634	0.104492	0.327393	-1.04126	-0.0244347	-0.980082	-0.196766	-0.0111605	0.0522886	0.150644	-9.09107	0.0144664	0.00979366	-0.0187002	-0.125977	-0.183105	1.10498	-0.123752	0.778615	-0.610434	-0.076254	-2.56298	-0.201387	-7.8426	0.104464	0.279424	-0.028716	-0.139404	0.130371	1.0498	-0.313031	0.198883	-0.916252	0.151457	-4.66146	-3.16987	-6.2528	0.103181	0.180291	-0.0893571	0.0930176	0.502197	0.995605	-0.124442	0.0769735	-0.89522	-0.420917	-2.67569	6.95693	-5.69958	0.133901	0.087413	0.0569358	-0.11792	-0.948242	0.780029	-0.193566	0.252247	-0.907643	-0.274021	-4.68265	3.84168	-7.21203	-0.00255207	0.0735328	0.0145753	0.162598	-0.676514	0.891113	
62	-0.837855	-0.118743	0.474274	-0.242823	8.85043	-0.734276	5.69745	-0.0464028	-0.0151982	0.0638726	-0.762695	-0.117676	-0.775879	-0.149412	-0.83431	0.390694	-0.359111	7.07025	-0.418593	-7.27634	-0.0266059	-0.0183903	-0.0237229	-1.03882	-0.293457	0.821533	0.226865	-0.168362	-0.522826	0.804263	-0.172558	-9.1564	4.15681	-0.0937431	-0.00370691	-0.145752	-0.141846	0.890625	-0.607422	-0.62616	0.214427	0.177874	-0.728221	-0.813609	-5.55067	8.24466	-0.0817498	-0.10757	-0.136154	0.072998	0.448242	-1.01855	0.645336	0.460496	-0.379862	-0.476643	0.429173	9.37205	2.6771	-0.115923	0.0399708	0.0676323	0.045166	-0.884521	-0.689697	0.808658	-0.00149651	0.00650659	-0.588241	0.12803	1.20722	13.468	0.126042	-0.0868902	0.105485	0.0979004	0.325195	-1.04541	-0.0238298	-0.979947	-0.197491	-0.0115651	0.0566729	0.149175	-9.08247	0.0181333	0.0159925	-0.0182153	-0.125977	-0.183105	1.11133	-0.11606	0.778954	-0.612194	-0.0705623	-2.37926	-0.453603	-8.18945	-0.102856	0.417348	0.0179237	-0.160645	0.123779	1.05469	-0.308707	0.199531	-0.917471	0.152098	-4.74555	-3.9172	-7.21511	-0.0349651	0.174098	-0.0827876	0.088623	0.499756	1.00024	-0.122169	0.0765868	-0.895773	-0.420476	-2.69297	6.71842	-5.66561	-0.032072	0.092052	0.059788	-0.124756	-0.943848	0.777588	-0.190819	0.251639	-0.908293	-0.274353	-4.73584	3.75924	-7.65214	-0.0242582	0.110025	0.0647392	0.153564	-0.674316	0.895508	
63	-0.835612	-0.119251	0.478176	-0.242653	9.01783	-0.825206	5.31982	-0.00177915	-0.207022	-0.000306717	-0.769775	-0.109131	-0.767334	-0.149817	-0.834215	0.390537	-0.359334	7.01148	-0.429358	-7.12493	-0.0135013	0.0243804	-0.0181787	-1.03906	-0.29126	0.80957	0.230072	-0.168346	-0.528261	0.799792	-0.292692	-10.5856	4.03811	-0.246978	0.0499934	-0.183356	-0.155029	0.899414	-0.591553	-0.629274	0.21075	0.179636	-0.726174	-0.844765	-5.43266	8.99119	0.00962496	-0.103476	-0.179396	0.0664062	0.448242	-1.01196	0.644389	0.464174	-0.383567	-0.471361	0.464888	10.2021	2.9182	0.349076	0.0615569	0.0977052	0.0432129	-0.886719	-0.671387	0.81099	-0.00494712	0.00375391	-0.585027	0.419701	1.55675	13.8132	-0.0716201	-0.17223	0.14927	0.0959473	0.325195	-1.04321	-0.0235411	-0.979903	-0.197733	-0.0117511	0.0570134	0.155549	-9.07618	0.0209487	0.0160031	-0.0180506	-0.126221	-0.180908	1.10474	-0.109182	0.778829	-0.614177	-0.0655119	-2.24443	-0.473296	-8.27223	-0.083398	0.34244	0.0431074	-0.178223	0.128174	1.05005	-0.304619	0.199513	-0.918027	0.156935	-4.88438	-3.73314	-7.40535	0.184474	0.189851	-0.118262	0.0649414	0.510986	0.993164	-0.120348	0.0750165	-0.89645	-0.41984	-2.76574	7.17253	-5.68701	-0.00421318	0.0525291	0.0821923	-0.131592	-0.94165	0.779785	-0.188304	0.250869	-0.908647	-0.27562	-4.83577	3.9687	-8.07945	-0.0717458	0.0668722	0.0582932	0.149414	-0.683105	0.895752	
64	-0.833876	-0.121123	0.481384	-0.24135	9.17887	-0.606541	4.89244	0.0187554	-0.14054	-0.0557108	-0.776123	-0.115723	-0.765137	-0.149836	-0.833996	0.390202	-0.360198	6.78306	-0.292057	-6.69147	-0.00637297	0.0572744	-0.0262419	-1.03906	-0.289307	0.804688	0.233452	-0.167452	-0.524702	0.801341	-0.234819	-9.40816	4.0192	0.205647	0.0538464	-0.0468678	-0.154785	0.893066	-0.600586	-0.632197	0.20824	0.17972	-0.724337	-0.612452	-6.1534	8.99844	0.121723	0.0039316	-0.124652	0.0666504	0.44165	-1.01392	0.646105	0.463277	-0.383496	-0.46995	0.277245	10.2262	2.24774	-0.103374	0.0386372	0.0611315	0.0432129	-0.886719	-0.680664	0.812273	-0.00641056	0.00188127	-0.583239	0.307283	1.89988	14.0542	-0.0736054	-0.0649292	0.0665863	0.0891113	0.329346	-1.04346	-0.0236353	-0.979895	-0.197753	-0.0118282	0.0584439	0.147503	-9.09561	0.0150434	0.0157797	-0.017475	-0.121826	-0.180908	1.10474	-0.105436	0.779284	-0.614813	-0.0600349	-2.04072	-0.460805	-8.29945	0.0268879	0.268627	-0.0760631	-0.191406	0.132568	1.04297	-0.303075	0.199741	-0.918366	0.15765	-4.81103	-3.79764	-7.60742	0.01525	0.129534	-0.0819478	0.0695801	0.508789	0.995361	-0.119234	0.0744199	-0.896067	-0.421081	-2.6164	6.87186	-5.95461	0.0159192	0.0300882	0.0382508	-0.124756	-0.94165	0.782227	-0.186133	0.249967	-0.909207	-0.276067	-4.84706	4.04285	-8.00244	0.010912	0.0711995	0.059198	0.147217	-0.685547	0.900146	
65	-0.833713	-0.122337	0.481715	-0.240636	8.95938	-0.341386	4.92531	0.0242761	-0.0025519	-0.0418444	-0.77417	-0.113525	-0.767334	-0.150071	-0.833759	0.38983	-0.361051	6.74458	-0.539781	-6.6826	0.0132416	0.0459329	-0.0298283	-1.03906	-0.289307	0.807129	0.234675	-0.169215	-0.523582	0.801346	-0.145827	-9.13111	4.07629	0.0291729	0.0864405	0.00718241	-0.152832	0.897217	-0.600586	-0.631741	0.209328	0.177911	-0.724867	-0.761001	-6.07648	8.63167	0.0195606	0.0966238	0.105925	0.0644531	0.443848	-1.02075	0.647946	0.460578	-0.380599	-0.472417	0.743024	8.87854	2.50687	-0.215667	0.0222848	-0.0816688	0.0432129	-0.888916	-0.685303	0.812522	-0.00627617	0.00300749	-0.582889	0.364177	1.67214	14.0143	0.00559093	0.104549	-0.0330598	0.0959473	0.322998	-1.04102	-0.0237828	-0.979877	-0.197818	-0.0119837	0.0475718	0.153623	-9.07713	0.0143126	0.0167318	-0.0191111	-0.125977	-0.183105	1.10693	-0.102896	0.779721	-0.614961	-0.057192	-1.97505	-0.43881	-8.25112	-0.0108109	0.160453	-0.0302758	-0.199707	0.125977	1.04077	-0.301257	0.201085	-0.918779	0.157013	-4.76973	-4.23905	-7.53681	-0.0359191	0.0410591	-0.0401284	0.0671387	0.508789	0.997803	-0.119636	0.0731264	-0.896512	-0.420245	-2.51252	7.23723	-5.85871	-0.00271135	-0.0222847	0.0265503	-0.126953	-0.943848	0.782227	-0.186225	0.249399	-0.909553	-0.275379	-4.78008	4.54814	-8.19133	0.0470426	-0.0140568	-0.0071821	0.144775	-0.68335	0.895752	
66	-0.83446	-0.122437	0.480373	-0.24068	8.83797	-0.339907	5.31507	0.0175561	0.0572965	-0.00375194	-0.77417	-0.113525	-0.765137	-0.150034	-0.833823	0.389587	-0.36118	6.8026	-0.362464	-6.63035	0.00399574	0.0251513	-0.0355321	-1.03687	-0.293457	0.804932	0.235375	-0.172591	-0.520809	0.802228	-0.301269	-9.55376	4.00966	0.105603	0.109316	0.0703452	-0.14209	0.89502	-0.605225	-0.630864	0.209773	0.175051	-0.726198	-0.682668	-5.81096	8.57852	0.149812	0.142219	0.173366	0.0644531	0.44165	-1.01611	0.645397	0.463801	-0.379552	-0.473594	0.52061	9.6067	2.87882	0.13345	0.0304123	-0.198997	0.0539551	-0.886719	-0.682861	0.811834	-0.00435154	0.00582784	-0.583843	0.592309	0.993994	13.9246	0.0968681	0.184901	-0.0785524	0.100098	0.327393	-1.04346	-0.0237828	-0.979877	-0.197818	-0.0119837	0.0475718	0.153623	-9.07713	0.0143126	0.0167318	-0.0191111	-0.125977	-0.183105	1.10693	-0.101004	0.779578	-0.615499	-0.056727	-1.92947	-0.506111	-8.31256	-0.0904055	0.141225	0.00925032	-0.197266	0.119385	1.04102	-0.302424	0.199967	-0.91859	0.157305	-4.55524	-4.13386	-7.32223	0.0266773	-0.0336281	0.02608	0.0649414	0.508789	0.993164	-0.120423	0.0734993	-0.895652	-0.421786	-2.58007	7.28404	-5.71769	-0.0966869	-0.0328045	-0.0294536	-0.12915	-0.946045	0.773193	-0.18695	0.249546	-0.909053	-0.276404	-4.72341	4.26346	-8.02861	-0.0129917	-0.0342619	-0.0275518	0.142578	-0.68335	0.893311	
67	-0.83446	-0.122437	0.480373	-0.24068	8.83797	-0.339907	5.31507	0.0175561	0.0572965	-0.00375194	-0.77417	-0.113525	-0.765137	-0.150182	-0.833969	0.388907	-0.361515	6.91959	-0.416399	-6.83703	0.00582761	0.0237839	-0.0350022	-1.04321	-0.293457	0.804932	0.235375	-0.172591	-0.520809	0.802228	-0.301269	-9.55376	4.00966	0.105603	0.109316	0.0703452	-0.14209	0.89502	-0.605225	-0.62637	0.213616	0.168334	-0.730542	-0.901923	-5.12355	7.88283	0.0481545	0.147309	0.196902	0.0871582	0.433105	-1.02271	0.644554	0.464364	-0.377199	-0.476065	0.231316	9.75649	2.7742	-0.109817	0.0145884	-0.125672	0.0561523	-0.886719	-0.685303	0.81085	-0.0033598	0.0106655	-0.585147	0.0543123	1.15255	12.9196	-0.212475	0.170092	-0.0700622	0.104004	0.33374	-1.0415	-0.0237828	-0.979877	-0.197818	-0.0119837	0.0475718	0.153623	-9.07713	0.0143126	0.0167318	-0.0191111	-0.125977	-0.183105	1.10693	-0.101325	0.778654	-0.616237	-0.0606928	-1.95396	-0.352259	-8.38893	-0.0793792	-0.121685	0.0514067	-0.19043	0.112793	1.05029	-0.302424	0.199967	-0.91859	0.157305	-4.55524	-4.13386	-7.32223	0.0266773	-0.0336281	0.02608	0.0649414	0.508789	0.993164	-0.122713	0.0742422	-0.895039	-0.422297	-2.50764	6.9631	-5.77307	0.0215232	-0.0663217	-0.072453	-0.124512	-0.952637	0.777832	-0.187839	0.249746	-0.908929	-0.276029	-4.72656	4.22481	-8.01195	0.041873	-0.0485717	-0.0482851	0.146973	-0.680908	0.895508	
68	-0.835079	-0.122639	0.478882	-0.241402	8.95195	-0.517309	5.36544	0.0452686	0.0268452	-0.0264137	-0.764893	-0.12207	-0.762939	-0.150593	-0.834195	0.388481	-0.361279	6.97851	-0.270223	-6.7201	-0.0150496	0.00613971	-0.0350367	-1.03906	-0.29126	0.804932	0.232876	-0.175243	-0.516499	0.805163	-0.246681	-9.15802	4.15593	0.0829	-0.00803552	0.109338	-0.135498	0.892578	-0.616455	-0.623811	0.215475	0.165863	-0.732748	-1.13729	-4.59276	7.93698	-0.00721529	0.0611632	0.140289	0.0915527	0.433105	-1.01831	0.644983	0.462892	-0.375837	-0.47799	0.337622	9.38305	2.77092	-0.202782	-0.037115	-0.104829	0.0600586	-0.875732	-0.6875	0.809985	-0.00198838	0.0120756	-0.586323	-0.028083	0.706885	12.9087	0.102997	0.0733319	-0.0795317	0.110596	0.331543	-1.03931	-0.0230646	-0.979687	-0.198806	-0.0125614	0.0569728	0.153868	-9.07511	0.0139765	0.0142279	-0.0191169	-0.119629	-0.178711	1.10474	-0.102903	0.777814	-0.616634	-0.0646413	-1.99754	-0.417233	-8.16204	-0.0861286	-0.114153	0.0229743	-0.186035	0.108398	1.05054	-0.305051	0.198636	-0.918558	0.154072	-4.50357	-3.77475	-7.01774	-0.111521	-0.107126	0.0743819	0.081543	0.499756	1.00244	-0.124117	0.0748637	-0.895063	-0.421727	-2.55045	7.24742	-5.73628	0.0461599	-0.0639018	-0.0973158	-0.115723	-0.947998	0.775635	-0.190682	0.250777	-0.908416	-0.27483	-4.64168	4.27284	-7.86183	0.027658	-0.0828175	-0.0866542	0.153564	-0.678711	0.895508	
69	-0.835681	-0.123679	0.477885	-0.240764	8.93786	-0.28388	5.33108	0.0224979	0.0310503	-0.0683302	-0.77124	-0.128662	-0.769287	-0.150781	-0.834277	0.388707	-0.360767	6.94541	-0.302649	-6.68885	-0.0332459	-0.00671059	-0.0170258	-1.04102	-0.295654	0.809814	0.230605	-0.176057	-0.516406	0.805699	-0.498462	-9.3717	4.14545	-0.0211825	-0.0354868	0.0921379	-0.12915	0.892578	-0.614258	-0.62233	0.216241	0.166003	-0.73375	-0.97751	-4.4313	7.98794	-0.0613501	-0.0171411	0.0544374	0.0942383	0.424316	-1.02466	0.642827	0.464877	-0.376829	-0.478187	0.170775	9.23837	2.9486	0.204214	-0.0126286	-0.0411531	0.0583496	-0.882324	-0.685303	0.809667	-0.00187768	0.0120923	-0.586762	0.0397283	0.760902	12.7751	0.00311271	0.00584679	-0.0237924	0.106201	0.33374	-1.04346	-0.0232147	-0.979665	-0.198897	-0.0125817	0.0676927	0.150771	-9.10916	0.0187575	0.0118206	-0.0191146	-0.126221	-0.178711	1.10693	-0.103764	0.776487	-0.617373	-0.0717748	-2.11278	-0.223135	-8.27595	-0.114786	-0.263042	0.0472118	-0.166504	0.108398	1.05737	-0.306924	0.197451	-0.918476	0.152359	-4.60612	-3.79631	-7.00683	-0.00367219	-0.0576748	0.0372759	0.0839844	0.499756	1.00024	-0.125666	0.0756659	-0.894817	-0.421646	-2.61258	7.20857	-5.46807	0.00125437	-0.0736546	-0.111321	-0.113281	-0.950195	0.782471	-0.194653	0.251871	-0.908185	-0.271792	-4.6744	4.17544	-7.66294	0.176719	-0.104087	-0.115106	0.162109	-0.665527	0.899902	
70	-0.836409	-0.124196	0.476626	-0.240466	8.83593	-0.0502371	5.34219	0.011976	0.0522862	-0.0166925	-0.762451	-0.124268	-0.769287	-0.150543	-0.834433	0.388892	-0.360308	6.90549	-0.246135	-6.84333	-0.0230563	-0.00612468	-0.0171404	-1.04102	-0.293457	0.812012	0.229102	-0.175497	-0.517221	0.805727	-0.31476	-9.09928	4.14421	-0.029407	-0.0549728	0.0298129	-0.137695	0.896973	-0.612061	-0.622055	0.216356	0.166808	-0.733766	-1.0516	-4.79207	7.91962	-0.0554593	-0.0304069	0.00539587	0.0874023	0.428711	-1.01587	0.64238	0.465247	-0.377858	-0.477615	0.467811	9.48432	2.76882	0.0914343	-0.0235263	0.0237996	0.0649414	-0.886719	-0.685303	0.809491	-0.00107615	0.0109942	-0.587029	0.04373	0.642126	13.0381	0.106093	-0.0186124	-0.0401391	0.104248	0.331543	-1.04126	-0.023236	-0.979659	-0.198925	-0.012568	0.0624053	0.147084	-9.08662	0.0200719	0.0110126	-0.018101	-0.126221	-0.176514	1.11108	-0.107693	0.775041	-0.617676	-0.0786737	-2.26722	-0.210066	-8.08977	-0.0309513	-0.280714	0.025758	-0.153564	0.108643	1.05957	-0.308331	0.196725	-0.918175	0.152271	-4.74305	-3.6085	-6.93966	0.0173342	-0.0483822	0.00993199	0.0932617	0.5	0.993408	-0.129932	0.0784365	-0.893374	-0.422905	-2.63943	7.68681	-5.57281	-0.091819	-0.0539498	-0.111962	-0.0976562	-0.952148	0.768799	-0.197222	0.253194	-0.906818	-0.273273	-4.83483	4.28828	-7.54686	-0.127725	-0.0929861	-0.0613506	0.168945	-0.66748	0.895508	
71	-0.83697	-0.122804	0.475566	-0.241323	8.96476	0.08291	5.42161	-0.0305417	0.0689	0.0767247	-0.769043	-0.124268	-0.775879	-0.150139	-0.834623	0.389125	-0.359785	6.8243	-0.516066	-6.92462	-0.00328217	-0.0156108	-0.0167015	-1.03662	-0.295654	0.807373	0.229102	-0.175497	-0.517221	0.805727	-0.31476	-9.09928	4.14421	-0.029407	-0.0549728	0.0298129	-0.137695	0.896973	-0.612061	-0.622139	0.216535	0.171524	-0.732554	-1.17757	-3.92555	7.79893	-0.25431	-0.129077	-0.107758	0.0778809	0.44165	-1.01611	0.642656	0.464638	-0.377898	-0.477805	0.0912961	9.14241	2.64271	-0.0555718	-0.0138332	-0.0159599	0.0561523	-0.882324	-0.680664	0.810024	-0.00135175	0.00895786	-0.586327	0.208933	1.13905	12.9538	0.0171211	-0.0415229	0.0356647	0.104492	0.325195	-1.04126	-0.0232366	-0.979645	-0.198992	-0.0125568	0.0650813	0.133467	-9.09055	0.0211819	0.0115395	-0.0205457	-0.126221	-0.180908	1.10913	-0.109257	0.774378	-0.617906	-0.0811952	-2.30176	-0.236466	-8.10633	-0.0197627	-0.219157	0.0229609	-0.144775	0.106445	1.05493	-0.310669	0.196252	-0.917328	0.153232	-4.77834	-3.65823	-7.01369	0.0676047	-0.0824037	0.00270351	0.0952148	0.504395	1	-0.131173	0.0810189	-0.889748	-0.429626	-2.62956	6.95379	-5.18935	-0.368973	-0.030908	-0.0826646	-0.097168	-0.965332	0.750977	-0.198368	0.254688	-0.903184	-0.282918	-4.88954	3.89863	-7.49923	-0.452675	-0.170552	-0.0211179	0.176514	-0.685303	0.873047	
72	-0.836928	-0.118411	0.475802	-0.243193	8.73629	-0.459293	5.25819	-0.12709	0.0160085	0.143737	-0.765625	-0.104492	-0.773926	-0.150214	-0.834864	0.388946	-0.359387	6.88092	-0.289299	-6.79535	0.0024912	0.00422023	-0.031977	-1.04517	-0.300049	0.812256	0.229192	-0.172594	-0.523071	0.802545	-0.427011	-8.96853	4.33048	-0.234035	-0.0496207	-0.117794	-0.14209	0.896973	-0.600586	-0.6241	0.21679	0.180647	-0.728607	-0.914137	-4.65708	8.05028	-0.271486	-0.174877	-0.246519	0.0683594	0.454834	-1.00977	0.642068	0.465496	-0.380993	-0.475296	0.674898	9.61661	2.80085	0.196445	0.00108464	0.0764996	0.0585938	-0.891113	-0.682861	0.81059	-0.00289755	0.00644332	-0.585571	-0.0418715	0.880338	13.1337	0.0551958	-0.133386	0.0172157	0.100098	0.325195	-1.04126	-0.0225141	-0.979555	-0.199505	-0.012757	0.0699613	0.150718	-9.08205	0.0251725	0.0135642	-0.0188764	-0.128418	-0.178711	1.10254	-0.113194	0.771721	-0.619608	-0.0878598	-2.45931	-0.238186	-8.17241	-0.036247	-0.245723	0.109953	-0.127686	0.108643	1.05493	-0.314195	0.194942	-0.915762	0.157035	-5.00114	-3.98948	-7.214	0.23678	-0.110338	-0.0330118	0.0996094	0.511475	0.991211	-0.132312	0.0835061	-0.886676	-0.435117	-3.46924	6.63973	-6.14485	-0.199901	-0.0333292	-0.0913596	-0.0876465	-0.976318	0.737549	-0.200287	0.255793	-0.900101	-0.2903	-4.79367	3.3191	-7.35816	-0.175369	-0.0989144	-0.0388046	0.179199	-0.696289	0.866211	
73	-0.836864	-0.115669	0.476246	-0.243863	8.91648	-0.880654	5.29796	-0.061924	0.0161192	0.0453676	-0.765625	-0.106689	-0.780273	-0.150634	-0.835017	0.389068	-0.358723	6.85902	-0.157761	-6.9088	-0.052911	-0.0129318	-0.0261669	-1.04102	-0.297852	0.816895	0.230861	-0.172578	-0.529439	0.797881	0.0425101	-9.44863	4.17478	-0.31413	0.026005	-0.130667	-0.148438	0.901367	-0.584717	-0.623695	0.219331	0.192885	-0.725047	-0.389931	-5.88572	8.21771	-0.444301	-0.188948	-0.134564	0.0603027	0.480957	-1.01025	0.641741	0.465599	-0.38305	-0.47398	0.0617741	9.61854	2.42716	0.0432522	-0.0362969	0.0484206	0.0476074	-0.88916	-0.666992	0.811748	-0.00337555	0.00122703	-0.583997	0.452243	1.28125	13.6933	0.0835983	-0.165914	0.0704327	0.0959473	0.322998	-1.04321	-0.0225472	-0.979551	-0.199518	-0.0127947	0.0665411	0.14719	-9.07447	0.0187444	0.0146823	-0.0179052	-0.124023	-0.178711	1.10278	-0.121872	0.772469	-0.617894	-0.0815222	-3.35957	0.288367	-8.22338	0.0980092	-0.195846	-0.121161	-0.126465	0.130371	1.05225	-0.316932	0.193819	-0.91449	0.160298	-4.75703	-3.28451	-6.71311	0.0318067	-0.0836082	-0.00935819	0.106201	0.518311	0.98877	-0.136785	0.0844058	-0.887274	-0.432332	-2.58409	6.38875	-5.16345	0.249063	-0.111068	-0.124854	-0.0834961	-0.971924	0.744141	-0.201847	0.255839	-0.901009	-0.286333	-4.99464	4.38211	-7.02773	0.235318	-0.00678089	-0.0694464	0.178955	-0.691895	0.875244	
74	-0.837322	-0.115662	0.475801	-0.243162	8.78245	-0.739194	5.35551	0.00829059	0.016223	-0.0528804	-0.765381	-0.108887	-0.775879	-0.152227	-0.834846	0.389764	-0.357691	6.89692	-0.233848	-6.85791	-0.100363	0.00459791	-0.0202239	-1.04077	-0.302246	0.821777	0.234041	-0.170985	-0.529669	0.797145	-0.128955	-9.72782	3.79936	0.126109	0.0043948	-0.130704	-0.155029	0.906006	-0.587158	-0.623298	0.218972	0.1975	-0.724255	-0.652682	-5.91773	8.86377	-0.101069	-0.0909665	-0.0270494	0.0556641	0.485352	-1.00146	0.640973	0.466747	-0.385291	-0.472071	0.44068	9.5454	2.71873	0.11489	-0.0081854	0.0507935	0.0522461	-0.897949	-0.666992	0.812275	-0.00357565	-0.000834874	-0.583264	0.252249	1.34616	13.8005	0.0860112	-0.129466	0.0556311	0.0874023	0.320801	-1.04321	-0.0224254	-0.979493	-0.199806	-0.0129986	0.0664345	0.134635	-9.07372	0.0124442	0.015329	-0.0187044	-0.124268	-0.176514	1.10693	-0.131298	0.772987	-0.615531	-0.0798322	-2.69215	-0.124136	-7.67923	0.189578	-0.185505	-0.131306	-0.122314	0.136963	1.05664	-0.318205	0.194911	-0.914742	0.154927	-4.83195	-4.22557	-6.77017	-0.225563	-0.0908605	0.0168655	0.104736	0.500244	0.989014	-0.139171	0.0850344	-0.887484	-0.431014	-2.75579	7.92819	-5.18744	-0.0904921	-0.0171047	-0.0653913	-0.0703125	-0.967285	0.757812	-0.205534	0.25738	-0.899868	-0.285917	-4.79519	3.83735	-7.0104	0.0373769	-0.139647	-0.129146	0.19458	-0.687256	0.870605	
75	-0.83765	-0.116	0.47548	-0.242498	8.86908	-0.426737	5.47789	0.00245677	0.0171626	-0.0699754	-0.756592	-0.111084	-0.775879	-0.152913	-0.834847	0.390126	-0.357001	6.8315	-0.241551	-6.75583	-0.0880997	-0.0123265	-0.0237142	-1.03857	-0.302246	0.812256	0.235072	-0.170631	-0.528341	0.797798	-0.238718	-9.78734	3.9029	0.136069	0.0246198	-0.0467726	-0.150635	0.905762	-0.591797	-0.623119	0.219405	0.19914	-0.723828	-0.60467	-6.11149	8.88515	-0.0492714	0.00542736	-0.00112122	0.0554199	0.489746	-0.997314	0.639485	0.4684	-0.386752	-0.471257	0.721071	9.56913	2.50351	0.126567	-0.0198807	-0.0454953	0.0437012	-0.897949	-0.664551	0.812616	-0.00173928	-0.00469272	-0.582778	0.746617	1.7146	14.1822	0.148763	0.0237839	-0.0450625	0.092041	0.310059	-1.04932	-0.0224775	-0.979482	-0.19985	-0.0130576	0.0697574	0.140395	-9.06991	0.0161928	0.0165212	-0.0180255	-0.126221	-0.180908	1.11133	-0.130622	0.77324	-0.614963	-0.0828191	-2.48096	-0.82154	-8.29421	-0.193653	-0.13995	-0.0473546	-0.11792	0.134766	1.05908	-0.318909	0.194482	-0.914527	0.155285	-4.64809	-4.37592	-6.70288	0.0478374	-0.0465377	-0.00642109	0.109131	0.50708	0.989014	-0.138701	0.0866557	-0.886427	-0.433013	-2.91071	7.16694	-5.42257	-0.197394	0.0761608	-0.083191	-0.0725098	-0.969482	0.748779	-0.207148	0.257976	-0.89946	-0.2855	-4.90372	3.90807	-7.10284	0.0466915	-0.094589	-0.101064	0.196777	-0.685059	0.873047	
76	-0.838003	-0.11586	0.475181	-0.241931	8.9796	-0.572725	5.45438	0.00426944	0.00665648	-0.00505448	-0.765137	-0.113281	-0.778076	-0.153336	-0.834917	0.390458	-0.356292	6.8458	-0.686977	-6.78479	-0.0693247	-0.0235498	-0.0206868	-1.04468	-0.311035	0.817383	0.23586	-0.171007	-0.527634	0.797953	-0.284973	-9.43466	3.8541	0.0121957	0.0410799	0.0017887	-0.161377	0.906006	-0.587158	-0.6235	0.220669	0.198723	-0.72323	-0.822321	-5.76273	7.98468	0.0478712	0.0701131	-0.0346746	0.0554199	0.491943	-0.999512	0.636897	0.470193	-0.387805	-0.472111	0.364172	9.86296	2.52394	0.0427259	-0.0594593	-0.101526	0.0546875	-0.902344	-0.664551	0.811881	0.00180086	-0.00679089	-0.583781	0.697165	1.17477	13.4926	0.176896	0.019049	-0.0710263	0.0839844	0.30127	-1.04907	-0.0223995	-0.97943	-0.200109	-0.0131205	0.0720767	0.145718	-9.08145	0.0135212	0.00966536	-0.0183554	-0.130615	-0.176514	1.10889	-0.133702	0.77274	-0.614971	-0.0825087	-2.44426	-0.490567	-7.73006	0.141687	-0.0353526	-0.0221412	-0.111816	0.143555	1.05884	-0.320023	0.194242	-0.914156	0.155481	-4.86191	-4.00102	-6.72207	-0.0545147	-0.039278	-0.0144726	0.111328	0.511719	0.989014	-0.140488	0.0873713	-0.885712	-0.433756	-2.83701	6.32518	-5.2758	0.070131	-0.0668599	-0.0434669	-0.0654297	-0.976074	0.741943	-0.207492	0.258621	-0.899379	-0.284921	-4.72629	3.65448	-6.82001	0.020461	0.0242729	-0.0208599	0.196777	-0.685059	0.870605	
77	-0.837921	-0.11548	0.475224	-0.242313	9.07103	-0.378493	5.47473	-0.0107312	-0.00981361	0.0297047	-0.758789	-0.106689	-0.778076	-0.153179	-0.835589	0.390589	-0.354637	6.89462	-0.526396	-6.86063	-0.0147414	-0.045217	-0.0123896	-1.05127	-0.312988	0.824463	0.233981	-0.172211	-0.529307	0.797139	-0.0883594	-10.4074	3.74245	-0.0852438	-0.0154859	0.0531675	-0.148682	0.910156	-0.5896	-0.624647	0.220484	0.200702	-0.721749	-0.602828	-5.96668	8.32575	-0.141607	-0.0437743	-0.0675046	0.0551758	0.496094	-0.997314	0.631488	0.475171	-0.38959	-0.472922	0.457673	9.41705	2.37608	0.400856	-0.038489	-0.194515	0.057373	-0.911133	-0.648682	0.810634	0.0114967	-0.0131173	-0.585294	-0.0012667	1.95038	13.4754	0.472246	0.0459767	-0.0929064	0.0913086	0.279541	-1.05054	-0.0227381	-0.979405	-0.200201	-0.0129909	0.0664091	0.153647	-9.0884	0.0132599	0.00660046	-0.0186552	-0.128418	-0.176514	1.10474	-0.136148	0.772435	-0.614708	-0.0833154	-2.72975	0.00162569	-8.00564	0.0164699	-0.0921774	-0.0372856	-0.114258	0.147949	1.0564	-0.320394	0.19327	-0.9138	0.158002	-4.65048	-3.13564	-6.5539	0.070498	0.0433964	-0.0196062	0.111084	0.516113	0.991211	-0.140983	0.0870248	-0.888138	-0.428673	-2.98712	7.16188	-5.31794	0.220585	0.0398231	0.00316842	-0.0681152	-0.965088	0.757812	-0.20791	0.258588	-0.899913	-0.282952	-4.89501	3.53134	-7.06589	0.144907	0.0181178	-0.0288625	0.19873	-0.680664	0.868408	
78	-0.837146	-0.114703	0.475616	-0.244579	9.15469	-0.461503	5.45004	0.0233056	0.00218824	0.105977	-0.765625	-0.104492	-0.778076	-0.151886	-0.835889	0.39054	-0.35454	6.94525	0.101192	-7.18247	0.0170454	-0.00772559	-0.0204456	-1.04272	-0.308838	0.824219	0.23325	-0.17268	-0.527416	0.798504	-0.403798	-8.68616	3.99514	0.116529	-0.0190338	0.0879579	-0.155029	0.906006	-0.589355	-0.624479	0.221174	0.201629	-0.721425	-0.712699	-6.04011	7.97863	-0.0940037	0.00295874	-0.0105791	0.0576172	0.493896	-0.995117	0.629472	0.478033	-0.391104	-0.471473	-0.185832	9.97369	2.3999	0.322564	0.0303696	-0.0502786	0.064209	-0.919922	-0.648682	0.810354	0.0123069	-0.0127435	-0.585672	-0.095209	1.93887	12.7838	0.0372864	0.0753315	-0.0552197	0.0888672	0.283936	-1.05933	-0.0227999	-0.979394	-0.200249	-0.0129292	0.0675514	0.159163	-9.08463	0.0175544	0.00638447	-0.0201607	-0.130371	-0.180908	1.11133	-0.135647	0.773624	-0.612829	-0.0868663	-2.71157	-0.402063	-8.00667	-0.113078	-0.0952707	-0.0758543	-0.102783	0.13501	1.05444	-0.317537	0.194559	-0.915131	0.154441	-5.02235	-3.78289	-6.79452	-0.175612	0.0893356	-0.0418221	0.109375	0.502441	0.991211	-0.140512	0.0867477	-0.887403	-0.430403	-2.95567	6.88272	-5.4439	-0.15977	0.0321145	0.0205016	-0.0700684	-0.969482	0.750977	-0.207231	0.258502	-0.900172	-0.282705	-4.99494	3.96469	-6.9881	0.0137703	0.0625347	0.0168787	0.192139	-0.680664	0.872803	
79	-0.836918	-0.114285	0.475906	-0.244991	8.8213	-0.626013	5.21385	-0.0134704	-0.0388869	-0.00170463	-0.761475	-0.100098	-0.77832	-0.152575	-0.83579	0.391131	-0.353826	6.78009	-0.578195	-7.10877	-0.0373748	0.015854	0.00325214	-1.04688	-0.312988	0.826904	0.233606	-0.17344	-0.529178	0.797068	0.206984	-10.0133	3.81039	-0.0992702	0.0808046	-0.0594711	-0.148438	0.903564	-0.587158	-0.623948	0.220473	0.199708	-0.722632	-0.459135	-5.74651	8.30508	0.0719362	0.0142805	0.0858508	0.0532227	0.491699	-0.997314	0.62904	0.477828	-0.391993	-0.471519	0.687804	9.49778	2.42382	0.00214089	-0.022317	-0.0472812	0.0551758	-0.91333	-0.644043	0.809984	0.0152328	-0.0152368	-0.586057	0.0620062	1.49026	13.5592	0.270999	-0.00242691	-0.0394238	0.0830078	0.270996	-1.06104	-0.0228726	-0.979379	-0.200323	-0.0128233	0.0728432	0.142959	-9.06685	0.0194732	0.00680285	-0.0189241	-0.130371	-0.183105	1.10913	-0.134782	0.774441	-0.611786	-0.0882818	-2.68817	-0.906414	-7.74669	-0.0591472	0.0271759	-0.0595704	-0.102783	0.130615	1.05444	-0.316814	0.195488	-0.915548	0.152265	-4.95545	-4.02452	-6.882	-0.0848537	-0.0148964	-0.0410274	0.109375	0.502441	0.99585	-0.138924	0.0856417	-0.888407	-0.429067	-3.20235	7.09993	-5.45693	0.122918	0.0524546	0.0715215	-0.0793457	-0.962891	0.753174	-0.20372	0.257811	-0.90095	-0.28341	-5.16083	4.23672	-7.45375	-0.0282399	0.0997333	0.0640803	0.18335	-0.687256	0.875244	
80	-0.837287	-0.114096	0.475918	-0.243792	8.87851	-0.705168	5.24546	-0.0318547	0.0142006	-0.0560888	-0.765625	-0.104492	-0.778076	-0.152694	-0.835794	0.391296	-0.353582	6.7933	-0.0935108	-6.74541	-0.0447486	-0.00135951	-0.0243663	-1.04053	-0.308594	0.82666	0.233558	-0.172651	-0.523465	0.801016	-0.470236	-9.43567	3.80477	0.313551	-0.0473897	0.0703222	-0.144043	0.89502	-0.600586	-0.624105	0.218563	0.195737	-0.724162	-0.573031	-5.22403	8.00622	0.209866	0.0417141	0.0454423	0.0556641	0.489746	-0.999512	0.629377	0.477957	-0.392417	-0.470586	0.185062	9.635	2.07104	0.0532082	-0.0101245	0.0377181	0.0554199	-0.917725	-0.637207	0.810293	0.0136083	-0.0142471	-0.585694	0.829334	1.70519	13.1829	-0.186962	-0.0157267	0.0152689	0.0871582	0.273193	-1.05469	-0.0230096	-0.979363	-0.2004	-0.0126241	0.0646176	0.143032	-9.06232	0.0188818	0.00438658	-0.0193846	-0.128662	-0.174316	1.10669	-0.134761	0.774585	-0.611741	-0.0873556	-2.76358	-1.34274	-8.15761	0.0482696	0.0767214	-0.0389857	-0.11377	0.134766	1.05664	-0.318213	0.195967	-0.914666	0.154026	-4.85663	-3.94444	-6.68828	0.100202	-0.042998	-0.0655885	0.111328	0.50708	0.993408	-0.137573	0.0850019	-0.888609	-0.429212	-2.91551	6.67085	-5.31288	-0.0292991	0.0560629	0.0602754	-0.0771484	-0.965088	0.755371	-0.202256	0.257201	-0.900832	-0.28538	-5.11557	3.63237	-7.66792	0.0117781	0.00854642	0.0285266	0.18335	-0.689453	0.868408	
81	-0.837218	-0.114795	0.475537	-0.244442	8.94738	-0.53995	5.30248	0.0620485	0.00605591	0.0297769	-0.767822	-0.106689	-0.780273	-0.151186	-0.835953	0.391239	-0.353917	6.78066	-0.342126	-7.07626	0.048997	0.00363625	-0.00370363	-1.04272	-0.306396	0.828857	0.234035	-0.173169	-0.523577	0.800692	-0.211841	-9.21682	3.9046	-0.104391	0.0466114	0.0197719	-0.148438	0.897217	-0.596191	-0.624124	0.218479	0.194469	-0.724513	-0.845012	-5.70017	7.97499	0.024103	0.0342112	0.00566961	0.0581055	0.480957	-1.00146	0.629679	0.478093	-0.391741	-0.470606	0.316859	9.59623	2.18429	-0.0568972	0.0397346	-0.010207	0.057373	-0.915527	-0.639404	0.810261	0.0154135	-0.0151869	-0.585669	0.044922	1.76809	13.346	0.109034	0.0455651	-0.0191484	0.0871582	0.273193	-1.05884	-0.0228584	-0.979305	-0.200706	-0.0125263	0.0642886	0.142649	-9.07585	0.0172891	0.00361487	-0.0203969	-0.126221	-0.178711	1.10913	-0.136519	0.774279	-0.612261	-0.0836134	-2.78789	-0.486013	-8.10073	0.0578239	0.0544163	-0.0120422	-0.116211	0.145752	1.05884	-0.318347	0.195507	-0.913814	0.1593	-4.72735	-3.74192	-6.41925	0.255704	0.0672382	-0.0757914	0.106445	0.513916	0.993408	-0.136953	0.0841129	-0.889075	-0.428619	-3.145	7.55017	-5.79288	0.0324331	0.0128013	0.00980895	-0.0859375	-0.963135	0.755371	-0.201667	0.256389	-0.901762	-0.283587	-5.17052	4.62013	-7.66437	0.0542435	0.0693779	0.0344342	0.181152	-0.687256	0.877441	
82	-0.837205	-0.115182	0.474969	-0.245408	9.07795	-0.584367	5.44836	0.0759855	0.0348669	0.041932	-0.763428	-0.106689	-0.778076	-0.150738	-0.836318	0.391256	-0.353225	6.85402	-0.443951	-6.97594	-0.0250789	-0.00627693	-0.0222747	-1.03613	-0.308594	0.82666	0.232522	-0.173842	-0.524778	0.8002	-0.525	-9.10988	4.02307	-0.12764	-0.0321189	0.0961535	-0.144287	0.901367	-0.589355	-0.623128	0.219341	0.19424	-0.72517	-0.696326	-5.10352	7.89662	-0.0562206	0.0049123	0.0554012	0.0603027	0.480957	-1.00366	0.629959	0.477541	-0.392099	-0.470493	0.658716	9.45041	2.51224	-0.0107287	-0.0365435	-0.0113795	0.057373	-0.91333	-0.639404	0.810799	0.0143117	-0.0149536	-0.584959	0.541859	1.06388	13.2275	0.111027	-0.0167079	0.00740242	0.0874023	0.268799	-1.06104	-0.0229565	-0.979292	-0.200764	-0.0124073	0.0653941	0.144113	-9.06766	0.0157484	0.00152456	-0.0210533	-0.126221	-0.180908	1.10693	-0.134836	0.774631	-0.612184	-0.0836417	-2.5756	-0.398368	-7.79594	-0.117576	0.0556689	-0.0281414	-0.114014	0.141357	1.0542	-0.317467	0.195357	-0.914149	0.159316	-4.72498	-3.26875	-6.29428	-0.016247	0.0745777	-0.029642	0.102051	0.511475	0.991211	-0.137275	0.0832764	-0.889394	-0.428017	-2.65029	6.66077	-5.13594	0.0740211	-0.00444773	0.0414827	-0.0817871	-0.960938	0.753174	-0.201641	0.256181	-0.901642	-0.284174	-4.91721	4.1683	-7.85414	0.0302608	-0.0353773	-0.0178478	0.183105	-0.682861	0.872803	
83	-0.837105	-0.116174	0.4737	-0.247725	9.04821	-0.604064	5.53801	0.0975353	0.0321379	0.0486895	-0.765381	-0.108887	-0.780273	-0.150566	-0.836122	0.391062	-0.353977	6.9944	-0.0775071	-6.93676	0.00638554	0.0437537	-0.0202266	-1.03613	-0.306641	0.824219	0.232199	-0.1743	-0.526502	0.799061	-0.146398	-9.97188	4.03292	-0.0275183	0.0184175	-0.0047747	-0.137695	0.901367	-0.593994	-0.621377	0.220374	0.195527	-0.726013	-0.844928	-5.53192	7.83124	-0.0559064	-0.0196396	0.0986693	0.0600586	0.487549	-0.99707	0.62888	0.479107	-0.394341	-0.468467	0.0556891	10.2757	1.86871	0.176825	-0.0233305	0.0471696	0.0512695	-0.922119	-0.639404	0.811394	0.0137381	-0.016899	-0.584094	0.571967	2.61015	13.1045	-0.161845	-0.0970548	0.0665522	0.0849609	0.273193	-1.05664	-0.0227212	-0.979185	-0.20132	-0.0122725	0.0608819	0.14478	-9.0854	0.014293	0.00223254	-0.020631	-0.128174	-0.180908	1.11328	-0.129727	0.774577	-0.613113	-0.085407	-2.60489	-0.852339	-8.06168	-0.284394	0.0961266	0.0827192	-0.11792	0.130371	1.05688	-0.315632	0.195785	-0.915233	0.15618	-4.677	-4.68236	-7.02103	-0.019803	0.0622824	-0.0101496	0.102051	0.509277	0.993408	-0.136854	0.0842536	-0.888132	-0.430573	-3.12485	7.82227	-5.6639	-0.213211	0.00741394	-0.0416632	-0.0812988	-0.967285	0.753174	-0.202153	0.256289	-0.901276	-0.284871	-5.03116	4.73439	-7.77558	-0.0473372	-0.0485246	-0.0216277	0.183594	-0.694092	0.868652	
84	-0.837512	-0.117465	0.472463	-0.248101	8.81489	-0.537011	5.48932	0.0541401	0.0349498	-0.0389604	-0.763184	-0.108887	-0.780273	-0.150566	-0.836122	0.391062	-0.353977	6.9944	-0.0775071	-6.93676	0.00638554	0.0437537	-0.0202266	-1.03613	-0.306641	0.824219	0.232156	-0.172008	-0.523134	0.801778	-0.171027	-9.49164	3.82772	0.178965	-0.0565578	-0.0518191	-0.144287	0.89917	-0.596191	-0.621879	0.21894	0.196071	-0.72587	-0.78909	-5.21385	8.4576	0.0115373	-0.0358682	-0.0748953	0.0556641	0.485352	-1.00366	0.627756	0.479468	-0.395869	-0.468317	0.454348	9.809	2.50532	0.122318	-0.0863857	-0.0029389	0.0532227	-0.915527	-0.632568	0.810722	0.0148853	-0.0209259	-0.584868	0.269225	1.68087	13.4484	0.278046	-0.0758762	-0.0933033	0.0766602	0.264404	-1.0564	-0.0227212	-0.979185	-0.20132	-0.0122725	0.0608819	0.14478	-9.0854	0.014293	0.00223254	-0.020631	-0.128174	-0.180908	1.11328	-0.129727	0.774577	-0.613113	-0.085407	-2.60489	-0.852339	-8.06168	-0.284394	0.0961266	0.0827192	-0.11792	0.130371	1.05688	-0.314862	0.194362	-0.915282	0.1592	-4.72787	-3.65543	-6.77039	0.076555	0.0498801	-0.0150958	0.097168	0.516113	0.990967	-0.137266	0.0847762	-0.886748	-0.433185	-2.75561	6.41131	-5.44019	-0.233423	-0.031814	-0.0320278	-0.0722656	-0.973877	0.748779	-0.201829	0.257065	-0.899668	-0.289448	-4.93246	4.02349	-7.41851	-0.152703	-0.0347383	-0.0277149	0.185791	-0.693848	0.866211	
85	-0.837949	-0.118162	0.471701	-0.247743	8.75288	-0.343642	5.40172	0.00685902	0.0177829	-0.0420464	-0.760742	-0.115479	-0.778076	-0.150875	-0.835855	0.390795	-0.354771	6.78332	-0.370549	-6.75831	-0.000605656	0.0300856	-0.00954536	-1.04077	-0.300049	0.821777	0.231523	-0.171523	-0.523485	0.801835	-0.529375	-8.45723	4.58872	-0.0542212	-0.060459	0.0213545	-0.150635	0.899414	-0.596191	-0.621113	0.219624	0.196922	-0.726089	-0.777698	-5.37145	8.32738	-0.0912288	-0.0116979	0.052133	0.0581055	0.483154	-1.00146	0.627511	0.478679	-0.396983	-0.468509	0.294361	10.0755	1.82207	0.0435066	-0.0294446	0.00122433	0.0512695	-0.922363	-0.632568	0.810722	0.0148853	-0.0209259	-0.584868	0.269225	1.68087	13.4484	0.278046	-0.0758762	-0.0933033	0.0766602	0.264404	-1.0564	-0.0226771	-0.979118	-0.201657	-0.0121685	0.0571686	0.134107	-9.09401	0.016869	0.0064778	-0.0207405	-0.124023	-0.178711	1.10693	-0.121721	0.773542	-0.616002	-0.0857767	-2.57963	-0.469954	-8.10126	-0.16107	0.136092	0.0841723	-0.121582	0.119629	1.05713	-0.314409	0.193875	-0.915333	0.160393	-4.86511	-4.34873	-7.13071	0.135491	0.0428923	-0.0226274	0.104004	0.518311	0.986572	-0.13791	0.0856932	-0.886527	-0.433251	-3.02694	7.31159	-5.29794	0.0346913	0.0110392	-0.0544057	-0.0700684	-0.97168	0.746582	-0.203171	0.258003	-0.898885	-0.290105	-4.91153	3.95195	-7.2507	-0.0252081	-0.0474419	-0.0550671	0.185791	-0.69165	0.861572	
