40	Head	00b4120a												Throax	00b411e8												LUpArm	00b411d9												LFoArm	00b41148												RUpArm	00b411db												RFoArm	00b41204												Waist	00b411f7												Lthigh	00b411f4												Lshank	00b4111b												Rthigh	00b411c8												Rshank	00b411ee												
PacketCount	q0	q1	q2	q3	accX	accY	accZ	gyrX	gyrY	gyrZ	magX	magY	magZ	q0	q1	q2	q3	accX	accY	accZ	gyrX	gyrY	gyrZ	magX	magY	magZ	q0	q1	q2	q3	accX	accY	accZ	gyrX	gyrY	gyrZ	magX	magY	magZ	q0	q1	q2	q3	accX	accY	accZ	gyrX	gyrY	gyrZ	magX	magY	magZ	q0	q1	q2	q3	accX	accY	accZ	gyrX	gyrY	gyrZ	magX	magY	magZ	q0	q1	q2	q3	accX	accY	accZ	gyrX	gyrY	gyrZ	magX	magY	magZ	q0	q1	q2	q3	accX	accY	accZ	gyrX	gyrY	gyrZ	magX	magY	magZ	q0	q1	q2	q3	accX	accY	accZ	gyrX	gyrY	gyrZ	magX	magY	magZ	q0	q1	q2	q3	accX	accY	accZ	gyrX	gyrY	gyrZ	magX	magY	magZ	q0	q1	q2	q3	accX	accY	accZ	gyrX	gyrY	gyrZ	magX	magY	magZ	q0	q1	q2	q3	accX	accY	accZ	gyrX	gyrY	gyrZ	magX	magY	magZ	
0	0.255258	0.0691166	-0.00307383	-0.964394	-1.36867	0.416149	10.9542	0.00109213	-0.00476287	0.00243131	-0.178223	0.194336	-1.14575	0.738377	0.153208	0.18433	-0.630357	-4.55521	-0.158344	8.93409	0.000561594	0.0132593	-0.0144894	0.385986	0.141846	-1.03442	0.495933	0.867826	0.00794703	0.0294215	0.54156	7.94414	-4.7229	0.00381468	0.00885369	-0.00568453	0.377686	-0.845947	0.760742	0.186204	0.582846	0.773243	0.166476	-0.946867	4.59322	-8.56623	0.000674441	0.00508159	0.00091875	-0.163574	0.032959	1.08325	-0.423713	0.837616	0.316769	-0.136101	0.180188	-7.72882	-5.85107	-2.37627e-05	0.00577443	-0.0163561	0.517578	1.2334	0.569336	0.339214	0.851783	-0.38924	-0.0888325	-0.000697959	7.18612	-3.22562	0.00202069	0.0112011	-0.0159946	0.350586	-0.93457	0.330322	0.901699	-0.0555407	-0.104839	-0.415767	2.61072	0.150367	10.1451	0.0818054	0.10914	-0.0140155	-0.583984	0.0625	-0.90918	0.133138	-0.158336	0.43284	-0.877413	1.68789	-8.36623	6.15143	0.00779994	0.0145576	-0.0145152	-0.615479	0.886475	-0.40332	0.378634	-0.925048	0.0237719	-0.0189222	0.180885	-6.54631	-6.60473	0.00493734	0.00480873	-0.0163451	0.472168	0.825439	0.854248	-0.0812478	-0.0149834	-0.0252399	-0.996262	0.61672	0.576104	10.5127	0.00324966	0.0103711	0.00228689	-0.449707	-0.148193	-0.956299	-0.631798	-0.749406	-0.139767	-0.140311	0.310574	9.63143	-1.6977	0.001862	0.00692627	-0.00766479	0.433105	-0.948486	0.105225	
1	0.255289	0.0691378	-0.00311448	-0.964385	-1.38404	0.426705	10.93	0.0035223	-0.0012536	-0.000364828	-0.182617	0.196533	-1.15015	0.738408	0.153377	0.184163	-0.630328	-4.5671	-0.165458	8.98385	-0.00078648	0.0146327	-0.0128209	0.388428	0.139648	-1.03198	0.495932	0.867818	0.00799663	0.0296442	0.528485	7.93627	-4.7485	0.00268553	0.0121841	-0.000959042	0.377441	-0.839355	0.753662	0.186227	0.582835	0.773244	0.166484	-0.945658	4.59315	-8.5664	0.000189719	0.00539614	0.000608374	-0.167725	0.0285645	1.08545	-0.423767	0.83759	0.31677	-0.136094	0.179539	-7.72375	-5.87122	0.00389149	0.0108349	-0.0174327	0.522217	1.2312	0.564697	0.339299	0.851814	-0.389112	-0.0887772	-0.00345002	7.17953	-3.21449	0.00476447	0.0117463	-0.0159723	0.352783	-0.93457	0.32373	0.902075	-0.0530407	-0.103213	-0.415686	2.56242	0.200824	10.1323	0.0791572	0.117895	-0.013079	-0.568848	0.0603027	-0.90918	0.133261	-0.158364	0.432647	-0.877485	1.67079	-8.31348	6.14376	0.0103003	0.0147679	-0.0156114	-0.611084	0.882324	-0.405518	0.378576	-0.925072	0.0238122	-0.0188458	0.160486	-6.53633	-6.5823	0.00462909	0.00556389	-0.0174755	0.462646	0.827637	0.849609	-0.0813165	-0.0150189	-0.0250938	-0.996259	0.613869	0.54901	10.4785	-0.00446822	0.0125018	0.00323466	-0.454102	-0.148438	-0.956299	-0.63181	-0.74941	-0.139732	-0.140271	0.317317	9.62585	-1.6733	0.00274204	0.00495499	-0.00488702	0.435059	-0.944092	0.100586	
2	0.25527	0.06912	-0.00327978	-0.96439	-1.4048	0.437189	10.9286	0.0055333	-0.00431115	-0.00385857	-0.178223	0.192139	-1.14355	0.738463	0.153654	0.18401	-0.630241	-4.54955	-0.158052	8.97263	0.00267061	0.0205946	-0.0128613	0.384033	0.139648	-1.02954	0.495846	0.867865	0.00795122	0.0297192	0.537082	7.94322	-4.71088	0.00717598	0.00237331	0.00167663	0.384033	-0.843994	0.74707	0.186257	0.58281	0.773242	0.166545	-0.952251	4.5928	-8.56605	0.00117211	0.00445646	0.000470398	-0.170166	0.0307617	1.08545	-0.424073	0.837429	0.316871	-0.135892	0.186323	-7.71923	-5.85911	0.00606674	0.0113278	-0.017937	0.517822	1.2312	0.564697	0.339269	0.851883	-0.389004	-0.0887001	0.0120346	7.16682	-3.20877	0.0095299	0.0123544	-0.0141266	0.350586	-0.932617	0.330078	0.90243	-0.0510849	-0.102028	-0.415452	2.5478	0.210552	10.2563	0.0747953	0.0890066	-0.00876518	-0.573242	0.0625	-0.917725	0.133346	-0.158404	0.432622	-0.877476	1.68585	-8.33799	6.14333	0.002458	0.0142596	-0.0163163	-0.617432	0.88208	-0.39624	0.378545	-0.925086	0.0238343	-0.0187514	0.17254	-6.54295	-6.56253	0.00553075	0.00497407	-0.0163746	0.474365	0.827637	0.854248	-0.0813982	-0.0150627	-0.0250284	-0.996253	0.598599	0.538735	10.4743	0.00321812	0.0108371	0.00301495	-0.454102	-0.150635	-0.956299	-0.631825	-0.749403	-0.139739	-0.140234	0.319167	9.61568	-1.69337	0.00105251	0.00795251	-0.00722531	0.435303	-0.946289	0.105225	
3	0.255278	0.0691293	-0.00333766	-0.964387	-1.40266	0.438712	10.9288	0.00218704	0.00129914	-0.00217249	-0.18042	0.196533	-1.14795	0.738468	0.153879	0.183723	-0.630264	-4.57476	-0.15965	8.89475	0.0194992	0.00949684	-0.013274	0.381836	0.141846	-1.03687	0.495668	0.867968	0.00781724	0.0297269	0.535512	7.92185	-4.73916	0.0135416	0.00195588	0.000157733	0.385986	-0.841797	0.756104	0.186277	0.582813	0.773234	0.16655	-0.95053	4.59255	-8.55247	0.000674947	0.00508215	0.000920394	-0.167725	0.0307617	1.08545	-0.424182	0.837386	0.316845	-0.13588	0.207848	-7.75511	-5.87394	0.00607381	0.00807379	-0.0166054	0.513184	1.23779	0.5625	0.339212	0.851975	-0.388877	-0.0885924	0.00393508	7.17972	-3.20512	0.0106221	0.0123319	-0.0160096	0.344238	-0.936768	0.330322	0.902807	-0.0480711	-0.100847	-0.415281	2.42876	0.177658	10.1651	0.131227	0.115966	-0.0143495	-0.566162	0.0517578	-0.91748	0.133446	-0.158439	0.43254	-0.877495	1.68755	-8.34402	6.13637	0.00787015	0.0168282	-0.0170215	-0.615479	0.884277	-0.39624	0.378546	-0.925086	0.0238647	-0.0187063	0.175766	-6.54661	-6.58318	0.00657417	0.00588979	-0.0163122	0.469727	0.825439	0.849854	-0.081441	-0.0151127	-0.0249955	-0.99625	0.611831	0.541306	10.497	6.13574e-05	0.0127734	0.0047494	-0.44751	-0.150391	-0.956299	-0.631857	-0.749378	-0.13974	-0.14022	0.326885	9.64343	-1.69076	-0.000620978	0.00600364	-0.00721656	0.4375	-0.948486	0.105225	
4	0.255225	0.0691061	-0.00342872	-0.964403	-1.39884	0.461594	10.932	0.00428654	-0.00507227	-0.00590864	-0.182617	0.194336	-1.1438	0.738455	0.153694	0.183847	-0.630288	-4.5709	-0.155406	8.93806	-0.0412514	0.00920831	-0.0196733	0.381836	0.141846	-1.03442	0.495641	0.86799	0.00769629	0.029553	0.518834	7.92904	-4.75592	0.00121667	-0.00498386	0.000510074	0.379639	-0.841553	0.751465	0.186282	0.58281	0.773229	0.166579	-0.947382	4.5925	-8.55285	0.00298319	0.00558784	0.000723752	-0.167725	0.0285645	1.08105	-0.424299	0.837347	0.316789	-0.135885	0.175928	-7.74835	-5.92624	0.00941051	0.0120644	-0.0150999	0.51123	1.2334	0.566895	0.339387	0.851967	-0.388751	-0.0885512	0.0142735	7.18806	-3.2034	-0.00577875	0.0114979	-0.0147376	0.348145	-0.928223	0.330078	0.903187	-0.0467805	-0.099003	-0.415046	2.38743	0.235003	10.2372	0.019552	0.0744547	-0.00204116	-0.568604	0.0559082	-0.919678	0.133506	-0.15844	0.432494	-0.877509	1.66214	-8.31475	6.12506	0.00767701	0.016285	-0.0145329	-0.613281	0.884277	-0.398682	0.378577	-0.925075	0.0237	-0.0188286	0.172811	-6.54241	-6.57796	0.00480954	0.00597922	-0.0177476	0.474365	0.827637	0.852051	-0.0815448	-0.0151507	-0.0249488	-0.996242	0.575749	0.569784	10.4568	0.000769121	0.009968	0.000925819	-0.454102	-0.148438	-0.95874	-0.631913	-0.749335	-0.139722	-0.140218	0.317819	9.60157	-1.65942	0.00124834	0.00610985	-0.00535892	0.435303	-0.946289	0.100586	
5	0.255378	0.0690722	-0.00345142	-0.964365	-1.35363	0.426098	10.9321	0.000582925	-0.0017634	0.00377604	-0.18042	0.194336	-1.1416	0.738537	0.153404	0.183471	-0.630372	-4.50893	-0.181294	8.94762	0.0173761	0.00298941	-0.011971	0.388184	0.141846	-1.03906	0.495918	0.86782	0.00784195	0.0298796	0.532987	7.94269	-4.73691	-0.0155814	0.0197201	-0.00801944	0.381592	-0.835205	0.753662	0.186297	0.582801	0.773229	0.166592	-0.936974	4.59303	-8.56742	0.000632792	0.00587899	0.000591264	-0.167725	0.0307617	1.08545	-0.424389	0.837274	0.316781	-0.136073	0.174476	-7.73284	-5.85642	0.00516981	0.000590228	-0.0153077	0.515381	1.2356	0.566895	0.339436	0.852001	-0.388642	-0.0885131	0.00863006	7.1791	-3.2	0.0109051	0.0102132	-0.0152172	0.348389	-0.932617	0.332275	0.903394	-0.0457812	-0.0979355	-0.41496	2.48661	0.200393	10.2642	0.0549923	0.12622	-0.00690209	-0.562012	0.0517578	-0.919434	0.133666	-0.158534	0.432342	-0.877543	1.70253	-8.31923	6.17259	0.00956521	0.0121336	-0.0161886	-0.613037	0.882324	-0.400879	0.378358	-0.925167	0.0237073	-0.0187024	0.190853	-6.54794	-6.58144	-0.00633207	0.00322892	-0.0175366	0.471924	0.830078	0.852051	-0.0816673	-0.0151925	-0.0248122	-0.996235	0.677941	0.532721	10.5265	-0.00344124	0.0127861	0.00308897	-0.449463	-0.154785	-0.953857	-0.631788	-0.749459	-0.139696	-0.140141	0.310207	9.61345	-1.66558	0.012512	0.00419617	-0.00523071	0.4375	-0.948486	0.100586	
6	0.255364	0.0690851	-0.00348061	-0.964367	-1.41953	0.440386	10.9232	0.00290793	-0.00154044	-0.00406696	-0.177979	0.189941	-1.1394	0.7386	0.153529	0.183474	-0.630266	-4.55593	-0.154635	8.94757	-0.0168032	0.0210782	-0.0124638	0.38623	0.139648	-1.03198	0.495958	0.867795	0.00775627	0.0299475	0.529567	7.95582	-4.70094	-0.00100808	0.00295409	0.00583706	0.381592	-0.835205	0.758301	0.186437	0.582781	0.773187	0.166703	-0.935686	4.60836	-8.56671	-0.00670714	0.00325929	-0.000318171	-0.170166	0.032959	1.07666	-0.424901	0.837013	0.316841	-0.135943	0.174532	-7.74309	-5.84758	0.0193971	0.0129092	-0.0183348	0.521973	1.23779	0.560059	0.339347	0.852073	-0.388585	-0.088414	0.0223732	7.16967	-3.21524	0.016479	0.0129299	-0.0160426	0.352783	-0.936768	0.33252	0.903871	-0.0426259	-0.0955592	-0.414811	2.292	0.276013	10.2439	0.0811469	0.146261	-0.0107026	-0.55542	0.0517578	-0.932373	0.133731	-0.158532	0.432306	-0.877551	1.69052	-8.35759	6.17582	0.00616266	0.0175372	-0.0160179	-0.613281	0.884521	-0.40332	0.378438	-0.925134	0.0237304	-0.018678	0.178925	-6.56185	-6.63124	0.0191307	0.00807777	-0.0202978	0.467529	0.825439	0.854248	-0.081669	-0.0151805	-0.0247266	-0.996237	0.609078	0.487981	10.5163	-0.00460133	0.0136666	0.0065713	-0.44751	-0.145996	-0.95874	-0.631808	-0.749448	-0.139602	-0.140202	0.336049	9.65064	-1.72239	-0.00626576	0.00688022	-0.000784353	0.437744	-0.952881	0.0983887	
7	0.255453	0.068976	-0.00357638	-0.964351	-1.43759	0.440739	10.9175	0.0015918	-0.00945984	0.00465536	-0.178223	0.194336	-1.14355	0.73862	0.153734	0.183606	-0.630155	-4.5842	-0.182601	8.96009	-0.00421118	0.0241856	-0.0132685	0.385986	0.141846	-1.03198	0.495787	0.867888	0.00789628	0.0300727	0.554765	7.92867	-4.75336	0.00886231	0.0082273	-0.0128228	0.381836	-0.841797	0.749268	0.186551	0.58276	0.773154	0.1668	-0.942307	4.59599	-8.56544	-0.00305577	0.00503619	0.00127929	-0.165527	0.0307617	1.08984	-0.424976	0.836961	0.316797	-0.136127	0.170626	-7.7088	-5.86983	-0.00277408	0.00615627	-0.0119713	0.512939	1.23999	0.566895	0.33925	0.852179	-0.388477	-0.0882336	0.0100418	7.16997	-3.21869	0.00988068	0.0133338	-0.0158828	0.352539	-0.93042	0.330078	0.904189	-0.0409083	-0.0938278	-0.414687	2.21109	0.325478	10.125	0.0436067	0.0825146	-0.0118806	-0.546631	0.0454102	-0.927979	0.13369	-0.158499	0.432316	-0.877558	1.63063	-8.3298	6.13083	0.00484289	0.0184916	-0.0207651	-0.608887	0.882324	-0.400879	0.378671	-0.925037	0.0236812	-0.0188441	0.185194	-6.53635	-6.55625	0.0136632	0.00901379	-0.0138505	0.467529	0.825439	0.849854	-0.0816514	-0.0152922	-0.024772	-0.996236	0.581733	0.55671	10.4628	0.00925592	0.00859698	0.00667191	-0.449463	-0.154785	-0.953857	-0.632077	-0.749209	-0.139564	-0.140307	0.309758	9.57845	-1.61842	-0.010879	0.00863917	-0.00729008	0.439941	-0.948486	0.103027	
8	0.255604	0.0687667	-0.0037526	-0.964326	-1.40598	0.422764	10.9441	0.00583275	-0.01355	0.00239496	-0.180176	0.192139	-1.14795	0.738576	0.15378	0.183805	-0.630137	-4.57104	-0.137013	8.94876	-0.0133072	0.0232054	-0.0183382	0.384033	0.141846	-1.03442	0.496008	0.867766	0.00783905	0.0299404	0.547324	7.94173	-4.71798	-0.00481776	-0.00205575	-0.00262086	0.381836	-0.8396	0.756104	0.186628	0.582756	0.773139	0.166801	-0.939673	4.59638	-8.55161	0.00122857	0.00334968	4.35722e-05	-0.165527	0.0307617	1.08545	-0.424534	0.837154	0.31687	-0.136151	0.199651	-7.75041	-5.86015	-0.0204783	0.00226276	-0.0124984	0.515381	1.2334	0.564697	0.339362	0.852196	-0.388361	-0.0881619	0.00473911	7.16025	-3.21697	0.00176218	0.0158717	-0.0122406	0.348389	-0.93457	0.325928	0.904362	-0.0402709	-0.0927816	-0.414607	2.25304	0.317748	10.2894	0.0319149	0.0641847	-0.0143399	-0.546631	0.0495605	-0.934326	0.13379	-0.158546	0.432469	-0.877459	1.65755	-8.39783	6.16215	-0.000554889	0.0169756	-0.0136025	-0.613281	0.886475	-0.40332	0.378383	-0.925157	0.0236676	-0.0187315	0.183149	-6.54535	-6.60669	-0.0103632	0.00354271	-0.0184127	0.471924	0.827637	0.852051	-0.0817005	-0.015315	-0.0248592	-0.996229	0.586771	0.581682	10.4847	0.00933568	0.0118931	0.00257671	-0.451904	-0.148438	-0.954102	-0.63191	-0.749339	-0.139643	-0.140285	0.303478	9.61423	-1.655	0.0101466	0.00503114	-0.00389766	0.442139	-0.948486	0.105225	
9	0.255631	0.0685957	-0.00393616	-0.96433	-1.37156	0.461498	10.9522	0.00462281	-0.00904302	-0.00150806	-0.174072	0.19873	-1.14575	0.738598	0.153847	0.183914	-0.630064	-4.53676	-0.189048	8.93259	-0.00816071	0.0178813	-0.013167	0.38623	0.139648	-1.02734	0.495899	0.867834	0.00785069	0.0297817	0.532182	7.94443	-4.72579	0.00917246	-0.00173985	-0.00660533	0.377441	-0.841553	0.751465	0.186662	0.582759	0.773154	0.166679	-0.9487	4.60064	-8.54528	0.00496051	0.00339651	-0.000311009	-0.172363	0.032959	1.08984	-0.424338	0.837223	0.31687	-0.13634	0.163179	-7.73729	-5.8795	-5.55398e-06	0.00122572	-0.0123951	0.515381	1.2356	0.564697	0.339642	0.852149	-0.388205	-0.0882144	-0.00293367	7.17529	-3.20855	-0.0057334	0.0106077	-0.0171298	0.344238	-0.936768	0.323975	0.904542	-0.0395058	-0.0917744	-0.414511	2.26381	0.31864	10.2304	0.022969	0.0621094	-0.0133307	-0.54248	0.0517578	-0.932373	0.13397	-0.158654	0.432359	-0.877466	1.70102	-8.28021	6.15536	0.0124047	0.0113919	-0.0139828	-0.61084	0.880127	-0.398438	0.378007	-0.925312	0.023643	-0.0186977	0.180067	-6.52324	-6.6123	-0.00718333	0.00788762	-0.0198886	0.471924	0.827637	0.849854	-0.0819261	-0.015045	-0.0245681	-0.996222	0.619372	0.507151	10.4615	-0.00938374	0.0140537	-0.00199879	-0.454102	-0.152832	-0.956299	-0.631744	-0.749491	-0.139594	-0.14027	0.327267	9.6395	-1.69308	0.0196113	0.00336909	0.000824331	0.4375	-0.944092	0.107422	
10	0.255669	0.0684333	-0.0039738	-0.964331	-1.37145	0.485594	10.9498	-0.00128011	-0.00906245	-0.00376669	-0.176025	0.196533	-1.1438	0.738621	0.153775	0.184136	-0.629989	-4.58883	-0.212913	8.89804	-0.0145636	0.00609787	-0.0183982	0.388184	0.144043	-1.03223	0.495818	0.867878	0.00787224	0.0298351	0.533895	7.93743	-4.72099	0.00613113	0.00376405	-0.00379905	0.383789	-0.8396	0.749268	0.186655	0.582781	0.773145	0.166654	-0.946961	4.59926	-8.56012	0.00297152	0.00590009	0.00148949	-0.165771	0.032959	1.08105	-0.424339	0.837206	0.316882	-0.13641	0.199757	-7.73889	-5.82623	-0.00255209	0.00476671	-0.0132421	0.515381	1.2356	0.5625	0.339798	0.852159	-0.388051	-0.0881986	-0.00442577	7.17841	-3.19923	0.00260091	0.0123908	-0.0162824	0.350342	-0.93042	0.332275	0.904598	-0.0396246	-0.0912944	-0.414484	2.17653	0.294202	10.2115	0.0132589	0.0236839	-0.0154158	-0.544189	0.0432129	-0.929932	0.134034	-0.158704	0.432442	-0.877406	1.67696	-8.31035	6.15045	-0.00602222	0.0183881	-0.0154804	-0.613037	0.88208	-0.39624	0.378048	-0.925294	0.0236962	-0.018677	0.195585	-6.5346	-6.60556	0.012814	0.00891372	-0.01637	0.474365	0.825439	0.854248	-0.0820059	-0.0149985	-0.0247134	-0.996212	0.580823	0.532708	10.4518	0.0131942	0.0158959	0.00633803	-0.449707	-0.148193	-0.95874	-0.631546	-0.749635	-0.139609	-0.14038	0.331288	9.61419	-1.67718	-0.00085043	0.00868008	-0.0038992	0.433105	-0.946289	0.100586	
11	0.255864	0.0683442	-0.0038475	-0.964286	-1.39435	0.439104	10.9383	-0.00655352	-0.00389411	0.00652721	-0.178223	0.196533	-1.1438	0.73858	0.153728	0.184096	-0.63006	-4.58435	-0.172205	8.96516	-0.0153087	0.0159264	-0.0193075	0.387939	0.148438	-1.03467	0.495954	0.867795	0.00805729	0.0299365	0.536557	7.94433	-4.74767	-0.00438649	0.00900489	-0.00650698	0.381836	-0.841797	0.753906	0.186669	0.582815	0.773118	0.166645	-0.935	4.60607	-8.55431	0.00156419	0.00618507	0.0034996	-0.170166	0.0351562	1.08325	-0.424105	0.837322	0.317009	-0.136133	0.178621	-7.74947	-5.89068	-0.0142497	0.00907074	-0.0143931	0.517578	1.2356	0.5625	0.339801	0.852231	-0.387931	-0.0880227	0.00612086	7.16001	-3.21109	0.00786435	0.0165979	-0.0139298	0.354736	-0.932617	0.330078	0.904585	-0.0401115	-0.0910773	-0.414514	2.25479	0.310755	10.2804	-0.0164016	0.010261	-0.0161668	-0.544678	0.0539551	-0.932373	0.134091	-0.158702	0.432469	-0.877385	1.70303	-8.38188	6.11292	0.00800622	0.0176192	-0.0145331	-0.613281	0.886475	-0.39624	0.378244	-0.925212	0.0237856	-0.01865	0.167033	-6.53613	-6.60069	0.0144389	0.00958602	-0.0176935	0.467285	0.827637	0.854248	-0.0820453	-0.0149925	-0.024819	-0.996207	0.608776	0.575171	10.4923	0.00218657	0.0123933	0.00302579	-0.445068	-0.150391	-0.95166	-0.631701	-0.749494	-0.139582	-0.14046	0.311981	9.6306	-1.6723	-0.00582203	0.0104215	-0.00435953	0.439941	-0.950684	0.105225	
12	0.255959	0.0683598	-0.00373268	-0.96426	-1.39936	0.431812	10.9447	-0.00250395	0.00150672	-0.000522139	-0.175781	0.190186	-1.14795	0.738527	0.153713	0.184227	-0.630087	-4.55424	-0.154023	8.98122	-0.0181817	0.0229476	-0.0175525	0.385986	0.144043	-1.03223	0.496021	0.867754	0.0080364	0.030027	0.537909	7.94271	-4.74208	0.00680392	0.00765435	-0.000359773	0.381836	-0.841797	0.749268	0.186707	0.582801	0.773115	0.166665	-0.952057	4.61104	-8.54694	-0.000262531	0.00522821	0.00139437	-0.163818	0.0397949	1.08105	-0.424039	0.837357	0.317001	-0.136145	0.182324	-7.74578	-5.87457	-0.00573179	0.00658881	-0.0141179	0.513428	1.2334	0.5625	0.339894	0.852247	-0.387819	-0.0879992	0.00409655	7.17424	-3.22852	0.00109123	0.0104316	-0.0158086	0.346436	-0.93457	0.332275	0.904603	-0.0403721	-0.0905251	-0.41457	2.21119	0.312188	10.2219	0.000777922	0.0227942	-0.0198973	-0.544922	0.0561523	-0.932373	0.134182	-0.158696	0.432371	-0.87742	1.67214	-8.36477	6.12185	0.0126127	0.0152985	-0.0133146	-0.613525	0.890869	-0.396484	0.378262	-0.925205	0.0237807	-0.0186612	0.175558	-6.5221	-6.57447	0.00816578	0.00824052	-0.0199359	0.465088	0.827637	0.847412	-0.0820748	-0.0149916	-0.0247067	-0.996207	0.585635	0.542776	10.4661	-0.00248057	0.0132938	0.00483509	-0.454102	-0.148438	-0.956299	-0.631751	-0.749454	-0.139562	-0.14047	0.328167	9.62456	-1.66371	-0.00287454	0.00635232	-0.0046568	0.433105	-0.946289	0.107422	
13	0.256039	0.0683026	-0.00377612	-0.964243	-1.41741	0.424222	10.9511	0.00267793	-0.00813138	3.7633e-05	-0.178223	0.196533	-1.1416	0.738468	0.153859	0.18448	-0.630047	-4.58432	-0.150962	8.95595	-0.012803	0.0257367	-0.0185659	0.388428	0.139648	-1.02979	0.495989	0.867781	0.00793427	0.0298112	0.535767	7.95739	-4.73378	0.00110562	-0.00982274	-0.00393209	0.381592	-0.8396	0.746826	0.186716	0.582787	0.773131	0.166628	-0.948229	4.58978	-8.55464	0.00349631	0.00465226	-0.00047907	-0.16333	0.0310059	1.07666	-0.424058	0.837329	0.317015	-0.136224	0.198438	-7.74387	-5.86353	0.00352827	0.00317418	-0.0154171	0.515137	1.23999	0.5625	0.340035	0.852263	-0.387671	-0.0879483	0.0128308	7.1683	-3.20965	0.00138621	0.0130258	-0.0160132	0.35083	-0.938965	0.323975	0.904495	-0.0418649	-0.090744	-0.41461	2.22066	0.272192	10.2712	-0.0346696	-0.0300566	-0.0133751	-0.544678	0.0517578	-0.927979	0.134344	-0.158747	0.432141	-0.8775	1.66613	-8.29241	6.14417	0.0108974	0.0118049	-0.0162208	-0.615723	0.893066	-0.398682	0.378223	-0.925223	0.023759	-0.0185603	0.188075	-6.53157	-6.57615	0.00478235	0.00288593	-0.0166851	0.469482	0.829834	0.854248	-0.0821515	-0.0151397	-0.0247031	-0.996199	0.561208	0.537671	10.4744	0.00586282	0.00648025	0.00329844	-0.449707	-0.150391	-0.958496	-0.6318	-0.749411	-0.139557	-0.140486	0.321103	9.59656	-1.67486	-0.00129461	0.0061287	-0.00814592	0.442139	-0.950684	0.10083	
14	0.256079	0.0682125	-0.0038548	-0.964239	-1.38912	0.437125	10.939	0.00449384	-0.010996	0.000583368	-0.18042	0.192139	-1.14575	0.738436	0.153829	0.184743	-0.630015	-4.61005	-0.215764	8.93332	-0.0161384	0.0183186	-0.0192857	0.390381	0.144043	-1.03442	0.496034	0.867757	0.00789005	0.0297648	0.539861	7.93073	-4.72927	-0.000526122	-0.00119932	-0.00305099	0.381836	-0.841797	0.758301	0.186726	0.582782	0.773142	0.166582	-0.949432	4.6096	-8.56191	0.00450679	0.00322655	0.000473309	-0.167969	0.032959	1.07886	-0.424175	0.837242	0.317097	-0.136204	0.190727	-7.75435	-5.87296	-0.000739568	0.00476734	-0.0111554	0.515381	1.2356	0.564697	0.340154	0.852244	-0.387607	-0.0879564	0.00867454	7.18624	-3.24687	-0.00198121	0.0128464	-0.0143178	0.350586	-0.93457	0.334473	0.904457	-0.0425376	-0.0908056	-0.414612	2.23031	0.279626	10.1821	-0.03052	-0.0127727	-0.0143643	-0.542725	0.0539551	-0.932373	0.134471	-0.158868	0.432015	-0.87752	1.68047	-8.34738	6.16315	0.00832839	0.010767	-0.0167032	-0.613281	0.884277	-0.398682	0.378288	-0.925199	0.0237959	-0.0183994	0.187627	-6.54741	-6.60687	0.00763081	0.00263912	-0.0144101	0.469727	0.825439	0.849854	-0.0821766	-0.0151956	-0.0247578	-0.996194	0.606577	0.564146	10.476	0.00730523	0.0091575	0.00422481	-0.44751	-0.150391	-0.954102	-0.631842	-0.749361	-0.139712	-0.14041	0.321196	9.60593	-1.67383	0.000242748	0.00544131	-0.00965445	0.4375	-0.948486	0.107422	
15	0.256151	0.0681832	-0.00415992	-0.96422	-1.3839	0.443011	10.9395	0.00698297	-0.00338848	-0.00236969	-0.182617	0.194336	-1.14795	0.73841	0.153775	0.184769	-0.630051	-4.57039	-0.201159	8.94879	-0.0135188	0.0141051	-0.0203488	0.388184	0.14624	-1.03223	0.496163	0.867686	0.00788915	0.0296931	0.546316	7.94088	-4.72532	0.00101495	0.00568517	-0.00256049	0.384033	-0.843994	0.751465	0.186649	0.582791	0.773171	0.166505	-0.94767	4.6079	-8.54912	0.00541924	0.00363676	0.000221196	-0.163574	0.032959	1.08765	-0.424093	0.83726	0.317099	-0.136342	0.170926	-7.72012	-5.85871	-0.00127292	0.00624725	-0.0144565	0.521973	1.2334	0.5625	0.340443	0.852219	-0.387413	-0.0879287	0.0162582	7.16016	-3.19805	0.00271441	0.0124975	-0.015564	0.352783	-0.932617	0.332275	0.904287	-0.0442975	-0.0912716	-0.414694	2.27613	0.224796	10.2377	-0.0435748	-0.0448891	-0.0169056	-0.553711	0.0605469	-0.93457	0.134644	-0.158957	0.431861	-0.877553	1.69118	-8.35021	6.1465	0.010631	0.0129711	-0.0129782	-0.608887	0.88208	-0.39624	0.378267	-0.92521	0.0237906	-0.0182925	0.16828	-6.54649	-6.61815	0.00481792	0.0036406	-0.0210734	0.467285	0.829834	0.852051	-0.082254	-0.0152554	-0.0246728	-0.996189	0.62086	0.557753	10.4945	-0.00395369	0.0110803	0.00463328	-0.451904	-0.150635	-0.949463	-0.631796	-0.749408	-0.139748	-0.140326	0.312538	9.6393	-1.68966	0.00567352	0.00360106	-0.00717931	0.435303	-0.946289	0.100586	
16	0.256171	0.068173	-0.00427663	-0.964215	-1.36797	0.47573	10.9302	0.00906623	-0.00520946	-0.000746297	-0.18042	0.192139	-1.14575	0.738203	0.15364	0.185338	-0.630159	-4.58498	-0.192302	8.91696	-0.0190521	0.0200208	-0.021103	0.385986	0.14624	-1.03467	0.496157	0.867688	0.00788111	0.0297175	0.534288	7.95239	-4.72599	0.00405338	0.0050405	-0.00271261	0.379639	-0.839355	0.751465	0.186706	0.582775	0.773185	0.166431	-0.937681	4.61359	-8.5715	0.00172769	0.00272474	-0.000403801	-0.167969	0.032959	1.08765	-0.424074	0.837276	0.31706	-0.136394	0.17326	-7.74095	-5.85842	0.000157883	0.00636805	-0.0156591	0.513428	1.2334	0.569336	0.340489	0.852232	-0.38735	-0.0879086	0.0154976	7.17485	-3.21447	0.00271464	0.0124961	-0.0155679	0.350586	-0.93457	0.330322	0.904017	-0.0464434	-0.0924186	-0.414796	2.28783	0.212044	10.2732	-0.0406854	-0.0689143	-0.0170148	-0.553711	0.0605469	-0.926025	0.134767	-0.158988	0.431774	-0.877572	1.6751	-8.28993	6.15763	0.00457674	0.0156631	-0.0156685	-0.613037	0.882324	-0.400879	0.378292	-0.9252	0.0238287	-0.0182395	0.179838	-6.5325	-6.59178	0.0102819	0.00673906	-0.0152435	0.469727	0.822998	0.849854	-0.0823142	-0.0153168	-0.0245673	-0.996186	0.6084	0.516593	10.4863	-0.000898389	0.0112573	0.00463862	-0.449707	-0.150391	-0.95166	-0.631793	-0.749411	-0.139754	-0.14032	0.321059	9.61431	-1.68582	0.000390109	0.00672546	-0.00717056	0.439697	-0.944092	0.103027	
17	0.256262	0.0682259	-0.00439071	-0.964187	-1.39578	0.484204	10.9518	0.003813	-0.0013729	0.00241046	-0.175781	0.190186	-1.14575	0.73816	0.153528	0.1854	-0.630218	-4.59821	-0.18498	8.97154	-0.0137938	0.0139795	-0.0181133	0.385742	0.150635	-1.03467	0.49621	0.867657	0.00792881	0.0297457	0.539158	7.93347	-4.71646	-0.000344149	0.00348195	-0.00542598	0.384033	-0.845947	0.751709	0.186741	0.582763	0.773192	0.166399	-0.953167	4.59735	-8.54376	0.00304158	0.00448279	0.000302273	-0.163574	0.032959	1.08325	-0.424097	0.837252	0.317068	-0.136449	0.196241	-7.74055	-5.86594	0.00040618	0.00692507	-0.0162939	0.515381	1.2334	0.564697	0.340643	0.852233	-0.387221	-0.0878693	-0.00326816	7.15646	-3.21498	-0.000869144	0.0120723	-0.0153946	0.35083	-0.936768	0.33252	0.903746	-0.0484578	-0.0936903	-0.414869	2.32356	0.189473	10.2213	-0.0384199	-0.0590221	-0.0175815	-0.555908	0.0625	-0.92627	0.134802	-0.158979	0.431844	-0.877534	1.68135	-8.34484	6.13564	9.75763e-05	0.0179245	-0.0152715	-0.615234	0.879883	-0.39624	0.378533	-0.925101	0.0237112	-0.0183834	0.17197	-6.54056	-6.58122	0.0139223	0.007256	-0.016131	0.472168	0.823242	0.845459	-0.0823283	-0.0153624	-0.0246267	-0.996182	0.591492	0.548028	10.4684	0.00565996	0.0114082	0.00632311	-0.447266	-0.152588	-0.958496	-0.631901	-0.749287	-0.13989	-0.140362	0.323972	9.6273	-1.67253	-0.00456649	0.00822645	-0.00682914	0.435303	-0.948486	0.0983887	
18	0.256355	0.0681447	-0.00442576	-0.964167	-1.41095	0.467071	10.9369	-0.000339103	-0.00835787	0.000856127	-0.176025	0.196533	-1.14795	0.738113	0.153654	0.185277	-0.630279	-4.5659	-0.170193	8.94563	0.0014183	0.015323	-0.0147575	0.38623	0.141846	-1.02979	0.496343	0.867579	0.00790211	0.0297932	0.54577	7.93283	-4.73084	-0.00231513	0.00545093	-0.00120062	0.379639	-0.837402	0.751465	0.186738	0.582757	0.773209	0.166346	-0.951556	4.59593	-8.5586	0.00392677	0.00544733	0.000266408	-0.165771	0.032959	1.08105	-0.424037	0.837249	0.317123	-0.136526	0.17437	-7.72813	-5.86076	-0.000794527	0.00541089	-0.0163658	0.513428	1.2334	0.566895	0.340846	0.852207	-0.387104	-0.0878503	0.00711481	7.16595	-3.21092	-0.00140182	0.0133162	-0.0137334	0.353027	-0.938965	0.330322	0.903443	-0.0512355	-0.0949114	-0.414919	2.38282	0.152552	10.2777	-0.0701171	-0.0885536	-0.01427	-0.5625	0.0625	-0.915527	0.134887	-0.159017	0.431721	-0.877574	1.67196	-8.3516	6.12089	0.00985015	0.0143329	-0.0161458	-0.613037	0.879883	-0.393799	0.378509	-0.925112	0.023734	-0.0182968	0.166554	-6.53103	-6.58561	0.00274251	0.00511738	-0.0180653	0.469727	0.827637	0.845215	-0.0824	-0.0154182	-0.0246422	-0.996175	0.593192	0.568332	10.4993	0.00272203	0.0105201	0.00370915	-0.449707	-0.150391	-0.95166	-0.63195	-0.749227	-0.139968	-0.140383	0.314375	9.61995	-1.6738	-0.0010665	0.00672827	-0.00553605	0.439941	-0.948486	0.105225	
19	0.256424	0.0679675	-0.00434505	-0.964162	-1.32342	0.475813	10.9492	-0.00651329	-0.00638876	0.00109962	-0.177979	0.187988	-1.14575	0.738064	0.153876	0.184786	-0.630427	-4.58319	-0.207394	8.87241	0.018618	0.00519083	-0.0187905	0.388184	0.141846	-1.03198	0.496349	0.867577	0.00782025	0.0297646	0.533298	7.94428	-4.73166	0.0033249	0.000593473	-0.000681869	0.381836	-0.845947	0.756104	0.186716	0.582758	0.773228	0.166275	-0.950615	4.60781	-8.55973	0.00571162	0.0072034	0.00204599	-0.165771	0.0351562	1.08325	-0.424003	0.837249	0.317162	-0.136543	0.197799	-7.75327	-5.84825	-0.000793456	0.00541172	-0.0163629	0.51123	1.2334	0.566895	0.341061	0.852176	-0.386984	-0.087841	0.00938393	7.17206	-3.19265	-0.00368095	0.0138571	-0.0147475	0.348389	-0.93457	0.330322	0.903157	-0.0530467	-0.0964149	-0.414967	2.39335	0.0463033	10.202	0.00388465	-0.0541504	-0.0194146	-0.5625	0.0625	-0.92627	0.13497	-0.159083	0.431579	-0.877619	1.69008	-8.29712	6.14652	0.00668569	0.016258	-0.0158789	-0.611084	0.884277	-0.39624	0.378432	-0.925146	0.0237181	-0.018204	0.175103	-6.55269	-6.59079	0.00385693	0.00595626	-0.017382	0.467529	0.822998	0.854248	-0.0824837	-0.0155235	-0.0245933	-0.996168	0.601574	0.529865	10.4699	0.00123847	0.0076084	0.00394633	-0.447266	-0.152588	-0.953857	-0.631883	-0.749276	-0.140029	-0.140359	0.326163	9.6112	-1.69012	0.00799474	0.00949809	-0.0092607	0.439941	-0.948486	0.100586	
20	0.256403	0.0679064	-0.00421252	-0.964172	-1.39175	0.470907	10.9258	-0.00512925	-0.00500496	-0.00609016	-0.18042	0.194336	-1.1438	0.738108	0.153596	0.184847	-0.630426	-4.59145	-0.153513	8.87215	-0.0292403	0.00432377	-0.020488	0.38623	0.139648	-1.02734	0.49635	0.867586	0.00773316	0.0295144	0.542423	7.948	-4.72188	0.00301724	-0.0161326	-0.00331224	0.385986	-0.8396	0.746826	0.186693	0.582773	0.773243	0.166181	-0.93803	4.5996	-8.56854	0.00632004	0.00436075	0.000736144	-0.167969	0.0351562	1.08545	-0.424002	0.837254	0.317104	-0.136648	0.206134	-7.7273	-5.87893	0.00297279	0.00797699	-0.0102521	0.519775	1.2334	0.5625	0.34131	0.852138	-0.386853	-0.0878231	0.0147415	7.17589	-3.20588	-0.00521043	0.0133911	-0.0159143	0.352783	-0.93457	0.325928	0.902944	-0.055226	-0.0975385	-0.414884	2.41743	0.114041	10.2684	-0.0501103	-0.0789612	-0.00394021	-0.564941	0.0732422	-0.915771	0.13497	-0.159083	0.431579	-0.877619	1.69008	-8.29712	6.14652	0.00668569	0.016258	-0.0158789	-0.611084	0.884277	-0.39624	0.378487	-0.925124	0.0237448	-0.0181777	0.178893	-6.55388	-6.5895	0.0116089	0.00608273	-0.0167733	0.471924	0.829834	0.856445	-0.0825385	-0.0155019	-0.0245985	-0.996164	0.574187	0.534686	10.5042	0.00113597	0.0158276	0.00287166	-0.456299	-0.152832	-0.956299	-0.631922	-0.749248	-0.140013	-0.140349	0.32749	9.6535	-1.7129	-0.000909638	0.00603438	-0.00577644	0.4375	-0.948486	0.0961914	
21	0.256642	0.0678151	-0.0039947	-0.964116	-1.35749	0.414504	10.9505	-0.00959636	-0.00313949	0.0110001	-0.175781	0.190186	-1.14355	0.738212	0.152971	0.184623	-0.630521	-4.53277	-0.209197	9.02928	0.000359009	0.00573194	-0.0150515	0.385986	0.144043	-1.03223	0.496719	0.867371	0.00781228	0.0296003	0.526679	7.95061	-4.73812	-0.0227723	0.013534	-0.0103293	0.381836	-0.8396	0.749268	0.186609	0.582802	0.773248	0.166153	-0.952627	4.58867	-8.54872	0.00287818	0.00781031	0.0015987	-0.165771	0.032959	1.08545	-0.424103	0.837208	0.317023	-0.136802	0.130147	-7.73542	-5.88725	0.0162431	0.00962871	-0.0145406	0.510986	1.2356	0.564697	0.341612	0.852073	-0.386719	-0.0878741	0.0102593	7.16218	-3.18728	-0.000961156	0.0112005	-0.0153551	0.346191	-0.93042	0.325928	0.902981	-0.0561685	-0.096976	-0.414809	2.6544	0.0431748	10.3118	0.00827422	0.0515243	-0.0150169	-0.562988	0.0734863	-0.915771	0.134576	-0.158928	0.431455	-0.877769	1.70988	-8.33853	6.14737	0.00602722	0.0144372	-0.0149086	-0.613037	0.882324	-0.40332	0.378614	-0.925071	0.0238276	-0.0180709	0.169611	-6.54847	-6.60757	0.00943137	0.00640194	-0.0184604	0.465088	0.827637	0.854248	-0.0826139	-0.0155669	-0.0245658	-0.996157	0.665698	0.550156	10.4909	-0.0029125	0.0127683	0.00360912	-0.449707	-0.148193	-0.956299	-0.631922	-0.749256	-0.140007	-0.140311	0.303381	9.62686	-1.6899	0.00641593	0.00612967	-0.00440512	0.442139	-0.948486	0.103027	
22	0.25668	0.0678357	-0.00396762	-0.964105	-1.39111	0.407151	10.928	-0.00214983	-0.000762536	0.00031592	-0.178223	0.196533	-1.1416	0.738216	0.152936	0.184672	-0.630511	-4.53981	-0.182808	8.97231	-0.0140823	0.0167606	-0.0174462	0.388184	0.144043	-1.03223	0.496884	0.867277	0.00774472	0.0296288	0.522264	7.95678	-4.70589	-0.0120274	0.00219723	0.00172394	0.379639	-0.837402	0.751465	0.186638	0.582805	0.773233	0.166177	-0.959879	4.5808	-8.54173	-0.00120167	0.00537586	0.00186178	-0.16333	0.0310059	1.08325	-0.424388	0.837073	0.317001	-0.136798	0.194412	-7.72782	-5.79802	0.02339	0.0154532	-0.0212287	0.512939	1.23999	0.564697	0.34157	0.852123	-0.386666	-0.0877805	0.00214776	7.18816	-3.2059	0.0127336	0.0140333	-0.0151525	0.344238	-0.938965	0.330322	0.902981	-0.0561685	-0.096976	-0.414809	2.6544	0.0431748	10.3118	0.00827422	0.0515243	-0.0150169	-0.562988	0.0734863	-0.915771	0.134623	-0.158898	0.431479	-0.877755	1.69802	-8.31052	6.16225	0.0015336	0.0183733	-0.0129764	-0.615234	0.88208	-0.39624	0.37868	-0.925044	0.0238247	-0.0180759	0.169191	-6.54229	-6.60236	0.0123232	0.00733742	-0.0192099	0.474365	0.825439	0.852051	-0.0826448	-0.0155674	-0.0244956	-0.996156	0.615708	0.515832	10.4852	-0.00291107	0.0127661	0.00361047	-0.449463	-0.154785	-0.958496	-0.631919	-0.749261	-0.139992	-0.140319	0.31338	9.63513	-1.70802	0.00278688	0.00672864	-0.0036645	0.4375	-0.948486	0.100586	
23	0.256744	0.0678016	-0.00402188	-0.96409	-1.4201	0.453058	10.9162	0.00240577	-0.00613999	0.00253213	-0.178223	0.194336	-1.14575	0.738255	0.152974	0.184691	-0.630451	-4.59742	-0.229264	8.95538	-0.00655514	0.0159141	-0.0157034	0.390381	0.144043	-1.03223	0.496638	0.867411	0.00781799	0.0297956	0.547678	7.95392	-4.74174	0.01312	0.00747691	-0.00979095	0.377441	-0.84375	0.753906	0.186729	0.582764	0.773231	0.16623	-0.9405	4.59729	-8.56974	-0.00164394	0.00475423	-0.000732309	-0.167725	0.0285645	1.08325	-0.42436	0.837089	0.316945	-0.13692	0.185728	-7.72373	-5.89621	-0.00313316	0.00172846	-0.0112952	0.519775	1.2356	0.5625	0.341565	0.85219	-0.386568	-0.0875886	0.0159727	7.17214	-3.21031	0.0066133	0.0140192	-0.0143374	0.350586	-0.93457	0.330322	0.902822	-0.0576575	-0.0971036	-0.41492	2.34904	0.0692619	10.1492	-0.0260044	-0.0606047	-0.00943036	-0.565186	0.0754395	-0.920166	0.134582	-0.158948	0.431547	-0.877719	1.64245	-8.33616	6.15153	-0.000606928	0.0167144	-0.0199467	-0.615234	0.88208	-0.393799	0.378915	-0.924945	0.023948	-0.01807	0.1742	-6.55469	-6.55644	0.0168114	0.0090342	-0.0141769	0.474365	0.827881	0.847656	-0.0826198	-0.0156646	-0.0244937	-0.996157	0.569946	0.531001	10.4924	0.0061744	0.00812814	0.00789295	-0.454102	-0.152832	-0.960693	-0.631919	-0.749261	-0.139992	-0.140319	0.31338	9.63513	-1.70802	0.00278688	0.00672864	-0.0036645	0.4375	-0.948486	0.100586	
24	0.256935	0.0677201	-0.00411844	-0.964044	-1.38679	0.447718	10.9407	0.00308662	-0.00799634	0.00428637	-0.180176	0.189941	-1.14355	0.738228	0.152846	0.184685	-0.630515	-4.56069	-0.189584	8.95432	-0.013689	0.0103015	-0.0188299	0.385986	0.144043	-1.02979	0.496872	0.867279	0.00782779	0.0297435	0.543601	7.96143	-4.69895	-0.00836043	0.000806719	-0.00557523	0.377441	-0.84375	0.753906	0.186759	0.582762	0.773236	0.166182	-0.958637	4.6088	-8.55557	0.00446816	0.00402589	0.000152894	-0.167725	0.0307617	1.08325	-0.42398	0.837251	0.316976	-0.137035	0.195516	-7.75196	-5.85872	-0.0177309	-0.000772351	-0.0110041	0.513428	1.2334	0.571533	0.341784	0.852151	-0.386459	-0.0875855	0.0255178	7.1666	-3.19069	-0.00310335	0.0143214	-0.0141718	0.354736	-0.932617	0.325928	0.902561	-0.060111	-0.0982254	-0.414877	2.49797	0.00652398	10.2453	-0.0378232	-0.057051	-0.0135478	-0.571777	0.079834	-0.913818	0.134612	-0.158936	0.431808	-0.877588	1.68731	-8.38749	6.12063	-0.00505791	0.0191786	-0.0131132	-0.613281	0.886475	-0.39624	0.378885	-0.924958	0.0239769	-0.0180194	0.179619	-6.55506	-6.56249	-0.000491554	0.00698898	-0.019408	0.467285	0.829834	0.852051	-0.0826845	-0.015692	-0.0246115	-0.996148	0.599312	0.597997	10.5021	0.00729012	0.0149903	0.00261905	-0.452148	-0.14624	-0.956299	-0.63208	-0.749064	-0.140174	-0.14046	0.311536	9.63139	-1.66047	0.00839437	0.00446285	-0.00451132	0.430664	-0.944336	0.100586	
25	0.25708	0.0675793	-0.00415685	-0.964015	-1.38085	0.476217	10.9321	-0.00129872	-0.00772448	0.0033746	-0.182617	0.192139	-1.1416	0.738196	0.152748	0.184666	-0.630581	-4.54272	-0.191133	8.93525	-0.0124599	0.0141018	-0.018411	0.379395	0.14624	-1.03223	0.496911	0.867259	0.00790105	0.0296467	0.538372	7.9591	-4.71175	0.00244971	-0.000542916	-0.00909878	0.381836	-0.84375	0.749268	0.186757	0.582761	0.773257	0.16609	-0.964094	4.59209	-8.52899	0.00586578	0.00405192	-0.0010914	-0.167725	0.0285645	1.08325	-0.4238	0.837333	0.316983	-0.137072	0.202857	-7.74155	-5.85177	-0.014179	0.00379917	-0.0101254	0.519775	1.23779	0.566895	0.341988	0.852207	-0.38617	-0.0875205	0.0191661	7.17575	-3.19684	-0.00344392	0.0140171	-0.0148669	0.350586	-0.93457	0.332275	0.902292	-0.0620017	-0.099461	-0.414889	2.57566	0.012011	10.1601	-0.02986	-0.0642324	-0.0156575	-0.580566	0.0842285	-0.909668	0.134759	-0.159002	0.431811	-0.877552	1.69762	-8.30694	6.1348	0.00925507	0.0133419	-0.0135362	-0.611084	0.886719	-0.407959	0.378749	-0.925013	0.0239685	-0.0180539	0.168858	-6.55219	-6.58956	-0.0052977	0.00978674	-0.0210847	0.465088	0.825439	0.849854	-0.082845	-0.0156089	-0.0244331	-0.996141	0.614935	0.528524	10.4913	-0.00537083	0.0144865	0.000900953	-0.456543	-0.148438	-0.956299	-0.631914	-0.749221	-0.140054	-0.14049	0.308441	9.6139	-1.69791	0.00983874	0.00638792	0.000796285	0.442383	-0.957275	0.105469	
26	0.25724	0.0674966	-0.00411103	-0.963979	-1.36695	0.458535	10.9462	-0.00350102	-0.00464116	0.00207111	-0.180664	0.19873	-1.146	0.738223	0.152656	0.184573	-0.630599	-4.5749	-0.200315	8.88769	-0.0184183	0.0101518	-0.0165946	0.385986	0.144043	-1.02515	0.496969	0.867226	0.00791972	0.0296369	0.536551	7.95887	-4.71234	-0.000465195	0.00386297	-0.00653412	0.377441	-0.84375	0.756104	0.186717	0.582783	0.77326	0.166041	-0.945046	4.60528	-8.57261	0.00199421	0.00684786	0.00163803	-0.167725	0.0307617	1.08325	-0.42357	0.83743	0.317105	-0.136907	0.177127	-7.74608	-5.84155	-0.00589179	0.00793014	-0.0141142	0.513428	1.2334	0.566895	0.34215	0.852199	-0.38605	-0.0874929	-0.00937597	7.18108	-3.19595	0.00329983	0.0129657	-0.0150141	0.35083	-0.936768	0.330322	0.901998	-0.0641692	-0.100898	-0.414851	2.59318	-0.0265457	10.1921	-0.0312652	-0.0795001	-0.016137	-0.578369	0.0820312	-0.907471	0.134854	-0.15904	0.431859	-0.877507	1.68831	-8.28746	6.15006	-0.00286345	0.0163889	-0.0156376	-0.613281	0.884277	-0.39624	0.378823	-0.924981	0.0237979	-0.0183442	0.175115	-6.5382	-6.58062	0.0111429	0.00825233	-0.0150921	0.474121	0.830078	0.849854	-0.0829461	-0.0155618	-0.0244898	-0.996132	0.599523	0.506295	10.4698	0.0103201	0.0163274	0.0029289	-0.44751	-0.148193	-0.956299	-0.631898	-0.749225	-0.139992	-0.140605	0.324345	9.61921	-1.70454	-0.00212068	0.00975536	-0.00128665	0.4375	-0.946289	0.103027	
27	0.257322	0.0674782	-0.00396624	-0.963959	-1.36835	0.450097	10.9472	-0.00562662	-0.000406453	0.00146529	-0.18042	0.194336	-1.14575	0.738197	0.152665	0.184286	-0.630712	-4.55874	-0.188825	8.98021	0.000630192	0.010302	-0.0174758	0.383789	0.144043	-1.03687	0.49691	0.867261	0.00794084	0.0296115	0.534491	7.95609	-4.76422	0.00243656	0.00431436	-0.00644631	0.383789	-0.8396	0.753662	0.18673	0.582794	0.773248	0.166044	-0.95188	4.59722	-8.55189	0.00114966	0.0050867	0.00200305	-0.168213	0.0373535	1.08545	-0.423483	0.837469	0.317101	-0.136947	0.19545	-7.74435	-5.8508	-0.00647632	0.00489752	-0.0121887	0.521973	1.2334	0.567139	0.342282	0.852218	-0.385907	-0.0874271	0.00755517	7.18441	-3.2041	0.00233883	0.0137245	-0.0163955	0.348389	-0.93457	0.328125	0.901699	-0.0655627	-0.102518	-0.414887	2.65412	-0.0239062	10.1817	-0.0184001	-0.0573841	-0.0203847	-0.582764	0.0861816	-0.914062	0.13484	-0.159082	0.431927	-0.877468	1.67311	-8.38616	6.1281	0.00170761	0.015565	-0.0192806	-0.611328	0.888672	-0.401123	0.378838	-0.924976	0.0238965	-0.018195	0.167184	-6.55649	-6.589	0.0063657	0.00279251	-0.0136449	0.469727	0.827637	0.849854	-0.0829464	-0.0155717	-0.0246686	-0.996127	0.578524	0.572	10.4774	0.00768882	0.0131252	0.00635736	-0.451904	-0.150635	-0.965332	-0.631999	-0.749138	-0.139967	-0.140639	0.321029	9.61021	-1.70407	-0.00849626	0.00773368	-0.00445883	0.439941	-0.948486	0.103027	
28	0.257431	0.067423	-0.00388035	-0.963934	-1.37309	0.427197	10.9499	-0.00272196	-0.00337957	2.45703e-05	-0.182617	0.196533	-1.1438	0.738229	0.152529	0.184261	-0.630715	-4.53582	-0.182542	8.97228	-0.0164529	0.00698058	-0.0175783	0.383789	0.14624	-1.03467	0.497137	0.867132	0.00797074	0.0295481	0.528039	7.95536	-4.68877	-0.00136417	0.00229484	-0.000891016	0.385986	-0.8396	0.746826	0.186622	0.582829	0.773246	0.166052	-0.947252	4.5957	-8.55322	0.00159304	0.00556975	0.00198691	-0.16333	0.0310059	1.07886	-0.423486	0.83747	0.317159	-0.136798	0.172152	-7.73911	-5.85698	0.00246197	0.007505	-0.0148198	0.515381	1.2334	0.564697	0.342464	0.852203	-0.385786	-0.0873968	0.0159779	7.18482	-3.19698	0.00028114	0.0137556	-0.0150693	0.348389	-0.932617	0.325928	0.901543	-0.0668644	-0.10343	-0.414792	2.69755	-0.059283	10.1852	-0.0161251	-0.0357172	-0.0116083	-0.586914	0.0817871	-0.898926	0.135042	-0.159104	0.431736	-0.877527	1.6884	-8.34056	6.13334	0.0145868	0.0128554	-0.012405	-0.608887	0.88208	-0.39624	0.378792	-0.924997	0.0238724	-0.0181184	0.180314	-6.54753	-6.57541	0.00213782	0.00449814	-0.0194294	0.469727	0.827637	0.845215	-0.0830088	-0.0155755	-0.0246584	-0.996122	0.59202	0.570912	10.4655	-0.00183717	0.0125692	0.00274758	-0.449951	-0.145996	-0.956299	-0.632094	-0.749025	-0.140094	-0.140688	0.308245	9.6107	-1.66426	-0.00396914	0.00834258	-0.00637972	0.439941	-0.948486	0.103027	
29	0.257513	0.0674211	-0.0038834	-0.963912	-1.41677	0.439479	10.9307	0.00139536	-0.00317952	0.00164437	-0.180176	0.190186	-1.14795	0.738196	0.152513	0.18434	-0.630733	-4.56864	-0.20485	8.96642	-0.00862397	0.0212125	-0.0155625	0.381592	0.148438	-1.02759	0.497054	0.86718	0.00798611	0.0295357	0.520297	7.95444	-4.7241	0.0111157	0.00296355	-0.00477775	0.381836	-0.841797	0.749268	0.186649	0.582814	0.773254	0.166037	-0.955542	4.58769	-8.56009	0.00167638	0.00383554	3.33417e-05	-0.166016	0.0395508	1.08325	-0.42349	0.837457	0.317154	-0.136877	0.174522	-7.73889	-5.84681	0.00228355	0.00367194	-0.0135145	0.515381	1.2356	0.569336	0.342544	0.852201	-0.385726	-0.0873641	0.0211014	7.17923	-3.20786	0.00123224	0.0137376	-0.0145281	0.346436	-0.93457	0.332275	0.901483	-0.0672686	-0.103837	-0.414754	2.6746	-0.0713045	10.1545	0.000285805	-0.0288685	-0.0157327	-0.589355	0.0861816	-0.905518	0.13511	-0.159121	0.431593	-0.877584	1.67106	-8.28142	6.14305	0.0159277	0.0139715	-0.0166016	-0.611084	0.884277	-0.400879	0.378792	-0.924997	0.0238724	-0.0181184	0.180314	-6.54753	-6.57541	0.00213782	0.00449814	-0.0194294	0.469727	0.827637	0.845215	-0.0830136	-0.0156163	-0.0246077	-0.996122	0.590135	0.540183	10.4835	-0.000888406	0.00981298	0.00553457	-0.451904	-0.148438	-0.956299	-0.632081	-0.749042	-0.140082	-0.140663	0.324065	9.61722	-1.68879	0.00177755	0.00736175	-0.00473498	0.441895	-0.944092	0.100586	
30	0.257571	0.0673611	-0.00393047	-0.963901	-1.39884	0.430096	10.9551	0.00177306	-0.00812723	0.00239501	-0.178223	0.194336	-1.14575	0.738128	0.152516	0.184322	-0.630818	-4.56546	-0.209764	8.94964	-0.00751547	0.014444	-0.0185238	0.385986	0.14624	-1.03467	0.497103	0.867156	0.00799511	0.0294105	0.526672	7.96622	-4.72562	-0.000433309	-0.00263973	-0.00485647	0.384033	-0.845947	0.744873	0.186647	0.582789	0.773279	0.166012	-0.944488	4.58767	-8.58882	0.00301994	0.00497038	-0.00077842	-0.167969	0.0351562	1.08545	-0.42347	0.837461	0.317152	-0.136922	0.175913	-7.74646	-5.84688	-0.00278207	0.00745118	-0.0145366	0.519775	1.2356	0.566895	0.342657	0.85229	-0.385455	-0.0872519	0.0174169	7.1774	-3.18588	0.00108659	0.0128101	-0.0148455	0.348633	-0.936768	0.330322	0.90126	-0.0686754	-0.104829	-0.414759	2.70691	-0.0700716	10.1545	-0.0163099	-0.0454913	-0.014205	-0.591553	0.0883789	-0.90332	0.135213	-0.159236	0.431478	-0.877604	1.69139	-8.32338	6.14314	0.00427612	0.0126357	-0.0169933	-0.619629	0.884277	-0.400879	0.378988	-0.924921	0.0235407	-0.0182913	0.185049	-6.5428	-6.59179	0.00787926	0.00344269	-0.0162559	0.467285	0.829834	0.854248	-0.082961	-0.0155609	-0.0246714	-0.996126	0.587185	0.545056	10.464	0.00372933	0.00925114	0.00505749	-0.453857	-0.155029	-0.956299	-0.632161	-0.748953	-0.140215	-0.140647	0.324808	9.6112	-1.68687	-0.00242884	0.00653822	-0.00769964	0.439941	-0.950684	0.10083	
31	0.257691	0.0673855	-0.00410997	-0.963866	-1.40274	0.469533	10.928	0.00578807	-0.000238068	0.000774684	-0.184814	0.194336	-1.1438	0.738144	0.15246	0.184187	-0.630852	-4.54016	-0.196273	8.94722	-0.00834373	0.00947892	-0.0167672	0.379639	0.141846	-1.03198	0.497184	0.867112	0.00797974	0.0293524	0.528184	7.95073	-4.7189	0.00338429	0.0015197	-0.00546102	0.381592	-0.8396	0.746826	0.186643	0.582795	0.773279	0.165994	-0.962052	4.59216	-8.55401	0.00299151	0.00559581	0.000744358	-0.165527	0.0310059	1.07666	-0.423354	0.837506	0.317139	-0.137034	0.170017	-7.74714	-5.85949	-0.00298989	0.0055858	-0.0119401	0.517578	1.23779	0.569336	0.342909	0.852283	-0.385267	-0.087156	0.00649717	7.18437	-3.19802	-0.00017687	0.0126393	-0.0141215	0.348389	-0.93457	0.328125	0.901094	-0.0697697	-0.105571	-0.414749	2.73396	-0.116286	10.1417	-0.00791532	-0.0348925	-0.0158448	-0.595947	0.0883789	-0.89502	0.135332	-0.159287	0.431361	-0.877634	1.69842	-8.35796	6.13433	0.010051	0.0134363	-0.0143629	-0.61084	0.880127	-0.398438	0.379027	-0.924906	0.0235726	-0.0181907	0.181481	-6.55116	-6.59583	0.00585785	0.00578209	-0.0169776	0.472168	0.825439	0.847656	-0.0830132	-0.0156674	-0.0247089	-0.996119	0.607648	0.575889	10.4892	0.00276989	0.00860464	0.00389366	-0.449951	-0.145996	-0.95874	-0.632165	-0.748932	-0.140341	-0.140613	0.310384	9.6243	-1.67609	0.00171644	0.00606981	-0.00759414	0.4375	-0.944092	0.103027	
32	0.257741	0.0673611	-0.00414274	-0.963854	-1.40813	0.4661	10.9342	0.00210858	-0.00450115	0.00153594	-0.180176	0.187988	-1.14575	0.73815	0.152439	0.184171	-0.630855	-4.54726	-0.211235	8.95603	-0.00999225	0.0172589	-0.0174849	0.383789	0.14624	-1.03223	0.497191	0.867107	0.00799927	0.0293578	0.536258	7.95972	-4.71675	0.00171993	0.00329115	-0.0044716	0.381592	-0.837402	0.746826	0.186643	0.582795	0.773279	0.165994	-0.962052	4.59216	-8.55401	0.00299151	0.00559581	0.000744358	-0.165527	0.0310059	1.07666	-0.423343	0.837507	0.31712	-0.137105	0.170913	-7.74117	-5.87057	0.000368396	0.0069614	-0.0156071	0.515381	1.2356	0.560059	0.342984	0.852289	-0.385192	-0.0871346	0.0122819	7.17284	-3.19643	0.00140289	0.0129863	-0.0161471	0.348389	-0.93457	0.328125	0.900922	-0.0708167	-0.106426	-0.414728	2.75276	-0.103231	10.1373	-0.0134546	-0.0317784	-0.0159793	-0.595947	0.0905762	-0.89917	0.135435	-0.159302	0.431247	-0.877671	1.67521	-8.32756	6.13481	0.00602053	0.015276	-0.0140235	-0.608887	0.884521	-0.400879	0.378992	-0.924922	0.0235906	-0.0181252	0.182045	-6.54225	-6.59998	0.00600899	0.00477994	-0.0184504	0.476562	0.827881	0.847656	-0.0830736	-0.0156856	-0.0245561	-0.996117	0.594743	0.530597	10.4897	-0.00293083	0.0125012	0.00478131	-0.452148	-0.14624	-0.95874	-0.632157	-0.748942	-0.140333	-0.140609	0.322856	9.63597	-1.68706	0.00342409	0.00619875	-0.00499101	0.442139	-0.948486	0.107422	
33	0.257853	0.067344	-0.00414551	-0.963825	-1.3715	0.470352	10.9402	-0.00218174	-0.00129496	0.00218063	-0.182617	0.192139	-1.14575	0.738133	0.15236	0.184151	-0.630899	-4.56759	-0.209284	8.97362	-0.0103862	0.0125598	-0.01655	0.383789	0.144043	-1.02734	0.497308	0.867042	0.00800207	0.0293153	0.51848	7.95177	-4.70417	-0.000363714	0.000776196	-0.00401374	0.385986	-0.835205	0.749023	0.186643	0.582795	0.773279	0.165994	-0.962052	4.59216	-8.55401	0.00299151	0.00559581	0.000744358	-0.165527	0.0310059	1.07666	-0.423318	0.837528	0.317091	-0.137119	0.173951	-7.73572	-5.89129	-0.0032686	0.00957455	-0.0152229	0.521973	1.2334	0.569336	0.343138	0.852278	-0.385094	-0.0870721	0.0135288	7.18458	-3.19142	-0.000264463	0.0149868	-0.0134383	0.348389	-0.932617	0.321533	0.900747	-0.0717759	-0.107328	-0.414708	2.76553	-0.118135	10.1232	0.00494227	-0.0289204	-0.0162515	-0.596191	0.0947266	-0.890869	0.135494	-0.159266	0.431257	-0.877663	1.67728	-8.32573	6.14748	0.00352479	0.0173222	-0.0162558	-0.606689	0.884277	-0.391602	0.379065	-0.924892	0.0236414	-0.0180403	0.180988	-6.54727	-6.57469	0.00823105	0.00689251	-0.0157222	0.471924	0.827637	0.845215	-0.0831229	-0.0157528	-0.0246122	-0.996111	0.597789	0.558653	10.4813	0.00628453	0.0132478	0.00367784	-0.449707	-0.150391	-0.956299	-0.632157	-0.748942	-0.140333	-0.140609	0.322856	9.63597	-1.68706	0.00342409	0.00619875	-0.00499101	0.442139	-0.948486	0.107422	
34	0.258036	0.067276	-0.00405448	-0.963782	-1.41149	0.430202	10.9334	-0.00410384	-0.00627573	0.00542991	-0.177979	0.192383	-1.14575	0.738128	0.152452	0.18402	-0.630922	-4.53863	-0.17434	8.93543	0.00552363	0.0144038	-0.0161777	0.385986	0.14624	-1.03467	0.497398	0.866989	0.0080426	0.029337	0.526949	7.94552	-4.71144	-0.00200517	0.00525745	-0.00442803	0.381836	-0.841797	0.756104	0.186302	0.58276	0.773372	0.166066	-0.943683	4.59501	-8.55713	0.00238159	0.00532802	0.00016811	-0.163574	0.0351562	1.08545	-0.423269	0.837546	0.317081	-0.137183	0.150483	-7.72286	-5.87691	0.000243493	0.00635435	-0.0169086	0.513184	1.23779	0.566895	0.343347	0.852247	-0.384976	-0.0870753	0.0103479	7.18485	-3.19083	-0.00121819	0.0117828	-0.0146177	0.352783	-0.936768	0.328125	0.900563	-0.0727745	-0.108067	-0.414743	2.80614	-0.133795	10.1705	-0.0184343	-0.0399362	-0.0160323	-0.602295	0.0883789	-0.886475	0.135592	-0.159287	0.43118	-0.877682	1.69988	-8.34715	6.12712	0.00628414	0.0166276	-0.0148795	-0.61084	0.880127	-0.398438	0.379094	-0.924881	0.0236658	-0.0179397	0.162175	-6.54443	-6.56393	0.00585034	0.00535779	-0.0183456	0.474365	0.825439	0.852051	-0.0831956	-0.0157907	-0.0245933	-0.996105	0.600496	0.565468	10.4951	-0.000800329	0.0128442	0.00261327	-0.44751	-0.148193	-0.954102	-0.632157	-0.748942	-0.140333	-0.140609	0.322856	9.63597	-1.68706	0.00342409	0.00619875	-0.00499101	0.442139	-0.948486	0.107422	
35	0.258077	0.0672155	-0.00407853	-0.963775	-1.34531	0.432644	10.9514	0.00172507	-0.00258364	-0.00279053	-0.180176	0.192139	-1.14795	0.73805	0.152689	0.183636	-0.631067	-4.55579	-0.222538	8.9035	0.0187381	0.00629941	-0.0143268	0.383789	0.144043	-1.03442	0.497371	0.867007	0.00796443	0.0292759	0.504165	7.95534	-4.7103	0.00857078	-0.00168406	-0.000795125	0.385986	-0.843994	0.749268	0.186302	0.58276	0.773372	0.166066	-0.943683	4.59501	-8.55713	0.00238159	0.00532802	0.00016811	-0.163574	0.0351562	1.08545	-0.423308	0.837535	0.317075	-0.137144	0.163853	-7.72962	-5.88512	0.00160762	0.0117107	-0.0181283	0.51123	1.2334	0.566895	0.343424	0.852271	-0.384862	-0.0870322	0.00795788	7.19939	-3.20759	0.00405996	0.0119504	-0.0152179	0.348633	-0.936768	0.33252	0.900462	-0.0728335	-0.108975	-0.414715	2.79228	-0.159956	10.0573	0.0431926	-5.97583e-05	-0.0211582	-0.598145	0.0925293	-0.892822	0.135683	-0.159317	0.431159	-0.877673	1.70286	-8.35405	6.12969	0.00510602	0.0152238	-0.0147041	-0.613037	0.88208	-0.393799	0.37919	-0.924841	0.0236955	-0.0179746	0.167195	-6.56898	-6.62869	0.0161015	0.0118087	-0.0201381	0.469727	0.827637	0.843018	-0.0832637	-0.0158378	-0.0245123	-0.9961	0.607232	0.534679	10.4702	0.000197069	0.0110251	0.00379711	-0.44751	-0.145996	-0.954102	-0.632157	-0.748942	-0.140333	-0.140609	0.322856	9.63597	-1.68706	0.00342409	0.00619875	-0.00499101	0.442139	-0.948486	0.107422	
36	0.258014	0.0673528	-0.00413302	-0.963782	-1.39262	0.455541	10.9365	0.00358513	0.00151287	-0.00766842	-0.178223	0.194336	-1.14795	0.738068	0.152571	0.183633	-0.631075	-4.58093	-0.204096	8.90332	-0.0164519	0.00914719	-0.0177385	0.381592	0.14624	-1.03687	0.497218	0.867101	0.00784154	0.0291395	0.524237	7.95088	-4.71083	0.0086943	-0.00962756	-0.000924016	0.38623	-0.846191	0.753906	0.186302	0.58276	0.773372	0.166066	-0.943683	4.59501	-8.55713	0.00238159	0.00532802	0.00016811	-0.163574	0.0351562	1.08545	-0.423453	0.837452	0.317154	-0.137025	0.18168	-7.73952	-5.88223	0.00410271	0.0085519	-0.0143611	0.513428	1.2312	0.569336	0.343598	0.852257	-0.384744	-0.087007	0.0094475	7.18463	-3.21549	-0.00385074	0.0113177	-0.0139224	0.348389	-0.932617	0.332275	0.900392	-0.0731108	-0.109653	-0.414639	2.77683	-0.142097	10.1785	0.0190681	-0.0264974	-0.0112154	-0.598145	0.0927734	-0.897217	0.135773	-0.159306	0.431073	-0.877703	1.65543	-8.30809	6.12347	0.0084038	0.0163952	-0.0158552	-0.615479	0.886475	-0.398682	0.379291	-0.924799	0.0236997	-0.0180029	0.18643	-6.54956	-6.57185	0.0147126	0.0100417	-0.0196631	0.467285	0.827637	0.849854	-0.0833189	-0.0158758	-0.0245298	-0.996094	0.589329	0.561759	10.4827	0.00326473	0.0118944	0.00338166	-0.447266	-0.152588	-0.960693	-0.632157	-0.748942	-0.140333	-0.140609	0.322856	9.63597	-1.68706	0.00342409	0.00619875	-0.00499101	0.442139	-0.948486	0.107422	
37	0.258144	0.0674631	-0.00411047	-0.963739	-1.3725	0.454864	10.9255	-0.000509622	-0.000401948	0.00847642	-0.177979	0.187988	-1.1394	0.738074	0.151902	0.183749	-0.631196	-4.53811	-0.23087	8.94473	-0.00537669	-0.00713985	-0.0175348	0.381592	0.14624	-1.03467	0.497264	0.867072	0.00783003	0.0292162	0.509566	7.95125	-4.73065	-0.00108694	0.00767371	-0.000124365	0.381592	-0.8396	0.746826	0.186302	0.58276	0.773372	0.166066	-0.943683	4.59501	-8.55713	0.00238159	0.00532802	0.00016811	-0.163574	0.0351562	1.08545	-0.423478	0.837427	0.31719	-0.137016	0.198824	-7.73089	-5.86066	0.000801528	0.00487992	-0.00938372	0.52002	1.2312	0.5625	0.343893	0.852203	-0.3846	-0.0870104	0.0032883	7.18227	-3.16858	-0.00160452	0.0130177	-0.0154016	0.350342	-0.93042	0.327881	0.900452	-0.0732307	-0.109387	-0.414557	2.83677	-0.166575	10.0886	0.000206642	0.02903	-0.00583321	-0.600586	0.0947266	-0.89502	0.135821	-0.159344	0.431015	-0.877717	1.67418	-8.30242	6.11352	0.00816814	0.013357	-0.0165218	-0.608887	0.884277	-0.398682	0.37926	-0.924815	0.0235317	-0.0180147	0.164186	-6.55086	-6.55261	0.00196928	0.00160111	-0.0160427	0.469727	0.823242	0.847656	-0.0833797	-0.0158809	-0.0245059	-0.99609	0.594698	0.584556	10.483	0.000302782	0.0121911	0.00102926	-0.445068	-0.152588	-0.953857	-0.632157	-0.748942	-0.140333	-0.140609	0.322856	9.63597	-1.68706	0.00342409	0.00619875	-0.00499101	0.442139	-0.948486	0.107422	
38	0.258121	0.0674905	-0.00416723	-0.963743	-1.38243	0.440283	10.95	0.00235013	-0.00362615	-0.00623095	-0.182617	0.192139	-1.1416	0.738105	0.151863	0.183637	-0.631202	-4.48382	-0.186211	8.97353	-0.0121069	0.018041	-0.0179652	0.385986	0.144043	-1.03442	0.497679	0.866821	0.00790006	0.0295876	0.510663	7.94619	-4.69225	0.0121386	0.0174378	0.00455133	0.388184	-0.846191	0.751709	0.186302	0.58276	0.773372	0.166066	-0.943683	4.59501	-8.55713	0.00238159	0.00532802	0.00016811	-0.163574	0.0351562	1.08545	-0.423478	0.837427	0.31719	-0.137016	0.198824	-7.73089	-5.86066	0.000801528	0.00487992	-0.00938372	0.52002	1.2312	0.5625	0.343811	0.852288	-0.384523	-0.0868351	-0.0012558	7.19288	-3.1964	0.0151168	0.0136528	-0.0134335	0.352783	-0.936768	0.328125	0.900859	-0.0710139	-0.107348	-0.414591	2.7539	-0.076154	10.0804	0.0652236	0.14118	-0.0168817	-0.595947	0.0883789	-0.89502	0.135922	-0.15935	0.431072	-0.877673	1.72371	-8.36589	6.16469	0.00156554	0.0183218	-0.0120428	-0.613281	0.884277	-0.398682	0.37926	-0.924815	0.0235317	-0.0180147	0.164186	-6.55086	-6.55261	0.00196928	0.00160111	-0.0160427	0.469727	0.823242	0.847656	-0.0834355	-0.0158669	-0.0244459	-0.996087	0.629364	0.542809	10.486	0.00120627	0.0131782	0.00350829	-0.449707	-0.148193	-0.960938	-0.632157	-0.748942	-0.140333	-0.140609	0.322856	9.63597	-1.68706	0.00342409	0.00619875	-0.00499101	0.442139	-0.948486	0.107422	
39	0.258158	0.0674837	-0.0042099	-0.963734	-1.40559	0.454712	10.9367	0.00306536	-0.00361658	0.000799987	-0.184814	0.192139	-1.14575	0.738218	0.152014	0.183638	-0.631033	-4.5613	-0.225624	8.94822	-0.00250726	0.0195193	-0.0120936	0.383545	0.150635	-1.03247	0.497534	0.866898	0.00799965	0.0297178	0.535808	7.95172	-4.72217	0.0166811	0.0159946	-0.00493542	0.385986	-0.837402	0.749023	0.186302	0.58276	0.773372	0.166066	-0.943683	4.59501	-8.55713	0.00238159	0.00532802	0.00016811	-0.163574	0.0351562	1.08545	-0.424066	0.837105	0.317424	-0.136623	0.166598	-7.73588	-5.85722	0.00929649	0.00977522	-0.0149595	0.517578	1.2356	0.566895	0.34379	0.852332	-0.384459	-0.0867793	0.0147171	7.17198	-3.18621	0.00990218	0.0133498	-0.0160446	0.348389	-0.932617	0.330078	0.901006	-0.0705024	-0.106629	-0.414545	2.60795	-0.0899715	10.1684	0.0328816	0.0395761	-0.0117781	-0.59375	0.0905762	-0.89502	0.135918	-0.15935	0.431013	-0.877703	1.63203	-8.29762	6.15546	0.00721692	0.0156052	-0.0213015	-0.615234	0.88208	-0.39624	0.379601	-0.924678	0.0232367	-0.0182792	0.177543	-6.54074	-6.53095	0.0160439	0.00699726	-0.014489	0.469482	0.830078	0.849609	-0.0834097	-0.0159565	-0.0244148	-0.996088	0.57577	0.527334	10.4884	0.00359663	0.00980617	0.00827796	-0.451904	-0.148438	-0.956299	-0.632514	-0.748343	-0.141639	-0.140882	0.308171	9.62372	-1.64528	-0.00581575	0.0112948	-0.00381159	0.4375	-0.946289	0.105225	
40	0.258378	0.0673644	-0.00428522	-0.963683	-1.41567	0.453235	10.9372	0.00096127	-0.00991786	0.00630557	-0.182617	0.194336	-1.1438	0.738099	0.152023	0.183662	-0.631163	-4.55875	-0.206508	8.93717	-0.0104378	0.0161146	-0.0204301	0.381592	0.145996	-1.04175	0.497705	0.866801	0.008067	0.0296695	0.534616	7.95947	-4.71736	-0.0105664	-0.000987127	-0.00556186	0.379639	-0.837402	0.749023	0.186302	0.58276	0.773372	0.166066	-0.943683	4.59501	-8.55713	0.00238159	0.00532802	0.00016811	-0.163574	0.0351562	1.08545	-0.423762	0.837217	0.317502	-0.136696	0.184614	-7.76	-5.83012	-0.0167134	0.00138393	-0.0135626	0.517578	1.2334	0.5625	0.343948	0.852331	-0.38433	-0.0867338	0.0147637	7.18941	-3.19428	-0.000471698	0.01472	-0.0150207	0.350586	-0.93457	0.328125	0.900885	-0.0714246	-0.107272	-0.414484	2.73628	-0.0878387	10.1692	0.0102475	0.0121258	-0.0153448	-0.591553	0.0905762	-0.89917	0.135864	-0.159374	0.431365	-0.877534	1.65449	-8.3733	6.13694	-0.0109227	0.0191477	-0.0156863	-0.61792	0.893066	-0.408203	0.379565	-0.924693	0.0232523	-0.0182201	0.171017	-6.56265	-6.56046	-0.00190155	0.00515307	-0.0189885	0.464844	0.834473	0.849609	-0.0834739	-0.015942	-0.0245807	-0.996079	0.625096	0.573344	10.4997	0.0124803	0.0177622	0.00111737	-0.451904	-0.150635	-0.954102	-0.632452	-0.748396	-0.141575	-0.140944	0.319954	9.62024	-1.65065	0.0109643	0.00623841	-0.00046903	0.437744	-0.950684	0.105225	
41	0.258481	0.0671781	-0.00433742	-0.963668	-1.36935	0.462026	10.9374	-0.00103879	-0.00970715	0.000879546	-0.178223	0.194336	-1.14795	0.738093	0.151983	0.183735	-0.631159	-4.51941	-0.196914	8.9918	-0.0122688	0.0209613	-0.0158338	0.379395	0.14624	-1.02979	0.497743	0.866784	0.00809703	0.0295203	0.51741	7.95461	-4.69123	0.0054914	-0.000456898	-0.00788198	0.385986	-0.841797	0.751465	0.186302	0.58276	0.773372	0.166066	-0.943683	4.59501	-8.55713	0.00238159	0.00532802	0.00016811	-0.163574	0.0351562	1.08545	-0.423423	0.837385	0.317482	-0.136761	0.158545	-7.72717	-5.8907	-0.010566	0.00634182	-0.0111798	0.515625	1.229	0.569336	0.344179	0.85229	-0.384214	-0.0867308	0.0211795	7.18733	-3.19512	-0.00423523	0.0125393	-0.014726	0.348633	-0.936768	0.328125	0.90078	-0.0722323	-0.107783	-0.414439	2.82211	-0.108368	10.1013	-0.00679045	-0.0242788	-0.0141206	-0.591553	0.0883789	-0.892822	0.135974	-0.159468	0.431402	-0.877481	1.71244	-8.35362	6.12966	0.00564551	0.013968	-0.0146459	-0.613037	0.879883	-0.38916	0.379335	-0.924787	0.0232757	-0.0182237	0.177935	-6.54626	-6.59901	-0.00162546	0.0105724	-0.020062	0.469482	0.830078	0.849609	-0.0836175	-0.0158903	-0.0244447	-0.996071	0.608796	0.569301	10.4648	-0.010814	0.0108594	-0.000664629	-0.45166	-0.154785	-0.958496	-0.632139	-0.748646	-0.141604	-0.140987	0.309263	9.61198	-1.64979	0.0167804	0.00593714	0.000322754	0.439697	-0.946289	0.0961914	
42	0.258576	0.0670757	-0.00433848	-0.96365	-1.3562	0.453512	10.9562	-0.00240193	-0.00617778	0.00272633	-0.18042	0.194336	-1.14575	0.738096	0.152103	0.183761	-0.631119	-4.55488	-0.187074	8.96928	-0.0128469	0.024331	-0.0143712	0.383789	0.14624	-1.03467	0.497615	0.866856	0.00813519	0.0295517	0.523	7.95145	-4.71001	0.00698731	0.00786719	-0.00468054	0.381836	-0.841553	0.74707	0.186302	0.58276	0.773372	0.166066	-0.943683	4.59501	-8.55713	0.00238159	0.00532802	0.00016811	-0.163574	0.0351562	1.08545	-0.423422	0.837362	0.317507	-0.13685	0.174396	-7.72297	-5.85118	0.00274795	0.0100184	-0.0154193	0.519775	1.2356	0.569336	0.344367	0.852261	-0.384097	-0.0867814	0.0113061	7.18738	-3.17085	0.000761534	0.0108683	-0.0159371	0.35083	-0.936768	0.330322	0.900598	-0.073272	-0.108763	-0.414398	2.83151	-0.117147	10.1555	-0.00657921	-0.0450866	-0.015216	-0.608887	0.0925293	-0.890869	0.136104	-0.15954	0.431375	-0.877461	1.7023	-8.28265	6.12881	-0.000980571	0.0164132	-0.0133014	-0.611084	0.884277	-0.398682	0.379317	-0.924794	0.0232723	-0.0182256	0.161422	-6.53899	-6.56822	0.0077384	0.00779535	-0.018135	0.471924	0.830078	0.849854	-0.0837483	-0.015814	-0.0243954	-0.996063	0.623525	0.506869	10.4805	0.00979377	0.0183087	0.00423595	-0.45166	-0.154785	-0.958496	-0.632019	-0.748754	-0.141487	-0.141069	0.335289	9.63573	-1.67951	0.00403576	0.0091567	0.000750804	0.435547	-0.955322	0.107666	
43	0.258646	0.0670532	-0.00427357	-0.963633	-1.37336	0.442808	10.9461	-0.00417963	-0.00126652	0.00211029	-0.178223	0.194336	-1.14575	0.738044	0.152086	0.183613	-0.631227	-4.55106	-0.181407	8.91074	0.0015935	0.00802259	-0.0168782	0.381592	0.144043	-1.03442	0.49753	0.866905	0.00815016	0.0295653	0.52902	7.95676	-4.72256	0.00821408	0.0066684	-0.00354953	0.379639	-0.839355	0.746826	0.185223	0.582708	0.77359	0.166441	-0.949759	4.59439	-8.56545	0.00171288	0.00524938	0.00043634	-0.165771	0.032959	1.08545	-0.423362	0.837363	0.317634	-0.136732	0.17524	-7.7305	-5.86179	-0.00440056	0.00575368	-0.0139763	0.519775	1.23779	0.569336	0.344463	0.852275	-0.383989	-0.0867453	0.015113	7.17554	-3.17003	0.00378768	0.0125611	-0.0144345	0.352783	-0.936768	0.328125	0.9004	-0.0738993	-0.109766	-0.414452	2.85332	-0.10999	10.1266	0.00485986	-0.0277379	-0.0189308	-0.604492	0.0883789	-0.890625	0.136152	-0.159548	0.431477	-0.877402	1.68249	-8.33504	6.12956	0.00359935	0.0164513	-0.016122	-0.615479	0.884277	-0.39624	0.379446	-0.92474	0.0233582	-0.0181806	0.180289	-6.58517	-6.62031	0.0114123	0.00710913	-0.0153528	0.467529	0.825439	0.847656	-0.0837357	-0.0158172	-0.0246005	-0.996059	0.563993	0.566326	10.4728	0.00775061	0.0118832	0.00614058	-0.449463	-0.152588	-0.953857	-0.63218	-0.748583	-0.141564	-0.141183	0.321253	9.61459	-1.67756	-0.00824237	0.00902359	-0.00467654	0.442139	-0.946289	0.100586	
44	0.258705	0.0670898	-0.00426627	-0.963614	-1.37859	0.435389	10.9356	0.00163409	-0.0024868	-0.00077046	-0.180176	0.190186	-1.14795	0.738059	0.152001	0.183666	-0.631215	-4.53305	-0.211875	9.0016	-0.0171766	0.0145661	-0.01789	0.381592	0.14624	-1.02515	0.497702	0.866804	0.00820034	0.0295923	0.518281	7.96399	-4.71388	-0.000254066	0.00489887	-0.000924939	0.385986	-0.841797	0.74707	0.185223	0.582708	0.77359	0.166441	-0.949759	4.59439	-8.56545	0.00171288	0.00524938	0.00043634	-0.165771	0.032959	1.08545	-0.423365	0.837387	0.317579	-0.136709	0.151191	-7.72837	-5.90601	-0.00102385	0.0126713	-0.0130974	0.513428	1.229	0.571533	0.344542	0.852289	-0.383899	-0.0866956	0.0129278	7.18989	-3.18723	0.00454649	0.011561	-0.0145819	0.35498	-0.93457	0.32373	0.900313	-0.0746856	-0.110466	-0.414314	2.89588	-0.151315	10.1491	0.000295047	-0.0169626	-0.0124223	-0.604736	0.0947266	-0.890869	0.136243	-0.159498	0.431563	-0.877355	1.71307	-8.36642	6.09474	-0.00252118	0.0187074	-0.00761032	-0.611084	0.884277	-0.39624	0.379481	-0.924725	0.0233948	-0.0181836	0.175554	-6.5435	-6.53201	0.00951314	0.008741	-0.0168536	0.474365	0.827637	0.854248	-0.0838115	-0.0159295	-0.0247212	-0.996048	0.644554	0.597071	10.499	0.00838828	0.0126081	0.00316234	-0.447266	-0.152588	-0.95166	-0.63218	-0.748583	-0.141564	-0.141183	0.321253	9.61459	-1.67756	-0.00824237	0.00902359	-0.00467654	0.442139	-0.946289	0.100586	
45	0.258712	0.0671106	-0.00438473	-0.96361	-1.40728	0.448549	10.9452	0.00635009	-0.00234835	0.00105143	-0.177979	0.187988	-1.14575	0.737985	0.152178	0.183983	-0.631166	-4.5679	-0.214979	8.94804	-0.0104648	0.0319376	-0.013516	0.381592	0.14624	-1.03687	0.497618	0.86685	0.00821379	0.0296717	0.530916	7.95975	-4.70907	0.0109508	0.00929585	-0.00119055	0.379639	-0.837402	0.751465	0.185195	0.582677	0.773615	0.166461	-0.949704	4.58019	-8.56238	0.00118207	0.00446647	0.000490147	-0.165771	0.032959	1.08765	-0.423447	0.837336	0.317589	-0.136741	0.182781	-7.73734	-5.85238	0.0039821	0.0056806	-0.0179068	0.519775	1.2334	0.5625	0.344536	0.852363	-0.383758	-0.0866118	-0.00509002	7.18525	-3.20585	0.00896754	0.0126204	-0.015796	0.346191	-0.93457	0.325928	0.90031	-0.0747352	-0.110507	-0.4143	2.83736	-0.13646	10.0816	0.0148134	0.00951753	-0.0143203	-0.602539	0.0947266	-0.890869	0.136416	-0.159547	0.431256	-0.87747	1.65775	-8.30364	6.1318	0.0177344	0.00767635	-0.0171124	-0.615479	0.888672	-0.398682	0.379398	-0.924761	0.0233846	-0.0181061	0.188511	-6.5588	-6.57694	0.00347199	0.0042165	-0.019637	0.479004	0.827881	0.843018	-0.0837868	-0.0159557	-0.0247421	-0.996049	0.583819	0.586541	10.4917	0.00411112	0.0112158	0.00792776	-0.449707	-0.148193	-0.954102	-0.632442	-0.74833	-0.141668	-0.141242	0.312967	9.61997	-1.64614	-0.00652295	0.00741236	-0.00560649	0.437744	-0.952881	0.0983887	
46	0.258746	0.0670783	-0.00445867	-0.963603	-1.41012	0.434909	10.9302	0.00433827	-0.00704719	0.000971773	-0.182617	0.194336	-1.1438	0.737892	0.152268	0.184181	-0.631195	-4.56227	-0.208633	8.94567	-0.00848991	0.0227354	-0.0172814	0.381836	0.141846	-1.03442	0.497584	0.866869	0.00823231	0.0296656	0.52571	7.96027	-4.73337	-0.0032407	-0.000399178	-0.00545379	0.390381	-0.843994	0.749268	0.185266	0.582645	0.773625	0.166452	-0.948742	4.59392	-8.56257	0.00173517	0.00272843	-0.000390255	-0.17041	0.0397949	1.07422	-0.42352	0.837296	0.317602	-0.136732	0.172408	-7.72085	-5.87405	-0.000816128	0.0106369	-0.0169691	0.515625	1.229	0.569336	0.344624	0.852381	-0.383661	-0.0865189	0.00343141	7.18489	-3.20068	0.00312923	0.0136722	-0.0135566	0.348389	-0.93457	0.330322	0.900195	-0.0754139	-0.111039	-0.414286	2.8395	-0.153292	10.0916	0.00283079	-0.0223849	-0.0146937	-0.604736	0.0925293	-0.890869	0.136531	-0.159602	0.431105	-0.877516	1.67402	-8.33442	6.11431	0.0101374	0.0125902	-0.014166	-0.608887	0.884521	-0.400879	0.379413	-0.924755	0.0234637	-0.0179802	0.182528	-6.55796	-6.57104	0.00797522	0.00389832	-0.0136383	0.467529	0.825439	0.845215	-0.0838284	-0.0160436	-0.0246515	-0.996046	0.581744	0.555346	10.4664	0.00220481	0.00806899	0.00573984	-0.45166	-0.154785	-0.949463	-0.632507	-0.74826	-0.141766	-0.141222	0.321106	9.60157	-1.64499	-0.00141782	0.00614928	-0.00746727	0.439697	-0.944092	0.100586	
47	0.258843	0.0669266	-0.00461059	-0.963587	-1.35413	0.465408	10.9392	0.00430211	-0.00909423	0.00104738	-0.18042	0.192139	-1.14355	0.737913	0.152312	0.184142	-0.631171	-4.55429	-0.201693	8.93604	-0.00552127	0.015065	-0.0175116	0.385986	0.141846	-1.03442	0.497707	0.866799	0.00826674	0.0296295	0.515028	7.96142	-4.67993	0.00258071	-0.000197224	-0.00661655	0.385986	-0.841797	0.744629	0.185276	0.582639	0.773627	0.16645	-0.948228	4.60049	-8.5559	0.00116687	0.00478018	0.00125254	-0.165771	0.0354004	1.07886	-0.423383	0.837347	0.31763	-0.136778	0.180653	-7.73261	-5.86518	-0.0047857	0.0055628	-0.0139991	0.517578	1.2356	0.571533	0.344707	0.852374	-0.383608	-0.0864912	0.00928216	7.19382	-3.1741	0.000296322	0.0129586	-0.0143809	0.354736	-0.932617	0.325928	0.900138	-0.0759093	-0.111345	-0.414236	2.87734	-0.165186	10.0938	0.00392375	-0.00588055	-0.0170377	-0.611084	0.0925293	-0.890869	0.136661	-0.15969	0.431	-0.877532	1.69013	-8.38056	6.15391	0.00654352	0.0123493	-0.0162239	-0.615234	0.88208	-0.400879	0.37942	-0.924754	0.023486	-0.0178817	0.181841	-6.55003	-6.57444	0.00497216	0.00382459	-0.0185491	0.467041	0.832275	0.854248	-0.083894	-0.0161481	-0.0247341	-0.996037	0.593658	0.572605	10.5066	0.00537666	0.00939918	0.00300517	-0.45166	-0.154785	-0.95166	-0.632457	-0.74829	-0.141899	-0.141153	0.307645	9.62023	-1.64566	0.0047876	0.00513455	-0.00800423	0.442139	-0.950684	0.103027	
48	0.258888	0.066901	-0.00467419	-0.963576	-1.37067	0.45959	10.9459	0.00192802	-0.00412241	0.000223345	-0.18042	0.192139	-1.14355	0.737902	0.152362	0.184239	-0.631144	-4.5587	-0.206082	8.95075	-0.0104035	0.0221541	-0.0177432	0.385986	0.14624	-1.02979	0.497655	0.86683	0.00826748	0.0296081	0.530162	7.95261	-4.70485	0.00462933	0.00375515	-0.00436825	0.383789	-0.841797	0.749268	0.185262	0.582604	0.773661	0.166433	-0.945396	4.59944	-8.55678	0.00212457	0.00432219	2.82692e-05	-0.165771	0.032959	1.08545	-0.423386	0.837332	0.317625	-0.13687	0.161956	-7.73553	-5.87871	0.00512309	0.00788998	-0.0139215	0.517578	1.2334	0.569336	0.344814	0.852378	-0.383504	-0.0864813	0.0162962	7.16474	-3.18898	0.000680706	0.00998382	-0.0159098	0.350586	-0.932617	0.328125	0.900066	-0.076223	-0.111831	-0.414205	2.89463	-0.143242	10.0865	0.00846418	-0.00630242	-0.0147628	-0.606934	0.0925293	-0.886475	0.136767	-0.159686	0.430816	-0.877606	1.68938	-8.31573	6.14318	0.00972747	0.0160802	-0.0158267	-0.608887	0.886475	-0.394043	0.37938	-0.924771	0.0235006	-0.0178153	0.18352	-6.56206	-6.58471	0.00634733	0.00601941	-0.0176718	0.465088	0.827637	0.847412	-0.0839776	-0.0162048	-0.0245911	-0.996032	0.629169	0.560904	10.4918	-0.00432051	0.0119075	0.00252008	-0.456543	-0.148438	-0.949463	-0.632403	-0.748321	-0.142012	-0.141117	0.309867	9.64077	-1.66775	0.00456328	0.00559937	-0.0065941	0.439941	-0.948486	0.103027	
49	0.258986	0.0669049	-0.00468744	-0.96355	-1.3867	0.444487	10.9479	-0.000927949	-0.00204592	0.00244115	-0.18042	0.192139	-1.14355	0.737851	0.152304	0.184252	-0.631214	-4.58924	-0.21856	8.94145	-0.0128375	0.0115354	-0.0178008	0.385742	0.148438	-1.03223	0.497681	0.866814	0.00831383	0.0296359	0.517161	7.96388	-4.70597	0.00339541	0.00531305	-0.00482231	0.381836	-0.841797	0.753906	0.185292	0.582596	0.773657	0.166443	-0.960923	4.57662	-8.56366	-0.000779016	0.00635166	0.000761258	-0.166016	0.0375977	1.07886	-0.423485	0.837281	0.317623	-0.136881	0.190929	-7.72771	-5.87465	0.00159654	0.0104351	-0.0154829	0.517334	1.23999	0.569336	0.344891	0.852395	-0.383406	-0.0864406	0.020927	7.18828	-3.17902	0.00501855	0.011917	-0.0147575	0.352783	-0.93457	0.330322	0.900023	-0.0764719	-0.11223	-0.414144	2.86621	-0.160886	10.057	0.0212477	0.00175339	-0.0160685	-0.604736	0.0925293	-0.890869	0.136827	-0.159676	0.430813	-0.8776	1.67194	-8.33434	6.12873	0.00224313	0.0159265	-0.0175378	-0.608887	0.88208	-0.393799	0.379397	-0.924764	0.0235066	-0.0177937	0.184961	-6.5577	-6.57107	0.00769056	0.00579083	-0.0178309	0.467285	0.827637	0.854248	-0.0839994	-0.016256	-0.0246109	-0.996029	0.595288	0.541729	10.4822	0.00726361	0.011133	0.00608496	-0.447266	-0.156982	-0.958496	-0.632427	-0.748299	-0.142015	-0.141128	0.318752	9.64915	-1.68574	-6.00556e-05	0.00813986	-0.0060141	0.435303	-0.948486	0.100586	
50	0.259089	0.066912	-0.00475762	-0.963521	-1.41057	0.429436	10.927	0.00261039	-0.00597665	0.00197647	-0.178223	0.194336	-1.14795	0.737769	0.152484	0.18408	-0.631316	-4.53741	-0.183558	8.93037	0.00465252	0.016854	-0.0161518	0.385986	0.144043	-1.02734	0.497722	0.866789	0.00830519	0.0296639	0.538046	7.96946	-4.69767	-0.0017293	0.00342625	-0.00422692	0.385986	-0.841797	0.73999	0.185341	0.582595	0.773648	0.166435	-0.950523	4.59123	-8.57799	0.00162695	0.00495041	0.000477786	-0.170166	0.0307617	1.08545	-0.423484	0.837294	0.317594	-0.136869	0.167463	-7.73858	-5.88816	-0.000405556	0.00984237	-0.0175739	0.517578	1.2334	0.569336	0.344983	0.852411	-0.383304	-0.0863743	0.0157383	7.17873	-3.17689	0.00312781	0.0136648	-0.0135825	0.346436	-0.936768	0.328125	0.899952	-0.0766626	-0.112865	-0.41409	2.92988	-0.154302	10.1678	0.0196271	-0.0230952	-0.0176489	-0.611084	0.0925293	-0.888672	0.136901	-0.159663	0.430831	-0.877582	1.68922	-8.36896	6.12724	0.00456716	0.0164689	-0.0145516	-0.615234	0.879883	-0.393799	0.379565	-0.924695	0.0233826	-0.0179388	0.168296	-6.55778	-6.58917	0.00925939	0.0085544	-0.0201111	0.469482	0.832275	0.845215	-0.0840264	-0.0162905	-0.0246219	-0.996026	0.596826	0.566324	10.5043	0.00223745	0.0120225	0.00427553	-0.44751	-0.150391	-0.947266	-0.632451	-0.748233	-0.142198	-0.14118	0.309135	9.62547	-1.66298	-0.000108861	0.00694645	-0.00530859	0.441895	-0.944092	0.100586	
51	0.259053	0.066861	-0.0049132	-0.963534	-1.35034	0.466776	10.9463	0.00636436	-0.0048443	-0.00438723	-0.182617	0.194336	-1.14795	0.737705	0.152801	0.183797	-0.631396	-4.57209	-0.239688	8.96308	0.0115627	0.0223935	-0.0143979	0.385986	0.14624	-1.03223	0.497674	0.866822	0.00815443	0.0295599	0.506544	7.953	-4.71153	0.00995853	-0.000892652	-0.000610283	0.385986	-0.843994	0.74707	0.185373	0.582592	0.773649	0.166406	-0.948712	4.59079	-8.5507	0.00217993	0.0032118	-0.000403254	-0.167969	0.0351562	1.08545	-0.423506	0.837289	0.317587	-0.13685	0.180614	-7.70864	-5.86877	0.00089652	0.011981	-0.0161818	0.517578	1.2334	0.564697	0.345064	0.852433	-0.383198	-0.0863079	0.0211698	7.18164	-3.19238	0.00378053	0.0132824	-0.0153321	0.350586	-0.93457	0.328125	0.900003	-0.0759987	-0.113224	-0.414004	2.90351	-0.163548	10.0476	0.0619583	0.0291128	-0.0188441	-0.602295	0.0883789	-0.888428	0.137019	-0.159741	0.430687	-0.87762	1.68961	-8.29617	6.13548	0.0104235	0.0130997	-0.0157492	-0.611084	0.886475	-0.398682	0.379558	-0.924701	0.0233583	-0.0178487	0.186691	-6.55405	-6.55658	0.00109742	0.00391503	-0.0181973	0.469482	0.830078	0.845215	-0.0841108	-0.0163439	-0.0245485	-0.99602	0.611861	0.567415	10.484	-0.00175391	0.0113365	0.00248272	-0.451904	-0.148438	-0.960938	-0.632459	-0.748231	-0.142181	-0.141177	0.304504	9.6288	-1.65735	0.00326612	0.00758481	-0.00527167	0.435303	-0.946289	0.100586	
52	0.259036	0.0668723	-0.00497384	-0.963537	-1.38969	0.457794	10.9302	0.00538598	-0.00304932	-0.00356775	-0.180176	0.189941	-1.14575	0.737703	0.1526	0.183909	-0.631415	-4.56941	-0.204189	8.87189	-0.027544	0.011799	-0.0200977	0.388184	0.144043	-1.03223	0.497568	0.866889	0.00805198	0.0294023	0.518378	7.96455	-4.73509	0.00469151	-0.00889912	-0.000346286	0.379639	-0.84375	0.74707	0.185335	0.582582	0.773668	0.166398	-0.955827	4.58881	-8.56515	0.00251504	0.00591682	0.000449234	-0.17041	0.0373535	1.08105	-0.423675	0.837194	0.317636	-0.136798	0.186559	-7.71769	-5.86692	0.00197392	0.00641382	-0.0134915	0.519775	1.2356	0.571533	0.345261	0.852408	-0.383085	-0.086266	0.0103247	7.19284	-3.1946	-0.00404586	0.0134751	-0.0141339	0.346436	-0.93457	0.332275	0.900007	-0.076031	-0.113621	-0.413881	2.89489	-0.140875	10.1407	0.0249212	-0.00480115	-0.00957546	-0.611084	0.090332	-0.88208	0.137072	-0.159765	0.430656	-0.877623	1.65972	-8.32879	6.15214	0.00151917	0.0149594	-0.0166137	-0.611328	0.893066	-0.394043	0.379488	-0.92473	0.0233736	-0.0177976	0.172476	-6.54686	-6.57081	-0.000250024	0.004566	-0.0166803	0.471924	0.830078	0.845215	-0.0841683	-0.0163709	-0.024516	-0.996015	0.576425	0.565755	10.4826	0.00281735	0.0118103	0.00290575	-0.449707	-0.150391	-0.954102	-0.632465	-0.74823	-0.142161	-0.141178	0.313324	9.64689	-1.6651	0.00226769	0.0068557	-0.00534278	0.4375	-0.946289	0.103027	
53	0.259212	0.0668463	-0.00500754	-0.963491	-1.37836	0.451275	10.9486	-0.00201921	-0.00237885	0.0107123	-0.178223	0.196533	-1.14575	0.73776	0.152086	0.183825	-0.631497	-4.54259	-0.207161	8.97416	0.00712521	-0.000829189	-0.0159738	0.379395	0.144043	-1.03442	0.498022	0.866621	0.00814912	0.0295786	0.526178	7.95932	-4.70213	-0.0273853	0.0127808	-0.00672433	0.385986	-0.837402	0.746826	0.185327	0.582574	0.773674	0.166402	-0.954748	4.59526	-8.5586	0.0015344	0.00685937	0.000584055	-0.163574	0.0351562	1.08545	-0.423561	0.83723	0.31763	-0.136945	0.183007	-7.73823	-5.8571	-0.00529926	-0.00203922	-0.00817792	0.51123	1.2334	0.573975	0.345468	0.852373	-0.382978	-0.0862509	0.00949152	7.19654	-3.18416	0.00426015	0.012908	-0.0146465	0.352783	-0.936768	0.328125	0.90011	-0.075821	-0.1132	-0.413811	2.94496	-0.170189	10.0883	0.0187431	0.052318	-0.00741	-0.606934	0.0925293	-0.886475	0.137154	-0.159806	0.43065	-0.877606	1.68614	-8.35353	6.15852	0.00448059	0.0125443	-0.0143917	-0.613281	0.884277	-0.400879	0.379494	-0.924729	0.0234064	-0.017672	0.167936	-6.56969	-6.59287	0.00805508	0.00254907	-0.0171073	0.467529	0.825439	0.849854	-0.084219	-0.016417	-0.0245128	-0.99601	0.603155	0.572244	10.4757	0.00238026	0.00945273	0.00181731	-0.445312	-0.150391	-0.963135	-0.632454	-0.748249	-0.142166	-0.14112	0.298056	9.61927	-1.6604	0.00487053	0.0051311	-0.00837863	0.437988	-0.955078	0.105469	
54	0.259238	0.066854	-0.00501032	-0.963484	-1.37909	0.457602	10.9365	0.000826851	-0.00258174	-0.000426047	-0.180176	0.189941	-1.14575	0.737739	0.152128	0.183788	-0.631522	-4.51091	-0.16782	8.94697	-0.00891542	0.0202298	-0.01647	0.392334	0.148438	-1.03467	0.498179	0.866528	0.00810382	0.0296931	0.519966	7.97094	-4.67728	-0.0117996	0.00861414	0.00448177	0.379639	-0.837402	0.746826	0.185377	0.58258	0.773654	0.166419	-0.96226	4.60104	-8.56565	-0.00203202	0.00330968	0.00146373	-0.168213	0.0373535	1.08105	-0.423872	0.837085	0.317594	-0.136949	0.15845	-7.71479	-5.84023	0.0178509	0.0163696	-0.0226991	0.517578	1.2356	0.564697	0.345423	0.85242	-0.382931	-0.0861819	0.024817	7.18214	-3.18543	0.0118047	0.0133374	-0.0150198	0.352783	-0.932617	0.328125	0.900562	-0.0736225	-0.111091	-0.413794	2.81123	-0.0934508	10.0156	0.0420261	0.121917	-0.0132737	-0.604492	0.090332	-0.890625	0.137242	-0.159821	0.430603	-0.877612	1.70908	-8.325	6.1306	0.00710522	0.0158698	-0.0163184	-0.611084	0.884277	-0.391602	0.379642	-0.924669	0.0232508	-0.0178516	0.17461	-6.5548	-6.58635	0.00998302	0.00778977	-0.0180502	0.467529	0.825439	0.849854	-0.084251	-0.0163995	-0.024424	-0.99601	0.635213	0.544305	10.5181	-0.00289579	0.0143009	0.00464532	-0.458496	-0.155029	-0.956299	-0.632439	-0.748244	-0.142231	-0.141146	0.315458	9.64119	-1.68589	0.00177958	0.00625478	-0.00456959	0.439697	-0.944092	0.100586	
55	0.259271	0.0668623	-0.00499573	-0.963475	-1.43339	0.452661	10.9253	-0.00155221	-0.00251577	0.00409756	-0.178223	0.196533	-1.15015	0.737735	0.152383	0.183749	-0.631476	-4.58992	-0.213298	8.93199	-0.0012714	0.0211792	-0.0109353	0.390381	0.144043	-1.02979	0.497829	0.866715	0.0082426	0.0300381	0.529124	7.95608	-4.71547	0.0189065	0.0140327	-0.00552677	0.384033	-0.845947	0.749268	0.185476	0.582535	0.773643	0.166515	-0.951131	4.61039	-8.57221	-0.00308943	0.00584715	0.000942245	-0.165771	0.0351562	1.08545	-0.423958	0.837023	0.317568	-0.137118	0.15516	-7.74264	-5.88627	0.00497278	0.0040608	-0.0126082	0.519775	1.2356	0.560059	0.345384	0.852493	-0.382836	-0.0860395	0.0139806	7.19175	-3.19122	0.00689641	0.0133722	-0.0153682	0.352783	-0.932617	0.330078	0.90069	-0.0734088	-0.11042	-0.413735	2.68642	-0.0808049	10.0948	0.0240995	5.20162e-05	-0.0130541	-0.606689	0.0883789	-0.892822	0.137182	-0.159852	0.430712	-0.877562	1.64583	-8.33544	6.15093	-0.00637482	0.018271	-0.0200053	-0.608887	0.882324	-0.405518	0.379923	-0.924553	0.0231329	-0.0180312	0.190621	-6.56127	-6.57947	0.0157841	0.00828521	-0.0165557	0.467041	0.832275	0.847412	-0.0842255	-0.0164958	-0.0243986	-0.996011	0.58433	0.514347	10.4812	0.0057054	0.00800055	0.00748048	-0.451904	-0.152588	-0.953857	-0.632707	-0.747995	-0.142208	-0.141286	0.324565	9.60813	-1.63307	-0.0143014	0.00956668	-0.00522911	0.439697	-0.946289	0.0983887	
56	0.259467	0.0667079	-0.00504139	-0.963432	-1.40341	0.430371	10.9347	0.00110706	-0.0106351	0.00412975	-0.177979	0.190186	-1.14355	0.737683	0.152406	0.183797	-0.631518	-4.57074	-0.182999	8.94626	-0.0105613	0.0167876	-0.0183809	0.379395	0.14624	-1.02979	0.498008	0.866614	0.00824425	0.0300021	0.533229	7.96146	-4.68951	-0.00891683	-0.00170223	-0.00453786	0.384033	-0.848145	0.74707	0.185514	0.582519	0.773642	0.166536	-0.937478	4.59802	-8.57258	0.0016286	0.00495167	0.00048218	-0.165771	0.032959	1.08105	-0.423679	0.837132	0.317615	-0.13721	0.19351	-7.72969	-5.87481	-0.0168424	-0.000587327	-0.0116443	0.523926	1.23779	0.569336	0.345544	0.852472	-0.382745	-0.0860024	0.0162073	7.17708	-3.19897	-0.00139986	0.0131906	-0.0140322	0.346191	-0.93042	0.330078	0.900597	-0.0742095	-0.110684	-0.413724	2.8062	-0.121826	10.1751	0.00646019	0.0185856	-0.0142489	-0.600342	0.0947266	-0.888672	0.1372	-0.159801	0.430908	-0.877472	1.66428	-8.40934	6.10451	0.000568037	0.0182536	-0.0134039	-0.615479	0.884277	-0.39624	0.379767	-0.924617	0.0231668	-0.0179864	0.18188	-6.55391	-6.51171	-0.00796104	0.00587961	-0.0190202	0.471924	0.827637	0.845215	-0.0842962	-0.0164983	-0.0245788	-0.996001	0.59027	0.624888	10.5111	0.00901994	0.0156121	0.000803484	-0.449707	-0.150391	-0.954102	-0.63269	-0.748023	-0.142151	-0.141275	0.302017	9.61485	-1.63058	0.0119213	0.00434266	-0.00224255	0.441895	-0.941895	0.0983887	
57	0.259468	0.0666231	-0.00525572	-0.963437	-1.3553	0.465311	10.9543	0.00840884	-0.00871036	-0.00269768	-0.177979	0.190186	-1.14575	0.737674	0.152412	0.183884	-0.631501	-4.53728	-0.201117	8.96688	-0.0105401	0.020626	-0.0155305	0.383789	0.148438	-1.03003	0.497968	0.866642	0.00821754	0.0298603	0.520943	7.95983	-4.68781	0.00975841	-0.00156535	-0.00552349	0.388184	-0.841797	0.753906	0.185542	0.582514	0.773648	0.166494	-0.945111	4.58979	-8.55195	0.003146	0.00258353	0.000227945	-0.170166	0.0307617	1.08105	-0.423419	0.837246	0.317686	-0.137151	0.165784	-7.73331	-5.87759	-0.0119517	0.00288813	-0.00868652	0.517578	1.2356	0.5625	0.345783	0.85242	-0.382653	-0.0859705	0.0183118	7.1836	-3.18008	-0.00431355	0.0116022	-0.0147918	0.350586	-0.932617	0.334473	0.900495	-0.0748833	-0.111154	-0.413698	2.85884	-0.11903	10.0926	0.00116798	-0.0216847	-0.0148672	-0.602295	0.090332	-0.886475	0.137347	-0.159913	0.430863	-0.877451	1.69121	-8.2964	6.14838	0.00799067	0.0119964	-0.0146325	-0.617676	0.886475	-0.405518	0.379521	-0.924719	0.0231452	-0.0179569	0.178336	-6.56666	-6.57769	-0.015107	0.00538805	-0.0210467	0.471924	0.827637	0.849854	-0.0844595	-0.0164357	-0.0242984	-0.995995	0.617509	0.536942	10.4932	-0.0117744	0.0138112	-0.00159501	-0.449463	-0.152588	-0.953857	-0.632535	-0.748167	-0.14211	-0.141246	0.307141	9.63504	-1.65425	0.0195698	0.00396518	-0.000673576	0.435303	-0.946289	0.100586	
58	0.259573	0.0666027	-0.00544494	-0.963409	-1.32141	0.492192	10.9235	0.00532847	-0.00580563	0.00372247	-0.18042	0.194336	-1.1416	0.737635	0.152462	0.183858	-0.631543	-4.56013	-0.210772	8.92611	-0.0172308	0.0189101	-0.0182354	0.385742	0.148438	-1.02759	0.497954	0.866649	0.00830957	0.029885	0.517095	7.95565	-4.70351	-0.000299093	0.0061999	-0.00680681	0.383789	-0.837402	0.744629	0.185481	0.582504	0.773681	0.166448	-0.953933	4.58778	-8.55931	0.00400393	0.00419032	-0.000509298	-0.166016	0.0373535	1.08765	-0.423428	0.837226	0.317708	-0.137197	0.148568	-7.72206	-5.85839	0.0016239	0.00459181	-0.0173948	0.519775	1.2334	0.564697	0.345877	0.852451	-0.38251	-0.0859236	0.0119499	7.18064	-3.18888	0.00708787	0.0126262	-0.0169852	0.348389	-0.93457	0.330322	0.900328	-0.075831	-0.112013	-0.413656	2.89296	-0.140117	10.1104	-0.00367096	-0.0362473	-0.0171381	-0.604736	0.0925293	-0.886475	0.137379	-0.15994	0.430916	-0.877415	1.71137	-8.29934	6.1285	-0.000838488	0.0177569	-0.0156456	-0.615479	0.888672	-0.40332	0.379304	-0.92481	0.0229439	-0.0181015	0.182811	-6.55419	-6.59234	-0.00589205	0.00629199	-0.0197894	0.460449	0.825195	0.852051	-0.0845763	-0.0163452	-0.0243615	-0.995985	0.623157	0.501271	10.4557	0.0114616	0.0182932	0.00281427	-0.449707	-0.148193	-0.949463	-0.632266	-0.748383	-0.142097	-0.141321	0.318656	9.64252	-1.67698	0.0144716	0.00610579	0.00179218	0.439697	-0.946289	0.103027	
59	0.259618	0.0666962	-0.00548299	-0.96339	-1.3931	0.471806	10.9598	-0.000141936	0.000728918	0.00217921	-0.177979	0.190186	-1.14575	0.737569	0.152494	0.183642	-0.631674	-4.56114	-0.184242	8.93657	0.000638584	0.0103109	-0.0183635	0.385986	0.14624	-1.03687	0.49788	0.866688	0.00832795	0.0299511	0.513795	7.96789	-4.70774	0.00613274	0.00794933	-0.00245453	0.385986	-0.841797	0.749268	0.185478	0.582498	0.773685	0.166447	-0.948261	4.59405	-8.56707	0.000768189	0.00343051	0.000294335	-0.165771	0.0332031	1.07666	-0.423464	0.837212	0.317793	-0.136975	0.177649	-7.73338	-5.85993	-0.00210407	0.0110924	-0.0150887	0.517822	1.229	0.569336	0.345845	0.852517	-0.382427	-0.0857707	0.00413613	7.17306	-3.21013	0.00917257	0.0128631	-0.0143466	0.350342	-0.93042	0.327881	0.900186	-0.0760556	-0.112897	-0.413686	2.90457	-0.135405	10.1184	0.0160138	-0.019006	-0.0202869	-0.608887	0.090332	-0.886475	0.137379	-0.159932	0.430999	-0.877376	1.67359	-8.38199	6.09134	0.0018106	0.0171299	-0.0158385	-0.615479	0.888672	-0.398682	0.379608	-0.924684	0.0228811	-0.0182749	0.167986	-6.55618	-6.56383	0.0114066	0.00871014	-0.0170735	0.467285	0.829834	0.854248	-0.0845418	-0.0163623	-0.0245072	-0.995984	0.575986	0.576635	10.4564	0.0143068	0.0130947	0.00826441	-0.451904	-0.150635	-0.947266	-0.632459	-0.748146	-0.142288	-0.141515	0.319766	9.62094	-1.67273	-0.00693217	0.00968346	-0.00406758	0.435303	-0.946289	0.103027	
60	0.259673	0.066659	-0.00546291	-0.963378	-1.38858	0.490519	10.9462	-0.000736363	-0.00491763	-0.0016792	-0.173584	0.190186	-1.14355	0.737567	0.152415	0.183617	-0.631704	-4.54525	-0.211106	8.99703	-0.0131243	0.00979344	-0.0178183	0.38623	0.139648	-1.02979	0.497986	0.866627	0.00838973	0.0299577	0.525038	7.95671	-4.70666	0.00490263	0.00571954	-0.00353328	0.381836	-0.8396	0.749268	0.185463	0.582495	0.773677	0.166512	-0.958458	4.59262	-8.56028	-0.000255395	0.00524317	0.00140828	-0.170166	0.032959	1.07886	-0.423436	0.837218	0.317892	-0.136795	0.194101	-7.73836	-5.86663	0.0044752	0.00749331	-0.0158772	0.521973	1.2334	0.567139	0.345945	0.852523	-0.38233	-0.0857346	0.0102365	7.17001	-3.21329	-0.000443454	0.0114353	-0.0158007	0.352783	-0.936768	0.325928	0.900171	-0.0763213	-0.113316	-0.413553	2.91959	-0.175149	10.1211	0.0169727	0.0066912	-0.0118388	-0.606934	0.0947266	-0.888672	0.137561	-0.159954	0.430767	-0.877458	1.65694	-8.33153	6.10132	0.0172136	0.0114986	-0.0137656	-0.608887	0.886475	-0.39624	0.379495	-0.924732	0.0228571	-0.0182131	0.176994	-6.54204	-6.56887	0.000430942	0.00336536	-0.0201868	0.472168	0.823242	0.849854	-0.0844922	-0.0162188	-0.0245935	-0.995989	0.613199	0.584165	10.4815	-0.00123045	0.0120333	0.00257038	-0.445312	-0.148193	-0.947266	-0.632413	-0.748194	-0.142236	-0.141522	0.307121	9.62226	-1.64763	0.00809102	0.00589063	-0.00403624	0.4375	-0.946289	0.100586	
61	0.259766	0.0666105	-0.00538312	-0.963357	-1.41401	0.451203	10.9227	-0.00376629	-0.00415838	0.0027974	-0.180176	0.187988	-1.14575	0.73757	0.152518	0.183834	-0.631612	-4.58117	-0.216934	8.94235	-0.0112035	0.020787	-0.0192249	0.392334	0.148438	-1.03223	0.497815	0.866725	0.00842008	0.0299397	0.521816	7.95969	-4.71835	0.00964525	-0.0011831	-0.0066244	0.379639	-0.845947	0.749268	0.185482	0.582482	0.773681	0.166519	-0.955432	4.58566	-8.56755	0.00296238	0.00640211	0.000443403	-0.170166	0.0351562	1.07666	-0.42357	0.8371	0.318031	-0.136779	0.176547	-7.72755	-5.85899	0.00525032	0.00430569	-0.0151649	0.517578	1.2356	0.557861	0.346084	0.852531	-0.382191	-0.085715	0.00321391	7.18742	-3.19732	0.00104566	0.0133977	-0.0163143	0.350586	-0.93457	0.325928	0.900153	-0.0761624	-0.113576	-0.413552	2.88803	-0.109498	10.0838	0.0182493	0.0013608	-0.0192244	-0.606689	0.090332	-0.886475	0.137688	-0.160076	0.430556	-0.877519	1.67566	-8.294	6.1174	0.00906263	0.0117733	-0.018658	-0.615479	0.884277	-0.400879	0.379495	-0.924732	0.0228571	-0.0182131	0.176994	-6.54204	-6.56887	0.000430942	0.00336536	-0.0201868	0.472168	0.823242	0.849854	-0.0845323	-0.0162955	-0.0245074	-0.995986	0.592665	0.52942	10.4555	0.00227281	0.00826264	0.00460509	-0.447266	-0.156982	-0.958496	-0.632413	-0.748194	-0.142236	-0.141522	0.307121	9.62226	-1.64763	0.00809102	0.00589063	-0.00403624	0.4375	-0.946289	0.100586	
62	0.259937	0.0664461	-0.00538955	-0.963322	-1.34916	0.433542	10.9545	-0.00088276	-0.00908827	0.00584888	-0.184814	0.194336	-1.1438	0.737523	0.152557	0.183847	-0.631654	-4.54425	-0.224603	8.94381	-0.00809107	0.0177655	-0.0173449	0.390137	0.150635	-1.03003	0.497973	0.866635	0.00842234	0.0299254	0.521706	7.96535	-4.70881	-0.00554909	0.00132076	-0.00299064	0.381836	-0.84375	0.744629	0.185512	0.582475	0.773688	0.166477	-0.944574	4.59912	-8.56865	0.00168459	0.00384158	5.12917e-05	-0.170166	0.032959	1.08105	-0.423334	0.837216	0.318028	-0.136807	0.181042	-7.72776	-5.88097	-0.0112151	0.00585105	-0.0131728	0.521973	1.2334	0.569336	0.346201	0.852523	-0.382113	-0.0856664	0.0170511	7.17346	-3.1977	0.0014261	0.0138969	-0.0132523	0.346191	-0.932617	0.330078	0.900166	-0.0763348	-0.113679	-0.413462	2.89795	-0.148896	10.0651	0.0112511	0.0123623	-0.0142902	-0.604736	0.0925293	-0.882324	0.137794	-0.160159	0.4305	-0.877515	1.70466	-8.36662	6.13381	0.00749773	0.0132312	-0.0137822	-0.608887	0.884277	-0.398682	0.379682	-0.924659	0.0225726	-0.0183528	0.180527	-6.55294	-6.57882	0.00787862	0.00303681	-0.0150879	0.462891	0.825195	0.854248	-0.0845675	-0.0163882	-0.0246073	-0.995979	0.602644	0.581609	10.4908	0.00643183	0.0096343	0.00292162	-0.445068	-0.152588	-0.953857	-0.63246	-0.748121	-0.142463	-0.14147	0.325559	9.62113	-1.67105	-8.57311e-05	0.0054903	-0.0078897	0.435059	-0.944092	0.09375	
63	0.260031	0.0665027	-0.0054423	-0.963292	-1.37928	0.454627	10.9689	0.0028606	-0.000561997	-0.000435556	-0.182617	0.192139	-1.14575	0.737486	0.152577	0.183697	-0.631736	-4.5641	-0.19031	8.95584	-0.00445315	0.0105986	-0.0161537	0.379395	0.148438	-1.02759	0.497905	0.866675	0.00843629	0.029895	0.528517	7.96127	-4.72078	0.00907262	0.00355493	-0.00499759	0.383789	-0.8396	0.753662	0.185523	0.582481	0.773685	0.166459	-0.952932	4.59785	-8.55489	0.00259437	0.00432437	0.0011141	-0.166016	0.0375977	1.07886	-0.423258	0.837244	0.318033	-0.136862	0.175666	-7.73322	-5.86363	-0.00506613	0.00500044	-0.0127036	0.51123	1.2334	0.569336	0.346319	0.852528	-0.382008	-0.0856056	0.00929899	7.18161	-3.1789	0.000888013	0.0109271	-0.0153317	0.350586	-0.932617	0.325928	0.900157	-0.0763785	-0.113758	-0.413453	2.90778	-0.144666	10.0594	0.0156859	0.00677738	-0.0169831	-0.608887	0.090332	-0.888672	0.137885	-0.160159	0.430391	-0.877554	1.69466	-8.36577	6.12806	0.0135472	0.0137712	-0.0134998	-0.613037	0.880127	-0.405518	0.379795	-0.924614	0.022415	-0.0185105	0.181083	-6.55949	-6.5794	0.0086895	0.00672962	-0.0178058	0.467529	0.825439	0.845215	-0.0845937	-0.0164436	-0.0245924	-0.995976	0.61874	0.58818	10.5051	0.00130466	0.00820775	0.00357091	-0.447266	-0.154785	-0.95166	-0.632479	-0.748089	-0.142563	-0.141452	0.307195	9.6312	-1.65666	0.00125544	0.00660211	-0.00705044	0.439697	-0.946289	0.100586	
64	0.260032	0.066521	-0.00547906	-0.96329	-1.39077	0.473983	10.9095	0.00344723	-0.00213848	-0.0020144	-0.18042	0.192139	-1.14355	0.737467	0.152538	0.183643	-0.631783	-4.56929	-0.19247	8.93186	-0.00813892	0.0147653	-0.0165105	0.385986	0.144043	-1.03223	0.497886	0.866685	0.00846942	0.0299331	0.521129	7.96176	-4.70675	0.00448689	0.00521688	-0.00344142	0.381836	-0.8396	0.749268	0.185538	0.582466	0.773695	0.166451	-0.951002	4.60402	-8.5486	0.00202071	0.00654836	0.000907123	-0.170166	0.032959	1.08325	-0.423287	0.83722	0.318042	-0.136896	0.156079	-7.73765	-5.89633	0.00312314	0.0073248	-0.0159702	0.515381	1.2356	0.5625	0.346379	0.852531	-0.381948	-0.0856094	0.00440496	7.18437	-3.2005	0.000878565	0.0116636	-0.0161808	0.346191	-0.932617	0.325928	0.900103	-0.0765628	-0.114139	-0.41343	2.91618	-0.127248	10.0886	0.00939896	-0.00207026	-0.0159334	-0.606934	0.0925293	-0.892822	0.138	-0.160155	0.430251	-0.877605	1.67885	-8.30618	6.1584	0.00598463	0.0161075	-0.0129388	-0.613037	0.88208	-0.39624	0.379822	-0.924604	0.0224194	-0.0184558	0.191588	-6.55343	-6.56837	0.00547036	0.00448577	-0.0178806	0.47168	0.832275	0.852051	-0.0846507	-0.0164817	-0.0244354	-0.995975	0.608075	0.550511	10.4664	-0.00332867	0.0112204	0.00399938	-0.449463	-0.152588	-0.949463	-0.632469	-0.748108	-0.142536	-0.141425	0.318817	9.63918	-1.68401	0.00310394	0.00672256	-0.00516908	0.439941	-0.952881	0.10083	
65	0.260166	0.0665209	-0.00550484	-0.963254	-1.37125	0.495262	10.9414	-0.00139849	-0.00172568	0.00370644	-0.182373	0.189941	-1.14575	0.737484	0.152492	0.183638	-0.631776	-4.58464	-0.208189	8.97169	-0.0103143	0.0131931	-0.0183985	0.381592	0.144043	-1.02979	0.497998	0.86662	0.00850065	0.0299269	0.522895	7.95678	-4.69861	-0.00158249	0.00233007	-0.00446286	0.377441	-0.837158	0.746826	0.185567	0.582465	0.77369	0.166444	-0.956699	4.58191	-8.5559	0.00113253	0.00558242	0.000935045	-0.165527	0.0310059	1.08105	-0.423418	0.837143	0.318116	-0.136789	0.1644	-7.72422	-5.87595	-0.00273887	0.00742419	-0.015118	0.51123	1.2312	0.566895	0.346499	0.852531	-0.38185	-0.085555	0.0126616	7.18482	-3.19379	0.00171413	0.0132692	-0.0141052	0.346436	-0.936768	0.328125	0.900074	-0.0767052	-0.114504	-0.413367	2.94026	-0.13927	10.0867	0.0221949	0.00402093	-0.0163477	-0.606689	0.090332	-0.884277	0.138016	-0.160186	0.430277	-0.877584	1.67275	-8.34223	6.1211	0.00095872	0.0153558	-0.018065	-0.604492	0.884277	-0.39624	0.379884	-0.92458	0.0224689	-0.0183283	0.195314	-6.56899	-6.56834	0.0113235	0.00314753	-0.0147389	0.469727	0.827637	0.845215	-0.0846752	-0.0165222	-0.0244911	-0.995971	0.599442	0.556524	10.5014	0.00527447	0.0118933	0.00552869	-0.451904	-0.150635	-0.956299	-0.632553	-0.74804	-0.142539	-0.141404	0.318013	9.6251	-1.65042	-0.00205817	0.00803717	-0.00719161	0.435059	-0.944092	0.100586	
66	0.260309	0.0665068	-0.00544663	-0.963217	-1.38451	0.463664	10.9511	-0.00242209	-0.0034925	0.00281849	-0.173828	0.192383	-1.14136	0.737425	0.15269	0.183484	-0.631841	-4.56102	-0.161163	8.96385	0.00178346	0.0186268	-0.0173413	0.381592	0.14624	-1.03687	0.498053	0.866589	0.00847411	0.0299097	0.528763	7.96371	-4.70845	0.000189083	0.000902036	-0.00298431	0.381592	-0.837402	0.751465	0.185576	0.582455	0.7737	0.166419	-0.945654	4.58857	-8.57773	0.00207573	0.00543733	0.000474332	-0.167969	0.032959	1.07886	-0.423363	0.83715	0.318153	-0.136833	0.148233	-7.70467	-5.87135	0.000536618	0.00887572	-0.0174571	0.519775	1.2334	0.569336	0.346619	0.852528	-0.381762	-0.0854986	0.0125765	7.18166	-3.17309	0.00163049	0.0124034	-0.014035	0.346191	-0.932617	0.332275	0.900027	-0.0767498	-0.114992	-0.413326	2.95322	-0.11967	10.1245	0.0230962	-0.0108416	-0.0172656	-0.611084	0.090332	-0.884277	0.138076	-0.16021	0.430245	-0.877586	1.69229	-8.36747	6.14027	0.00591296	0.0152977	-0.0152725	-0.61792	0.890869	-0.398682	0.379917	-0.924566	0.0225249	-0.0182522	0.171325	-6.56253	-6.57584	0.00580864	0.00574693	-0.0170689	0.467285	0.827637	0.852051	-0.0847392	-0.0165573	-0.0244822	-0.995965	0.612887	0.559047	10.503	0.000238435	0.0120942	0.00413267	-0.454102	-0.152832	-0.963135	-0.63255	-0.748047	-0.142522	-0.141399	0.29769	9.64076	-1.64901	0.00376884	0.00571779	-0.0048642	0.437744	-0.950684	0.103027	
67	0.260331	0.0664639	-0.00538179	-0.963214	-1.3593	0.456826	10.9695	-0.00287142	-0.000952749	-0.00134922	-0.18042	0.194336	-1.13281	0.737246	0.152915	0.183417	-0.632016	-4.58735	-0.213261	8.93912	0.00559672	0.0119928	-0.0150565	0.390381	0.14624	-1.03003	0.497914	0.866671	0.00844168	0.0298742	0.51126	7.95388	-4.69897	0.01331	0.00280812	-0.00197715	0.385986	-0.8396	0.744629	0.185583	0.582449	0.773702	0.166427	-0.95306	4.59385	-8.57123	0.000655233	0.00572849	0.00247418	-0.167969	0.0351562	1.08105	-0.4235	0.837085	0.318134	-0.136847	0.180308	-7.74666	-5.89415	0.00606904	0.00824934	-0.0163812	0.517578	1.2334	0.566895	0.346683	0.852559	-0.381652	-0.0854206	0.0108828	7.19009	-3.17782	0.00446356	0.0121335	-0.0163468	0.348633	-0.936768	0.328125	0.900079	-0.0760918	-0.115317	-0.413242	2.93088	-0.14552	10.046	0.0614038	0.0232299	-0.0185663	-0.613037	0.0881348	-0.884277	0.138196	-0.160221	0.430118	-0.877627	1.68897	-8.29397	6.12882	0.0115421	0.0162195	-0.0141547	-0.613037	0.879883	-0.39624	0.379795	-0.924617	0.0225349	-0.0182014	0.182246	-6.54681	-6.55084	8.5123e-05	0.00535587	-0.0172694	0.471924	0.827637	0.847656	-0.0848143	-0.0166066	-0.0243942	-0.99596	0.619228	0.553908	10.4692	0.000263544	0.0090735	0.00399574	-0.44751	-0.148193	-0.954102	-0.632574	-0.748031	-0.142506	-0.141396	0.313416	9.62501	-1.65185	0.00177463	0.00649625	-0.00539696	0.439697	-0.946289	0.0983887	
68	0.260359	0.0664303	-0.00527225	-0.963209	-1.38857	0.500273	10.9579	-0.00518366	-0.00401264	-0.00241471	-0.184814	0.192139	-1.15015	0.737216	0.15268	0.183646	-0.63204	-4.55297	-0.224826	8.92637	-0.0351647	0.0167081	-0.0232134	0.381592	0.148438	-1.03711	0.497838	0.866721	0.00829659	0.0297126	0.511142	7.96895	-4.72842	0.00206206	-0.00740393	0.000382906	0.381836	-0.8396	0.751465	0.185568	0.582461	0.773703	0.166395	-0.959917	4.59198	-8.57183	0.00398305	0.00466354	0.000644116	-0.165527	0.0307617	1.08545	-0.423544	0.837051	0.318115	-0.136962	0.187484	-7.72467	-5.85401	-0.000637738	0.00474974	-0.0123591	0.517822	1.2312	0.567139	0.346858	0.852529	-0.381555	-0.0854386	0.0136383	7.19042	-3.20126	-0.00592297	0.012669	-0.0145522	0.348389	-0.93457	0.32373	0.900079	-0.0761852	-0.115625	-0.413139	2.9355	-0.129674	10.1205	0.0179274	0.00322136	-0.00762253	-0.615234	0.0881348	-0.888428	0.138223	-0.160258	0.430101	-0.877624	1.6743	-8.31488	6.13211	0.00465009	0.0139143	-0.0167048	-0.613525	0.890869	-0.398682	0.379765	-0.92463	0.0225604	-0.0181437	0.180762	-6.56432	-6.60541	0.00368839	0.00436731	-0.0164554	0.471924	0.827637	0.852051	-0.0848387	-0.0166132	-0.0244569	-0.995956	0.573773	0.56646	10.4623	0.00533759	0.0121144	0.0043738	-0.45166	-0.156982	-0.958496	-0.632625	-0.747989	-0.142502	-0.14139	0.315099	9.63434	-1.6509	-0.00172475	0.00753381	-0.00704368	0.435303	-0.948486	0.100586	
69	0.260664	0.0664333	-0.00511478	-0.963128	-1.35929	0.425931	10.9335	-0.00656391	-0.000210074	0.0102978	-0.18042	0.194336	-1.1416	0.737235	0.152291	0.18345	-0.632169	-4.55146	-0.190353	8.96597	0.00907142	0.00205359	-0.0155973	0.385986	0.144043	-1.03442	0.498376	0.866405	0.00841606	0.0298863	0.509726	7.95515	-4.69699	-0.0286437	0.00779391	-0.00644921	0.381592	-0.8396	0.742432	0.185552	0.582471	0.773705	0.166366	-0.9489	4.59874	-8.55203	0.00485529	0.00594467	0.0013808	-0.167969	0.0332031	1.07666	-0.423392	0.837096	0.318154	-0.137066	0.168685	-7.7555	-5.87617	-0.00984612	-0.00112361	-0.0117701	0.515381	1.23779	0.569336	0.347026	0.85251	-0.381446	-0.0854312	0.00529306	7.19942	-3.18054	0.00614533	0.0136163	-0.0144811	0.350586	-0.932617	0.328125	0.900183	-0.0759232	-0.115131	-0.4131	3.00608	-0.154308	10.1245	0.0195092	0.0591688	-0.00982361	-0.609131	0.0947266	-0.882324	0.138281	-0.16031	0.430111	-0.877601	1.69927	-8.36922	6.14887	0.00680171	0.0145321	-0.0160894	-0.609131	0.888672	-0.394043	0.379741	-0.92464	0.022618	-0.0180426	0.181606	-6.57061	-6.57201	0.00352958	0.0045175	-0.0177137	0.469482	0.832275	0.847412	-0.0849162	-0.0166784	-0.0244202	-0.995949	0.654452	0.572578	10.4902	-0.00124724	0.0124715	0.00330871	-0.449463	-0.152588	-0.953857	-0.632656	-0.74797	-0.142477	-0.14138	0.309538	9.60395	-1.64054	0.000103556	0.00588739	-0.0063939	0.435547	-0.950684	0.0983887	
70	0.260628	0.0664747	-0.00511909	-0.963134	-1.37585	0.475694	10.9384	0.000933175	-0.00214767	-0.00431139	-0.182617	0.192139	-1.1438	0.737202	0.152311	0.183459	-0.6322	-4.52701	-0.163606	8.9223	-0.00876588	0.0203871	-0.0144081	0.383789	0.14624	-1.03223	0.49823	0.866475	0.00840031	0.0302782	0.52014	7.97085	-4.6997	0.0231945	0.0223109	0.00326233	0.379639	-0.841553	0.744629	0.185659	0.58246	0.773671	0.166443	-0.963014	4.57646	-8.55885	-0.00443621	0.00471702	0.00174283	-0.167969	0.0351562	1.08105	-0.423798	0.836901	0.318104	-0.137122	0.208578	-7.74201	-5.86831	0.00775066	0.00767066	-0.0155932	0.513184	1.2356	0.566895	0.34693	0.852596	-0.381386	-0.0852258	0.0198235	7.1841	-3.18411	0.0131407	0.0128513	-0.0146115	0.352539	-0.928223	0.325684	0.900758	-0.0736161	-0.112127	-0.41309	2.89267	-0.160585	10.153	0.00686227	0.0822962	-0.0100784	-0.604492	0.0905762	-0.89502	0.138414	-0.160305	0.430007	-0.877632	1.72467	-8.3402	6.14206	0.007513	0.0171637	-0.0146265	-0.613281	0.886719	-0.405762	0.37969	-0.924662	0.0226288	-0.0179975	0.164277	-6.5547	-6.59123	0.00658907	0.00648955	-0.020265	0.471924	0.830078	0.847412	-0.0849158	-0.0167179	-0.0242689	-0.995952	0.592255	0.541185	10.4742	-0.00195801	0.00965309	0.00760363	-0.451904	-0.150635	-0.960938	-0.632558	-0.748034	-0.142505	-0.14145	0.302571	9.67223	-1.70265	0.000656721	0.00931627	-0.00226691	0.437744	-0.950684	0.105225	
71	0.260697	0.0664804	-0.00512855	-0.963115	-1.40504	0.448936	10.9359	0.000657472	-0.00238401	0.0036149	-0.18042	0.194336	-1.1438	0.737233	0.152493	0.183387	-0.632141	-4.5882	-0.229757	8.93774	-0.0028097	0.0185889	-0.012959	0.385986	0.144043	-1.03687	0.498094	0.866551	0.00847257	0.0303384	0.535658	7.97419	-4.72853	0.0158914	0.0105537	-0.00664262	0.379639	-0.84375	0.744629	0.185697	0.582437	0.773673	0.166475	-0.953638	4.59863	-8.55193	-0.00212527	0.00539244	-0.000281058	-0.167725	0.0307617	1.07886	-0.423851	0.836869	0.318095	-0.137172	0.164051	-7.72876	-5.88431	0.0055822	0.00712643	-0.0151122	0.515381	1.2356	0.5625	0.346919	0.852628	-0.381335	-0.0851849	0.0246155	7.1838	-3.20896	0.00728964	0.0128612	-0.0155376	0.348389	-0.93042	0.330078	0.900706	-0.0739266	-0.112557	-0.41303	2.72078	-0.034607	10.0568	0.00854838	-0.0281565	-0.0131852	-0.604492	0.0883789	-0.888428	0.138417	-0.160274	0.430025	-0.877628	1.68219	-8.32657	6.13981	0.00202908	0.0192899	-0.0158401	-0.608887	0.886475	-0.398682	0.379826	-0.924605	0.0226556	-0.0180202	0.189887	-6.55342	-6.59385	0.0179511	0.0102179	-0.0181026	0.464844	0.829834	0.849609	-0.0849058	-0.0167569	-0.0243405	-0.995951	0.570234	0.540905	10.4729	0.00830866	0.0106328	0.00648141	-0.451904	-0.148438	-0.954102	-0.632881	-0.747733	-0.142487	-0.141612	0.317575	9.61072	-1.63353	-0.0158047	0.0120436	-0.0067981	0.432861	-0.944092	0.103027	
72	0.260874	0.0663714	-0.00517107	-0.963075	-1.40186	0.449395	10.9363	0.00172474	-0.0101593	0.00247155	-0.177979	0.187988	-1.14575	0.737195	0.152463	0.183352	-0.632203	-4.57387	-0.181563	8.9309	-0.00852579	0.0136346	-0.0194848	0.385986	0.144043	-1.02979	0.498341	0.866414	0.00840682	0.0302231	0.53219	7.96548	-4.69691	-0.0103061	-0.00557235	-0.00399749	0.379639	-0.839355	0.746826	0.185702	0.58246	0.773659	0.166451	-0.942093	4.60596	-8.55957	0.00492745	0.00451827	0.00018722	-0.165771	0.032959	1.08105	-0.423495	0.83701	0.318155	-0.137272	0.188434	-7.75256	-5.89329	-0.0200175	-0.000208924	-0.00997256	0.523926	1.23779	0.5625	0.347071	0.852614	-0.38125	-0.0850908	0.012978	7.17978	-3.1959	-0.00075499	0.0144916	-0.0136176	0.348389	-0.93042	0.330078	0.900653	-0.0745721	-0.112557	-0.41303	2.83491	-0.122333	10.1504	0.00235228	0.0196267	-0.0133606	-0.604736	0.0925293	-0.888672	0.138143	-0.160188	0.430221	-0.877591	1.65522	-8.39937	6.11075	0.00429802	0.0150992	-0.0134884	-0.613281	0.886475	-0.400879	0.379769	-0.92463	0.0225278	-0.0180709	0.17942	-6.55664	-6.56412	-0.00747248	0.003609	-0.0207665	0.472168	0.825439	0.847656	-0.0849683	-0.0167537	-0.024496	-0.995942	0.575917	0.638878	10.5074	0.00451414	0.0132119	0.000576839	-0.454102	-0.152832	-0.958496	-0.632875	-0.747741	-0.142442	-0.141641	0.292008	9.60824	-1.63113	0.0134186	0.00546634	-0.00212166	0.439941	-0.952881	0.0961914	
73	0.260934	0.0662548	-0.00527665	-0.963066	-1.34728	0.484986	10.9329	0.00205274	-0.00805464	-0.000178495	-0.178223	0.192139	-1.1416	0.737201	0.152484	0.183396	-0.632178	-4.53812	-0.196642	8.96188	-0.00985158	0.0202771	-0.0172832	0.381592	0.14624	-1.03467	0.498308	0.866439	0.00838983	0.0300336	0.521618	7.9588	-4.68719	0.00895255	-0.00291945	-0.00599638	0.383789	-0.841797	0.749268	0.185717	0.582449	0.773684	0.166358	-0.950168	4.60312	-8.56057	0.00499894	0.00309174	-0.00100948	-0.161133	0.0288086	1.08105	-0.423227	0.83715	0.318099	-0.137372	0.162435	-7.72432	-5.90415	-0.00488437	0.00362972	-0.0126805	0.52002	1.2312	0.569336	0.347329	0.85256	-0.381143	-0.0850557	0.0227976	7.19594	-3.20335	-0.00601058	0.0125178	-0.0153673	0.343994	-0.928223	0.327881	0.900558	-0.0751554	-0.113017	-0.413007	2.90042	-0.0921626	10.0623	0.00431929	-0.0190473	-0.0157081	-0.602539	0.0925293	-0.888672	0.138274	-0.16026	0.430213	-0.877561	1.68905	-8.29325	6.13298	0.0084289	0.0116279	-0.0152873	-0.608887	0.884277	-0.398682	0.379408	-0.92478	0.022498	-0.0180491	0.196315	-6.55091	-6.5896	-0.00408753	0.00728152	-0.021139	0.467529	0.822998	0.852051	-0.0851501	-0.0166773	-0.0242053	-0.995934	0.625581	0.515507	10.4746	-0.0102052	0.0140881	-0.00123373	-0.451904	-0.150635	-0.954102	-0.632547	-0.748056	-0.142296	-0.141594	0.308306	9.63601	-1.67712	0.0199265	0.00391444	0.00175404	0.4375	-0.944092	0.103027	
74	0.261021	0.0662527	-0.00528297	-0.963042	-1.35935	0.456981	10.9595	-0.0011073	-0.00166718	0.00113364	-0.180664	0.19873	-1.1438	0.737236	0.152466	0.183375	-0.632148	-4.57004	-0.228255	8.90613	-0.0196877	0.0112339	-0.014856	0.390381	0.14624	-1.03687	0.498227	0.866484	0.00844789	0.0300515	0.516931	7.97852	-4.68714	0.00576323	0.00602295	-0.00504717	0.381592	-0.8396	0.746826	0.185718	0.582459	0.77367	0.166387	-0.946762	4.59532	-8.55447	0.00110108	0.00621458	0.00246545	-0.170166	0.0351562	1.08325	-0.423344	0.837082	0.318101	-0.137421	0.183623	-7.72649	-5.84189	0.00457785	0.0133121	-0.0164744	0.517578	1.2356	0.569336	0.347401	0.852576	-0.381044	-0.0850394	0.0162311	7.17219	-3.18371	0.00712805	0.0111364	-0.015394	0.350586	-0.936768	0.31958	0.900357	-0.0757872	-0.113687	-0.413146	2.90856	-0.132953	10.1034	-0.00478698	-0.0281653	-0.0159909	-0.602539	0.0925293	-0.888672	0.138333	-0.160282	0.430296	-0.877507	1.69046	-8.29986	6.11538	-0.00302011	0.0187577	-0.0138039	-0.611328	0.888672	-0.39624	0.379442	-0.924764	0.0226004	-0.0180405	0.186177	-6.55765	-6.57433	0.0122687	0.00861792	-0.0146196	0.469482	0.832275	0.854248	-0.0852143	-0.0166118	-0.02429	-0.995928	0.608124	0.519127	10.4656	0.0118974	0.0158976	0.00590738	-0.449707	-0.150391	-0.963135	-0.632534	-0.748067	-0.142204	-0.141684	0.330008	9.6289	-1.68229	-0.00415374	0.0096499	-0.00252431	0.433105	-0.946289	0.100586	
75	0.261148	0.0662959	-0.00516923	-0.963006	-1.38308	0.467246	10.9295	-0.00472875	-0.000844906	0.00540842	-0.178223	0.194336	-1.14575	0.737189	0.152522	0.183137	-0.632258	-4.55267	-0.22426	8.97914	-0.00414417	0.0122976	-0.0163358	0.385986	0.144043	-1.02979	0.49817	0.866515	0.0085071	0.030112	0.514491	7.96595	-4.70862	-0.000431251	0.00729527	-0.00656166	0.379639	-0.841553	0.74707	0.185722	0.582476	0.773651	0.166413	-0.946626	4.61589	-8.54775	0.000157986	0.00636063	0.00292619	-0.167969	0.032959	1.08105	-0.423283	0.837119	0.318091	-0.137407	0.171402	-7.73667	-5.86357	-0.00588513	0.00979852	-0.0140512	0.519775	1.2356	0.569336	0.347383	0.852633	-0.380964	-0.0849017	0.0142929	7.18561	-3.20292	0.00746684	0.0138483	-0.014874	0.352783	-0.932617	0.330078	0.900247	-0.0760113	-0.114492	-0.413121	2.93862	-0.122059	10.1133	0.01081	-0.0172197	-0.0174906	-0.608887	0.0925293	-0.880127	0.138342	-0.16029	0.430388	-0.877459	1.65999	-8.40347	6.09573	0.0052324	0.0174283	-0.0159766	-0.611084	0.884277	-0.39624	0.379531	-0.924726	0.0226542	-0.0180156	0.171769	-6.54979	-6.56501	0.0140257	0.00716737	-0.0143591	0.474121	0.830078	0.854248	-0.0851918	-0.0166159	-0.0245208	-0.995924	0.594218	0.608604	10.4946	0.00934167	0.0108971	0.00637644	-0.442871	-0.154785	-0.949219	-0.632744	-0.747879	-0.142148	-0.141794	0.307492	9.6126	-1.64431	-0.00652007	0.00875047	-0.0066925	0.435059	-0.944092	0.103027	
76	0.261249	0.066261	-0.00505945	-0.962981	-1.37674	0.443566	10.9496	-0.00291212	-0.00299596	-0.00127095	-0.184814	0.194336	-1.14795	0.737192	0.152446	0.183186	-0.632258	-4.54915	-0.20599	8.96952	-0.0135751	0.0162136	-0.0159066	0.381592	0.14624	-1.03223	0.498244	0.86647	0.00853225	0.0301631	0.525724	7.96307	-4.70173	0.00652387	0.00575699	-0.0011291	0.379639	-0.84375	0.74707	0.1857	0.582461	0.773654	0.166477	-0.951421	4.60134	-8.56176	0.00167149	0.00415871	0.000821701	-0.167969	0.0351562	1.08325	-0.42329	0.837109	0.318184	-0.137231	0.17219	-7.73719	-5.87688	0.003594	0.00524244	-0.0146027	0.517578	1.2356	0.569336	0.347475	0.852725	-0.380697	-0.0847976	0.0172028	7.17822	-3.19208	0.00120076	0.0131753	-0.0148558	0.350342	-0.928223	0.327881	0.900258	-0.0761421	-0.114695	-0.413016	2.95106	-0.183298	10.1058	0.0251256	0.0153468	-0.0132237	-0.608887	0.090332	-0.884277	0.138517	-0.160329	0.430106	-0.877563	1.67712	-8.31637	6.11382	0.0173004	0.00986714	-0.0150868	-0.608887	0.886475	-0.394043	0.379464	-0.924756	0.0224559	-0.0181109	0.189133	-6.54435	-6.57226	-0.00267556	0.0049771	-0.0203443	0.474121	0.832275	0.847412	-0.0852663	-0.0166244	-0.0244637	-0.995919	0.579744	0.591817	10.4858	-0.00320651	0.0109586	0.00211192	-0.449707	-0.148193	-0.951904	-0.632747	-0.747882	-0.142112	-0.141803	0.294108	9.6161	-1.63876	0.00212893	0.00552278	-0.00362435	0.4375	-0.944092	0.103027	
77	0.26134	0.0662006	-0.00502928	-0.962961	-1.38962	0.44599	10.938	-0.00222335	-0.00654058	0.00404725	-0.177979	0.190186	-1.14355	0.73717	0.152517	0.183239	-0.632252	-4.58546	-0.210691	8.96232	-0.00839719	0.0228571	-0.0153622	0.381592	0.148438	-1.03003	0.498114	0.866546	0.00853575	0.030138	0.529781	7.9649	-4.72851	0.00660629	-0.00018389	-0.00579307	0.379639	-0.845947	0.749268	0.1857	0.582461	0.773654	0.166477	-0.951421	4.60134	-8.56176	0.00167149	0.00415871	0.000821701	-0.167969	0.0351562	1.08325	-0.42329	0.837109	0.318184	-0.137231	0.17219	-7.73719	-5.87688	0.003594	0.00524244	-0.0146027	0.517578	1.2356	0.569336	0.347613	0.852718	-0.380589	-0.0847866	0.0213767	7.18908	-3.18758	0.000136759	0.0118759	-0.0153088	0.348389	-0.93457	0.328125	0.900235	-0.0759416	-0.114947	-0.413034	2.92722	-0.103337	10.0855	0.0197069	0.00276235	-0.0188599	-0.611084	0.090332	-0.884277	0.138593	-0.160373	0.429983	-0.877603	1.67332	-8.28456	6.11938	0.0144688	0.0113697	-0.0164939	-0.617432	0.884277	-0.398682	0.379404	-0.924782	0.02246	-0.0180461	0.192942	-6.54409	-6.57241	0.000576882	0.00359471	-0.0176151	0.469482	0.830078	0.847412	-0.0852951	-0.0167078	-0.0244087	-0.995917	0.588379	0.534557	10.4706	0.0038231	0.00922387	0.00459454	-0.449463	-0.156982	-0.953857	-0.632687	-0.747915	-0.142224	-0.141782	0.317304	9.62573	-1.6615	0.00475629	0.00580772	-0.00623019	0.4375	-0.948486	0.0983887	
78	0.26134	0.0662006	-0.00502928	-0.962961	-1.38962	0.44599	10.938	-0.00222335	-0.00654058	0.00404725	-0.177979	0.190186	-1.14355	0.737064	0.152583	0.183274	-0.63235	-4.55579	-0.19475	8.93722	-0.00571056	0.0164011	-0.0177792	0.383789	0.144043	-1.02979	0.49822	0.866485	0.00850799	0.0301396	0.533923	7.96267	-4.70736	-0.00644378	0.00238279	-0.00306409	0.383789	-0.837402	0.751465	0.185655	0.582464	0.773665	0.166463	-0.947325	4.59317	-8.55593	0.0035414	0.00418197	0.000665592	-0.167969	0.0351562	1.08325	-0.423282	0.837044	0.318375	-0.137213	0.166461	-7.72522	-5.86906	-0.00853081	0.00552581	-0.0155499	0.517822	1.2312	0.571533	0.347683	0.852716	-0.380539	-0.084744	0.0269324	7.18365	-3.19826	0.00179899	0.0140993	-0.0142827	0.346436	-0.93457	0.332275	0.900234	-0.0760195	-0.11499	-0.41301	2.93601	-0.119086	10.0912	0.0123587	0.0084018	-0.014144	-0.606689	0.0881348	-0.879883	0.138668	-0.160489	0.429904	-0.877609	1.68614	-8.36929	6.13898	0.00602521	0.0127558	-0.0174681	-0.608887	0.884277	-0.391602	0.379456	-0.924762	0.0225474	-0.0178722	0.169977	-6.55807	-6.58661	0.00911642	0.00229504	-0.0134009	0.469727	0.827637	0.852051	-0.085301	-0.0167684	-0.0244733	-0.995913	0.594853	0.575463	10.4574	0.00734826	0.0087035	0.0056177	-0.44751	-0.145996	-0.951904	-0.632769	-0.747825	-0.142349	-0.141768	0.319913	9.61346	-1.65898	-0.00222633	0.00696134	-0.00822001	0.437256	-0.939697	0.0959473	
79	0.261458	0.0660886	-0.00511749	-0.962936	-1.362	0.441157	10.9565	0.00326636	-0.00345724	0.000236139	-0.173584	0.192383	-1.14355	0.73706	0.15259	0.183168	-0.632382	-4.55857	-0.198113	8.95315	-0.00539256	0.0128983	-0.0169614	0.38623	0.141846	-1.02979	0.498254	0.866465	0.00853891	0.0301375	0.508855	7.97025	-4.71832	0.00573928	0.00331292	-0.00364447	0.384033	-0.845947	0.749268	0.185617	0.582462	0.773676	0.166463	-0.951507	4.60233	-8.5529	0.00190317	0.00424352	0.000435379	-0.169922	0.0285645	1.08325	-0.423209	0.837059	0.318495	-0.137066	0.166655	-7.72505	-5.88145	-0.00537577	0.00767729	-0.013358	0.515381	1.23779	0.566895	0.347789	0.85273	-0.380436	-0.0846373	0.0174243	7.18272	-3.17621	0.00426569	0.0135953	-0.0156788	0.348389	-0.93042	0.330078	0.900222	-0.0760564	-0.115091	-0.413002	2.95467	-0.137785	10.0799	0.0215812	0.00598658	-0.0196211	-0.608643	0.0861816	-0.888428	0.138811	-0.160533	0.429736	-0.87766	1.70714	-8.35197	6.15235	0.012219	0.0141131	-0.0132093	-0.617676	0.886475	-0.40332	0.379456	-0.924762	0.0225474	-0.0178722	0.169977	-6.55807	-6.58661	0.00911642	0.00229504	-0.0134009	0.469727	0.827637	0.852051	-0.0853141	-0.0168478	-0.0244508	-0.995912	0.624639	0.601974	10.5035	-0.00181388	0.00894284	0.0049876	-0.449463	-0.154785	-0.956299	-0.632769	-0.747825	-0.142349	-0.141768	0.319913	9.61346	-1.65898	-0.00222633	0.00696134	-0.00822001	0.437256	-0.939697	0.0959473	
80	0.261497	0.0661407	-0.00520373	-0.962921	-1.39552	0.473628	10.9298	0.00321019	-0.0028274	0.000394838	-0.18042	0.196533	-1.1416	0.737056	0.152616	0.183255	-0.632356	-4.55694	-0.215112	8.96956	-0.0113529	0.0214936	-0.0164445	0.385986	0.14624	-1.02051	0.498164	0.866516	0.00852682	0.0301766	0.523345	7.95984	-4.70746	0.00601492	0.00491418	-0.00349426	0.377441	-0.834961	0.744629	0.185653	0.582456	0.773671	0.166468	-0.953678	4.59769	-8.56385	0.000673835	0.00558654	-0.000134076	-0.165527	0.0310059	1.08105	-0.423344	0.836992	0.318474	-0.137107	0.170339	-7.72626	-5.88164	0.00612822	0.010206	-0.0169774	0.52002	1.2312	0.567139	0.347855	0.852756	-0.380326	-0.0845896	0.0187309	7.17364	-3.19713	0.00277693	0.0123572	-0.0160281	0.346191	-0.932617	0.328125	0.900206	-0.0759817	-0.115366	-0.412974	2.94905	-0.123001	10.1045	0.0188671	0.00603397	-0.0168923	-0.608887	0.090332	-0.880127	0.138899	-0.160519	0.429642	-0.877695	1.67306	-8.32437	6.15294	0.00535815	0.0165369	-0.0151331	-0.61084	0.880127	-0.39624	0.379579	-0.924717	0.0220061	-0.018288	0.174055	-6.56466	-6.57374	0.00468279	0.00539211	-0.0180275	0.465088	0.827637	0.843018	-0.0853717	-0.0168308	-0.0243152	-0.99591	0.602277	0.550969	10.4905	-0.00178283	0.0133361	0.0042593	-0.451904	-0.152588	-0.956299	-0.632754	-0.747801	-0.142553	-0.141756	0.316465	9.60843	-1.66949	0.000791664	0.00665181	-0.00486662	0.439697	-0.946289	0.0983887	
81	0.261594	0.0660973	-0.00520652	-0.962898	-1.38236	0.457573	10.9436	-0.00129832	-0.00449761	0.00160448	-0.178223	0.196533	-1.1438	0.736982	0.152602	0.183275	-0.632441	-4.5659	-0.225708	8.95602	-0.00959283	0.0144157	-0.0179564	0.383789	0.14624	-1.02515	0.498216	0.866485	0.00855356	0.0301961	0.510429	7.97117	-4.70845	0.00119746	0.00353336	-0.00479172	0.377441	-0.84375	0.749268	0.185688	0.582449	0.773668	0.166467	-0.961205	4.5963	-8.56415	0.000675001	0.00541879	0.00171921	-0.167725	0.0307617	1.08545	-0.423313	0.836994	0.318487	-0.137162	0.175767	-7.73514	-5.90087	-0.00293538	0.00683926	-0.0151046	0.510986	1.23999	0.569336	0.347983	0.852751	-0.380232	-0.0845432	0.00745462	7.1846	-3.1997	0.00180806	0.0133564	-0.013455	0.348389	-0.932617	0.330078	0.900269	-0.0753796	-0.115442	-0.412924	2.9276	-0.11033	10.0368	0.0441856	0.0278719	-0.0184555	-0.611084	0.090332	-0.888672	0.138935	-0.160542	0.429676	-0.877669	1.65657	-8.35324	6.117	0.00278073	0.0154508	-0.0164832	-0.61084	0.879883	-0.393799	0.379579	-0.924717	0.0220061	-0.018288	0.174055	-6.56466	-6.57374	0.00468279	0.00539211	-0.0180275	0.465088	0.827637	0.843018	-0.0853851	-0.0169006	-0.0243682	-0.995907	0.597005	0.573633	10.4686	0.00588498	0.00977603	0.00435639	-0.451904	-0.148438	-0.956299	-0.63283	-0.747746	-0.142536	-0.141727	0.292444	9.62232	-1.63673	0.000105136	0.00724672	-0.00742322	0.4375	-0.948486	0.0983887	
82	0.26172	0.0660809	-0.00520368	-0.962865	-1.3843	0.444364	10.9456	-0.000160115	-0.00399145	0.00217451	-0.178223	0.192139	-1.1416	0.73691	0.152854	0.183132	-0.632505	-4.54527	-0.16003	8.9757	0.00182186	0.0187266	-0.0166787	0.385742	0.148438	-1.02295	0.498281	0.866447	0.00857054	0.0302185	0.521925	7.95959	-4.70804	6.48719e-05	0.00163792	-0.00341688	0.377441	-0.839355	0.749268	0.18562	0.582452	0.77368	0.166475	-0.949916	4.59996	-8.56838	0.0025446	0.00552593	0.000637487	-0.166016	0.0373535	1.08105	-0.423355	0.83696	0.318591	-0.136997	0.16179	-7.72121	-5.87021	-0.000881955	0.00807805	-0.0152628	0.517578	1.2334	0.569336	0.348123	0.852742	-0.38013	-0.0845108	0.0256921	7.17731	-3.18141	0.0019357	0.0117428	-0.0149844	0.348389	-0.932617	0.33667	0.900299	-0.0748687	-0.115545	-0.412923	2.93878	-0.0822955	10.1278	0.0390116	0.013734	-0.01781	-0.611084	0.090332	-0.884277	0.138993	-0.160589	0.429618	-0.877679	1.69867	-8.35225	6.11568	0.00685014	0.0136808	-0.0167217	-0.619629	0.879883	-0.393799	0.379579	-0.924717	0.0220061	-0.018288	0.174055	-6.56466	-6.57374	0.00468279	0.00539211	-0.0180275	0.465088	0.827637	0.843018	-0.0854583	-0.0169267	-0.0242942	-0.995902	0.607836	0.580232	10.505	-0.0026261	0.0118972	0.00103377	-0.454102	-0.148438	-0.956299	-0.632834	-0.747752	-0.142524	-0.141684	0.322707	9.64564	-1.66669	0.00360211	0.00621524	-0.00576801	0.430664	-0.944092	0.105225	
83	0.26169	0.0661076	-0.00523145	-0.962871	-1.36441	0.460246	10.9439	0.00223109	0.000658199	-0.00235055	-0.177979	0.189941	-1.14136	0.736892	0.152971	0.182702	-0.632622	-4.54578	-0.186415	8.85933	0.0194223	-0.00557256	-0.0129815	0.385986	0.141846	-1.03198	0.498117	0.866536	0.00856861	0.0303624	0.51981	7.96312	-4.71865	0.0125962	0.0120972	-0.000136886	0.379639	-0.845947	0.751709	0.185643	0.582421	0.773699	0.166472	-0.948237	4.60279	-8.55855	0.000710291	0.00495713	-0.00165847	-0.167969	0.0351562	1.08325	-0.423415	0.836933	0.318602	-0.13695	0.154569	-7.72279	-5.86704	0.00321656	0.0144439	-0.0191333	0.515625	1.2312	0.566895	0.348131	0.852795	-0.380024	-0.0844283	0.00262752	7.18685	-3.19266	0.00845902	0.011374	-0.0157987	0.352783	-0.936768	0.330322	0.90043	-0.0732142	-0.115425	-0.412967	2.93081	-0.0896381	10.0947	0.0896711	0.0557606	-0.023444	-0.61084	0.0861816	-0.88623	0.139067	-0.160584	0.429526	-0.877713	1.70892	-8.31956	6.15946	0.0102033	0.0165462	-0.0138715	-0.611084	0.886475	-0.39624	0.379983	-0.924555	0.0213687	-0.0188219	0.170547	-6.55461	-6.56602	0.00853876	0.00543462	-0.0163623	0.462402	0.832031	0.851807	-0.0855355	-0.0169364	-0.0242287	-0.995896	0.61549	0.54027	10.4765	0.000320195	0.0134268	0.00329017	-0.451904	-0.150635	-0.954102	-0.632819	-0.747764	-0.1425	-0.141716	0.321705	9.61468	-1.66623	0.0032907	0.00712962	-0.00367985	0.439697	-0.946289	0.0961914	
84	0.261688	0.0661522	-0.00527622	-0.962868	-1.35781	0.468094	10.9545	0.000901492	-0.00267858	-0.00244985	-0.180176	0.189941	-1.14575	0.73683	0.152951	0.182953	-0.632626	-4.56866	-0.197889	8.93966	-0.036958	0.0235119	-0.0228395	0.385986	0.144043	-1.03223	0.498009	0.866598	0.00849996	0.0303647	0.510399	7.96719	-4.71518	0.00386745	0.00074828	0.000367795	0.379639	-0.84375	0.749268	0.18561	0.582405	0.773701	0.166557	-0.956327	4.60556	-8.55497	-0.000990095	0.00612143	0.000780361	-0.165771	0.032959	1.08325	-0.423622	0.836834	0.31867	-0.136756	0.182802	-7.75043	-5.88607	0.00557191	0.0126668	-0.0157112	0.517578	1.2334	0.566895	0.348291	0.852763	-0.379958	-0.0843827	0.0177996	7.18773	-3.20939	-0.00556825	0.0138349	-0.0124698	0.350342	-0.93042	0.325928	0.900636	-0.0718234	-0.115087	-0.412858	2.9063	-0.0659834	10.102	0.0620322	0.0627686	-0.00913124	-0.606445	0.0861816	-0.88623	0.139128	-0.160633	0.42947	-0.877722	1.64368	-8.31522	6.10299	0.00110169	0.0127611	-0.0202138	-0.61084	0.880127	-0.39624	0.379983	-0.924555	0.0213687	-0.0188219	0.170547	-6.55461	-6.56602	0.00853876	0.00543462	-0.0163623	0.462402	0.832031	0.851807	-0.0855779	-0.016966	-0.0242702	-0.995891	0.567264	0.592236	10.4771	0.00340196	0.0124167	0.00307038	-0.449463	-0.152588	-0.956299	-0.632859	-0.747712	-0.142584	-0.141725	0.296617	9.59977	-1.65495	0.00111099	0.00662344	-0.00634515	0.4375	-0.946289	0.100586	
85	0.261917	0.066194	-0.00521554	-0.962803	-1.3794	0.436716	10.9414	-0.0024878	-0.00187587	0.00662856	-0.18042	0.196533	-1.14575	0.736876	0.152788	0.182537	-0.632732	-4.51859	-0.225349	8.99405	0.0168796	0.0031228	-0.0144354	0.381836	0.141846	-1.02979	0.498575	0.866263	0.00861407	0.0306014	0.526161	7.97021	-4.68972	-0.0289425	0.0102976	-0.00536185	0.377441	-0.84375	0.744873	0.185555	0.58239	0.773717	0.166592	-0.960361	4.58681	-8.57292	-0.000748935	0.00604875	1.25815e-05	-0.161133	0.0310059	1.07886	-0.423726	0.836746	0.318765	-0.136754	0.147872	-7.71487	-5.87857	0.0148647	0.0150025	-0.0169001	0.515625	1.2334	0.569336	0.348369	0.852783	-0.379853	-0.0843347	0.0172362	7.18508	-3.18771	0.00879711	0.0133558	-0.0144313	0.343994	-0.932617	0.330078	0.901185	-0.068581	-0.112702	-0.412868	2.97801	-0.0399638	10.1397	0.125994	0.196671	-0.0200919	-0.599854	0.0795898	-0.892578	0.13914	-0.16068	0.429541	-0.877677	1.70392	-8.34431	6.12506	-0.00317493	0.0139934	-0.0167714	-0.608887	0.884521	-0.40332	0.38017	-0.924482	0.0208673	-0.0192121	0.18197	-6.56155	-6.57417	0.00599167	0.00512384	-0.0169031	0.462891	0.820801	0.849854	-0.0856026	-0.0168501	-0.0242771	-0.995891	0.635305	0.577178	10.5007	0.000923073	0.0111371	0.00170176	-0.44751	-0.150391	-0.95166	-0.632832	-0.747741	-0.14258	-0.141698	0.303859	9.62755	-1.6531	0.0064145	0.00578033	-0.00666877	0.435303	-0.948486	0.103027	
