40	Head	00b4120a												Throax	00b411e8												LUpArm	00b411d9												LFoArm	00b41148												RUpArm	00b411db												RFoArm	00b41204												Waist	00b411f7												Lthigh	00b411f4												Lshank	00b4111b												Rthigh	00b411c8												Rshank	00b411ee												
PacketCount	q0	q1	q2	q3	accX	accY	accZ	gyrX	gyrY	gyrZ	magX	magY	magZ	q0	q1	q2	q3	accX	accY	accZ	gyrX	gyrY	gyrZ	magX	magY	magZ	q0	q1	q2	q3	accX	accY	accZ	gyrX	gyrY	gyrZ	magX	magY	magZ	q0	q1	q2	q3	accX	accY	accZ	gyrX	gyrY	gyrZ	magX	magY	magZ	q0	q1	q2	q3	accX	accY	accZ	gyrX	gyrY	gyrZ	magX	magY	magZ	q0	q1	q2	q3	accX	accY	accZ	gyrX	gyrY	gyrZ	magX	magY	magZ	q0	q1	q2	q3	accX	accY	accZ	gyrX	gyrY	gyrZ	magX	magY	magZ	q0	q1	q2	q3	accX	accY	accZ	gyrX	gyrY	gyrZ	magX	magY	magZ	q0	q1	q2	q3	accX	accY	accZ	gyrX	gyrY	gyrZ	magX	magY	magZ	q0	q1	q2	q3	accX	accY	accZ	gyrX	gyrY	gyrZ	magX	magY	magZ	q0	q1	q2	q3	accX	accY	accZ	gyrX	gyrY	gyrZ	magX	magY	magZ	
0	-0.438156	0.0158151	-0.898713	0.00914179	-7.03806	-0.25813	-5.48265	-0.0479905	0.0145035	0.0447879	0.662109	-0.170898	0.94165	-0.224997	-0.00558347	-0.974314	-0.00760791	-4.26066	0.183223	-8.53834	-0.034952	0.0561884	-0.0316192	0.275635	-0.249023	1.15112	0.00916083	-0.145209	-0.975855	-0.162905	0.385213	2.5186	-8.42878	0.0168691	-0.0266317	0.024172	-0.419678	-0.317383	0.949707	0.0568556	0.263465	-0.918606	0.288993	2.43851	-4.69915	-8.03529	0.00914438	-0.0127335	-0.01274	-0.592041	0.495361	0.707275	0.0120336	0.276254	-0.960584	0.0285729	0.517987	-0.307423	-9.56859	-0.018102	0.0232849	-0.00383453	-0.397705	-0.203857	1.02002	-0.0864153	-0.346962	-0.716055	-0.599513	2.34973	7.5318	-2.49677	-0.0686427	0.0362424	-0.00843064	-0.700439	-0.710693	0.567627	-0.249031	0.158749	-0.954138	0.0490231	-4.19328	-1.45501	-7.89496	0.00600651	-0.00712407	-0.0309969	0.143555	0.0522461	1.06543	0.800518	-0.122127	-0.55059	-0.202748	9.64703	0.274334	3.79446	0.0144462	0.032328	-0.0203729	-0.89502	0.0839844	-0.591309	-0.127645	0.340333	-0.926589	0.0965036	-1.44009	-2.17544	-8.76975	0.0149837	0.00364922	-0.0170096	-0.196777	0.325195	1.0105	0.813941	-0.0546185	-0.576318	0.0487253	9.36894	-1.46318	3.34716	0.00893224	0.0164885	0.0076675	-0.824707	0.125488	-0.666992	-0.0576327	0.130372	-0.92741	-0.345821	-1.83004	6.13672	-7.39098	-0.00898361	0.0113093	-0.00215295	-0.264648	-0.803955	0.844727	
1	-0.437777	0.0154092	-0.898908	0.00884301	-7.07817	-0.169765	-5.52592	0.0237068	0.0206408	-0.00608034	0.657959	-0.175293	0.935303	-0.225981	-0.00531412	-0.97409	-0.00731336	-4.33084	0.143338	-8.70854	0.0131511	-0.0689416	-0.0450462	0.28418	-0.246826	1.14648	0.00865763	-0.14556	-0.975842	-0.162696	0.555059	2.78764	-8.2825	0.0131526	-0.0428078	0.0137688	-0.421631	-0.321777	0.952148	0.0566681	0.263562	-0.918802	0.288316	2.4643	-4.83846	-7.96099	-0.0490793	-0.0264782	-0.00195488	-0.593994	0.490967	0.707275	0.0120615	0.276201	-0.960631	0.027479	0.327086	-0.144647	-9.69847	-0.0847769	-0.0138347	-0.0109877	-0.399658	-0.206055	1.02441	-0.0863994	-0.346849	-0.71587	-0.599801	2.13831	7.27327	-2.54685	-0.0234516	0.0284737	-0.0176779	-0.699951	-0.72168	0.572266	-0.248614	0.158498	-0.954287	0.049048	-4.1145	-1.37223	-8.22403	0.021133	0.0467732	0.00170993	0.136963	0.0563965	1.06958	0.800644	-0.122045	-0.550449	-0.202682	9.59621	0.294028	3.86393	0.0130552	0.0320941	-0.0132895	-0.892578	0.0795898	-0.591309	-0.127602	0.34033	-0.926584	0.0966173	-1.4354	-2.17674	-8.75638	0.00886853	0.0141003	-0.0242181	-0.198975	0.322754	1.0127	0.814013	-0.0544058	-0.576224	0.048879	9.3959	-1.4063	3.42215	0.0214858	0.0199338	0.00205394	-0.822266	0.123291	-0.669189	-0.0575179	0.130392	-0.92734	-0.346021	-1.84196	6.06498	-7.37345	-0.0163874	0.01233	-0.00413595	-0.262451	-0.806152	0.835693	
2	-0.43737	0.0153431	-0.899111	0.00846631	-7.03437	-0.130717	-5.59881	-0.01697	6.6517e-05	0.00384461	0.662354	-0.17749	0.946045	-0.225216	-0.00487402	-0.97426	-0.00840326	-4.45231	0.327301	-8.52932	-0.0790309	0.0657575	-0.022254	0.277832	-0.251221	1.15137	0.00865131	-0.146346	-0.975516	-0.16394	0.33564	2.70134	-8.63698	-0.102206	0.000719652	0.042402	-0.415039	-0.326172	0.94751	0.0560163	0.264038	-0.918625	0.288573	2.45203	-4.72683	-8.21289	0.00479565	-0.0170998	-0.00863089	-0.598389	0.490967	0.713867	0.0127476	0.276803	-0.960498	0.0257164	0.219602	-0.391549	-9.82928	-0.0748693	0.0103245	-0.0337293	-0.401611	-0.210449	1.02441	-0.0858875	-0.346759	-0.716641	-0.599006	2.42465	7.58028	-2.51421	0.0391448	0.0280987	-0.0229844	-0.702393	-0.715088	0.563477	-0.248532	0.159108	-0.954254	0.0481289	-4.18455	-1.43781	-7.8324	-0.045657	-0.00527491	-0.0324902	0.143555	0.0544434	1.06738	0.800741	-0.121649	-0.550431	-0.202586	9.59993	0.280988	3.82362	0.0307266	0.0215568	-0.0257312	-0.894531	0.0773926	-0.593506	-0.127493	0.340308	-0.926614	0.0965524	-1.40388	-2.19359	-8.7477	-0.000620465	0.0149606	-0.0188877	-0.199219	0.325195	1.00806	0.813998	-0.0544358	-0.576259	0.0486827	9.43058	-1.41592	3.31246	-0.00511028	0.00882896	-0.00284501	-0.826904	0.125488	-0.671631	-0.0573866	0.130436	-0.927364	-0.345961	-1.86004	6.1237	-7.36641	0.0111034	0.012711	-0.0061657	-0.262207	-0.80835	0.840332	
3	-0.437226	0.0157327	-0.899166	0.0093181	-7.0446	-0.271372	-5.46777	0.0145258	0.0203329	-0.0248093	0.662109	-0.170898	0.94165	-0.225507	-0.00464799	-0.974189	-0.00900328	-4.0546	0.191068	-8.61086	-0.022838	0.0537577	-0.0196476	0.284424	-0.251221	1.14893	0.0082015	-0.146454	-0.975165	-0.165942	0.688525	2.64081	-8.46707	-0.0156999	0.0175543	-0.0286839	-0.415039	-0.326172	0.956787	0.0557826	0.264529	-0.918358	0.289019	2.44032	-4.90324	-8.21826	0.0745795	-0.00314517	-0.0296534	-0.60083	0.493164	0.71167	0.0124517	0.277008	-0.960393	0.0275268	0.230162	-0.208613	-9.76192	0.0840834	0.00634156	-0.0235622	-0.403809	-0.212646	1.02222	-0.0853496	-0.346619	-0.71678	-0.598997	2.31495	7.50726	-2.57194	0.00370181	0.0372885	-0.00784811	-0.702393	-0.717285	0.574219	-0.24782	0.158782	-0.954502	0.0479499	-4.21769	-1.39561	-8.05979	0.0304032	0.0343805	-0.0116313	0.139404	0.0500488	1.06763	0.800989	-0.121164	-0.550299	-0.202253	9.61215	0.30273	3.84672	0.0200342	0.0272068	-0.0134997	-0.894531	0.0754395	-0.598145	-0.127211	0.340679	-0.926533	0.0963926	-1.42637	-2.16962	-8.76886	-0.00569735	0.00664523	-0.0181971	-0.196533	0.318359	1.0105	0.814014	-0.0539563	-0.576259	0.0489542	9.38804	-1.42925	3.41428	0.0207925	0.0109378	-0.00391532	-0.822266	0.123291	-0.662354	-0.0571647	0.130536	-0.927275	-0.346198	-1.81804	6.06977	-7.35343	-0.0107929	0.0140592	-0.00794808	-0.264648	-0.803955	0.846924	
4	-0.437301	0.0156968	-0.899133	0.00900905	-7.02156	-0.160291	-5.53214	0.00342744	-0.0292727	0.00487836	0.662109	-0.170898	0.943848	-0.225278	-0.00424861	-0.974239	-0.00949613	-4.24098	0.242651	-8.56386	-0.0256608	0.0163068	-0.0210782	0.278076	-0.255615	1.15137	0.0077282	-0.146506	-0.975437	-0.164316	0.513552	2.68961	-8.5214	0.0751725	-0.0365059	-0.0104987	-0.413086	-0.324219	0.952148	0.0557724	0.26494	-0.917918	0.290039	2.51367	-4.80195	-8.06493	0.0156661	0.0112056	-0.00980873	-0.594238	0.495361	0.705078	0.0128284	0.276938	-0.960443	0.0262634	0.328828	-0.283186	-9.74789	-0.100757	0.0221726	-0.0141235	-0.403809	-0.210449	1.02002	-0.0847941	-0.346468	-0.716805	-0.599133	2.15935	7.50259	-2.51143	0.00942006	0.0412756	-0.0116727	-0.696045	-0.715088	0.576172	-0.247473	0.15895	-0.954572	0.0477849	-4.13126	-1.30491	-8.03629	0.0247066	0.0392312	-0.00369641	0.139404	0.0500488	1.06763	0.800933	-0.120911	-0.550453	-0.202208	9.63282	0.332952	3.88339	0.0139444	0.00992331	-0.0227729	-0.890381	0.079834	-0.598145	-0.127165	0.340709	-0.926527	0.096405	-1.4344	-2.16548	-8.78796	0.0071696	0.0121339	-0.0245097	-0.199219	0.324951	1.01709	0.813923	-0.0537651	-0.576421	0.0487542	9.40343	-1.42608	3.35002	0.00899724	0.00122184	-0.00714562	-0.822266	0.123291	-0.666992	-0.0570418	0.130729	-0.927275	-0.346146	-1.83769	6.10338	-7.34293	-0.00311356	0.0144716	-0.01071	-0.266846	-0.803955	0.840088	
5	-0.435517	0.0157092	-0.900002	0.00864918	-7.01498	-0.194293	-5.45124	-0.0304644	0.133792	0.00868187	0.659912	-0.173096	0.948242	-0.224793	-0.00415707	-0.974356	-0.00898788	-4.39027	0.293189	-8.58327	0.00906945	0.0475722	-0.0307954	0.278076	-0.255615	1.15381	0.00877745	-0.146154	-0.975825	-0.162258	0.109901	2.62597	-8.67689	0.0481065	0.0341949	0.0111137	-0.419434	-0.31958	0.956543	0.0562911	0.265439	-0.917688	0.290211	2.43783	-5.12245	-8.11342	0.0130529	0.0257288	-0.035964	-0.596436	0.497559	0.705078	0.0132097	0.276959	-0.960479	0.0244946	0.220404	-0.340361	-9.67488	-0.0619062	-0.00714378	-0.0180588	-0.399658	-0.208252	1.01538	-0.0840839	-0.346529	-0.716703	-0.599319	2.36727	7.49528	-2.4495	-0.00120302	0.0445943	0.00460029	-0.70459	-0.715088	0.572021	-0.245886	0.158494	-0.955006	0.0488087	-4.17679	-1.45839	-8.05722	0.0272284	0.0697855	-0.0224702	0.136963	0.0544434	1.06104	0.800933	-0.120498	-0.550647	-0.201925	9.53198	0.227562	3.87412	0.0360461	0.00576905	-0.022574	-0.894775	0.0817871	-0.593506	-0.127015	0.340959	-0.926526	0.0957271	-1.42104	-2.14373	-8.75924	-0.033968	0.00332535	-0.0165357	-0.201172	0.315918	1.0127	0.813871	-0.0533647	-0.576527	0.0488179	9.38353	-1.36243	3.3931	0.00496134	0.00278396	-0.0081487	-0.828857	0.121094	-0.664551	-0.056775	0.130858	-0.927259	-0.346183	-1.83405	6.14451	-7.36097	-0.00332001	0.0182726	-0.00546931	-0.264404	-0.80835	0.840332	
6	-0.433048	0.015689	-0.901195	0.00848182	-6.98714	-0.189056	-5.70485	-0.00131082	0.0605725	-0.00154483	0.651367	-0.175537	0.948242	-0.22646	-0.00448462	-0.97398	-0.00765641	-3.9866	0.191932	-8.74091	0.0322157	-0.0480454	-0.0223456	0.284424	-0.253418	1.15137	0.00849711	-0.146137	-0.975972	-0.161402	1.08965	2.46484	-8.21479	0.103962	0.00362056	-0.0306907	-0.415283	-0.313232	0.956299	0.0565943	0.266235	-0.916996	0.291607	2.64392	-4.58468	-7.99816	0.0423807	0.0101218	-0.0349668	-0.603271	0.497559	0.705078	0.0138538	0.276726	-0.96059	0.0223071	0.503102	-0.404782	-9.61536	-0.0691116	0.0139633	-0.00702376	-0.401367	-0.219238	1.01538	-0.0832927	-0.345746	-0.717163	-0.599333	2.42379	7.26922	-2.54117	0.0405629	0.0610812	-0.0387226	-0.70459	-0.715088	0.567627	-0.24629	0.157805	-0.954988	0.0493692	-4.43495	-1.41928	-8.18558	0.062694	-0.00824926	0.00296658	0.13501	0.0500488	1.06763	0.800801	-0.119577	-0.551256	-0.201334	9.71972	0.434129	3.76098	0.037928	0.00150329	-0.0223495	-0.896729	0.0776367	-0.600586	-0.12682	0.341222	-0.926511	0.0951897	-1.44946	-2.15166	-8.79942	-0.0196397	0.00289432	-0.0175199	-0.201172	0.320312	1.01709	0.813604	-0.0538518	-0.576917	0.0481291	9.45899	-1.39345	3.3049	-0.0348497	-0.00458152	-0.00591025	-0.824951	0.129883	-0.671631	-0.0565829	0.130945	-0.92718	-0.346395	-1.83668	6.07532	-7.37033	-0.0178166	0.0198468	-0.00673066	-0.266846	-0.80835	0.844727	
7	-0.433039	0.0158014	-0.901196	0.00850595	-6.996	-0.175531	-5.63949	-0.00140865	-0.0023501	-0.0109584	0.653076	-0.168945	0.943848	-0.226189	-0.00425836	-0.974047	-0.00730599	-4.13676	0.267089	-8.34062	0.00693376	0.0129986	-0.0248471	0.281982	-0.249023	1.15112	0.00897319	-0.146343	-0.976328	-0.159016	0.906337	2.53956	-8.28258	0.199145	0.0113315	0.0110296	-0.419678	-0.311035	0.954102	0.0568962	0.266283	-0.917139	0.291054	2.54499	-4.79435	-8.0609	-0.0164047	0.0148636	0.00815125	-0.596191	0.48877	0.705078	0.0140599	0.276379	-0.960677	0.0227505	0.318166	-0.280302	-9.66869	0.0320564	0.0250567	-0.0015071	-0.401855	-0.208252	1.02441	-0.0830345	-0.344736	-0.718053	-0.598884	2.26864	7.4319	-2.54305	0.0336611	0.0381842	-0.0548022	-0.706787	-0.715088	0.569824	-0.246712	0.158449	-0.954764	0.0495296	-3.93644	-1.34401	-7.63632	0.0138043	-0.0177644	-0.0388168	0.13501	0.0500488	1.07178	0.800739	-0.119736	-0.551204	-0.201631	9.51569	0.400178	3.87493	-0.0161239	0.0203883	-0.0219061	-0.892578	0.0795898	-0.593506	-0.126788	0.341263	-0.92651	0.0951014	-1.41414	-2.12959	-8.77159	-0.000546102	0.00806405	-0.0220528	-0.198975	0.320557	1.0127	0.813569	-0.0538974	-0.576955	0.0482072	9.36802	-1.42357	3.34206	0.0127605	0.012659	0.0076761	-0.824707	0.127686	-0.664795	-0.0557276	0.131312	-0.926961	-0.346979	-1.79431	6.10854	-7.3609	-0.0340249	0.0262719	-0.00440177	-0.266846	-0.803955	0.837891	
8	-0.43417	0.0158483	-0.900651	0.00856013	-6.96612	-0.185788	-5.60172	0.00199684	-0.06999	-0.0010439	0.659912	-0.173096	0.948242	-0.226066	-0.0045213	-0.974076	-0.0071005	-4.2578	0.312936	-8.57056	0.0159642	0.0221689	-0.00238981	0.279785	-0.244629	1.15332	0.00849095	-0.14657	-0.976513	-0.157696	0.471477	2.95129	-8.18655	-0.00730779	-0.0148174	-0.0362854	-0.415283	-0.311035	0.960938	0.0567124	0.265825	-0.917447	0.290537	2.25607	-4.9225	-8.11273	-0.00761477	-0.0113486	0.0157799	-0.600586	0.48877	0.705078	0.0133086	0.275921	-0.960734	0.0261002	0.278433	-0.127924	-9.74132	0.15536	0.0140119	0.0108486	-0.40625	-0.206055	1.01758	-0.0829902	-0.344325	-0.718004	-0.599185	2.38906	7.53011	-2.5624	-0.0245298	0.02534	-0.0145384	-0.702637	-0.712891	0.567627	-0.247168	0.158192	-0.954681	0.049665	-4.31804	-1.50251	-8.21527	0.0132517	0.00915687	-0.0188498	0.138672	0.0629883	1.06519	0.800698	-0.119882	-0.551194	-0.201731	9.54454	0.329325	3.89883	-0.00887401	0.0138001	-0.0180922	-0.896729	0.0773926	-0.593506	-0.126813	0.341152	-0.926566	0.0949136	-1.41775	-2.15318	-8.79368	0.00251271	-0.00012441	-0.011266	-0.196533	0.318359	1.0105	0.813643	-0.0538899	-0.576846	0.0482658	9.4393	-1.39623	3.37249	-0.000418539	0.0170549	0.000758349	-0.822266	0.123291	-0.660156	-0.0551852	0.131415	-0.926861	-0.347294	-1.80755	6.14698	-7.38908	-0.00225161	0.0232477	-0.000846747	-0.262207	-0.80835	0.840332	
9	-0.43509	0.0157187	-0.900207	0.00882364	-7.00123	-0.207494	-5.53367	0.0181542	-0.0228318	-0.00130447	0.655762	-0.17749	0.946045	-0.226099	-0.00451755	-0.974068	-0.00715235	-4.32983	0.235603	-8.5424	-0.0139649	0.021807	-0.0316266	0.279785	-0.244629	1.15112	0.0083573	-0.146531	-0.97613	-0.160091	0.236781	2.54522	-8.61575	-0.128906	-0.0100501	0.0213052	-0.415283	-0.317627	0.954102	0.0566606	0.26562	-0.917509	0.290537	2.41642	-4.92133	-8.13674	0.00198978	0.00172445	0.014453	-0.596191	0.493164	0.702881	0.0131776	0.275868	-0.960742	0.0264382	0.280527	0.062387	-9.76529	0.0293037	0.00478797	-0.0138773	-0.397461	-0.206055	1.01538	-0.0830301	-0.344411	-0.717691	-0.599505	2.21091	7.5751	-2.47799	-0.0313493	0.0171469	-0.00410426	-0.704834	-0.712891	0.56543	-0.247411	0.158324	-0.954613	0.0493437	-4.24595	-1.36713	-7.95733	-0.00645406	-0.0138146	-0.0205741	0.141357	0.0522461	1.06543	0.800672	-0.119629	-0.551211	-0.20194	9.65252	0.252788	3.78738	0.00556295	0.0102908	-0.021426	-0.892578	0.0773926	-0.591064	-0.126997	0.340989	-0.9266	0.0949182	-1.43675	-2.14174	-8.77892	0.00926814	0.00762776	-0.0208568	-0.19873	0.315918	1.0127	0.813652	-0.0539177	-0.576831	0.0482594	9.42112	-1.33721	3.347	-0.00203258	0.0139897	0.00263034	-0.824707	0.125488	-0.664795	-0.0550174	0.131445	-0.926789	-0.347502	-1.83042	6.11826	-7.37881	-0.0177734	0.0182397	-0.0036365	-0.266846	-0.80835	0.837891	
10	-0.434927	0.015677	-0.900288	0.00863649	-7.03552	-0.165933	-5.5354	-0.00887765	0.0167888	-0.00341391	0.655762	-0.175537	0.952637	-0.226548	-0.00509932	-0.973955	-0.00780156	-4.12231	0.210403	-8.73767	-0.0530163	-0.000241384	0.0159632	0.284424	-0.251221	1.15356	0.00792136	-0.146302	-0.975888	-0.161786	0.584713	2.39026	-8.52992	0.0114237	0.027996	-0.0263067	-0.415039	-0.323975	0.958984	0.0565949	0.265691	-0.917351	0.290985	2.4006	-5.03287	-8.00287	0.0184555	0.00540966	-0.0123455	-0.60083	0.495361	0.709473	0.0137154	0.275913	-0.960764	0.024847	0.459724	-0.265055	-9.73293	-0.0761944	0.0162302	-0.00282491	-0.401855	-0.208252	1.02222	-0.0825509	-0.344459	-0.717369	-0.599929	2.51673	7.47639	-2.5156	-0.00837814	0.0389496	-0.000360955	-0.702393	-0.715088	0.563477	-0.247942	0.158319	-0.954475	0.0493759	-4.18234	-1.53917	-7.95008	0.0122684	0.0104093	-0.0261703	0.138916	0.0585938	1.06738	0.800742	-0.119341	-0.551203	-0.201857	9.59148	0.374621	3.83465	0.00141079	0.0180864	-0.0219914	-0.894775	0.0776367	-0.600586	-0.127129	0.341057	-0.926516	0.0953217	-1.42174	-2.1378	-8.7599	0.0322686	0.00645771	-0.0254006	-0.194092	0.318359	1.01489	0.81356	-0.0539748	-0.576961	0.0481976	9.43393	-1.42479	3.32055	-0.00657322	0.00504432	-0.00341682	-0.820068	0.123291	-0.666992	-0.0548174	0.131524	-0.926782	-0.347523	-1.84729	6.16602	-7.35032	0.00831797	0.0126445	-0.00713325	-0.264404	-0.810547	0.842529	
11	-0.433451	0.0159568	-0.900987	0.00937401	-6.96737	-0.264465	-5.5514	0.0171182	0.073602	-0.0148824	0.657715	-0.168945	0.946045	-0.226509	-0.00494384	-0.973962	-0.00815617	-4.41938	0.278123	-8.44024	0.00525343	-0.00913947	-0.0216073	0.281982	-0.244629	1.15112	0.00756371	-0.147389	-0.97604	-0.159891	0.564372	2.56748	-8.38628	0.0842661	-0.04682	0.0297963	-0.41333	-0.313232	0.951904	0.0570482	0.265596	-0.917201	0.291455	2.48969	-4.81505	-8.18001	0.0126347	0.0208526	0.00275675	-0.60083	0.497559	0.705078	0.0148075	0.275517	-0.960967	0.0203127	0.311909	-0.260806	-9.69326	-0.22655	-0.00584695	-0.0109443	-0.401123	-0.223633	1.01318	-0.0819615	-0.344048	-0.717882	-0.599632	2.23942	7.34939	-2.51032	0.0401516	0.0445577	-0.028828	-0.704834	-0.710693	0.56543	-0.247466	0.158285	-0.954541	0.0505703	-4.1485	-1.39795	-8.03845	0.0520259	0.0315109	-0.0196636	0.141113	0.0585938	1.06519	0.8008	-0.118736	-0.551278	-0.201775	9.63019	0.407227	3.88665	0.0388708	0.0240549	-0.0293235	-0.890137	0.0751953	-0.591064	-0.12736	0.340852	-0.926518	0.0957243	-1.42538	-2.17342	-8.77899	0.0289767	0.00513345	-0.0105855	-0.194336	0.320557	1.0105	0.813608	-0.0534415	-0.57693	0.0483408	9.3407	-1.46097	3.35125	0.0269436	0.0162208	-0.00515394	-0.82251	0.127686	-0.664795	-0.0546506	0.131653	-0.926702	-0.347713	-1.74084	6.0638	-7.32962	-0.0152727	0.015969	-0.011419	-0.27124	-0.806152	0.840332	
12	-0.433008	0.015896	-0.901205	0.00894025	-6.99497	-0.146155	-5.64411	-0.00429455	-0.0103906	-0.00392259	0.655518	-0.17334	0.948242	-0.227155	-0.0048609	-0.97381	-0.00843357	-4.08458	0.0720534	-8.75369	-0.00354512	0.00279812	-0.0237445	0.282227	-0.251221	1.15112	0.00797534	-0.147661	-0.976357	-0.157668	0.496842	2.88526	-8.46529	0.0349011	0.00954921	0.00804785	-0.419678	-0.311035	0.956299	0.0572751	0.26507	-0.917663	0.290433	2.63386	-4.93263	-8.1155	-0.0280856	0.0110893	0.025967	-0.598633	0.497559	0.713867	0.0150796	0.274872	-0.961178	0.0188514	0.367656	-0.40663	-9.56065	0.00701329	0.0111378	0.0103328	-0.401367	-0.221436	1.02441	-0.0815852	-0.343932	-0.718191	-0.59938	2.28028	7.32357	-2.66788	0.0110816	0.0161257	-0.0120907	-0.702393	-0.717285	0.567871	-0.247975	0.158066	-0.954407	0.0512998	-4.19237	-1.66032	-8.12621	0.0381374	-0.00511848	-0.00706807	0.141113	0.060791	1.06738	0.800512	-0.11853	-0.551301	-0.202974	9.62832	0.397112	3.82621	-0.0354652	0.00983714	-0.0751917	-0.898926	0.0751953	-0.595703	-0.12769	0.339917	-0.92668	0.0970358	-1.42218	-2.18652	-8.74868	0.0659931	0.0237186	0.0149522	-0.203613	0.322754	1.0127	0.813705	-0.0533258	-0.576809	0.0482837	9.45531	-1.48354	3.29528	0.00124668	0.0239226	-0.00299102	-0.828857	0.121094	-0.662354	-0.0543731	0.131709	-0.926658	-0.347852	-1.78657	6.08742	-7.47413	-0.0126178	0.0153125	0.00257329	-0.269043	-0.810547	0.831299	
13	-0.432963	0.0161196	-0.901222	0.00905529	-6.97974	-0.211363	-5.58078	-0.0146359	0.00866054	-0.00664349	0.655762	-0.17749	0.948242	-0.227261	-0.00555812	-0.973788	-0.00764283	-4.29929	0.231259	-8.62539	0.0240414	-0.0180632	0.0142072	0.281738	-0.242432	1.14868	0.0079763	-0.14706	-0.975992	-0.160464	0.613096	2.44755	-8.62402	-0.101047	0.035626	-0.0285363	-0.410889	-0.317627	0.954102	0.0574968	0.264482	-0.917778	0.290563	2.50242	-4.92701	-8.07184	-0.0138632	0.0153606	0.0081752	-0.60083	0.493164	0.700684	0.0144859	0.275018	-0.961094	0.0213175	0.292072	-0.310043	-9.77182	0.123586	0.00438309	-0.0145274	-0.407959	-0.217041	1.01294	-0.0816801	-0.344092	-0.718201	-0.599263	2.20898	7.37865	-2.61541	0.00921497	0.00179896	-0.0126339	-0.708984	-0.712891	0.563477	-0.248077	0.157186	-0.954459	0.0525145	-4.08959	-1.39176	-7.80837	0.065382	0.013782	-0.00337562	0.136475	0.0629883	1.06714	0.800203	-0.118599	-0.551485	-0.203652	9.48954	0.0313787	3.79586	-0.0115392	0.00485075	-0.0228942	-0.890137	0.0751953	-0.588867	-0.127387	0.339476	-0.927064	0.0952955	-1.41569	-2.15688	-8.69929	-0.102578	-0.00965663	0.0038208	-0.196533	0.320557	1.0127	0.813956	-0.0533886	-0.57648	0.0479218	9.4899	-1.24965	3.32362	-0.025503	0.0227168	-0.0102457	-0.824707	0.125488	-0.662354	-0.0540344	0.1313	-0.926407	-0.348727	-1.93953	6.16043	-7.38603	-0.0252486	0.00393832	0.0159846	-0.26416	-0.814941	0.840332	
14	-0.433663	0.0163435	-0.90088	0.00925401	-6.97788	-0.214584	-5.63059	0.0154898	-0.0582515	-0.0130833	0.657715	-0.17334	0.95459	-0.227166	-0.00580778	-0.973806	-0.00794807	-4.18623	0.303673	-8.46137	-0.0116635	0.0229598	-0.0138399	0.279785	-0.244629	1.15332	0.00739288	-0.148086	-0.975618	-0.16182	0.486373	2.18496	-8.39026	-0.0186859	-0.0306123	0.0387244	-0.413086	-0.317627	0.954102	0.0575512	0.26468	-0.91753	0.291153	2.5685	-4.95797	-8.0332	0.0385337	0.00243859	-0.0135668	-0.596191	0.493164	0.705078	0.0142746	0.274185	-0.961284	0.023486	0.201526	-0.15007	-9.99296	0.072245	0.0222046	0.0178144	-0.403809	-0.214844	1.02222	-0.0818495	-0.343687	-0.71884	-0.598706	2.34232	7.58966	-2.56778	-0.00661536	0.015395	-0.0193942	-0.702393	-0.715088	0.567627	-0.248157	0.156652	-0.954562	0.0518671	-4.26463	-1.4141	-7.98596	0.00805372	0.00838612	0.021155	0.138916	0.060791	1.06738	0.80005	-0.118868	-0.551423	-0.204261	9.68712	0.427709	3.79462	-0.0145322	0.0167306	-0.0415026	-0.894531	0.072998	-0.591064	-0.127411	0.339652	-0.927235	0.0929425	-1.45636	-2.10942	-8.8272	-0.0636849	-0.0290579	-0.015976	-0.189453	0.315918	1.01733	0.813867	-0.0539609	-0.576642	0.0468158	9.38314	-1.34605	3.4669	-0.0302322	0.0139777	-0.0274495	-0.824463	0.121094	-0.664551	-0.0539537	0.130667	-0.926148	-0.349665	-1.76354	6.16059	-7.26333	-0.0413284	-0.00618514	0.0211784	-0.268799	-0.812744	0.833496	
15	-0.434494	0.0163048	-0.90048	0.00922876	-6.97745	-0.219944	-5.55946	0.00200991	-0.0767172	0.00238262	0.65332	-0.171143	0.946045	-0.227304	-0.00609354	-0.973769	-0.008371	-4.40761	0.148583	-8.62624	-0.0246743	-0.0271605	-0.00636223	0.281982	-0.246826	1.14648	0.00749442	-0.149127	-0.976174	-0.157448	0.314261	2.75401	-8.41025	0.191488	-0.0229188	0.0379324	-0.41333	-0.308838	0.954102	0.0573998	0.264837	-0.918054	0.289384	2.3498	-4.75756	-8.06576	-0.101489	-0.0232594	0.00257693	-0.598389	0.490967	0.71167	0.0140195	0.273483	-0.961473	0.0240671	0.454764	0.0692666	-9.58222	-0.0387993	0.00976132	0.0162632	-0.401611	-0.212646	1.01538	-0.0818599	-0.343872	-0.717918	-0.599705	2.31832	7.43421	-2.45091	-0.0334809	0.0160929	0.0046951	-0.708984	-0.717285	0.565674	-0.247873	0.156371	-0.954661	0.0522367	-4.18184	-1.54753	-8.01981	0.0218085	0.0310136	-0.0219175	0.138672	0.0651855	1.06934	0.800146	-0.118383	-0.551303	-0.204492	9.61918	0.591562	3.86746	0.0202101	0.0282278	-0.0288411	-0.894287	0.0688477	-0.593262	-0.127755	0.339673	-0.92726	0.0921375	-1.47127	-2.08742	-8.77316	-0.00494483	0.00187272	-0.0154836	-0.196289	0.313721	1.01953	0.813892	-0.0532867	-0.576681	0.0466774	9.33194	-1.50473	3.31178	0.018872	0.00886621	-0.0126421	-0.824707	0.125488	-0.669189	-0.0541213	0.130244	-0.926196	-0.349669	-1.70541	6.22444	-7.37359	0.006881	-0.0077874	0.00260755	-0.27124	-0.80835	0.82666	
16	-0.435496	0.0160698	-0.9	0.00923231	-6.99933	-0.207405	-5.52869	0.00479417	-0.0459256	0.00723713	0.65332	-0.17334	0.943848	-0.227301	-0.00625304	-0.973768	-0.00847084	-4.26753	0.246172	-8.56519	-0.00984886	0.0123877	-0.00381889	0.286621	-0.253418	1.14893	0.00735531	-0.149454	-0.976166	-0.157193	0.372311	3.13607	-8.41534	0.0213873	-0.0138949	0.0171224	-0.411133	-0.304688	0.965332	0.0578957	0.264109	-0.919205	0.28628	2.20725	-4.95429	-8.26286	-0.166709	-0.000894339	0.0310726	-0.598389	0.490967	0.716064	0.0152696	0.273829	-0.961447	0.0201129	0.103216	-0.250798	-9.86809	-0.133328	0.00804212	-0.0474	-0.401367	-0.217041	1.01758	-0.0814395	-0.345086	-0.717392	-0.599694	2.396	7.43011	-2.67247	0.00407139	-0.0158253	0.0463875	-0.706787	-0.712891	0.559082	-0.247848	0.156277	-0.954678	0.0523246	-4.27143	-1.41521	-8.15564	0.026688	0.0139452	-0.0117008	0.13208	0.0673828	1.06494	0.800102	-0.117814	-0.551309	-0.204978	9.62615	0.387527	3.82246	0.00849972	0.0141223	-0.0374962	-0.89209	0.0710449	-0.595703	-0.127755	0.339673	-0.92726	0.0921375	-1.47127	-2.08742	-8.77316	-0.00494483	0.00187272	-0.0154836	-0.196289	0.313721	1.01953	0.813947	-0.0532644	-0.576624	0.0464635	9.43557	-1.45011	3.37892	-0.00629759	0.0184472	-0.0128869	-0.820068	0.121094	-0.666748	-0.0540884	0.12994	-0.925997	-0.350314	-1.84592	6.09374	-7.30665	-0.0163288	0.000287458	0.0121419	-0.266602	-0.810547	0.835693	
17	-0.436309	0.0159468	-0.899609	0.00909429	-7.03069	-0.154408	-5.54107	0.00357269	-0.0379801	-0.00754845	0.662109	-0.173096	0.943848	-0.227715	-0.00643075	-0.973665	-0.00895341	-4.31465	0.166115	-8.60665	-0.0246654	-9.60243e-06	-0.0201005	0.281982	-0.249023	1.14404	0.00781221	-0.148904	-0.975628	-0.160987	0.196734	2.65557	-8.74566	-0.198827	0.0500285	-0.0272112	-0.41748	-0.31958	0.949707	0.058225	0.264085	-0.919311	0.285894	2.58522	-4.94168	-8.49388	-0.0362711	0.0202016	-0.00610155	-0.598145	0.486572	0.713867	0.0155405	0.273859	-0.96145	0.0193292	0.536143	-0.475735	-9.52326	-0.0665599	0.0118382	-0.0188966	-0.403564	-0.217041	1.01318	-0.0816508	-0.345752	-0.716573	-0.600259	2.43912	7.50281	-2.57424	-0.0699541	-0.0204509	0.0379318	-0.704834	-0.710693	0.56543	-0.24771	0.156818	-0.954603	0.0527274	-4.22088	-1.524	-7.92925	0.0182269	0.0102422	-0.0340877	0.136719	0.060791	1.06738	0.800117	-0.117552	-0.551381	-0.204872	9.64831	0.265674	3.78264	0.0268142	0.0154111	-0.0231144	-0.896484	0.0710449	-0.591064	-0.126906	0.339798	-0.927302	0.0924257	-1.45084	-2.07809	-8.78061	0.0019848	0.0301217	-0.025688	-0.19873	0.315918	1.01709	0.814187	-0.0531297	-0.576333	0.0460216	9.39898	-1.19248	3.35399	0.00726234	0.024038	-0.0125392	-0.824463	0.123291	-0.660156	-0.0542767	0.129542	-0.926139	-0.350056	-1.84476	6.2085	-7.40964	0.0282428	-0.0150149	0.0186015	-0.264404	-0.812744	0.828857	
18	-0.435996	0.016076	-0.899758	0.00919744	-7.00541	-0.241927	-5.53764	-0.0165276	0.01911	0.00312353	0.655518	-0.170898	0.939453	-0.228031	-0.00671504	-0.973596	-0.00820658	-4.11907	0.212999	-8.5744	0.00973781	-0.021792	-0.0168876	0.286377	-0.246826	1.14648	0.0070593	-0.147737	-0.975419	-0.163347	0.934395	2.12098	-8.45685	0.0352146	-0.015866	-0.0549898	-0.413086	-0.31543	0.956543	0.0580967	0.26512	-0.918511	0.287529	2.37606	-4.73726	-7.99416	0.087899	0.00174654	-0.0500444	-0.598145	0.486572	0.716309	0.0150369	0.27391	-0.961458	0.0185724	0.253153	-0.424054	-9.85206	0.0123027	-0.0200904	-0.028018	-0.405762	-0.219238	1.01538	-0.0820462	-0.346766	-0.716321	-0.599921	2.33787	7.42602	-2.45938	0.0174595	-0.0142209	-0.00335012	-0.713379	-0.70874	0.573975	-0.247345	0.156702	-0.954629	0.0543051	-4.1562	-1.44873	-7.99607	0.0689959	0.0292149	-0.0205187	0.138428	0.0717773	1.06909	0.800186	-0.11736	-0.551307	-0.204911	9.61107	0.355973	3.78498	0.0150873	0.0283708	-0.0265758	-0.89209	0.0710449	-0.593262	-0.126906	0.339798	-0.927302	0.0924257	-1.45084	-2.07809	-8.78061	0.0019848	0.0301217	-0.025688	-0.19873	0.315918	1.01709	0.814376	-0.052859	-0.576126	0.0455681	9.39688	-1.339	3.39264	-0.00737217	0.0216414	-0.0235172	-0.820068	0.121094	-0.669189	-0.0551276	0.128604	-0.926174	-0.350176	-1.87438	6.05887	-7.39279	-0.00166309	-0.0453077	0.0199413	-0.266602	-0.810547	0.840332	
19	-0.435867	0.0160809	-0.899825	0.00872606	-7.00523	-0.207697	-5.48355	-0.00711103	0.00641327	0.0047106	0.655762	-0.175293	0.943848	-0.227753	-0.00674702	-0.973663	-0.00798268	-4.30634	0.268063	-8.50239	0.0206072	0.0347234	-0.0176145	0.283936	-0.244629	1.14624	0.00743751	-0.147243	-0.976273	-0.158602	0.383852	2.71225	-8.34565	0.157749	0.00300148	-0.0368811	-0.406738	-0.309082	0.953857	0.0585869	0.265589	-0.9184	0.287352	2.67641	-4.90374	-7.9607	-0.00853319	0.0138697	-0.0236585	-0.602539	0.486572	0.709473	0.0141459	0.273763	-0.961437	0.022172	0.431431	-0.158644	-9.61843	0.154919	0.0124959	-0.00117245	-0.406006	-0.212646	1.01758	-0.0824551	-0.347181	-0.716587	-0.599307	2.27038	7.35096	-2.47893	0.0249949	-0.014995	-0.0246481	-0.704834	-0.712891	0.569824	-0.247494	0.156818	-0.954592	0.0539425	-4.19607	-1.35078	-8.0294	0.0104977	0.0221351	-0.0112244	0.136475	0.0673828	1.06494	0.800301	-0.116841	-0.551048	-0.205455	9.65425	0.527484	3.81643	-0.00410104	0.0259048	-0.0229355	-0.894287	0.0666504	-0.593262	-0.126589	0.340428	-0.927089	0.0926778	-1.42453	-2.09225	-8.79017	0.00403788	0.0105326	-0.0259072	-0.194092	0.318359	1.01489	0.814558	-0.0529726	-0.575905	0.0449756	9.48446	-1.42756	3.21871	-0.0102589	0.0307661	-0.00735544	-0.815186	0.114746	-0.666748	-0.0559703	0.127501	-0.926402	-0.349843	-1.76905	6.29442	-7.31394	0.0147823	-0.0341735	0.0222666	-0.264404	-0.812744	0.835693	
20	-0.434148	0.0159182	-0.900671	0.00737926	-7.00723	-0.149814	-5.60868	-0.051219	0.080985	0.0273582	0.651367	-0.175537	0.948242	-0.228038	-0.00695214	-0.973594	-0.00809964	-4.34416	0.278889	-8.63585	-0.0368121	-0.0136104	-0.0153723	0.279541	-0.238037	1.15796	0.00809544	-0.147206	-0.976614	-0.156491	0.452565	2.64027	-8.34008	0.0901487	0.0165286	-0.00341276	-0.415527	-0.304443	0.95166	0.0583403	0.266104	-0.91847	0.286701	2.43219	-4.85618	-8.04439	-0.0752226	-0.0204607	-0.0159003	-0.598145	0.486572	0.709473	0.0137054	0.273537	-0.96149	0.022938	0.199115	-0.030512	-9.75196	-0.0116032	0.0008421	-0.00234651	-0.399658	-0.208252	1.01538	-0.0824931	-0.347165	-0.716433	-0.599496	2.51873	7.54708	-2.40287	-0.0212909	0.0265099	-0.014483	-0.708984	-0.712891	0.56543	-0.247429	0.15699	-0.954571	0.0541023	-4.22261	-1.56699	-8.0362	0.00225709	-0.0176048	-0.0279195	0.142822	0.0673828	1.06494	0.800348	-0.116773	-0.550923	-0.205649	9.61404	0.433003	3.7878	-0.00249488	0.0298468	-0.0313345	-0.894287	0.0666504	-0.595703	-0.126589	0.340428	-0.927089	0.0926778	-1.42453	-2.09225	-8.79017	0.00403788	0.0105326	-0.0259072	-0.194092	0.318359	1.01489	0.814919	-0.0531798	-0.575417	0.0444217	9.3631	-1.36192	3.40674	-0.0236745	0.031703	-0.0167951	-0.826904	0.123291	-0.671387	-0.0559868	0.126821	-0.92613	-0.350807	-1.80991	6.13084	-7.26623	-0.0202903	-0.00547569	0.0194902	-0.266602	-0.814941	0.835938	
21	-0.433389	0.0158809	-0.90104	0.0070195	-6.98091	-0.235766	-5.57657	-0.0216236	0.0148855	0.0139516	0.653809	-0.179688	0.948242	-0.228225	-0.007189	-0.973548	-0.00811962	-4.0651	0.382936	-8.41635	0.00659343	0.00697564	0.00890458	0.286133	-0.244629	1.15088	0.00708702	-0.147421	-0.976018	-0.160016	0.548006	2.79047	-8.30182	-0.14601	-0.018058	0.000915728	-0.411133	-0.313232	0.956299	0.0579776	0.266373	-0.918302	0.287064	2.3227	-4.69122	-8.11126	0.0546717	-0.0125844	-0.0106736	-0.598145	0.484375	0.709717	0.0145315	0.273344	-0.961596	0.0201361	0.348043	0.0379408	-9.79098	-0.147632	0.00631156	-0.024511	-0.408203	-0.212646	1.01538	-0.0823697	-0.346888	-0.716309	-0.599821	2.404	7.49542	-2.31647	0.00753935	0.0385779	-0.0231905	-0.708984	-0.712891	0.567627	-0.247806	0.156875	-0.95452	0.0536087	-4.24184	-1.39736	-7.87068	0.014646	0.00166694	-0.00738673	0.13623	0.0695801	1.06494	0.800675	-0.1163	-0.550369	-0.206123	9.62045	0.46325	3.8283	0.0181837	0.0427856	-0.0328547	-0.889893	0.0688477	-0.593262	-0.126589	0.340428	-0.927089	0.0926778	-1.42453	-2.09225	-8.79017	0.00403788	0.0105326	-0.0259072	-0.194092	0.318359	1.01489	0.815105	-0.0529293	-0.57519	0.0442653	9.44221	-1.33457	3.38278	0.0207168	0.0298184	-0.00334362	-0.820068	0.118896	-0.671387	-0.0559539	0.126516	-0.926109	-0.350977	-1.81367	6.26579	-7.27248	-0.018198	0.00515524	0.00155274	-0.268799	-0.814941	0.833496	
22	-0.433265	0.0156013	-0.901109	0.00635332	-7.00113	-0.112214	-5.57938	0.00198953	0.00863661	0.00454519	0.64917	-0.177734	0.948242	-0.227179	-0.0079171	-0.973776	-0.00935351	-4.4854	0.291495	-8.58866	-0.0357108	0.0650353	0.0172005	0.275635	-0.249023	1.14404	0.00640895	-0.148369	-0.975683	-0.16121	0.433687	2.51048	-8.47255	-0.0592967	-0.0417427	0.0337999	-0.415283	-0.317627	0.954102	0.0574906	0.266472	-0.918797	0.285481	2.59214	-4.74167	-8.23486	-0.0527521	-0.0374029	0.0027051	-0.598145	0.484375	0.714111	0.0153776	0.273225	-0.961649	0.018518	0.394934	-0.188332	-9.72338	-0.0416616	0.033352	-0.0120608	-0.403564	-0.217041	1.02002	-0.0817421	-0.346443	-0.716616	-0.599797	2.35135	7.46081	-2.52678	0.0224502	0.0422812	-0.0193628	-0.715576	-0.710693	0.573975	-0.248009	0.157079	-0.954463	0.053077	-4.10026	-1.46526	-7.92232	-0.0119335	-0.0071548	-0.0111094	0.140625	0.0673828	1.06494	0.801023	-0.115963	-0.549977	-0.206009	9.54726	0.425986	3.89255	0.0110563	0.0372592	-0.00666003	-0.894287	0.0666504	-0.5979	-0.125697	0.341505	-0.926918	0.0916344	-1.43288	-2.03962	-8.82324	0.0140036	-0.00282053	-0.0281602	-0.198242	0.306885	1.01733	0.815253	-0.0526677	-0.574998	0.0443501	9.42627	-1.40076	3.4376	0.0224815	0.0294389	-0.00427834	-0.819824	0.114502	-0.666748	-0.0555761	0.12679	-0.926063	-0.35106	-1.78651	6.24977	-7.24757	-0.00496373	0.0202938	-0.00779681	-0.268555	-0.817139	0.840332	
23	-0.43272	0.0153531	-0.901375	0.00640019	-6.94831	-0.147814	-5.64171	-0.0123516	0.00849318	0.0117302	0.64917	-0.177734	0.943848	-0.227698	-0.00833729	-0.973638	-0.010641	-4.20316	0.180091	-8.65952	-0.0845818	-0.00525214	0.000811287	0.282227	-0.251221	1.14648	0.00608737	-0.149327	-0.975737	-0.160003	0.348865	2.79879	-8.63293	0.050109	-0.0131269	0.0519597	-0.406738	-0.313477	0.951904	0.0567185	0.267089	-0.91926	0.283563	2.33534	-4.89554	-8.17209	-0.102636	-0.0521532	-0.012648	-0.591309	0.47998	0.70752	0.0157226	0.273595	-0.961553	0.0177255	0.097724	-0.233259	-9.80219	-0.0206719	0.00236928	-0.0314587	-0.40332	-0.223633	1.01318	-0.0808171	-0.346279	-0.716456	-0.600208	2.39115	7.37584	-2.46866	-0.0120608	0.0585727	0.00555119	-0.70459	-0.717285	0.563477	-0.248226	0.156996	-0.954475	0.0520907	-4.27333	-1.61856	-7.78373	-0.0347829	-0.0398388	-0.013195	0.145264	0.0629883	1.06714	0.801229	-0.1161	-0.54954	-0.206296	9.65699	0.440497	3.83081	-0.00417146	0.0314016	-0.0260673	-0.887695	0.0688477	-0.595703	-0.126201	0.341827	-0.926589	0.0930591	-1.45156	-2.08334	-8.79798	0.0805918	0.0135829	-0.0454452	-0.193848	0.311523	1.01294	0.815597	-0.0517286	-0.574575	0.0445926	9.42576	-1.24199	3.42902	0.0153863	0.0249495	-0.00741783	-0.824219	0.116699	-0.673584	-0.054815	0.127097	-0.925785	-0.3518	-1.81636	6.14875	-7.33073	-0.0283162	0.0375195	-0.00308531	-0.269043	-0.810547	0.828857	
24	-0.432713	0.0153978	-0.901376	0.00659192	-6.97968	-0.101616	-5.59253	0.011655	-0.00172527	-0.0124311	0.648926	-0.17334	0.948242	-0.227199	-0.0087592	-0.973747	-0.0109996	-4.38788	0.267398	-8.54848	0.00548711	0.0331389	0.00418525	0.28418	-0.249023	1.14893	0.00564692	-0.149888	-0.975278	-0.162281	0.235178	3.01648	-8.67498	-0.185645	-0.0089401	0.035026	-0.408936	-0.319824	0.951904	0.0563904	0.267265	-0.919498	0.28269	2.44306	-4.69802	-8.30472	-0.0115684	-0.0233602	-0.0117195	-0.591553	0.484375	0.7229	0.016373	0.273538	-0.961566	0.0173054	0.443553	-0.0238222	-9.55049	-0.0503077	0.028368	-0.0320958	-0.405518	-0.223633	1.01074	-0.0804055	-0.346295	-0.716879	-0.59975	2.23399	7.32349	-2.84574	0.0487788	0.00132693	-0.0155213	-0.704834	-0.710693	0.561035	-0.248194	0.156662	-0.954569	0.0515301	-4.1919	-1.32345	-8.17159	0.0306956	0.0361207	0.0103569	0.14502	0.0651855	1.06494	0.801601	-0.115675	-0.549206	-0.205981	9.50791	0.399335	3.95455	0.0223719	0.0383993	-0.00961417	-0.89209	0.0666504	-0.595703	-0.126201	0.341827	-0.926589	0.0930591	-1.45156	-2.08334	-8.79798	0.0805918	0.0135829	-0.0454452	-0.193848	0.311523	1.01294	0.815765	-0.0509774	-0.574391	0.0447628	9.37225	-1.29469	3.4077	0.0354195	0.0203862	-0.00996742	-0.819824	0.114502	-0.677979	-0.0542972	0.12708	-0.925507	-0.352619	-1.85074	6.20607	-7.45003	-0.0536693	0.0115079	0.00233971	-0.268555	-0.817139	0.82666	
25	-0.431205	0.0156078	-0.902092	0.00692393	-6.95291	-0.205903	-5.59131	-0.0167215	0.0807883	-0.00355811	0.651367	-0.177734	0.946045	-0.227636	-0.00881095	-0.973642	-0.0111844	-4.34259	0.209619	-8.59277	-0.020768	-0.022726	-0.0128804	0.278076	-0.257812	1.15137	0.00544621	-0.149454	-0.974897	-0.164952	0.708964	2.79856	-8.47707	-0.211784	0.0266713	-0.0395005	-0.413086	-0.319824	0.956543	0.0562726	0.267661	-0.919404	0.282644	2.33223	-4.94301	-8.18486	0.00346422	-0.0116841	-0.0270091	-0.595703	0.482178	0.720703	0.0163589	0.273941	-0.961466	0.0164785	0.25046	-0.199308	-9.80469	-0.0621162	-0.0119882	-0.0524841	-0.403564	-0.221436	1.01758	-0.0804818	-0.346606	-0.717042	-0.599364	2.3866	7.3896	-2.60265	0.0331474	-0.013583	-0.00869637	-0.709229	-0.70874	0.563232	-0.248374	0.156752	-0.954513	0.0514187	-4.29335	-1.50359	-8.04036	0.0102662	-0.00469934	-0.0218269	0.143066	0.060791	1.06738	0.801669	-0.11568	-0.549128	-0.205922	9.51677	0.475976	3.90662	0.00613317	0.0245288	-0.0116055	-0.889893	0.0688477	-0.602783	-0.126357	0.342379	-0.926248	0.0942063	-1.42167	-2.10731	-8.76422	0.0136937	0.00428937	-0.0298094	-0.196533	0.318115	1.01953	0.815847	-0.0507795	-0.574293	0.0447552	9.40422	-1.30284	3.40506	0.0130577	0.0204068	-0.00755132	-0.826416	0.112305	-0.673584	-0.0543326	0.126866	-0.925203	-0.353485	-1.81271	6.03962	-7.415	-0.0687237	-0.0124961	0.00986652	-0.272949	-0.819336	0.833496	
26	-0.430379	0.0156375	-0.90249	0.00638195	-6.92394	-0.130807	-5.59712	-0.00859357	0.025792	0.00105561	0.646973	-0.175537	0.950439	-0.227526	-0.00846606	-0.973674	-0.0109322	-4.16833	0.403978	-8.59841	0.0207483	0.0442264	-0.0303693	0.277832	-0.253418	1.14673	0.00546728	-0.149456	-0.974836	-0.165309	0.606975	2.51901	-8.44318	0.0913901	-0.0107542	-0.0462471	-0.408936	-0.319824	0.949707	0.0563534	0.268701	-0.918621	0.284183	2.31103	-4.81118	-8.10716	0.0275919	0.00370506	-0.0372104	-0.593506	0.482178	0.716309	0.0157202	0.273124	-0.961682	0.0179809	0.293976	-0.00145469	-9.71514	0.07072	0.0212558	-0.00217575	-0.405518	-0.223633	1.01538	-0.0808112	-0.347224	-0.71678	-0.599276	2.4326	7.35928	-2.46476	0.0128549	0.00782204	-0.00806036	-0.709229	-0.710693	0.569824	-0.24852	0.156782	-0.954468	0.051451	-4.16713	-1.51472	-7.95316	0.0436719	0.0254989	-0.0217739	0.136475	0.0673828	1.06299	0.801776	-0.115629	-0.549037	-0.205774	9.64628	0.460852	3.92257	0.0058572	0.026514	-0.012551	-0.889893	0.0666504	-0.5979	-0.126407	0.342487	-0.926181	0.0944042	-1.43485	-2.10372	-8.78402	0.022553	0.0101055	-0.0311965	-0.205811	0.315918	1.0127	0.816016	-0.0510814	-0.574053	0.0443963	9.39619	-1.19729	3.42633	-0.0146482	0.0271692	-0.00221564	-0.822021	0.116699	-0.673584	-0.0547237	0.125874	-0.925113	-0.354016	-1.75784	6.21502	-7.23274	-0.0138618	-0.0225034	0.0290411	-0.272949	-0.821533	0.826904	
27	-0.429105	0.0158796	-0.903096	0.00581433	-6.92743	-0.119363	-5.69091	-0.0274436	0.0541607	-0.00215486	0.646973	-0.179932	0.950439	-0.227844	-0.00806304	-0.973607	-0.0105746	-4.29716	0.318208	-8.61492	-0.00248928	-0.0339755	-0.0496023	0.284424	-0.251221	1.15112	0.00667262	-0.149516	-0.975655	-0.160305	0.241647	2.84019	-8.50328	0.151834	0.00359709	0.026282	-0.413086	-0.31543	0.951904	0.0566693	0.268974	-0.918372	0.284665	2.65437	-4.83292	-8.2048	0.0368285	0.0330234	-0.0306621	-0.595459	0.477783	0.718506	0.0157202	0.273124	-0.961682	0.0179809	0.293976	-0.00145469	-9.71514	0.07072	0.0212558	-0.00217575	-0.405518	-0.223633	1.01538	-0.0809093	-0.3473	-0.71675	-0.599255	2.54748	7.63286	-2.3847	-5.40652e-05	0.00706363	-0.0171704	-0.707031	-0.710693	0.571777	-0.248846	0.156909	-0.954367	0.0513723	-4.27835	-1.45806	-8.11543	0.0133363	-0.0189515	-0.0255468	0.143066	0.0651855	1.06934	0.801679	-0.115616	-0.549156	-0.205843	9.539	0.387907	3.92707	0.0130376	0.00447706	-0.0232446	-0.890137	0.0710449	-0.593506	-0.126618	0.342892	-0.925888	0.095519	-1.42508	-2.13801	-8.78325	0.0263924	0.0145209	-0.0272079	-0.196533	0.318359	1.0127	0.816037	-0.0519226	-0.573989	0.0438666	9.39478	-1.40662	3.4219	-0.050362	0.00982813	0.00388856	-0.819824	0.116699	-0.668945	-0.054787	0.125252	-0.92497	-0.3546	-1.75396	6.33329	-7.18067	-0.00784615	-0.00176593	0.0110589	-0.272949	-0.821533	0.824463	
28	-0.428381	0.0157259	-0.903448	0.00491548	-6.90094	-0.161518	-5.6629	-0.0432612	0.0293665	0.0323185	0.638672	-0.186523	0.950439	-0.227372	-0.00796672	-0.973724	-0.00996827	-4.251	0.388092	-8.50108	0.0104586	0.053976	-0.0148313	0.284424	-0.253418	1.14429	0.00683188	-0.148903	-0.976051	-0.15845	0.88979	2.64097	-8.20462	0.108821	0.0222094	-0.0326272	-0.411133	-0.309082	0.954102	0.0566927	0.269309	-0.9178	0.286185	2.3888	-4.63214	-8.04998	0.0408671	0.0117886	-0.00918872	-0.5979	0.482178	0.711914	0.0157153	0.273094	-0.961682	0.0184646	0.282873	0.142293	-9.8189	-0.0183335	0.0106883	-0.0388252	-0.403564	-0.221436	1.02222	-0.0809158	-0.347402	-0.717018	-0.598873	2.53838	7.55015	-2.34861	0.0328331	0.0146036	-0.0196695	-0.709229	-0.708496	0.571777	-0.248894	0.156689	-0.954338	0.0523378	-4.14555	-1.35959	-7.91418	0.0484539	0.00976532	-0.0099565	0.143066	0.0651855	1.06299	0.801597	-0.11572	-0.549185	-0.206028	9.58645	0.497675	3.93814	-0.00501726	0.0209488	-0.0245979	-0.885498	0.0666504	-0.600342	-0.126896	0.342766	-0.92591	0.0953898	-1.40551	-2.14382	-8.75797	0.00513261	-0.00751905	-0.0103428	-0.19873	0.315918	1.0083	0.816061	-0.052147	-0.573951	0.0436437	9.39517	-1.36227	3.3974	0.0106602	0.0180073	0.00112989	-0.817627	0.114746	-0.673584	-0.054615	0.125205	-0.924862	-0.354924	-1.77557	6.25063	-7.3071	-0.0121217	0.0109544	-0.00617395	-0.266602	-0.812744	0.831299	
29	-0.427781	0.0151912	-0.903745	0.00426191	-6.87866	-0.0941274	-5.74746	0.00610017	0.00928491	0.0214921	0.638428	-0.182129	0.95459	-0.227144	-0.00818376	-0.973775	-0.0100739	-4.17441	0.362427	-8.54825	0.000199729	0.0471985	-0.00454708	0.282227	-0.251221	1.14429	0.00649917	-0.149443	-0.975698	-0.160121	0.55266	2.69011	-8.31122	-0.121765	-0.00401477	0.00118242	-0.410889	-0.317627	0.956543	0.0567539	0.268653	-0.918243	0.285367	2.54897	-4.62643	-8.03605	-0.039578	-0.00340175	0.03089	-0.600342	0.486572	0.718506	0.016179	0.273245	-0.961644	0.0177779	0.347602	-0.07786	-9.8621	-0.0366898	0.031572	-0.017872	-0.410156	-0.219238	1.01758	-0.0806382	-0.347466	-0.717497	-0.5983	2.37682	7.44428	-2.59016	0.0321626	0.0160965	-0.0129478	-0.711426	-0.706543	0.56958	-0.249213	0.156376	-0.954319	0.0520948	-4.30026	-1.33673	-8.15101	0.0193091	0.0042448	0.00917451	0.138672	0.0629883	1.07153	0.801378	-0.116163	-0.549293	-0.206341	9.56042	0.393862	3.90494	-0.023368	0.00177126	-0.0161447	-0.89209	0.0666504	-0.600342	-0.127271	0.342658	-0.925908	0.0953006	-1.44777	-2.13534	-8.8119	0.0165657	-0.00674593	-0.0191623	-0.203613	0.322754	1.0127	0.816046	-0.0519725	-0.573974	0.0438381	9.3738	-1.24116	3.47371	1.69613e-05	0.0040471	0.00494098	-0.822021	0.114502	-0.673584	-0.0547736	0.125446	-0.924924	-0.354653	-1.78049	6.26509	-7.22804	0.0101587	0.00706161	-0.0178519	-0.272949	-0.821533	0.829102	
30	-0.429049	0.0150127	-0.903145	0.00454871	-6.91423	-0.0418387	-5.68715	0.0266683	-0.073571	-0.0166308	0.640381	-0.179932	0.956787	-0.226908	-0.00821987	-0.97382	-0.0109623	-4.30654	0.317254	-8.60548	-0.0367633	0.0162354	0.000221723	0.286621	-0.253418	1.14893	0.00666417	-0.150175	-0.975223	-0.162308	0.242704	2.65409	-8.56964	-0.111686	0.00222816	0.0510862	-0.410889	-0.319824	0.951904	0.0569489	0.267926	-0.919158	0.283056	2.50453	-4.75768	-8.23333	-0.0923854	-0.00258959	0.0281613	-0.5979	0.47998	0.718506	0.0164357	0.273314	-0.961612	0.0182307	0.485396	-0.288075	-9.61522	0.0144074	0.0204274	-0.00597354	-0.405762	-0.221436	1.01318	-0.0801808	-0.347645	-0.717564	-0.598177	2.4727	7.43338	-2.54272	0.00510452	0.0315113	-0.0047511	-0.704834	-0.708496	0.571777	-0.249445	0.156356	-0.954306	0.0512745	-4.13121	-1.46425	-7.88662	-0.0215306	-0.00937871	-0.0121126	0.143066	0.060791	1.06519	0.801304	-0.11612	-0.549452	-0.20623	9.59846	0.40466	3.90455	0.022287	0.0109283	-0.0164294	-0.889893	0.0688477	-0.598145	-0.127899	0.342628	-0.925761	0.0959919	-1.42984	-2.14771	-8.79256	0.0427846	-0.0100851	-0.0271058	-0.198975	0.322754	1.0105	0.815858	-0.0519666	-0.574236	0.0439103	9.42303	-1.24403	3.46607	0.00307087	0.0033131	0.00354182	-0.817627	0.119141	-0.669189	-0.054815	0.125538	-0.925013	-0.354381	-1.81828	6.20148	-7.31099	0.0117032	0.00493458	-0.00853574	-0.268555	-0.817139	0.829102	
31	-0.429657	0.0151989	-0.902847	0.00558383	-6.93625	-0.110421	-5.61296	0.0673184	-0.056724	-0.0521586	0.642578	-0.179932	0.95459	-0.227447	-0.0083736	-0.973691	-0.0110787	-4.12258	0.239597	-8.59178	-0.0309821	-0.00444718	-0.0156761	0.282227	-0.255615	1.15137	0.00620176	-0.15014	-0.975004	-0.163665	0.731444	2.55858	-8.48823	0.0136486	0.00225566	-0.0273299	-0.408936	-0.319824	0.951904	0.0568925	0.267338	-0.919506	0.282493	2.32158	-4.69161	-8.2552	0.00343946	0.002013	0.0146818	-0.595703	0.47998	0.716309	0.0168279	0.272633	-0.961823	0.0168824	0.212168	-0.127424	-9.6608	-0.0626321	-0.00194231	0.0036694	-0.401367	-0.221436	1.02441	-0.0800782	-0.347482	-0.717526	-0.598331	2.40109	7.32868	-2.72507	-0.00766186	0.0188782	-0.0161027	-0.709229	-0.706543	0.56958	-0.249164	0.155885	-0.95446	0.0512177	-4.42304	-1.48379	-8.01562	0.0209372	0.00621424	-0.013262	0.140869	0.0651855	1.06299	0.80121	-0.116028	-0.549732	-0.205902	9.58396	0.49662	3.87627	0.0017108	-0.00225121	-0.0100424	-0.89209	0.0688477	-0.595703	-0.128357	0.342683	-0.92564	0.0963545	-1.45647	-2.16285	-8.75289	0.0455108	-0.0181969	-0.0309051	-0.191895	0.318359	1.01489	0.815574	-0.0522891	-0.574617	0.0438164	9.39852	-1.33936	3.38273	-0.0219821	-0.00838393	0.00900396	-0.822266	0.118896	-0.671387	-0.0549826	0.125551	-0.925249	-0.353734	-1.76968	6.28386	-7.27591	0.0375549	0.0046279	-0.00983244	-0.270996	-0.814941	0.829102	
32	-0.431329	0.0154749	-0.902039	0.00648042	-6.94256	-0.134044	-5.62494	0.0356563	-0.0728462	-0.0274024	0.642578	-0.177734	0.948242	-0.227515	-0.0080978	-0.973678	-0.0110816	-4.36581	0.323351	-8.65737	0.0358024	0.0104213	-0.0272526	0.282227	-0.255615	1.15381	0.00619765	-0.150308	-0.975017	-0.163435	0.295571	2.72052	-8.58594	-0.0176663	-0.00850933	-0.0108743	-0.413086	-0.319824	0.954346	0.0570809	0.266937	-0.919656	0.282345	2.55168	-4.82101	-8.24131	0.0103786	0.0165112	0.00795067	-0.600098	0.47998	0.716309	0.0169785	0.272435	-0.961886	0.0162843	0.447527	-0.228313	-9.74147	-0.00901441	0.0122876	-0.0059157	-0.40332	-0.223633	1.01538	-0.0802879	-0.347509	-0.717746	-0.598024	2.34085	7.38823	-2.44259	0.0383854	0.00477772	-0.0325844	-0.713867	-0.702148	0.56958	-0.249119	0.156228	-0.954443	0.0507021	-4.10131	-1.33246	-7.95557	0.0245871	0.0366699	-0.00840334	0.145264	0.060791	1.06299	0.80102	-0.116486	-0.54989	-0.205958	9.62929	0.461148	3.89544	-0.0117732	0.0068384	-0.0101785	-0.887939	0.0732422	-0.593506	-0.129303	0.342915	-0.925317	0.0973612	-1.46124	-2.19656	-8.7896	0.0430184	-0.00317289	-0.0301756	-0.196533	0.320557	1.01709	0.81546	-0.052451	-0.574752	0.0439825	9.42721	-1.30113	3.36465	0.00754202	0.0133093	0.011149	-0.817871	0.123291	-0.669189	-0.0552654	0.125441	-0.925298	-0.353602	-1.80483	6.16544	-7.33823	0.00829725	-0.00842263	-0.00280352	-0.266357	-0.817139	0.82666	
33	-0.431668	0.0156087	-0.901871	0.0068602	-6.97475	-0.181316	-5.58807	0.0222142	-0.0336421	-0.0259548	0.64917	-0.177734	0.948242	-0.227449	-0.0080647	-0.973698	-0.0106964	-4.22259	0.307392	-8.54121	0.0237994	0.017481	-0.0294347	0.282471	-0.257812	1.14917	0.0065148	-0.149587	-0.975195	-0.163022	0.571153	2.56548	-8.43368	0.0419479	0.0331441	-0.0602906	-0.41748	-0.313232	0.956299	0.057067	0.267039	-0.919435	0.282972	2.35762	-4.83837	-8.21533	0.0551507	0.0114346	-0.0136682	-0.595703	0.47998	0.714111	0.0167585	0.272517	-0.961851	0.0172011	0.176914	-0.120123	-9.80061	0.0750286	0.011197	-0.0208093	-0.409912	-0.223633	1.01538	-0.0801886	-0.347516	-0.718194	-0.597495	2.37785	7.42257	-2.51032	0.0556349	0.00827797	-0.03016	-0.707275	-0.704346	0.56958	-0.248835	0.156037	-0.95451	0.0514185	-4.24876	-1.3946	-7.94175	0.0734542	0.0440274	-0.0176129	0.143066	0.0629883	1.06519	0.800995	-0.11657	-0.549976	-0.205777	9.52776	0.362544	3.90237	0.0113134	0.00695751	-0.00297253	-0.896484	0.0710449	-0.600342	-0.129641	0.34301	-0.925197	0.0977105	-1.45118	-2.19864	-8.78203	0.0436734	-0.00796788	-0.0289935	-0.192139	0.322754	1.0127	0.815488	-0.0525073	-0.574698	0.0440999	9.38086	-1.26225	3.41537	0.00447821	0.015916	0.0125934	-0.817871	0.121094	-0.671387	-0.0556062	0.125205	-0.925533	-0.353017	-1.78242	6.09594	-7.29524	0.0568702	-0.0180727	0.0016226	-0.268799	-0.814941	0.829102	
34	-0.432912	0.0161451	-0.90126	0.00752636	-6.94537	-0.180694	-5.64125	0.0215476	-0.0872396	-0.0337757	0.648926	-0.17334	0.952393	-0.227611	-0.0071993	-0.973668	-0.0105913	-4.21997	0.313442	-8.58518	-0.00403138	-0.0188961	-0.0584851	0.282227	-0.251221	1.15112	0.00642074	-0.150007	-0.975325	-0.161858	0.418539	2.68028	-8.50094	0.0288492	-0.0275374	0.0184562	-0.41333	-0.313232	0.954102	0.0573437	0.267386	-0.919152	0.283506	2.54396	-4.72018	-8.1789	0.027306	0.0122406	-0.0219	-0.595459	0.477783	0.718506	0.0160358	0.272492	-0.961825	0.0195698	0.48554	-0.010151	-9.53098	0.0876095	0.00716844	-0.0129511	-0.407959	-0.217041	1.01538	-0.0800951	-0.348027	-0.719186	-0.596015	2.35916	7.3823	-2.54418	0.0676214	-0.0219782	-0.0154618	-0.709473	-0.704346	0.571777	-0.249118	0.156587	-0.954365	0.0510675	-4.27295	-1.45045	-8.10388	4.22068e-05	-0.0104779	-0.0204314	0.140869	0.0629883	1.06299	0.800882	-0.11669	-0.550194	-0.205566	9.57262	0.367942	3.85478	0.00952078	-0.00650199	-0.00258744	-0.89209	0.0710449	-0.593262	-0.130381	0.343178	-0.92492	0.0987553	-1.45332	-2.2316	-8.75771	0.054108	-0.0062349	-0.0353826	-0.196777	0.322754	1.0083	0.815293	-0.0533343	-0.574915	0.0438826	9.43044	-1.29525	3.42952	-0.0387013	-0.00390433	0.0121074	-0.822266	0.121094	-0.669189	-0.0562377	0.124505	-0.925934	-0.352112	-1.79257	6.29004	-7.27693	0.0292658	-0.0210559	0.0106012	-0.266602	-0.810547	0.831299	
35	-0.433981	0.0156615	-0.900756	0.00732271	-6.97217	-0.199162	-5.48811	-0.0103666	-0.0139649	0.0363169	0.651367	-0.175537	0.948242	-0.22682	-0.00666407	-0.973862	-0.0100505	-4.32593	0.305929	-8.39735	0.00896292	0.0630663	-0.0332268	0.281982	-0.249023	1.14893	0.00691957	-0.149521	-0.975826	-0.159247	0.47303	2.71433	-8.55216	0.127	0.0133668	-0.0198189	-0.415527	-0.308838	0.958496	0.0572012	0.267929	-0.91869	0.284518	2.26078	-4.69137	-8.08999	0.0263471	0.00403333	-0.0232607	-0.5979	0.47998	0.711914	0.0157806	0.272392	-0.961869	0.0190084	0.216544	-0.11365	-9.822	-0.0376276	-0.0164089	-0.00905789	-0.403564	-0.221436	1.01758	-0.0803146	-0.348434	-0.719922	-0.594857	2.40916	7.35756	-2.6124	0.0507721	-0.00813209	-0.0222541	-0.707275	-0.704346	0.571777	-0.248651	0.156598	-0.954442	0.0518626	-4.17926	-1.48528	-7.7406	0.0368582	0.0326239	-0.0416094	0.132324	0.060791	1.06519	0.800984	-0.116502	-0.550261	-0.205097	9.54745	0.433523	3.87031	0.000852389	0.0149736	-0.00306666	-0.892334	0.0710449	-0.598145	-0.131108	0.343366	-0.924626	0.0998837	-1.46352	-2.23489	-8.73237	0.0638671	-0.00193975	-0.0346582	-0.192139	0.325195	1.0105	0.815276	-0.053709	-0.574885	0.0441382	9.38195	-1.43639	3.35907	0.00516509	0.0119565	0.0212802	-0.817871	0.123291	-0.666992	-0.0567461	0.12419	-0.926196	-0.35145	-1.81999	6.20157	-7.24375	0.0388231	-0.0106043	-0.00507577	-0.270996	-0.812744	0.831299	
36	-0.43333	0.0154612	-0.901066	0.00814423	-6.9969	-0.16685	-5.5735	0.0443991	0.0262228	-0.0263015	0.655762	-0.175293	0.939697	-0.227103	-0.00647676	-0.973805	-0.00929731	-4.29502	0.323786	-8.68856	0.0257804	0.0270342	-0.036218	0.281982	-0.246826	1.14404	0.00650061	-0.149796	-0.97529	-0.162261	0.662247	2.70201	-8.17103	-0.184081	0.0178495	-0.00274964	-0.408936	-0.313232	0.954102	0.0572485	0.268196	-0.918523	0.284795	2.66401	-4.72095	-8.20149	0.0377191	0.00152517	-0.0149555	-0.598145	0.486572	0.713867	0.0157675	0.272301	-0.961916	0.0179169	0.273227	-0.183172	-9.81802	-0.0325561	0.00265651	-0.016955	-0.407959	-0.219238	1.01074	-0.0804184	-0.348743	-0.720095	-0.594453	2.28241	7.41085	-2.55902	0.0130212	-0.00062389	-0.0144465	-0.707275	-0.699951	0.57373	-0.249105	0.156416	-0.954334	0.0522238	-4.41369	-1.35109	-8.16895	0.0503056	0.00481988	-0.00482081	0.136475	0.0651855	1.06079	0.800983	-0.116671	-0.550435	-0.20454	9.66952	0.436454	3.84395	0.0184338	0.0130696	0.00507679	-0.887939	0.0710449	-0.595703	-0.13178	0.343624	-0.924315	0.100992	-1.47126	-2.25825	-8.78957	0.0658628	-0.00920304	-0.0411125	-0.192383	0.329834	1.00586	0.815266	-0.0536534	-0.574879	0.0444488	9.50394	-1.28029	3.37433	0.0115256	0.0143964	0.0108093	-0.817871	0.121094	-0.671387	-0.0570241	0.124128	-0.926432	-0.350805	-1.84609	6.21992	-7.32361	0.0164651	-0.000267425	-0.00851738	-0.264404	-0.80835	0.837891	
37	-0.432432	0.0158882	-0.901487	0.00845187	-6.97239	-0.160459	-5.61076	-0.00764567	0.0408637	-0.0218676	0.651123	-0.17334	0.946045	-0.227493	-0.00631978	-0.973714	-0.00939038	-4.14311	0.230098	-8.61259	-0.0218174	-0.026475	-0.0206788	0.286377	-0.249023	1.14185	0.00638853	-0.150496	-0.974904	-0.163929	0.242056	2.4114	-8.51613	-0.0294045	-0.0159638	0.041444	-0.415283	-0.321777	0.949707	0.0570901	0.268636	-0.918505	0.284472	2.37825	-4.71981	-8.14545	-0.00118478	-0.00988505	-0.0143069	-0.595703	0.47998	0.720703	0.0155443	0.272263	-0.96192	0.0184873	0.393677	-0.159014	-9.6794	0.0395658	0.00433454	-0.0149123	-0.408203	-0.214844	1.02002	-0.0802512	-0.348868	-0.72042	-0.594008	2.40802	7.29308	-2.6363	0.0316606	0.00904626	-0.0145857	-0.707031	-0.706543	0.578125	-0.249128	0.157006	-0.954224	0.0523613	-4.18514	-1.54013	-7.8415	0.00891988	0.00221661	-0.0334574	0.140625	0.0673828	1.06934	0.801134	-0.116789	-0.550313	-0.204208	9.56819	0.419608	3.8634	0.0052848	0.0194355	-0.00467506	-0.89624	0.0666504	-0.595703	-0.132797	0.343808	-0.923897	0.102835	-1.45592	-2.32586	-8.68162	0.083896	-0.000100123	-0.040626	-0.192627	0.336426	1.01465	0.815242	-0.0539711	-0.574864	0.0447029	9.37325	-1.31699	3.4412	-0.0074529	0.00902962	0.0184892	-0.82251	0.125488	-0.666992	-0.057164	0.124043	-0.92657	-0.350448	-1.7909	6.18039	-7.30717	0.0261382	0.00305635	-0.00299853	-0.262451	-0.803955	0.835693	
38	-0.431897	0.0164962	-0.901722	0.00953168	-6.93173	-0.248927	-5.60881	0.0224874	0.0123329	-0.0334142	0.655273	-0.166748	0.948242	-0.226927	-0.00635102	-0.973848	-0.00918055	-4.46974	0.256766	-8.41415	0.0113913	0.0244681	-0.0192566	0.282227	-0.251221	1.15112	0.0064294	-0.150336	-0.974984	-0.163596	0.593864	2.72822	-8.38928	0.0559138	0.0344372	-0.0307148	-0.413086	-0.317627	0.951904	0.0571554	0.268614	-0.918681	0.283909	2.38192	-4.95774	-8.16906	-0.00752218	0.00357817	-0.0011465	-0.595947	0.486572	0.718506	0.015764	0.272177	-0.961944	0.0183261	0.209784	-0.11091	-9.81619	-0.020329	0.0218802	-0.0180209	-0.412598	-0.212646	1.02222	-0.0801289	-0.3492	-0.720626	-0.59358	2.36231	7.41471	-2.5625	0.0277584	0.0151614	-0.0111872	-0.702637	-0.708496	0.578125	-0.249094	0.156817	-0.954267	0.0523019	-4.36368	-1.44462	-7.97571	0.0274561	0.0183553	-0.0186005	0.140869	0.0651855	1.06299	0.801306	-0.11692	-0.550245	-0.203637	9.64978	0.373992	3.82493	0.0156638	0.0227847	0.00743873	-0.887939	0.0710449	-0.593506	-0.132933	0.343979	-0.923728	0.103608	-1.44508	-2.34433	-8.69413	0.0228874	0.0154197	-0.0256198	-0.199707	0.336426	1.00562	0.815163	-0.0544104	-0.574922	0.0448602	9.41007	-1.40863	3.36723	-0.010929	0.0106043	0.0150473	-0.82251	0.127686	-0.666992	-0.057129	0.124005	-0.926689	-0.350152	-1.79744	6.19912	-7.28378	0.00910362	0.012387	-0.00401721	-0.264648	-0.806152	0.831055	
39	-0.432078	0.0164701	-0.901635	0.00955389	-6.93993	-0.216829	-5.62273	0.00143736	-0.0171215	-0.000842794	0.648926	-0.171143	0.952393	-0.226935	-0.00607183	-0.973842	-0.00978441	-4.24021	0.285033	-8.65656	-0.0251486	0.0445757	-0.0212118	0.281982	-0.246826	1.15576	0.00663267	-0.150374	-0.9751	-0.162862	0.397228	2.55583	-8.50776	0.064155	0.0105151	-0.00213761	-0.413086	-0.317627	0.947266	0.0571866	0.268376	-0.918644	0.28425	2.59196	-4.65526	-8.10767	-0.00542647	0.0109886	0.0113883	-0.59375	0.484375	0.714111	0.0158796	0.27199	-0.961995	0.0182817	0.450302	-0.118217	-9.63246	-0.00721334	0.0157842	-0.0137555	-0.405273	-0.228027	1.01318	-0.0798892	-0.348931	-0.720837	-0.593514	2.37761	7.32129	-2.61028	0.0113499	0.0212508	-0.0128038	-0.707275	-0.702148	0.582275	-0.249517	0.157142	-0.954137	0.0516693	-4.10854	-1.43046	-8.05072	-0.00122661	0.000198547	-0.012908	0.142822	0.0673828	1.06494	0.801534	-0.116965	-0.550036	-0.20328	9.59951	0.426218	3.88028	0.00460473	0.024403	-0.00236	-0.892334	0.0710449	-0.598145	-0.132797	0.343896	-0.923766	0.103714	-1.43711	-2.34185	-8.71181	0.0112661	0.0206682	-0.0172477	-0.192383	0.332031	1.00586	0.815215	-0.0543236	-0.574812	0.0454445	9.43486	-1.42002	3.35617	0.0289976	0.0166923	0.021042	-0.817871	0.125488	-0.666992	-0.0567765	0.12434	-0.926729	-0.349985	-1.78325	6.2368	-7.25843	-0.00300284	0.0295199	-0.0174305	-0.264648	-0.803955	0.837891	
40	-0.430477	0.0165987	-0.902398	0.00962762	-6.93053	-0.19275	-5.69892	-0.0317038	0.0429834	0.00905542	0.650879	-0.168945	0.952393	-0.226954	-0.00620332	-0.973837	-0.00979244	-4.17387	0.154285	-8.64363	-0.0314735	-0.0106137	-0.0207089	0.284424	-0.255615	1.14893	0.0068105	-0.150735	-0.975159	-0.162164	0.348626	2.64068	-8.52411	0.0229941	0.0272678	0.0204136	-0.415283	-0.313232	0.951904	0.0571229	0.268154	-0.918822	0.283896	2.51149	-4.84133	-8.14584	-0.0114842	0.00624305	0.012057	-0.595703	0.482178	0.711914	0.0162038	0.272406	-0.961873	0.0182218	0.210585	-0.222738	-9.76123	0.0240097	0.0118061	-0.0306236	-0.403564	-0.221436	1.00854	-0.0793397	-0.348514	-0.721143	-0.593462	2.47878	7.31785	-2.63165	0.00854686	0.0457779	-0.0236793	-0.705322	-0.699951	0.57373	-0.249649	0.157283	-0.954071	0.0518178	-4.32086	-1.62443	-7.91172	0.00550095	-0.0162167	-0.0375565	0.143066	0.060791	1.06299	0.801524	-0.11749	-0.549947	-0.203257	9.57905	0.341683	3.83835	-0.00119843	0.0140409	-0.00436924	-0.894287	0.0710449	-0.600342	-0.131988	0.343578	-0.924025	0.103494	-1.44041	-2.32977	-8.69259	-0.00789174	0.0342771	-0.0139736	-0.197266	0.338867	1.00562	0.815277	-0.0542469	-0.574689	0.04597	9.39436	-1.29425	3.41422	0.00931855	0.0150088	0.0151719	-0.820068	0.123291	-0.671387	-0.0561397	0.124957	-0.926702	-0.34994	-1.8388	6.20115	-7.36575	0.00399502	0.0407679	-0.0196424	-0.269043	-0.810547	0.835693	
41	-0.430477	0.0165987	-0.902398	0.00962762	-6.93053	-0.19275	-5.69892	-0.0317038	0.0429834	0.00905542	0.650879	-0.168945	0.952393	-0.226925	-0.00602197	-0.973843	-0.00996733	-4.11155	0.306323	-8.58839	-0.0218765	0.0153693	-0.0306811	0.279785	-0.246826	1.15112	0.00646541	-0.150917	-0.974937	-0.163342	0.430898	2.71466	-8.55719	-0.0963178	-0.0114526	0.0051353	-0.413086	-0.317627	0.951904	0.0573025	0.267909	-0.918874	0.283923	2.65509	-4.7903	-8.19942	-0.00215735	0.0213886	0.0122695	-0.593506	0.47998	0.711914	0.0161645	0.272321	-0.961888	0.0187694	0.548043	-0.0949242	-9.57072	0.0433925	0.0167827	-0.00992032	-0.405762	-0.217041	1.01294	-0.0791866	-0.348255	-0.721415	-0.593304	2.40083	7.29797	-2.68514	0.0271828	0.0325876	-0.0329042	-0.705078	-0.704346	0.575928	-0.249845	0.157471	-0.954005	0.0515171	-4.17448	-1.44638	-7.97161	-0.00465346	-0.0104039	-0.0262055	0.140869	0.0629883	1.06519	0.801629	-0.117534	-0.549843	-0.2031	9.62013	0.356637	3.87908	0.00663787	0.0252499	-0.00327906	-0.890137	0.0754395	-0.595703	-0.131591	0.343436	-0.9242	0.102908	-1.42216	-2.34824	-8.71347	-0.0484435	0.0236145	-0.00522809	-0.199707	0.336426	1.00806	0.815252	-0.0542958	-0.574709	0.0461025	9.43061	-1.37927	3.36924	0.00319979	0.00870744	0.0129257	-0.817871	0.121094	-0.666748	-0.0559069	0.125242	-0.926666	-0.349971	-1.83619	6.16699	-7.41558	-0.00455232	0.0309902	-0.0207879	-0.266846	-0.80835	0.835693	
42	-0.429382	0.0173216	-0.902904	0.00980283	-6.89839	-0.263742	-5.68613	-0.0605239	0.0356502	0.0132832	0.646729	-0.171143	0.956787	-0.226767	-0.00615167	-0.97388	-0.00985382	-4.25859	0.278147	-8.63325	-0.0234601	-0.0112055	-0.0178473	0.28418	-0.246826	1.14404	0.00680656	-0.151114	-0.97497	-0.162945	0.403224	2.50038	-8.47544	0.0763732	0.0155613	0.0286867	-0.413086	-0.31543	0.954102	0.0573587	0.267677	-0.918959	0.283853	2.37302	-4.86428	-8.19609	-0.02402	0.00824486	0.00683385	-0.595459	0.477783	0.718506	0.0163206	0.273032	-0.961689	0.0184585	0.193965	-0.206552	-9.88266	-0.0152286	0.00141521	-0.04943	-0.412354	-0.217041	1.01758	-0.0790433	-0.348291	-0.721942	-0.59266	2.4379	7.2487	-2.79763	0.0277734	0.00726685	-0.0097796	-0.707275	-0.699951	0.580078	-0.249964	0.15726	-0.953995	0.051771	-4.20086	-1.58169	-7.93495	0.0250643	-0.00348349	-0.0193446	0.143066	0.060791	1.06934	0.801712	-0.118019	-0.549562	-0.203248	9.54071	0.361657	3.91803	-0.0115852	0.01613	-0.0124535	-0.896973	0.0795898	-0.595947	-0.131161	0.343012	-0.924525	0.101941	-1.44186	-2.30463	-8.73418	-0.0299182	0.0137454	-0.00110534	-0.199219	0.32959	1.01465	0.815312	-0.0543333	-0.574589	0.0464853	9.3764	-1.41996	3.42186	0.0118622	0.0161188	0.0143029	-0.817871	0.121094	-0.669189	-0.0556706	0.125591	-0.926627	-0.349987	-1.8071	6.10738	-7.36402	0.00730809	0.016447	-0.0112675	-0.264404	-0.812744	0.840332	
43	-0.428936	0.017323	-0.903112	0.0101493	-6.93844	-0.263374	-5.59966	0.0280837	0.0377949	-0.0136617	0.64209	-0.169189	0.95459	-0.226682	-0.00604297	-0.973903	-0.00960053	-4.24669	0.280643	-8.53499	0.00931531	0.0319498	-0.0220749	0.283936	-0.244629	1.14868	0.00672809	-0.150878	-0.975127	-0.162229	0.752802	2.75143	-8.3796	0.0308711	0.0158608	-0.047054	-0.415283	-0.31543	0.947266	0.0574432	0.267468	-0.918908	0.284199	2.48421	-4.71153	-8.16624	0.00453403	0.00922874	0.00421541	-0.595703	0.482178	0.716309	0.0162789	0.272655	-0.961787	0.01898	0.396868	-0.227218	-9.76653	0.0154057	0.0157234	0.0042143	-0.407959	-0.219238	1.00854	-0.0790181	-0.348447	-0.721712	-0.592851	2.20743	7.3659	-2.71873	-0.00590948	0.0189738	-0.0151723	-0.716064	-0.699951	0.580078	-0.250129	0.157102	-0.95398	0.0517302	-4.24721	-1.36093	-8.12384	0.0324028	0.0127982	-0.00434209	0.14502	0.0651855	1.06079	0.80175	-0.118005	-0.549622	-0.202947	9.62079	0.338506	3.8689	0.00997047	0.0165616	-0.00715583	-0.887939	0.0732422	-0.591064	-0.130903	0.342849	-0.924684	0.101383	-1.42207	-2.27605	-8.7597	-0.00740454	0.00913204	-0.0155611	-0.197266	0.338867	1.00562	0.815327	-0.0543553	-0.574557	0.0465971	9.41261	-1.32407	3.41282	-0.00571092	0.014555	0.00456513	-0.817871	0.125488	-0.666992	-0.0556586	0.125505	-0.926618	-0.350042	-1.80877	6.15659	-7.35367	-0.00798814	0.00257678	-0.0029224	-0.266846	-0.803955	0.840088	
44	-0.428859	0.0171123	-0.903159	0.00956819	-6.87408	-0.151643	-5.75828	-0.0130444	-0.0441411	0.0111807	0.646729	-0.171143	0.95459	-0.226895	-0.00602429	-0.973848	-0.010086	-4.14275	0.25731	-8.66102	-0.0301135	0.0127288	-0.0179168	0.286377	-0.251221	1.15112	0.00715607	-0.151391	-0.975144	-0.161628	0.326772	2.61678	-8.58003	-0.00469814	-0.0092164	0.0302335	-0.413086	-0.317627	0.954102	0.0577294	0.267086	-0.919082	0.283939	2.67968	-4.80825	-8.16161	-0.00210866	0.0175621	0.0130071	-0.5979	0.482178	0.714111	0.0162535	0.27219	-0.96192	0.0189224	0.449718	-0.053366	-9.68322	-0.00659252	0.00692584	0.00386193	-0.409912	-0.221436	1.01538	-0.0789277	-0.348455	-0.72148	-0.593141	2.51422	7.34817	-2.63406	-0.0200799	0.0194543	-0.0106885	-0.705322	-0.699951	0.582275	-0.250671	0.157284	-0.95385	0.0509509	-4.13323	-1.50538	-7.85774	-0.0241872	-0.0210257	-0.0144278	0.147217	0.0673828	1.05859	0.801691	-0.118121	-0.549679	-0.202957	9.57155	0.367732	3.88789	0.00863731	0.0104946	-0.015194	-0.892578	0.0795898	-0.595947	-0.130786	0.342822	-0.924743	0.101089	-1.43303	-2.28831	-8.73697	-0.0104212	0.00411801	-0.0099479	-0.20166	0.332031	1.00806	0.815147	-0.0548385	-0.574784	0.0463802	9.42063	-1.40774	3.38412	-0.0105253	-0.00120737	0.00650079	-0.820312	0.129883	-0.671631	-0.0556997	0.125402	-0.926659	-0.349965	-1.76784	6.22891	-7.31	0.0112949	0.0061892	-0.00413569	-0.268799	-0.812744	0.833496	
45	-0.429154	0.0173449	-0.903001	0.0107409	-6.92016	-0.31217	-5.58716	0.0296019	0.0126811	-0.0244895	0.644531	-0.171143	0.95459	-0.226739	-0.00615156	-0.973889	-0.00961139	-4.3766	0.174461	-8.60321	0.0285546	0.00108401	-0.0193892	0.277588	-0.249023	1.15356	0.00701058	-0.151206	-0.975156	-0.161735	0.723519	2.53922	-8.3	0.025086	0.0106595	-0.0109295	-0.413086	-0.317627	0.947266	0.0577014	0.266701	-0.919089	0.284282	2.35058	-4.71355	-8.09392	0.0153919	0.00609262	0.017272	-0.595947	0.486572	0.709473	0.0167101	0.271732	-0.962068	0.017543	0.286136	-0.0971923	-9.65658	-0.0778268	0.0060821	-0.0165057	-0.407715	-0.221436	1.02222	-0.0791596	-0.348468	-0.721303	-0.593317	2.31599	7.32334	-2.48502	0.0121331	0.0127951	-0.0219229	-0.707275	-0.702148	0.578125	-0.250236	0.156698	-0.954029	0.0515334	-4.29459	-1.48585	-8.11149	0.0587554	0.0433557	-0.00762059	0.147461	0.060791	1.06519	0.80161	-0.118452	-0.549693	-0.203047	9.60268	0.403183	3.89782	-0.0173547	0.0108193	-0.0157153	-0.892578	0.0795898	-0.598145	-0.130878	0.34238	-0.925013	0.0999905	-1.42161	-2.26492	-8.75481	-0.0322977	-0.0148078	0.00670791	-0.197266	0.336426	1.01025	0.81514	-0.054722	-0.574799	0.0464675	9.33909	-1.41667	3.41218	0.0032396	0.0100691	0.00130021	-0.815674	0.125732	-0.666992	-0.0557298	0.125396	-0.926616	-0.350075	-1.76431	6.13519	-7.30662	-0.00549618	0.00566922	-0.00754982	-0.27124	-0.806152	0.831055	
46	-0.430146	0.01721	-0.902535	0.0104501	-6.91475	-0.17172	-5.63364	0.00881382	-0.0649038	-0.00128296	0.648926	-0.17334	0.950195	-0.226808	-0.0061366	-0.973868	-0.0100548	-4.20108	0.258594	-8.66427	-0.0247258	0.0323654	-0.0172927	0.275635	-0.249023	1.14648	0.00712077	-0.151703	-0.975001	-0.162201	0.281965	2.73817	-8.60838	-0.0471411	0.0129006	0.000924571	-0.419678	-0.313232	0.947266	0.0581497	0.265882	-0.919396	0.283964	2.50208	-4.79193	-8.16334	-0.0208133	0.0225205	0.0255216	-0.591064	0.477783	0.716309	0.0166734	0.271896	-0.962009	0.0182783	0.518177	-0.267694	-9.75803	0.076707	0.0266776	-0.0187216	-0.407715	-0.223633	1.01758	-0.0789336	-0.348355	-0.721903	-0.592684	2.44656	7.35135	-2.68067	0.0303888	0.0148017	-0.0238499	-0.709473	-0.702148	0.580322	-0.250276	0.1571	-0.953949	0.0516003	-4.23562	-1.52433	-7.9303	0.00860058	0.00280631	-0.0252923	0.14502	0.0651855	1.06494	0.801504	-0.118611	-0.549659	-0.203463	9.62269	0.330887	3.85506	-0.011509	0.00759687	-0.0191318	-0.887939	0.0732422	-0.598145	-0.13087	0.341975	-0.92523	0.0993823	-1.47232	-2.23505	-8.75664	-0.00982551	0.00980902	-0.00879949	-0.192139	0.327393	1.00806	0.815057	-0.0548273	-0.5749	0.0465328	9.46211	-1.35569	3.3948	0.000620272	0.00728919	0.00894698	-0.82251	0.127686	-0.671631	-0.0557803	0.125461	-0.926742	-0.349712	-1.80792	6.20826	-7.35183	0.0220653	0.00564398	-0.00768948	-0.269287	-0.803955	0.837891	
47	-0.429889	0.0171983	-0.902655	0.0106743	-6.9224	-0.239972	-5.633	-0.00883627	0.0249594	0.0030097	0.648682	-0.166748	0.943848	-0.227026	-0.0061115	-0.973824	-0.0094135	-4.29302	0.272442	-8.45166	0.0171297	-0.0218222	-0.0242958	0.281982	-0.246826	1.14648	0.00734346	-0.151249	-0.97505	-0.16232	0.514522	2.40901	-8.42522	0.0290804	0.00603121	-0.00670298	-0.415283	-0.313232	0.95874	0.0580738	0.265985	-0.919268	0.2843	2.3013	-4.70531	-8.25111	0.0116744	-0.00729842	-0.00761209	-0.595703	0.482178	0.714111	0.0163566	0.272279	-0.961869	0.0201158	0.180351	-0.0709206	-9.78891	0.0530046	0.00415641	-0.0392366	-0.403564	-0.219238	1.02002	-0.0787726	-0.348415	-0.722592	-0.59183	2.36256	7.34145	-2.71952	0.0506096	0.0105907	-0.02644	-0.705078	-0.704346	0.584473	-0.249819	0.156907	-0.954069	0.0521835	-4.24248	-1.51882	-7.83096	0.0425713	0.00834793	-0.0264376	0.145264	0.0629883	1.06079	0.801452	-0.118482	-0.549821	-0.203308	9.58331	0.366313	3.87373	0.0152334	0.00960893	-0.0157405	-0.890137	0.0732422	-0.598145	-0.130847	0.341994	-0.925224	0.0993993	-1.44808	-2.24219	-8.74526	0.00558204	0.00728252	-0.0250616	-0.197021	0.332031	1.00806	0.815033	-0.0549572	-0.574928	0.046468	9.3862	-1.37409	3.41421	-0.00578635	0.00861753	0.00151038	-0.820312	0.125488	-0.671631	-0.0558307	0.125459	-0.926742	-0.349703	-1.8438	6.14921	-7.35094	0.00334131	0.0052522	-0.00705281	-0.266602	-0.814941	0.835938	
48	-0.430867	0.0177108	-0.902165	0.0117062	-6.9347	-0.266416	-5.63391	0.0392246	-0.060208	-0.045736	0.650879	-0.166748	0.952393	-0.227064	-0.0058478	-0.973813	-0.00976896	-4.21413	0.287776	-8.48795	-0.0200521	0.0382902	-0.0265351	0.281982	-0.246826	1.14404	0.00689396	-0.15129	-0.975102	-0.16199	0.671995	2.82879	-8.3618	0.00477199	-0.00347414	-0.0316723	-0.419678	-0.315186	0.954102	0.0579469	0.26622	-0.919159	0.284458	2.57273	-4.76687	-8.11963	0.0124769	-0.00117776	-0.00607017	-0.600342	0.482178	0.714111	0.0162575	0.27202	-0.961931	0.0207378	0.505834	-0.200559	-9.66704	0.0175999	0.0216279	-0.000748701	-0.407959	-0.217041	1.01538	-0.0787593	-0.348394	-0.723025	-0.591315	2.31024	7.32517	-2.63762	0.013091	0.009579	-0.0223034	-0.705078	-0.702148	0.580078	-0.24968	0.157041	-0.954105	0.0517907	-4.31395	-1.38969	-8.17322	0.00048219	0.0258349	-0.00811713	0.145264	0.0629883	1.06519	0.801386	-0.118679	-0.549877	-0.203299	9.6295	0.445152	3.85443	-0.00109062	0.0129008	-0.0166073	-0.89209	0.0688477	-0.600342	-0.131106	0.342256	-0.925023	0.100023	-1.45192	-2.23849	-8.7612	0.0287725	0.000218403	-0.0267875	-0.192139	0.327393	1.00586	0.814925	-0.0550969	-0.575077	0.0463414	9.4103	-1.41961	3.34692	-0.0152251	-0.00215428	2.04985e-05	-0.822266	0.121094	-0.671387	-0.0558925	0.125461	-0.926756	-0.349656	-1.75646	6.15551	-7.30116	-0.00147046	0.00732516	-0.00886574	-0.266846	-0.806152	0.837891	
49	-0.431262	0.0178421	-0.901972	0.0118725	-6.93317	-0.319361	-5.59023	0.00864924	-0.037531	-0.0170399	0.650879	-0.166748	0.950195	-0.227163	-0.00577928	-0.973791	-0.00973454	-4.39115	0.292728	-8.5547	-0.00439245	0.0045932	-0.024958	0.275635	-0.249023	1.14648	0.00689396	-0.15129	-0.975102	-0.16199	0.671995	2.82879	-8.3618	0.00477199	-0.00347414	-0.0316723	-0.419678	-0.315186	0.954102	0.0578822	0.266024	-0.9193	0.284199	2.43259	-4.81223	-8.17067	-0.0229747	-0.000114142	0.0102998	-0.595703	0.47998	0.716309	0.0163668	0.272004	-0.961944	0.0202427	0.247708	-0.062344	-9.79362	-0.0298732	0.00437803	-0.0144631	-0.416748	-0.217041	1.02002	-0.0783261	-0.348275	-0.723896	-0.590376	2.41684	7.26177	-2.71789	0.0936182	0.0161858	-0.032242	-0.703125	-0.695557	0.582031	-0.24968	0.157041	-0.954105	0.0517907	-4.31395	-1.38969	-8.17322	0.00048219	0.0258349	-0.00811713	0.145264	0.0629883	1.06519	0.801413	-0.118622	-0.549871	-0.203246	9.63932	0.406815	3.83735	0.00684732	0.0179387	-0.0171273	-0.892578	0.0795898	-0.598145	-0.131106	0.342256	-0.925023	0.100023	-1.45192	-2.23849	-8.7612	0.0287725	0.000218403	-0.0267875	-0.192139	0.327393	1.00586	0.815051	-0.0548832	-0.574887	0.0467283	9.40989	-1.42545	3.37954	0.0158902	0.0137436	0.00879602	-0.818115	0.129883	-0.669434	-0.0558478	0.125472	-0.926807	-0.349525	-1.82143	6.14921	-7.31	0.0123473	0.0118086	-0.0055537	-0.269287	-0.803955	0.833252	
50	-0.431549	0.0178281	-0.901837	0.0117556	-6.93075	-0.273118	-5.56028	0.00250724	-0.00327729	-0.000364182	0.650635	-0.162354	0.950195	-0.226895	-0.0056822	-0.973847	-0.0104254	-4.26646	0.31031	-8.57591	-0.029678	0.0390882	-0.00789713	0.279785	-0.249023	1.14648	0.00670991	-0.151467	-0.975016	-0.162344	0.353519	2.70164	-8.42171	-0.0553638	-0.0192653	0.00341219	-0.406738	-0.31543	0.951904	0.0577704	0.265985	-0.919415	0.283885	2.53544	-4.78153	-8.20631	-0.0218825	-0.00976137	0.00703244	-0.595703	0.482178	0.718506	0.016914	0.271931	-0.96197	0.0195396	0.4355	-0.0933451	-9.63477	-0.0651887	0.0339895	-0.0164233	-0.412354	-0.219238	1.01074	-0.0780534	-0.348249	-0.724755	-0.589373	2.40105	7.43006	-2.59137	0.108249	0.00991666	-0.0358198	-0.707275	-0.699951	0.584473	-0.249928	0.157612	-0.953964	0.0514501	-4.27485	-1.41063	-8.03438	-0.0133061	-0.00429603	-0.0203101	0.145264	0.060791	1.06738	0.801494	-0.118626	-0.549815	-0.203074	9.61869	0.326134	3.80824	0.00312002	0.018744	-0.00870959	-0.890381	0.0795898	-0.593506	-0.131125	0.342395	-0.924946	0.100235	-1.45912	-2.26118	-8.73058	-0.0128667	0.0119456	-0.0172809	-0.197021	0.32959	1.01245	0.815034	-0.0548318	-0.574916	0.0467332	9.43462	-1.37732	3.36072	-0.00346059	0.00747609	0.0015439	-0.820312	0.127686	-0.669189	-0.0558425	0.125587	-0.926844	-0.349384	-1.76798	6.182	-7.32881	0.000124901	0.00991705	-0.014233	-0.266602	-0.812744	0.831299	
51	-0.430452	0.0178061	-0.902356	0.0121519	-6.9453	-0.242948	-5.67538	0.0163595	0.0470708	-0.0162159	0.64624	-0.164551	0.947998	-0.227111	-0.00646604	-0.973781	-0.011355	-4.2759	0.307308	-8.60388	-0.0571113	-0.0273344	0.0144633	0.277832	-0.255615	1.14429	0.00607405	-0.151741	-0.974916	-0.162715	0.526249	2.55193	-8.37508	-0.01737	-0.0213888	0.00302851	-0.415283	-0.317627	0.951904	0.0572088	0.266086	-0.919452	0.283784	2.24797	-4.74568	-8.05324	-0.0167721	-0.0163992	0.00971878	-0.59375	0.484375	0.716309	0.0172974	0.271988	-0.961972	0.0182416	0.387135	-0.268158	-9.79643	-0.0307116	0.000276687	-0.0201652	-0.407715	-0.223633	1.01074	-0.0777646	-0.347976	-0.725057	-0.589201	2.34674	7.22587	-2.75203	0.00314672	0.0369784	-0.019731	-0.703125	-0.697754	0.588623	-0.249922	0.157772	-0.953962	0.0510186	-4.37247	-1.37452	-7.98385	-0.0169717	0.00488082	-0.0214661	0.143066	0.0651855	1.06714	0.801554	-0.118833	-0.549625	-0.203229	9.58758	0.372755	3.8818	0.000888294	0.024263	-0.0147029	-0.887939	0.0732422	-0.595703	-0.131001	0.342305	-0.925044	0.0997979	-1.44266	-2.24511	-8.73654	-0.00970863	0.00577866	-0.0155081	-0.196777	0.327393	1.00806	0.815101	-0.054982	-0.574787	0.0469699	9.40453	-1.41254	3.37535	0.00682978	0.0149407	0.0156415	-0.820312	0.125488	-0.669189	-0.0556094	0.125836	-0.926779	-0.349505	-1.81036	6.14659	-7.30391	-0.0023855	0.0203631	-0.0106082	-0.269043	-0.810547	0.833496	
52	-0.429574	0.0180098	-0.902759	0.0129851	-6.95625	-0.298346	-5.61923	0.015603	0.0419999	-0.016233	0.64624	-0.164795	0.95459	-0.227146	-0.00598809	-0.973764	-0.012315	-4.30918	0.377733	-8.50194	-0.0245525	0.015386	-0.0247801	0.282471	-0.257812	1.14673	0.00559445	-0.152225	-0.974709	-0.163518	0.403478	2.81245	-8.52161	-0.0341892	-0.0155258	0.0145568	-0.415283	-0.319824	0.949707	0.057106	0.265854	-0.919866	0.282678	2.41465	-4.73797	-8.35728	-0.0287386	-0.0118071	0.00445814	-0.59375	0.486572	0.720703	0.0179373	0.271598	-0.962077	0.0179152	0.18053	-0.133133	-9.80469	-0.0155979	0.0277466	-0.00136621	-0.407959	-0.219238	1.01538	-0.0773027	-0.347646	-0.725474	-0.588944	2.2562	7.40387	-2.80337	0.024538	0.032107	-0.0145844	-0.70752	-0.697754	0.582275	-0.250298	0.158551	-0.953798	0.0498299	-4.21371	-1.42447	-7.95749	-0.0276698	-0.0133675	-0.018026	0.147705	0.0544434	1.06543	0.8018	-0.11872	-0.549283	-0.203251	9.60422	0.360735	3.87574	0.00322172	0.025506	-0.00853626	-0.892334	0.0732422	-0.595703	-0.130832	0.342282	-0.925047	0.100072	-1.45877	-2.23791	-8.76795	0.0220877	0.0181828	-0.0252458	-0.189941	0.327393	1.00806	0.815133	-0.0547794	-0.574732	0.0473414	9.39298	-1.37252	3.41245	0.0127172	0.0127948	0.00894955	-0.82251	0.127686	-0.669189	-0.0553279	0.126119	-0.926679	-0.349713	-1.78507	6.15443	-7.33239	-0.0128703	0.0179694	-0.0120607	-0.264404	-0.80835	0.835693	
53	-0.428662	0.0180142	-0.903196	0.0126969	-6.92917	-0.257002	-5.72135	-0.0179606	0.020799	0.00518327	0.641846	-0.162598	0.95874	-0.227318	-0.00588468	-0.973715	-0.013103	-4.15997	0.212315	-8.63564	-0.0385766	0.0219543	-0.0243738	0.278076	-0.257812	1.14453	0.00559988	-0.152376	-0.974605	-0.164	0.324287	2.63191	-8.72265	-0.022181	-0.0157646	0.00650329	-0.410889	-0.319824	0.951904	0.0569777	0.266028	-0.919898	0.282436	2.55829	-4.74817	-8.24752	-0.0151053	0.00614933	-0.00220252	-0.5979	0.477783	0.718506	0.0178429	0.271817	-0.962021	0.0176787	0.334021	-0.0476254	-9.73918	-0.00808787	-0.00228211	-0.0172015	-0.409912	-0.223633	1.01538	-0.0771737	-0.347805	-0.724871	-0.589608	2.42377	7.19489	-2.73406	-0.0275296	0.0192992	0.002437	-0.70752	-0.695557	0.580078	-0.25051	0.15887	-0.95374	0.0488468	-4.25533	-1.51641	-7.8708	-0.0297507	-0.031144	-0.0225083	0.147705	0.0566406	1.06738	0.801957	-0.118257	-0.549318	-0.202806	9.60026	0.311326	3.85788	0.0313298	0.0228654	-0.0112073	-0.892334	0.0732422	-0.593506	-0.130883	0.342301	-0.924954	0.1008	-1.44353	-2.25505	-8.73377	0.0375485	0.0170765	-0.0303814	-0.197266	0.336426	1.00806	0.81517	-0.054873	-0.574678	0.0472561	9.38225	-1.35708	3.37024	-0.00316509	0.0137793	0.00364983	-0.815918	0.12793	-0.664795	-0.0553092	0.126083	-0.926656	-0.349789	-1.81409	6.1372	-7.36631	0.00194665	0.00425158	-0.00382076	-0.269043	-0.810547	0.833496	
54	-0.428096	0.0181999	-0.903455	0.0130815	-6.91803	-0.33498	-5.65163	0.00222633	0.0357961	-0.0104412	0.639648	-0.162598	0.954346	-0.227031	-0.00608417	-0.973781	-0.0130456	-4.25178	0.333645	-8.59156	-0.0123297	0.0313118	-0.0108507	0.278076	-0.26001	1.14917	0.00582364	-0.151577	-0.974781	-0.163685	0.679672	2.49528	-8.34877	0.0621519	0.0309438	-0.0290694	-0.415283	-0.319824	0.954346	0.0569891	0.266396	-0.919492	0.283408	2.41013	-4.77256	-8.09713	0.0341062	0.00761406	-0.0221972	-0.593506	0.482178	0.716309	0.0182269	0.271759	-0.962047	0.016723	0.322325	-0.156115	-9.69609	-0.0416957	0.000921454	-0.019974	-0.407959	-0.219238	1.01538	-0.0770508	-0.347907	-0.724667	-0.589815	2.30127	7.29273	-2.65262	0.000898873	0.0192996	-0.0116487	-0.709717	-0.693359	0.582031	-0.250436	0.158717	-0.953766	0.0492049	-4.22305	-1.38827	-8.03203	0.0408741	0.0342542	-0.0190982	0.145508	0.0585938	1.07153	0.80208	-0.118456	-0.549106	-0.202777	9.56741	0.452431	3.94153	-0.0116961	0.0213148	-0.00934014	-0.890137	0.0754395	-0.600586	-0.13114	0.342299	-0.924831	0.101593	-1.44377	-2.27926	-8.74406	0.0371744	0.00448064	-0.0286015	-0.199463	0.332031	1.01025	0.81515	-0.0548743	-0.574683	0.0475243	9.41303	-1.39568	3.41688	0.00535477	0.00985452	0.00867335	-0.82251	0.127686	-0.669189	-0.055312	0.126055	-0.926661	-0.349785	-1.7822	6.18792	-7.28469	0.00418406	0.00677509	-0.00344943	-0.273438	-0.810547	0.831299	
55	-0.427608	0.0181429	-0.903693	0.0127062	-6.89089	-0.276973	-5.7068	-0.00659474	-0.000457664	0.00244182	0.644287	-0.166992	0.956787	-0.226989	-0.00591367	-0.973791	-0.0131483	-4.22551	0.258239	-8.52611	-0.0158336	0.0155122	-0.0301626	0.282227	-0.253418	1.14893	0.00581105	-0.151932	-0.974961	-0.162276	0.443465	2.68666	-8.43985	0.0472365	-0.0141018	-0.00814765	-0.415283	-0.319824	0.95874	0.0570952	0.266458	-0.919422	0.283554	2.46583	-4.85582	-8.11244	0.011931	0.0139845	-0.00841819	-0.595947	0.484375	0.718506	0.0181804	0.271783	-0.962044	0.0166053	0.251296	-0.153502	-9.6906	-0.00875532	0.00197446	-0.0182114	-0.412109	-0.223633	1.01074	-0.0770621	-0.347908	-0.724679	-0.589798	2.4067	7.25268	-2.78313	0.00263925	0.012662	-0.0185265	-0.716309	-0.693359	0.588623	-0.250679	0.158835	-0.953688	0.0491084	-4.25224	-1.45154	-7.97819	0.0123589	-0.0117784	-0.0249287	0.147705	0.0566406	1.06323	0.802078	-0.118345	-0.549243	-0.202476	9.63405	0.33727	3.84645	0.0168732	0.013035	-0.0114644	-0.887939	0.0732422	-0.600342	-0.13123	0.342209	-0.924833	0.101764	-1.42011	-2.30415	-8.73362	0.00279302	0.00333956	-0.0162829	-0.197266	0.334229	1.01025	0.815176	-0.054972	-0.574646	0.0474105	9.36918	-1.36758	3.38182	-0.00509816	0.0100528	0.00350198	-0.818115	0.129883	-0.671631	-0.0553098	0.126018	-0.926658	-0.349808	-1.78174	6.16029	-7.36252	0.00318901	0.00454644	-0.00468698	-0.268799	-0.812744	0.842529	
56	-0.42764	0.0179457	-0.90369	0.0121077	-6.89271	-0.233479	-5.70251	-0.0172459	-0.00779851	0.0125754	0.639648	-0.162598	0.960938	-0.226729	-0.00562474	-0.973855	-0.0129814	-4.30497	0.322762	-8.53594	0.0015588	0.0127792	-0.0150023	0.284668	-0.26001	1.14673	0.00622182	-0.151589	-0.975279	-0.160664	0.590013	2.68203	-8.41507	0.0587263	0.00576898	0.0100248	-0.41333	-0.311035	0.956299	0.0571814	0.266185	-0.919297	0.284197	2.31254	-4.69777	-8.13257	-0.0147931	0.00536802	0.0133487	-0.595703	0.482178	0.714111	0.0179934	0.272022	-0.961971	0.0170879	0.364698	-0.0846841	-9.73476	0.0029953	-0.00168781	-0.0317377	-0.407715	-0.223633	1.00854	-0.0771343	-0.347421	-0.725984	-0.588469	2.39959	7.3014	-2.65397	0.0792021	0.00887807	-0.0485817	-0.707764	-0.689209	0.586182	-0.251026	0.159068	-0.953531	0.0496137	-4.14232	-1.44456	-7.78403	0.0410183	0.00562711	-0.024879	0.145264	0.0629883	1.06934	0.802088	-0.118608	-0.549127	-0.2026	9.54933	0.314471	3.90552	-0.00900419	0.0176495	-0.0180667	-0.883545	0.0710449	-0.591064	-0.131273	0.342126	-0.924875	0.1016	-1.43878	-2.27661	-8.72602	-0.00385126	0.0010448	-0.0130204	-0.197266	0.33667	1.00122	0.815134	-0.0551199	-0.574682	0.0475297	9.38212	-1.43179	3.42496	0.00209206	0.0128845	0.00768462	-0.820068	0.123291	-0.666992	-0.0554152	0.125941	-0.926732	-0.349621	-1.79067	6.17602	-7.30704	0.013166	0.00458313	-0.00240535	-0.266602	-0.810547	0.838135	
57	-0.427976	0.0180429	-0.903522	0.0125927	-6.90813	-0.226273	-5.71415	0.030374	-0.0332743	-0.0269308	0.639893	-0.171387	0.95874	-0.227148	-0.00553071	-0.973756	-0.0131144	-4.26549	0.290652	-8.69082	-0.0180099	-0.0211995	-0.0253858	0.280273	-0.26001	1.15161	0.00601616	-0.152028	-0.975074	-0.161499	0.25493	2.7725	-8.54312	-0.0678508	-0.00772906	0.027644	-0.408936	-0.313232	0.954102	0.0572404	0.265926	-0.91956	0.28358	2.5452	-4.72586	-8.27928	-0.0516604	-0.00104602	0.0188124	-0.59375	0.484375	0.711914	0.0180368	0.27211	-0.961939	0.0174244	0.376853	-0.167522	-9.72803	0.0255377	0.0183368	-0.0245653	-0.40332	-0.22583	1.01318	-0.0772627	-0.34736	-0.726242	-0.58817	2.44498	7.18914	-2.83869	0.0262328	0.00317023	-0.0371094	-0.70752	-0.697754	0.588623	-0.251235	0.159117	-0.953481	0.0493621	-4.22397	-1.48067	-8.13299	0.000550008	-0.0105655	-0.0162064	0.147461	0.060791	1.06519	0.802069	-0.118589	-0.549207	-0.202466	9.55598	0.271016	3.92297	0.0108397	0.00987657	-0.0112408	-0.888184	0.0776367	-0.600586	-0.131301	0.341959	-0.924948	0.101468	-1.42933	-2.27276	-8.76586	0.00346527	0.00376815	-0.0181066	-0.194824	0.334229	1.01025	0.815095	-0.0550554	-0.574741	0.0475529	9.3898	-1.42672	3.4182	0.00424921	0.00631036	0.000285177	-0.817871	0.125488	-0.666992	-0.0554151	0.125942	-0.926762	-0.349542	-1.77253	6.2204	-7.34141	0.0085564	0.00823722	-0.00635539	-0.266846	-0.80835	0.837891	
58	-0.428305	0.0179843	-0.903373	0.0122119	-6.85038	-0.298089	-5.67521	-0.0410201	-0.0201436	0.0342722	0.637451	-0.164795	0.952393	-0.226749	-0.00559071	-0.973852	-0.0128863	-4.25118	0.433783	-8.44559	-0.00368859	0.0449125	-0.0129542	0.278076	-0.255615	1.14917	0.00599163	-0.151666	-0.9747	-0.164079	0.63376	2.45781	-8.43192	-0.069207	0.0212459	-0.0145858	-0.408936	-0.31543	0.954102	0.0571101	0.26589	-0.919605	0.283491	2.34492	-4.83996	-8.08368	-0.0023735	0.00240958	0.00352588	-0.595947	0.484375	0.720703	0.0177001	0.271963	-0.961967	0.0185163	0.27414	-0.0981689	-9.84288	0.0444143	0.000525063	-0.011499	-0.412354	-0.219238	1.00854	-0.0773116	-0.347305	-0.726429	-0.587965	2.38186	7.24521	-2.77837	0.00667934	0.0193074	-0.0199033	-0.70752	-0.697754	0.582275	-0.251385	0.159004	-0.95345	0.0495598	-4.2559	-1.37894	-7.71518	0.0368759	0.00628802	-0.0232536	0.151611	0.0629883	1.06079	0.801953	-0.118704	-0.549344	-0.202491	9.59519	0.402792	3.87528	-0.00733677	0.0110822	-0.0199125	-0.885986	0.0795898	-0.593506	-0.131661	0.341851	-0.924923	0.101591	-1.45067	-2.27703	-8.74552	0.0187268	-0.00448754	-0.0188442	-0.192383	0.332031	1.00146	0.814984	-0.0550873	-0.574897	0.0475367	9.41592	-1.3966	3.41287	-0.00118022	0.00363207	0.00492277	-0.820312	0.129883	-0.666992	-0.0554116	0.126118	-0.92678	-0.349431	-1.79916	6.15019	-7.34948	0.00488419	0.00668273	-0.00966788	-0.266846	-0.806152	0.833496	
59	-0.428574	0.018001	-0.903246	0.0121171	-6.93342	-0.314984	-5.60657	0.000446422	0.0115426	-0.0101409	0.64624	-0.164795	0.95459	-0.226998	-0.00525076	-0.973788	-0.0134565	-4.28141	0.310312	-8.61604	-0.0261509	0.0184128	-0.0377897	0.286865	-0.26001	1.14673	0.00581372	-0.152075	-0.974733	-0.163506	0.500741	2.60411	-8.31436	0.0447982	0.00156702	-0.00176315	-0.410889	-0.322021	0.956543	0.0573453	0.265299	-0.920296	0.281751	2.5122	-4.65722	-8.15087	-0.109572	-0.00832874	0.0251339	-0.593506	0.47998	0.720703	0.0177258	0.271719	-0.962021	0.0192558	0.488605	-0.0103855	-9.62918	0.0148448	0.0276098	-0.00480212	-0.407715	-0.223633	1.01758	-0.0771354	-0.347401	-0.726625	-0.587689	2.35053	7.24577	-2.65934	0.014585	0.0121422	-0.0137307	-0.703125	-0.695557	0.584229	-0.251271	0.158854	-0.953533	0.0490319	-4.28934	-1.4345	-8.21677	-0.000609716	0.0235526	0.000941378	0.145264	0.060791	1.06079	0.801858	-0.11874	-0.54948	-0.202475	9.58837	0.348289	3.86592	0.0035237	0.0106244	-0.0165678	-0.892334	0.0751953	-0.588867	-0.13186	0.341735	-0.924922	0.101734	-1.43285	-2.30649	-8.71714	0.00699973	0.00341928	-0.0160798	-0.199463	0.334229	1.00586	0.814758	-0.0551232	-0.575212	0.0475554	9.39077	-1.39326	3.38111	-0.00251707	-0.00376769	0.00226434	-0.815918	0.12793	-0.669189	-0.0554939	0.126177	-0.926792	-0.349367	-1.80464	6.14225	-7.34319	0.00155611	0.00552012	-0.00998653	-0.264648	-0.806152	0.842529	
60	-0.428868	0.0177199	-0.903124	0.0112238	-6.90418	-0.171762	-5.74448	-0.0198762	-0.046534	0.0203125	0.644043	-0.162598	0.950195	-0.226929	-0.00452764	-0.973779	-0.0153723	-4.24936	0.458792	-8.57925	-0.109584	0.0424542	-0.0188712	0.280518	-0.268799	1.14233	0.00562957	-0.152623	-0.974726	-0.163047	0.53708	2.84883	-8.42545	-0.00389627	-0.0248797	0.0212768	-0.413086	-0.319824	0.956543	0.0572997	0.264392	-0.921137	0.279856	2.39121	-4.53609	-8.15709	-0.0648391	-0.00937999	0.0408994	-0.593262	0.475586	0.720703	0.0181916	0.271866	-0.961963	0.019649	0.350826	-0.161003	-9.7578	0.0323399	0.037464	-0.025272	-0.412109	-0.221436	1.01294	-0.07705	-0.347689	-0.727186	-0.586836	2.40846	7.19571	-2.71361	0.0607714	-0.00437402	-0.01721	-0.70752	-0.697754	0.588623	-0.251551	0.158763	-0.953539	0.0477403	-4.25596	-1.36576	-7.60378	-0.0444024	-0.0257209	-0.000529838	0.147705	0.0544434	1.06738	0.801785	-0.118659	-0.549517	-0.20271	9.592	0.371882	3.87859	-2.36186e-05	0.00778431	-0.0186694	-0.89209	0.0710449	-0.595703	-0.132204	0.341433	-0.925028	0.101335	-1.44589	-2.27609	-8.77015	-0.000553383	-0.0104984	-0.01015	-0.19458	0.329834	1.00586	0.814517	-0.0553915	-0.575528	0.0475457	9.43282	-1.45235	3.34173	-0.00819744	-0.0047158	0.0127811	-0.820312	0.127686	-0.669189	-0.0554347	0.12633	-0.926809	-0.349274	-1.79059	6.19531	-7.3117	0.0109973	0.013018	-0.0141672	-0.269043	-0.80835	0.833496	
61	-0.429913	0.0178831	-0.902608	0.0123674	-6.92443	-0.305252	-5.60776	0.035956	-0.0341393	-0.0261828	0.650879	-0.166748	0.952393	-0.227305	-0.00502844	-0.973683	-0.0157681	-4.1177	0.243982	-8.56232	-0.0132765	-0.0234475	-0.00255266	0.275879	-0.26001	1.15161	0.00529315	-0.152728	-0.974262	-0.165712	0.363104	2.78845	-8.48934	-0.129916	0.0138835	-0.00540186	-0.408936	-0.319824	0.951904	0.0570728	0.263512	-0.921872	0.278309	2.34912	-4.76661	-8.33057	-0.0399203	-0.0110481	0.0326133	-0.584473	0.475586	0.7229	0.0180954	0.271843	-0.961931	0.0215163	0.301707	-0.184899	-9.7384	0.085163	0.000303608	-0.00802731	-0.414795	-0.212646	1.01538	-0.0770214	-0.347988	-0.72696	-0.586943	2.25941	7.25785	-2.88347	-0.0395557	0.0133484	0.0023737	-0.703369	-0.691162	0.590576	-0.251351	0.158266	-0.953698	0.0472779	-4.34964	-1.50724	-8.14427	0.0218766	0.0349963	0.00151819	0.149902	0.0544434	1.06543	0.801623	-0.118873	-0.549648	-0.202871	9.63077	0.343967	3.86325	-0.00548639	0.00325333	-0.0196463	-0.892334	0.0732422	-0.593506	-0.132612	0.341283	-0.924997	0.101589	-1.47151	-2.2977	-8.73465	0.0277509	-0.00251345	-0.0180539	-0.192383	0.332031	1.01465	0.814492	-0.0551296	-0.575563	0.0478596	9.36321	-1.33314	3.42958	0.0163292	0.0144521	-0.00109354	-0.822266	0.123291	-0.666992	-0.0553746	0.126562	-0.92679	-0.34925	-1.82579	6.1487	-7.33126	0.00111059	0.0109197	-0.0115904	-0.262207	-0.810547	0.835693	
62	-0.43035	0.0178835	-0.902391	0.0130425	-6.93531	-0.25357	-5.61238	0.0329832	-0.0160424	-0.0211346	0.648682	-0.166748	0.950195	-0.227411	-0.00466581	-0.973651	-0.0163042	-4.54147	0.42977	-8.68972	-0.00702132	-0.00828212	-0.0233056	0.27832	-0.262207	1.14453	0.0047221	-0.153001	-0.97374	-0.168518	0.499312	2.56145	-8.6393	-0.093096	-0.00461185	-0.0050999	-0.417236	-0.323975	0.94751	0.056981	0.263142	-0.922144	0.277777	2.41972	-4.69348	-8.30896	-0.000518914	9.32706e-05	0.00856709	-0.588379	0.468994	0.716553	0.0179481	0.271637	-0.961991	0.0215445	0.35984	-0.207671	-9.68691	-0.0388923	0.0289041	-0.0104073	-0.408203	-0.214844	1.01074	-0.0769983	-0.348246	-0.726956	-0.586798	2.30989	7.18677	-2.74264	0.0341923	0.0128809	-0.0156393	-0.701172	-0.693359	0.588623	-0.251875	0.158435	-0.953544	0.0470227	-4.31988	-1.36395	-7.88044	0.00300649	-0.0363019	-0.02572	0.147705	0.0566406	1.06323	0.801558	-0.118734	-0.549874	-0.202595	9.6218	0.360341	3.83789	0.0115332	0.0147266	-0.0118948	-0.888184	0.079834	-0.598145	-0.132829	0.341274	-0.924942	0.101834	-1.4671	-2.27635	-8.75294	0.0327834	-0.00109185	-0.0213381	-0.197266	0.338867	1.00806	0.814185	-0.0554639	-0.575969	0.0478161	9.46845	-1.36028	3.36655	-0.0150521	-0.00762475	0.012016	-0.820312	0.127686	-0.664795	-0.0554987	0.126621	-0.926823	-0.349122	-1.85295	6.15023	-7.34962	0.000658961	0.00249726	-0.00781428	-0.266602	-0.812744	0.838135	
63	-0.430161	0.0180208	-0.902474	0.0133017	-6.93368	-0.330647	-5.61884	0.0153509	0.0142004	-0.0205179	0.648438	-0.164551	0.950195	-0.227568	-0.00457473	-0.973615	-0.016285	-4.04298	0.313965	-8.43393	-0.0107619	0.0325071	-0.0286073	0.282715	-0.266602	1.14941	0.00487241	-0.152766	-0.974087	-0.166711	0.372814	2.60501	-8.46948	0.114438	-0.0077601	-0.0089766	-0.413086	-0.324219	0.956787	0.0569816	0.263169	-0.922026	0.278143	2.46376	-4.71855	-8.17777	0.0149077	0.017215	-0.000274993	-0.58667	0.477783	0.727295	0.0179215	0.271169	-0.962132	0.0211642	0.496863	-0.172056	-9.61565	0.00215751	-0.000463408	0.000625765	-0.414795	-0.210449	1.01294	-0.0770178	-0.34837	-0.727097	-0.586546	2.37686	7.2071	-2.79316	-0.00276605	-0.000751832	-0.015772	-0.701416	-0.688965	0.592773	-0.251659	0.158582	-0.953555	0.0474607	-4.27347	-1.49659	-7.98668	0.00736265	-0.0113506	-0.032627	0.149902	0.0522461	1.06323	0.801426	-0.118914	-0.550057	-0.202518	9.58256	0.418491	3.88559	0.00921321	0.00118213	-0.0115126	-0.88623	0.0817871	-0.591309	-0.133097	0.341343	-0.924816	0.102398	-1.45782	-2.31383	-8.70668	0.0271978	-0.000403587	-0.0192741	-0.194824	0.33667	1.00806	0.814091	-0.0557544	-0.576076	0.0477826	9.33654	-1.42085	3.38758	-0.00974796	0.0013861	0.00801949	-0.822754	0.129883	-0.666992	-0.0556166	0.126443	-0.926922	-0.348904	-1.78328	6.15865	-7.31252	0.021003	0.00200108	-0.00312253	-0.264648	-0.803955	0.837891	
64	-0.430566	0.0181873	-0.902274	0.0135725	-6.94894	-0.270414	-5.68996	0.0213533	-0.0446284	-0.0198203	0.648438	-0.1604	0.950195	-0.22785	-0.00448766	-0.973554	-0.0160376	-4.21746	0.342457	-8.46209	0.0118933	-0.0107045	-0.0314285	0.282471	-0.262207	1.14453	0.00469718	-0.152736	-0.974266	-0.165694	0.528939	2.78757	-8.49616	0.0823958	-0.0219799	-0.0120212	-0.413086	-0.322021	0.949707	0.0569927	0.262997	-0.921944	0.278572	2.39043	-4.57398	-8.28325	0.00878226	0.00410339	0.00386316	-0.588867	0.477783	0.716309	0.017741	0.2711	-0.962146	0.0215715	0.316994	-0.280241	-9.81328	0.0374398	0.00333029	-0.0136769	-0.412354	-0.214844	1.01294	-0.0771848	-0.348513	-0.727207	-0.586302	2.34542	7.1951	-2.67181	0.0171135	-0.00558873	-0.0217969	-0.703369	-0.691162	0.590576	-0.252079	0.158442	-0.953448	0.0478458	-4.35954	-1.33552	-7.86499	0.0642746	0.0145275	-0.0105724	0.145508	0.0566406	1.06323	0.801381	-0.11893	-0.550184	-0.20234	9.6496	0.385477	3.8203	0.0166541	0.00437826	-0.00666885	-0.887939	0.0710449	-0.598145	-0.133285	0.341176	-0.924813	0.102742	-1.45724	-2.31563	-8.7098	0.0272636	0.00550642	-0.0183442	-0.19043	0.338867	1.00806	0.813935	-0.0559683	-0.576274	0.0478096	9.35015	-1.40441	3.33874	-0.0127022	-0.00769213	0.0135474	-0.820312	0.127686	-0.664795	-0.0557124	0.12642	-0.927008	-0.348669	-1.78817	6.13991	-7.32046	0.00944096	0.00564346	-0.00732721	-0.271484	-0.803955	0.837891	
65	-0.431297	0.0183172	-0.901916	0.0139791	-6.93095	-0.323667	-5.57438	-0.0043931	-0.0172423	-0.00341891	0.650391	-0.158203	0.95459	-0.227782	-0.00463508	-0.973582	-0.0152288	-4.40789	0.371986	-8.57889	0.0162673	0.0103171	-0.0206149	0.284668	-0.262207	1.14697	0.00491704	-0.152447	-0.974483	-0.164679	0.420948	2.75329	-8.36945	0.0280985	0.00794758	-0.00371122	-0.408691	-0.322021	0.949707	0.056929	0.263022	-0.921924	0.278631	2.27271	-4.6896	-8.20957	0.00846771	-0.00157329	-0.0033826	-0.591064	0.477783	0.7229	0.0172764	0.270989	-0.962163	0.0225486	0.396394	-0.24616	-9.70675	0.0856275	-0.00678823	-0.00681646	-0.408203	-0.214844	1.01538	-0.0771739	-0.348075	-0.727653	-0.586011	2.42261	7.29017	-2.70948	0.0186247	0.0154601	-0.0281214	-0.705811	-0.687012	0.592529	-0.251907	0.158601	-0.953448	0.0482287	-4.3428	-1.45183	-8.01798	0.0422098	0.0266431	-0.0387218	0.149902	0.0544434	1.06738	0.801365	-0.11916	-0.550237	-0.202124	9.56895	0.313317	3.93271	-0.00254439	0.0123188	-0.00546738	-0.892578	0.0817871	-0.593506	-0.133625	0.340963	-0.924831	0.102847	-1.45309	-2.30942	-8.72207	0.011633	-0.00640263	-0.0153388	-0.194824	0.33667	1.00806	0.813809	-0.0560376	-0.57642	0.0481095	9.44111	-1.47693	3.36366	0.012853	0.00587056	0.0146645	-0.824951	0.129883	-0.666992	-0.0557232	0.126518	-0.927111	-0.348358	-1.78386	6.16112	-7.34116	0.0275145	0.0105923	-0.0134679	-0.269043	-0.806152	0.840332	
66	-0.431191	0.0184486	-0.901957	0.0144181	-6.95345	-0.303889	-5.61502	0.0187278	0.00402726	-0.0211695	0.650391	-0.156006	0.947998	-0.228393	-0.00426064	-0.973444	-0.0150136	-4.16471	0.412501	-8.57456	0.00862409	0.0187727	-0.0348315	0.282471	-0.26001	1.14209	0.0041908	-0.152837	-0.974116	-0.166495	0.542488	2.69142	-8.34761	-0.0889476	-0.00204359	-0.00148666	-0.406738	-0.324219	0.942871	0.0569494	0.262837	-0.922163	0.27801	2.44825	-4.69043	-8.19742	-0.0264918	-0.00457745	0.00892289	-0.586426	0.473389	0.725342	0.0170664	0.271268	-0.962065	0.0235448	0.360485	-0.152871	-9.88387	0.0313821	0.0157408	-0.0325309	-0.412598	-0.210449	1.01758	-0.0772615	-0.348031	-0.727918	-0.585696	2.39029	7.21867	-2.725	0.0287043	0.0148666	-0.0224686	-0.705322	-0.693359	0.597168	-0.252133	0.158799	-0.953347	0.0483877	-4.27843	-1.32289	-7.95372	0.015315	-0.00384624	-0.0183409	0.147705	0.0544434	1.05884	0.801309	-0.119345	-0.550417	-0.201746	9.67423	0.369352	3.73497	0.0184138	0.00694486	0.00138501	-0.890381	0.0795898	-0.591309	-0.133854	0.340936	-0.924782	0.103068	-1.47791	-2.31025	-8.74235	0.0251789	0.00685177	-0.0251899	-0.185547	0.33667	1.00366	0.813608	-0.0559306	-0.576676	0.0485616	9.45503	-1.37751	3.3176	0.0115375	0.00141921	0.0135414	-0.824707	0.125488	-0.666992	-0.055686	0.126787	-0.927241	-0.34792	-1.81439	6.13174	-7.34715	0.0167356	0.0148852	-0.0143226	-0.266846	-0.806152	0.831055	
67	-0.431036	0.0185625	-0.902028	0.0144717	-6.95134	-0.343063	-5.61963	-0.00174602	0.0114719	-0.0126615	0.650391	-0.156006	0.950195	-0.228351	-0.00331397	-0.973441	-0.0160597	-4.35947	0.449905	-8.50526	-0.0747309	-0.0215718	-0.0525288	0.282715	-0.268799	1.15186	0.00389232	-0.153582	-0.973955	-0.166761	0.213964	2.66483	-8.51001	0.010448	-0.0398665	0.0337367	-0.406738	-0.317627	0.947266	0.0574238	0.262013	-0.923478	0.274299	2.53332	-4.57214	-8.36186	-0.0516484	0.00174255	0.0147765	-0.586182	0.468994	0.729736	0.0171308	0.271067	-0.962102	0.0242697	0.497739	-0.105768	-9.60302	0.00387112	0.0211162	-0.0039858	-0.416992	-0.210449	1.01758	-0.0770447	-0.347956	-0.728244	-0.585364	2.3102	7.21525	-2.77832	0.0155448	0.0141862	-0.0184812	-0.701172	-0.693359	0.592773	-0.251379	0.159172	-0.953525	0.0475809	-4.20171	-1.41909	-8.05004	-0.0547907	0.0350848	-0.0235738	0.152344	0.0478516	1.06323	0.80151	-0.119319	-0.550401	-0.201008	9.55265	0.306011	3.90216	0.0115304	0.0142718	0.0101478	-0.890137	0.0754395	-0.598145	-0.133885	0.341026	-0.924735	0.103153	-1.45496	-2.32617	-8.72027	0.00318088	0.0047067	-0.0282903	-0.197266	0.33667	1.00586	0.813563	-0.0558601	-0.576707	0.0490427	9.39041	-1.40022	3.36622	0.011783	0.00687534	0.0190508	-0.822754	0.129883	-0.662598	-0.0557396	0.126997	-0.927399	-0.347413	-1.81883	6.13864	-7.35452	0.0216556	0.00705534	-0.013891	-0.264893	-0.801758	0.840088	
68	-0.431271	0.0189166	-0.901901	0.0148952	-6.94492	-0.3239	-5.60769	0.0187603	-0.0152214	-0.0288792	0.650391	-0.158203	0.952393	-0.227899	-0.00272769	-0.973537	-0.0167532	-4.39962	0.307615	-8.67251	-0.0289485	0.0504291	-0.0295016	0.282715	-0.266602	1.14941	0.00354639	-0.153719	-0.974062	-0.166018	0.701223	2.78312	-8.42506	0.0432732	0.0120276	-0.0112362	-0.413086	-0.322021	0.952148	0.0573955	0.261942	-0.92361	0.273929	2.26802	-4.64251	-8.36158	-0.0288124	-0.00258665	0.0094107	-0.588867	0.475586	0.729492	0.0175367	0.271111	-0.962109	0.0231957	0.208998	-0.322412	-9.82726	-0.0345008	-0.00371069	-0.0218958	-0.412598	-0.210693	1.02686	-0.0766809	-0.348066	-0.728735	-0.584735	2.36591	7.18715	-2.78184	0.0534058	0.0199407	-0.0131388	-0.703369	-0.693359	0.597168	-0.251499	0.159287	-0.953521	0.0466167	-4.38641	-1.42629	-7.99934	0.0088355	0.00069919	-0.0265032	0.149902	0.0522461	1.06104	0.801629	-0.11948	-0.550289	-0.200742	9.64833	0.382814	3.80765	0.0018625	0.0115713	0.00452034	-0.89502	0.0839844	-0.591309	-0.133852	0.341093	-0.924643	0.103798	-1.48099	-2.32586	-8.75156	0.0481669	0.0218476	-0.032443	-0.197266	0.33667	1.00122	0.81351	-0.0562318	-0.576721	0.0493189	9.41711	-1.4246	3.31596	-0.00531866	0.00444373	0.0187122	-0.817871	0.125488	-0.666992	-0.0558109	0.127093	-0.927577	-0.346892	-1.77591	6.11701	-7.34155	0.0269447	0.00927237	-0.00978308	-0.266846	-0.80835	0.837891	
69	-0.431299	0.0190128	-0.901877	0.0154024	-6.92659	-0.324326	-5.63378	0.0124327	-0.00738437	-0.00968722	0.652588	-0.156006	0.954346	-0.227839	-0.00243975	-0.973551	-0.016795	-4.33987	0.450724	-8.4918	0.0164854	0.0531017	-0.0192878	0.282715	-0.268799	1.14941	0.00317526	-0.153765	-0.974108	-0.165713	0.291411	2.85967	-8.52734	-0.0239216	-0.025949	-0.00905546	-0.411133	-0.317627	0.949707	0.0572845	0.261856	-0.923436	0.274618	2.53546	-4.56865	-8.40281	0.0359939	0.010398	0.00142658	-0.586182	0.468994	0.727539	0.0178231	0.271034	-0.962134	0.022828	0.311935	-0.178246	-9.73178	-0.0317298	0.0251279	-0.0218426	-0.4104	-0.210449	1.00854	-0.0762349	-0.348137	-0.729543	-0.583743	2.17085	7.18189	-2.86224	0.0565686	0.00996019	-0.0170631	-0.701416	-0.687012	0.594727	-0.251401	0.159553	-0.953507	0.0465298	-4.23913	-1.28987	-8.02706	0.0303441	-0.00296234	-0.00873292	0.149902	0.0522461	1.06543	0.801701	-0.119667	-0.550249	-0.200454	9.5836	0.250113	3.88575	0.00764764	0.0114946	-0.00163053	-0.894775	0.0817871	-0.593506	-0.133854	0.341001	-0.924601	0.104476	-1.44083	-2.36208	-8.7109	0.057516	0.0233752	-0.028666	-0.185791	0.341309	1.00562	0.813569	-0.0562525	-0.576597	0.0497822	9.41851	-1.49072	3.2983	0.0152914	0.0146026	0.0208312	-0.820557	0.13208	-0.666992	-0.0558056	0.127198	-0.927724	-0.34646	-1.8322	6.11092	-7.37536	0.0178994	0.0137008	-0.00943324	-0.266846	-0.806152	0.842529	
70	-0.431379	0.0192219	-0.901829	0.0157234	-6.95277	-0.363872	-5.62326	0.00204682	-0.00179454	-0.0121858	0.656982	-0.156006	0.95459	-0.227762	-0.00252592	-0.973571	-0.016694	-4.15576	0.258999	-8.6375	-0.013856	0.0456736	-0.0287808	0.280518	-0.266602	1.14697	0.00354006	-0.153242	-0.974268	-0.165247	0.637191	2.5146	-8.55045	0.0575355	0.0218741	-0.011239	-0.406494	-0.326416	0.952148	0.0573636	0.261863	-0.922988	0.276097	2.38381	-4.7939	-8.19145	0.0759113	0.0332843	0.000863318	-0.591064	0.477783	0.7229	0.0175375	0.271219	-0.962058	0.0240336	0.513073	-0.38479	-9.64757	0.0788772	0.00805268	-0.00838856	-0.408203	-0.210449	1.01074	-0.0760471	-0.348572	-0.729596	-0.583441	2.3856	7.18377	-2.88441	-0.00627094	0.00443202	0.00298106	-0.705566	-0.691162	0.596924	-0.251393	0.159414	-0.953498	0.0472232	-4.24804	-1.49201	-7.91032	0.0243545	0.0119004	-0.0368315	0.145508	0.0566406	1.06519	0.801527	-0.120287	-0.5504	-0.200362	9.57798	0.313549	3.82128	-0.0104972	0.00291076	-0.00618561	-0.894531	0.0754395	-0.595703	-0.133848	0.341459	-0.924302	0.105626	-1.43718	-2.37146	-8.71231	0.0299113	0.0116917	-0.0245226	-0.197754	0.345703	1.00562	0.813561	-0.0566637	-0.576565	0.0498172	9.40372	-1.38555	3.36385	-0.022881	0.0145857	0.00939539	-0.822754	0.13208	-0.666992	-0.0557612	0.127206	-0.92779	-0.346287	-1.80405	6.13085	-7.3976	0.00624287	0.00675598	-0.0038956	-0.262695	-0.799316	0.844727	
71	-0.432276	0.0191813	-0.901385	0.016605	-6.94339	-0.356632	-5.59756	0.0463843	-0.0543668	-0.0206167	0.650146	-0.151611	0.954346	-0.227801	-0.00272463	-0.973576	-0.0158038	-4.21113	0.452639	-8.66971	0.0435427	-0.00112179	-0.00819475	0.280273	-0.262207	1.14233	0.00332951	-0.153337	-0.974511	-0.163725	0.565504	2.62765	-8.25022	0.0681721	-0.0136325	-0.0180832	-0.410889	-0.317627	0.954102	0.0575381	0.261691	-0.922781	0.276916	2.51978	-4.56431	-8.24797	0.0629861	0.0368462	0.00490562	-0.597656	0.473389	0.720947	0.0173573	0.270883	-0.962128	0.0251007	0.225875	-0.191164	-9.75627	0.0259588	0.00700927	-0.0154464	-0.416992	-0.210449	1.01538	-0.0761945	-0.34925	-0.729304	-0.583382	2.27862	7.05851	-2.83148	0.0177821	-0.00619772	0.00271422	-0.703369	-0.691162	0.594971	-0.251682	0.158905	-0.953457	0.0482271	-4.29534	-1.28854	-8.02483	0.0977799	0.0174854	0.000670131	0.149902	0.0522461	1.06763	0.801467	-0.12074	-0.550366	-0.200422	9.58942	0.32422	3.85965	-0.0202559	0.0104257	-0.0102929	-0.890381	0.0773926	-0.593506	-0.134048	0.341084	-0.924441	0.105363	-1.45232	-2.36703	-8.72073	-0.00948113	-0.00854843	-0.00735584	-0.19751	0.341064	1.00122	0.813591	-0.0571064	-0.576467	0.0499432	9.37598	-1.49504	3.34781	-0.005013	0.0129821	0.0191963	-0.818359	0.134277	-0.664795	-0.0557941	0.127052	-0.927838	-0.346211	-1.84665	6.09326	-7.37435	0.0103473	0.00388617	0.00260213	-0.264648	-0.803955	0.840088	
72	-0.432123	0.019505	-0.901444	0.016938	-6.97116	-0.372922	-5.59254	-0.0134531	0.0215484	-0.0161785	0.652344	-0.153809	0.954346	-0.227709	-0.00224257	-0.973597	-0.0159063	-4.34286	0.362561	-8.43337	-0.0247966	-0.0115619	-0.0474962	0.282715	-0.264404	1.14453	0.00375049	-0.15352	-0.97462	-0.162893	0.221373	2.84941	-8.49985	-0.00562721	0.00578122	0.0209097	-0.411133	-0.313232	0.954102	0.057899	0.260721	-0.922855	0.277509	2.34887	-4.67519	-8.30168	-0.0147816	0.0271412	0.0321628	-0.591064	0.475586	0.7229	0.0169506	0.270889	-0.96209	0.0267162	0.53274	-0.361064	-9.7405	0.0863822	0.0184314	-0.0176885	-0.413086	-0.20166	1.01758	-0.0763922	-0.350113	-0.729353	-0.582777	2.29582	7.09411	-2.97834	0.0180106	-0.0332605	0.00536158	-0.705566	-0.687012	0.594727	-0.25255	0.159258	-0.953155	0.0484868	-4.29345	-1.47535	-7.99915	-0.000597455	-0.0532875	-0.0346692	0.147705	0.0544434	1.06323	0.801194	-0.121592	-0.550501	-0.200628	9.63962	0.233314	3.78412	-0.0176189	0.00237313	-0.00942377	-0.89502	0.0839844	-0.595947	-0.134012	0.341038	-0.9245	0.105045	-1.44666	-2.36393	-8.69398	-0.00936186	-7.46641e-05	-0.00954419	-0.19043	0.341309	1.00122	0.81355	-0.0577317	-0.576484	0.0496971	9.45165	-1.42643	3.33918	-0.0323734	0.013999	0.00665242	-0.818359	0.136475	-0.667236	-0.0558582	0.126886	-0.927914	-0.346056	-1.7931	6.14849	-7.32423	0.00381933	0.00388816	-0.00357904	-0.269287	-0.803955	0.842529	
73	-0.43189	0.0196522	-0.901552	0.0170257	-6.94487	-0.364181	-5.61561	0.000259142	0.017076	-0.0164464	0.654785	-0.156006	0.956543	-0.228112	-0.00216414	-0.973503	-0.0158599	-4.25074	0.462578	-8.57716	-0.00332295	-0.0206931	-0.0267525	0.282471	-0.262207	1.13989	0.00356971	-0.153466	-0.974416	-0.164159	0.368755	3.05022	-8.473	-0.10122	0.00540949	-0.0103767	-0.413086	-0.322021	0.954346	0.0579944	0.260033	-0.923025	0.277569	2.42526	-4.71037	-8.55433	-0.00247123	0.026601	0.0520134	-0.591064	0.477783	0.720703	0.0166108	0.271385	-0.96192	0.0279882	0.344484	-0.186388	-10.0567	0.106274	0.00838747	-0.0565711	-0.408691	-0.20166	1.01294	-0.0765166	-0.351279	-0.729161	-0.582299	2.21755	7.18513	-3.00651	0.0240674	-0.0634721	0.0483407	-0.705811	-0.682617	0.601074	-0.252811	0.159017	-0.953126	0.0484883	-4.20027	-1.33282	-7.77914	0.0276272	-0.00995615	0.000624491	0.154297	0.0544434	1.06543	0.801182	-0.121716	-0.550498	-0.20061	9.62148	0.209308	3.80566	-0.00202107	0.0136835	-0.011125	-0.899414	0.0861816	-0.59375	-0.134028	0.34096	-0.924571	0.10465	-1.47124	-2.36025	-8.72541	-0.0220716	-0.00267601	-0.0107149	-0.19751	0.343262	1.00781	0.81347	-0.0580529	-0.57657	0.0496262	9.40963	-1.49415	3.35589	-0.0225893	0.0032674	0.0125416	-0.820557	0.134277	-0.6604	-0.0556689	0.12699	-0.927903	-0.34608	-1.79613	6.13344	-7.25484	-0.00227089	0.0225841	-0.00834409	-0.269287	-0.803955	0.840088	
74	-0.431326	0.0199126	-0.901807	0.0175083	-6.95776	-0.37658	-5.64647	0.0194831	0.0276594	-0.0233191	0.650146	-0.151611	0.947998	-0.228319	-0.0020523	-0.973434	-0.0171043	-4.27025	0.394397	-8.52699	-0.0753689	-0.0103474	-0.0171034	0.287354	-0.270996	1.14478	0.00310569	-0.152265	-0.974518	-0.164685	0.223981	2.11914	-8.64106	0.038924	-0.0723312	-0.0540893	-0.413086	-0.322021	0.958984	0.0576345	0.259775	-0.921607	0.282551	2.37997	-4.38447	-8.07335	0.152974	0.016808	-0.019819	-0.59375	0.486572	0.716309	0.015337	0.271536	-0.961816	0.0307172	0.344845	-0.312116	-9.71244	0.0963011	-0.0164746	-0.000154646	-0.415283	-0.199463	1.01758	-0.0780628	-0.354829	-0.724451	-0.58581	2.33343	7.06361	-2.75539	-0.211995	-0.0352865	0.0763991	-0.707764	-0.687012	0.596924	-0.25268	0.158679	-0.953249	0.0478454	-4.39889	-1.5141	-8.16419	-0.031183	-0.00552968	0.00194803	0.151855	0.0588379	1.06519	0.800959	-0.122554	-0.550549	-0.200851	9.65296	0.413494	3.82839	-0.0227917	-0.00154261	-0.0125595	-0.892822	0.0839844	-0.591309	-0.134339	0.340684	-0.924623	0.104689	-1.48854	-2.35383	-8.74605	0.0316929	0.0006202	-0.0161665	-0.19043	0.338867	1.00806	0.813363	-0.0580826	-0.576709	0.0497339	9.41481	-1.55403	3.3258	0.00291465	-0.00218721	0.0102811	-0.82251	0.129883	-0.660156	-0.0553649	0.127298	-0.927884	-0.346065	-1.80292	6.11123	-7.50617	-0.00941031	0.0144781	-0.0160963	-0.266846	-0.803955	0.840088	
75	-0.431457	0.0198565	-0.901731	0.0182321	-6.95249	-0.412046	-5.57591	0.0248876	-0.0115835	-0.00816491	0.6521	-0.149414	0.952148	-0.229214	-0.00241304	-0.973227	-0.0168547	-4.15163	0.339356	-8.61179	0.0109577	-0.0420534	-0.00659348	0.287109	-0.268799	1.14478	0.0028853	-0.151414	-0.975634	-0.158756	0.456455	2.643	-8.28059	0.265772	-0.015822	-0.0512307	-0.406738	-0.309082	0.953857	0.0575648	0.259911	-0.921325	0.283358	2.58448	-4.82893	-7.92661	0.0703438	0.0126274	-0.0126742	-0.598145	0.486572	0.713867	0.0155463	0.271105	-0.962039	0.0272263	0.441315	-0.04528	-9.54957	-0.22098	-0.0269368	-0.0115716	-0.410645	-0.206055	1.01538	-0.0783185	-0.355553	-0.72348	-0.586536	2.33213	6.94637	-2.6882	-0.0889904	-0.0195746	0.0449012	-0.707764	-0.691162	0.594971	-0.253062	0.157965	-0.953289	0.04739	-4.32826	-1.35733	-7.93024	0.0373058	0.00600574	0.00735524	0.147705	0.0544434	1.06738	0.800772	-0.122751	-0.550786	-0.200826	9.63736	0.215503	3.82639	-0.0035511	0.00465596	-0.0108697	-0.892822	0.0861816	-0.59375	-0.134586	0.340533	-0.924531	0.105672	-1.46275	-2.3678	-8.67278	0.0458613	0.0139737	-0.0265732	-0.195312	0.343506	1.00342	0.813421	-0.0577698	-0.576628	0.0500803	9.44669	-1.43842	3.24904	-0.00499554	0.0114005	0.00794734	-0.822998	0.138672	-0.669434	-0.0555612	0.12735	-0.927957	-0.345819	-1.83574	6.03373	-7.4319	0.023838	-0.00316424	-0.00521418	-0.26709	-0.799561	0.842529	
76	-0.430476	0.0200954	-0.902191	0.0183743	-6.92898	-0.370107	-5.65153	-0.00185596	0.0458471	-0.0222765	0.652344	-0.153809	0.954346	-0.229394	-0.00190737	-0.973173	-0.0175943	-4.35962	0.400111	-8.48737	-0.0213604	-0.0540173	-0.0345029	0.293701	-0.268799	1.14478	0.00301943	-0.1509	-0.976134	-0.156151	0.710922	2.76226	-8.35793	0.214079	-0.011357	-0.0494038	-0.404785	-0.306885	0.963135	0.0575283	0.259605	-0.921126	0.284292	2.39986	-4.86512	-7.97765	0.00368356	0.0152345	0.0182813	-0.591553	0.486572	0.716309	0.0171046	0.270596	-0.962331	0.0200833	0.563842	-0.703864	-9.52152	-0.258082	0.00483798	0.0013441	-0.410156	-0.217041	1.00854	-0.078435	-0.355889	-0.723592	-0.586178	2.2673	7.09922	-2.62034	0.0292321	0.00457062	-0.0303934	-0.705566	-0.691162	0.596924	-0.253603	0.158496	-0.953081	0.0469054	-4.24526	-1.44191	-8.03094	-0.0196219	-0.00771467	-0.0305687	0.1521	0.0544434	1.06543	0.800776	-0.123052	-0.550713	-0.200827	9.56197	0.260015	3.78322	-0.00483198	0.0132099	-0.0157487	-0.890381	0.0773926	-0.593506	-0.134655	0.340413	-0.924524	0.106031	-1.45643	-2.39521	-8.66424	0.0098162	0.0104745	-0.018738	-0.19751	0.341064	1.01025	0.813473	-0.0582419	-0.576522	0.0499175	9.36083	-1.41253	3.41607	-0.0282582	0.0217922	0.00601025	-0.822754	0.13208	-0.660156	-0.0556207	0.12714	-0.927952	-0.345899	-1.7365	6.11299	-7.32505	-0.0129687	0.00443288	0.00216857	-0.264648	-0.803955	0.856201	
77	-0.431199	0.0202867	-0.90183	0.018932	-6.92108	-0.45352	-5.63654	0.00702094	-0.0597582	-0.00799545	0.652344	-0.151611	0.954346	-0.228928	-0.00199997	-0.973293	-0.0169761	-4.16784	0.209335	-8.51125	-4.77547e-05	0.0768203	-0.0297096	0.287109	-0.268799	1.14722	0.00270565	-0.151375	-0.975563	-0.159231	0.595965	2.56932	-8.47181	-0.177948	0.0206475	-0.000519826	-0.406738	-0.309082	0.958496	0.0577445	0.258871	-0.921598	0.283387	2.50579	-4.87192	-8.19977	-0.0398603	0.0111288	0.025451	-0.591553	0.486572	0.7229	0.0166368	0.270382	-0.962375	0.0212628	0.351057	-0.333286	-9.75344	0.156807	-0.00304273	-0.00407887	-0.414551	-0.219238	1.01758	-0.0786444	-0.355934	-0.72427	-0.585285	2.41466	7.19815	-3.14316	0.0415145	-0.0135583	-0.0215619	-0.708008	-0.682617	0.594727	-0.254371	0.158198	-0.952908	0.0472875	-4.25563	-1.48801	-7.77773	0.057668	-0.0236344	-0.0230412	0.154053	0.0588379	1.06104	0.800816	-0.122895	-0.550777	-0.200587	9.65041	0.347396	3.80707	0.00903595	0.0214623	-0.0128263	-0.890869	0.0883789	-0.59375	-0.134367	0.340128	-0.924771	0.105151	-1.45857	-2.38057	-8.68672	-0.0292141	0.00690384	-0.00632975	-0.19751	0.341064	1.00562	0.813431	-0.0589734	-0.57653	0.0496607	9.42791	-1.57918	3.30592	-0.0179526	0.0121267	0.0129334	-0.820801	0.138672	-0.662598	-0.0555015	0.127057	-0.928013	-0.345787	-1.77199	6.19268	-7.41773	0.0154927	0.0123492	-0.00428967	-0.269531	-0.797363	0.844727	
78	-0.4321	0.0204188	-0.90138	0.0196762	-6.95392	-0.425638	-5.58653	0.0431674	-0.0262057	-0.0309191	0.656494	-0.14502	0.952148	-0.229273	-0.00175504	-0.97322	-0.016546	-4.27426	0.393359	-8.79237	0.0170231	0.011419	-0.0319182	0.276123	-0.262207	1.14453	0.00228694	-0.151553	-0.975134	-0.161678	0.353337	2.48211	-8.58009	-0.0558882	-0.0136704	0.00138064	-0.406738	-0.309082	0.960938	0.0581376	0.258378	-0.922023	0.282373	2.50459	-4.75018	-8.25287	-0.0773852	0.0150284	0.0180748	-0.59375	0.484375	0.716309	0.0157578	0.270197	-0.962386	0.0236309	0.489306	-0.149058	-9.68124	0.202301	-0.00889261	0.000239718	-0.414795	-0.210449	1.01294	-0.0792755	-0.357548	-0.724706	-0.583675	2.24011	7.24657	-2.90244	0.0538738	-0.0642296	0.0113338	-0.707764	-0.687012	0.601318	-0.254632	0.158448	-0.952806	0.0470965	-4.35605	-1.29614	-8.11531	0.0223815	-0.0127289	-0.010413	0.152344	0.0500488	1.06543	0.800755	-0.123385	-0.550697	-0.200749	9.55765	0.253539	3.88594	-0.0178988	0.00888774	-0.0119542	-0.892822	0.0839844	-0.591309	-0.13425	0.339825	-0.924975	0.104483	-1.46344	-2.35218	-8.76865	-0.00700759	-0.0013367	-0.0137934	-0.194824	0.33667	1.00806	0.813429	-0.0586737	-0.576533	0.0500129	9.37021	-1.52353	3.34828	0.0171139	0.00676767	0.00368142	-0.816162	0.136475	-0.665039	-0.0553083	0.127316	-0.92773	-0.346479	-1.81434	6.03871	-7.37392	-0.0400234	0.0139294	-0.0137462	-0.273682	-0.803955	0.837891	
79	-0.432207	0.0203993	-0.901327	0.0197673	-6.93503	-0.470325	-5.57351	0.00697171	-0.0116384	-0.00371318	0.656494	-0.147217	0.954346	-0.229538	-0.00117036	-0.973156	-0.0167015	-4.25198	0.367065	-8.50333	-0.031776	-0.0443438	-0.0401941	0.289062	-0.264404	1.14697	0.00234626	-0.151287	-0.975291	-0.16098	0.50721	2.54466	-8.40909	0.059091	0.00364775	-0.0290572	-0.406738	-0.317627	0.954102	0.0583009	0.258183	-0.921778	0.283315	2.27212	-4.76244	-8.21131	0.0320692	0.0257926	0.000664037	-0.59375	0.48877	0.71167	0.0142499	0.269678	-0.962497	0.025892	0.374409	-0.236659	-9.79449	0.0118837	-0.0185866	0.0190045	-0.412842	-0.203857	1.01758	-0.0803469	-0.359795	-0.722371	-0.585041	2.42157	7.52881	-2.77545	-0.173192	-0.051185	0.0696702	-0.699219	-0.688965	0.599121	-0.254814	0.158363	-0.952749	0.0475348	-4.49031	-1.33088	-8.12083	0.0574305	0.000222732	-0.0209445	0.15625	0.0588379	1.06519	0.800619	-0.123656	-0.550843	-0.200725	9.61604	0.21114	3.82706	0.00409413	0.00657534	-0.0132787	-0.892578	0.0795898	-0.591309	-0.134384	0.339701	-0.925006	0.104443	-1.45257	-2.36436	-8.70794	0.00918242	-0.0037351	-0.0136197	-0.197266	0.338867	1.00562	0.813236	-0.0583485	-0.576815	0.0502753	9.40268	-1.42527	3.44166	0.0128535	-0.00774305	0.00460846	-0.818604	0.138672	-0.662598	-0.0548935	0.127518	-0.927445	-0.347233	-1.83733	6.3403	-7.43001	-0.0589575	0.0195462	-0.00287588	-0.266846	-0.80835	0.837891	
80	-0.432378	0.0205085	-0.901235	0.0201035	-6.98141	-0.411107	-5.62113	0.0265348	-0.0112422	-0.0277608	0.65625	-0.142822	0.949951	-0.229067	-0.000745417	-0.973264	-0.0168917	-4.43916	0.457372	-8.41811	-0.0167478	0.0477568	-0.0351164	0.287109	-0.266602	1.14478	0.00254056	-0.150803	-0.975846	-0.158037	0.171603	2.68439	-8.59584	0.0853075	-0.0187883	-0.0243419	-0.404785	-0.306885	0.956299	0.0583741	0.258243	-0.921661	0.283626	2.43475	-4.76134	-8.2817	0.0278074	-0.00708816	-0.0125627	-0.59375	0.48877	0.718262	0.014793	0.268724	-0.962865	0.0214258	0.373974	-0.226182	-9.67131	-0.23123	-0.0149736	0.0251265	-0.401367	-0.219238	1.01538	-0.0812174	-0.360021	-0.720873	-0.586626	2.44789	7.18666	-2.47731	-0.0283227	0.026427	-0.0267817	-0.703613	-0.682617	0.59668	-0.255113	0.159359	-0.952536	0.046881	-4.38354	-1.28644	-7.90825	0.0117077	-0.00148788	-0.0258779	0.152344	0.0500488	1.06543	0.800713	-0.123522	-0.551068	-0.199813	9.62609	0.358198	3.73975	0.0257886	0.0101408	0.0135034	-0.892578	0.0817871	-0.593506	-0.134503	0.33961	-0.925119	0.103582	-1.47777	-2.33629	-8.74619	-0.0268068	-0.0148249	-0.02005	-0.192871	0.343506	1.01001	0.812811	-0.058424	-0.577414	0.0501872	9.35075	-1.37116	3.35324	-0.0152592	-0.0169399	-0.000472459	-0.820557	0.136475	-0.6604	-0.0546865	0.127494	-0.926875	-0.348793	-1.77613	5.98479	-7.39059	-0.0261666	-0.00569519	-0.00224294	-0.269043	-0.810547	0.835693	
81	-0.433203	0.0208629	-0.900815	0.0207812	-6.9619	-0.45282	-5.59171	0.010268	-0.04868	-0.0166906	0.660889	-0.14502	0.952148	-0.229067	-0.000745417	-0.973264	-0.0168917	-4.43916	0.457372	-8.41811	-0.0167478	0.0477568	-0.0351164	0.287109	-0.266602	1.14478	0.00229149	-0.150211	-0.975999	-0.157665	0.530667	2.56111	-8.32848	0.010583	0.00413282	-0.0192754	-0.404785	-0.311279	0.954102	0.0581642	0.258404	-0.921628	0.283631	2.30317	-4.64195	-8.05734	0.007873	-0.0140737	-0.00741526	-0.591553	0.486572	0.713867	0.0151792	0.268218	-0.96305	0.0190698	0.37791	-0.25473	-9.60512	-0.189966	-0.0121929	0.0248474	-0.406006	-0.214844	1.02441	-0.0812969	-0.359936	-0.720837	-0.586711	2.46485	7.07027	-2.76827	-0.00856168	0.0155541	-0.0241835	-0.698975	-0.691162	0.599121	-0.255208	0.160004	-0.952424	0.0464295	-4.43793	-1.49281	-8.00102	-0.0262837	-0.00863077	-0.059477	0.156494	0.0522461	1.06958	0.800702	-0.123609	-0.551159	-0.199552	9.69911	0.411066	3.77879	0.00922057	0.00565396	0.00132358	-0.89502	0.0839844	-0.591309	-0.134786	0.339588	-0.925017	0.104198	-1.49443	-2.33091	-8.75306	0.0570521	0.01038	-0.0310837	-0.195312	0.343506	1.00562	0.812628	-0.0585608	-0.577667	0.0500732	9.39124	-1.42869	3.34154	-0.0147186	-0.0121389	0.000654937	-0.822998	0.136475	-0.655762	-0.054947	0.12723	-0.926958	-0.348629	-1.7267	6.09494	-7.26324	0.0206975	-0.0184922	0.0066966	-0.266602	-0.812744	0.838135	
82	-0.433961	0.0208985	-0.900446	0.0209042	-6.96927	-0.487096	-5.55977	-0.00221958	-0.0328174	0.00127415	0.656494	-0.147217	0.950195	-0.229339	0.000342435	-0.973196	-0.0171084	-4.32306	0.377249	-8.50287	0.0482895	0.0197451	-0.0193616	0.284912	-0.268799	1.14722	0.0018473	-0.14952	-0.975751	-0.159844	0.454235	2.73365	-8.42163	-0.105061	0.0168212	-0.0528279	-0.404541	-0.315674	0.956543	0.0576081	0.258268	-0.921537	0.284162	2.28104	-4.81089	-8.22166	0.0713037	-0.00228229	-0.000819003	-0.589111	0.484375	0.718506	0.0154147	0.268695	-0.962927	0.0183422	0.324655	-0.28203	-9.76173	0.0183241	0.00919903	-0.052794	-0.405762	-0.219238	1.01074	-0.081897	-0.360198	-0.720228	-0.587215	2.37653	7.35893	-2.4402	-0.0393072	0.0062567	-0.019481	-0.701172	-0.693359	0.594971	-0.255779	0.160675	-0.952173	0.0461146	-4.28415	-1.33742	-7.93553	0.0389105	-0.000113207	-0.0313935	0.156738	0.0478516	1.06543	0.800722	-0.123556	-0.551299	-0.199115	9.56757	0.179321	3.85679	0.0242827	0.00617223	-0.000458049	-0.892822	0.0883789	-0.591309	-0.135066	0.339471	-0.924844	0.105736	-1.44726	-2.3905	-8.66638	0.0543466	0.0152243	-0.0325409	-0.19751	0.341064	1.00562	0.812337	-0.0581951	-0.578047	0.0508237	9.47102	-1.60529	3.25283	0.0349256	-0.00902796	0.025797	-0.820557	0.136475	-0.6604	-0.0551793	0.127125	-0.927042	-0.348407	-1.69894	6.15679	-7.24037	0.0239896	-0.0102438	-0.00506692	-0.269043	-0.806152	0.833496	
83	-0.434488	0.0206335	-0.900218	0.0200519	-7.01794	-0.405617	-5.61341	-0.0206666	-0.0278938	0.017359	0.658691	-0.147217	0.950195	-0.229277	0.000940462	-0.973208	-0.0172445	-4.24421	0.454951	-8.49012	-0.0364725	0.0370811	-0.0500421	0.287354	-0.272949	1.14966	0.00225192	-0.148679	-0.975659	-0.161179	0.14138	2.34212	-8.79827	-0.03446	0.0239847	-0.0184676	-0.404541	-0.317871	0.956543	0.0576505	0.258362	-0.921514	0.284143	2.45777	-4.88609	-8.19703	-0.000271097	0.00782089	-0.00483134	-0.59375	0.486572	0.716309	0.0146197	0.269327	-0.962703	0.0212694	0.401993	-0.10906	-9.70422	0.138609	0.0169107	-0.0434066	-0.406006	-0.210449	1.01758	-0.0815216	-0.359075	-0.721438	-0.58647	2.29488	7.2958	-2.73307	0.0753467	0.0504844	-0.068736	-0.703125	-0.695557	0.597168	-0.255757	0.161785	-0.951999	0.0459599	-4.32949	-1.41243	-7.99893	-0.0237335	-0.0150453	-0.0622514	0.15625	0.0588379	1.06299	0.800707	-0.123488	-0.551551	-0.19852	9.65277	0.279983	3.74379	0.0168563	0.00770824	-0.00604433	-0.89502	0.0839844	-0.593506	-0.135422	0.339348	-0.924726	0.106701	-1.48078	-2.39284	-8.72282	0.0541984	0.00491116	-0.0300991	-0.19751	0.343506	1.00342	0.812113	-0.0581548	-0.578339	0.0511406	9.355	-1.45005	3.32363	0.00501901	-0.00211982	0.006457	-0.829346	0.127686	-0.662354	-0.0551227	0.127534	-0.927224	-0.347782	-1.80508	6.20396	-7.29781	0.025818	0.0139651	-0.0173689	-0.271484	-0.803955	0.840088	
84	-0.435392	0.0205213	-0.899783	0.0200901	-6.98823	-0.473347	-5.53712	-0.00554642	-0.0478159	0.0030654	0.660889	-0.14502	0.945801	-0.229016	0.000896616	-0.973282	-0.0165295	-4.23975	0.367218	-8.68561	0.0124839	0.034673	-0.0215976	0.282715	-0.266602	1.14478	0.00245484	-0.147898	-0.976055	-0.159489	0.72167	2.44631	-8.32325	0.146017	0.0201841	-0.0429849	-0.404541	-0.319824	0.954346	0.0573061	0.258834	-0.921068	0.285227	2.44152	-4.66095	-8.14604	0.0666293	-0.0112256	-0.0283222	-0.59375	0.486572	0.716309	0.0148975	0.270628	-0.96229	0.0231732	0.0973219	-0.069807	-9.95381	0.0536919	0.0332179	-0.0689528	-0.408203	-0.212646	1.01294	-0.0807164	-0.358648	-0.722955	-0.584972	2.45935	7.45795	-2.84926	0.0755959	0.0342638	-0.0161449	-0.705566	-0.687012	0.603271	-0.256095	0.161844	-0.951875	0.0464384	-4.41093	-1.45876	-7.8469	0.0557636	0.00497042	-0.0304334	0.158691	0.0522461	1.05908	0.800701	-0.123195	-0.551781	-0.198087	9.6432	0.221128	3.7682	0.0208083	0.0101786	-0.0102923	-0.896973	0.0839844	-0.593506	-0.13558	0.339194	-0.924679	0.1074	-1.44519	-2.42801	-8.64563	0.0216106	0.00778141	-0.0223469	-0.192871	0.343506	1.00122	0.811914	-0.057872	-0.578604	0.0516027	9.45429	-1.50472	3.2707	0.0263811	0.00156779	0.0101833	-0.82251	0.129883	-0.660156	-0.0548564	0.128627	-0.927473	-0.346755	-1.80168	6.12216	-7.37794	0.0258104	0.0224286	-0.0271916	-0.26709	-0.801758	0.835693	
