40	Head	00b4120a												Throax	00b411e8												LUpArm	00b411d9												LFoArm	00b41148												RUpArm	00b411db												RFoArm	00b41204												Waist	00b411f7												Lthigh	00b411f4												Lshank	00b4111b												Rthigh	00b411c8												Rshank	00b411ee												
PacketCount	q0	q1	q2	q3	accX	accY	accZ	gyrX	gyrY	gyrZ	magX	magY	magZ	q0	q1	q2	q3	accX	accY	accZ	gyrX	gyrY	gyrZ	magX	magY	magZ	q0	q1	q2	q3	accX	accY	accZ	gyrX	gyrY	gyrZ	magX	magY	magZ	q0	q1	q2	q3	accX	accY	accZ	gyrX	gyrY	gyrZ	magX	magY	magZ	q0	q1	q2	q3	accX	accY	accZ	gyrX	gyrY	gyrZ	magX	magY	magZ	q0	q1	q2	q3	accX	accY	accZ	gyrX	gyrY	gyrZ	magX	magY	magZ	q0	q1	q2	q3	accX	accY	accZ	gyrX	gyrY	gyrZ	magX	magY	magZ	q0	q1	q2	q3	accX	accY	accZ	gyrX	gyrY	gyrZ	magX	magY	magZ	q0	q1	q2	q3	accX	accY	accZ	gyrX	gyrY	gyrZ	magX	magY	magZ	q0	q1	q2	q3	accX	accY	accZ	gyrX	gyrY	gyrZ	magX	magY	magZ	q0	q1	q2	q3	accX	accY	accZ	gyrX	gyrY	gyrZ	magX	magY	magZ	
0	0.755165	0.121455	0.0897202	-0.637906	-3.2535	0.796867	10.4151	-0.0216047	-0.0104281	0.0151969	0.355225	0.318848	-0.88916	0.627927	-0.342047	-0.378658	-0.587647	8.79588	0.0963885	4.88336	-0.0165049	0.00795556	-0.00574027	-0.665283	0.297852	-0.392334	0.954053	0.00312247	0.242639	0.175784	-4.98149	0.879095	9.53995	-0.0524037	-0.00441582	0.00634224	0.620361	0.173828	-0.695312	0.092989	0.142874	0.656002	-0.735256	-3.25653	-9.23339	1.02136	-9.09807e-05	-0.0163059	-0.0128877	-0.0529785	1.02637	-0.130127	0.6087	0.163684	0.163354	-0.758952	-4.39934	-0.456001	8.70648	-0.00885732	-0.0121524	-0.00812888	0.329346	0.42334	-0.811768	0.825506	0.449496	0.243684	0.23898	-2.19279	9.44549	5.26656	0.00594589	0.00651348	-0.0121844	0.595703	-0.796387	-0.0432129	0.493075	-0.488164	-0.493111	-0.5248	9.87279	0.342599	0.365643	0.0178328	0.0307121	-0.00528205	-0.915527	0.362061	-0.0268555	0.420631	-0.51345	-0.495848	-0.559977	9.76362	1.26447	-0.18936	0.0212808	0.0126709	-0.0113706	-1.02319	0.304199	0.0852051	0.447601	-0.530882	-0.52378	-0.493429	9.74467	0.406641	-1.08312	0.0198751	0.011223	-0.019118	-1.00928	0.387451	0.135498	0.591494	-0.453316	-0.55302	-0.37257	9.7393	-1.29972	-0.173514	-0.00494558	0.0111028	0.00512138	-0.910889	0.497559	-0.0966797	0.561459	-0.463991	-0.609475	-0.313076	9.65059	-1.37771	-1.64938	-0.00520909	0.00871146	-0.00146639	-0.989502	0.591553	-0.00292969	
1	0.755348	0.12117	0.0899133	-0.637717	-3.22463	0.728676	10.4506	-0.0292995	-0.00690931	0.0155551	0.348633	0.318604	-0.886963	0.628095	-0.342014	-0.378658	-0.587487	8.76885	0.0882727	4.81633	0.00326861	0.00805276	-0.00100873	-0.661133	0.300049	-0.404053	0.953987	0.00280506	0.242739	0.176006	-4.94723	0.916867	9.53392	-0.0250771	0.01868	0.00971897	0.618164	0.177979	-0.688477	0.0929982	0.142486	0.656028	-0.735307	-3.35789	-9.29939	0.898751	-0.00200275	-0.01696	-0.0191198	-0.0510254	1.03076	-0.125732	0.608552	0.163697	0.163173	-0.759107	-4.41327	-0.558127	8.68825	0.0143486	0.00550437	-0.0183819	0.33374	0.425781	-0.821045	0.825506	0.449489	0.243696	0.238981	-2.22811	9.53407	5.2206	0.00322924	0.0143469	-0.0158669	0.595703	-0.798584	-0.0454102	0.493341	-0.4881	-0.493096	-0.524624	9.88207	0.301876	0.385038	0.0333123	0.0188544	0.000164269	-0.91333	0.362061	-0.0268555	0.420827	-0.513324	-0.496046	-0.559769	9.723	1.22762	-0.142493	0.0333062	0.0161052	-0.0123835	-1.01953	0.317383	0.0917969	0.447746	-0.530787	-0.523888	-0.493284	9.70702	0.433612	-1.03584	0.0247408	0.00665981	-0.0182737	-1.00244	0.387451	0.133301	0.591558	-0.453241	-0.553125	-0.372405	9.7458	-1.26599	-0.15004	0.0168164	0.0071093	0.00554201	-0.915771	0.506348	-0.0991211	0.561483	-0.464011	-0.609444	-0.313065	9.62427	-1.39084	-1.6489	0.0147767	0.00658974	-0.00349301	-0.987061	0.582764	-0.000732422	
2	0.755722	0.120766	0.090156	-0.637316	-3.23365	0.687647	10.4718	-0.0183718	-0.00689002	0.0201611	0.35083	0.320801	-0.88916	0.628497	-0.342011	-0.378783	-0.586978	8.80455	0.136526	4.78866	0.0109691	0.0149551	0.00390818	-0.658936	0.302246	-0.399414	0.95396	0.00240794	0.242737	0.176163	-5.03888	0.855632	9.40633	-0.0101458	-0.00405563	-0.00257454	0.618164	0.173828	-0.690674	0.0933301	0.142062	0.656138	-0.735249	-3.24131	-9.24518	1.00184	-0.0126326	-0.00834014	0.0039234	-0.048584	1.02637	-0.12793	0.608744	0.163378	0.163236	-0.759008	-4.41733	-0.477059	8.68023	-0.0318497	-0.00700132	-0.00194546	0.329346	0.423584	-0.816406	0.825431	0.449476	0.24421	0.23874	-2.21223	9.38991	5.23569	0.0121258	0.0325405	-0.0360645	0.595703	-0.798584	-0.0454102	0.494457	-0.48726	-0.492679	-0.524745	9.8784	0.396955	0.483042	0.029106	0.0756958	-0.00217325	-0.913086	0.359863	-0.0288086	0.420999	-0.513173	-0.496159	-0.559678	9.79039	1.22577	-0.105491	0.0111033	0.0212625	-0.0198807	-1.02124	0.308594	0.092041	0.447942	-0.530663	-0.52405	-0.493068	9.74473	0.428506	-1.02848	0.0193489	0.00448488	-0.0191907	-1.00708	0.389648	0.140137	0.591566	-0.453195	-0.553234	-0.372285	9.75938	-1.1928	-0.125014	0.00442908	0.0126681	0.00437651	-0.919922	0.501709	-0.0966797	0.561456	-0.463998	-0.609493	-0.313034	9.64997	-1.36161	-1.62531	0.00194825	0.00417331	-0.00403476	-0.982666	0.589355	-0.00537109	
3	0.756013	0.120535	0.0902178	-0.637006	-3.21215	0.701743	10.4549	-0.00807347	-0.00669428	0.012105	0.355469	0.31665	-0.891113	0.628778	-0.342171	-0.37886	-0.586534	8.80056	0.160508	4.86515	-0.00267935	0.00860801	0.00179888	-0.661377	0.308838	-0.39502	0.953852	0.00198841	0.242901	0.176527	-4.87098	0.906306	9.41772	-0.0304298	0.0233811	0.0104979	0.620361	0.171631	-0.688477	0.0932926	0.141524	0.656291	-0.73522	-3.21393	-9.18827	0.981503	-0.00834568	-0.00838333	-0.0183069	-0.0505371	1.02417	-0.125732	0.609157	0.163046	0.163198	-0.758756	-4.32509	-0.481951	8.72684	0.00733122	0.00241834	0.0138644	0.331787	0.421143	-0.807373	0.825301	0.449289	0.244784	0.238952	-2.21885	9.44082	5.28694	0.0051462	0.041483	-0.0137679	0.597656	-0.794189	-0.0390625	0.495632	-0.48637	-0.491649	-0.525429	9.89728	0.338652	0.425072	0.0130505	0.0876406	-0.00107096	-0.915527	0.364258	-0.0332031	0.421466	-0.512772	-0.49656	-0.559339	9.73176	1.2118	-0.174692	0.054804	0.0188803	-0.0111437	-1.01489	0.308594	0.0849609	0.448162	-0.530459	-0.524444	-0.492669	9.77141	0.438639	-1.06125	0.0301633	0.000236192	-0.0230661	-1.00488	0.389648	0.140137	0.591573	-0.453123	-0.553401	-0.372114	9.75505	-1.25409	-0.128878	0.00858567	0.0101153	-0.000376628	-0.910889	0.495361	-0.103271	0.561447	-0.463911	-0.609618	-0.312938	9.63898	-1.35664	-1.64857	0.00717905	-0.000331726	-0.00453062	-0.989502	0.589355	-0.000732422	
4	0.756181	0.120391	0.0903358	-0.636817	-3.17724	0.728833	10.4474	-0.00787809	-0.00472551	0.008926	0.35498	0.322998	-0.88916	0.629024	-0.342326	-0.378621	-0.586334	8.7963	0.0526903	4.79026	-0.0071148	0.00976023	-0.00414006	-0.663574	0.306641	-0.399658	0.95375	0.00161449	0.242943	0.177021	-4.93923	0.937326	9.50145	-0.00714853	0.00879203	0.0154636	0.620361	0.176025	-0.693115	0.0934135	0.141168	0.656417	-0.735161	-3.29734	-9.20878	0.837216	-0.00879145	-0.00791168	-0.00399854	-0.0527344	1.01978	-0.123535	0.609506	0.162802	0.16335	-0.758495	-4.36632	-0.540123	8.76122	-0.0162963	0.00483183	-0.00158878	0.331543	0.423584	-0.821045	0.825145	0.449219	0.245346	0.239048	-2.24919	9.457	5.1977	0.0106381	0.0308603	-0.020513	0.593506	-0.796387	-0.0410156	0.496983	-0.485233	-0.490378	-0.526389	9.92392	0.300431	0.556666	0.0283254	0.100241	-0.00537099	-0.913574	0.366455	-0.0395508	0.421972	-0.51241	-0.497112	-0.558799	9.76848	1.25835	-0.183216	0.0333023	0.0162152	-0.0150031	-1.01929	0.312988	0.092041	0.448525	-0.530143	-0.524901	-0.492192	9.74358	0.457008	-1.05716	0.0449816	0.00267091	-0.0208905	-1.00244	0.387451	0.140137	0.591519	-0.453227	-0.5534	-0.372074	9.72942	-1.18906	-0.186416	0.00710565	0.00716402	0.00894228	-0.913086	0.495361	-0.0964355	0.561348	-0.464014	-0.609697	-0.312808	9.63305	-1.37702	-1.66318	0.00941815	0.000395124	0.000213418	-0.980469	0.589355	-0.000732422	
5	0.756443	0.120372	0.0908013	-0.636443	-3.16789	0.698653	10.4318	-0.019074	0.0156988	0.0176317	0.355469	0.31665	-0.893311	0.629434	-0.342183	-0.378364	-0.586144	8.79321	0.139703	4.83235	0.00159246	0.0317844	-0.00232905	-0.66333	0.304443	-0.401855	0.953673	0.00159034	0.243055	0.177282	-4.98108	0.90864	9.39139	-3.35275e-05	0.0061337	0.00719779	0.620605	0.167236	-0.690674	0.0936207	0.140742	0.656677	-0.734984	-3.22681	-9.21482	1.00062	-0.013125	-0.00603096	-0.0036707	-0.0576172	1.03076	-0.123535	0.609693	0.162761	0.163656	-0.758287	-4.39541	-0.468627	8.67712	-0.0202813	0.0143886	-0.00555999	0.324951	0.42334	-0.811768	0.825057	0.449063	0.245824	0.239155	-2.17636	9.45216	5.27918	-0.00665375	0.038919	-0.022971	0.602051	-0.794189	-0.0432129	0.4988	-0.483679	-0.489072	-0.527315	9.89319	0.349552	0.540818	0.0492109	0.122104	-0.00162931	-0.913574	0.368652	-0.0439453	0.422034	-0.512399	-0.497187	-0.558695	9.72901	1.26286	-0.143717	0.015488	0.0147918	-0.0130849	-1.01709	0.312988	0.0871582	0.448693	-0.530029	-0.525178	-0.491866	9.74762	0.422409	-1.06917	0.026768	-0.00233305	-0.0210048	-1.00732	0.394287	0.135498	0.591552	-0.453151	-0.553558	-0.37188	9.77748	-1.25373	-0.190085	0.00227742	0.0100097	-0.00095295	-0.913086	0.497559	-0.0942383	0.561305	-0.464045	-0.609773	-0.312691	9.65365	-1.32827	-1.66402	-0.00157029	0.00209778	-0.00215211	-0.984863	0.587158	-0.000732422	
6	0.756545	0.12049	0.0911478	-0.63625	-3.24945	0.66957	10.4743	-0.0122723	0.0236707	0.0130933	0.353271	0.31665	-0.891113	0.629694	-0.342084	-0.378069	-0.586111	8.81095	0.13693	4.80141	-0.0121517	0.0282867	-0.00719696	-0.663574	0.308838	-0.392578	0.953626	0.0011863	0.243076	0.177511	-4.96226	0.944238	9.4128	-0.0210617	0.0102024	-0.000310766	0.620361	0.171631	-0.686035	0.0934798	0.140467	0.656543	-0.735174	-3.2673	-9.1719	0.897889	0.0158631	-0.00105289	-0.014451	-0.0529785	1.02637	-0.123535	0.609721	0.162643	0.163747	-0.758271	-4.36211	-0.565801	8.72147	-0.0127926	0.00520283	-0.0107849	0.33374	0.425781	-0.814209	0.825045	0.448857	0.246091	0.239305	-2.27532	9.38539	5.24568	-0.00733692	0.0408787	-0.0184863	0.59375	-0.800537	-0.0432129	0.502008	-0.480518	-0.486277	-0.52974	9.89193	0.313129	0.69769	0.0155788	0.279529	-0.00472931	-0.90918	0.364258	-0.0544434	0.422371	-0.511931	-0.497395	-0.558684	9.78418	1.24472	-0.119997	0.0218276	0.0225005	-0.0138016	-1.02124	0.310791	0.0874023	0.44861	-0.530212	-0.525274	-0.491642	9.72592	0.417051	-1.03987	0.00044763	-0.00606512	-0.0156151	-1.00269	0.39209	0.135498	0.591553	-0.453211	-0.553607	-0.371731	9.76955	-1.17245	-0.158585	-0.0017091	0.00474173	0.00941778	-0.913086	0.497559	-0.0942383	0.561183	-0.464206	-0.609717	-0.31278	9.62706	-1.34112	-1.64523	-0.0140921	0.00291097	-0.00110967	-0.991699	0.589355	0.00610352	
7	0.756691	0.120574	0.0914194	-0.636022	-3.33428	0.683401	10.5052	-0.00379266	-0.00888647	0.0105115	0.357666	0.314453	-0.895508	0.630015	-0.34186	-0.377825	-0.586055	8.7881	0.05435	4.77171	-0.00641401	0.0412505	-0.00982248	-0.665771	0.306641	-0.399658	0.953641	0.00115385	0.243007	0.177526	-4.89496	0.899598	9.38866	0.00927277	3.87106e-05	-0.000242165	0.620605	0.167236	-0.683838	0.0934416	0.140525	0.65647	-0.735234	-3.23526	-9.28645	0.882225	0.0132624	0.012033	0.0106873	-0.057373	1.02417	-0.130127	0.609981	0.162785	0.163898	-0.757998	-4.33858	-0.448029	8.66285	-0.00797643	0.014472	0.00347075	0.33374	0.421387	-0.816406	0.824791	0.448975	0.246331	0.239712	-2.19011	9.51687	5.2566	0.0119322	0.0264137	-0.00448038	0.595703	-0.798584	-0.0410156	0.503959	-0.478589	-0.484491	-0.531268	9.85808	0.29943	0.703523	0.0313326	0.300047	-0.00110837	-0.906982	0.364258	-0.0673828	0.422368	-0.512024	-0.497401	-0.558595	9.76824	1.27863	-0.120497	0.0173802	0.0156485	-0.00817698	-1.01489	0.310791	0.092041	0.448283	-0.5307	-0.525152	-0.491544	9.74106	0.470438	-1.04348	-0.0161181	-0.010815	-0.0102538	-1.00708	0.389648	0.140137	0.591334	-0.453666	-0.553403	-0.371828	9.7596	-1.24372	-0.205946	-0.0252454	0.00774491	0.0105556	-0.911133	0.50415	-0.0922852	0.561047	-0.464421	-0.609747	-0.312647	9.66442	-1.33559	-1.69049	-0.00581786	-0.000933624	0.001767	-0.987061	0.584961	-0.00512695	
8	0.756849	0.120305	0.0911955	-0.635916	-3.22131	0.730093	10.4368	-0.00592004	-0.0131947	0.00333427	0.355225	0.318848	-0.891113	0.629865	-0.342277	-0.377653	-0.586084	8.74823	0.129143	4.8207	-0.00702786	-0.00116711	-0.013994	-0.661377	0.306641	-0.397217	0.953688	0.000859369	0.242825	0.177525	-4.97663	0.906314	9.48592	-0.0173834	0.00637924	-0.00182487	0.622559	0.167236	-0.688232	0.0932829	0.140356	0.656314	-0.735426	-3.2633	-9.19033	0.958361	0.00444996	0.00200792	-0.0181077	-0.0595703	1.02417	-0.12793	0.610061	0.162705	0.164079	-0.757912	-4.36313	-0.510063	8.70772	-0.0108746	0.00707389	-0.0107509	0.33374	0.425781	-0.816406	0.824699	0.449159	0.246366	0.239649	-2.18184	9.39455	5.21045	0.000136356	0.00379362	-0.00667699	0.591553	-0.802734	-0.0388184	0.508582	-0.47387	-0.480892	-0.534354	9.9907	0.297011	0.583013	0.0181439	0.223678	7.60458e-05	-0.909424	0.368652	-0.078125	0.422355	-0.51222	-0.497149	-0.558651	9.74128	1.21029	-0.148713	-0.00542666	0.0215647	-0.00919672	-1.0127	0.310791	0.0849609	0.447834	-0.531338	-0.524954	-0.491475	9.76457	0.406561	-1.07499	-0.0167841	-0.0150541	-0.00964724	-1.00708	0.389648	0.137695	0.591293	-0.453992	-0.553154	-0.371866	9.77501	-1.26129	-0.0918108	-0.00707702	0.0176854	0.0135992	-0.911133	0.501953	-0.0944824	0.560629	-0.465054	-0.609497	-0.312944	9.64678	-1.34172	-1.63916	-0.0278666	0.000136088	0.00362831	-0.989502	0.591553	0.00146484	
9	0.756888	0.120104	0.0912492	-0.635901	-3.22781	0.647881	10.48	-0.0147194	-0.0115454	-0.000265221	0.352783	0.327393	-0.88916	0.629894	-0.342257	-0.377737	-0.586011	8.80084	0.0965245	4.80743	0.00283187	0.00917712	-0.0155969	-0.66333	0.304443	-0.401855	0.953665	0.000562743	0.242879	0.177575	-4.91755	0.887021	9.3544	-0.0227292	0.0138809	-0.00146743	0.618164	0.171631	-0.683838	0.0932007	0.140183	0.656294	-0.735486	-3.21171	-9.25959	0.923866	0.00394178	7.26067e-06	-0.0126041	-0.0551758	1.02417	-0.123535	0.6099	0.162768	0.164031	-0.758038	-4.38234	-0.48389	8.63694	0.00727821	0.00925204	-0.0212201	0.331787	0.421143	-0.811768	0.824783	0.449056	0.246229	0.239693	-2.1847	9.47457	5.18208	-0.00969803	0.00597216	-0.0118071	0.593506	-0.794189	-0.0390625	0.510402	-0.471956	-0.4796	-0.535473	9.83002	0.282095	0.860379	0.0624143	0.258589	-0.0087869	-0.907227	0.37085	-0.0822754	0.422391	-0.512294	-0.49682	-0.558848	9.77451	1.23256	-0.174475	-0.0045119	0.0348966	-0.011545	-1.01733	0.315186	0.0825195	0.447586	-0.53167	-0.524904	-0.491395	9.74641	0.416063	-1.14534	-0.0161998	-0.018225	-0.0115895	-1.00464	0.387451	0.140137	0.591186	-0.45424	-0.553044	-0.371898	9.77157	-1.25271	-0.216299	-0.0194429	0.00727699	0.0129986	-0.913086	0.499756	-0.092041	0.560316	-0.465609	-0.609283	-0.313095	9.65861	-1.36496	-1.72744	-0.0324447	0.000831073	0.00659654	-0.980469	0.589355	0.00146484	
10	0.756806	0.12	0.0909484	-0.63606	-3.17877	0.726093	10.4019	0.0133706	-0.0172287	-0.00672792	0.35083	0.320801	-0.891357	0.630078	-0.342127	-0.377601	-0.585977	8.76154	0.137425	4.79757	-0.00449781	0.0284176	-0.0120055	-0.65918	0.306641	-0.397217	0.953768	-0.000126493	0.242373	0.177712	-4.9135	0.822877	9.44629	-0.0151621	-0.00617445	-0.00184234	0.616211	0.171631	-0.690674	0.0933401	0.14011	0.656233	-0.735537	-3.2547	-9.17847	0.961657	-0.00254202	0.000183102	0.00408713	-0.0529785	1.02856	-0.123535	0.609784	0.162478	0.164012	-0.758198	-4.30316	-0.536448	8.73888	-0.00960093	-0.000853899	-0.01583	0.33374	0.425781	-0.816406	0.824943	0.448993	0.246226	0.239263	-2.24894	9.44697	5.22833	0.00099839	-0.00214453	-0.0240572	0.602295	-0.798584	-0.0432129	0.511507	-0.470951	-0.478643	-0.536159	10.0058	0.340783	0.936601	0.0166882	0.111578	-0.00571414	-0.907227	0.368652	-0.0864258	0.422335	-0.512532	-0.496589	-0.558877	9.71909	1.18873	-0.179784	-0.0108591	0.013776	-0.00776898	-1.02124	0.310791	0.0849609	0.446931	-0.532499	-0.524535	-0.491488	9.68707	0.369655	-1.06906	-0.030597	-0.0114886	-0.0117733	-1.00464	0.387451	0.144531	0.590932	-0.454789	-0.552788	-0.37201	9.77595	-1.23742	-0.128672	-0.0280363	0.00560687	0.0158636	-0.915283	0.497559	-0.098877	0.559966	-0.466257	-0.608986	-0.313336	9.61887	-1.41206	-1.66986	-0.030423	0.00220388	0.00727304	-0.980713	0.591553	0.00390625	
11	0.7569	0.119973	0.0910605	-0.635938	-3.1974	0.737477	10.4441	-0.00954174	0.00366669	0.00499046	0.357422	0.321045	-0.891113	0.63028	-0.341947	-0.377496	-0.585932	8.76022	0.0813341	4.84425	-0.00338348	0.0264776	-0.0131651	-0.661377	0.306641	-0.401855	0.953785	0.000158527	0.242378	0.177617	-4.91244	0.957151	9.44394	0.00631132	0.0002358	-0.00362754	0.624512	0.175781	-0.690918	0.0931193	0.140076	0.656253	-0.735554	-3.25651	-9.21079	1.02858	-0.000664211	0.0165111	-0.00749373	-0.057373	1.02637	-0.125732	0.60955	0.162609	0.164347	-0.758286	-4.38114	-0.516218	8.66712	-0.00527074	0.0168821	-0.0161591	0.327148	0.425781	-0.816406	0.824859	0.449202	0.246117	0.239273	-2.20019	9.44907	5.28492	0.00726513	0.0143351	-0.0105021	0.595703	-0.794189	-0.0412598	0.513459	-0.46898	-0.476938	-0.537539	9.87964	0.271305	1.05034	0.0342453	0.134551	-0.00654079	-0.905029	0.37085	-0.0930176	0.422219	-0.512793	-0.496166	-0.559101	9.77718	1.20279	-0.133691	-0.0252149	0.0307026	-0.00796115	-1.01904	0.308594	0.0895996	0.446345	-0.533188	-0.524292	-0.491532	9.69595	0.311982	-1.0693	-0.0116237	-0.0151957	-0.0155781	-0.998047	0.39209	0.144531	0.591004	-0.454914	-0.552726	-0.371834	9.82011	-1.37797	-0.134622	0.010245	0.0121742	0.00685146	-0.913574	0.506348	-0.0944824	0.559744	-0.466588	-0.609036	-0.313142	9.66342	-1.39158	-1.67895	0.0101043	-0.00777017	0.00327528	-0.987549	0.59375	-0.000732422	
12	0.756926	0.119976	0.0911841	-0.635889	-3.25432	0.730733	10.5169	-0.00590587	0.00336004	0.00186262	0.350586	0.322998	-0.886963	0.6305	-0.341798	-0.377187	-0.585981	8.82877	0.108249	4.83909	-0.00789635	0.0320505	-0.0121439	-0.661377	0.306641	-0.399658	0.953826	-0.000254268	0.242263	0.17755	-4.91254	0.838466	9.54776	-0.0134639	0.00852752	-0.00680227	0.615967	0.178223	-0.693115	0.0928745	0.140147	0.656223	-0.735598	-3.27641	-9.24411	0.956833	-0.00362673	0.00975337	-0.00450478	-0.0529785	1.02856	-0.123535	0.609579	0.162427	0.164604	-0.758246	-4.36842	-0.513471	8.69182	-0.0213359	0.0102629	-0.0101518	0.33374	0.42334	-0.80957	0.824887	0.449086	0.246253	0.239254	-2.19227	9.47246	5.19852	0.00624747	0.0152784	-0.0218278	0.593506	-0.796387	-0.0410156	0.515322	-0.4672	-0.474865	-0.539138	9.88884	0.258084	1.24294	0.0155738	0.15547	-0.00337274	-0.907471	0.373047	-0.10376	0.422107	-0.512997	-0.495947	-0.559193	9.81498	1.19678	-0.1496	-0.0106459	0.0173231	-0.0125382	-1.01709	0.310791	0.0895996	0.445834	-0.533821	-0.524087	-0.491528	9.77697	0.313975	-1.21433	-0.0193422	-0.0108763	-0.0118886	-1.01196	0.391846	0.146729	0.591155	-0.454821	-0.552734	-0.371695	9.78712	-1.19463	-0.167625	-0.00240045	0.0131458	0.00767112	-0.910889	0.497559	-0.0942383	0.559507	-0.4669	-0.60906	-0.313054	9.69063	-1.38835	-1.72656	0.00400414	-0.00370585	0.000379083	-0.980469	0.587158	0.00854492	
13	0.756988	0.119609	0.0914697	-0.635843	-3.24786	0.734294	10.4206	-0.0180632	-0.0052523	0.00286404	0.35498	0.325195	-0.891357	0.630925	-0.341576	-0.376634	-0.586008	8.77689	0.078462	4.89519	-0.00647065	0.0363242	-0.00299089	-0.656982	0.304443	-0.401855	0.953748	-0.000101568	0.242511	0.177632	-4.93387	0.882961	9.49764	0.0115884	0.0129672	0.00810761	0.624512	0.175781	-0.695312	0.0928829	0.139842	0.656543	-0.735369	-3.27671	-9.22425	0.985395	-0.0141024	0.000512364	-0.00908594	-0.0549316	1.02197	-0.130127	0.609484	0.162166	0.165338	-0.758218	-4.38472	-0.530538	8.68772	-0.0278838	0.0175658	-0.0246087	0.331299	0.427734	-0.811768	0.824815	0.449221	0.246475	0.239018	-2.22526	9.44259	5.25892	0.00868471	0.0161902	-0.0246797	0.5979	-0.798584	-0.0388184	0.516718	-0.466086	-0.473	-0.540405	9.92551	0.293528	1.22056	-0.00767646	0.12352	0.000990773	-0.902832	0.366699	-0.103516	0.422441	-0.512817	-0.496291	-0.5588	9.73049	1.15343	-0.192196	0.038529	0.00610196	-0.00963529	-1.01074	0.312988	0.0895996	0.445972	-0.53377	-0.524384	-0.491141	9.70757	0.364907	-1.14688	0.0215795	-0.000794988	-0.0182117	-1.00464	0.387451	0.140137	0.590969	-0.455127	-0.55267	-0.371712	9.73223	-1.33079	-0.198835	-0.00942389	0.00557407	0.00696075	-0.911133	0.501953	-0.092041	0.559327	-0.467175	-0.609015	-0.313051	9.58732	-1.36798	-1.7173	0.0025865	0.00189778	0.00255324	-0.985107	0.591553	0.00830078	
14	0.757033	0.119537	0.0916616	-0.635775	-3.14952	0.770317	10.3945	-0.0141589	0.00384436	0.00306723	0.348633	0.320801	-0.88916	0.631173	-0.341429	-0.376347	-0.586012	8.73424	0.0846444	4.84557	-0.00534261	0.0423119	-0.00318246	-0.656982	0.306641	-0.399658	0.953664	-0.000185915	0.242773	0.177727	-4.97187	0.942334	9.51616	-0.00301193	0.0280277	0.00533218	0.618164	0.171631	-0.688477	0.0927607	0.139531	0.656691	-0.735311	-3.26605	-9.21095	0.927893	-0.0128829	-0.00344858	-0.0235279	-0.0529785	1.02856	-0.123535	0.609386	0.162182	0.165607	-0.758235	-4.35643	-0.550852	8.71483	-0.0147458	0.0227938	-0.0210676	0.333496	0.429932	-0.80957	0.824757	0.44928	0.246572	0.239012	-2.23873	9.41119	5.25939	0.0114502	0.0194682	-0.0171056	0.597656	-0.789795	-0.0349121	0.517736	-0.465175	-0.471654	-0.54139	9.88647	0.25854	0.908969	-0.00572254	0.182212	0.00296183	-0.906982	0.366699	-0.109863	0.42261	-0.512758	-0.496369	-0.558657	9.76454	1.25331	-0.11595	0.0229493	0.0193174	-0.00909536	-1.01685	0.308594	0.0874023	0.446045	-0.533762	-0.524517	-0.490942	9.72316	0.424581	-1.0974	0.0212981	-0.00325768	-0.0163689	-1.00513	0.394287	0.146729	0.590936	-0.455243	-0.552592	-0.371741	9.71658	-1.25738	-0.154195	-0.00946014	0.0128953	0.008545	-0.908691	0.499756	-0.092041	0.559217	-0.467351	-0.608978	-0.313058	9.61142	-1.38486	-1.67353	-0.00952917	-0.000631731	0.0028443	-0.985107	0.591553	0.00146484	
15	0.757239	0.119652	0.0931624	-0.63529	-3.27669	0.626862	10.4869	-0.0128181	0.0377458	0.0056558	0.357178	0.325195	-0.891357	0.631935	-0.341196	-0.375374	-0.58595	8.75628	0.109394	4.88786	-0.0172005	0.0584681	-0.00114226	-0.652588	0.304443	-0.404297	0.953362	-0.00126779	0.243779	0.177963	-4.98501	0.836083	9.43801	-0.024314	0.0340316	-0.00107129	0.618164	0.176025	-0.690918	0.0922708	0.138721	0.657298	-0.734984	-3.18264	-9.29342	0.895961	-0.0269777	0.00500533	-0.0181843	-0.0639648	1.02612	-0.121338	0.609312	0.162115	0.166439	-0.758126	-4.47473	-0.585798	8.63567	-0.0226463	0.021563	-0.0172768	0.335938	0.42334	-0.807373	0.824594	0.449335	0.24697	0.239059	-2.23884	9.49572	5.14504	0.0148293	0.0329313	-0.0196017	0.599854	-0.794189	-0.0390625	0.520283	-0.463132	-0.469	-0.543004	9.9061	0.30302	1.33622	-0.00499853	0.104618	0.00464115	-0.903076	0.371094	-0.120605	0.422633	-0.512905	-0.496272	-0.558591	9.79848	1.30811	-0.122932	-0.00678242	0.0195441	-0.00704604	-1.01929	0.315186	0.0849609	0.445822	-0.533868	-0.52458	-0.490962	9.73936	0.43985	-1.11522	-0.00316765	-0.00391167	-0.0144145	-1.00708	0.389648	0.142334	0.590987	-0.455361	-0.552533	-0.371603	9.74323	-1.25311	-0.226693	0.00396291	0.0129727	0.011866	-0.910889	0.499756	-0.0966797	0.559145	-0.467555	-0.608979	-0.312881	9.64283	-1.35041	-1.71502	-0.00536107	0.000946276	0.0034976	-0.980713	0.591553	-0.000732422	
16	0.75728	0.119788	0.0936717	-0.635141	-3.40062	0.63313	10.4434	-0.0085829	0.00759454	0.00251152	0.359375	0.323242	-0.886963	0.632515	-0.340851	-0.374315	-0.586203	8.70526	0.0544787	4.86375	-0.0173087	0.0559561	-0.00307828	-0.654785	0.308838	-0.404541	0.953147	-0.00112475	0.244554	0.17805	-4.97101	0.898461	9.40792	0.0139422	0.0325142	0.00401896	0.615967	0.178223	-0.688477	0.0920682	0.138361	0.657675	-0.734741	-3.17959	-9.14028	0.885136	-0.0175433	0.00469177	-0.0169086	-0.0527344	1.02197	-0.125732	0.609604	0.161768	0.167078	-0.757825	-4.36999	-0.547554	8.67846	-0.0367024	0.0116678	0.00138227	0.329102	0.429932	-0.80957	0.824378	0.449343	0.247755	0.238976	-2.26067	9.40927	5.18333	0.0138844	0.0408249	-0.0323775	0.593506	-0.794189	-0.0368652	0.521116	-0.462607	-0.467218	-0.544187	9.81879	0.277539	1.37971	-0.0198021	0.074595	-0.000806027	-0.898926	0.375244	-0.122803	0.422558	-0.513218	-0.495933	-0.558661	9.76869	1.15373	-0.177891	-0.0114207	0.0116697	-0.00716181	-1.01489	0.312988	0.0871582	0.445632	-0.534302	-0.52445	-0.490801	9.71841	0.356431	-1.155	-0.00492236	-0.00710494	-0.00969343	-1.00513	0.396484	0.148926	0.591001	-0.455571	-0.552446	-0.371451	9.75991	-1.27892	-0.126843	-0.00178921	0.00702007	0.0134209	-0.911133	0.506348	-0.0944824	0.559072	-0.467906	-0.608771	-0.31289	9.63137	-1.39447	-1.69892	-0.00740623	0.00475095	0.00751612	-0.98291	0.59375	0.00366211	
17	0.757305	0.11976	0.0937668	-0.635102	-3.35785	0.651328	10.4666	-0.0063154	-1.30673e-05	0.00135058	0.359619	0.321045	-0.884766	0.632713	-0.340729	-0.374035	-0.586238	8.68998	0.0120367	4.91156	-0.00829455	0.0401249	-0.00658502	-0.654785	0.306641	-0.406738	0.953049	-0.001321	0.244889	0.178116	-4.95879	0.923195	9.3522	-0.00936355	0.035876	0.000665069	0.622559	0.175781	-0.684082	0.0920682	0.138361	0.657675	-0.734741	-3.17959	-9.14028	0.885136	-0.0175433	0.00469177	-0.0169086	-0.0527344	1.02197	-0.125732	0.609731	0.161593	0.167635	-0.757637	-4.39097	-0.590689	8.68717	-0.0149122	0.020053	-0.00945876	0.331299	0.432129	-0.80957	0.824264	0.449256	0.248229	0.23904	-2.22006	9.41063	5.18876	0.00310668	0.0276325	-0.0178999	0.597656	-0.791992	-0.0412598	0.521706	-0.462122	-0.466314	-0.54481	9.86086	0.223694	1.18169	-0.00714098	0.115464	-0.00170555	-0.900879	0.373291	-0.127197	0.422772	-0.513202	-0.495928	-0.558518	9.76948	1.19842	-0.177577	0.0187965	0.0219461	-0.00881554	-1.01709	0.310791	0.0895996	0.445613	-0.534606	-0.524393	-0.490549	9.7377	0.385404	-1.14896	0.0111066	-0.000445035	-0.00882067	-1.00269	0.394287	0.146729	0.591127	-0.455682	-0.552346	-0.371264	9.73166	-1.28552	-0.207131	0.00622194	0.0143149	0.0130902	-0.911133	0.501953	-0.092041	0.559021	-0.468193	-0.608648	-0.312792	9.62925	-1.38917	-1.71514	-0.000654837	0.00267054	0.00771874	-0.980713	0.591553	0.0107422	
18	0.757452	0.119621	0.0938102	-0.634947	-3.29196	0.68118	10.4848	-0.00534773	-0.00751776	0.00867703	0.352783	0.322998	-0.88916	0.633143	-0.340278	-0.373754	-0.586216	8.75559	0.0602531	4.86874	0.00835268	0.0378092	-0.0108879	-0.650635	0.311035	-0.404541	0.953004	-0.00160138	0.244984	0.178224	-4.97036	0.815626	9.34589	0.00064599	0.00285563	0.00335784	0.622559	0.173584	-0.683838	0.091821	0.138066	0.658049	-0.734491	-3.12436	-9.18812	0.81967	-0.00865093	0.00305783	-0.00473316	-0.0549316	1.02197	-0.123535	0.609468	0.16183	0.168014	-0.757714	-4.41698	-0.56753	8.6802	-0.00388156	0.0215844	-0.0160646	0.335449	0.434326	-0.80957	0.824163	0.449327	0.248294	0.239185	-2.26069	9.45845	5.13522	0.0117228	0.0154047	-0.00870191	0.5979	-0.796387	-0.0324707	0.522987	-0.460802	-0.465115	-0.545724	9.85178	0.265479	1.61655	0.0165081	0.0851379	-0.013777	-0.898682	0.371094	-0.133545	0.422857	-0.513441	-0.495782	-0.558364	9.78792	1.22438	-0.203851	-0.00674556	0.016698	-0.000989152	-1.01709	0.310791	0.0849609	0.445645	-0.534918	-0.524177	-0.490409	9.72833	0.361106	-1.14819	-0.00339849	0.000645771	-0.0059587	-0.99585	0.396484	0.148926	0.591352	-0.455626	-0.552354	-0.370963	9.75632	-1.28179	-0.170227	0.0213514	0.0119965	0.0109872	-0.913086	0.499756	-0.0942383	0.559115	-0.468312	-0.608641	-0.312459	9.59757	-1.3863	-1.71763	0.00962527	0.00196167	0.00721992	-0.980713	0.59375	0.00610352	
19	0.757707	0.119381	0.0937242	-0.6347	-3.26307	0.705026	10.4235	-0.00759247	-0.012846	0.0125335	0.35498	0.322998	-0.88916	0.633533	-0.339802	-0.373526	-0.586216	8.74122	0.0918464	4.90525	0.00670488	0.0376393	-0.0114563	-0.657227	0.311035	-0.406738	0.953006	-0.00154073	0.24485	0.178397	-5.03827	0.874067	9.44326	-0.00682521	-0.00142177	0.00778325	0.622559	0.173584	-0.686279	0.0919918	0.137888	0.657958	-0.734585	-3.1684	-9.24422	0.933957	0.00319118	-0.00409038	0.00310506	-0.0593262	1.02197	-0.123535	0.609434	0.161998	0.168394	-0.757621	-4.49316	-0.638041	8.65561	-0.00776047	0.019659	-0.0101352	0.331299	0.432129	-0.811768	0.824074	0.44954	0.248101	0.239295	-2.23682	9.4276	5.16137	0.0165678	0.00760287	-0.00194385	0.5979	-0.798584	-0.0410156	0.523881	-0.459954	-0.46404	-0.546496	9.82178	0.26433	1.3071	0.0244513	0.0745926	-0.00586031	-0.896484	0.371094	-0.131348	0.423058	-0.513475	-0.495657	-0.558291	9.78381	1.21391	-0.0786168	0.0128124	0.0208576	-0.00740098	-1.01489	0.312988	0.0849609	0.445494	-0.535407	-0.523896	-0.490314	9.73654	0.43338	-1.10691	-0.0203116	-0.00466554	-0.00488986	-1.00049	0.396484	0.15332	0.59155	-0.455529	-0.552383	-0.370722	9.73687	-1.27926	-0.196876	0.0235229	0.0145532	0.0152693	-0.908691	0.501953	-0.0898438	0.559053	-0.468627	-0.60852	-0.312335	9.63142	-1.36107	-1.71816	-0.0124538	0.00338263	0.00959725	-0.987549	0.595947	0.00830078	
20	0.757966	0.11928	0.0937072	-0.634412	-3.25221	0.67125	10.4547	-0.00260987	-0.00550565	0.0154778	0.35498	0.322998	-0.891357	0.633884	-0.339506	-0.373152	-0.586247	8.7252	0.0707589	4.94345	-0.00253327	0.0412281	-0.0111994	-0.652832	0.308838	-0.40918	0.952879	-0.00178262	0.244964	0.178918	-4.96998	0.874411	9.47655	-0.0092264	0.018253	0.0181602	0.622559	0.175781	-0.684082	0.0921898	0.137495	0.658161	-0.734453	-3.23639	-9.29196	0.912772	-0.00948351	-0.00927457	-0.00418732	-0.0617676	1.02612	-0.121338	0.609642	0.16229	0.168417	-0.757386	-4.39821	-0.540573	8.6349	-0.00410243	0.0180806	0.00660651	0.337891	0.432129	-0.80957	0.82381	0.449805	0.248294	0.239504	-2.23343	9.44754	5.19645	0.0098066	0.0271058	-0.00889487	0.5979	-0.796387	-0.0368652	0.524208	-0.459888	-0.463955	-0.54631	9.90105	0.24209	1.45899	0.0223397	0.0166806	-0.00615106	-0.898926	0.377441	-0.129395	0.422956	-0.513799	-0.495064	-0.558597	9.77073	1.18678	-0.137784	-0.0268576	0.0253814	-0.00270946	-1.02173	0.321777	0.0847168	0.444924	-0.53629	-0.523369	-0.490429	9.71248	0.393568	-1.09986	-0.0374023	-0.0105518	-0.00505285	-0.998047	0.391846	0.15332	0.59178	-0.455727	-0.552005	-0.370676	9.75406	-1.17415	-0.177986	-0.0110742	0.0151611	0.0118355	-0.908936	0.50415	-0.0944824	0.558742	-0.469359	-0.608066	-0.312674	9.63467	-1.33288	-1.73547	-0.0551953	0.00848311	0.0107994	-0.980713	0.591553	0.0107422	
21	0.758207	0.119308	0.0937832	-0.634108	-3.24054	0.696016	10.441	-0.00381812	0.000951094	0.0124993	0.357178	0.325195	-0.88916	0.634309	-0.339268	-0.372573	-0.586292	8.70375	0.0315916	4.94665	-0.0131459	0.0345878	-0.00524337	-0.656982	0.308838	-0.406738	0.952793	-0.00190673	0.245136	0.179136	-5.01608	0.894568	9.40226	-0.00978953	0.0216994	0.014227	0.631104	0.175781	-0.684082	0.0923359	0.137076	0.658442	-0.73426	-3.18356	-9.21589	0.907116	-0.027168	-0.00522722	-0.00579254	-0.0617676	1.02393	-0.123535	0.610105	0.161936	0.168798	-0.757005	-4.43279	-0.603185	8.66621	-0.0198984	0.00220609	0.00511781	0.337891	0.427734	-0.80957	0.823587	0.44983	0.248874	0.239624	-2.23844	9.41187	5.20396	0.0210587	0.0381612	-0.0214372	0.591553	-0.800537	-0.0302734	0.524987	-0.459381	-0.463254	-0.546583	9.84882	0.171118	1.32206	0.0313253	0.0474221	0.000677287	-0.90332	0.375244	-0.133545	0.422927	-0.514066	-0.494409	-0.558953	9.78535	1.1744	-0.095781	-0.0310249	0.0337024	-0.00633409	-1.01929	0.310791	0.0895996	0.444032	-0.537458	-0.522656	-0.49072	9.71874	0.375812	-1.14734	-0.0562571	-0.0161677	-0.00446249	-1.00513	0.396484	0.15332	0.591337	-0.45646	-0.551672	-0.370975	9.78992	-1.24975	-0.181559	-0.0388222	0.0127264	0.0058137	-0.911133	0.501953	-0.092041	0.557698	-0.471017	-0.607072	-0.313975	9.66524	-1.2272	-1.69187	-0.134293	0.00703208	0.0143668	-0.978516	0.595947	0.0129395	
22	0.758441	0.11921	0.0941404	-0.633793	-3.26	0.625712	10.4981	-0.0179219	0.00386957	0.0144027	0.36377	0.327637	-0.891357	0.634804	-0.338821	-0.372227	-0.586235	8.74853	0.0279832	4.93874	0.0223181	0.0348216	-0.0096423	-0.652832	0.313232	-0.40918	0.952564	-0.00201271	0.245714	0.179563	-5.04983	0.865435	9.37743	-0.00552094	0.0179818	0.00538435	0.626953	0.169189	-0.688477	0.0923194	0.136725	0.658572	-0.734211	-3.14362	-9.26059	0.901522	-0.00444774	-0.00325793	-0.00933921	-0.0617676	1.02612	-0.121338	0.610243	0.161966	0.16887	-0.756871	-4.34796	-0.587985	8.69488	-0.0074978	0.0127028	0.00287576	0.333496	0.429932	-0.807373	0.823422	0.449961	0.249119	0.23969	-2.23951	9.47311	5.20175	0.0213636	0.0321536	-0.0147816	0.5979	-0.796387	-0.0368652	0.526316	-0.458062	-0.462863	-0.546744	9.91375	0.206623	1.33093	0.0699131	0.0808924	-0.00637978	-0.903076	0.373291	-0.139893	0.422928	-0.514073	-0.49423	-0.559104	9.77579	1.13946	-0.136658	-0.00929919	0.0303776	-0.0125815	-1.0127	0.312988	0.0895996	0.443626	-0.537984	-0.522455	-0.490724	9.72989	0.313451	-1.20622	-0.0389551	-0.0232961	-0.00639536	-0.998047	0.391846	0.157959	0.590638	-0.457498	-0.551128	-0.371619	9.75626	-1.30952	-0.11783	-0.0573295	0.00251557	0.015219	-0.90918	0.508545	-0.0969238	0.557091	-0.471947	-0.606514	-0.314733	9.63757	-1.50281	-1.74408	-0.111666	0.00767399	0.0128742	-0.983154	0.595947	0.017334	
23	0.758529	0.119194	0.0942109	-0.633681	-3.25213	0.552274	10.4457	-0.00530164	-0.000667644	0.00926484	0.352783	0.322998	-0.88916	0.634912	-0.338878	-0.371492	-0.586551	8.69959	0.0778232	5.03226	-0.0423018	0.0255994	-0.0124501	-0.648682	0.31543	-0.416504	0.952461	-0.00184014	0.245971	0.179759	-5.05255	0.88679	9.41307	0.00946643	0.0161322	0.0114584	0.624512	0.180176	-0.679443	0.09234	0.13663	0.658746	-0.73407	-3.12769	-9.25124	0.885996	-0.0184526	0.00301448	-0.00341399	-0.0617676	1.02612	-0.121338	0.610271	0.161962	0.169344	-0.756743	-4.39066	-0.560488	8.66175	-0.0177253	0.0263153	-0.0135365	0.337646	0.434326	-0.80957	0.823264	0.450121	0.249323	0.239718	-2.2664	9.46767	5.18584	0.0210998	0.0188952	-0.0162184	0.5979	-0.796387	-0.0302734	0.527364	-0.456895	-0.462453	-0.547057	9.79368	0.314325	1.66587	-0.00646546	0.0423563	-0.0128183	-0.896484	0.371094	-0.144043	0.423104	-0.514179	-0.494079	-0.559007	9.73489	1.08285	-0.210483	0.0132727	0.00890464	-0.00398203	-1.01709	0.312988	0.0895996	0.44345	-0.538487	-0.522336	-0.490458	9.72067	0.279426	-1.25318	0.0179259	-0.00770697	-0.00944645	-1.00269	0.396484	0.157715	0.590309	-0.458031	-0.550931	-0.371777	9.76888	-1.36381	-0.175134	-0.0499872	-0.00272803	0.0161047	-0.911133	0.506348	-0.0922852	0.55598	-0.47371	-0.605475	-0.316047	9.63669	-1.44247	-1.71029	-0.104922	0.005853	0.0157753	-0.98291	0.59375	0.017334	
24	0.758329	0.119553	0.0949099	-0.633748	-3.2398	0.555123	10.4486	-0.00520333	0.0217056	-0.00957554	0.359375	0.323242	-0.886963	0.635038	-0.338577	-0.371641	-0.586494	8.72511	0.0232681	4.91362	0.0106788	0.0151472	-0.0229461	-0.648438	0.313232	-0.411621	0.952279	-0.00171335	0.246638	0.179811	-5.00508	0.904707	9.29348	0.0080175	0.0303842	-0.00128004	0.628906	0.173584	-0.686279	0.0922951	0.136468	0.659132	-0.73376	-3.11351	-9.1336	0.901591	-0.0143379	0.0132418	-0.00540131	-0.064209	1.03052	-0.121338	0.610248	0.161992	0.169589	-0.7567	-4.35564	-0.629356	8.64781	-0.0143203	0.0223427	-0.0131833	0.335449	0.436523	-0.80957	0.823084	0.450525	0.249378	0.23952	-2.24797	9.4008	5.16217	0.00548741	0.0124552	-0.010352	0.595703	-0.794189	-0.0412598	0.52895	-0.454963	-0.46078	-0.548546	9.7281	0.203308	1.77498	0.0457776	0.128593	-0.021596	-0.896973	0.377686	-0.150635	0.42332	-0.514296	-0.494444	-0.558413	9.77599	1.2412	-0.0746899	0.0105441	-0.00336855	-0.00786365	-1.01489	0.312988	0.0849609	0.443546	-0.538845	-0.52251	-0.489793	9.71488	0.357406	-1.17557	0.00853311	-0.00803079	-0.0100343	-1.00513	0.394043	0.15332	0.590322	-0.458304	-0.550936	-0.371412	9.77818	-1.28174	-0.192941	0.0401833	0.00778074	0.0091123	-0.90918	0.510742	-0.0922852	0.55564	-0.474438	-0.605193	-0.316091	9.60822	-1.40596	-1.71445	-0.000212119	-0.00357906	0.0116393	-0.973877	0.59375	0.017334	
25	0.758175	0.119821	0.0950783	-0.633856	-3.30523	0.603065	10.4447	0.010717	0.0195945	-0.0149173	0.357178	0.325195	-0.884766	0.635099	-0.338457	-0.371568	-0.586544	8.74495	0.0205789	4.89203	-0.00310331	0.0257506	-0.0197667	-0.648193	0.306641	-0.411377	0.952293	-0.00191341	0.246519	0.179898	-5.04581	0.920692	9.33121	-0.01744	-0.00124467	0.00143518	0.626709	0.180176	-0.688721	0.0921963	0.136559	0.659216	-0.73368	-3.12226	-9.18797	0.867517	-0.00736613	0.0187377	-7.72176e-06	-0.0576172	1.03052	-0.116943	0.609897	0.162257	0.170333	-0.75676	-4.44543	-0.66707	8.63529	-0.00887776	0.0215265	-0.0176119	0.337891	0.432129	-0.807373	0.822926	0.450809	0.249377	0.239531	-2.2864	9.41208	5.13315	0.0281292	0.0119245	-0.00590175	0.595703	-0.79834	-0.034668	0.528795	-0.455055	-0.46064	-0.548736	9.93618	0.171723	1.68647	-0.0096618	0.0144973	-0.0231299	-0.898682	0.371094	-0.150391	0.423092	-0.514832	-0.494365	-0.558161	9.775	1.14765	-0.124173	-0.0111317	-0.00657528	-0.00391696	-1.01733	0.31958	0.0825195	0.443498	-0.539019	-0.522563	-0.489588	9.74288	0.30948	-1.22417	0.00714528	-0.0127652	-0.0100189	-1.00049	0.398682	0.164551	0.590256	-0.458478	-0.55097	-0.371251	9.68278	-1.19193	-0.192213	-0.00192248	-0.0027834	0.0146323	-0.90918	0.508545	-0.0854492	0.555223	-0.475314	-0.604865	-0.316137	9.60026	-1.38194	-1.75834	-0.0375031	-0.00356593	0.0199342	-0.980957	0.600342	0.0241699	
26	0.758057	0.120204	0.0952046	-0.633906	-3.37876	0.733944	10.4639	0.00267422	0.0067747	0.000435438	0.35498	0.325195	-0.88916	0.635139	-0.338374	-0.371523	-0.586577	8.66626	0.0236903	4.9458	-0.00406684	0.0215429	-0.0192054	-0.644287	0.313232	-0.411621	0.952293	-0.00171504	0.246561	0.179841	-5.01223	0.782394	9.3888	0.0324552	0.0153049	2.04129e-05	0.633301	0.17334	-0.683838	0.0921517	0.136644	0.659341	-0.733558	-3.08037	-9.29098	0.963257	-0.006108	0.00929096	0.002909	-0.0551758	1.02417	-0.116943	0.60965	0.162931	0.170328	-0.756815	-4.43188	-0.573245	8.65391	0.0104178	0.0331248	-0.0138731	0.333496	0.432129	-0.804932	0.8228	0.45119	0.249002	0.239638	-2.21847	9.47489	5.18737	0.00898637	-0.000671391	0.0018507	0.595703	-0.796387	-0.0368652	0.530042	-0.453429	-0.459007	-0.550246	9.72489	0.271353	1.64353	0.0311356	0.0948308	-0.0201909	-0.892578	0.375488	-0.150635	0.423006	-0.515355	-0.494705	-0.557443	9.74015	1.10276	-0.19255	0.0232588	-0.0146389	-0.00310599	-1.01514	0.317383	0.0917969	0.443476	-0.539348	-0.522622	-0.489182	9.68444	0.301919	-1.24177	0.0100238	-0.0107716	-0.00894481	-1.00049	0.396484	0.160156	0.589803	-0.459373	-0.550542	-0.371501	9.75106	-1.42784	-0.178869	-0.0434629	0.00670744	0.0169941	-0.906738	0.508545	-0.0900879	0.554691	-0.476414	-0.604375	-0.316352	9.63035	-1.5067	-1.78013	-0.0372792	-0.0043263	0.0175233	-0.97876	0.600342	0.0195312	
27	0.758099	0.120391	0.095237	-0.633816	-3.34138	0.631893	10.4584	0.0104674	0.000614457	0.000568885	0.355225	0.318604	-0.884766	0.635093	-0.337957	-0.371598	-0.58682	8.74725	0.0385747	5.00844	-0.0121565	0.0257013	-0.0182851	-0.650635	0.311035	-0.40918	0.952241	-0.00133429	0.246576	0.180097	-5.03276	0.948368	9.52084	-0.00194252	-0.00340137	0.0120908	0.62915	0.169189	-0.681641	0.0921533	0.136858	0.659487	-0.733386	-3.24788	-9.23524	0.800966	-0.00275103	0.00984458	0.00229006	-0.0595703	1.02417	-0.123535	0.609539	0.16313	0.170549	-0.756812	-4.53701	-0.66241	8.63812	-0.00207415	0.0110887	-0.0118184	0.340332	0.425537	-0.804932	0.822669	0.451382	0.248894	0.239836	-2.26219	9.43471	5.0273	0.00836711	0.0165492	-0.00202449	0.595459	-0.789795	-0.0349121	0.530411	-0.452828	-0.458334	-0.550946	9.88042	0.187289	1.72776	-0.0106784	0.0592932	-0.0193428	-0.89917	0.379639	-0.156982	0.423175	-0.515674	-0.494883	-0.556861	9.7693	1.15322	-0.319824	0.0125347	0.00649193	0.00198106	-1.01953	0.319336	0.0942383	0.443575	-0.539521	-0.522753	-0.488761	9.69481	0.31263	-1.2566	0.0204069	-0.00247446	-0.012633	-1.00293	0.398682	0.162354	0.58954	-0.459749	-0.550464	-0.371569	9.74011	-1.25667	-0.274129	-0.00960522	0.0119861	0.00405727	-0.913574	0.510742	-0.0854492	0.553942	-0.47777	-0.603673	-0.316959	9.60084	-1.45347	-1.64504	-0.0916773	-0.00262515	0.0196111	-0.976562	0.602539	0.0288086	
28	0.758153	0.120636	0.09531	-0.633693	-3.2889	0.7149	10.4448	0.0019445	0.00536698	0.005682	0.36377	0.325439	-0.884766	0.635224	-0.337881	-0.37159	-0.586727	8.71219	0.00494423	4.97943	0.00499445	0.0191555	-0.0119123	-0.648682	0.317627	-0.409424	0.952107	-0.0015917	0.246881	0.180385	-5.09079	0.795444	9.32617	-0.00516701	0.0176227	0.0117525	0.622559	0.171387	-0.681641	0.0922387	0.136603	0.659712	-0.73322	-3.12493	-9.35288	0.885594	-0.0136115	-0.000317745	0.00121241	-0.0666504	1.03271	-0.119385	0.609643	0.163492	0.17063	-0.756632	-4.54667	-0.593326	8.5486	-0.00192979	0.022038	-0.00228105	0.337646	0.434326	-0.807373	0.822486	0.451634	0.248899	0.239983	-2.17818	9.52141	5.1287	0.022281	0.0197366	-0.0131202	0.5979	-0.794189	-0.0324707	0.530488	-0.452752	-0.458489	-0.550805	9.79604	0.140166	1.63412	0.0353188	-0.0147295	-0.0141934	-0.892334	0.371094	-0.156738	0.42328	-0.51588	-0.494663	-0.556785	9.80509	1.11196	-0.213599	-0.00495055	0.0200598	-0.000557369	-1.01294	0.317383	0.0942383	0.443737	-0.539604	-0.522878	-0.488389	9.75822	0.316528	-1.24713	0.00433997	0.00441988	-0.0101515	-0.998047	0.396484	0.155518	0.589423	-0.460096	-0.550281	-0.371596	9.70806	-1.3928	-0.233365	-0.000556505	0.00873837	0.0110816	-0.906982	0.510742	-0.0900879	0.553885	-0.478229	-0.603538	-0.316623	9.60857	-1.25844	-1.80276	-0.00697041	-0.00393155	0.0179936	-0.971924	0.598389	0.0263672	
29	0.758275	0.120922	0.0955561	-0.633455	-3.38392	0.741835	10.4206	0.00388632	0.0126481	0.00759685	0.361572	0.323242	-0.884766	0.635413	-0.337912	-0.371685	-0.586443	8.66008	0.0215175	4.92464	0.00945058	0.00285471	-0.00614689	-0.653076	0.31543	-0.409424	0.952065	-0.00114081	0.246882	0.180609	-5.04295	0.937851	9.42714	0.0161036	0.00436019	0.00975028	0.626953	0.169189	-0.677002	0.0923673	0.136547	0.659758	-0.733173	-3.21366	-9.16906	0.81722	0.00603102	0.000336817	-0.00234773	-0.0598145	1.02832	-0.116943	0.609902	0.163205	0.170948	-0.756413	-4.4717	-0.656092	8.63114	-0.0246625	0.00962691	0.00492938	0.339844	0.434326	-0.804932	0.822454	0.451376	0.249253	0.240211	-2.24223	9.3587	5.0603	-0.0073036	0.0337557	-0.0124185	0.59375	-0.79834	-0.0280762	0.530446	-0.452865	-0.458349	-0.55087	9.84661	0.168457	1.66387	-0.0056574	0.0607057	-0.0118617	-0.896484	0.371094	-0.152588	0.423962	-0.515615	-0.494863	-0.556335	9.80507	1.01812	-0.230851	0.0428429	0.0303023	-0.00301122	-1.02173	0.317383	0.0895996	0.444189	-0.539385	-0.523189	-0.487887	9.74601	0.315064	-1.24425	0.0327106	0.00548256	-0.0146032	-1.00073	0.40332	0.151123	0.589057	-0.460563	-0.549813	-0.372291	9.67698	-1.28104	-0.184871	-0.0433853	0.0266019	0.00640594	-0.911377	0.510742	-0.0876465	0.552864	-0.479836	-0.602691	-0.317587	9.56826	-1.44359	-1.73338	-0.0873979	-0.0042082	0.0186485	-0.97876	0.600342	0.0288086	
30	0.758553	0.120901	0.0957638	-0.633096	-3.37339	0.681566	10.4506	-0.00565476	0.000142475	0.0159424	0.359375	0.325195	-0.884766	0.635504	-0.338224	-0.372129	-0.585883	8.74944	0.0339587	5.00526	0.0068697	-0.0119468	-0.00108661	-0.650635	0.311035	-0.411621	0.952053	-0.00148966	0.246655	0.180984	-5.14995	0.823685	9.33461	-0.0329411	-0.0136807	0.0148312	0.626709	0.175781	-0.681641	0.0923535	0.136224	0.659931	-0.733079	-3.02611	-9.26219	0.839473	-0.0145364	-0.00010297	-0.0072331	-0.0639648	1.02612	-0.116943	0.610117	0.163228	0.170913	-0.756243	-4.53792	-0.689122	8.56414	-0.00250082	0.00649677	0.0109612	0.342041	0.432373	-0.80957	0.8223	0.451424	0.249487	0.240406	-2.21378	9.44851	5.05781	0.0127593	0.0376011	-0.00724851	0.591553	-0.79834	-0.0302734	0.530455	-0.452994	-0.458953	-0.550251	9.90542	0.193361	1.659	0.0307561	-0.0289164	-0.0127178	-0.892334	0.371094	-0.152588	0.424461	-0.515332	-0.494913	-0.556171	9.74726	1.03866	-0.258875	0.0432907	0.0420468	-0.000743292	-1.01514	0.317383	0.0895996	0.444364	-0.539309	-0.523219	-0.48778	9.68723	0.280436	-1.26476	0.0154778	0.0114062	-0.0176432	-1.00269	0.396484	0.155518	0.588614	-0.461245	-0.549328	-0.372861	9.80517	-1.6453	-0.301698	-0.0399712	0.0127607	0.00586583	-0.90918	0.512939	-0.0878906	0.552651	-0.480198	-0.602616	-0.317556	9.61196	-1.56348	-1.82921	-0.021221	-0.0101903	0.0125073	-0.974365	0.60498	0.0285645	
31	0.758726	0.120862	0.0958399	-0.632884	-3.43234	0.687105	10.4588	-0.00873982	-0.000897947	0.0198439	0.359131	0.32959	-0.884766	0.63563	-0.33852	-0.372172	-0.585548	8.68401	-0.0331044	4.94966	-0.00595353	0.00388362	-0.0025696	-0.650635	0.308838	-0.406738	0.952056	-0.00171083	0.246352	0.181375	-5.05328	0.866435	9.45055	-0.0269097	-0.015009	0.0236534	0.626953	0.173584	-0.679443	0.0923658	0.136045	0.659607	-0.733403	-3.20425	-9.35948	0.741049	0.0348633	-0.0102243	-0.00626404	-0.0571289	1.02173	-0.112549	0.610502	0.16296	0.170836	-0.756007	-4.47719	-0.695723	8.64646	-0.0172463	-0.00437402	0.00688682	0.344238	0.432129	-0.804932	0.822287	0.451018	0.249813	0.240876	-2.27495	9.47387	5.00839	-0.019358	0.0333014	-0.0102872	0.595703	-0.796387	-0.0324707	0.530272	-0.453307	-0.459717	-0.549531	9.80722	0.150717	1.61963	0.0407014	-0.0192354	-0.012186	-0.896729	0.375488	-0.154785	0.424729	-0.515207	-0.495164	-0.555859	9.723	1.09825	-0.1967	0.0432975	0.0130157	-0.00821317	-1.01538	0.321777	0.0893555	0.444364	-0.539346	-0.5231	-0.487866	9.7115	0.348359	-1.24198	-0.00459877	0.0133828	-0.0168331	-1.00293	0.400879	0.159912	0.58869	-0.461154	-0.549491	-0.372613	9.75789	-1.56253	-0.340929	0.0233203	0.00198735	0.00654593	-0.911133	0.506348	-0.0898438	0.552547	-0.480579	-0.60234	-0.317681	9.63785	-1.54753	-1.83456	-0.00154308	0.0142005	0.00339949	-0.97876	0.600342	0.0288086	
32	0.759453	0.120073	0.0957588	-0.632174	-3.4018	0.498121	10.4567	-0.0128163	-0.0246906	0.0233791	0.365967	0.325439	-0.891113	0.635601	-0.339066	-0.37266	-0.584953	8.71278	-0.0355927	4.97788	-0.000874733	-0.0244355	-0.00339529	-0.655029	0.313232	-0.40918	0.95203	-0.00233266	0.24594	0.18206	-5.06317	0.869611	9.39625	-0.0252669	-0.00334953	0.0139594	0.62915	0.169189	-0.686035	0.0930518	0.135183	0.659253	-0.733793	-3.09591	-9.23538	0.867968	0.0186027	-0.0267644	0.000372619	-0.0639648	1.02393	-0.116943	0.610919	0.16274	0.170717	-0.755744	-4.46801	-0.628293	8.6051	-0.0133738	-0.00441508	0.00253673	0.340088	0.427734	-0.807373	0.822319	0.450759	0.250246	0.240802	-2.25267	9.40775	5.1326	-0.00410019	0.0227974	-0.0313665	0.59375	-0.79834	-0.0239258	0.529422	-0.454553	-0.461146	-0.548123	9.84292	0.166346	1.64801	0.0384265	-0.100502	-0.00907718	-0.896729	0.375488	-0.148438	0.424832	-0.515018	-0.494757	-0.556317	9.82449	1.08301	-0.0913013	-0.0329311	0.0292404	-0.0104365	-1.01294	0.317383	0.0871582	0.444167	-0.539501	-0.52261	-0.488398	9.69186	0.359387	-1.14936	-0.0152844	0.0189026	-0.0228196	-1.00049	0.398682	0.162354	0.589458	-0.460157	-0.550209	-0.37157	9.75108	-1.1926	-0.187898	0.0267146	0.0202581	0.00146405	-0.90918	0.508545	-0.0944824	0.552889	-0.480355	-0.60233	-0.317445	9.59096	-1.33655	-1.76057	0.00883397	0.0126959	0.000493837	-0.979004	0.604736	0.0310059	
33	0.759662	0.119792	0.0955231	-0.632012	-3.35319	0.565296	10.4602	-0.00762653	-0.0330273	0.0193901	0.361572	0.323242	-0.886963	0.635517	-0.33937	-0.373025	-0.584636	8.74329	0.0228034	4.98197	0.00365849	-0.0303716	-0.00654246	-0.655029	0.313232	-0.414062	0.952029	-0.00268706	0.245828	0.182212	-5.09666	0.822525	9.38056	-0.0310942	0.001877	0.00420292	0.624756	0.171387	-0.686035	0.0932054	0.134891	0.659211	-0.733865	-3.09098	-9.25228	0.885441	0.00270534	-0.0194181	-0.00520998	-0.0593262	1.02197	-0.121338	0.611147	0.162287	0.17055	-0.755695	-4.41104	-0.71187	8.67833	0.000752736	-0.0125752	-0.00499378	0.337646	0.434326	-0.802734	0.822293	0.450745	0.250412	0.240743	-2.33534	9.43377	5.12071	0.00767798	0.0224059	-0.025247	0.595947	-0.79834	-0.0302734	0.529422	-0.454553	-0.461146	-0.548123	9.84292	0.166346	1.64801	0.0384265	-0.100502	-0.00907718	-0.896729	0.375488	-0.148438	0.42486	-0.514969	-0.494503	-0.556568	9.70071	1.0053	-0.136438	0.0090854	0.0242166	-0.02049	-1.01733	0.31958	0.0917969	0.444066	-0.539561	-0.522503	-0.488538	9.63995	0.218821	-1.24507	-0.0103909	0.0106825	-0.0226624	-0.998291	0.401123	0.159912	0.589299	-0.46037	-0.550003	-0.371863	9.79571	-1.44269	-0.193046	-0.0354264	0.0196931	0.00135853	-0.911377	0.510742	-0.0876465	0.552934	-0.480387	-0.602238	-0.317491	9.66082	-1.55415	-1.82602	0.0272816	0.0113594	-0.0057202	-0.974365	0.60498	0.0263672	
34	0.759865	0.119401	0.0950673	-0.63191	-3.18011	0.512524	10.4281	0.00311738	-0.0233058	0.00245786	0.359375	0.323242	-0.886963	0.635373	-0.33976	-0.37351	-0.584256	8.75206	-0.00268325	4.94512	-0.00388384	-0.0116122	-0.0170968	-0.650635	0.308838	-0.406738	0.95206	-0.00292184	0.245512	0.182474	-5.06716	0.799552	9.32831	-0.00451403	-0.0107484	0.00653366	0.633301	0.17334	-0.683838	0.0934635	0.134688	0.658855	-0.734189	-3.06089	-9.2844	0.88572	0.0217127	-0.00530961	0.00996735	-0.0595703	1.02612	-0.116943	0.611519	0.161861	0.170305	-0.755541	-4.40647	-0.650545	8.67395	-0.0204582	-0.0163723	0.0055714	0.337646	0.434326	-0.800537	0.822413	0.450447	0.250652	0.240643	-2.33384	9.4691	5.12227	-0.00305701	0.0210669	-0.0289213	0.595459	-0.791992	-0.0305176	0.527852	-0.456137	-0.463875	-0.546014	9.85583	0.197211	1.60168	0.0363539	-0.103976	-0.0214936	-0.900879	0.373291	-0.144043	0.424876	-0.514793	-0.494808	-0.556447	9.82652	1.16421	-0.169896	-0.00149541	0.0111033	-0.0233576	-1.01294	0.317383	0.0871582	0.443915	-0.539621	-0.522356	-0.488767	9.77329	0.228281	-1.24746	-0.0110892	0.0101695	-0.0226206	-0.99585	0.396484	0.157959	0.589253	-0.460358	-0.549981	-0.371983	9.75046	-1.36897	-0.171998	0.0154897	0.020454	-0.0015856	-0.911377	0.510742	-0.0900879	0.552697	-0.48059	-0.601954	-0.318136	9.62695	-1.55978	-1.72259	-0.0249869	0.0183601	-0.0118432	-0.976562	0.604736	0.0285645	
35	0.759779	0.119543	0.0949597	-0.632003	-3.2446	0.618635	10.4091	0.0048042	0.000471784	-0.00434738	0.35498	0.325195	-0.886963	0.635116	-0.340259	-0.373525	-0.584235	8.71585	-0.08648	4.89553	-0.0270821	0.00179399	-0.0142371	-0.653076	0.31543	-0.411621	0.952147	-0.00259147	0.245148	0.182515	-4.99294	0.864238	9.4224	0.00966382	-0.00528654	0.00215971	0.622559	0.175781	-0.679443	0.0936356	0.134825	0.658626	-0.734348	-3.13801	-9.24597	0.988051	0.00677754	0.00653614	0.00676731	-0.0664062	1.03052	-0.121338	0.611797	0.161643	0.170181	-0.75539	-4.38791	-0.687841	8.66973	0.00740199	0.0018928	-0.00279795	0.339844	0.436768	-0.811768	0.822498	0.450303	0.25071	0.240561	-2.32158	9.45012	5.14012	-0.00618468	0.0153824	-0.0272325	0.593506	-0.791992	-0.0283203	0.526876	-0.457215	-0.46535	-0.544798	9.84005	0.165795	1.50387	0.0187706	-0.0693861	-0.0184963	-0.898926	0.375488	-0.137695	0.424782	-0.514806	-0.494803	-0.556511	9.71081	1.05769	-0.145313	0.0126723	0.0144341	-0.0193663	-1.01318	0.31958	0.0871582	0.444053	-0.539428	-0.522464	-0.488739	9.66672	0.37593	-1.1424	0.016843	0.011338	-0.0245164	-1.00269	0.396484	0.157715	0.589159	-0.46049	-0.549838	-0.372181	9.78811	-1.4151	-0.168123	-0.0130244	0.0134147	0.00428264	-0.90918	0.510742	-0.0900879	0.552829	-0.480295	-0.602165	-0.317953	9.63159	-1.47086	-1.77481	0.0274821	0.00551216	-0.0128784	-0.981201	0.604736	0.0241699	
36	0.759713	0.119402	0.0951451	-0.632082	-3.30268	0.574275	10.4805	-0.0109749	-0.00357448	-0.00584694	0.359375	0.323242	-0.884766	0.634859	-0.340561	-0.373591	-0.584296	8.7272	-0.0448796	4.88799	-0.0116437	0.00074933	-0.0217316	-0.657227	0.313232	-0.404541	0.952171	-0.00261716	0.245183	0.182346	-5.00909	0.781038	9.35446	0.00917785	0.00949001	-0.00938838	0.633301	0.177734	-0.679443	0.0937042	0.13501	0.658649	-0.734284	-3.10374	-9.25671	0.945852	0.00172423	0.0160732	0.010808	-0.0617676	1.02612	-0.116943	0.611594	0.161821	0.170126	-0.755529	-4.36589	-0.600967	8.63123	-0.00740502	0.0180345	-0.0235273	0.339844	0.43457	-0.80957	0.822362	0.450694	0.250973	0.240018	-2.27051	9.43909	5.15838	0.0248985	0.0071828	-0.0270675	0.598145	-0.800537	-0.0258789	0.526438	-0.457632	-0.466203	-0.544143	9.88383	0.184352	1.51243	0.0295438	-0.0139941	-0.0206217	-0.900879	0.373291	-0.139893	0.424172	-0.515079	-0.494762	-0.556761	9.80927	1.13036	-0.155686	-0.0262031	0.000713682	-0.0274429	-1.01758	0.321777	0.0893555	0.443937	-0.539424	-0.522442	-0.488872	9.73518	0.284073	-1.22138	0.00266707	0.00801168	-0.0248339	-0.993652	0.398926	0.157715	0.589505	-0.459948	-0.550119	-0.371888	9.72271	-1.30856	-0.136576	0.0249691	0.0085636	-0.00348881	-0.911133	0.501953	-0.0852051	0.552764	-0.480077	-0.602406	-0.317938	9.60896	-1.43855	-1.7235	0.0166355	-0.00106866	-0.01366	-0.974365	0.60498	0.0263672	
37	0.75962	0.119341	0.0950608	-0.632217	-3.30272	0.54807	10.4394	0.00590123	-0.0101555	-0.00857965	0.368164	0.325439	-0.886963	0.634724	-0.340579	-0.373753	-0.584329	8.72999	0.03854	4.90559	0.00236585	0.00422783	-0.0253431	-0.655029	0.311035	-0.406738	0.952276	-0.00241587	0.245091	0.181922	-5.0166	0.841367	9.45803	0.00729707	-0.00309382	-0.0162592	0.626709	0.173584	-0.686279	0.093568	0.135321	0.658604	-0.734285	-3.09625	-9.22649	0.877183	-0.000126808	0.0168475	0.000962957	-0.0595703	1.02612	-0.116943	0.611372	0.161745	0.170056	-0.75574	-4.47277	-0.751274	8.68729	0.0186607	0.00212886	-0.0217802	0.335205	0.438721	-0.80957	0.822383	0.450782	0.250874	0.239884	-2.32789	9.41378	5.07599	0.00777118	0.00485695	-0.0104871	0.598145	-0.800537	-0.0302734	0.526368	-0.457572	-0.465835	-0.544576	9.84672	0.272279	1.50914	-0.016647	0.0346936	-0.024679	-0.901123	0.375244	-0.135742	0.424149	-0.514917	-0.495099	-0.556629	9.75226	1.04661	-0.10666	0.00841783	0.010259	-0.0269554	-1.01758	0.321777	0.0871582	0.444041	-0.53927	-0.522554	-0.488828	9.74244	0.222111	-1.29124	0.0192215	0.0134065	-0.021541	-1.00049	0.394043	0.162354	0.589534	-0.459724	-0.550277	-0.371884	9.75851	-1.38089	-0.11374	0.00712865	0.0124633	-0.00265418	-0.906494	0.501953	-0.0852051	0.552933	-0.479463	-0.603022	-0.317402	9.61346	-1.45525	-1.7447	0.038856	-0.00556637	-0.016274	-0.976562	0.602539	0.0263672	
38	0.759512	0.119572	0.0947052	-0.632357	-3.31379	0.596531	10.4728	0.0175247	-0.0075853	-0.00509782	0.361816	0.321045	-0.882568	0.634486	-0.340648	-0.373659	-0.584607	8.78719	0.022102	4.88774	-0.0217761	0.0262968	-0.0289944	-0.657227	0.311035	-0.40918	0.952334	-0.00213175	0.244955	0.181804	-5.08181	0.785751	9.33189	0.0218391	-0.0115307	1.72526e-05	0.624756	0.175781	-0.686279	0.0936323	0.135597	0.658427	-0.734384	-3.06936	-9.28153	0.890749	0.00791177	0.00978963	0.0157562	-0.0615234	1.02173	-0.123535	0.611225	0.162025	0.169691	-0.755882	-4.45589	-0.616253	8.70407	0.039027	0.0071061	-0.0176786	0.337891	0.432129	-0.80957	0.822359	0.450908	0.250697	0.239913	-2.29898	9.51972	5.09242	0.00882521	0.000783983	-0.00435931	0.599854	-0.794189	-0.0324707	0.525987	-0.457709	-0.465738	-0.544911	9.84466	0.20359	1.66881	-0.00983697	-0.00208562	-0.0326135	-0.903076	0.371094	-0.12915	0.423878	-0.515066	-0.49536	-0.556465	9.78616	1.10765	-0.196026	0.00608855	-0.0149138	-0.0271621	-1.01733	0.317383	0.0895996	0.444303	-0.538975	-0.522817	-0.488634	9.74723	0.286741	-1.24648	0.0465357	0.0122967	-0.0271228	-1.00513	0.398682	0.157715	0.58983	-0.459341	-0.550683	-0.371288	9.75844	-1.46698	-0.212553	0.0340852	0.00635093	0.00344401	-0.911377	0.512939	-0.0878906	0.553043	-0.479092	-0.603378	-0.317095	9.64787	-1.531	-1.77517	0.0477056	-0.0058398	-0.0192784	-0.97876	0.600342	0.0263672	
39	0.759394	0.119599	0.0945193	-0.632521	-3.32705	0.651984	10.4708	0.00012683	-0.0094222	-0.00618564	0.36377	0.325439	-0.88916	0.634149	-0.340617	-0.37438	-0.58453	8.7475	0.0367216	4.89874	0.0300374	-0.0254834	-0.0370946	-0.657227	0.313232	-0.404541	0.952336	-0.0015308	0.244875	0.181905	-4.95566	0.897523	9.41955	0.0269633	0.00826584	0.00919136	0.624756	0.169189	-0.681641	0.0938946	0.135869	0.658444	-0.734285	-3.20927	-9.29711	0.903687	0.000278468	0.0083845	0.0182111	-0.0639648	1.02393	-0.114746	0.610971	0.162325	0.169494	-0.756067	-4.4615	-0.718194	8.68634	0.0216948	0.0169288	-0.018667	0.342041	0.432129	-0.804932	0.822437	0.451178	0.249747	0.240131	-2.28015	9.48861	5.09478	-0.00626271	-0.00496107	0.0054847	0.59375	-0.800537	-0.0302734	0.524611	-0.458822	-0.465452	-0.545546	9.88871	0.261593	1.29238	-0.0341065	0.0246592	-0.0334573	-0.90332	0.375244	-0.137695	0.423676	-0.515165	-0.496416	-0.555585	9.76533	1.06693	-0.313334	0.0152935	-0.0213197	-0.0253763	-1.01294	0.315186	0.0917969	0.445198	-0.537952	-0.52372	-0.487979	9.73319	0.297131	-1.2559	0.0687558	0.0101306	-0.0323335	-1.00049	0.396484	0.155518	0.590442	-0.458538	-0.551408	-0.370229	9.72952	-1.36051	-0.202006	0.0801493	0.000258102	0.0082556	-0.911377	0.508545	-0.0876465	0.55383	-0.477635	-0.604439	-0.315896	9.63404	-1.49935	-1.76631	0.100997	-0.000539655	-0.0250202	-0.976562	0.600342	0.0219727	
40	0.759374	0.119692	0.0942826	-0.632563	-3.29954	0.525783	10.4973	0.0190663	-0.0144188	-0.00181095	0.361816	0.321045	-0.88916	0.633875	-0.340298	-0.374918	-0.584668	8.78994	0.115651	4.91504	0.00392709	0.019482	-0.0361997	-0.656982	0.308838	-0.404297	0.952357	-0.00156256	0.244771	0.181937	-4.98942	0.982915	9.39532	-0.00376935	-0.00286732	0.00101699	0.624756	0.173584	-0.686279	0.0941108	0.136075	0.658391	-0.734267	-3.14953	-9.26079	0.90725	0.00199947	0.0076603	0.0256926	-0.0593262	1.02197	-0.121338	0.610842	0.162925	0.168919	-0.756171	-4.51455	-0.545782	8.64971	0.0222551	0.00852367	-0.00248726	0.333496	0.429932	-0.804932	0.822425	0.451243	0.249534	0.240271	-2.24515	9.46071	5.11448	0.00149846	0.00319003	0.00270387	0.595703	-0.794189	-0.0305176	0.522401	-0.460705	-0.466886	-0.544854	9.97452	0.252426	1.42968	-0.0303393	-0.145194	-0.037957	-0.903076	0.371094	-0.131348	0.423637	-0.51525	-0.496815	-0.55518	9.79444	0.984775	-0.36363	0.0339	-0.0172327	-0.0165536	-1.01709	0.315186	0.0966797	0.445198	-0.537952	-0.52372	-0.487979	9.73319	0.297131	-1.2559	0.0687558	0.0101306	-0.0323335	-1.00049	0.396484	0.155518	0.590882	-0.457941	-0.551882	-0.36956	9.70528	-1.26367	-0.245242	0.0886341	0.00322869	0.00387355	-0.911133	0.506348	-0.0991211	0.554937	-0.475841	-0.605743	-0.314158	9.59274	-1.38832	-1.84363	0.126892	-0.00785896	-0.017748	-0.97876	0.602539	0.017334	
41	0.759294	0.120378	0.0934783	-0.632648	-3.19232	0.839656	10.3923	0.0393585	-0.00471341	0.000420131	0.359619	0.321045	-0.886963	0.633782	-0.340177	-0.374953	-0.584816	8.73411	0.0718893	4.89884	-0.00448418	0.0185998	-0.0341348	-0.655029	0.313232	-0.404541	0.952385	-0.00130057	0.24434	0.182372	-4.95078	0.744947	9.40511	0.0386043	-0.0145772	0.0220601	0.626953	0.173584	-0.683838	0.0945779	0.136539	0.658373	-0.734137	-3.24488	-9.22558	0.902969	-0.00274806	0.00949726	0.0269542	-0.0598145	1.02832	-0.121338	0.611091	0.163153	0.168486	-0.756017	-4.39094	-0.520224	8.61805	0.0165563	0.00454214	0.00915701	0.337891	0.427979	-0.811768	0.822465	0.451208	0.249194	0.24055	-2.21264	9.42649	5.15394	-0.014784	0.00988331	-0.00129716	0.595947	-0.800537	-0.0302734	0.521952	-0.460978	-0.466692	-0.545219	9.88242	0.282647	1.49706	-0.037546	0.00411943	-0.0337422	-0.900879	0.371094	-0.12915	0.423935	-0.515307	-0.498983	-0.55295	9.76577	1.1349	-0.298117	0.118518	-0.0744533	-0.0115839	-1.01538	0.321533	0.101074	0.447972	-0.534624	-0.526	-0.486644	9.74482	0.434907	-1.14175	0.148761	0.0479283	-0.0439141	-1.00049	0.398926	0.146729	0.591131	-0.457578	-0.552472	-0.36873	9.66269	-1.21098	-0.30841	0.0355084	-0.0123227	0.0100201	-0.904785	0.510742	-0.0876465	0.555528	-0.474877	-0.606428	-0.313249	9.57534	-1.34908	-1.86111	0.035516	0.0060298	-0.0121968	-0.976562	0.602539	0.0219727	
42	0.75925	0.120854	0.0936923	-0.632578	-3.28046	0.770339	10.4018	0.00486804	0.0185145	0.00130491	0.364014	0.321045	-0.891113	0.633791	-0.339748	-0.375029	-0.585007	8.71019	0.0214164	4.8635	0.00530377	0.0266192	-0.0268282	-0.657227	0.311035	-0.404541	0.952337	-0.000573967	0.244273	0.182713	-5.04739	1.00529	9.51569	-0.00844299	-0.000897017	0.0170824	0.624756	0.173584	-0.681641	0.094826	0.136632	0.658205	-0.734239	-3.2706	-9.2399	0.938447	-0.000903588	0.000930443	0.00563018	-0.0598145	1.02832	-0.121338	0.611229	0.163584	0.16826	-0.755862	-4.43587	-0.508545	8.64281	0.0256594	0.0254812	0.00143752	0.337891	0.429932	-0.807373	0.822489	0.451158	0.248634	0.241141	-2.13857	9.45862	5.20239	-0.00191719	0.00693936	0.0187864	0.593506	-0.796387	-0.034668	0.521112	-0.461552	-0.467827	-0.544564	9.84456	0.171845	1.28519	0.0156644	-0.0463805	-0.0293253	-0.900879	0.373047	-0.125	0.424196	-0.51529	-0.5004	-0.551483	9.78548	1.38219	-0.121293	0.0455851	-0.0187744	-0.0181504	-1.01514	0.315186	0.0966797	0.449105	-0.533201	-0.526789	-0.486306	9.65962	0.447342	-0.916441	0.0644074	0.0324132	-0.0385432	-1.00049	0.398926	0.146729	0.590619	-0.457972	-0.552928	-0.368378	9.72816	-1.38602	-0.298207	0.000246513	-0.0199066	0.000691971	-0.911377	0.508545	-0.0900879	0.55584	-0.474332	-0.606702	-0.312991	9.59642	-1.33156	-1.74131	0.00948627	0.0124058	-0.011723	-0.980713	0.595947	0.017334	
43	0.759498	0.121291	0.0938593	-0.632172	-3.42104	0.745188	10.5158	0.00751035	0.00671727	0.0258905	0.364014	0.321045	-0.886963	0.633949	-0.339466	-0.375421	-0.584748	8.76281	0.0688904	4.86394	0.0137072	0.00888758	-0.0153175	-0.656982	0.304443	-0.406494	0.952282	-0.00112032	0.244139	0.183175	-4.94705	0.886959	9.43941	-0.00371458	0.00818852	0.0104361	0.624756	0.169189	-0.683838	0.0950773	0.136718	0.658287	-0.734116	-3.26919	-9.30001	0.875571	-0.00662346	0.000284995	0.0103287	-0.0595703	1.02612	-0.121338	0.611254	0.163977	0.168315	-0.755744	-4.47959	-0.601535	8.56115	0.00840393	0.0136344	-0.00359994	0.335693	0.429932	-0.80957	0.82249	0.451017	0.248561	0.241477	-2.17914	9.48933	5.10649	-0.0100307	0.0218886	-0.0147262	0.589355	-0.798584	-0.0302734	0.520373	-0.462179	-0.46876	-0.543936	9.89699	0.26335	1.20087	0.0358703	-0.0519533	-0.0233251	-0.901123	0.377441	-0.123047	0.4235	-0.515712	-0.500105	-0.551892	9.75438	1.13878	-0.199592	-0.04381	0.0122827	-0.0277296	-1.01099	0.319336	0.098877	0.448914	-0.533095	-0.526737	-0.486656	9.71083	0.342701	-1.17333	-0.0171895	0.00961378	-0.0310303	-1.00073	0.401123	0.144287	0.590561	-0.45772	-0.553549	-0.36785	9.75226	-1.3127	-0.241105	0.0208085	-0.00979591	-0.00260961	-0.90918	0.510742	-0.0876465	0.555891	-0.474093	-0.60684	-0.312995	9.6234	-1.41184	-1.77817	0.0137227	0.00669582	-0.0122529	-0.976318	0.598145	0.0219727	
44	0.759853	0.121042	0.0935491	-0.631839	-3.40428	0.693381	10.4722	-0.00668235	-0.0294432	0.0150793	0.359863	0.31665	-0.888916	0.633988	-0.339642	-0.375771	-0.584379	8.7503	0.0819166	4.86262	-0.00353331	-0.00833053	-0.00792718	-0.654785	0.306641	-0.399658	0.952287	-0.000657808	0.244035	0.183292	-4.95907	0.956147	9.48032	0.0068233	-0.00125208	0.0107617	0.622559	0.171387	-0.688477	0.0953701	0.136565	0.658258	-0.734133	-3.25002	-9.16431	0.891555	-0.00327441	-0.0072024	-0.00075455	-0.0571289	1.01978	-0.119141	0.61184	0.163416	0.168013	-0.755459	-4.41705	-0.480867	8.58755	-0.0234319	-0.0240119	0.0132242	0.339844	0.432373	-0.811768	0.822593	0.450472	0.249046	0.241643	-2.15935	9.36312	5.16323	-0.0169472	0.0393776	-0.0240528	0.589111	-0.794189	-0.0324707	0.51885	-0.463939	-0.470164	-0.54268	9.85882	0.303668	1.29118	-0.0110039	-0.151463	-0.0162675	-0.903076	0.373047	-0.118652	0.423169	-0.515749	-0.500238	-0.551989	9.72949	1.02395	-0.381293	0.0240323	0.0061199	-0.0250872	-1.01953	0.319336	0.0964355	0.448701	-0.532994	-0.526796	-0.486898	9.7096	0.318291	-1.16031	0.00116982	0.00930025	-0.0334204	-1.00513	0.396484	0.146729	0.590252	-0.457698	-0.553948	-0.367773	9.7302	-1.28845	-0.244167	-0.015282	-0.00293914	-0.00728258	-0.90918	0.512939	-0.083252	0.555809	-0.474031	-0.606805	-0.313302	9.60414	-1.44952	-1.75849	-0.00427193	0.0126527	-0.0125746	-0.976318	0.598145	0.017334	
45	0.760007	0.12061	0.0930606	-0.631808	-3.23248	0.689707	10.4409	0.00237529	-0.0273599	0.0015839	0.361816	0.323242	-0.88916	0.633769	-0.340264	-0.376424	-0.583834	8.76596	0.104849	4.91152	-0.00412369	-0.034589	-0.0126504	-0.655029	0.311035	-0.40918	0.952262	-0.00133708	0.243836	0.183683	-5.01666	0.920987	9.37922	-0.0401365	-0.0006463	0.00816388	0.628906	0.173584	-0.686279	0.0956175	0.136134	0.65804	-0.734376	-3.17155	-9.26641	0.881626	0.0089034	-0.01528	6.33016e-05	-0.0576172	1.02832	-0.119141	0.612337	0.162808	0.167416	-0.75532	-4.44191	-0.501552	8.72841	0.00892324	-0.0296685	0.00527655	0.337646	0.43457	-0.811768	0.822911	0.44956	0.249385	0.241909	-2.19752	9.47617	5.14086	-0.0348089	0.0292893	-0.0242786	0.595703	-0.796387	-0.0368652	0.517294	-0.465795	-0.471664	-0.541271	9.83756	0.305904	1.25501	-0.011778	-0.138092	-0.0185051	-0.909424	0.368652	-0.109863	0.423416	-0.515293	-0.500682	-0.551825	9.74633	1.05163	-0.376173	0.0318215	0.0250911	-0.0260991	-1.01733	0.319336	0.0942383	0.448959	-0.532489	-0.527173	-0.486807	9.75421	0.20558	-1.30167	0.043958	0.0151983	-0.0360592	-0.99585	0.394287	0.142334	0.589864	-0.457869	-0.554	-0.368103	9.75208	-1.37978	-0.257995	-0.016882	0.000239332	-0.00944333	-0.904541	0.508545	-0.0876465	0.55566	-0.473914	-0.606899	-0.313563	9.64247	-1.42634	-1.77275	-0.0043126	0.00762513	-0.0159276	-0.97876	0.598145	0.0151367	
46	0.760069	0.120406	0.0929054	-0.631796	-3.24166	0.750338	10.4698	-0.00470755	-0.0110452	-0.00088817	0.359375	0.323242	-0.88916	0.633643	-0.340663	-0.376593	-0.583628	8.83179	0.0791825	4.91164	-0.0200404	0.00922386	-0.00994936	-0.656738	0.302246	-0.404297	0.952295	-0.0013801	0.243399	0.184092	-4.9896	0.959373	9.44691	0.00228389	-0.0110683	0.0134639	0.626953	0.171387	-0.688477	0.0958359	0.135877	0.657679	-0.734718	-3.29296	-9.31357	0.849187	0.019894	-0.0081819	0.00427877	-0.057373	1.02637	-0.121338	0.612473	0.162603	0.167204	-0.755301	-4.37575	-0.509039	8.78275	0.000283712	-0.0167012	-0.00139691	0.340088	0.429932	-0.807373	0.82313	0.449169	0.249276	0.242001	-2.23333	9.52655	5.16937	-0.0338096	0.012947	-0.0171734	0.584961	-0.798584	-0.0324707	0.515018	-0.468324	-0.473473	-0.539679	9.94343	0.283374	1.17422	0.00846437	-0.118825	-0.0148058	-0.911377	0.366455	-0.097168	0.423683	-0.514987	-0.501076	-0.551547	9.78156	1.01752	-0.36856	0.0539383	0.0174115	-0.0230182	-1.02148	0.314941	0.101318	0.449462	-0.531859	-0.527709	-0.48645	9.77648	0.267435	-1.25969	0.0851187	0.0182649	-0.0379779	-1.00269	0.394287	0.144531	0.589521	-0.458059	-0.55397	-0.368461	9.77224	-1.3077	-0.333043	-0.01964	0.0157719	-0.00563554	-0.911377	0.510742	-0.0876465	0.555541	-0.473943	-0.606867	-0.313791	9.653	-1.47426	-1.79613	-0.0148124	0.0103316	-0.0145508	-0.97876	0.598145	0.017334	
47	0.760054	0.119986	0.0929238	-0.631892	-3.27391	0.696691	10.4264	-0.013591	-0.0175349	-0.00813297	0.354736	0.327393	-0.886963	0.63358	-0.340863	-0.376566	-0.583598	8.68515	0.0165163	4.82861	-0.00819869	-0.00359615	-0.0192682	-0.657227	0.313232	-0.4021	0.952437	-0.00131781	0.243061	0.183802	-4.95246	0.983126	9.46387	0.00344002	-0.0121788	-0.0120887	0.628906	0.171387	-0.686279	0.0959528	0.135937	0.657429	-0.734916	-3.31069	-9.14611	1.03494	0.0134663	0.0111796	0.0013644	-0.0595703	1.02612	-0.116943	0.612512	0.16254	0.166806	-0.755371	-4.39385	-0.383386	8.68289	0.00346911	-0.00788603	-0.0139306	0.337646	0.432373	-0.816406	0.823672	0.448675	0.248908	0.241453	-2.14134	9.33894	5.30655	-0.00410547	0.000414359	-0.0346597	0.595703	-0.798584	-0.0366211	0.512903	-0.470607	-0.47605	-0.537434	9.80341	0.192977	0.958468	0.0340731	-0.180257	-0.0220278	-0.905029	0.37085	-0.0908203	0.424209	-0.514333	-0.502232	-0.5507	9.7601	1.27864	-0.279975	0.0683905	0.0108323	-0.0266313	-1.01953	0.321533	0.0942383	0.450584	-0.53032	-0.528791	-0.485916	9.65005	0.483715	-1.01892	0.0238592	0.0199946	-0.0329422	-1.00049	0.394287	0.139893	0.589022	-0.458479	-0.554028	-0.368649	9.69776	-1.34957	-0.345159	-0.02053	-0.00767972	0.00157156	-0.911133	0.50415	-0.0854492	0.555464	-0.473923	-0.606618	-0.31444	9.57397	-1.35293	-1.80222	-0.02645	0.0253918	-0.0152518	-0.980713	0.59375	0.0197754	
48	0.75997	0.119421	0.0930734	-0.632077	-3.1835	0.659575	10.4843	-0.0180939	-0.0134897	-0.0108922	0.35498	0.322998	-0.886963	0.633173	-0.341547	-0.376896	-0.583427	8.82428	0.110749	4.75	-0.0233611	-0.0250559	-0.0193334	-0.654785	0.304443	-0.399658	0.952616	-0.00163043	0.242903	0.18308	-5.00275	0.922227	9.39786	-0.000655351	-0.0100476	-0.0410928	0.622559	0.169434	-0.686035	0.0957058	0.136004	0.657313	-0.73504	-3.26245	-9.13638	0.93554	0.0171832	0.021873	-0.00932478	-0.0576172	1.02856	-0.125732	0.612211	0.162107	0.167033	-0.755658	-4.42332	-0.566316	8.58709	0.0009295	-0.00150976	-0.0313	0.331299	0.429932	-0.811768	0.823808	0.448495	0.24891	0.241322	-2.17422	9.38434	5.22208	-0.0103985	0.00949332	-0.0302784	0.595703	-0.796387	-0.034668	0.511164	-0.472635	-0.478892	-0.53478	9.89457	0.382091	1.0015	0.0428185	-0.177772	-0.0133803	-0.907471	0.373047	-0.0803223	0.424335	-0.513925	-0.502591	-0.550657	9.73922	1.26142	-0.207762	0.0152033	0.0239648	-0.0257827	-1.01733	0.317383	0.0942383	0.450471	-0.530318	-0.528703	-0.486118	9.71734	0.377422	-1.10399	-0.0113965	0.0141211	-0.0289548	-1.00513	0.394287	0.135498	0.589041	-0.458361	-0.554126	-0.368618	9.75938	-1.39227	-0.226503	0.0109053	0.0115624	-0.00371214	-0.908936	0.50415	-0.0852051	0.555428	-0.473795	-0.606518	-0.314887	9.57179	-1.41585	-1.73873	-0.00561961	0.013809	-0.0162739	-0.980957	0.600342	0.0151367	
49	0.759889	0.119253	0.0930123	-0.632215	-3.21645	0.590481	10.5329	-0.00453436	-0.0171894	-0.0138523	0.357422	0.323242	-0.893311	0.632873	-0.341941	-0.37708	-0.583403	8.87306	0.138718	4.78806	-0.024402	-0.023891	-0.0236259	-0.657227	0.313232	-0.397461	0.952758	-0.00197234	0.24263	0.1827	-4.90625	0.890745	9.40974	-0.0217917	-0.0134019	-0.0383622	0.622559	0.177979	-0.686279	0.0951452	0.136194	0.6568	-0.735535	-3.15772	-9.3139	0.921501	0.0280736	0.0200693	-0.00264363	-0.0620117	1.03076	-0.125732	0.612094	0.161401	0.166333	-0.756058	-4.32346	-0.508275	8.68921	0.00365199	-0.0377914	-0.0185954	0.331543	0.425781	-0.814209	0.824385	0.447531	0.248915	0.241134	-2.27321	9.46847	5.13513	-0.0415195	0.0121919	-0.0422862	0.595703	-0.798584	-0.0388184	0.510155	-0.473787	-0.480096	-0.533644	9.99408	0.359467	0.800362	0.0244654	-0.167908	-0.0146585	-0.907227	0.368652	-0.078125	0.424191	-0.513775	-0.502224	-0.551243	9.79255	1.10987	-0.247771	0.00136031	0.0321949	-0.0249279	-1.01953	0.317383	0.0895996	0.450383	-0.530206	-0.52873	-0.486293	9.76776	0.386656	-1.09467	-0.000124755	0.00996216	-0.026552	-1.00269	0.39209	0.137695	0.589183	-0.457911	-0.554426	-0.368502	9.75746	-1.21258	-0.238451	0.0144816	0.00993381	-0.00712191	-0.913574	0.508545	-0.083252	0.555378	-0.47367	-0.60652	-0.31516	9.63775	-1.32974	-1.75703	-0.00793149	0.0131468	-0.0123561	-0.987549	0.598145	0.017334	
50	0.759634	0.118935	0.0925175	-0.632654	-3.22212	0.752608	10.4322	0.00501853	-0.0316923	-0.0220293	0.352783	0.322998	-0.88916	0.63246	-0.342564	-0.376855	-0.583631	8.76165	0.0202738	4.79935	-0.0355476	0.000688096	-0.0201237	-0.655029	0.313232	-0.397461	0.95303	-0.0018159	0.241997	0.182123	-4.82645	0.70832	9.51859	0.0246013	-0.0220586	-0.01506	0.622559	0.177979	-0.690918	0.0952981	0.136428	0.656469	-0.735768	-3.1356	-9.14159	1.15761	0.0133744	0.00265286	0.0108753	-0.057373	1.02637	-0.121338	0.611985	0.160639	0.166116	-0.756356	-4.26665	-0.52267	8.7718	-0.0100211	-0.0256106	-0.0195595	0.337891	0.427979	-0.811768	0.824747	0.447358	0.248756	0.240382	-2.29117	9.3814	5.42475	0.00945637	-0.0119542	-0.0370765	0.593506	-0.794189	-0.0368652	0.508665	-0.475516	-0.482925	-0.530969	9.88775	0.290082	0.94231	0.0608983	-0.17687	-0.0126476	-0.902832	0.368652	-0.0715332	0.424516	-0.513407	-0.502327	-0.551241	9.72856	1.2401	-0.268148	0.017446	0.0342667	-0.0142292	-1.01733	0.315186	0.0871582	0.449911	-0.530538	-0.528428	-0.486696	9.71214	0.395771	-1.11443	-0.0317231	0.00350326	-0.0221842	-1.00488	0.389893	0.133301	0.588436	-0.458763	-0.554014	-0.369255	9.70566	-1.22311	-0.280611	-0.0766255	3.66018e-05	0.00164311	-0.906494	0.501953	-0.0830078	0.555097	-0.473956	-0.606213	-0.315815	9.62193	-1.33608	-1.777	-0.0396705	0.0176778	-0.0104004	-0.980713	0.591553	0.0288086	
51	0.75951	0.118608	0.0924513	-0.632874	-3.03467	0.64425	10.4066	-0.00457482	-0.00638919	-0.0106853	0.35498	0.325195	-0.88916	0.632165	-0.342891	-0.376747	-0.583828	8.84754	0.0240912	4.85357	-0.0203852	0.0145643	-0.0295252	-0.663818	0.31543	-0.402344	0.953032	-0.00196608	0.241994	0.182112	-4.92384	0.938246	9.48503	-0.0207649	0.0048724	-0.0091758	0.622559	0.171631	-0.690674	0.0948298	0.13645	0.656363	-0.735919	-3.23774	-9.31236	1.07434	0.00653785	0.0238294	-0.0130479	-0.0551758	1.02417	-0.125732	0.611506	0.161124	0.16594	-0.756679	-4.33882	-0.592666	8.7274	0.0323574	0.0222019	-0.028852	0.333496	0.432373	-0.814209	0.824911	0.447367	0.248128	0.240452	-2.36632	9.4599	5.34139	-0.00768128	-0.00305814	0.0014284	0.595703	-0.798584	-0.0388184	0.506866	-0.477591	-0.484956	-0.528972	9.95189	0.260056	0.752852	0.0262192	-0.153628	-0.0156367	-0.90918	0.366455	-0.0737305	0.424258	-0.513539	-0.50183	-0.551769	9.74276	1.19754	-0.289866	-0.0445631	0.0172659	-0.0163182	-1.01294	0.315186	0.0942383	0.449479	-0.530876	-0.528117	-0.487064	9.75964	0.392773	-1.18686	-0.0215098	0.00570475	-0.0221705	-1.00513	0.394287	0.139893	0.588073	-0.459221	-0.553702	-0.36973	9.74511	-1.38023	-0.302723	-0.00916057	0.0172977	0.00441492	-0.90918	0.508545	-0.0854492	0.554716	-0.474442	-0.605733	-0.316674	9.62885	-1.40323	-1.77395	-0.0385595	0.0190377	-0.00612663	-0.978271	0.591553	0.0197754	
52	0.759279	0.11898	0.0928847	-0.633018	-3.15305	0.597825	10.3934	0.00597655	0.0241343	-0.0124214	0.35498	0.322998	-0.886963	0.632164	-0.342492	-0.375967	-0.584565	8.77204	0.0362183	4.79429	-0.0218476	0.0458845	-0.022976	-0.657227	0.313232	-0.399902	0.952999	-0.00167534	0.242338	0.181829	-4.8987	0.718136	9.46571	0.0502037	0.0252744	-0.00533684	0.624756	0.173584	-0.683838	0.0946117	0.136887	0.656627	-0.73563	-3.21203	-9.27016	1.04976	-0.023345	0.0300324	0.0114972	-0.0595703	1.02612	-0.121338	0.61139	0.161276	0.16635	-0.75665	-4.37959	-0.528701	8.71147	-0.0249628	0.0247871	-0.0130744	0.33374	0.425537	-0.80957	0.824739	0.447776	0.248212	0.240192	-2.25108	9.47004	5.29572	0.0259426	0.0142517	-0.0277918	0.5979	-0.796387	-0.0368652	0.506571	-0.477909	-0.485254	-0.528694	9.874	0.283519	0.700011	-0.0169466	0.0484867	-0.0139534	-0.907227	0.37085	-0.0610352	0.42368	-0.514008	-0.501232	-0.55232	9.78106	1.12357	-0.201144	-0.0421048	0.0252845	-0.016507	-1.01489	0.315186	0.098877	0.449135	-0.531122	-0.527863	-0.487388	9.72688	0.313122	-1.14246	-0.012362	0.00560534	-0.0239541	-1.00269	0.39209	0.140137	0.587925	-0.459304	-0.553631	-0.369969	9.7515	-1.22727	-0.22717	-0.000120454	0.0211695	-0.00543197	-0.913574	0.508545	-0.0854492	0.554693	-0.474482	-0.605574	-0.316958	9.60891	-1.38406	-1.69285	-0.00078135	0.0111509	-0.00633432	-0.976318	0.598145	0.0151367	
53	0.758836	0.119602	0.0933126	-0.633369	-3.32798	0.662021	10.5194	0.0128237	0.0211298	-0.0241505	0.357422	0.321045	-0.88916	0.632114	-0.342147	-0.375775	-0.584945	8.80163	0.00959341	4.87811	-0.0141675	0.0452508	-0.033778	-0.663818	0.31543	-0.406982	0.952857	-0.000890089	0.243169	0.181472	-4.85379	0.913551	9.41552	0.0123251	0.0316533	-0.0060789	0.620361	0.171631	-0.692871	0.0943152	0.137352	0.657177	-0.73509	-3.14231	-9.10861	0.938315	-0.0268178	0.0324287	0.000219087	-0.0639648	1.02173	-0.123535	0.611267	0.161563	0.166513	-0.756653	-4.33665	-0.61029	8.64711	0.0281218	0.0183997	-0.00995678	0.333496	0.432373	-0.814209	0.824415	0.448127	0.2486	0.240249	-2.28335	9.36153	5.21852	0.021375	0.0282443	-0.00596465	0.597656	-0.789795	-0.0371094	0.506603	-0.477665	-0.484704	-0.529388	9.94961	0.235038	0.510436	0.022948	0.042276	-0.0261199	-0.909424	0.373047	-0.0632324	0.42338	-0.514177	-0.501228	-0.552396	9.78568	1.10595	-0.278284	0.0152586	0.0112949	-0.0170679	-1.02173	0.31958	0.0895996	0.449056	-0.531094	-0.527938	-0.48741	9.75215	0.388534	-1.17088	-0.000216251	0.00444466	-0.0246873	-1.00732	0.396484	0.144287	0.587716	-0.459471	-0.553443	-0.370374	9.7419	-1.34696	-0.286899	-0.0256168	0.0223699	-0.00742058	-0.915527	0.501953	-0.0783691	0.555033	-0.47404	-0.605818	-0.316558	9.6245	-1.40706	-1.72165	0.0439904	0.00493473	-0.00501193	-0.976318	0.598145	0.0151367	
54	0.758551	0.119949	0.0932428	-0.633655	-3.29624	0.774517	10.46	0.0137081	0.00230559	-0.0096678	0.359375	0.325195	-0.882568	0.632027	-0.342132	-0.375362	-0.585313	8.67549	0.0399238	4.75053	-0.00418413	0.0205264	-0.0240891	-0.659424	0.313232	-0.399902	0.952785	-0.000882068	0.243456	0.181463	-4.96386	0.831996	9.41923	0.0121759	0.0162619	0.00662059	0.622559	0.173584	-0.686279	0.0939787	0.137566	0.657366	-0.734925	-3.14656	-9.2034	0.918613	-0.0126122	0.0217985	-0.00452631	-0.0593262	1.02197	-0.121338	0.611251	0.161752	0.166491	-0.75663	-4.31269	-0.483516	8.68749	0.00974284	0.018647	-0.00770752	0.335693	0.432373	-0.811768	0.824391	0.44812	0.24852	0.24043	-2.23396	9.37805	5.19271	-0.001156	0.0151997	0.000146758	0.595703	-0.796387	-0.0388184	0.505615	-0.478574	-0.483928	-0.530221	9.90857	0.287874	0.713682	-0.0744774	0.00369203	-0.0197448	-0.904785	0.366455	-0.0651855	0.42308	-0.514396	-0.501124	-0.552517	9.72069	1.22108	-0.300544	-0.0257368	0.00452248	-0.020127	-1.01953	0.317139	0.098877	0.449362	-0.530679	-0.52834	-0.487145	9.72331	0.337564	-1.16621	0.0386694	0.0136179	-0.0269853	-1.00269	0.394287	0.144531	0.587927	-0.459068	-0.553613	-0.370284	9.75127	-1.35119	-0.336852	0.032254	0.0205379	-0.0057004	-0.911377	0.508545	-0.0854492	0.555303	-0.473692	-0.606027	-0.316205	9.6266	-1.41635	-1.72287	0.0512438	0.00602761	-0.00675018	-0.983154	0.595947	0.017334	
55	0.758559	0.119995	0.0932709	-0.633633	-3.26439	0.714952	10.5009	0.00214952	-0.00043377	0.000744485	0.361572	0.325439	-0.88916	0.631968	-0.341894	-0.376073	-0.585059	8.88134	0.0896668	4.89922	0.0115327	0.00741702	-0.0238968	-0.659424	0.311035	-0.406738	0.952722	-0.000647074	0.243672	0.181506	-4.90645	0.893586	9.38959	0.0218302	0.019284	0.00751252	0.622559	0.171387	-0.683838	0.0940391	0.13762	0.657592	-0.734704	-3.20343	-9.2748	0.845416	-0.0247983	0.0111219	0.00693692	-0.0529785	1.02856	-0.121338	0.610946	0.162219	0.166615	-0.756749	-4.46746	-0.566962	8.61137	0.0315325	0.0235227	-0.0228035	0.339844	0.432129	-0.807373	0.824255	0.448393	0.248242	0.240671	-2.19178	9.50956	5.12882	0.0147444	0.00665611	-0.00350312	0.595703	-0.796387	-0.0368652	0.504933	-0.47906	-0.483501	-0.530821	9.93785	0.236895	0.641847	-0.031214	-0.0403478	-0.0236834	-0.906982	0.366455	-0.0629883	0.422757	-0.514494	-0.501054	-0.552736	9.77595	1.08722	-0.178814	-0.0184847	0.0228726	-0.021284	-1.01929	0.312988	0.098877	0.449655	-0.530335	-0.528657	-0.486905	9.73927	0.328159	-1.16571	0.0530694	0.0115327	-0.0290803	-1.00732	0.396484	0.148926	0.58809	-0.458727	-0.553793	-0.370178	9.7558	-1.29274	-0.251219	0.0325724	0.0178292	-0.00929462	-0.90918	0.510742	-0.083252	0.555977	-0.47281	-0.606451	-0.315526	9.64169	-1.39059	-1.75498	0.0557817	0.00870956	-0.00783349	-0.980713	0.595947	0.0197754	
56	0.758524	0.120389	0.0930474	-0.633632	-3.24988	0.802285	10.4423	0.0222355	-0.000634027	0.000345115	0.364014	0.321045	-0.888916	0.632033	-0.34183	-0.375946	-0.585108	8.78397	0.0913319	4.8534	-0.00868081	0.0260265	-0.0162984	-0.659424	0.31543	-0.402344	0.952699	-0.000877425	0.243462	0.181909	-4.95691	0.919591	9.51778	-0.0215282	0.00306772	0.0146333	0.622559	0.175781	-0.686279	0.0943739	0.137577	0.657642	-0.734625	-3.24989	-9.20661	0.980114	-0.0104496	-0.00675952	0.0041838	-0.0554199	1.03076	-0.121338	0.610866	0.162414	0.166539	-0.756789	-4.36903	-0.534641	8.67862	0.00776092	0.0157562	-0.0104596	0.335938	0.425781	-0.814209	0.824303	0.448579	0.247831	0.240587	-2.1729	9.3931	5.30415	0.00812114	-0.00578709	-0.00792746	0.600342	-0.802734	-0.0366211	0.504568	-0.479502	-0.483567	-0.530709	9.95878	0.289153	0.739713	-0.011025	-0.027984	-0.0124196	-0.913574	0.366455	-0.0629883	0.42242	-0.51457	-0.501178	-0.552811	9.78631	1.17233	-0.206405	0.00304302	0.0110861	-0.0217262	-1.01074	0.315186	0.098877	0.449674	-0.53014	-0.528897	-0.486839	9.71625	0.327087	-1.15023	0.0087595	0.00434675	-0.0295447	-1.00024	0.39209	0.135498	0.588122	-0.458587	-0.55369	-0.370456	9.75964	-1.27345	-0.254191	-0.0138793	0.0235297	-0.00166593	-0.911133	0.506348	-0.0854492	0.556498	-0.471996	-0.606948	-0.314871	9.60483	-1.39501	-1.71729	0.0608811	0.00830405	-0.0127465	-0.983154	0.595947	0.0151367	
57	0.758526	0.120456	0.0933075	-0.633579	-3.24328	0.78465	10.414	-0.0143646	0.00686542	-0.00219153	0.355225	0.321045	-0.891357	0.632107	-0.341759	-0.375916	-0.585088	8.76231	0.0411401	4.84776	-0.00296674	0.0128518	-0.0187064	-0.656982	0.308838	-0.399658	0.952609	-0.000423676	0.243723	0.182029	-4.94477	1.02996	9.44663	0.0240538	0.00495	0.00410899	0.624756	0.171387	-0.693115	0.0942092	0.137721	0.657759	-0.734514	-3.35988	-9.19799	0.893986	0.00552946	0.0243169	-0.000100287	-0.0571289	1.01978	-0.121338	0.610892	0.162437	0.167012	-0.756659	-4.44097	-0.577777	8.62072	-0.0167096	0.0128987	-0.0118987	0.335693	0.427979	-0.811768	0.824111	0.448804	0.24794	0.240713	-2.19895	9.47872	5.22947	0.00316468	0.0259898	-0.011137	0.600098	-0.79834	-0.034668	0.504295	-0.479824	-0.484005	-0.530278	9.86113	0.237773	0.752677	0.0298821	-0.0457277	-0.0151497	-0.904785	0.366455	-0.0610352	0.422549	-0.514228	-0.50107	-0.553128	9.78314	1.24457	-0.303946	0.00208533	0.0277476	-0.0151048	-1.01709	0.312988	0.0942383	0.449416	-0.530289	-0.528751	-0.487074	9.73801	0.38412	-1.15902	-0.0213006	0.0068013	-0.0215818	-1.00488	0.39209	0.140137	0.588197	-0.458601	-0.553376	-0.370789	9.716	-1.33076	-0.270206	0.00125024	0.0295724	-0.00111576	-0.911377	0.508545	-0.0854492	0.556827	-0.471479	-0.60728	-0.314424	9.60333	-1.28509	-1.7799	0.0235497	0.00914176	-0.00884983	-0.985352	0.598145	0.0126953	
58	0.758504	0.120589	0.0937003	-0.633522	-3.27892	0.716801	10.4674	-0.00213626	0.0126181	-0.000615858	0.361816	0.321045	-0.891113	0.632169	-0.341844	-0.375862	-0.585007	8.81712	0.107752	4.86524	-0.00890259	0.0152678	-0.00864585	-0.65918	0.304443	-0.401855	0.95261	-0.00074093	0.243849	0.181853	-4.97429	0.837737	9.49471	-0.0135415	0.0201575	-0.0116771	0.624756	0.169189	-0.686035	0.0939625	0.137759	0.658049	-0.734279	-3.22755	-9.28848	0.938352	-0.0188738	0.0122982	-0.00906771	-0.0527344	1.02197	-0.123535	0.611019	0.16247	0.167265	-0.756493	-4.4	-0.454725	8.65973	-0.0287592	0.0187007	-0.0070182	0.33374	0.425781	-0.814209	0.823858	0.449062	0.24836	0.240665	-2.12674	9.47152	5.24064	0.0294097	0.023663	-0.0217805	0.59375	-0.798584	-0.034668	0.504504	-0.479838	-0.484757	-0.529379	9.91383	0.258653	0.656754	0.0666293	-0.00428605	-0.00380913	-0.913574	0.37085	-0.0524902	0.422257	-0.514444	-0.500658	-0.553523	9.78677	1.1582	-0.279794	-0.0186876	0.0193704	-0.0165126	-1.01514	0.319336	0.0964355	0.449281	-0.530406	-0.528503	-0.487341	9.74866	0.361361	-1.15546	-0.010592	0.0120565	-0.0203493	-1	0.382812	0.146973	0.58824	-0.45843	-0.553465	-0.3708	9.74369	-1.25755	-0.306723	0.0135575	0.015735	-0.000253939	-0.915771	0.506348	-0.0876465	0.556842	-0.471472	-0.607193	-0.314575	9.64466	-1.38023	-1.73693	0.00995936	0.0125078	-0.00593961	-0.980713	0.59375	0.0129395	
59	0.758555	0.120612	0.0942296	-0.633378	-3.30555	0.684091	10.4249	-0.0194967	0.0123626	0.0043922	0.357422	0.321045	-0.893311	0.632534	-0.341742	-0.375263	-0.585056	8.75512	0.0483486	4.85057	-0.00642245	0.0377171	-0.00518206	-0.656982	0.308838	-0.404297	0.952464	-0.000577368	0.244419	0.181857	-4.92821	0.984651	9.51364	0.0123611	0.0321383	0.000127159	0.622559	0.175781	-0.686279	0.0937361	0.13743	0.658323	-0.734123	-3.26616	-9.18604	0.932566	-0.00934345	-0.00106455	-0.0207672	-0.0576172	1.03052	-0.119141	0.610742	0.162197	0.167959	-0.756622	-4.4452	-0.571654	8.66953	-0.0256521	0.0136631	-0.0232332	0.340088	0.427979	-0.811768	0.823791	0.449063	0.248701	0.240538	-2.24838	9.37153	5.17116	0.00559987	0.0202692	-0.0203713	0.593506	-0.794189	-0.034668	0.504356	-0.480119	-0.485634	-0.528461	9.90792	0.287948	0.728602	0.0355994	-0.0377725	-0.0040383	-0.905029	0.37085	-0.0610352	0.42248	-0.514175	-0.500532	-0.553717	9.6858	1.16127	-0.290446	0.0104958	0.0344018	-0.0175208	-1.01929	0.315186	0.0942383	0.449288	-0.530431	-0.528311	-0.487515	9.7227	0.388835	-1.15562	-0.00174849	0.0169641	-0.0183862	-1.00488	0.39209	0.142334	0.588266	-0.458357	-0.553476	-0.370832	9.74373	-1.29152	-0.243478	-0.0123071	0.0135582	0.00273001	-0.91333	0.50415	-0.0854492	0.556795	-0.471562	-0.607015	-0.314866	9.62265	-1.40838	-1.72112	-0.00780281	0.0156939	-0.0060689	-0.980713	0.595947	0.0151367	
60	0.758519	0.12081	0.0949075	-0.633283	-3.2616	0.664957	10.4586	-0.0130692	0.0238309	-9.94788e-05	0.36377	0.325439	-0.88916	0.632731	-0.341795	-0.37502	-0.584968	8.76244	0.0918929	4.91359	-0.0122607	0.0184963	-0.00421767	-0.655029	0.311035	-0.404541	0.952215	-0.00129107	0.245222	0.182075	-5.00302	0.839311	9.28357	-0.0136537	0.0427684	0.00404411	0.626953	0.166992	-0.686035	0.0935408	0.136939	0.65892	-0.733705	-3.12604	-9.31882	0.887115	-0.0254162	0.0080613	-0.0110274	-0.0639648	1.02173	-0.119141	0.610648	0.162418	0.168522	-0.756525	-4.46143	-0.611656	8.64253	-0.0259852	0.0340203	-0.014378	0.335205	0.438721	-0.80957	0.82339	0.449662	0.249034	0.240448	-2.24248	9.54038	5.18799	0.0337982	0.025712	-0.0200006	0.595947	-0.79834	-0.0302734	0.504103	-0.480665	-0.486212	-0.527674	9.86363	0.291991	0.587982	0.0293868	-0.044737	-0.00361145	-0.906982	0.366455	-0.0544434	0.42267	-0.514022	-0.500451	-0.553788	9.76723	1.22462	-0.300353	-0.00659476	0.0324358	-0.0121789	-1.01489	0.312988	0.092041	0.449387	-0.530441	-0.528086	-0.487656	9.73755	0.403367	-1.12948	0.00192544	0.0158185	-0.0161309	-1.00732	0.394287	0.137695	0.588393	-0.458146	-0.553524	-0.370819	9.72863	-1.26922	-0.280568	0.0163367	0.0187142	8.16022e-05	-0.911377	0.508545	-0.0854492	0.55673	-0.47175	-0.606738	-0.315234	9.61998	-1.38413	-1.7366	-0.0138307	0.0155202	-0.00194385	-0.97876	0.600342	0.0151367	
61	0.758532	0.121055	0.0954942	-0.633132	-3.38401	0.659606	10.4564	-0.00891587	0.0168101	0.00408377	0.361816	0.321045	-0.884766	0.632895	-0.341723	-0.374591	-0.585107	8.72416	0.0300436	4.81795	-0.0158544	0.0339686	-0.015339	-0.655029	0.313232	-0.404541	0.952167	-0.0010817	0.245478	0.181983	-4.9947	0.914488	9.38778	0.00789979	0.0114696	-0.00137874	0.62915	0.171387	-0.681641	0.093404	0.137131	0.659092	-0.733531	-3.15796	-9.15762	0.843347	-0.0115837	0.0178728	0.00170055	-0.0639648	1.02393	-0.116943	0.610797	0.162538	0.168908	-0.756293	-4.39321	-0.615309	8.66285	-0.00958385	0.0223697	0.00296771	0.342041	0.432129	-0.804932	0.823241	0.449813	0.249277	0.240424	-2.27536	9.43496	5.10071	0.023898	0.0281789	-0.0199531	0.589111	-0.794189	-0.0390625	0.503782	-0.481124	-0.486808	-0.527012	9.90296	0.26886	0.566874	0.0227533	-0.00497562	-0.0143461	-0.90918	0.366455	-0.0524902	0.422635	-0.51411	-0.499901	-0.554229	9.76059	1.25565	-0.219513	-0.0389078	0.0294035	-0.00747683	-1.01489	0.312988	0.098877	0.449249	-0.530696	-0.527541	-0.488095	9.7382	0.411376	-1.121	-0.026294	0.0210536	-0.0150936	-1.00244	0.389893	0.133301	0.58855	-0.458071	-0.553404	-0.37084	9.77663	-1.31617	-0.305459	0.0117207	0.0252555	0.00574378	-0.913574	0.506348	-0.0898438	0.556925	-0.47167	-0.606625	-0.315228	9.62241	-1.33872	-1.73038	0.00789981	0.0156001	-0.000739421	-0.987549	0.59375	0.0151367	
62	0.75867	0.121051	0.0956443	-0.632945	-3.36787	0.561973	10.4519	-0.000196119	-0.00505013	0.00787223	0.366211	0.323242	-0.886963	0.63303	-0.341597	-0.37446	-0.58512	8.75933	0.019014	4.8697	-0.00541085	0.0217726	-0.0167616	-0.656982	0.308838	-0.4021	0.952109	-0.00103143	0.245665	0.182031	-4.94636	0.854461	9.31584	-0.000905866	0.00596387	0.00524161	0.626953	0.173584	-0.679443	0.0934238	0.137206	0.659263	-0.733361	-3.1094	-9.19573	0.788789	-0.00521851	0.00697221	0.00948537	-0.0620117	1.03052	-0.114746	0.610834	0.162734	0.168959	-0.756209	-4.42437	-0.578696	8.58712	0.00447806	0.0221924	-0.00306746	0.344482	0.430176	-0.807373	0.822988	0.450031	0.249735	0.240407	-2.22588	9.3773	5.13337	0.0182412	0.0219259	-0.0120562	0.593506	-0.794189	-0.034668	0.503402	-0.481602	-0.48722	-0.526558	9.90591	0.243631	0.596236	0.0263842	-0.0351339	-0.015582	-0.913574	0.368652	-0.0566406	0.42257	-0.514208	-0.499551	-0.554503	9.71021	1.22017	-0.3124	-0.0271655	0.0347629	-0.0094549	-1.01709	0.312988	0.0966797	0.448547	-0.531351	-0.526633	-0.489008	9.70941	0.491979	-1.09726	-0.0789447	0.0155203	-0.0151519	-1.00757	0.398682	0.14209	0.588857	-0.457758	-0.553408	-0.370735	9.75025	-1.2821	-0.264165	0.00234595	0.0228493	0.000752316	-0.915527	0.50415	-0.0876465	0.556983	-0.471704	-0.606486	-0.315341	9.63696	-1.35871	-1.74747	-0.00488281	0.0196033	-0.000395349	-0.973877	0.59375	0.017334	
63	0.758741	0.121088	0.0955505	-0.632866	-3.30781	0.586206	10.4502	0.00654033	-0.00814906	0.00837079	0.361816	0.321045	-0.884766	0.632873	-0.341715	-0.374531	-0.585175	8.70765	0.00510502	4.87909	-0.0086728	-0.00491882	-0.0235913	-0.659424	0.31543	-0.402344	0.952099	-0.000857993	0.245586	0.182191	-5.06938	0.897478	9.35784	0.00806062	0.00686751	0.00490818	0.624756	0.169189	-0.683838	0.093545	0.137118	0.659131	-0.733481	-3.16236	-9.16707	0.76761	0.0125849	-0.00680671	0.00436096	-0.0617676	1.02393	-0.119141	0.610894	0.16238	0.169052	-0.756216	-4.459	-0.626775	8.62362	-0.0151794	-0.0104377	-0.0130017	0.337646	0.436768	-0.811768	0.823231	0.449526	0.249762	0.24049	-2.24164	9.38601	5.04319	-0.0309726	0.0149253	-0.0202431	0.600098	-0.796387	-0.0324707	0.502553	-0.482414	-0.487984	-0.525917	9.87598	0.252325	0.460506	0.00444096	-0.0687031	-0.0192599	-0.906982	0.366455	-0.0480957	0.421949	-0.514573	-0.49862	-0.555474	9.75071	1.24917	-0.229239	-0.065324	0.0341681	-0.0206234	-1.01929	0.310791	0.092041	0.448073	-0.531834	-0.526019	-0.489578	9.69934	0.368347	-1.12428	-0.0802536	0.0144594	-0.0138345	-1.00488	0.391846	0.146729	0.589045	-0.457499	-0.553415	-0.370747	9.77277	-1.32221	-0.278591	0.0191436	0.0290853	-0.00369164	-0.90918	0.508545	-0.0900879	0.557074	-0.471698	-0.606242	-0.315657	9.62521	-1.38444	-1.68461	-0.0126792	0.0209959	-0.00610369	-0.97876	0.600342	0.00830078	
64	0.758721	0.121263	0.0953446	-0.632888	-3.31748	0.612053	10.4483	0.0110348	-0.00405253	-1.59976e-05	0.366211	0.318848	-0.891113	0.632706	-0.34183	-0.374714	-0.58517	8.80354	0.0520124	4.94771	-0.00652915	-0.00620896	-0.0269496	-0.65918	0.306641	-0.406738	0.95211	-0.00091545	0.245472	0.182289	-5.10672	0.910666	9.35559	-0.00690825	-0.00287168	0.00537586	0.624756	0.169189	-0.686035	0.0936357	0.136872	0.659089	-0.733553	-3.13366	-9.33704	0.840618	0.00199746	0.00262616	0.00169912	-0.0622559	1.03271	-0.121582	0.610765	0.162251	0.168651	-0.756437	-4.43495	-0.659262	8.67916	0.0110271	-0.0104093	-0.0129023	0.337646	0.434326	-0.80957	0.823515	0.449109	0.249394	0.240681	-2.31273	9.50047	5.22756	-0.0133487	0.00684048	-0.00866844	0.595947	-0.800537	-0.0324707	0.501915	-0.48303	-0.488621	-0.525369	9.92275	0.275307	0.505034	0.0130345	-0.0854098	-0.0212355	-0.907227	0.37085	-0.0461426	0.421699	-0.514625	-0.497638	-0.556496	9.81619	1.11799	-0.180973	-0.0346311	0.0517822	-0.0125173	-1.01489	0.310791	0.0942383	0.447055	-0.532798	-0.525253	-0.490283	9.74293	0.286234	-1.12966	-0.0413567	-0.0101256	-0.0180529	-1.00488	0.39209	0.142334	0.589336	-0.457118	-0.55308	-0.371254	9.77399	-1.13867	-0.166089	-0.0170844	0.0429819	-0.00802732	-0.911133	0.501953	-0.0898438	0.556824	-0.472034	-0.605874	-0.316302	9.67063	-1.39805	-1.71181	-0.0396574	0.0147433	-0.00591264	-0.987549	0.595947	0.0129395	
65	0.758623	0.121463	0.095018	-0.633016	-3.39287	0.609388	10.4463	0.019577	-0.0142277	-0.00671705	0.359375	0.323242	-0.886963	0.63241	-0.341868	-0.37486	-0.585375	8.7536	0.0849386	4.86757	-0.0131859	0.00236916	-0.0341637	-0.652832	0.313232	-0.402344	0.952236	-0.000682083	0.24509	0.182147	-5.00276	0.848821	9.42955	0.0210157	-0.00941994	-0.00848595	0.626709	0.177979	-0.684082	0.0937884	0.13741	0.658945	-0.733563	-3.19866	-9.25872	0.925903	-0.00786079	0.0231255	0.0257475	-0.0576172	1.02856	-0.121338	0.610807	0.162364	0.168088	-0.756505	-4.33528	-0.606379	8.78128	0.0296902	0.00369095	-0.00497608	0.337891	0.432129	-0.807373	0.823661	0.448996	0.24909	0.240705	-2.34553	9.49361	5.24379	0.000107757	-0.000232735	-0.0131582	0.595703	-0.796387	-0.0388184	0.500545	-0.48422	-0.48917	-0.52507	9.89729	0.289701	0.592651	-0.0169417	-0.0410689	-0.029674	-0.90918	0.366455	-0.041748	0.421651	-0.514553	-0.496885	-0.557271	9.71949	1.10489	-0.2461	-0.0210985	0.0433644	-0.0150409	-1.01709	0.312988	0.098877	0.446376	-0.533524	-0.524753	-0.490647	9.73159	0.268767	-1.24058	-0.0376618	0.00104896	-0.0132385	-1.00488	0.389648	0.144531	0.589041	-0.457711	-0.552126	-0.37241	9.69808	-1.33719	-0.268629	-0.0600792	0.0429343	0.00399076	-0.911133	0.506348	-0.0898438	0.556636	-0.472428	-0.605424	-0.316907	9.62179	-1.44022	-1.74361	-0.0154631	0.0175659	-0.00189937	-0.983154	0.598145	0.010498	
66	0.75837	0.121567	0.0946053	-0.633361	-3.21431	0.68217	10.3941	0.0126576	-0.0103918	-0.0167649	0.359619	0.318848	-0.88916	0.632143	-0.341764	-0.374691	-0.585833	8.76959	-0.0146784	4.92052	-0.018742	0.0328037	-0.0308112	-0.65918	0.306641	-0.404297	0.952261	0.000259132	0.245179	0.181895	-4.99748	0.931626	9.37892	0.0367163	0.00535087	-0.00298281	0.624756	0.169189	-0.683838	0.0937718	0.138243	0.658881	-0.733465	-3.22168	-9.22833	0.914779	0.00422688	0.0354419	0.0233856	-0.0617676	1.02612	-0.119141	0.610708	0.162955	0.167983	-0.756481	-4.40141	-0.494316	8.62774	0.0147496	0.025015	-0.0162491	0.340088	0.430176	-0.811768	0.8236	0.449337	0.248721	0.240659	-2.14114	9.40748	5.24324	0.0142947	-0.000253811	-0.00795338	0.59375	-0.802734	-0.0322266	0.499612	-0.484891	-0.489351	-0.52517	9.92903	0.250082	0.606397	-0.0175732	-0.00806533	-0.0247475	-0.900635	0.368652	-0.0397949	0.421415	-0.514807	-0.496351	-0.55769	9.77816	1.18177	-0.240271	-0.026813	0.0246369	-0.0143648	-1.01709	0.312988	0.092041	0.446329	-0.533397	-0.524667	-0.49092	9.76219	0.357948	-1.22333	-0.00357923	0.0123633	-0.0169788	-1.00488	0.391846	0.146729	0.589006	-0.457812	-0.551693	-0.372981	9.73078	-1.37239	-0.206563	-0.00383048	0.0297632	-0.00249663	-0.915527	0.501953	-0.0876465	0.556795	-0.472398	-0.605207	-0.317086	9.64449	-1.44319	-1.73927	0.0105913	0.0189811	-0.00267564	-0.978516	0.595947	0.010498	
67	0.757984	0.122012	0.0946542	-0.63373	-3.22811	0.683158	10.3785	0.0162753	0.0144175	-0.0224917	0.364014	0.321045	-0.888916	0.63186	-0.341668	-0.374432	-0.586359	8.74799	0.0359857	4.89132	-0.0189319	0.0173534	-0.0354887	-0.661377	0.308838	-0.399658	0.952322	0.000490263	0.245193	0.181555	-5.00507	0.942827	9.51608	0.00698	0.0109723	-0.0136776	0.626709	0.173584	-0.686279	0.0935189	0.138683	0.658888	-0.733408	-3.29872	-9.22916	0.789498	0.00113469	0.0190234	-0.00253941	-0.0529785	1.02637	-0.119141	0.610216	0.163357	0.167925	-0.756804	-4.40137	-0.591224	8.66939	0.0216379	0.023822	-0.0322908	0.339844	0.432373	-0.811768	0.82359	0.449696	0.248204	0.240558	-2.21119	9.45521	5.12794	0.0137995	-0.016106	-0.00391411	0.593262	-0.789795	-0.0368652	0.499087	-0.485229	-0.48915	-0.525546	9.91096	0.222407	0.444089	-0.020965	0.0167905	-0.0240936	-0.907227	0.373047	-0.0419922	0.421177	-0.515013	-0.49597	-0.558019	9.72969	1.07346	-0.183289	-0.00697857	0.0273781	-0.0172707	-1.01929	0.312988	0.092041	0.446602	-0.533154	-0.524591	-0.491017	9.71479	0.382864	-1.09387	0.011582	0.0214001	-0.0221006	-0.998047	0.39209	0.144531	0.589411	-0.457355	-0.551769	-0.372789	9.7427	-1.27203	-0.134239	0.0213739	0.0229202	0.000727921	-0.908691	0.501953	-0.092041	0.55728	-0.471865	-0.60531	-0.31683	9.63528	-1.38514	-1.64663	0.0256309	0.0171907	-0.00789526	-0.980713	0.595947	0.0129395	
68	0.757607	0.122533	0.0951144	-0.634012	-3.37892	0.751026	10.4461	0.00261011	0.0231824	-0.0179007	0.357178	0.323242	-0.891357	0.63184	-0.341402	-0.374243	-0.586656	8.72845	0.0446539	4.81803	0.00241693	0.0213918	-0.0268277	-0.657227	0.313232	-0.404541	0.952348	0.000760123	0.24544	0.181085	-5.06083	0.898935	9.34973	0.0258078	-0.000599197	-0.0221318	0.624756	0.169189	-0.686035	0.0933974	0.138743	0.659014	-0.733299	-3.20092	-9.29435	0.87906	-0.011131	0.019077	-0.00358285	-0.0551758	1.02637	-0.119141	0.609653	0.163644	0.168126	-0.757151	-4.50572	-0.564615	8.5992	-0.0064976	0.0124652	-0.039982	0.333496	0.430176	-0.814209	0.823578	0.450112	0.24779	0.240248	-2.18221	9.46178	5.20924	0.0101617	-0.00252722	-0.0202329	0.593506	-0.796387	-0.0302734	0.498713	-0.48544	-0.489105	-0.525747	9.85261	0.276335	0.453365	0.00724718	-0.0125233	-0.0239239	-0.913574	0.368652	-0.041748	0.421275	-0.514784	-0.495976	-0.558151	9.81019	1.20031	-0.100547	0.027781	0.029093	-0.0199701	-1.01733	0.317383	0.0871582	0.446802	-0.532945	-0.524668	-0.490979	9.73099	0.388435	-1.02911	0.0166768	0.00958973	-0.0230954	-1.00708	0.389648	0.144531	0.589625	-0.457018	-0.551641	-0.373054	9.80908	-1.30021	-0.050985	0.00369671	0.0330118	-0.00578264	-0.913574	0.506348	-0.0944824	0.557635	-0.471281	-0.605675	-0.316378	9.63064	-1.40154	-1.60376	0.0420958	0.000533712	-0.011564	-0.985352	0.595947	0.0129395	
69	0.757348	0.122531	0.0951701	-0.634312	-3.45129	0.761112	10.4978	0.00391158	-0.0138831	-0.0158755	0.36377	0.325439	-0.882568	0.631465	-0.341907	-0.374076	-0.586872	8.79361	0.0668796	4.94707	-0.0482898	-0.013283	-0.0179264	-0.656982	0.308838	-0.404297	0.952405	0.000917568	0.245516	0.180684	-4.98093	0.920742	9.48693	0.00812415	0.022877	-0.0168761	0.624756	0.169189	-0.686035	0.0929153	0.139364	0.659087	-0.733177	-3.25347	-9.23098	0.870943	0.00465333	0.0179658	-0.00354184	-0.0529785	1.02637	-0.121338	0.609393	0.163854	0.16804	-0.757334	-4.39246	-0.558659	8.57093	0.00568878	0.0145132	-0.011132	0.340088	0.430176	-0.80957	0.823585	0.450247	0.24774	0.240021	-2.22514	9.39009	5.1408	0.00757791	0.00528282	-0.018991	0.591309	-0.794189	-0.0412598	0.49814	-0.486034	-0.489231	-0.525624	9.83406	0.266358	0.743315	-0.0268394	-0.0326482	-0.0113069	-0.905029	0.368652	-0.0354004	0.422068	-0.513887	-0.496148	-0.558226	9.71589	1.16814	-0.183554	0.0347785	0.0581427	-0.0209453	-1.02344	0.310791	0.0849609	0.446706	-0.532947	-0.524793	-0.490932	9.74123	0.366163	-1.11795	0.00239255	0.000460976	-0.0241998	-1.00952	0.389648	0.142334	0.589832	-0.456664	-0.551443	-0.373453	9.73684	-1.26269	-0.213473	-0.00965532	0.0257748	-0.00987457	-0.917725	0.499756	-0.0942383	0.557676	-0.470939	-0.606073	-0.316053	9.64801	-1.38435	-1.71664	0.0257468	-0.00279246	-0.0119091	-0.980713	0.591553	0.00830078	
70	0.757434	0.121974	0.0950136	-0.634341	-3.28388	0.702098	10.3999	-0.0192466	-0.0283028	0.00410072	0.359375	0.323242	-0.884766	0.631433	-0.34211	-0.374286	-0.586654	8.75517	-0.0281355	4.90585	0.00575426	-0.00331105	-0.0130406	-0.655273	0.31543	-0.404541	0.952451	0.000560913	0.245446	0.180535	-4.94265	0.849077	9.424	-0.0171797	0.00325512	-0.00446429	0.622559	0.173584	-0.688477	0.0926203	0.13926	0.659037	-0.733279	-3.19277	-9.21748	0.882206	0.00347733	0.00641654	-0.010954	-0.057373	1.02612	-0.119141	0.609397	0.163657	0.168171	-0.757344	-4.47095	-0.523095	8.58818	-0.0179951	0.00169237	-0.0158845	0.339844	0.432373	-0.80957	0.823638	0.450145	0.24783	0.23994	-2.13973	9.42494	5.18343	-0.00131014	0.0174911	-0.0271233	0.591309	-0.796387	-0.0368652	0.49868	-0.485602	-0.488998	-0.525728	9.92107	0.243287	0.650785	0.0371601	0.0793062	-0.0114997	-0.911621	0.372803	-0.0397949	0.422007	-0.513857	-0.495926	-0.558496	9.70385	1.16506	-0.211411	-0.0183781	0.0352456	-0.0192084	-1.01709	0.312988	0.0942383	0.446601	-0.532952	-0.524834	-0.490977	9.70661	0.382026	-1.17249	2.56843e-05	0.00266301	-0.0277511	-1.00977	0.394287	0.144531	0.589938	-0.456473	-0.551396	-0.373588	9.71476	-1.2678	-0.308266	0.00541055	0.0304358	-0.00653671	-0.915771	0.506348	-0.0922852	0.557828	-0.470649	-0.606306	-0.315769	9.63709	-1.4276	-1.78878	0.0413107	0.000603033	-0.0102065	-0.985107	0.59375	0.00830078	
71	0.757557	0.121819	0.0952605	-0.634187	-3.20924	0.692641	10.3844	-0.0112194	0.0078587	0.00669022	0.36377	0.323242	-0.884766	0.631594	-0.342256	-0.374299	-0.586388	8.80599	0.0666267	4.94877	-0.00414526	0.0191799	-0.00473105	-0.663574	0.311035	-0.399658	0.952341	-6.23122e-05	0.245671	0.180808	-5.07838	0.850908	9.40392	-0.0193729	0.0219696	0.00599254	0.624756	0.173584	-0.681641	0.0926686	0.138746	0.659274	-0.733158	-3.17383	-9.32116	0.881444	-0.00455822	-0.0105998	-0.0127539	-0.057373	1.02612	-0.119141	0.609129	0.163558	0.168395	-0.757531	-4.43826	-0.668105	8.68372	0.0117338	0.0194658	-0.0227057	0.335449	0.43457	-0.814209	0.823539	0.450424	0.247948	0.239633	-2.23381	9.48257	5.19312	0.00622769	0.00833213	-0.018698	0.591309	-0.796387	-0.034668	0.498914	-0.485763	-0.488275	-0.526028	10.0142	0.282012	0.434556	-0.00348559	0.0587316	-0.000584449	-0.911621	0.37085	-0.0375977	0.421721	-0.513944	-0.495513	-0.558999	9.75101	1.14363	-0.152825	-0.0232885	0.0323663	-0.0234708	-1.01929	0.310791	0.0874023	0.446579	-0.532711	-0.524941	-0.491146	9.76525	0.355149	-1.16392	0.0287306	0.0154257	-0.0311266	-1.00977	0.394287	0.14209	0.590259	-0.456006	-0.551376	-0.373681	9.7272	-1.25847	-0.16042	0.0162085	0.024636	-0.00120736	-0.911133	0.501953	-0.0966797	0.55813	-0.470137	-0.606565	-0.315503	9.64971	-1.38144	-1.73197	0.0241282	0.013553	-0.012262	-0.98291	0.59375	0.0151367	
72	0.7576	0.12188	0.095638	-0.634067	-3.31144	0.670817	10.4048	-0.0158696	0.0223056	0.00514169	0.366211	0.321045	-0.882568	0.631774	-0.342117	-0.374164	-0.586361	8.72071	0.0496874	4.87395	0.00196445	0.0316922	-0.00796422	-0.657227	0.31543	-0.409424	0.952259	-0.000201578	0.24584	0.181012	-5.03648	0.929468	9.41327	-0.0102902	0.0214158	0.0125762	0.628906	0.171387	-0.686279	0.0926247	0.138473	0.659267	-0.733221	-3.22589	-9.2492	0.875144	0.00242008	-0.00758816	-0.0161457	-0.0595703	1.02612	-0.119141	0.609002	0.163574	0.168743	-0.757552	-4.46665	-0.612489	8.62856	-0.029734	0.0156946	-0.0176361	0.335693	0.429932	-0.80957	0.823571	0.450317	0.248024	0.239645	-2.26676	9.45366	5.15123	-0.00341002	0.0199867	-0.0203976	0.59375	-0.798584	-0.034668	0.499477	-0.485252	-0.487967	-0.526252	9.81413	0.284198	0.715183	0.0352936	0.0768786	-0.0095011	-0.904785	0.366455	-0.0395508	0.421508	-0.514015	-0.495438	-0.55916	9.75762	1.07484	-0.23049	0.0222353	0.0151257	-0.0220942	-1.02124	0.308594	0.0849609	0.446692	-0.532495	-0.525054	-0.491154	9.72243	0.404389	-1.10525	0.0214844	0.0164088	-0.030709	-1.00513	0.394287	0.144531	0.590013	-0.456199	-0.551337	-0.373893	9.75948	-1.31224	-0.131032	-0.0283857	0.0056767	-0.00460107	-0.917725	0.501709	-0.0944824	0.558432	-0.469671	-0.606778	-0.31525	9.62959	-1.46582	-1.66525	0.0485775	0.00919585	-0.0115938	-0.978271	0.591553	0.0107422	
73	0.757593	0.121988	0.0961353	-0.633979	-3.42298	0.683377	10.4817	-0.00614113	0.0084368	-0.00317197	0.361572	0.327393	-0.886963	0.63205	-0.342092	-0.374027	-0.586165	8.73304	0.00576992	4.87853	0.000570092	0.0137409	-0.00569571	-0.655029	0.313232	-0.395264	0.952181	-0.000353639	0.246066	0.181117	-4.95414	0.939376	9.38281	-0.00896627	0.0259798	0.00501256	0.628906	0.173584	-0.679443	0.0926181	0.138257	0.659758	-0.732821	-3.1468	-9.21572	0.906961	-0.0269036	0.00968105	-0.00155524	-0.0598145	1.02832	-0.112549	0.609176	0.163563	0.169107	-0.757334	-4.44123	-0.580164	8.58634	-0.00894657	0.0184915	0.000951718	0.337891	0.432129	-0.804932	0.82328	0.450577	0.248576	0.239585	-2.19714	9.42577	5.20077	0.0209673	0.0365679	-0.0254637	0.59375	-0.798584	-0.0366211	0.499917	-0.485037	-0.487598	-0.526375	9.87375	0.226024	0.468395	0.0163467	0.0573943	-0.0084902	-0.913818	0.372803	-0.0483398	0.421889	-0.513489	-0.495696	-0.559128	9.81435	1.16052	-0.18531	0.0234656	0.0394439	-0.0219127	-1.01709	0.312988	0.0895996	0.447377	-0.531612	-0.525909	-0.490573	9.72783	0.31498	-1.07307	0.0880094	0.00433264	-0.0363312	-1.00269	0.394287	0.144531	0.59043	-0.455489	-0.551495	-0.373866	9.81327	-1.31457	-0.0328861	0.0415204	0.0374563	-0.00951881	-0.915771	0.506348	-0.0966797	0.559122	-0.468432	-0.607835	-0.313832	9.62028	-1.41476	-1.51864	0.0801127	-0.0171501	-0.0168001	-0.980469	0.589355	0.00610352	
74	0.757789	0.121725	0.0960862	-0.633803	-3.31576	0.649661	10.4442	-0.00641172	-0.0176025	0.0138758	0.359375	0.327393	-0.88916	0.632304	-0.3419	-0.374197	-0.585894	8.78801	0.082165	4.85318	0.0125691	0.0115995	-0.00923422	-0.659424	0.311035	-0.4021	0.952099	-0.00038609	0.246369	0.181136	-5	0.906084	9.42909	-0.0007191	0.000100333	0.00321439	0.631104	0.173584	-0.683838	0.0925162	0.138293	0.659805	-0.732784	-3.15976	-9.15122	0.771672	0.00245492	0.00469875	-0.00614997	-0.0551758	1.02417	-0.119141	0.609483	0.163053	0.169506	-0.757108	-4.464	-0.646651	8.68315	-0.0230233	-0.00185729	-0.00144171	0.340088	0.430176	-0.811768	0.823181	0.450316	0.249147	0.239822	-2.25687	9.37697	5.05004	-0.00781973	0.0341937	-0.0146106	0.598145	-0.800537	-0.0302734	0.500606	-0.484371	-0.487424	-0.526495	9.91896	0.286462	0.561743	0.0384665	0.0289761	-0.0117249	-0.913574	0.37085	-0.0461426	0.422694	-0.512513	-0.496266	-0.558909	9.79116	1.19909	-0.0340642	0.0634545	0.0360933	-0.0253475	-1.02344	0.308594	0.0849609	0.448114	-0.53069	-0.527101	-0.489619	9.72961	0.479012	-1.06066	0.0860703	-0.00652624	-0.0337709	-1.00464	0.387451	0.144531	0.591813	-0.45381	-0.551394	-0.373869	9.75267	-1.25611	-0.0539568	0.0669399	0.0716321	-0.0107788	-0.915527	0.501953	-0.101318	0.559773	-0.466683	-0.609743	-0.311568	9.64244	-1.24342	-1.74309	0.143587	-0.0456704	-0.0237111	-0.98291	0.59375	0.00146484	
75	0.758068	0.121846	0.0960893	-0.633446	-3.20992	0.791043	10.3643	0.00137051	0.0104731	0.0162584	0.368408	0.321045	-0.891113	0.632717	-0.341659	-0.374087	-0.585659	8.77256	-0.0123355	4.89303	0.0134726	0.0258584	-0.00319752	-0.657227	0.313232	-0.399902	0.952061	-0.000710867	0.246209	0.181553	-5.07546	0.800155	9.40486	-0.0152396	-0.0101193	0.0141808	0.620361	0.173584	-0.681641	0.0928909	0.137819	0.659784	-0.732845	-3.17945	-9.307	0.895832	0.0045575	-0.0217406	0.00437882	-0.0551758	1.02637	-0.119141	0.609644	0.163172	0.169454	-0.756964	-4.44105	-0.615589	8.62663	0.00389193	0.0119757	0.0079215	0.342041	0.432373	-0.80957	0.823118	0.450287	0.249228	0.240008	-2.19702	9.51498	5.19121	0.00618345	0.0181905	-0.0158836	0.591309	-0.791992	-0.0327148	0.501528	-0.483485	-0.486676	-0.527123	9.89451	0.219483	0.892449	0.0272153	0.0797168	-0.0131701	-0.911621	0.37085	-0.050293	0.423671	-0.511403	-0.496747	-0.55876	9.70662	1.26165	-0.14072	0.0386986	0.0522301	-0.0214709	-1.02393	0.317383	0.0803223	0.448176	-0.530374	-0.527769	-0.489185	9.73333	0.41887	-1.20399	0.0375272	-0.00987826	-0.0335486	-1.00269	0.39209	0.140137	0.592186	-0.45292	-0.551641	-0.373994	9.74782	-1.08275	-0.339271	0.00334773	0.0189525	-0.0205191	-0.917725	0.501709	-0.101318	0.559576	-0.466356	-0.610376	-0.311173	9.65871	-1.28234	-1.88986	-0.0125712	-0.00242838	-0.0174789	-0.980469	0.589355	0.00146484	
76	0.758499	0.122031	0.0968549	-0.632777	-3.28754	0.591388	10.3912	-0.0115887	0.0287607	0.0253896	0.366211	0.323242	-0.886963	0.633339	-0.341012	-0.374204	-0.58529	8.81337	0.132391	5.01337	0.02051	0.0408263	-0.0044598	-0.656982	0.308838	-0.404297	0.951795	-0.000888927	0.246701	0.182276	-5.09925	0.952366	9.50829	-0.0157983	0.0424179	0.0277434	0.62915	0.166992	-0.681396	0.0931746	0.137006	0.660292	-0.732504	-3.23983	-9.33835	0.920688	-0.0363615	-0.0169678	-0.0230915	-0.0551758	1.02832	-0.116943	0.609803	0.16296	0.170225	-0.756709	-4.44248	-0.659196	8.69131	-0.0236493	0.0292685	-0.00368717	0.342285	0.430176	-0.80957	0.822877	0.450447	0.249451	0.240302	-2.32716	9.46741	5.21689	0.015009	0.0311518	0.000814163	0.59375	-0.798584	-0.0366211	0.502897	-0.482185	-0.48477	-0.528764	9.963	0.360449	0.647579	-0.0244413	0.159861	-0.00305323	-0.911621	0.373047	-0.0546875	0.423656	-0.511203	-0.497004	-0.558725	9.7733	1.31503	-0.244719	0.0195875	0.00949743	-0.0252287	-1.01929	0.310791	0.0874023	0.448339	-0.530062	-0.528012	-0.48911	9.7522	0.325076	-1.22629	0.0149948	0.0171623	-0.026699	-1.00708	0.389648	0.140137	0.591919	-0.453115	-0.551593	-0.37425	9.787	-1.38074	-0.200131	0.00160107	0.0152756	-0.000448568	-0.915283	0.497559	-0.098877	0.559559	-0.466189	-0.610457	-0.311293	9.62945	-1.40959	-1.75022	0.0237788	0.0109339	-0.0129442	-0.987305	0.589355	0.00830078	
77	0.75858	0.122934	0.0977192	-0.632372	-3.39078	0.579604	10.4039	0.00852529	0.048605	0.0080111	0.372803	0.323242	-0.884766	0.633675	-0.340728	-0.373597	-0.585479	8.76714	0.13572	4.98228	-0.0159572	0.0728168	-0.00357292	-0.657227	0.311035	-0.40918	0.95138	-0.00116287	0.247782	0.182971	-5.06636	0.923819	9.27824	0.00790781	0.0523804	0.0226157	0.62915	0.169189	-0.679199	0.0932413	0.136632	0.660818	-0.732091	-3.21368	-9.29941	0.828548	-0.0342946	0.00659801	0.00278763	-0.0639648	1.02173	-0.114746	0.610189	0.163377	0.170413	-0.756265	-4.48386	-0.561784	8.74464	0.0050915	0.0242235	0.0146554	0.339844	0.434326	-0.807373	0.82237	0.450806	0.250135	0.240652	-2.26721	9.61838	5.18811	0.0413279	0.0453162	-0.0115785	0.595947	-0.802734	-0.0258789	0.50372	-0.481678	-0.482699	-0.530334	9.89007	0.275679	0.605685	-0.0285841	0.0898605	-0.00526692	-0.905273	0.373047	-0.0568848	0.423392	-0.511354	-0.496759	-0.559005	9.77717	1.23321	-0.0423734	-0.0237299	0.0190773	-0.0213802	-1.01929	0.310791	0.0874023	0.448678	-0.529685	-0.528122	-0.489089	9.69187	0.455478	-1.05165	0.0169738	0.0168909	-0.0237217	-1.00708	0.389648	0.142334	0.592175	-0.45273	-0.551821	-0.373977	9.77053	-1.18786	-0.0886878	0.0232603	0.0137877	0.000884756	-0.910889	0.499756	-0.0966797	0.559681	-0.465977	-0.610465	-0.311376	9.63294	-1.36166	-1.6706	0.0115742	0.0132049	-0.00858734	-0.987549	0.59375	0.00610352	
78	0.758451	0.123831	0.0984173	-0.632244	-3.52619	0.692793	10.4342	0.0068508	0.0357153	-0.000892941	0.372559	0.325439	-0.884766	0.634329	-0.339404	-0.372099	-0.586493	8.67062	-0.0258629	4.87441	0.00756237	0.0560492	-0.0250669	-0.652832	0.308838	-0.40918	0.951182	0.000132752	0.248713	0.182742	-5.1109	0.978982	9.206	0.0656147	0.0267225	0.000675057	0.631104	0.169189	-0.683838	0.0931437	0.137256	0.661563	-0.731313	-3.10476	-9.11009	0.758916	-0.0288547	0.0468115	0.0149491	-0.0617676	1.02612	-0.105957	0.610311	0.16357	0.171016	-0.755989	-4.35385	-0.50548	8.71678	-0.0330305	0.050642	0.00477052	0.342041	0.432129	-0.807373	0.822043	0.451206	0.25043	0.240713	-2.20849	9.4233	5.19462	0.0460401	0.0332736	-0.00797399	0.593506	-0.796387	-0.0283203	0.504598	-0.480513	-0.481078	-0.532027	9.84428	0.206436	0.632459	0.00263112	0.143297	-0.0238645	-0.905273	0.373047	-0.0673828	0.423462	-0.511232	-0.496786	-0.55904	9.77992	1.21497	-0.0692258	0.011778	0.0272646	-0.0196457	-1.01904	0.308594	0.0827637	0.448693	-0.529645	-0.52812	-0.489122	9.73274	0.429502	-1.06309	0.00634721	0.0108965	-0.0231475	-1.00488	0.39209	0.135498	0.592313	-0.452446	-0.551866	-0.374034	9.76571	-1.20751	-0.0431326	0.00725554	0.019998	-0.00280116	-0.91333	0.501953	-0.098877	0.559763	-0.465804	-0.610578	-0.311266	9.62321	-1.35727	-1.6547	0.0226459	0.00618911	-0.00992754	-0.980469	0.589355	0.00146484	
79	0.758386	0.124025	0.098426	-0.632282	-3.50131	0.58275	10.4485	0.0123775	-0.0101489	-0.00318906	0.366211	0.321045	-0.884766	0.634361	-0.338908	-0.372039	-0.586784	8.70798	0.117398	4.9169	-0.0026441	0.0251785	-0.0335353	-0.648193	0.306641	-0.411377	0.951328	0.000306722	0.248482	0.182296	-5.04307	1.01433	9.36937	-0.0122955	-0.0101148	-0.019858	0.633301	0.171143	-0.679199	0.092543	0.138012	0.661547	-0.731262	-3.18492	-9.26443	0.626847	0.00999022	0.037299	0.00186502	-0.0617676	1.02612	-0.114746	0.610082	0.164624	0.17148	-0.755839	-4.50376	-0.618081	8.54704	0.0347909	0.0412157	-0.0130754	0.346436	0.432373	-0.80957	0.821479	0.45205	0.25018	0.241315	-2.14935	9.44197	4.90599	0.0153149	-0.00153853	0.0102516	0.598145	-0.800537	-0.0302734	0.505618	-0.479138	-0.480053	-0.533223	9.92332	0.326286	0.736789	0.0076386	0.104961	-0.0258301	-0.907227	0.37085	-0.0673828	0.423601	-0.511006	-0.49692	-0.559021	9.78103	1.22998	-0.198666	0.0202473	0.0206276	-0.0201633	-1.01904	0.306396	0.0803223	0.448931	-0.529322	-0.528371	-0.488982	9.72104	0.417974	-1.09517	0.0137375	0.0117664	-0.0253958	-1.00952	0.39209	0.135498	0.592293	-0.452313	-0.551901	-0.374175	9.77388	-1.23814	-0.157237	0.00626964	0.0144936	-0.00390408	-0.913086	0.497559	-0.098877	0.559778	-0.465656	-0.610733	-0.311157	9.63758	-1.42137	-1.71398	0.0119227	0.00233359	-0.00735892	-0.985107	0.591553	0.00146484	
80	0.758316	0.12413	0.0981432	-0.63239	-3.405	0.63839	10.3989	0.0228184	-0.0165678	-0.00721112	0.368164	0.323242	-0.882568	0.634306	-0.338776	-0.371905	-0.587004	8.72726	0.104234	4.97146	-0.0142765	0.0304505	-0.0324303	-0.652832	0.313232	-0.411621	0.95138	0.000211619	0.248377	0.182167	-5.02875	0.795196	9.32764	-0.00431862	-0.00291994	-0.0138892	0.628906	0.171387	-0.683838	0.0925997	0.138218	0.661554	-0.73121	-3.1463	-9.3136	0.694755	-0.00218429	0.0163428	0.0159951	-0.064209	1.03052	-0.116943	0.60979	0.165033	0.171527	-0.755975	-4.54022	-0.53363	8.51266	0.00230159	0.0165456	-0.0224791	0.342041	0.43457	-0.811768	0.821538	0.452185	0.249859	0.241194	-2.10473	9.49574	4.96589	0.00668052	-0.0158098	-0.00990507	0.589355	-0.800537	-0.0280762	0.506246	-0.478317	-0.479302	-0.534039	9.86109	0.295302	0.904918	0.00764831	0.132615	-0.0252524	-0.90918	0.366455	-0.0673828	0.423569	-0.511023	-0.496886	-0.559061	9.78842	1.30786	-0.0600749	-0.0119061	0.0136931	-0.0133968	-1.02124	0.308594	0.0827637	0.448946	-0.529305	-0.528402	-0.488953	9.72251	0.432935	-1.103	0.00822661	0.00570652	-0.0214004	-1.00952	0.39209	0.135498	0.592408	-0.452116	-0.551994	-0.374096	9.77084	-1.21761	-0.144514	0.0205547	0.0167551	-0.00197206	-0.915527	0.499756	-0.103516	0.559913	-0.465406	-0.610927	-0.310907	9.62815	-1.37385	-1.72356	0.0362624	0.00162664	-0.00903758	-0.987549	0.59375	-0.000732422	
81	0.757898	0.124494	0.0978615	-0.632862	-3.41642	0.785928	10.376	0.0169221	0.00186864	-0.0267327	0.37085	0.316895	-0.888916	0.634117	-0.338757	-0.371518	-0.587464	8.70068	0.0312074	5.02755	-0.0287613	0.0251731	-0.0290673	-0.652832	0.308838	-0.40918	0.95141	0.000834418	0.248345	0.182052	-5.1283	0.873747	9.35113	0.0511089	-0.00695451	0.00161184	0.62915	0.169189	-0.686035	0.092616	0.138305	0.66147	-0.731267	-3.27384	-9.184	0.789596	0.0118343	0.0071127	-0.00624141	-0.0576172	1.02832	-0.112549	0.60928	0.165087	0.171357	-0.756413	-4.58428	-0.632719	8.60017	0.0123638	0.00201622	-0.0299486	0.344482	0.425781	-0.80957	0.821752	0.452257	0.24921	0.241002	-2.18466	9.41388	5.10566	-0.00514674	-0.00952965	-0.00610228	0.591797	-0.802734	-0.0280762	0.507243	-0.477177	-0.477888	-0.535377	9.89871	0.290555	0.869138	0.00800883	0.115432	-0.0136402	-0.907227	0.37085	-0.0759277	0.42351	-0.511079	-0.496605	-0.559305	9.76076	1.18043	-0.0496524	-0.0129105	0.030702	-0.0118881	-1.02368	0.312988	0.0778809	0.448875	-0.529359	-0.528399	-0.488963	9.75723	0.443129	-1.15344	0.0012629	0.0041506	-0.0210249	-1.01172	0.389648	0.135498	0.592338	-0.452161	-0.551888	-0.374307	9.80333	-1.20636	-0.149261	-0.0149146	0.0160195	7.09257e-05	-0.913086	0.499756	-0.098877	0.55997	-0.46532	-0.610924	-0.310939	9.61035	-1.37527	-1.71805	0.00549716	0.00519589	-0.00303727	-0.980713	0.59375	0.00146484	
82	0.757634	0.124635	0.0978426	-0.633154	-3.49639	0.689907	10.4402	0.0119756	-0.00531902	-0.0128341	0.368164	0.323242	-0.882568	0.633916	-0.338589	-0.371229	-0.58796	8.67121	0.100343	4.95788	-0.0125198	0.03272	-0.0329969	-0.655029	0.311035	-0.40918	0.951444	0.00037855	0.248367	0.181843	-5.10215	0.957214	9.31885	-0.0328009	0.00357213	-0.026176	0.626953	0.171387	-0.683838	0.0923198	0.138348	0.661316	-0.731436	-3.1704	-9.38681	0.817336	0.00558576	0.0215601	0.00147602	-0.057373	1.02612	-0.110352	0.609031	0.165367	0.171026	-0.756627	-4.50668	-0.5769	8.58875	0.0139745	0.0117501	-0.0143327	0.339844	0.434326	-0.807373	0.821847	0.452343	0.24872	0.241023	-2.20888	9.60334	5.1534	-0.00240742	-0.00220651	-0.0128877	0.591309	-0.791992	-0.0327148	0.507994	-0.476282	-0.476715	-0.536507	9.88331	0.243018	0.907459	-0.00127349	0.0954201	-0.0175724	-0.909424	0.373047	-0.0759277	0.423255	-0.511319	-0.496318	-0.559532	9.7622	1.1916	-0.162555	-0.0368036	0.015873	-0.0135293	-1.02563	0.310791	0.0827637	0.448779	-0.529475	-0.528261	-0.489075	9.71756	0.412946	-1.13701	-0.0065835	0.00948567	-0.0193702	-1.00488	0.389648	0.144531	0.592372	-0.452228	-0.55161	-0.374582	9.73082	-1.22043	-0.124594	-0.0176228	0.0220142	0.00358983	-0.913086	0.499756	-0.101074	0.560041	-0.465291	-0.610886	-0.310929	9.63908	-1.36547	-1.74477	0.00641528	0.0114371	-0.00484726	-0.985107	0.589355	0.00146484	
83	0.757465	0.124718	0.0974915	-0.633394	-3.51437	0.808683	10.3919	0.0105162	-0.0153182	-0.0109293	0.368408	0.321045	-0.891113	0.633779	-0.338639	-0.370889	-0.588293	8.6711	0.0165673	4.96388	-0.0155926	0.0195113	-0.0234737	-0.652832	0.313232	-0.404541	0.951585	0.00158022	0.248231	0.181286	-5.04281	0.97286	9.43083	0.075936	-0.0139502	-0.00880642	0.631348	0.162598	-0.683594	0.0921834	0.139187	0.661242	-0.73136	-3.28162	-9.13493	0.764771	0.00616962	0.0334408	0.014517	-0.0554199	1.03052	-0.116943	0.608951	0.165268	0.171051	-0.756707	-4.53011	-0.579925	8.61729	-0.00271358	0.000977432	-0.0203051	0.344238	0.43457	-0.807373	0.821834	0.452507	0.248825	0.240648	-2.15414	9.38699	5.04963	0.0164882	0.00855217	-0.0249082	0.589355	-0.800537	-0.0280762	0.509361	-0.474783	-0.475093	-0.537977	9.90242	0.231412	1.07765	-0.00712905	0.140384	-0.015543	-0.906982	0.366455	-0.0864258	0.422992	-0.511343	-0.495992	-0.559998	9.77688	1.27538	-0.102316	-0.0164586	0.0202663	-0.0162957	-1.02368	0.315186	0.0825195	0.44862	-0.529622	-0.527985	-0.489359	9.73934	0.407066	-1.17353	-0.0113656	0.0150357	-0.0184945	-1.00708	0.387451	0.140137	0.592171	-0.452451	-0.551392	-0.37495	9.74469	-1.24963	-0.100367	-0.0133768	0.0217338	0.00187408	-0.913086	0.497559	-0.101074	0.560011	-0.465402	-0.610684	-0.311212	9.62076	-1.40843	-1.67061	-0.00843977	0.0127828	-0.0037349	-0.985107	0.591553	0.00610352	
84	0.757377	0.124228	0.0971998	-0.63364	-3.45552	0.757184	10.4475	-0.00699179	-0.0310177	-0.0121203	0.372559	0.325439	-0.891113	0.633527	-0.339003	-0.371026	-0.588268	8.7434	0.0741681	4.93375	-0.0153217	0.000899224	-0.0168847	-0.655029	0.313232	-0.411621	0.951661	0.00106352	0.248173	0.180971	-5.09154	0.979036	9.37955	-0.0514834	0.00409195	-0.0178992	0.626953	0.173584	-0.681641	0.0917815	0.13917	0.661105	-0.731538	-3.17489	-9.30409	0.70828	0.0149829	0.0104911	-0.0130388	-0.0529785	1.02832	-0.114746	0.608645	0.165651	0.170793	-0.756928	-4.57277	-0.525834	8.48912	0.0249757	0.00608067	-0.0210906	0.346436	0.432373	-0.807373	0.82192	0.452467	0.248548	0.240717	-2.10332	9.46218	5.03029	-0.0055684	0.00430894	-0.0122435	0.595947	-0.79834	-0.0280762	0.510266	-0.473824	-0.474455	-0.538528	9.84498	0.204917	0.804361	0.0378958	0.134021	-0.0115286	-0.90918	0.366455	-0.0864258	0.42282	-0.511506	-0.49565	-0.560282	9.76776	1.11013	-0.118117	-0.0177783	0.0242448	-0.0125429	-1.02344	0.308594	0.0874023	0.448628	-0.529628	-0.52791	-0.489427	9.76246	0.411065	-1.13105	0.00305792	0.00824165	-0.0204948	-1.00708	0.385254	0.133301	0.59224	-0.452398	-0.551292	-0.375054	9.73947	-1.24278	-0.0893045	0.00438949	0.0181424	-0.00112981	-0.917725	0.499512	-0.103516	0.559937	-0.465536	-0.610509	-0.31149	9.63683	-1.38135	-1.68798	-0.0148178	0.0121461	-0.00592594	-0.98291	0.59375	-0.00317383	
85	0.757429	0.12355	0.0969217	-0.633752	-3.41605	0.784472	10.4252	-0.0175189	-0.0290342	-0.000374174	0.368164	0.325439	-0.88916	0.633343	-0.339608	-0.371187	-0.588017	8.68636	0.0255448	4.92	-0.00142963	-0.0283514	-0.00550373	-0.652832	0.308838	-0.411377	0.951772	0.00048926	0.247734	0.180991	-5.0517	0.889408	9.39226	-0.0049885	-0.00814162	-0.00463603	0.62915	0.169189	-0.688477	0.0918051	0.13882	0.660744	-0.731928	-3.21138	-9.24119	0.766569	0.0154498	-0.0137354	-0.00489672	-0.0551758	1.02393	-0.110352	0.608602	0.165357	0.170767	-0.757033	-4.57949	-0.59143	8.51836	-0.0112157	-0.0125112	-0.0227689	0.342041	0.43457	-0.811768	0.822205	0.452164	0.248567	0.240296	-2.19584	9.48134	4.98847	-0.00503258	0.00514874	-0.0394407	0.59375	-0.79834	-0.0324707	0.512387	-0.471633	-0.473357	-0.539403	9.90877	0.200439	0.89368	0.0704824	0.166821	-0.00191076	-0.90332	0.377441	-0.0888672	0.423134	-0.51113	-0.495974	-0.560101	9.76752	1.22153	-0.121643	0.0433318	0.0239843	-0.0191616	-1.01709	0.310791	0.0803223	0.448744	-0.529585	-0.527922	-0.489354	9.71371	0.412813	-1.09234	0.0156946	0.00538376	-0.0193122	-1.01416	0.391846	0.135498	0.592204	-0.452371	-0.551269	-0.375178	9.77388	-1.21979	-0.0873186	-0.0102799	0.0149787	0.000222832	-0.910889	0.497559	-0.105713	0.559845	-0.46562	-0.610454	-0.311637	9.62582	-1.36831	-1.71092	-0.00111229	0.0067506	-0.00519617	-0.98291	0.59375	0.00146484	
