40	Head	00b4120a												Throax	00b411e8												LUpArm	00b411d9												LFoArm	00b41148												RUpArm	00b411db												RFoArm	00b41204												Waist	00b411f7												Lthigh	00b411f4												Lshank	00b4111b												Rthigh	00b411c8												Rshank	00b411ee												
PacketCount	q0	q1	q2	q3	accX	accY	accZ	gyrX	gyrY	gyrZ	magX	magY	magZ	q0	q1	q2	q3	accX	accY	accZ	gyrX	gyrY	gyrZ	magX	magY	magZ	q0	q1	q2	q3	accX	accY	accZ	gyrX	gyrY	gyrZ	magX	magY	magZ	q0	q1	q2	q3	accX	accY	accZ	gyrX	gyrY	gyrZ	magX	magY	magZ	q0	q1	q2	q3	accX	accY	accZ	gyrX	gyrY	gyrZ	magX	magY	magZ	q0	q1	q2	q3	accX	accY	accZ	gyrX	gyrY	gyrZ	magX	magY	magZ	q0	q1	q2	q3	accX	accY	accZ	gyrX	gyrY	gyrZ	magX	magY	magZ	q0	q1	q2	q3	accX	accY	accZ	gyrX	gyrY	gyrZ	magX	magY	magZ	q0	q1	q2	q3	accX	accY	accZ	gyrX	gyrY	gyrZ	magX	magY	magZ	q0	q1	q2	q3	accX	accY	accZ	gyrX	gyrY	gyrZ	magX	magY	magZ	q0	q1	q2	q3	accX	accY	accZ	gyrX	gyrY	gyrZ	magX	magY	magZ	
0	-0.545603	0.348871	0.368915	0.666714	8.96239	1.22786	5.03662	-0.0156105	0.0112478	0.0152347	-0.859863	0.300293	-0.429688	-0.670273	0.343179	0.356368	0.55314	8.66296	-0.705602	5.07303	0.00398414	-0.0146179	-0.014278	-0.648682	0.369629	-0.458496	-0.77528	-0.0712187	0.149019	0.609641	1.52855	3.22815	10.156	-0.0261683	-0.0129219	-0.028969	-0.118408	-0.0166016	-1.06494	-0.801978	0.138347	-0.0246018	0.580591	1.16166	-2.44899	9.3126	-0.00826949	0.00742446	-0.0291226	0.0720215	0.705566	-0.818115	-0.743464	0.27585	-0.108269	0.599538	1.67111	-5.42461	7.96033	0.00972753	0.00209236	-0.00888283	-0.034668	0.851807	-0.565918	-0.760516	-0.0823399	0.0726635	0.639965	0.616041	0.636192	13.3533	-0.0349283	0.0203459	-0.00394941	0.0778809	0.394531	-1.03467	-0.520976	0.47973	0.546654	0.446781	9.84776	-0.0997339	-0.527026	0.0526784	0.0608678	-0.0123846	-0.953613	0.398682	0.00854492	-0.840683	0.0938004	-0.0183097	0.533028	0.720912	-1.90724	10.905	-0.0389001	0.0187392	0.00960978	0.136963	0.591309	-0.888916	-0.045962	0.513474	0.845086	0.141638	2.10589	1.71782	-8.81118	0.0786572	-0.00119473	-0.031798	-0.476318	0.235352	0.961426	-0.776205	-0.0355665	0.110019	0.619788	1.29947	2.01995	10.2026	0.0111535	0.0314737	0.0130221	-0.0366211	0.210205	-1.08472	-0.137371	0.626042	0.76755	-0.00818803	1.98188	-1.75444	-9.36234	-0.000727637	0.0190911	-0.020987	-0.311523	0.69751	0.911621	
1	-0.545573	0.349336	0.368316	0.666827	8.9842	1.18882	5.04851	-0.0313978	-0.00440922	0.00905522	-0.857422	0.298096	-0.431641	-0.670249	0.343377	0.356357	0.553053	8.59676	-0.690206	5.05451	-0.0135432	0.00837185	-0.0125345	-0.648682	0.374023	-0.460938	-0.774858	-0.0705581	0.149041	0.610248	1.55298	3.08709	10.2002	0.00624551	-0.0130793	-0.0272272	-0.118408	-0.0144043	-1.05591	-0.801405	0.138656	-0.0245779	0.581309	1.19735	-2.50018	9.36193	-0.0209199	0.00411307	-0.0354071	0.0715332	0.712402	-0.824951	-0.743286	0.276236	-0.108427	0.599553	1.58905	-5.23544	8.01193	-0.0525638	0.0129896	-0.0194874	-0.0368652	0.851807	-0.561279	-0.760174	-0.0820952	0.0725654	0.640414	0.575231	0.564844	13.4222	-0.00817142	0.00186717	-0.0303232	0.0756836	0.394287	-1.03882	-0.520976	0.479774	0.546821	0.446529	9.77458	-0.10067	-0.655482	0.0170966	0.0158366	-0.0117706	-0.951416	0.398682	0.0107422	-0.840907	0.0949674	-0.0190054	0.532442	0.691864	-2.05031	10.909	-0.0499318	0.016276	0.0115283	0.134766	0.593506	-0.888916	-0.0469893	0.513214	0.845509	0.13971	2.20857	1.79556	-8.7935	0.0927217	0.00201981	-0.0283815	-0.479004	0.242188	0.956787	-0.776324	-0.036064	0.10983	0.619643	1.29736	2.11495	10.2651	0.00921282	0.0348619	0.00778745	-0.0366211	0.212402	-1.08032	-0.137465	0.62577	0.767761	-0.00766392	2.03719	-1.75886	-9.39534	-0.0102952	0.0217668	-0.0200037	-0.315918	0.697266	0.914062	
2	-0.545399	0.34989	0.367637	0.667054	8.99545	1.14209	5.04446	-0.0341677	-0.00394841	0.00617579	-0.862061	0.30249	-0.42749	-0.670218	0.343461	0.356406	0.553007	8.60923	-0.639293	5.09009	-0.0133685	0.00635017	-0.0203711	-0.646729	0.378418	-0.454102	-0.774564	-0.0699932	0.149285	0.610627	1.53752	3.05598	10.2706	-0.00657877	-0.0170317	-0.00964999	-0.122803	-0.0144043	-1.06494	-0.800953	0.138882	-0.024444	0.581884	1.16426	-2.5246	9.45437	-0.00988426	-0.000157937	-0.0285147	0.0651855	0.707764	-0.824951	-0.742911	0.276755	-0.109068	0.599661	1.71371	-5.26792	8.03571	-0.0401868	0.0225279	-0.0229439	-0.043457	0.854004	-0.565918	-0.759625	-0.0816417	0.0723493	0.641147	0.695943	0.505779	13.5209	-0.0189672	0.00829477	-0.0543035	0.0778809	0.396484	-1.03687	-0.520505	0.480192	0.547283	0.446063	9.80822	-0.0650426	-0.528265	0.013059	-0.0483545	-0.015271	-0.962158	0.396484	0.0148926	-0.841334	0.0954226	-0.0196	0.531665	0.691842	-2.01502	10.8325	-0.0163431	0.0256614	0.0267485	0.141602	0.58252	-0.893555	-0.047753	0.512592	0.846011	0.138688	2.14852	1.85378	-8.71888	0.0469559	0.0149689	-0.0518236	-0.479004	0.246826	0.958984	-0.776407	-0.0364593	0.109546	0.619567	1.23641	2.05834	10.1671	0.00834453	0.0315145	0.00634866	-0.0366211	0.208008	-1.07568	-0.137581	0.625599	0.767885	-0.00710412	2.04079	-1.74174	-9.33289	-0.0106721	0.0195816	-0.0156612	-0.315918	0.695068	0.91626	
3	-0.545213	0.350702	0.367024	0.667116	8.9956	1.13752	5.05517	-0.0370274	-0.0118572	0.0134334	-0.864258	0.30249	-0.423096	-0.670103	0.343545	0.355923	0.553406	8.65644	-0.702837	5.13392	-0.0263452	0.0379614	-0.0243112	-0.646484	0.371826	-0.458496	-0.774144	-0.0701035	0.149562	0.61108	1.55045	3.10922	10.261	0.00761235	-0.00559354	-0.0293045	-0.116455	-0.0100098	-1.05835	-0.800708	0.139202	-0.0243899	0.582147	1.20522	-2.58321	9.45021	0.00996165	0.000962782	-0.00834517	0.0742188	0.705811	-0.824951	-0.742582	0.277	-0.109435	0.59989	1.72366	-5.34284	8.04045	-0.0379007	0.025625	-0.033782	-0.0371094	0.856201	-0.568115	-0.759144	-0.0814693	0.0722025	0.641755	0.559526	0.44264	13.562	-0.00228195	0.01206	-0.0437061	0.0756836	0.396484	-1.03247	-0.519538	0.480855	0.548502	0.444977	9.86718	-0.155837	-0.661814	0.0500109	-0.0701957	-0.0213591	-0.955566	0.394287	0.0192871	-0.841677	0.0950089	-0.0196314	0.531194	0.668951	-1.9959	10.9119	0.0405399	0.0269437	-0.00386262	0.141602	0.584717	-0.891357	-0.0477271	0.512086	0.846285	0.138895	2.15724	1.94718	-8.74383	-0.0157581	0.00684208	-0.0361546	-0.474365	0.246826	0.961182	-0.776271	-0.036928	0.109449	0.619726	1.25966	2.01924	10.2242	0.0154101	0.0282434	-0.0116984	-0.0275879	0.208008	-1.08252	-0.137565	0.625585	0.767901	-0.0068473	2.08414	-1.67712	-9.322	-0.0133048	0.0169867	-0.00901018	-0.318115	0.697266	0.914062	
4	-0.544748	0.351459	0.366447	0.667415	9.09804	1.06942	5.07652	-0.0401039	-0.0105577	-0.00615256	-0.859863	0.30249	-0.423096	-0.670143	0.343444	0.355579	0.553641	8.7007	-0.632167	5.12154	-0.00839842	0.0216308	-0.0174264	-0.651123	0.376221	-0.460938	-0.773995	-0.0703501	0.149887	0.611159	1.5767	3.18842	10.3142	0.0220106	0.00723411	-0.00310049	-0.120605	-0.0144043	-1.0603	-0.800486	0.139118	-0.024365	0.582473	1.22162	-2.51057	9.50713	-0.00578831	0.0111408	-0.0167169	0.0693359	0.712158	-0.818359	-0.742109	0.276859	-0.10952	0.600524	1.50351	-5.3057	8.07897	0.00801235	0.0249378	-0.0393542	-0.043457	0.854004	-0.559082	-0.758687	-0.0812449	0.0718909	0.642359	0.608197	0.444079	13.5084	-0.0238889	0.020678	-0.0487363	0.0759277	0.392334	-1.03442	-0.517693	0.482461	0.549557	0.444086	9.86301	-0.0648674	-0.679167	-0.0277984	-0.115674	-0.0102202	-0.959961	0.396484	0.0212402	-0.841703	0.0947194	-0.0195002	0.53121	0.663948	-1.85444	10.9914	0.0288676	0.021797	-0.0151293	0.137207	0.584717	-0.891113	-0.047537	0.512088	0.846187	0.139551	2.22413	1.82759	-8.85176	-0.020649	0.0143314	-0.0136452	-0.476562	0.23999	0.956787	-0.776257	-0.0373646	0.109521	0.619705	1.22627	1.98302	10.2932	0.0148934	0.0204163	0.00546275	-0.036377	0.205811	-1.07324	-0.137547	0.625621	0.76788	-0.00635094	2.0409	-1.85274	-9.3957	-0.0140955	0.0176033	-0.00865321	-0.317871	0.688477	0.911865	
5	-0.544514	0.351619	0.366249	0.66763	9.0714	1.06533	5.07211	-0.0292679	-0.00406389	-0.0129352	-0.862061	0.300293	-0.42749	-0.670142	0.343402	0.355405	0.553779	8.63002	-0.666035	5.09714	-0.0189544	0.0304984	-0.0213225	-0.648926	0.376221	-0.456299	-0.773908	-0.0702006	0.149777	0.611314	1.56988	3.32501	10.33	-0.0150317	0.00266673	-0.0138635	-0.125	-0.012207	-1.05591	-0.800424	0.139172	-0.0244396	0.582541	1.18905	-2.53364	9.46023	-0.00596684	0.0102721	-0.00532695	0.0671387	0.712158	-0.818359	-0.741671	0.277105	-0.110084	0.600849	1.64457	-5.3636	8.08158	-0.0287703	0.0169552	-0.027032	-0.0390625	0.851807	-0.556641	-0.758413	-0.0811949	0.0718215	0.642697	0.566448	0.38234	13.5486	-0.00348454	0.0129849	-0.0514353	0.0737305	0.392334	-1.03027	-0.51586	0.484093	0.550712	0.443011	9.81831	-0.078889	-0.56039	-0.00428586	-0.091376	-0.0166433	-0.951416	0.396484	0.027832	-0.841588	0.0939598	-0.0194821	0.531528	0.587186	-1.90368	10.9317	0.0229144	0.0333664	-0.0302639	0.139404	0.586914	-0.891357	-0.047537	0.512088	0.846187	0.139551	2.22413	1.82759	-8.85176	-0.020649	0.0143314	-0.0136452	-0.476562	0.23999	0.956787	-0.776276	-0.0376879	0.109625	0.619643	1.26109	2.06195	10.2694	0.0256514	0.0240983	0.00604354	-0.0341797	0.208008	-1.08032	-0.13745	0.625413	0.768071	-0.00570334	2.08458	-1.75299	-9.41233	-0.0207182	0.0198994	-0.0212675	-0.318115	0.695068	0.918457	
6	-0.5443	0.351984	0.366115	0.667686	8.98573	1.08012	5.03802	-0.00966639	-0.0164034	0.00261544	-0.85791	0.304688	-0.425293	-0.67011	0.343364	0.355304	0.553907	8.59125	-0.685401	5.11794	-0.0124142	0.0236494	-0.0244324	-0.642334	0.376221	-0.456299	-0.773767	-0.0703209	0.149675	0.611504	1.54808	3.0224	10.2426	0.0403536	0.0188179	-0.00681092	-0.118408	-0.0144043	-1.05811	-0.800314	0.139165	-0.0245518	0.58269	1.18499	-2.49197	9.50189	-0.00932694	0.0143919	-0.00793559	0.0739746	0.710205	-0.824951	-0.741163	0.277342	-0.110596	0.601272	1.62326	-5.31718	7.98619	-0.0283742	0.0267176	-0.0298441	-0.0327148	0.854004	-0.556641	-0.758084	-0.0809929	0.0718176	0.64311	0.634613	0.366491	13.5265	-0.00188102	0.0102899	-0.0334304	0.0737305	0.394287	-1.03467	-0.515309	0.484501	0.551034	0.442806	9.86318	-0.0678281	-0.699798	-0.00353337	-0.0488467	-0.0218567	-0.953613	0.398438	0.0297852	-0.841309	0.0937463	-0.0194453	0.532008	0.659082	-1.97478	10.909	0.0117043	0.0240428	-0.0348932	0.143799	0.584717	-0.891357	-0.0476553	0.512535	0.845855	0.13988	2.17798	1.70192	-8.81377	0.000177838	0.00724784	0.0020354	-0.481201	0.242188	0.961182	-0.77624	-0.0382613	0.109594	0.619659	1.25589	2.16807	10.1964	0.015376	0.0298466	-0.00181754	-0.0366211	0.208008	-1.08032	-0.137495	0.62533	0.768136	-0.00499165	2.0591	-1.71453	-9.34831	-0.0151523	0.0255964	-0.00953384	-0.317871	0.690674	0.918701	
7	-0.54421	0.351987	0.366009	0.667816	8.99273	1.13606	5.01727	-0.00529125	0.00479864	-0.00721606	-0.862061	0.30249	-0.425293	-0.67015	0.343218	0.354486	0.554473	8.58442	-0.6019	5.0874	-0.0297031	0.0525253	-0.0212322	-0.646484	0.371826	-0.458496	-0.7737	-0.0695675	0.148695	0.611914	1.51365	3.28773	10.3155	-0.105665	0.0154665	-0.0116625	-0.122803	-0.0078125	-1.05591	-0.800145	0.139501	-0.0256021	0.582797	1.07707	-2.74463	9.3754	0.00740627	0.036563	-0.00348066	0.0671387	0.714355	-0.820557	-0.741264	0.276527	-0.110008	0.60163	1.58694	-5.18548	8.06083	0.0684044	0.00948781	-0.0186873	-0.0368652	0.854004	-0.563477	-0.757793	-0.0810156	0.0714481	0.643492	0.581368	0.41232	13.499	-0.0186518	0.0296901	-0.0342339	0.0800781	0.396484	-1.03467	-0.514775	0.485142	0.550675	0.443172	9.75339	-0.078578	-0.589704	-0.0360417	-0.00736046	-0.00868693	-0.951172	0.394287	0.027832	-0.841176	0.0936606	-0.0194619	0.532233	0.652581	-1.97109	10.8599	0.00392199	0.0201257	-0.0221323	0.13916	0.591309	-0.895996	-0.0477582	0.512814	0.845702	0.139745	2.14711	1.69505	-8.75086	0.012898	0.00461005	-0.00959749	-0.476562	0.23999	0.95459	-0.776076	-0.0385973	0.109581	0.619846	1.19571	2.1696	10.1339	0.00836104	0.0208995	-0.0126972	-0.0341797	0.205811	-1.08008	-0.137519	0.625425	0.768057	-0.00439743	2.06914	-1.62349	-9.3412	-0.0175865	0.0190842	-0.000600535	-0.320068	0.690674	0.911865	
8	-0.544224	0.351925	0.365673	0.668021	8.97274	1.16433	5.03552	-0.0119128	0.00779012	0.00171803	-0.862305	0.306641	-0.425293	-0.669901	0.34339	0.354059	0.554939	8.5875	-0.683192	5.16708	-0.0257929	0.0116725	-0.0304104	-0.646729	0.376221	-0.45874	-0.773464	-0.0702167	0.148516	0.612181	1.50076	3.27578	10.2236	0.0694111	0.0212103	-0.0285924	-0.118652	-0.0100098	-1.05591	-0.800052	0.139064	-0.0261964	0.583003	1.12996	-2.39355	9.38374	0.000510757	0.034087	-0.00421751	0.0715332	0.714355	-0.822754	-0.740656	0.277211	-0.111282	0.60183	1.6081	-5.49697	7.97612	-0.0484602	0.0311434	-0.0211765	-0.0415039	0.856201	-0.559082	-0.757676	-0.0810601	0.0712727	0.643643	0.579014	0.424202	13.3748	0.00267061	0.0178868	-0.0240484	0.0778809	0.396484	-1.03247	-0.51484	0.485138	0.55012	0.443788	9.81302	-0.0623742	-0.598439	-0.000422344	0.0540913	-0.0216463	-0.953369	0.394287	0.0297852	-0.841201	0.0937131	-0.0196547	0.532178	0.656954	-1.97589	10.8975	-0.000620819	0.0224006	-0.00848967	0.143555	0.586914	-0.893555	-0.0478015	0.512799	0.845736	0.139581	2.13475	1.71024	-8.79606	0.0130603	0.0025358	-0.0229837	-0.476562	0.242432	0.956787	-0.775752	-0.0387344	0.1094	0.620275	1.19776	2.16299	10.1491	-0.00549542	0.0228944	-0.0222115	-0.0341797	0.205811	-1.08008	-0.137615	0.625748	0.767779	-0.00403469	2.10099	-1.65679	-9.33503	-0.0051229	0.0205631	0.0159232	-0.317871	0.688477	0.911865	
9	-0.543979	0.352074	0.365472	0.668253	9.0724	1.11364	5.04556	-0.0141792	-0.00501207	-0.0122151	-0.859863	0.30249	-0.42749	-0.669982	0.342825	0.353857	0.55532	8.61681	-0.65963	5.21155	0.00604922	0.0531141	-0.0323162	-0.648682	0.371826	-0.463135	-0.773158	-0.0703109	0.148265	0.612618	1.51173	3.02214	10.1726	0.0121257	0.0094534	-0.0183121	-0.12085	-0.0078125	-1.05835	-0.799861	0.138653	-0.0263483	0.583355	1.16175	-2.32586	9.37909	-0.000986824	0.0243532	-0.0198816	0.0690918	0.716553	-0.822754	-0.740757	0.276507	-0.110497	0.602174	1.57451	-5.25043	8.0569	0.0441965	0.00461911	-0.0232068	-0.0390625	0.854004	-0.563477	-0.757429	-0.0813984	0.0717377	0.643839	0.570118	0.438615	13.4694	0.0334889	0.00711189	-0.0257356	0.079834	0.400879	-1.03271	-0.514449	0.485442	0.549569	0.444592	9.8357	-0.0643899	-0.556439	-0.0411321	0.0214342	-0.0226983	-0.955811	0.400635	0.0297852	-0.841301	0.0942668	-0.0201719	0.531902	0.648813	-1.83224	10.9206	-0.0387052	0.0229845	0.00146525	0.143555	0.589111	-0.891357	-0.0482037	0.512707	0.845887	0.13886	2.17273	1.63065	-8.86737	0.0521011	0.00605998	-0.0233036	-0.483643	0.242188	0.952393	-0.775389	-0.0388772	0.109189	0.620757	1.17228	2.10961	10.2257	0.00186518	0.0210403	-0.0192723	-0.0319824	0.203613	-1.08472	-0.137713	0.626096	0.76748	-0.00370432	2.09249	-1.64507	-9.3689	-0.00755482	0.0180133	0.00970828	-0.320068	0.688477	0.918701	
10	-0.543853	0.351847	0.364978	0.668744	9.05336	1.11155	5.06589	-0.0179432	0.0253156	-0.00913626	-0.85791	0.309082	-0.425293	-0.670067	0.342219	0.353847	0.555598	8.61262	-0.700382	5.20088	0.00442064	0.022866	-0.0326745	-0.650879	0.371826	-0.463135	-0.77276	-0.0700344	0.148129	0.613184	1.47055	3.17293	10.2717	-0.0291884	-0.00905712	-0.0283985	-0.12085	-0.0078125	-1.05591	-0.799423	0.138597	-0.0266109	0.583957	1.10857	-2.48537	9.34517	0.00558372	0.0176552	-0.0230771	0.0712891	0.716553	-0.822754	-0.740511	0.27668	-0.110761	0.602349	1.62037	-5.36618	8.04183	-0.0266018	0.0128328	-0.0241992	-0.0437012	0.856201	-0.563477	-0.757307	-0.0813974	0.0719044	0.643964	0.61546	0.407874	13.5239	0.00781243	0.00935798	-0.0250275	0.0759277	0.394531	-1.03467	-0.513498	0.48617	0.54944	0.445056	9.8671	-0.138685	-0.907356	-0.0180179	0.00183741	-0.0260548	-0.951172	0.394287	0.0383301	-0.841475	0.0957075	-0.0212541	0.531327	0.615391	-1.89437	10.9229	-0.0717249	0.0193596	0.0123057	0.136963	0.589111	-0.888916	-0.0492052	0.512597	0.846167	0.137202	2.1858	1.70007	-8.81016	0.099637	0.00357177	-0.0207312	-0.476807	0.246826	0.956787	-0.775086	-0.0388838	0.109281	0.621118	1.0444	2.14823	10.1403	0.00121867	0.00239284	-0.0168712	-0.036377	0.205811	-1.08008	-0.137355	0.626493	0.767222	-0.00343235	2.08272	-1.60615	-9.28605	-0.0177046	-0.00549791	0.0144768	-0.320312	0.692871	0.911865	
11	-0.543857	0.351489	0.364674	0.669095	9.00448	1.13492	5.07392	-0.00315495	0.0136978	-0.00836566	-0.857666	0.30249	-0.42749	-0.669981	0.341873	0.35361	0.556065	8.61909	-0.598556	5.16607	-0.0158016	0.0427966	-0.0347191	-0.646484	0.371826	-0.460938	-0.772365	-0.0700933	0.148442	0.613599	1.52466	3.09755	10.231	0.0279087	-0.00058406	-0.0222246	-0.120605	-0.0144043	-1.05591	-0.798978	0.138885	-0.0265736	0.584499	1.18959	-2.54411	9.46066	-0.0221108	0.00190409	-0.0270595	0.0693359	0.714355	-0.818359	-0.740421	0.276729	-0.110668	0.602454	1.67561	-5.4109	8.05854	0.000130746	0.00286694	-0.0237786	-0.0368652	0.849609	-0.561279	-0.757116	-0.0815754	0.0724202	0.644109	0.634415	0.435586	13.569	0.0229184	0.00323219	-0.0216639	0.0712891	0.398682	-1.03467	-0.513534	0.485929	0.548805	0.446059	9.83444	0.0219174	-0.646716	-0.0191718	0.0437047	-0.0294632	-0.958008	0.398438	0.0339355	-0.841554	0.0966265	-0.0218035	0.531014	0.594002	-1.90264	10.9125	-0.0814048	0.0140086	0.0132812	0.143066	0.5979	-0.891357	-0.0506433	0.512553	0.846536	0.134539	2.15159	1.74708	-8.74236	0.136789	-0.00259804	-0.0157488	-0.474609	0.251465	0.958984	-0.774749	-0.0385687	0.110022	0.621427	1.24124	2.03806	10.183	0.0135732	-0.0212213	-0.00773748	-0.0385742	0.203613	-1.08691	-0.136938	0.626725	0.767107	-0.00335982	2.1087	-1.64588	-9.33522	-0.0253092	-0.0155072	0.0150333	-0.317871	0.688477	0.91626	
12	-0.543805	0.351055	0.364118	0.669667	9.06466	1.11241	5.12282	-0.0145752	0.0362893	-0.0211854	-0.857666	0.300293	-0.429688	-0.669898	0.341154	0.353551	0.556644	8.48321	-0.516133	5.21025	0.00888218	0.0350668	-0.046516	-0.644043	0.365234	-0.460693	-0.772035	-0.07051	0.148697	0.613905	1.49516	3.13886	10.1857	0.0186519	0.00209359	-0.0198593	-0.116455	-0.0144043	-1.05811	-0.798852	0.138207	-0.0263572	0.584842	1.08897	-2.56947	9.49608	0.0365382	0.0247801	-0.0101482	0.0715332	0.712402	-0.824951	-0.740263	0.276731	-0.110574	0.602664	1.54574	-5.34137	8.07667	0.000971271	0.00918517	-0.0253705	-0.0371094	0.856201	-0.563477	-0.757156	-0.0821055	0.0729028	0.64394	0.479848	0.504905	13.6014	0.0267533	0.019175	-0.00675037	0.0715332	0.394287	-1.03882	-0.513402	0.485588	0.54827	0.447238	9.69093	-0.00529174	-0.713882	-0.0115808	0.0568085	-0.042331	-0.959717	0.39209	0.0341797	-0.841739	0.098782	-0.0227938	0.530281	0.707503	-2.4718	10.8143	0.009542	0.0110403	-0.00997501	0.138672	0.599854	-0.886719	-0.0507397	0.512592	0.846635	0.133729	2.11497	2.21714	-8.65969	-0.0111149	-0.00915164	-0.0216716	-0.479492	0.253662	0.952148	-0.774624	-0.0393137	0.110627	0.621429	1.28074	2.2901	10.3037	0.0245865	0.0207027	-0.00279105	-0.0341797	0.203613	-1.08008	-0.135842	0.626957	0.767114	-0.00293662	2.19152	-1.86843	-9.43084	-0.0412564	-0.0133049	-0.0107126	-0.317627	0.684082	0.920898	
13	-0.543575	0.349639	0.363695	0.670824	8.9419	1.09213	5.18377	0.00774183	0.0569221	-0.054343	-0.861816	0.298096	-0.431641	-0.669956	0.34055	0.353843	0.556759	8.5974	-0.564548	5.17395	0.0243341	0.020598	-0.0240986	-0.644287	0.367432	-0.460693	-0.772005	-0.0714874	0.148847	0.613794	1.55884	3.32868	10.2865	0.0348357	0.0237474	-0.00177227	-0.116211	-0.0166016	-1.05591	-0.799051	0.137456	-0.0262827	0.58475	1.17443	-2.53721	9.45443	0.0315317	0.016937	0.0194975	0.0649414	0.712158	-0.818359	-0.740552	0.275964	-0.10992	0.602781	1.56105	-5.28964	8.16004	0.0378174	0.0087027	-0.00147157	-0.043457	0.849609	-0.565918	-0.757222	-0.0824549	0.0732081	0.643783	0.472105	0.4954	13.5834	0.041001	0.0162619	-0.00355898	0.0690918	0.398682	-1.03687	-0.513291	0.485227	0.548458	0.447528	9.8256	-0.0763355	-0.752602	0.028016	0.00232242	-0.0321977	-0.959961	0.394287	0.027832	-0.841657	0.0978106	-0.0220474	0.530623	0.660956	-2.21486	10.9306	0.101128	0.0123147	-0.0443614	0.141113	0.597656	-0.88916	-0.0493597	0.51298	0.846183	0.135608	2.20361	1.64639	-8.9362	-0.0903821	-0.00265454	-0.00411622	-0.479248	0.251465	0.95874	-0.77467	-0.0388712	0.109968	0.621516	1.25226	1.78316	10.1554	-0.0292792	0.0211217	0.0096814	-0.0361328	0.201416	-1.07788	-0.136213	0.627135	0.766901	-0.00322065	1.98876	-1.89279	-9.31094	0.0364082	0.0146787	0.019215	-0.313232	0.684082	0.92334	
14	-0.543524	0.348789	0.363897	0.671198	8.9002	1.13113	5.22312	0.0363425	0.0422312	-0.0505407	-0.859863	0.30249	-0.433838	-0.670094	0.340392	0.353803	0.556714	8.60553	-0.652996	5.2928	0.00561119	0.0257692	-0.0126489	-0.644287	0.367432	-0.463135	-0.772072	-0.0717408	0.148894	0.613669	1.54852	3.24184	10.3258	0.0198679	0.015903	0.00687973	-0.122803	-0.012207	-1.05811	-0.799296	0.137336	-0.026203	0.584447	1.17116	-2.46007	9.46615	0.0150346	0.00399296	0.0321884	0.0715332	0.712402	-0.824951	-0.741114	0.27518	-0.109508	0.602523	1.57384	-5.13416	8.10179	0.0258104	0.0109677	0.00907249	-0.0393066	0.856201	-0.563477	-0.757491	-0.0829948	0.0732024	0.643398	0.546322	0.531031	13.5559	0.00655228	0.0387209	0.00140101	0.0759277	0.390137	-1.03662	-0.513526	0.485014	0.548432	0.44752	9.93291	-0.0524047	-0.769079	0.0312291	0.0297561	-0.0157547	-0.95752	0.389893	0.0300293	-0.84118	0.0962167	-0.0210748	0.531709	0.718437	-1.69477	11.011	0.0408564	0.0296202	-0.0642222	0.137207	0.589111	-0.884277	-0.0490909	0.513411	0.845851	0.136143	2.19974	1.51269	-8.96835	-0.047367	0.00511673	0.0176702	-0.481689	0.253662	0.954346	-0.774785	-0.038816	0.110051	0.621361	1.21933	1.9028	10.1863	0.00136688	0.00778596	0.0197584	-0.0317383	0.201416	-1.07788	-0.136432	0.627002	0.766969	-0.0037221	1.99587	-1.74693	-9.3118	0.0177452	-0.00585667	-0.0161663	-0.320068	0.686279	0.914062	
15	-0.544157	0.346921	0.364843	0.67114	8.94514	1.32074	5.24739	0.0862896	0.034143	-0.0111664	-0.857178	0.293945	-0.436035	-0.670213	0.340697	0.353262	0.556728	8.51992	-0.57931	5.10502	-0.00661859	-0.00235556	-0.00261985	-0.650635	0.367432	-0.467773	-0.772489	-0.0723207	0.14914	0.613015	1.46722	3.26044	10.3164	0.0204525	0.0154177	0.0275137	-0.118408	-0.0187988	-1.05127	-0.799611	0.137509	-0.02635	0.583969	1.14395	-2.45519	9.47274	-0.00447221	0.00599862	0.0228766	0.0739746	0.708008	-0.824951	-0.741367	0.275169	-0.110305	0.602071	1.62174	-5.24645	8.06827	-0.0180858	0.0216117	0.0226972	-0.0410156	0.847412	-0.563477	-0.75795	-0.0832274	0.0724433	0.642913	0.585942	0.516004	13.5122	-0.0157086	0.0477581	0.0095757	0.0734863	0.396484	-1.03906	-0.514033	0.484776	0.548352	0.447295	9.75382	-0.131323	-0.726693	0.0419416	-0.000414927	-0.00592781	-0.959961	0.394287	0.027832	-0.840502	0.0957939	-0.0211281	0.532855	0.687564	-2.30411	10.8417	0.0352159	0.03194	-0.0708109	0.141357	0.589111	-0.888916	-0.0488787	0.51451	0.845055	0.13701	2.08659	1.79883	-8.76989	-0.0434859	0.0116125	0.0274749	-0.474609	0.249268	0.956787	-0.775082	-0.0385505	0.109948	0.621026	1.22986	2.31789	10.2611	-0.0241821	0.0133561	0.0220618	-0.036377	0.203613	-1.08008	-0.136781	0.626729	0.767127	-0.00427946	2.12468	-1.90539	-9.38015	0.0465385	0.00705563	-0.00745956	-0.311035	0.690674	0.918701	
16	-0.545357	0.346227	0.36533	0.670258	8.83092	1.36732	5.17404	0.0458164	-0.00175348	0.0369287	-0.855469	0.30249	-0.436035	-0.670701	0.340375	0.353614	0.556114	8.62945	-0.674183	5.16832	0.0285687	0.0285066	-0.00362984	-0.644287	0.367432	-0.463135	-0.772716	-0.0713958	0.148018	0.61311	1.53014	3.03438	10.2081	-0.061822	0.0171095	0.0068888	-0.114258	-0.0144043	-1.05591	-0.799981	0.137643	-0.0264321	0.583427	1.17022	-2.48242	9.38353	0.00790047	0.00309182	0.0257149	0.0715332	0.712158	-0.820557	-0.74177	0.274907	-0.110539	0.601651	1.56524	-5.36691	8.00382	0.0261089	0.00875775	0.0141909	-0.0371094	0.856201	-0.559082	-0.758333	-0.0833771	0.0718845	0.642505	0.554112	0.455444	13.4692	0.00536338	0.0356879	-0.000422274	0.0759277	0.392334	-1.03247	-0.514643	0.484354	0.548227	0.447204	9.82155	-0.0626739	-0.675858	-0.00213903	0.0170432	-0.0151124	-0.953369	0.39209	0.0256348	-0.840065	0.0943968	-0.020231	0.533826	0.590047	-1.85994	10.8319	0.063086	0.0163725	-0.0498061	0.138916	0.595703	-0.891357	-0.0482791	0.515062	0.844559	0.138202	2.12586	1.35762	-8.83218	-0.0382856	0.00449313	-0.00258611	-0.481201	0.244629	0.956787	-0.775477	-0.0375352	0.109159	0.620734	1.21417	1.84769	10.2811	-0.0344475	0.0148122	0.0268254	-0.034668	0.2146	-1.07812	-0.13765	0.626576	0.76709	-0.00521844	2.04191	-1.54131	-9.40182	0.0403275	0.00578248	-0.0114157	-0.320068	0.690674	0.914062	
17	-0.545584	0.346793	0.36531	0.669792	8.9071	1.26832	5.11341	-0.0179294	-0.0223267	0.0186307	-0.861816	0.298096	-0.433838	-0.671148	0.339851	0.353672	0.555857	8.5009	-0.545039	5.12547	0.0219162	0.0198176	-0.000293061	-0.64209	0.367432	-0.470215	-0.772997	-0.0720333	0.14801	0.612683	1.47635	3.28286	10.2383	0.0247842	0.0288983	0.0148482	-0.116211	-0.0166016	-1.04907	-0.800118	0.13764	-0.0268926	0.583217	1.07553	-2.53163	9.501	-0.0125091	0.025531	0.0142381	0.0737305	0.714355	-0.820557	-0.742388	0.274442	-0.110717	0.601069	1.64145	-5.18466	8.00615	-0.0080081	0.0182718	0.026598	-0.0368652	0.851807	-0.565918	-0.758518	-0.0836382	0.0715275	0.642292	0.607462	0.516106	13.5238	-0.00212917	0.0372391	-0.0080787	0.0822754	0.394531	-1.03882	-0.515345	0.483854	0.548059	0.447141	9.70802	0.0285557	-0.773352	0.0614291	0.0454577	-0.0102043	-0.957764	0.394287	0.027832	-0.839932	0.0950775	-0.0202695	0.533914	0.671071	-2.14638	10.8125	-0.0313994	0.00336655	-0.0113643	0.137207	0.584717	-0.891113	-0.0483106	0.515158	0.844583	0.137686	2.11043	1.5408	-8.80739	0.0340215	-0.00777289	-0.0231452	-0.476807	0.246826	0.956787	-0.775901	-0.0376703	0.109395	0.620155	1.19139	2.24367	10.1838	0.014626	0.0137054	0.0319568	-0.0341797	0.208008	-1.07788	-0.137478	0.626034	0.767564	-0.00519732	2.12494	-1.71017	-9.34332	0.000648752	-0.00275591	-0.0320484	-0.320312	0.692871	0.911865	
18	-0.545322	0.347558	0.364832	0.669869	8.95683	1.10833	5.11646	-0.0310713	-0.0141509	0.00355377	-0.85498	0.293945	-0.429443	-0.671382	0.339586	0.353463	0.555869	8.52817	-0.61625	5.15486	-0.0045999	0.0274972	-0.0162261	-0.64209	0.369629	-0.467773	-0.773215	-0.0721246	0.147078	0.612621	1.46842	3.02653	10.1518	-0.0106557	0.0376191	-0.00282026	-0.118408	-0.012207	-1.05371	-0.800607	0.136793	-0.0272301	0.582731	1.12337	-2.41928	9.32465	0.0291259	0.0385076	0.0325974	0.0695801	0.709961	-0.822754	-0.742669	0.274312	-0.111261	0.60068	1.58124	-5.20589	8.05461	0.00351808	0.023866	0.00776545	-0.0283203	0.854004	-0.565918	-0.759009	-0.0838646	0.070692	0.641774	0.563711	0.485174	13.4157	-0.00644006	0.0514033	0.0143455	0.078125	0.392334	-1.03882	-0.516321	0.482894	0.548143	0.446951	9.71432	-0.066453	-0.666827	0.0567183	0.0333153	-0.0169092	-0.957764	0.394287	0.0214844	-0.840269	0.0952685	-0.0199252	0.533362	0.695114	-2.11474	10.8577	0.0194338	0.000283449	0.0137324	0.132568	0.593506	-0.891357	-0.0481597	0.514612	0.844968	0.137418	2.15454	1.7196	-8.7849	0.00213508	-0.0021169	-0.0531103	-0.479492	0.253662	0.954346	-0.776141	-0.0372878	0.109237	0.619905	1.14935	2.04575	10.0469	-0.0162328	0.00637726	0.0151313	-0.0366211	0.210205	-1.08032	-0.137325	0.625891	0.767705	-0.00564804	1.99305	-1.63233	-9.25269	0.0167568	-0.0160448	-0.00476933	-0.320068	0.690674	0.91626	
19	-0.545187	0.347664	0.364639	0.670029	8.98425	1.05577	5.1041	-5.22281e-05	0.00150315	-0.00765398	-0.862061	0.300293	-0.433838	-0.671685	0.339355	0.353476	0.555636	8.57982	-0.632012	5.19852	0.0126893	0.0191154	-0.00801864	-0.644287	0.367432	-0.467773	-0.773397	-0.0729338	0.146746	0.612375	1.4685	3.27932	10.1803	0.00152374	0.0309698	0.0104784	-0.109863	-0.0124512	-1.05811	-0.800854	0.136294	-0.0276767	0.582487	1.10115	-2.4141	9.28566	0.0104456	0.0280779	0.015405	0.0739746	0.710205	-0.827148	-0.74277	0.274228	-0.111604	0.60053	1.54426	-5.31135	8.02426	-0.0110446	0.0279828	0.00996985	-0.0327148	0.854004	-0.559082	-0.759524	-0.0842451	0.0701971	0.641169	0.466941	0.541348	13.366	0.00358135	0.0380663	0.00603026	0.0822754	0.394531	-1.03467	-0.517235	0.482008	0.548223	0.446752	9.82836	-0.0414219	-0.675432	0.0587458	0.0436172	-0.0183287	-0.957764	0.394287	0.027832	-0.84048	0.0952484	-0.0196909	0.533041	0.652116	-1.93608	10.8753	0.0166049	0.000928741	0.0152505	0.136963	0.591309	-0.891357	-0.0478525	0.513871	0.845456	0.137294	2.09525	1.73176	-8.7656	0.0120748	-0.00581181	-0.055978	-0.479004	0.244629	0.961182	-0.776214	-0.0368059	0.109442	0.619806	1.26088	2.10282	10.2446	-0.0127952	-0.00543928	0.0123107	-0.0432129	0.207764	-1.08032	-0.137105	0.625891	0.767741	-0.00601624	2.00003	-1.71885	-9.30119	0.0147083	-0.0271766	-0.00168674	-0.315674	0.692871	0.911865	
20	-0.545421	0.347206	0.365032	0.669862	9.11355	1.1348	5.13803	0.0333562	0.00542764	-0.000303447	-0.853027	0.29834	-0.436035	-0.672233	0.338925	0.353382	0.555297	8.55229	-0.645746	5.2799	0.00823709	0.0280026	0.000323737	-0.644287	0.371826	-0.470215	-0.773602	-0.0731705	0.146531	0.61214	1.48772	3.12731	10.2596	0.032983	0.0197694	0.00707533	-0.116455	-0.0100098	-1.05371	-0.801077	0.136024	-0.0276799	0.582243	1.07155	-2.43909	9.36151	-0.00334153	0.0054528	0.0151351	0.0761719	0.707764	-0.816162	-0.743469	0.273849	-0.11165	0.599829	1.49696	-5.1877	8.11089	-0.0714662	0.0151349	0.0112667	-0.0302734	0.851807	-0.565918	-0.759874	-0.0841624	0.06993	0.640795	0.473084	0.478248	13.426	-0.00533613	0.018035	0.00284752	0.0844727	0.394531	-1.03247	-0.517836	0.481379	0.548583	0.446293	9.84399	-0.0904357	-0.556221	0.0505713	0.00320444	-0.0154229	-0.957764	0.39209	0.0214844	-0.841089	0.0957382	-0.0191351	0.532012	0.719902	-2.00678	10.9391	0.00412487	-0.00450681	0.00939	0.13501	0.586914	-0.886475	-0.0475603	0.51326	0.845874	0.137113	2.14074	1.84295	-8.81451	0.00661481	-0.00491526	-0.0467945	-0.481445	0.246826	0.956787	-0.776367	-0.0362964	0.109638	0.61961	1.3241	1.99897	10.3227	-0.00536225	-0.00134414	0.0148046	-0.0344238	0.212402	-1.08252	-0.136692	0.625789	0.767888	-0.00709957	2.06861	-1.79203	-9.42195	0.0152728	-0.0167681	-0.00677947	-0.311279	0.692871	0.914062	
21	-0.545804	0.346529	0.365168	0.669827	9.09854	1.15489	5.17136	0.0491408	0.0366772	-0.00315299	-0.857666	0.300293	-0.431641	-0.672445	0.338803	0.353541	0.555012	8.57249	-0.646111	5.19805	0.0207883	0.00880792	-0.00132052	-0.640137	0.376221	-0.468018	-0.773717	-0.0734087	0.146726	0.611919	1.33662	3.20641	10.2789	0.0276407	0.00778591	0.0170002	-0.114258	-0.0166016	-1.05591	-0.801198	0.136031	-0.0275576	0.582081	1.00294	-2.51837	9.373	0.0076575	-0.00302095	0.0160854	0.0761719	0.708008	-0.820557	-0.743492	0.27424	-0.112004	0.599555	1.52919	-5.44811	7.99978	-0.0426132	0.00374067	0.0103737	-0.0305176	0.854004	-0.565918	-0.759948	-0.0842547	0.0700578	0.64068	0.469976	0.511718	13.4528	0.0161692	0.0132135	-0.00547365	0.0800781	0.394531	-1.03247	-0.517788	0.481357	0.548794	0.446112	9.77175	-0.119394	-0.632098	0.0291147	-0.00558934	-0.0193054	-0.951172	0.39209	0.0214844	-0.8412	0.0955988	-0.0187913	0.531874	0.757264	-2.03663	10.9151	0.0286033	-2.24381e-05	-0.00242933	0.136963	0.589111	-0.891357	-0.0473342	0.513081	0.845977	0.137225	2.10714	1.90512	-8.79494	-0.0100071	-0.00478492	-0.0388974	-0.479004	0.246826	0.958984	-0.776455	-0.036175	0.109656	0.619504	1.27377	1.98995	10.2279	-0.00580908	0.00783834	0.0156756	-0.0385742	0.205811	-1.08252	-0.136585	0.625718	0.767964	-0.00729831	2.00641	-1.7567	-9.37312	0.0106879	-0.0119992	-0.0106716	-0.313477	0.695068	0.91626	
22	-0.546783	0.345194	0.365285	0.669654	8.89956	1.24412	5.19317	0.0457693	0.0362163	0.00802038	-0.857422	0.296143	-0.438232	-0.672775	0.338927	0.353774	0.554388	8.5614	-0.592205	5.23411	-0.00633941	0.00351241	0.0053473	-0.644287	0.371826	-0.470215	-0.77413	-0.073302	0.146799	0.611391	1.41377	3.1521	10.2999	0.00450063	0.00452892	0.0283176	-0.109863	-0.0146484	-1.05371	-0.801478	0.13606	-0.027336	0.581699	1.04947	-2.44566	9.45631	-0.00149829	-0.00681455	0.0163547	0.0808105	0.705811	-0.820557	-0.743997	0.274091	-0.111512	0.599089	1.5602	-5.16442	8.09008	0.000949638	-0.00694238	0.0107271	-0.0324707	0.851807	-0.570312	-0.760177	-0.083866	0.0698856	0.640479	0.529822	0.435462	13.4372	-0.0107821	0.0145039	0.000160807	0.0866699	0.394531	-1.03027	-0.51817	0.481168	0.548871	0.445777	9.75854	-0.0710458	-0.659197	0.0215835	0.0121558	-0.00346424	-0.951416	0.394287	0.0192871	-0.841175	0.0950067	-0.01824	0.532039	0.73924	-1.87872	10.9666	0.0336505	0.00385588	-0.0148635	0.136963	0.589111	-0.886719	-0.0471137	0.512954	0.846037	0.137406	2.13368	1.58834	-8.9117	0.00807361	0.00442592	-0.0249163	-0.479004	0.242188	0.958984	-0.776652	-0.036176	0.110066	0.619184	1.32589	2.03325	10.1855	0.00741262	-0.000949906	0.0229739	-0.0385742	0.205811	-1.07568	-0.136013	0.625508	0.768234	-0.0075552	1.91534	-1.8243	-9.3202	-0.000732694	-0.0233312	-0.0206827	-0.317871	0.688477	0.911865	
23	-0.547398	0.344266	0.365055	0.669754	8.85867	1.26008	5.22797	0.0132122	0.037348	0.000632049	-0.853027	0.29834	-0.44043	-0.672997	0.339239	0.353371	0.554185	8.47125	-0.646098	5.21397	-0.0211764	0.0189055	-0.000299894	-0.640137	0.376221	-0.470459	-0.774482	-0.0728519	0.146488	0.611075	1.37115	3.13371	10.2345	-0.0378449	0.00393373	0.0178706	-0.116211	-0.0187988	-1.0603	-0.801861	0.136762	-0.027311	0.581007	1.02538	-2.52697	9.40071	-0.00565125	-0.0129047	0.0361479	0.0803223	0.7146	-0.820557	-0.744137	0.274421	-0.111668	0.598735	1.5224	-5.27923	7.94445	-0.000120471	-0.00222318	0.000535834	-0.0258789	0.851807	-0.563477	-0.760592	-0.0834875	0.0696946	0.640056	0.517348	0.49022	13.4516	-0.0264846	0.0153	0.00697846	0.0864258	0.398682	-1.03467	-0.518129	0.481541	0.54905	0.445202	9.74436	-0.0638111	-0.576251	0.0297922	-0.00691655	0.000547052	-0.957764	0.394287	0.0148926	-0.841268	0.0954906	-0.0183664	0.5318	0.743596	-2.1338	10.846	-0.0116497	0.0144121	-0.000712059	0.13501	0.589111	-0.893555	-0.0473994	0.512859	0.846146	0.136993	2.08078	1.7565	-8.75685	0.0221268	0.0062955	-0.0253929	-0.477051	0.251465	0.958984	-0.777166	-0.035979	0.110303	0.618508	1.30118	2.04581	10.3148	0.00704391	0.00879533	0.0401039	-0.0366211	0.208008	-1.08252	-0.135657	0.624956	0.768742	-0.00796426	2.08265	-1.77048	-9.45782	0.0109354	-0.0143798	-0.0332336	-0.308838	0.690918	0.925537	
24	-0.547673	0.344149	0.364642	0.669815	8.85102	1.2468	5.25845	-0.0114241	0.003578	0.0157322	-0.85083	0.29834	-0.442383	-0.672989	0.339766	0.353307	0.553912	8.57142	-0.737997	5.18255	-0.0148225	-0.00235325	-0.00333492	-0.646484	0.371826	-0.465576	-0.774837	-0.0730085	0.146613	0.610575	1.52941	3.10945	10.2388	0.0265696	0.0129717	0.0171084	-0.109863	-0.0168457	-1.05347	-0.802133	0.137061	-0.0274217	0.580555	1.16395	-2.44202	9.48785	-0.0123911	0.00514296	0.015101	0.0695801	0.705566	-0.818115	-0.744246	0.275058	-0.112034	0.598239	1.52993	-5.40747	8.044	-0.0260303	-0.00398871	0.00728127	-0.0305176	0.856201	-0.561279	-0.760746	-0.0831335	0.0695054	0.63994	0.468409	0.39046	13.4942	0.00309155	0.0101956	-0.0117298	0.0888672	0.392334	-1.03662	-0.518328	0.481217	0.55007	0.444061	9.77845	-0.146423	-0.668664	0.0605137	-0.0275315	-0.0076017	-0.957764	0.39209	0.0192871	-0.841415	0.0954735	-0.0181359	0.531579	0.694594	-1.95033	10.8927	0.0172736	0.00956194	-0.00274543	0.137207	0.586914	-0.895996	-0.0474214	0.512531	0.846331	0.137069	2.14544	1.67815	-8.80593	0.000832281	0.00817701	-0.0360065	-0.476807	0.246826	0.963379	-0.777601	-0.0360703	0.110528	0.617915	1.25512	2.08627	10.1938	0.0147786	0.0130311	0.0318552	-0.0410156	0.208008	-1.08032	-0.135425	0.624406	0.769228	-0.00814664	2.01102	-1.73351	-9.36674	0.00619868	-0.00918399	-0.0327487	-0.311279	0.692871	0.909424	
25	-0.547776	0.345111	0.364328	0.669407	8.90886	1.08082	5.2574	-0.019541	-0.0392288	0.0293017	-0.85083	0.29834	-0.436035	-0.673177	0.339778	0.353439	0.553592	8.64449	-0.714557	5.15322	0.011824	0.00639177	-0.0093581	-0.639893	0.367432	-0.463135	-0.774904	-0.0729156	0.146592	0.610507	1.49112	3.07362	10.2732	-0.00598472	-0.00443385	0.00317905	-0.10791	-0.0102539	-1.05371	-0.80226	0.136727	-0.0271579	0.580472	1.12296	-2.40984	9.40521	0.0238267	0.00598255	0.00215046	0.0783691	0.710205	-0.820557	-0.744301	0.275436	-0.112092	0.597985	1.59654	-5.39046	8.04413	-0.0236075	-0.00175062	-0.00284642	-0.0239258	0.856201	-0.563477	-0.760932	-0.0828874	0.069611	0.63974	0.559745	0.33808	13.5272	0.000764484	0.00446756	-0.00464701	0.0866699	0.392334	-1.03027	-0.518214	0.481235	0.550729	0.443357	9.86873	-0.14551	-0.617884	0.0324258	-0.019962	-0.0187804	-0.953369	0.394287	0.0192871	-0.841669	0.0956907	-0.01827	0.531133	0.664952	-2.02187	10.9469	-0.0142762	0.0166708	0.00811324	0.13916	0.589111	-0.895996	-0.0475793	0.51216	0.846534	0.137147	2.18468	1.69834	-8.85282	0.00743421	0.0145984	-0.0374223	-0.474365	0.246826	0.956787	-0.777956	-0.0357838	0.110798	0.617437	1.17102	2.14802	10.1878	-0.00757519	-0.003138	0.025436	-0.0388184	0.210205	-1.08032	-0.135177	0.624043	0.769561	-0.00858273	2.03809	-1.68601	-9.35427	0.0121591	-0.0156479	-0.0159707	-0.315918	0.695068	0.918457	
26	-0.547672	0.345977	0.36477	0.668804	9.04031	1.0148	5.16925	0.0115711	-0.0456439	0.0117581	-0.853271	0.30249	-0.433838	-0.673502	0.339759	0.353393	0.553238	8.64779	-0.628043	5.24344	-0.00642064	0.0290618	0.00235035	-0.637939	0.371826	-0.475098	-0.775019	-0.0726968	0.146806	0.610335	1.45277	3.2249	10.2862	-0.0158659	-0.0061481	0.00654392	-0.109863	-0.0124512	-1.05371	-0.80213	0.13692	-0.0270295	0.580611	1.0705	-2.56973	9.41669	0.00611814	-0.00438655	-0.00430409	0.0739746	0.708008	-0.822754	-0.744696	0.275465	-0.111571	0.597577	1.53356	-5.21423	8.1192	0.0164485	-0.0170328	0.000497463	-0.0327148	0.854004	-0.554443	-0.761009	-0.0828601	0.0697951	0.639631	0.568212	0.426108	13.5854	0.0113068	0.00339806	-0.00471025	0.0864258	0.396484	-1.03687	-0.518227	0.481187	0.551223	0.442779	9.90309	-0.0842998	-0.731337	0.0359981	0.00671372	-0.0111333	-0.955566	0.394287	0.0214844	-0.841904	0.0959966	-0.0184331	0.530701	0.669443	-2.01805	10.9601	-0.00616699	0.0173797	0.00723746	0.136963	0.591309	-0.893555	-0.0478423	0.511758	0.846728	0.137356	2.18032	1.73154	-8.83594	0.00434091	0.0190103	-0.0361288	-0.471924	0.23999	0.956787	-0.778064	-0.0353858	0.11108	0.617273	1.31541	2.09819	10.3086	-0.00712	-0.00292745	0.0118824	-0.0412598	0.212402	-1.08716	-0.135097	0.624016	0.769592	-0.00906261	2.0364	-1.79804	-9.4181	0.0200176	-0.00432962	-0.0039841	-0.313477	0.692871	0.920898	
27	-0.54774	0.346155	0.3656	0.668202	9.05973	1.15387	5.11676	0.0303525	-0.0270708	0.00358578	-0.85083	0.29834	-0.433838	-0.673784	0.339748	0.35321	0.553018	8.56094	-0.642787	5.21736	-0.00432192	0.00973057	-0.00688579	-0.644043	0.365234	-0.469971	-0.775145	-0.0727026	0.147137	0.610094	1.44799	3.17228	10.3153	0.0281064	0.00246189	0.0059328	-0.112061	-0.0166016	-1.05811	-0.802218	0.137406	-0.0268079	0.580385	1.09969	-2.5658	9.49495	-0.0270716	-0.0135725	0.0168663	0.076416	0.705811	-0.820557	-0.744582	0.27634	-0.11205	0.597226	1.5643	-5.50783	8.04235	-0.0173725	-0.00335171	-0.000966819	-0.0263672	0.858398	-0.554443	-0.761685	-0.0824642	0.0695249	0.638907	0.509391	0.46513	13.5758	0.00336896	0.014672	0.0239277	0.0842285	0.398682	-1.02832	-0.518103	0.481298	0.551722	0.442181	9.79234	-0.0677786	-0.705172	0.0304062	-0.0210922	-0.0148247	-0.951172	0.39209	0.0256348	-0.84216	0.0962543	-0.0183926	0.530249	0.7037	-1.96189	10.822	-0.00602583	0.00505039	0.00465617	0.13916	0.591309	-0.895996	-0.0479878	0.511293	0.846978	0.137494	2.0583	1.73143	-8.72309	0.00421281	0.0105781	-0.0406312	-0.479004	0.244629	0.961182	-0.778225	-0.0348031	0.111114	0.617097	1.36126	2.01327	10.2263	-0.0159336	0.000800512	0.017348	-0.0366211	0.212402	-1.08032	-0.13536	0.623954	0.769589	-0.0095921	1.9623	-1.77705	-9.42897	0.0263203	0.00108332	-0.00430649	-0.315674	0.692871	0.914062	
28	-0.547821	0.346076	0.365851	0.66804	9.01925	1.16005	5.11796	0.0249301	-0.0124251	0.000715675	-0.857666	0.30249	-0.438232	-0.673864	0.339874	0.35304	0.552953	8.52082	-0.662032	5.22363	-0.0196512	0.0178533	-0.0109677	-0.644531	0.376221	-0.46582	-0.775416	-0.0729439	0.147313	0.609678	1.44235	3.1215	10.2781	0.0107679	0.0113805	0.0264244	-0.114258	-0.012207	-1.06055	-0.802542	0.137223	-0.0266136	0.579989	1.09554	-2.48818	9.52799	0.0122868	0.00937058	0.0182146	0.0783691	0.712402	-0.820557	-0.744862	0.276051	-0.111583	0.597098	1.54081	-5.3382	8.03722	0.0449131	-0.0118196	0.00176362	-0.0305176	0.856201	-0.565918	-0.762114	-0.0823249	0.0694147	0.638424	0.530865	0.453757	13.52	0.00434705	0.0191048	0.000629026	0.0820312	0.400879	-1.03052	-0.51817	0.481235	0.552101	0.441698	9.71788	-0.0929689	-0.677858	0.0241782	-0.00170588	-0.0109952	-0.955811	0.396484	0.0192871	-0.84229	0.0966334	-0.0181749	0.529981	0.745209	-1.97868	10.859	-0.000713828	0.00170542	-0.00521977	0.130615	0.589111	-0.888916	-0.0476948	0.510894	0.847244	0.137442	2.10507	1.75334	-8.76853	0.00445409	-0.00486762	-0.0381289	-0.47876	0.23999	0.95459	-0.778398	-0.0346112	0.111381	0.61684	1.33629	2.01288	10.1401	0.00746809	0.00144467	0.01711	-0.0432129	0.208008	-1.07788	-0.135422	0.623876	0.769639	-0.00975491	1.9317	-1.72939	-9.38534	0.0169972	0.000255391	-0.00950466	-0.315918	0.695068	0.914062	
29	-0.54792	0.345719	0.366158	0.667975	8.95897	1.19069	5.11235	0.0188406	0.00156479	-0.00619432	-0.853516	0.306885	-0.438232	-0.673715	0.340199	0.353007	0.552954	8.47077	-0.690021	5.19793	-0.0287682	-0.00289997	-0.0144444	-0.642334	0.378418	-0.463379	-0.775558	-0.0729699	0.147063	0.609556	1.49882	3.21182	10.2304	-0.00871112	0.0244656	0.0118203	-0.116211	-0.0166016	-1.0603	-0.802668	0.137174	-0.0267673	0.57982	1.15275	-2.53035	9.44644	-0.00144919	0.0171466	0.0196265	0.076416	0.703613	-0.818115	-0.745257	0.275911	-0.111279	0.596726	1.55451	-5.29433	8.0271	0.00642359	-0.000732573	0.00723088	-0.0236816	0.849609	-0.556641	-0.762215	-0.0823393	0.0694126	0.638303	0.510308	0.499124	13.4696	0.00510892	0.0177353	-0.00395015	0.0861816	0.405273	-1.03076	-0.518167	0.481197	0.55233	0.441457	9.69634	-0.099758	-0.801226	0.0339074	-0.00657907	-0.016889	-0.953857	0.400635	0.0234375	-0.842327	0.0967432	-0.0180436	0.529906	0.743059	-1.99215	10.8915	0.00238363	0.00455968	-0.00806041	0.134766	0.591309	-0.888916	-0.0475791	0.510734	0.84734	0.137486	2.14027	1.75737	-8.81882	-0.000718383	-6.21711e-05	-0.0359501	-0.481201	0.23999	0.958984	-0.778453	-0.0345509	0.111533	0.616748	1.32898	2.06801	10.1	0.00427563	0.00272562	0.0134409	-0.0388184	0.212402	-1.07568	-0.135248	0.62373	0.769786	-0.00992995	1.91734	-1.72201	-9.30268	-0.000180293	-0.0079384	-0.0109191	-0.313477	0.695068	0.914062	
30	-0.548031	0.345678	0.366116	0.667928	8.89657	1.15159	5.10282	0.00251251	-0.00327546	0.00274803	-0.85083	0.300537	-0.436035	-0.673682	0.340422	0.352863	0.552949	8.50566	-0.734706	5.12891	-0.0298496	0.0191351	-0.0116594	-0.642334	0.374023	-0.465576	-0.775776	-0.0730436	0.146645	0.60937	1.42011	3.08075	10.2198	-0.000480578	0.0199866	0.00982236	-0.107666	-0.0146484	-1.05591	-0.803039	0.136812	-0.0269859	0.579381	1.09596	-2.43814	9.39964	4.50331e-05	0.020145	0.0254457	0.0761719	0.710205	-0.820557	-0.745337	0.276049	-0.111508	0.59652	1.55944	-5.30555	7.95747	-0.0126358	0.0124251	-0.00438046	-0.0263672	0.858398	-0.554443	-0.762382	-0.0823975	0.0692643	0.638112	0.539587	0.410223	13.3923	0.00307187	0.0228069	-0.00795136	0.088623	0.396484	-1.03247	-0.518187	0.481157	0.552505	0.441258	9.64845	-0.122571	-0.402391	-0.00615734	-0.0181197	-0.0155016	-0.953369	0.394287	0.0256348	-0.842332	0.0970396	-0.0180452	0.529844	0.737125	-1.92727	10.8931	-0.00812582	0.0158612	-0.0122768	0.141602	0.586914	-0.886719	-0.0475472	0.510639	0.847408	0.137432	2.11093	1.78661	-8.78299	0.00876344	0.00409812	-0.0218766	-0.479004	0.244629	0.958984	-0.778515	-0.0340986	0.111679	0.616668	1.33482	2.1344	10.2125	-0.0205947	0.0010318	0.00888454	-0.0388184	0.210205	-1.08032	-0.135268	0.62373	0.769776	-0.0103832	2.00918	-1.74542	-9.39204	0.0228811	-0.00634574	0.00408519	-0.309326	0.699707	0.91626	
31	-0.548337	0.345992	0.366049	0.667551	8.93812	1.17249	5.10852	-0.00207476	-0.0189213	0.0280618	-0.851074	0.304932	-0.44043	-0.673636	0.340486	0.353703	0.552429	8.6639	-0.672136	5.17392	0.0240386	-0.0141104	-0.016424	-0.640137	0.376221	-0.46582	-0.775927	-0.0733978	0.146199	0.609242	1.5592	3.18412	10.1584	-0.00869111	0.026271	-0.000846561	-0.109863	-0.0146484	-1.06055	-0.803218	0.136441	-0.0272374	0.579209	1.17548	-2.47223	9.35285	0.015592	0.0244957	0.0110708	0.0783691	0.712402	-0.818359	-0.745665	0.275781	-0.111386	0.596256	1.63915	-5.30407	8.01633	0.0117448	0.00545381	0.00523349	-0.0258789	0.851807	-0.561279	-0.762455	-0.0823101	0.0690415	0.638061	0.588439	0.373491	13.4097	-0.0118529	0.0172618	-0.0164068	0.0842285	0.400879	-1.02832	-0.518027	0.481266	0.552648	0.441148	9.87949	-0.0731659	-0.841715	0.0209505	0.0325785	-0.0181126	-0.955811	0.398438	0.0256348	-0.84235	0.0971971	-0.0181493	0.529783	0.711744	-1.96051	10.891	-0.000805666	0.0176515	-0.0148035	0.141357	0.591309	-0.888916	-0.0475472	0.510639	0.847408	0.137432	2.11093	1.78661	-8.78299	0.00876344	0.00409812	-0.0218766	-0.479004	0.244629	0.958984	-0.778468	-0.0338652	0.1118	0.616718	1.33462	2.00904	10.2336	0.00649887	0.00414797	-0.000943326	-0.0454102	0.207764	-1.08252	-0.135365	0.62381	0.76969	-0.0107616	1.98092	-1.74597	-9.38343	0.0082437	0.000170774	0.000670116	-0.311523	0.69751	0.911621	
32	-0.548327	0.346689	0.366074	0.667184	9.0262	1.1258	5.09023	-0.0102729	-0.0279526	0.0107286	-0.857666	0.300293	-0.436035	-0.673934	0.340003	0.354105	0.552105	8.62608	-0.659399	5.1384	0.0271898	0.0168339	-0.0148667	-0.646729	0.378174	-0.475098	-0.776009	-0.073316	0.145775	0.609249	1.46605	3.12946	10.2595	0.00191024	0.0153186	0.00195571	-0.103516	-0.0168457	-1.0603	-0.803395	0.136159	-0.0272659	0.579029	1.10593	-2.447	9.32257	0.00101615	0.0084197	0.0123067	0.0783691	0.708008	-0.827148	-0.745632	0.276051	-0.111342	0.596181	1.56846	-5.37185	8.01727	0.00252284	-0.000819834	-0.0104156	-0.0241699	0.858398	-0.559082	-0.762532	-0.082418	0.0695975	0.637893	0.57867	0.393431	13.4607	0.0266497	-0.000550227	-0.0052427	0.0817871	0.405273	-1.03491	-0.517858	0.48129	0.552585	0.441398	9.81595	-0.10742	-0.687173	0.0103538	0.00859355	-0.0216122	-0.957764	0.396484	0.0192871	-0.842187	0.0970914	-0.0180005	0.530067	0.747232	-2.13122	10.8759	0.0226368	0.0165563	-0.035755	0.13501	0.589111	-0.891357	-0.0472355	0.510463	0.847537	0.137396	2.06802	1.88558	-8.76388	-0.0180062	-0.00904471	-0.00231573	-0.476807	0.249268	0.956787	-0.778349	-0.0336038	0.111904	0.616863	1.35295	2.00638	10.1994	-0.00883689	0.00563008	-0.00132214	-0.0432129	0.209961	-1.07568	-0.135345	0.624033	0.769508	-0.0110063	1.93221	-1.8326	-9.36382	0.00679067	0.000229751	0.00944101	-0.306885	0.69751	0.920898	
33	-0.548208	0.346934	0.366449	0.666948	9.01744	1.08237	5.05853	0.0157737	-0.0217918	-0.00232305	-0.855225	0.298096	-0.431641	-0.67438	0.339535	0.354418	0.551648	8.6108	-0.616836	5.20587	0.0185184	0.021883	-0.00508568	-0.639893	0.367432	-0.474854	-0.776277	-0.0735049	0.145945	0.608844	1.51357	3.25167	10.2598	0.00415491	0.00684636	0.0156985	-0.105469	-0.0168457	-1.05591	-0.803453	0.136141	-0.0272177	0.578955	1.11935	-2.47979	9.3707	0.00483928	0.00411262	0.00846889	0.0808105	0.705811	-0.824951	-0.746019	0.275957	-0.110762	0.595848	1.60531	-5.20798	8.10434	0.0180361	-0.0127987	-0.000478601	-0.026123	0.854004	-0.563477	-0.76272	-0.0822419	0.069806	0.637669	0.584648	0.449862	13.5647	-0.00938608	0.0088182	0.000807971	0.0864258	0.398682	-1.03467	-0.51762	0.48159	0.552445	0.441526	9.79219	-0.0787113	-0.639798	-0.000110067	-0.00339581	-0.0113245	-0.958008	0.398438	0.0256348	-0.841721	0.09671	-0.0175662	0.53089	0.756831	-1.84274	10.9134	0.0128763	0.0166878	-0.0536732	0.136963	0.591309	-0.888916	-0.0468861	0.511101	0.847144	0.137571	2.12628	1.60084	-8.86998	-0.0061025	-0.00502987	0.00948492	-0.474121	0.23999	0.958984	-0.778266	-0.0332109	0.111964	0.616979	1.37726	1.9585	10.1959	-0.0083064	0.000912948	0.00277633	-0.0366211	0.208008	-1.08252	-0.135221	0.624243	0.769357	-0.0112205	1.9181	-1.84289	-9.38902	0.00596065	-0.00464207	0.00344652	-0.309326	0.704102	0.911621	
34	-0.548521	0.346436	0.366907	0.666698	9.01844	1.17277	5.06744	0.0364708	0.00893257	-0.00180204	-0.862061	0.30249	-0.436035	-0.674792	0.339068	0.354505	0.551376	8.52017	-0.638438	5.16438	0.0167725	0.0226756	-0.011588	-0.644287	0.371826	-0.470215	-0.776529	-0.0735381	0.145923	0.608523	1.35509	3.13997	10.2193	0.0051274	0.00614719	0.0206397	-0.10791	-0.0102539	-1.05591	-0.803845	0.136424	-0.0271453	0.578346	1.0309	-2.45872	9.38885	-0.00548591	-0.00189832	0.0221836	0.0808105	0.705811	-0.822754	-0.746172	0.276118	-0.110994	0.595538	1.61459	-5.36477	7.95827	0.00129961	0.00327331	0.00342401	-0.0305176	0.854004	-0.559082	-0.763237	-0.082191	0.0696426	0.637075	0.581003	0.495157	13.4861	-0.000977314	0.0255546	0.0131756	0.0844727	0.394531	-1.03467	-0.51762	0.481625	0.552764	0.441088	9.73079	-0.0791311	-0.745669	0.029917	0.00684912	-0.012187	-0.951416	0.396484	0.0212402	-0.841307	0.0971368	-0.0178476	0.531458	0.735561	-2.11849	10.8053	-0.0144683	0.0189482	-0.0401524	0.134766	0.593506	-0.888916	-0.0469691	0.511756	0.84682	0.137098	2.04299	1.70771	-8.76699	0.0217542	-0.00669705	0.00758718	-0.47876	0.23999	0.961182	-0.778381	-0.0332867	0.112023	0.61682	1.36589	2.06001	10.2594	0.00313867	0.0184718	0.0113542	-0.0432129	0.207764	-1.08252	-0.135266	0.624112	0.769456	-0.0111628	2.01308	-1.78394	-9.42365	0.00453621	0.0135329	-0.0129995	-0.307129	0.704102	0.918457	
35	-0.54883	0.34615	0.366947	0.66657	8.90676	1.26148	5.06364	0.00463963	0.00155148	0.00811073	-0.85083	0.300537	-0.442383	-0.674852	0.339075	0.354367	0.551387	8.60523	-0.717862	5.13498	-0.0032423	0.0157362	-0.0165704	-0.644531	0.376221	-0.468018	-0.776789	-0.0734265	0.145769	0.608242	1.56086	3.14391	10.2309	0.00087043	0.0119547	0.00971555	-0.103516	-0.0146484	-1.05811	-0.804071	0.136716	-0.0272013	0.577961	1.16766	-2.41836	9.49404	-0.00938406	-0.000162613	0.0159557	0.0786133	0.705811	-0.820557	-0.746335	0.276002	-0.110847	0.595416	1.60598	-5.32305	8.02963	0.0164801	0.000116026	0.00210615	-0.026123	0.854004	-0.559082	-0.763545	-0.0821468	0.0694126	0.636736	0.536852	0.501557	13.5301	0.00786293	0.0228687	-0.00271572	0.0908203	0.396729	-1.03052	-0.517331	0.481899	0.553541	0.440152	9.81409	-0.160082	-0.770861	0.0584312	-0.0364423	-0.0136615	-0.95166	0.400635	0.0253906	-0.84117	0.0972306	-0.0177643	0.531661	0.746678	-2.13107	10.8216	0.000766802	0.0103933	-0.0343049	0.130371	0.593262	-0.886719	-0.0466492	0.512049	0.84667	0.137037	2.12058	1.68246	-8.83056	-0.00318478	-0.00806072	-0.0127478	-0.476807	0.246826	0.956787	-0.778397	-0.0333994	0.112033	0.616792	1.28364	2.04209	10.1238	0.0072756	0.0193428	0.0052157	-0.043457	0.212158	-1.07812	-0.135326	0.624084	0.76947	-0.0110832	1.93595	-1.72228	-9.3249	0.00126511	0.0129409	-0.00823087	-0.304688	0.69751	0.918457	
36	-0.548806	0.346257	0.366821	0.666604	8.94867	1.14476	5.07317	-0.0127368	-0.00416426	0.00196192	-0.855225	0.29834	-0.433838	-0.674983	0.338873	0.354623	0.551186	8.50949	-0.681701	5.1718	0.0138466	0.0110423	-0.0149728	-0.639893	0.367432	-0.467773	-0.776902	-0.0733442	0.145577	0.608154	1.5122	3.06065	10.1643	-0.00223994	0.0112988	0.00462654	-0.109863	-0.0124512	-1.05811	-0.804142	0.136772	-0.027224	0.577848	1.1065	-2.44841	9.38358	-0.00297917	0.00476089	0.0122396	0.0786133	0.705811	-0.829346	-0.746551	0.275941	-0.110956	0.595153	1.52018	-5.34064	8.0037	0.00555137	0.010155	0.00215444	-0.0239258	0.856201	-0.565918	-0.763611	-0.0822413	0.0693479	0.636651	0.490282	0.493698	13.5453	0.00640853	0.024492	-0.00915395	0.0864258	0.398682	-1.03271	-0.517325	0.481751	0.553982	0.439766	9.72745	-0.109936	-0.776839	0.0407361	0.00177946	-0.0200457	-0.955811	0.396484	0.0256348	-0.841019	0.0972578	-0.0175908	0.531901	0.776139	-1.97749	10.8999	0.00399029	0.0145113	-0.0216105	0.13501	0.586914	-0.891357	-0.0465292	0.512143	0.84662	0.137037	2.10011	1.6396	-8.84497	-0.000802338	-0.0043519	-0.0130418	-0.476562	0.244629	0.958984	-0.778442	-0.03356	0.112047	0.616723	1.33624	2.04137	10.1526	0.00565888	0.0109099	0.00448379	-0.0410156	0.210205	-1.08032	-0.135239	0.624063	0.769501	-0.0111154	1.93663	-1.79003	-9.33902	0.000931994	2.7191e-06	-0.00565021	-0.307129	0.701904	0.918457	
37	-0.548754	0.346382	0.366302	0.666867	9.01895	1.04116	5.11964	-0.00497616	0.0150599	-0.00303397	-0.855225	0.300537	-0.442627	-0.674963	0.338804	0.354966	0.551032	8.57931	-0.645897	5.17076	0.00810428	0.0107965	-0.0217915	-0.640381	0.378174	-0.470459	-0.777021	-0.0732681	0.145374	0.608059	1.37199	3.18259	10.2846	-0.0170037	0.0116243	0.00544392	-0.112061	-0.0146484	-1.05127	-0.80416	0.13646	-0.0274415	0.577886	1.02307	-2.50462	9.40398	0.00197229	0.0159441	-8.72108e-05	0.0805664	0.710205	-0.822754	-0.746708	0.275725	-0.111133	0.595023	1.56585	-5.34198	8.01589	0.00402089	0.0151898	0.000244285	-0.0217285	0.854004	-0.563477	-0.763606	-0.0827181	0.0691849	0.636613	0.55529	0.447891	13.4456	0.0130814	0.0239566	-0.0192014	0.0910645	0.392334	-1.03247	-0.51694	0.482012	0.554117	0.439763	9.77169	-0.123655	-0.866938	-0.0153898	-0.00351654	-0.0206814	-0.953613	0.398438	0.0275879	-0.84107	0.0976449	-0.0175299	0.531751	0.769436	-2.00806	10.873	-0.00598921	0.00662884	-0.00863259	0.136963	0.591309	-0.891357	-0.0462291	0.512113	0.846708	0.136708	2.05656	1.74374	-8.79666	0.00851979	-0.0089121	-0.0254704	-0.474609	0.249268	0.958984	-0.778409	-0.0335128	0.112077	0.616762	1.31604	2.0382	10.222	-0.0037895	0.0166932	0.00100961	-0.0412598	0.216797	-1.08032	-0.135095	0.624062	0.769526	-0.0112497	1.98373	-1.79189	-9.39933	0.0050053	-0.00181399	-0.00516232	-0.311523	0.701904	0.913818	
38	-0.548857	0.34617	0.366278	0.666906	8.94463	1.07585	5.12471	0.0101163	0.0124384	-0.00333786	-0.855225	0.300537	-0.44043	-0.675022	0.338734	0.354905	0.551042	8.57863	-0.643009	5.18798	-0.00388734	0.0218776	-0.0168895	-0.637939	0.371826	-0.468018	-0.777021	-0.0732681	0.145374	0.608059	1.37199	3.18259	10.2846	-0.0170037	0.0116243	0.00544392	-0.112061	-0.0146484	-1.05127	-0.804224	0.136408	-0.0274201	0.57781	1.04939	-2.43574	9.36262	0.00614887	0.00726649	0.00916699	0.0783691	0.708008	-0.820557	-0.747023	0.275173	-0.110874	0.594932	1.5778	-5.20554	7.98135	0.0292915	0.00979725	-0.00570127	-0.0239258	0.854004	-0.556641	-0.763653	-0.0826901	0.0689992	0.636581	0.564057	0.445061	13.3851	-0.00789638	0.0252851	-0.0134633	0.0908203	0.394531	-1.03027	-0.516882	0.482027	0.554258	0.439637	9.77951	-0.134105	-0.767167	0.0219771	-0.00273147	-0.0180599	-0.953613	0.396484	0.0319824	-0.84114	0.0976633	-0.0174183	0.531641	0.773319	-2.03111	10.8989	0.00784646	0.00881959	-0.00514289	0.132812	0.589111	-0.891357	-0.0461617	0.512039	0.846772	0.136613	2.08751	1.7255	-8.82667	0.00958926	-0.00311291	-0.0285009	-0.476807	0.249268	0.956787	-0.778401	-0.0335032	0.112094	0.616769	1.32606	2.00122	10.1799	0.000729686	0.012384	0.00314715	-0.043457	0.214355	-1.07593	-0.135054	0.624082	0.769516	-0.0112602	1.94957	-1.78002	-9.36238	0.000193009	0.00290251	-0.00392893	-0.313477	0.695068	0.918457	
39	-0.54915	0.345973	0.366321	0.666743	8.966	1.17451	5.16788	0.0106177	0.00238541	0.00766319	-0.855469	0.300293	-0.433838	-0.67497	0.338928	0.354697	0.55112	8.58758	-0.724883	5.20587	-0.0159477	0.00784	-0.0189427	-0.642334	0.375977	-0.470459	-0.777024	-0.0732692	0.145356	0.60806	1.4471	3.13572	10.2387	0.00806064	0.00220143	0.00229252	-0.103516	-0.0146484	-1.05811	-0.804212	0.13699	-0.0275305	0.577684	1.08592	-2.46898	9.41616	-0.0238778	-0.00489449	0.00237174	0.0827637	0.710205	-0.818359	-0.746649	0.275604	-0.111545	0.595076	1.54598	-5.4264	7.97326	-0.0457704	0.0228028	-0.0242425	-0.0239258	0.854004	-0.565918	-0.763903	-0.082708	0.0688002	0.6363	0.528693	0.431982	13.3561	0.00798181	0.0180614	-0.00473406	0.0927734	0.398682	-1.03467	-0.516313	0.482647	0.554344	0.439518	9.81935	-0.131394	-0.864711	-0.00835483	-0.0145687	-0.0126243	-0.953613	0.396484	0.0319824	-0.841276	0.0977875	-0.0173649	0.531405	0.739578	-2.02043	10.899	0.000856236	0.0140169	-0.00326213	0.130371	0.593262	-0.888916	-0.0460488	0.511835	0.846906	0.136582	2.12022	1.75576	-8.79169	0.00308909	0.00376155	-0.0290641	-0.465088	0.242432	0.961182	-0.778432	-0.0336978	0.112299	0.616683	1.34369	2.06421	10.2464	0.0138325	0.0109543	0.00739549	-0.0410156	0.208008	-1.07349	-0.134812	0.623999	0.769628	-0.0111625	1.98882	-1.83045	-9.38997	-0.00403825	0.000421725	-0.0110917	-0.311523	0.699707	0.913818	
40	-0.549039	0.346252	0.366319	0.66669	8.96031	1.17561	5.16959	-0.0123236	-0.0208489	-0.00142924	-0.855469	0.304688	-0.436035	-0.674792	0.33907	0.354815	0.551175	8.58911	-0.660351	5.20029	-0.010707	0.00766548	-0.0219323	-0.639893	0.369629	-0.467773	-0.776945	-0.072863	0.145319	0.608219	1.50415	3.06002	10.2624	-0.0126183	-0.00734387	-0.00390886	-0.109863	-0.0102539	-1.05151	-0.804148	0.136896	-0.0273168	0.577806	1.12921	-2.45123	9.46677	0.0182055	0.00667318	-0.0102177	0.0825195	0.7146	-0.827148	-0.746707	0.275434	-0.111171	0.595152	1.51617	-5.47854	8.0037	0.0293802	-0.0054716	-0.0199144	-0.0305176	0.854004	-0.561279	-0.763687	-0.0825712	0.0692395	0.63653	0.496119	0.463343	13.437	0.00891619	-0.0106552	-0.0302912	0.088623	0.396729	-1.03052	-0.516181	0.482695	0.5543	0.439674	9.78894	-0.0859838	-0.764076	0.014883	0.00948027	-0.0220714	-0.953613	0.396484	0.027832	-0.841344	0.0976548	-0.0172693	0.531325	0.713895	-2.04603	10.9396	0.0102572	0.017976	-0.012412	0.128174	0.593262	-0.886719	-0.0458793	0.51172	0.84697	0.136678	2.15034	1.75044	-8.8484	-0.0040782	0.00137411	-0.0258184	-0.476807	0.246826	0.956787	-0.778484	-0.0337677	0.112297	0.616613	1.35295	2.01428	10.2589	0.000490586	0.0154073	0.00530634	-0.043457	0.212158	-1.07812	-0.134821	0.623911	0.769698	-0.0110826	1.95377	-1.80292	-9.40751	0.00206697	0.00944995	-0.00979339	-0.307129	0.699707	0.913818	
41	-0.548532	0.34684	0.36624	0.666846	9.00964	1.04273	5.16207	-0.0204267	-0.0198235	-0.0135993	-0.855469	0.304688	-0.438232	-0.674709	0.338939	0.355121	0.55116	8.60375	-0.66708	5.22785	0.000534064	0.0091164	-0.0276848	-0.64209	0.367432	-0.465332	-0.776842	-0.0730666	0.14574	0.608226	1.37114	3.23884	10.3109	0.0147084	-0.00488309	-0.00360475	-0.109863	-0.0168457	-1.05811	-0.803952	0.136981	-0.0271664	0.578066	1.01861	-2.50902	9.43283	0.00560948	-0.000421654	-0.00946976	0.0830078	0.705811	-0.822754	-0.746234	0.275769	-0.110885	0.595643	1.5838	-5.43475	7.97754	-0.0108857	0.00450944	-0.0298188	-0.0302734	0.851807	-0.552246	-0.763363	-0.0826594	0.0701908	0.636803	0.569354	0.507735	13.5722	0.0315424	-0.0115758	-0.0317782	0.0842285	0.396484	-1.03467	-0.515884	0.482823	0.554459	0.439682	9.83658	-0.141295	-0.802727	-0.00106857	0.00145872	-0.0218114	-0.951172	0.394287	0.036377	-0.841326	0.0976689	-0.0173832	0.531347	0.742023	-2.0272	10.8584	0.00128339	0.0230799	-0.0155696	0.134766	0.593506	-0.888916	-0.0459031	0.511702	0.846954	0.136828	2.06491	1.73157	-8.79705	-0.000463486	0.00938914	-0.0191773	-0.474609	0.249268	0.958984	-0.778435	-0.0338719	0.112451	0.616641	1.36121	2.04772	10.1837	0.00629528	0.0111254	0.000161634	-0.0410156	0.210205	-1.07788	-0.134728	0.623907	0.76972	-0.0109204	1.9459	-1.73742	-9.37321	-0.00654013	0.00603732	-0.00519336	-0.309082	0.69751	0.914062	
42	-0.548169	0.346909	0.366623	0.666898	8.96042	1.14922	5.13439	0.00816145	-0.0171829	-0.0109779	-0.853027	0.29834	-0.436035	-0.674616	0.339051	0.354998	0.551284	8.5634	-0.580591	5.17319	-0.0238615	0.0162927	-0.0220756	-0.644287	0.371826	-0.463135	-0.77676	-0.0726834	0.145838	0.608352	1.46844	3.10449	10.2846	-0.005926	-0.0017641	-0.00728424	-0.110107	-0.00805664	-1.05371	-0.803864	0.137311	-0.0270948	0.578113	1.09857	-2.50922	9.44395	-0.0117539	-0.00283564	-0.0025066	0.0805664	0.712402	-0.824951	-0.746081	0.275704	-0.110249	0.595983	1.55768	-5.16561	8.11658	-0.0157333	0.00326431	-0.0363378	-0.0280762	0.847412	-0.561279	-0.763114	-0.0823946	0.070478	0.637104	0.531561	0.458606	13.5875	0.00699716	0.0013639	-0.0258818	0.0820312	0.400879	-1.03271	-0.515591	0.483153	0.554588	0.439501	9.72607	-0.0593108	-0.748914	0.019008	-0.0180542	-0.0111969	-0.955811	0.400635	0.0275879	-0.841282	0.0975997	-0.0172549	0.531434	0.733931	-2.02286	10.8598	0.0102564	0.0132585	-0.0208324	0.13501	0.589111	-0.891357	-0.045723	0.51167	0.846946	0.13706	2.08894	1.76103	-8.77158	-0.0120418	0.00099932	-0.0245124	-0.474121	0.23999	0.96582	-0.778286	-0.0340381	0.112655	0.616782	1.36847	2.10372	10.2221	0.00978101	0.0111296	-0.00586194	-0.0410156	0.210205	-1.07788	-0.134668	0.62404	0.769627	-0.0106129	1.96988	-1.79752	-9.39159	-0.00566195	0.0132007	0.00216569	-0.313477	0.695068	0.914062	
43	-0.54803	0.34715	0.366889	0.66674	8.92201	1.18182	5.11916	-0.000522269	-0.0210634	-0.00244186	-0.859863	0.30249	-0.44043	-0.67413	0.339286	0.354536	0.55203	8.55267	-0.690456	5.18426	-0.0100117	0.00931301	-0.0303186	-0.640137	0.376221	-0.46582	-0.776626	-0.0725384	0.145904	0.608525	1.44987	3.13939	10.2163	-0.0111695	-0.00286024	-0.00738089	-0.109863	-0.0102539	-1.05591	-0.803757	0.137524	-0.0271427	0.578209	1.08627	-2.47285	9.44463	-0.0114958	0.00926854	-0.00755045	0.0742188	0.703613	-0.82251	-0.745726	0.275962	-0.11064	0.596235	1.56897	-5.3646	8.04641	-0.0400297	0.0272882	-0.0368282	-0.0214844	0.847412	-0.561279	-0.762982	-0.0825259	0.0707294	0.637217	0.545496	0.505672	13.5622	0.0166992	0.0140855	-0.0292842	0.0905762	0.403076	-1.03271	-0.51522	0.483497	0.554603	0.439539	9.77619	-0.132431	-0.755047	1.18395e-05	0.00758489	-0.0175727	-0.951416	0.398438	0.0297852	-0.841263	0.0972735	-0.0170478	0.531529	0.718543	-1.95941	10.905	0.018479	0.0195139	-0.0198199	0.130615	0.591064	-0.886719	-0.0453395	0.511618	0.846931	0.137473	2.10797	1.71966	-8.80685	-0.0153417	0.00213899	-0.0226168	-0.471924	0.244629	0.956787	-0.778078	-0.0341796	0.112846	0.617003	1.32727	2.05283	10.1621	0.00872105	0.0107315	-0.0102436	-0.0410156	0.210205	-1.08032	-0.134666	0.624131	0.769556	-0.0104529	1.96291	-1.74782	-9.38409	-0.00792862	0.0138428	0.00356113	-0.306885	0.69751	0.91626	
44	-0.547561	0.347796	0.367048	0.666701	8.97569	1.19704	5.11518	-0.0224842	-0.0345237	-0.00515151	-0.857666	0.300293	-0.438232	-0.673749	0.339707	0.354382	0.552336	8.55307	-0.646393	5.1364	-0.0257421	-0.00323699	-0.0295282	-0.637939	0.371826	-0.460938	-0.776432	-0.0725139	0.145967	0.60876	1.48078	3.18142	10.2679	0.0076605	-0.00165908	-0.0174241	-0.10791	-0.0102539	-1.06055	-0.803573	0.137326	-0.0271451	0.578512	1.10873	-2.42081	9.4779	0.00466432	0.014102	-0.012506	0.0761719	0.708008	-0.820557	-0.745741	0.275237	-0.109976	0.596675	1.57524	-5.23976	8.03885	0.0429403	0.00623933	-0.0296501	-0.026123	0.854004	-0.565918	-0.762578	-0.0824464	0.0705475	0.637731	0.551368	0.44227	13.5011	-0.00743753	0.0162609	-0.0429802	0.0888672	0.394531	-1.02808	-0.514835	0.483903	0.554666	0.439463	9.73285	-0.0609477	-0.879566	-0.000992649	-0.0220714	-0.0155353	-0.953369	0.394287	0.0319824	-0.84123	0.0972999	-0.0170429	0.531578	0.708004	-1.94711	10.8711	0.00253592	0.0173284	-0.0186498	0.134766	0.593262	-0.886719	-0.0448863	0.511618	0.846911	0.137749	2.0483	1.8064	-8.76734	-0.0110092	-0.00889105	-0.0236829	-0.469482	0.23999	0.961426	-0.777899	-0.0339796	0.112776	0.617253	1.29483	1.97706	10.1429	-0.0136564	0.00655968	-0.00462964	-0.0456543	0.212158	-1.07568	-0.134818	0.624319	0.769378	-0.0103587	1.96389	-1.83519	-9.35386	0.0155723	0.0141478	0.00545653	-0.309082	0.69751	0.914062	
45	-0.546879	0.348607	0.367157	0.666778	9.01013	1.15467	5.08545	-0.0224621	-0.0370464	-0.015856	-0.860107	0.304688	-0.429688	-0.673173	0.340236	0.354141	0.552866	8.54444	-0.632652	5.19371	-0.0662059	0.0188356	-0.0342472	-0.644531	0.378418	-0.463379	-0.77623	-0.0723846	0.146028	0.609019	1.38048	3.08144	10.2035	-0.000566325	-0.00148685	-0.0116286	-0.109863	-0.0124512	-1.05591	-0.803301	0.137342	-0.0271902	0.578882	1.08443	-2.4931	9.34437	-0.0039962	0.0122919	-0.0157324	0.0783691	0.710205	-0.818359	-0.745157	0.275418	-0.110465	0.59723	1.57883	-5.27457	8.0154	0.0393607	0.00703233	-0.0343401	-0.0258789	0.851807	-0.561279	-0.762159	-0.0826235	0.0707881	0.638182	0.537955	0.508759	13.4331	0.00891685	0.00941443	-0.0366195	0.0883789	0.400879	-1.03491	-0.514439	0.484233	0.554407	0.43989	9.71185	-0.0744159	-0.713811	-0.0194164	-0.00175104	-0.0201857	-0.953613	0.39624	0.0427246	-0.840938	0.0974079	-0.0169472	0.532022	0.731576	-1.95311	10.8965	-0.00422252	0.0108688	-0.0337121	0.132568	0.593262	-0.886719	-0.044405	0.511908	0.846748	0.137824	2.08994	1.82374	-8.79809	-0.00795101	-0.0103088	-0.00700919	-0.467285	0.242432	0.958984	-0.777724	-0.0339323	0.112748	0.61748	1.37367	2.02711	10.2203	0.00384365	0.0156934	-0.00437131	-0.0410156	0.205811	-1.07788	-0.135019	0.624634	0.769088	-0.0102942	1.96083	-1.79028	-9.37367	0.00401552	0.00948715	0.00568063	-0.311035	0.690674	0.91626	
46	-0.546519	0.348996	0.367141	0.666878	9.08969	1.21358	5.10876	-0.0295987	-0.0312712	-0.0133439	-0.855469	0.30249	-0.431641	-0.672878	0.340438	0.35446	0.552897	8.53713	-0.578824	5.10209	-0.0111243	-0.0197244	-0.0357814	-0.646484	0.369629	-0.458496	-0.776101	-0.0724182	0.146169	0.609144	1.52177	3.16099	10.2053	0.0092445	-0.00426405	-0.0147935	-0.109863	-0.0146484	-1.05371	-0.803184	0.137143	-0.0270625	0.579099	1.13641	-2.4322	9.36872	0.0192986	0.0108102	-0.0188741	0.0761719	0.710205	-0.822754	-0.744945	0.275366	-0.110391	0.597532	1.55553	-5.21393	8.09585	0.00446823	0.014248	-0.0410601	-0.0351562	0.860596	-0.561279	-0.762075	-0.0826146	0.0707867	0.638283	0.55763	0.436868	13.4025	0.00383881	0.0132088	-0.0271711	0.088623	0.398682	-1.03271	-0.514496	0.484183	0.554175	0.440171	9.7523	0.0199126	-0.858812	-0.000842004	0.0364466	-0.0192401	-0.949219	0.396484	0.0297852	-0.840818	0.0973753	-0.0168938	0.532219	0.741451	-2.06421	10.9147	0.00825635	0.0176409	-0.0327914	0.132812	0.586914	-0.888916	-0.0440498	0.512052	0.84665	0.138006	2.10244	1.89825	-8.80885	-0.0232753	-0.0127834	-0.0115027	-0.471924	0.242432	0.961182	-0.777714	-0.0338781	0.11269	0.617507	1.37863	2.14562	10.218	-0.00678208	0.0146332	0.00160415	-0.0388184	0.210205	-1.07788	-0.135195	0.624641	0.769051	-0.0103602	1.96751	-1.85692	-9.39255	0.0162092	0.0131792	-0.00128588	-0.306885	0.69751	0.914062	
47	-0.545777	0.349878	0.367067	0.667065	8.96354	1.07601	5.06984	-0.0274905	-0.0394958	-0.0178704	-0.860107	0.304688	-0.421143	-0.67239	0.340468	0.355267	0.552955	8.73969	-0.658333	5.1577	0.0057567	-0.0049526	-0.0416062	-0.642334	0.374023	-0.468018	-0.775738	-0.0722188	0.146408	0.609573	1.52348	3.09848	10.2662	0.000404988	-0.0158535	-0.0173143	-0.114258	-0.00585938	-1.05371	-0.802999	0.137029	-0.0266166	0.579402	1.15921	-2.43257	9.36417	0.0233547	-0.0067851	-0.0181507	0.0808105	0.708008	-0.822754	-0.744739	0.275233	-0.109981	0.597925	1.58814	-5.4181	8.07334	0.0409777	-0.00981854	-0.0342478	-0.0327148	0.856201	-0.561279	-0.7618	-0.0825896	0.0715734	0.638528	0.537394	0.466027	13.4482	0.0268741	-0.0204034	-0.0311641	0.0820312	0.398682	-1.03271	-0.514193	0.484328	0.553677	0.440992	9.95627	-0.153793	-0.978694	-0.0304732	0.0186677	-0.028017	-0.960205	0.400635	0.0361328	-0.840726	0.0969948	-0.0165779	0.532444	0.73789	-2.15766	10.9176	0.0424491	0.0150562	-0.0354266	0.130371	0.593506	-0.891357	-0.0427044	0.512185	0.84647	0.139036	2.063	1.95859	-8.79748	-0.068313	-0.0237132	-0.0233723	-0.469482	0.23999	0.96582	-0.777583	-0.0331442	0.11229	0.617784	1.28311	2.1099	10.149	-0.04215	0.00346029	-0.0140058	-0.0454102	0.207764	-1.08032	-0.13576	0.624929	0.768711	-0.0108265	1.94736	-1.67858	-9.33014	0.0303596	0.0119768	0.02331	-0.309326	0.699707	0.911621	
48	-0.544819	0.350596	0.367895	0.667015	9.09435	1.09683	4.98233	0.00323721	-0.0511789	-0.0282549	-0.862305	0.304688	-0.425293	-0.672393	0.340196	0.355541	0.552942	8.54912	-0.585521	5.1132	0.0134373	0.0160529	-0.0224409	-0.646729	0.376221	-0.460938	-0.775522	-0.0726193	0.147248	0.609599	1.58851	3.32036	10.1893	0.0279557	-0.00842898	-0.0069184	-0.109863	-0.0146484	-1.05811	-0.802703	0.137474	-0.0262854	0.579723	1.19566	-2.54812	9.47018	-0.0133971	-0.0118048	-0.0136643	0.0827637	0.710205	-0.820557	-0.744553	0.275368	-0.109443	0.598193	1.58768	-5.16291	8.0279	-0.0235891	0.000856558	-0.024389	-0.0305176	0.854004	-0.563477	-0.761433	-0.0825988	0.0725467	0.638854	0.584605	0.538782	13.6638	0.0246954	-0.0086396	-0.031435	0.0844727	0.396484	-1.03247	-0.514394	0.484111	0.553341	0.441417	9.7354	-0.0474021	-0.796877	0.00190446	0.0443664	-0.0181615	-0.951416	0.396484	0.0297852	-0.840125	0.0950695	-0.0152105	0.533779	0.779048	-1.71951	10.8973	0.0472341	0.013163	-0.0559234	0.13501	0.584717	-0.891113	-0.0416493	0.51248	0.846157	0.14017	2.04739	1.591	-8.88241	-0.0403579	-0.00691198	-0.00558425	-0.460205	0.237793	0.963623	-0.777198	-0.0326557	0.112158	0.618319	1.41145	1.98609	10.3216	-0.0156866	0.00497449	-0.0209003	-0.043457	0.212158	-1.07349	-0.135953	0.625532	0.768185	-0.0108753	1.97205	-1.7823	-9.43586	-0.000570059	0.014567	0.0245755	-0.304688	0.69751	0.911621	
49	-0.544482	0.350255	0.368697	0.667025	8.97945	1.19335	4.93414	0.0315521	-0.00865676	-0.0253652	-0.861816	0.298096	-0.425293	-0.672363	0.340146	0.355684	0.552917	8.51327	-0.590006	5.09888	-0.00969473	0.00469395	-0.0192857	-0.644287	0.371826	-0.470215	-0.775449	-0.0722519	0.147202	0.609746	1.4571	3.0132	10.3059	0.00653646	0.00698154	-0.00340244	-0.114258	-0.012207	-1.05591	-0.802702	0.137268	-0.0260374	0.579784	1.12679	-2.46715	9.56086	0.00646231	0.00928728	-0.00385066	0.0715332	0.712158	-0.820557	-0.744377	0.275325	-0.109612	0.598401	1.68381	-5.24369	8.06215	-0.0062283	0.0228215	-0.020852	-0.0327148	0.854004	-0.565918	-0.761477	-0.0824545	0.0721679	0.638862	0.64343	0.463332	13.568	-0.0110353	0.0294706	-0.0129341	0.0888672	0.392334	-1.03467	-0.514509	0.484141	0.553043	0.441624	9.66148	-0.109364	-0.871234	0.00695785	0.00852577	-0.0081063	-0.955566	0.394287	0.0297852	-0.839789	0.0953634	-0.0152901	0.534254	0.813048	-2.0233	10.7831	-0.0127439	0.0184476	-0.0335911	0.130615	0.586914	-0.895996	-0.0413831	0.512948	0.845926	0.139934	1.98516	1.84251	-8.73025	0.00933991	-0.0127906	-0.00256921	-0.464844	0.237793	0.96582	-0.776849	-0.0325287	0.11199	0.618793	1.36572	1.9743	10.1763	-0.0107618	0.0187716	-0.0178276	-0.0456543	0.209961	-1.07788	-0.136337	0.626005	0.767735	-0.0106507	1.97993	-1.73908	-9.37467	0.00167438	0.0275415	0.0184095	-0.309082	0.69751	0.911621	
50	-0.544455	0.349957	0.369241	0.666903	8.94043	1.31133	4.96445	0.0155781	-0.013684	-0.00778827	-0.853271	0.300293	-0.42749	-0.672261	0.340282	0.355456	0.553104	8.55782	-0.660381	5.01423	-0.0173381	0.0277111	-0.0217627	-0.644531	0.374023	-0.463379	-0.77537	-0.0724035	0.146835	0.609917	1.5601	3.23331	10.2021	-0.042699	0.0153021	-0.0161564	-0.109863	-0.0102539	-1.05591	-0.802716	0.137289	-0.0264766	0.579739	1.16853	-2.4818	9.47356	0.00256058	0.0249122	0.010796	0.0827637	0.710205	-0.816162	-0.74448	0.27456	-0.109525	0.598641	1.57869	-5.25437	7.96704	0.0471312	0.0198257	-0.0121095	-0.0324707	0.849609	-0.563477	-0.76145	-0.082707	0.0717457	0.63891	0.545848	0.569814	13.4978	-0.00125165	0.0361117	-0.0290179	0.0800781	0.396484	-1.03467	-0.515004	0.483712	0.552702	0.441943	9.71433	-0.0743183	-0.817994	0.0121544	0.0372186	-0.00875421	-0.953613	0.396484	0.0297852	-0.839524	0.0952209	-0.0150662	0.534701	0.792839	-1.90602	10.8484	0.0224057	0.0162491	-0.0318018	0.128418	0.586914	-0.893555	-0.0409765	0.513284	0.845742	0.139931	2.03446	1.77563	-8.79803	-0.00827701	-0.00948982	-0.0106598	-0.467041	0.235596	0.96582	-0.776517	-0.0327093	0.111989	0.619201	1.3197	2.04713	10.1092	0.00576342	0.0145703	-0.017455	-0.043457	0.214355	-1.07593	-0.136456	0.62633	0.767453	-0.0103519	1.92952	-1.80133	-9.29814	-0.00545194	0.0143636	0.0115452	-0.311523	0.699707	0.902588	
51	-0.544066	0.350383	0.369276	0.666978	9.00958	1.27399	4.96277	-0.0230593	-0.0206817	-0.0114797	-0.864014	0.298096	-0.423096	-0.672119	0.340428	0.355465	0.553182	8.60627	-0.67177	5.08506	-0.00331142	-0.00711174	-0.0216566	-0.648926	0.374023	-0.463379	-0.77523	-0.0725915	0.146174	0.610231	1.54504	3.09999	10.1902	0.00994011	0.0317613	-0.0125215	-0.110107	-0.00805664	-1.05371	-0.802606	0.136973	-0.027217	0.579932	1.19086	-2.4399	9.37366	-0.00199534	0.0460101	-0.0126709	0.0786133	0.705811	-0.820557	-0.744461	0.274332	-0.109662	0.598743	1.62201	-5.1148	8.06725	0.00726823	0.0291101	-0.0131135	-0.0324707	0.851807	-0.561279	-0.761269	-0.0829039	0.0710769	0.639174	0.587851	0.486618	13.4394	0.00291052	0.0384191	-0.0329727	0.0822754	0.396484	-1.03027	-0.515198	0.483762	0.552267	0.442207	9.77755	-0.126052	-0.83471	0.00669635	0.0368135	-0.00865653	-0.955566	0.394287	0.0256348	-0.839452	0.095189	-0.0150571	0.534821	0.804175	-1.84794	10.8903	0.00620882	0.0200076	-0.0253514	0.126221	0.589111	-0.891357	-0.0406938	0.513537	0.845632	0.139753	2.01088	1.82392	-8.81519	0.00651959	-0.0118227	-0.0108361	-0.462402	0.235596	0.963623	-0.776288	-0.0327906	0.112088	0.619466	1.34629	1.98983	10.2127	0.00438876	0.0124906	-0.0107827	-0.0476074	0.205566	-1.07568	-0.136447	0.626459	0.767349	-0.0103209	1.96344	-1.7905	-9.31221	-0.00132273	0.00722989	0.00889911	-0.304688	0.699707	0.91626	
52	-0.543589	0.351172	0.36894	0.667138	9.05523	1.15094	4.9801	-0.0363575	-0.0230591	0.00231553	-0.85791	0.304688	-0.420898	-0.672108	0.340468	0.355258	0.553303	8.61578	-0.630989	5.11528	-0.0134345	0.013884	-0.0185623	-0.64209	0.371826	-0.460938	-0.775142	-0.071868	0.144971	0.610716	1.47567	3.2831	10.2545	-0.0789951	0.022362	-0.0220064	-0.110107	-0.00585938	-1.05615	-0.802294	0.137358	-0.02851	0.580211	1.17284	-2.6248	9.17267	-0.0648015	0.0387818	-0.0015317	0.0803223	0.7146	-0.820557	-0.744091	0.274536	-0.110789	0.598902	1.5593	-5.38534	7.9993	-0.0118608	0.0305986	-0.013814	-0.0258789	0.851807	-0.563477	-0.760788	-0.0831555	0.0705588	0.639772	0.5468	0.478793	13.3751	-0.00358265	0.0264422	-0.0412502	0.0864258	0.396484	-1.03687	-0.515342	0.483764	0.551882	0.442517	9.81216	-0.0677357	-0.855358	-0.00581902	0.0298845	-0.012437	-0.951416	0.394287	0.0234375	-0.839317	0.0952562	-0.0151867	0.535016	0.815363	-1.97648	10.9063	0.00709784	0.0221509	-0.0168479	0.128418	0.589111	-0.893555	-0.040513	0.513728	0.845531	0.139712	2.02184	1.83622	-8.81965	0.00106538	-0.000504667	-0.0140977	-0.462646	0.240234	0.959229	-0.776169	-0.0329524	0.112037	0.619615	1.34978	2.0045	10.229	0.00664238	0.0213186	-0.00185598	-0.0456543	0.209961	-1.08032	-0.136412	0.62665	0.767199	-0.0103132	2.00181	-1.83138	-9.39293	0.00128209	0.00646196	0.00179068	-0.309326	0.701904	0.918457	
53	-0.543335	0.351443	0.369071	0.667129	9.11468	1.15302	4.97856	0.00568529	-0.0127477	-0.0068529	-0.861816	0.295898	-0.42749	-0.672227	0.34063	0.354385	0.553619	8.67115	-0.628586	5.14494	-0.0359515	0.043085	-0.00733439	-0.644287	0.367432	-0.463135	-0.774935	-0.0721188	0.144792	0.610991	1.41805	3.12757	10.2857	0.0568226	0.010642	-0.00890945	-0.10791	-0.00585938	-1.05835	-0.802182	0.13707	-0.0287662	0.580421	1.08789	-2.35076	9.35402	-0.038677	0.0157152	-0.00484514	0.0761719	0.712402	-0.822754	-0.743861	0.274268	-0.11123	0.599229	1.67597	-5.18939	8.07842	-0.0405665	0.0290866	-0.0231728	-0.0283203	0.856201	-0.563477	-0.760634	-0.0829537	0.0699952	0.640043	0.60275	0.486504	13.4315	-0.0274324	0.0251061	-0.0250833	0.079834	0.398682	-1.03687	-0.515417	0.484209	0.551018	0.443019	9.84575	-0.129688	-0.770696	-0.0195299	0.0363582	0.00351528	-0.959961	0.394287	0.0319824	-0.83934	0.0951068	-0.0150992	0.535009	0.798694	-1.92462	10.9208	0.0103967	0.0159252	-0.013361	0.130615	0.586914	-0.893555	-0.0403991	0.513775	0.845492	0.139812	2.01259	1.77962	-8.84675	0.0018069	0.00358245	-0.0195608	-0.467285	0.242432	0.963623	-0.776196	-0.0330443	0.111974	0.619588	1.31584	1.99598	10.2213	0.00114831	0.0183292	0.00582582	-0.043457	0.212158	-1.08032	-0.136435	0.626592	0.767245	-0.010134	1.99832	-1.78264	-9.3847	-0.00224137	0.00923521	-0.0104803	-0.311523	0.699707	0.911621	
54	-0.543335	0.351443	0.369071	0.667129	9.11468	1.15302	4.97856	0.00568529	-0.0127477	-0.0068529	-0.861816	0.295898	-0.42749	-0.672362	0.340788	0.353686	0.553805	8.51687	-0.661926	5.1391	-0.0218128	0.0318665	-0.00948561	-0.637939	0.376221	-0.460938	-0.774871	-0.0720581	0.144729	0.611094	1.45482	3.32187	10.2797	-0.0062722	0.00453834	-0.0103969	-0.110107	-0.00585938	-1.05615	-0.802051	0.13746	-0.0290233	0.580497	1.05966	-2.52588	9.3402	-0.0370086	0.00687242	-0.00736083	0.0805664	0.712402	-0.820557	-0.743549	0.274705	-0.111795	0.599311	1.55433	-5.36771	8.02956	-0.0592461	0.0248949	-0.0229164	-0.0283203	0.854004	-0.559082	-0.760559	-0.0827912	0.0698844	0.640165	0.518785	0.440262	13.4071	-0.011697	0.0127727	-0.0275551	0.0842285	0.398682	-1.03052	-0.515923	0.484154	0.550403	0.443255	9.72106	-0.043592	-0.803769	-0.0024071	0.0404182	-0.00164332	-0.951172	0.39209	0.027832	-0.839359	0.0951715	-0.0151591	0.534967	0.814392	-1.93654	10.9199	-0.00272549	0.0190069	-0.0104071	0.124023	0.591064	-0.891357	-0.0404603	0.513768	0.845507	0.139729	2.02534	1.76676	-8.83837	0.0130531	0.00538524	-0.0205364	-0.47168	0.235352	0.963623	-0.776209	-0.0331832	0.111947	0.61957	1.38327	2.01773	10.237	0.00736473	0.0226992	0.00408398	-0.0410156	0.208008	-1.07788	-0.136392	0.626538	0.767299	-0.00997449	1.97683	-1.81907	-9.39991	-0.00858401	0.0098761	-0.011714	-0.307129	0.704102	0.911621	
55	-0.5438	0.351242	0.368863	0.666971	9.05361	1.29556	4.9861	-0.00511113	0.0112607	0.0186241	-0.864258	0.300293	-0.420898	-0.672432	0.340829	0.353491	0.553819	8.54292	-0.633247	5.14624	-0.0150873	0.0247705	-0.00954475	-0.644531	0.374023	-0.463379	-0.7747	-0.0714841	0.144325	0.611473	1.45239	3.05117	10.2199	-0.00717651	0.00599407	-0.0161388	-0.110107	-0.00366211	-1.05615	-0.801859	0.137627	-0.029281	0.58071	1.09103	-2.4734	9.37522	-0.0126997	0.0155208	-0.0127168	0.0805664	0.712402	-0.818359	-0.743285	0.27489	-0.112011	0.599514	1.59236	-5.25658	8.03895	-0.0219804	0.0143008	-0.0199561	-0.0327148	0.858398	-0.563477	-0.76025	-0.0823583	0.0696435	0.640615	0.549765	0.446747	13.4747	-0.0168883	0.00887255	-0.0440822	0.079834	0.400879	-1.03052	-0.515848	0.48443	0.550005	0.443534	9.73624	-0.0788509	-0.713994	-0.0266753	0.0253898	-0.00257454	-0.951416	0.396484	0.027832	-0.839427	0.0952421	-0.0153736	0.53484	0.772739	-1.92889	10.8872	-0.00230933	0.0232262	-0.00754687	0.130615	0.589111	-0.895996	-0.0407175	0.513637	0.845619	0.139458	1.99905	1.78331	-8.76676	0.0232869	0.00851092	-0.0240097	-0.462402	0.235596	0.961426	-0.776287	-0.0334804	0.11185	0.619473	1.29201	2.01619	10.1595	0.0068744	0.023989	0.00709066	-0.0432129	0.209961	-1.07788	-0.136416	0.626391	0.767419	-0.00960583	1.9494	-1.75783	-9.34894	-0.0102062	0.0142664	-0.0137574	-0.313721	0.697266	0.91626	
56	-0.544034	0.351403	0.367962	0.667194	8.90063	1.2197	5.00251	-0.0311597	0.0151306	0.0153524	-0.857422	0.295898	-0.423096	-0.672546	0.340981	0.352958	0.553926	8.57592	-0.664572	5.15723	-0.0249449	0.0305863	-0.00805209	-0.646729	0.374023	-0.465576	-0.774539	-0.0711416	0.144084	0.611775	1.50644	3.11309	10.2253	-0.0157083	0.00286115	-0.0138707	-0.10791	-0.00805664	-1.05371	-0.80157	0.137727	-0.0295875	0.581069	1.13673	-2.48457	9.39564	-0.00749329	0.0167515	-0.0145887	0.0827637	0.712402	-0.818359	-0.742945	0.275158	-0.112407	0.599738	1.55655	-5.2132	8.05984	-0.0200585	0.0204336	-0.0273959	-0.0280762	0.851807	-0.556641	-0.759968	-0.082037	0.0693901	0.641018	0.554461	0.437754	13.5093	-0.0172539	0.0118607	-0.0312247	0.0778809	0.396484	-1.03467	-0.516414	0.484279	0.549685	0.443438	9.79518	-0.122155	-0.742852	0.0333935	0.0298171	-0.00207623	-0.949219	0.396484	0.0297852	-0.839472	0.095549	-0.0156605	0.534708	0.733506	-1.91054	10.8215	-0.0209135	0.0190809	-0.00971807	0.132568	0.591309	-0.891357	-0.0410628	0.513626	0.845715	0.138806	2.02211	1.81417	-8.74183	0.0379513	-0.00059281	-0.0207861	-0.464844	0.237793	0.961426	-0.776285	-0.0337579	0.111827	0.619465	1.31504	2.03944	10.1524	0.009811	0.0200526	0.0018341	-0.0454102	0.207764	-1.07568	-0.136159	0.626291	0.767552	-0.00921361	1.97635	-1.75956	-9.3349	-0.0150675	0.00413311	-0.0100609	-0.309082	0.695312	0.91626	
57	-0.544063	0.351779	0.367086	0.667454	9.01124	1.12838	5.04872	-0.0304736	0.0127738	0.00950545	-0.862061	0.30249	-0.423096	-0.672749	0.341139	0.352255	0.55403	8.51229	-0.621088	5.14588	-0.0265055	0.0294952	-0.00443025	-0.642334	0.375977	-0.4729	-0.774291	-0.0709784	0.143948	0.61214	1.36438	3.07729	10.2306	-0.00913493	0.00175735	-0.0169905	-0.114258	-0.00585938	-1.06055	-0.801331	0.138028	-0.0300223	0.581305	1.03087	-2.50006	9.37438	-0.0191766	0.0175433	-0.00862211	0.0759277	0.7146	-0.820557	-0.742688	0.275345	-0.112997	0.599859	1.57249	-5.3632	7.96124	0.00475884	0.0132712	-0.00873356	-0.0302734	0.851807	-0.556641	-0.759701	-0.0818725	0.0688727	0.641411	0.556398	0.457312	13.5416	-0.025828	0.0306121	-0.0415237	0.0844727	0.394531	-1.03247	-0.516688	0.484487	0.549169	0.44353	9.73142	-0.144959	-0.716668	0.00559838	0.0276826	0.00271942	-0.95166	0.402832	0.0253906	-0.839373	0.0958044	-0.0158353	0.534813	0.684003	-1.89649	10.8769	-0.00670565	0.0164535	-0.0241524	0.126221	0.586914	-0.895996	-0.0408792	0.513536	0.845892	0.138116	2.02343	1.88128	-8.74805	0.0232713	-0.0177894	-0.0167193	-0.467285	0.242432	0.96582	-0.776252	-0.0340045	0.111824	0.619494	1.28563	2.0215	10.2307	0.00290614	0.0207325	0.000912453	-0.0432129	0.208008	-1.07788	-0.135867	0.62627	0.767623	-0.00900427	2.03061	-1.78315	-9.36784	-0.00974309	-0.00062562	-0.00665611	-0.309326	0.704102	0.913818	
58	-0.544292	0.352032	0.366447	0.667485	8.97785	1.1529	5.06301	-0.0176439	0.00187731	0.0208399	-0.862305	0.306641	-0.421143	-0.672795	0.341582	0.351608	0.554113	8.61977	-0.698294	5.24298	-0.0355556	0.024016	-0.0044035	-0.640137	0.376221	-0.46582	-0.77411	-0.0706657	0.143835	0.61243	1.53715	3.17964	10.2798	-0.016429	-0.00196669	-0.0113187	-0.114258	-0.00585938	-1.05835	-0.800982	0.138235	-0.030388	0.581718	1.1161	-2.45044	9.4153	-0.023362	0.0136104	-0.0209194	0.0759277	0.712158	-0.813965	-0.742202	0.27609	-0.114376	0.599858	1.56711	-5.33082	8.05733	-0.106666	0.0440652	-0.0122316	-0.0283203	0.854004	-0.559082	-0.759587	-0.0814154	0.0680789	0.641689	0.546448	0.348971	13.4534	-0.0187367	0.0234289	-0.0244775	0.0820312	0.400879	-1.02832	-0.517325	0.484352	0.549075	0.443052	9.85025	-0.0845523	-0.654321	0.0363888	0.00998211	0.00369213	-0.945068	0.400635	0.0275879	-0.839056	0.0961489	-0.0159828	0.535243	0.68967	-1.8602	10.9501	-0.0168217	0.0165853	-0.0391012	0.130859	0.584717	-0.884277	-0.0406255	0.514079	0.845731	0.137156	2.05465	1.85426	-8.80564	0.034776	-0.0269365	0.00854298	-0.465088	0.244629	0.958984	-0.776204	-0.0342259	0.111789	0.619548	1.29479	2.08268	10.2215	0.00427336	0.0209151	0.00102912	-0.043457	0.212158	-1.07812	-0.135647	0.62625	0.767679	-0.00889961	2.01966	-1.8177	-9.38991	-0.0035479	0.0020392	-0.00757356	-0.306641	0.690918	0.91626	
59	-0.544475	0.352429	0.365925	0.667413	9.06921	1.11666	5.08147	-0.017566	-6.71042e-05	0.0144956	-0.860352	0.308838	-0.418945	-0.672859	0.341793	0.351016	0.55428	8.53014	-0.644485	5.17688	-0.015792	0.0197726	-0.0131174	-0.638184	0.380371	-0.468262	-0.773888	-0.0699754	0.143499	0.61287	1.35783	2.96725	10.2856	-0.0207412	-0.00635687	-0.0160206	-0.118652	-0.00366211	-1.05396	-0.800688	0.138361	-0.0306173	0.582081	1.03541	-2.57537	9.38281	-0.0099561	0.0103844	-0.0164755	0.0759277	0.712158	-0.816162	-0.742043	0.276332	-0.114682	0.599884	1.52156	-5.5909	7.93595	-0.0328908	0.0163134	-0.0161232	-0.0239258	0.851807	-0.559082	-0.759418	-0.0812435	0.0677525	0.641945	0.463798	0.417415	13.4846	-0.0173902	0.0175265	-0.0294404	0.0754395	0.400879	-1.03491	-0.517759	0.484301	0.548669	0.443103	9.77021	-0.0687734	-0.759936	0.010346	0.0290673	-0.00542689	-0.953857	0.405029	0.0275879	-0.838584	0.0963225	-0.0159855	0.53595	0.777581	-2.08647	11.0004	0.0188582	0.0221462	-0.0519947	0.117676	0.588867	-0.891113	-0.0403317	0.514875	0.845324	0.136766	2.09496	1.92141	-8.92833	-0.00481906	-0.0141205	0.0115179	-0.458008	0.242432	0.958984	-0.776247	-0.0343263	0.111495	0.619541	1.28527	2.04632	10.2322	-0.00553586	0.0239942	0.00567559	-0.0432129	0.208008	-1.07568	-0.135703	0.62619	0.767718	-0.00892906	1.98222	-1.76419	-9.39873	0.00694126	0.00656348	-0.00887957	-0.30249	0.69751	0.918457	
60	-0.544471	0.352582	0.365325	0.667664	9.11911	1.11565	5.12064	-0.0250386	0.0163909	0.00259363	-0.864502	0.306641	-0.42749	-0.672539	0.3426	0.350113	0.55474	8.58232	-0.722829	5.27491	-0.0801277	0.0310598	-0.0157453	-0.635986	0.382812	-0.458984	-0.773753	-0.0702016	0.144071	0.61288	1.36985	3.21936	10.3803	0.0100566	-0.0076558	-7.87528e-05	-0.112305	-0.00146484	-1.05859	-0.800296	0.138934	-0.0307951	0.582474	1.00144	-2.63794	9.49087	-0.0343053	-0.00141261	-0.018219	0.0759277	0.714355	-0.811768	-0.742072	0.276194	-0.114607	0.599926	1.5444	-5.24084	8.11402	-0.0483847	0.0200332	-0.00587189	-0.0263672	0.858398	-0.561279	-0.759425	-0.0809363	0.0675974	0.641992	0.46972	0.426393	13.5079	-0.00643406	0.00872623	-0.0138853	0.0839844	0.403076	-1.03052	-0.517937	0.48453	0.548302	0.443099	9.78417	-0.161476	-0.57	-0.0116524	-0.00187298	-0.00281631	-0.949463	0.402832	0.0212402	-0.838295	0.0962208	-0.0159349	0.536422	0.796953	-1.88641	11.0083	0.0113818	0.0238106	-0.0575897	0.125977	0.595459	-0.891357	-0.0401	0.51572	0.844822	0.136752	1.96955	1.79241	-8.81891	0.00181164	-0.00646514	0.0228864	-0.458008	0.242432	0.96582	-0.77625	-0.0343019	0.111419	0.619552	1.26896	2.09012	10.1827	-0.00256798	0.0141366	0.0031869	-0.0410156	0.208008	-1.08472	-0.135711	0.626195	0.767712	-0.00897774	1.99533	-1.72665	-9.37677	0.00660473	0.00378994	-0.00435921	-0.306885	0.69751	0.918457	
61	-0.544509	0.352586	0.364853	0.667889	9.06175	1.12508	5.1107	-0.0300117	0.0241151	0.00420973	-0.860107	0.304688	-0.425293	-0.672345	0.342805	0.350403	0.554666	8.60927	-0.757675	5.24911	0.00454871	-0.00419652	-0.0209319	-0.635742	0.376221	-0.46582	-0.77353	-0.0696064	0.143837	0.613284	1.51884	2.92976	10.22	-0.0154418	-0.00307444	-0.0189555	-0.114502	-0.00146484	-1.05859	-0.800252	0.139039	-0.0307277	0.582513	1.08867	-2.61931	9.41226	-0.0026289	-0.00146136	-0.0040035	0.0759277	0.714355	-0.811768	-0.741646	0.276797	-0.115069	0.600087	1.40261	-5.45603	8.02165	-0.0131036	0.00724564	-0.0325291	-0.0327148	0.858398	-0.559082	-0.759447	-0.0806435	0.0674346	0.642019	0.435408	0.440954	13.5073	-0.0225244	0.0097478	-0.0166794	0.079834	0.400879	-1.02832	-0.518566	0.483973	0.548301	0.442972	9.85851	-0.0842456	-0.588466	0.0419922	0.0362439	-0.015515	-0.953857	0.402832	0.019043	-0.837708	0.0962166	-0.0159033	0.53734	0.754657	-1.96459	10.8694	-0.00139343	0.0186414	-0.0580252	0.126221	0.591309	-0.891357	-0.0399758	0.516197	0.844541	0.136722	1.96102	1.92853	-8.74613	-0.00248546	-0.00892751	0.0218882	-0.465088	0.244629	0.961182	-0.77625	-0.0343019	0.111419	0.619552	1.26896	2.09012	10.1827	-0.00256798	0.0141366	0.0031869	-0.0410156	0.208008	-1.08472	-0.135612	0.626308	0.767636	-0.00909374	1.9581	-1.71472	-9.37668	0.00351956	-0.000697657	0.00271214	-0.311279	0.695312	0.914062	
62	-0.544658	0.35263	0.363887	0.668271	9.03357	1.00787	5.08473	-0.0244705	0.0256023	0.00228532	-0.855713	0.304688	-0.425293	-0.672399	0.3427	0.350597	0.554543	8.56308	-0.715381	5.25048	0.012098	0.0059244	-0.0178599	-0.638184	0.378418	-0.461182	-0.773501	-0.0696742	0.143943	0.613288	1.44277	2.99851	10.2799	0.0108332	0.00164962	-0.002802	-0.110107	-0.00366211	-1.05835	-0.800066	0.138952	-0.0305999	0.582796	1.08001	-2.61151	9.39341	0.00869592	0.00955455	-0.0154716	0.0759277	0.714355	-0.818359	-0.741625	0.276819	-0.114789	0.600156	1.4843	-5.38294	8.12247	0.0159459	-0.00399303	-0.0177306	-0.0327148	0.858398	-0.549805	-0.759194	-0.0804225	0.067607	0.642329	0.398499	0.392193	13.5711	0.0136633	-0.00240023	-0.0329389	0.0839844	0.405273	-1.03076	-0.518248	0.484286	0.548077	0.44328	9.86746	-0.131875	-0.674311	-0.0330682	0.00711897	-0.0179294	-0.953613	0.398438	0.0256348	-0.837101	0.0959561	-0.0154987	0.538344	0.763763	-1.86359	10.9601	0.018127	0.0119903	-0.062737	0.124023	0.591309	-0.898193	-0.039649	0.517044	0.844029	0.136777	2.02425	1.72784	-8.86458	-0.00308201	-0.00870443	0.018307	-0.453613	0.249268	0.96582	-0.776118	-0.0340896	0.111284	0.619753	1.30123	2.11032	10.2857	-0.0191968	0.00666671	-0.00281761	-0.043457	0.212158	-1.07812	-0.135824	0.626536	0.76741	-0.00926477	2.04234	-1.73085	-9.42669	0.0168375	0.0130417	0.0105101	-0.309326	0.701904	0.91626	
63	-0.544818	0.352089	0.363297	0.668747	8.94379	0.96523	5.10578	-0.000227493	0.0320194	-0.00895641	-0.855957	0.311279	-0.425293	-0.672528	0.342431	0.35095	0.55433	8.49471	-0.701255	5.18274	0.0164798	0.00775832	-0.0191623	-0.640137	0.376221	-0.463379	-0.773532	-0.0695318	0.143988	0.613254	1.43859	3.03666	10.2809	-0.0118705	-0.000798513	0.00377921	-0.116699	-0.00146484	-1.05859	-0.800085	0.138725	-0.0304423	0.582832	1.04087	-2.61806	9.40639	0.0180143	0.00448407	0.00362321	0.0712891	0.716553	-0.813965	-0.741459	0.277138	-0.114936	0.600186	1.56419	-5.4227	7.90491	-0.0133059	0.00122049	-0.00923611	-0.026123	0.854004	-0.559082	-0.759018	-0.0803197	0.067923	0.642516	0.572423	0.324894	13.4966	0.0106734	0.00696548	-0.0276324	0.0795898	0.405273	-1.02637	-0.518257	0.484212	0.548164	0.443243	9.74574	-0.143993	-0.698216	0.0263909	0.00690709	-0.0204612	-0.945312	0.402832	0.0168457	-0.836488	0.096019	-0.0155378	0.539283	0.75497	-2.02381	10.9156	0.0018557	0.0238746	-0.0579542	0.121582	0.595459	-0.895996	-0.0396214	0.518024	0.843475	0.136496	2.02062	1.78947	-8.85593	0.00767381	-0.00551447	0.0231229	-0.458252	0.24707	0.96582	-0.775882	-0.0339052	0.111281	0.62006	1.26854	2.09167	10.101	-0.00616669	0.00574835	-0.0159775	-0.0410156	0.208008	-1.07788	-0.135976	0.626868	0.767112	-0.00925583	1.95979	-1.74251	-9.28477	0.00285506	0.00971102	0.0160791	-0.304932	0.701904	0.909424	
64	-0.545019	0.351287	0.363428	0.668933	8.92045	1.07097	5.13677	0.0274192	0.0157599	-0.0163223	-0.855713	0.306885	-0.431885	-0.672481	0.342474	0.351046	0.554299	8.56174	-0.646509	5.22939	-0.0123036	0.0142745	-0.0191418	-0.640137	0.374023	-0.465576	-0.773553	-0.0703713	0.144335	0.61305	1.4367	3.10659	10.266	0.0362684	0.013267	0.0025855	-0.112061	-0.00585938	-1.04932	-0.800286	0.13884	-0.0303411	0.582534	1.06543	-2.56506	9.44019	-0.00677445	0.00148127	0.0181093	0.0737305	0.716553	-0.818359	-0.741476	0.277078	-0.114586	0.600259	1.55608	-5.2303	8.11626	-0.0165913	0.0117278	-0.0166444	-0.034668	0.854004	-0.552246	-0.759125	-0.079963	0.0678472	0.642442	0.535046	0.318158	13.5144	-0.0140174	0.0096273	-0.00113213	0.0773926	0.407471	-1.03711	-0.517908	0.4846	0.548175	0.443213	9.79797	-0.0552558	-0.634279	-0.0177736	-0.0144325	-0.011246	-0.954102	0.409424	0.0209961	-0.835993	0.0959913	-0.0155952	0.540054	0.818718	-2.01266	10.9008	0.00832856	0.0291267	-0.0455135	0.119873	0.588867	-0.886475	-0.0394334	0.518694	0.843068	0.136524	2.00863	1.80673	-8.83502	-0.00993728	-0.00136603	0.00595274	-0.460449	0.244629	0.972412	-0.775599	-0.0332597	0.111101	0.620481	1.31078	2.02714	10.2112	-0.033114	0.00225615	-0.0129926	-0.0388184	0.210205	-1.07568	-0.136215	0.627387	0.76664	-0.00972862	2.01655	-1.80029	-9.38623	0.02592	0.00418506	0.0259323	-0.304688	0.695312	0.914062	
65	-0.544971	0.350568	0.363858	0.669116	8.97614	1.16835	5.17306	0.0227066	0.00304371	-0.0264139	-0.853516	0.309082	-0.42749	-0.672427	0.342244	0.351186	0.554418	8.60224	-0.713332	5.1392	0.0049517	0.0162098	-0.0273169	-0.642334	0.376221	-0.468018	-0.773718	-0.0704403	0.144166	0.612874	1.51687	3.01704	10.3108	0.0115475	0.0114183	0.0100259	-0.112305	-0.00146484	-1.05396	-0.800642	0.138282	-0.0300462	0.582192	1.1184	-2.46026	9.45638	0.0301032	0.00934553	0.0177163	0.0800781	0.718994	-0.816162	-0.741585	0.277102	-0.11432	0.600164	1.50185	-5.49876	7.95467	0.0672344	-0.0181552	-0.00732858	-0.0305176	0.858398	-0.559082	-0.759298	-0.0800611	0.0682795	0.64218	0.499097	0.467112	13.4862	0.0150016	0.00656111	-0.0052664	0.0776367	0.405273	-1.03271	-0.517819	0.484489	0.548434	0.443117	9.7756	-0.172024	-0.700613	0.0337066	-0.00264116	-0.029175	-0.953857	0.405029	0.0253906	-0.835549	0.095647	-0.0155221	0.540804	0.801395	-1.97235	10.8658	0.0126938	0.0207815	-0.0510682	0.124023	0.593262	-0.893555	-0.039166	0.519345	0.842628	0.136839	1.91327	1.82108	-8.76723	-0.0157527	-0.00231915	0.00916987	-0.455811	0.24707	0.968018	-0.775294	-0.0327812	0.111126	0.620882	1.31442	2.02791	10.1882	-0.0139341	-0.00131294	-0.015932	-0.0456543	0.212158	-1.07568	-0.136501	0.627849	0.766205	-0.0102103	1.98792	-1.89634	-9.35557	0.0252446	0.00283624	0.0235775	-0.307129	0.699707	0.911621	
66	-0.544623	0.350309	0.364367	0.669257	8.9813	1.09753	5.12606	0.0161163	-0.0139341	-0.0272037	-0.855469	0.300293	-0.425293	-0.672605	0.341967	0.351613	0.554102	8.57157	-0.740368	5.12007	0.0248436	-0.000291638	-0.0147399	-0.637939	0.376221	-0.46582	-0.773866	-0.0712456	0.144645	0.612482	1.4286	3.20192	10.2433	0.0278664	0.00866936	0.0148515	-0.114258	-0.0144043	-1.05347	-0.800769	0.138188	-0.0299356	0.582046	1.07661	-2.54264	9.35132	0.0152494	0.00494956	0.00880259	0.0803223	0.714355	-0.813965	-0.741685	0.277004	-0.113942	0.600158	1.57014	-5.28538	8.08665	0.0128187	-0.00554037	-0.00693967	-0.0283203	0.856201	-0.561279	-0.759497	-0.0800336	0.0685725	0.641917	0.517226	0.383965	13.5485	0.0250519	0.0063993	-0.000847949	0.0842285	0.403076	-1.02637	-0.517325	0.484749	0.54917	0.442499	9.83453	-0.172549	-0.668636	0.00885279	-0.0343796	-0.0201173	-0.947266	0.402832	0.0253906	-0.835162	0.0951333	-0.0150593	0.541505	0.829289	-1.95815	10.9556	0.0364212	0.0163645	-0.0455383	0.121826	0.593262	-0.891357	-0.038594	0.519831	0.842255	0.137452	1.99778	1.70043	-8.92649	-0.0276013	-0.00297184	-0.00594172	-0.451172	0.244873	0.968018	-0.775173	-0.0324108	0.111013	0.621074	1.39499	1.92241	10.3875	-0.00835199	0.0104169	0.000231002	-0.050293	0.214355	-1.07349	-0.136851	0.628125	0.765909	-0.0106473	2.01111	-1.86074	-9.47283	0.0203579	0.00999814	0.00411779	-0.307129	0.701904	0.91626	
67	-0.544582	0.350092	0.365078	0.669017	9.01131	1.1574	5.09964	0.0284644	-0.0178204	-0.00183268	-0.855469	0.30249	-0.425293	-0.672767	0.341829	0.352038	0.553721	8.60729	-0.669693	5.14132	0.00942467	-0.00132593	-0.0131899	-0.642334	0.376221	-0.463379	-0.774028	-0.070815	0.144512	0.612358	1.51793	3.01769	10.3095	-0.00826384	0.00301979	0.0042141	-0.10791	-0.00585938	-1.05615	-0.800956	0.138074	-0.0296674	0.581828	1.10493	-2.49846	9.38574	-0.00173252	-0.00230021	0.0110577	0.078125	0.7146	-0.818359	-0.741716	0.277187	-0.113978	0.600028	1.54442	-5.41082	8.0034	-0.013788	-0.00203101	-0.00363514	-0.034668	0.854004	-0.552246	-0.759741	-0.0797758	0.0686441	0.641652	0.598096	0.361868	13.4497	-0.00370584	0.00945342	-0.00281366	0.0773926	0.407471	-1.03076	-0.517047	0.484854	0.549605	0.442169	9.80041	-0.116489	-0.859068	0.0136038	-0.00224031	-0.0197504	-0.947266	0.398682	0.0275879	-0.834942	0.0949689	-0.0151547	0.541869	0.881534	-2.02279	10.9483	0.0068917	0.0303777	-0.0248154	0.12207	0.584717	-0.888916	-0.0385093	0.52011	0.842011	0.137916	1.95447	1.88252	-8.87627	-0.0141998	0.0151478	-0.00637213	-0.453613	0.24707	0.970215	-0.775289	-0.0324627	0.110773	0.620969	1.39187	2.05113	10.232	-0.00662208	0.0285015	0.0100432	-0.0437012	0.216553	-1.07812	-0.137202	0.628068	0.765892	-0.0107451	2.02841	-1.91873	-9.48579	0.0273698	0.021987	-0.0061698	-0.304932	0.701904	0.906982	
68	-0.544643	0.350007	0.365953	0.668533	8.97699	1.23682	5.03152	0.0335637	-0.0305653	-0.00487691	-0.857666	0.30249	-0.420898	-0.672788	0.341801	0.351996	0.55374	8.66088	-0.726153	5.22955	-0.00641181	0.0184508	-0.0177433	-0.638184	0.378418	-0.46582	-0.774206	-0.0712868	0.145184	0.61192	1.42631	3.21675	10.3046	0.0335623	-0.00241166	0.0182178	-0.116455	-0.00366211	-1.05615	-0.80107	0.138236	-0.0292684	0.581654	1.07858	-2.47963	9.48037	-0.00251367	-0.0127511	0.00962264	0.0759277	0.7146	-0.820557	-0.741895	0.277322	-0.113613	0.599813	1.69305	-5.39854	7.96471	0.00398591	-0.00852122	-0.00203124	-0.0305176	0.856201	-0.556641	-0.759807	-0.079735	0.0688332	0.641559	0.660613	0.361067	13.4947	0.0116882	0.00276371	-0.00597601	0.0820312	0.400879	-1.03052	-0.516233	0.485595	0.549808	0.442053	9.8177	-0.138204	-0.759754	-0.0207565	-0.0274504	-0.0135294	-0.95166	0.400635	0.0319824	-0.83487	0.0946022	-0.0150495	0.542047	0.870888	-2.08759	10.9144	0.0326589	0.0284326	-0.0298927	0.12207	0.584717	-0.893555	-0.0384557	0.520159	0.841902	0.138406	1.92867	1.83402	-8.86341	-0.0316948	0.0216625	-0.0150569	-0.455811	0.244629	0.970215	-0.775405	-0.0323407	0.110248	0.620924	1.35657	1.99487	10.1346	-0.015789	0.0267958	0.0085577	-0.0480957	0.216553	-1.07812	-0.138106	0.627965	0.765813	-0.0107858	1.88979	-1.77347	-9.334	0.0269913	0.0323897	-0.00569447	-0.309326	0.699707	0.913818	
69	-0.54457	0.350161	0.36619	0.668383	8.98035	1.25776	5.01573	0.00987967	-0.0279715	-0.000865821	-0.857666	0.30249	-0.423096	-0.672747	0.341627	0.351644	0.55412	8.44856	-0.707998	5.05549	-0.00781328	0.0125801	-0.0273931	-0.640137	0.376221	-0.463379	-0.774184	-0.0712481	0.145148	0.611959	1.51204	3.21503	10.2433	-0.00294259	0.00539377	-0.00388377	-0.114258	-0.00585938	-1.05615	-0.801196	0.138523	-0.0292154	0.581414	1.15836	-2.53709	9.46657	-0.0138718	-0.0124112	0.0214072	0.0761719	0.712402	-0.820557	-0.742029	0.27741	-0.113077	0.599709	1.58617	-5.23609	7.9727	-0.0134312	-0.0075693	-0.0176043	-0.0349121	0.856201	-0.556641	-0.760094	-0.0794534	0.0691023	0.641225	0.58654	0.3911	13.4206	0.00237334	0.00318591	0.00549457	0.0756836	0.398682	-1.02832	-0.515581	0.486167	0.549975	0.441978	9.5837	-0.150045	-0.817547	0.00743524	-0.026441	-0.0218041	-0.95166	0.400635	0.0319824	-0.834772	0.0943474	-0.0150977	0.542242	0.840161	-1.77093	10.7903	-0.00350565	0.0273632	-0.0176068	0.115479	0.591064	-0.891357	-0.0387301	0.520211	0.841787	0.138833	1.88327	1.59359	-8.77781	0.0108101	0.024394	-0.0124175	-0.458008	0.244629	0.970215	-0.775448	-0.0322355	0.110086	0.620904	1.34857	2.03429	10.1385	-0.0144452	0.0197791	0.0080983	-0.0412598	0.216797	-1.07593	-0.138709	0.627865	0.765786	-0.0107839	1.90379	-1.73896	-9.3157	0.0184662	0.0212597	-0.00621554	-0.311768	0.704102	0.913818	
70	-0.544202	0.350642	0.366261	0.668392	8.83876	1.15419	4.90751	-0.0148823	-0.0219246	-0.00641528	-0.862305	0.304688	-0.423096	-0.672641	0.341648	0.351855	0.554101	8.48287	-0.736686	5.04992	-0.000355428	-0.00200361	-0.0269866	-0.644775	0.380371	-0.470703	-0.774261	-0.07135	0.145049	0.611874	1.53339	2.96874	10.1573	0.0264171	0.0178862	0.00895974	-0.110107	-0.00585938	-1.05371	-0.801276	0.138143	-0.0292093	0.581395	1.2057	-2.40127	9.46007	0.00314311	0.0247063	-0.0060773	0.078125	0.716553	-0.813965	-0.742173	0.277352	-0.112871	0.599596	1.70963	-5.44376	7.88509	0.0334544	-0.00358687	-0.00123886	-0.0349121	0.856201	-0.554443	-0.76027	-0.0794857	0.0692918	0.640991	0.63442	0.421941	13.4656	0.00796681	0.0149206	-0.0137642	0.0839844	0.405273	-1.03491	-0.515324	0.486215	0.550423	0.441668	9.66698	-0.199415	-0.776914	0.0317231	-0.032345	-0.0278965	-0.949219	0.398438	0.0339355	-0.834752	0.0946011	-0.0155622	0.542215	0.837032	-2.0526	10.8471	-0.00190262	0.029731	-0.0125264	0.124268	0.586914	-0.891113	-0.0393634	0.520338	0.841718	0.138599	1.98189	1.85774	-8.78813	0.019679	0.0189272	-0.0137686	-0.451172	0.244629	0.974609	-0.775313	-0.0322001	0.110011	0.621088	1.35907	2.06236	10.1421	-0.000152372	0.017688	-0.0105322	-0.0439453	0.223145	-1.07373	-0.13894	0.62801	0.765628	-0.0106132	1.96064	-1.7489	-9.32335	0.000776813	0.0177914	0.00585603	-0.313965	0.701904	0.906982	
71	-0.543774	0.351544	0.366443	0.668166	8.97338	1.08317	4.92994	-0.0131593	-0.0449567	0.00354152	-0.862061	0.30249	-0.423096	-0.672792	0.341367	0.351897	0.554064	8.51254	-0.630686	5.01781	0.00917099	0.0222626	-0.0210717	-0.644531	0.378418	-0.46582	-0.774146	-0.0713389	0.144245	0.61221	1.53216	3.07921	10.1654	-0.0440092	0.0258959	-0.0238375	-0.114258	-0.00585938	-1.05371	-0.801259	0.137553	-0.0296586	0.581536	1.13013	-2.50857	9.3636	0.0316702	0.0376246	0.00365307	0.0737305	0.712158	-0.820557	-0.742496	0.276917	-0.112648	0.599439	1.62629	-5.11453	8.00523	-0.0181951	0.0191741	0.0011324	-0.0307617	0.860596	-0.556641	-0.76029	-0.0797075	0.0693067	0.640939	0.644079	0.388868	13.4386	0.0128698	0.0249926	-0.010891	0.079834	0.400879	-1.03052	-0.514536	0.486835	0.550532	0.441768	9.65423	-0.0634235	-0.673429	-0.0314964	-0.0155834	-0.0219992	-0.949219	0.396484	0.0361328	-0.834789	0.0939036	-0.0158517	0.542271	0.771194	-1.96866	10.8437	0.0350766	0.0491884	-0.0153893	0.119873	0.586914	-0.888916	-0.0395377	0.520485	0.84153	0.139136	2.00607	1.80384	-8.75502	-0.0206325	0.0228523	-0.00913224	-0.455811	0.24707	0.968018	-0.774929	-0.0321594	0.109689	0.621626	1.31482	1.97985	10.1268	-0.011797	0.0224188	-0.0256641	-0.0412598	0.2146	-1.08032	-0.139359	0.628406	0.765226	-0.0106955	1.98713	-1.82626	-9.31608	0.0124423	0.0156825	0.0206863	-0.309326	0.704102	0.906982	
72	-0.543387	0.351815	0.366923	0.668075	9.09741	1.05352	4.95624	0.0119277	-0.0201322	-0.0187582	-0.855713	0.304688	-0.423096	-0.672805	0.341285	0.352137	0.553947	8.66106	-0.60223	5.14087	-0.00420891	0.0118163	-0.0144735	-0.640137	0.374023	-0.460938	-0.774032	-0.0722016	0.14419	0.612267	1.5501	3.21339	10.2344	0.0349594	0.023506	-0.00745325	-0.110107	-0.00366211	-1.05396	-0.801279	0.136947	-0.0300879	0.581629	1.13269	-2.49961	9.29684	0.009365	0.032434	-0.000307305	0.078125	0.716553	-0.813965	-0.742493	0.27705	-0.113129	0.599291	1.70347	-5.36355	7.98486	0.00845169	0.0126325	-0.00543615	-0.0305176	0.856201	-0.556641	-0.760603	-0.0798693	0.0688711	0.640594	0.674546	0.427351	13.4409	-0.0188178	0.0350369	0.00411556	0.0820312	0.403076	-1.03052	-0.514235	0.48713	0.550256	0.442136	9.84012	-0.0723967	-0.815445	-0.00279992	0.0215973	-0.0131165	-0.949463	0.402832	0.0339355	-0.83475	0.0935958	-0.016319	0.542371	0.762808	-1.8417	10.8702	-0.00926101	0.0396605	-0.0141255	0.121826	0.589111	-0.891357	-0.0396656	0.520581	0.841439	0.13929	1.99817	1.69826	-8.75643	-0.00150588	0.0193077	-0.00960264	-0.458008	0.242432	0.970215	-0.774547	-0.0321021	0.109119	0.622205	1.40199	1.94186	10.3294	-0.0187186	0.0327639	-0.021673	-0.0412598	0.216797	-1.08032	-0.139721	0.628837	0.764804	-0.0108045	2.03612	-1.92147	-9.40997	0.0102233	0.0182511	0.0144605	-0.304932	0.701904	0.911621	
73	-0.54314	0.351559	0.367974	0.667832	9.0319	1.19167	4.92845	0.0399254	-0.0324494	-0.0191356	-0.864258	0.30249	-0.425293	-0.672831	0.34126	0.351628	0.554254	8.66867	-0.723238	5.21096	-0.0237503	0.0420054	-0.0199881	-0.644775	0.380371	-0.46582	-0.773982	-0.0719897	0.143919	0.612419	1.40081	3.16912	10.3078	-0.0205498	0.00655284	-0.00912436	-0.116455	-0.00805664	-1.05371	-0.801179	0.137487	-0.030428	0.581621	1.06905	-2.45152	9.33889	-0.0434014	-0.000868183	0.00173789	0.0805664	0.712158	-0.811768	-0.742818	0.276597	-0.112831	0.599154	1.62172	-5.33254	8.01512	0.023948	0.00706969	-0.00466081	-0.0305176	0.858398	-0.561279	-0.760878	-0.0800877	0.0690092	0.640226	0.62627	0.522024	13.45	0.0227526	0.0143395	0.0028898	0.0820312	0.400879	-1.02832	-0.513995	0.48754	0.550075	0.442189	9.91435	-0.167418	-0.711057	-0.00263312	-0.00424061	-0.00985971	-0.945312	0.402832	0.0317383	-0.834586	0.093517	-0.0172553	0.542608	0.805908	-1.93708	10.9736	-0.0160223	0.0431062	-0.0149238	0.126221	0.591064	-0.888916	-0.0405869	0.520767	0.841384	0.138662	2.04682	1.82234	-8.90863	0.0399213	0.0176148	-0.00413496	-0.455811	0.244629	0.970215	-0.774379	-0.0324485	0.108532	0.622499	1.32775	1.9056	10.2388	-0.00611503	0.0410879	-0.0103426	-0.0437012	0.21875	-1.07373	-0.140084	0.628992	0.764613	-0.0105953	1.97539	-1.90633	-9.33076	0.00571595	0.0210801	0.000665506	-0.307373	0.706299	0.906982	
74	-0.543133	0.351451	0.368539	0.667584	9.10624	1.30708	4.96995	0.0109604	-0.00686434	-0.00213767	-0.864258	0.300293	-0.42749	-0.672811	0.341256	0.351164	0.554576	8.50091	-0.735969	5.1915	-0.0156018	0.0186736	-0.0240488	-0.638184	0.378418	-0.468262	-0.773745	-0.0715401	0.143794	0.6128	1.44483	3.03964	10.234	-0.0186625	-0.00801215	-0.0150062	-0.110107	-0.00366211	-1.05835	-0.800952	0.138253	-0.0306502	0.581742	1.07078	-2.50705	9.43038	-0.0246363	0.00255076	-0.0117499	0.078125	0.714355	-0.816162	-0.742626	0.276534	-0.112849	0.599417	1.63545	-5.41569	8.05618	-0.00824554	0.0137489	-0.0276631	-0.0351562	0.860596	-0.556641	-0.760886	-0.0803404	0.0690809	0.640176	0.529295	0.494923	13.5478	0.0207874	0.0192045	-0.0266817	0.0820312	0.403076	-1.03271	-0.513071	0.488597	0.549801	0.442437	9.71705	-0.126541	-0.858812	-0.0236322	-0.0233896	-0.0118905	-0.951416	0.396484	0.0361328	-0.834465	0.09376	-0.0183743	0.542715	0.780612	-1.84245	10.894	-0.0359414	0.0515528	-0.0148282	0.126221	0.589111	-0.893555	-0.041732	0.521164	0.841196	0.137972	1.98687	1.7003	-8.86093	0.0572036	0.0298258	0.0084178	-0.460693	0.249268	0.974609	-0.774393	-0.0326604	0.107964	0.622569	1.26563	1.90933	10.2208	-0.00717208	0.0361574	0.00384232	-0.0412598	0.216797	-1.07593	-0.140394	0.628903	0.764632	-0.0104459	2.03002	-1.82394	-9.33878	0.001897	0.0173752	-0.0113141	-0.307129	0.704102	0.904785	
75	-0.543044	0.351593	0.368214	0.667761	9.0191	1.2528	4.97488	-0.0237361	-0.00163374	0.00202173	-0.868652	0.298096	-0.423096	-0.672491	0.341469	0.351043	0.554908	8.55056	-0.770763	5.32807	-0.033025	0.00750902	-0.0279616	-0.637939	0.376221	-0.470459	-0.773449	-0.0716818	0.143946	0.613122	1.51077	3.14005	10.2674	0.0209661	0.000687021	-0.0238294	-0.110107	-0.00805664	-1.05371	-0.80053	0.138185	-0.0307913	0.582331	1.13751	-2.48719	9.43754	-0.00801117	0.0178697	-0.0279815	0.0761719	0.712402	-0.820557	-0.742591	0.276387	-0.112902	0.599518	1.52191	-5.40623	8.02273	0.00645765	0.0203146	-0.0160014	-0.0327148	0.858398	-0.561279	-0.760363	-0.0806671	0.0693754	0.640724	0.544876	0.478275	13.5003	0.0207115	0.0150697	-0.0518047	0.0864258	0.396729	-1.02612	-0.512798	0.488723	0.550107	0.442234	9.71172	-0.14378	-0.796551	0.0175843	-0.0258891	-0.0236237	-0.947021	0.396484	0.0446777	-0.834383	0.0941567	-0.0191086	0.542747	0.768425	-1.90492	10.8778	-0.055097	0.050426	-0.0151318	0.128418	0.591309	-0.891357	-0.0434721	0.521774	0.840987	0.136393	1.97865	1.55292	-8.8117	0.112692	0.0255385	0.0172986	-0.458496	0.251465	0.970215	-0.774486	-0.0332609	0.107598	0.622485	1.25742	2.01143	10.2521	0.0108536	0.0398292	0.00605044	-0.0390625	0.2146	-1.08276	-0.140471	0.628762	0.764736	-0.010271	2.05392	-1.86326	-9.39161	-0.00235035	0.0175616	-0.0205049	-0.311523	0.701904	0.913818	
76	-0.542925	0.351875	0.367466	0.668121	9.06305	1.13554	5.02277	-0.0281051	0.014012	-0.000280064	-0.853271	0.300293	-0.425293	-0.672496	0.341292	0.350732	0.555209	8.4754	-0.701062	5.15517	-0.0281904	0.028536	-0.0262685	-0.644287	0.371826	-0.465576	-0.773096	-0.0714996	0.143921	0.613594	1.35419	3.04617	10.2405	-0.00795453	-0.00359485	-0.020098	-0.116455	-0.00366211	-1.05396	-0.800189	0.138037	-0.0308729	0.582829	1.03263	-2.5657	9.37809	0.00680424	0.0170221	-0.0190669	0.0825195	0.716797	-0.818359	-0.742223	0.275977	-0.113399	0.600069	1.61151	-5.34661	8.02014	0.00415635	0.0341202	-0.025933	-0.0305176	0.858398	-0.563477	-0.759853	-0.0810882	0.0691983	0.641295	0.604814	0.380597	13.4916	0.00816888	0.0271859	-0.0448223	0.0795898	0.405273	-1.03076	-0.512262	0.488683	0.550813	0.442021	9.65993	-0.0720422	-0.826599	-0.0129369	-0.0456373	-0.0241122	-0.949707	0.405029	0.0402832	-0.834291	0.0968198	-0.0216292	0.542325	0.687314	-2.21128	10.8928	-0.0905534	0.0331832	0.0120907	0.125732	0.599854	-0.88208	-0.044531	0.52204	0.840973	0.135115	2.04518	1.66423	-8.7755	0.13448	0.0202564	0.013752	-0.458496	0.256104	0.961182	-0.774688	-0.0338674	0.107281	0.622256	1.16482	2.02544	10.2489	0.0123613	0.0394471	0.0134828	-0.0412598	0.2146	-1.07812	-0.141122	0.628168	0.765103	-0.0103556	2.09931	-1.72232	-9.35219	0.0380496	0.0130333	-0.0219779	-0.311768	0.708496	0.906982	
77	-0.543002	0.352229	0.366817	0.668228	9.03638	1.10856	5.01627	-0.0275744	-0.00269896	0.0144144	-0.862305	0.304688	-0.423096	-0.672414	0.340875	0.350932	0.555437	8.65702	-0.666612	5.16211	0.00271592	0.033509	-0.0381697	-0.642334	0.376221	-0.463379	-0.772663	-0.0715528	0.143731	0.614177	1.58023	3.08136	10.2055	-0.00648768	0.0116446	-0.0343762	-0.112305	-0.00366211	-1.04712	-0.799904	0.137855	-0.0310069	0.583256	1.17969	-2.60138	9.3514	0.00534358	0.0173479	-0.0190367	0.0778809	0.718994	-0.818359	-0.742059	0.275898	-0.113723	0.600246	1.63989	-5.34486	8.0181	-0.0134404	0.036139	-0.0220438	-0.0307617	0.860596	-0.559082	-0.759667	-0.0811245	0.0690697	0.641525	0.630433	0.374996	13.4367	2.45978e-05	0.0224339	-0.0410568	0.0822754	0.396484	-1.03467	-0.512522	0.488053	0.551152	0.441992	9.82501	-0.0615626	-0.82655	0.0607244	0.0224788	-0.0388172	-0.95166	0.400635	0.0339355	-0.834394	0.0977915	-0.0225171	0.541956	0.658837	-2.07552	10.959	-0.098825	0.0323749	0.0204134	0.127686	0.608643	-0.88916	-0.0466413	0.521897	0.841304	0.132871	2.14906	1.55308	-8.89452	0.124165	0.0267901	-0.00662447	-0.458984	0.267578	0.963135	-0.774754	-0.0361595	0.108739	0.621792	1.12214	1.42712	10.4018	0.177574	0.0245938	0.0115202	-0.0366211	0.212402	-1.07129	-0.14093	0.627932	0.765335	-0.0101699	2.08686	-1.34999	-9.44122	-0.0156683	7.9882e-05	-0.0325096	-0.309326	0.704102	0.906982	
78	-0.542887	0.352424	0.36662	0.668327	9.07877	1.07176	5.03793	-0.024074	-0.00603174	-0.000896532	-0.864258	0.302246	-0.421143	-0.672493	0.340452	0.350712	0.55574	8.58655	-0.725688	5.2432	0.000761014	0.055051	-0.0365881	-0.640137	0.371826	-0.470215	-0.772482	-0.0717255	0.143826	0.614362	1.49991	3.05095	10.2409	0.0156909	0.0047848	-0.022668	-0.114258	-0.0102539	-1.05591	-0.799836	0.137425	-0.0308643	0.583459	1.1166	-2.55636	9.33964	0.03536	0.020573	-0.0153661	0.0805664	0.712402	-0.820557	-0.74174	0.275621	-0.113719	0.600769	1.48193	-5.31847	8.00711	0.012524	0.0229207	-0.0307758	-0.0349121	0.856201	-0.554443	-0.759239	-0.0815146	0.0690912	0.64198	0.525311	0.405345	13.498	0.014214	0.0142056	-0.0341983	0.079834	0.400879	-1.02832	-0.512464	0.487834	0.551254	0.442173	9.83611	-0.227869	-0.925764	0.0156827	0.0188461	-0.0395419	-0.953613	0.39624	0.0383301	-0.834797	0.0998922	-0.0243876	0.54087	0.633992	-2.04531	10.907	-0.111539	0.0280236	0.0372769	0.125488	0.608643	-0.882324	-0.0491826	0.521903	0.841438	0.131072	2.09316	1.44458	-8.83678	0.124242	0.0596613	-0.0042714	-0.461426	0.267578	0.956543	-0.774498	-0.0392186	0.111046	0.621517	1.14581	1.97008	10.2844	0.30769	0.0218579	-0.0117956	-0.0341797	0.208008	-1.07349	-0.137164	0.62717	0.766682	-0.00651371	2.14874	-1.5267	-9.45059	-0.242787	-0.0293022	-0.0931697	-0.308838	0.690918	0.918701	
79	-0.542539	0.352008	0.366278	0.669015	9.08423	1.09443	5.01337	-0.0105792	0.0294687	-0.0291129	-0.862061	0.300293	-0.420898	-0.672962	0.339549	0.350702	0.555731	8.53839	-0.686212	5.30225	0.02476	0.0470073	-0.017014	-0.635742	0.371826	-0.465576	-0.772338	-0.0725407	0.144548	0.614279	1.41585	3.26123	10.3565	0.039458	0.00361621	-0.00491055	-0.109863	-0.0124512	-1.05591	-0.799676	0.13712	-0.0307915	0.583754	1.01344	-2.57288	9.45184	0.00238412	0.0081344	-0.00770468	0.0737305	0.712158	-0.818359	-0.741604	0.275509	-0.113969	0.60094	1.48528	-5.32043	8.12121	-0.0184593	0.0192783	-0.0204991	-0.0371094	0.858398	-0.561279	-0.758939	-0.0817158	0.0690492	0.642314	0.421769	0.405407	13.5797	0.00968524	0.0182436	-0.0322382	0.0820312	0.398682	-1.03467	-0.513489	0.486566	0.551679	0.441852	9.80723	-0.0707763	-0.710111	0.0803001	0.0402901	-0.0248758	-0.953613	0.398438	0.0383301	-0.835088	0.103347	-0.0267627	0.539658	0.641259	-1.67962	10.8926	-0.191712	0.0140241	0.0384677	0.131836	0.612793	-0.877686	-0.0526577	0.522044	0.841693	0.127477	2.12544	0.953551	-8.96363	0.256651	0.0381698	0.00728021	-0.46167	0.276855	0.954102	-0.773944	-0.0441592	0.114922	0.621171	1.25447	2.70111	10.0375	0.206396	0.0105607	-0.0153217	-0.0354004	0.183838	-1.07959	-0.133127	0.626652	0.76784	-0.0024832	2.00035	-2.06282	-9.26846	-0.185716	-0.0178161	-0.0585105	-0.317627	0.684082	0.927734	
80	-0.542809	0.350951	0.365836	0.669594	9.04425	1.1005	5.02695	0.00703667	0.0482848	-0.0152499	-0.864258	0.300293	-0.42749	-0.673396	0.338408	0.350206	0.556213	8.44306	-0.583158	5.32323	0.0183205	0.0660533	-0.0342532	-0.639893	0.367432	-0.470215	-0.772274	-0.0725335	0.144309	0.614416	1.31804	2.9712	10.1746	0.00275283	0.0148446	-0.00719185	-0.114258	-0.00366211	-1.05396	-0.799771	0.136921	-0.0306936	0.583675	0.980853	-2.64244	9.38615	0.0220111	0.0149017	0.00945485	0.0805664	0.712158	-0.811768	-0.741446	0.27534	-0.114483	0.601115	1.49784	-5.45865	7.94497	0.0118886	0.0252494	-0.00595365	-0.0305176	0.856201	-0.556641	-0.7588	-0.0820644	0.0690208	0.642437	0.492135	0.392073	13.5638	0.02086	0.0288092	-0.0284183	0.079834	0.400879	-1.03491	-0.512952	0.486794	0.551757	0.442126	9.75052	0.0438248	-0.744026	-0.0402011	-0.00678609	-0.0270158	-0.951172	0.394287	0.036377	-0.835172	0.10972	-0.0308477	0.53805	0.616248	-2.73266	10.7551	-0.284207	0.0139683	0.0499839	0.137695	0.62793	-0.864014	-0.0565006	0.522522	0.842034	0.121483	2.15398	1.72846	-8.7756	0.267783	0.00194967	0.0133372	-0.459961	0.290527	0.942627	-0.773427	-0.0452054	0.11566	0.621603	1.27838	2.2705	10.0653	0.0165413	0.0134379	-0.0314282	-0.0378418	0.186035	-1.08887	-0.132324	0.627024	0.767678	-0.00134582	1.93744	-1.62576	-9.33005	-0.0292636	0.014349	0.0215991	-0.315186	0.679688	0.925537	
81	-0.543441	0.349098	0.364864	0.670579	9.00674	1.25979	5.16786	0.00180933	0.101692	-0.0237316	-0.857422	0.298096	-0.429688	-0.673478	0.337659	0.349591	0.556955	8.46457	-0.558939	5.27878	-0.0208554	0.0532334	-0.0406487	-0.637939	0.374023	-0.470459	-0.772297	-0.0734066	0.144344	0.614274	1.31692	3.2049	10.3492	0.0268583	0.0276242	0.000309456	-0.110107	-0.00805664	-1.05835	-0.80011	0.136223	-0.0307139	0.583373	0.979037	-2.48572	9.43672	0.0260679	0.0209238	0.0248326	0.0849609	0.7146	-0.818359	-0.741829	0.274299	-0.114149	0.601183	1.51304	-5.14671	8.1398	0.027503	0.0321167	-0.00306884	-0.0302734	0.847412	-0.556641	-0.758869	-0.0825711	0.0686545	0.642329	0.485484	0.430272	13.5306	0.00561246	0.0416065	-0.00346225	0.0756836	0.396484	-1.02612	-0.511838	0.487561	0.552009	0.442259	9.74978	-0.00866998	-0.79348	-0.0251389	-0.0248623	-0.0260366	-0.953613	0.39624	0.0405273	-0.835335	0.113551	-0.0333606	0.536851	0.694397	-2.40809	10.7964	-0.162451	0.0168181	0.037373	0.133057	0.636719	-0.859375	-0.059213	0.522388	0.842442	0.117883	2.23234	1.63998	-8.80218	0.163381	0.0256538	-0.0151732	-0.460205	0.297363	0.942627	-0.772831	-0.0466159	0.11662	0.622061	1.20439	2.31601	10.205	0.0846092	0.017254	-0.0280908	-0.0375977	0.181641	-1.08179	-0.131458	0.6273	0.767602	-0.000158058	2.10573	-1.7587	-9.42974	-0.0549633	0.00852217	-0.00665054	-0.310791	0.679688	0.930176	
82	-0.543492	0.347476	0.363554	0.67209	8.93422	1.19806	5.28542	-0.0247802	0.0834694	-0.0413324	-0.859375	0.293701	-0.431641	-0.673176	0.337488	0.349416	0.557534	8.56637	-0.72794	5.27792	-0.017515	0.0162899	-0.0368928	-0.635498	0.367432	-0.472412	-0.772317	-0.0745086	0.144624	0.614051	1.33937	3.22516	10.3004	0.039417	0.018493	-0.00252729	-0.109863	-0.0102539	-1.05151	-0.800434	0.13588	-0.0306831	0.58301	1.00785	-2.39318	9.4094	0.0119222	0.0110787	0.0188279	0.0783691	0.709961	-0.813965	-0.741816	0.273884	-0.114624	0.601297	1.44862	-5.5165	7.97849	0.0364109	0.0214642	-0.00928578	-0.0280762	0.851807	-0.561279	-0.75919	-0.0831601	0.068266	0.641915	0.410506	0.501151	13.442	0.0155978	0.0431249	-0.00393917	0.0842285	0.398682	-1.03052	-0.511835	0.487317	0.551783	0.442811	9.83423	-0.193288	-0.755415	0.0208913	0.0500482	-0.031205	-0.948975	0.39209	0.036377	-0.835674	0.115099	-0.0349705	0.535891	0.580301	-2.47451	10.7576	-0.0721282	0.0232673	0.0220392	0.133057	0.636719	-0.857178	-0.060046	0.522257	0.842588	0.116996	2.10085	1.55101	-8.82167	0.101929	0.0246935	-0.0235833	-0.460205	0.297363	0.944824	-0.77232	-0.046959	0.11665	0.622663	1.17329	2.39307	10.1667	-0.0250216	0.01795	-0.0248454	-0.0373535	0.177246	-1.08179	-0.131546	0.627816	0.767165	0.000132226	2.07211	-1.70258	-9.35343	0.0118176	0.0198866	0.0287832	-0.310547	0.67749	0.925781	
83	-0.543482	0.346331	0.362588	0.67321	8.80475	1.17237	5.31617	-0.0119684	0.0554223	-0.023667	-0.853027	0.29834	-0.438232	-0.673116	0.337292	0.349481	0.557685	8.52051	-0.643015	5.33877	0.00161509	0.0159347	-0.0274368	-0.637695	0.367432	-0.479492	-0.772199	-0.0748906	0.144601	0.614158	1.42024	3.19569	10.2373	-0.000296034	0.0149647	-0.0101822	-0.112061	-0.0102539	-1.04688	-0.800479	0.13525	-0.0305478	0.583102	1.05472	-2.37428	9.46152	0.019647	0.0217216	-0.0079443	0.0739746	0.709961	-0.816162	-0.742122	0.2731	-0.114063	0.601382	1.45051	-5.31125	8.09937	0.0805059	0.011135	-0.00701485	-0.0280762	0.847412	-0.561279	-0.759135	-0.0835906	0.0682043	0.641931	0.400033	0.451322	13.4163	0.0250705	0.0226847	-0.02415	0.088623	0.398682	-1.03052	-0.512096	0.486945	0.550932	0.443977	9.77765	-0.0353228	-0.88568	-0.0422623	0.0601224	-0.0260502	-0.953369	0.39209	0.0427246	-0.835789	0.116053	-0.035252	0.535486	0.67097	-2.22126	10.7547	-0.0527485	0.00314604	-0.00150803	0.132812	0.640869	-0.857178	-0.0612683	0.521706	0.84313	0.114895	2.15445	1.1832	-8.86952	0.0775104	-0.00695606	-0.017913	-0.465332	0.308838	0.937988	-0.772182	-0.046768	0.116329	0.622909	1.15639	2.12158	10.1208	-0.00363258	0.0158338	-0.000848201	-0.0419922	0.177246	-1.07959	-0.131738	0.627993	0.766988	5.69354e-05	1.98139	-1.66675	-9.34403	0.0154847	0.015302	0.0157306	-0.310547	0.675293	0.927979	
84	-0.543609	0.345731	0.362161	0.673646	8.79188	1.17982	5.29339	-0.000448251	0.0194228	-0.00676296	-0.85083	0.296143	-0.438232	-0.673156	0.336884	0.349483	0.557881	8.47615	-0.662888	5.38138	-0.000780715	0.0235402	-0.0265274	-0.637695	0.369629	-0.470215	-0.772054	-0.0750439	0.144496	0.614346	1.34395	3.09659	10.3126	0.0205035	0.0126105	-0.0131015	-0.112061	-0.0166016	-1.05591	-0.80041	0.134787	-0.0304976	0.583306	0.9824	-2.48187	9.43926	0.0331327	0.0280746	-0.0134638	0.0783691	0.709961	-0.816162	-0.742095	0.272992	-0.11437	0.601407	1.42158	-5.3044	7.99039	-0.023797	0.020364	-0.0105169	-0.0390625	0.854004	-0.559082	-0.758903	-0.0838768	0.0683679	0.642151	0.450581	0.453382	13.4008	0.00765737	0.0155931	-0.0273662	0.0844727	0.396484	-1.03027	-0.512774	0.486012	0.550353	0.444935	9.777	-0.124501	-0.795776	0.0373043	0.0699036	-0.0365821	-0.957764	0.39209	0.036377	-0.835749	0.116933	-0.0357528	0.535325	0.644049	-2.44389	10.8279	-0.0768121	0.0128307	-0.00229224	0.13501	0.638916	-0.854736	-0.0621145	0.521894	0.8432	0.113061	2.15408	1.28354	-8.87461	0.0836522	-0.0048814	-0.00665112	-0.465088	0.304199	0.937988	-0.772183	-0.0465832	0.116471	0.622895	1.20314	2.4055	10.2574	-0.00970389	0.0055881	0.00602417	-0.0375977	0.179443	-1.08423	-0.131637	0.628016	0.766986	-8.11407e-05	2.05095	-1.60228	-9.33213	0.00525722	-0.00643942	-0.00586122	-0.317383	0.675293	0.934814	
85	-0.543616	0.345624	0.362192	0.673679	8.84293	1.17451	5.32391	0.00633354	0.00176996	-0.00664275	-0.855225	0.296143	-0.436035	-0.673182	0.336781	0.349407	0.55796	8.51521	-0.634499	5.42261	-0.00551771	0.0254229	-0.0219192	-0.639893	0.365234	-0.469971	-0.771889	-0.0757171	0.144869	0.614384	1.34319	3.27368	10.3012	0.0613353	0.0134281	-0.0167626	-0.105713	-0.0146484	-1.06055	-0.800288	0.134233	-0.0304961	0.583601	0.972344	-2.46442	9.47503	0.0181855	0.018207	-0.0107846	0.0805664	0.712402	-0.818359	-0.74209	0.272751	-0.114122	0.601569	1.4904	-5.24202	8.05136	0.0174051	0.00738189	-0.0206726	-0.0280762	0.851807	-0.561279	-0.758851	-0.0840776	0.0685808	0.642163	0.426972	0.431175	13.4345	0.0272807	0.0121006	-0.0197653	0.0822754	0.392334	-1.03027	-0.512923	0.485841	0.549938	0.445462	9.83756	-0.0720824	-0.710793	-0.0107098	0.0615062	-0.023644	-0.949219	0.396484	0.0361328	-0.835704	0.118265	-0.0362396	0.535069	0.642752	-2.66705	10.7375	-0.0341865	0.00233765	-0.00618185	0.132568	0.643066	-0.859619	-0.0623543	0.521989	0.843203	0.112468	2.14303	1.35283	-8.80236	0.0550655	-0.00482818	-0.00857457	-0.463135	0.311035	0.937988	-0.772192	-0.0463493	0.116369	0.622921	1.18452	2.32243	10.2242	-0.0202326	0.00871945	0.00425635	-0.0378418	0.183838	-1.08203	-0.131593	0.628081	0.766941	-0.000346167	2.13342	-1.57387	-9.44868	0.00778409	0.0011478	0.00238384	-0.312744	0.67749	0.932617	
86	-0.543533	0.345286	0.362552	0.673725	8.91338	1.25998	5.32133	0.0192383	-0.0017939	-0.0163299	-0.853027	0.296143	-0.440186	-0.673174	0.336728	0.349437	0.557983	8.47818	-0.588166	5.33956	-0.00276302	0.00670347	-0.0204143	-0.635498	0.367432	-0.474854	-0.77181	-0.0757	0.144693	0.614526	1.37091	3.1695	10.3113	-0.0119093	0.00915042	-0.00629102	-0.112061	-0.0166016	-1.05591	-0.8003	0.133738	-0.0304628	0.5837	0.996348	-2.45261	9.45133	0.0165717	0.0170387	-0.00181491	0.0783691	0.710205	-0.827148	-0.742082	0.272661	-0.113885	0.601664	1.49409	-5.2441	8.10502	0.00266833	-0.00249918	-0.0148929	-0.034668	0.851807	-0.561279	-0.758885	-0.0838728	0.068648	0.642142	0.431631	0.444637	13.4251	-0.00629537	0.00635549	-0.017033	0.0822754	0.392334	-1.03467	-0.513311	0.485502	0.549242	0.446243	9.80328	-0.0564836	-0.721596	0.0230006	0.0540384	-0.0223289	-0.953613	0.396484	0.0319824	-0.835668	0.118493	-0.0358651	0.5351	0.597294	-2.57065	10.7327	0.00693578	-0.000529254	-0.0169502	0.138916	0.647461	-0.852539	-0.0623531	0.522065	0.84327	0.111603	2.12581	1.35757	-8.78623	0.0352253	-0.016192	-0.0225726	-0.467773	0.311035	0.940186	-0.772119	-0.0462523	0.116563	0.622981	1.1567	2.25111	10.0951	0.0079981	0.00147787	0.00223717	-0.0400391	0.183838	-1.08203	-0.131193	0.628273	0.766851	-0.000325468	1.97362	-1.65477	-9.3081	-0.0128948	-0.0121396	0.00329835	-0.310303	0.670898	0.93042	
