40	Head	00b4120a												Throax	00b411e8												LUpArm	00b411d9												LFoArm	00b41148												RUpArm	00b411db												RFoArm	00b41204												Waist	00b411f7												Lthigh	00b411f4												Lshank	00b4111b												Rthigh	00b411c8												Rshank	00b411ee												
PacketCount	q0	q1	q2	q3	accX	accY	accZ	gyrX	gyrY	gyrZ	magX	magY	magZ	q0	q1	q2	q3	accX	accY	accZ	gyrX	gyrY	gyrZ	magX	magY	magZ	q0	q1	q2	q3	accX	accY	accZ	gyrX	gyrY	gyrZ	magX	magY	magZ	q0	q1	q2	q3	accX	accY	accZ	gyrX	gyrY	gyrZ	magX	magY	magZ	q0	q1	q2	q3	accX	accY	accZ	gyrX	gyrY	gyrZ	magX	magY	magZ	q0	q1	q2	q3	accX	accY	accZ	gyrX	gyrY	gyrZ	magX	magY	magZ	q0	q1	q2	q3	accX	accY	accZ	gyrX	gyrY	gyrZ	magX	magY	magZ	q0	q1	q2	q3	accX	accY	accZ	gyrX	gyrY	gyrZ	magX	magY	magZ	q0	q1	q2	q3	accX	accY	accZ	gyrX	gyrY	gyrZ	magX	magY	magZ	q0	q1	q2	q3	accX	accY	accZ	gyrX	gyrY	gyrZ	magX	magY	magZ	q0	q1	q2	q3	accX	accY	accZ	gyrX	gyrY	gyrZ	magX	magY	magZ	
0	-0.443692	0.444149	0.312652	0.712824	9.32435	0.535888	4.20894	-0.0756157	0.00564162	-0.0167981	-0.852539	0.362061	-0.234131	-0.533646	0.385523	0.270981	0.702256	8.42495	-0.227846	5.44347	-0.0994249	0.0325308	-0.0540928	-0.662598	0.337402	-0.379395	-0.640149	0.223917	0.434978	0.592339	8.56108	2.34603	5.24783	-0.10899	-0.0203216	-0.0356806	-0.86377	0.0698242	-0.608887	-0.013358	-0.434331	0.0877391	0.89637	-7.5395	1.73078	6.02261	0.0837212	-0.0275569	-0.0525761	0.491699	-0.133057	-0.891357	-0.372148	0.530744	0.0649249	0.758684	8.37633	-2.93706	4.17452	-0.114149	0.0290859	-0.0549114	-0.836426	0.525146	-0.0705566	-0.939325	0.093497	-0.318146	0.0878073	-7.14657	-2.90671	9.49295	0.0798484	0.0649197	-0.0815765	0.961182	0.25415	-0.287354	-0.405531	0.569217	0.453732	0.552869	9.82039	0.365652	-0.748884	-0.0425801	-0.00218886	0.00967517	-0.901855	0.353027	0.184326	-0.27587	0.552243	0.44438	0.649191	9.51472	2.69517	0.0742339	-0.0675423	0.00108509	-0.0180412	-1.0354	0.148682	0.228027	-0.397709	0.512963	0.48862	0.58305	9.76948	1.70146	0.0551872	-0.0685153	0.00156247	-0.0224056	-1.0415	0.268799	0.097168	-0.228211	0.433484	0.107956	0.865076	8.17911	-0.149755	6.30715	-0.0185679	0.0124082	-0.0138524	-0.991211	0.230957	-0.240967	-0.113329	0.989577	0.0839547	-0.0290853	-0.218642	-2.33298	-9.53021	0.0418541	-0.00873603	0.0384342	0.460938	0.330811	0.911621	
1	-0.442816	0.445067	0.311596	0.713258	9.24632	0.525963	4.19638	-0.0640655	-0.0245015	-0.000895177	-0.855225	0.368408	-0.231934	-0.532577	0.386071	0.269807	0.703218	8.43898	-0.249054	5.40864	-0.0742013	0.0277187	-0.0441351	-0.671143	0.335205	-0.376953	-0.639008	0.225656	0.433868	0.593722	8.54072	2.28294	5.17081	-0.0977797	-0.011653	-0.0219162	-0.872314	0.0656738	-0.611084	-0.0115261	-0.433831	0.0888594	0.896528	-7.51406	1.70228	6.04446	0.0681202	-0.0182556	-0.038937	0.487305	-0.133057	-0.893555	-0.370377	0.531401	0.0636123	0.759202	8.42179	-3.02858	4.21562	-0.0712737	0.0116829	-0.035322	-0.840576	0.520752	-0.0683594	-0.938964	0.0926981	-0.31899	0.0894363	-7.19364	-2.84326	9.51008	0.0416616	0.05409	-0.0582584	0.958984	0.260742	-0.281006	-0.405217	0.569957	0.452795	0.553104	9.75397	0.413962	-0.638893	-0.0244682	0.00427492	0.00801295	-0.904297	0.361572	0.179688	-0.274872	0.552753	0.443618	0.649701	9.52574	2.8123	0.000181136	-0.0542175	0.0146079	-0.0231312	-1.02905	0.148438	0.232666	-0.396309	0.513957	0.487178	0.584333	9.73103	1.49053	-0.116326	-0.0759101	0.00219427	-0.0252677	-1.03906	0.26416	0.097168	-0.227993	0.433388	0.107797	0.865202	8.17468	-0.229195	6.19859	0.0112707	0.0242632	-0.00195168	-0.989258	0.233154	-0.240967	-0.114555	0.989473	0.0833433	-0.0295669	-0.256315	-2.30261	-9.42512	0.0546977	-0.0053018	0.0170151	0.456543	0.328613	0.911621	
2	-0.441816	0.446762	0.310962	0.713096	9.4374	0.50042	4.1645	-0.0632699	-0.0583017	0.0074795	-0.855225	0.370605	-0.231934	-0.531785	0.386108	0.268671	0.704231	8.49253	-0.246448	5.5017	-0.0598894	0.03749	-0.0351973	-0.662598	0.341797	-0.375	-0.638545	0.226006	0.433873	0.594083	8.58589	2.27222	5.1905	0.00929191	-0.00875318	-0.0136538	-0.872314	0.0678711	-0.606445	-0.0105678	-0.433577	0.0896188	0.896587	-7.57363	1.73447	6.06131	0.0393368	-0.00220927	-0.0134408	0.489746	-0.135254	-0.897949	-0.369194	0.531822	0.062451	0.75958	8.52126	-2.93509	4.28463	-0.0865807	0.0229716	-0.0284766	-0.847168	0.522949	-0.0683594	-0.938724	0.0920689	-0.319553	0.0905885	-7.24957	-2.91971	9.57392	0.0415055	0.0402653	-0.045166	0.960938	0.260742	-0.2854	-0.404758	0.570824	0.451859	0.553312	9.85903	0.323706	-0.601933	-0.0412266	0.0102184	0.00997312	-0.9021	0.357178	0.179932	-0.273677	0.553248	0.442371	0.650635	9.51215	2.48867	0.00640231	-0.0593965	0.0173621	-0.0191772	-1.04175	0.139893	0.221191	-0.395737	0.514324	0.486963	0.584578	9.74981	1.49015	-0.0891894	-0.00534993	-0.00661228	-0.0263842	-1.0415	0.266602	0.097168	-0.227412	0.433442	0.107308	0.865388	8.21262	-0.10462	6.20614	-0.0485396	0.00992107	-0.00941585	-0.989258	0.233154	-0.243408	-0.115343	0.989424	0.0826966	-0.0299454	-0.261278	-2.27298	-9.38952	0.0363077	0.000464381	0.0245456	0.460938	0.330811	0.911621	
3	-0.441069	0.448174	0.310426	0.712905	9.47593	0.410149	4.07508	-0.0450613	-0.0411757	0.00658772	-0.852783	0.366211	-0.225586	-0.531543	0.385959	0.267969	0.704762	8.39802	-0.224318	5.5337	-0.0281904	0.0359217	-0.0272859	-0.662598	0.337402	-0.379395	-0.638555	0.225759	0.434327	0.593836	8.55693	2.46991	5.3749	0.0158462	0.00117393	-0.000365409	-0.870117	0.0678711	-0.606445	-0.010206	-0.433523	0.0900532	0.896573	-7.5748	1.69784	6.09644	0.0113361	0.0041327	-0.00315592	0.489746	-0.135254	-0.893555	-0.368329	0.531927	0.0614851	0.760005	8.39023	-3.11264	4.28904	-0.0242962	0.0263914	-0.0201838	-0.844727	0.516357	-0.065918	-0.938696	0.0914459	-0.319626	0.0912475	-7.20525	-2.82526	9.59136	0.029127	0.0149399	-0.0238317	0.960938	0.260742	-0.283203	-0.404289	0.571771	0.45174	0.552774	9.81833	0.364938	-0.717228	0.0158852	-0.0452597	0.00033312	-0.902344	0.365967	0.183838	-0.2741	0.553001	0.44297	0.65026	9.49745	2.80816	0.000743027	0.0428652	0.0136243	-0.0184358	-1.03101	0.146484	0.23291	-0.395762	0.514244	0.487448	0.584227	9.7164	1.60693	-0.142466	0.0267201	-0.00408014	-0.0250799	-1.04614	0.266357	0.0993652	-0.227149	0.433315	0.10728	0.865524	8.16751	-0.173538	6.27298	-0.00254063	0.0193352	-0.0118877	-0.991455	0.235352	-0.234375	-0.115767	0.989413	0.0822713	-0.0298625	-0.261583	-2.16262	-9.47555	0.00104312	0.0132021	0.00615401	0.460938	0.330811	0.916016	
4	-0.440833	0.448821	0.310171	0.712755	9.56319	0.423218	4.07876	-0.0144172	-0.0112651	0.0102466	-0.857422	0.366211	-0.218994	-0.531491	0.385982	0.267186	0.705087	8.35618	-0.245436	5.57231	-0.0361158	0.0303278	-0.0123864	-0.662598	0.3396	-0.377197	-0.638521	0.225757	0.434117	0.594027	8.51833	2.42457	5.32605	-0.00536144	0.012358	-0.00585683	-0.865967	0.0698242	-0.608887	-0.0100852	-0.433421	0.0898052	0.896649	-7.55945	1.6646	6.03377	-0.00985926	-0.000525168	-0.0108681	0.496582	-0.139404	-0.893555	-0.368974	0.531497	0.062018	0.759949	8.37422	-2.94412	4.17323	0.0341099	0.00784044	-0.000406514	-0.838379	0.520752	-0.0637207	-0.938768	0.0909984	-0.319547	0.0912355	-7.16224	-2.88714	9.54646	0.0274603	0.0133625	-0.00383733	0.963135	0.260742	-0.283203	-0.404129	0.572441	0.451683	0.552244	9.75969	0.359421	-0.597909	0.000387211	-0.00982816	0.0034579	-0.9021	0.359375	0.186279	-0.274266	0.552686	0.443446	0.650133	9.46384	2.73098	-0.0473128	0.0300708	0.0214053	-0.0280273	-1.0354	0.148438	0.235107	-0.396413	0.513676	0.488716	0.583224	9.76952	1.71955	-0.0779573	0.077954	-0.00558351	-0.0242841	-1.04395	0.266602	0.0949707	-0.226982	0.433191	0.107616	0.865589	8.17349	-0.125155	6.29383	0.00344222	0.0164928	-0.00138738	-0.991455	0.233154	-0.240967	-0.115394	0.989451	0.0824138	-0.0296528	-0.250077	-2.28996	-9.46379	-0.0188066	0.011169	-0.0176207	0.460938	0.328613	0.91626	
5	-0.441297	0.448399	0.309694	0.712941	9.42059	0.413954	4.12061	0.00623123	0.0370523	0.00905136	-0.855225	0.366211	-0.223389	-0.531197	0.386118	0.266256	0.705585	8.38311	-0.2488	5.45811	-0.0431352	0.0275545	-0.0127298	-0.666992	0.34375	-0.377441	-0.638574	0.22583	0.433925	0.594081	8.5006	2.40442	5.31439	-0.00448202	0.00601887	0.00283709	-0.870117	0.0678711	-0.608887	-0.0100774	-0.43337	0.0895167	0.896703	-7.5256	1.62671	5.98355	-0.00100233	0.00573986	0.000681613	0.487549	-0.135254	-0.893555	-0.368984	0.53181	0.0617525	0.759747	8.32384	-3.05054	4.16497	0.000223333	-0.00840721	0.000366949	-0.840576	0.518555	-0.0637207	-0.938739	0.0907035	-0.319764	0.0910629	-7.10872	-2.79076	9.49848	0.0037929	0.0256306	-0.00640967	0.963379	0.256348	-0.283203	-0.404055	0.57295	0.451773	0.551697	9.67104	0.362998	-0.547365	0.00332774	-0.0276777	-0.00746876	-0.902344	0.36377	0.19043	-0.274671	0.552403	0.44416	0.649714	9.46515	2.85217	0.0173489	0.0319224	0.0228784	-0.0210829	-1.0332	0.144287	0.22583	-0.396699	0.513423	0.489114	0.582919	9.73011	1.7322	0.0257141	0.0184284	0.0080719	-0.0206815	-1.0415	0.266602	0.090332	-0.227332	0.432994	0.10811	0.865534	8.14141	-0.161076	6.2599	0.0401032	0.0163928	0.00773292	-0.989258	0.233154	-0.245605	-0.114982	0.989452	0.0830911	-0.0293301	-0.252294	-2.31363	-9.44852	-0.0183563	0.0146254	-0.0348725	0.460938	0.330811	0.911621	
6	-0.442125	0.447872	0.309078	0.713026	9.30647	0.467422	4.17532	0.00114122	0.0290384	0.0376944	-0.855225	0.368408	-0.229736	-0.531528	0.386407	0.26714	0.704843	8.38385	-0.268131	5.4069	0.0387699	-0.0176952	-0.0039016	-0.6604	0.3396	-0.375	-0.638391	0.226794	0.433245	0.594407	8.3983	2.21192	5.11837	-0.0527502	-0.00817622	0.0129181	-0.870117	0.0678711	-0.599609	-0.0104281	-0.433254	0.0894052	0.896766	-7.42306	1.64735	5.94376	-0.0100814	0.0077185	0.0194882	0.489746	-0.135254	-0.895752	-0.36931	0.531861	0.0621534	0.75952	8.31385	-2.95269	4.17592	0.0370183	-0.0150229	-0.00177046	-0.844971	0.520752	-0.065918	-0.93864	0.0913493	-0.319966	0.0907323	-7.14869	-2.91228	9.45616	-0.0228528	0.0155409	-0.0149992	0.960938	0.260742	-0.2854	-0.403936	0.573453	0.452717	0.550486	9.78323	0.401295	-0.79212	0.0919884	-0.000297842	-0.0119026	-0.900146	0.365967	0.188232	-0.274701	0.552289	0.444247	0.649739	9.47514	2.78958	0.0329603	0.012179	0.0230543	-0.0225912	-1.0354	0.146484	0.228027	-0.396893	0.513216	0.489076	0.583001	9.73675	1.60373	-0.0740112	0.0262952	0.0139786	-0.0210672	-1.0437	0.261963	0.097168	-0.228266	0.432556	0.108463	0.865462	8.2566	-0.196382	6.2533	0.0506304	0.0334587	0.0373269	-0.989258	0.235352	-0.243408	-0.114779	0.989431	0.0836783	-0.0291466	-0.235242	-2.29779	-9.48753	-0.014894	0.0133172	-0.0511587	0.460938	0.328613	0.913818	
7	-0.442481	0.447756	0.308802	0.712998	9.31823	0.415153	4.20464	0.00235282	0.0209816	0.0271942	-0.848633	0.368408	-0.227539	-0.531699	0.386456	0.267581	0.70452	8.42182	-0.217511	5.45769	0.0267625	-0.0136481	-0.00854958	-0.660156	0.335205	-0.374756	-0.638453	0.22697	0.433477	0.594104	8.45614	2.20974	5.09749	0.01438	-0.0183145	0.019363	-0.868164	0.0720215	-0.604492	-0.0108834	-0.433402	0.0896311	0.896666	-7.51012	1.69104	5.94964	0.00210479	0.0235065	0.040516	0.485352	-0.137451	-0.900146	-0.369377	0.532144	0.0627718	0.759239	8.50934	-2.86485	4.20827	0.013908	-0.0125606	-0.0203658	-0.844971	0.522949	-0.065918	-0.938665	0.0917531	-0.319809	0.0906195	-7.14642	-2.93686	9.53081	-0.0285723	-0.00195954	-0.0171735	0.95874	0.260742	-0.2854	-0.40377	0.573716	0.453605	0.549603	9.73683	0.456564	-0.578052	0.0694862	-0.0753396	-0.026169	-0.895508	0.359375	0.194824	-0.274858	0.551805	0.444795	0.649709	9.52468	2.69809	0.0590476	0.0258567	0.0171644	-0.0242793	-1.03955	0.144287	0.230469	-0.396863	0.513229	0.489052	0.58303	9.78313	1.60438	-0.0114653	0.00166123	0.00713773	-0.0208053	-1.04614	0.26416	0.090332	-0.22879	0.432261	0.108739	0.865437	8.10393	-0.0431172	6.28131	0.0424692	0.0318973	0.0279373	-0.984863	0.237793	-0.243408	-0.114768	0.989321	0.0850932	-0.028818	-0.226753	-2.20325	-9.41392	0.000603726	0.0104734	-0.0588575	0.461182	0.326416	0.918457	
8	-0.44273	0.447756	0.30883	0.712831	9.28921	0.390231	4.16601	0.00837354	-0.0136903	0.00365299	-0.848633	0.370605	-0.225586	-0.532224	0.386164	0.268475	0.703943	8.51302	-0.189091	5.50102	0.0373635	0.00655652	-0.00482786	-0.664795	0.337402	-0.377197	-0.638994	0.226098	0.435156	0.592626	8.61789	2.33596	5.23873	0.120753	-0.0209462	0.0181881	-0.870117	0.0678711	-0.604248	-0.0121988	-0.433972	0.0902216	0.896314	-7.66788	1.70888	6.04795	0.000222826	0.0392817	0.0611889	0.485352	-0.135254	-0.88916	-0.369313	0.532236	0.0634249	0.759151	8.44595	-2.96504	4.24812	0.00808278	-0.00269832	-0.0212662	-0.842773	0.518555	-0.0637207	-0.938698	0.0928269	-0.319462	0.0904088	-7.16903	-2.91791	9.6039	-0.0390054	-0.00523647	-0.0210245	0.962891	0.267334	-0.287842	-0.402951	0.574521	0.454464	0.548652	9.81401	0.370341	-0.756204	0.0693304	-0.040402	-0.0263434	-0.897949	0.365967	0.196777	-0.275422	0.551209	0.445688	0.649364	9.47871	2.83396	0.0375282	0.0694486	0.0247439	-0.0290396	-1.03784	0.150879	0.220947	-0.397141	0.512871	0.489613	0.582685	9.71829	1.72104	-0.0350704	0.0434037	0.00283616	-0.0276529	-1.03687	0.264404	0.0949707	-0.229346	0.431868	0.109062	0.865445	8.1713	-0.0503495	6.19101	0.0284994	0.0246484	0.0142336	-0.986816	0.230957	-0.245605	-0.114211	0.989308	0.0860793	-0.0285604	-0.275694	-2.24217	-9.38658	-0.0313857	0.00891127	-0.0412931	0.451904	0.328613	0.91626	
9	-0.442836	0.447859	0.30963	0.712354	9.44991	0.359314	4.13173	0.038477	-0.0259435	-0.00760164	-0.851074	0.372803	-0.225586	-0.532926	0.385663	0.268816	0.703557	8.4075	-0.205495	5.49318	0.0216018	0.0192297	-0.00457051	-0.658203	0.337402	-0.374756	-0.639803	0.224723	0.436521	0.591271	8.53159	2.55651	5.45738	0.0656022	0.0135204	0.0157745	-0.863525	0.0634766	-0.606445	-0.0135231	-0.434425	0.0900034	0.896098	-7.62998	1.7281	6.01603	-0.0403346	0.0275634	0.0335412	0.48999	-0.139404	-0.900146	-0.370303	0.531839	0.0642709	0.758876	8.43605	-2.90782	4.22627	0.058139	0.00195895	0.00997274	-0.842773	0.518555	-0.0683594	-0.938877	0.0935397	-0.318953	0.0896102	-7.15262	-3.02149	9.57381	-0.0220336	-0.0131393	0.0144454	0.95874	0.262939	-0.287598	-0.402628	0.574955	0.455264	0.547771	9.83767	0.448127	-0.688222	0.0266227	-0.0426453	-0.0115282	-0.897949	0.365967	0.19873	-0.275504	0.551137	0.445809	0.649307	9.48352	2.73661	0.00996323	-0.00391295	0.0140806	-0.014238	-1.03931	0.137695	0.228271	-0.397291	0.512698	0.489953	0.582449	9.74502	1.67457	-0.0436706	0.0177963	0.00418355	-0.0232833	-1.0415	0.268799	0.090332	-0.230069	0.431624	0.109427	0.86533	8.12392	-0.0977771	6.18165	0.0270106	0.015952	0.0245607	-0.984863	0.237793	-0.243408	-0.114034	0.989257	0.0869545	-0.0283728	-0.332101	-2.21383	-9.4449	-0.00317319	0.00479743	-0.0405055	0.454102	0.330811	0.913818	
10	-0.443432	0.447261	0.310751	0.71187	9.40418	0.435869	4.10666	0.0629184	-0.00345804	0.00148866	-0.85083	0.370605	-0.229736	-0.533565	0.385272	0.269434	0.70305	8.44962	-0.185403	5.47258	0.0326143	0.0134739	-0.00246743	-0.662598	0.337402	-0.379395	-0.640089	0.224783	0.43594	0.591367	8.50291	2.39043	5.27732	-0.0233457	0.0234423	0.00731874	-0.865967	0.067627	-0.604248	-0.0142176	-0.434603	0.0887908	0.896122	-7.63865	1.6133	5.96984	-0.0553901	0.0148826	-0.00132399	0.494141	-0.13501	-0.897949	-0.37148	0.531452	0.0651647	0.758496	8.44899	-2.87986	4.18089	0.0594913	-0.00202671	0.00684223	-0.840576	0.518555	-0.065918	-0.939115	0.0937461	-0.318515	0.0884503	-7.09068	-2.92194	9.60348	-0.0189764	-0.00811051	0.0256852	0.963379	0.256348	-0.2854	-0.402468	0.575335	0.456136	0.546762	9.79884	0.349687	-0.702743	0.0454437	-0.0394517	-0.0172274	-0.9021	0.361572	0.201172	-0.275984	0.550902	0.446228	0.649015	9.50149	2.64279	-0.00379074	0.0404801	0.0244536	-0.0139075	-1.0354	0.146484	0.230469	-0.397355	0.512593	0.490323	0.582186	9.73798	1.61174	-0.0961969	0.0397573	-0.00306815	-0.0262709	-1.05078	0.266357	0.0949707	-0.230386	0.431883	0.109571	0.865098	8.18992	0.00338615	6.21448	0.00303324	-0.00437674	0.0133377	-0.989502	0.239746	-0.241211	-0.113489	0.989263	0.0875753	-0.0284667	-0.191222	-2.14944	-9.46916	-0.0265428	-0.00252869	-0.0209838	0.45874	0.328613	0.923096	
11	-0.444145	0.446384	0.311875	0.711485	9.46494	0.555116	4.14555	0.065549	0.00973438	-0.00774078	-0.853271	0.372803	-0.227783	-0.534241	0.384793	0.269869	0.702632	8.36159	-0.205339	5.53751	0.0239585	0.0254927	-0.000403007	-0.662598	0.341797	-0.379639	-0.640453	0.224286	0.436076	0.591061	8.46751	2.41391	5.2689	0.0325393	0.0111701	0.00552772	-0.870117	0.0678711	-0.608887	-0.0147809	-0.434773	0.0881771	0.896091	-7.54861	1.63226	5.96785	-0.0262151	0.0175001	0.0152092	0.491699	-0.130615	-0.900391	-0.372211	0.531159	0.0657291	0.758293	8.43189	-2.89661	4.17967	0.0352019	0.0119676	0.00238203	-0.840576	0.518555	-0.0637207	-0.939203	0.0937862	-0.318363	0.0880166	-7.0911	-2.8879	9.59322	-0.00898817	-0.00325768	0.0162455	0.961182	0.256348	-0.2854	-0.402145	0.575757	0.457114	0.545738	9.74346	0.366405	-0.798902	0.0500499	-0.0392304	-0.0232896	-0.897949	0.36377	0.200928	-0.276645	0.550506	0.447328	0.648312	9.45721	2.88679	-0.0383941	0.071195	0.00349445	-0.0229722	-1.0376	0.146484	0.230469	-0.397652	0.512239	0.491074	0.581662	9.73525	1.73584	-0.0875873	0.028633	-0.00114675	-0.0251777	-1.04346	0.259766	0.0927734	-0.230657	0.431902	0.110099	0.864949	8.20425	-0.107748	6.27504	0.036697	0.0112833	0.00455687	-0.991699	0.237549	-0.241211	-0.11272	0.989305	0.0881454	-0.028296	-0.184712	-2.26001	-9.51185	-0.0279515	0.00885292	-0.0307222	0.460938	0.330811	0.911621	
12	-0.444817	0.445408	0.312214	0.711528	9.41604	0.560064	4.17668	0.0325024	0.0336982	-0.00283145	-0.846436	0.37085	-0.231934	-0.534624	0.384603	0.269947	0.702414	8.38483	-0.210915	5.55589	0.00184402	0.0183538	-0.00690862	-0.658203	0.337402	-0.377197	-0.640921	0.22363	0.436773	0.590287	8.48945	2.48331	5.3307	0.0544894	0.00158099	0.0128685	-0.86792	0.0612793	-0.606445	-0.0154513	-0.434981	0.0880354	0.895993	-7.59816	1.62095	5.97681	-0.0105309	0.019422	0.0222892	0.485107	-0.130859	-0.893799	-0.372777	0.531041	0.0662361	0.758054	8.41584	-2.8965	4.20058	0.0260603	-0.00474368	-0.00753905	-0.838379	0.520752	-0.0727539	-0.939333	0.0940515	-0.318067	0.0874174	-7.09839	-2.84885	9.56095	-0.0135348	0.0015137	-0.00451472	0.965576	0.25415	-0.289551	-0.401636	0.576317	0.457703	0.545028	9.77461	0.407993	-0.853314	-0.00249516	-0.0327735	-0.015892	-0.891602	0.365967	0.205322	-0.276745	0.550245	0.447548	0.648339	9.51221	2.68275	0.0186587	0.0159378	0.0246234	-0.0270341	-1.0376	0.146484	0.228027	-0.398049	0.511762	0.492055	0.580981	9.76014	1.65572	-0.101188	0.0741387	-0.0052445	-0.0314011	-1.0437	0.261963	0.097168	-0.231064	0.431785	0.110634	0.86483	8.20423	-0.0235996	6.26097	0.0225669	0.0127388	0.0101929	-0.987061	0.235352	-0.243408	-0.112474	0.989277	0.0888088	-0.0281725	-0.239221	-2.1906	-9.54099	-0.00391657	0.00426311	-0.0303664	0.456299	0.330811	0.913818	
13	-0.44504	0.445022	0.312156	0.711655	9.37027	0.579841	4.21198	0.0160878	0.0310042	-0.0013238	-0.85083	0.37085	-0.236328	-0.534964	0.384456	0.270098	0.702178	8.42159	-0.19716	5.55827	0.00770845	0.0114456	-0.00980749	-0.666748	0.335205	-0.376953	-0.641084	0.223562	0.436915	0.590031	8.51047	2.4189	5.31793	0.00649572	0.00219921	0.00731112	-0.870117	0.0656738	-0.611084	-0.0159165	-0.435055	0.0881528	0.895937	-7.62993	1.62885	5.99383	0.00520198	0.0111041	0.0189774	0.489258	-0.126221	-0.904785	-0.372863	0.531131	0.0664265	0.757931	8.44656	-2.872	4.2074	0.0112358	-0.0082391	-0.010698	-0.84082	0.522949	-0.0705566	-0.939304	0.0945499	-0.318065	0.0871999	-7.15653	-2.9406	9.60314	-0.0135638	0.0119848	-0.014918	0.963379	0.256348	-0.2854	-0.401198	0.576668	0.458366	0.544421	9.7984	0.408893	-0.762214	0.0248072	-0.0264234	-0.0272552	-0.897949	0.365967	0.205322	-0.277449	0.549643	0.448809	0.647677	9.50869	2.76885	-0.0898916	0.0918232	0.0220005	-0.029753	-1.03955	0.144043	0.23291	-0.398806	0.510994	0.493287	0.580092	9.76873	1.53408	-0.163401	0.0960365	0.00750479	-0.0323406	-1.04614	0.26416	0.0927734	-0.231467	0.431675	0.111259	0.864697	8.19418	-0.0297276	6.21452	0.0336275	0.0108155	0.00484355	-0.989502	0.239746	-0.239014	-0.112196	0.989241	0.0895486	-0.0282098	-0.25074	-2.17386	-9.4812	-0.0108988	-0.00149118	-0.0322103	0.460693	0.333008	0.90918	
14	-0.445553	0.444444	0.311351	0.712048	9.40006	0.488169	4.26629	-0.0117612	0.0293758	0.0101745	-0.85083	0.37085	-0.236328	-0.535123	0.384339	0.270497	0.701968	8.42546	-0.215027	5.50405	0.0129193	0.00698325	-0.019966	-0.664795	0.3396	-0.377197	-0.641176	0.223472	0.437157	0.589786	8.47875	2.45819	5.31959	0.00615478	-0.000851126	0.001888	-0.86792	0.0634766	-0.608643	-0.0161435	-0.435104	0.0880979	0.895914	-7.59946	1.67876	6.00315	-0.010662	0.0135384	0.0160959	0.498535	-0.132812	-0.893555	-0.372803	0.531303	0.0665839	0.757827	8.5271	-2.91677	4.26396	-0.00174353	0.00319536	-0.0181475	-0.842773	0.518555	-0.065918	-0.939325	0.0946556	-0.317977	0.087172	-7.15628	-2.91097	9.62154	-0.00453412	0.00571075	-0.0157146	0.963623	0.247803	-0.287109	-0.400478	0.577138	0.458639	0.544224	9.76798	0.394634	-0.857523	0.00174213	-0.0125224	-0.0294582	-0.899902	0.357178	0.205322	-0.277859	0.549266	0.44952	0.647328	9.48749	2.78419	-0.0368898	0.0806516	0.0208196	-0.0314615	-1.0376	0.148438	0.228027	-0.399475	0.510413	0.494049	0.579494	9.74353	1.7043	-0.156689	0.110351	0.0111489	-0.0241746	-1.0459	0.261963	0.0949707	-0.231734	0.431651	0.111662	0.864586	8.19121	-0.0967911	6.25635	0.0385762	0.00621407	0.00959341	-0.987061	0.235352	-0.241211	-0.112214	0.989204	0.0899203	-0.0282535	-0.257981	-2.15211	-9.49961	0.00443428	-0.000447699	-0.0319649	0.454102	0.333008	0.913818	
15	-0.445673	0.444365	0.311013	0.71217	9.33554	0.46057	4.24021	-0.014502	0.0206949	0.0109178	-0.85083	0.368652	-0.234131	-0.535274	0.384046	0.271216	0.701735	8.41455	-0.181845	5.53634	0.0279532	0.00772972	-0.0265076	-0.6604	0.337402	-0.377197	-0.64101	0.22341	0.437566	0.589686	8.51207	2.46478	5.2493	0.0154318	-0.00830522	-0.0115547	-0.870117	0.0656738	-0.602051	-0.0165043	-0.435397	0.0880835	0.895767	-7.62688	1.63043	5.98834	-0.00249487	0.0245119	0.0140299	0.496094	-0.130615	-0.895996	-0.372784	0.531127	0.0668894	0.757933	8.48366	-2.93436	4.27615	0.0191812	0.0101909	-0.0199048	-0.840576	0.520752	-0.0705566	-0.939449	0.0947918	-0.317592	0.0870926	-7.16571	-2.86662	9.62983	-0.00196973	-0.00479572	-0.015264	0.961182	0.258545	-0.289551	-0.399782	0.577503	0.460145	0.543076	9.76795	0.375616	-0.948037	0.0628438	-0.0687328	-0.0438098	-0.895508	0.357178	0.211914	-0.278669	0.54858	0.450951	0.646566	9.46254	2.72182	-0.035094	0.0991827	0.0215444	-0.031615	-1.03979	0.146484	0.223389	-0.401508	0.508819	0.495234	0.578479	9.70641	1.79382	-0.0837222	0.13061	0.064062	-0.00838964	-1.0437	0.26416	0.0949707	-0.232283	0.431721	0.112613	0.86428	8.2268	-0.0123485	6.23966	0.0430816	-0.00280529	0.00913883	-0.984863	0.235596	-0.248047	-0.111538	0.989196	0.0908703	-0.0281794	-0.206483	-2.1035	-9.48154	-0.0261683	0.00368207	-0.0409063	0.454102	0.330811	0.913818	
16	-0.445704	0.444323	0.310694	0.712316	9.3452	0.371609	4.24587	-0.00253973	0.00330281	-0.00412322	-0.851074	0.372803	-0.231934	-0.535409	0.383851	0.271634	0.701577	8.39704	-0.188251	5.46249	0.0313341	0.00529472	-0.0218671	-0.662598	0.3396	-0.375	-0.640917	0.223322	0.437733	0.589697	8.52458	2.42009	5.20568	0.0114013	-0.00236141	-0.0121538	-0.86792	0.0634766	-0.613281	-0.0169877	-0.435919	0.0880419	0.895508	-7.58137	1.67732	5.9878	-0.00779229	0.0326548	0.0168784	0.491699	-0.133057	-0.891357	-0.372921	0.530888	0.0673843	0.757989	8.37977	-3.00126	4.28931	0.0311572	0.0128443	-0.0157274	-0.844971	0.518555	-0.0727539	-0.939626	0.0952221	-0.31703	0.0867638	-7.12722	-2.86305	9.5988	-0.0159813	-0.0165719	-0.00426162	0.961182	0.256348	-0.2854	-0.399396	0.577692	0.460946	0.542479	9.69276	0.368395	-0.892343	0.0479909	-0.0638024	-0.0432816	-0.893555	0.36377	0.209473	-0.279641	0.547771	0.452868	0.645491	9.49202	2.81715	-0.0471039	0.0812991	0.00482578	-0.0340362	-1.03955	0.14209	0.223633	-0.402212	0.508296	0.495404	0.578304	9.7295	1.6706	-0.170301	0.0660149	0.0468652	-0.00957633	-1.04614	0.266602	0.0859375	-0.232911	0.431712	0.114034	0.863929	8.14824	-0.0543841	6.2181	0.0595875	-6.39455e-05	0.00406018	-0.986816	0.230957	-0.243164	-0.110809	0.989166	0.0920736	-0.0281841	-0.184685	-2.13008	-9.46935	-0.0277686	-0.00354336	-0.0535891	0.456299	0.333008	0.918457	
17	-0.445894	0.443748	0.311211	0.71233	9.32073	0.341665	4.22922	0.0418421	0.0098232	-0.0128113	-0.848389	0.366455	-0.234131	-0.53599	0.383358	0.27238	0.701114	8.35605	-0.160692	5.43766	0.0380163	0.00944461	-0.00651444	-0.658203	0.337402	-0.377197	-0.641158	0.222769	0.438294	0.589227	8.52225	2.34907	5.17476	0.048628	0.00450528	0.00701626	-0.874268	0.0634766	-0.606445	-0.0178631	-0.436483	0.0874923	0.89527	-7.52649	1.70145	5.92849	-0.0413101	0.0341394	0.0260579	0.491699	-0.128662	-0.898193	-0.374244	0.530136	0.0688857	0.757728	8.33319	-2.91003	4.20297	0.0964758	5.30874e-05	0.00328857	-0.840576	0.520752	-0.0705566	-0.939947	0.0954287	-0.316254	0.0858882	-7.0734	-2.84979	9.51563	-0.016305	-0.0231204	0.0197799	0.963379	0.252197	-0.293701	-0.398748	0.578213	0.462447	0.541121	9.73676	0.461415	-0.94485	0.0396508	-0.0585923	-0.0328309	-0.897705	0.361572	0.209473	-0.280221	0.547051	0.454478	0.644718	9.42771	2.94544	-0.0242249	0.0828423	0.0118218	-0.0408369	-1.03125	0.148682	0.22583	-0.404095	0.506585	0.496957	0.577159	9.6886	1.77396	-0.023908	0.0587447	0.0187755	-0.018215	-1.04395	0.268799	0.0837402	-0.2338	0.431528	0.115598	0.863573	8.14019	0.0156212	6.20829	0.0757861	0.00278058	0.0117737	-0.987061	0.235352	-0.243408	-0.110122	0.989108	0.0935003	-0.0282216	-0.198686	-2.15717	-9.43007	-0.0210287	-0.00616077	-0.0606893	0.451904	0.328613	0.918457	
18	-0.446726	0.442607	0.312695	0.711868	9.27071	0.424139	4.21272	0.0967863	0.000901993	-0.00832496	-0.848877	0.373047	-0.236328	-0.536768	0.382993	0.273302	0.700359	8.35574	-0.169961	5.50072	0.0417966	0.0046406	0.00347908	-0.666992	0.339355	-0.381836	-0.64169	0.222235	0.438857	0.58843	8.50702	2.34759	5.12457	0.0466326	0.00445415	0.0176492	-0.870117	0.0656738	-0.608887	-0.0185301	-0.436728	0.0870591	0.895179	-7.51898	1.6691	5.91161	-0.0524814	0.0331695	0.0325733	0.493896	-0.130859	-0.893799	-0.375737	0.529732	0.0707301	0.757102	8.33518	-2.80531	4.15746	0.0968464	-0.0213418	0.00230739	-0.843018	0.525146	-0.0751953	-0.940189	0.0964306	-0.315598	0.0845217	-7.01932	-2.84696	9.53407	-0.0544113	-0.0201096	0.0200919	0.963379	0.25415	-0.293701	-0.399129	0.577604	0.463644	0.540467	9.71115	0.44581	-0.821825	0.0652177	0.0231453	-0.0335756	-0.895752	0.36377	0.209473	-0.280247	0.546737	0.45513	0.644513	9.4391	2.76266	0.0056641	0.0184494	0.0140005	-0.0317058	-1.0376	0.148682	0.221191	-0.404487	0.506231	0.497237	0.576954	9.70949	1.63347	-0.024666	0.011842	0.00999374	-0.0209563	-1.04126	0.257568	0.0839844	-0.234408	0.431446	0.116653	0.863307	8.17814	0.0712818	6.15544	0.0469059	0.00615842	0.00817431	-0.991699	0.237549	-0.241211	-0.109288	0.989088	0.0946728	-0.0282585	-0.199684	-2.23929	-9.40639	-0.0217968	-0.00332132	-0.0449354	0.451904	0.330811	0.911621	
19	-0.447815	0.441498	0.314685	0.710995	9.30722	0.529202	4.23657	0.10831	-0.0101062	-0.00596966	-0.85083	0.368652	-0.242676	-0.537529	0.382923	0.274296	0.699424	8.4302	-0.129937	5.45439	0.0247503	0.000376672	0.00503532	-0.662354	0.333008	-0.374756	-0.642626	0.22129	0.440027	0.586889	8.51432	2.36399	5.17102	0.1132	-0.00328516	0.0394939	-0.86792	0.0612793	-0.604004	-0.0211773	-0.437506	0.0866231	0.894783	-7.62233	1.57999	5.88943	-0.0301736	0.0353146	0.0716672	0.493652	-0.126465	-0.893799	-0.376808	0.52983	0.0722587	0.756356	8.46117	-2.7303	4.21527	0.0585963	-0.0348658	-0.00509619	-0.840576	0.518555	-0.0727539	-0.940258	0.0981967	-0.315147	0.0833935	-7.03484	-2.9445	9.59731	-0.0783275	-0.0117786	-0.00436379	0.961426	0.25	-0.291504	-0.399936	0.576479	0.463418	0.541265	9.78253	0.481293	-0.9077	0.0313417	0.0989057	-0.0310486	-0.891357	0.359375	0.20752	-0.280547	0.546599	0.455927	0.643936	9.48924	2.98121	0.0623987	0.0361934	0.00464824	-0.0212392	-1.0376	0.146484	0.221191	-0.403833	0.50654	0.49642	0.577844	9.67184	1.8911	0.00270642	-0.102185	0.0189189	-0.0285531	-1.0415	0.264404	0.0881348	-0.235148	0.431423	0.117307	0.863029	8.16004	0.0539178	6.14876	0.0312957	0.00271907	0.0179297	-0.989258	0.235352	-0.245605	-0.109095	0.989022	0.0955652	-0.0283102	-0.227843	-2.15618	-9.50285	-0.00972475	-0.00343903	-0.0339769	0.454102	0.330811	0.922852	
20	-0.448541	0.440649	0.316678	0.71018	9.29149	0.667557	4.23196	0.0855458	-0.0242273	-0.00792165	-0.850342	0.362061	-0.242676	-0.538361	0.382825	0.275886	0.698212	8.41387	-0.185381	5.40635	0.0918486	-0.045519	0.00389514	-0.662354	0.335205	-0.379395	-0.643458	0.220582	0.441191	0.585368	8.44848	2.54136	5.27219	0.0393788	-0.00944467	0.0298827	-0.870117	0.0634766	-0.604248	-0.0230991	-0.437832	0.0867485	0.894564	-7.61707	1.67268	5.86636	-0.0238439	0.0250989	0.0665147	0.500732	-0.130615	-0.898193	-0.377121	0.530152	0.0731873	0.755885	8.51297	-2.77555	4.25616	0.0109965	-0.0237057	-0.0160162	-0.84082	0.522949	-0.0705566	-0.940169	0.100358	-0.314931	0.0826401	-7.06467	-3.03893	9.62019	-0.0880353	-0.00252546	-0.0169724	0.961182	0.256348	-0.291748	-0.401088	0.574819	0.463694	0.541941	9.93348	0.481467	-0.929885	0.0868106	0.143552	-0.0400876	-0.9021	0.359375	0.203125	-0.279595	0.547165	0.455128	0.644434	9.4189	2.80068	-0.0448873	-0.0677061	0.00466217	-0.0168585	-1.03296	0.14209	0.22583	-0.402597	0.507411	0.494649	0.579459	9.68307	1.92659	4.83513e-05	-0.14615	0.0283263	-0.0196631	-1.04614	0.266602	0.0881348	-0.235312	0.431425	0.117357	0.862976	8.28371	0.0603848	6.17373	0.00434607	0.0158109	0.00705229	-0.984619	0.233398	-0.240967	-0.108431	0.989052	0.0960128	-0.0282964	-0.158324	-2.13682	-9.50395	-0.0339238	0.00619836	-0.0181549	0.449707	0.328613	0.91626	
21	-0.449005	0.440457	0.318358	0.709254	9.26579	0.584222	4.1988	0.0719167	-0.0432573	-0.0102095	-0.848389	0.366455	-0.240479	-0.538992	0.38284	0.278286	0.696763	8.40419	-0.0771909	5.51739	0.0897488	-0.0565917	-0.0105667	-0.662354	0.335205	-0.379395	-0.64373	0.22069	0.441929	0.584472	8.51031	2.43292	5.21275	0.0414239	-0.017221	0.0261088	-0.86792	0.0656738	-0.613281	-0.0245343	-0.438259	0.087059	0.894286	-7.65499	1.71925	5.86403	-0.0167914	0.0324065	0.0545374	0.498291	-0.126465	-0.891602	-0.377098	0.530263	0.0737422	0.755765	8.55711	-2.82215	4.24481	0.0294664	-0.0208068	-0.0323807	-0.845215	0.525146	-0.0773926	-0.940241	0.10213	-0.314278	0.0821334	-7.01824	-2.99846	9.65455	-0.0676397	-0.0222335	-0.0182082	0.958984	0.256348	-0.293945	-0.404191	0.571326	0.463678	0.54334	9.56737	0.506601	-0.860095	0.0346201	0.0902785	-0.0301842	-0.899658	0.35498	0.197021	-0.278157	0.54841	0.453668	0.645027	9.4666	2.64416	-0.182108	-0.0961079	-0.0213225	0.00124761	-1.0376	0.144287	0.22583	-0.400357	0.509108	0.491992	0.581779	9.70272	1.40918	-0.138388	-0.17087	0.012124	-0.0231856	-1.04395	0.266602	0.0859375	-0.236038	0.430668	0.117337	0.863159	8.1954	-0.0147303	6.16209	0.0180808	0.0394785	0.0218934	-0.987061	0.233154	-0.250244	-0.108266	0.989016	0.0966584	-0.0279904	-0.28564	-2.11408	-9.48635	0.00112758	0.011124	-0.0322022	0.452148	0.326416	0.92749	
22	-0.449028	0.440734	0.320201	0.708236	9.42739	0.600926	4.21598	0.0587525	-0.0659342	-0.0120714	-0.857178	0.362061	-0.236328	-0.539419	0.38296	0.280117	0.695632	8.54975	-0.0745296	5.45241	0.0479536	-0.0380979	-0.00609668	-0.666748	0.335205	-0.372314	-0.644245	0.220112	0.442961	0.583339	8.64012	2.55659	5.24499	0.0679436	-0.00911038	0.0149402	-0.869873	0.0568848	-0.61084	-0.025773	-0.438601	0.0871752	0.894072	-7.77572	1.70227	5.94216	-0.00834105	0.0257416	0.0434855	0.493652	-0.126465	-0.895996	-0.377548	0.530101	0.0757102	0.755459	8.44295	-2.81488	4.23817	0.0776688	-0.022403	-0.0301987	-0.844971	0.522949	-0.0705566	-0.940383	0.103421	-0.313569	0.0816005	-7.08534	-3.02758	9.70479	-0.0485646	-0.0195956	-0.00969901	0.965576	0.256348	-0.293945	-0.404781	0.570562	0.463836	0.543568	9.82817	0.34236	-0.738355	0.0400623	0.0673244	-0.0319341	-0.900146	0.36377	0.19043	-0.277456	0.548931	0.452901	0.645425	9.53384	2.39333	-0.218598	-0.0917495	-0.000986552	-0.00831447	-1.0376	0.146484	0.223389	-0.400025	0.508928	0.49215	0.582031	9.82933	1.64488	-0.0411657	0.0304316	0.0155269	-0.0404408	-1.0459	0.257324	0.0927734	-0.236059	0.430747	0.117081	0.863148	8.28358	0.0900827	6.07633	-0.0107843	0.00440729	0.00329681	-0.993896	0.237549	-0.243408	-0.108388	0.988985	0.0968427	-0.02796	-0.332511	-2.04761	-9.45456	0.0136323	0.00613243	-0.0210558	0.451904	0.333008	0.916016	
23	-0.448894	0.440913	0.321123	0.707792	9.48896	0.597442	4.16805	0.0536246	-0.064839	-0.0206316	-0.846191	0.366455	-0.236328	-0.539548	0.383167	0.28069	0.695187	8.57381	-0.120301	5.54523	0.0295664	-0.0323255	-0.00537506	-0.662109	0.328613	-0.381592	-0.644245	0.220112	0.442961	0.583339	8.64012	2.55659	5.24499	0.0679436	-0.00911038	0.0149402	-0.869873	0.0568848	-0.61084	-0.0262411	-0.438751	0.0874477	0.893959	-7.74273	1.69391	5.97801	0.00506337	0.0247053	0.0440085	0.493896	-0.128662	-0.891602	-0.378674	0.529648	0.077564	0.755025	8.60596	-2.64173	4.18775	0.068655	-0.0136833	-0.00873603	-0.843018	0.522949	-0.0751953	-0.940393	0.104015	-0.313409	0.0813471	-7.12679	-3.06795	9.65963	-0.0465323	-0.00435752	-0.0118809	0.963379	0.252197	-0.293701	-0.405414	0.56986	0.464264	0.543469	9.86283	0.329928	-0.869795	0.0881818	0.0467562	-0.031327	-0.897705	0.357178	0.186279	-0.277968	0.548606	0.453831	0.644828	9.49893	2.82619	-0.164109	0.0874184	0.00803478	-0.0242249	-1.0354	0.14624	0.235107	-0.400272	0.508537	0.492584	0.581836	9.77766	1.65713	-0.119667	0.0562008	0.0133944	-0.0350249	-1.03931	0.266602	0.081543	-0.235897	0.430825	0.117057	0.863157	8.27067	0.0552145	6.17695	-0.00874548	0.00727362	-0.00634578	-0.993896	0.239746	-0.243408	-0.108366	0.989011	0.0965862	-0.0280179	-0.28945	-2.10139	-9.58955	0.0198441	0.00362717	0.013951	0.449707	0.330811	0.916016	
24	-0.448621	0.441215	0.322712	0.707054	9.52031	0.665671	4.10385	0.0391576	-0.051242	-0.0140155	-0.852539	0.362061	-0.234131	-0.539545	0.383955	0.281579	0.694394	8.53866	-0.116965	5.34731	0.00627033	-0.0424177	-0.00569904	-0.664551	0.333008	-0.374756	-0.64465	0.220226	0.443925	0.582115	8.63233	2.52769	5.42385	-0.00617575	-0.00735133	0.0282609	-0.87207	0.0612793	-0.599609	-0.0268613	-0.438598	0.0878403	0.893977	-7.7673	1.71654	5.98793	7.79295e-05	-0.00633027	0.0239893	0.491699	-0.128662	-0.893799	-0.378671	0.530034	0.0780685	0.754703	8.53242	-2.79927	4.15624	0.0144025	-0.0229687	-0.0185073	-0.838379	0.518555	-0.0705566	-0.94029	0.104768	-0.313496	0.0812296	-7.08436	-3.04312	9.62684	-0.0229946	0.0214487	-0.0227792	0.961182	0.256348	-0.291748	-0.405606	0.569521	0.464571	0.543419	9.88324	0.462096	-0.768604	0.0184097	0.0128866	-0.0226974	-0.9021	0.359375	0.186279	-0.278638	0.548034	0.454748	0.644378	9.54457	2.7183	-0.109177	0.0723777	0.0304291	-0.0267325	-1.0376	0.144287	0.230469	-0.401801	0.50711	0.493609	0.581159	9.75432	1.50108	-0.151309	0.128609	0.0595075	-0.0133378	-1.0415	0.264404	0.081543	-0.235632	0.431278	0.117382	0.862959	8.21559	0.0801657	6.29346	0.0155502	-0.0177027	-0.00979388	-0.991455	0.233154	-0.245605	-0.108383	0.989037	0.096231	-0.0282514	-0.153196	-2.05208	-9.56778	0.000185262	-0.00321078	0.0135175	0.451904	0.328613	0.920654	
25	-0.448523	0.441498	0.323378	0.706635	9.46535	0.671166	4.04962	0.0108722	-0.0214687	-0.00436688	-0.85498	0.364258	-0.240479	-0.539244	0.384949	0.282133	0.693852	8.48372	-0.132196	5.31891	-0.0190884	-0.0441431	-0.018382	-0.664551	0.335205	-0.374756	-0.644587	0.221511	0.442695	0.582634	8.47821	2.45577	5.22962	-0.0853731	0.0111303	0.0150317	-0.870117	0.0678711	-0.611084	-0.0267624	-0.437902	0.0878289	0.894322	-7.60665	1.70641	5.93306	0.0017897	-0.02596	-0.00674613	0.491455	-0.126465	-0.895996	-0.378567	0.530254	0.0783656	0.75457	8.55413	-2.7417	4.23141	0.00745575	-0.0206189	-0.0252275	-0.840576	0.518555	-0.0751953	-0.940156	0.105031	-0.313741	0.081493	-7.0773	-3.02007	9.61199	0.0084684	0.0232244	-0.0268093	0.965332	0.262939	-0.289795	-0.405376	0.569189	0.463904	0.544505	9.71587	0.434403	-0.776047	-0.0220282	0.0583497	-0.0338086	-0.900146	0.36377	0.186035	-0.279819	0.547106	0.456715	0.643264	9.41853	2.9811	-0.112136	0.100005	0.0104242	-0.0338199	-1.03564	0.148682	0.221191	-0.403431	0.50591	0.494897	0.57998	9.70629	1.6709	-0.0558368	0.100737	0.0231959	-0.0108688	-1.0437	0.261963	0.0837402	-0.235275	0.431525	0.11779	0.862877	8.23718	-0.0429633	6.34793	0.0136626	0.00579413	-0.0150398	-0.989258	0.233154	-0.243408	-0.108138	0.989093	0.0959385	-0.0282237	-0.0547345	-2.20157	-9.55443	0.00623779	0.0110836	0.00222922	0.45874	0.326416	0.918457	
26	-0.448279	0.441879	0.323095	0.706681	9.37147	0.645812	4.07208	-0.0283554	-0.0090426	-4.07803e-05	-0.857178	0.364014	-0.234131	-0.538709	0.385857	0.282584	0.69358	8.44825	-0.119237	5.37975	-0.0294488	-0.0247042	-0.0300078	-0.666504	0.330811	-0.374512	-0.644143	0.222953	0.441635	0.583379	8.41633	2.37745	5.11497	-0.0686639	-0.0101387	-0.00180287	-0.870117	0.0678711	-0.604248	-0.0261846	-0.437502	0.0881204	0.894506	-7.5368	1.71321	5.89453	0.0282901	-0.00619543	-0.0122923	0.491699	-0.130859	-0.898193	-0.378317	0.530397	0.0791799	0.75451	8.48004	-2.77648	4.15967	0.0330629	-0.00295555	-0.0223893	-0.842773	0.518555	-0.0727539	-0.940127	0.104953	-0.313776	0.0817995	-7.01334	-3.00731	9.55355	0.00852668	0.0148929	-0.0260018	0.965576	0.256348	-0.293945	-0.405152	0.568574	0.463649	0.545532	9.7442	0.504253	-0.735873	-0.0233384	0.0607052	-0.0437954	-0.904053	0.35498	0.188477	-0.279673	0.546811	0.457118	0.643291	9.43615	2.93541	0.0616263	-0.00654679	0.0121692	-0.0350641	-1.03955	0.14209	0.228271	-0.404354	0.50526	0.49588	0.579062	9.69736	1.65668	0.121267	0.0348892	0.00268402	-0.0167931	-1.0437	0.262207	0.0749512	-0.235315	0.431216	0.118589	0.862911	8.15754	0.0144044	6.24575	0.024528	0.0217461	-0.009571	-0.987061	0.233154	-0.243408	-0.107756	0.989143	0.096	-0.0277329	-0.141584	-2.23808	-9.42366	-0.00976705	0.0257123	-0.0100484	0.452148	0.326416	0.918457	
27	-0.447658	0.442704	0.322333	0.706907	9.3565	0.596411	4.0893	-0.056413	-0.0208904	0.00337636	-0.853027	0.370605	-0.231934	-0.538102	0.38638	0.282988	0.693595	8.48631	-0.130448	5.35962	-0.0123985	-0.0143663	-0.0382769	-0.668945	0.335205	-0.376953	-0.643637	0.223775	0.441485	0.583735	8.49921	2.33882	5.09145	-0.0249378	-0.016697	-0.00556937	-0.874512	0.0656738	-0.601807	-0.0256908	-0.437547	0.088731	0.894438	-7.58117	1.72765	5.89338	0.0333825	0.0106848	-0.00216614	0.491699	-0.133057	-0.893555	-0.37795	0.530478	0.0796383	0.754589	8.52097	-2.62097	4.22452	-0.0244884	0.00194695	-0.0369873	-0.844971	0.518555	-0.0773926	-0.9401	0.105132	-0.313673	0.0822639	-7.04505	-2.99399	9.58192	0.00290305	0.0104646	-0.0390892	0.963379	0.25415	-0.293701	-0.404034	0.56846	0.462869	0.54714	9.7474	0.543672	-0.666395	-0.066798	0.0156418	-0.0550467	-0.908447	0.357178	0.181885	-0.280072	0.546339	0.457538	0.643221	9.55373	2.51726	0.0247076	0.0652189	0.0376784	-0.0206376	-1.0376	0.148682	0.223389	-0.405289	0.50492	0.496485	0.578186	9.78306	1.58671	0.0155399	0.0680906	-0.00302691	-0.00131971	-1.04639	0.27124	0.0791016	-0.235308	0.430985	0.118861	0.862991	8.12361	0.0851501	6.15832	0.00180464	0.0177626	-0.00439896	-0.989014	0.230957	-0.245605	-0.107938	0.989156	0.0957902	-0.0272685	-0.21756	-2.23088	-9.46923	0.0151683	0.0217904	0.00841511	0.454102	0.328613	0.91626	
28	-0.446846	0.443751	0.321485	0.70715	9.50059	0.496839	4.12189	-0.0566341	-0.0251384	-0.00639253	-0.852783	0.364258	-0.234131	-0.537459	0.386232	0.283705	0.693883	8.53687	-0.0789298	5.37554	0.00551044	-0.00721961	-0.0465599	-0.668945	0.333008	-0.369873	-0.643244	0.2238	0.441997	0.583772	8.56499	2.48199	5.14527	0.0109994	-0.0158421	-0.0201302	-0.872314	0.0656738	-0.604248	-0.0255847	-0.43793	0.0895065	0.894176	-7.672	1.72019	5.93238	0.0327787	0.0292308	0.0151767	0.496338	-0.135254	-0.893555	-0.376607	0.530767	0.0789041	0.755134	8.57834	-2.78054	4.3381	-0.0632149	0.0160087	-0.0454739	-0.842773	0.520752	-0.0751953	-0.9401	0.105511	-0.313331	0.0830815	-7.1264	-2.98709	9.69849	-0.000213939	0.000166672	-0.0552299	0.956787	0.258545	-0.291748	-0.402747	0.568451	0.462483	0.548423	9.88169	0.538194	-0.739339	-0.0307733	0.0307954	-0.0569008	-0.903809	0.35083	0.182129	-0.281714	0.54539	0.459411	0.641972	9.42135	2.87199	-0.0711766	0.124351	0.0178183	-0.0174622	-1.0354	0.144287	0.228271	-0.40619	0.504691	0.497299	0.577053	9.8109	1.65138	-0.0968005	0.0769494	-0.00564141	0.000290506	-1.0437	0.264404	0.0771484	-0.23468	0.431184	0.118791	0.863073	8.15804	0.0178009	6.14392	-0.016604	-0.00232087	-0.0252387	-0.991455	0.233154	-0.243408	-0.108196	0.989222	0.0947938	-0.0273468	-0.293558	-1.95803	-9.46298	0.00387044	0.00218203	0.0402509	0.451904	0.328613	0.913818	
29	-0.445879	0.444051	0.321396	0.707613	9.4911	0.425677	4.06936	-0.0196733	-0.00999276	-0.036676	-0.854492	0.355469	-0.225342	-0.537221	0.385783	0.284647	0.693931	8.5746	0.00862288	5.40955	0.0231786	0.013943	-0.0441526	-0.668701	0.330811	-0.367432	-0.642983	0.223075	0.443388	0.583281	8.67879	2.48446	5.18761	0.0815188	-0.0214022	-0.0209836	-0.874268	0.0615234	-0.608643	-0.0257874	-0.438724	0.0903905	0.893692	-7.79682	1.7517	5.96378	0.0229352	0.0458157	0.0220439	0.496338	-0.133057	-0.891357	-0.375843	0.530502	0.0787534	0.755716	8.48943	-2.94035	4.40663	0.0112695	0.0285952	-0.0390191	-0.844727	0.516357	-0.0727539	-0.940238	0.106001	-0.312616	0.0835974	-7.09091	-3.01197	9.78038	-0.00457359	-0.018923	-0.0346637	0.95874	0.260742	-0.291748	-0.402428	0.567723	0.462586	0.549324	9.85316	0.563112	-0.680534	0.00537901	0.045922	-0.046733	-0.908203	0.35083	0.186523	-0.282185	0.545577	0.460512	0.640817	9.37231	2.94721	-0.130491	0.0298546	-0.0253989	-0.0103021	-1.03735	0.14209	0.228271	-0.406628	0.504859	0.497574	0.57636	9.69491	1.75052	-0.0639249	0.0174769	-0.00837019	-0.00354614	-1.04395	0.266602	0.074707	-0.233871	0.431905	0.119337	0.862856	8.20947	-0.0475158	6.20674	0.0153794	-0.032486	-0.0272838	-0.986816	0.22876	-0.245605	-0.107099	0.989397	0.094187	-0.0274112	-0.196767	-2.03409	-9.49687	-0.0519374	0.00122971	0.0156601	0.45459	0.322021	0.91626	
30	-0.445519	0.443016	0.322282	0.708084	9.40917	0.488164	4.07525	0.0513181	0.0228243	-0.0515091	-0.848389	0.364258	-0.229736	-0.537282	0.385136	0.28511	0.694054	8.34939	-0.0507201	5.25176	0.0207193	0.0211468	-0.0338498	-0.673096	0.328613	-0.376709	-0.642907	0.222147	0.443779	0.583422	8.41841	2.62143	5.25429	-0.00521138	0.0269814	-0.0303825	-0.870117	0.0612793	-0.608643	-0.0258336	-0.439379	0.0898573	0.893423	-7.56796	1.75715	5.83831	-0.0313789	0.0307941	-0.0197975	0.496338	-0.135254	-0.88916	-0.377239	0.528994	0.0803228	0.755913	8.28192	-2.83386	4.26727	0.129188	0.0388494	0.000488803	-0.844727	0.516357	-0.0751953	-0.940735	0.105648	-0.311371	0.083089	-6.92395	-2.96933	9.57823	0.0251177	-0.0449368	0.017645	0.960938	0.262939	-0.29834	-0.402206	0.567347	0.463018	0.549511	9.57476	0.565989	-0.715935	0.0446831	-5.14222e-05	-0.0418355	-0.906006	0.352783	0.190674	-0.281905	0.546187	0.461265	0.639878	9.45566	2.69419	0.03547	0.0515866	-0.0358428	-0.0187432	-1.0332	0.14624	0.23291	-0.407252	0.504606	0.498532	0.575312	9.75688	1.63186	-0.0346088	0.0774983	-0.0131678	-0.0126837	-1.03931	0.27124	0.081543	-0.23356	0.432368	0.120463	0.862553	8.09831	0.0357883	6.27503	0.0400768	-0.0168587	-0.0211464	-0.989014	0.230957	-0.245605	-0.106052	0.989506	0.0942575	-0.0273143	-0.0603326	-2.12649	-9.47824	-0.040426	0.00241127	-0.00394453	0.454346	0.326416	0.923096	
31	-0.445737	0.442043	0.322904	0.708273	9.35781	0.557222	4.1053	0.0738711	0.0422115	-0.0440096	-0.85498	0.362061	-0.234131	-0.5376	0.384734	0.286189	0.693586	8.41409	-0.0228627	5.28057	0.0485848	-0.0112092	-0.0175159	-0.666504	0.326416	-0.369629	-0.642611	0.222291	0.443118	0.584195	8.43163	2.49622	5.09531	-0.0709705	0.0342859	-0.03841	-0.874268	0.0612793	-0.599609	-0.0257364	-0.439639	0.0891017	0.893373	-7.50534	1.7905	5.77606	-0.0488492	0.0279657	-0.0339884	0.496094	-0.130859	-0.893799	-0.378369	0.528146	0.0813959	0.755826	8.22348	-2.6664	4.2095	0.138058	0.0302977	0.00810759	-0.842529	0.516357	-0.0751953	-0.941031	0.105339	-0.310741	0.0824904	-6.85749	-2.97341	9.50408	0.0183687	-0.043733	0.0348476	0.956787	0.256348	-0.295898	-0.40192	0.567334	0.463265	0.549526	9.63241	0.553479	-0.694484	0.0127125	-0.00550819	-0.0411564	-0.907959	0.348633	0.184326	-0.282213	0.546261	0.462294	0.638936	9.42929	2.71966	-0.210954	0.103946	-0.0391689	-0.0211254	-1.0376	0.146484	0.228027	-0.407417	0.504574	0.498759	0.575026	9.72885	1.82605	-0.0156281	0.0352443	-0.00402291	-0.0143024	-1.04175	0.269043	0.074707	-0.233473	0.432401	0.120912	0.862496	8.12064	0.0651881	6.20005	0.0274447	-0.000918986	-0.0171167	-0.995605	0.224365	-0.240967	-0.105514	0.989548	0.0944331	-0.027285	-0.0904042	-2.21302	-9.4156	-0.0399744	0.00230871	-0.0156794	0.452148	0.324219	0.920898	
32	-0.446579	0.439766	0.324658	0.708357	9.20938	0.704282	4.15791	0.112891	0.0379503	-0.0411635	-0.850342	0.359863	-0.240479	-0.537898	0.38454	0.286738	0.693236	8.44023	-0.01482	5.3105	0.0480069	-0.00264317	-0.00877533	-0.670654	0.324219	-0.378906	-0.642409	0.222344	0.442746	0.584679	8.55535	2.19076	4.85233	0.0203838	0.00468151	-5.29335e-05	-0.870117	0.0634766	-0.611084	-0.0261281	-0.440162	0.0881095	0.893203	-7.49125	1.73448	5.77528	-0.0345991	0.0327543	0.0180218	0.496094	-0.128662	-0.889404	-0.379859	0.527468	0.0834127	0.755332	8.32778	-2.53931	4.16279	0.0928162	-0.0208755	-0.00912395	-0.849121	0.516602	-0.0842285	-0.941338	0.10583	-0.309988	0.0811763	-6.84699	-2.90282	9.54681	-0.0447649	-0.0184258	0.0158096	0.958984	0.256348	-0.298096	-0.402247	0.566552	0.463781	0.549658	9.66316	0.609179	-0.749627	0.0534096	0.0264203	-0.0351225	-0.908203	0.350586	0.188477	-0.282531	0.546248	0.463132	0.638199	9.33324	2.94627	-0.152084	0.0888719	-0.0218519	-0.0200548	-1.03369	0.155029	0.232666	-0.406596	0.505198	0.497273	0.576345	9.51978	1.76531	0.00465895	-0.113886	0.026376	-0.0205392	-1.0415	0.264404	0.0837402	-0.233423	0.43238	0.121697	0.86241	8.13003	-0.0145857	6.16599	0.0329177	0.00271373	-0.00949019	-0.989014	0.230957	-0.243164	-0.104678	0.989603	0.0948432	-0.0270769	-0.178388	-2.17075	-9.45283	-0.0303315	0.0121964	-0.0192386	0.454834	0.31543	0.91626	
33	-0.447192	0.43818	0.326693	0.708018	9.27283	0.845818	4.19699	0.0950958	-0.0038033	-0.0310803	-0.854248	0.351074	-0.240479	-0.538515	0.384471	0.287597	0.692439	8.5797	-0.00247701	5.23895	0.0165988	0.00255466	0.00216578	-0.666504	0.330811	-0.37915	-0.643437	0.220685	0.445001	0.582461	8.54556	2.37761	5.07284	0.179425	-0.0195304	0.0369631	-0.87207	0.0612793	-0.604004	-0.0279837	-0.44071	0.0885898	0.892829	-7.67783	1.6102	5.82867	0.00512687	0.0425501	0.0917571	0.49585	-0.126465	-0.893799	-0.380618	0.527552	0.0849101	0.754724	8.51823	-2.52858	4.20795	0.0478198	-0.0304069	-0.0122064	-0.847168	0.518555	-0.0751953	-0.941282	0.107838	-0.309646	0.0804906	-6.98887	-3.05354	9.62045	-0.0835566	-0.00449418	-0.0290274	0.958984	0.256348	-0.293945	-0.40269	0.565901	0.463709	0.550064	9.86662	0.580015	-0.624429	0.0125464	0.0746026	-0.0162795	-0.903564	0.344238	0.184326	-0.280599	0.547308	0.462467	0.638625	9.43253	2.66808	-0.252626	-0.0520614	-0.0296913	-0.02612	-1.03101	0.14624	0.237549	-0.405806	0.505378	0.497011	0.57697	9.81535	1.93309	0.118817	-0.0761349	0.00209506	-0.0412454	-1.04614	0.264404	0.0793457	-0.233352	0.432431	0.122041	0.862355	8.21824	0.157538	6.18909	-0.00468735	0.00993784	-0.000425551	-0.993408	0.22876	-0.240967	-0.104151	0.989623	0.0952394	-0.0269897	-0.177728	-1.95676	-9.54481	-0.0181327	0.00326032	-0.0254987	0.449951	0.322021	0.920898	
34	-0.447365	0.437586	0.32852	0.70743	9.42801	0.933421	4.19607	0.0635522	-0.0314711	-0.0163662	-0.856445	0.351074	-0.242676	-0.538712	0.384553	0.287682	0.692205	8.497	0.0163414	5.34894	0.00355072	0.00269543	0.000348332	-0.670654	0.326416	-0.374512	-0.64431	0.219564	0.446847	0.580503	8.59217	2.771	5.31544	0.050376	-0.0159999	0.0296123	-0.87207	0.0568848	-0.601807	-0.0298105	-0.441115	0.089286	0.892501	-7.80667	1.86433	5.88178	-0.0180411	0.0256992	0.0605383	0.496094	-0.130859	-0.891602	-0.38056	0.528058	0.0853309	0.754352	8.59953	-2.64628	4.24797	-0.00812887	-0.019754	-0.017115	-0.842529	0.516357	-0.0795898	-0.941098	0.109836	-0.309582	0.0801803	-7.04072	-3.22702	9.74984	-0.075246	0.00858854	-0.0247477	0.958984	0.258545	-0.29834	-0.402734	0.565707	0.463342	0.550541	9.88993	0.554046	-1.03042	0.0372137	0.0580744	-0.0151978	-0.907959	0.346436	0.182373	-0.27957	0.548188	0.462526	0.638279	9.50666	2.77166	-0.359281	-0.0192884	-0.0290877	-0.0199281	-1.0354	0.144043	0.237549	-0.404121	0.506554	0.495599	0.578334	9.78428	1.15187	-0.283224	-0.023537	-0.0114771	-0.0244711	-1.0415	0.266602	0.081543	-0.233194	0.432507	0.122687	0.862268	8.27325	0.251288	6.18906	0.0247794	0.000786698	-0.0210794	-0.989014	0.226562	-0.238525	-0.103188	0.989693	0.0956234	-0.0267578	-0.160072	-1.8585	-9.59882	-0.0332665	0.0125543	-0.0135736	0.457031	0.31543	0.920898	
35	-0.447415	0.437907	0.329691	0.706655	9.419	0.854422	4.07381	0.0363036	-0.0495165	-0.00639477	-0.849854	0.349121	-0.236084	-0.539252	0.384401	0.289827	0.690973	8.61864	0.0473849	5.33112	0.0348681	-0.00747656	-0.0118793	-0.670654	0.324219	-0.37207	-0.644209	0.219924	0.447153	0.580243	8.67458	2.56256	5.2139	0.0112023	-0.0113108	0.00372552	-0.876465	0.0571289	-0.604004	-0.0305098	-0.441401	0.0894501	0.892319	-7.81404	1.85662	5.88367	-0.0078862	0.0200719	0.0170426	0.500488	-0.130615	-0.893799	-0.380608	0.528176	0.0858032	0.754192	8.60584	-2.73043	4.25081	0.034201	0.00606795	-0.01495	-0.842529	0.51416	-0.0751953	-0.941119	0.110517	-0.30937	0.0798273	-6.98009	-3.20328	9.77527	-0.0134456	-0.00285736	-0.00299236	0.960938	0.260742	-0.300537	-0.403225	0.564884	0.464727	0.549858	9.82174	0.518933	-0.697074	0.074748	-0.00490381	-0.0327611	-0.912354	0.35083	0.177979	-0.278357	0.548957	0.462532	0.638144	9.37477	2.96321	-0.183746	-0.0353338	-0.02868	-0.0389282	-1.03735	0.144043	0.237549	-0.402588	0.507942	0.493602	0.579893	9.67313	1.83589	-0.0755288	-0.18403	0.0166161	-0.0124005	-1.04175	0.27124	0.0837402	-0.232721	0.432593	0.123577	0.862225	8.36272	0.171354	6.17369	0.030372	0.00553825	-0.0265768	-0.990967	0.224365	-0.236328	-0.101789	0.989831	0.095786	-0.0264246	-0.144379	-2.03828	-9.61312	-0.0355977	0.0118523	-0.011276	0.45459	0.317627	0.923096	
36	-0.447205	0.438426	0.330492	0.706091	9.36675	0.847665	3.98744	0.0112433	-0.0436881	-0.0023182	-0.856201	0.34668	-0.236084	-0.539323	0.384659	0.289992	0.690705	8.51966	0.0202394	5.12043	-0.0123385	-0.000729527	-0.00938548	-0.67041	0.317627	-0.371826	-0.644047	0.220485	0.446347	0.58083	8.51582	2.54356	5.11617	-0.067163	0.0219801	-0.00746744	-0.878662	0.0593262	-0.604004	-0.0304034	-0.441223	0.0884622	0.892509	-7.64604	1.85194	5.77945	-0.0331784	-0.00782562	-0.0312892	0.50293	-0.132812	-0.891357	-0.382447	0.527156	0.0876714	0.75376	8.41361	-2.49179	4.0798	0.120709	0.00926306	0.0143186	-0.840332	0.512207	-0.0820312	-0.941359	0.109768	-0.309061	0.0792191	-6.84443	-3.16747	9.56047	0.0326478	0.00303888	0.0235092	0.956787	0.258545	-0.300293	-0.403515	0.564827	0.46496	0.549508	9.68346	0.613889	-0.84789	0.0430677	-0.00584174	-0.010884	-0.910156	0.348633	0.182129	-0.27655	0.549877	0.461888	0.638603	9.46892	2.7799	-0.292378	-0.0909776	-0.0185126	-0.0342626	-1.03491	0.137695	0.237549	-0.401171	0.50922	0.491723	0.581348	9.72556	1.69443	0.0195096	-0.123623	0.00912076	-0.0119488	-1.0437	0.26416	0.0905762	-0.232206	0.4324	0.124506	0.862328	8.20092	0.367304	6.06637	0.0147005	0.0083965	-0.0400401	-0.993164	0.222168	-0.233887	-0.100901	0.989938	0.0957309	-0.0260132	-0.110739	-1.93986	-9.47944	-0.055048	0.0207415	0.00430436	0.452637	0.313232	0.925537	
37	-0.446874	0.439354	0.330851	0.705556	9.42959	0.843811	3.96225	-0.00933356	-0.0529869	0.00728071	-0.852539	0.357666	-0.236084	-0.539086	0.385144	0.289563	0.6908	8.58235	-0.00172168	5.13452	-0.0408362	0.0104974	-0.0164424	-0.673096	0.328613	-0.369873	-0.64352	0.221846	0.444973	0.58195	8.55884	2.3542	4.97115	-0.0881466	0.00342462	-0.00485328	-0.874512	0.0656738	-0.606445	-0.0296579	-0.4408	0.0878809	0.8928	-7.60622	1.81649	5.74855	0.00406035	-0.0149469	-0.0300942	0.498047	-0.124023	-0.893799	-0.383091	0.52713	0.0881151	0.7534	8.54772	-2.26732	4.04691	-0.0231093	-0.00574142	-0.00280141	-0.846924	0.514404	-0.0842285	-0.941283	0.109073	-0.30955	0.0791736	-6.85164	-3.17698	9.53848	0.0253647	0.0283707	0.00482721	0.958984	0.256348	-0.30249	-0.403966	0.564801	0.464905	0.549248	9.76869	0.663822	-0.791057	0.0104908	0.0196222	0.00418307	-0.906006	0.352783	0.186279	-0.275047	0.55092	0.460938	0.63904	9.43059	2.72332	-0.159976	-0.0570046	-0.0232035	-0.0119887	-1.03076	0.141846	0.244629	-0.399687	0.510747	0.489695	0.582741	9.76867	1.66456	0.00456037	-0.106252	0.00332323	-0.00553487	-1.04614	0.26416	0.0859375	-0.231076	0.432289	0.124454	0.862694	8.20867	0.183109	5.99348	-0.0236121	0.0152751	-0.0340256	-0.990967	0.222168	-0.236328	-0.100153	0.990093	0.0950448	-0.0255466	-0.311427	-1.9578	-9.50518	-0.0218764	0.022741	0.0281304	0.452881	0.308594	0.918701	
38	-0.44636	0.440665	0.330683	0.705143	9.4618	0.779084	3.90317	-0.0353968	-0.0511681	0.0097883	-0.854492	0.355469	-0.233887	-0.538682	0.385482	0.288998	0.691163	8.54991	0.0245106	5.27655	-0.0551085	0.0366989	-0.0289373	-0.668701	0.326416	-0.367432	-0.643375	0.222348	0.444897	0.581977	8.57892	2.34831	4.95062	0.0161459	-0.0141607	0.00566392	-0.872314	0.0656738	-0.608887	-0.0291855	-0.440462	0.0885057	0.892921	-7.64374	1.81778	5.76295	0.0421634	-0.00829614	0.00532024	0.496094	-0.130859	-0.891602	-0.381603	0.528253	0.086955	0.753503	8.65211	-2.47264	4.19465	-0.0833115	-0.00912131	-0.0368355	-0.844727	0.51416	-0.0773926	-0.940875	0.109365	-0.310439	0.0801307	-6.91816	-3.19691	9.64604	-0.0041796	0.0571564	-0.0639784	0.961182	0.256348	-0.30249	-0.403774	0.565393	0.463987	0.549558	9.66696	0.598731	-0.754853	-0.019573	-0.00598812	0.000846417	-0.903564	0.346436	0.186523	-0.273819	0.552105	0.459952	0.639255	9.4968	2.90719	-0.301991	-0.0766605	-0.00772087	-0.00671701	-1.0332	0.144043	0.244629	-0.397843	0.51245	0.487597	0.584265	9.70098	1.63479	0.0452912	-0.131831	-0.00724147	-0.0152055	-1.0415	0.268799	0.0881348	-0.229858	0.432666	0.124214	0.862865	8.24246	0.23136	6.03365	-0.0369568	-0.00769286	-0.0344771	-0.995361	0.222168	-0.238525	-0.0999374	0.99024	0.0937369	-0.0254934	-0.30341	-1.97505	-9.55075	-0.00582982	0.00998234	0.0586865	0.450439	0.312988	0.92334	
39	-0.44636	0.440665	0.330683	0.705143	9.4618	0.779084	3.90317	-0.0353968	-0.0511681	0.0097883	-0.854492	0.355469	-0.233887	-0.538386	0.385611	0.288548	0.691509	8.64417	0.0195244	5.03988	-0.055474	0.0303985	-0.0334215	-0.666504	0.328613	-0.37207	-0.643285	0.222394	0.445206	0.581822	8.56188	2.51708	5.04937	0.0164643	-0.0202256	-0.00194465	-0.86792	0.0656738	-0.604248	-0.0289782	-0.440329	0.0890789	0.892936	-7.67149	1.85202	5.78577	0.0487023	-0.00561972	0.00783558	0.496094	-0.128662	-0.893799	-0.380745	0.528576	0.0864446	0.753769	8.58534	-2.57248	4.1685	-0.0792388	0.0093495	-0.0477427	-0.844727	0.511963	-0.0795898	-0.940688	0.109445	-0.310778	0.0809045	-6.95041	-3.19372	9.65992	0.0126257	0.0509285	-0.0738978	0.95459	0.258545	-0.300293	-0.403488	0.565865	0.463981	0.549286	9.73365	0.575589	-0.826229	-0.00337243	-0.0316127	-0.00191535	-0.897461	0.35083	0.184326	-0.273014	0.552693	0.458982	0.639788	9.40352	2.85645	-0.325677	-0.113284	0.00199668	-0.00464226	-1.03076	0.139648	0.249268	-0.396913	0.513249	0.486661	0.584976	9.75713	1.56411	-0.0724461	-0.129602	-0.00826578	-0.0171431	-1.0415	0.264404	0.0881348	-0.229165	0.432993	0.123765	0.86295	8.27688	0.227165	6.14567	-0.062084	-0.00524195	-0.0276154	-0.988281	0.213623	-0.240479	-0.0999169	0.990315	0.092943	-0.0255862	-0.193148	-1.97021	-9.56905	0.00356704	0.00450782	0.0613962	0.450439	0.310791	0.920898	
40	-0.444969	0.442867	0.3299	0.705009	9.47708	0.740189	3.87533	-0.0636031	-0.0465441	0.00237565	-0.858887	0.355469	-0.229736	-0.537519	0.385889	0.286918	0.692705	8.60097	-0.0269578	5.22852	-0.0987445	0.0623476	-0.0435298	-0.670898	0.328613	-0.369873	-0.642623	0.222909	0.445414	0.582198	8.62533	2.46266	5.1251	-0.0225176	-0.0221782	-0.0228983	-0.876465	0.0571289	-0.601807	-0.0277996	-0.440226	0.0904819	0.892884	-7.69849	1.90099	5.90503	0.0729247	-0.000712077	-0.022956	0.496338	-0.133057	-0.891357	-0.379657	0.528806	0.0856537	0.754247	8.58641	-2.55693	4.12644	-0.0424198	0.0241386	-0.031387	-0.842529	0.516357	-0.0795898	-0.940435	0.108938	-0.311334	0.0823694	-6.98832	-3.25438	9.60599	0.0474022	0.0437926	-0.0570691	0.95874	0.260742	-0.291748	-0.402715	0.566927	0.463694	0.549002	9.78035	0.565329	-0.845353	-0.0335066	-0.0216805	-0.00107681	-0.901855	0.357178	0.186279	-0.271863	0.553835	0.457669	0.640231	9.46583	2.81016	-0.355303	-0.0492096	-0.00600078	-0.00429536	-1.03467	0.133057	0.249512	-0.395139	0.514742	0.484865	0.586354	9.74005	1.58405	-0.0621863	-0.0945274	-0.00590917	-0.019369	-1.0415	0.266602	0.097168	-0.228211	0.433276	0.122984	0.863173	8.28345	0.17486	6.11988	-0.036912	0.0146059	-0.0168004	-0.995117	0.217773	-0.233887	-0.100111	0.990396	0.0918646	-0.0255904	-0.139192	-1.93742	-9.50782	0.0129373	0.0148843	0.0356699	0.455078	0.306396	0.927979	
41	-0.443822	0.444323	0.329033	0.70522	9.46742	0.708409	3.87649	-0.0748942	-0.0379522	-0.00326912	-0.859131	0.357666	-0.229736	-0.536438	0.386232	0.285075	0.694112	8.57472	-0.0811357	5.21767	-0.093856	0.0520006	-0.046099	-0.668701	0.330811	-0.369873	-0.641715	0.22372	0.444894	0.583285	8.66032	2.49034	5.1311	-0.0831514	-0.00301835	-0.0335677	-0.876465	0.0593262	-0.604004	-0.0260806	-0.439859	0.0911618	0.893047	-7.63671	1.88853	5.87119	0.0595389	-0.02171	-0.0526096	0.496582	-0.137207	-0.895752	-0.378191	0.529232	0.0842268	0.754845	8.55967	-2.569	4.1224	-0.0999493	0.0244036	-0.0325798	-0.851074	0.511963	-0.0773926	-0.940172	0.10774	-0.312124	0.0839482	-6.99115	-3.19163	9.59907	0.0702414	0.0613155	-0.0577958	0.963135	0.260742	-0.29834	-0.402158	0.567849	0.463292	0.548797	9.7408	0.466303	-0.870386	-0.00806522	-0.00558388	-0.00229507	-0.903809	0.352783	0.190674	-0.271107	0.554414	0.456671	0.640764	9.38912	2.86303	-0.32313	-0.0657839	0.0109034	-0.00704388	-1.0332	0.148438	0.246826	-0.394164	0.515558	0.484117	0.586912	9.75282	1.79017	-0.0161939	-0.058564	-0.00538355	-0.0203924	-1.04858	0.266357	0.097168	-0.227474	0.433298	0.122414	0.863437	8.27986	0.177494	6.1482	-0.0356583	0.019263	-0.0125894	-0.999756	0.222168	-0.236328	-0.100119	0.990494	0.0908799	-0.0252778	-0.197897	-1.91221	-9.58577	0.00216123	0.0220164	0.0287564	0.452881	0.308594	0.921143	
42	-0.442726	0.445847	0.327951	0.705451	9.44413	0.652757	3.86704	-0.0773066	-0.038006	0.00287124	-0.857178	0.361816	-0.218994	-0.535458	0.386773	0.283699	0.695131	8.55327	-0.123862	5.19934	-0.0795581	0.0277673	-0.041716	-0.671143	0.335205	-0.372314	-0.640558	0.225495	0.443533	0.584907	8.60162	2.27421	4.97278	-0.114499	-0.0103066	-0.0239743	-0.876465	0.0634766	-0.601807	-0.0242963	-0.439233	0.0919134	0.893329	-7.54445	1.89041	5.86039	0.0572735	-0.0259916	-0.0431722	0.496582	-0.137207	-0.895752	-0.376599	0.529737	0.0829093	0.755432	8.5312	-2.64499	4.12396	-0.0739423	0.0159787	-0.040146	-0.846924	0.511963	-0.0727539	-0.939887	0.106598	-0.312935	0.0855576	-7.01624	-3.11553	9.52942	0.0551551	0.056584	-0.0590632	0.956299	0.267334	-0.291992	-0.401699	0.568682	0.463073	0.548455	9.76019	0.557117	-0.884668	-0.0102556	-0.00842867	0.00292039	-0.903809	0.352783	0.190674	-0.270332	0.554946	0.455593	0.641397	9.42978	2.84128	-0.314702	-0.063088	0.0201422	-0.0101711	-1.03271	0.135254	0.253906	-0.393022	0.516316	0.483121	0.587832	9.73522	1.58358	-0.068216	-0.073873	-0.00185695	-0.0162354	-1.04126	0.261963	0.0993652	-0.227267	0.433162	0.12199	0.863619	8.24576	0.171285	6.12345	-0.0180885	0.0253572	0.00232844	-0.995117	0.215576	-0.240723	-0.100749	0.990479	0.0903613	-0.0252038	-0.240104	-1.91612	-9.57296	0.0232117	0.00933526	0.014061	0.455078	0.308838	0.930176	
43	-0.441666	0.447505	0.327008	0.705504	9.45175	0.591177	3.84723	-0.0727787	-0.0482192	0.00499921	-0.857178	0.361816	-0.221191	-0.534663	0.387082	0.282785	0.695942	8.5943	-0.116215	5.26091	-0.0551786	0.0281415	-0.0423483	-0.668701	0.328613	-0.37207	-0.639755	0.226523	0.443178	0.585657	8.64587	2.24898	4.91714	-0.0292568	-0.0201587	-0.0179594	-0.878662	0.0700684	-0.599854	-0.0230729	-0.438959	0.0929769	0.893385	-7.56374	1.91325	5.90987	0.0559719	-0.00256284	-0.0159412	0.494385	-0.139648	-0.88916	-0.374845	0.53048	0.0815866	0.755927	8.63438	-2.67959	4.20404	-0.0984712	0.0110331	-0.042461	-0.851074	0.509766	-0.0705566	-0.939554	0.106108	-0.31368	0.0870863	-7.11063	-3.12979	9.56932	0.029378	0.0497141	-0.0650921	0.95874	0.265137	-0.291992	-0.401395	0.569189	0.462748	0.548425	9.78299	0.534469	-0.87123	0.00360205	-0.00213812	-0.00745783	-0.908203	0.352783	0.192627	-0.270035	0.555264	0.45485	0.641774	9.40124	2.80098	-0.263588	-0.0262307	0.0189119	-0.00174094	-1.02637	0.137451	0.24707	-0.3925	0.516794	0.482718	0.588092	9.76298	1.7559	0.0547524	-0.0530081	0.00296915	-0.0181896	-1.04395	0.266357	0.097168	-0.227057	0.433114	0.121465	0.863773	8.19191	0.198131	6.10869	-0.0375045	0.0145457	0.00345022	-0.995117	0.217773	-0.238525	-0.100943	0.990509	0.0898403	-0.0251419	-0.218252	-2.00339	-9.39664	0.0191819	0.0139201	0.0210504	0.455322	0.302002	0.934814	
44	-0.440615	0.44891	0.326537	0.705486	9.4591	0.552454	3.7698	-0.0491087	-0.0486821	-0.00968304	-0.861572	0.359619	-0.212646	-0.534128	0.386991	0.282021	0.696713	8.54944	-0.0868895	5.16334	-0.0409779	0.0384728	-0.0370074	-0.673096	0.330811	-0.369873	-0.639375	0.226458	0.443733	0.585677	8.63372	2.35364	5.02035	0.0179442	-0.012222	-0.0162102	-0.876465	0.0678711	-0.592773	-0.0225561	-0.439175	0.0938836	0.893198	-7.58445	1.94019	5.90305	0.042823	0.0116882	-0.00246691	0.494385	-0.141846	-0.88916	-0.373801	0.530589	0.0807607	0.756456	8.51389	-2.79499	4.20387	-0.0218696	0.0287085	-0.0271769	-0.848633	0.505371	-0.0727539	-0.939447	0.105848	-0.313799	0.0881204	-7.03477	-3.1707	9.55253	0.0258723	0.015824	-0.0426985	0.960449	0.271484	-0.294434	-0.40114	0.569634	0.462696	0.548194	9.73937	0.514124	-0.786795	0.0028062	-0.00771198	-0.00653317	-0.906006	0.348633	0.190674	-0.269909	0.555792	0.453716	0.642173	9.46729	2.78731	-0.227603	-0.0443629	0.0263416	0.0148877	-1.03516	0.139648	0.251709	-0.391588	0.517512	0.48178	0.588836	9.76284	1.51657	-0.0790275	-0.0417336	0.000268616	-0.0196682	-1.04395	0.268799	0.101562	-0.226745	0.433117	0.120612	0.863973	8.24102	0.0825224	6.13024	-0.0191672	0.0262335	0.00560694	-0.993164	0.222168	-0.238525	-0.101382	0.990539	0.0890973	-0.0248177	-0.191789	-1.98233	-9.55378	0.0241113	0.0224251	0.021265	0.454834	0.311035	0.92334	
45	-0.439791	0.449743	0.32669	0.705399	9.55632	0.543556	3.7782	-0.0132958	-0.0383697	-0.0163254	-0.86377	0.359619	-0.212646	-0.533882	0.386911	0.281433	0.697184	8.59818	-0.0908468	5.35861	-0.0282258	0.0322252	-0.0250339	-0.670898	0.328613	-0.369873	-0.639201	0.226402	0.443912	0.585753	8.6871	2.35085	5.04946	0.00312611	0.00448569	-0.00766059	-0.878662	0.0656738	-0.597412	-0.022265	-0.43929	0.0939624	0.89314	-7.6616	1.91682	5.90557	0.00215364	0.00936364	-0.0111049	0.499023	-0.143799	-0.891357	-0.374141	0.530123	0.0811796	0.75657	8.54294	-2.55527	4.14803	0.0171905	0.0132336	-0.0122901	-0.855225	0.505371	-0.0727539	-0.939531	0.105432	-0.313627	0.0883357	-7.04755	-3.18653	9.55037	0.0215555	0.0120362	-0.0126027	0.960693	0.265137	-0.291992	-0.400832	0.570309	0.462066	0.548248	9.82029	0.492411	-0.834592	-0.00869838	0.00166083	0.00543886	-0.899658	0.352783	0.197021	-0.270043	0.555825	0.453245	0.64242	9.45014	2.74818	-0.24374	0.0114349	0.0320111	-0.00878896	-1.03271	0.137451	0.251709	-0.391592	0.517496	0.482074	0.588607	9.77254	1.61762	-0.0379698	0.0201911	-0.002453	-0.0232359	-1.03931	0.266357	0.10376	-0.226445	0.433127	0.11968	0.864176	8.21095	0.161082	6.11861	-0.0424813	0.0183221	0.00735124	-0.997559	0.219971	-0.24292	-0.101813	0.990544	0.0885368	-0.0248689	-0.268091	-1.969	-9.53767	0.0192663	0.000428832	0.0177073	0.452881	0.308594	0.92334	
46	-0.439519	0.449893	0.327167	0.705252	9.5714	0.62397	3.80034	0.0129569	-0.0164382	-0.0116384	-0.854736	0.355225	-0.210205	-0.533751	0.386764	0.280832	0.697608	8.62272	-0.0967783	5.3614	-0.0278775	0.042666	-0.021919	-0.673096	0.333008	-0.374512	-0.639313	0.225877	0.444144	0.585657	8.63393	2.39349	5.09208	0.0243131	0.0138648	-0.00834415	-0.876465	0.0634766	-0.594971	-0.0220447	-0.439308	0.0937266	0.893162	-7.70898	1.7307	5.91876	0.00284323	0.00732003	-0.00780988	0.496582	-0.139648	-0.891357	-0.37354	0.530421	0.0802908	0.756753	8.56838	-2.69872	4.18546	-0.0467939	0.0125951	-0.0114372	-0.84668	0.507568	-0.0727539	-0.939536	0.104966	-0.31371	0.0885479	-7.07764	-3.11348	9.60686	0.0177676	0.0227492	-0.0207079	0.962891	0.269287	-0.292236	-0.401312	0.570251	0.461154	0.548726	9.90367	0.466253	-0.935607	-0.00405206	0.0564627	0.00609335	-0.901855	0.35498	0.182129	-0.27026	0.556001	0.452741	0.642532	9.45892	2.84133	-0.347908	-0.0162408	0.0220118	0.00791675	-1.03296	0.139648	0.253906	-0.391953	0.517271	0.482712	0.588042	9.75312	1.59733	-0.138911	0.0639393	-0.00605405	-0.0191624	-1.0437	0.26416	0.0993652	-0.226248	0.433225	0.119093	0.86426	8.20858	0.0420845	6.10632	-0.0504178	0.0174358	0.00941511	-0.995117	0.217773	-0.238525	-0.101944	0.990564	0.0881323	-0.0249574	-0.247266	-2.02127	-9.47014	0.0111838	0.00732771	0.0110985	0.455078	0.306396	0.921143	
47	-0.439438	0.449488	0.327635	0.705344	9.57136	0.739863	3.80913	0.0175225	0.00885818	-0.0201177	-0.861572	0.359619	-0.2146	-0.533384	0.387135	0.28015	0.697956	8.43047	-0.107701	5.29256	-0.00700803	-0.00402224	-0.0194911	-0.677734	0.337402	-0.377197	-0.639354	0.225527	0.444126	0.585761	8.58056	2.5786	5.18033	-0.0249155	0.0181486	-0.00860287	-0.874512	0.0678711	-0.597412	-0.0217321	-0.43919	0.0937299	0.893227	-7.61159	1.95513	5.84613	-0.0105969	-0.00612943	-0.0173717	0.492188	-0.139404	-0.897949	-0.373492	0.530435	0.0800188	0.756796	8.55917	-2.69695	4.1664	-0.0204551	0.0165516	-0.00428865	-0.844482	0.509766	-0.0683594	-0.939501	0.104812	-0.313815	0.088726	-7.02865	-3.17433	9.59997	0.0183283	0.0252766	-0.0237743	0.95874	0.265137	-0.285645	-0.400953	0.570894	0.460355	0.54899	9.75671	0.489041	-0.730271	-0.0326476	-0.0228446	0.00408572	-0.901855	0.35498	0.197021	-0.270553	0.556004	0.452455	0.642608	9.45204	2.68447	-0.244004	0.000217513	0.0375258	0.0104604	-1.02856	0.139648	0.249268	-0.392563	0.516901	0.48371	0.587139	9.72105	1.45625	-0.156514	0.124204	-0.0210542	-0.0188155	-1.04346	0.257324	0.097168	-0.22672	0.433363	0.118461	0.864154	8.20751	-0.0282062	6.21615	-0.00615804	0.00770948	0.0321154	-0.993164	0.219971	-0.233887	-0.101859	0.990582	0.0880416	-0.0249198	-0.233281	-2.03555	-9.53939	-0.00308184	0.00867789	0.00239978	0.452637	0.310791	0.92334	
48	-0.439593	0.4493	0.327452	0.705452	9.50019	0.732727	3.82346	-0.000221037	0.0216194	0.00415864	-0.861328	0.357422	-0.2146	-0.53361	0.386824	0.280589	0.69778	8.52952	-0.116521	5.32455	0.0100621	0.0151222	-0.0210913	-0.673096	0.330811	-0.369873	-0.639028	0.226138	0.44332	0.586491	8.49031	2.41335	5.0351	-0.0997032	0.0184932	-0.018146	-0.872314	0.0700684	-0.599854	-0.0213913	-0.439089	0.0934482	0.893314	-7.54935	1.83507	5.85976	-0.00813712	-0.00446754	-0.0318371	0.498779	-0.139404	-0.891357	-0.373129	0.530484	0.0793651	0.757009	8.53643	-2.69721	4.25632	-0.0394029	0.0183292	-0.0152672	-0.851074	0.509766	-0.0705566	-0.93951	0.104243	-0.313954	0.0888103	-7.0822	-3.14596	9.52548	0.0332319	0.0176829	-0.00849363	0.960693	0.269531	-0.287842	-0.401784	0.570333	0.460499	0.548844	9.72244	0.360956	-0.935823	0.0825786	0.055851	-0.00234784	-0.899658	0.352783	0.197021	-0.271659	0.555406	0.453217	0.642122	9.41934	2.96957	-0.260598	0.0617186	0.034574	-0.0164445	-1.0332	0.14624	0.244385	-0.393381	0.516319	0.484511	0.586443	9.66115	1.78316	0.056765	-0.0224119	0.0150368	-0.0180126	-1.0415	0.268799	0.097168	-0.227144	0.433422	0.118392	0.864022	8.32008	-0.0980472	6.22282	0.0101034	0.00994323	0.0381099	-0.995605	0.224365	-0.236328	-0.102396	0.990475	0.0885355	-0.0252161	-0.175707	-2.07902	-9.61543	0.0232498	-0.010587	-0.0313851	0.448486	0.304199	0.925781	
49	-0.439771	0.448923	0.327245	0.705677	9.44767	0.69493	3.85283	0.00166069	0.0176731	-0.00275576	-0.861328	0.357422	-0.2146	-0.53374	0.386642	0.280649	0.697758	8.54076	-0.120857	5.32661	0.00765822	0.0241517	-0.0166648	-0.668945	0.333008	-0.372314	-0.638754	0.226091	0.443169	0.586922	8.61965	2.24274	4.94108	-0.0119634	0.00597322	-0.0179264	-0.876709	0.0700684	-0.599854	-0.0211148	-0.439227	0.093246	0.893274	-7.588	1.8013	5.88387	-0.0038382	0.0171148	-0.00202254	0.500977	-0.139648	-0.886963	-0.373312	0.530044	0.0793832	0.757225	8.50248	-2.77977	4.14298	0.0381924	0.0202414	-0.0108019	-0.846924	0.511963	-0.0727539	-0.939682	0.103547	-0.313705	0.0886905	-7.05026	-3.04621	9.57732	0.0289034	0.00395938	-0.00189735	0.965332	0.260742	-0.289795	-0.401985	0.570444	0.461534	0.547712	9.82496	0.485617	-0.849082	-0.00101098	-0.00675107	-0.00760218	-0.897949	0.361572	0.192627	-0.271804	0.5551	0.452734	0.642665	9.4627	2.75319	-0.177656	-0.0295963	0.0418166	-0.0139482	-1.03076	0.139893	0.23999	-0.393581	0.516094	0.484633	0.586406	9.71786	1.67941	0.0288174	0.0166811	0.00942868	-0.022961	-1.04395	0.266357	0.0993652	-0.228507	0.432974	0.118456	0.863879	8.18477	0.0643695	6.22734	0.0316963	0.0377393	0.0519644	-0.997803	0.226562	-0.236328	-0.102987	0.990297	0.089786	-0.025379	-0.110924	-2.08015	-9.45924	0.0245446	-0.00127333	-0.0617763	0.450439	0.310791	0.918701	
50	-0.440096	0.448771	0.326949	0.705708	9.43557	0.623457	3.87417	0.00242718	0.00946137	0.012487	-0.856934	0.355225	-0.2146	-0.534374	0.386034	0.280698	0.697589	8.50937	-0.158721	5.25705	0.0273413	0.0383303	-0.00209092	-0.668701	0.328613	-0.376709	-0.639126	0.22515	0.443801	0.586401	8.61083	2.36671	5.06287	0.0375114	0.0169326	0.00116039	-0.878662	0.0615234	-0.597168	-0.0216162	-0.439466	0.0929304	0.893178	-7.53774	1.93304	5.92001	-0.0313185	0.0192513	0.013179	0.496582	-0.139648	-0.886963	-0.373935	0.529695	0.0794954	0.75715	8.49303	-2.70981	4.12519	0.0156288	0.0171895	0.00525095	-0.84668	0.507568	-0.0705566	-0.939773	0.103761	-0.313519	0.0881317	-7.06052	-3.1089	9.50399	-0.0234096	0.00280924	0.00552346	0.962891	0.265137	-0.294189	-0.402673	0.570349	0.462047	0.546872	9.75998	0.43695	-0.676307	0.081238	-0.0106065	-0.00763172	-0.899414	0.348633	0.188721	-0.272382	0.554613	0.452562	0.642962	9.4348	2.70118	-0.0992667	0.0418247	0.0466283	-0.00820368	-1.03516	0.141846	0.249268	-0.393875	0.515779	0.485031	0.586157	9.74362	1.59117	-0.085536	0.0631081	0.00452355	-0.0244774	-1.04858	0.266357	0.097168	-0.229918	0.43237	0.118244	0.863836	8.23383	0.0653263	6.15101	0.0238261	0.0445588	0.0515916	-0.991211	0.22876	-0.23877	-0.103513	0.990127	0.091119	-0.0251152	-0.184015	-2.10636	-9.47311	0.0341494	0.0141202	-0.0564157	0.447998	0.315186	0.923096	
51	-0.440735	0.448427	0.327118	0.70545	9.46294	0.609807	3.88147	0.0346765	0.0108886	0.0144647	-0.863525	0.357422	-0.2146	-0.535203	0.385442	0.281136	0.697104	8.50689	-0.112648	5.31154	0.0359529	0.0244472	0.00456949	-0.670898	0.328613	-0.369873	-0.639713	0.224558	0.443779	0.586004	8.64389	2.2776	5.05547	0.0407045	0.0262254	0.0194831	-0.876465	0.0615234	-0.604004	-0.02245	-0.439575	0.0920981	0.89319	-7.62303	1.85312	5.90679	-0.0470467	0.0136552	0.0188416	0.500732	-0.133057	-0.88916	-0.374359	0.529579	0.0794114	0.75703	8.46925	-2.72827	4.18548	0.00831846	0.00754387	0.0103534	-0.844727	0.511963	-0.0773926	-0.939925	0.103874	-0.313284	0.0872	-7.0582	-3.05235	9.55595	-0.010856	-0.00435731	0.0228303	0.962891	0.265137	-0.291992	-0.403651	0.569855	0.462192	0.546544	9.79093	0.498888	-0.830186	0.0259256	0.0505271	0.00182352	-0.901855	0.357178	0.188477	-0.273216	0.554014	0.452766	0.642981	9.51529	2.7594	-0.196577	0.0198105	0.0520387	-0.00844721	-1.0332	0.148438	0.242188	-0.394777	0.51511	0.486828	0.584646	9.72471	1.32438	-0.30113	0.141605	-0.0361374	-0.0253014	-1.04395	0.268799	0.101562	-0.231501	0.431773	0.118016	0.863743	8.15799	0.0601867	6.18445	0.029808	0.0383285	0.0618586	-0.998047	0.230957	-0.236572	-0.10495	0.989863	0.0923321	-0.0251205	-0.267475	-2.07972	-9.57742	0.0689586	-0.000896978	-0.0527285	0.452393	0.319824	0.920898	
52	-0.441705	0.447954	0.32755	0.704944	9.52819	0.626181	3.89317	0.0488833	0.00626459	0.0178994	-0.854736	0.359619	-0.218994	-0.536288	0.384674	0.28141	0.696584	8.52596	-0.0992431	5.38523	0.0453171	0.030295	0.00792707	-0.666504	0.328613	-0.374512	-0.641011	0.222827	0.444604	0.58462	8.59901	2.53829	5.17059	0.104728	0.0384405	0.0241534	-0.874512	0.0656738	-0.604248	-0.0237519	-0.43973	0.0912398	0.893168	-7.69811	1.74289	5.94699	-0.0595825	0.0196767	0.0357101	0.503174	-0.137207	-0.895752	-0.375068	0.529526	0.0794145	0.756717	8.60092	-2.63551	4.3276	-0.0169313	0.0112703	0.0105086	-0.844727	0.516357	-0.0773926	-0.940069	0.104401	-0.312987	0.0860832	-7.14289	-3.01062	9.67376	-0.0322717	-0.0058	0.0186355	0.956543	0.262939	-0.287598	-0.404135	0.56973	0.461946	0.546525	9.86372	0.435535	-0.62012	0.0194982	0.0217872	-0.00408077	-0.899658	0.35498	0.192627	-0.274965	0.552901	0.453983	0.642334	9.45071	2.63119	-0.259938	0.137589	0.0436091	-0.0148293	-1.03076	0.137695	0.235352	-0.397209	0.513406	0.491095	0.580917	9.77588	1.87449	-0.0130258	0.22141	-0.0377132	-0.0254526	-1.0459	0.261963	0.0993652	-0.232769	0.43171	0.117721	0.863473	8.13846	-0.028691	6.12663	0.00687346	0.0124828	0.0495976	-0.984619	0.231201	-0.243164	-0.105931	0.989632	0.0935308	-0.0256713	-0.276817	-1.99491	-9.42194	0.0282794	-0.0214503	-0.0492935	0.44751	0.326416	0.923096	
53	-0.442725	0.446919	0.328069	0.704719	9.57258	0.65084	3.92463	0.0558892	0.0359343	0.00588585	-0.861328	0.357422	-0.218994	-0.536967	0.38404	0.281516	0.696368	8.50114	-0.0910307	5.52889	0.050439	0.0535452	0.0104709	-0.668701	0.326416	-0.37207	-0.642137	0.221148	0.445015	0.583708	8.55709	2.54926	5.23091	0.081056	0.0483415	0.0126844	-0.880859	0.0637207	-0.604248	-0.0249633	-0.439942	0.0900909	0.893147	-7.73167	1.72073	5.94027	-0.0607172	0.0201752	0.0176057	0.498535	-0.133057	-0.891357	-0.375251	0.529531	0.0789044	0.756675	8.49293	-2.87495	4.32573	-0.0247942	0.0220666	0.0214194	-0.844727	0.516357	-0.0727539	-0.940316	0.104368	-0.312608	0.0847874	-7.08065	-3.00308	9.66835	-0.000269343	-0.0127165	0.0449973	0.95874	0.262939	-0.291992	-0.405267	0.56886	0.462586	0.546051	9.79875	0.422003	-0.804113	0.0888949	0.0226365	-0.0172001	-0.904297	0.359375	0.186279	-0.276091	0.552151	0.455017	0.641766	9.3927	2.83981	-0.207579	0.145117	0.0482377	-0.0178682	-1.0332	0.144287	0.23291	-0.399127	0.511884	0.493485	0.578917	9.75728	2.07825	-0.00352925	0.109305	0.0206882	-0.0207756	-1.04395	0.266357	0.097168	-0.234234	0.431837	0.118343	0.862929	8.1822	-0.112218	6.19841	0.0622348	-0.000495189	0.0535013	-0.993896	0.237549	-0.245605	-0.105985	0.989558	0.0941855	-0.0259067	-0.262132	-2.02109	-9.43831	0.00869918	-0.0185965	-0.0526905	0.452393	0.319824	0.918701	
54	-0.444075	0.445043	0.328433	0.704887	9.44562	0.682236	3.98706	0.0708455	0.0716652	0.00344833	-0.859131	0.357666	-0.231934	-0.538811	0.382335	0.281118	0.696043	8.39771	-0.0903142	5.41453	0.0305507	0.0534382	0.0202962	-0.664551	0.333008	-0.379395	-0.643087	0.219746	0.44472	0.583417	8.54475	2.59627	5.27539	0.0155405	0.0646783	0.00554858	-0.876465	0.0615234	-0.606445	-0.0258627	-0.439996	0.0880629	0.893297	-7.61356	1.69642	5.89232	-0.0878914	0.00642806	-0.00598737	0.50293	-0.130615	-0.895996	-0.378717	0.528144	0.0801648	0.755785	8.37951	-2.7514	4.20907	0.151423	0.00659341	0.0589195	-0.844727	0.516602	-0.0820312	-0.940737	0.103986	-0.312049	0.0826224	-6.99517	-2.95727	9.60603	-0.00906344	-0.0183679	0.0750974	0.961182	0.256348	-0.293945	-0.406299	0.568111	0.463044	0.545674	9.71685	0.453043	-0.773937	0.0658092	0.0349231	-0.00950555	-0.904297	0.361572	0.184082	-0.277772	0.551069	0.456243	0.6411	9.42393	2.6151	-0.225867	0.0460088	0.0445042	-0.0139567	-1.0354	0.14624	0.23291	-0.40022	0.510994	0.493981	0.578525	9.70773	1.73806	-0.11941	0.0725614	0.0388645	-0.0178461	-1.04395	0.270996	0.0925293	-0.236334	0.431754	0.119226	0.862276	8.22008	0.00292036	6.26909	0.0750994	0.00950718	0.0697272	-0.989258	0.235352	-0.245605	-0.105613	0.989265	0.0975278	-0.0262406	-0.110139	-2.07008	-9.52534	0.000139528	-0.0119301	-0.108535	0.447754	0.324219	0.918457	
55	-0.445996	0.443072	0.328598	0.704839	9.37207	0.702959	4.08387	0.0757994	0.0714845	0.0294557	-0.859131	0.359619	-0.229736	-0.540295	0.381528	0.281459	0.695197	8.43458	-0.11678	5.41773	0.0551223	0.0299302	0.026988	-0.666504	0.328613	-0.383789	-0.643788	0.219459	0.443548	0.583644	8.52245	2.29621	5.05685	0.000395576	0.049877	0.017479	-0.87207	0.0549316	-0.608398	-0.0267692	-0.439821	0.0862181	0.893536	-7.5713	1.68086	5.82714	-0.075926	0.00264997	0.00953837	0.49585	-0.126465	-0.889404	-0.379852	0.527827	0.0805423	0.755397	8.4207	-2.60904	4.17692	0.0810886	0.00635233	0.0503636	-0.838379	0.516602	-0.0820312	-0.940892	0.103883	-0.311903	0.0815336	-6.97917	-2.93583	9.54806	-0.0138725	-0.00950617	0.0693376	0.965576	0.256348	-0.289551	-0.407181	0.567488	0.464195	0.544687	9.76205	0.390609	-0.763897	0.0934782	-0.00113808	-0.0212176	-0.9021	0.357178	0.179932	-0.278471	0.55057	0.456967	0.640709	9.4711	2.71129	-0.107335	0.097945	0.0343709	-0.0214138	-1.02881	0.146484	0.232666	-0.400651	0.51062	0.494069	0.578482	9.76195	1.60336	-0.0733885	0.0409727	0.0363819	-0.017686	-1.04858	0.268799	0.0947266	-0.238482	0.431444	0.120201	0.861705	8.22464	0.139079	6.20088	0.0690817	0.0175027	0.0586603	-0.989502	0.239746	-0.239014	-0.10554	0.989136	0.0988903	-0.0263237	-0.0617192	-2.10758	-9.55506	-0.00320809	-0.0136358	-0.111555	0.449951	0.324219	0.923096	
56	-0.446993	0.44226	0.32875	0.704647	9.27421	0.699165	4.09203	0.0786713	0.056596	0.0341818	-0.859375	0.361816	-0.231934	-0.541752	0.380625	0.281739	0.694444	8.44719	-0.0953122	5.41241	0.0537403	0.0309913	0.0328774	-0.657959	0.330811	-0.384033	-0.645175	0.218001	0.444173	0.582182	8.54755	2.35387	5.09532	0.113702	0.0309051	0.0446004	-0.869873	0.0527344	-0.610596	-0.0275078	-0.439781	0.0857369	0.89358	-7.56924	1.6939	5.88362	-0.059874	0.00863798	0.037386	0.49585	-0.126221	-0.895996	-0.381256	0.527869	0.0808563	0.754626	8.44254	-2.72622	4.19976	0.0368619	-0.0159199	0.0346132	-0.842529	0.516357	-0.0773926	-0.941003	0.104355	-0.311876	0.0797264	-7.02156	-2.93148	9.57369	-0.0460455	0.00576838	0.0415879	0.958984	0.25415	-0.298096	-0.408142	0.566815	0.465133	0.543868	9.7421	0.494905	-0.7761	0.0678929	0.00958314	-0.0113897	-0.904541	0.36377	0.179688	-0.279708	0.549556	0.458362	0.640044	9.42045	3.00672	-0.0570336	0.065352	0.0379428	-0.0257003	-1.03564	0.150635	0.239746	-0.40119	0.510079	0.493711	0.578892	9.64972	1.86226	0.0345103	-0.0335779	0.0432061	-0.0181355	-1.04419	0.273438	0.0881348	-0.239453	0.431181	0.12065	0.861504	8.23856	0.0888238	6.16434	0.0716032	0.0255042	0.0559774	-0.989502	0.239746	-0.248047	-0.105444	0.988902	0.101304	-0.0262953	-0.106928	-2.02978	-9.50935	-0.00347762	-0.00714489	-0.0987656	0.449707	0.328613	0.92749	
57	-0.448719	0.441302	0.329178	0.70395	9.31891	0.741404	4.07373	0.0650708	0.0170749	0.0411357	-0.856934	0.357666	-0.234131	-0.542573	0.380263	0.281837	0.693961	8.43546	-0.103612	5.3743	0.0483399	0.0335033	0.0358844	-0.659912	0.328613	-0.384033	-0.646012	0.21706	0.444666	0.581228	8.51694	2.48761	5.19905	0.119705	0.0359144	0.0448254	-0.874268	0.0571289	-0.604004	-0.029525	-0.439734	0.084966	0.893613	-7.61855	1.73326	5.88588	-0.0639063	0.0121864	0.0618302	0.504883	-0.126221	-0.898193	-0.382736	0.528066	0.0812936	0.753692	8.46866	-2.74228	4.20883	0.0475893	-0.0206705	0.0400848	-0.836182	0.520752	-0.0751953	-0.940987	0.105604	-0.311939	0.0780075	-7.02788	-3.03332	9.59774	-0.0663418	0.0046938	0.0334393	0.963379	0.25415	-0.291748	-0.408579	0.566579	0.46528	0.54366	9.76284	0.458714	-0.818814	0.0557073	0.0233388	-0.00595201	-0.895752	0.361572	0.186279	-0.279723	0.549171	0.457995	0.64063	9.45009	2.63861	-0.0708524	-0.00547028	0.0416266	-0.0215677	-1.02686	0.146484	0.232666	-0.401121	0.509981	0.492878	0.579735	9.71534	1.78191	-0.0253143	-0.0399384	0.039703	-0.0215594	-1.03662	0.261963	0.0905762	-0.241049	0.430618	0.12129	0.861251	8.2169	0.167194	6.16883	0.0475907	0.0337626	0.0449434	-0.98291	0.242188	-0.241211	-0.105519	0.988717	0.103048	-0.0261858	-0.135679	-2.08562	-9.50557	0.00955463	0.0031636	-0.0686622	0.447266	0.330811	0.918457	
58	-0.449941	0.441145	0.329516	0.703111	9.39316	0.734436	4.04322	0.0374237	-0.00905217	0.0393739	-0.856689	0.353271	-0.236084	-0.543953	0.379649	0.282019	0.693143	8.49223	-0.046928	5.4172	0.0396111	0.0310249	0.0242751	-0.659912	0.328613	-0.381592	-0.647353	0.215988	0.444895	0.579958	8.52252	2.5545	5.26116	0.0567911	0.0371322	0.0388181	-0.863525	0.0568848	-0.61084	-0.0312783	-0.439622	0.083785	0.893719	-7.73603	1.72692	5.85223	-0.0794946	0.00516068	0.0346787	0.498291	-0.126465	-0.891602	-0.384349	0.528065	0.0817841	0.752818	8.5141	-2.64078	4.21319	0.0472486	-0.0123093	0.0370339	-0.838379	0.518799	-0.0820312	-0.941021	0.106579	-0.31193	0.0762936	-6.99662	-3.09895	9.64544	-0.0501262	0.0037101	0.0377455	0.961426	0.25	-0.297852	-0.40936	0.566149	0.465374	0.54344	9.76743	0.510575	-0.699678	0.0381924	0.0219991	-0.00311193	-0.904297	0.359375	0.184082	-0.280314	0.548496	0.458197	0.640806	9.4957	2.68359	-0.134792	0.0248239	0.0383303	-0.0115571	-1.03784	0.152832	0.232666	-0.400967	0.51004	0.492654	0.57998	9.75788	1.52114	-0.0619972	0.0355438	0.00550347	-0.0226694	-1.04858	0.266357	0.0925293	-0.242128	0.430241	0.121185	0.861151	8.21515	0.145628	6.14818	0.0170619	0.0293286	0.0396804	-0.987305	0.239746	-0.24585	-0.10619	0.988543	0.104043	-0.0260918	-0.152042	-2.08084	-9.48204	0.0326793	0.00721182	-0.0352367	0.449463	0.333008	0.925293	
59	-0.450702	0.441309	0.329535	0.70251	9.41639	0.672271	3.98105	0.0153236	-0.00776699	0.0267605	-0.85498	0.362061	-0.231934	-0.544862	0.379257	0.281821	0.692724	8.43858	-0.0121584	5.53382	-0.0031606	0.036497	0.00934337	-0.6604	0.337158	-0.388916	-0.648346	0.215143	0.444745	0.579277	8.43926	2.61607	5.28595	0.0361815	0.0398822	0.0197421	-0.865723	0.0568848	-0.613037	-0.0321226	-0.439366	0.0825953	0.893926	-7.72945	1.58099	5.79889	-0.0468239	-0.00315283	0.0038867	0.498047	-0.121826	-0.898193	-0.385445	0.528041	0.0819964	0.752251	8.53091	-2.65137	4.20619	0.0301226	0.00250788	0.0229631	-0.836426	0.525391	-0.0842285	-0.94111	0.10658	-0.311964	0.0750356	-6.95494	-3.02706	9.68015	-0.000136756	0.0121544	0.029047	0.961426	0.247803	-0.295654	-0.410057	0.565879	0.465258	0.543294	9.7675	0.471159	-0.723855	0.0451647	0.0402993	0.000516833	-0.900146	0.361572	0.177734	-0.280685	0.548089	0.458203	0.640986	9.46451	2.78344	-0.189325	0.00629158	0.037077	-0.0165448	-1.02905	0.148682	0.230469	-0.401039	0.509901	0.493076	0.579694	9.72871	1.51713	-0.157695	0.0292472	-0.00536418	-0.0254788	-1.0415	0.268799	0.0859375	-0.242852	0.42979	0.120797	0.861227	8.20928	-0.0221101	6.12089	0.0178961	0.0384259	0.0311149	-0.985107	0.241943	-0.248047	-0.107484	0.988345	0.104611	-0.0260395	-0.179508	-1.99368	-9.50959	0.0538811	0.0102763	-0.0265525	0.45166	0.337402	0.918213	
60	-0.450899	0.441486	0.329215	0.702422	9.46641	0.673863	3.97458	-0.0164588	0.00273959	0.0121889	-0.850342	0.357666	-0.236084	-0.545049	0.379375	0.281236	0.69275	8.43406	-0.0561077	5.5714	-0.0384521	0.032785	-0.0061264	-0.659912	0.328613	-0.38623	-0.648629	0.21489	0.44433	0.579373	8.42078	2.56749	5.2593	-0.00806732	0.0226719	-0.00390571	-0.86792	0.059082	-0.617676	-0.0320476	-0.439052	0.0818896	0.894148	-7.73511	1.49234	5.8028	-0.00865344	-0.00965908	-0.0187798	0.495605	-0.117676	-0.89624	-0.385808	0.528027	0.0814703	0.752132	8.45568	-2.56391	4.23729	-0.037756	0.0164016	0.00359109	-0.832275	0.529785	-0.0842285	-0.941111	0.106209	-0.312199	0.0745739	-6.94585	-3.03986	9.65602	0.0125809	0.0280426	0.000830482	0.966064	0.243408	-0.297852	-0.410441	0.565778	0.46498	0.543348	9.70518	0.504226	-0.746117	0.0208523	0.0415078	0.0077345	-0.904297	0.359375	0.177734	-0.280968	0.547817	0.458251	0.641062	9.50751	2.60524	-0.19503	0.0221332	0.0264105	-0.0153064	-1.0376	0.144287	0.230469	-0.401853	0.509093	0.495179	0.578045	9.75878	1.33616	-0.247984	0.151489	-0.0347195	-0.0378221	-1.05078	0.26416	0.090332	-0.243561	0.429193	0.120532	0.861362	8.16281	-0.011019	6.26818	-0.0019949	0.0409148	0.0283852	-0.987305	0.241943	-0.243652	-0.109128	0.988095	0.10525	-0.0261215	-0.128168	-2.15342	-9.58058	0.0852517	0.00287861	-0.0332498	0.447021	0.3396	0.920654	
61	-0.450831	0.441217	0.328479	0.70298	9.53222	0.688923	4.07469	-0.0242738	0.0359032	-0.00606345	-0.852539	0.362061	-0.236328	-0.544929	0.379741	0.280526	0.692931	8.3756	-0.108713	5.42758	-0.00856929	-0.00206257	-0.0107057	-0.662598	0.341553	-0.384277	-0.648401	0.215133	0.443586	0.580108	8.4744	2.6078	5.2722	-0.0757989	0.0213527	-0.0152499	-0.865723	0.0612793	-0.613281	-0.0311317	-0.438506	0.0818905	0.894448	-7.63438	1.71765	5.82991	0.0117569	-0.0272403	-0.0363219	0.5	-0.117432	-0.900635	-0.384957	0.528575	0.0800626	0.752334	8.38514	-2.77153	4.3104	-0.0748348	0.0163403	-0.00946048	-0.832031	0.523193	-0.0842285	-0.940958	0.105251	-0.312888	0.0749828	-7.04073	-2.91484	9.64247	0.0402519	0.0494388	-0.0137489	0.959229	0.25	-0.295898	-0.411072	0.565828	0.464392	0.543322	9.74838	0.356715	-0.625318	0.0125925	-0.0360712	0.0113726	-0.900391	0.368164	0.179688	-0.281943	0.546854	0.459481	0.640575	9.46917	2.80359	-0.12138	0.0819553	0.0351614	-0.0376656	-1.0376	0.148438	0.232666	-0.402764	0.508035	0.497609	0.576253	9.75307	1.74694	0.031821	0.100608	-0.0200659	-0.0391837	-1.0415	0.266602	0.0859375	-0.24468	0.428092	0.120802	0.861554	8.24687	-0.0267305	6.31718	0.0501168	0.0645642	0.0292169	-0.987305	0.241943	-0.254883	-0.111944	0.987641	0.106361	-0.026839	-0.132244	-2.20664	-9.57749	0.122998	-0.0216423	-0.0538133	0.444336	0.348389	0.915771	
62	-0.451331	0.440831	0.327289	0.703456	9.38885	0.647337	4.11708	-0.0170604	0.0420177	0.0233903	-0.852783	0.364258	-0.234131	-0.54507	0.380053	0.280279	0.69275	8.4983	-0.181496	5.55356	-0.0278821	0.015241	-6.6298e-06	-0.662354	0.330811	-0.384033	-0.647935	0.215934	0.443158	0.580658	8.63277	2.29422	5.21181	-0.00626431	-0.014695	-0.00278002	-0.865723	0.0612793	-0.61084	-0.0302609	-0.43798	0.0824078	0.894688	-7.63574	1.61767	6.02819	0.0417383	-0.0172295	-0.00737706	0.498047	-0.121826	-0.895996	-0.3845	0.528836	0.0792932	0.752466	8.47073	-2.97417	4.1779	-0.0101424	0.00826538	-0.0105723	-0.836426	0.523193	-0.0820312	-0.940899	0.104665	-0.313198	0.0752444	-7.11888	-2.91754	9.59347	0.0515823	0.0447549	-0.0169074	0.96167	0.243408	-0.29126	-0.412714	0.565033	0.46552	0.541938	9.8815	0.433887	-0.770416	0.0923906	0.0145036	-0.00368816	-0.9021	0.361572	0.181885	-0.281332	0.546458	0.45949	0.641174	9.44927	3.28559	0.0198973	-0.062276	0.022696	-0.042296	-1.0354	0.144287	0.22583	-0.402184	0.508229	0.496633	0.577327	9.72621	1.87837	-0.00802871	-0.115148	0.037086	-0.0226478	-1.04614	0.26416	0.0881348	-0.2462	0.426844	0.121193	0.861686	8.21464	-0.0588474	6.28156	0.0540447	0.0552852	0.0478352	-0.980957	0.248779	-0.250488	-0.113951	0.987226	0.107977	-0.0272272	-0.23529	-2.25268	-9.44517	0.0688352	-0.002331	-0.0756876	0.446533	0.348389	0.913574	
63	-0.451978	0.441187	0.326046	0.703395	9.26365	0.676073	4.11055	-0.034487	0.00627769	0.0526923	-0.852783	0.366455	-0.236328	-0.545178	0.380411	0.279621	0.692734	8.49964	-0.243261	5.41246	-0.0281382	0.0212679	-0.00306939	-0.658203	0.339355	-0.386719	-0.648043	0.216416	0.442828	0.580609	8.60654	2.45148	5.34258	-0.0408545	0.0129912	0.0156447	-0.863525	0.0568848	-0.61084	-0.0299461	-0.43731	0.0830994	0.894962	-7.59267	1.77763	6.06333	0.0171371	-0.0274651	-0.000756681	0.493408	-0.117676	-0.898438	-0.384644	0.528939	0.0794941	0.752299	8.50912	-2.83892	4.14282	0.0143226	-0.0108588	-0.00576423	-0.843018	0.525146	-0.0727539	-0.940602	0.104269	-0.314061	0.0759053	-7.15435	-2.90882	9.58822	0.0209775	0.0469873	-0.0246968	0.963623	0.247803	-0.293701	-0.412883	0.565333	0.46505	0.5419	9.85729	0.350083	-0.526966	0.0144744	0.0147866	-1.78455e-05	-0.900146	0.365967	0.168945	-0.28025	0.546864	0.458237	0.642198	9.53352	2.81445	-0.142258	-0.153635	0.0292576	-0.0245144	-1.0332	0.146484	0.230469	-0.401651	0.508499	0.495876	0.578111	9.73998	1.74002	-0.0714571	-0.0116124	0.0155049	-0.0270826	-1.04395	0.266602	0.090332	-0.24726	0.426208	0.120869	0.861742	8.03722	0.190044	6.17663	-0.0070249	0.0376447	0.035016	-0.979004	0.257568	-0.262207	-0.114713	0.987055	0.108715	-0.0272845	-0.149596	-2.23811	-9.36225	0.0645018	0.000318424	-0.0650862	0.444092	0.352783	0.917969	
64	-0.452015	0.442785	0.324722	0.702979	9.30249	0.535169	4.03283	-0.0644779	-0.0396483	0.0455271	-0.848633	0.368652	-0.234131	-0.545534	0.380388	0.279338	0.69258	8.42451	-0.188255	5.43104	-0.00571143	0.0188785	-0.00301404	-0.6604	0.337402	-0.386475	-0.648146	0.217281	0.441125	0.581467	8.50611	2.35644	5.16624	-0.0706992	0.0414029	0.00737454	-0.865723	0.0634766	-0.615479	-0.0294756	-0.436463	0.0826268	0.895435	-7.55495	1.77164	5.95942	-0.0198833	-0.0316545	-0.0274904	0.491211	-0.119873	-0.895996	-0.383884	0.529954	0.0780189	0.752127	8.49171	-2.79606	4.22138	-0.103347	-0.00138358	0.00348905	-0.834473	0.529785	-0.0773926	-0.940203	0.104412	-0.315137	0.0761904	-7.17315	-3.05838	9.54138	-0.000742952	0.0605046	-0.0188152	0.96167	0.243408	-0.289307	-0.413473	0.564809	0.465386	0.541707	9.74545	0.325496	-0.733832	0.0532481	0.0245561	-0.0211516	-0.898193	0.370361	0.17749	-0.280262	0.54658	0.457812	0.642737	9.34188	2.47726	-0.0286784	0.0606668	0.0384932	-0.0178309	-1.03735	0.14209	0.22583	-0.401474	0.508615	0.495711	0.578274	9.7256	1.6048	-0.144279	-0.0194335	0.00636822	-0.0225333	-1.0437	0.26416	0.0881348	-0.247428	0.426089	0.120599	0.861791	8.11555	0.117409	6.14824	-0.0114234	0.0294117	0.0207786	-0.985596	0.25293	-0.255127	-0.114588	0.987016	0.109307	-0.0268614	-0.0999287	-2.18407	-9.20052	-0.0113563	0.0306884	-0.0154905	0.446533	0.350586	0.917969	
65	-0.452015	0.442785	0.324722	0.702979	9.30249	0.535169	4.03283	-0.0644779	-0.0396483	0.0455271	-0.848633	0.368652	-0.234131	-0.545832	0.380267	0.279182	0.692475	8.40114	-0.179428	5.44555	-0.000368116	0.031097	0.00399781	-0.656006	0.337402	-0.384277	-0.64835	0.217278	0.440559	0.581671	8.50117	2.30948	5.10141	-0.0291473	0.044846	0.00707315	-0.861572	0.0634766	-0.620117	-0.0292543	-0.436145	0.0821837	0.895638	-7.55643	1.63683	5.94641	-0.025192	-0.0234869	-0.0284106	0.493408	-0.117676	-0.89624	-0.383387	0.530508	0.07617	0.752179	8.38848	-3.12088	4.29477	-0.032135	0.0230106	0.0204644	-0.83667	0.531738	-0.0727539	-0.940141	0.103563	-0.315692	0.0758137	-7.13455	-2.87414	9.58954	0.0295786	0.0264992	0.0221519	0.96167	0.245605	-0.289307	-0.413715	0.564499	0.465014	0.542165	9.77099	0.360303	-0.621143	0.00277474	0.067069	-0.0159034	-0.902588	0.368164	0.17334	-0.281491	0.546037	0.458665	0.642053	9.44368	2.90414	-0.144836	0.0292145	0.0315646	-0.00566846	-1.0376	0.148682	0.22583	-0.40175	0.508186	0.496407	0.577861	9.72088	1.70794	-0.0955057	0.0360727	0.00223555	-0.0311565	-1.0437	0.264404	0.0837402	-0.247231	0.425893	0.120558	0.86195	8.09422	0.0350245	6.19045	-0.0154456	0.0222115	-0.0122509	-0.980957	0.248779	-0.255127	-0.11413	0.987134	0.108919	-0.0260168	-0.218088	-2.19054	-9.49445	-0.0356916	0.0357238	0.0133276	0.442139	0.350586	0.915771	
66	-0.451689	0.444939	0.323277	0.702494	9.6076	0.344644	4.02024	-0.0350164	-0.0166983	0.0301254	-0.855225	0.370605	-0.229736	-0.546408	0.380082	0.278925	0.692226	8.37878	-0.191862	5.45975	0.00802784	0.0146195	0.000825699	-0.6604	0.337158	-0.391357	-0.649075	0.21636	0.440442	0.581292	8.4548	2.4016	5.23512	0.0456137	0.0342767	0.0140921	-0.861572	0.0612793	-0.61792	-0.0294441	-0.43591	0.0814799	0.895811	-7.5218	1.61334	5.94064	-0.0348919	0.00242666	0.00460696	0.495605	-0.119873	-0.895996	-0.384812	0.529966	0.076444	0.751806	8.43469	-2.84384	4.26917	0.0330622	0.0172445	0.0253083	-0.836426	0.525391	-0.0773926	-0.940258	0.103157	-0.315693	0.0749036	-7.13463	-2.82446	9.56419	-0.00487208	0.00690225	0.0237373	0.966064	0.243408	-0.295654	-0.413646	0.564538	0.464061	0.542992	9.78049	0.471156	-0.690456	-0.0295007	0.0375652	-0.0104442	-0.900391	0.368164	0.175293	-0.281689	0.546075	0.458493	0.642058	9.52944	2.67346	-0.154987	0.0205965	0.015432	-0.00869705	-1.0354	0.146484	0.223389	-0.402257	0.507582	0.497497	0.577102	9.75797	1.49957	-0.173772	0.10589	-0.00577194	-0.0331147	-1.0459	0.261963	0.0859375	-0.247183	0.426014	0.120301	0.86194	8.16621	-0.0067328	6.28635	-0.0181393	0.0111077	0.0142965	-0.985596	0.25293	-0.261963	-0.114421	0.98713	0.108679	-0.0259081	-0.167328	-2.21274	-9.61883	0.0327238	0.000642063	0.000122079	0.446289	0.35498	0.920166	
67	-0.452406	0.444813	0.322472	0.702483	9.55119	0.361532	4.05437	0.00035261	0.0354223	0.0293058	-0.84668	0.372803	-0.227783	-0.54682	0.379992	0.279056	0.691897	8.47536	-0.172522	5.57486	-0.00261922	0.0102047	-0.00534878	-0.662598	0.339355	-0.388916	-0.649729	0.215667	0.44075	0.580586	8.53651	2.44544	5.36033	0.0496687	0.0147315	0.0169652	-0.861572	0.0632324	-0.615479	-0.0299851	-0.435865	0.0813521	0.895826	-7.67372	1.55209	6.0093	-0.0074044	0.00656175	0.0218083	0.491211	-0.117676	-0.898438	-0.385298	0.530058	0.0762813	0.751508	8.48813	-2.84446	4.25676	-0.00964017	-0.00199691	0.00509193	-0.830078	0.529785	-0.0727539	-0.940264	0.103541	-0.315699	0.0742758	-7.14152	-2.90021	9.6216	-0.0216782	0.0141548	-0.00178455	0.963867	0.243408	-0.29126	-0.413803	0.564143	0.463876	0.543441	9.85512	0.331439	-0.636827	0.00962328	0.0439808	-0.0254911	-0.900635	0.372314	0.175293	-0.282271	0.545461	0.459002	0.641959	9.45161	2.76722	-0.165695	0.0436124	0.0370838	-0.0217251	-1.03979	0.146484	0.22583	-0.402479	0.50721	0.498095	0.576759	9.81131	1.70089	-0.130185	0.0676191	-0.00088575	-0.0377304	-1.0459	0.261963	0.0837402	-0.246933	0.426322	0.119986	0.861903	8.23005	-0.0627828	6.29959	-0.00862142	0.00242405	8.30285e-05	-0.983154	0.248779	-0.255127	-0.114857	0.9871	0.108347	-0.0265093	-0.109215	-2.17794	-9.47691	0.0431101	-0.0128362	0.0116692	0.446289	0.35498	0.915771	
68	-0.45314	0.443845	0.322116	0.702786	9.40676	0.446926	4.11447	0.0192946	0.0456933	0.00354102	-0.848633	0.37085	-0.231934	-0.547125	0.380137	0.278839	0.691664	8.43143	-0.161715	5.52211	-0.0137069	0.0174418	0.00263033	-0.656006	0.339355	-0.391357	-0.650224	0.21526	0.440868	0.580093	8.57685	2.5515	5.43014	0.00701647	0.0183338	0.0125586	-0.865723	0.0612793	-0.61792	-0.0303265	-0.435587	0.0816051	0.895927	-7.69447	1.66245	6.03425	0.00151455	-0.00939663	0.0133577	0.495605	-0.117676	-0.89624	-0.385588	0.530261	0.076255	0.751219	8.47553	-2.9746	4.23241	0.0175257	-0.0031608	0.00535601	-0.834717	0.533936	-0.0727539	-0.940152	0.104038	-0.315923	0.0740529	-7.13909	-2.96865	9.64595	-0.0145772	0.0220981	-0.0107025	0.970459	0.241211	-0.287109	-0.413898	0.563801	0.463755	0.543827	9.78542	0.341825	-0.786497	0.0317488	0.0401212	-0.027289	-0.902344	0.36377	0.171143	-0.283078	0.54481	0.460066	0.641396	9.39359	2.94931	-0.169584	0.063141	0.0257745	-0.0233982	-1.03784	0.150635	0.22583	-0.404396	0.505327	0.499854	0.575547	9.69645	1.76557	-0.140662	0.0506073	0.0299951	-0.0115194	-1.0481	0.259766	0.0859375	-0.246858	0.426596	0.120694	0.86169	8.09474	0.00779758	6.32405	0.0313787	-0.0166061	-0.0124015	-0.980957	0.248779	-0.257324	-0.114016	0.987218	0.108191	-0.0263586	-0.140372	-2.13032	-9.43501	-0.0422122	0.0168178	0.00423292	0.442139	0.348389	0.906738	
69	-0.453903	0.443115	0.321646	0.702969	9.23048	0.494758	4.10718	0.00802222	0.0338073	0.0201487	-0.84668	0.373047	-0.231934	-0.547392	0.38038	0.278875	0.691304	8.33494	-0.237968	5.40714	-0.00125034	-0.00401419	-0.00550604	-0.653809	0.339355	-0.395996	-0.650148	0.215968	0.439582	0.580889	8.38632	2.42404	5.27599	-0.0809134	0.0279535	-0.00467036	-0.857178	0.0654297	-0.622559	-0.0303279	-0.43534	0.0813213	0.896073	-7.55615	1.70806	5.98863	-0.0208865	-0.0160467	-0.00725674	0.493164	-0.113281	-0.900635	-0.385954	0.530188	0.0764352	0.751065	8.39537	-2.92317	4.14627	0.0290841	0.00244542	0.00678046	-0.834717	0.53418	-0.0773926	-0.940175	0.103768	-0.316066	0.0735166	-7.11035	-2.9766	9.44674	0.0104777	0.0142683	0.0150795	0.970215	0.243408	-0.287109	-0.414198	0.56304	0.464162	0.54404	9.7144	0.407961	-0.63468	0.0287036	0.0396529	-0.0360908	-0.904785	0.370361	0.171143	-0.283514	0.544535	0.460683	0.640994	9.47347	2.7089	-0.172638	0.0376083	0.0101708	-0.0176348	-1.0376	0.144287	0.228271	-0.405676	0.504396	0.500566	0.574844	9.74584	1.59039	-0.0975073	0.0758896	0.0254385	-0.012006	-1.0459	0.259766	0.0837402	-0.24691	0.426777	0.121508	0.861471	8.10808	-0.0587545	6.37815	0.0302994	0.00342605	-0.00116124	-0.983154	0.250977	-0.25293	-0.112654	0.987354	0.108474	-0.0259706	4.74719e-05	-2.43514	-9.52011	-0.0360295	0.0104333	-0.0215354	0.444336	0.348389	0.913574	
70	-0.454273	0.442988	0.321149	0.703037	9.32086	0.490979	4.13248	-0.00954671	0.0121535	0.0107502	-0.844238	0.37085	-0.238281	-0.547615	0.380333	0.279615	0.690855	8.3779	-0.199451	5.40179	0.0287884	-0.000722937	-0.0163012	-0.658203	0.339355	-0.386719	-0.649955	0.216698	0.438192	0.581883	8.41169	2.25106	5.06519	-0.0461706	0.0276572	-0.00677756	-0.861572	0.0632324	-0.613281	-0.0298611	-0.435009	0.0798681	0.89638	-7.47375	1.62875	5.88319	-0.0325672	0.00438745	-0.0188611	0.490967	-0.115479	-0.898438	-0.386504	0.530118	0.0764327	0.750831	8.40787	-2.80845	4.24209	-0.00894084	0.0100209	0.00598371	-0.832275	0.531982	-0.0795898	-0.940328	0.103327	-0.315929	0.0727677	-7.0703	-2.82879	9.54191	0.00670938	0.00158213	0.0174847	0.968262	0.239014	-0.29126	-0.414104	0.562608	0.464412	0.544345	9.69984	0.467648	-0.64415	0.0213173	0.00703756	-0.0378642	-0.902344	0.36377	0.175537	-0.283686	0.544344	0.460958	0.640882	9.49068	2.61441	-0.0404539	0.0348781	0.022591	-0.023179	-1.03564	0.150879	0.220947	-0.406741	0.503527	0.500941	0.574527	9.69947	1.88885	0.122142	0.049737	0.0277611	-0.0199106	-1.0459	0.259766	0.0793457	-0.247326	0.426686	0.122237	0.861294	8.08589	0.0516726	6.1773	0.0391215	0.00693731	0.00750009	-0.978516	0.246582	-0.255127	-0.112712	0.987319	0.108716	-0.0260238	-0.077682	-2.32111	-9.43935	0.00843237	-0.000339843	-0.0224411	0.442139	0.346191	0.915771	
71	-0.454262	0.443022	0.320969	0.703104	9.32522	0.432289	4.14365	-0.012878	0.00343208	0.002738	-0.848877	0.375	-0.234131	-0.547886	0.380254	0.280279	0.690414	8.48624	-0.158581	5.44031	0.0177311	0.00106153	-0.0110431	-0.656006	0.337402	-0.384277	-0.650033	0.216514	0.438253	0.581819	8.46379	2.23846	5.06916	0.0166867	0.0122968	-0.0017489	-0.857178	0.0632324	-0.615479	-0.0300656	-0.43512	0.0796692	0.896336	-7.49386	1.61236	5.91615	-0.0199441	0.0177904	0.00831052	0.48877	-0.113281	-0.891846	-0.387232	0.529789	0.0768344	0.750647	8.43234	-2.90805	4.25287	0.0636667	0.00883221	0.00416859	-0.83667	0.531982	-0.0795898	-0.940425	0.103463	-0.315675	0.0724239	-7.07517	-2.83512	9.5458	-0.0134323	-0.0110403	0.00593495	0.968262	0.239014	-0.286865	-0.413988	0.562403	0.464591	0.544493	9.77878	0.429216	-0.837056	0.0191043	0.0174271	-0.0415895	-0.902588	0.370361	0.166748	-0.284206	0.543854	0.46146	0.640706	9.4656	3.00139	0.0516068	0.0108094	0.031316	-0.015492	-1.03564	0.148682	0.221191	-0.406735	0.503526	0.500821	0.574637	9.70368	1.67014	-0.0269766	-0.00478335	0.014566	-0.0187249	-1.04834	0.261963	0.081543	-0.247121	0.426823	0.1223	0.861276	8.11074	0.0796796	6.1861	-0.00529153	-0.000252146	-0.0113633	-0.980957	0.250977	-0.255127	-0.112075	0.987418	0.108512	-0.0258963	-0.164923	-2.18017	-9.34542	-0.0449209	0.013912	0.01571	0.442139	0.348389	0.911377	
72	-0.454102	0.443137	0.321155	0.703051	9.38706	0.375347	4.08413	0.00888933	-0.0163052	-0.00927576	-0.849121	0.379395	-0.232178	-0.548267	0.379956	0.280627	0.690134	8.4069	-0.130107	5.44619	0.0135861	0.0157778	-0.0121275	-0.658447	0.341553	-0.384277	-0.651097	0.214488	0.440516	0.579666	8.49312	2.60384	5.46855	0.0939985	0.0110391	0.016342	-0.86792	0.059082	-0.622314	-0.0309939	-0.435552	0.0801882	0.896049	-7.64069	1.63003	5.98646	0.00575036	0.0304737	0.0494099	0.495605	-0.119873	-0.893799	-0.387914	0.529413	0.0777556	0.750466	8.45216	-2.74365	4.20965	0.0237526	0.00506517	-0.0117148	-0.83252	0.536377	-0.0751953	-0.940519	0.104361	-0.315202	0.0719782	-7.06653	-2.93391	9.58951	-0.0363929	-0.00770718	-0.015956	0.966064	0.241211	-0.287109	-0.413845	0.561909	0.464123	0.545509	9.78854	0.439181	-0.637761	-0.020455	0.0435599	-0.0167069	-0.9021	0.359375	0.166992	-0.284017	0.544281	0.460812	0.640893	9.49653	2.67482	-0.0171365	-0.0131913	0.00729326	-0.00148229	-1.0376	0.146484	0.223389	-0.40631	0.503859	0.500642	0.574801	9.71436	1.79565	0.0190301	-0.0341925	-0.0075109	-0.0209905	-1.03662	0.262207	0.0837402	-0.24681	0.426968	0.121862	0.861355	8.16675	-0.0457492	6.27077	-0.0445211	0.0113814	-0.00390141	-0.985352	0.248535	-0.259766	-0.111966	0.98746	0.108273	-0.0257667	-0.152881	-2.3624	-9.584	0.0265892	0.0040161	0.0002225	0.446533	0.348389	0.913574	
73	-0.45419	0.442814	0.321946	0.702836	9.48083	0.470076	4.08879	0.0397027	-0.00628575	-0.0137709	-0.848877	0.373047	-0.236328	-0.548421	0.379848	0.280718	0.690034	8.45164	-0.149751	5.57624	0.00878174	0.0167014	-0.0115161	-0.649658	0.34375	-0.384521	-0.6513	0.214191	0.440463	0.579589	8.49612	2.62693	5.44386	0.019439	0.0273051	0.00263235	-0.861572	0.0634766	-0.624756	-0.0316502	-0.435684	0.0798203	0.895995	-7.72147	1.5857	5.98552	-0.0278832	0.00758086	0.00331673	0.488525	-0.111084	-0.89624	-0.388031	0.529309	0.0774814	0.750507	8.39704	-2.86756	4.22425	-0.00370708	0.016929	0.00109246	-0.834473	0.531982	-0.0795898	-0.940607	0.10479	-0.314887	0.0715785	-7.0861	-2.98385	9.64408	-0.00752779	0.00127007	-0.00235805	0.968262	0.239014	-0.29126	-0.413902	0.561733	0.463959	0.545787	9.80395	0.32505	-0.692559	0.00544466	0.039105	-0.0216696	-0.904297	0.361572	0.171143	-0.283921	0.544322	0.460632	0.641031	9.48198	2.73758	-0.0904118	-0.0134221	0.0232406	-0.0193387	-1.0376	0.146484	0.223389	-0.405717	0.504327	0.500654	0.574798	9.73222	1.66351	-0.0836134	0.0075455	-0.0204363	-0.0273991	-1.04614	0.264404	0.0771484	-0.24707	0.42699	0.121632	0.861302	8.17042	0.117419	6.29731	-0.0321567	0.00611913	-0.000603718	-0.985596	0.250732	-0.25293	-0.11275	0.987384	0.107999	-0.0263995	-0.133439	-2.12369	-9.42578	0.0253378	-0.0154769	0.0159934	0.442383	0.343994	0.918213	
74	-0.454565	0.442091	0.322486	0.702801	9.50474	0.567019	4.10896	0.0308198	0.0168829	-0.00715526	-0.844238	0.373047	-0.238525	-0.548517	0.379823	0.280476	0.690071	8.5256	-0.155635	5.61078	-0.0216829	0.0315121	-0.0134378	-0.656006	0.335205	-0.381836	-0.651334	0.214083	0.440194	0.579794	8.53778	2.57433	5.43664	-0.0128324	0.0281022	-0.00999867	-0.857178	0.0568848	-0.619873	-0.0312072	-0.435496	0.0792788	0.896149	-7.74131	1.47507	6.01618	-0.0049762	-0.00284729	-0.0264866	0.493164	-0.113281	-0.898438	-0.388088	0.529307	0.0770333	0.750525	8.5388	-2.90756	4.27941	-0.016482	0.0147203	-0.00184433	-0.827881	0.531982	-0.0751953	-0.940677	0.104234	-0.314919	0.0713241	-7.15328	-2.93005	9.68325	0.0246667	0.0166365	0.00152116	0.968262	0.241211	-0.287109	-0.41461	0.56093	0.463757	0.546246	9.96876	0.429857	-0.660505	0.0450259	0.0671209	-0.0161024	-0.897949	0.36377	0.166992	-0.283729	0.54459	0.460494	0.640988	9.44389	2.82396	-0.2014	0.00743207	0.00171299	-0.00947769	-1.04395	0.144287	0.22583	-0.405492	0.504495	0.500992	0.574516	9.7917	1.63336	-0.200804	0.017327	-0.00626313	-0.0201184	-1.04614	0.264404	0.0837402	-0.246801	0.427331	0.121296	0.861258	8.21932	-0.170653	6.27306	0.00365779	0.00530666	0.0053274	-0.987549	0.248535	-0.255127	-0.112463	0.987453	0.107691	-0.0262763	-0.129902	-2.17321	-9.50994	0.00376248	0.0178417	0.00374011	0.44873	0.350586	0.911133	
75	-0.454734	0.441151	0.322296	0.703369	9.47793	0.682701	4.13932	-0.00567994	0.0448851	-0.0112935	-0.848633	0.37085	-0.240479	-0.548125	0.380329	0.280049	0.690277	8.29704	-0.213553	5.45829	-0.00491365	-0.0248075	-0.0208974	-0.653809	0.337402	-0.384277	-0.651101	0.214068	0.439173	0.580835	8.40731	2.59282	5.47274	-0.0901946	0.0304388	-0.0253719	-0.859375	0.059082	-0.624512	-0.0303332	-0.43515	0.0787854	0.896391	-7.54962	1.6357	5.94583	-0.0154461	-0.0205484	-0.0484451	0.493164	-0.115234	-0.902832	-0.388412	0.528975	0.0767762	0.750618	8.35005	-2.87788	4.23326	0.00282293	0.0298628	0.00170749	-0.83252	0.536377	-0.0820312	-0.940718	0.10328	-0.315107	0.0713501	-7.07558	-2.85325	9.58231	0.042083	0.0227999	0.000745001	0.963867	0.241211	-0.29126	-0.41436	0.56104	0.463154	0.546835	9.7915	0.384893	-0.67359	-0.0123988	0.0232978	-0.0111061	-0.906494	0.36377	0.164795	-0.283745	0.544572	0.460981	0.640646	9.54285	2.6901	-0.150136	0.0328096	0.00544794	-0.0306343	-1.02905	0.146484	0.223389	-0.405832	0.504278	0.501525	0.574001	9.75657	1.58596	-0.177005	0.0543921	-0.00172348	-0.0200534	-1.04614	0.26416	0.0859375	-0.246707	0.427497	0.122057	0.861095	8.15431	0.117798	6.27184	0.0237104	-0.0104596	-0.0138499	-0.980713	0.244385	-0.259521	-0.1121	0.987478	0.107821	-0.0263666	-0.146901	-2.10882	-9.54824	-0.0271145	-0.00635253	-0.00335713	0.442139	0.346191	0.915771	
76	-0.454846	0.440976	0.32073	0.704122	9.37457	0.553279	4.17831	-0.0554288	0.0430342	0.0116689	-0.84668	0.377441	-0.240723	-0.548046	0.380363	0.280639	0.69008	8.44893	-0.215112	5.56508	0.0104081	-0.00310868	-0.0288768	-0.658203	0.339355	-0.388916	-0.650224	0.215397	0.437773	0.582381	8.46522	2.17546	5.18837	-0.0577598	-0.00244705	-0.0229173	-0.857178	0.0632324	-0.620117	-0.0291896	-0.434975	0.0787765	0.896515	-7.51882	1.59328	6.04919	0.0296168	0.00240149	-0.0275941	0.488525	-0.108887	-0.900635	-0.388206	0.528964	0.0764277	0.750767	8.4552	-2.86105	4.24583	-0.0317159	0.0242475	-0.0143958	-0.834717	0.538574	-0.0773926	-0.940752	0.102314	-0.315242	0.0716923	-7.18141	-2.8025	9.59128	0.0335262	0.0192646	-0.0162842	0.964111	0.234863	-0.286865	-0.414703	0.560423	0.463872	0.546598	9.82421	0.435471	-0.480724	0.00629388	-0.0215365	-0.0382053	-0.9021	0.359375	0.160645	-0.284302	0.543905	0.462605	0.639794	9.42871	2.88035	-0.0694032	0.0870659	-8.98093e-05	-0.041026	-1.0376	0.146484	0.228027	-0.406868	0.503506	0.502696	0.572919	9.76188	1.7508	-0.119629	0.0693711	0.00830636	-0.0170784	-1.0459	0.261963	0.0793457	-0.246386	0.427771	0.122716	0.860957	8.22705	-0.024959	6.25456	0.019585	-0.00162552	-0.0158897	-0.978516	0.244385	-0.252686	-0.112017	0.987501	0.107644	-0.0265827	-0.0714502	-2.12939	-9.5498	0.0162565	-0.000682145	0.00235961	0.446777	0.346191	0.915771	
77	-0.454625	0.440896	0.318873	0.705157	9.27777	0.461775	4.18737	-0.0683742	0.0479188	0.00435893	-0.846436	0.373047	-0.244873	-0.547948	0.380294	0.281003	0.690049	8.36826	-0.156711	5.38884	0.000127135	0.00274133	-0.0219669	-0.658447	0.34375	-0.386719	-0.650095	0.215102	0.43815	0.582351	8.45767	2.41338	5.30394	0.0200287	0.00586231	-0.0133051	-0.861572	0.0656738	-0.624756	-0.0290081	-0.435137	0.0788866	0.896433	-7.54255	1.60838	5.9568	0.00389291	0.0126568	4.84063e-05	0.486328	-0.113281	-0.902832	-0.38741	0.528779	0.0757704	0.751375	8.25775	-3.0239	4.26733	0.0369269	0.019339	-0.00948841	-0.83252	0.53418	-0.0795898	-0.940802	0.102147	-0.315101	0.0718931	-7.04685	-2.78781	9.51567	0.00270821	0.00377694	-0.0183113	0.966309	0.236816	-0.29126	-0.414372	0.560536	0.463484	0.547062	9.71673	0.484768	-0.546573	0.00420359	0.00900365	-0.0181501	-0.908936	0.365967	0.166992	-0.283689	0.544011	0.462979	0.639706	9.47612	2.72958	-0.0358442	-0.013864	0.00147574	-0.034197	-1.0376	0.146484	0.223389	-0.407614	0.502959	0.503592	0.572083	9.73625	1.69031	-0.0570628	0.0857111	0.000606456	-0.0216075	-1.03906	0.264404	0.0771484	-0.245754	0.427719	0.123668	0.861027	8.10723	0.307131	6.10804	0.0131589	-0.00187456	-0.0411647	-0.978516	0.244385	-0.250488	-0.1118	0.987571	0.107151	-0.0268861	-0.162278	-2.08385	-9.38539	-0.0123973	-0.00499257	0.0281966	0.446777	0.346191	0.913574	
78	-0.454447	0.440835	0.31768	0.705848	9.33791	0.380013	4.23144	-0.0337597	0.0260959	0.000324638	-0.844482	0.377441	-0.240723	-0.547939	0.380333	0.281113	0.68999	8.41095	-0.14023	5.43036	-0.00932184	0.00500709	-0.0199327	-0.660645	0.34375	-0.386719	-0.650068	0.215076	0.438154	0.582387	8.46768	2.39699	5.2669	-2.42999e-06	0.00140069	0.000138078	-0.85498	0.0632324	-0.620117	-0.0289872	-0.435254	0.0788223	0.896382	-7.56666	1.66695	5.93575	-0.00355371	0.0122246	-0.0009794	0.490479	-0.106445	-0.905029	-0.388037	0.528379	0.0764137	0.751268	8.31814	-2.82912	4.23583	0.0770392	0.011266	-0.000602802	-0.830322	0.536377	-0.0773926	-0.940886	0.10227	-0.314885	0.0715724	-7.04043	-2.95705	9.55039	0.00135037	0.00492159	-0.00287262	0.970703	0.236816	-0.29126	-0.414173	0.560729	0.463059	0.547375	9.75938	0.500483	-0.596985	-0.00950732	0.0126073	-0.0136207	-0.904297	0.359375	0.166992	-0.283434	0.5441	0.46327	0.639532	9.34945	2.79724	-0.0893518	0.012814	-0.0112102	-0.0343678	-1.0354	0.144287	0.23291	-0.407457	0.503161	0.503379	0.572203	9.72361	1.60521	-0.111095	-0.0299531	0.00370842	-0.0159103	-1.0459	0.261963	0.0837402	-0.244037	0.428254	0.123359	0.861294	8.11337	0.0988926	6.08782	-0.0691536	-0.00791013	-0.0526166	-0.985107	0.239746	-0.25708	-0.111228	0.987701	0.10654	-0.0269048	-0.154406	-2.05035	-9.25385	-0.041275	0.0049738	0.0475841	0.44458	0.341797	0.916016	
79	-0.454641	0.440387	0.317231	0.706205	9.30826	0.435558	4.24986	0.0027053	0.0244332	-0.000501428	-0.842041	0.373047	-0.242676	-0.547612	0.380456	0.281273	0.690116	8.45905	-0.0928136	5.35816	-0.00863537	-0.0015914	-0.0224821	-0.6604	0.337402	-0.386475	-0.65011	0.215303	0.438044	0.582339	8.49059	2.44124	5.31392	-0.0054616	0.00406543	0.00425475	-0.86377	0.0656738	-0.620117	-0.0289458	-0.435202	0.0787776	0.896413	-7.67231	1.51515	5.89363	0.0114481	0.00326054	0.00441132	0.49292	-0.108887	-0.900635	-0.388143	0.528408	0.0764172	0.751193	8.40353	-2.76496	4.19937	-0.0150894	0.00432644	-0.0139341	-0.830322	0.53418	-0.0751953	-0.940828	0.10253	-0.314959	0.071632	-6.97683	-2.91709	9.64238	-0.0111667	0.0217483	-0.0290461	0.966553	0.232666	-0.293213	-0.414075	0.560925	0.461977	0.548163	9.79606	0.485431	-0.562658	-0.0339101	0.0374693	-0.0026787	-0.906494	0.36377	0.166992	-0.282472	0.545567	0.462724	0.639104	9.58371	2.86515	-0.185772	-0.0291589	-0.0122694	-0.00911194	-1.04199	0.148438	0.22583	-0.407217	0.503401	0.503181	0.572338	9.8212	1.6778	-0.0386324	-0.00487707	0.00488064	-0.0174484	-1.04858	0.266602	0.0793457	-0.242412	0.428932	0.123322	0.86142	8.15082	0.101335	6.21563	-0.0420553	-0.0169731	-0.0496156	-0.991699	0.239746	-0.252686	-0.109961	0.988147	0.103711	-0.026781	-0.27791	-2.13927	-9.5615	-0.00888243	0.00077073	0.0841822	0.453857	0.337402	0.918213	
80	-0.454656	0.440228	0.317247	0.706288	9.3358	0.491317	4.25674	0.00611284	0.00875386	-0.00840125	-0.844238	0.373047	-0.242676	-0.547022	0.380843	0.280945	0.690504	8.46745	-0.0982835	5.48557	-0.0350446	0.00283638	-0.0249676	-0.658447	0.341553	-0.38916	-0.650005	0.215505	0.438267	0.582214	8.4886	2.50383	5.36297	-0.00947057	-0.014158	-0.00241909	-0.859375	0.0632324	-0.620117	-0.0288439	-0.435085	0.0791272	0.896442	-7.67294	1.55951	5.89214	0.0292796	-0.00424855	0.00719111	0.49292	-0.11084	-0.902832	-0.387873	0.528599	0.0765142	0.751188	8.48496	-2.65145	4.2289	-0.0185244	0.0030858	-0.0265508	-0.832275	0.531738	-0.0727539	-0.940736	0.102667	-0.315108	0.0719847	-7.02329	-2.93617	9.66001	0.000155192	0.0298271	-0.0446827	0.966064	0.241211	-0.287109	-0.41373	0.56142	0.461059	0.548689	9.78545	0.405149	-0.627851	-0.0118309	0.0130763	-0.00378811	-0.904541	0.368164	0.162598	-0.282069	0.545928	0.462365	0.639232	9.46141	2.80033	-0.158225	-0.0443586	-0.00305403	-0.0104631	-1.0376	0.146484	0.230469	-0.406848	0.503732	0.502558	0.572857	9.73695	1.79823	-0.0839896	-0.0697014	0.0173682	-0.0156537	-1.0437	0.261963	0.0837402	-0.241333	0.429616	0.123106	0.861414	8.17798	0.0984151	6.21464	-0.0653685	-0.0408991	-0.0567805	-0.984863	0.237793	-0.243408	-0.109554	0.988306	0.102539	-0.0271226	-0.206951	-2.09448	-9.55606	-0.0243783	-0.0141479	0.0930575	0.458252	0.337402	0.913818	
81	-0.454324	0.44014	0.317334	0.706517	9.34899	0.55206	4.23351	-0.0105118	-0.0029779	-0.0196761	-0.851074	0.373047	-0.240723	-0.546671	0.381128	0.280512	0.690801	8.46302	-0.12019	5.4145	-0.0625954	0.0181672	-0.0325664	-0.658203	0.3396	-0.381836	-0.649859	0.215811	0.43827	0.582261	8.48785	2.50379	5.39594	-0.0194469	-0.0141658	-6.60696e-05	-0.859375	0.0632324	-0.61792	-0.02815	-0.434716	0.0801339	0.896553	-7.67598	1.60475	5.99322	0.0539741	-0.0138064	-0.0118604	0.486572	-0.117676	-0.891602	-0.386573	0.529165	0.0756887	0.751543	8.47607	-2.82693	4.21219	-0.0711563	0.0122172	-0.036386	-0.83252	0.53418	-0.0773926	-0.940503	0.102469	-0.315598	0.0731521	-7.07844	-2.99644	9.64083	0.036452	0.0395463	-0.0515843	0.963867	0.241211	-0.293457	-0.413695	0.561616	0.460814	0.54872	9.79188	0.487145	-0.604538	-0.00559814	0.0109268	-0.000961009	-0.899902	0.359375	0.166992	-0.281296	0.546617	0.462057	0.639207	9.39707	2.80688	-0.177744	-0.0148601	-0.0177658	-0.0163701	-1.0376	0.146484	0.223389	-0.406229	0.504289	0.501549	0.573689	9.71035	1.7797	-0.126202	-0.057257	0.0188174	-0.0179986	-1.04126	0.261963	0.0859375	-0.239726	0.430566	0.122674	0.861449	8.2657	-0.140675	6.33636	-0.0358791	-0.0134449	-0.0337093	-0.987061	0.237549	-0.241211	-0.109389	0.98842	0.101528	-0.0274341	-0.099343	-2.2062	-9.5689	-0.00577447	-0.0106695	0.0799383	0.451904	0.333008	0.913818	
82	-0.453497	0.440475	0.317089	0.706949	9.34439	0.635469	4.2178	-0.0421767	-0.0153533	-0.0212605	-0.848877	0.375244	-0.240723	-0.545698	0.381931	0.279103	0.691697	8.45245	-0.174433	5.36711	-0.0889127	0.0247452	-0.0359683	-0.658447	0.341553	-0.386719	-0.649118	0.216996	0.437173	0.58347	8.49267	2.52483	5.36073	-0.117035	0.00684158	-0.0282501	-0.861572	0.067627	-0.622559	-0.02656	-0.434068	0.0805929	0.896875	-7.60397	1.6264	5.93842	0.0465277	-0.0328663	-0.0567655	0.486816	-0.119873	-0.898193	-0.385946	0.529302	0.0753174	0.751806	8.4204	-2.80152	4.1481	-0.0248257	0.0116985	-0.0234085	-0.834473	0.531738	-0.0727539	-0.940319	0.101474	-0.316186	0.074362	-7.0633	-2.99948	9.59834	0.0604705	0.05134	-0.0458121	0.970215	0.243408	-0.289307	-0.413302	0.56237	0.459918	0.548996	9.76947	0.355312	-0.684263	-0.0258114	0.00319117	0.00253942	-0.902344	0.365967	0.166992	-0.279975	0.547293	0.461373	0.639702	9.46329	2.8035	-0.262898	-0.0622841	0.00460067	-0.0303244	-1.03345	0.152832	0.230469	-0.405657	0.504801	0.500454	0.574599	9.67261	1.66709	-0.141526	-0.0484116	0.0195315	-0.0173268	-1.04395	0.266602	0.0837402	-0.23875	0.430909	0.123069	0.861493	8.25551	0.21345	6.28019	-0.0113904	-0.00514432	-0.0374954	-0.989014	0.230957	-0.247803	-0.109596	0.988557	0.0997529	-0.0281679	-0.0636335	-2.21579	-9.51543	0.010086	-0.00508299	0.0469353	0.456055	0.337402	0.913818	
83	-0.4525	0.44156	0.316093	0.707357	9.38289	0.550215	4.19532	-0.0759155	-0.020786	-0.0023365	-0.844238	0.37085	-0.240479	-0.544676	0.382717	0.278145	0.692453	8.44461	-0.248846	5.39135	-0.073161	0.0112647	-0.0439628	-0.662598	0.341553	-0.384277	-0.647828	0.2191	0.435732	0.585194	8.4698	2.22595	5.15976	-0.115047	-0.0229922	-0.0237699	-0.861572	0.067627	-0.620361	-0.0246247	-0.433405	0.081457	0.897172	-7.48317	1.63233	5.99375	0.0665331	-0.0243532	-0.0446802	0.484131	-0.113281	-0.902832	-0.384059	0.530044	0.0739731	0.752383	8.48476	-2.87201	4.18204	-0.113471	0.0158839	-0.0512499	-0.832275	0.531738	-0.0727539	-0.940022	0.100454	-0.317016	0.0759556	-7.14538	-2.83797	9.52295	0.050695	0.0562716	-0.064221	0.966064	0.241211	-0.280518	-0.413204	0.562735	0.459799	0.548796	9.80581	0.47105	-0.601566	0.0107938	0.00515647	-0.00345123	-0.898193	0.365967	0.168945	-0.279376	0.547571	0.461019	0.639982	9.3971	2.69346	-0.175499	-0.0567351	0.000724491	-0.0278541	-1.02881	0.14209	0.23291	-0.405579	0.504959	0.50021	0.574727	9.76718	1.68884	-0.101375	-0.0115568	0.00588721	-0.0142309	-1.05078	0.26416	0.0881348	-0.237461	0.431129	0.122857	0.861769	8.20613	0.025585	6.21522	-0.0280066	0.00913557	-0.0405637	-0.989014	0.22876	-0.240967	-0.109623	0.98866	0.0986781	-0.0282264	-0.169811	-2.15364	-9.49394	0.00821763	0.0110507	0.0395835	0.454102	0.333008	0.920654	
84	-0.451385	0.44309	0.314875	0.707656	9.30296	0.469371	4.13559	-0.0862874	-0.0414441	0.00342428	-0.848877	0.375	-0.236328	-0.543752	0.383161	0.27729	0.693276	8.4546	-0.219221	5.41227	-0.061885	0.028313	-0.0434547	-0.658447	0.34375	-0.379639	-0.647019	0.220065	0.435747	0.585715	8.50649	2.19038	5.12389	-0.0089205	-0.0310591	-0.0140879	-0.865967	0.0742188	-0.622803	-0.0236384	-0.433233	0.0829447	0.897146	-7.49987	1.64708	5.98001	0.0758671	0.00361022	0.00501147	0.482666	-0.126465	-0.900391	-0.382307	0.530544	0.0728986	0.753027	8.44995	-2.89126	4.22577	-0.0761793	0.0175481	-0.0481128	-0.834473	0.529785	-0.0751953	-0.939671	0.100439	-0.317641	0.0776867	-7.14319	-2.8786	9.52496	0.0188711	0.0459475	-0.082099	0.963867	0.241211	-0.284912	-0.412626	0.563434	0.459169	0.549041	9.74762	0.390518	-0.580298	-0.0279982	3.8808e-05	-0.00513757	-0.900391	0.368164	0.162598	-0.278631	0.547867	0.461185	0.639933	9.41788	2.95994	-0.21588	-0.0180443	-0.00317741	-0.0210388	-1.03491	0.137695	0.235352	-0.405235	0.505375	0.499619	0.575118	9.7035	1.6608	-0.0448514	-0.0306445	0.00863074	-0.0146588	-1.0437	0.264404	0.081543	-0.236191	0.431307	0.122891	0.862024	8.1744	0.141291	6.15731	-0.0289488	0.0065866	-0.0433166	-0.991455	0.233154	-0.23877	-0.109051	0.98884	0.0975352	-0.0281036	-0.204622	-2.13913	-9.45839	-0.0152188	0.0116256	0.043334	0.449707	0.328613	0.91626	
85	-0.450329	0.444709	0.31381	0.707786	9.4348	0.361647	4.13239	-0.0731125	-0.0368218	0.00470947	-0.848877	0.375	-0.236328	-0.543058	0.383169	0.276419	0.694163	8.42843	-0.195013	5.40207	-0.0488609	0.0352535	-0.0426703	-0.660645	0.345947	-0.379883	-0.646622	0.220075	0.436616	0.585503	8.48309	2.40655	5.24238	0.0184099	-0.0253114	-0.0128753	-0.865967	0.0700684	-0.61792	-0.0232645	-0.433381	0.0841333	0.896974	-7.55679	1.76492	6.01049	0.0400847	0.0159738	0.00375124	0.484863	-0.126465	-0.895996	-0.381437	0.530813	0.0722187	0.753344	8.41615	-2.92335	4.26484	-0.0894383	0.0207392	-0.043632	-0.83667	0.529785	-0.0773926	-0.93949	0.100431	-0.31784	0.0790504	-7.12131	-2.99505	9.52969	0.0231659	0.0235104	-0.0550367	0.963623	0.25	-0.285156	-0.412003	0.564191	0.458984	0.548886	9.78856	0.446108	-0.629271	-0.0183709	-0.0181514	-0.0104974	-0.904297	0.361572	0.171143	-0.27749	0.548678	0.460042	0.640557	9.41046	2.65195	-0.12817	-0.0510387	0.00460624	-0.0102167	-1.03735	0.144043	0.237549	-0.4047	0.50594	0.498966	0.575566	9.71421	1.62813	-0.0207479	-0.0312332	0.00205553	-0.0148055	-1.04126	0.261963	0.0837402	-0.234822	0.431635	0.122502	0.862289	8.23901	0.0769688	6.12628	-0.0396562	0.00566234	-0.0332106	-0.991211	0.226562	-0.236328	-0.108425	0.989038	0.0962565	-0.0279612	-0.230523	-2.29501	-9.47249	-0.00012327	0.0148841	0.0497119	0.454102	0.328613	0.920654	
86	-0.449596	0.44564	0.313399	0.707848	9.371	0.326889	4.11003	-0.0314634	-0.0314533	-0.00701394	-0.84668	0.375	-0.231934	-0.542583	0.383133	0.276019	0.694713	8.44265	-0.16914	5.43426	-0.0270172	0.0241227	-0.0369817	-0.660645	0.345947	-0.379883	-0.646079	0.220595	0.436628	0.585897	8.54995	2.37734	5.21722	-0.0365435	-0.0107201	-0.0154218	-0.86792	0.0656738	-0.613281	-0.0228772	-0.433611	0.0844083	0.896847	-7.58109	1.70063	5.98317	0.0109867	0.0141143	-0.0106251	0.486816	-0.12207	-0.904785	-0.380682	0.530801	0.0718732	0.753768	8.37095	-2.9948	4.24149	-0.00197854	0.0178945	-0.0283524	-0.830078	0.529541	-0.0705566	-0.939509	0.100241	-0.31772	0.0795557	-7.07543	-2.9435	9.58444	0.0105927	0.00948314	-0.0273871	0.96582	0.25	-0.285156	-0.411555	0.564601	0.458805	0.54895	9.77101	0.42901	-0.66496	-0.0145361	-0.00701806	-0.00720774	-0.904541	0.368164	0.17334	-0.277065	0.549127	0.459666	0.640626	9.4679	2.88019	-0.212322	-0.0314177	0.00514398	-0.0128128	-1.0376	0.14624	0.237549	-0.404042	0.506562	0.498086	0.576242	9.76213	1.66819	-0.0630616	-0.0596618	0.00852	-0.0159776	-1.04614	0.266602	0.0837402	-0.233856	0.431935	0.122267	0.862435	8.1885	0.1149	6.14296	-0.0343264	0.00229072	-0.0260789	-0.986572	0.226807	-0.238525	-0.108664	0.989073	0.0956078	-0.0280186	-0.258977	-2.12925	-9.50009	0.0243901	0.00809927	0.0473661	0.452148	0.324219	0.920898	
