40	Head	00b4120a												Throax	00b411e8												LUpArm	00b411d9												LFoArm	00b41148												RUpArm	00b411db												RFoArm	00b41204												Waist	00b411f7												Lthigh	00b411f4												Lshank	00b4111b												Rthigh	00b411c8												Rshank	00b411ee												
PacketCount	q0	q1	q2	q3	accX	accY	accZ	gyrX	gyrY	gyrZ	magX	magY	magZ	q0	q1	q2	q3	accX	accY	accZ	gyrX	gyrY	gyrZ	magX	magY	magZ	q0	q1	q2	q3	accX	accY	accZ	gyrX	gyrY	gyrZ	magX	magY	magZ	q0	q1	q2	q3	accX	accY	accZ	gyrX	gyrY	gyrZ	magX	magY	magZ	q0	q1	q2	q3	accX	accY	accZ	gyrX	gyrY	gyrZ	magX	magY	magZ	q0	q1	q2	q3	accX	accY	accZ	gyrX	gyrY	gyrZ	magX	magY	magZ	q0	q1	q2	q3	accX	accY	accZ	gyrX	gyrY	gyrZ	magX	magY	magZ	q0	q1	q2	q3	accX	accY	accZ	gyrX	gyrY	gyrZ	magX	magY	magZ	q0	q1	q2	q3	accX	accY	accZ	gyrX	gyrY	gyrZ	magX	magY	magZ	q0	q1	q2	q3	accX	accY	accZ	gyrX	gyrY	gyrZ	magX	magY	magZ	q0	q1	q2	q3	accX	accY	accZ	gyrX	gyrY	gyrZ	magX	magY	magZ	
0	0.763658	0.0299481	0.0199044	-0.644618	-0.739577	0.301964	10.9227	-0.0167011	-0.0275443	-0.000793212	0.136719	0.368408	-0.92334	0.574708	-0.391367	-0.41702	-0.585352	9.3346	0.383981	3.41238	-0.0195438	0.0339083	0.00292137	-0.742676	0.274414	-0.287598	0.789347	-0.0356915	-0.0231742	-0.612471	0.903516	-0.486633	10.8087	-0.0122057	0.0175068	0.0276426	0.00439453	0.344727	-0.937988	0.00818746	0.329836	0.487053	-0.808654	-5.33587	-7.58263	3.00461	0.00834227	-0.0170702	-0.0129753	0.220703	0.895264	-0.491211	0.689064	-0.00109844	-0.0256299	-0.724246	0.349759	0.490916	9.84584	-0.0335461	-0.00250535	0.0124723	-0.036377	0.35498	-0.921631	0.906333	0.19889	0.255291	0.271718	-4.30626	6.08243	9.88731	0.00355293	0.0491144	-0.0192695	0.705078	-0.656006	-0.3479	0.551915	-0.426161	-0.496624	-0.516857	9.88673	0.423398	1.43711	-0.000495033	0.0395685	-0.00398158	-0.925537	0.342773	-0.181641	0.474833	-0.508574	-0.497563	-0.517993	9.81398	0.288379	-0.0610388	0.0106775	0.0278409	-0.00953735	-1.00293	0.380859	0.0368652	0.461522	-0.514087	-0.439676	-0.573931	9.90553	0.299495	0.789667	-0.0124798	0.0153633	-0.0098231	-1.01099	0.372803	-0.0136719	0.440944	-0.601092	-0.45228	-0.489592	9.60094	-0.94056	-1.33765	-0.012408	0.0199627	0.0154132	-0.904053	0.506592	0.206543	0.534496	-0.487063	-0.521562	-0.452832	9.85212	-0.499817	-0.166258	-0.00718927	0.00410228	0.00900151	-1.01782	0.509521	-0.0427246	
1	0.763861	0.0295464	0.0202631	-0.644385	-0.708506	0.271649	10.9879	-0.0220186	0.00713507	0.0177121	0.13208	0.372803	-0.916992	0.574894	-0.391358	-0.416852	-0.585296	9.29865	0.327872	3.46998	-0.00772705	0.0261526	-0.00258687	-0.744873	0.276611	-0.290039	0.789347	-0.0356915	-0.0231742	-0.612471	0.903516	-0.486633	10.8087	-0.0122057	0.0175068	0.0276426	0.00439453	0.344727	-0.937988	0.0082279	0.329311	0.487384	-0.808668	-5.24983	-7.63977	2.96369	-0.021393	-0.008925	-0.00385489	0.225098	0.895264	-0.489014	0.689111	-0.000938545	-0.0254646	-0.724208	0.342272	0.445875	9.73368	0.0120034	0.0171696	-0.0169446	-0.0322266	0.361572	-0.919434	0.906256	0.198896	0.255381	0.271883	-4.25955	6.21669	9.87347	0.00402501	0.0144907	-0.0145483	0.711426	-0.651611	-0.341553	0.55265	-0.425601	-0.496049	-0.517085	9.83444	0.370685	1.47177	0.0338306	0.0463165	-0.00982763	-0.918945	0.343018	-0.186035	0.474761	-0.508878	-0.496933	-0.518365	9.84944	0.260199	-0.143133	-0.0295048	0.026901	-0.00452042	-1.00073	0.378662	0.0322266	0.461513	-0.514284	-0.439225	-0.574107	9.92558	0.324701	0.787495	-0.0120761	0.0182508	-0.0080618	-1.00879	0.372803	-0.00927734	0.441254	-0.600945	-0.452223	-0.489545	9.64236	-0.99754	-1.25199	0.0220372	0.0288018	0.0137109	-0.90625	0.508789	0.206543	0.534944	-0.486991	-0.521605	-0.45233	9.93369	-0.460069	-0.186415	0.0372142	0.0114136	0.0112452	-1.02002	0.509521	-0.0449219	
2	0.764169	0.0296135	0.0206138	-0.644006	-0.849363	0.245089	11.0335	-0.0145883	0.0218952	0.0382458	0.140869	0.372803	-0.921387	0.57524	-0.39119	-0.416745	-0.585143	9.39792	0.366633	3.48119	0.00649083	0.024303	-0.0102888	-0.74707	0.276611	-0.290039	0.789669	-0.0352792	-0.0229933	-0.612087	0.898885	-0.265869	10.7102	0.00707066	0.0122684	0.0139918	0.0129395	0.340332	-0.937744	0.00857421	0.329327	0.487403	-0.808646	-5.24458	-7.61987	2.91244	-0.00979498	-0.00625612	0.0233501	0.2229	0.895264	-0.489014	0.68906	-0.00111351	-0.0254776	-0.724255	0.341842	0.485711	9.74212	-0.00933389	-0.00393467	-0.0196917	-0.0407715	0.356934	-0.917236	0.906345	0.198805	0.255317	0.271715	-4.26233	6.15301	9.77789	-0.00416276	0.00753625	-0.0296139	0.705078	-0.651611	-0.341553	0.552869	-0.425445	-0.496088	-0.516943	9.9062	0.34594	1.51431	0.0355407	0.019968	-0.00834789	-0.910645	0.349365	-0.184082	0.474771	-0.508956	-0.496711	-0.518493	9.85052	0.260217	-0.157984	-0.011892	0.0280132	-0.00872531	-1.00293	0.378906	0.0300293	0.461479	-0.514391	-0.438915	-0.574275	9.92245	0.336216	0.837154	-0.0195569	0.0205904	-0.0100319	-1.00903	0.377441	-0.00927734	0.442234	-0.600442	-0.452366	-0.489146	9.64717	-0.92682	-1.28187	0.0342896	0.0226512	0.0148995	-0.901855	0.506592	0.199707	0.535166	-0.486967	-0.521595	-0.452105	9.89749	-0.411189	-0.181211	0.0208299	0.00835759	0.012158	-1.01782	0.513916	-0.045166	
3	0.765192	0.0289886	0.020424	-0.642825	-1.01278	0.366941	11.1451	-0.019185	-0.0389005	0.0611878	0.136475	0.372803	-0.921387	0.575414	-0.391045	-0.416794	-0.585035	9.26174	0.334872	3.39146	0.00383291	0.0231152	-0.0185506	-0.742432	0.27002	-0.287354	0.789643	-0.0355869	-0.0240097	-0.612063	0.837244	-0.382379	10.8149	0.0352245	-0.0346796	-0.00363914	0.00439453	0.338379	-0.942383	0.00900063	0.329394	0.486992	-0.808862	-5.29189	-7.72976	3.01126	0.0158668	-0.00208414	0.0191306	0.218262	0.899658	-0.489014	0.688818	-0.0014968	-0.0255618	-0.724482	0.339894	0.316173	9.71592	0.0040432	-0.00377622	-0.0298439	-0.0385742	0.35498	-0.921631	0.906643	0.198339	0.254848	0.271501	-4.30103	6.15207	9.86707	-0.0227471	-0.00423877	-0.0272952	0.704834	-0.647217	-0.34375	0.553274	-0.425072	-0.496535	-0.516386	9.82472	0.391496	1.39478	0.0587397	0.00403522	-0.0102456	-0.919434	0.349365	-0.186035	0.474934	-0.508866	-0.496363	-0.518766	9.8199	0.254915	-0.0948145	0.00276128	0.040306	-0.011862	-0.996338	0.378906	0.0322266	0.461455	-0.514578	-0.438487	-0.574455	9.92541	0.289837	0.803423	0.00369487	0.0139546	-0.0111308	-1.00659	0.375244	-0.00927734	0.442768	-0.600213	-0.452408	-0.488905	9.60545	-0.796596	-1.26077	0.0139782	0.0191849	0.0110434	-0.904297	0.510986	0.204102	0.535671	-0.486845	-0.52145	-0.451806	9.88582	-0.473822	-0.189686	0.0182758	0.0182146	0.00926978	-1.01782	0.509521	-0.0495605	
4	0.765505	0.0271499	0.0199356	-0.642548	-0.791264	0.164644	10.9531	-0.0448908	-0.0684404	-0.00257193	0.136475	0.372803	-0.919189	0.575612	-0.390932	-0.417022	-0.584753	9.33254	0.377602	3.47655	0.00792296	0.00682196	-0.00830836	-0.744873	0.276611	-0.290039	0.789622	-0.0362169	-0.0247464	-0.612023	0.956577	-0.27912	11.0179	-0.0253701	-0.0250423	0.00431759	0.00219727	0.340576	-0.937744	0.00967447	0.329441	0.486416	-0.809182	-5.43704	-7.74572	3.03381	0.0164874	-0.015176	0.0323604	0.220459	0.897461	-0.5	0.688504	-0.00185914	-0.0259286	-0.724766	0.259942	0.369376	9.72727	-0.000220617	-0.0172503	-0.0229489	-0.0410156	0.361328	-0.912598	0.906934	0.198071	0.254855	0.270716	-4.31703	6.17743	9.83666	-0.000778477	0.0160143	-0.0540643	0.705078	-0.651611	-0.348145	0.553752	-0.4246	-0.496527	-0.51627	9.8073	0.354881	1.45176	0.03435	0.0127689	-0.0156443	-0.919434	0.349365	-0.181885	0.475064	-0.508735	-0.496021	-0.519101	9.81818	0.358578	-0.184728	-0.0118181	0.0328564	-0.0182171	-1.00513	0.383057	0.0322266	0.461051	-0.51506	-0.437743	-0.574914	9.87912	0.3946	0.877817	-0.0463329	0.0167187	-0.0143513	-1.00439	0.377441	-0.00488281	0.443436	-0.59984	-0.452599	-0.48858	9.57622	-0.821268	-1.33331	0.0320838	0.0190241	0.010222	-0.910645	0.506348	0.199707	0.536345	-0.486586	-0.521297	-0.451463	9.86818	-0.389972	-0.283056	0.0226875	0.0241935	0.0137732	-1.02002	0.507324	-0.0495605	
5	0.765484	0.0258995	0.0196872	-0.642631	-0.543644	0.246808	10.9406	-0.0271483	-0.0301273	0.00112557	0.131836	0.37915	-0.921387	0.575949	-0.390979	-0.417042	-0.584375	9.34632	0.334303	3.60642	0.0017945	0.0137542	-0.0015027	-0.745117	0.281006	-0.290283	0.789717	-0.0367962	-0.0246416	-0.611871	0.93806	-0.392949	10.9228	-0.00718526	0.000574701	0.0107307	0.00439453	0.340576	-0.930908	0.00996469	0.329007	0.486216	-0.809474	-5.37046	-7.66602	3.12046	0.00653877	-0.0164557	-0.00482885	0.220703	0.895264	-0.493408	0.688649	-0.00292576	-0.0257007	-0.724633	0.248987	0.262773	9.78555	-0.0319726	-0.0165866	-0.000129335	-0.0410156	0.359131	-0.917236	0.906963	0.19742	0.255443	0.270541	-4.35784	6.14666	9.91071	-0.0169846	0.0498297	-0.0250768	0.711426	-0.649414	-0.348145	0.554158	-0.42431	-0.496741	-0.515866	9.89436	0.362839	1.46403	0.0388284	0.0198131	-0.00877599	-0.916992	0.347168	-0.186035	0.474666	-0.508989	-0.494968	-0.520221	9.86131	0.383333	-0.0614628	-0.0711695	0.0528285	-0.0221261	-1.00952	0.383057	0.0300293	0.459568	-0.516332	-0.435813	-0.576425	9.92555	0.24166	0.767026	-0.131349	0.0218809	-0.0187159	-1.00879	0.372803	-0.00927734	0.44336	-0.599911	-0.452412	-0.488735	9.66148	-0.797963	-1.43488	-0.0156644	0.0125285	-0.00116663	-0.906494	0.513184	0.199463	0.53601	-0.487254	-0.52014	-0.452472	9.95393	-0.425162	-0.276386	-0.0793229	0.0342741	0.00143504	-1.01562	0.513916	-0.0473633	
6	0.765837	0.0255529	0.0200961	-0.642212	-0.622447	0.196941	10.9636	-0.018836	0.00799982	0.0232718	0.127441	0.376953	-0.925781	0.576147	-0.391022	-0.417007	-0.584176	9.4023	0.322271	3.49992	0.000688279	0.0135492	0.00145332	-0.736084	0.272217	-0.292236	0.78994	-0.0369813	-0.024343	-0.611584	0.945872	-0.334613	10.9168	-0.017104	0.0157794	0.015778	0.00634766	0.342529	-0.937744	0.00987116	0.328399	0.486166	-0.809753	-5.34196	-7.72176	3.12918	0.00219054	-0.016748	-0.0128256	0.223145	0.888672	-0.495605	0.689214	-0.00374363	-0.0257684	-0.72409	0.306418	0.256473	9.83757	-0.0101484	-0.0126106	0.0241116	-0.0410156	0.359131	-0.914795	0.906698	0.196833	0.256449	0.270905	-4.44335	6.26398	9.89787	-0.00351454	0.0642138	-0.0123818	0.704834	-0.649414	-0.341553	0.554115	-0.424583	-0.497239	-0.515208	9.84232	0.498509	1.44803	0.0260276	-0.0432659	-0.000932064	-0.919434	0.349365	-0.186035	0.47395	-0.509689	-0.493433	-0.521644	9.82477	0.120841	-0.106274	-0.0808196	0.0440215	-0.00857589	-1.00049	0.376709	0.0322266	0.45881	-0.517167	-0.434593	-0.5772	9.91604	0.217748	0.787478	-0.0561771	0.0127167	-0.00726429	-1.00659	0.377441	-0.0136719	0.443251	-0.600259	-0.451911	-0.48887	9.64983	-0.996839	-1.26703	-0.0138224	0.013176	0.0213503	-0.908691	0.510742	0.204102	0.535867	-0.487697	-0.519011	-0.453461	9.83113	-0.574807	-0.0991889	-0.0297115	0.04025	0.00385506	-1.02026	0.513916	-0.0427246	
7	0.766096	0.0254814	0.0209834	-0.641878	-0.931028	0.118949	11.0906	-0.0273583	0.0143502	0.0110844	0.131836	0.37915	-0.917236	0.576664	-0.390863	-0.416698	-0.583992	9.30327	0.401289	3.41526	-0.00354128	0.0127225	-0.00553547	-0.744873	0.278809	-0.294678	0.790145	-0.037343	-0.0238825	-0.611315	0.991668	-0.426196	10.7569	-0.0113951	0.0097171	0.0180174	0.00439453	0.344727	-0.935547	0.0101752	0.32819	0.486283	-0.809763	-5.2944	-7.52953	3.03843	0.000284543	-0.00575621	0.00626151	0.220947	0.890869	-0.495605	0.689965	-0.0047333	-0.0254985	-0.723378	0.405141	0.426719	9.76461	-0.0538619	-0.0148914	0.0303397	-0.0324707	0.365723	-0.914795	0.9064	0.196336	0.257721	0.271056	-4.35423	5.99221	9.79724	-0.00805768	0.0715166	-0.0230491	0.713623	-0.649414	-0.34375	0.553739	-0.425342	-0.497564	-0.514672	9.84728	0.362554	1.38441	0.0150158	-0.0189535	-0.00499249	-0.919434	0.349365	-0.184082	0.473811	-0.510163	-0.492198	-0.522473	9.88493	0.230439	0.0605211	-0.0460803	0.0499912	-0.00135173	-0.998779	0.385254	0.0275879	0.458322	-0.517933	-0.433657	-0.577605	9.87876	0.243336	0.90036	-0.0385141	0.00438458	-0.00420842	-1.00439	0.379883	-0.0136719	0.443458	-0.600394	-0.451106	-0.489261	9.63808	-0.883722	-1.13172	-0.023745	0.0357567	0.0201092	-0.908691	0.510742	0.204102	0.535833	-0.488189	-0.518076	-0.45404	9.85052	-0.412996	-0.0916077	-0.0540696	0.0233462	0.0101861	-1.01562	0.513916	-0.0473633	
8	0.766357	0.0246781	0.0204256	-0.641616	-0.954754	0.21103	11.189	-0.0053743	-0.0649276	0.0205157	0.131836	0.376953	-0.916992	0.576609	-0.39119	-0.416856	-0.583716	9.39027	0.327387	3.44986	-0.00970493	-0.0197109	-0.0033201	-0.744873	0.278809	-0.282959	0.790435	-0.0374006	-0.0245268	-0.610911	0.891524	-0.288122	10.6355	0.0146186	-0.0342171	0.0211955	0.00219727	0.338379	-0.937744	0.010301	0.327895	0.485636	-0.810269	-5.17317	-7.58636	2.89887	0.0435815	-0.017786	0.0133982	0.220459	0.897461	-0.493408	0.6903	-0.00545256	-0.0254966	-0.723054	0.351102	0.348956	9.76643	-0.0393756	-0.034209	0.0231513	-0.0368652	0.363525	-0.910156	0.90644	0.19512	0.25819	0.271354	-4.29207	6.14818	9.81729	-0.0468068	0.0365817	-0.0247729	0.709229	-0.649414	-0.3396	0.554142	-0.42516	-0.497909	-0.514055	9.97967	0.269554	1.3087	0.0470089	0.0225706	-0.00396877	-0.916992	0.347168	-0.184082	0.47397	-0.510136	-0.491059	-0.523426	9.8905	0.276408	0.0475011	-0.0377552	0.0662512	-0.00981772	-1.00098	0.385254	0.0251465	0.458174	-0.518235	-0.433429	-0.577623	9.87459	0.299874	0.91495	-0.0246892	-0.00239164	-0.00701712	-1.00659	0.377441	-0.00488281	0.443153	-0.600776	-0.450547	-0.489582	9.64597	-0.904379	-1.19437	-0.0588431	0.0213883	0.0200272	-0.899658	0.510986	0.204102	0.535603	-0.48866	-0.517423	-0.454548	9.9195	-0.498209	-0.115266	-0.0717893	0.0278263	0.00986778	-1.01318	0.509521	-0.0449219	
9	0.767108	0.0229813	0.0185057	-0.640839	-0.927021	0.396838	11.0696	-0.00599571	-0.11987	0.0453623	0.129395	0.381348	-0.919434	0.576294	-0.392026	-0.418046	-0.582613	9.35065	0.279279	3.38728	0.0259901	-0.0331612	-0.0126814	-0.742676	0.278809	-0.282959	0.790547	-0.0394343	-0.025713	-0.61059	0.928466	-0.455982	10.7436	-0.0481929	-0.0903849	0.0164469	0.00439453	0.344727	-0.937988	0.0117555	0.327828	0.484453	-0.810984	-5.19763	-7.6698	3.01479	0.0251997	-0.04156	0.0739937	0.220703	0.895508	-0.502197	0.690105	-0.0058156	-0.0281787	-0.723137	0.394657	0.552669	9.80485	0.0343128	-0.0484212	-0.0369411	-0.0454102	0.359131	-0.912598	0.907078	0.194172	0.257528	0.270529	-4.24562	6.17681	9.8251	-0.0321233	-0.0240381	-0.0671687	0.713135	-0.640625	-0.350586	0.55498	-0.424415	-0.497941	-0.513736	9.72167	0.266064	1.67904	0.0308613	0.00450881	-0.0107538	-0.919189	0.347168	-0.184082	0.474548	-0.509619	-0.490012	-0.524386	9.91504	0.202233	0.0344674	-0.0091975	0.0819867	-0.0143271	-0.996582	0.381104	0.0229492	0.457809	-0.519169	-0.433504	-0.577017	9.92315	0.304031	0.853166	0.00236645	-0.0242243	-0.00714198	-1.00439	0.379639	-0.00488281	0.441403	-0.602273	-0.448489	-0.491211	9.63383	-1.00496	-1.15935	-0.0962783	0.0129542	0.0102745	-0.908936	0.517334	0.206299	0.533699	-0.491023	-0.515055	-0.456925	9.88528	-0.675216	-0.130539	-0.129834	0.0161082	0.00368435	-1.02026	0.516113	-0.0429688	
10	0.767615	0.0214701	0.017865	-0.640302	-0.885595	0.419988	11.0765	-0.0607758	-0.120225	0.0574769	0.124756	0.387939	-0.921631	0.576131	-0.392293	-0.419017	-0.581897	9.34295	0.390409	3.38473	0.0448949	-0.0712956	-0.0147035	-0.74707	0.278809	-0.287842	0.790621	-0.0403921	-0.0267566	-0.610386	0.794404	-0.548465	10.8983	-0.00683998	-0.107976	0.0159093	0.00219727	0.344971	-0.935547	0.0130817	0.327586	0.482375	-0.8123	-5.24335	-7.70415	2.89942	0.103335	-0.0469911	0.0605036	0.22583	0.880127	-0.501953	0.68969	-0.00605708	-0.0288094	-0.723507	0.242723	0.378564	9.78359	0.0215318	-0.0422399	-0.0571866	-0.0476074	0.361328	-0.912598	0.908111	0.192852	0.25591	0.269541	-4.45232	6.14628	9.71826	-0.0738575	-0.0536211	-0.0570579	0.715576	-0.64502	-0.348145	0.556091	-0.423704	-0.497834	-0.513225	10.061	0.28043	1.39549	0.0588008	0.115612	0.0045591	-0.913086	0.351562	-0.188232	0.474849	-0.509297	-0.489332	-0.525061	9.86098	0.081446	-0.0398302	-0.0261031	0.0955845	-0.0145094	-1.00293	0.383057	0.0297852	0.457687	-0.519511	-0.433495	-0.576813	9.92606	0.0896541	0.663086	-0.00574809	-0.0200461	-0.0051358	-1.00415	0.375244	-0.00708008	0.440754	-0.602818	-0.447698	-0.491846	9.65644	-0.980673	-1.2381	-0.102213	0.0258897	0.0119249	-0.906494	0.513184	0.206299	0.532827	-0.492018	-0.514174	-0.457863	9.82981	-0.32999	-0.129549	-0.145393	0.0088027	-0.00116541	-1.01587	0.516113	-0.045166	
11	0.769331	0.0178855	0.015117	-0.638421	-0.612472	0.00742008	11.0564	-0.000960419	-0.19817	0.0943599	0.116211	0.383301	-0.921631	0.575393	-0.393948	-0.421714	-0.579556	9.41592	0.26918	3.51465	0.0219268	-0.12801	0.00589428	-0.74707	0.276611	-0.27832	0.790815	-0.0435485	-0.0286111	-0.609833	0.993654	-0.106377	10.8684	-0.108279	-0.145272	0.0297852	-0.0065918	0.347168	-0.935547	0.0136019	0.327484	0.481127	-0.813072	-5.32739	-7.60565	3.19564	0.0972594	-0.0436534	0.0631748	0.227783	0.886719	-0.501953	0.689019	-0.00630093	-0.0309758	-0.724053	0.430445	0.0623235	9.82761	0.073911	-0.0636635	-0.0326816	-0.0539551	0.356934	-0.919434	0.908596	0.192273	0.255042	0.269145	-4.57502	6.20495	9.86493	-0.0581729	-0.0519375	-0.0529304	0.710938	-0.640625	-0.348389	0.55724	-0.4228	-0.496688	-0.513833	9.93142	0.233064	1.32797	0.0223151	0.165952	0.00606928	-0.915039	0.347168	-0.19043	0.475477	-0.508648	-0.489228	-0.525219	9.72303	0.00664248	-0.176097	0.0456622	0.0799038	-0.0173663	-0.996582	0.385498	0.0180664	0.45862	-0.519124	-0.434634	-0.575561	9.98587	0.319127	0.688226	0.0742601	-0.0135862	-0.00216205	-1.01147	0.381836	-0.00708008	0.439406	-0.60365	-0.446689	-0.492948	9.66175	-0.990063	-1.29247	-0.0719059	0.00637267	-0.0100504	-0.901855	0.510986	0.213379	0.530896	-0.49408	-0.512151	-0.460147	9.92557	-0.528681	-0.20784	-0.126816	0.0243202	-0.0100452	-1.02026	0.516113	-0.0405273	
12	0.770586	0.0152503	0.0124993	-0.637031	-0.472925	0.291845	10.8815	-0.035385	-0.128243	0.0743132	0.116211	0.383301	-0.921631	0.575027	-0.395109	-0.422905	-0.578259	9.31195	0.211538	3.38045	0.0136839	-0.0524593	0.00174602	-0.746826	0.274414	-0.275879	0.790616	-0.0470269	-0.0300793	-0.609762	1.2951	-0.645915	10.907	-0.00636899	-0.109636	-0.011121	-0.0129395	0.347412	-0.931152	0.0151003	0.328232	0.479347	-0.813795	-5.68135	-7.69229	3.27624	0.0539437	-0.00288987	0.0892073	0.228027	0.880127	-0.506348	0.689367	-0.00577382	-0.0332863	-0.723624	0.320887	0.491794	9.84401	0.0434774	-0.0334367	0.0121263	-0.0539551	0.354736	-0.917236	0.909112	0.191297	0.2545	0.268609	-4.42577	6.09796	10.0967	-0.0405163	0.0142889	-0.041353	0.715332	-0.642822	-0.350342	0.558394	-0.421901	-0.49724	-0.512784	9.62784	0.260214	1.82296	0.0848359	-0.0243093	1.96551e-05	-0.914795	0.345215	-0.186035	0.477854	-0.506061	-0.489863	-0.524969	9.87261	0.226345	-0.0379822	0.0719879	0.0739364	-0.0208335	-1.00073	0.381104	0.0158691	0.459334	-0.518979	-0.435159	-0.574726	9.89442	0.213458	0.789613	0.0487247	0.00208342	-0.000885207	-1.00415	0.375244	-0.00708008	0.438328	-0.604104	-0.446143	-0.493845	9.55877	-0.843243	-1.28187	-0.0337236	0.0190298	-0.0137007	-0.908447	0.506592	0.20874	0.529605	-0.495471	-0.510747	-0.461698	9.78626	-0.457878	-0.144627	-0.0950101	0.0125851	-0.00251951	-1.01782	0.513916	-0.0268555	
13	0.77174	0.0130958	0.0115218	-0.635698	-0.354299	0.0970766	10.9644	-0.0383235	-0.0823104	0.0691013	0.114014	0.383301	-0.921631	0.575305	-0.395312	-0.42409	-0.576975	9.38102	0.234088	3.31598	0.0502495	-0.0303998	0.00655486	-0.74707	0.278809	-0.273682	0.790556	-0.0464884	-0.0320936	-0.609778	1.16704	-0.416271	10.9907	0.0574135	-0.0297295	0.00149658	-0.0192871	0.345215	-0.935547	0.0162333	0.328491	0.478178	-0.814356	-5.41329	-7.66544	3.27352	0.0124498	-0.01708	0.0495514	0.22998	0.884521	-0.508545	0.690188	-0.00760506	-0.0319413	-0.722885	0.322503	0.136512	9.55605	-0.0987122	-0.00968403	0.0448755	-0.0498047	0.361328	-0.914795	0.909068	0.189711	0.255317	0.269106	-4.30187	6.09407	9.90588	-0.0481806	0.084218	-0.0167371	0.710938	-0.640625	-0.352539	0.558671	-0.421699	-0.498324	-0.511595	9.72608	0.199599	1.54213	0.12569	-0.0570719	0.00387357	-0.91748	0.35376	-0.192627	0.479223	-0.504558	-0.4899	-0.525134	9.83522	0.333493	0.143279	0.0645738	0.0766971	-0.0201315	-1.00098	0.383301	0.0158691	0.459674	-0.519014	-0.435052	-0.574504	9.95281	0.249281	0.600037	-0.00426095	0.0164146	-0.00321223	-1.00659	0.377441	-0.00708008	0.437086	-0.604537	-0.445885	-0.494649	9.63704	-1.02372	-1.3739	-0.0511328	-0.00587795	-0.0189096	-0.910645	0.50415	0.211182	0.528111	-0.496839	-0.509289	-0.463546	9.88344	-0.713643	-0.208174	-0.0926235	0.0239563	-0.0169172	-1.01782	0.513916	-0.0290527	
14	0.772756	0.0116356	0.0113084	-0.634496	-0.288293	0.116181	10.8719	-0.0382138	-0.0267784	0.0583795	0.11377	0.387695	-0.919434	0.5761	-0.395525	-0.424988	-0.575373	9.44719	0.328548	3.36741	0.0337209	-0.0250987	0.0336183	-0.745117	0.281006	-0.276123	0.790764	-0.0476739	-0.0320848	-0.609418	1.19186	-0.596379	10.893	-0.0599561	-0.0218767	0.0310724	-0.0148926	0.343018	-0.935547	0.0174619	0.327716	0.477428	-0.815083	-5.28975	-7.43978	3.30252	0.0236606	-0.072145	0.0266318	0.22998	0.884521	-0.512939	0.691633	-0.00946494	-0.032677	-0.721448	0.477922	0.275753	9.64164	-0.0199182	-0.0773177	0.079564	-0.052002	0.361328	-0.921631	0.908711	0.18769	0.257582	0.269572	-4.41979	5.91527	9.69854	-0.0502982	0.134866	-0.0333346	0.72168	-0.636475	-0.352783	0.559337	-0.421341	-0.501126	-0.508415	9.81374	0.361658	1.50541	0.0819354	-0.0787341	0.0224638	-0.910645	0.347168	-0.188232	0.479942	-0.50397	-0.489991	-0.524955	9.81844	0.156061	0.174126	0.0309224	0.042247	-0.00737842	-0.996826	0.385498	0.0158691	0.460707	-0.518467	-0.435374	-0.573925	9.89219	0.101101	0.813211	0.0796737	0.0220728	-0.00111613	-1.00244	0.386719	-0.00708008	0.436344	-0.604952	-0.445628	-0.495028	9.65258	-0.949907	-1.11434	-0.0133959	0.0116308	-0.00827142	-0.908447	0.506592	0.213379	0.526753	-0.49818	-0.507861	-0.465215	9.86076	-0.571007	-0.0323185	-0.124143	0.0126713	-0.00766646	-1.01562	0.513916	-0.0290527	
15	0.773483	0.0106611	0.0118661	-0.633616	-0.511421	0.00315606	11.0529	-0.0393418	-0.00969912	0.0392797	0.109131	0.39209	-0.919678	0.576666	-0.396563	-0.425277	-0.573875	9.42122	0.231444	3.24921	0.00506507	-0.0339366	0.0446408	-0.745117	0.283203	-0.278564	0.791787	-0.0492295	-0.0318191	-0.607978	1.15528	-0.638036	10.8303	-0.044779	-0.0274574	0.0866465	-0.0192871	0.347412	-0.940186	0.0184674	0.325855	0.476668	-0.81625	-5.28327	-7.57374	3.24539	0.0406957	-0.0936001	0.00478129	0.223389	0.882324	-0.512939	0.693246	-0.0123205	-0.033267	-0.719827	0.534888	0.374696	9.8146	-0.0668909	-0.0948793	0.0760155	-0.060791	0.365723	-0.912598	0.908492	0.18657	0.258834	0.269887	-4.4471	5.93938	9.83256	-0.0556399	0.139518	-0.0288929	0.719727	-0.642822	-0.348389	0.55924	-0.421999	-0.502963	-0.506158	9.87515	0.24483	1.41145	0.0701704	-0.0801124	0.0114295	-0.919189	0.347168	-0.181885	0.4805	-0.503659	-0.489696	-0.52502	9.92478	0.329003	0.299387	-0.00198863	0.0478776	-0.0108896	-0.999023	0.387695	0.00878906	0.460969	-0.518546	-0.43509	-0.573859	9.88184	0.323525	0.911776	-0.0334741	0.010802	-0.00571036	-1.0022	0.38208	-0.00268555	0.436378	-0.604633	-0.445821	-0.495214	9.6175	-0.957332	-1.1714	0.00953819	0.0162318	-0.00418788	-0.908447	0.504395	0.218018	0.526679	-0.498441	-0.507389	-0.465534	9.89149	-0.772298	-0.04133	0.030232	0.0194749	0.00433172	-1.01782	0.513916	-0.0268555	
16	0.774471	0.0093342	0.0119169	-0.632429	-0.565609	-0.099608	11.0641	-0.0416067	-0.0439903	0.0688469	0.106934	0.389893	-0.919678	0.577345	-0.397495	-0.425715	-0.572222	9.41658	0.116438	3.26274	0.027151	-0.0349786	0.040627	-0.747314	0.287598	-0.269287	0.793018	-0.0507959	-0.031547	-0.606257	1.20335	-0.430631	10.7925	-0.0667519	-0.0233451	0.0862617	-0.0151367	0.355957	-0.931396	0.0198374	0.323485	0.476097	-0.817494	-5.3705	-7.55243	3.36145	0.00917317	-0.119728	0.0126772	0.22583	0.882324	-0.512939	0.694429	-0.0145331	-0.0341156	-0.718605	0.689948	0.307047	9.90378	-0.0134495	-0.0741495	0.0502751	-0.0563965	0.365723	-0.917236	0.908109	0.1836	0.261906	0.270249	-4.54166	6.01865	10.0092	-0.0413215	0.0908304	-0.0426038	0.721436	-0.634277	-0.344238	0.559105	-0.422872	-0.504306	-0.504238	9.90951	0.234055	1.39376	0.0533201	-0.0524503	0.0188946	-0.91333	0.358154	-0.179932	0.480901	-0.503265	-0.489115	-0.525571	9.82531	0.219344	0.151294	0.0169098	0.0518973	-0.0145318	-0.998779	0.383301	0.00415039	0.460874	-0.518998	-0.434725	-0.573803	9.88739	0.158592	0.781096	0.0133175	-0.00109156	-0.00476909	-1.00684	0.384277	-0.00927734	0.436258	-0.604892	-0.446021	-0.494823	9.73046	-1.03187	-1.13467	0.0153024	-0.00709301	0.00403415	-0.908447	0.506592	0.211182	0.526986	-0.498364	-0.507354	-0.465308	9.94015	-0.531694	-0.0748626	-0.023848	0.00744437	0.000446775	-1.01343	0.516113	-0.0268555	
17	0.775402	0.00789765	0.0109228	-0.631324	-0.543603	-0.123991	11.0833	-0.0135646	-0.0820108	0.0502573	0.109375	0.387695	-0.919434	0.577566	-0.397858	-0.426226	-0.571365	9.41218	0.16529	3.24604	0.0360208	-0.0460678	0.0269133	-0.745117	0.283203	-0.269043	0.794048	-0.0525741	-0.0311728	-0.604774	1.15442	-0.601822	10.7469	-0.0358225	-0.0295827	0.0723538	-0.0153809	0.358154	-0.938232	0.0215469	0.321339	0.475493	-0.818647	-5.32841	-7.42997	3.31378	0.0295716	-0.107157	0.02177	0.223389	0.884521	-0.517334	0.694827	-0.0151385	-0.0347341	-0.718178	0.61843	0.343903	9.91117	0.00294238	-0.0615412	0.0335509	-0.0585938	0.363525	-0.912598	0.908184	0.181746	0.262708	0.270473	-4.68406	5.95308	9.91765	-0.0632652	0.0543057	-0.0282036	0.72168	-0.636475	-0.342041	0.559359	-0.422913	-0.505771	-0.502451	9.87747	0.311471	1.42718	0.0844563	-0.0460072	0.00231193	-0.913086	0.355957	-0.182129	0.481554	-0.502707	-0.489502	-0.525147	9.87371	0.166916	0.269296	0.0470064	0.0155186	-0.0119888	-1.00098	0.385498	0.0112305	0.461033	-0.519004	-0.434817	-0.5736	9.90798	0.257919	0.779149	0.0221445	0.00131905	-0.0079115	-1.00903	0.38208	-0.00708008	0.436268	-0.604895	-0.446026	-0.494806	9.66448	-1.00169	-1.12366	0.00299517	0.0112015	0.00331835	-0.906006	0.504395	0.215576	0.527218	-0.498223	-0.507497	-0.46504	9.87591	-0.482512	-0.0466509	0.0351243	0.00600929	0.00108687	-1.01562	0.513916	-0.0290527	
18	0.776173	0.0064916	0.00912881	-0.63042	-0.315235	-0.201619	11.0429	0.00129534	-0.0929587	0.0471735	0.109131	0.389893	-0.91748	0.577786	-0.398579	-0.427489	-0.569693	9.48599	0.240871	3.2688	0.0277178	-0.0532289	0.0132368	-0.745117	0.283203	-0.266602	0.794891	-0.0537017	-0.0316377	-0.603542	1.12033	-0.48727	10.7022	-0.0272151	-0.0521172	0.0578188	-0.0131836	0.355957	-0.933594	0.0229014	0.320075	0.474736	-0.819544	-5.2299	-7.60883	3.37531	0.02527	-0.0619593	0.0388363	0.219238	0.880127	-0.512939	0.695639	-0.0162904	-0.0359206	-0.717308	0.672608	0.253996	9.82514	0.00686023	-0.0356197	0.0161975	-0.0610352	0.370117	-0.914795	0.908346	0.180523	0.262797	0.27066	-4.63163	6.04033	9.88504	-0.0413579	0.0238312	-0.0262257	0.721436	-0.63208	-0.346436	0.559372	-0.423103	-0.50701	-0.501026	9.93796	0.23394	1.38963	0.0613672	-0.0374327	-0.00372909	-0.919678	0.355957	-0.182129	0.481908	-0.502436	-0.489685	-0.524911	9.86083	0.210463	0.15644	0.0337372	0.0209935	-0.0167581	-0.998779	0.383301	0.00878906	0.461563	-0.518934	-0.435321	-0.572855	9.91378	0.220981	0.832996	0.0537787	-0.00301558	-0.00938646	-1.00684	0.384277	-0.00927734	0.436578	-0.604525	-0.447133	-0.493985	9.6799	-0.81612	-1.12625	0.0361513	-0.0190459	-0.0128057	-0.903809	0.504395	0.211182	0.527006	-0.498553	-0.507249	-0.465197	9.94274	-0.571707	-0.0985006	-0.0401709	0.00204841	-0.00448909	-1.02026	0.516113	-0.0292969	
19	0.776429	0.00622517	0.00831903	-0.630119	-0.287962	-0.116096	10.9432	0.0247798	-0.0675715	0.0311088	0.104736	0.389648	-0.919678	0.57792	-0.399007	-0.428326	-0.568629	9.42743	0.18645	3.22307	0.0211486	-0.0275557	-0.0007109	-0.747314	0.2854	-0.261963	0.79519	-0.0543366	-0.0320473	-0.60307	1.20375	-0.608758	10.6918	-0.0163157	-0.0527935	0.0445483	-0.0195312	0.358398	-0.933594	0.0239974	0.320401	0.474086	-0.819762	-5.21218	-7.56063	3.77426	0.00419328	0.0251184	0.054357	0.228271	0.873535	-0.517334	0.695829	-0.0165526	-0.0364208	-0.717092	0.7047	0.244806	9.8501	0.0149414	-0.0354441	0.0092943	-0.060791	0.365723	-0.9104	0.90848	0.180059	0.262709	0.270605	-4.65839	5.93962	9.89492	-0.0342444	0.0149232	-0.0309382	0.728027	-0.63623	-0.344238	0.559056	-0.423317	-0.508921	-0.499258	9.83133	0.401587	1.44537	0.0770191	-0.0807709	-0.0136662	-0.910889	0.35376	-0.171387	0.482235	-0.502019	-0.490142	-0.524583	9.83515	0.239837	0.288605	0.0669245	0.0169811	-0.0250507	-0.996826	0.385498	0.00878906	0.461775	-0.518924	-0.435519	-0.572542	9.94355	0.263449	0.782713	0.0336027	-0.00458032	-0.00629619	-1.00464	0.386475	-0.00488281	0.43645	-0.604623	-0.447457	-0.493684	9.68526	-0.902269	-1.19869	0.0160018	-0.0223688	-0.00421487	-0.903809	0.504395	0.220215	0.52671	-0.498784	-0.507175	-0.465365	9.88207	-0.554277	0.00352476	-0.0287781	-0.00409885	-0.010464	-1.02026	0.513916	-0.0336914	
20	0.776743	0.00539411	0.00708933	-0.629754	-0.126388	0.0117831	10.9791	-0.0080106	-0.0691129	0.0159568	0.104736	0.389648	-0.919678	0.5778	-0.399268	-0.429525	-0.567662	9.43605	0.228605	3.24778	0.0472566	-0.0392627	-0.0168268	-0.749512	0.283203	-0.266602	0.795319	-0.0541282	-0.034065	-0.602807	1.27338	-0.53236	10.8355	0.0734332	-0.0644346	0.00363017	-0.0236816	0.351807	-0.928955	0.0244062	0.321484	0.473799	-0.819492	-5.48929	-7.61939	3.32119	0.000689485	0.0666595	0.0769105	0.22583	0.880127	-0.517334	0.69624	-0.0164913	-0.0373324	-0.716647	0.629866	0.265661	9.83011	0.0260288	-0.0155014	0.00988543	-0.0585938	0.363525	-0.9104	0.90855	0.179612	0.262583	0.270788	-4.5856	5.85518	9.99323	-0.00799816	0.019453	-0.00782939	0.725586	-0.629883	-0.348633	0.558666	-0.423686	-0.509535	-0.498755	9.82606	0.447843	1.42773	0.0311354	-0.0630925	-0.0156961	-0.919678	0.355957	-0.169189	0.482995	-0.501167	-0.491966	-0.522988	9.77332	0.312554	0.0981919	0.102445	-0.0299891	-0.0177451	-0.999023	0.387695	0.00878906	0.462143	-0.5188	-0.435759	-0.572175	9.87467	0.209217	0.689471	0.0490744	0.00262047	-0.0030409	-1.00244	0.388916	-0.00708008	0.43595	-0.605122	-0.447454	-0.493518	9.59703	-0.843099	-1.18766	-0.0146292	-0.00963465	0.00279933	-0.906494	0.510986	0.220215	0.527178	-0.498274	-0.507857	-0.464637	9.87223	-0.415503	-0.12421	0.0575701	-0.00370399	-0.00517497	-1.01782	0.513916	-0.0268555	
21	0.776904	0.00538452	0.00655787	-0.629562	-0.0207734	-0.0255603	10.8141	0.0281882	0.00175729	0.00679335	0.102783	0.387695	-0.923828	0.577428	-0.399443	-0.430417	-0.567242	9.47463	0.252815	3.21798	0.0185949	-0.0350782	-0.0317613	-0.751709	0.283203	-0.261963	0.795554	-0.0523764	-0.0360413	-0.602538	1.06586	-0.399441	11.0288	0.114648	0.00322088	0.00808416	-0.0217285	0.351807	-0.935791	0.0247901	0.322444	0.473761	-0.819125	-5.46923	-7.54612	3.39921	-0.0261908	0.0332115	0.0155979	0.22583	0.87793	-0.510742	0.696745	-0.0166279	-0.0382004	-0.716108	0.764407	0.172721	9.98409	0.0473886	-0.00764024	0.0177993	-0.0649414	0.359131	-0.912598	0.908553	0.178649	0.262057	0.271923	-4.77401	6.02167	9.92981	-0.0517768	0.00265464	0.0328755	0.723389	-0.629883	-0.35083	0.557322	-0.42488	-0.510938	-0.497807	9.95266	0.335496	1.2753	0.00404112	-0.102275	-0.0288353	-0.921875	0.35791	-0.167236	0.482762	-0.501808	-0.492639	-0.521954	9.89619	0.314961	0.39082	-0.017576	-0.0314294	-0.00216896	-0.999023	0.387695	0.00634766	0.463102	-0.518146	-0.436673	-0.571295	9.93999	0.291671	0.85544	0.0150813	0.00727437	-0.011338	-1.00928	0.386475	-0.000488281	0.435561	-0.605437	-0.447893	-0.493077	9.65075	-0.76768	-1.4314	0.03304	-0.0274398	-0.000705752	-0.912842	0.506348	0.213379	0.52719	-0.498358	-0.507957	-0.464424	9.82225	-0.56769	-0.0993056	0.020818	-0.000552968	-0.00052436	-1.01782	0.513916	-0.0290527	
22	0.777187	0.00699044	0.00777918	-0.629183	-0.406662	-0.158987	11.1276	0.0195451	0.0781204	0.0282421	0.106934	0.389893	-0.921631	0.577168	-0.399208	-0.43133	-0.566978	9.43789	0.261416	3.06769	0.0218782	-0.00419069	-0.0412678	-0.751709	0.283203	-0.264404	0.795507	-0.0527618	-0.0356477	-0.60259	1.27349	-0.536742	10.8151	-0.0372126	0.0160398	0.00163764	-0.017334	0.351807	-0.937988	0.0247865	0.323419	0.47418	-0.818498	-5.43137	-7.58649	3.39053	-0.0222322	0.0509647	0.0181675	0.225586	0.884521	-0.521973	0.697139	-0.0150835	-0.039267	-0.715701	0.79287	0.382822	9.88568	0.0716164	0.0171797	0.00286747	-0.0583496	0.359131	-0.914795	0.908497	0.1785	0.261261	0.272974	-4.6801	5.92497	10.0867	-0.0132644	-0.00312643	0.0197586	0.72168	-0.636475	-0.350586	0.55617	-0.425951	-0.511219	-0.497891	9.91218	0.393068	1.35156	-0.0183554	-0.0094024	-0.0249464	-0.921631	0.351562	-0.166992	0.481568	-0.503336	-0.492371	-0.521839	9.89439	0.298721	0.128711	-0.0463755	-0.0298269	-0.00494247	-0.998779	0.385498	0.0158691	0.463032	-0.518551	-0.436445	-0.571158	9.89164	0.170895	0.891263	0.0170972	-0.00693347	-0.00706677	-1.00439	0.38208	-0.00488281	0.435807	-0.605672	-0.448186	-0.492304	9.65289	-0.818173	-1.11966	0.00269417	-0.00702315	0.0222125	-0.906006	0.502197	0.211182	0.527341	-0.498232	-0.508366	-0.46394	9.87566	-0.444424	-0.0621383	0.0220396	-0.00779363	-0.00303942	-1.01587	0.518311	-0.0292969	
23	0.777302	0.0087402	0.00732352	-0.629024	-0.535248	0.0220534	11.0963	0.0696244	0.0106803	-0.00151821	0.111572	0.385498	-0.919434	0.576898	-0.398653	-0.431548	-0.567478	9.4575	0.268331	3.0886	-0.0137269	0.0333677	-0.0542328	-0.747314	0.283203	-0.266602	0.795715	-0.0516682	-0.0359626	-0.602391	1.3242	-0.564066	10.8024	0.0842831	0.0321809	0.00926232	-0.0214844	0.345459	-0.940186	0.0246177	0.324291	0.474871	-0.817757	-5.48716	-7.3824	3.35958	-0.0332047	0.0450339	0.00369854	0.234619	0.882324	-0.510742	0.697467	-0.0135651	-0.0393812	-0.715405	0.773511	0.453481	9.80653	0.032771	0.0609022	-0.00380686	-0.0603027	0.350342	-0.910156	0.908363	0.179436	0.26035	0.273674	-4.51633	5.87976	10.0961	0.011498	-0.0300657	0.0334482	0.717285	-0.638428	-0.352783	0.553919	-0.427969	-0.511852	-0.498019	9.90309	0.219759	0.942643	-0.0381407	-0.114739	-0.0344706	-0.923828	0.351562	-0.166992	0.481544	-0.503766	-0.492971	-0.520878	9.8114	0.078629	0.237861	0.0391019	-0.0160555	0.00138958	-1.00342	0.387695	0.0112305	0.462787	-0.518988	-0.436467	-0.570943	9.85624	0.125601	0.759225	-0.00416642	-0.0166484	-0.0144924	-1.00488	0.391113	-0.00488281	0.434167	-0.607154	-0.447267	-0.492763	9.60932	-0.914669	-1.26969	-0.0926494	-0.0234042	0.00863081	-0.904053	0.510986	0.224609	0.526366	-0.499325	-0.508021	-0.46425	9.84917	-0.660968	-0.137078	-0.0483713	-0.0223188	0.000918258	-1.02026	0.516113	-0.0224609	
24	0.776765	0.00942232	0.00673335	-0.629684	-0.388201	0.160853	11.0471	0.0251804	-0.00905841	-0.0388321	0.109375	0.385498	-0.926025	0.576687	-0.398431	-0.431622	-0.567792	9.34261	0.195555	3.06477	-0.0122033	0.0228869	-0.0532967	-0.749268	0.276611	-0.261719	0.795632	-0.0497787	-0.0362935	-0.60264	1.21162	-0.309826	10.7724	0.0450946	0.0404067	-0.023122	-0.0192871	0.347412	-0.940186	0.0240135	0.325504	0.475528	-0.816911	-5.41893	-7.47234	3.12946	-0.0214611	0.0729465	-0.00259884	0.228027	0.87793	-0.506348	0.697457	-0.0126138	-0.0394324	-0.71543	0.636458	0.41508	9.70304	0.0549932	0.0587601	-0.0181414	-0.0581055	0.352539	-0.921631	0.908358	0.180192	0.259158	0.274323	-4.38488	5.94292	9.87545	-0.00182343	-0.0307348	0.0195277	0.717285	-0.638428	-0.352783	0.553162	-0.428398	-0.511959	-0.498382	9.84356	0.245709	1.0811	-0.000455537	-0.00083863	-0.0341033	-0.914795	0.347168	-0.158447	0.480765	-0.50502	-0.49317	-0.520195	9.8468	0.222899	-0.140341	-0.0288394	-0.0481941	-0.000640024	-0.999268	0.39209	0.015625	0.462073	-0.519854	-0.435836	-0.571215	9.93823	0.180935	0.620707	-0.0533254	-0.0017028	-0.0106505	-1.00024	0.388916	0.00170898	0.433696	-0.607698	-0.447084	-0.492673	9.62664	-0.967317	-1.37803	-0.042869	-0.0241104	0.0147798	-0.908203	0.502197	0.222656	0.526407	-0.499351	-0.50866	-0.463474	9.91667	-0.575772	-0.144931	0.0367414	-0.0213361	-0.000819594	-1.01099	0.511719	-0.0178223	
25	0.776469	0.00948672	0.00646448	-0.630051	-0.394223	0.143235	11.0585	0.0188647	-0.017312	-0.0379936	0.107178	0.387695	-0.919434	0.575872	-0.398443	-0.432492	-0.567949	9.4986	0.258025	3.06488	-0.00517247	-0.0215365	-0.056674	-0.745117	0.281006	-0.259521	0.795432	-0.0495864	-0.0362744	-0.60292	1.12632	-0.383679	10.7292	0.0117547	0.0164107	-0.0267172	-0.0236816	0.347656	-0.937988	0.0234932	0.326509	0.475254	-0.816685	-5.31444	-7.40187	3.23513	0.0280953	0.0477185	0.00955114	0.230469	0.87793	-0.506348	0.697148	-0.0109662	-0.0398072	-0.715737	0.619492	0.435027	9.68212	0.0531203	0.0362536	-0.0384026	-0.0559082	0.352539	-0.914795	0.908734	0.18039	0.257604	0.274414	-4.37635	5.90123	9.81905	-0.0163287	-0.0515228	-0.0117352	0.72168	-0.638428	-0.35498	0.552522	-0.428597	-0.512148	-0.498727	9.93292	0.302149	1.07142	-0.0173451	-0.00724692	-0.0359851	-0.919434	0.351562	-0.160645	0.480278	-0.5057	-0.493345	-0.519818	9.86111	0.252639	-0.0703692	-0.0186146	-0.0523361	-0.00328094	-1.00122	0.387695	0.0158691	0.462046	-0.520002	-0.435718	-0.571193	9.98629	0.094725	0.621773	-0.00474826	0.00430369	-0.00962939	-1.00708	0.386475	-0.00708008	0.43374	-0.607786	-0.447335	-0.492298	9.63972	-1.01023	-1.39192	0.0249892	-0.0168036	0.00861806	-0.908447	0.506592	0.227051	0.526398	-0.499398	-0.508974	-0.463089	9.87049	-0.508751	-0.170726	0.0289384	-0.0236577	0.000585521	-1.01343	0.516113	-0.0292969	
26	0.776094	0.0099637	0.0054866	-0.630515	-0.421177	0.107085	11.1026	0.0563057	-0.0242223	-0.0205049	0.105225	0.381104	-0.915283	0.574871	-0.398908	-0.433044	-0.568216	9.46338	0.289971	3.12167	-0.0400456	-0.0295739	-0.044492	-0.751465	0.278809	-0.259521	0.79495	-0.0499197	-0.0368954	-0.603491	1.22772	-0.448317	10.6537	0.00902152	-0.0358944	-0.0348326	-0.0236816	0.345459	-0.937744	0.0233034	0.327168	0.474899	-0.816633	-5.30686	-7.43556	3.30346	0.0292826	0.0574949	0.0231292	0.232422	0.880127	-0.512939	0.696614	-0.00999805	-0.040725	-0.71622	0.54735	0.456152	9.64764	0.0570579	0.00304285	-0.0464316	-0.0600586	0.348145	-0.919434	0.909004	0.180338	0.256807	0.274299	-4.31187	5.91431	9.92204	-0.0210579	-0.0492287	-0.0187981	0.717529	-0.642822	-0.354736	0.551947	-0.429053	-0.512305	-0.498811	9.81673	0.189155	1.02381	-0.0224264	-0.0342113	-0.03005	-0.925781	0.351562	-0.158447	0.480069	-0.506478	-0.494121	-0.518516	9.97055	0.136354	0.059367	0.0165454	-0.0287929	0.00363267	-1.00537	0.387695	0.0158691	0.462481	-0.519872	-0.43633	-0.570491	9.86256	0.279715	1.00248	0.0401145	-0.0123863	-0.0123317	-1.00708	0.391113	-0.00732422	0.433928	-0.608007	-0.44795	-0.491299	9.59672	-0.64233	-1.33426	0.00158365	-0.00951199	0.00593633	-0.90625	0.506592	0.220215	0.526017	-0.500005	-0.509055	-0.46278	9.85906	-0.472192	-0.0956914	-0.0120448	-0.0180993	0.00508686	-1.02246	0.513916	-0.0200195	
27	0.775872	0.0100757	0.00386505	-0.630799	-0.651225	0.236701	11.2215	0.0443296	-0.068329	-0.0177337	0.107422	0.378906	-0.921631	0.573827	-0.399513	-0.433693	-0.568351	9.42817	0.219095	2.97617	-0.0159216	-0.0300225	-0.046449	-0.751465	0.278809	-0.261719	0.794712	-0.0500686	-0.0378104	-0.603735	1.29297	-0.522658	10.6084	0.0350402	-0.0595385	-0.0284481	-0.0192871	0.345215	-0.935547	0.0232903	0.328504	0.473313	-0.817017	-5.46344	-7.43728	3.04897	0.0671557	0.0310129	0.0545131	0.239014	0.884766	-0.510742	0.69605	-0.00921768	-0.0426582	-0.716666	0.554462	0.43913	9.65234	0.0793851	-0.0323416	-0.0440162	-0.0668945	0.352539	-0.921631	0.909688	0.17938	0.255307	0.27406	-4.38552	5.96591	9.84998	-0.0607921	-0.0379012	-0.0355363	0.717285	-0.638672	-0.363525	0.551048	-0.429646	-0.513412	-0.498155	9.95005	0.231296	1.00633	0.0171783	-0.0506364	-0.0296993	-0.919434	0.35376	-0.156494	0.479885	-0.506684	-0.494028	-0.518573	9.79548	0.0890069	-0.0889293	-0.00755625	0.00690468	-0.0208129	-0.99707	0.394043	0.0227051	0.462002	-0.520513	-0.436191	-0.570401	9.95989	0.131324	0.567676	-0.0122926	-0.0126221	-0.0160637	-1.00708	0.388916	-0.00488281	0.433461	-0.608397	-0.448124	-0.491071	9.62458	-0.968156	-1.44274	-0.011347	-0.0146488	0.00730444	-0.904053	0.508789	0.224609	0.525592	-0.500411	-0.509284	-0.462571	9.88364	-0.564821	-0.279924	-0.00575425	-0.0177859	-0.00568881	-1.01831	0.520508	-0.0224609	
28	0.775672	0.00873809	0.000846237	-0.631075	-0.446671	0.24136	11.0426	0.0359041	-0.14635	-0.00852365	0.10083	0.381104	-0.921631	0.573377	-0.399785	-0.434716	-0.567832	9.37682	0.332833	3.01096	0.00811863	-0.0378058	-0.0204821	-0.76001	0.278809	-0.254639	0.794375	-0.0517881	-0.040621	-0.603851	1.36279	-0.439008	10.7821	-0.0107786	-0.0874599	-0.00472806	-0.0322266	0.345459	-0.937744	0.0243322	0.32923	0.471588	-0.817692	-5.48826	-7.43555	3.38903	0.0571289	-0.00274389	0.0746786	0.241699	0.875977	-0.519531	0.695715	-0.00919807	-0.0444763	-0.71688	0.637229	0.531607	9.53633	0.0302238	-0.0486139	-0.0231456	-0.0600586	0.345947	-0.919434	0.910528	0.177907	0.254126	0.273327	-4.35943	5.82599	10.0001	-0.0686275	-0.0151938	-0.0647463	0.719238	-0.634277	-0.361328	0.550493	-0.430136	-0.513942	-0.497799	9.72728	0.34906	0.998315	0.003698	-0.0253933	-0.0119918	-0.923828	0.351562	-0.1521	0.480015	-0.506664	-0.495298	-0.51726	9.73884	0.168644	-0.171921	0.0640031	-0.0305045	-0.00974479	-0.999023	0.387451	0.0227051	0.462166	-0.520541	-0.436515	-0.569995	9.82681	0.149238	0.58981	0.0300012	-0.00248289	-0.0158962	-1.00244	0.391113	-0.00268555	0.432671	-0.609222	-0.447842	-0.491001	9.51002	-1.05518	-1.46146	-0.0189838	-0.0146188	0.00195682	-0.90625	0.506592	0.229248	0.52517	-0.500801	-0.509557	-0.462328	9.82312	-0.643922	-0.277706	0.0125441	-0.0171058	-0.00525472	-1.02246	0.513916	-0.0178223	
29	0.775618	0.00691187	-0.00213169	-0.631161	-0.118049	0.324944	10.9558	0.00888002	-0.144449	-0.00128698	0.0944824	0.376709	-0.923828	0.572772	-0.400802	-0.435445	-0.567166	9.42557	0.303036	3.04691	-0.0122751	-0.0517346	-0.0100772	-0.751709	0.283203	-0.254883	0.79443	-0.0531433	-0.0420566	-0.603563	1.31564	-0.566749	10.7512	0.0154824	-0.0679009	0.0170228	-0.0322266	0.345459	-0.937744	0.0253426	0.329289	0.469595	-0.818784	-5.47182	-7.31805	3.24624	0.0752271	-0.0408332	0.0564057	0.236816	0.880371	-0.517334	0.695912	-0.0104289	-0.0457849	-0.71659	0.576529	0.410691	9.68697	0.0132625	-0.0686795	0.0106939	-0.064209	0.34375	-0.921631	0.911193	0.175454	0.253933	0.272875	-4.474	5.81968	9.9191	-0.0973457	0.0326258	-0.0568643	0.719238	-0.63208	-0.363525	0.549853	-0.430853	-0.514252	-0.497566	9.90022	0.252787	0.939872	-0.00489181	-0.019555	-0.0154727	-0.925781	0.347168	-0.154053	0.479375	-0.507587	-0.495303	-0.516943	9.91382	0.205325	-0.0585467	-0.0446728	-0.0219381	-0.00925982	-1.00122	0.389648	0.0251465	0.461779	-0.520943	-0.436183	-0.570195	9.9484	0.127686	0.706511	-0.0365142	0.0057972	-0.0191975	-1.00024	0.388916	0.00170898	0.43317	-0.608823	-0.448784	-0.490194	9.57758	-0.839579	-1.54822	0.0744937	-0.0106985	-0.000181669	-0.904053	0.510986	0.222412	0.525375	-0.500529	-0.510269	-0.461603	9.86257	-0.532225	-0.248071	0.0402905	-0.0121167	-0.00329298	-1.01807	0.518311	-0.0224609	
30	0.775496	0.00510773	-0.00383727	-0.63132	-0.138395	0.339256	11.0213	-0.0240563	-0.0930496	-0.0121736	0.0876465	0.378662	-0.923828	0.572242	-0.402064	-0.436268	-0.566175	9.55034	0.230838	2.97334	-0.0093242	-0.0556795	0.00183064	-0.762207	0.276611	-0.25708	0.794706	-0.0550043	-0.0436145	-0.602922	1.3905	-0.423187	10.8206	-0.0479474	-0.0985472	0.0298539	-0.0322266	0.345459	-0.942383	0.0267816	0.328681	0.468313	-0.819716	-5.44159	-7.37409	3.46737	0.0407579	-0.0534623	0.0494264	0.241699	0.875977	-0.519531	0.696341	-0.0114451	-0.046951	-0.716082	0.697334	0.470286	9.81622	0.00593223	-0.0575176	0.0208758	-0.0644531	0.345947	-0.919434	0.911787	0.173174	0.253499	0.272751	-4.48412	5.76731	10.0419	-0.0553074	0.0163472	-0.0476365	0.718994	-0.625488	-0.372314	0.549206	-0.431669	-0.514667	-0.497145	9.89939	0.329984	0.973697	-0.00124837	-0.0486197	-0.0104791	-0.921143	0.344971	-0.145508	0.478694	-0.508367	-0.495427	-0.516689	9.80694	0.112963	-0.159871	0.00514799	-0.0203759	-0.00873861	-1.00342	0.391846	0.0319824	0.461884	-0.520865	-0.436099	-0.570246	9.96062	0.238708	0.674224	0.00414748	0.0165602	-0.0149371	-1.00244	0.388916	0.00170898	0.433548	-0.608745	-0.449396	-0.489397	9.62078	-0.796239	-1.38219	0.0164026	-0.00591792	0.00778306	-0.901611	0.504395	0.231689	0.525573	-0.500251	-0.510898	-0.460982	9.87413	-0.550758	-0.285087	0.0461079	-0.00762762	-0.00805544	-1.01343	0.513916	-0.0178223	
31	0.775406	0.00272903	-0.00492259	-0.631438	-0.101454	0.0694344	11.054	-0.045435	-0.0944779	-0.00128999	0.0898438	0.380859	-0.921631	0.572114	-0.402431	-0.436733	-0.565684	9.49731	0.258111	2.96876	0.00976994	-0.0445484	-0.00369836	-0.755859	0.279053	-0.252441	0.795094	-0.0566181	-0.0449695	-0.602161	1.67002	-0.5787	10.8164	0.0137901	-0.0673989	0.0342514	-0.0344238	0.347656	-0.937744	0.0295236	0.328178	0.46918	-0.819328	-5.64932	-7.45087	3.50724	-0.0901493	-0.0595596	0.0748596	0.241699	0.873779	-0.519531	0.696458	-0.0125523	-0.0479557	-0.715883	0.906299	0.71191	9.84063	-0.0322492	-0.0448631	-0.0101446	-0.0666504	0.348145	-0.921631	0.911979	0.17394	0.254201	0.270964	-4.54775	5.8593	10.2298	0.0479588	0.0163948	-0.0861737	0.719238	-0.63208	-0.365723	0.548316	-0.432778	-0.514959	-0.49686	9.83629	0.296207	0.921335	-0.0180238	-0.0217222	-0.0100092	-0.919678	0.355713	-0.143799	0.478448	-0.508963	-0.495972	-0.515806	9.84541	0.184166	-0.00534552	0.00337693	-0.0216248	-0.00398547	-1.00122	0.391846	0.0297852	0.462025	-0.52086	-0.436033	-0.570186	9.92025	0.165959	0.758662	0.017998	0.0117381	-0.0134973	-1.00244	0.391113	-0.00488281	0.43337	-0.608943	-0.449356	-0.489344	9.51381	-0.792721	-1.44829	-0.0115051	-0.0031345	0.0064033	-0.904053	0.510986	0.227051	0.525526	-0.500239	-0.511227	-0.460685	9.88499	-0.544919	-0.210025	-0.0047655	-0.00584782	-0.00672135	-1.01343	0.516113	-0.0131836	
32	0.77554	0.00104197	-0.00668851	-0.631262	0.0628387	-0.00975108	11.0351	0.00595162	-0.104462	0.0122969	0.083252	0.380859	-0.924072	0.571935	-0.402696	-0.437341	-0.565208	9.49954	0.320403	2.97845	0.0191733	-0.0476821	-0.0151827	-0.751465	0.28125	-0.252441	0.795622	-0.0560248	-0.0469173	-0.60137	1.47166	-0.332331	10.8312	0.0732073	-0.0431897	0.0365965	-0.0344238	0.345703	-0.942383	0.0313492	0.327769	0.469027	-0.819511	-5.59153	-7.27928	3.54224	0.00635543	-0.0334684	0.0446488	0.248291	0.875977	-0.523926	0.696623	-0.014029	-0.0479965	-0.715693	0.747183	0.429449	9.76088	-0.0165515	-0.0454072	-0.00171833	-0.0686035	0.341553	-0.914795	0.912424	0.172745	0.254297	0.270138	-4.51084	5.65403	10.2849	-0.0642157	0.026778	-0.05528	0.725342	-0.625488	-0.370361	0.548343	-0.432962	-0.514848	-0.496785	9.96114	0.268446	0.967632	0.0303075	0.0275106	-0.0101105	-0.921631	0.351562	-0.145752	0.477728	-0.50992	-0.495927	-0.515571	9.92202	0.227362	-0.0882853	-0.0247033	-0.020281	-0.00946689	-1.00122	0.391846	0.0319824	0.46206	-0.52089	-0.435947	-0.570197	9.8767	0.171668	0.86638	-0.00173395	0.00596847	-0.016306	-1	0.384277	0.00195312	0.433199	-0.609185	-0.449781	-0.488803	9.68409	-0.961478	-1.38864	0.0293642	-0.0148655	0.00203905	-0.904053	0.508789	0.229248	0.525616	-0.500075	-0.511497	-0.460461	9.81693	-0.385602	-0.198326	0.0219507	0.00288399	-0.0079289	-1.01807	0.516113	-0.0200195	
33	0.775494	-4.73388e-05	-0.00840504	-0.631299	0.161289	0.193165	11.0049	-0.000756631	-0.0714076	-0.00440593	0.0810547	0.378662	-0.926025	0.570924	-0.403977	-0.438298	-0.564574	9.58097	0.278259	2.90867	-0.0194202	-0.0453793	-0.0204513	-0.755859	0.283203	-0.250244	0.795691	-0.0569092	-0.0478949	-0.601118	1.47125	-0.285734	10.7849	-0.0201717	-0.0526636	-0.00382322	-0.0429688	0.343506	-0.939941	0.0315381	0.327928	0.467197	-0.820485	-5.62009	-7.37578	3.33189	0.0920954	-0.00231133	0.0326432	0.241699	0.873779	-0.523926	0.696636	-0.0144112	-0.0488432	-0.715616	0.862123	0.416332	9.80867	0.0266247	-0.0622758	-0.00875735	-0.0686035	0.34375	-0.919434	0.912914	0.170558	0.253964	0.270187	-4.50881	5.82976	10.1929	-0.0773026	0.0198444	-0.0377416	0.720947	-0.623535	-0.370361	0.548339	-0.433149	-0.514585	-0.496899	10.0083	0.262406	0.809109	0.0205803	0.042468	-0.00320661	-0.926025	0.355713	-0.152344	0.477485	-0.510228	-0.495982	-0.51544	9.87216	0.109499	0.0793716	-0.00625499	0.00836018	-0.014017	-1.00122	0.391846	0.0319824	0.461933	-0.521021	-0.43598	-0.570155	9.89221	0.146398	0.82484	-0.00103407	-0.0050111	-0.0197889	-1.00708	0.388916	-0.00268555	0.43301	-0.609449	-0.45014	-0.488311	9.6069	-0.866565	-1.31398	-0.00694588	-0.0208103	-0.000403415	-0.899658	0.513184	0.231445	0.525045	-0.500624	-0.511302	-0.460733	9.89346	-0.651242	-0.1085	-0.00334513	-0.00736271	-0.00510265	-1.01807	0.518311	-0.0224609	
34	0.775481	-0.000589682	-0.00897229	-0.631307	0.18884	0.00965187	11.0541	-0.00417753	-0.0668861	-0.00232936	0.0788574	0.376465	-0.926025	0.570412	-0.404539	-0.439574	-0.563696	9.56823	0.230374	2.8356	0.0210491	-0.0521726	-0.0186131	-0.762451	0.28125	-0.247803	0.795488	-0.057748	-0.0482431	-0.601279	1.5709	-0.340391	10.7248	-0.0362917	-0.0572421	-0.0174212	-0.0410156	0.3479	-0.942383	0.0317409	0.328262	0.466314	-0.820846	-5.65886	-7.28126	3.44787	0.0685315	0.00920786	0.0494972	0.248291	0.873779	-0.519531	0.69674	-0.0147559	-0.0509329	-0.715361	0.819958	0.630258	9.74732	0.0409491	-0.0711627	-0.0087357	-0.0751953	0.345947	-0.917236	0.913152	0.169688	0.253882	0.270007	-4.53052	5.78503	10.287	-0.0629025	0.0202319	-0.0507318	0.725342	-0.625488	-0.370361	0.548873	-0.432645	-0.514221	-0.497125	9.96732	0.303281	1.08503	0.0307037	0.076987	-0.0137623	-0.921631	0.351562	-0.147949	0.477408	-0.510342	-0.496172	-0.515215	9.83448	0.115373	-0.0992338	0.0143288	-0.00697564	-0.0146123	-0.999268	0.39624	0.0319824	0.461671	-0.521338	-0.436272	-0.569854	9.90472	0.0976803	0.755338	0.00543399	-0.0167498	-0.0183691	-1.00244	0.386475	-0.000488281	0.432396	-0.609841	-0.450207	-0.488304	9.62191	-0.912879	-1.32738	-0.00731527	-0.000732121	0.00201577	-0.90625	0.510986	0.229248	0.524991	-0.50066	-0.511542	-0.460488	9.84307	-0.476143	-0.14553	0.0167738	-0.0169702	-0.00472489	-1.01343	0.516113	-0.0131836	
35	0.775417	-0.000933411	-0.0103018	-0.631365	0.19055	0.192795	10.97	0.0253154	-0.0471618	-0.00509617	0.0720215	0.380615	-0.921875	0.570018	-0.404709	-0.440313	-0.563396	9.54687	0.272923	2.80596	0.00143694	-0.00696917	-0.0362888	-0.755859	0.279053	-0.247559	0.795022	-0.0593112	-0.0490078	-0.601681	1.62268	-0.667728	10.7248	-0.00694309	-0.0488694	-0.0243058	-0.0432129	0.352295	-0.944824	0.0325912	0.329036	0.465229	-0.821119	-5.5967	-7.21981	3.54054	0.0458679	0.0109925	0.0498741	0.248535	0.871582	-0.526123	0.696505	-0.01615	-0.0518327	-0.715495	1.01919	0.596242	9.81458	-0.0256299	-0.0531956	-0.0238571	-0.0751953	0.345947	-0.914795	0.913575	0.168145	0.253899	0.269523	-4.59384	5.5029	10.1711	-0.0554732	0.0218608	-0.0506861	0.727539	-0.625488	-0.372314	0.549316	-0.432247	-0.513138	-0.498101	9.89739	0.284534	0.960398	0.00786729	0.0478677	-0.0232432	-0.923828	0.353516	-0.1521	0.477587	-0.510176	-0.497106	-0.514312	9.83137	0.16467	-0.0119635	0.0515721	-0.0120315	-0.0186085	-0.996826	0.391846	0.0297852	0.461499	-0.521538	-0.436877	-0.569346	9.91076	0.205259	0.729339	0.00976403	-0.0224911	-0.0219253	-1.00928	0.386475	0.00390625	0.431685	-0.610375	-0.45047	-0.488023	9.53732	-0.920106	-1.51618	-0.0181698	-0.0287248	-0.00552352	-0.908203	0.504395	0.236328	0.524422	-0.501141	-0.51151	-0.460649	9.86799	-0.524728	-0.253497	-0.023702	-0.0131479	-0.00585099	-1.01562	0.511719	-0.0178223	
36	0.77555	-0.00108136	-0.0112749	-0.631185	0.322056	-0.00552783	10.9771	0.0275614	-0.0345481	0.0139709	0.0766602	0.376465	-0.924072	0.569615	-0.404687	-0.440946	-0.563324	9.58951	0.31733	2.8955	-0.000702024	-0.0103095	-0.0359312	-0.762207	0.274658	-0.245117	0.794768	-0.0587615	-0.0506346	-0.601936	1.63424	-0.35687	10.8507	0.0398383	-0.026383	-0.0179437	-0.0429688	0.345703	-0.935547	0.0324964	0.329631	0.464178	-0.821478	-5.59879	-7.33769	3.61469	0.0435308	0.0254129	0.016691	0.246338	0.871582	-0.523926	0.696134	-0.0166847	-0.0525837	-0.71579	1.07471	0.365888	9.79277	0.033631	-0.0212367	-0.0331141	-0.0776367	0.348145	-0.919434	0.91404	0.166617	0.253141	0.269609	-4.70131	5.66224	10.2356	-0.0559338	-0.00706402	-0.025542	0.729492	-0.623291	-0.374756	0.550637	-0.43095	-0.512011	-0.498924	9.84858	0.33003	1.1395	0.0113833	0.108533	-0.0155908	-0.927979	0.351562	-0.156494	0.477078	-0.510791	-0.497352	-0.513937	9.82735	0.198066	-0.0975821	-0.0149983	-0.0177582	-0.0105079	-0.996826	0.387451	0.0322266	0.461026	-0.522008	-0.437273	-0.568995	9.91464	0.196941	0.729985	-0.00213432	-0.0252095	-0.0235273	-1.0022	0.384277	0.00415039	0.430911	-0.610875	-0.450895	-0.48769	9.55694	-0.921607	-1.40315	-0.00356165	-0.029089	-0.0108136	-0.906006	0.504395	0.236328	0.523877	-0.501598	-0.511646	-0.46062	9.862	-0.586801	-0.255346	-0.0138737	-0.0192188	-0.00739343	-1.01807	0.516113	-0.0131836	
37	0.77562	0.000202311	-0.0119426	-0.631087	0.256966	-0.058689	10.9156	0.0679301	0.0169398	-0.00405928	0.0769043	0.37207	-0.923828	0.569378	-0.404305	-0.440999	-0.563796	9.53654	0.297841	2.89541	-0.00982676	0.0352647	-0.0442541	-0.758057	0.28125	-0.240723	0.794637	-0.0596526	-0.0504769	-0.602034	1.70957	-0.644416	10.7857	-0.0184218	-0.00823993	-0.00113926	-0.045166	0.341553	-0.939941	0.0324872	0.330411	0.463633	-0.821473	-5.65947	-7.24976	3.6217	0.0181408	0.0314807	0.0222229	0.255371	0.867432	-0.530273	0.696105	-0.0164135	-0.0537985	-0.715733	0.989087	0.569218	9.92224	0.0166994	-0.0183709	-0.0130676	-0.0817871	0.34375	-0.914795	0.914336	0.16601	0.252628	0.269462	-4.76964	5.59002	10.153	-0.0235455	-0.0032305	-0.0227238	0.724854	-0.614746	-0.375	0.551371	-0.430069	-0.510873	-0.50004	9.86763	0.386785	1.14797	-0.00258398	0.0717956	-0.02821	-0.919434	0.349365	-0.158447	0.476457	-0.511392	-0.49755	-0.513723	9.83842	0.160521	-0.123147	-0.0135758	-0.0243717	-0.0090235	-1.00146	0.39624	0.0319824	0.46016	-0.522825	-0.437167	-0.569027	9.93834	0.115874	0.675921	-0.0251378	-0.0240938	-0.0213905	-1.00488	0.391113	0.00390625	0.430231	-0.61142	-0.451327	-0.487207	9.58763	-0.851172	-1.50118	-0.00907968	-0.0327113	0.00165308	-0.897217	0.506592	0.240723	0.523494	-0.501941	-0.512077	-0.460202	9.85444	-0.460766	-0.192043	0.002562	-0.0263347	-0.00304212	-1.01587	0.518311	-0.0131836	
38	0.775114	0.00291209	-0.0123018	-0.631695	0.215821	0.114909	10.9711	0.0953683	0.0598637	-0.0411547	0.0812988	0.37207	-0.921631	0.569135	-0.403761	-0.440933	-0.564482	9.61336	0.258928	2.88581	-0.0122271	0.0356417	-0.0493763	-0.762207	0.279053	-0.24292	0.794828	-0.058185	-0.050962	-0.601885	1.55442	-0.430631	10.8517	0.0710203	0.0386431	0.00741318	-0.0449219	0.337158	-0.942139	0.0319033	0.330976	0.463879	-0.821129	-5.64684	-7.40671	3.64206	-0.0156419	0.0459773	-0.0164979	0.250732	0.869629	-0.528076	0.696244	-0.0160872	-0.0534295	-0.715633	0.875167	0.421669	9.89217	0.00606607	0.0294622	-0.00530094	-0.0773926	0.341553	-0.921631	0.914318	0.166093	0.251821	0.270227	-4.68419	5.6898	10.2788	-0.0100275	-0.00758489	0.0300884	0.729492	-0.621338	-0.378906	0.551275	-0.430011	-0.510463	-0.500613	9.95266	0.2315	1.1467	0.00380565	0.0400617	-0.0287552	-0.923828	0.351562	-0.160645	0.475882	-0.512148	-0.498026	-0.513041	9.82133	0.188987	-0.113612	0.00450258	-0.0333664	-0.0119209	-1.00122	0.391846	0.0368652	0.459689	-0.523343	-0.437459	-0.568708	9.89019	0.20847	0.692472	-0.00468814	-0.0250902	-0.0224905	-1.00488	0.388672	0.00390625	0.429529	-0.611951	-0.451711	-0.486804	9.66403	-0.886892	-1.43515	-0.0165059	-0.0287843	-0.00558869	-0.90625	0.508789	0.238281	0.52283	-0.502457	-0.512433	-0.459998	9.90898	-0.572766	-0.280672	0.0133482	-0.0258675	-0.0112638	-1.01782	0.513916	-0.00634766	
39	0.774571	0.00597332	-0.0120609	-0.632343	-0.037534	0.374257	11.0868	0.0814143	0.0799949	-0.0274145	0.0771484	0.369873	-0.928223	0.568983	-0.402891	-0.440825	-0.565341	9.55466	0.271797	2.83359	0.000924042	0.0549185	-0.0558669	-0.761963	0.270264	-0.247314	0.794858	-0.0567916	-0.0510424	-0.601971	1.63171	-0.419585	10.7313	0.0467359	0.035136	-0.015271	-0.0429688	0.339355	-0.939941	0.0310987	0.332296	0.464071	-0.820518	-5.6514	-7.30616	3.51642	0.00710205	0.0773646	0.00128867	0.255127	0.871826	-0.523926	0.696605	-0.0147937	-0.0537724	-0.715284	1.00979	0.478148	9.8105	0.0603629	0.0400426	0.00738008	-0.0773926	0.34375	-0.921631	0.91406	0.166627	0.251412	0.27115	-4.6245	5.72128	10.2192	0.0141134	0.00457487	0.0265478	0.716797	-0.623535	-0.372559	0.551168	-0.42938	-0.510345	-0.501393	9.92654	0.285175	1.10787	0.00102023	0.0322289	-0.0384303	-0.919678	0.355957	-0.167236	0.475184	-0.512889	-0.498755	-0.512238	9.8607	0.199241	-0.201599	-0.0012105	-0.0412137	-0.0138755	-1.00122	0.391846	0.0390625	0.458911	-0.524136	-0.437685	-0.568431	9.93556	0.178785	0.662993	-0.0246288	-0.0354614	-0.0226124	-1.00244	0.388672	0.00854492	0.428595	-0.612595	-0.451962	-0.486584	9.60648	-0.934268	-1.49436	-0.0220723	-0.0266173	-0.00795848	-0.899414	0.506592	0.238525	0.522247	-0.502911	-0.51295	-0.459588	9.8294	-0.577802	-0.252905	-0.0050159	-0.0365238	-0.00539473	-1.01807	0.516113	-0.0131836	
40	0.774438	0.00787947	-0.0118816	-0.632489	-0.0924903	0.316158	11.0324	0.0500637	0.0422428	-0.00904538	0.0859375	0.36792	-0.930176	0.569028	-0.40229	-0.440775	-0.565762	9.50778	0.252162	2.86811	0.00484518	0.058335	-0.0547723	-0.761963	0.272461	-0.252197	0.794714	-0.0549704	-0.0511713	-0.60232	1.58355	-0.434351	10.7774	0.0625828	0.0508227	-0.0158268	-0.0407715	0.341309	-0.953613	0.0305585	0.3335	0.464964	-0.819544	-5.5997	-7.32396	3.40691	-0.03709	0.0663335	-0.0067746	0.250488	0.873779	-0.521729	0.696781	-0.0139768	-0.0538733	-0.715122	0.887663	0.636708	9.81099	0.0520739	0.0485536	0.0007538	-0.0749512	0.339355	-0.921631	0.91376	0.167226	0.250934	0.272233	-4.49102	5.62356	10.1473	0.00165593	-0.00326363	0.0399668	0.716797	-0.627686	-0.374512	0.550806	-0.429273	-0.510319	-0.501908	9.82874	0.221017	1.06463	0.0098077	0.0120615	-0.0377142	-0.923584	0.347168	-0.160645	0.474427	-0.513781	-0.499223	-0.511591	9.815	0.139515	-0.244307	-0.00600953	-0.0380928	-0.0101588	-0.999023	0.393799	0.0483398	0.458107	-0.524903	-0.437961	-0.568159	9.88973	0.170022	0.583563	-0.0111474	-0.0340652	-0.0269564	-1.00464	0.384033	0.0107422	0.428485	-0.612687	-0.452188	-0.486355	9.55089	-0.874074	-1.50974	0.0102041	-0.0146141	-0.00179569	-0.901611	0.506592	0.240723	0.521958	-0.50312	-0.513715	-0.458833	9.84467	-0.543585	-0.383395	0.0179992	-0.0341368	-0.00747832	-1.02002	0.511719	-0.00854492	
41	0.774325	0.00954347	-0.0116942	-0.632609	-0.109335	0.345748	11.0427	0.0494357	0.0422442	-0.00662752	0.0820312	0.361328	-0.927979	0.568988	-0.401216	-0.440896	-0.56647	9.48214	0.335081	2.907	0.00980616	0.0432396	-0.057064	-0.759766	0.272461	-0.254395	0.794817	-0.0533614	-0.0511576	-0.60233	1.51821	-0.364146	10.6839	0.0428085	0.039583	0.002723	-0.0429688	0.337158	-0.946777	0.0303754	0.3344	0.465923	-0.818639	-5.51112	-7.34046	3.36416	-0.0459555	0.0527958	0.00747477	0.25293	0.873779	-0.521729	0.696885	-0.0128446	-0.0533295	-0.715082	0.867173	0.509497	9.66751	0.0178781	0.0553895	-0.0119876	-0.072998	0.341553	-0.924072	0.913622	0.167569	0.250598	0.272791	-4.4526	5.72768	10.1589	0.0102248	-0.00767568	0.0384365	0.723145	-0.625488	-0.378906	0.550958	-0.428694	-0.509788	-0.502776	9.86915	0.278163	1.12297	0.00535401	0.0501658	-0.034818	-0.921387	0.349365	-0.162842	0.473539	-0.514725	-0.499607	-0.511089	9.8154	0.0392389	-0.401923	-0.0085974	-0.0427229	-0.01504	-1.00146	0.398193	0.0483398	0.457397	-0.525519	-0.438204	-0.567975	9.94137	0.157176	0.560506	-0.0192338	-0.0235057	-0.0248879	-1.00708	0.388672	0.0151367	0.427716	-0.613328	-0.452664	-0.485781	9.56722	-0.880909	-1.69565	-0.0188579	-0.0434976	-0.00711265	-0.903809	0.506592	0.247559	0.521541	-0.503328	-0.514445	-0.458261	9.87321	-0.518034	-0.367652	0.0124244	-0.0314717	-0.0121067	-1.01807	0.516113	-0.00415039	
42	0.774358	0.0109765	-0.0115364	-0.632547	-0.205661	0.458887	11.1073	0.0366391	0.0344281	0.00119415	0.0883789	0.363525	-0.930176	0.568912	-0.400439	-0.441187	-0.56687	9.55477	0.373913	2.91669	0.00804961	0.0232726	-0.0465235	-0.761963	0.272461	-0.252197	0.795053	-0.0527422	-0.0513616	-0.602055	1.46057	-0.341143	10.8141	0.0235228	0.015183	0.0162205	-0.0449219	0.334961	-0.946533	0.0304515	0.335085	0.466512	-0.81802	-5.62878	-7.28638	3.34279	-0.0260891	0.0297636	0.00230156	0.25708	0.875977	-0.519531	0.697056	-0.0119305	-0.0535062	-0.714918	0.798886	0.592645	9.70946	0.0287794	0.0179349	-0.00737465	-0.0727539	0.337158	-0.921631	0.913561	0.168082	0.249729	0.273477	-4.43551	5.6699	10.1575	-0.00814385	-0.0175665	0.0147444	0.717041	-0.629883	-0.374512	0.550958	-0.428446	-0.509383	-0.503397	9.93064	0.223315	1.06616	-0.0102389	0.0477535	-0.0287848	-0.919434	0.35376	-0.165039	0.472778	-0.515433	-0.500218	-0.510482	9.72926	0.017508	-0.305241	-0.0116615	-0.0316229	-0.0241265	-0.999023	0.391602	0.0483398	0.456715	-0.525958	-0.438488	-0.567897	9.90679	0.0523083	0.442749	-0.0054439	-0.0177238	-0.0338997	-1.00684	0.384033	0.0151367	0.427091	-0.613734	-0.453145	-0.485369	9.52287	-0.907682	-1.59435	9.81023e-06	-0.0243266	-0.00782334	-0.90625	0.506592	0.24292	0.521183	-0.503331	-0.515214	-0.4578	9.8981	-0.541663	-0.43735	0.0198486	-0.0244854	-0.0200207	-1.0249	0.518311	-0.0131836	
43	0.774397	0.0113647	-0.0115858	-0.632491	-0.14593	0.396043	11.1602	0.0279532	0.012272	0.00392043	0.0952148	0.361572	-0.930176	0.568919	-0.399865	-0.441727	-0.566848	9.52329	0.367977	2.86566	0.032432	0.00831905	-0.031057	-0.753174	0.268066	-0.256836	0.79519	-0.0525784	-0.0514136	-0.601885	1.54431	-0.300338	10.7557	0.0162028	0.00976237	0.0175992	-0.0429688	0.337158	-0.948975	0.0308407	0.335712	0.466958	-0.817494	-5.76704	-7.36828	3.3232	-0.0304326	0.0259571	0.0287271	0.252686	0.875977	-0.517334	0.697235	-0.0107747	-0.0539881	-0.714726	0.841115	0.649669	9.64101	0.0486421	0.0254922	-0.00529376	-0.0705566	0.337158	-0.924072	0.91356	0.168153	0.249471	0.273673	-4.38758	5.73564	10.2375	0.00354623	0.0146686	-0.0188094	0.716797	-0.625488	-0.381104	0.551443	-0.427898	-0.508491	-0.504233	9.86335	0.270374	1.144	0.0213382	0.0625197	-0.0135901	-0.917236	0.349365	-0.17334	0.472341	-0.515834	-0.500623	-0.510084	9.81495	0.0405248	-0.425558	0.00370237	-0.048599	-0.0202325	-1.00146	0.395996	0.0529785	0.456561	-0.525952	-0.438707	-0.567858	9.95844	0.220841	0.523851	0.0101987	-0.00670798	-0.0336901	-1.00708	0.390869	0.017334	0.426334	-0.614203	-0.453777	-0.484851	9.51238	-0.922107	-1.72644	-0.0101496	-0.0312859	-0.0074273	-0.90625	0.508789	0.249756	0.520892	-0.503423	-0.515564	-0.457636	9.81677	-0.53299	-0.384146	0.00458444	-0.0304508	-0.01887	-1.01562	0.509521	-0.00170898	
44	0.774293	0.0119192	-0.0120439	-0.632601	-0.192711	0.417476	11.0348	0.0293978	-0.00274347	-0.00724174	0.0908203	0.359131	-0.927979	0.568709	-0.399785	-0.441468	-0.567317	9.44456	0.388879	2.82361	-0.0178485	0.0156904	-0.0301665	-0.757568	0.268066	-0.251953	0.795283	-0.0518891	-0.0519732	-0.601774	1.50446	-0.286473	10.8711	0.0386194	0.00519054	0.00329193	-0.0427246	0.330566	-0.941895	0.0310766	0.335926	0.467093	-0.81732	-5.75435	-7.23139	3.26557	-0.0187896	0.0175884	0.0215387	0.254883	0.875977	-0.515137	0.697429	-0.0111203	-0.0538741	-0.714539	0.878618	0.663112	9.6556	-0.0291104	-0.00264056	-0.00297249	-0.0664062	0.339355	-0.924072	0.913568	0.168137	0.249596	0.273542	-4.38976	5.58964	10.1777	0.00588626	0.0223679	-0.027431	0.7146	-0.627686	-0.378662	0.551256	-0.427964	-0.50853	-0.504342	9.75829	0.245856	1.34186	0.000936124	0.00254531	-0.0280274	-0.919434	0.351562	-0.166992	0.471734	-0.516389	-0.501427	-0.509294	9.7734	0.0904112	-0.364271	0.0153176	-0.0326812	-0.0245768	-0.994629	0.389648	0.0461426	0.456027	-0.526105	-0.438981	-0.567934	9.85883	0.100956	0.513749	-0.0168937	-0.0103921	-0.0368185	-1.00952	0.390869	0.017334	0.42601	-0.614253	-0.454772	-0.48414	9.57023	-0.969446	-1.62342	0.0421855	-0.0291188	-0.018414	-0.897217	0.504395	0.25	0.520812	-0.502983	-0.516737	-0.456888	9.84466	-0.596574	-0.38443	0.0651408	-0.026162	-0.0230452	-1.01782	0.511719	-0.0109863	
45	0.774181	0.0117421	-0.0118356	-0.632745	-0.167394	0.473532	11.1143	-0.0296609	-0.0108317	-0.00458249	0.088623	0.359131	-0.930176	0.568819	-0.399635	-0.441627	-0.567188	9.46803	0.370124	2.84515	0.011032	0.017806	-0.0163033	-0.759766	0.270264	-0.251953	0.795326	-0.0513431	-0.0520351	-0.601758	1.56568	-0.237527	10.7176	0.0101967	0.0118115	-0.00123403	-0.036377	0.330566	-0.94873	0.0309347	0.335951	0.466927	-0.81741	-5.68054	-7.3407	3.27873	0.0189072	0.00892167	0.000770564	0.25293	0.873779	-0.515137	0.697415	-0.011625	-0.0537092	-0.714557	0.813256	0.640933	9.56686	-0.0198013	-0.0150771	-0.0216506	-0.0725098	0.332764	-0.921631	0.913578	0.167808	0.250052	0.273295	-4.36356	5.69247	10.1463	-0.00176604	0.0383997	-0.0399189	0.721191	-0.627686	-0.378906	0.550904	-0.428395	-0.508222	-0.504671	9.97998	0.334195	1.01998	0.0109933	0.0698515	-0.0113817	-0.916992	0.347168	-0.164795	0.471114	-0.516995	-0.502151	-0.508539	9.75801	-0.0676199	-0.433165	0.0233906	-0.0420196	-0.0176028	-0.99707	0.395996	0.0554199	0.456421	-0.52548	-0.440141	-0.567299	9.93941	0.248373	0.508324	0.0758448	-0.00254153	-0.0334417	-1.00708	0.390869	0.0151367	0.425839	-0.614226	-0.455637	-0.483511	9.547	-0.898202	-1.71588	0.010626	-0.0232104	-0.0106586	-0.901611	0.506592	0.245361	0.520817	-0.502388	-0.517983	-0.456125	9.85091	-0.620129	-0.303218	0.0439103	-0.0241395	-0.0240581	-1.02002	0.511719	-0.00170898	
46	0.773813	0.0111236	-0.0119684	-0.633203	-0.00210069	0.373559	11.0585	-0.0119584	-0.018272	-0.0267939	0.0883789	0.363525	-0.932373	0.568855	-0.399722	-0.441438	-0.567238	9.62618	0.496538	2.94284	-0.0258103	0.0178796	-0.0141026	-0.755615	0.272461	-0.259277	0.795197	-0.0525767	-0.0515726	-0.601862	1.50263	-0.27039	10.835	-0.0730629	-0.00981939	-0.000933519	-0.0322266	0.336914	-0.944336	0.0307758	0.335778	0.466075	-0.817973	-5.66438	-7.18347	3.38627	0.048309	-0.00591513	0.00121701	0.25293	0.873779	-0.515137	0.697309	-0.012888	-0.0543403	-0.714591	0.935102	0.726411	9.70396	-0.0207232	-0.0562952	-0.0110844	-0.0727539	0.334961	-0.921631	0.913687	0.167428	0.25099	0.272302	-4.36197	5.57241	10.2644	0.00563411	0.0489389	-0.0673256	0.725586	-0.629883	-0.372314	0.550493	-0.428999	-0.507095	-0.505739	9.84428	0.46728	1.03154	-0.0403499	-0.0276614	-0.0141731	-0.917236	0.351562	-0.164795	0.472503	-0.516009	-0.504377	-0.506042	9.9715	-0.122364	-0.362233	0.201593	-0.0172755	0.00434879	-0.99707	0.398193	0.0554199	0.46006	-0.521851	-0.444736	-0.564115	10.0288	-0.112585	0.595792	0.305424	-0.000381991	-0.0295552	-1.00708	0.386475	0.00634766	0.425321	-0.614962	-0.455464	-0.483194	9.41563	-1.07876	-1.47934	-0.0435235	-0.0147696	0.0349393	-0.899414	0.504395	0.252197	0.522006	-0.501516	-0.519393	-0.454117	9.83601	-1.21528	-0.321591	0.169372	-0.0163807	0.0258811	-1.01782	0.511719	-0.0109863	
47	0.773447	0.0104895	-0.0120999	-0.633658	-0.168231	0.231909	11.1771	-0.00908606	-0.0313457	-0.0301741	0.088623	0.361328	-0.93457	0.568582	-0.400532	-0.441169	-0.567149	9.55417	0.480125	2.8274	-0.0308128	-0.0225505	-0.00612142	-0.76416	0.272461	-0.256836	0.795155	-0.0530909	-0.0518408	-0.601849	1.65226	-0.247406	10.6725	0.0216123	-0.0213057	-0.00575108	-0.0449219	0.328369	-0.946533	0.0303451	0.335632	0.464911	-0.818711	-5.70973	-7.20233	3.27935	0.0687476	0.00246919	0.00392054	0.259277	0.876221	-0.523926	0.697097	-0.0150631	-0.054844	-0.714718	0.859124	0.598602	9.88813	-0.0365667	-0.0695357	-0.0235935	-0.072998	0.341553	-0.921631	0.913954	0.166176	0.251679	0.271535	-4.52576	5.75	10.2335	-0.0403807	0.0426608	-0.0604855	0.723389	-0.627686	-0.376709	0.549834	-0.430497	-0.506402	-0.505878	10.0042	0.156145	0.880345	-0.0310855	-0.00355133	0.00542872	-0.917236	0.351562	-0.158447	0.473821	-0.515442	-0.504914	-0.504851	10.1507	0.654281	-0.371484	0.0411217	0.0515739	0.00641729	-0.999023	0.393799	0.0576172	0.461258	-0.520519	-0.44646	-0.563006	10.0207	0.143302	0.782963	0.0779117	0.00344997	-0.0374047	-1.00195	0.379639	0.00854492	0.425951	-0.615486	-0.455634	-0.481809	9.63965	-0.927535	-1.96157	0.0487468	-0.0179187	0.0340805	-0.899414	0.504395	0.25	0.525283	-0.498434	-0.522415	-0.450249	9.94374	0.0553551	-0.65973	0.211088	-0.0152261	0.00262053	-1.01587	0.518311	-0.0131836	
48	0.772996	0.00992454	-0.0139281	-0.634181	-0.261864	0.487704	11.3166	0.0416562	-0.092979	-0.0171934	0.0842285	0.359131	-0.932373	0.568209	-0.40105	-0.441428	-0.566955	9.63036	0.428868	2.7483	-0.0262659	-0.0414478	-0.0174954	-0.755371	0.270264	-0.245117	0.794812	-0.0541895	-0.0536284	-0.602047	1.75169	-0.191842	10.5185	-0.00257733	-0.110088	-0.0195133	-0.0385742	0.332764	-0.948975	0.0305491	0.335917	0.46423	-0.818973	-5.67151	-7.15656	3.3471	0.0514777	0.00897616	0.0427186	0.255127	0.871826	-0.52832	0.697183	-0.0163148	-0.0566927	-0.714462	1.08793	0.642592	9.78333	0.0270748	-0.0842748	-0.00284271	-0.0773926	0.341553	-0.921631	0.91445	0.164471	0.251933	0.270668	-4.61548	5.62023	10.2248	-0.0551364	0.0282948	-0.0796482	0.721191	-0.625488	-0.374512	0.550976	-0.429521	-0.506849	-0.505016	10.0201	0.315376	1.04323	0.0867228	0.0282449	-0.00106743	-0.915039	0.347168	-0.166992	0.473397	-0.51567	-0.503071	-0.506852	9.59195	0.258983	-0.423821	-0.0748072	0.0502357	-0.0321676	-0.999023	0.391602	0.0554199	0.461409	-0.519844	-0.44756	-0.562631	9.88321	0.4027	0.317038	0.0396532	-0.00457163	-0.0461628	-1.00928	0.386475	0.00390625	0.425349	-0.615827	-0.455917	-0.481638	9.64903	-0.419981	-1.81042	-0.0266867	-0.00560525	-0.0148613	-0.89917	0.5	0.252197	0.524241	-0.498832	-0.522732	-0.450654	9.93517	-0.638488	-0.542798	-0.0518104	-0.0146122	-0.030707	-1.01562	0.513916	-0.00854492	
49	0.773466	0.00745463	-0.0176381	-0.633548	0.00178148	0.745657	10.9202	-0.00213846	-0.196699	0.0441166	0.0776367	0.359131	-0.932373	0.568203	-0.40122	-0.442678	-0.565865	9.30676	0.396019	2.6851	0.019165	-0.00535341	-0.010063	-0.757812	0.272461	-0.254395	0.794235	-0.0558287	-0.0564709	-0.602399	1.73621	-0.537958	10.6004	0.0235449	-0.114181	-0.0268564	-0.0449219	0.337158	-0.951172	0.0324813	0.338028	0.460786	-0.819975	-5.68624	-7.01809	3.48786	0.0780503	0.00790014	0.0991122	0.259766	0.867432	-0.525879	0.697082	-0.0168932	-0.0583642	-0.714412	1.19786	0.759952	9.43687	0.0262517	-0.0405569	-0.0233966	-0.0859375	0.341553	-0.914795	0.91523	0.162589	0.251465	0.269601	-4.40918	5.28632	10.2147	-0.0672215	-0.00381441	-0.0802794	0.725098	-0.621338	-0.383301	0.551157	-0.429744	-0.507393	-0.504083	9.53735	0.405444	1.05484	0.030279	-0.0448189	0.00626036	-0.921875	0.35791	-0.171387	0.472867	-0.51577	-0.502984	-0.507332	9.5975	-0.0347001	-0.581232	-0.0194888	0.0309773	-0.0297715	-0.999023	0.391602	0.0507812	0.4612	-0.519358	-0.448314	-0.562652	9.75999	0.31075	0.422873	-0.00237761	0.00132936	-0.0455329	-1.01147	0.384033	0.00634766	0.425161	-0.615882	-0.456043	-0.481614	9.31937	-0.649734	-1.71421	-0.0286872	0.000998034	0.000820134	-0.901367	0.5	0.25	0.524004	-0.498267	-0.523583	-0.450568	9.7033	-0.332118	-0.585	-0.00593092	-0.00685749	-0.0327676	-1.02002	0.511719	-0.00634766	
50	0.773835	0.00570678	-0.0191028	-0.633074	0.334726	0.39665	10.7382	-0.032419	-0.183039	0.0495279	0.0776367	0.361328	-0.930176	0.568169	-0.401394	-0.443019	-0.56551	9.28972	0.450221	2.66354	0.00880257	-0.0229194	-0.0100026	-0.757568	0.268066	-0.247314	0.794094	-0.0565082	-0.0578477	-0.602392	1.7085	-0.425626	10.7429	0.0245695	-0.116287	-0.0104516	-0.0578613	0.333008	-0.941895	0.0331752	0.338316	0.459609	-0.820489	-5.61249	-7.09698	3.40018	0.0805916	-0.0161659	0.0878965	0.255371	0.865234	-0.530273	0.696788	-0.0176299	-0.0588815	-0.714638	1.07069	0.754734	9.3121	-0.0126952	-0.0650204	-0.0412198	-0.0837402	0.339355	-0.921631	0.915692	0.161669	0.25122	0.268811	-4.34159	5.33773	10.0742	-0.0608739	-0.00299484	-0.0997225	0.720703	-0.619141	-0.381104	0.550749	-0.430417	-0.507458	-0.503887	9.64634	0.316234	1.15036	-0.0197916	-0.0424674	-8.3224e-05	-0.910889	0.351562	-0.164795	0.472862	-0.515637	-0.502874	-0.507581	9.51392	0.121607	-0.429918	-0.00556005	0.0365117	-0.0270782	-0.994873	0.393799	0.0576172	0.461013	-0.519226	-0.44852	-0.562762	9.72894	0.224233	0.284277	0.00708377	0.0041027	-0.0449769	-1.00439	0.381836	0.00415039	0.4243	-0.616387	-0.455738	-0.482015	9.39346	-0.825161	-1.92171	-0.0845853	-0.00898919	-0.0102627	-0.901367	0.5	0.25	0.523591	-0.498406	-0.523557	-0.450923	9.76569	-0.506744	-0.550718	-0.0354195	-0.000280639	-0.0277639	-1.01782	0.511719	-0.0109863	
51	0.774247	0.00348811	-0.0210665	-0.632523	0.49297	0.307188	10.8486	-0.0150803	-0.101139	0.0145332	0.0708008	0.363281	-0.93457	0.567562	-0.402251	-0.444332	-0.564479	9.53619	0.451651	2.88701	0.0012506	-0.0658186	-0.0132867	-0.763916	0.263672	-0.251709	0.794158	-0.0601345	-0.0587521	-0.601868	1.66428	-0.238161	10.7539	-0.12712	-0.106076	0.0336594	-0.0537109	0.341553	-0.942139	0.034067	0.337516	0.455546	-0.823043	-5.89902	-7.03226	3.55981	0.108581	-0.0472884	0.0385102	0.262207	0.863037	-0.539062	0.696296	-0.0203115	-0.0602899	-0.71493	1.047	0.467001	9.38542	-0.0267523	-0.130573	-0.0204125	-0.0839844	0.34375	-0.921631	0.917087	0.15863	0.251881	0.265224	-4.57996	5.43429	10.4943	-0.0419889	0.0521012	-0.150154	0.731201	-0.610352	-0.381348	0.549812	-0.431664	-0.508101	-0.503196	9.87453	0.326084	1.0367	-0.00154387	-0.0254351	-0.00360416	-0.921631	0.35376	-0.158691	0.472653	-0.515657	-0.503416	-0.507218	9.80623	0.33117	-0.626616	0.00702802	-0.00252179	-0.0251085	-1.00146	0.395996	0.0529785	0.460796	-0.518761	-0.448771	-0.563168	9.91017	0.279344	0.450649	0.0072998	0.020933	-0.045988	-1.00659	0.379639	0.00415039	0.424001	-0.616203	-0.455677	-0.482571	9.48258	-0.959454	-1.87793	-0.0150678	0.0186566	-0.0154802	-0.899414	0.504395	0.254395	0.52348	-0.498088	-0.523873	-0.451036	9.85566	-0.520104	-0.522103	0.0257571	0.00769316	-0.0195353	-1.01538	0.509521	-0.00634766	
52	0.773523	0.0018846	-0.0214064	-0.633404	0.282677	0.38695	11.1606	-0.0534841	-0.0492264	-0.0613088	0.0708008	0.361084	-0.932373	0.566906	-0.404	-0.4445	-0.563756	9.63398	0.3448	2.72146	-0.051229	-0.0598633	0.00954776	-0.768311	0.265869	-0.244873	0.79397	-0.0631998	-0.0600278	-0.601676	1.93772	-0.30095	10.7375	-0.0206795	-0.106671	-0.0111198	-0.0600586	0.341797	-0.942139	0.0341846	0.337428	0.454225	-0.823804	-6.01292	-7.09669	3.58361	0.113528	-0.0268705	0.0395471	0.260254	0.856445	-0.54126	0.696002	-0.024642	-0.0618898	-0.714943	1.10153	0.794446	10.0465	-0.110156	-0.147962	-0.0158048	-0.101562	0.345947	-0.924072	0.917413	0.157562	0.252539	0.264105	-4.70133	5.52566	10.5674	-0.0443219	0.0644577	-0.135554	0.735352	-0.608154	-0.381592	0.549482	-0.432224	-0.508509	-0.502663	9.86223	0.211416	1.12034	0.0165361	-0.0607833	0.00213596	-0.921631	0.35376	-0.156494	0.47211	-0.515982	-0.502415	-0.508384	9.88662	0.0788793	-0.455068	-0.0723541	0.0564193	-0.0238397	-1.00122	0.391602	0.0507812	0.460554	-0.51838	-0.448619	-0.563837	9.9856	0.264418	0.546022	-0.0193882	0.029636	-0.0366444	-1.00903	0.377197	0.00634766	0.424847	-0.615389	-0.456294	-0.482283	9.55755	-0.628812	-1.76981	0.0479914	0.025627	-0.00219269	-0.903809	0.502197	0.25	0.523976	-0.497249	-0.52424	-0.45096	9.98422	-0.330238	-0.533913	0.02728	0.0242903	-0.0210071	-1.02222	0.507324	-0.00854492	
53	0.772787	-0.000480713	-0.0223853	-0.63427	0.169524	0.311993	11.2116	-0.0417664	-0.124408	-0.0328576	0.0617676	0.365479	-0.928223	0.566386	-0.404908	-0.445215	-0.563063	9.67491	0.371599	2.64925	0.00847735	-0.0371487	-0.018397	-0.757812	0.274658	-0.238037	0.793237	-0.0649177	-0.061551	-0.602306	1.96895	-0.247558	10.9031	-0.0202899	-0.0874832	-0.0376813	-0.0686035	0.337646	-0.942139	0.034855	0.337614	0.452221	-0.824802	-6.06225	-7.17163	3.75039	0.0628846	-0.00748039	0.0542969	0.262451	0.858643	-0.54126	0.695445	-0.0278725	-0.0623229	-0.715328	1.38125	0.445416	10.1555	-0.0328114	-0.0800893	-0.0444568	-0.101562	0.348145	-0.917236	0.917942	0.155942	0.253472	0.26233	-4.95384	5.56037	10.6316	-0.0243192	0.0380752	-0.102128	0.735596	-0.610352	-0.379395	0.548673	-0.433158	-0.509574	-0.501664	10.0423	0.337406	0.882965	0.0289877	-0.0495237	-0.0149797	-0.913086	0.355957	-0.158691	0.47201	-0.515503	-0.502253	-0.509122	9.73586	0.076312	-0.433596	0.0322537	0.025554	-0.0395098	-1.00317	0.389404	0.0532227	0.46077	-0.517782	-0.448555	-0.564262	9.9986	0.227294	0.340228	0.0349466	0.0396747	-0.0311843	-1.00879	0.375	0.00415039	0.424537	-0.615383	-0.4561	-0.482747	9.57108	-0.819549	-1.76411	-0.0247584	0.020577	-0.0087857	-0.903809	0.502197	0.247559	0.523623	-0.49707	-0.523883	-0.451981	9.91674	-0.505148	-0.375963	-0.0256495	0.0368429	-0.0307463	-1.01978	0.505127	-0.0153809	
54	0.772607	-0.00280026	-0.0244851	-0.634406	0.609678	0.278656	10.9174	-0.00686339	-0.117862	-0.00943215	0.057373	0.365234	-0.93042	0.56594	-0.405454	-0.446189	-0.562347	9.62503	0.538851	2.61057	0.0125492	-0.0452528	-0.0169048	-0.766357	0.270264	-0.244873	0.792366	-0.0655282	-0.0624794	-0.60329	2.0766	-0.477363	10.8377	0.00819393	-0.0252989	-0.0518652	-0.0666504	0.348389	-0.940186	0.0352538	0.338448	0.450989	-0.825118	-5.9053	-7.0459	3.88379	0.0487728	0.0324023	0.0385535	0.266846	0.858887	-0.545654	0.694937	-0.0277145	-0.0631195	-0.715758	1.46758	0.643651	9.98728	0.0166709	0.00897764	-0.0406122	-0.106201	0.352539	-0.917236	0.918328	0.155556	0.253595	0.261086	-4.91105	5.28209	10.5148	0.00193647	0.00728463	-0.058412	0.741455	-0.599609	-0.379639	0.548147	-0.433791	-0.51035	-0.500902	9.89396	0.382084	1.08917	0.0046205	-0.0413145	-0.00911638	-0.921875	0.355713	-0.150146	0.472146	-0.515081	-0.503	-0.508685	9.83407	0.188307	-0.313014	0.00811561	0.00654631	-0.030943	-1.00098	0.389404	0.0532227	0.461279	-0.516873	-0.448561	-0.564675	9.83354	0.228366	0.710992	0.00802488	0.0466734	-0.0320478	-1.01099	0.372803	0.00415039	0.425025	-0.614738	-0.456263	-0.482986	9.55029	-0.890755	-1.61781	0.0350082	0.0388269	-0.00505123	-0.901611	0.504395	0.256836	0.523887	-0.49638	-0.523709	-0.452635	9.79903	-0.408548	-0.379117	0.00122746	0.0386838	-0.0224461	-1.02222	0.509521	-0.0131836	
55	0.772173	-0.0042075	-0.0256403	-0.634881	0.745646	0.296321	10.7863	-0.0172859	-0.0634091	-0.0345673	0.0505371	0.369629	-0.934814	0.564991	-0.406635	-0.445793	-0.562763	9.53618	0.353054	2.53366	-0.0611613	-0.0165732	-0.026691	-0.766602	0.276855	-0.23584	0.792102	-0.0651993	-0.0625186	-0.603668	2.06106	-0.510603	10.746	0.0213133	0.0201004	-0.0107758	-0.0686035	0.339844	-0.942139	0.0353403	0.338703	0.450663	-0.825187	-5.85615	-7.01025	3.71547	-0.00529693	0.00669519	0.0101997	0.264893	0.852295	-0.541016	0.694727	-0.027443	-0.0628421	-0.715997	1.36182	0.61936	9.73721	-0.00222706	0.0372533	-0.0415901	-0.110107	0.345703	-0.914795	0.918518	0.156143	0.253357	0.260298	-4.68701	5.28759	10.287	0.0397882	-0.00867669	-0.0395298	0.746094	-0.604004	-0.381592	0.547218	-0.434581	-0.51129	-0.500274	9.79281	0.311345	1.06875	0.0114972	-0.0575933	-0.030961	-0.924072	0.35791	-0.145996	0.471628	-0.515166	-0.502401	-0.509672	9.71648	0.279387	-0.212247	-0.0391146	0.0358255	-0.0307275	-0.998779	0.385254	0.0532227	0.461125	-0.51662	-0.447976	-0.565495	9.89604	0.431538	0.53112	-0.042554	0.0403352	-0.0283451	-1.00879	0.375	-0.000244141	0.425564	-0.614	-0.456312	-0.483403	9.44925	-0.750866	-1.61853	0.0146168	0.0525579	-0.0103532	-0.903809	0.504395	0.247559	0.524168	-0.495746	-0.523741	-0.452967	9.82073	-0.45154	-0.436251	0.0181359	0.0287149	-0.0230251	-1.02222	0.507324	-0.0131836	
56	0.771802	-0.00466162	-0.0255182	-0.635334	0.590104	0.176318	11.0321	-0.0100339	-0.00619661	-0.0144376	0.057373	0.367432	-0.932617	0.564153	-0.407864	-0.446043	-0.562516	9.59245	0.337668	2.52027	-0.0299368	-0.0325654	-0.0133666	-0.766357	0.272461	-0.230957	0.791996	-0.0647041	-0.0624008	-0.603872	1.94959	-0.338119	10.6245	-0.00195867	0.0152296	-0.00752712	-0.0686035	0.342041	-0.94458	0.0354596	0.338315	0.450604	-0.825373	-5.78816	-6.82259	3.57894	0.014372	-0.0165483	-0.00769447	0.266846	0.858887	-0.543457	0.693784	-0.0276362	-0.0620456	-0.716973	1.19803	0.554255	9.56272	-0.0488343	-0.0173054	-0.0381803	-0.108154	0.350342	-0.917236	0.918601	0.157006	0.253793	0.259057	-4.66243	5.15117	10.1732	0.0423164	0.0193561	-0.0574483	0.743896	-0.601807	-0.375244	0.546885	-0.435059	-0.51111	-0.500407	9.98728	0.352697	0.941358	0.0116837	0.052975	-0.0111321	-0.921631	0.35376	-0.150146	0.471418	-0.515135	-0.503085	-0.509221	9.74536	0.192165	-0.304037	0.0257912	-0.0189848	-0.0285155	-1.00122	0.391602	0.0461426	0.460951	-0.516392	-0.447501	-0.56622	9.85754	0.366144	0.630016	-0.00375082	0.0323018	-0.0334136	-1.01099	0.370361	-0.000244141	0.425692	-0.613659	-0.456425	-0.483618	9.6001	-0.832431	-1.56244	0.0122461	0.0199238	-0.00798549	-0.903809	0.502197	0.25	0.524297	-0.495274	-0.523752	-0.453322	9.82772	-0.378834	-0.314257	0.00518655	0.023294	-0.0196434	-1.01514	0.50293	-0.0153809	
57	0.771775	-0.00450111	-0.0257429	-0.635358	0.483847	0.205506	11.057	0.0220946	-0.0106673	-0.00605581	0.0527344	0.371826	-0.932617	0.563905	-0.408212	-0.446011	-0.562538	9.67701	0.338949	2.61233	-0.0325662	-0.00838354	-0.017052	-0.766357	0.272461	-0.233398	0.791959	-0.0656363	-0.0617497	-0.603887	2.00956	-0.311743	10.6143	-0.0888276	0.00105432	0.00502657	-0.0708008	0.342041	-0.942139	0.0352324	0.337416	0.450405	-0.82586	-5.74986	-6.92308	3.8146	0.0148224	-0.0225418	-0.0205345	0.262451	0.861084	-0.547852	0.69348	-0.0281133	-0.0622554	-0.71723	1.33551	0.452261	9.62156	-0.0164847	-0.0329586	-0.0446257	-0.105713	0.343506	-0.914795	0.918762	0.157127	0.253905	0.258302	-4.77297	5.30374	10.3321	0.0104474	0.00843423	-0.046245	0.737305	-0.599609	-0.377441	0.545963	-0.435716	-0.51013	-0.501839	9.82579	0.377394	0.919928	-0.0666646	-0.00969822	-0.0387782	-0.926025	0.353516	-0.145752	0.470937	-0.515408	-0.503187	-0.50929	9.76112	0.183615	-0.160513	-0.0255567	-0.0149875	-0.0323597	-1.00293	0.382812	0.0556641	0.460475	-0.516605	-0.446922	-0.566871	9.85353	0.353171	0.644791	-0.0721966	0.0295439	-0.0325696	-1.01318	0.368164	-0.000244141	0.425982	-0.613233	-0.456597	-0.483739	9.62501	-0.841002	-1.49079	0.0330869	0.0391263	-0.0143877	-0.901611	0.502197	0.243164	0.52454	-0.494941	-0.523885	-0.453251	9.87928	-0.461883	-0.262464	0.0334143	0.020495	-0.012375	-1.01978	0.505127	-0.0153809	
58	0.771485	-0.0047867	-0.0259979	-0.635698	0.531034	0.218965	11.0642	-0.0157045	-0.00754723	-0.0224186	0.0505371	0.371826	-0.92627	0.563661	-0.408172	-0.444984	-0.563623	9.58013	0.375227	2.60709	-0.0493125	0.044261	-0.0231757	-0.768555	0.274658	-0.230957	0.791695	-0.0668172	-0.061092	-0.60417	1.78592	-0.469206	10.7231	0.0569332	-0.00161762	-0.0174886	-0.0688477	0.344238	-0.948975	0.0352004	0.337165	0.450106	-0.826127	-5.74388	-7.0594	3.60568	0.0234191	0.00283188	0.00125826	0.264648	0.858887	-0.545654	0.692891	-0.0281176	-0.0635827	-0.717683	1.42735	0.620819	9.68258	0.0324862	-0.0350876	-0.0457216	-0.112305	0.345703	-0.912598	0.919137	0.157109	0.253803	0.257075	-4.8036	5.33812	10.2096	0.00614359	-0.00796411	-0.0659129	0.741455	-0.597412	-0.379639	0.545235	-0.436176	-0.509091	-0.503285	9.96198	0.370136	1.00922	-0.0672417	0.05328	-0.0339799	-0.923828	0.353516	-0.1521	0.470894	-0.515365	-0.505202	-0.507375	9.91096	0.209096	-0.428911	0.118713	-0.0425982	-0.0132804	-0.998779	0.387207	0.0625	0.461658	-0.515492	-0.447595	-0.566391	9.96024	0.191673	0.750008	0.0851222	0.0249314	-0.00857643	-1.00879	0.375	-0.00463867	0.42672	-0.612381	-0.45667	-0.484099	9.51844	-0.819293	-1.47098	0.0130866	0.0487951	0.00147976	-0.901611	0.504395	0.245361	0.52576	-0.493791	-0.524859	-0.451963	9.86304	-0.41074	-0.285659	0.0332714	0.000232253	0.00435776	-1.02222	0.507324	-0.0153809	
59	0.771326	-0.00467603	-0.025823	-0.635899	0.630699	0.00204417	11.0817	-0.0011017	0.0117238	-0.0222398	0.0461426	0.369629	-0.932617	0.563814	-0.407873	-0.444465	-0.564096	9.74899	0.440924	2.79269	-0.0100596	0.0425688	-0.02027	-0.766357	0.272461	-0.235596	0.791519	-0.0664191	-0.0616112	-0.604392	1.70378	-0.204191	10.6873	0.0498473	-0.00836331	-0.0277013	-0.0688477	0.346191	-0.939941	0.0348844	0.337265	0.449728	-0.826305	-5.75611	-7.02004	3.5518	0.0432571	0.0200216	-0.00658336	0.260254	0.858887	-0.547852	0.692077	-0.029215	-0.0636846	-0.718415	1.22683	0.472936	9.86429	-0.0393868	-0.0243643	-0.0560934	-0.10376	0.348145	-0.921631	0.919432	0.1568	0.253301	0.256706	-4.86145	5.39239	10.2223	-0.0276055	-0.026829	-0.0496887	0.743408	-0.595215	-0.384033	0.544873	-0.436389	-0.508435	-0.504156	10.0487	0.407762	1.03906	-0.0105595	0.012905	-0.0234788	-0.921875	0.35791	-0.147949	0.471405	-0.5151	-0.505853	-0.506519	10.1046	0.12795	-0.283444	0.0978446	-0.0109356	-0.00137502	-1.00342	0.391602	0.0532227	0.462693	-0.514602	-0.448318	-0.565783	10.0251	0.0787713	0.936383	0.134303	0.033409	-0.0114548	-1.01123	0.375	-0.00463867	0.42705	-0.612214	-0.456512	-0.484169	9.63083	-0.855376	-1.50182	0.0154981	0.0217508	0.0048463	-0.901611	0.502197	0.245361	0.525932	-0.493754	-0.525182	-0.451426	9.83915	-0.414123	-0.203019	0.0453306	-0.0194907	0.00948611	-1.02441	0.507324	-0.0200195	
60	0.770476	-0.00245203	-0.0255938	-0.63695	0.396466	0.414201	10.9613	0.0704994	0.0726489	-0.0719367	0.057373	0.365479	-0.934814	0.563719	-0.407323	-0.444085	-0.564887	9.59313	0.423435	2.79037	-0.0276612	0.0363573	-0.0492123	-0.764404	0.274658	-0.238037	0.791	-0.0676166	-0.0623151	-0.604867	1.95497	-0.356261	10.7024	-0.0229712	-0.0481942	-0.0365539	-0.072998	0.346436	-0.94458	0.0342491	0.338453	0.448908	-0.826292	-5.89937	-7.08235	3.85349	0.0288698	0.0756426	0.0193242	0.264648	0.858887	-0.552246	0.691493	-0.0288093	-0.0648704	-0.718887	1.33149	0.66109	10.1755	0.0593786	0.00737437	-0.0481199	-0.114502	0.343506	-0.912598	0.920011	0.156902	0.251597	0.256242	-4.88238	5.50044	10.6558	0.00418171	-0.066712	-0.0161108	0.743408	-0.59082	-0.384277	0.544706	-0.436574	-0.508234	-0.504377	10.0143	0.359537	0.958341	-0.0167163	0.0136202	-0.0190361	-0.921631	0.35376	-0.150146	0.472996	-0.514327	-0.505569	-0.506105	9.83085	0.214006	-0.344418	0.0425274	0.0752453	0.00689299	-1.00122	0.393799	0.0507812	0.464298	-0.513496	-0.449369	-0.564638	9.93499	0.389724	0.701913	0.0738233	0.0127046	-0.00355222	-1.01587	0.377441	-0.0136719	0.428304	-0.611565	-0.456228	-0.484148	9.67781	-0.863718	-1.54839	0.0486212	0.0636521	0.0319684	-0.90625	0.506592	0.238525	0.525994	-0.493922	-0.525585	-0.450701	9.87855	-0.43632	-0.165561	0.0421298	-0.0425512	0.0189638	-1.02441	0.505127	-0.0153809	
61	0.769325	-0.000740069	-0.0243743	-0.638393	0.184533	0.363333	11.1165	0.0123407	0.0582256	-0.0727267	0.0598145	0.363281	-0.932617	0.56327	-0.40611	-0.444155	-0.566152	9.59965	0.395835	2.70651	0.000620777	0.0591475	-0.0880168	-0.76416	0.272461	-0.235596	0.790285	-0.0659056	-0.0640217	-0.605811	2.10064	-0.367371	10.8522	0.12649	0.00509679	-0.054172	-0.0751953	0.339844	-0.942139	0.0340243	0.340601	0.449135	-0.825295	-6.0959	-7.11689	3.60299	-0.0357214	0.0947998	0.033712	0.271484	0.856689	-0.543457	0.690735	-0.0264607	-0.0647736	-0.719715	1.23067	0.577531	9.92404	0.0641106	0.0871088	-0.0730084	-0.112061	0.336914	-0.917236	0.920367	0.158129	0.249413	0.256345	-4.76097	5.53455	10.457	0.0254271	-0.0848693	0.0146817	0.737061	-0.597412	-0.392578	0.545001	-0.435701	-0.508499	-0.504546	9.83554	0.311622	1.09271	0.0563926	0.0465403	-0.0447132	-0.923584	0.349365	-0.147949	0.474449	-0.513125	-0.506381	-0.505152	9.74795	0.407091	-0.537722	0.0869756	0.0315783	-0.00664431	-1.00122	0.391602	0.0483398	0.465608	-0.512538	-0.450546	-0.563492	9.83365	0.562953	0.708212	0.0927593	0.00688252	-0.0151377	-1.00659	0.379883	-0.0114746	0.427884	-0.61216	-0.455275	-0.484665	9.34005	-0.599339	-2.05567	-0.0718743	-0.00890072	0.00842707	-0.906006	0.504395	0.236328	0.525453	-0.49444	-0.525782	-0.450534	9.83145	-0.202318	-0.651332	-0.0756237	0.000280788	-0.0109664	-1.02002	0.507324	-0.0175781	
62	0.768639	0.000540159	-0.0245073	-0.639213	0.257814	0.469326	10.8962	0.0497468	0.0183054	-0.0325149	0.0551758	0.365234	-0.932617	0.563258	-0.404442	-0.444016	-0.567465	9.43402	0.471878	2.71732	-0.003491	0.0746086	-0.0683295	-0.768311	0.263672	-0.242432	0.789775	-0.062812	-0.0648953	-0.606712	1.94372	-0.27377	10.8981	0.0989107	0.0682534	-0.0478615	-0.0773926	0.339844	-0.946777	0.0337192	0.342339	0.450368	-0.823915	-5.98103	-7.04258	3.71019	-0.0574499	0.0934979	-0.00715533	0.27832	0.854492	-0.541016	0.69021	-0.0232385	-0.0640981	-0.72039	1.21094	0.605002	9.53457	0.049032	0.12259	-0.0451531	-0.103271	0.334961	-0.917236	0.920362	0.160103	0.247691	0.256806	-4.59011	5.27162	10.415	0.0578706	-0.051236	0.0363863	0.732666	-0.597412	-0.394775	0.544661	-0.435568	-0.508806	-0.504718	9.72867	0.448843	0.978543	-0.00115482	0.00113739	-0.0343044	-0.923828	0.355713	-0.145752	0.474507	-0.513086	-0.505883	-0.505637	9.67313	0.432024	-0.349745	-0.0317885	0.0596045	-0.0140051	-0.999023	0.391846	0.0461426	0.4655	-0.512529	-0.450611	-0.563536	9.75639	0.316812	0.568074	-0.00433776	0.00311242	-0.0243131	-1.00391	0.370605	-0.00683594	0.427468	-0.612298	-0.454834	-0.485271	9.57938	-0.769983	-1.50038	0.0120666	0.0484308	0.000241639	-0.903564	0.5	0.238525	0.525073	-0.494728	-0.525438	-0.451063	9.77675	-0.411787	-0.395319	0.00134344	0.0120796	-0.00810132	-1.02441	0.507324	-0.0200195	
63	0.768555	0.00181849	-0.0248272	-0.639299	0.370626	0.496907	10.9912	0.0470386	0.0147325	-0.0055341	0.0620117	0.361084	-0.93042	0.563076	-0.403835	-0.443235	-0.568687	9.484	0.515243	2.70293	-0.0462394	0.0515039	-0.044309	-0.768311	0.265869	-0.240234	0.789343	-0.0606346	-0.0637848	-0.607612	1.86754	-0.282597	10.6708	0.021549	0.0968885	-0.0362095	-0.0664062	0.333252	-0.946533	0.0323111	0.343275	0.451426	-0.823002	-5.82879	-6.97403	3.35913	-0.0213043	0.0651462	-0.049761	0.271484	0.856689	-0.536865	0.690244	-0.0220453	-0.0625453	-0.720531	1.04247	0.489719	9.32328	-0.0204599	0.0641811	-0.0121712	-0.105225	0.33252	-0.914795	0.919985	0.1613	0.247536	0.257556	-4.45243	5.3345	10.053	0.0388673	0.0195492	0.0194862	0.735107	-0.599609	-0.384033	0.544072	-0.435766	-0.508043	-0.505951	9.86445	0.519117	0.981209	-0.0555843	0.0428332	-0.038782	-0.925537	0.344971	-0.1521	0.473044	-0.51424	-0.503863	-0.507847	9.83823	0.261278	-0.318224	-0.0643594	0.0115859	-0.010041	-0.999023	0.389648	0.0483398	0.464318	-0.513451	-0.449575	-0.564499	10.0041	0.255391	0.552615	-0.104178	0.00871627	-0.0230621	-1.00903	0.377441	-0.0158691	0.428245	-0.611981	-0.454516	-0.485284	9.48888	-0.717817	-1.6542	-0.028642	0.0213695	0.0216758	-0.903809	0.504395	0.238525	0.52486	-0.495048	-0.525041	-0.451421	9.86029	-0.494568	-0.38657	-0.0235514	0.015044	0.00268305	-1.02441	0.507324	-0.0131836	
64	0.768171	0.00324028	-0.0241944	-0.63978	0.211037	0.441759	11.1596	0.0220854	0.0561335	-0.0378002	0.0600586	0.356689	-0.93042	0.56258	-0.404054	-0.442198	-0.569828	9.67166	0.531962	2.79578	-0.0689545	0.050511	-0.0295712	-0.763916	0.263672	-0.242432	0.789065	-0.0592573	-0.0631008	-0.608181	1.84146	-0.224985	10.6302	0.0373814	0.0435177	-0.0309181	-0.0664062	0.331055	-0.944092	0.03142	0.343649	0.452202	-0.822455	-5.79863	-6.98418	3.48079	-0.00694246	0.0436871	-0.0249676	0.275879	0.858887	-0.536865	0.69053	-0.0233293	-0.0622383	-0.720243	1.08468	0.747192	9.64992	-0.0634077	-0.0417467	0.0088325	-0.103271	0.334961	-0.917236	0.919644	0.161752	0.248734	0.257337	-4.49327	5.38957	10.2971	0.0255419	0.062878	-0.0329565	0.739258	-0.599609	-0.385986	0.543752	-0.435922	-0.507351	-0.506855	9.99398	0.489215	1.11329	-0.0691984	0.0535421	-0.0379743	-0.923828	0.353516	-0.150146	0.472981	-0.514849	-0.503275	-0.507871	9.80827	-0.0317388	-0.363592	-0.0142946	0.0152391	0.0064214	-1.00732	0.385254	0.048584	0.464485	-0.51359	-0.449278	-0.564471	9.91612	0.384389	0.825862	-0.0150236	0.0144885	-0.00514107	-1.00659	0.375244	-0.00463867	0.427291	-0.612908	-0.452908	-0.486458	9.69869	-0.817932	-1.40409	-0.0787136	0.0405694	0.0214417	-0.90625	0.508789	0.236084	0.524796	-0.495484	-0.524497	-0.451649	9.94586	-0.427787	-0.300895	-0.0341883	0.0128939	0.00955164	-1.01758	0.507324	-0.0107422	
65	0.767641	0.00440423	-0.0240846	-0.640412	0.119988	0.452821	11.226	0.0407773	0.0229415	-0.0319959	0.0622559	0.356689	-0.936768	0.562405	-0.404071	-0.441578	-0.57047	9.62287	0.4957	2.85816	-0.0651382	0.0552936	-0.0347243	-0.76416	0.268066	-0.240234	0.788795	-0.058632	-0.0629759	-0.608604	1.91108	-0.245217	10.65	0.0162693	0.0152938	-0.0179661	-0.0686035	0.333252	-0.94873	0.0310859	0.344105	0.45257	-0.822074	-5.88285	-7.07278	3.43557	-0.014872	0.0307726	0.00237876	0.275879	0.858887	-0.532471	0.690622	-0.0242858	-0.0621705	-0.720129	1.2045	0.769712	9.80057	-0.0570274	-0.0444152	0.00174621	-0.105713	0.341553	-0.917236	0.919629	0.161774	0.249344	0.256787	-4.58299	5.49647	10.478	0.0115101	0.0148878	-0.0398808	0.737305	-0.604004	-0.388184	0.543012	-0.435999	-0.505749	-0.509176	9.91721	0.321811	1.01662	-0.00658706	0.0606663	-0.0341686	-0.925781	0.347168	-0.149902	0.473073	-0.515235	-0.502334	-0.508326	9.97344	0.139857	-0.398528	-0.0344858	0.0572451	0.00289806	-1.00342	0.391602	0.0532227	0.464352	-0.513847	-0.448955	-0.564604	10.0116	0.176744	0.753406	-0.0290926	0.00920103	-0.00739163	-1.01123	0.375244	-0.00927734	0.427545	-0.612906	-0.452509	-0.486607	9.66261	-0.879546	-1.51743	-0.00843736	0.0419101	0.0268229	-0.908203	0.502197	0.238525	0.524695	-0.495972	-0.523864	-0.451967	9.88875	-0.429954	-0.389969	-0.0398998	0.0136878	0.0124327	-1.02222	0.509521	-0.0153809	
66	0.767535	0.00557813	-0.0256181	-0.64047	-0.0570796	0.530652	11.0391	0.090221	-0.0583583	-0.00350844	0.0578613	0.356689	-0.941162	0.562205	-0.403642	-0.441141	-0.571309	9.62631	0.458192	2.90379	-0.0377599	0.0462488	-0.0460733	-0.768311	0.265869	-0.242432	0.788712	-0.0580488	-0.0633836	-0.608726	1.94675	-0.239652	10.6407	0.0577113	0.00798877	-0.0163485	-0.0664062	0.333252	-0.953369	0.0316008	0.344543	0.45265	-0.821827	-5.96533	-6.9715	3.48322	-0.0214838	0.0105681	0.0294224	0.275879	0.854492	-0.538818	0.690278	-0.0247523	-0.0625079	-0.720414	1.1734	0.833736	9.96283	0.00885247	-0.00143791	-0.0422145	-0.10791	0.343506	-0.917236	0.920113	0.161808	0.248068	0.256264	-4.64827	5.46326	10.4345	-0.0072507	-0.0620275	-0.0252835	0.737305	-0.599609	-0.392578	0.543601	-0.435233	-0.505605	-0.509347	9.81501	0.26213	1.08544	0.0429013	0.0453537	-0.029527	-0.925781	0.349365	-0.147949	0.473921	-0.514639	-0.502283	-0.508191	9.63619	0.120786	-0.530272	0.0715582	0.0352358	-0.00619976	-0.999023	0.389404	0.0507812	0.465346	-0.513396	-0.449242	-0.563967	9.90689	0.311103	0.503575	0.0616706	0.0168402	0.00392257	-1.00659	0.375244	-0.00463867	0.427541	-0.613497	-0.45143	-0.486869	9.52284	-0.939353	-1.58485	-0.0653408	0.0189607	0.0335798	-0.903809	0.502197	0.240723	0.524875	-0.496189	-0.523281	-0.452193	9.83416	-0.42251	-0.467688	-0.00616419	0.0243719	0.00854004	-1.01978	0.505127	-0.00854492	
67	0.767357	0.00587619	-0.0266118	-0.640641	0.225817	0.803249	10.9137	0.0697795	-0.0502971	-0.0213161	0.0581055	0.352295	-0.93457	0.562105	-0.403058	-0.441257	-0.57173	9.48588	0.533843	2.79346	0.015229	0.0135289	-0.0384558	-0.768311	0.263672	-0.242432	0.788724	-0.0568508	-0.0640638	-0.608752	1.8357	-0.153783	10.7229	0.0440855	0.0164467	-0.00344535	-0.0727539	0.331299	-0.94873	0.0322168	0.344768	0.452717	-0.821672	-5.89248	-7.05071	3.41783	-0.00821171	0.00860832	0.0275666	0.282715	0.854492	-0.534424	0.68926	-0.0227529	-0.0627637	-0.721432	1.20707	0.734637	9.91149	0.0786085	0.0825756	-0.0907717	-0.103516	0.339355	-0.921631	0.920113	0.161808	0.248068	0.256264	-4.64827	5.46326	10.4345	-0.0072507	-0.0620275	-0.0252835	0.737305	-0.599609	-0.392578	0.544023	-0.434538	-0.505712	-0.509383	9.84411	0.417637	0.993652	0.0640449	0.0698107	-0.0143901	-0.923584	0.349365	-0.154297	0.474288	-0.514435	-0.502268	-0.508069	9.69609	0.142341	-0.369536	0.0320031	0.0357721	-0.0045431	-1.00122	0.391846	0.0437012	0.465862	-0.5133	-0.449059	-0.563775	9.83583	0.358638	0.548264	0.000815563	0.020842	-0.00335708	-1.01123	0.377441	-0.0136719	0.427751	-0.613355	-0.450907	-0.487347	9.48495	-0.829839	-1.57432	0.0227601	0.0427185	0.00741956	-0.906006	0.504395	0.243164	0.525057	-0.496189	-0.523026	-0.452278	9.80195	-0.448127	-0.457341	-0.00221664	0.0286098	0.00857091	-1.01587	0.516113	-0.015625	
68	0.766766	0.00523048	-0.0270631	-0.641335	0.555545	0.535628	10.8736	-0.0216931	-0.0269794	-0.0442381	0.0537109	0.352295	-0.932373	0.562185	-0.402539	-0.442355	-0.571169	9.54041	0.486077	2.8407	0.0371654	-0.0101122	-0.0343902	-0.766113	0.263672	-0.244873	0.788663	-0.0558843	-0.0647743	-0.608845	1.74293	0.0258472	10.7632	0.0467157	-0.0108855	-0.0115118	-0.0620117	0.328857	-0.953369	0.0325962	0.345114	0.452734	-0.821502	-5.89239	-7.04666	3.33713	-0.0149316	0.01981	0.0382021	0.277832	0.861084	-0.536865	0.688067	-0.0195442	-0.0624931	-0.722687	0.992817	0.579916	9.60166	0.0686727	0.0884744	-0.0903584	-0.105225	0.332764	-0.92627	0.920877	0.163534	0.244241	0.256104	-4.48786	5.45707	10.2269	0.0269801	-0.0916518	0.0088683	0.732666	-0.597412	-0.396973	0.544365	-0.434119	-0.505316	-0.509768	9.88158	0.368838	1.25762	0.0124323	0.0728924	-0.0227957	-0.921387	0.347168	-0.15625	0.47437	-0.514311	-0.501772	-0.508608	9.76085	0.208976	-0.562455	-0.0135817	0.0432396	-0.0233241	-1.00146	0.395996	0.0483398	0.46645	-0.51309	-0.448678	-0.563782	9.893	0.342449	0.618072	0.00640002	0.033433	-0.00304951	-1.01123	0.377441	-0.00927734	0.428855	-0.612633	-0.451256	-0.486962	9.52112	-0.675723	-1.70972	0.0508413	0.0311067	0.00715854	-0.901611	0.502197	0.238525	0.52591	-0.495792	-0.522525	-0.452302	9.9034	-0.380039	-0.498088	0.0023005	0.0444783	0.00775488	-1.02222	0.507324	-0.0153809	
69	0.766434	0.00539226	-0.0269317	-0.641735	0.528581	0.568243	10.8737	0.0032628	0.0114158	-0.043467	0.0581055	0.350098	-0.932373	0.562046	-0.4021	-0.442932	-0.571167	9.48084	0.623778	2.8504	-0.00344676	0.00636149	-0.037154	-0.766113	0.263672	-0.23999	0.788424	-0.0564535	-0.064871	-0.609091	1.7825	-0.16718	10.8797	-0.0173919	-0.000219404	-0.00980865	-0.0705566	0.324707	-0.944092	0.032515	0.345572	0.452749	-0.821304	-6.0346	-7.08332	3.52356	0.00925165	0.03068	-0.00646046	0.282471	0.858887	-0.534668	0.687652	-0.0178894	-0.0625112	-0.723123	1.01293	0.553191	9.49443	0.0323271	0.0451555	-0.0233564	-0.10083	0.328369	-0.919434	0.920975	0.16446	0.242878	0.256453	-4.49499	5.41371	10.3941	0.00654856	-0.022253	0.0170561	0.730957	-0.604004	-0.400879	0.544832	-0.433478	-0.505322	-0.509809	9.91254	0.499682	0.939592	0.0496591	0.0485049	-0.017793	-0.923828	0.351562	-0.158447	0.474805	-0.51391	-0.501832	-0.508549	9.72691	0.250263	-0.251799	0.0235947	0.0263039	-0.0136239	-0.99707	0.395996	0.0458984	0.466293	-0.513465	-0.447348	-0.564627	9.83055	0.447163	0.681179	-0.0646843	0.038099	-0.00503774	-1.00659	0.377441	-0.0136719	0.429047	-0.612477	-0.450925	-0.487296	9.53924	-0.792148	-1.62546	0.00339266	0.0341237	0.00739646	-0.908447	0.506592	0.238525	0.526347	-0.495676	-0.521494	-0.453108	9.83015	-0.397607	-0.424201	-0.0235005	0.0575644	0.00435784	-1.02466	0.513916	-0.0200195	
70	0.766592	0.00717096	-0.025649	-0.641582	0.118671	0.710598	11.0442	0.00929417	0.0503588	0.0187368	0.0646973	0.354492	-0.936768	0.561653	-0.402551	-0.442672	-0.571437	9.48503	0.514462	2.73735	-0.0435888	0.00264661	-0.0141569	-0.768311	0.265869	-0.244873	0.788181	-0.05599	-0.0646121	-0.609476	2.00856	-0.214291	10.7957	0.00984925	0.031294	-0.0160983	-0.064209	0.324463	-0.944092	0.0318365	0.345901	0.453026	-0.82104	-6.02186	-6.99773	3.51358	-0.0120664	0.0298174	-0.0211939	0.280273	0.856689	-0.534668	0.688152	-0.0177298	-0.0620626	-0.72269	1.1742	0.726242	9.54845	-0.0193602	0.0251001	0.01907	-0.098877	0.332764	-0.921631	0.920602	0.164822	0.24339	0.257073	-4.48885	5.41496	10.3613	0.0263557	0.0505855	0.00513447	0.73291	-0.599609	-0.388184	0.545074	-0.433053	-0.505494	-0.509741	9.72292	0.377132	1.19893	0.0365344	-0.00722603	-0.024033	-0.921387	0.347168	-0.154053	0.473484	-0.514562	-0.500919	-0.510019	9.71536	0.611811	-0.211257	-0.110546	0.0199341	-0.0509875	-1.00122	0.391602	0.0483398	0.464585	-0.514847	-0.4447	-0.566864	9.77299	0.61798	0.829798	-0.206872	0.0412212	-0.02658	-1.00439	0.38208	-0.00708008	0.43007	-0.611736	-0.450868	-0.487378	9.57837	-0.910933	-1.59028	0.04793	0.050896	0.011982	-0.899658	0.508789	0.236084	0.526383	-0.496049	-0.519858	-0.454538	9.82513	-0.53037	-0.411483	-0.0529655	0.0660602	0.00906768	-1.01782	0.509521	-0.0107422	
71	0.76684	0.00695219	-0.0249899	-0.641314	0.274606	0.540996	11.1106	-0.0267495	-0.0017522	0.00553258	0.0603027	0.354492	-0.928223	0.56125	-0.403424	-0.442407	-0.571421	9.6117	0.477051	2.73803	-0.0356135	-0.0107126	-0.00891738	-0.768066	0.25708	-0.242188	0.78818	-0.055713	-0.0637102	-0.609597	1.8438	-0.22803	10.7719	-0.0163944	0.0395229	0.00104921	-0.0686035	0.328857	-0.94873	0.0310988	0.345433	0.453289	-0.82112	-5.86532	-6.93874	3.47747	0.0160358	-0.00226587	-0.043452	0.275879	0.858887	-0.536865	0.688769	-0.0190613	-0.0607306	-0.722181	1.10562	0.687968	9.63561	-0.0745219	0.00391209	0.0183119	-0.098877	0.334961	-0.921631	0.920161	0.165015	0.244693	0.257293	-4.46519	5.32355	10.3301	0.0175151	0.0652646	-0.00943067	0.73291	-0.601807	-0.390381	0.545008	-0.433231	-0.505252	-0.509899	9.99569	0.41947	1.07757	-0.0161701	0.0366721	-0.00684701	-0.923584	0.347168	-0.15625	0.471062	-0.516495	-0.498266	-0.512898	10.0163	0.14253	-0.272361	-0.205718	0.0589032	-0.0121897	-0.994629	0.389648	0.0483398	0.462737	-0.516339	-0.44244	-0.568784	9.88517	0.205983	0.78489	-0.297311	0.0377973	-0.028319	-1.00439	0.38208	-0.00488281	0.430994	-0.611076	-0.450768	-0.487481	9.52702	-0.659772	-1.4312	0.0332854	0.0436877	0.00479339	-0.903809	0.506592	0.240723	0.527103	-0.495814	-0.518762	-0.455212	9.83232	-0.264004	-0.268735	-0.0347861	0.0571035	0.00942565	-1.01782	0.509521	-0.0222168	
72	0.766979	0.00648246	-0.0240287	-0.641189	0.22429	0.277529	11.1494	-0.0386468	0.00906721	0.0152144	0.0556641	0.356689	-0.936768	0.561156	-0.404139	-0.442168	-0.571195	9.7413	0.534435	2.83088	-0.0287874	-0.00939646	0.00533506	-0.763916	0.263672	-0.235352	0.788301	-0.0566798	-0.0624147	-0.609486	1.82218	-0.238454	10.7727	-0.0643518	0.0116337	0.0181613	-0.0664062	0.32666	-0.953125	0.0304783	0.344437	0.453445	-0.821475	-5.83693	-7.1457	3.45968	0.0140754	-0.026321	-0.0358582	0.27832	0.854492	-0.536621	0.689101	-0.0200615	-0.0606699	-0.721843	1.03024	0.766813	9.87978	-0.0244667	-0.0298835	0.00149458	-0.101074	0.337158	-0.921631	0.919932	0.164829	0.245633	0.257333	-4.55023	5.57443	10.3536	0.00136877	0.0467839	-0.0239295	0.733154	-0.604004	-0.385986	0.545315	-0.433255	-0.504869	-0.50993	10.0239	0.317982	1.20846	0.0372936	0.0181452	-0.00685664	-0.923584	0.349365	-0.15625	0.470049	-0.517676	-0.495724	-0.515096	9.89179	-0.40418	-0.232269	-0.101939	0.0628052	-0.0089231	-1.00098	0.387207	0.0507812	0.458924	-0.519766	-0.437309	-0.572706	9.99869	0.165562	0.768054	-0.17065	0.0203323	-0.00329237	-1.00439	0.38208	-0.00708008	0.43138	-0.610936	-0.450309	-0.487741	9.75183	-0.958812	-1.39593	0.00164767	0.039449	0.0255153	-0.904297	0.513184	0.231445	0.526309	-0.497151	-0.516561	-0.45717	9.84843	-0.541513	-0.13302	-0.0942822	0.0488748	0.0117337	-1.01782	0.513916	-0.0178223	
73	0.767282	0.00698173	-0.0239849	-0.640824	0.141223	0.584742	11.0888	0.0143333	0.00726123	0.0197882	0.0603027	0.354492	-0.932373	0.561222	-0.404407	-0.441878	-0.571165	9.67424	0.52038	2.80302	-0.0279791	0.0161967	0.00505775	-0.768311	0.265869	-0.237793	0.7887	-0.0574682	-0.0617284	-0.608966	1.90479	-0.262696	10.7368	-0.0220126	0.00835998	0.029923	-0.0708008	0.335449	-0.94873	0.0305465	0.343404	0.453662	-0.821786	-5.88627	-7.13955	3.5963	-0.00964089	-0.0315532	-0.0117641	0.280518	0.852295	-0.534424	0.689212	-0.020162	-0.0606245	-0.721737	1.26293	0.63342	9.9035	0.0037496	0.0226786	-0.00632158	-0.101074	0.334961	-0.919434	0.919825	0.165159	0.245894	0.257255	-4.68984	5.58063	10.5096	0.0291122	0.0149439	-0.0131315	0.735352	-0.606201	-0.385986	0.545574	-0.433037	-0.505739	-0.508975	9.91955	0.283702	1.18538	0.0509087	-0.023015	-0.0151055	-0.921387	0.347168	-0.15625	0.470789	-0.516518	-0.495763	-0.515544	9.69803	0.047533	-0.319546	0.082352	0.0607394	-0.0401162	-1.00317	0.389648	0.0437012	0.458796	-0.520282	-0.43669	-0.572813	9.84292	0.120288	0.631466	0.0208117	-0.00181736	-0.00526406	-1.00195	0.379639	-0.000244141	0.43121	-0.611165	-0.449417	-0.488427	9.69041	-0.949203	-1.28458	-0.0745055	0.0611851	0.0237467	-0.901855	0.508789	0.236084	0.525045	-0.498593	-0.514583	-0.459278	9.88037	-0.717023	-0.263111	-0.105779	0.0393722	-0.00390614	-1.02246	0.511719	-0.0178223	
74	0.76752	0.00690617	-0.0240437	-0.640537	0.0877344	0.558261	10.9879	-0.00040397	-0.0108486	0.0286339	0.0605469	0.348145	-0.938965	0.561613	-0.404518	-0.441175	-0.571245	9.46561	0.350247	2.81818	-0.0163686	0.0364226	0.00352058	-0.766113	0.268066	-0.240234	0.788827	-0.0574847	-0.0615795	-0.608814	1.81357	-0.26029	10.7651	-0.00465762	0.013948	0.0175728	-0.0708008	0.335449	-0.944336	0.0304775	0.342845	0.454102	-0.821778	-5.92422	-7.11344	3.54093	-0.0136696	-0.0137309	-0.018054	0.26709	0.856445	-0.532471	0.689241	-0.0198862	-0.0602068	-0.721753	1.15963	0.655081	9.80129	-0.0097306	0.0460669	-0.0141122	-0.101074	0.337158	-0.924072	0.919595	0.166083	0.246045	0.257338	-4.63745	5.39207	10.3201	0.0390839	0.0152543	0.00445797	0.733154	-0.604004	-0.388184	0.545538	-0.432925	-0.506953	-0.5079	9.72267	0.330399	1.16036	0.0560148	-0.0297996	-0.0125438	-0.919189	0.347168	-0.154053	0.471797	-0.515359	-0.496184	-0.515378	9.8893	0.481145	-0.061089	0.014583	0.0571887	-0.0210338	-0.999023	0.391602	0.0483398	0.458911	-0.520417	-0.436816	-0.572502	9.77851	0.224935	0.693374	0.0215047	-0.0116462	-0.00284429	-1.01147	0.381836	-0.00488281	0.429554	-0.612125	-0.447626	-0.490324	9.51908	-1.0714	-1.37289	-0.111147	0.0395986	-0.00392196	-0.901611	0.504395	0.236328	0.525174	-0.498675	-0.513774	-0.459947	9.8134	-0.751664	-0.210066	-0.00448721	0.0400195	0.00773205	-1.02026	0.513916	-0.0178223	
75	0.767974	0.00696588	-0.0239061	-0.639996	0.233196	0.328387	11.083	0.00840536	0.01855	0.0206993	0.0559082	0.352295	-0.932373	0.561895	-0.404816	-0.440791	-0.571053	9.55862	0.408083	2.8772	-0.0125802	0.0121523	0.00332936	-0.768311	0.265869	-0.237793	0.788894	-0.057048	-0.060552	-0.608873	1.77867	-0.224411	10.7303	-0.0164958	0.0557119	-0.00310941	-0.0664062	0.331055	-0.94873	0.030246	0.342525	0.454513	-0.821693	-5.83291	-7.10314	3.53408	-0.0218809	-0.00165494	-0.0367989	0.269287	0.854492	-0.543213	0.689364	-0.0192905	-0.0588282	-0.721765	1.11735	0.520856	9.53454	-0.0232688	0.0601503	-0.0055973	-0.101074	0.337158	-0.919434	0.919437	0.166401	0.246315	0.257439	-4.51677	5.48028	10.3099	0.0306187	0.0325409	-0.00231464	0.728516	-0.599609	-0.388184	0.545401	-0.433083	-0.507525	-0.507342	9.89051	0.429714	1.23523	0.0486059	-0.0447241	-0.01134	-0.92334	0.344971	-0.1521	0.471682	-0.515483	-0.495552	-0.515967	9.92727	0.311507	-0.174134	-0.0536868	0.0556894	-0.013086	-0.994873	0.395996	0.0458984	0.458714	-0.52085	-0.436457	-0.57254	9.94525	0.133105	0.71964	-0.0381407	0.00493781	-0.00868936	-1.00952	0.388672	-0.000488281	0.429891	-0.611839	-0.447366	-0.490622	9.56969	-1.00236	-1.53052	0.0430428	0.0317104	0.0090258	-0.90625	0.508789	0.231445	0.525761	-0.49831	-0.513785	-0.459661	9.83128	-0.715106	-0.207421	0.053607	0.0324876	0.0133796	-1.01807	0.518311	-0.0200195	
76	0.768234	0.00670937	-0.0242237	-0.639676	0.167923	0.405925	11.0543	-0.0144586	-0.0445141	0.00824507	0.0603027	0.354492	-0.941162	0.56274	-0.404604	-0.440335	-0.570722	9.55656	0.544292	2.87143	0.0145355	0.0466422	0.0166292	-0.766357	0.270264	-0.242676	0.789021	-0.0571686	-0.0593911	-0.608811	1.64181	-0.397861	10.6772	-0.0262499	0.0404086	0.0173559	-0.0664062	0.333252	-0.946533	0.0299458	0.341646	0.454758	-0.821935	-5.67615	-7.01988	3.37053	-0.000491077	-0.0293725	-0.0294803	0.271484	0.856689	-0.536865	0.689448	-0.0206048	-0.0574718	-0.721757	0.836212	0.541115	9.76552	-0.0898083	0.00432275	-0.00792608	-0.101318	0.341553	-0.919434	0.919266	0.1662	0.247048	0.257478	-4.52911	5.54031	10.0232	-0.00441051	0.0426394	-0.0178194	0.737305	-0.604004	-0.388184	0.544827	-0.433797	-0.508686	-0.506183	9.94261	0.413749	1.10588	0.0336255	-0.063889	-0.0084328	-0.932373	0.351318	-0.154297	0.471728	-0.515635	-0.494512	-0.51677	9.80861	0.0180303	-0.0833102	-0.0182789	0.0564562	-0.00600397	-1.00342	0.391602	0.0483398	0.458812	-0.521112	-0.436432	-0.572242	9.8139	0.224972	0.854024	0.0276978	-0.00885661	-0.00640146	-1.00684	0.381836	0.00195312	0.43071	-0.611354	-0.447536	-0.490353	9.69367	-0.91605	-1.39789	0.074382	0.0412699	0.0182807	-0.903809	0.504395	0.231689	0.526316	-0.498288	-0.513252	-0.459644	9.86631	-0.440463	-0.236345	-0.0181434	0.0277361	0.0146968	-1.01343	0.516113	-0.0224609	
77	0.767774	0.00691485	-0.0233483	-0.640257	0.162576	0.243735	10.9843	-0.00606564	0.0616945	-0.0330613	0.0581055	0.352295	-0.932373	0.563929	-0.404907	-0.439722	-0.569806	9.53591	0.353877	3.06889	-0.0116665	0.0216941	0.0516837	-0.761963	0.270264	-0.242676	0.789609	-0.057487	-0.0591435	-0.608042	1.58185	-0.241095	10.7339	-0.0168774	-0.00775155	0.0421579	-0.064209	0.328857	-0.950928	0.0301529	0.340325	0.454825	-0.822438	-5.64384	-7.26532	3.51293	0.016542	-0.0444282	-0.0114199	0.26709	0.856445	-0.539062	0.689397	-0.0203564	-0.0575768	-0.721805	0.986419	0.567825	9.89547	0.0417011	0.0170693	-0.0228109	-0.105713	0.34375	-0.921631	0.919263	0.166215	0.246894	0.257628	-4.61183	5.68985	10.3111	-0.000796476	0.000290066	-0.00731082	0.73291	-0.601807	-0.385986	0.54457	-0.434387	-0.509816	-0.504815	9.90061	0.322148	1.10228	0.041145	-0.0507258	0.0116327	-0.925781	0.349365	-0.149902	0.472364	-0.515109	-0.493806	-0.517389	9.85523	0.16592	-0.269423	0.0133495	0.0638734	-0.0067298	-1.00122	0.389648	0.0415039	0.458744	-0.52154	-0.435956	-0.57227	10.1278	0.216172	0.523302	-0.0329484	0.0179261	-0.0055939	-1.00708	0.391113	-0.000488281	0.430308	-0.611933	-0.445752	-0.491608	9.54886	-0.819846	-1.4527	-0.108719	0.0252439	0.0130195	-0.899658	0.508789	0.231445	0.526411	-0.498603	-0.512506	-0.460026	9.92426	-0.580284	-0.200605	-0.0348763	0.0252526	0.00831948	-1.02026	0.513916	-0.0222168	
78	0.76754	0.00781287	-0.0235831	-0.640519	0.135053	0.707005	10.9545	0.0270451	-0.0110427	-0.0104274	0.0603027	0.354492	-0.93457	0.564539	-0.405124	-0.438764	-0.569786	9.49022	0.363164	2.94673	-0.00547093	0.0379841	0.00577981	-0.76416	0.270264	-0.235596	0.790049	-0.0580001	-0.0585713	-0.607477	1.52497	-0.2742	10.9007	-0.0277316	0.0211473	0.0237213	-0.0686035	0.339844	-0.946777	0.0302892	0.339255	0.455107	-0.822719	-5.83215	-7.28627	3.42255	-0.00852057	-0.0341084	-0.0264451	0.27124	0.861084	-0.536865	0.689234	-0.0192595	-0.0569752	-0.722039	1.00041	0.566891	9.86518	-0.000511949	0.0668997	-0.0302171	-0.0925293	0.337158	-0.924072	0.919221	0.167308	0.246254	0.257683	-4.58821	5.61268	10.3641	0.0514727	-0.0233315	0.00569632	0.735352	-0.604004	-0.383789	0.544307	-0.434829	-0.510493	-0.504035	9.80696	0.35974	1.15132	-0.0176644	-0.0457787	-0.0228698	-0.927734	0.347168	-0.143555	0.473227	-0.514589	-0.494236	-0.516706	9.8237	0.172983	-0.270153	0.0606906	0.0196616	-0.0088163	-0.996826	0.391846	0.0344238	0.459737	-0.521052	-0.436133	-0.571782	9.90457	0.319828	0.771194	0.0590212	0.0257825	-0.00130373	-1.00464	0.384277	0.00415039	0.43056	-0.612085	-0.445239	-0.491663	9.58633	-1.08837	-1.50167	0.0239257	0.0342839	0.0247191	-0.897461	0.508789	0.227051	0.526581	-0.498783	-0.511846	-0.460371	9.85087	-0.396699	-0.256878	-0.00726369	0.0299281	0.00903593	-1.01807	0.516113	-0.0246582	
79	0.767391	0.00774636	-0.0218564	-0.64076	0.147907	0.394984	10.9855	-0.0566462	0.0581184	-0.0191538	0.0622559	0.356689	-0.93457	0.565045	-0.40452	-0.438572	-0.569861	9.49595	0.333011	2.94238	0.00223684	0.0376678	-0.0217084	-0.759766	0.272461	-0.240479	0.790167	-0.0573747	-0.0574473	-0.607491	1.64382	-0.250059	10.8363	-0.00612457	0.0537907	0.00431735	-0.0620117	0.331055	-0.94873	0.0298693	0.338491	0.456162	-0.822465	-5.77025	-7.26335	3.55254	-0.044854	0.00662358	-0.0416201	0.268799	0.863037	-0.534668	0.688674	-0.0180959	-0.0555525	-0.722713	0.881937	0.51158	9.749	-0.022492	0.079629	-0.0503846	-0.0969238	0.34375	-0.921631	0.918997	0.168948	0.245794	0.257849	-4.54795	5.64625	10.313	0.062144	-0.00822994	0.0131741	0.72876	-0.604004	-0.385986	0.54438	-0.434837	-0.511181	-0.503251	9.94146	0.293251	1.10558	0.0589044	-0.00191371	-0.0150699	-0.925537	0.344971	-0.145508	0.473665	-0.514219	-0.493684	-0.517201	9.79091	0.206321	-0.144109	-0.0261614	0.0564021	-0.0183314	-1.00537	0.389648	0.0390625	0.460338	-0.520832	-0.435859	-0.571707	9.90397	0.169364	0.695691	0.0258988	0.0260304	-0.00290419	-0.999756	0.38208	-0.000244141	0.431353	-0.611455	-0.445409	-0.491599	9.57563	-0.865804	-1.41012	0.0426943	0.0314486	-0.000522672	-0.899658	0.510986	0.229248	0.526487	-0.499197	-0.51105	-0.460913	9.86244	-0.674466	-0.199646	-0.0216612	0.0238076	0.0077783	-1.01807	0.518311	-0.0178223	
80	0.76713	0.00774966	-0.0209111	-0.641104	0.105757	0.403016	10.98	-0.0479385	0.0536685	-0.0362436	0.0622559	0.358887	-0.932373	0.565206	-0.404242	-0.438259	-0.57014	9.53298	0.361695	2.89589	-0.0124537	0.0554617	-0.0233317	-0.759766	0.272461	-0.240479	0.790097	-0.0569307	-0.0568519	-0.607678	1.59509	-0.233607	10.8016	-0.000339619	0.065102	-0.013597	-0.0578613	0.337402	-0.946533	0.0290896	0.338381	0.457545	-0.821769	-5.71866	-7.16587	3.4625	-0.0395596	0.0302147	-0.0450761	0.264404	0.863037	-0.532471	0.688581	-0.0175663	-0.0547394	-0.722877	0.900207	0.361406	9.67112	-0.0190263	0.082552	-0.0292925	-0.0925293	0.341553	-0.921631	0.918418	0.170852	0.246419	0.258062	-4.58	5.56203	10.1132	0.0772624	0.0366465	0.0129837	0.733154	-0.608154	-0.385742	0.544139	-0.434918	-0.511335	-0.503285	9.92995	0.43064	0.873938	0.00791473	0.00168019	-0.0205397	-0.923584	0.349365	-0.143555	0.474293	-0.513755	-0.493739	-0.517034	9.84217	0.16125	-0.0798141	0.05556	0.0378087	-0.00655452	-0.992432	0.387451	0.0415039	0.460722	-0.520687	-0.43578	-0.571591	9.93852	0.201862	0.717586	0.0270485	0.0262216	0.0011233	-1.0022	0.384277	-0.00268555	0.43181	-0.611136	-0.44548	-0.491529	9.60909	-0.837191	-1.33876	0.0404462	0.034964	0.00772304	-0.899658	0.513184	0.231445	0.526881	-0.499135	-0.510643	-0.460983	9.8174	-0.476913	-0.182408	-0.0242534	0.023143	0.00987133	-1.01587	0.516113	-0.0246582	
81	0.766993	0.00825374	-0.0180508	-0.641349	-0.0183696	0.408556	11.1452	-0.030309	0.0465229	0.0102854	0.0664062	0.363281	-0.93042	0.565469	-0.404133	-0.437427	-0.570596	9.52934	0.38199	2.90215	-0.014731	0.0253912	-0.00659685	-0.762207	0.274658	-0.245117	0.789785	-0.0558789	-0.0551325	-0.60834	1.65217	-0.375583	10.6621	0.0233502	0.052888	-0.0232244	-0.0600586	0.335205	-0.942139	0.0279995	0.338301	0.458283	-0.821429	-5.66439	-7.07633	3.48511	-0.0143667	0.0270695	-0.0465408	0.264404	0.863037	-0.532471	0.689186	-0.0173144	-0.0529321	-0.722441	0.836777	0.458031	9.63858	-0.0406097	0.0327295	0.0168665	-0.0949707	0.345947	-0.917236	0.917801	0.171336	0.247536	0.258867	-4.51697	5.56458	10.1217	0.012341	0.0717101	0.0212765	0.729004	-0.608154	-0.379395	0.544617	-0.434655	-0.510655	-0.503685	9.89402	0.383007	0.975465	0.016755	0.0445397	-0.0123063	-0.932129	0.344971	-0.141357	0.47502	-0.513348	-0.493631	-0.516874	9.87855	0.246651	0.0678694	0.00645235	0.0414721	-0.00273251	-0.996826	0.391846	0.0366211	0.461507	-0.520446	-0.435618	-0.5713	9.93779	0.27715	0.86012	-0.00524549	0.0155947	-0.00696946	-1.00464	0.386475	-0.000488281	0.431781	-0.611478	-0.444651	-0.491879	9.68059	-0.945262	-1.43576	-0.0227405	0.0231274	0.0122418	-0.90625	0.506592	0.229248	0.526644	-0.499672	-0.509888	-0.461507	9.92074	-0.543371	-0.179381	-0.0356904	0.0183267	0.00357537	-1.01831	0.520508	-0.0292969	
82	0.767198	0.00836218	-0.0175198	-0.641116	0.0159815	0.317591	11.1409	-0.0194405	0.0347573	0.0234285	0.0644531	0.356689	-0.93457	0.565612	-0.404089	-0.437195	-0.570662	9.6249	0.366624	2.89236	-0.013297	0.0335376	-0.00917976	-0.761963	0.272461	-0.247314	0.789709	-0.0556281	-0.0548069	-0.608491	1.71604	-0.301423	10.6858	0.00110693	0.038581	-0.0115342	-0.0556641	0.333008	-0.94873	0.0275626	0.338191	0.458494	-0.821371	-5.62201	-7.16756	3.47179	-0.00275097	0.0170018	-0.0373748	0.262207	0.865234	-0.532471	0.689615	-0.017849	-0.0526063	-0.722042	0.944746	0.44262	9.70142	-0.0461721	-0.00407279	0.0365229	-0.0969238	0.34375	-0.914795	0.917514	0.171084	0.248206	0.259409	-4.56116	5.63393	10.0801	-0.00996426	0.0824502	0.0162346	0.730957	-0.606201	-0.379395	0.545202	-0.434173	-0.509811	-0.504323	9.93876	0.324027	1.07097	0.00136891	0.0649911	-0.010667	-0.927979	0.349365	-0.1521	0.47501	-0.513499	-0.493226	-0.51712	9.94861	0.276178	-0.159659	-0.0277813	0.0359727	-0.00403011	-1.00562	0.394043	0.0390625	0.461397	-0.520706	-0.435213	-0.571461	9.98115	0.128142	0.760086	-0.0326739	0.0142766	-0.00401548	-1.00708	0.386475	-0.00488281	0.431826	-0.611522	-0.444323	-0.492082	9.66943	-0.887673	-1.46666	-0.0171894	0.0330709	0.0151935	-0.899658	0.513184	0.233643	0.52667	-0.499809	-0.509582	-0.461667	9.92005	-0.512628	-0.18962	-0.0213545	0.0216405	0.00707717	-1.01831	0.522705	-0.0202637	
83	0.767532	0.00866753	-0.0169177	-0.640729	0.0169475	0.470723	11.0486	-0.00367543	0.0231808	0.0181985	0.0644531	0.358887	-0.932373	0.565808	-0.404062	-0.436996	-0.57064	9.55542	0.391483	2.92885	-0.00811672	0.0301342	-0.00322768	-0.759766	0.272461	-0.238037	0.789921	-0.0560986	-0.0540939	-0.608237	1.64546	-0.537906	10.7013	-0.0186129	0.0119064	0.0227099	-0.0534668	0.335205	-0.942139	0.0274843	0.337388	0.459036	-0.821401	-5.69669	-7.19319	3.52181	-0.0098155	-0.0241871	-0.0112727	0.257568	0.865234	-0.532471	0.690595	-0.018305	-0.0528527	-0.721075	0.941622	0.614373	9.81945	0.00871388	-0.0114183	0.0398324	-0.0883789	0.345947	-0.919434	0.916947	0.17067	0.249401	0.260537	-4.59358	5.64	10.2523	-0.00381076	0.0356283	0.00987796	0.729004	-0.608154	-0.379395	0.545552	-0.434035	-0.509672	-0.504203	9.86227	0.25288	1.07441	0.0374532	0.0216901	-0.00992399	-0.923584	0.349365	-0.147949	0.475447	-0.513256	-0.492731	-0.517431	9.81944	0.090614	-0.132049	0.017413	0.0477121	-0.011165	-0.999023	0.389648	0.0368652	0.461862	-0.520617	-0.435085	-0.571265	9.93647	0.190885	0.704844	0.0276973	0.0189478	-0.00548371	-1.00244	0.386719	-0.00488281	0.431227	-0.612123	-0.443218	-0.492855	9.64095	-0.871328	-1.30924	-0.0659499	0.0264065	0.0132712	-0.901611	0.506592	0.229248	0.525528	-0.501225	-0.508105	-0.463058	9.86184	-0.562446	-0.136081	-0.119089	0.0148997	0.00242195	-1.02051	0.520508	-0.0246582	
84	0.768041	0.00863361	-0.016306	-0.640134	0.00279541	0.484504	11.0376	-0.0191112	0.0134794	0.0352002	0.0710449	0.361084	-0.936768	0.566429	-0.403895	-0.436193	-0.570756	9.51146	0.314609	2.9363	-0.000263857	0.0238498	0.000947927	-0.766357	0.274658	-0.242676	0.790614	-0.0558649	-0.0538731	-0.607376	1.66053	-0.304388	10.8361	-0.00464064	0.0230577	0.0479973	-0.0556641	0.337402	-0.946533	0.0276739	0.33685	0.459319	-0.821458	-5.66265	-7.19059	3.51482	-0.0208225	-0.0363363	-0.0139548	0.262207	0.863037	-0.536865	0.691175	-0.0182693	-0.0524066	-0.720553	0.960805	0.567076	9.83065	-0.00919618	0.0393784	0.0123217	-0.0949707	0.345947	-0.919434	0.916815	0.170816	0.249388	0.260919	-4.56158	5.64409	10.2984	0.00619213	0.0190876	0.0187217	0.727051	-0.614746	-0.381348	0.545603	-0.434029	-0.509775	-0.50405	9.83102	0.258271	1.09691	0.0271444	0.00420314	-0.0117152	-0.921387	0.349365	-0.147705	0.476223	-0.512536	-0.49275	-0.517414	9.76247	0.0837917	-0.145688	0.0372863	0.0474706	-0.0190382	-0.999023	0.391846	0.0344238	0.462193	-0.520498	-0.434847	-0.571286	9.84967	0.273416	0.746983	0.0139028	0.021693	-0.0127566	-1.00488	0.391113	-0.00488281	0.430841	-0.612415	-0.442387	-0.493577	9.55006	-0.919762	-1.46944	-0.0437779	0.0294346	0.00371922	-0.901855	0.508789	0.231445	0.524536	-0.502306	-0.506911	-0.464318	9.93346	-0.458843	-0.229553	-0.117377	0.0185511	-0.00710064	-1.01587	0.516113	-0.0178223	
85	0.768897	0.00822928	-0.0160416	-0.639118	0.00408236	0.369214	11.0433	-0.0116585	-0.0101629	0.0505538	0.0688477	0.358887	-0.932373	0.567077	-0.403717	-0.436155	-0.570267	9.49145	0.300692	2.91919	0.0150915	0.0227344	0.00499726	-0.759766	0.270264	-0.247314	0.79125	-0.0564677	-0.0532233	-0.60655	1.71706	-0.350567	10.7239	-0.0211273	0.00840311	0.0425391	-0.0537109	0.341553	-0.942139	0.028035	0.335916	0.459827	-0.821544	-5.74358	-7.16178	3.42116	-0.0202431	-0.0315064	-0.0106833	0.262451	0.86084	-0.539062	0.691525	-0.0176673	-0.051953	-0.720266	0.944574	0.401013	9.65219	0.0138751	0.0333694	0.00417894	-0.0883789	0.345947	-0.914795	0.916559	0.171197	0.24934	0.261613	-4.58711	5.61456	10.1245	0.00940802	0.0170348	0.0164441	0.729004	-0.608154	-0.379395	0.546181	-0.433485	-0.510107	-0.503556	9.89774	0.329846	0.930155	0.0642972	0.0229405	-0.00895999	-0.925781	0.347168	-0.149902	0.476655	-0.5119	-0.492727	-0.517666	9.82692	0.27659	-0.101627	0.00793964	0.0483622	-0.0255119	-1.00562	0.394043	0.0297852	0.462047	-0.520527	-0.434252	-0.571829	9.86963	0.177329	0.83761	-0.0175527	0.0345014	-0.0264551	-1.00708	0.391113	-0.00488281	0.430176	-0.612738	-0.441788	-0.494291	9.61042	-1.07387	-1.39751	-0.0411481	0.0264689	0.00195292	-0.904053	0.506592	0.231689	0.523561	-0.503316	-0.505712	-0.465631	9.85461	-0.629997	-0.146372	-0.0793437	0.0206295	-0.00427277	-1.01123	0.516113	-0.0178223	
