40	Head	00b4120a												Throax	00b411e8												LUpArm	00b411d9												LFoArm	00b41148												RUpArm	00b411db												RFoArm	00b41204												Waist	00b411f7												Lthigh	00b411f4												Lshank	00b4111b												Rthigh	00b411c8												Rshank	00b411ee												
PacketCount	q0	q1	q2	q3	accX	accY	accZ	gyrX	gyrY	gyrZ	magX	magY	magZ	q0	q1	q2	q3	accX	accY	accZ	gyrX	gyrY	gyrZ	magX	magY	magZ	q0	q1	q2	q3	accX	accY	accZ	gyrX	gyrY	gyrZ	magX	magY	magZ	q0	q1	q2	q3	accX	accY	accZ	gyrX	gyrY	gyrZ	magX	magY	magZ	q0	q1	q2	q3	accX	accY	accZ	gyrX	gyrY	gyrZ	magX	magY	magZ	q0	q1	q2	q3	accX	accY	accZ	gyrX	gyrY	gyrZ	magX	magY	magZ	q0	q1	q2	q3	accX	accY	accZ	gyrX	gyrY	gyrZ	magX	magY	magZ	q0	q1	q2	q3	accX	accY	accZ	gyrX	gyrY	gyrZ	magX	magY	magZ	q0	q1	q2	q3	accX	accY	accZ	gyrX	gyrY	gyrZ	magX	magY	magZ	q0	q1	q2	q3	accX	accY	accZ	gyrX	gyrY	gyrZ	magX	magY	magZ	q0	q1	q2	q3	accX	accY	accZ	gyrX	gyrY	gyrZ	magX	magY	magZ	
0	-0.0721058	-0.36696	-0.022797	0.927158	-7.23718	0.15523	7.86635	-0.0106087	-0.000473375	-0.00536954	0.514893	0.223633	-0.994629	-0.0795066	-0.20873	-0.0193918	0.974543	-4.10652	-0.0100653	9.1476	-0.0445685	0.00256121	-0.0288174	0.228271	0.119385	-1.05688	-0.22971	-0.216217	0.200176	0.927585	-3.36006	4.91212	8.76603	-0.0182455	0.00863548	-0.00298371	-0.0383301	-0.414795	-1.07275	0.170994	-0.384834	0.359939	0.832531	-7.46636	4.49964	4.39368	-0.0219304	0.00380028	-0.00136609	0.533691	-0.650146	-0.662109	-0.249288	-0.0879713	-0.324969	0.908026	-3.14277	-5.36167	7.48535	0.0281768	0.00810494	-0.00701607	0.0979004	0.80127	-0.833008	-0.638993	0.00395403	-0.415418	0.64738	-6.16528	-6.1695	7.72964	0.0194972	0.0212755	-0.0199801	0.493408	0.942139	-0.311279	-0.185055	0.0818677	0.0067413	0.979289	1.80192	-0.14312	10.4275	2.25352e-05	-0.0215589	-0.0112008	-0.494873	0.188721	-1.00366	-0.166468	-0.837202	-0.244984	0.459744	-7.4998	0.839909	-4.77208	0.00243139	0.0292452	-0.0155902	0.993652	0.222656	0.464844	-0.0332085	0.146375	-0.0379785	0.987942	2.98565	-0.723507	10.1117	0.0223202	0.0266809	-0.00974532	-0.658447	0.156738	-0.800781	-0.0905368	0.0785231	-0.198514	0.972743	1.00066	-3.98537	9.55786	-0.00432933	0.0221934	0.00437592	-0.437256	0.457275	-0.840576	0.0617454	0.0354851	-0.0436429	0.996506	0.703272	-0.78769	9.72446	0.0292645	0.0147381	-0.0011368	-0.532227	-0.00170898	-1.02271	
1	-0.0722022	-0.36676	-0.0229	0.927227	-7.19119	0.149733	7.89366	-0.00596232	-0.0112695	0.00390577	0.517334	0.219482	-0.994629	-0.079543	-0.208288	-0.0192591	0.974637	-4.01119	-0.0148005	9.20848	0.0156546	-0.00274993	-0.0127671	0.228271	0.119385	-1.05225	-0.229385	-0.216311	0.200688	0.927532	-3.3441	4.95059	8.75292	0.0365286	-0.00100766	-0.0117675	-0.0361328	-0.408203	-1.07764	0.170701	-0.384686	0.359843	0.832701	-7.44036	4.42506	4.40344	0.00350168	0.00194009	0.0174213	0.522705	-0.654541	-0.662109	-0.249454	-0.087826	-0.324838	0.908041	-3.09769	-5.04978	7.61429	-0.0191459	-0.000261013	-0.0111125	0.0910645	0.807617	-0.830566	-0.638747	0.0040041	-0.415516	0.647559	-6.09861	-6.24778	7.71169	-0.00400862	0.0172645	-0.0296811	0.493652	0.939941	-0.309082	-0.185548	0.0812568	0.00767717	0.97924	1.86525	-0.102649	10.5601	0.0479528	0.0349556	-0.00607337	-0.500977	0.179932	-0.999268	-0.166346	-0.837187	-0.245235	0.45968	-7.52119	0.772449	-4.7633	0.00544808	0.0152199	-0.0291729	0.989502	0.220459	0.455566	-0.0336766	0.146798	-0.0378199	0.987869	3.02252	-0.743188	10.0544	0.00741249	-0.0204291	-0.00605209	-0.663086	0.158936	-0.796387	-0.0905415	0.0783996	-0.198846	0.972685	1.0215	-4.10609	9.53923	-0.0123354	0.0121006	0.00371135	-0.44165	0.457275	-0.835938	0.0618132	0.0355134	-0.0435132	0.996506	0.753891	-0.70876	9.78811	-0.00964714	0.00448538	-0.00768833	-0.531982	-0.00610352	-1.03857	
2	-0.0720779	-0.366545	-0.0228029	0.927324	-7.18505	0.161668	7.89162	0.0108302	-0.0114432	-0.011952	0.517334	0.22168	-0.996826	-0.0796783	-0.208674	-0.0188534	0.974552	-4.0576	0.0467024	9.19923	-0.00330695	0.0312998	-0.00874321	0.22583	0.121582	-1.06152	-0.229515	-0.216248	0.200829	0.927485	-3.28771	4.99506	8.82541	0.000357912	0.00426757	0.012148	-0.0427246	-0.408203	-1.06836	0.170459	-0.38434	0.360145	0.83278	-7.4297	4.53741	4.43502	0.0100255	-0.00105288	0.0196846	0.529053	-0.650146	-0.662109	-0.249892	-0.0874838	-0.326524	0.907349	-3.09635	-5.35309	7.54159	-0.0701552	0.0103037	-0.00635473	0.0891113	0.803223	-0.828369	-0.638604	0.00426058	-0.415351	0.647804	-6.08702	-6.38186	7.7296	0.00658547	0.00169839	-0.0289258	0.493652	0.937744	-0.315674	-0.185776	0.0834062	0.00854972	0.979009	1.85223	-0.0737352	10.2108	0.0408462	-0.0906114	-0.0103942	-0.503174	0.179932	-1.00146	-0.166845	-0.837055	-0.245098	0.459815	-7.48242	0.687904	-4.71146	-0.0100936	0.00461773	0.00249919	0.989258	0.227051	0.469482	-0.0338655	0.147935	-0.037861	0.987692	3.17119	-0.772567	10.0697	-0.00109073	-0.0366265	-0.0220111	-0.665283	0.1521	-0.793945	-0.0904318	0.0783629	-0.199047	0.972657	1.05662	-4.14432	9.59155	-0.0161471	0.00840949	-0.00109441	-0.432861	0.457275	-0.83374	0.0618835	0.0355972	-0.0442659	0.996466	0.782107	-0.845366	9.76159	-0.0316085	0.00251922	-0.00609129	-0.523193	-0.00146484	-1.0271	
3	-0.0717829	-0.366528	-0.0227094	0.927356	-7.20226	0.243628	7.88285	0.00400809	-3.38968e-05	-0.00820214	0.51709	0.223633	-0.996826	-0.0798848	-0.208431	-0.0189578	0.974585	-4.12594	-0.023974	9.18389	-0.016149	-0.00253986	-0.0131951	0.22583	0.121582	-1.06152	-0.229793	-0.216332	0.201197	0.927316	-3.3138	4.97483	8.80904	0.01511	0.00546308	0.0136046	-0.0361328	-0.412598	-1.07056	0.170266	-0.384026	0.360182	0.832948	-7.4777	4.66796	4.46121	-0.0107443	-0.00495727	0.0100857	0.529297	-0.654541	-0.666504	-0.249968	-0.0872764	-0.327124	0.907132	-3.10664	-5.36095	7.53019	-0.0185335	0.00823324	-0.0192744	0.0932617	0.807617	-0.82373	-0.638678	0.00441787	-0.415027	0.647938	-6.14274	-6.41787	7.71636	0.00880461	0.00202466	-0.0186576	0.493652	0.939941	-0.311279	-0.186116	0.0846242	0.00846117	0.97884	1.91045	-0.0813952	10.3215	0.00293602	-0.0189613	-0.00285401	-0.505615	0.186523	-0.997314	-0.167384	-0.837013	-0.244883	0.459808	-7.52247	0.810017	-4.66392	-0.00235958	0.0139974	-0.00106415	0.991455	0.224854	0.457764	-0.0336747	0.148688	-0.0380817	0.987577	3.24354	-0.749292	10.1418	-0.0103788	-0.0114791	-0.0287325	-0.660889	0.158936	-0.793945	-0.0903898	0.0784237	-0.198909	0.972684	1.02866	-4.19655	9.4892	0.00724533	0.0146402	-0.00106392	-0.437256	0.455078	-0.838135	0.061874	0.0356871	-0.0448855	0.996435	0.757632	-0.942268	9.77552	-0.0185135	0.00299963	-0.00274068	-0.532471	0.00488281	-1.02954	
4	-0.0717648	-0.366386	-0.022714	0.927413	-7.18449	0.187469	7.90375	-0.00136992	-0.00906123	-0.00296153	0.517334	0.219238	-0.990479	-0.0799338	-0.208078	-0.0189942	0.974655	-4.03645	-0.0412973	9.21956	-0.0113919	0.00604057	-0.0178223	0.226074	0.115234	-1.05444	-0.230074	-0.216393	0.200907	0.927295	-3.31716	5.1111	8.76155	-0.0344458	0.0114537	-0.000622429	-0.0405273	-0.414795	-1.07739	0.170231	-0.383992	0.359819	0.833128	-7.44834	4.6197	4.41057	-0.0108315	0.00339351	-0.00466039	0.531494	-0.654541	-0.664307	-0.250204	-0.08716	-0.327691	0.906874	-3.13075	-5.48512	7.52125	-0.0227838	0.0084333	-0.00163005	0.0888672	0.807617	-0.830566	-0.638779	0.0043258	-0.414833	0.647963	-6.21455	-6.44323	7.74951	0.0105323	0.0123904	-0.0118559	0.487061	0.939941	-0.313477	-0.186457	0.0853136	0.00867752	0.978713	1.94886	-0.108377	10.3866	0.0290172	-0.0107114	-0.00884544	-0.500977	0.179932	-0.999268	-0.167507	-0.837203	-0.244817	0.459453	-7.54061	0.805343	-4.72522	-0.00272183	0.0319514	-0.0111959	0.989502	0.220459	0.462646	-0.0335642	0.148506	-0.0384321	0.987594	3.23687	-0.770537	10.1458	-0.00716187	0.0280948	-0.0197245	-0.665527	0.161377	-0.796387	-0.0904234	0.0784031	-0.198816	0.972702	1.01234	-4.13392	9.5684	0.00275248	0.012232	0.00528596	-0.439697	0.46167	-0.835938	0.0618485	0.0357685	-0.0449898	0.996429	0.779343	-0.922302	9.72808	0.0018307	0.00573625	-0.00236124	-0.532227	-0.00390625	-1.0293	
5	-0.0717306	-0.366324	-0.0228396	0.927437	-7.19278	0.193315	7.90539	-0.00498687	-0.00193641	-0.00421987	0.51709	0.221436	-0.992432	-0.0801199	-0.208229	-0.0191172	0.974606	-4.01118	-0.0581814	9.20676	-0.0161791	0.0261893	-0.0105569	0.223633	0.125977	-1.05225	-0.230157	-0.216384	0.20026	0.927416	-3.26562	4.8715	8.77436	0.0020151	0.00910142	-0.00469435	-0.0383301	-0.4104	-1.07764	0.170158	-0.384285	0.359505	0.833143	-7.43429	4.55523	4.39196	-0.0153052	0.0161574	-0.00397471	0.531494	-0.654541	-0.670898	-0.250461	-0.0871782	-0.327546	0.906853	-3.15002	-5.48576	7.51258	0.00863078	0.00168434	0.00468744	0.0957031	0.80542	-0.828369	-0.638738	0.00393442	-0.414522	0.648205	-6.12581	-6.3341	7.72835	0.0241965	0.0172948	-0.0183356	0.493896	0.935547	-0.31543	-0.186877	0.0850687	0.00919025	0.97865	1.94239	-0.117334	10.3425	0.0346519	0.0306096	-0.00455715	-0.505371	0.184326	-1.00146	-0.167472	-0.837359	-0.245142	0.459009	-7.50245	0.816465	-4.69939	-0.00173748	0.0419539	-0.0291613	0.991455	0.227051	0.462402	-0.033975	0.147675	-0.037979	0.987722	3.11356	-0.768813	10.115	0.0336493	0.0429189	-0.00462199	-0.66333	0.161377	-0.796387	-0.0905325	0.0784444	-0.198735	0.972705	1.03779	-4.11561	9.54116	0.00406043	0.0110468	0.0067697	-0.439697	0.459473	-0.835938	0.0617925	0.0357692	-0.0446777	0.996447	0.764271	-0.823713	9.75185	0.0161685	0.0117675	-0.0027416	-0.527832	0.00292969	-1.03174	
6	-0.0717567	-0.366272	-0.0228781	0.927455	-7.19972	0.181909	7.90049	-0.000433215	-0.00575347	-0.00406571	0.51709	0.22168	-0.994629	-0.0802413	-0.208233	-0.0192793	0.974591	-4.09132	-0.0193002	9.22826	-0.0236678	0.0168983	-0.0111876	0.228027	0.123779	-1.05225	-0.229851	-0.216692	0.20135	0.927185	-3.36719	5.06798	8.79893	0.0410792	0.00162075	-0.00584443	-0.0383301	-0.408203	-1.06616	0.169876	-0.384541	0.35918	0.833223	-7.45945	4.46117	4.41625	-0.0151616	0.0146461	0.00441269	0.533691	-0.650146	-0.664307	-0.250895	-0.0874495	-0.32612	0.907221	-3.12088	-5.26954	7.49238	0.0386661	-0.00119578	-0.000880774	0.0935059	0.801025	-0.826172	-0.638605	0.00361845	-0.414324	0.648464	-6.07329	-6.3069	7.76295	0.0141843	0.0195829	-0.0216049	0.495605	0.942139	-0.315674	-0.187299	0.0849016	0.0098496	0.978578	1.89309	-0.054557	10.3039	0.0561381	0.0206336	-0.0082783	-0.503174	0.182129	-0.999268	-0.167354	-0.837525	-0.245489	0.458562	-7.48654	0.746569	-4.79663	-0.00687407	0.0328304	-0.0235155	0.991211	0.229248	0.464844	-0.0344541	0.146926	-0.0371834	0.987848	3.07901	-0.726581	10.0646	0.0378829	0.0348002	-0.00950114	-0.665527	0.156738	-0.793945	-0.0905248	0.0784072	-0.198704	0.972715	1.03428	-4.16593	9.57916	0.00412269	0.0157782	0.00215955	-0.439697	0.459473	-0.831299	0.0617491	0.0357621	-0.044514	0.996457	0.758677	-0.811258	9.73719	0.000806796	0.00985229	-0.00193512	-0.530029	-0.00170898	-1.02954	
7	-0.071866	-0.366164	-0.0227822	0.927491	-7.18421	0.155014	7.89776	0.00154241	-0.0048306	0.00525805	0.519287	0.223633	-0.992432	-0.0804064	-0.207878	-0.0196534	0.974646	-4.06266	-0.00900868	9.2184	-0.027712	-0.00594762	-0.0182192	0.223633	0.123779	-1.06177	-0.229806	-0.216762	0.201157	0.927221	-3.37596	4.99543	8.80525	-0.00689508	0.00955046	-0.006069	-0.0383301	-0.416992	-1.0752	0.169717	-0.384697	0.358836	0.833331	-7.48226	4.55856	4.43403	-0.0222343	0.00680081	-0.000835172	0.533691	-0.649902	-0.673096	-0.251017	-0.087504	-0.325899	0.907262	-3.07698	-5.16649	7.60337	0.0175589	0.00533562	-0.00465934	0.0935059	0.80542	-0.826172	-0.638469	0.00333555	-0.414063	0.648766	-6.12193	-6.35293	7.7396	0.0185759	0.0155057	-0.022262	0.491455	0.937744	-0.315674	-0.18753	0.0845654	0.0102474	0.978558	1.92143	-0.0790498	10.3387	0.0325376	0.00844261	-0.0129203	-0.505371	0.184326	-1.00146	-0.167415	-0.837582	-0.245381	0.458495	-7.51823	0.782098	-4.77551	0.0143334	0.0136858	-0.0131209	0.993652	0.224854	0.462402	-0.0346306	0.146504	-0.0368675	0.987916	3.07732	-0.733409	10.1375	0.00899334	0.0231049	-0.0183566	-0.665527	0.156738	-0.800781	-0.090506	0.0783639	-0.198434	0.972775	1.08139	-4.03056	9.53068	0.0125984	0.0143199	0.00343289	-0.441895	0.459473	-0.838135	0.0617732	0.0357279	-0.044539	0.996456	0.776432	-0.815478	9.76443	-0.00289116	0.00838747	-0.00409389	-0.525635	0.000732422	-1.02954	
8	-0.071887	-0.366146	-0.0227008	0.927499	-7.19354	0.143242	7.86905	0.00513854	-0.00390445	0.00200661	0.514893	0.223633	-0.994629	-0.080254	-0.20809	-0.0200982	0.974604	-4.02262	-0.0179422	9.20099	-0.0201433	0.0179743	-0.0181022	0.228027	0.121582	-1.05444	-0.229683	-0.216835	0.201167	0.927232	-3.29311	5.04236	8.8062	0.00707675	0.00727562	-0.0114191	-0.0361328	-0.416992	-1.07275	0.169605	-0.384724	0.358656	0.833419	-7.44914	4.54588	4.40766	-0.0172567	0.00562756	0.00360888	0.531494	-0.652344	-0.673096	-0.251364	-0.087577	-0.326065	0.907099	-3.10771	-5.37567	7.52364	-0.00793707	0.0057289	-0.000339338	0.0979004	0.80542	-0.828369	-0.638377	0.0031491	-0.413881	0.648975	-6.12344	-6.33808	7.7697	0.0265415	0.0180007	-0.0252262	0.491211	0.944336	-0.311523	-0.187682	0.0845438	0.0106104	0.978527	1.89856	-0.0546892	10.3267	0.0441687	0.0109862	-0.0117527	-0.504883	0.173584	-0.999023	-0.167382	-0.837561	-0.245377	0.458546	-7.51588	0.787397	-4.7294	0.00919954	0.0126967	-0.0195241	0.997803	0.227051	0.462402	-0.034696	0.146395	-0.0367805	0.987933	3.09061	-0.718075	10.1098	0.0100341	0.0184327	-0.0175248	-0.660889	0.156738	-0.802979	-0.0904428	0.0783322	-0.198637	0.972742	1.03192	-4.16754	9.53941	-0.0042284	0.0179941	-0.0016867	-0.439697	0.46167	-0.838379	0.0617729	0.0357111	-0.0446749	0.99645	0.768479	-0.823709	9.76821	-0.0098025	0.00851918	-0.00384438	-0.527588	-0.00390625	-1.0293	
9	-0.0719144	-0.366139	-0.0224726	0.927505	-7.19438	0.209118	7.90146	0.00796756	-0.00202955	0.0032044	0.51709	0.223633	-0.996826	-0.0803483	-0.208276	-0.0202727	0.974553	-4.06093	-0.0183052	9.18938	-0.0146801	0.0209978	-0.0152365	0.230225	0.121582	-1.05225	-0.229597	-0.216969	0.201139	0.927229	-3.35649	4.99074	8.75279	0.00920683	0.00950493	-0.00373814	-0.0383301	-0.412598	-1.073	0.169225	-0.384778	0.358283	0.833632	-7.46135	4.52072	4.37932	-0.0218298	0.00705858	0.00963396	0.526611	-0.645752	-0.666504	-0.251551	-0.0877098	-0.325535	0.907224	-3.1625	-5.24325	7.53796	0.0242394	0.00281383	-0.00908659	0.0957031	0.801025	-0.826172	-0.638047	0.00287472	-0.41368	0.649428	-6.13973	-6.28938	7.75847	0.0172482	0.0222579	-0.0308462	0.491455	0.937744	-0.319824	-0.187897	0.0841046	0.0109743	0.97852	1.90522	-0.0417401	10.3057	0.027623	0.033959	-0.0124801	-0.505371	0.179932	-1.00146	-0.167454	-0.837596	-0.245602	0.458335	-7.47733	0.781281	-4.7678	0.00300275	0.0255576	-0.0244013	0.991211	0.229248	0.459961	-0.0351761	0.146251	-0.0364426	0.98795	3.05884	-0.68849	10.1446	0.0209709	0.012289	-0.00157433	-0.663086	0.156738	-0.798584	-0.0903681	0.0783791	-0.198603	0.972752	1.02208	-4.13113	9.57003	0.00952778	0.0121051	0.000251217	-0.441895	0.459473	-0.838135	0.0618124	0.0355555	-0.0446066	0.996456	0.763067	-0.936794	9.74472	0.0120368	0.0177759	-0.00600312	-0.527832	0.00292969	-1.02271	
10	-0.0719546	-0.366079	-0.0222731	0.92753	-7.202	0.212777	7.89968	0.00487182	-0.00540125	0.0012884	0.512695	0.221436	-0.992676	-0.0804289	-0.208764	-0.0202367	0.974443	-4.09555	-0.0395387	9.15168	-0.00647402	0.0399362	-0.0144469	0.228027	0.123779	-1.05688	-0.229221	-0.217125	0.201321	0.927246	-3.38074	5.0394	8.76096	0.0120688	0.00173797	-0.0180491	-0.0361328	-0.419189	-1.07275	0.168922	-0.384806	0.358272	0.833685	-7.48871	4.51208	4.40742	0.00136877	0.0133446	0.0114487	0.533691	-0.654541	-0.668701	-0.251906	-0.0876311	-0.325528	0.907136	-3.15261	-5.32492	7.50967	-0.00880372	0.000564565	0.000596922	0.0913086	0.803223	-0.830566	-0.637671	0.00267975	-0.413779	0.649735	-6.16553	-6.3139	7.79088	0.00672744	0.030183	-0.0305884	0.489258	0.939941	-0.322021	-0.187982	0.0836372	0.0107967	0.978545	1.90336	-0.039333	10.2619	0.0150089	0.0395673	-0.017374	-0.505127	0.177734	-1.00562	-0.16731	-0.837672	-0.246015	0.458028	-7.52527	0.831493	-4.82192	0.00230914	0.0296968	-0.0334086	0.993408	0.229248	0.4646	-0.0358593	0.146333	-0.0362086	0.987922	3.04777	-0.71832	10.153	0.0173001	0.00229844	0.00762207	-0.660645	0.154541	-0.800537	-0.090382	0.0783442	-0.198453	0.972785	1.03114	-4.12543	9.54135	0.0038333	0.0116595	0.00255582	-0.432861	0.455078	-0.842773	0.0619436	0.0349216	-0.0432975	0.996528	0.764558	-0.953503	9.76032	0.0511539	0.0329054	-0.00808852	-0.527588	-0.00390625	-1.03174	
11	-0.0720363	-0.366057	-0.0222238	0.927534	-7.2198	0.192021	7.89774	-0.000617182	-0.0048914	0.00223975	0.515137	0.217041	-0.990234	-0.0804205	-0.209127	-0.0203256	0.974364	-4.11443	-0.0128844	9.16738	-0.0150029	0.0234968	-0.0204405	0.232422	0.123779	-1.05469	-0.228843	-0.217175	0.201427	0.927304	-3.32537	4.9925	8.78261	0.0115687	0.00225541	-0.0128597	-0.0383301	-0.412598	-1.07056	0.168495	-0.384802	0.358353	0.833738	-7.47068	4.54474	4.40333	-0.00711316	0.0110212	0.0199208	0.5271	-0.652344	-0.668701	-0.25233	-0.0874568	-0.324892	0.907263	-3.11661	-5.30446	7.53659	0.0336345	-0.0110687	-0.00295451	0.0957031	0.803223	-0.828369	-0.637118	0.00246135	-0.414103	0.650072	-6.09016	-6.27724	7.77859	0.00127538	0.0398652	-0.0348034	0.491211	0.944336	-0.317871	-0.188038	0.0822179	0.0102642	0.978661	1.82449	-0.0556382	10.226	0.000272614	0.0749559	-0.0193871	-0.498779	0.179932	-0.99707	-0.167009	-0.837475	-0.246311	0.458339	-7.4517	0.744169	-4.81127	0.0156916	-0.00505539	-0.0372242	0.99585	0.224854	0.464844	-0.0366112	0.146655	-0.0359681	0.987855	3.01936	-0.692323	10.1136	0.0124052	-0.0104337	0.00420484	-0.663086	0.154541	-0.800781	-0.0905016	0.0785795	-0.197787	0.97289	1.02362	-4.15219	9.52663	0.0309771	-0.00677385	0.00217846	-0.435059	0.457275	-0.835938	0.062031	0.0343404	-0.0414537	0.996622	0.747287	-0.82712	9.79917	0.0711967	0.0371631	-0.00793425	-0.527344	-0.00830078	-1.03394	
12	-0.0722101	-0.365996	-0.0221686	0.927546	-7.19183	0.159541	7.88577	0.00109496	-0.00569116	0.00549503	0.514893	0.221436	-0.994629	-0.0802757	-0.2092	-0.0205188	0.974356	-4.05706	-0.00307531	9.17676	-0.0107341	0.0221016	-0.0287951	0.232422	0.123779	-1.05225	-0.228586	-0.217196	0.201369	0.927375	-3.38949	5.01503	8.77748	-0.00761862	-9.04547e-06	-0.0136341	-0.0361328	-0.416992	-1.07959	0.167969	-0.384559	0.358307	0.833977	-7.43964	4.4639	4.42275	-0.00677097	0.000392742	0.0235188	0.531494	-0.650146	-0.666504	-0.252424	-0.0873076	-0.323916	0.9076	-3.09371	-5.15671	7.56906	0.0312959	-0.00782619	-0.0156938	0.0915527	0.798828	-0.828369	-0.636538	0.00259621	-0.414651	0.65029	-6.0627	-6.33568	7.7284	-0.0113933	0.0323079	-0.0379996	0.484863	0.944336	-0.317871	-0.187996	0.0805849	0.00984407	0.978809	1.87929	-0.020549	10.381	0.000586153	0.086152	-0.02429	-0.498779	0.179932	-1.00562	-0.166837	-0.837327	-0.246384	0.458632	-7.47316	0.733075	-4.72978	0.0189002	-0.00445736	-0.0356447	0.991455	0.227051	0.464844	-0.037005	0.147397	-0.0362018	0.987722	3.11062	-0.723587	10.082	-0.00691389	-0.022604	-0.0107546	-0.663086	0.156738	-0.802979	-0.0906583	0.0787078	-0.19663	0.9731	1.00004	-4.1533	9.57236	0.048437	-0.00674615	0.00574837	-0.44165	0.455078	-0.835938	0.0621134	0.0334621	-0.0385872	0.996761	0.732602	-0.847267	9.74458	0.12653	0.0518674	-0.0106693	-0.522461	-0.0170898	-1.03833	
13	-0.0725578	-0.365927	-0.0218149	0.927554	-7.18241	0.132647	7.90039	0.0102749	-0.00480241	0.0195299	0.517334	0.219482	-0.994629	-0.0800493	-0.209188	-0.0206473	0.974375	-4.03941	-0.0859226	9.26231	-0.0273642	0.0169266	-0.0277081	0.228271	0.117432	-1.0498	-0.228571	-0.216984	0.200856	0.92754	-3.30566	4.89206	8.79368	-0.0125445	-0.000124306	-0.00386216	-0.0383301	-0.414795	-1.07056	0.167831	-0.384272	0.358438	0.83408	-7.38683	4.58942	4.44627	0.00151979	-0.00503471	0.00761759	0.5271	-0.652344	-0.668701	-0.252514	-0.087003	-0.324029	0.907564	-3.04302	-5.2639	7.55561	-0.00934906	0.00102837	-0.0183702	0.09375	0.796631	-0.830566	-0.636145	0.00274115	-0.415184	0.650334	-6.03478	-6.42824	7.73756	-0.0178776	0.0294123	-0.0238581	0.491455	0.942139	-0.315674	-0.188005	0.0788505	0.00945148	0.978952	1.79	-0.0458732	10.3503	0.0188425	0.0783395	-0.0197382	-0.492432	0.179932	-1.00781	-0.166279	-0.836862	-0.246507	0.459617	-7.4939	0.741945	-4.69115	0.012813	-0.00431771	-0.0236409	0.991211	0.231445	0.457764	-0.0370139	0.148124	-0.0366494	0.987596	3.23779	-0.734743	10.0502	-0.018254	-0.0158072	-0.0211482	-0.660889	0.161377	-0.798584	-0.0909144	0.078984	-0.195631	0.973255	1.07795	-4.03145	9.5302	0.035361	0.00622339	0.00649497	-0.439453	0.457275	-0.83374	0.0621699	0.0326764	-0.0355354	0.996897	0.682486	-0.589009	9.75472	0.0999142	0.0402338	-0.00840336	-0.515869	-0.0168457	-1.03369	
14	-0.0727999	-0.365953	-0.0210583	0.927542	-7.22172	0.174142	7.8969	0.0288048	-0.00610066	0.0174897	0.519531	0.219482	-0.994629	-0.0796939	-0.209865	-0.0216834	0.974236	-4.0401	-0.010574	9.13198	-0.0563796	0.0440082	-0.045884	0.23877	0.128174	-1.05713	-0.22867	-0.216856	0.20066	0.927588	-3.28888	4.91775	8.69691	-0.0065585	-0.000954119	0.00579597	-0.0361328	-0.419189	-1.07275	0.168108	-0.384128	0.358647	0.834001	-7.3231	4.54082	4.45234	0.0236641	0.00455785	-0.00527294	0.529297	-0.652344	-0.668701	-0.252311	-0.0869009	-0.323996	0.907642	-3.08899	-5.29199	7.5206	-0.00459024	0.00762254	-0.0225714	0.0915527	0.796875	-0.837402	-0.636173	0.00284267	-0.415514	0.650095	-6.07833	-6.36157	7.66225	-0.0153428	0.0174262	-0.00719977	0.491211	0.946533	-0.313721	-0.187928	0.0777466	0.0094098	0.979056	1.80276	-0.0590616	10.3205	0.0272269	0.102417	-0.0287783	-0.492432	0.182129	-1.00562	-0.165982	-0.836744	-0.24657	0.459906	-7.52024	0.732456	-4.73861	0.0209564	0.00988835	-0.0272942	0.991211	0.229248	0.459961	-0.0370358	0.148619	-0.0370996	0.987504	3.20449	-0.790031	10.0104	-0.0123364	-0.00886402	-0.016696	-0.660889	0.158936	-0.791748	-0.0911099	0.0792304	-0.195358	0.973271	1.04114	-4.03137	9.66586	0.0175764	-0.0110191	0.00937687	-0.437256	0.457275	-0.840576	0.0621168	0.032487	-0.0342519	0.996952	0.64242	-0.502799	9.78088	0.029173	0.00982753	-0.00228514	-0.522461	-0.0214844	-1.03149	
15	-0.0731054	-0.366011	-0.0201388	0.927516	-7.15992	0.232301	7.93102	0.0278091	0.00111029	0.0272861	0.515137	0.217285	-0.994629	-0.0794429	-0.210275	-0.0223727	0.974152	-4.06736	-0.0596567	9.1563	-0.0183967	0.0351324	-0.0310146	0.232178	0.125977	-1.05005	-0.228648	-0.216782	0.201407	0.927449	-3.30404	4.92499	8.76957	0.0462718	-0.00411709	0.0061436	-0.0405273	-0.412598	-1.073	0.168645	-0.384167	0.359367	0.833565	-7.40725	4.54054	4.42104	0.0394722	0.0119877	-0.0074299	0.526855	-0.647949	-0.662109	-0.252152	-0.0867383	-0.323833	0.90776	-3.06378	-5.22043	7.60515	-0.0024957	0.00238921	-0.023611	0.09375	0.796631	-0.833008	-0.636397	0.00315619	-0.41604	0.649538	-6.09712	-6.35799	7.64749	-0.0318006	0.0161805	-0.0023959	0.487061	0.944336	-0.307129	-0.187824	0.0758074	0.00979029	0.979224	1.86313	-0.0391985	10.4707	0.035617	0.120293	-0.0137569	-0.48584	0.180176	-1.00781	-0.165709	-0.836795	-0.246712	0.459834	-7.5311	0.735775	-4.75535	0.00863649	0.0267422	-0.0266356	0.995361	0.235596	0.467041	-0.0372629	0.149173	-0.0374383	0.987399	3.13821	-0.778375	10.073	-0.0143313	-0.0152384	-0.0110032	-0.658936	0.165771	-0.791992	-0.0911648	0.0792547	-0.195436	0.973248	1.14286	-3.98327	9.57961	-0.0119895	0.0226256	0.00176965	-0.437256	0.455078	-0.838135	0.0620433	0.032798	-0.0350638	0.996918	0.719193	-0.507955	9.75056	-0.047232	-0.0106608	0.00107569	-0.522461	-0.0214844	-1.03369	
16	-0.0732575	-0.366085	-0.0196409	0.927486	-7.21373	0.201338	7.90968	0.0326627	0.00140038	0.0245822	0.515137	0.219238	-0.992432	-0.0792489	-0.21082	-0.0226125	0.974045	-4.01863	-0.0346877	9.26063	-0.0209413	0.0615021	-0.0365877	0.234375	0.128174	-1.05249	-0.228698	-0.216782	0.201798	0.927351	-3.32654	5.06928	8.7608	0.0331222	-0.000474226	0.010861	-0.0405273	-0.414795	-1.07739	0.168902	-0.384168	0.359813	0.833319	-7.4076	4.52558	4.46873	0.0451954	0.0120676	-0.00532281	0.5271	-0.654541	-0.664307	-0.252218	-0.086701	-0.324133	0.907638	-3.03643	-5.29914	7.58506	-0.0264158	0.0112997	-0.0108544	0.0915527	0.798828	-0.833008	-0.636458	0.00336488	-0.416259	0.649337	-6.13991	-6.3836	7.69546	-0.0287943	0.0115643	-0.00771805	0.484863	0.942139	-0.311279	-0.187857	0.0749047	0.00974796	0.979287	1.7928	-0.117342	10.3787	0.02493	0.086494	-0.0199947	-0.483643	0.180176	-1.00977	-0.165718	-0.836733	-0.246735	0.459932	-7.54138	0.717667	-4.795	0.00606468	0.00741186	-0.0210015	0.991211	0.229248	0.457764	-0.037392	0.149571	-0.0376545	0.987326	3.11551	-0.814249	10.0833	-0.014828	-0.0224809	-0.0108584	-0.665527	0.158936	-0.796387	-0.0910977	0.0791468	-0.195565	0.973238	1.06258	-3.9895	9.574	-0.00851334	0.0231729	-0.000651499	-0.437256	0.455078	-0.833496	0.0619959	0.0329868	-0.0360215	0.996881	0.690675	-0.553854	9.72087	-0.0743988	-0.0120167	0.00154314	-0.524902	-0.0170898	-1.03369	
17	-0.0731419	-0.366221	-0.0186021	0.927462	-7.19272	0.286225	7.87276	0.0408337	0.0016676	0.00427145	0.517578	0.215088	-0.994629	-0.0790896	-0.212222	-0.023304	0.973737	-4.20621	-0.0851914	9.1565	-0.0324234	0.0688912	-0.024876	0.243164	0.124023	-1.05005	-0.229184	-0.216671	0.202014	0.92721	-3.33179	5.04256	8.8303	0.00975191	0.00862393	0.0221829	-0.0405273	-0.412598	-1.073	0.169031	-0.384101	0.360635	0.832969	-7.54409	4.58183	4.34427	0.0336613	0.010997	0.0148154	0.527344	-0.656738	-0.66626	-0.252347	-0.0864977	-0.323959	0.907684	-3.14353	-5.35815	7.59045	0.0176191	-0.0037211	-0.01402	0.0893555	0.801025	-0.830566	-0.636481	0.0035733	-0.416387	0.649232	-6.15433	-6.32038	7.71746	-0.0210883	0.00813971	-0.0142311	0.493652	0.939941	-0.309082	-0.187967	0.0752259	0.0107709	0.979231	1.66094	0.00897631	10.2945	0.0411278	-0.00427254	-0.0158754	-0.481445	0.177979	-1.00342	-0.165616	-0.836808	-0.246562	0.459926	-7.48225	0.697255	-4.80713	0.0144506	0.0198731	-0.0100485	0.986572	0.235596	0.459961	-0.0374794	0.150675	-0.0382583	0.987131	3.07082	-0.776246	10.1585	-0.0303007	-0.035859	-0.0188139	-0.670166	0.158936	-0.796387	-0.090995	0.0794234	-0.195682	0.973201	1.06527	-4.15217	9.61293	-0.00321254	-0.00139012	-0.00144695	-0.439453	0.452881	-0.838135	0.0619454	0.0332724	-0.037718	0.996811	0.690513	-0.907323	9.77686	-0.0418092	-0.0029044	-0.000425214	-0.522705	-0.0148926	-1.03149	
18	-0.0730647	-0.366329	-0.017789	0.927442	-7.26112	0.328256	7.85805	0.0289177	-0.00163355	0.0102303	0.517822	0.206299	-0.992432	-0.0789066	-0.212754	-0.0236696	0.973627	-4.23629	-0.126764	9.1563	-0.0113799	0.0301872	-0.0318367	0.236572	0.128174	-1.05493	-0.229314	-0.216676	0.202769	0.927012	-3.36256	5.14321	8.78258	0.0212526	-0.00125123	0.0100319	-0.0405273	-0.414795	-1.0752	0.16878	-0.38385	0.361008	0.832974	-7.50034	4.65768	4.39711	0.00697002	0.00493921	0.0166635	0.5271	-0.654541	-0.662109	-0.25241	-0.0863056	-0.323235	0.907943	-3.12886	-5.25471	7.58286	0.0249302	-0.00880379	-0.0152002	0.0869141	0.803223	-0.828369	-0.63616	0.0042941	-0.417066	0.649106	-6.17114	-6.42618	7.73856	-0.0239374	0.0174545	-0.0215685	0.493652	0.942139	-0.304932	-0.18807	0.0748682	0.0109965	0.979236	1.67084	-0.0388482	10.4168	0.0261854	0.0270921	-0.0204092	-0.483643	0.175781	-1.00757	-0.16539	-0.836749	-0.246316	0.460245	-7.52442	0.731299	-4.81788	0.0198153	0.00113697	-0.0174526	0.993408	0.231445	0.459961	-0.0372998	0.151613	-0.0395431	0.986944	3.25061	-0.763205	10.1645	-0.0557586	-0.0183149	-0.0203211	-0.667969	0.163574	-0.791992	-0.0909292	0.079404	-0.195603	0.973225	1.00182	-4.11478	9.49619	0.0116124	0.0130263	-0.00116613	-0.443848	0.455078	-0.838135	0.0619036	0.0334838	-0.038192	0.996789	0.675366	-0.744968	9.78199	-0.0143071	-0.000434337	-0.00277073	-0.520508	-0.0126953	-1.03369	
19	-0.0731436	-0.366296	-0.0174604	0.927455	-7.21513	0.345917	7.87699	0.0246458	-0.00692292	0.010504	0.517822	0.210693	-0.994629	-0.0786517	-0.213172	-0.0237559	0.973554	-4.15241	-0.131337	9.16923	-0.0107547	0.0369173	-0.0250323	0.243164	0.125977	-1.05469	-0.229655	-0.216365	0.201601	0.927255	-3.27964	4.94693	8.76596	-0.0515302	0.00418586	-0.00244223	-0.0402832	-0.414795	-1.07056	0.168786	-0.3839	0.361085	0.832916	-7.40428	4.59682	4.39448	-0.00349995	0.0101479	-0.00327358	0.524902	-0.654541	-0.666504	-0.252579	-0.0861326	-0.322709	0.908099	-3.11199	-5.31058	7.58407	0.0222573	-0.00460125	-0.00899251	0.0915527	0.796631	-0.830566	-0.636151	0.00449791	-0.417491	0.648839	-6.16366	-6.47464	7.68734	-0.01161	0.0225277	-0.0108498	0.491455	0.942139	-0.307129	-0.188132	0.0749019	0.0113148	0.979218	1.73803	-0.0406116	10.432	0.0246659	0.0218494	-0.0167141	-0.481201	0.173584	-1.01392	-0.164992	-0.836631	-0.246262	0.46063	-7.53684	0.78327	-4.73119	0.0196319	0.0134593	-0.031885	0.990967	0.233643	0.45752	-0.0374344	0.151596	-0.0403306	0.98691	3.25066	-0.847621	10.0658	-0.0138562	0.0184501	-0.0101236	-0.668213	0.167969	-0.791992	-0.0909599	0.0794439	-0.195174	0.973305	1.05896	-4.02121	9.58789	0.015212	0.0106129	0.00399646	-0.443604	0.450684	-0.838135	0.0619728	0.0336461	-0.038317	0.996774	0.737203	-0.740789	9.79242	0.000790738	0.00182474	-0.00865663	-0.529541	-0.010498	-1.03394	
20	-0.0733124	-0.366011	-0.0169855	0.927563	-7.19383	0.302845	7.90127	0.00432045	-0.0115588	0.00870086	0.517578	0.212891	-0.994629	-0.0786332	-0.213763	-0.0236945	0.973427	-4.17986	-0.0839317	9.19044	-0.00410656	0.0348003	-0.0201841	0.240723	0.132568	-1.05029	-0.229551	-0.216434	0.201905	0.927198	-3.30313	4.97301	8.75273	0.044869	-0.000792514	-0.00135691	-0.0424805	-0.416992	-1.07056	0.168858	-0.383964	0.361454	0.832713	-7.41691	4.53226	4.37785	0.0208189	0.0134429	0.00566588	0.531738	-0.658936	-0.661865	-0.252678	-0.0862642	-0.321727	0.908407	-3.01252	-5.24807	7.59003	0.0440132	-0.00114389	-0.00960815	0.0893555	0.799072	-0.837402	-0.636059	0.00438246	-0.417683	0.648807	-6.0801	-6.33115	7.67761	-0.00261364	0.0243075	-0.0188069	0.493408	0.946533	-0.305176	-0.188204	0.0743865	0.0109145	0.979248	1.71169	-0.000740362	10.3643	-0.00107258	0.0236416	-0.0187411	-0.481201	0.171387	-1.00537	-0.164772	-0.836608	-0.246301	0.46073	-7.53018	0.738753	-4.76774	0.0209317	0.0135553	-0.0298508	0.993408	0.231445	0.457764	-0.0377583	0.15155	-0.0399267	0.986921	3.1354	-0.818352	10.0243	0.0252598	0.00316524	-0.0130339	-0.666016	0.17041	-0.796387	-0.0909272	0.079497	-0.19529	0.97328	1.10875	-4.02588	9.62381	-0.0149911	0.0133079	0.00230613	-0.443848	0.455078	-0.833496	0.061951	0.0338	-0.0382451	0.996773	0.707928	-0.63722	9.75126	0.00128826	0.0024889	-0.00389665	-0.524902	-0.0170898	-1.03369	
21	-0.07338	-0.365873	-0.0168808	0.927614	-7.14799	0.31312	7.93168	0.00139237	-0.00751129	0.00131159	0.520264	0.204102	-0.994385	-0.0784596	-0.21388	-0.0236886	0.973416	-4.16062	-0.0595882	9.15524	-0.00701955	0.01741	-0.0249654	0.238525	0.130371	-1.05249	-0.229597	-0.216304	0.202303	0.927131	-3.30755	4.98386	8.80434	-0.00061156	-0.00259236	0.0077058	-0.0380859	-0.419189	-1.07959	0.168886	-0.383795	0.362195	0.832462	-7.44675	4.60676	4.36732	0.0334395	0.00515746	0.0122471	0.529541	-0.658936	-0.661865	-0.252562	-0.0862659	-0.320708	0.9088	-3.02578	-5.08414	7.62757	0.0287436	-0.00113186	-0.0243723	0.0871582	0.799072	-0.839844	-0.635901	0.00451795	-0.41793	0.648802	-6.03307	-6.29322	7.68382	-0.0127662	0.0188506	-0.0234009	0.489258	0.939941	-0.304932	-0.188154	0.0746539	0.0105977	0.979241	1.75773	0.0247822	10.4553	-0.0139827	0.017961	-0.0213366	-0.479248	0.177979	-1.00977	-0.163975	-0.836726	-0.246308	0.460798	-7.51102	0.674677	-4.71187	0.0127499	0.0216672	-0.0153808	0.995361	0.233643	0.459961	-0.0378667	0.151807	-0.0396186	0.98689	3.13428	-0.782718	10.0081	0.0268916	-0.0123703	-0.0183079	-0.667969	0.161133	-0.796387	-0.0908649	0.0794952	-0.195443	0.973255	1.09826	-4.06106	9.53458	-0.00708451	0.0138681	-0.00309095	-0.441406	0.450684	-0.838135	0.06193	0.0338472	-0.0385556	0.996761	0.742306	-0.75248	9.76371	0.00141276	0.00949154	-0.00248668	-0.531982	-0.010498	-1.03833	
22	-0.073465	-0.365895	-0.0167913	0.9276	-7.19833	0.254209	7.90675	0.00544227	-0.0008487	0.0020851	0.52002	0.208496	-0.994629	-0.0782827	-0.21424	-0.0237174	0.97335	-4.16394	-0.0809883	9.18277	-0.00798737	0.03237	-0.0264325	0.234375	0.128174	-1.05005	-0.229643	-0.216203	0.202222	0.927161	-3.31105	5.06057	8.78411	0.00394077	-0.00378741	-0.00418773	-0.0405273	-0.412598	-1.07739	0.168996	-0.383434	0.362836	0.832327	-7.46153	4.67773	4.37718	0.029317	-0.00313191	0.0102318	0.531982	-0.661133	-0.66626	-0.252488	-0.0861885	-0.320811	0.908791	-3.01988	-5.12344	7.64428	-0.00850633	0.0078383	-0.0235085	0.0874023	0.794434	-0.833008	-0.635754	0.00494075	-0.418455	0.648605	-6.10046	-6.45184	7.67384	-0.027679	0.0197918	-0.0209577	0.484863	0.944336	-0.307129	-0.188111	0.0747766	0.0102089	0.979244	1.73954	-0.0257368	10.3928	0.0049873	0.00298312	-0.0197037	-0.483643	0.180176	-1.01636	-0.163626	-0.836707	-0.24617	0.461029	-7.54256	0.68011	-4.73643	0.0247029	0.0108426	-0.0229343	0.993164	0.233643	0.45752	-0.0376968	0.153284	-0.0396174	0.986668	3.27975	-0.769925	10.0935	-0.0133315	-0.0364887	-0.0227917	-0.675293	0.170166	-0.787598	-0.0907632	0.079366	-0.19554	0.973256	1.03247	-4.03523	9.50567	-0.00272513	0.0224642	0.000569661	-0.439453	0.455078	-0.842773	0.0619696	0.0339215	-0.0391404	0.996733	0.728877	-0.727056	9.77753	-0.032468	0.0035929	-0.00596	-0.525146	-0.010498	-1.0293	
23	-0.0733889	-0.36588	-0.0166462	0.927614	-7.20143	0.292484	7.88576	0.00826678	-0.00518782	-0.00341341	0.518066	0.206299	-0.996582	-0.0782075	-0.214571	-0.0237882	0.973281	-4.20356	-0.0842435	9.15052	-0.0111337	0.0238233	-0.0199665	0.236572	0.128174	-1.05713	-0.229813	-0.216117	0.202088	0.927168	-3.23667	4.98806	8.76745	0.000586078	0.00308097	0.00510345	-0.0405273	-0.414795	-1.0752	0.16912	-0.383258	0.36312	0.832259	-7.41657	4.70892	4.36383	0.00659412	0.00223445	0.000817353	0.527344	-0.656738	-0.661865	-0.25223	-0.0859445	-0.321454	0.908659	-3.08642	-5.26361	7.62187	-0.0073437	0.0100832	-0.0225946	0.0849609	0.796631	-0.835205	-0.63574	0.00518965	-0.418829	0.648375	-6.16468	-6.48425	7.65433	-0.0162516	0.0154498	-0.0109679	0.491211	0.946533	-0.302979	-0.188169	0.0754046	0.0101093	0.979186	1.68722	-0.0231456	10.4035	0.00777235	-0.0083282	-0.0169811	-0.483398	0.173584	-1.01172	-0.163253	-0.83678	-0.246198	0.461014	-7.50954	0.74675	-4.76967	0.0164337	0.0197534	-0.0274448	0.993164	0.231445	0.452881	-0.0379008	0.153909	-0.0399754	0.986548	3.33422	-0.820693	10.0961	-0.00689701	-0.00522463	-0.00939476	-0.672852	0.167969	-0.7854	-0.0908424	0.0794993	-0.195685	0.973209	1.04596	-4.11894	9.60467	-0.0149125	0.00462763	0.0068632	-0.44165	0.452881	-0.842773	0.0620246	0.0339466	-0.0393206	0.996722	0.760082	-0.878239	9.77577	0.00681265	0.0103845	-0.00685814	-0.522949	-0.010498	-1.03149	
24	-0.0733538	-0.365898	-0.0165805	0.927611	-7.20429	0.321319	7.89426	0.00678458	-0.000858205	-0.00344837	0.51123	0.208496	-0.994629	-0.0782078	-0.21455	-0.0237601	0.973287	-4.17436	-0.0952383	9.13996	-0.00743147	0.0136405	-0.0172749	0.24292	0.130371	-1.05249	-0.229817	-0.216236	0.202174	0.92712	-3.31317	5.0333	8.75256	0.0126483	0.0121273	-0.000569141	-0.0383301	-0.412598	-1.07983	0.169178	-0.383418	0.363301	0.832095	-7.42682	4.60914	4.3768	0.00862182	0.0111217	-0.0019225	0.529541	-0.656738	-0.659668	-0.252222	-0.0859311	-0.321564	0.908623	-3.10828	-5.33623	7.62042	-0.00873149	0.0115025	-0.0170162	0.0939941	0.792236	-0.835205	-0.635772	0.00517977	-0.418955	0.648262	-6.21857	-6.45894	7.62428	-0.00897944	0.0201436	-0.00789359	0.493408	0.944336	-0.298584	-0.188305	0.0761808	0.00991308	0.979101	1.76516	-0.0372352	10.3928	0.0018199	-0.00903156	-0.0107561	-0.488281	0.182129	-1.01001	-0.162897	-0.836847	-0.246208	0.461014	-7.568	0.708623	-4.71261	0.0299247	0.0259906	-0.0302798	0.99292	0.238037	0.45752	-0.0381081	0.153939	-0.0399431	0.986537	3.25102	-0.871086	10.1221	0.00713244	0.00669202	-0.00630128	-0.67749	0.167969	-0.789795	-0.0908959	0.0794792	-0.195745	0.973193	1.04247	-4.1626	9.55312	-0.00325036	0.0136895	0.00777627	-0.443848	0.455078	-0.838135	0.0620045	0.0338977	-0.0388928	0.996742	0.713027	-0.749377	9.80083	0.0351169	0.0139541	-0.00356052	-0.522949	-0.00610352	-1.03394	
25	-0.0732653	-0.365886	-0.0165582	0.927623	-7.18317	0.333922	7.89511	0.000936909	-0.00161069	-0.00539613	0.517822	0.210693	-1.00098	-0.0782574	-0.214714	-0.0236165	0.97325	-4.16453	-0.100574	9.15155	-0.00197085	0.0254836	-0.014611	0.238525	0.130371	-1.05957	-0.229624	-0.216258	0.202025	0.927195	-3.3082	4.99524	8.7635	-0.00473611	0.00239936	-0.00930274	-0.0383301	-0.416992	-1.07739	0.169239	-0.383502	0.363507	0.831953	-7.40699	4.62629	4.3782	0.0192264	0.0167211	-0.000613653	0.524902	-0.656738	-0.661865	-0.25243	-0.0859566	-0.320896	0.908799	-3.06207	-5.28983	7.61783	0.0450088	-0.00465134	-0.0061462	0.0915527	0.796875	-0.839844	-0.635734	0.00512523	-0.419155	0.648171	-6.11628	-6.37808	7.61752	-0.0010781	0.0224129	-0.0158953	0.491455	0.942139	-0.298584	-0.18844	0.0763134	0.00976552	0.979066	1.7505	-0.0412355	10.4107	0.00193062	0.00647439	-0.00927538	-0.490234	0.177979	-1.01611	-0.162416	-0.836898	-0.246337	0.461021	-7.50036	0.695937	-4.74125	0.0163843	0.0235296	-0.0286396	0.988525	0.23999	0.462158	-0.0388236	0.153869	-0.0395291	0.986537	3.19664	-0.814586	10.0555	0.0253133	0.0107317	0.0067427	-0.668213	0.165771	-0.789795	-0.0909218	0.0791782	-0.195595	0.973245	1.04358	-3.97435	9.65221	0.00691572	0.0229608	0.00381861	-0.44165	0.452881	-0.840332	0.0619368	0.033948	-0.0388461	0.996746	0.730176	-0.697482	9.76372	-0.00663552	0.00550041	-0.00240575	-0.531494	-0.0170898	-1.03369	
26	-0.0731644	-0.365967	-0.0166885	0.927597	-7.21044	0.320673	7.88257	-0.00571706	0.000394566	-0.00573524	0.518066	0.206299	-0.996582	-0.0782599	-0.214791	-0.0235109	0.973236	-4.17135	-0.102874	9.15606	-0.00820182	0.0134811	-0.0171276	0.247314	0.128174	-1.05493	-0.229512	-0.216316	0.202568	0.927091	-3.32948	5.00869	8.80332	0.036586	0.00262109	-0.00134913	-0.0446777	-0.416748	-1.06812	0.16925	-0.38353	0.36402	0.831714	-7.45155	4.55782	4.37445	0.0252682	0.0126363	0.0109814	0.531738	-0.658936	-0.657471	-0.252413	-0.086009	-0.32013	0.909069	-3.08731	-5.13709	7.57337	0.0210695	0.00371064	-0.01586	0.0895996	0.794434	-0.835205	-0.635626	0.00524258	-0.419289	0.648189	-6.07964	-6.33132	7.66403	-0.00654378	0.0160197	-0.0225749	0.491455	0.942139	-0.302734	-0.188576	0.0768177	0.00972724	0.979001	1.75501	-0.0603607	10.3534	0.0166498	-0.00174085	-0.0149012	-0.486084	0.182129	-1.00562	-0.162031	-0.83676	-0.246629	0.461251	-7.5013	0.61051	-4.78248	0.0181066	-0.000164288	-0.0352452	0.990723	0.238037	0.445801	-0.0395352	0.154216	-0.0391023	0.986471	3.18279	-0.806373	10.0242	0.0199581	-0.0116381	-0.00022039	-0.670654	0.167969	-0.782959	-0.0909889	0.0793639	-0.195902	0.973162	1.07207	-4.03406	9.57414	-0.0248002	-0.00105708	0.00759978	-0.439697	0.46167	-0.83374	0.0619257	0.0340379	-0.0392624	0.996727	0.704405	-0.682834	9.76128	-0.0252593	0.000764749	-0.00393782	-0.527588	-0.00610352	-1.03394	
27	-0.0731638	-0.365879	-0.0168431	0.927629	-7.18715	0.289187	7.88219	-0.0045936	-0.00628062	-0.00566817	0.518066	0.206299	-0.996582	-0.0782748	-0.214648	-0.0232809	0.973272	-4.21558	-0.0850506	9.13811	-0.000710315	0.00404061	-0.0151982	0.238525	0.132568	-1.05493	-0.229531	-0.216355	0.203006	0.926981	-3.33969	5.06361	8.81963	0.0126847	0.00505498	0.00650317	-0.0424805	-0.414795	-1.07056	0.169147	-0.383342	0.364331	0.831685	-7.47616	4.59926	4.36807	0.00990365	-0.000386194	0.0137366	0.529785	-0.661133	-0.661865	-0.252398	-0.0857849	-0.320404	0.908998	-3.0532	-5.12723	7.62771	-0.0311453	0.0061979	-0.0195945	0.0895996	0.794434	-0.837402	-0.635561	0.00552575	-0.419514	0.648104	-6.119	-6.39579	7.6322	-0.0183222	0.0147898	-0.019481	0.491211	0.944336	-0.298584	-0.188707	0.0773114	0.00959928	0.978938	1.72725	-0.0551852	10.4093	0.00179844	-0.0156151	-0.0147648	-0.48584	0.180176	-1.00781	-0.161746	-0.836719	-0.246496	0.461497	-7.4983	0.606569	-4.75046	0.0165611	0.0113624	-0.0161236	0.99292	0.238037	0.455322	-0.0396736	0.155056	-0.0392211	0.986329	3.21042	-0.804268	10.0851	-0.0102622	-0.0251748	-0.0219066	-0.668213	0.167969	-0.785156	-0.0909185	0.0791616	-0.19588	0.97319	1.06736	-4.05491	9.63958	0.0203003	0.00961636	0.00201471	-0.44165	0.452881	-0.842773	0.0619179	0.0341421	-0.0399292	0.996698	0.744409	-0.839256	9.7708	-0.0178388	0.00324173	-0.00299885	-0.525146	-0.010498	-1.03149	
28	-0.0731477	-0.365874	-0.0169602	0.92763	-7.20745	0.282402	7.88594	-0.00369285	-0.000943371	-0.00427936	0.515381	0.212891	-0.994629	-0.0782065	-0.214442	-0.0229294	0.973331	-4.20917	-0.14917	9.14422	0.00606096	0.0301227	-0.0210989	0.240967	0.128174	-1.05005	-0.229693	-0.21625	0.202542	0.927067	-3.29307	5.05413	8.76348	-0.0263438	0.00416332	-0.00222398	-0.0424805	-0.412598	-1.073	0.16916	-0.383056	0.364518	0.831733	-7.42766	4.73032	4.42071	0.00791712	-0.00131061	0.00468475	0.523193	-0.66333	-0.664062	-0.252464	-0.085547	-0.321058	0.908771	-3.08759	-5.40049	7.59372	-0.00635357	0.00473997	-0.0149874	0.0852051	0.794434	-0.837402	-0.635471	0.00578201	-0.4198	0.648005	-6.2258	-6.53622	7.6203	-0.0165224	0.0181131	-0.0171343	0.491211	0.946533	-0.300781	-0.188814	0.0777094	0.0098624	0.978884	1.76896	-0.0425019	10.3555	0.0318575	0.0077298	-0.0172965	-0.492432	0.179932	-1.00781	-0.161592	-0.836753	-0.246268	0.461611	-7.52203	0.693321	-4.71925	0.0171506	0.0152722	-0.0139349	0.988525	0.23999	0.459961	-0.0395805	0.155705	-0.0397036	0.986211	3.36336	-0.852394	10.0948	-0.0139046	-0.00938191	-0.0218354	-0.675293	0.167725	-0.780762	-0.0908934	0.079157	-0.1961	0.973148	1.08315	-4.10485	9.54512	-0.00841827	0.0235897	0.00200307	-0.446045	0.455078	-0.833496	0.0618915	0.0341476	-0.039823	0.996703	0.735145	-0.794366	9.76587	0.00613664	0.0094012	-0.00397741	-0.525146	-0.00830078	-1.0293	
29	-0.0730737	-0.365829	-0.0169456	0.927654	-7.17739	0.294843	7.92263	0.00147658	-0.00457574	-0.00531227	0.517822	0.210693	-0.998779	-0.0781951	-0.214664	-0.0235427	0.973268	-4.12799	-0.134257	9.09825	-0.0317889	0.00529163	-0.0201085	0.243164	0.125977	-1.05249	-0.229715	-0.216264	0.202231	0.927127	-3.27717	4.96712	8.76995	-0.010304	0.00504671	-0.00326037	-0.0424805	-0.418945	-1.07275	0.169092	-0.383145	0.36464	0.831652	-7.38289	4.65354	4.35915	0.0149192	0.014739	0.00431467	0.529785	-0.66333	-0.659668	-0.252755	-0.085516	-0.320253	0.908977	-3.1173	-5.35986	7.62788	0.0459451	-0.00675857	-0.00151402	0.0939941	0.792236	-0.835205	-0.635359	0.00569171	-0.420029	0.647968	-6.17995	-6.45528	7.62664	-0.00289208	0.0258564	-0.0165464	0.491211	0.944336	-0.298584	-0.188886	0.0791727	0.00950714	0.978756	1.77063	-0.0599001	10.3424	0.00847792	-0.035835	-0.0114161	-0.490234	0.182129	-1.00342	-0.161268	-0.83677	-0.246345	0.461653	-7.53289	0.686823	-4.78535	0.0140091	0.0109588	-0.0282603	0.99292	0.23999	0.459961	-0.0400745	0.155586	-0.0394028	0.986222	3.30249	-0.84794	10.0354	0.0304667	0.0177835	0.00206035	-0.675293	0.167969	-0.789795	-0.0909221	0.0791549	-0.195732	0.97322	1.04931	-4.05384	9.62234	0.00978959	0.00697232	0.003719	-0.443604	0.450684	-0.840332	0.0618721	0.0342307	-0.0398307	0.996701	0.723202	-0.7252	9.77046	-0.00685842	0.00333525	-0.00424689	-0.527588	-0.00610352	-1.03394	
30	-0.0732291	-0.36591	-0.0169901	0.927609	-7.20154	0.265415	7.90538	-0.00493464	0.00378264	0.00772867	0.515625	0.210693	-1.00098	-0.0782813	-0.214598	-0.0232414	0.973283	-4.20484	-0.132361	9.08749	0.012596	0.00782694	-0.00718525	0.243164	0.126221	-1.04761	-0.229193	-0.216405	0.202965	0.927062	-3.33784	5.04822	8.77137	0.0322292	0.00138966	-0.0132965	-0.0405273	-0.412598	-1.0752	0.169022	-0.383285	0.36495	0.831466	-7.39821	4.54718	4.37013	0.0136534	0.0143414	0.00808293	0.534424	-0.667725	-0.655029	-0.252904	-0.0855779	-0.318883	0.909412	-2.95048	-5.11371	7.66665	0.0382182	-0.00151467	-0.00881458	0.0917969	0.794678	-0.842041	-0.635148	0.00558699	-0.420136	0.648106	-6.06328	-6.388	7.62325	0.00637224	0.0215961	-0.0266481	0.484619	0.94873	-0.298584	-0.189123	0.0778155	0.00894497	0.978824	1.86914	-0.0810772	10.3502	-0.00923481	0.0754385	-0.0130713	-0.488037	0.182129	-1.00562	-0.161113	-0.836563	-0.246657	0.461915	-7.55071	0.624468	-4.76259	0.0084083	0.00540842	-0.03377	0.988525	0.242188	0.452881	-0.0408249	0.155524	-0.0386828	0.98623	3.2169	-0.838498	9.97604	0.0340906	0.00307447	0.00175615	-0.675049	0.165527	-0.785156	-0.0908504	0.0791646	-0.196192	0.973133	1.1182	-4.05705	9.49495	-0.0189421	0.0173099	0.00260336	-0.443848	0.452881	-0.840332	0.0618816	0.0342321	-0.0398297	0.996701	0.758987	-0.754341	9.75595	0.0079733	0.0120312	-0.0049634	-0.522949	-0.00830078	-1.0293	
31	-0.0731398	-0.365941	-0.0170061	0.927604	-7.19631	0.301559	7.88683	0.000254377	0.00100716	-0.00998044	0.517822	0.210693	-0.996826	-0.0781916	-0.214878	-0.0225016	0.973246	-4.1342	0.00371877	9.18043	0.0165618	0.0340606	-0.0184588	0.245117	0.130371	-1.05493	-0.229413	-0.216251	0.20266	0.927111	-3.27005	4.96594	8.79225	-0.0171562	0.00323425	0.0102523	-0.0402832	-0.416992	-1.07275	0.169031	-0.383168	0.365732	0.831175	-7.41278	4.63665	4.37839	0.0312365	0.00999051	0.0141734	0.527588	-0.665527	-0.659668	-0.252856	-0.085668	-0.318272	0.90963	-3.01707	-5.12711	7.64492	0.0260262	0.00116673	-0.00815297	0.0876465	0.785889	-0.842041	-0.634902	0.00561538	-0.419966	0.648457	-6.05858	-6.37956	7.6117	0.0088939	0.00881325	-0.0299624	0.484619	0.950928	-0.298828	-0.189117	0.0793245	0.00960981	0.978698	1.75794	-0.0281764	10.353	0.0252847	-0.0793342	-0.0223795	-0.494629	0.179932	-1.00562	-0.160802	-0.83633	-0.246428	0.462566	-7.48178	0.581797	-4.75741	0.0198069	-0.00605832	-0.0175858	0.986572	0.237793	0.45752	-0.0411818	0.156273	-0.0381319	0.986118	3.26726	-0.799694	9.97771	0.0162391	-0.0271276	-0.0181283	-0.679688	0.16333	-0.785156	-0.0908432	0.0791294	-0.196093	0.973157	1.02505	-4.0876	9.61484	0.0155158	0.00580681	0.00226903	-0.439453	0.452881	-0.842773	0.0618821	0.0341222	-0.0397746	0.996707	0.734147	-0.714002	9.76732	-0.00827001	0.0112925	-0.00546575	-0.522949	-0.010498	-1.03833	
32	-0.0730742	-0.365943	-0.0170844	0.927607	-7.2177	0.348508	7.88517	-0.00432891	-0.00140656	-0.00843267	0.518066	0.206299	-0.996582	-0.0782323	-0.215371	-0.0223486	0.973137	-4.24908	-0.0397881	9.14169	-0.00792155	0.0323117	-0.0143346	0.243164	0.125977	-1.05469	-0.229565	-0.216304	0.202878	0.927013	-3.28448	4.92985	8.78868	0.0192956	0.00817721	0.0149274	-0.0380859	-0.419189	-1.07275	0.168942	-0.383065	0.365906	0.831163	-7.42507	4.67135	4.39141	0.0112041	0.00443184	0.0155298	0.527344	-0.661133	-0.657471	-0.252867	-0.0856998	-0.318247	0.909633	-3.03083	-5.04864	7.64635	0.00250033	0.0108498	-0.0140153	0.0895996	0.790283	-0.839844	-0.634862	0.00567714	-0.419866	0.648561	-6.10369	-6.42951	7.5963	0.00498133	0.00591524	-0.0226732	0.484863	0.942139	-0.296387	-0.189142	0.0798077	0.00958712	0.978654	1.8332	-0.0213877	10.2863	0.00566655	-0.0229287	-0.0174141	-0.492676	0.184326	-1.00781	-0.160765	-0.836296	-0.246208	0.462758	-7.49775	0.587438	-4.7456	0.0206581	-0.000170503	-0.00665623	0.990723	0.240234	0.455078	-0.0410826	0.15675	-0.0381197	0.986047	3.31206	-0.824786	10.0187	0.000161918	-0.0281644	-0.0305462	-0.675049	0.165527	-0.782959	-0.0908221	0.0792202	-0.196144	0.973141	1.06996	-4.07122	9.61625	-0.00381969	0.0060779	0.000156409	-0.44165	0.452881	-0.842773	0.0619068	0.0341066	-0.0398812	0.996701	0.715603	-0.744011	9.81802	-0.00757326	0.00855243	-0.00572969	-0.527588	-0.00610352	-1.03394	
33	-0.0730695	-0.365953	-0.017287	0.927599	-7.21161	0.297406	7.87224	-0.00769869	-0.00135382	-0.00675996	0.515625	0.208496	-0.998779	-0.0782181	-0.215442	-0.0222797	0.973124	-4.24377	-0.0619376	9.11984	-0.00313135	0.0207779	-0.0179764	0.247314	0.128174	-1.05493	-0.229908	-0.216474	0.203372	0.92678	-3.37341	5.13483	8.74736	0.00657615	0.0101055	0.0117152	-0.0402832	-0.419189	-1.07739	0.168926	-0.383	0.366064	0.831127	-7.44201	4.70183	4.36861	0.00225653	0.00941713	0.00123043	0.525391	-0.665527	-0.659668	-0.252957	-0.0855532	-0.318746	0.909447	-3.1282	-5.33618	7.63994	-0.0164796	0.00302261	-0.00918163	0.0874023	0.790283	-0.844238	-0.635037	0.00579624	-0.419707	0.648491	-6.17772	-6.47342	7.65553	0.00306813	0.00637523	-0.00881831	0.493408	0.946533	-0.298584	-0.189308	0.0801689	0.00949805	0.978594	1.76306	-0.101051	10.4112	0.016283	-0.0169385	-0.014762	-0.492432	0.182129	-1.00562	-0.160869	-0.836302	-0.245704	0.462979	-7.55424	0.629743	-4.74916	0.0121737	0.00945942	0.000377702	0.99292	0.238037	0.455322	-0.0407408	0.157111	-0.0385166	0.985988	3.32702	-0.836647	10.0705	-0.0211755	0.00735357	-0.0310786	-0.679932	0.167725	-0.783203	-0.0908036	0.0791168	-0.196225	0.973135	1.00331	-4.14427	9.51125	0.00438196	0.0205466	0.0033042	-0.437012	0.452881	-0.842773	0.0619055	0.0342503	-0.0404521	0.996674	0.704456	-0.789993	9.75954	-0.0224207	-0.000803114	-0.00382483	-0.527588	-0.00610352	-1.03394	
34	-0.0729876	-0.365797	-0.0175527	0.927662	-7.20901	0.282556	7.90406	-0.0127743	-0.0098467	-0.00620692	0.517578	0.215088	-0.996826	-0.0779284	-0.216022	-0.0222928	0.973018	-4.1933	-0.104564	9.10156	-0.0047685	0.0281697	-0.0171593	0.249756	0.123779	-1.05713	-0.230219	-0.216325	0.202746	0.926875	-3.27247	4.95043	8.74032	-0.0200504	0.00827511	0.00788916	-0.0402832	-0.419189	-1.06812	0.16907	-0.383189	0.366257	0.830926	-7.38561	4.71709	4.33848	0.00385141	0.0159443	-0.00761356	0.529785	-0.661133	-0.655273	-0.253202	-0.0856107	-0.317936	0.909657	-3.03763	-5.25729	7.66123	0.044301	0.00205244	-0.00568251	0.0874023	0.790283	-0.839844	-0.635196	0.00561514	-0.419444	0.648507	-6.15298	-6.46683	7.61881	0.0249875	0.0111321	-0.00999315	0.489258	0.944336	-0.298584	-0.189424	0.0806924	0.00969862	0.978526	1.84743	-0.109904	10.3151	0.0190567	0.00777314	-0.0133658	-0.494629	0.182129	-0.999268	-0.161052	-0.836321	-0.245489	0.462995	-7.51592	0.656409	-4.70737	0.00536987	0.0139856	-0.0111805	0.99292	0.242432	0.452881	-0.040629	0.156642	-0.0384437	0.98607	3.30671	-0.806707	10.0461	0.0147816	0.0373497	-0.0226554	-0.674805	0.158691	-0.785156	-0.090786	0.0790588	-0.196092	0.973168	1.05402	-4.06739	9.6091	0.00356836	0.013497	0.00273898	-0.439453	0.452881	-0.838135	0.0619145	0.0343523	-0.0407276	0.996658	0.741654	-0.816506	9.78488	-0.000643664	0.00535176	-0.00452959	-0.523193	-0.00366211	-1.03613	
35	-0.0732388	-0.365671	-0.0176419	0.92769	-7.16981	0.21525	7.8977	-0.00317598	-0.00501682	0.00713325	0.515625	0.210693	-0.994629	-0.0780699	-0.215877	-0.022342	0.973038	-4.17362	-0.114978	9.13263	-0.0178111	-0.00639119	-0.0141816	0.245361	0.123779	-1.05933	-0.230109	-0.216419	0.203389	0.926739	-3.29708	5.04769	8.79462	0.0285713	0.00468141	0.00199948	-0.0402832	-0.416992	-1.06812	0.169134	-0.383424	0.366545	0.830677	-7.39415	4.60844	4.33233	0.0133257	0.0184379	0.00316233	0.525635	-0.669922	-0.659424	-0.253373	-0.0858854	-0.316759	0.909994	-3.07652	-5.14411	7.61392	0.0576854	0.000369427	-0.00618788	0.0876465	0.785889	-0.844238	-0.635247	0.00536722	-0.41913	0.648662	-6.04852	-6.30581	7.64414	0.012468	0.0116818	-0.0149305	0.489258	0.944336	-0.296387	-0.189638	0.0812421	0.00963357	0.97844	1.76156	-0.0511822	10.4398	0.0142335	-0.0298511	-0.00869118	-0.499023	0.184326	-1.00366	-0.161046	-0.836294	-0.245514	0.463032	-7.55084	0.642689	-4.72545	0.00413686	0.0135818	-0.0193188	0.990967	0.23584	0.455322	-0.0409645	0.156248	-0.0378232	0.986143	3.21886	-0.759241	9.99159	0.03086	0.0164285	-0.00808731	-0.672852	0.167969	-0.782959	-0.0908972	0.0791806	-0.195977	0.973171	1.07049	-4.10402	9.55882	0.0104697	0.00646307	0.00743605	-0.441406	0.450684	-0.835693	0.0619141	0.0343913	-0.0406517	0.99666	0.743775	-0.80172	9.76592	0.00589258	0.00783282	-0.00548049	-0.527588	-0.00610352	-1.0271	
36	-0.0732457	-0.365661	-0.0175146	0.927696	-7.18977	0.266058	7.89732	0.00611314	-0.00265689	-0.00162343	0.517578	0.212891	-0.992432	-0.0781884	-0.214536	-0.0221124	0.97333	-4.14288	-0.0704877	9.20309	-0.00695039	-0.0503862	-0.0134975	0.245361	0.125977	-1.05469	-0.230203	-0.216392	0.203784	0.926635	-3.35679	5.03292	8.79761	0.013079	0.00527867	0.00751284	-0.0424805	-0.414795	-1.0752	0.168989	-0.383247	0.366911	0.830627	-7.4757	4.59695	4.2588	0.00929613	-0.000747128	0.0171063	0.529785	-0.665527	-0.657471	-0.253272	-0.085791	-0.316582	0.910093	-2.98118	-4.95279	7.7084	-0.0253305	0.0114985	-0.0250124	0.0854492	0.785645	-0.837402	-0.635179	0.00563634	-0.419098	0.648747	-6.04068	-6.30477	7.66208	-0.00923924	0.00445505	-0.0244147	0.489258	0.939941	-0.300537	-0.189734	0.0814887	0.00923344	0.978405	1.93422	-0.0682749	10.3922	-0.00762897	0.0419654	-0.0178826	-0.494629	0.182129	-1.01001	-0.16133	-0.83629	-0.245713	0.462836	-7.51529	0.58042	-4.74773	-0.0142881	0.0194955	-0.0144344	0.988525	0.242188	0.45752	-0.0412779	0.156972	-0.0377721	0.986017	3.20074	-0.710246	10.0289	-0.00252246	-0.0319705	-0.0126727	-0.682129	0.165527	-0.7854	-0.0908723	0.0790904	-0.195912	0.973193	1.05488	-4.10171	9.58169	-0.00841481	0.0139342	0.00104093	-0.443848	0.455078	-0.835938	0.0619909	0.0342123	-0.0402219	0.996679	0.74904	-0.761307	9.76854	0.0172038	0.0124503	-0.00558408	-0.527588	-0.00610352	-1.0293	
37	-0.0732495	-0.36564	-0.0173707	0.927707	-7.21279	0.292209	7.8767	0.00270117	-0.0041976	0.000688889	0.519775	0.212891	-0.994629	-0.0783061	-0.213365	-0.0220646	0.973579	-4.20363	-0.0760047	9.19161	-0.0125783	-0.0304195	-0.0133555	0.243164	0.125977	-1.05713	-0.230328	-0.216224	0.203767	0.926647	-3.29676	5.12573	8.76276	-0.0138362	-0.00302246	0.003398	-0.0383301	-0.414795	-1.07056	0.168877	-0.382722	0.367349	0.830698	-7.42264	4.68891	4.33212	0.0231322	-0.00790267	0.022128	0.525635	-0.669922	-0.650635	-0.253256	-0.0854879	-0.317992	0.909634	-3.08091	-5.25997	7.70105	-0.0484583	0.0137053	-0.0189329	0.0874023	0.790039	-0.837402	-0.635064	0.00612791	-0.419114	0.648844	-6.13576	-6.48133	7.67483	-0.00570064	0.0036676	-0.0316598	0.489014	0.94873	-0.296631	-0.189803	0.0815956	0.00946125	0.97838	1.80208	-0.0605851	10.3782	0.0307998	-0.00766918	-0.0181642	-0.498779	0.179932	-1.00562	-0.161368	-0.836301	-0.24565	0.462836	-7.55264	0.693433	-4.74853	0.00947347	0.0169075	-0.0166834	0.990723	0.23999	0.45752	-0.0413046	0.158348	-0.0382285	0.985778	3.31207	-0.790304	10.0231	-0.0168091	-0.048528	-0.0206787	-0.675293	0.167969	-0.782959	-0.0909499	0.0792323	-0.195335	0.973291	1.04272	-4.01889	9.49353	0.0410827	0.0112166	0.00185191	-0.441406	0.450684	-0.833496	0.0619601	0.0341506	-0.0399869	0.996692	0.711798	-0.738506	9.7473	0.00861538	0.0104669	-0.00456415	-0.520752	-0.00805664	-1.03394	
38	-0.0731824	-0.36557	-0.0173646	0.92774	-7.21726	0.317055	7.89537	-0.000683655	-0.00568025	-0.00538889	0.517822	0.210693	-0.996826	-0.0786177	-0.211768	-0.0218724	0.973907	-4.15513	-0.0430321	9.1481	-0.00692255	-0.0603206	-0.00522886	0.234375	0.130371	-1.05713	-0.230484	-0.216156	0.203885	0.926598	-3.28621	4.9767	8.75961	0.0187367	0.00400826	0.00871919	-0.046875	-0.418945	-1.07275	0.168668	-0.382263	0.367709	0.830793	-7.4257	4.72363	4.31593	0.00720387	-0.00605603	0.0197979	0.520752	-0.66333	-0.659668	-0.252913	-0.085443	-0.318399	0.909591	-3.06563	-5.23434	7.68368	-0.00709773	0.016903	-0.0325517	0.0852051	0.792236	-0.839844	-0.634938	0.00634174	-0.418702	0.649233	-6.12858	-6.44002	7.64693	0.0174706	-0.000511418	-0.0320899	0.486816	0.94873	-0.307373	-0.189983	0.0812977	0.00918193	0.978373	1.80521	-0.0533794	10.3742	0.0044626	0.0329243	-0.0104171	-0.496826	0.182129	-1.00562	-0.161052	-0.836435	-0.245914	0.462563	-7.51552	0.661749	-4.74939	0.00705133	0.0244178	-0.0201031	0.99292	0.240234	0.455078	-0.0415728	0.159542	-0.0381157	0.985579	3.34977	-0.775359	10.0463	0.0122602	-0.0348572	-0.00997293	-0.679688	0.165527	-0.7854	-0.0909189	0.0792306	-0.195435	0.973274	1.04297	-4.03071	9.6532	-0.0157577	0.0114244	0.00184433	-0.44165	0.455078	-0.842773	0.0620207	0.0340865	-0.0397235	0.996701	0.714868	-0.739179	9.77551	0.0105408	0.010741	-0.00686545	-0.527588	-0.00610352	-1.0293	
39	-0.0732527	-0.36531	-0.0175625	0.927833	-7.17845	0.310624	7.88816	-0.0111022	-0.0145807	-0.00177737	0.517822	0.210693	-0.996826	-0.0788654	-0.210336	-0.0216363	0.974203	-4.10288	-0.0322365	9.24035	-0.00609323	-0.0366774	-0.00933451	0.232422	0.123779	-1.05469	-0.230434	-0.216218	0.204279	0.92651	-3.35603	5.1017	8.74577	0.00944845	0.0018	-0.00125454	-0.0402832	-0.421143	-1.07715	0.168552	-0.381931	0.367913	0.830879	-7.44776	4.67425	4.32128	0.011326	-0.00192051	0.0132133	0.530029	-0.667725	-0.661865	-0.25264	-0.0853329	-0.318831	0.909526	-3.05007	-5.1829	7.64556	-0.0202059	0.0109716	-0.0247021	0.0830078	0.79248	-0.842041	-0.634809	0.00650998	-0.418364	0.649575	-6.10726	-6.48639	7.66159	0.0125901	0.00658347	-0.0297522	0.480469	0.946533	-0.298584	-0.190178	0.0808368	0.00928959	0.978372	1.84859	-0.0494029	10.3934	0.0219299	0.0323757	-0.0151318	-0.494873	0.186523	-1.00146	-0.161043	-0.836547	-0.246023	0.462306	-7.54519	0.617662	-4.7528	-0.00170441	0.0265925	-0.0163153	0.990967	0.238037	0.45752	-0.0418453	0.160318	-0.037861	0.985451	3.41909	-0.761352	10.0709	0.0142061	-0.0171771	-0.013684	-0.682129	0.170166	-0.783203	-0.0909266	0.0792343	-0.195734	0.973212	1.04329	-4.12029	9.52847	0.011856	0.0110428	0.000701566	-0.439453	0.457275	-0.838135	0.062061	0.0341075	-0.0397806	0.996696	0.718852	-0.742603	9.77943	-0.00380245	0.00707346	-0.00521631	-0.527344	-0.00830078	-1.0293	
40	-0.0733481	-0.365232	-0.0177149	0.927853	-7.17509	0.268619	7.92072	-0.0143831	-0.0077202	0.000497835	0.513184	0.212891	-0.996826	-0.0789248	-0.209692	-0.0216521	0.974336	-4.08895	-0.0394324	9.20093	-0.0151076	-0.0371788	-0.0162303	0.228027	0.123779	-1.05688	-0.230373	-0.216156	0.204336	0.926527	-3.29945	5.09938	8.73482	0.00717249	-0.00296565	-0.00396981	-0.0446777	-0.418945	-1.07056	0.168619	-0.381808	0.368097	0.83084	-7.47198	4.85173	4.31513	0.0182262	-0.000813846	0.0056199	0.520996	-0.667725	-0.661865	-0.252613	-0.0852592	-0.319131	0.909436	-3.02973	-5.21959	7.6451	-0.0251784	0.0117054	-0.0199185	0.083252	0.787842	-0.837402	-0.634739	0.00645116	-0.418198	0.64975	-6.09483	-6.53604	7.63441	0.018151	0.0105716	-0.0248608	0.486816	0.950928	-0.298828	-0.190178	0.0808368	0.00928959	0.978372	1.84859	-0.0494029	10.3934	0.0219299	0.0323757	-0.0151318	-0.494873	0.186523	-1.00146	-0.161126	-0.836583	-0.246098	0.462173	-7.53476	0.647632	-4.74332	-0.00417704	0.0256058	-0.0167108	0.990723	0.242188	0.455078	-0.0419561	0.160399	-0.0378121	0.985435	3.44505	-0.75442	10.0537	0.00720475	0.00254782	-0.0142611	-0.68457	0.167725	-0.781006	-0.0909175	0.0791902	-0.195556	0.973253	1.07758	-4.08999	9.58517	0.0161819	0.0154795	0.000529259	-0.437012	0.450684	-0.844971	0.0620753	0.0341427	-0.039914	0.996688	0.766671	-0.798798	9.75915	-0.00936975	0.00473083	-0.00541783	-0.518555	-0.00366211	-1.03394	
41	-0.0732616	-0.365042	-0.0178643	0.927932	-7.17679	0.23475	7.91342	0.00200721	-0.00883264	-0.00764699	0.52002	0.210693	-0.996826	-0.079197	-0.207944	-0.0217448	0.974687	-4.03862	-0.0628963	9.21473	-0.0135487	-0.0358983	-0.0117049	0.230225	0.125977	-1.05225	-0.230138	-0.216142	0.20449	0.926554	-3.24846	5.01706	8.76391	-0.00717058	0.0059517	-0.00014225	-0.0424805	-0.421143	-1.07275	0.168579	-0.381656	0.367744	0.831074	-7.35405	4.7274	4.36169	-0.0121722	-0.00169365	0.00108229	0.529785	-0.66333	-0.664062	-0.252279	-0.085504	-0.31974	0.909291	-3.0675	-5.19906	7.61499	-0.00464912	0.0218219	-0.0231785	0.0874023	0.794678	-0.839844	-0.634686	0.0060329	-0.417473	0.650272	-6.07165	-6.40052	7.67338	0.0282676	0.00803195	-0.0204928	0.484619	0.94873	-0.309326	-0.190488	0.079822	0.00946426	0.978393	1.82775	-0.0717783	10.3411	0.0135097	0.0434906	-0.00909473	-0.492676	0.184326	-1.00366	-0.160898	-0.836779	-0.246218	0.461833	-7.5382	0.650585	-4.78279	0.00925885	0.0249054	-0.0202462	0.988525	0.23999	0.459961	-0.0420762	0.160173	-0.0376287	0.985474	3.34612	-0.783419	9.97931	0.0106907	0.014377	-0.0163687	-0.684082	0.160889	-0.785156	-0.09099	0.0791878	-0.19608	0.973141	1.03995	-4.09225	9.60655	-0.00929452	0.0138575	0.00790183	-0.439453	0.457275	-0.835938	0.062165	0.033979	-0.0395599	0.996703	0.735098	-0.723265	9.7968	-0.000421701	0.0100402	-0.00597574	-0.524902	-0.0126953	-1.03369	
42	-0.0731939	-0.365043	-0.0179063	0.927936	-7.16052	0.247556	7.90375	-0.00144256	0.00358801	-0.000131458	0.513184	0.215088	-0.996826	-0.0796398	-0.206495	-0.0213	0.974968	-4.06579	-0.151753	9.26446	-0.0131205	-0.00301564	-0.00494729	0.223877	0.121582	-1.05225	-0.230117	-0.216246	0.204433	0.926548	-3.29505	5.0205	8.72485	0.00209313	0.00140427	-7.88492e-05	-0.0402832	-0.421143	-1.07275	0.16843	-0.381336	0.367508	0.831356	-7.39434	4.67915	4.40757	-0.00503557	-0.00272758	0.00780414	0.527588	-0.66333	-0.659668	-0.251935	-0.0855061	-0.321368	0.908812	-3.08257	-5.29014	7.54367	-0.0480737	0.0196915	-0.0242035	0.0874023	0.792236	-0.828369	-0.634671	0.0060701	-0.416856	0.650682	-6.08469	-6.39267	7.68805	0.00678243	0.0048442	-0.0221469	0.484863	0.946533	-0.307129	-0.190745	0.0802915	0.00938185	0.978306	1.78818	-0.0763121	10.4549	0.0166887	-0.0154773	-0.00964014	-0.490723	0.188721	-1.01001	-0.160504	-0.836941	-0.246714	0.461411	-7.49997	0.606382	-4.72267	-0.00357311	0.029313	-0.0226208	0.98877	0.235596	0.459961	-0.042551	0.16074	-0.0377085	0.985358	3.36398	-0.822171	9.97095	-0.00433754	-0.0118987	-0.00708645	-0.681885	0.16333	-0.785156	-0.0911112	0.0791188	-0.196418	0.973067	1.06564	-4.10568	9.53046	-0.00629615	0.0130033	0.00366707	-0.439697	0.459473	-0.838135	0.0621429	0.0339543	-0.03982	0.996694	0.728573	-0.727646	9.74106	-0.0170438	0.00745904	-0.00191001	-0.527344	-0.010498	-1.0271	
43	-0.0729108	-0.365135	-0.0179215	0.927922	-7.21656	0.309389	7.90577	0.00499202	-0.00446525	-0.016237	0.517822	0.210693	-1.00098	-0.0798993	-0.206051	-0.0220844	0.975024	-4.02473	-0.0237388	9.14275	-0.0351111	-0.0158183	-0.0194299	0.223633	0.123779	-1.05469	-0.230113	-0.216295	0.204581	0.926505	-3.32369	5.02239	8.73657	0.015832	0.00566202	0.00140162	-0.0444336	-0.42334	-1.06812	0.168333	-0.381321	0.36736	0.831448	-7.47013	4.64071	4.34322	-0.013041	0.00572947	0.00296119	0.523193	-0.665527	-0.664062	-0.251911	-0.0852912	-0.322172	0.908555	-3.09508	-5.32602	7.56338	-0.0279272	0.0114149	-0.0161527	0.0871582	0.801025	-0.835205	-0.634689	0.00631991	-0.416872	0.650651	-6.16386	-6.49621	7.67529	-0.00145679	0.0115209	-0.0157941	0.480225	0.950684	-0.307373	-0.190852	0.0808405	0.00953685	0.978238	1.75719	-0.0975475	10.3863	0.000810307	-0.0375651	-0.0114354	-0.496582	0.177979	-1.00562	-0.160657	-0.837128	-0.247081	0.460821	-7.5014	0.62181	-4.79397	-0.0117353	0.0436664	-0.0191372	0.988525	0.23999	0.45752	-0.0429654	0.160948	-0.03769	0.985307	3.38028	-0.841888	10.0883	0.0124411	0.00981725	-0.00522427	-0.682129	0.167725	-0.778564	-0.091183	0.079103	-0.196502	0.973044	0.994764	-4.11124	9.60418	-0.00866915	0.0139471	0.00526188	-0.444092	0.457275	-0.835938	0.0621185	0.0340522	-0.0404257	0.996668	0.69829	-0.780019	9.79841	-0.0206289	0.00108269	-0.00212857	-0.525146	-0.00830078	-1.03394	
44	-0.0728825	-0.365166	-0.0183337	0.927904	-7.15733	0.352073	7.92496	-0.0152237	0.00166774	-0.00750106	0.512939	0.217041	-0.990479	-0.0800032	-0.205783	-0.0218549	0.975077	-4.04032	-0.105631	9.12992	0.00558383	-0.00816726	-0.0078268	0.226074	0.119629	-1.04736	-0.229404	-0.216756	0.205813	0.9263	-3.34124	5.18992	8.76929	0.0267416	0.00652774	-0.0233264	-0.0466309	-0.42334	-1.06812	0.168209	-0.381374	0.366975	0.831618	-7.44801	4.70022	4.37158	-0.0191897	0.00421771	0.000422016	0.52124	-0.669922	-0.661621	-0.252033	-0.085234	-0.32263	0.908364	-3.02682	-5.33282	7.64564	-0.0178551	0.0127372	-0.00618916	0.0847168	0.803223	-0.835205	-0.634592	0.0061873	-0.416762	0.650819	-6.14301	-6.49269	7.67517	0.0145757	0.0189691	-0.0225261	0.478271	0.946533	-0.302979	-0.191073	0.080855	0.00894258	0.978199	1.85963	-0.166806	10.4134	-0.0399877	0.0105825	-0.0129181	-0.494629	0.182129	-1.00562	-0.160882	-0.837193	-0.247348	0.460483	-7.52751	0.662376	-4.82682	-0.00902035	0.0194877	-0.0171545	0.986328	0.244385	0.464355	-0.0431464	0.160526	-0.0375856	0.985372	3.36372	-0.826573	10.0792	0.00922977	0.0298304	-0.0162521	-0.682129	0.169922	-0.776367	-0.0911698	0.0790215	-0.196619	0.973029	1.09166	-4.09306	9.49202	-0.00450145	0.0218302	0.00237918	-0.44165	0.452881	-0.833496	0.0620791	0.0340813	-0.0404048	0.996671	0.737224	-0.831539	9.75067	0.0145175	0.00955489	-0.00240421	-0.522949	-0.00830078	-1.02466	
45	-0.0732407	-0.365149	-0.018918	0.927871	-7.20094	0.289627	7.88856	-0.0302859	-0.00549604	0.00535393	0.517334	0.219482	-0.996826	-0.0802055	-0.206149	-0.0210816	0.975	-3.97605	-0.112729	9.2469	0.0196898	0.0409798	-0.00439327	0.22168	0.121582	-1.05444	-0.229011	-0.216981	0.204948	0.926536	-3.23566	4.98166	8.77151	-0.0371204	0.0175351	-0.0250716	-0.0444336	-0.42334	-1.07715	0.167682	-0.381518	0.366389	0.831917	-7.32896	4.61098	4.34618	-0.0239282	0.0112361	0.0157548	0.523193	-0.665527	-0.659668	-0.252227	-0.0854998	-0.322381	0.908373	-3.13407	-5.32477	7.55794	0.0341737	0.00601793	-0.00979906	0.0871582	0.801025	-0.837402	-0.634259	0.00596774	-0.416466	0.651334	-6.07416	-6.30774	7.6541	0.0216596	0.0161134	-0.035604	0.482422	0.952881	-0.30957	-0.191257	0.0821326	0.00927557	0.978054	1.80391	-0.0273973	10.2516	0.0195607	-0.0300849	-0.0125104	-0.49707	0.186523	-1.00366	-0.160694	-0.837244	-0.247386	0.460434	-7.4932	0.655255	-4.75987	0.0165408	0.0217187	-0.0254131	0.990723	0.240234	0.455078	-0.0436793	0.160175	-0.0374703	0.98541	3.27039	-0.826669	9.98002	0.0171512	0.0126598	0.00403652	-0.684326	0.163086	-0.782959	-0.0912299	0.0791532	-0.196548	0.973027	1.0461	-4.10514	9.61338	-0.0055365	0.0028929	0.00436354	-0.439453	0.457275	-0.838135	0.062048	0.0340701	-0.0402961	0.996677	0.701661	-0.701509	9.7754	-0.00111635	0.00840592	-0.00189792	-0.527344	-0.010498	-1.03394	
46	-0.0738605	-0.365074	-0.0196033	0.927837	-7.21318	0.18931	7.87729	-0.0333191	-0.00319463	0.01539	0.519531	0.219482	-0.992432	-0.0805525	-0.206629	-0.0205397	0.974881	-4.08945	-0.0741835	9.18542	0.00791502	0.0218196	0.00162121	0.226074	0.119385	-1.06152	-0.228429	-0.217405	0.205755	0.926402	-3.37806	4.96662	8.68066	0.0719675	0.00294149	-0.0126977	-0.0402832	-0.425537	-1.06567	0.167005	-0.381315	0.366335	0.83217	-7.38581	4.5107	4.30987	-0.00413302	0.00149813	0.0320731	0.520996	-0.665527	-0.664062	-0.252189	-0.0854655	-0.321947	0.908541	-3.07586	-5.20562	7.55362	0.0355991	-0.00224769	-0.019415	0.0917969	0.794678	-0.839844	-0.633817	0.00631965	-0.416544	0.651711	-6.02623	-6.346	7.65598	-0.00955293	0.0136416	-0.0439517	0.484863	0.942139	-0.294189	-0.191513	0.0821019	0.00944625	0.978005	1.85633	-0.0893043	10.4135	0.0298885	0.0251201	-0.0106285	-0.496826	0.182129	-1.00146	-0.160515	-0.837263	-0.247599	0.460349	-7.49937	0.587231	-4.77626	0.00691853	0.0197795	-0.0235827	0.986572	0.23999	0.462158	-0.0436793	0.160175	-0.0374703	0.98541	3.27039	-0.826669	9.98002	0.0171512	0.0126598	0.00403652	-0.684326	0.163086	-0.782959	-0.0912025	0.0791316	-0.196975	0.972945	1.0426	-4.08406	9.54762	-0.0330715	0.0175501	0.00375676	-0.446289	0.457275	-0.835938	0.0620896	0.034164	-0.0407872	0.996651	0.732158	-0.789595	9.78154	-0.0190397	0.00337266	-0.00550555	-0.525391	-0.00610352	-1.03394	
47	-0.074156	-0.365047	-0.0197609	0.927821	-7.21645	0.140743	7.89362	-0.0205904	-0.0034625	0.0160675	0.517334	0.219482	-0.996826	-0.0807196	-0.206372	-0.0199972	0.974933	-4.04444	0.0311076	9.26566	0.0112143	-0.00147682	-0.0118134	0.22168	0.121582	-1.05688	-0.228195	-0.217495	0.206341	0.926308	-3.40499	5.15576	8.70039	0.0536278	-0.00191802	-0.00744417	-0.0380859	-0.427734	-1.06787	0.166804	-0.381129	0.366741	0.832117	-7.40961	4.62693	4.34367	0.0258728	0.00648161	0.0317666	0.525635	-0.667725	-0.657471	-0.252191	-0.0852272	-0.322026	0.908535	-3.0641	-5.14468	7.61571	-0.018763	0.00133227	-0.0164339	0.0874023	0.794434	-0.835205	-0.633618	0.00664909	-0.416692	0.651807	-6.02324	-6.4657	7.66185	-0.0179008	0.0123398	-0.0439587	0.478516	0.944336	-0.298584	-0.191559	0.0821869	0.00968483	0.977986	1.85796	-0.0749088	10.4256	0.0323215	0.00426782	-0.0176297	-0.49707	0.186523	-1.00146	-0.160512	-0.837262	-0.247691	0.460301	-7.4703	0.587541	-4.83184	0.00211112	0.020478	-0.0226899	0.984375	0.23999	0.462158	-0.0444739	0.161456	-0.0373679	0.985169	3.38282	-0.81434	9.99158	-0.00507126	-0.0444154	-0.00185839	-0.67749	0.170166	-0.783203	-0.0911235	0.0790705	-0.197018	0.972948	1.02305	-4.16073	9.55924	-0.0042069	0.0186434	-0.000215952	-0.441895	0.459473	-0.838135	0.0621	0.034214	-0.0409803	0.996641	0.739973	-0.807139	9.74434	-0.0140392	0.00303556	-0.00493499	-0.518555	-0.00585938	-1.0293	
48	-0.0741817	-0.364993	-0.0197457	0.92784	-7.21536	0.170617	7.89455	0.00565833	-0.00478737	-0.00380695	0.519531	0.219482	-0.996826	-0.0808297	-0.206414	-0.0198979	0.974917	-4.04632	0.0315336	9.19721	-0.0077461	0.0172118	-0.0126561	0.22583	0.121582	-1.05225	-0.228172	-0.217337	0.206249	0.926371	-3.29021	5.07648	8.78124	-0.00414997	0.00199307	0.00117536	-0.0422363	-0.427734	-1.07251	0.166533	-0.380864	0.367124	0.832123	-7.4058	4.77385	4.37778	0.00134367	0.000508581	0.0169887	0.518799	-0.667725	-0.655029	-0.252261	-0.0849406	-0.322709	0.9083	-3.00882	-5.3024	7.60913	-0.0248397	0.0100598	-0.0167945	0.0852051	0.794434	-0.835205	-0.633379	0.00695492	-0.416665	0.652053	-6.03711	-6.58284	7.66408	0.0034926	0.0106908	-0.0304861	0.480469	0.94873	-0.305176	-0.191805	0.0822445	0.0103713	0.977926	1.87211	-0.0811851	10.3317	0.0416796	0.0130203	-0.0121043	-0.494629	0.182129	-1.00146	-0.160682	-0.837301	-0.247679	0.460178	-7.49979	0.572891	-4.80279	0.00241745	0.014949	-0.00818822	0.988525	0.23999	0.462158	-0.044533	0.162277	-0.0376407	0.985021	3.48252	-0.825367	10.0126	-0.0109887	-0.0163782	-0.0258344	-0.686768	0.167725	-0.778564	-0.091118	0.07914	-0.196983	0.97295	1.03922	-4.10369	9.51273	-0.00121818	0.0115349	-0.00107128	-0.441895	0.459473	-0.835938	0.062119	0.0341665	-0.0408526	0.996647	0.706092	-0.836588	9.77133	0.0175419	0.0139026	-0.00300957	-0.529785	-0.00610352	-1.03174	
49	-0.0738415	-0.364814	-0.0194855	0.927943	-7.16797	0.274616	7.88161	0.0147217	-0.0116519	-0.0118098	0.517578	0.215088	-0.996826	-0.080852	-0.206075	-0.0202584	0.97498	-4.01699	-0.0592255	9.21875	-0.0336136	-0.0106016	-0.0239318	0.22583	0.125977	-1.05469	-0.228337	-0.217448	0.206468	0.926256	-3.29742	5.11579	8.75183	0.00861344	0.00772171	0.00797702	-0.0358887	-0.427979	-1.07031	0.166398	-0.380777	0.366924	0.832278	-7.36603	4.8048	4.3733	-0.0102235	-0.00164399	0.0044593	0.520996	-0.667725	-0.657471	-0.252313	-0.0850611	-0.322856	0.908222	-3.06487	-5.28673	7.5818	-0.00219478	0.0117825	-0.0102308	0.0893555	0.796631	-0.830566	-0.63335	0.00672185	-0.416215	0.65237	-6.06278	-6.54171	7.68292	0.0283439	0.00944311	-0.0149293	0.478271	0.94873	-0.311523	-0.1919	0.0820673	0.0110396	0.977915	1.828	-0.034227	10.3315	0.0351655	0.00903645	-0.00852818	-0.500977	0.179932	-1.00342	-0.161017	-0.837378	-0.247495	0.460019	-7.47624	0.634196	-4.74371	-0.00931132	0.0267617	-0.00174465	0.988525	0.23999	0.462158	-0.0441894	0.162153	-0.0377054	0.985054	3.50367	-0.828544	9.99829	0.000503191	0.0262823	-0.0328837	-0.68457	0.169922	-0.776367	-0.0912138	0.0791479	-0.19654	0.97303	1.05355	-4.12289	9.63957	0.0245561	0.0160108	0.00596849	-0.439453	0.457275	-0.842773	0.0621573	0.0342084	-0.0406789	0.99665	0.735378	-0.722627	9.76602	0.000961295	0.00515735	-0.00616363	-0.525391	-0.00610352	-1.03174	
50	-0.0737837	-0.364747	-0.0194834	0.927974	-7.17213	0.300025	7.93351	-0.00409311	-0.00360461	-0.00120734	0.515137	0.219238	-0.992432	-0.0808916	-0.205597	-0.0204949	0.975072	-3.96731	-0.0715702	9.22532	-0.0195962	-0.0055038	-0.018445	0.223633	0.123779	-1.05469	-0.228542	-0.217363	0.205745	0.926386	-3.30216	5.03314	8.68392	-0.0324508	0.0093257	-0.00382507	-0.0380859	-0.423584	-1.06812	0.16656	-0.380976	0.366624	0.832287	-7.31336	4.71634	4.37213	-0.00154265	0.0117026	-0.0129102	0.525391	-0.66333	-0.661865	-0.252314	-0.0851987	-0.32285	0.908211	-3.0506	-5.32276	7.56762	-0.00410593	0.0129241	-0.0102818	0.0913086	0.803223	-0.830566	-0.633536	0.00631262	-0.415752	0.652489	-6.06334	-6.48602	7.62954	0.0237752	0.0113191	-0.00637217	0.478271	0.946533	-0.309326	-0.192283	0.0816277	0.0116904	0.977869	1.93137	-0.0787465	10.4379	0.0343888	0.0452269	-0.00447924	-0.496582	0.179932	-1.00562	-0.161437	-0.837511	-0.247487	0.459634	-7.54662	0.680953	-4.76748	-0.0133266	0.0238099	-0.00824918	0.990479	0.244385	0.462158	-0.0440964	0.16144	-0.0375385	0.985182	3.39553	-0.836217	10.0019	0.0137696	0.0402505	-0.0221976	-0.688965	0.165527	-0.783203	-0.0912635	0.0790925	-0.1967	0.972998	1.08048	-4.02675	9.59255	-0.0105188	0.0217374	0.00569794	-0.437012	0.452881	-0.835693	0.0621509	0.0342355	-0.0408329	0.996643	0.741661	-0.738959	9.75307	-0.00669796	0.00729259	-0.00298319	-0.522949	-0.010498	-1.02466	
51	-0.0737778	-0.364809	-0.019699	0.927946	-7.20446	0.257982	7.91042	-0.00825714	0.00160403	-0.00682753	0.515137	0.217285	-0.994629	-0.0809801	-0.205539	-0.0204618	0.975078	-3.99843	-0.0479651	9.24462	-0.00402045	0.0218513	-0.0151724	0.22168	0.121582	-1.04736	-0.228419	-0.217561	0.206204	0.926268	-3.2631	4.98918	8.72715	0.0224198	0.00520788	-0.00149172	-0.0380859	-0.425537	-1.07251	0.166669	-0.381236	0.366659	0.832131	-7.35025	4.68133	4.3476	0.00490454	0.0153876	-0.00319319	0.523193	-0.66333	-0.659668	-0.252616	-0.0853746	-0.322649	0.908181	-3.03139	-5.2522	7.61486	0.0126938	0.0109477	-0.0026038	0.0917969	0.794434	-0.833008	-0.633562	0.00591144	-0.415331	0.652736	-6.00898	-6.38942	7.68955	0.0267556	0.0137191	-0.0179734	0.478027	0.950684	-0.307373	-0.192687	0.0806765	0.0119549	0.977865	1.85632	-0.0534408	10.3283	0.0349468	0.052959	-0.00434702	-0.494141	0.173584	-1.00342	-0.161897	-0.837561	-0.247696	0.459269	-7.47314	0.643613	-4.79248	-0.0185191	0.0266739	-0.0131911	0.990967	0.237793	0.462158	-0.0443732	0.160877	-0.0368742	0.985287	3.30896	-0.772854	9.98638	0.0335279	0.0260948	-0.0134141	-0.686768	0.165527	-0.7854	-0.0913031	0.0789524	-0.197007	0.972943	1.04751	-4.11967	9.53508	-0.0110567	0.0124278	0.00511605	-0.441895	0.459473	-0.835938	0.0621051	0.034313	-0.0412276	0.996627	0.738784	-0.739098	9.76116	-0.0210271	0.00425356	-0.00256953	-0.523193	-0.00366211	-1.0271	
52	-0.0739081	-0.364824	-0.0199615	0.927924	-7.20679	0.196561	7.89101	-0.0106018	-0.00128411	0.00297087	0.517334	0.217285	-0.990234	-0.0811637	-0.205564	-0.0204429	0.975058	-4.05582	0.00614096	9.21708	-0.0103266	0.0120277	-0.0134335	0.22583	0.121582	-1.05444	-0.22838	-0.217761	0.207087	0.926033	-3.38471	5.15345	8.74488	0.0264705	0.00366252	0.00748803	-0.0422363	-0.427734	-1.06787	0.166653	-0.381291	0.366676	0.832102	-7.43332	4.65021	4.37598	0.000745284	0.00723129	0.00292558	0.523438	-0.669922	-0.661621	-0.252555	-0.0854569	-0.322817	0.908131	-3.08083	-5.17914	7.57519	-0.0173048	0.0174864	-0.0188341	0.0830078	0.796631	-0.828369	-0.633558	0.00568573	-0.414747	0.653113	-6.04769	-6.37084	7.7009	0.0257206	0.00504821	-0.0187362	0.478027	0.950684	-0.30957	-0.192932	0.0800524	0.0121601	0.977865	1.77919	-0.0248709	10.3269	0.025408	0.0280507	-0.00961075	-0.492432	0.179932	-1.00146	-0.162257	-0.837637	-0.247841	0.458925	-7.47631	0.639157	-4.80334	-0.00789627	0.0267554	-0.0130518	0.986572	0.235596	0.459961	-0.0444935	0.1609	-0.0365007	0.985291	3.29307	-0.792155	10.0154	0.00951557	0.00192326	-0.0222896	-0.684326	0.165527	-0.780762	-0.0913476	0.0788895	-0.197006	0.972944	1.01127	-4.13665	9.52787	-0.00210505	0.0153632	0.00368716	-0.446289	0.459473	-0.83374	0.0620834	0.0342742	-0.0413459	0.996625	0.72035	-0.837882	9.77159	0.00460579	0.00787951	-0.00484949	-0.529785	-0.00610352	-1.03174	
53	-0.0740455	-0.36474	-0.0199663	0.927946	-7.22107	0.17681	7.88113	0.00207352	-0.00570467	-0.000544424	0.515381	0.215088	-0.992432	-0.0812336	-0.205493	-0.0204384	0.975067	-4.05901	-0.0337338	9.21296	-0.00924289	0.015532	-0.0167171	0.226074	0.119385	-1.05908	-0.228504	-0.217721	0.206933	0.926047	-3.38384	5.14643	8.72374	-0.0113612	0.00604522	0.00622251	-0.0402832	-0.416992	-1.06592	0.166676	-0.38127	0.366678	0.832105	-7.43423	4.73203	4.36664	0.000175746	0.00367904	-0.00119773	0.520996	-0.667725	-0.661865	-0.252676	-0.0853478	-0.323713	0.907789	-3.09688	-5.29835	7.54789	-0.0411553	0.0130449	-0.0105993	0.0871582	0.798828	-0.826172	-0.633603	0.00559133	-0.414309	0.653348	-6.06389	-6.44439	7.70429	0.0166152	0.00501786	-0.0150759	0.478027	0.950684	-0.313721	-0.193225	0.0800168	0.0120149	0.977812	1.79253	-0.0339454	10.4022	0.00412294	0.0177157	-0.00783856	-0.498779	0.177734	-1.00122	-0.162509	-0.837746	-0.247853	0.45863	-7.45668	0.656013	-4.81094	-0.00423513	0.0248827	-0.00974417	0.990967	0.237793	0.4646	-0.0443443	0.16109	-0.0364976	0.985267	3.35954	-0.782557	10.0372	-0.00112534	0.00511765	-0.0268977	-0.679688	0.165527	-0.780762	-0.0914594	0.0788949	-0.196954	0.972944	1.04212	-4.14748	9.6045	0.0148099	0.0123833	0.00645861	-0.443604	0.450684	-0.835693	0.0620576	0.0342413	-0.041178	0.996635	0.732384	-0.802768	9.75386	0.01042	0.0112107	-0.00344863	-0.527344	-0.00830078	-1.03394	
54	-0.0740182	-0.364729	-0.0199	0.927954	-7.18658	0.206283	7.90252	0.00732256	-0.0037917	-0.00339199	0.515137	0.219482	-0.994629	-0.0812432	-0.205648	-0.0204746	0.975033	-4.03642	-0.0241008	9.20882	-0.011136	0.0280426	-0.0181737	0.22583	0.121582	-1.05444	-0.228754	-0.217786	0.206885	0.92598	-3.34757	5.07076	8.715	-0.000912499	0.00740504	0.00823197	-0.0380859	-0.425537	-1.07251	0.166661	-0.381334	0.366436	0.832185	-7.37262	4.70974	4.36595	-0.00899378	0.00664379	-0.00191423	0.520996	-0.665527	-0.659668	-0.252752	-0.0853011	-0.32412	0.907627	-3.09779	-5.32818	7.54161	-0.035038	0.0128652	-0.0102839	0.0915527	0.798828	-0.830566	-0.633616	0.00552047	-0.414144	0.653442	-6.09574	-6.45075	7.69199	0.0160553	0.00876922	-0.0161612	0.478271	0.948486	-0.313721	-0.193316	0.0806348	0.0107039	0.977759	1.78388	-0.13416	10.2634	-0.0290549	-0.00258816	-0.0116727	-0.496582	0.179932	-1.00146	-0.16252	-0.837819	-0.247855	0.458491	-7.47065	0.670321	-4.81204	0.0031802	0.0279458	-0.0138035	0.98877	0.237793	0.466797	-0.0442607	0.16107	-0.0364867	0.985275	3.36758	-0.81637	10.0676	0.00226525	0.0113233	-0.0280379	-0.689209	0.167725	-0.783203	-0.0914776	0.0789171	-0.196878	0.972956	1.02019	-4.11309	9.54441	0.0074405	0.0101882	0.00407189	-0.44165	0.455078	-0.838135	0.0620563	0.0342626	-0.0410329	0.99664	0.68719	-0.740025	9.79454	0.0127567	0.00706045	-0.00445826	-0.522949	-0.00610352	-1.03394	
55	-0.0739412	-0.364599	-0.0196943	0.928015	-7.21834	0.263292	7.87956	0.00778973	-0.0122929	-0.00152485	0.515137	0.217041	-0.990234	-0.0813229	-0.206137	-0.0205677	0.974921	-4.03562	-0.0606336	9.18409	-0.00912078	0.0375564	-0.0136902	0.223633	0.123779	-1.05688	-0.228805	-0.21786	0.207214	0.925877	-3.29774	5.07254	8.71793	0.00999306	0.00495474	0.00386244	-0.0380859	-0.425537	-1.07031	0.166627	-0.38144	0.366358	0.832178	-7.3493	4.69593	4.35539	-0.00685091	0.0131499	-0.00194008	0.516602	-0.665527	-0.664062	-0.253016	-0.0852582	-0.324481	0.907428	-3.08917	-5.3032	7.53391	-0.00823905	0.00793806	-0.0054712	0.0893555	0.798828	-0.830566	-0.633675	0.00529215	-0.413779	0.653616	-6.06974	-6.43398	7.71771	0.0193408	0.0105101	-0.0127439	0.478271	0.94873	-0.309326	-0.193409	0.0806454	0.0104255	0.977743	1.81573	-0.0639177	10.227	-0.00663744	0.018296	-0.0107406	-0.492676	0.186523	-1.00146	-0.162472	-0.837989	-0.247867	0.458191	-7.45732	0.696779	-4.80835	0.00963074	0.03227	-0.0147237	0.989014	0.229248	0.462402	-0.0441978	0.160835	-0.0362655	0.985324	3.35919	-0.817029	10.0218	0.0172411	0.0198173	-0.0244304	-0.679688	0.165527	-0.776367	-0.0913966	0.0789936	-0.196798	0.972973	1.05491	-4.07159	9.59435	-0.00377043	0.00917512	-0.0015951	-0.44165	0.455078	-0.840332	0.0621038	0.0343064	-0.0411471	0.996631	0.734538	-0.799122	9.76638	-0.00347222	0.00692921	-0.0062316	-0.527588	-0.00390625	-1.0249	
56	-0.0740935	-0.364445	-0.0195861	0.928066	-7.15607	0.248733	7.89644	0.00147146	-0.00569349	0.00599721	0.513428	0.210693	-0.994629	-0.0814126	-0.206472	-0.0199019	0.974856	-4.06349	-0.0165948	9.13764	0.0296622	0.0198991	-0.00786453	0.221436	0.123779	-1.05688	-0.228861	-0.217893	0.207496	0.925792	-3.34989	5.04802	8.74989	0.0167845	0.00362038	0.00407385	-0.0422363	-0.427734	-1.07031	0.166619	-0.38147	0.366531	0.83209	-7.37438	4.66639	4.38132	0.0174128	0.00659317	0.00295128	0.520996	-0.667725	-0.661865	-0.252978	-0.0852043	-0.325127	0.907213	-3.09986	-5.26225	7.55144	-0.0267176	0.0102168	-0.00956264	0.0913086	0.803223	-0.830566	-0.633754	0.00511657	-0.413413	0.653773	-6.00084	-6.34725	7.72886	0.0130977	0.00556352	-0.0148478	0.476074	0.946533	-0.313721	-0.19355	0.0798526	0.0095436	0.977789	1.75241	-0.0868641	10.276	-0.0103394	0.0596279	-0.0134124	-0.488037	0.180176	-1.00562	-0.16207	-0.838186	-0.247733	0.458047	-7.46205	0.653837	-4.80771	0.0220413	0.0204083	-0.0171525	0.98877	0.235596	0.462402	-0.0442597	0.160916	-0.0358395	0.985324	3.29744	-0.761841	9.98476	0.0194317	-0.00183046	-0.0205077	-0.677246	0.160889	-0.780762	-0.0914743	0.0789728	-0.196781	0.972971	1.02238	-4.08681	9.5221	-0.00340553	0.00949115	0.00595066	-0.441895	0.459473	-0.845215	0.0621082	0.0343839	-0.0412649	0.996623	0.745657	-0.747117	9.78147	-0.0122131	0.00375966	-0.00386678	-0.529785	-0.00610352	-1.03174	
57	-0.074417	-0.364486	-0.019482	0.928026	-7.20766	0.223684	7.90296	0.00143904	-3.43698e-05	0.0103974	0.515137	0.217285	-0.999023	-0.081493	-0.207041	-0.0202094	0.974723	-4.09508	-0.00624131	9.21577	-0.0349503	0.0393909	-0.0215493	0.223633	0.125977	-1.05005	-0.22903	-0.217875	0.207454	0.925764	-3.33992	5.13704	8.69825	-0.00357595	0.00559633	0.00494062	-0.0400391	-0.427734	-1.07031	0.166653	-0.381417	0.366841	0.831971	-7.40727	4.66038	4.34632	0.013435	0.00846187	0.00556238	0.520996	-0.667725	-0.655029	-0.252979	-0.0849901	-0.325468	0.90711	-3.1053	-5.28751	7.50936	-0.013787	0.00437489	-0.0183335	0.0891113	0.80542	-0.821533	-0.633759	0.0053047	-0.413388	0.653783	-6.03248	-6.40007	7.72343	-0.0069905	0.00818419	-0.0184871	0.473877	0.946533	-0.311523	-0.193506	0.0790528	0.00912122	0.977867	1.81357	-0.0192855	10.3502	-0.00901587	0.0576047	-0.0242945	-0.492676	0.188721	-1.00586	-0.161989	-0.838237	-0.247647	0.458027	-7.47172	0.642347	-4.78956	0.0130453	0.0154217	-0.0158629	0.98877	0.237793	0.462158	-0.0444109	0.161512	-0.0357817	0.985221	3.338	-0.77819	10.0455	-0.00110323	-0.0182972	-0.0157367	-0.684082	0.15625	-0.780762	-0.0914048	0.0789611	-0.196771	0.972981	1.02427	-4.10269	9.61905	0.00985184	0.0147029	-0.000475464	-0.446045	0.455078	-0.840332	0.0621356	0.0343786	-0.0414108	0.996615	0.721057	-0.797709	9.76296	-0.0047192	0.00639075	-0.00594201	-0.527344	-0.010498	-1.03149	
58	-0.0745465	-0.364531	-0.0192181	0.928004	-7.12182	0.243382	7.92502	0.00875954	0.00213412	0.00835791	0.519531	0.217285	-0.996826	-0.0812259	-0.207637	-0.0208108	0.974606	-4.02793	-0.0110752	9.13635	-0.0237606	0.0340068	-0.0238582	0.230225	0.123779	-1.05933	-0.228979	-0.217779	0.207923	0.925694	-3.26392	5.04896	8.73868	0.0340425	-0.00499225	0.00245322	-0.0422363	-0.429932	-1.06567	0.166688	-0.381356	0.367283	0.831797	-7.39691	4.762	4.36039	0.014504	0.00793201	0.00536418	0.519043	-0.672119	-0.663818	-0.253181	-0.08471	-0.325479	0.907076	-3.09446	-5.31917	7.56698	-0.000998959	-0.00357417	-0.0124558	0.0871582	0.798828	-0.830566	-0.633736	0.00545897	-0.413622	0.653656	-6.05539	-6.48466	7.7335	-0.0108025	0.0164242	-0.0124175	0.47583	0.950684	-0.311523	-0.193547	0.078845	0.00899391	0.977876	1.83066	-0.128636	10.2615	0.0325238	0.0557065	-0.0146027	-0.492432	0.179932	-1.00562	-0.161696	-0.838212	-0.24762	0.458192	-7.46315	0.652849	-4.81587	0.0188788	0.010101	-0.0231638	0.98877	0.235596	0.469238	-0.0445195	0.162024	-0.0357766	0.985133	3.42977	-0.770725	10.0271	0.00396052	-0.0073042	-0.0177665	-0.681885	0.16333	-0.782959	-0.0915039	0.0791144	-0.196398	0.973034	1.04249	-4.10663	9.58833	0.0153469	-0.000212626	0.00469015	-0.446289	0.459473	-0.838379	0.0621499	0.034316	-0.0412003	0.996625	0.765148	-0.842941	9.7279	0.0122912	0.0126662	-0.00508129	-0.522949	-0.00830078	-1.03394	
59	-0.0747661	-0.364827	-0.0188682	0.927877	-7.23421	0.230387	7.91205	0.0143428	0.00736577	0.0109344	0.515381	0.215088	-0.992432	-0.0812416	-0.208418	-0.0205211	0.974444	-4.02002	-0.0199252	9.24994	0.00307981	0.0570929	-0.0130055	0.230469	0.119385	-1.05688	-0.228955	-0.21788	0.20792	0.925677	-3.31532	5.22906	8.70747	-0.0274302	0.0125673	-0.00207839	-0.0444336	-0.432129	-1.06787	0.166676	-0.381375	0.367247	0.831806	-7.35147	4.75142	4.39257	-0.00282262	0.00892727	-0.00182628	0.523193	-0.667725	-0.659668	-0.253396	-0.0848202	-0.32555	0.90698	-3.0877	-5.35629	7.54853	-0.00170285	0.0164557	-0.00209681	0.0871582	0.796631	-0.826172	-0.633827	0.00539084	-0.413548	0.653615	-6.05827	-6.50225	7.73871	0.0110338	0.010801	-0.00903703	0.473877	0.950684	-0.315918	-0.193636	0.0777103	0.00869392	0.977952	1.75676	-0.135883	10.3606	0.0113312	0.0134236	-0.0173746	-0.488037	0.182129	-1.00146	-0.161511	-0.838168	-0.24751	0.458396	-7.48559	0.629368	-4.77498	0.0198727	0.00795984	-0.0153226	0.988525	0.23999	0.469238	-0.0445861	0.162096	-0.0357363	0.985119	3.46574	-0.81151	9.97293	0.00682381	0.0114087	-0.0177278	-0.684326	0.163086	-0.77417	-0.0915248	0.0790624	-0.196526	0.973011	1.07691	-4.08273	9.60305	0.00412328	0.0124329	0.00577189	-0.446289	0.457275	-0.83374	0.0621145	0.0341909	-0.0406737	0.996654	0.714197	-0.717179	9.79276	0.0153795	0.0114638	-0.00253871	-0.525391	-0.00610352	-1.0271	
60	-0.0747354	-0.364945	-0.018676	0.927837	-7.17947	0.287756	7.89271	0.0167778	0.0064158	0.00144804	0.512939	0.217285	-0.994629	-0.0813769	-0.209154	-0.0205289	0.974274	-4.08355	-0.0382854	9.22014	-0.00750722	0.0752913	-0.00591249	0.228027	0.121582	-1.05225	-0.229167	-0.217747	0.20707	0.925846	-3.27059	5.0871	8.71917	-0.0688833	0.0109251	-0.000465796	-0.0444336	-0.429932	-1.07471	0.166749	-0.381454	0.367285	0.831739	-7.35994	4.70602	4.36227	0.00642774	0.0115325	-0.00556376	0.525391	-0.66333	-0.664062	-0.253484	-0.0848502	-0.325356	0.907023	-3.11876	-5.30285	7.51804	0.0150334	0.00492668	-0.00766541	0.0893555	0.801025	-0.826172	-0.633934	0.00526523	-0.413389	0.653613	-6.04343	-6.43171	7.721	0.0149941	0.00837971	-0.00356313	0.478271	0.94873	-0.309326	-0.193553	0.0785475	0.00823674	0.977906	1.69712	-0.0376883	10.3381	-0.0344812	-0.0439678	-0.0222328	-0.490479	0.186523	-1.00586	-0.161326	-0.83813	-0.247449	0.458564	-7.45415	0.668092	-4.80734	0.023652	0.00620537	-0.022606	0.990967	0.237793	0.47168	-0.0446956	0.161991	-0.0355922	0.985137	3.40003	-0.783242	9.99845	0.0156889	0.0174871	-0.0142359	-0.686523	0.163086	-0.780762	-0.0915734	0.0790974	-0.196284	0.973052	1.03334	-4.13894	9.60177	0.0211636	0.00816275	0.00411995	-0.439453	0.452881	-0.838135	0.0620872	0.0341918	-0.040629	0.996657	0.716108	-0.69626	9.78216	0.00483165	0.00820382	-0.0024709	-0.525391	-0.00610352	-1.03394	
61	-0.074754	-0.365141	-0.0185738	0.92776	-7.2143	0.275218	7.89611	-0.00366266	-0.000471599	0.00641878	0.517822	0.210693	-0.994629	-0.081588	-0.209989	-0.0205067	0.974078	-4.14341	-0.0456848	9.15504	-0.00571386	0.0383989	-0.0126406	0.230469	0.119385	-1.05444	-0.229128	-0.217974	0.207979	0.925598	-3.36545	5.18994	8.70245	0.0639414	-0.00113437	0.00561946	-0.0400391	-0.429932	-1.07471	0.166978	-0.381662	0.367565	0.831474	-7.43156	4.65067	4.32546	0.0234006	0.0126549	-0.00347429	0.518799	-0.667725	-0.659668	-0.253624	-0.0848581	-0.325636	0.906882	-3.07861	-5.30939	7.51891	-0.0214957	0.0129642	-0.0107015	0.0893555	0.801025	-0.830566	-0.634323	0.00518397	-0.413252	0.653322	-6.06819	-6.39537	7.71657	-0.00242705	0.00997882	-0.00562292	0.478027	0.950684	-0.313721	-0.193336	0.0798752	0.0071303	0.97785	1.74321	-0.134905	10.4446	0.0170413	0.0111262	-0.0275686	-0.488281	0.184326	-1.00146	-0.160763	-0.838173	-0.247253	0.45879	-7.48641	0.64692	-4.85031	0.0238023	0.0114225	-0.0152847	0.986328	0.242188	0.4646	-0.0448855	0.161849	-0.035405	0.985158	3.32615	-0.790347	10.0233	0.00953727	0.0132377	-0.0175098	-0.682129	0.165527	-0.780762	-0.0915923	0.0791027	-0.196392	0.973028	1.06316	-4.04481	9.56429	-0.00988414	0.018979	0.00151602	-0.439453	0.457275	-0.838135	0.062105	0.0342057	-0.0410323	0.996639	0.727785	-0.807604	9.76748	-0.00474842	0.00508412	-0.00354903	-0.529785	-0.00830078	-1.0293	
62	-0.0748119	-0.365119	-0.018463	0.927766	-7.20227	0.236891	7.89807	0.00733004	-0.0048582	-0.000451898	0.521973	0.215088	-0.994629	-0.0815249	-0.210313	-0.0205103	0.974013	-4.1018	-0.00655378	9.19323	-0.0117276	0.0311259	-0.0212125	0.234619	0.121582	-1.05933	-0.229462	-0.217693	0.207467	0.925697	-3.27981	5.12593	8.78599	-0.0368979	0.0038747	0.00999478	-0.0466309	-0.427734	-1.07471	0.16709	-0.381665	0.367991	0.831261	-7.41154	4.73984	4.33228	0.0131469	0.0102278	0.00340905	0.523682	-0.674316	-0.652832	-0.253704	-0.0847151	-0.32554	0.906908	-3.10406	-5.37154	7.55604	0.0130017	-0.000488934	-0.0135365	0.0869141	0.803223	-0.821533	-0.63443	0.00526908	-0.413273	0.653205	-6.06069	-6.3989	7.75276	-0.00221949	0.0103128	-0.0112487	0.478271	0.948486	-0.313721	-0.193333	0.0791337	0.00718327	0.97791	1.8165	-0.130456	10.3532	0.0254184	0.0761375	-0.0171244	-0.488281	0.186523	-1.00781	-0.16062	-0.838153	-0.24709	0.458963	-7.45872	0.638863	-4.81933	0.0245602	0.00441791	-0.0139633	0.990967	0.233398	0.469238	-0.0448453	0.162048	-0.0355798	0.985121	3.35743	-0.762089	10.016	-0.00421979	0.0039156	-0.0215755	-0.679443	0.160889	-0.77417	-0.0916737	0.0791758	-0.196387	0.973016	1.04064	-4.13253	9.50302	0.00694873	0.00613543	0.00665936	-0.44165	0.457275	-0.838135	0.062086	0.0342079	-0.0409224	0.996645	0.74581	-0.762814	9.75416	0.0107994	0.00801744	-0.00302754	-0.522949	-0.00830078	-1.03613	
63	-0.0748004	-0.365111	-0.0183413	0.927773	-7.18869	0.263345	7.88961	0.00922534	-0.0039615	0.00131425	0.519775	0.212891	-0.992432	-0.0815579	-0.210841	-0.0206801	0.973892	-4.08797	-0.0530272	9.13543	-0.0146498	0.0431795	-0.0161582	0.232666	0.117432	-1.0498	-0.229586	-0.217694	0.207373	0.925687	-3.29087	5.05275	8.74287	-0.00536074	0.00863609	0.00675364	-0.0358887	-0.427979	-1.06567	0.167094	-0.381631	0.368076	0.831239	-7.41735	4.79099	4.34024	0.00713731	0.00528525	0.0044217	0.523193	-0.665527	-0.657471	-0.253738	-0.0846959	-0.324887	0.907134	-3.07868	-5.2812	7.53505	0.0240665	0.000211643	-0.01428	0.0869141	0.803223	-0.826172	-0.634467	0.00534022	-0.413343	0.653124	-6.04914	-6.42266	7.7125	-0.00879972	0.0125191	-0.0107898	0.478271	0.944336	-0.309326	-0.193333	0.0791337	0.00718327	0.97791	1.8165	-0.130456	10.3532	0.0254184	0.0761375	-0.0171244	-0.488281	0.186523	-1.00781	-0.160315	-0.838055	-0.24708	0.459254	-7.47823	0.62459	-4.81629	0.0159857	-0.000641128	-0.0166762	0.990723	0.242188	0.4646	-0.0448659	0.162106	-0.0356577	0.985108	3.38777	-0.757613	10.0618	-0.00361652	0.00504582	-0.0183121	-0.679688	0.163086	-0.776367	-0.0917284	0.0791804	-0.195983	0.973091	1.0395	-4.08204	9.58803	0.0152921	0.013056	-0.000376583	-0.446045	0.455078	-0.838135	0.0620987	0.0341931	-0.0408932	0.996646	0.70978	-0.766645	9.76656	0.00331029	0.00915666	-0.00510864	-0.527344	-0.00830078	-1.03149	
64	-0.0747069	-0.365177	-0.0180542	0.92776	-7.21018	0.29544	7.89187	0.0113715	-0.00180504	-0.00155268	0.515381	0.212891	-0.994629	-0.0816332	-0.210837	-0.0209687	0.973881	-4.1505	-0.0568623	9.15345	-0.0129833	0.0167742	-0.0176547	0.232422	0.121582	-1.05469	-0.229723	-0.217624	0.207167	0.925715	-3.28872	5.10805	8.72139	-0.01813	0.00195814	0.0025423	-0.0422363	-0.429932	-1.06104	0.166981	-0.381687	0.368093	0.831228	-7.37183	4.72412	4.34758	0.00268239	0.0116029	0.00377059	0.523193	-0.667725	-0.659668	-0.253917	-0.084493	-0.324565	0.907218	-3.12826	-5.30063	7.51561	0.0164997	-0.00590278	-0.0110766	0.0871582	0.801025	-0.835205	-0.634627	0.0055376	-0.413692	0.652746	-6.03737	-6.44442	7.69547	-0.0221149	0.0160392	-0.00141842	0.478516	0.942139	-0.311279	-0.193267	0.0772075	0.00821816	0.978069	1.74566	-0.109539	10.3883	0.0610758	0.0643727	-0.020571	-0.483887	0.184326	-1.00781	-0.159986	-0.837934	-0.246875	0.459699	-7.45178	0.613366	-4.79856	0.0247903	0.000432486	-0.0208174	0.98877	0.237793	0.4646	-0.0450329	0.162174	-0.0357322	0.985086	3.39779	-0.78112	9.98938	0.00251579	0.00816833	-0.0148446	-0.691406	0.167725	-0.781006	-0.0917576	0.0791644	-0.196185	0.973049	1.08806	-4.03537	9.57778	-0.0138646	0.01645	0.0083537	-0.446045	0.452881	-0.835938	0.0621139	0.0342328	-0.0408764	0.996644	0.734571	-0.767701	9.78239	-0.000355238	0.00513549	-0.00402205	-0.522949	-0.00830078	-1.03613	
65	-0.0747384	-0.36524	-0.0179292	0.927735	-7.19424	0.295776	7.90704	0.00145629	0.00132788	0.00441398	0.519775	0.215088	-0.994629	-0.0817304	-0.210647	-0.0210207	0.973913	-4.0622	-0.0276872	9.16694	-0.00965477	0.0136955	-0.0156318	0.239014	0.121582	-1.05933	-0.229881	-0.217606	0.207006	0.925716	-3.32387	5.0269	8.69484	0.0110117	0.00426376	0.00258301	-0.0400391	-0.427734	-1.06787	0.167027	-0.381753	0.368222	0.831131	-7.37213	4.67894	4.31875	0.00701488	0.009517	-0.00159311	0.523438	-0.669922	-0.659424	-0.25394	-0.0842278	-0.324491	0.907263	-3.00711	-5.29114	7.57155	-0.00883046	0.00430362	-0.0173063	0.0913086	0.803223	-0.830566	-0.634799	0.00571771	-0.414106	0.652314	-6.0389	-6.46015	7.70357	-0.0168249	0.0173681	-0.00488574	0.480469	0.946533	-0.311523	-0.193085	0.0755341	0.00790959	0.978238	1.75883	-0.125199	10.4051	0.00766181	0.0755327	-0.0179252	-0.479736	0.186523	-1.01221	-0.159887	-0.837831	-0.246783	0.459971	-7.48539	0.605667	-4.79287	0.0128087	0.00345965	-0.0178194	0.986572	0.238037	0.455322	-0.0452085	0.162219	-0.0356424	0.985074	3.36483	-0.793703	9.9791	0.00856339	0.00661513	-0.0174718	-0.682129	0.165283	-0.771973	-0.0917578	0.0790941	-0.195983	0.973096	1.04033	-4.14161	9.55408	0.0124018	0.0102712	0.000648454	-0.44165	0.452881	-0.838135	0.0621311	0.0342846	-0.0410128	0.996635	0.758717	-0.761477	9.73467	-0.0113141	0.00441013	-0.00317942	-0.527588	-0.00610352	-1.03174	
66	-0.0748104	-0.365325	-0.0178762	0.927697	-7.20153	0.278595	7.89819	-0.000397153	0.00202489	0.00201232	0.519775	0.212891	-0.994629	-0.0817082	-0.211104	-0.0209894	0.973816	-4.12556	-0.0363116	9.17598	-0.00672979	0.0358119	-0.0176076	0.234619	0.123779	-1.05933	-0.22995	-0.217523	0.207049	0.925709	-3.296	5.11994	8.75355	-0.00588892	0.0014377	0.00466397	-0.0488281	-0.42334	-1.07251	0.167128	-0.381732	0.368607	0.83095	-7.39325	4.70686	4.37992	0.0132766	0.00910774	0.00421867	0.523193	-0.66333	-0.655273	-0.253933	-0.0841901	-0.324408	0.907298	-3.05275	-5.29924	7.58327	0.00909173	0.00814636	-0.0170035	0.0871582	0.801025	-0.835205	-0.634868	0.00585201	-0.414253	0.652152	-6.03526	-6.41886	7.69591	-0.00604348	0.0105582	-0.0114994	0.480225	0.94873	-0.309326	-0.193023	0.0751793	0.00804643	0.978277	1.69222	-0.0794242	10.4096	0.0230296	0.0243693	-0.0229309	-0.479736	0.184326	-1.01001	-0.159658	-0.837732	-0.24655	0.460356	-7.47858	0.610788	-4.80743	0.0252944	0.00407471	-0.016106	0.986328	0.23999	0.459961	-0.04526	0.162498	-0.0354943	0.985031	3.37424	-0.775237	9.98927	0.00335298	-0.0051274	-0.0216854	-0.686523	0.160889	-0.782959	-0.0917644	0.0791736	-0.195885	0.973108	1.07976	-4.06933	9.5614	-0.00338003	0.011817	0.00463461	-0.44165	0.457275	-0.838135	0.062116	0.0342762	-0.041108	0.996633	0.738344	-0.7906	9.76133	-0.00262252	0.00751701	-0.00400614	-0.525391	-0.00146484	-1.0271	
67	-0.074902	-0.365358	-0.0178363	0.927677	-7.20687	0.27288	7.88343	0.00167032	-0.00368644	0.00147714	0.52417	0.212891	-0.994629	-0.0816911	-0.211306	-0.0209648	0.973775	-4.13865	-0.0225167	9.16442	-0.00639604	0.019929	-0.0191201	0.234619	0.121582	-1.05469	-0.230201	-0.217522	0.207067	0.925643	-3.34718	5.07979	8.71631	0.00744605	0.00783234	0.0090252	-0.0402832	-0.42334	-1.07031	0.167197	-0.38172	0.368747	0.83088	-7.42777	4.73765	4.28064	0.00965624	0.00680489	-0.000956141	0.523438	-0.669922	-0.650635	-0.253813	-0.0841141	-0.324343	0.907362	-3.07412	-5.27398	7.56458	-0.00316826	0.00726123	-0.0205259	0.0932617	0.807617	-0.826172	-0.634932	0.00590911	-0.414278	0.652074	-6.04928	-6.42166	7.69164	-0.00549581	0.0100069	-0.00910341	0.487061	0.944336	-0.309326	-0.19299	0.0750977	0.00793692	0.97829	1.67959	-0.0968226	10.3759	0.0068454	0.00977272	-0.0220663	-0.48584	0.180176	-1.01416	-0.159623	-0.837645	-0.246328	0.460644	-7.47415	0.605412	-4.78023	0.00826856	0.00887922	-0.0118283	0.990479	0.246582	0.462158	-0.0452492	0.162736	-0.0355568	0.98499	3.40659	-0.755767	10.0422	-0.00151942	0.00236574	-0.0207555	-0.686523	0.163086	-0.780762	-0.0918582	0.0791966	-0.195722	0.97313	1.0505	-4.13011	9.54826	0.0106444	0.00867504	0.00404457	-0.443848	0.455078	-0.835938	0.062102	0.0342545	-0.0409217	0.996642	0.739246	-0.775619	9.76654	0.0076847	0.0085605	-0.00437458	-0.527344	-0.00830078	-1.03149	
68	-0.074843	-0.365338	-0.0178068	0.92769	-7.21426	0.294377	7.87809	0.00128709	-0.00393576	-0.00437067	0.519775	0.215088	-0.994629	-0.0816387	-0.211444	-0.0209057	0.97375	-4.15248	-0.0385421	9.1114	-0.00670458	0.0197636	-0.0199584	0.236816	0.121582	-1.05469	-0.230431	-0.217333	0.206665	0.92572	-3.299	5.13592	8.74109	-0.0268041	0.0016877	0.00686298	-0.0424805	-0.42334	-1.06812	0.167424	-0.381765	0.368862	0.830762	-7.40656	4.6981	4.32054	0.0134857	0.00636707	-0.00734042	0.523193	-0.665527	-0.657471	-0.253896	-0.083986	-0.324346	0.907349	-3.06935	-5.38768	7.58529	0.00891934	0.00065848	-0.0104179	0.0893555	0.798828	-0.826172	-0.635043	0.00603123	-0.414667	0.651717	-6.07788	-6.46475	7.70751	-0.00770551	0.0156491	-0.00426105	0.480469	0.946533	-0.309326	-0.192979	0.075292	0.00766754	0.97828	1.67598	-0.107372	10.4168	0.00296329	0.0104786	-0.0210087	-0.477783	0.188721	-1.01001	-0.159152	-0.837613	-0.246059	0.46101	-7.49442	0.635044	-4.80989	0.0363867	0.00223366	-0.0226656	0.98877	0.237793	0.459961	-0.0452689	0.162654	-0.0355719	0.985002	3.40162	-0.805429	9.9737	0.00745278	0.0162425	-0.0198623	-0.688965	0.163086	-0.782959	-0.0918944	0.0792446	-0.195556	0.973156	1.04557	-4.06688	9.56532	0.0139728	0.00640605	0.00234437	-0.439453	0.452881	-0.842773	0.0620881	0.0342921	-0.0408569	0.996644	0.727599	-0.763214	9.77166	0.00366359	0.00778797	-0.00523767	-0.522949	-0.00830078	-1.03149	
69	-0.0747431	-0.365317	-0.0178239	0.927707	-7.22917	0.29586	7.86381	0.00113382	-0.00428102	-0.00886958	0.517578	0.212891	-0.994629	-0.0816297	-0.21118	-0.0209923	0.973806	-4.13748	-0.0374252	9.19577	-0.00830327	0.00357303	-0.0202084	0.236572	0.125977	-1.05933	-0.230656	-0.217222	0.206422	0.925744	-3.27854	5.07728	8.76574	0.00148313	0.00666801	0.00454685	-0.0402832	-0.425537	-1.06812	0.167551	-0.381826	0.368905	0.83069	-7.43249	4.72016	4.32667	-0.000104353	0.00665463	-0.000699192	0.523193	-0.667725	-0.652832	-0.253813	-0.0840371	-0.323471	0.90768	-3.07006	-5.26096	7.57413	0.0414991	0.00161231	-0.0228444	0.0893555	0.798828	-0.830566	-0.635197	0.00597882	-0.414662	0.651571	-6.05466	-6.38382	7.70604	-5.44673e-05	0.0135633	-0.00745829	0.482666	0.946533	-0.298584	-0.193011	0.0749491	0.00712376	0.978304	1.72667	-0.119182	10.3727	-0.0025788	0.0459567	-0.0142737	-0.486084	0.186523	-1.01221	-0.158497	-0.837611	-0.245807	0.461374	-7.49643	0.635665	-4.77232	0.0390743	0.0116818	-0.0250517	0.986328	0.242188	0.459717	-0.0453625	0.16249	-0.0352599	0.985036	3.35199	-0.763919	10.003	0.0131566	0.0136921	-0.0199922	-0.68457	0.167725	-0.77417	-0.0919466	0.0792232	-0.195339	0.973197	1.07536	-4.03369	9.53342	0.00478898	0.0129798	0.00585051	-0.441895	0.457275	-0.844971	0.0620826	0.0343518	-0.0408298	0.996644	0.736428	-0.746611	9.7408	0.000913964	0.00508127	-0.00464206	-0.527588	-0.00610352	-1.0271	
70	-0.074899	-0.365135	-0.0180793	0.927761	-7.19786	0.239179	7.88058	-0.00753473	-0.00545399	0.0041621	0.519531	0.217285	-0.994629	-0.0816313	-0.210867	-0.0206857	0.973881	-4.06805	0.0148733	9.17999	0.00771306	-0.00346654	-0.0153533	0.23877	0.123779	-1.05933	-0.230834	-0.217181	0.206142	0.925772	-3.33407	5.10781	8.72371	-0.0182051	0.00463942	0.00347564	-0.0444336	-0.42334	-1.07031	0.167595	-0.381806	0.368962	0.830664	-7.40571	4.64219	4.2801	0.00762882	0.00596378	0.00268816	0.519043	-0.672119	-0.659424	-0.253808	-0.0840233	-0.323376	0.907717	-3.01209	-5.2435	7.59661	-0.0104074	0.00692641	-0.0130713	0.0847168	0.80542	-0.833008	-0.635264	0.00600395	-0.414756	0.651446	-6.04329	-6.38738	7.70296	-0.00479822	0.0167091	-0.0125593	0.478271	0.94873	-0.302979	-0.193059	0.0749712	0.00680167	0.978295	1.70991	-0.124289	10.4631	-0.0103788	0.0180526	-0.0144329	-0.475586	0.190918	-1.00586	-0.156983	-0.837698	-0.245282	0.462013	-7.5096	0.57911	-4.81366	0.0829341	0.0118908	-0.031151	0.986084	0.246582	0.455078	-0.0454397	0.162665	-0.0351435	0.985008	3.32718	-0.749587	10.0192	0.00234181	-0.00156923	-0.019475	-0.684326	0.163086	-0.776367	-0.0919373	0.0791437	-0.195585	0.973155	1.091	-4.14484	9.59568	-0.00552679	0.0194468	0.00339137	-0.437256	0.455078	-0.835938	0.0621125	0.0343566	-0.0408809	0.99664	0.743233	-0.720037	9.80643	-0.00569141	0.00623078	-0.00481985	-0.525391	-0.00610352	-1.03394	
71	-0.074913	-0.365119	-0.0180623	0.927766	-7.19635	0.208045	7.88217	-3.86115e-05	-0.00393555	0.00116524	0.521973	0.215088	-0.994629	-0.081593	-0.211244	-0.0206253	0.973804	-4.16926	-0.0854597	9.22279	-0.00145511	0.0454438	-0.0190895	0.234375	0.125977	-1.05713	-0.230836	-0.217086	0.205994	0.925827	-3.3125	5.06061	8.68446	-0.0103771	-0.000808837	-0.00255078	-0.0380859	-0.421387	-1.07275	0.167631	-0.381768	0.369197	0.83057	-7.40694	4.75081	4.30377	0.0207627	0.00863098	0.00575695	0.521484	-0.674316	-0.655029	-0.253832	-0.0840205	-0.323379	0.907709	-3.05994	-5.31564	7.53581	-0.000356652	0.00841231	-0.0134455	0.0891113	0.80542	-0.828369	-0.635227	0.00604934	-0.414868	0.651409	-6.05536	-6.36994	7.72728	-0.00837441	0.0178098	-0.0151762	0.482422	0.94873	-0.307373	-0.192939	0.0753649	0.00651353	0.97829	1.66568	-0.114373	10.5117	-0.0283926	-0.0114263	-0.0190919	-0.486328	0.190918	-1.01221	-0.156118	-0.837753	-0.245014	0.462348	-7.51446	0.54105	-4.79597	0.0808256	0.0092623	-0.0341771	0.990479	0.244385	0.459717	-0.0455001	0.162889	-0.0352196	0.984965	3.37443	-0.727767	10.0027	-0.00357562	-0.008447	-0.0158647	-0.679688	0.165527	-0.778564	-0.0918937	0.0791486	-0.195632	0.973149	1.04103	-4.09825	9.59952	-0.00256552	0.013445	-0.000981634	-0.446289	0.459473	-0.838379	0.0620807	0.0344152	-0.0411003	0.99663	0.749036	-0.769932	9.75551	-0.0159862	0.00206346	-0.00150873	-0.525391	-0.00610352	-1.03857	
72	-0.0748711	-0.36508	-0.0178863	0.927788	-7.20854	0.246912	7.89141	0.00814279	-0.00633407	0.000335959	0.517578	0.215088	-0.994629	-0.0815731	-0.21167	-0.0214858	0.973694	-4.10014	-0.0309551	9.09418	-0.0397785	0.0126606	-0.0268337	0.243164	0.123779	-1.05225	-0.230778	-0.217088	0.206531	0.925721	-3.30112	5.02543	8.7639	0.0392055	-0.00182868	0.00216927	-0.0402832	-0.425537	-1.07031	0.167672	-0.381691	0.369529	0.83045	-7.3982	4.78963	4.33685	0.0129152	0.00609445	0.00409344	0.52124	-0.672119	-0.657227	-0.253902	-0.0838183	-0.323267	0.907748	-3.1028	-5.28783	7.56915	0.0027453	-0.00139456	-0.0140507	0.0869141	0.80542	-0.828369	-0.635193	0.00627306	-0.415292	0.651171	-6.08911	-6.41547	7.69287	-0.0219804	0.0216113	-0.0110349	0.480469	0.946533	-0.305176	-0.193013	0.0759852	0.00649623	0.978228	1.66399	-0.121589	10.3833	0.00450526	-0.0338245	-0.013635	-0.483887	0.182373	-1.01001	-0.155342	-0.837683	-0.244886	0.462802	-7.52129	0.488521	-4.82099	0.0152889	0.0106237	-0.025097	0.981934	0.244385	0.455078	-0.0455132	0.163212	-0.0352487	0.98491	3.41634	-0.776021	10.0092	-0.000453801	-0.00843867	-0.0103477	-0.68457	0.172119	-0.77417	-0.0920271	0.0792969	-0.195199	0.973211	1.03123	-4.01924	9.53045	0.0146032	0.00433844	0.0069078	-0.446045	0.452881	-0.831299	0.062062	0.0344768	-0.0412338	0.996624	0.719768	-0.825227	9.77252	0.00582911	0.0065204	-0.00306336	-0.532227	-0.00390625	-1.0249	
73	-0.0752442	-0.365004	-0.0175774	0.927794	-7.22137	0.22594	7.91181	0.00809802	-0.00677503	0.0201597	0.517822	0.208496	-0.994629	-0.0814852	-0.211632	-0.0211825	0.973716	-4.13621	-0.0237877	9.232	0.00898982	0.0109248	-0.0229555	0.232178	0.125977	-1.05249	-0.23053	-0.217246	0.206872	0.92567	-3.34584	5.19381	8.7672	0.00323789	0.00882506	-0.00952342	-0.0444336	-0.425537	-1.07251	0.167783	-0.381684	0.36956	0.830416	-7.44263	4.7745	4.36394	-0.00555834	0.00241652	-0.00601005	0.519043	-0.670166	-0.650635	-0.253885	-0.0836867	-0.323089	0.907829	-2.95692	-5.31275	7.6633	0.0058178	0.0067316	-0.0168147	0.0825195	0.803223	-0.828369	-0.635203	0.00638754	-0.41576	0.650861	-6.10958	-6.55078	7.69742	-0.0115814	0.0234237	-0.00946649	0.480225	0.952881	-0.307373	-0.19335	0.0741874	0.00598817	0.978303	1.7567	-0.145865	10.3769	-0.00682401	0.105589	-0.0070975	-0.47998	0.190918	-1.01221	-0.155324	-0.837629	-0.245226	0.462727	-7.5142	0.541193	-4.76941	-0.00361148	0.0117735	-0.0202191	0.992676	0.246582	0.459717	-0.0457533	0.163265	-0.0354286	0.984884	3.46895	-0.796518	10.0133	-0.00458165	0.0142255	-0.0142865	-0.684326	0.163086	-0.776367	-0.0921274	0.0793449	-0.195697	0.973098	1.10151	-4.1347	9.60903	-0.021275	0.0106884	0.00485166	-0.439453	0.455078	-0.838135	0.0620301	0.0344565	-0.0408198	0.996644	0.762086	-0.754496	9.7847	0.0157145	0.0101041	-0.00264273	-0.527344	-0.00830078	-1.03394	
74	-0.0753997	-0.364906	-0.0168831	0.927833	-7.17112	0.269949	7.86446	0.0252254	-0.00757693	0.00993905	0.521729	0.217285	-0.992432	-0.0812339	-0.212083	-0.0212156	0.973639	-4.10795	-0.0384839	9.17569	-0.0107749	0.038522	-0.0253855	0.234375	0.130371	-1.05249	-0.230798	-0.217013	0.205534	0.925956	-3.22086	5.08624	8.77688	-0.0541098	0.00762152	-0.00354128	-0.0424805	-0.42334	-1.07251	0.167932	-0.38174	0.369453	0.830408	-7.3861	4.74081	4.30498	-0.0026209	0.00416663	-0.0136291	0.52124	-0.669922	-0.659424	-0.253993	-0.0839359	-0.322545	0.907969	-3.07245	-5.3625	7.61176	0.0391517	0.0064337	-0.00609976	0.0871582	0.801025	-0.830566	-0.635212	0.00598596	-0.415697	0.650896	-6.09774	-6.45439	7.65506	0.0173343	0.021174	-0.00652198	0.487061	0.942139	-0.302734	-0.193375	0.0757386	0.00688117	0.978173	1.67465	-0.11043	10.3524	0.0415509	-0.0970221	-0.0202296	-0.486084	0.186523	-1.01001	-0.155176	-0.837639	-0.245153	0.462797	-7.48701	0.509672	-4.77724	0.0149582	0.0211462	-0.0178527	0.990234	0.253174	0.457275	-0.0457774	0.162594	-0.035387	0.984995	3.43044	-0.816389	9.97863	0.00933901	0.0400703	-0.0197297	-0.684326	0.163086	-0.771973	-0.0921123	0.0792007	-0.19548	0.973155	1.06089	-4.06342	9.57868	0.0265296	0.0134843	0.00257564	-0.439453	0.452881	-0.835693	0.061988	0.034596	-0.041032	0.996633	0.737999	-0.698815	9.77241	-0.0202346	-0.000931359	-0.00269034	-0.525391	-0.00146484	-1.03174	
75	-0.0754615	-0.364998	-0.0162972	0.927802	-7.20668	0.356301	7.87751	0.0192892	0.00146062	0.00903037	0.517822	0.210693	-0.996826	-0.08136	-0.212484	-0.0212434	0.97354	-4.19872	-0.0785317	9.1454	-0.0060199	0.0270957	-0.0118554	0.240967	0.125977	-1.05249	-0.230743	-0.217286	0.205837	0.925838	-3.35544	4.99695	8.73251	0.0456021	0.0118921	0.000272297	-0.0444336	-0.425537	-1.07251	0.16798	-0.382188	0.368821	0.830474	-7.40278	4.64205	4.30636	-0.01764	0.0106383	-0.0120201	0.523438	-0.672119	-0.657227	-0.254017	-0.084233	-0.321795	0.9082	-3.05916	-5.21756	7.58133	0.018361	0.0122649	-0.01192	0.0869141	0.803467	-0.842041	-0.635406	0.00558723	-0.415488	0.650844	-6.08467	-6.40022	7.66752	0.0150262	0.0159503	-0.00229835	0.484619	0.950684	-0.302979	-0.193591	0.0767438	0.00661497	0.978054	1.73389	-0.130756	10.3975	-0.0113802	0.00746016	-0.00821361	-0.484131	0.190918	-1.00806	-0.154877	-0.837726	-0.244927	0.46286	-7.49563	0.542676	-4.7463	0.0196923	0.0172899	-0.0119393	0.990479	0.248779	0.459717	-0.0457326	0.161667	-0.0353717	0.98515	3.33342	-0.804031	10.0118	0.00137861	0.0467452	-0.0210459	-0.691162	0.163086	-0.782959	-0.0921719	0.0790736	-0.195908	0.973073	1.03965	-4.04814	9.53376	-0.0397625	0.0138402	0.00827133	-0.443848	0.455078	-0.844971	0.061981	0.0346523	-0.0414071	0.996616	0.747121	-0.777367	9.73565	-0.00793535	0.00801956	-0.00513855	-0.525146	-0.010498	-1.03394	
76	-0.0753529	-0.365034	-0.0160668	0.9278	-7.18718	0.384295	7.88016	0.00474315	-0.00185901	-0.0043879	0.52002	0.208496	-0.994629	-0.0811415	-0.212555	-0.0210747	0.973546	-4.1379	-0.039384	9.19401	-0.00264914	0.0211358	-0.0284664	0.236816	0.123779	-1.05469	-0.230635	-0.217249	0.205655	0.925914	-3.32672	5.11567	8.75395	-0.0291045	0.00162847	-0.00680906	-0.0402832	-0.421143	-1.07275	0.16831	-0.382405	0.368883	0.830279	-7.40686	4.67536	4.31553	0.0144939	0.0120503	-0.0133433	0.530029	-0.667725	-0.655029	-0.254159	-0.0843604	-0.321416	0.908283	-3.07033	-5.30565	7.61125	0.0235459	0.0056744	-0.00577629	0.0871582	0.801025	-0.835205	-0.635474	0.00529863	-0.415418	0.650824	-6.10331	-6.39077	7.71291	0.0126128	0.0183193	-0.00911396	0.482666	0.946533	-0.305176	-0.193565	0.0775242	0.00664775	0.977997	1.7382	-0.168725	10.4015	0.0158117	-0.0258594	-0.0225812	-0.493164	0.195312	-1.00586	-0.154656	-0.837795	-0.24481	0.462871	-7.50134	0.507036	-4.82511	0.0195984	0.0117287	-0.016671	0.988037	0.250977	0.455078	-0.0457769	0.160848	-0.0353807	0.985282	3.29129	-0.772378	9.98893	0.0103385	0.0410953	-0.0159305	-0.682129	0.165527	-0.782959	-0.0921933	0.0790901	-0.196053	0.973041	1.02817	-4.16446	9.51431	-0.0103885	0.0118058	0.00571503	-0.439453	0.452881	-0.838135	0.0619572	0.0347011	-0.0415928	0.996608	0.760949	-0.79804	9.78233	-0.006087	0.00629264	-0.00229325	-0.529785	-0.00830078	-1.03149	
77	-0.07545	-0.365078	-0.0162758	0.927772	-7.23587	0.346846	7.87469	-0.0127702	-0.00129287	-1.16905e-05	0.522461	0.206299	-0.994385	-0.0810473	-0.213026	-0.0209878	0.973453	-4.17705	-0.0363157	9.19208	-0.0041214	0.0399993	-0.0176312	0.243164	0.125977	-1.05469	-0.230634	-0.217236	0.205567	0.925937	-3.29115	5.04375	8.78003	0.028585	0.00507593	-0.00287592	-0.0339355	-0.421387	-1.07275	0.168377	-0.382459	0.368994	0.830191	-7.44423	4.71143	4.3038	-8.10035e-05	0.00674997	0.00737121	0.523438	-0.672119	-0.652832	-0.254235	-0.0845519	-0.320663	0.90851	-3.05715	-5.19867	7.58269	0.0295382	0.00645288	-0.0117101	0.0852051	0.794434	-0.839844	-0.635351	0.00511639	-0.415339	0.650996	-6.05218	-6.30046	7.66886	0.00571473	0.018183	-0.0241476	0.489258	0.944336	-0.309326	-0.193606	0.0783992	0.00658433	0.97792	1.7684	-0.183459	10.3942	0.000489623	-0.018399	-0.0175573	-0.486328	0.188721	-1.00586	-0.154139	-0.837766	-0.244679	0.463165	-7.50785	0.500412	-4.79653	0.0297788	0.00804526	-0.0259048	0.98584	0.250977	0.455078	-0.046044	0.16065	-0.0352457	0.985307	3.27189	-0.756534	10.031	0.00521768	0.00837609	-0.0109066	-0.684326	0.165527	-0.780762	-0.092186	0.0787379	-0.195734	0.973134	1.00625	-4.05818	9.50306	0.0187286	0.0147745	0.00170536	-0.443848	0.452881	-0.838135	0.0619186	0.034797	-0.0417323	0.996601	0.727824	-0.779512	9.74392	-0.00501669	0.00343809	-0.00354756	-0.529785	-0.00610352	-1.03394	
78	-0.0755225	-0.365048	-0.0165819	0.927772	-7.19022	0.27785	7.90171	-0.0123042	-0.00142561	-0.00570394	0.517578	0.212891	-0.994629	-0.0810566	-0.21311	-0.0210612	0.973432	-4.20021	-0.0129974	9.13857	-0.0114546	0.0101761	-0.0186592	0.239014	0.119385	-1.05933	-0.230531	-0.217316	0.205941	0.92586	-3.30434	5.12959	8.75635	-0.00145358	0.0020356	0.000109423	-0.0402832	-0.425537	-1.06812	0.168156	-0.382352	0.368906	0.830324	-7.41691	4.65786	4.31533	-0.00437271	0.0025273	0.0104635	0.523438	-0.669922	-0.657227	-0.25433	-0.0843861	-0.320399	0.908592	-3.08941	-5.13847	7.59145	-0.000574188	-0.00484492	-0.0147156	0.0852051	0.794434	-0.835205	-0.635266	0.00528428	-0.415637	0.650888	-6.09986	-6.38548	7.6551	-0.0175413	0.0197946	-0.0168837	0.482666	0.944336	-0.307129	-0.193681	0.0790549	0.00659002	0.977852	1.76571	-0.1346	10.4174	0.00146049	-0.00454954	-0.0164924	-0.488281	0.186523	-1.00586	-0.153857	-0.837719	-0.244615	0.463377	-7.5242	0.531746	-4.79853	0.0137082	0.0144935	-0.0203747	0.98999	0.255371	0.457275	-0.0462856	0.160963	-0.0354991	0.985235	3.33358	-0.812429	10.045	-0.00926352	-0.0069226	-0.0115306	-0.681885	0.163086	-0.776367	-0.0922048	0.078787	-0.195837	0.973108	1.03915	-4.08658	9.56575	0.00222395	0.0109202	0.00217631	-0.44165	0.452881	-0.833496	0.0619805	0.0347886	-0.0416791	0.9966	0.746669	-0.787221	9.73951	0.00740178	0.0100499	-0.00729629	-0.527832	-0.00170898	-1.02954	
79	-0.0754782	-0.365048	-0.0166815	0.927774	-7.20266	0.250169	7.91137	-0.00633107	-0.00185817	-0.00703132	0.522461	0.206543	-0.996582	-0.0810951	-0.213023	-0.0210863	0.973448	-4.15733	-0.00264538	9.15284	-0.0126758	0.00841414	-0.0155675	0.243164	0.125977	-1.05713	-0.230531	-0.217316	0.205941	0.92586	-3.30434	5.12959	8.75635	-0.00145358	0.0020356	0.000109423	-0.0402832	-0.425537	-1.06812	0.168085	-0.382298	0.368978	0.830332	-7.40726	4.6929	4.35446	0.00389949	0.00529741	0.00988851	0.525635	-0.667725	-0.657471	-0.254433	-0.0842504	-0.320632	0.908494	-3.05349	-5.21093	7.61311	-0.0228962	0.00176463	-0.0105303	0.0895996	0.79248	-0.842041	-0.635257	0.00542182	-0.415857	0.650755	-6.10978	-6.45363	7.66788	-0.0207298	0.0190541	-0.0137973	0.486816	0.94873	-0.298828	-0.193753	0.0789352	0.00625471	0.97785	1.79469	-0.174974	10.3913	-0.00907775	0.0291005	-0.0116024	-0.488281	0.186523	-1.01001	-0.153796	-0.83767	-0.244572	0.463509	-7.51485	0.506799	-4.80529	0.0135384	0.00594083	-0.0189013	0.990234	0.253174	0.452637	-0.0463402	0.161165	-0.0356053	0.985196	3.38141	-0.836518	10.0075	-0.00586238	-0.00644608	-0.015695	-0.681885	0.163086	-0.776367	-0.0921859	0.078805	-0.195714	0.973133	1.07823	-4.03312	9.59828	0.0113344	0.0110627	0.000155392	-0.44165	0.457275	-0.840576	0.0619804	0.0347563	-0.041488	0.996609	0.7292	-0.777468	9.78042	0.0163619	0.0116781	-0.00517384	-0.529785	-0.00610352	-1.03174	
80	-0.0753802	-0.365008	-0.0166682	0.927798	-7.21246	0.265483	7.88261	0.00522496	-0.00537427	-0.00661125	0.515625	0.208496	-0.998779	-0.0811988	-0.213187	-0.0211866	0.973401	-4.15167	-0.0548866	9.18951	-0.0115016	0.0299689	-0.0149164	0.240967	0.125977	-1.05957	-0.230811	-0.217244	0.205221	0.925967	-3.26961	5.01847	8.71901	0.00505851	0.00494706	0.00325035	-0.0402832	-0.421387	-1.07031	0.16804	-0.38225	0.369066	0.830324	-7.38615	4.71404	4.34146	0.00307066	0.0055052	0.00384134	0.528076	-0.674316	-0.652832	-0.25471	-0.0840708	-0.320889	0.908342	-3.00878	-5.28824	7.6588	-0.00583344	0.00190387	-0.00806757	0.0895996	0.794434	-0.837402	-0.635267	0.00554891	-0.416095	0.650592	-6.09294	-6.46948	7.67075	-0.0054608	0.0164054	-0.0145337	0.489014	0.950928	-0.302979	-0.193902	0.0793312	0.0062935	0.977788	1.78343	-0.126273	10.3721	0.0185997	-0.0149968	-0.0151256	-0.493164	0.197266	-1.01025	-0.153715	-0.837616	-0.244493	0.463674	-7.53103	0.501229	-4.77686	0.00713228	0.0138758	-0.0153704	0.988281	0.248779	0.455078	-0.0464601	0.161366	-0.0356437	0.985156	3.40688	-0.797914	10.0043	0.00235785	0.00352221	-0.0169925	-0.686768	0.165527	-0.780762	-0.0922183	0.0787835	-0.195612	0.973152	1.03203	-4.12925	9.6377	-0.00508692	0.0136068	0.00309473	-0.444092	0.457275	-0.838135	0.0619616	0.0348389	-0.0416311	0.996601	0.731188	-0.717473	9.76826	-0.0112028	0.000159594	-0.00244288	-0.520508	-0.0102539	-1.0293	
81	-0.075358	-0.364905	-0.0165242	0.927843	-7.18902	0.300993	7.88136	0.00473236	-0.00789061	0.00265723	0.522461	0.206299	-0.992432	-0.0811942	-0.213341	-0.0211175	0.973369	-4.16263	-0.0448129	9.14793	-0.00454443	0.0161179	-0.0163499	0.240967	0.128174	-1.05713	-0.230812	-0.217271	0.20559	0.925879	-3.32308	5.03141	8.74756	0.0159171	0.00378987	0.00456315	-0.0358887	-0.423584	-1.07715	0.168057	-0.382349	0.369147	0.830239	-7.39455	4.69845	4.32175	0.00735533	0.0120525	-0.00200955	0.527832	-0.672119	-0.655029	-0.254708	-0.0841176	-0.320779	0.908377	-3.01408	-5.28439	7.64679	0.00956511	0.00922387	-0.0134443	0.0827637	0.801025	-0.839844	-0.635323	0.00546998	-0.415929	0.650645	-6.08009	-6.44405	7.67019	0.0121697	0.0103609	-0.0149867	0.487061	0.942139	-0.302734	-0.193985	0.0798495	0.00649428	0.977728	1.77569	-0.131805	10.3609	0.0150966	-0.00814732	-0.0172335	-0.490723	0.193115	-1.00586	-0.153624	-0.837615	-0.244376	0.463769	-7.51662	0.495841	-4.79438	0.0118593	0.0104536	-0.0159237	0.990234	0.253174	0.450195	-0.0465888	0.161304	-0.0354405	0.985167	3.38599	-0.802453	9.9852	0.0150966	0.0106201	-0.0177331	-0.68457	0.167725	-0.783203	-0.0921857	0.0787098	-0.19579	0.973125	1.05095	-4.07044	9.51054	0.00587979	0.020633	0.00374234	-0.439453	0.455078	-0.840332	0.0619797	0.0349811	-0.0422576	0.996569	0.761259	-0.83613	9.74466	-0.0206363	0.00288058	-0.00433567	-0.534424	-0.00390625	-1.03394	
82	-0.0754473	-0.364883	-0.016368	0.927847	-7.18026	0.301724	7.89528	0.00459608	-0.000971322	0.00190756	0.517822	0.208496	-0.996826	-0.0810912	-0.2133	-0.0209363	0.97339	-4.15208	-0.0281211	9.15543	-0.0019713	0.0121329	-0.0212987	0.240967	0.124023	-1.04761	-0.230837	-0.217358	0.205821	0.925801	-3.3208	5.12281	8.75179	0.0104538	0.00501414	0.00115344	-0.0446777	-0.418945	-1.07056	0.168285	-0.382381	0.369311	0.830105	-7.46895	4.72104	4.31139	0.0110208	0.00561285	-0.00440975	0.525635	-0.667725	-0.648438	-0.254411	-0.0842983	-0.320724	0.908463	-3.07942	-5.22034	7.59596	-0.00262844	0.0104699	-0.0136724	0.0827637	0.798828	-0.833008	-0.635366	0.00540152	-0.415815	0.650676	-6.09887	-6.376	7.69617	0.00465441	0.0147379	-0.0147231	0.482422	0.94873	-0.305176	-0.193998	0.0805363	0.00662427	0.977668	1.81321	-0.159169	10.3655	0.0185235	-0.0109151	-0.021646	-0.493164	0.195068	-0.999512	-0.15372	-0.837578	-0.24437	0.463808	-7.52035	0.483998	-4.75111	-0.0030408	0.0117552	-0.0156108	0.990479	0.248779	0.450439	-0.0467058	0.161295	-0.0352277	0.985171	3.33266	-0.776919	10.0353	0.00845871	0.00874895	-0.0179931	-0.686523	0.163086	-0.776367	-0.0921166	0.0786087	-0.195793	0.973139	1.03408	-4.11177	9.57239	-0.0060601	0.0121026	0.00174393	-0.44165	0.452881	-0.840332	0.0619456	0.0350093	-0.0423262	0.996567	0.763414	-0.824118	9.78141	0.00292883	0.00863126	-0.00289879	-0.531982	-0.00610352	-1.0249	
83	-0.0754339	-0.364985	-0.0162288	0.92781	-7.23094	0.309455	7.89119	0.00588453	0.00105894	-0.0011197	0.522217	0.208496	-0.996582	-0.0810884	-0.213335	-0.0208801	0.973384	-4.18468	-0.00826779	9.11979	-0.00618576	0.0138726	-0.0167591	0.243164	0.123779	-1.05225	-0.230808	-0.217374	0.205644	0.925844	-3.31995	5.12506	8.77389	-0.0092543	0.00704754	-0.0029436	-0.0424805	-0.421143	-1.07275	0.168283	-0.382471	0.369249	0.830092	-7.44467	4.78144	4.34712	-0.00990612	0.00804811	-0.000779293	0.525635	-0.672119	-0.657227	-0.254597	-0.0841842	-0.320684	0.908436	-3.06407	-5.28373	7.61414	0.00296685	-0.000348733	-0.00690679	0.0808105	0.796631	-0.837402	-0.635346	0.00541833	-0.415999	0.650578	-6.12458	-6.45065	7.66732	-0.00678753	0.0192351	-0.0128637	0.482422	0.94873	-0.305176	-0.194135	0.0806957	0.00655578	0.977628	1.76671	-0.150987	10.4025	0.00820317	0.0103704	-0.0133609	-0.495117	0.195312	-1.01025	-0.153617	-0.83769	-0.244287	0.463682	-7.50736	0.521717	-4.78715	0.0149579	0.0236547	-0.015658	0.98999	0.255371	0.452637	-0.0468836	0.161088	-0.0354162	0.985189	3.39159	-0.801796	10.0466	-0.00553703	0.0227676	-0.0108165	-0.684326	0.163086	-0.782959	-0.0921971	0.0785514	-0.195965	0.973102	1.05441	-4.09731	9.58528	0.00418186	0.0135874	0.00800072	-0.441895	0.457275	-0.844971	0.0619237	0.0351575	-0.0424343	0.996558	0.737838	-0.757794	9.76185	-0.00838676	0.000455722	-0.00281946	-0.531982	-0.00830078	-1.03149	
84	-0.0753105	-0.364928	-0.0161024	0.927845	-7.20717	0.3049	7.88682	0.00380358	-0.00751527	-0.0027354	0.518066	0.204102	-0.998779	-0.0810884	-0.213335	-0.0208801	0.973384	-4.18468	-0.00826779	9.11979	-0.00618576	0.0138726	-0.0167591	0.243164	0.123779	-1.05225	-0.230878	-0.217484	0.205221	0.925895	-3.31624	5.0523	8.70566	-0.0154724	0.0149765	-0.00350163	-0.0380859	-0.425537	-1.07031	0.168233	-0.382701	0.368782	0.830204	-7.38096	4.66173	4.30137	-0.0149498	0.0111317	-0.00853651	0.520996	-0.667725	-0.650635	-0.254873	-0.0841994	-0.320206	0.908525	-3.1101	-5.25013	7.62628	0.0214224	-0.00178516	-0.00212982	0.0849609	0.796875	-0.842041	-0.635374	0.00526726	-0.416087	0.650495	-6.12863	-6.46837	7.66068	0.00789534	0.0180923	-0.00755199	0.489014	0.946533	-0.305176	-0.194309	0.0806045	0.00645536	0.977602	1.78867	-0.143029	10.3489	0.0104096	0.0256477	-0.0126905	-0.490723	0.193115	-1.00806	-0.15354	-0.837796	-0.24425	0.463535	-7.49209	0.510498	-4.78713	0.000853594	0.0242947	-0.0149298	0.988037	0.255371	0.454834	-0.0471421	0.160364	-0.0355521	0.98529	3.36946	-0.837442	10.0178	0.00835982	0.044349	-0.00851238	-0.682129	0.165527	-0.778564	-0.092312	0.0784576	-0.195927	0.973106	1.01528	-4.02933	9.58463	-0.00998449	0.0165803	0.00472413	-0.44165	0.457275	-0.838135	0.0619051	0.0352656	-0.0427483	0.996542	0.755186	-0.793211	9.73554	-0.00752341	0.00359071	-0.00385307	-0.530029	-0.00170898	-1.03857	
