40	Head	00b4120a												Throax	00b411e8												LUpArm	00b411d9												LFoArm	00b41148												RUpArm	00b411db												RFoArm	00b41204												Waist	00b411f7												Lthigh	00b411f4												Lshank	00b4111b												Rthigh	00b411c8												Rshank	00b411ee												
PacketCount	q0	q1	q2	q3	accX	accY	accZ	gyrX	gyrY	gyrZ	magX	magY	magZ	q0	q1	q2	q3	accX	accY	accZ	gyrX	gyrY	gyrZ	magX	magY	magZ	q0	q1	q2	q3	accX	accY	accZ	gyrX	gyrY	gyrZ	magX	magY	magZ	q0	q1	q2	q3	accX	accY	accZ	gyrX	gyrY	gyrZ	magX	magY	magZ	q0	q1	q2	q3	accX	accY	accZ	gyrX	gyrY	gyrZ	magX	magY	magZ	q0	q1	q2	q3	accX	accY	accZ	gyrX	gyrY	gyrZ	magX	magY	magZ	q0	q1	q2	q3	accX	accY	accZ	gyrX	gyrY	gyrZ	magX	magY	magZ	q0	q1	q2	q3	accX	accY	accZ	gyrX	gyrY	gyrZ	magX	magY	magZ	q0	q1	q2	q3	accX	accY	accZ	gyrX	gyrY	gyrZ	magX	magY	magZ	q0	q1	q2	q3	accX	accY	accZ	gyrX	gyrY	gyrZ	magX	magY	magZ	q0	q1	q2	q3	accX	accY	accZ	gyrX	gyrY	gyrZ	magX	magY	magZ	
0	-0.072314	-0.36247	-0.0171012	0.929028	-7.24006	0.263889	7.86706	0.00744302	-0.00528952	-0.00467563	0.517334	0.22168	-1.00122	-0.0852069	-0.211482	-0.0191529	0.973472	-4.19664	-0.0334791	9.13259	-0.0110314	0.0183107	-0.0232246	0.239014	0.119629	-1.05225	-0.242264	-0.216524	0.207275	0.922747	-3.2461	5.16336	8.74123	-0.0256708	0.00183451	0.0046013	-0.0488281	-0.425537	-1.07471	0.171741	-0.381117	0.376108	0.826921	-7.42744	4.75619	4.21795	0.00148665	0.00831889	-0.000461854	0.525879	-0.676514	-0.644043	-0.269606	-0.0755645	-0.323704	0.90378	-3.04262	-5.2819	7.60604	0.0175881	0.00540717	-0.00882661	0.0827637	0.801025	-0.837402	-0.640765	0.00809274	-0.412286	0.647591	-6.11546	-6.33759	7.69193	0.0128901	0.0136698	-0.0166697	0.489258	0.944336	-0.304932	-0.218361	0.0858459	0.016373	0.971947	1.8759	-0.115051	10.2952	0.0221938	0.00987939	-0.0157618	-0.503418	0.186523	-1.00366	-0.147871	-0.837601	-0.244312	0.465693	-7.50368	0.411712	-4.78914	0.00276665	0.0103797	-0.0103234	0.994385	0.255371	0.447998	-0.069049	0.166814	-0.0272827	0.983189	3.39332	-0.776578	9.98095	0.00775308	0.0131808	-0.0241017	-0.691162	0.158447	-0.776367	-0.0996062	0.077868	-0.193792	0.972862	1.03639	-4.0785	9.55358	-0.0051417	0.0108171	0.00234624	-0.435059	0.457275	-0.842773	0.0614957	0.0369792	-0.0469185	0.996318	0.763877	-0.864624	9.7364	0.0147519	0.0100809	-0.00494461	-0.528076	0.00512695	-1.02734	
1	-0.0724217	-0.362396	-0.0170506	0.92905	-7.21643	0.247611	7.86894	-0.00180504	-0.00551743	0.00553867	0.521484	0.223877	-0.994629	-0.0851908	-0.211484	-0.0191982	0.973472	-4.1953	-0.0576471	9.14408	-0.0123442	0.0153104	-0.0201671	0.240967	0.123779	-1.05713	-0.242365	-0.216497	0.207215	0.922741	-3.25365	5.0911	8.72418	0.0191675	0.00561201	0.000868263	-0.0510254	-0.42334	-1.07251	0.171711	-0.381082	0.376109	0.826943	-7.43294	4.74553	4.23584	-0.000118928	0.00350799	0.00433866	0.521484	-0.678955	-0.644043	-0.269617	-0.0754931	-0.323716	0.903778	-3.02204	-5.29963	7.53966	-0.0103798	0.00595749	-0.0150434	0.0849609	0.798828	-0.835205	-0.640805	0.00816732	-0.412238	0.647582	-6.11827	-6.34008	7.69956	-0.0018347	0.0120483	-0.016664	0.484863	0.944336	-0.302979	-0.218392	0.0861864	0.0163917	0.971909	1.91087	-0.130887	10.3684	0.0118746	0.00515005	-0.0164732	-0.51001	0.190674	-0.999512	-0.147939	-0.837546	-0.24422	0.465819	-7.53864	0.432323	-4.81911	0.00839365	0.00757344	-0.01625	0.98999	0.255371	0.450195	-0.0689869	0.166947	-0.0272397	0.983172	3.4135	-0.788727	10.0174	0.00425723	0.000113876	-0.0207145	-0.695801	0.160645	-0.767334	-0.0995938	0.0778818	-0.193516	0.972917	1.0425	-4.08956	9.59522	0.0104366	0.0118366	-0.000447053	-0.444092	0.457275	-0.840576	0.0615498	0.0369614	-0.0468257	0.99632	0.803871	-0.862025	9.72575	0.00114207	0.00869522	-0.00607337	-0.539062	0.00268555	-1.02954	
2	-0.0725714	-0.362443	-0.017104	0.929019	-7.22594	0.223858	7.91213	-0.00358877	-0.00102101	0.00422422	0.519531	0.219482	-0.999023	-0.0849962	-0.211126	-0.0192741	0.973566	-4.14955	-0.0300655	9.18741	-0.00731095	-0.0101149	-0.0203026	0.245605	0.119629	-1.05688	-0.242261	-0.216544	0.207525	0.922687	-3.22871	5.19431	8.76088	0.00641476	0.0037531	-0.000791258	-0.0529785	-0.42749	-1.07031	0.171696	-0.381021	0.376142	0.826959	-7.4245	4.79895	4.20431	0.00194289	0.0045768	0.00236517	0.523682	-0.674316	-0.64624	-0.269734	-0.0753585	-0.323708	0.903757	-3.02541	-5.3188	7.61279	0.00330487	-1.25087e-05	-0.011858	0.0822754	0.809814	-0.833008	-0.640723	0.00831617	-0.412462	0.647518	-6.12776	-6.43484	7.69919	-0.00845016	0.019675	-0.0181202	0.49585	0.939941	-0.302734	-0.218418	0.0862093	0.0162984	0.971903	1.91967	-0.0929885	10.3735	0.00902666	0.014728	-0.0149746	-0.505615	0.186523	-1.00586	-0.147867	-0.837457	-0.244152	0.466038	-7.53289	0.426342	-4.7742	0.0141835	0.00939674	-0.0214471	0.992188	0.255371	0.450195	-0.069073	0.167129	-0.0272412	0.983135	3.49057	-0.805353	10.0214	0.00324302	0.00470659	-0.0155467	-0.689209	0.169922	-0.769775	-0.0995668	0.0779089	-0.193504	0.97292	1.06223	-4.06047	9.54632	-0.005342	0.0128779	0.00134499	-0.439453	0.457275	-0.831299	0.0615722	0.0369814	-0.0468143	0.996318	0.790223	-0.887507	9.73952	0.00542785	0.00884766	-0.00473493	-0.532471	0.00268555	-1.02954	
3	-0.0727381	-0.362354	-0.0170724	0.929041	-7.20292	0.196911	7.87848	0.00104801	-0.00968331	0.00527895	0.523926	0.219482	-0.996826	-0.0850119	-0.210433	-0.0191452	0.973717	-4.1383	0.02315	9.13049	-0.00562417	-0.0226864	-0.0178309	0.236816	0.121582	-1.05469	-0.242211	-0.216455	0.207239	0.922786	-3.18212	5.1316	8.74001	-0.0134072	0.00636112	-0.00284768	-0.0529785	-0.425293	-1.07031	0.171744	-0.381032	0.376143	0.826943	-7.39458	4.82051	4.23456	0.00390296	0.00627544	-0.00096503	0.525879	-0.676514	-0.648438	-0.269752	-0.0753673	-0.323623	0.903782	-2.97125	-5.2901	7.63012	0.00551917	0.0131407	-0.0135255	0.0825195	0.807617	-0.826172	-0.640713	0.00822361	-0.412485	0.647515	-6.08815	-6.47242	7.68813	0.00919836	0.0159417	-0.0145423	0.487305	0.937744	-0.304932	-0.218478	0.0865214	0.016289	0.971862	1.91646	-0.128904	10.3861	0.0175833	-0.00218128	-0.0148964	-0.505859	0.190918	-0.999512	-0.14787	-0.837404	-0.244173	0.466121	-7.52979	0.411765	-4.77043	0.00515133	0.0107871	-0.0175642	0.992188	0.255371	0.450195	-0.069164	0.166966	-0.0271113	0.98316	3.49763	-0.801247	9.9325	0.012574	0.018298	-0.0174012	-0.691406	0.165283	-0.771973	-0.0996215	0.0779189	-0.193507	0.972913	1.03995	-4.07034	9.56236	0.00653464	0.0115982	0.00526226	-0.44165	0.455078	-0.835938	0.0615846	0.0369753	-0.0467962	0.996318	0.795897	-0.86201	9.75006	0.00233014	0.00863982	-0.00507567	-0.532471	0.00268555	-1.02734	
4	-0.0727138	-0.362298	-0.0169369	0.929067	-7.23186	0.225712	7.88153	0.00609599	-0.00668907	-0.000660231	0.521973	0.212891	-0.996826	-0.0851456	-0.209228	-0.0188938	0.97397	-4.15366	-0.0640153	9.25911	-0.014933	-0.0266068	-0.0118016	0.232666	0.115234	-1.05444	-0.242273	-0.2165	0.207145	0.92278	-3.23209	5.0909	8.72505	0.0042907	0.0103535	0.00427353	-0.0510254	-0.425293	-1.07251	0.171863	-0.381084	0.376012	0.826954	-7.40459	4.77099	4.22737	-0.0010615	0.00402731	-0.00542347	0.525879	-0.674316	-0.648438	-0.269662	-0.0755472	-0.32375	0.903748	-3.00546	-5.2092	7.57132	-0.00988625	0.0168581	-0.0165001	0.0825195	0.803223	-0.826172	-0.640868	0.00807086	-0.412156	0.647573	-6.10736	-6.33806	7.7049	0.01436	0.00681113	-0.00866262	0.489258	0.942139	-0.302734	-0.218642	0.0861318	0.0163824	0.971858	1.9188	-0.0904231	10.324	0.0311222	0.0351571	-0.0112806	-0.503418	0.186523	-0.997314	-0.147902	-0.837452	-0.244179	0.466022	-7.53824	0.394254	-4.75912	0.00466887	0.0202074	-0.0154342	0.992432	0.251221	0.443359	-0.0691479	0.166707	-0.0268974	0.983211	3.40946	-0.812312	9.96294	0.0110457	0.0170735	-0.0218653	-0.691406	0.165283	-0.778564	-0.0996614	0.0778988	-0.193626	0.972887	1.08038	-4.1047	9.58442	-0.0083358	0.0145866	0.00622178	-0.44165	0.457275	-0.840576	0.0616342	0.0369136	-0.0470089	0.996308	0.812449	-0.88855	9.73507	-0.00376426	0.00859651	-0.00334251	-0.536865	0.00268555	-1.02954	
5	-0.0725871	-0.362214	-0.0168949	0.929111	-7.21621	0.284806	7.8642	0.00201983	-0.0060188	-0.00681307	0.514893	0.221436	-0.992432	-0.0853986	-0.208367	-0.0195797	0.974119	-4.11648	-0.0145907	9.13318	-0.0386035	-0.0378807	-0.0169924	0.236816	0.119385	-1.05933	-0.242287	-0.216529	0.207568	0.922674	-3.26983	5.11432	8.76199	0.0201001	0.000561164	0.0055891	-0.0466309	-0.425537	-1.06787	0.17201	-0.381176	0.376023	0.826876	-7.4397	4.75644	4.21377	0.00415308	0.00728746	-0.0063995	0.521484	-0.678711	-0.650635	-0.269668	-0.0753671	-0.324326	0.903555	-3.05173	-5.34252	7.57265	-0.0237527	0.00590293	-0.0152126	0.0825195	0.80542	-0.835205	-0.641149	0.00813734	-0.411966	0.647415	-6.14679	-6.35094	7.65959	0.00305776	0.00251377	-0.00525017	0.484863	0.944336	-0.304932	-0.218711	0.086475	0.0161282	0.971817	1.8528	-0.112502	10.3288	0.010075	0.00160476	-0.0126633	-0.505859	0.190918	-1.00366	-0.148147	-0.837526	-0.244133	0.465835	-7.4818	0.427479	-4.80599	-0.00672854	0.0218954	-0.0088977	0.992432	0.250977	0.447998	-0.0691006	0.166584	-0.0268032	0.983238	3.40133	-0.796477	9.99557	0.00762923	0.0146458	-0.0213117	-0.691162	0.158447	-0.780762	-0.099759	0.077882	-0.193786	0.972846	1.03027	-4.10914	9.56643	-0.00242541	0.00366922	0.00612015	-0.446533	0.46167	-0.838379	0.0616053	0.0369277	-0.0470551	0.996307	0.791171	-0.881923	9.74988	-0.00090591	0.00778388	-0.00264429	-0.530273	0.00488281	-1.02734	
6	-0.0725712	-0.362199	-0.0170178	0.929116	-7.19286	0.309367	7.88996	-0.00738228	-0.00377478	-0.00637038	0.515137	0.217285	-0.992432	-0.0855277	-0.207648	-0.0193574	0.974265	-4.16054	-0.0890518	9.16674	0.00106706	-0.0455257	-0.0062659	0.230469	0.119385	-1.05688	-0.242286	-0.216491	0.207777	0.922636	-3.23429	5.12993	8.76299	0.0184723	-0.00176384	0.00547461	-0.0466309	-0.425537	-1.06787	0.17201	-0.381176	0.376023	0.826876	-7.4397	4.75644	4.21377	0.00415308	0.00728746	-0.0063995	0.521484	-0.678711	-0.650635	-0.269526	-0.0752764	-0.324368	0.90359	-3.06916	-5.23515	7.63979	-0.00356627	0.00620064	-0.027981	0.0825195	0.80542	-0.828369	-0.641327	0.00817994	-0.411818	0.647332	-6.11911	-6.35395	7.71201	0.00689139	-0.000238837	-0.00377084	0.487061	0.942139	-0.302734	-0.218686	0.0846516	0.015838	0.971988	1.91675	-0.146683	10.3284	0.012687	0.0811789	-0.0114538	-0.503662	0.190918	-1.01025	-0.148147	-0.837526	-0.244133	0.465835	-7.4818	0.427479	-4.80599	-0.00672854	0.0218954	-0.0088977	0.992432	0.250977	0.447998	-0.0690659	0.16655	-0.0267346	0.983248	3.36867	-0.78077	10.0143	0.00904615	0.0112733	-0.0221344	-0.693604	0.163086	-0.771973	-0.0997793	0.0779054	-0.193836	0.972832	1.03126	-4.10578	9.54757	-0.00202481	0.0111857	0.00441646	-0.441895	0.459473	-0.835938	0.0615854	0.0369599	-0.0471262	0.996303	0.780634	-0.866773	9.73782	-0.00439751	0.00496098	-0.00258614	-0.537109	0.00488281	-1.02734	
7	-0.0727562	-0.362141	-0.0174771	0.929115	-7.22072	0.213739	7.8659	-0.0184096	-0.00447254	-0.00261837	0.519531	0.217285	-0.996826	-0.0856039	-0.206514	-0.0185561	0.974515	-4.00273	-0.0102906	9.25622	0.016327	-0.0228293	-0.00893847	0.228271	0.119385	-1.05688	-0.242251	-0.216475	0.20767	0.922673	-3.21989	5.22982	8.71063	-0.0175428	0.00349694	-0.00289782	-0.0529785	-0.425293	-1.06787	0.172159	-0.38112	0.376007	0.826878	-7.44166	4.75559	4.21128	-0.000334199	-0.000534082	0.000616046	0.525879	-0.676514	-0.64624	-0.269322	-0.0751554	-0.325141	0.903383	-3.0308	-5.40616	7.54942	-0.0216528	0.0185598	-0.0181615	0.0825195	0.80542	-0.82373	-0.641447	0.00830259	-0.411457	0.647441	-6.14126	-6.39651	7.71533	0.0162415	0.00250777	-0.0220533	0.487061	0.942139	-0.304932	-0.218728	0.0845261	0.0158515	0.971989	1.88742	-0.212615	10.4255	0.0199206	0.023905	-0.0146839	-0.503418	0.184326	-1.00562	-0.148283	-0.837599	-0.244375	0.465532	-7.54333	0.417242	-4.80189	0.00280932	0.0166322	-0.01734	0.98999	0.257568	0.450195	-0.0691275	0.166621	-0.0266535	0.983234	3.39759	-0.815498	10.0383	0.0119682	0.00503754	-0.0144368	-0.693359	0.160645	-0.771973	-0.0997452	0.0778577	-0.193616	0.972883	1.03559	-4.06974	9.56882	0.0179559	0.00985924	0.00065599	-0.444092	0.457275	-0.83374	0.0615723	0.0369566	-0.0472043	0.996301	0.797597	-0.904372	9.75415	-0.00302999	0.00985637	-0.00227332	-0.532227	-0.00170898	-1.0271	
8	-0.0726957	-0.362084	-0.0179457	0.929133	-7.22266	0.232103	7.87583	-0.0170345	-0.00432105	-0.00990564	0.517334	0.22168	-1.00122	-0.0859742	-0.205949	-0.018298	0.974607	-4.1248	-0.00990103	9.16592	-0.0100845	-0.00720535	-0.00152962	0.228271	0.119385	-1.05688	-0.242308	-0.21644	0.207336	0.922742	-3.23753	5.05672	8.75621	0.00581681	0.0105686	-0.000179745	-0.0507812	-0.42749	-1.06787	0.171944	-0.380981	0.375824	0.82707	-7.4551	4.76624	4.23785	-0.0151408	-0.00126149	0.0108618	0.523682	-0.674561	-0.641846	-0.269309	-0.0751192	-0.325328	0.903322	-3.01859	-5.34266	7.53578	-0.00920691	0.00821215	-0.011822	0.0822754	0.812012	-0.826172	-0.641437	0.00829575	-0.411139	0.647654	-6.11923	-6.34447	7.69448	0.0115514	0.00726465	-0.0223846	0.491455	0.937744	-0.309082	-0.218763	0.0850287	0.0159526	0.971935	1.8382	-0.115701	10.3344	0.0154193	-0.0266868	-0.0133606	-0.503418	0.188721	-1.00146	-0.148219	-0.837604	-0.244365	0.465551	-7.51266	0.419604	-4.79201	0.0108707	0.0156061	-0.0191277	0.994385	0.253174	0.447998	-0.0692291	0.166786	-0.0265357	0.983202	3.42381	-0.791095	10.0142	0.00492255	0.00238941	-0.0160802	-0.686523	0.163086	-0.776367	-0.0998184	0.0779683	-0.193677	0.972855	1.04122	-4.08272	9.60971	-0.0052488	0.000619794	0.0071135	-0.439453	0.457275	-0.838135	0.0615774	0.0369004	-0.0470408	0.99631	0.783081	-0.892286	9.75831	0.00448902	0.0108663	-0.00336129	-0.527832	0.000488281	-1.03174	
9	-0.0729589	-0.36195	-0.0183269	0.929157	-7.25556	0.161477	7.86953	-0.0173773	-0.0113183	0.00528197	0.517334	0.22168	-1.00122	-0.0860463	-0.205105	-0.0181099	0.974782	-4.08294	0.00952388	9.20572	-0.00164945	-0.0250941	-0.0205115	0.226074	0.119385	-1.05444	-0.242163	-0.216576	0.207871	0.922628	-3.28623	5.17696	8.6994	0.0136247	0.00351376	-0.0018359	-0.0529785	-0.42749	-1.07471	0.171874	-0.38088	0.375653	0.827209	-7.42762	4.72415	4.22266	-0.00127903	0.00194481	0.000871246	0.525635	-0.672363	-0.644043	-0.26924	-0.075065	-0.325518	0.903279	-3.02301	-5.35407	7.56368	-0.00827072	0.00835796	-0.0162536	0.0825195	0.80542	-0.828369	-0.641402	0.00830709	-0.410989	0.647783	-6.12031	-6.43963	7.71303	0.0101424	0.0103782	-0.0189159	0.491211	0.944336	-0.304932	-0.218875	0.0846717	0.0159092	0.971942	1.86691	-0.132279	10.3561	0.0320408	0.0378376	-0.0114618	-0.505859	0.192871	-0.999512	-0.148105	-0.837777	-0.244519	0.465194	-7.50545	0.454816	-4.7984	-0.00102736	0.0253942	-0.0129303	0.990234	0.253174	0.450195	-0.069249	0.166753	-0.0267502	0.9832	3.47586	-0.801108	9.98681	-0.00480983	0.0139698	-0.0186002	-0.688965	0.163086	-0.769775	-0.099823	0.0778764	-0.193687	0.97286	1.00907	-4.07111	9.59799	0.010394	0.0172855	0.00295935	-0.439453	0.457275	-0.831299	0.0615782	0.0369341	-0.0469887	0.996311	0.777947	-0.849353	9.757	-0.00428894	0.00499378	-0.0041345	-0.534668	0.000488281	-1.02271	
10	-0.072999	-0.361719	-0.01838	0.929243	-7.1751	0.162491	7.89458	0.000805591	-0.0113235	-0.00250481	0.51709	0.22168	-0.994629	-0.0860484	-0.204501	-0.0180424	0.97491	-4.04031	0.00422509	9.18983	-0.00770986	-0.00248482	-0.0163377	0.223633	0.121582	-1.05688	-0.242228	-0.216371	0.207358	0.922774	-3.20146	5.10463	8.73882	-0.0141322	0.00215111	0.00132518	-0.0444336	-0.427734	-1.07031	0.172053	-0.380976	0.37585	0.827038	-7.42941	4.76378	4.22543	0.01167	0.00746739	-0.00472297	0.52832	-0.678711	-0.64624	-0.269235	-0.0751876	-0.325439	0.903299	-3.0388	-5.35537	7.56872	0.00866768	0.0146978	-0.0117739	0.0778809	0.809814	-0.835205	-0.641417	0.0080935	-0.410565	0.64804	-6.12594	-6.38078	7.73474	0.0289402	0.00879953	-0.0198826	0.493408	0.944336	-0.307129	-0.218823	0.0839314	0.0164294	0.972009	1.89001	-0.116695	10.3634	0.0348028	0.031862	-0.0137985	-0.503418	0.188721	-0.999512	-0.148277	-0.837866	-0.244564	0.464955	-7.51697	0.418807	-4.76814	-0.00202721	0.0212876	-0.014251	0.990234	0.253174	0.452637	-0.0693007	0.166337	-0.0266669	0.983269	3.40943	-0.799327	10.0009	0.0163862	0.0272829	-0.0161878	-0.690918	0.158447	-0.77417	-0.0998597	0.0778996	-0.193896	0.972812	1.03307	-4.09658	9.60897	-0.0173792	0.0137756	0.00682095	-0.441895	0.459473	-0.838135	0.0616303	0.0370485	-0.0472691	0.99629	0.794479	-0.853545	9.72666	-0.0155332	0.00254407	-0.00601167	-0.532227	0.000488281	-1.03394	
11	-0.0728626	-0.361606	-0.0181891	0.929302	-7.18416	0.1916	7.90379	0.0122298	-0.00734931	-0.00703599	0.512695	0.223633	-0.994629	-0.0862277	-0.204066	-0.0182569	0.974981	-4.01584	-0.0432526	9.22635	-0.0275989	-0.00940228	-0.0140287	0.228271	0.119385	-1.05225	-0.242053	-0.216593	0.208317	0.922552	-3.21038	5.2009	8.76996	0.0508708	0.00537226	0.00214337	-0.0510254	-0.425293	-1.06787	0.171988	-0.380974	0.375749	0.827098	-7.41206	4.77274	4.20529	-0.00626477	0.00530004	0.00433717	0.52124	-0.672363	-0.648438	-0.269271	-0.0753314	-0.325159	0.903377	-3.01782	-5.27952	7.5424	0.00799044	0.00862365	-0.012145	0.0869141	0.807617	-0.82373	-0.641192	0.00789497	-0.410256	0.64846	-6.07264	-6.33927	7.71613	0.0215095	0.00805586	-0.0211794	0.493652	0.942139	-0.307129	-0.219004	0.0836769	0.0163284	0.971992	1.83927	-0.125046	10.3358	0.0169173	0.0179682	-0.00990821	-0.503418	0.188721	-1.00366	-0.148373	-0.837917	-0.244548	0.464841	-7.51313	0.41843	-4.78411	0.0004074	0.0171174	-0.0153392	0.994385	0.255371	0.445557	-0.0693233	0.166093	-0.0265138	0.983313	3.4116	-0.754366	9.98057	0.00790453	0.0141125	-0.0178113	-0.686523	0.163086	-0.771973	-0.0998578	0.0779502	-0.194215	0.972745	1.05579	-4.09212	9.5638	-0.00431769	0.00985372	0.0013355	-0.446289	0.459473	-0.835938	0.0616601	0.0371415	-0.0476149	0.996269	0.809679	-0.908859	9.73719	-0.0115934	0.00405092	-0.00614012	-0.532471	0.00488281	-1.02734	
12	-0.0726731	-0.361611	-0.018032	0.929317	-7.19912	0.238675	7.88417	0.00696585	-0.00377966	-0.00496612	0.51709	0.22583	-0.999023	-0.0863509	-0.203494	-0.0184468	0.975086	-3.97416	-0.0118939	9.21213	-0.0189341	-0.00621444	-0.0153781	0.221436	0.125977	-1.05933	-0.242202	-0.216497	0.207892	0.922631	-3.26158	5.10965	8.70734	-0.035436	0.0081525	0.00195066	-0.0466309	-0.431885	-1.07471	0.171861	-0.380883	0.375526	0.827268	-7.42394	4.76297	4.22176	-0.00880313	9.37802e-05	0.00369826	0.527832	-0.672119	-0.648438	-0.269209	-0.0753345	-0.325574	0.903246	-2.99386	-5.21159	7.58743	-0.0335258	0.0165984	-0.0152721	0.078125	0.807617	-0.828369	-0.641162	0.00792678	-0.41016	0.64855	-6.07587	-6.34234	7.71508	0.00252038	0.00964627	-0.0192612	0.487061	0.939941	-0.304932	-0.219157	0.0840858	0.015964	0.971929	1.93121	-0.152342	10.4052	-0.00713216	0.00260699	-0.00858908	-0.507812	0.188721	-1.00586	-0.148323	-0.837988	-0.244818	0.464586	-7.51042	0.425187	-4.79407	-0.00302199	0.0199449	-0.0167959	0.98999	0.255371	0.447998	-0.0693981	0.166154	-0.0266013	0.983295	3.40953	-0.768506	9.98743	-0.00213166	0.0033643	-0.0148972	-0.693604	0.163086	-0.771973	-0.0998493	0.0778345	-0.194075	0.972783	1.03532	-4.1426	9.58273	-0.0015998	0.0165112	0.00206123	-0.444092	0.459473	-0.838135	0.0616664	0.0371375	-0.047602	0.996269	0.817619	-0.930865	9.74138	0.0054193	0.00884917	-0.00472679	-0.534668	0.00268555	-1.02954	
13	-0.0724032	-0.361585	-0.0179694	0.92935	-7.19874	0.22156	7.8899	0.00642089	-0.00304185	-0.00954854	0.517334	0.22168	-0.996826	-0.0865214	-0.203417	-0.0185119	0.975086	-4.03893	-0.00951738	9.21718	-0.0118631	0.0166719	-0.0123407	0.223877	0.119385	-1.052	-0.242198	-0.216477	0.207755	0.922668	-3.21276	5.13488	8.72948	0.0106651	0.00387814	-0.00165556	-0.0488281	-0.42334	-1.06812	0.171855	-0.38071	0.375422	0.827396	-7.41631	4.80164	4.22795	-0.00225305	-0.000727369	0.00357851	0.527832	-0.669922	-0.648438	-0.269326	-0.0751505	-0.326876	0.902756	-3.03344	-5.42074	7.55017	-0.0515283	0.0149749	-0.0109214	0.0825195	0.80542	-0.826172	-0.641205	0.00801236	-0.410089	0.648552	-6.11537	-6.38405	7.7285	0.00534599	0.00993844	-0.0162453	0.493408	0.944336	-0.307129	-0.219332	0.0842924	0.0161965	0.971867	1.83311	-0.121808	10.3269	0.0273257	0.0015295	-0.0111346	-0.503662	0.190918	-1.00586	-0.148502	-0.837997	-0.244926	0.464456	-7.50377	0.447379	-4.78477	-0.00529706	0.0211624	-0.0159204	0.988037	0.253174	0.455078	-0.0693873	0.166364	-0.0267199	0.983257	3.44953	-0.796345	10.011	0.000360858	0.00153351	-0.0188773	-0.691162	0.163086	-0.771973	-0.0998779	0.0778546	-0.194107	0.972772	1.02428	-4.08496	9.53421	0.00490552	0.00725643	0.00427573	-0.442139	0.463867	-0.836182	0.0616344	0.0370539	-0.0472617	0.99629	0.780884	-0.869536	9.78231	0.0144614	0.0112018	-0.00274839	-0.532471	0.00268555	-1.02954	
14	-0.0723578	-0.361604	-0.0179716	0.929346	-7.2419	0.216657	7.86789	0.000177235	-0.00467262	0.000193502	0.515137	0.217285	-1.00122	-0.0866187	-0.203291	-0.01854	0.975103	-4.06246	-0.0011589	9.24319	-0.013527	0.00449832	-0.0117499	0.221436	0.123779	-1.05469	-0.242135	-0.216545	0.208196	0.922569	-3.26078	5.1542	8.7473	0.0216137	0.00414101	0.00234702	-0.0507812	-0.429688	-1.06787	0.171843	-0.380679	0.375337	0.827451	-7.4261	4.7902	4.25692	-0.00596878	0.00160095	0.00185299	0.523682	-0.674561	-0.644043	-0.269072	-0.0752239	-0.327356	0.902651	-3.0407	-5.443	7.53761	-0.0174044	0.0155732	-0.0155917	0.0803223	0.80542	-0.819336	-0.641248	0.00795892	-0.40986	0.648654	-6.14548	-6.41762	7.69581	0.0148539	0.00934261	-0.0164713	0.489258	0.942139	-0.309326	-0.219442	0.0843531	0.0163597	0.971834	1.85779	-0.0944843	10.3255	0.028899	0.00688668	-0.00955836	-0.499268	0.190918	-1.00586	-0.148658	-0.838044	-0.245029	0.464267	-7.51545	0.445667	-4.82372	-0.00189806	0.0212866	-0.0163227	0.990234	0.253174	0.461914	-0.0694522	0.166264	-0.0267996	0.983267	3.4487	-0.820982	10.0203	0.00338971	0.0178562	-0.0153393	-0.691406	0.165283	-0.77417	-0.099949	0.0778051	-0.193833	0.972823	1.0643	-4.05684	9.5911	0.00326961	0.0197357	0.00402616	-0.4375	0.459473	-0.838135	0.0616135	0.0370419	-0.0471853	0.996296	0.785618	-0.851055	9.74067	0.00249948	0.00843249	-0.00297629	-0.537109	0.00488281	-1.03174	
15	-0.0723514	-0.361526	-0.0179966	0.929376	-7.21797	0.220984	7.89755	-0.00238725	-0.00957091	-0.0022008	0.519531	0.217285	-0.996826	-0.0866984	-0.202935	-0.018613	0.975169	-4.01422	-0.0261273	9.20715	-0.0105126	0.000914762	-0.0184523	0.22583	0.121582	-1.05933	-0.2421	-0.2166	0.208286	0.922545	-3.28144	5.16755	8.71706	0.0115291	0.0070308	-0.000868519	-0.0488281	-0.429688	-1.07251	0.171825	-0.380806	0.375145	0.827483	-7.44457	4.74938	4.23329	-0.00737235	0.00562894	-0.00338583	0.521484	-0.676514	-0.650635	-0.269077	-0.0752915	-0.327334	0.902652	-3.04336	-5.41467	7.5628	0.00294987	0.0126365	-0.011898	0.0869141	0.807617	-0.828369	-0.641244	0.00784944	-0.409694	0.648765	-6.13697	-6.39649	7.74188	0.0212992	0.0118565	-0.0180839	0.484863	0.944336	-0.315674	-0.219442	0.0843531	0.0163597	0.971834	1.85779	-0.0944843	10.3255	0.028899	0.00688668	-0.00955836	-0.499268	0.190918	-1.00586	-0.148764	-0.838017	-0.245087	0.464252	-7.51246	0.466266	-4.81246	-0.00285768	0.0136668	-0.0173272	0.994629	0.250977	0.452637	-0.0694522	0.166264	-0.0267996	0.983267	3.4487	-0.820982	10.0203	0.00338971	0.0178562	-0.0153393	-0.691406	0.165283	-0.77417	-0.0999386	0.0778524	-0.194154	0.972757	1.01818	-4.08597	9.58727	-0.0244901	0.0110791	0.00340609	-0.439453	0.457275	-0.838135	0.0616193	0.0370298	-0.0472518	0.996293	0.774983	-0.859781	9.76748	-0.00435565	0.00891601	-0.00447268	-0.534668	0.00268555	-1.03174	
16	-0.0723603	-0.361407	-0.0180405	0.929421	-7.19808	0.20731	7.87983	-0.00162325	-0.00791228	-0.00185092	0.515137	0.217285	-0.999023	-0.0867736	-0.20275	-0.0185465	0.975202	-4.02253	-0.0274197	9.19526	-0.00873602	0.00899487	-0.013137	0.217041	0.123779	-1.05933	-0.242076	-0.216553	0.208036	0.922618	-3.23358	5.14474	8.71474	-0.00664464	0.00516155	-0.000714454	-0.048584	-0.431885	-1.07007	0.171873	-0.380868	0.375065	0.827482	-7.4371	4.74195	4.21482	0.00178713	0.00734136	-0.000710809	0.528076	-0.676514	-0.64624	-0.269173	-0.0754788	-0.327132	0.902682	-3.03482	-5.30688	7.5035	0.0086792	0.0117285	-0.00743509	0.0847168	0.807617	-0.821533	-0.641202	0.00759978	-0.409336	0.649035	-6.07654	-6.33528	7.74725	0.0214292	0.0137676	-0.0192865	0.489258	0.942139	-0.315674	-0.219481	0.0840611	0.0172765	0.971835	1.87986	-0.111843	10.3406	0.0341141	0.0218473	-0.00847014	-0.503418	0.184326	-1.00366	-0.148975	-0.838009	-0.245192	0.464142	-7.47762	0.435103	-4.77969	-0.00562208	0.0167183	-0.0152487	0.990234	0.250977	0.457275	-0.0693898	0.165624	-0.026286	0.983394	3.36495	-0.772268	9.99087	0.0196624	0.0202168	-0.0163857	-0.686523	0.163086	-0.778564	-0.0999461	0.0777679	-0.194231	0.972747	1.03575	-4.11243	9.55587	0.00262065	0.0145887	0.003698	-0.441895	0.46167	-0.838379	0.0616372	0.0371317	-0.0475202	0.996275	0.800068	-0.879829	9.74936	-0.0119924	0.0041726	-0.00516748	-0.532471	0.00268555	-1.02954	
17	-0.0723363	-0.361311	-0.0180702	0.92946	-7.18923	0.234681	7.89331	-0.0018384	-0.00696849	-0.00393677	0.517334	0.22168	-0.999023	-0.0868527	-0.202584	-0.0184167	0.975232	-3.99225	-0.041438	9.19593	-0.0051249	0.00702471	-0.0144218	0.223633	0.123779	-1.05933	-0.242008	-0.216595	0.208348	0.922556	-3.24853	5.11484	8.73342	0.0191888	0.00245973	0.00131635	-0.0488281	-0.429688	-1.07251	0.171831	-0.38081	0.37495	0.827569	-7.43427	4.77829	4.23995	-0.00223764	0.00184622	0.00235147	0.523682	-0.674316	-0.648438	-0.269094	-0.0754546	-0.327418	0.902603	-3.05594	-5.271	7.51999	-0.0198558	0.010593	-0.0182371	0.0847168	0.807617	-0.826172	-0.641174	0.00753095	-0.409108	0.649207	-6.06703	-6.28766	7.77302	0.00881779	0.00963224	-0.0176399	0.486816	0.946533	-0.313721	-0.219662	0.083805	0.0175643	0.971811	1.86172	-0.107606	10.375	0.0295412	0.019863	-0.0108984	-0.499023	0.182129	-1.00342	-0.149176	-0.838081	-0.245283	0.463899	-7.4938	0.441644	-4.79072	-0.0083405	0.024941	-0.0143504	0.992432	0.253174	0.447998	-0.0694271	0.165675	-0.0261521	0.983386	3.38719	-0.746095	9.96824	0.00555721	0.00258895	-0.0175458	-0.688965	0.165283	-0.776367	-0.0999382	0.0777747	-0.194283	0.972737	1.02874	-4.11636	9.53573	-0.00678796	0.0111151	0.00149502	-0.44165	0.455078	-0.840332	0.0616556	0.0371839	-0.047777	0.99626	0.784347	-0.916286	9.74169	-0.00776293	0.00551582	-0.00473362	-0.534668	0.000488281	-1.0271	
18	-0.0723897	-0.361203	-0.0182626	0.929494	-7.19945	0.237184	7.90509	-0.00917971	-0.00932413	-0.000828028	0.514893	0.221436	-0.994629	-0.0869381	-0.202445	-0.0180778	0.975259	-3.98743	0.00960455	9.22576	0.00614579	0.00643165	-0.012228	0.221436	0.123779	-1.05933	-0.24192	-0.216626	0.208464	0.922546	-3.2284	5.17251	8.72905	0.0051514	0.00353144	-0.00299387	-0.0488281	-0.429688	-1.07007	0.171796	-0.380697	0.374862	0.827668	-7.43882	4.75557	4.2313	-0.00333477	-0.00231074	0.00276601	0.523438	-0.672119	-0.648438	-0.269094	-0.0754546	-0.327418	0.902603	-3.05594	-5.271	7.51999	-0.0198558	0.010593	-0.0182371	0.0847168	0.807617	-0.826172	-0.641162	0.00768325	-0.409078	0.649236	-6.09433	-6.37325	7.74902	0.0013204	0.0111262	-0.0201979	0.487061	0.939941	-0.311279	-0.219898	0.0836322	0.0179768	0.971765	1.90238	-0.0954229	10.3401	0.0357506	0.0162035	-0.00902054	-0.503418	0.184326	-1.00562	-0.149271	-0.838117	-0.245393	0.463746	-7.49061	0.468169	-4.78922	-0.00816173	0.0269618	-0.0185303	0.990479	0.248779	0.450439	-0.0695705	0.166013	-0.0262378	0.983316	3.43097	-0.766368	10.0123	-0.000213426	-0.00398396	-0.0109448	-0.686523	0.163086	-0.767334	-0.0998968	0.0775691	-0.194185	0.972777	1.04411	-4.13964	9.55542	0.0056413	0.0142204	0.00126221	-0.439697	0.459473	-0.835938	0.0617083	0.0372059	-0.0479232	0.996249	0.809767	-0.953354	9.74685	-0.00419558	0.00776552	-0.0051003	-0.537109	0.00488281	-1.02954	
19	-0.0724969	-0.361129	-0.0185173	0.929509	-7.21806	0.175665	7.88352	-0.00968813	-0.0054319	-0.00162153	0.521729	0.217285	-0.996826	-0.0870449	-0.202385	-0.0176815	0.97527	-4.05755	-0.0351486	9.30909	-0.00165261	0.028912	-0.0126177	0.22168	0.117188	-1.05664	-0.241857	-0.216609	0.208252	0.922614	-3.23137	5.2072	8.72425	-0.00660934	0.00541666	-0.00362942	-0.0488281	-0.42749	-1.07031	0.171787	-0.380552	0.374653	0.827831	-7.44795	4.79922	4.25663	-0.00728665	-0.000688501	0.000850637	0.528076	-0.676514	-0.648438	-0.268634	-0.0752597	-0.329244	0.902092	-3.06212	-5.48596	7.51647	-0.00982259	0.0167863	-0.0163484	0.0888672	0.812012	-0.821533	-0.641081	0.00768953	-0.408986	0.649374	-6.14229	-6.43234	7.75905	0.0112015	0.0142214	-0.0202278	0.489014	0.944336	-0.315674	-0.220129	0.0832912	0.0185902	0.971731	1.86957	-0.0926696	10.2854	0.0507898	0.0276358	-0.0111597	-0.505127	0.177734	-1.00562	-0.149259	-0.838171	-0.245829	0.463421	-7.51175	0.464033	-4.80725	0.00112758	0.01955	-0.0200718	0.994629	0.253174	0.454834	-0.0696543	0.166125	-0.0263819	0.983288	3.45013	-0.805405	10.0409	-0.000959167	0.00865503	-0.0173644	-0.688965	0.163086	-0.77417	-0.0999292	0.0776737	-0.194114	0.97278	1.0657	-4.08233	9.5947	0.00207672	0.00420456	0.00526684	-0.437256	0.455078	-0.840332	0.0617114	0.0371739	-0.0476264	0.996264	0.793469	-0.934875	9.7592	0.0146184	0.0100591	-0.00336287	-0.530273	0.00268555	-1.02954	
20	-0.0723992	-0.361073	-0.0187038	0.929535	-7.20556	0.183585	7.88169	-0.00335604	-0.00589479	-0.00969502	0.510254	0.230225	-0.990479	-0.0870834	-0.202499	-0.0181036	0.975235	-4.02383	0.00552449	9.22087	-0.041982	0.0270366	-0.021607	0.219482	0.119385	-1.05908	-0.241773	-0.216659	0.208252	0.922624	-3.2433	5.07921	8.71626	0.0132091	0.00467866	-0.00463019	-0.0529785	-0.429688	-1.07007	0.17176	-0.38059	0.374324	0.827968	-7.39723	4.75805	4.25812	-0.00889016	0.0042165	-0.0032099	0.525635	-0.669922	-0.648438	-0.268783	-0.0753361	-0.329132	0.902082	-3.06876	-5.37242	7.51863	0.0078149	0.0091356	-0.00516791	0.079834	0.816406	-0.82373	-0.641047	0.00744937	-0.408849	0.649496	-6.11161	-6.34619	7.74987	0.0154871	0.0187854	-0.0138312	0.491211	0.944336	-0.313721	-0.220276	0.0840241	0.0185338	0.971635	1.79812	-0.0663997	10.3703	0.0246138	-0.0312303	-0.0073009	-0.505615	0.188721	-1.00366	-0.14936	-0.838217	-0.245932	0.46325	-7.49297	0.486144	-4.81024	-0.00355146	0.0206695	-0.0187299	0.988037	0.253174	0.455078	-0.0697261	0.165769	-0.0263017	0.983345	3.42168	-0.79847	9.98193	0.0106296	0.0248277	-0.0159277	-0.688965	0.165283	-0.769775	-0.0999992	0.077418	-0.194172	0.972782	1.023	-4.04592	9.53521	-0.000174873	0.0157074	0.00644515	-0.444092	0.457275	-0.835938	0.0616831	0.037143	-0.0474208	0.996276	0.761615	-0.795269	9.74079	0.00086226	0.00705335	-0.00449457	-0.534912	0.00927734	-1.02734	
21	-0.0724876	-0.36105	-0.0187822	0.929535	-7.20106	0.141247	7.88159	-0.00160412	-0.00132073	0.00267733	0.515137	0.221436	-0.996826	-0.0871092	-0.20221	-0.0180875	0.975293	-3.94197	-0.0022428	9.26869	0.00875532	0.012239	-0.0159929	0.217285	0.119385	-1.06396	-0.24156	-0.21672	0.208425	0.922627	-3.2661	5.17954	8.71802	0.00691815	0.00673731	-0.0055131	-0.0463867	-0.434082	-1.07007	0.171859	-0.380607	0.374171	0.828009	-7.40222	4.73648	4.25545	-0.00484279	0.00242279	-0.00209918	0.523438	-0.672119	-0.650635	-0.268917	-0.0753101	-0.329407	0.901944	-3.00885	-5.35659	7.54275	-0.025298	0.0109202	-0.00782545	0.0866699	0.812012	-0.830566	-0.641036	0.00732831	-0.408761	0.649564	-6.0838	-6.34379	7.77024	0.00793618	0.0145564	-0.0173343	0.485107	0.937744	-0.313477	-0.22057	0.082682	0.0185362	0.971683	1.92442	-0.127467	10.3905	0.0130488	0.0815576	-0.0097667	-0.503174	0.182129	-1.00366	-0.149475	-0.838221	-0.246093	0.46312	-7.50697	0.423796	-4.79269	-0.00369444	0.0226989	-0.0188229	0.994629	0.253174	0.459717	-0.0699073	0.165623	-0.0261084	0.983362	3.37513	-0.778368	9.96708	0.0100995	0.00955177	-0.0128034	-0.688721	0.160645	-0.77417	-0.0999045	0.0773683	-0.194531	0.972723	1.09431	-4.10551	9.59891	-0.0106004	0.0110632	0.00243461	-0.441895	0.459473	-0.838135	0.0616855	0.0371745	-0.0478342	0.996255	0.803424	-0.882989	9.75696	-0.0201376	0.00560342	-0.00341623	-0.534912	0.00708008	-1.03418	
22	-0.0723418	-0.361097	-0.0186933	0.92953	-7.20184	0.194269	7.87788	0.0072359	-0.00108586	-0.0080552	0.514893	0.223633	-0.994629	-0.0871627	-0.202823	-0.0179665	0.975163	-4.04473	0.0156994	9.22644	-0.0104189	0.0389795	-0.0128848	0.219482	0.121582	-1.05688	-0.241571	-0.216691	0.208231	0.922675	-3.2361	5.18333	8.7144	-0.0132641	0.00536753	-0.00242168	-0.048584	-0.434082	-1.07227	0.1718	-0.380546	0.374114	0.828075	-7.41586	4.75555	4.28129	-0.00107932	0.00340081	0.00582103	0.525879	-0.674316	-0.648438	-0.269062	-0.0752794	-0.329683	0.901803	-3.05051	-5.42289	7.49025	-0.00572663	0.0067381	-0.0113789	0.0822754	0.814209	-0.816895	-0.641011	0.00727771	-0.408553	0.64972	-6.07986	-6.34022	7.73988	0.0127829	0.0106106	-0.0200922	0.493164	0.94873	-0.315918	-0.220745	0.0830843	0.0191691	0.971597	1.79739	-0.0233944	10.2303	0.0385148	-0.0112785	-0.0109056	-0.499023	0.184326	-1.00562	-0.149453	-0.838242	-0.246069	0.463104	-7.46922	0.444747	-4.80807	0.00938366	0.013981	-0.0177008	0.990234	0.253174	0.452637	-0.0700444	0.165801	-0.0260013	0.983325	3.41347	-0.776545	10.0075	0.00867719	0.000221184	-0.0151824	-0.691406	0.165283	-0.77417	-0.0999594	0.0773795	-0.194581	0.972707	0.993537	-4.17705	9.51577	-0.00417556	0.0110752	0.00506299	-0.446289	0.457275	-0.83374	0.0616615	0.0371914	-0.0481895	0.996239	0.80417	-0.935787	9.75021	-0.00923286	0.00667162	-0.00357567	-0.534668	0.00268555	-1.0249	
23	-0.0723347	-0.361122	-0.0186489	0.929522	-7.23107	0.20259	7.87333	0.00453732	-0.00150326	-0.000534218	0.51709	0.223877	-0.999023	-0.0871892	-0.202923	-0.0180667	0.975138	-4.09995	-0.013161	9.18583	-0.0163445	0.023773	-0.0175683	0.22168	0.117188	-1.05908	-0.241664	-0.21681	0.208187	0.922632	-3.23492	5.10747	8.73768	0.000419749	0.00829335	0.00275426	-0.0529785	-0.429688	-1.06567	0.171733	-0.380508	0.373795	0.82825	-7.44807	4.72376	4.24924	-0.011137	0.000760775	-0.00187402	0.525879	-0.674316	-0.64624	-0.269096	-0.0752991	-0.329735	0.901772	-3.05764	-5.37683	7.48211	-0.00398303	0.0105739	-0.0114192	0.0844727	0.812012	-0.821533	-0.641008	0.00725848	-0.408545	0.649729	-6.13541	-6.37575	7.76883	0.00166717	0.0164396	-0.0141435	0.484863	0.942139	-0.313477	-0.220864	0.0824183	0.0190536	0.971629	1.84272	-0.0939468	10.3003	0.0162317	0.0568964	-0.0123672	-0.503174	0.182129	-1.00146	-0.149459	-0.838268	-0.246094	0.463041	-7.46203	0.445181	-4.83212	0.00305854	0.021123	-0.0181015	0.992432	0.250977	0.455078	-0.0700756	0.165836	-0.0260732	0.983315	3.42403	-0.79103	10.0164	-0.00119765	0.00674141	-0.0160895	-0.688721	0.160645	-0.771973	-0.0999421	0.0773892	-0.19478	0.972668	1.01064	-4.15855	9.60465	-0.0142956	0.013893	0.00352457	-0.439697	0.459473	-0.83374	0.0616536	0.0371967	-0.0482228	0.996238	0.77944	-0.959453	9.74621	-0.00182306	0.00765842	-0.00309739	-0.537109	0.00708008	-1.03418	
24	-0.0723365	-0.361034	-0.0184736	0.929559	-7.2275	0.174451	7.87611	0.00871584	-0.00866737	0.000223887	0.515137	0.219482	-1.00122	-0.0871041	-0.202912	-0.0181236	0.975147	-4.02503	-0.0088142	9.21284	-0.010454	0.0170742	-0.0194066	0.219238	0.123779	-1.05469	-0.241682	-0.216832	0.208267	0.922604	-3.28051	5.21973	8.69751	-0.0165652	0.0020375	4.13302e-05	-0.0466309	-0.429932	-1.06787	0.171753	-0.380549	0.373672	0.828283	-7.41549	4.72401	4.2724	-0.00821541	0.00528546	-0.00444151	0.523682	-0.674316	-0.650635	-0.26925	-0.0751666	-0.329978	0.901648	-3.08864	-5.42667	7.50942	-0.0103082	0.00260449	-0.00746618	0.0844727	0.812012	-0.816895	-0.641046	0.00723729	-0.408614	0.649647	-6.1424	-6.39446	7.75357	-0.00142244	0.018291	-0.00881815	0.480713	0.937744	-0.31543	-0.220912	0.0820697	0.0190441	0.971648	1.81923	-0.0872462	10.3216	0.0220974	0.0424138	-0.0143983	-0.503174	0.182129	-1.00562	-0.149498	-0.838302	-0.24606	0.462985	-7.48386	0.467806	-4.80655	0.00410003	0.0213653	-0.0152089	0.992432	0.250977	0.457275	-0.070038	0.165636	-0.0263948	0.983343	3.4435	-0.826289	10.0268	-0.011798	0.0210627	-0.0176972	-0.684082	0.158691	-0.782959	-0.100016	0.07739	-0.194688	0.972679	1.04054	-4.1123	9.54052	0.0198407	0.0147203	0.00756694	-0.446289	0.459473	-0.838379	0.0616569	0.0372351	-0.0480377	0.996245	0.787992	-0.913457	9.74669	0.00965362	0.00745347	-0.00486521	-0.532715	0.00708008	-1.03418	
25	-0.0722236	-0.361005	-0.0183129	0.929582	-7.17314	0.238264	7.90094	0.00640451	-0.00189413	-0.00123901	0.51709	0.22583	-0.999023	-0.087221	-0.203061	-0.0183279	0.975101	-4.02066	-0.0383999	9.18229	-0.0137478	0.0189659	-0.0148924	0.22168	0.117188	-1.05444	-0.241837	-0.216685	0.207598	0.922749	-3.22532	5.02039	8.72262	-0.00646439	0.0061339	0.00273164	-0.0507812	-0.429688	-1.07007	0.171821	-0.380702	0.3737	0.828186	-7.39881	4.70922	4.27017	0.00555149	0.0127423	-0.00264478	0.528076	-0.674316	-0.64624	-0.269262	-0.0750826	-0.329854	0.901697	-3.07463	-5.46038	7.49111	0.00422822	-0.000455136	-0.00814877	0.0866699	0.809814	-0.821533	-0.641188	0.00718354	-0.408637	0.649493	-6.12927	-6.34411	7.72434	0.00277052	0.0138174	-0.00909043	0.489258	0.939941	-0.311279	-0.221049	0.0804588	0.0186137	0.97176	1.8227	-0.0781038	10.2289	0.0141074	0.097513	-0.0132456	-0.494629	0.182129	-1.01416	-0.149518	-0.838276	-0.246079	0.463015	-7.48801	0.459376	-4.82429	0.00599018	0.0105193	-0.0176469	0.988037	0.250977	0.452637	-0.0701391	0.165196	-0.0264667	0.983407	3.37266	-0.825247	10.0172	0.0102323	0.0248521	-0.012613	-0.686279	0.158447	-0.778564	-0.100038	0.0773864	-0.194734	0.972668	1.06922	-4.11865	9.56775	-0.0103503	0.015174	0.00632081	-0.441895	0.457275	-0.842773	0.0616656	0.0372061	-0.047823	0.996256	0.805186	-0.850386	9.70513	0.00949691	0.01195	-0.0048858	-0.534668	0.00268555	-1.02734	
26	-0.072235	-0.361108	-0.0182601	0.929543	-7.18372	0.227183	7.9046	0.00192388	0.000473698	-0.00144575	0.512695	0.223633	-1.00122	-0.0872483	-0.203164	-0.0186304	0.975072	-3.99118	-0.061543	9.21066	-0.0214204	0.0112201	-0.0220633	0.221436	0.123779	-1.05688	-0.241687	-0.21683	0.208459	0.92256	-3.21793	5.21048	8.75981	0.0328093	-0.000794373	0.00167666	-0.0466309	-0.429932	-1.06567	0.171719	-0.380773	0.373875	0.828095	-7.40316	4.71355	4.25076	0.00698725	0.012545	0.00835418	0.52124	-0.672119	-0.650635	-0.269508	-0.0749603	-0.329145	0.901892	-3.03459	-5.37345	7.49422	0.028729	-0.00771734	-0.00986475	0.0866699	0.809814	-0.819336	-0.641171	0.00724764	-0.408796	0.64941	-6.07192	-6.32194	7.76263	-0.00433813	0.0169935	-0.0163582	0.484619	0.946533	-0.313721	-0.221015	0.0796869	0.0182304	0.971838	1.78503	-0.0729618	10.3224	0.0154003	0.0361948	-0.0202504	-0.496826	0.184326	-1.00562	-0.149512	-0.838246	-0.246031	0.463097	-7.48409	0.440913	-4.81243	0.00778667	0.01097	-0.0166883	0.994629	0.248779	0.455078	-0.0702953	0.16515	-0.0262955	0.983409	3.362	-0.793748	9.95922	0.0114779	0.00446797	-0.0144	-0.688965	0.163086	-0.776367	-0.100013	0.0774445	-0.194725	0.972667	1.07033	-4.10668	9.55175	0.00260426	0.0126998	0.00201003	-0.437256	0.457275	-0.835938	0.0616979	0.0372481	-0.0480235	0.996243	0.798653	-0.883689	9.78347	-0.00747721	0.00533822	-0.00419245	-0.530029	0.000488281	-1.02954	
27	-0.0724653	-0.36124	-0.0182969	0.929473	-7.21254	0.183557	7.90345	-0.00394102	0.00392724	0.00890594	0.515137	0.219482	-0.996826	-0.0870478	-0.203244	-0.0190699	0.975065	-4.01118	-0.0312076	9.21686	-0.0195457	0.0123037	-0.0205558	0.221436	0.125977	-1.05933	-0.241894	-0.216704	0.208075	0.922622	-3.26434	5.08575	8.71149	-0.0177402	0.0073003	0.00357083	-0.0507812	-0.434082	-1.06787	0.171643	-0.380697	0.374137	0.828028	-7.40538	4.75524	4.27884	0.00868354	0.00520876	0.00721259	0.519043	-0.672363	-0.650635	-0.269558	-0.0747948	-0.328901	0.90198	-3.00956	-5.31503	7.48306	-0.0029365	0.00381994	-0.0155263	0.0778809	0.814209	-0.82373	-0.641175	0.00750618	-0.408996	0.649277	-6.07867	-6.38205	7.75309	-0.0135077	0.0125868	-0.01609	0.487061	0.942139	-0.317871	-0.220886	0.0785452	0.0174616	0.971975	1.8368	-0.103398	10.3549	-0.00687448	0.0864029	-0.0213978	-0.492676	0.186523	-1.01001	-0.149527	-0.838227	-0.245896	0.463199	-7.49491	0.427768	-4.80735	0.0072468	0.0113432	-0.0118159	0.992432	0.253174	0.450195	-0.070307	0.165466	-0.0263189	0.983354	3.42708	-0.783427	9.98534	-0.00199488	-0.00483836	-0.0190427	-0.691406	0.165283	-0.771973	-0.100018	0.0774532	-0.194588	0.972694	1.03648	-4.14992	9.52885	-0.00283998	0.00806187	0.00302945	-0.441895	0.46167	-0.835938	0.0616854	0.0371857	-0.0479786	0.996248	0.797868	-0.934165	9.73291	0.0112054	0.0127541	-0.00367548	-0.534668	0.00488281	-1.02734	
28	-0.0725255	-0.361359	-0.0181911	0.929424	-7.22066	0.188354	7.89101	0.00471633	-6.2746e-05	0.00102871	0.517334	0.22168	-1.00122	-0.0869656	-0.20329	-0.0191767	0.97506	-4.02905	-0.0120908	9.22253	-0.0118125	0.0200209	-0.022445	0.223633	0.123779	-1.05469	-0.241974	-0.216647	0.208149	0.922598	-3.20148	5.18154	8.73749	0.00448346	0.00304866	0.00556685	-0.048584	-0.429688	-1.06787	0.171697	-0.380663	0.3744	0.827913	-7.40126	4.82057	4.25309	0.013924	0.00832099	0.00278934	0.523438	-0.669922	-0.648438	-0.269677	-0.0746553	-0.329127	0.901874	-3.03127	-5.40818	7.53413	-0.00703514	0.00640919	-0.0137002	0.0864258	0.814209	-0.816895	-0.641271	0.00765472	-0.409151	0.649083	-6.10918	-6.40543	7.73458	-0.00619524	0.0129761	-0.0101832	0.493652	0.939941	-0.313477	-0.22076	0.0777343	0.017199	0.972073	1.70988	-0.0658639	10.3642	0.0138387	0.0332464	-0.0233459	-0.486084	0.186523	-1.00146	-0.149557	-0.838236	-0.245766	0.463241	-7.47822	0.461705	-4.79955	0.00440313	0.0169474	-0.0137942	0.994629	0.248779	0.450439	-0.0702585	0.165735	-0.0263383	0.983312	3.45976	-0.801503	10.0026	0.00393389	0.00320932	-0.0200296	-0.688965	0.163086	-0.769775	-0.100073	0.0774519	-0.194296	0.972747	1.05349	-4.10916	9.56352	0.0155511	0.0175208	0.00274461	-0.437012	0.452881	-0.840332	0.0616822	0.0371634	-0.047776	0.996259	0.800501	-0.904867	9.74414	0.00931162	0.00974659	-0.00360973	-0.532471	0.00488281	-1.02954	
29	-0.072592	-0.361391	-0.0180075	0.92941	-7.20113	0.214136	7.89309	0.00681024	-0.00254502	0.00620067	0.515137	0.219482	-0.999023	-0.0869926	-0.203262	-0.0192679	0.975062	-4.04741	-0.0139007	9.23952	-0.0163644	0.0130399	-0.0181127	0.219238	0.123779	-1.05688	-0.242186	-0.216644	0.208223	0.922526	-3.27933	5.14399	8.7077	0.0104078	0.00745418	0.00780194	-0.048584	-0.431885	-1.06543	0.171723	-0.380789	0.374455	0.827825	-7.4382	4.72807	4.24753	0.00319047	0.0136991	-0.00130253	0.528076	-0.676514	-0.650635	-0.269657	-0.0746432	-0.329118	0.901884	-3.07283	-5.38853	7.51791	0.0012722	0.00760428	-0.016779	0.0847168	0.807617	-0.821533	-0.641482	0.00777302	-0.409158	0.648869	-6.14473	-6.36854	7.72778	-0.00367614	0.00808138	-0.0056269	0.485107	0.939941	-0.311279	-0.220669	0.0774558	0.0169481	0.972121	1.7459	-0.062228	10.3768	0.0113375	0.0229828	-0.0198842	-0.483887	0.184326	-1.00562	-0.149589	-0.83821	-0.245706	0.463309	-7.49671	0.45349	-4.81534	0.00664678	0.0101891	-0.0156512	0.992432	0.248779	0.455078	-0.0702878	0.165725	-0.026331	0.983312	3.41518	-0.802759	10.0075	0.0052888	0.0100454	-0.0168137	-0.691406	0.165283	-0.769775	-0.100095	0.0774406	-0.1941	0.972784	1.03474	-4.08431	9.58751	0.0175541	0.0112262	0.00387162	-0.439453	0.457275	-0.842773	0.0617119	0.0371486	-0.0476667	0.996263	0.770875	-0.886089	9.76239	0.00953731	0.00981625	-0.00669909	-0.534668	0.00488281	-1.02954	
30	-0.0725474	-0.361446	-0.0178696	0.929395	-7.22646	0.218902	7.87712	0.0047905	-0.00207058	-0.00234963	0.512939	0.219482	-1.00122	-0.0870619	-0.203264	-0.0192721	0.975055	-4.01135	-0.0287574	9.20966	-0.00659615	0.0165331	-0.016173	0.221436	0.123779	-1.05688	-0.242216	-0.216633	0.208276	0.922509	-3.26522	5.1637	8.6986	0.0060905	0.00361134	0.00430161	-0.0529785	-0.431885	-1.06543	0.171808	-0.380902	0.374751	0.827621	-7.41674	4.74563	4.24465	0.0161672	0.012833	0.000585734	0.525879	-0.676514	-0.650635	-0.269768	-0.0744991	-0.329046	0.901889	-3.03462	-5.46283	7.50608	0.0038343	0.000586485	-0.00989897	0.0800781	0.812012	-0.821533	-0.64161	0.00782488	-0.40916	0.648739	-6.07258	-6.35768	7.7423	0.0026301	0.0125796	-0.0125529	0.484863	0.942139	-0.311279	-0.220428	0.07724	0.0170813	0.97219	1.72965	-0.0746017	10.4115	0.0145319	0.0144187	-0.0191784	-0.488281	0.184326	-1.01416	-0.149697	-0.83817	-0.245608	0.463399	-7.48784	0.470062	-4.8173	0.00624659	0.00758948	-0.0144049	0.988037	0.250977	0.457275	-0.0703549	0.165628	-0.0261526	0.983328	3.38711	-0.787536	10.0094	0.0132742	0.0125181	-0.0191524	-0.688965	0.165283	-0.776367	-0.100136	0.0775054	-0.194266	0.972742	1.04531	-4.07432	9.57312	-0.0122968	0.0143801	0.00540763	-0.444092	0.457275	-0.835938	0.0617137	0.0371373	-0.0475591	0.996268	0.79255	-0.851427	9.72785	-0.00432679	0.00436509	-0.00292915	-0.534912	0.00927734	-1.02954	
31	-0.0725338	-0.361431	-0.0178566	0.929402	-7.20815	0.229358	7.88543	0.00124343	-0.00434155	-0.0013824	0.512695	0.22583	-0.994873	-0.0869362	-0.203345	-0.0192003	0.975051	-4.01748	0.00546724	9.20006	-0.00356079	0.0170926	-0.023684	0.219238	0.125977	-1.05225	-0.242486	-0.216477	0.208132	0.922507	-3.20852	5.11505	8.73254	-0.00551016	0.00455709	0.0147186	-0.0507812	-0.429688	-1.07251	0.171814	-0.380928	0.374852	0.827563	-7.43046	4.77025	4.2323	0.00996219	0.0105454	0.00216307	0.519043	-0.672119	-0.652832	-0.269829	-0.0746001	-0.328442	0.902083	-3.01506	-5.30032	7.55472	0.0265156	0.00676008	-0.0151365	0.0844727	0.809814	-0.82373	-0.64164	0.00785642	-0.409128	0.64873	-6.0726	-6.28531	7.76248	0.00356438	0.0108243	-0.0147366	0.487061	0.939941	-0.317871	-0.220315	0.0768479	0.0169143	0.97225	1.72152	-0.0833377	10.3413	0.0126704	0.0316499	-0.021558	-0.490479	0.186523	-1.01636	-0.149729	-0.838122	-0.245546	0.463508	-7.46605	0.455899	-4.81538	0.00804573	0.00489262	-0.0143861	0.994629	0.250977	0.447998	-0.0703743	0.165693	-0.0259111	0.983322	3.34963	-0.753126	10.0023	0.0111999	0.00120915	-0.0208888	-0.691162	0.163086	-0.776367	-0.100104	0.077446	-0.193806	0.972841	1.03148	-4.08641	9.57126	0.0225101	0.0127595	-0.000529975	-0.439453	0.457275	-0.835938	0.0617181	0.0371482	-0.0476234	0.996264	0.808353	-0.865862	9.72912	-0.00382977	0.00700973	-0.00487732	-0.536865	0.00268555	-1.0249	
32	-0.0725887	-0.36147	-0.0178718	0.929382	-7.20247	0.192149	7.87535	-0.000537639	-0.000981238	0.00110396	0.515137	0.221436	-0.996826	-0.0869364	-0.203422	-0.0191253	0.975036	-4.03557	-0.0305955	9.23005	-0.00319658	0.0151526	-0.0151697	0.228027	0.125977	-1.05933	-0.242644	-0.21647	0.208321	0.922425	-3.27165	5.18234	8.72778	0.00750864	0.00304734	0.00858725	-0.0507812	-0.429688	-1.07251	0.171775	-0.380831	0.375	0.827548	-7.45433	4.77949	4.21187	0.0077518	0.004961	0.00522805	0.523438	-0.672119	-0.648438	-0.269565	-0.0744444	-0.328561	0.902131	-3.07012	-5.30076	7.50567	-0.00459308	0.00324032	-0.0198899	0.0800781	0.812012	-0.82373	-0.64177	0.00815614	-0.409253	0.648519	-6.10655	-6.35131	7.75446	-0.0147741	0.00855141	-0.0103341	0.495605	0.942139	-0.309326	-0.220311	0.0766512	0.0168793	0.972267	1.72694	-0.083871	10.3762	0.0172325	0.0305752	-0.0181911	-0.484131	0.188721	-1.01001	-0.149729	-0.838122	-0.245546	0.463508	-7.46605	0.455899	-4.81538	0.00804573	0.00489262	-0.0143861	0.994629	0.250977	0.447998	-0.0702882	0.16611	-0.0259749	0.983256	3.39605	-0.754375	10.0324	-0.00245649	-0.0103774	-0.0233878	-0.686768	0.165283	-0.771973	-0.100114	0.077482	-0.194071	0.972785	1.05443	-4.12725	9.56803	-0.00986466	0.0057122	0.00255278	-0.44165	0.457275	-0.83374	0.0617589	0.0371136	-0.0476733	0.996261	0.81652	-0.934609	9.75094	0.00465024	0.0103166	-0.00521853	-0.530273	0.00488281	-1.03174	
33	-0.0725968	-0.361548	-0.017863	0.929351	-7.21866	0.2047	7.89648	0.00148982	-0.000408661	-0.00119447	0.517334	0.219482	-0.999023	-0.0868874	-0.202932	-0.0187719	0.97515	-3.99161	0.00136967	9.19685	0.00779334	-0.015781	-0.0196627	0.22168	0.121582	-1.05933	-0.242765	-0.21632	0.208003	0.9225	-3.22617	5.19951	8.73437	-0.0151045	0.00174822	0.00140002	-0.0510254	-0.42749	-1.07715	0.171755	-0.3807	0.375142	0.827548	-7.45049	4.81945	4.23478	0.00842769	0.00238727	0.00608811	0.519287	-0.678955	-0.644043	-0.26972	-0.0741806	-0.329059	0.901925	-3.02053	-5.48529	7.52111	-0.0169953	0.00465556	-0.0119085	0.0800781	0.814209	-0.826172	-0.641795	0.00838968	-0.409539	0.648311	-6.11662	-6.41786	7.77331	-0.0101304	0.0158063	-0.0143068	0.491455	0.939941	-0.304932	-0.220278	0.0772781	0.0169729	0.972223	1.71751	-0.0708346	10.4117	0.0183675	-0.0212464	-0.0185993	-0.490479	0.184326	-1.01221	-0.149217	-0.838143	-0.245584	0.463616	-7.51772	0.456227	-4.81991	0.0178359	0.00196825	-0.0186155	0.98999	0.257568	0.452637	-0.0702588	0.166428	-0.0261266	0.9832	3.47206	-0.749969	10.0075	-0.00282009	-0.00167685	-0.0188929	-0.691406	0.165283	-0.77417	-0.100128	0.0773231	-0.193467	0.972916	1.03277	-4.05547	9.55238	0.028483	0.0204489	0.00180649	-0.44165	0.455078	-0.838135	0.0617356	0.0370795	-0.0473559	0.996279	0.787915	-0.876169	9.73598	0.0145098	0.0106343	-0.00303155	-0.534668	0.000488281	-1.0271	
34	-0.0725836	-0.361597	-0.0177901	0.929335	-7.22425	0.198881	7.88257	0.00330038	-0.00166265	-0.00115567	0.517334	0.217285	-0.999023	-0.0868903	-0.203499	-0.0190708	0.975025	-4.01227	-0.050373	9.21815	-0.0384777	0.0449819	-0.0215936	0.22168	0.119385	-1.052	-0.242808	-0.216324	0.207721	0.922551	-3.20672	5.08848	8.71173	0.000230956	0.00979932	-0.000205033	-0.0510254	-0.42749	-1.07715	0.171692	-0.380743	0.37509	0.827565	-7.40696	4.75535	4.21542	0.00125548	0.00820532	0.00064034	0.526123	-0.680908	-0.645996	-0.269708	-0.0741931	-0.328789	0.902026	-3.04111	-5.46858	7.5117	0.0229487	0.00454276	-0.0171116	0.0800781	0.814209	-0.82373	-0.641802	0.00846148	-0.409794	0.648142	-6.11159	-6.37647	7.72654	-0.00647635	0.0181585	-0.0113223	0.489258	0.942139	-0.311279	-0.220003	0.0774375	0.0168859	0.972274	1.74886	-0.0700315	10.4134	0.00254635	0.00184443	-0.0194388	-0.481689	0.182373	-1.01001	-0.148981	-0.83809	-0.24564	0.463758	-7.50117	0.491292	-4.79584	0.0140145	0.0141548	-0.0255889	0.998779	0.255371	0.457275	-0.0704922	0.166419	-0.0261001	0.983186	3.43802	-0.806979	9.98742	0.0106195	0.00980583	-0.008129	-0.691406	0.16748	-0.771973	-0.10018	0.077513	-0.193874	0.972815	1.0565	-4.06588	9.54586	-0.022876	0.00974051	0.00555872	-0.44165	0.457275	-0.838135	0.0617757	0.0370566	-0.047236	0.996283	0.778897	-0.832845	9.75858	0.00140416	0.00850353	-0.00553592	-0.534912	0.00708008	-1.02954	
35	-0.0726556	-0.361646	-0.0177374	0.929311	-7.16937	0.242999	7.90012	-0.00205402	0.000672192	0.00556626	0.519531	0.22168	-0.994629	-0.0869361	-0.203377	-0.0191351	0.975045	-4.08149	-0.0465832	9.17885	0.00622904	0.00304526	-0.0151646	0.221436	0.125977	-1.05005	-0.242621	-0.216294	0.208034	0.922537	-3.23427	5.11694	8.75213	0.020562	-0.00334903	-0.00301899	-0.0551758	-0.425293	-1.06348	0.171771	-0.38079	0.375232	0.827463	-7.43981	4.72005	4.22507	0.0116584	0.00684393	-0.00105458	0.521484	-0.676758	-0.64624	-0.269626	-0.0741426	-0.328112	0.902301	-3.00771	-5.31828	7.532	0.013218	0.00240658	-0.0160578	0.0756836	0.812012	-0.821533	-0.641862	0.00851804	-0.410098	0.647889	-6.05952	-6.34065	7.69849	-0.0114851	0.018757	-0.00827588	0.491455	0.942139	-0.309326	-0.220024	0.0777288	0.0169357	0.972245	1.80603	-0.0687722	10.348	0.0293214	0.0431537	-0.0154585	-0.490479	0.186523	-1.01001	-0.148857	-0.838023	-0.245636	0.46392	-7.48345	0.412599	-4.79698	0.00955391	0.0104801	-0.0194872	0.988037	0.250977	0.455078	-0.0707515	0.166393	-0.0258749	0.983178	3.35763	-0.761902	9.97061	0.0135053	0.00710693	-0.0138669	-0.688721	0.160645	-0.771973	-0.100194	0.0774048	-0.193733	0.97285	1.06743	-4.13474	9.60672	0.0188958	0.0149634	0.00265578	-0.44165	0.452881	-0.840332	0.0617696	0.0370538	-0.0473405	0.996278	0.804216	-0.890649	9.7429	0.000884375	0.00859909	-0.00300661	-0.537109	0.00488281	-1.02954	
36	-0.0727774	-0.361765	-0.0177103	0.929255	-7.22306	0.192388	7.87977	0.00214105	-0.000473161	0.000639495	0.517334	0.219482	-0.999023	-0.0868183	-0.203318	-0.0188834	0.975073	-3.98147	-0.00442304	9.25577	0.0130009	0.00818215	-0.0244654	0.22583	0.121582	-1.05444	-0.242623	-0.216213	0.207819	0.922603	-3.2077	5.21941	8.75958	-0.0191105	0.00134029	-0.00149878	-0.0551758	-0.42749	-1.07251	0.171887	-0.380662	0.375344	0.827447	-7.42291	4.74518	4.2574	0.00464869	0.00155536	0.00162588	0.528076	-0.676514	-0.648438	-0.269606	-0.0740939	-0.328268	0.902254	-3.0128	-5.41758	7.52206	-0.00443709	0.01135	-0.0177117	0.0825195	0.807617	-0.82373	-0.641854	0.00859749	-0.410263	0.647791	-6.10022	-6.38712	7.75939	0.000186216	0.0156353	-0.0143734	0.48877	0.950684	-0.305176	-0.219895	0.0771775	0.0165146	0.972326	1.66437	-0.125098	10.3802	0.0157561	-0.00713821	-0.0256926	-0.481934	0.188721	-1.00366	-0.148886	-0.837977	-0.245466	0.464083	-7.51579	0.421724	-4.78716	0.012945	0.00736242	-0.0112172	0.98584	0.250977	0.450439	-0.0706698	0.166637	-0.0259399	0.98314	3.43738	-0.794902	9.98128	-0.00157769	-0.000816923	-0.022572	-0.693604	0.163086	-0.77417	-0.100173	0.0774837	-0.193869	0.972819	1.02618	-4.13324	9.54027	-0.0109826	0.00706362	0.00213689	-0.441895	0.457275	-0.842773	0.0617059	0.0370541	-0.0474239	0.996278	0.795009	-0.863029	9.73613	-0.00443718	0.00767205	-0.00204523	-0.537109	0.00708008	-1.02734	
37	-0.0727139	-0.361887	-0.0176259	0.929215	-7.22375	0.236488	7.87217	0.00386776	0.00142475	0.000265188	0.512695	0.221436	-0.994629	-0.0866826	-0.20394	-0.0188168	0.974957	-4.0287	-0.00443076	9.21778	-0.00827693	0.0431551	-0.0179591	0.223633	0.123779	-1.05469	-0.242771	-0.216147	0.207355	0.922684	-3.21257	5.0823	8.72822	-0.00367459	0.00993729	0.00167705	-0.048584	-0.431885	-1.06787	0.171867	-0.380601	0.375221	0.827535	-7.41893	4.78594	4.24762	-0.0106196	0.00277122	0.0024355	0.523682	-0.676514	-0.650635	-0.269583	-0.0740938	-0.328141	0.902307	-3.05152	-5.4193	7.52993	0.0111066	0.00710718	-0.0183783	0.0800781	0.809814	-0.821533	-0.641889	0.00860308	-0.410224	0.647781	-6.13932	-6.37807	7.68912	0.00119275	0.0134547	-0.0129346	0.486816	0.946533	-0.313721	-0.219618	0.0791059	0.0170864	0.972223	1.72312	-0.0718565	10.3488	0.0128926	-0.0733957	-0.0191645	-0.492676	0.186523	-1.00586	-0.148663	-0.837994	-0.2453	0.464212	-7.5013	0.450936	-4.8032	0.0167003	0.0124972	-0.0162706	0.992188	0.255371	0.452637	-0.0705861	0.16674	-0.0261265	0.983124	3.47332	-0.819815	10.0144	-0.00461292	0.0099152	-0.0189868	-0.697998	0.160645	-0.769775	-0.100167	0.0774728	-0.193943	0.972806	1.04453	-4.11517	9.51761	-0.00421367	0.0138182	0.00351865	-0.439453	0.457275	-0.835938	0.0617142	0.0370361	-0.0475192	0.996274	0.795955	-0.927945	9.75327	0.000740974	0.0103532	-0.00361263	-0.532471	0.00268555	-1.02954	
38	-0.0727686	-0.3619	-0.0176281	0.929205	-7.24363	0.223922	7.8735	-0.000698084	-0.00194378	0.00269923	0.515137	0.219482	-0.999023	-0.0866844	-0.204397	-0.0186714	0.974864	-4.05172	-0.0226388	9.2395	-0.000719605	0.0209271	-0.0189514	0.230469	0.119385	-1.05688	-0.242729	-0.216227	0.207533	0.922637	-3.28076	5.16382	8.72424	-0.00434659	0.00447227	-0.00134509	-0.0488281	-0.425537	-1.07031	0.171899	-0.380684	0.3752	0.827499	-7.41329	4.74489	4.2391	0.00694645	0.0112071	-0.00304225	0.523682	-0.676514	-0.648438	-0.269515	-0.07407	-0.327912	0.902413	-3.06286	-5.41651	7.51442	0.00452681	0.001547	-0.0125332	0.0844727	0.812012	-0.82373	-0.641981	0.00867292	-0.410462	0.647538	-6.14256	-6.39656	7.69265	-0.0098537	0.0179414	-0.00637159	0.482666	0.944336	-0.311523	-0.219694	0.0795464	0.0169429	0.972173	1.77768	-0.113254	10.3922	0.0126738	-0.00521121	-0.0140605	-0.492676	0.186523	-1.00781	-0.148481	-0.837969	-0.245283	0.464326	-7.49894	0.456797	-4.8098	0.0109921	0.00922493	-0.0225157	0.994385	0.253174	0.450195	-0.070752	0.166587	-0.0262597	0.983135	3.44547	-0.819985	10.0188	0.00025076	0.0182412	-0.00982214	-0.691162	0.163086	-0.77417	-0.100284	0.0775401	-0.193795	0.972818	1.02561	-4.10152	9.54115	-0.0153151	0.00663723	0.00455579	-0.446045	0.455078	-0.840332	0.0616949	0.0370591	-0.0473651	0.996282	0.774862	-0.882806	9.75825	0.00680401	0.00645759	-0.00342732	-0.534668	0.000488281	-1.0249	
39	-0.0727996	-0.361887	-0.0176241	0.929208	-7.21019	0.220658	7.86526	-0.000227083	-0.00206656	0.000758825	0.519531	0.219482	-0.990234	-0.0866979	-0.204585	-0.0186999	0.974822	-4.02947	-0.0129721	9.23646	-0.0102273	0.0298825	-0.0173418	0.22583	0.125977	-1.05713	-0.242795	-0.21617	0.207216	0.922704	-3.22031	5.11115	8.73048	-0.0236318	0.00653878	-0.000411684	-0.0488281	-0.427734	-1.06787	0.171941	-0.380753	0.375276	0.827425	-7.40463	4.70687	4.2075	0.00926157	0.0125165	-0.00266145	0.532715	-0.676514	-0.64624	-0.269621	-0.0740412	-0.327657	0.902476	-3.02046	-5.40959	7.52449	0.0195185	-0.00159918	-0.00908448	0.0778809	0.809814	-0.826172	-0.642058	0.00869894	-0.41052	0.647425	-6.11839	-6.37445	7.72067	-0.00387266	0.0149005	-0.00693292	0.487061	0.942139	-0.307129	-0.219718	0.0798783	0.0169511	0.97214	1.77921	-0.073498	10.4146	0.011573	-0.0116386	-0.0146062	-0.495117	0.190918	-1.00586	-0.148492	-0.837965	-0.245301	0.464318	-7.48248	0.442209	-4.79658	0.00369954	0.0161292	-0.0189797	0.98584	0.253174	0.445557	-0.0708664	0.166446	-0.0262826	0.983149	3.38872	-0.814316	9.9862	0.00473796	0.020262	-0.00950628	-0.696045	0.165283	-0.77417	-0.100286	0.0775828	-0.193996	0.972774	1.04623	-4.10176	9.53494	-0.0149056	0.0106239	0.00477086	-0.446045	0.455078	-0.835938	0.0617006	0.0370695	-0.0472829	0.996285	0.79462	-0.847088	9.75507	0.00735488	0.00791799	-0.0044589	-0.534668	0.000488281	-1.02954	
40	-0.0728714	-0.361871	-0.0176393	0.929208	-7.23079	0.193872	7.87878	-0.000407406	-0.00489659	0.0014078	0.521729	0.217285	-0.994629	-0.0867445	-0.205264	-0.0187188	0.974675	-4.0867	0.00692485	9.21281	-0.0051263	0.0483115	-0.0156576	0.223633	0.123779	-1.05688	-0.242821	-0.216222	0.207524	0.922616	-3.24158	5.09885	8.74901	0.0331981	0.00473444	0.00690243	-0.0488281	-0.427734	-1.06567	0.171962	-0.38079	0.375543	0.827282	-7.44063	4.77135	4.23619	0.00947383	0.00927472	0.00523859	0.525879	-0.676514	-0.650635	-0.269802	-0.0740771	-0.327167	0.902597	-3.01835	-5.33567	7.54024	0.0163855	0.00418602	-0.00978983	0.0822754	0.812012	-0.82373	-0.642107	0.00872478	-0.410474	0.647405	-6.09399	-6.32117	7.70712	0.00249946	0.0110622	-0.0149846	0.493408	0.946533	-0.311523	-0.219761	0.0802473	0.016796	0.972103	1.78637	-0.116982	10.376	0.00358113	-0.00383308	-0.0160153	-0.49292	0.190918	-1.00586	-0.148504	-0.837995	-0.245159	0.464336	-7.49219	0.38906	-4.80626	0.00886391	0.0166398	-0.0087963	0.988037	0.253174	0.452637	-0.0709416	0.166446	-0.0261728	0.983147	3.37149	-0.790956	9.98013	0.00638191	0.00418198	-0.0196198	-0.691162	0.160889	-0.778564	-0.100325	0.0774498	-0.193735	0.972833	1.072	-4.05991	9.57181	0.0342808	0.0149836	0.0052379	-0.439697	0.46167	-0.840576	0.0617087	0.0371232	-0.0474336	0.996275	0.808993	-0.890299	9.75084	-0.00325703	0.00667072	-0.00377216	-0.532471	0.00488281	-1.02734	
41	-0.0728593	-0.36189	-0.0175931	0.929203	-7.1917	0.217559	7.88653	0.00314969	-0.00100072	-0.000194025	0.519531	0.219482	-0.996826	-0.0867366	-0.205483	-0.0188352	0.974627	-4.09335	-0.0120322	9.18854	-0.00945523	0.0212081	-0.0189744	0.228271	0.119385	-1.05444	-0.242886	-0.216225	0.207846	0.922526	-3.2365	5.17553	8.73761	-0.00241984	0.00337348	0.00602454	-0.0529785	-0.429688	-1.07007	0.171903	-0.380748	0.375674	0.827254	-7.44952	4.78839	4.21379	0.00135312	0.00665819	0.00631135	0.523682	-0.674316	-0.64624	-0.269923	-0.0739434	-0.327013	0.902628	-3.03132	-5.3337	7.54883	0.000797365	0.000701211	-0.0130543	0.0778809	0.812012	-0.82373	-0.6422	0.00888063	-0.410538	0.64727	-6.12221	-6.34708	7.71277	-0.00695131	0.0111435	-0.0112189	0.491455	0.942139	-0.307129	-0.219787	0.0809932	0.0168148	0.972035	1.80911	-0.102573	10.4348	0.00615953	-0.0155421	-0.0160103	-0.494873	0.186523	-1.00781	-0.148591	-0.837984	-0.244966	0.46443	-7.51087	0.457935	-4.78626	0.00623372	0.0135336	-0.0113072	0.992432	0.250977	0.455078	-0.0705733	0.16654	-0.0262069	0.983157	3.43046	-0.783555	10.0051	-0.00201438	0.00131984	-0.0237551	-0.688721	0.158447	-0.776367	-0.100349	0.0775885	-0.193797	0.972807	1.02856	-4.15612	9.55531	0.00411675	0.00598461	0.00460382	-0.444092	0.459473	-0.83374	0.061713	0.0371077	-0.047367	0.996279	0.809623	-0.899587	9.7351	0.00628457	0.0089493	-0.00428084	-0.537109	0.00708008	-1.02954	
42	-0.0729161	-0.361901	-0.0175328	0.929195	-7.22008	0.205255	7.88622	0.00312973	-0.00425374	0.00107167	0.521729	0.219482	-0.992432	-0.0867191	-0.205745	-0.0188035	0.974574	-4.03816	-0.0444233	9.22064	-0.00605054	0.0273155	-0.0176382	0.223633	0.121582	-1.05688	-0.24304	-0.216161	0.207391	0.922602	-3.20824	5.11863	8.73189	-0.00933905	0.00358822	0.000379971	-0.0551758	-0.423096	-1.06812	0.171914	-0.380756	0.375733	0.827221	-7.41946	4.79387	4.21995	0.00606024	0.00790616	0.00102051	0.523682	-0.676514	-0.64624	-0.270144	-0.0738031	-0.327163	0.902519	-3.01146	-5.42751	7.55339	-0.00927091	0.00301372	-0.00895883	0.0778809	0.812012	-0.830566	-0.642253	0.00902507	-0.410776	0.647064	-6.1338	-6.41978	7.72178	-0.00817882	0.0169683	-0.0120876	0.487061	0.944336	-0.307129	-0.21981	0.0810787	0.0164103	0.972029	1.80399	-0.123762	10.3702	0.0077769	0.0133528	-0.0154094	-0.496826	0.184326	-1.00366	-0.148636	-0.837959	-0.244853	0.46452	-7.52081	0.440986	-4.77318	0.00920641	0.0104965	-0.0154149	0.996582	0.253174	0.450195	-0.0705147	0.166613	-0.0262624	0.983147	3.45356	-0.808106	10.0013	0.0058047	0.00811064	-0.0183061	-0.691162	0.160645	-0.77417	-0.100333	0.0775277	-0.19365	0.972842	1.05913	-4.06178	9.56329	0.0188426	0.0160617	0.00480206	-0.439453	0.457275	-0.835938	0.0617069	0.037073	-0.0473372	0.996282	0.795037	-0.924031	9.74892	0.00483955	0.0107166	-0.00435276	-0.534668	0.00488281	-1.0249	
43	-0.0729585	-0.361935	-0.0174904	0.929179	-7.22133	0.224882	7.89266	0.00150042	-0.00155457	0.00259564	0.514893	0.22583	-0.999023	-0.0867236	-0.206314	-0.0186954	0.974456	-4.09248	0.003485	9.18379	-0.00368009	0.0372944	-0.0152335	0.228027	0.121582	-1.05444	-0.243009	-0.216213	0.207485	0.922577	-3.21865	5.11732	8.73567	0.0148546	0.00533248	0.000235608	-0.0444336	-0.42334	-1.07251	0.171905	-0.380797	0.375757	0.827193	-7.40454	4.79071	4.2286	0.00322206	0.0100414	0.00076147	0.530273	-0.674316	-0.64624	-0.270348	-0.0738252	-0.32679	0.902591	-2.99929	-5.37342	7.53377	0.020411	0.00566308	-0.00926184	0.0800781	0.812012	-0.82373	-0.642288	0.00901342	-0.410809	0.64701	-6.11983	-6.4069	7.70206	0.00545003	0.0146907	-0.0122545	0.493408	0.944336	-0.309326	-0.219814	0.0818536	0.0164856	0.971962	1.81839	-0.0814486	10.3734	0.0121664	-0.0198081	-0.0157382	-0.492676	0.184326	-1.00146	-0.148697	-0.837914	-0.244879	0.464568	-7.51473	0.464803	-4.81638	0.00316868	0.0124005	-0.0187755	0.994385	0.255371	0.447998	-0.070695	0.166442	-0.0260741	0.983168	3.45398	-0.79493	9.98381	0.0165545	0.0162772	-0.0120725	-0.693604	0.163086	-0.771973	-0.100371	0.0774993	-0.193518	0.972867	1.04607	-4.09735	9.5667	0.00273838	0.016348	0.00527022	-0.443848	0.455078	-0.840332	0.0616934	0.0370458	-0.0470979	0.996295	0.800423	-0.864904	9.74206	0.0114843	0.00984131	-0.00369461	-0.534668	0.000488281	-1.02954	
44	-0.073013	-0.361982	-0.0174818	0.929157	-7.21021	0.238575	7.88938	-0.000330968	-0.000781211	-0.000600324	0.521729	0.219482	-0.994629	-0.0867069	-0.206693	-0.0185116	0.97438	-4.07157	0.00389555	9.16894	0.00179002	0.0308096	-0.0184218	0.230469	0.119385	-1.05444	-0.242985	-0.216328	0.207654	0.922518	-3.26538	5.16329	8.71357	0.00662992	0.00499193	-0.000214695	-0.0488281	-0.425537	-1.07251	0.171916	-0.381018	0.375857	0.827044	-7.42341	4.73372	4.22307	0.00806923	0.0085278	-0.00144051	0.528076	-0.674316	-0.64624	-0.270472	-0.0738603	-0.326545	0.90264	-3.02279	-5.28621	7.56097	0.00807944	0.00593857	-0.0109841	0.0803223	0.807617	-0.833008	-0.642374	0.00893865	-0.410759	0.646957	-6.10643	-6.33034	7.71718	0.00434913	0.0131376	-0.00975556	0.487061	0.939941	-0.307129	-0.219788	0.0824598	0.0164198	0.971918	1.8258	-0.101642	10.3595	0.0107077	-0.00721102	-0.0182499	-0.501465	0.190918	-1.00586	-0.148806	-0.83789	-0.244819	0.464609	-7.50274	0.42021	-4.79891	0.00194096	0.0140627	-0.0121929	0.994385	0.255371	0.450195	-0.0707685	0.166261	-0.0258356	0.9832	3.38914	-0.77977	9.99397	0.0118169	0.0138116	-0.0205833	-0.693359	0.160645	-0.771973	-0.100387	0.0775464	-0.193449	0.972875	1.0541	-4.08847	9.56228	0.00451394	0.0124195	0.00436823	-0.439697	0.459473	-0.83374	0.0616841	0.0370148	-0.0469731	0.996302	0.789788	-0.839666	9.7513	0.00558593	0.00923861	-0.00386083	-0.537109	0.00488281	-1.02734	
45	-0.0730406	-0.362013	-0.0174923	0.929143	-7.21299	0.213009	7.87047	-0.00118947	-0.000917027	-0.00072914	0.521973	0.217285	-1.00317	-0.0866952	-0.206958	-0.0184253	0.974327	-4.08816	0.0149137	9.20271	-0.000338545	0.0356759	-0.0169795	0.230469	0.119385	-1.05444	-0.243127	-0.216232	0.207459	0.922548	-3.21701	5.13429	8.74553	-0.00296579	0.00543126	0.00723501	-0.0510254	-0.423096	-1.07495	0.171994	-0.381034	0.376087	0.826916	-7.43869	4.75532	4.24348	0.0132503	0.00935424	0.00228875	0.523926	-0.678711	-0.648438	-0.270539	-0.0738129	-0.326579	0.902611	-3.02548	-5.29212	7.56829	-0.00437983	0.0056148	-0.012414	0.0842285	0.814209	-0.826172	-0.642491	0.00900311	-0.410757	0.646841	-6.16836	-6.33035	7.68983	-0.00248427	0.00983396	-0.00920886	0.487061	0.944336	-0.307129	-0.219848	0.0828143	0.0164558	0.971873	1.81195	-0.110932	10.3881	0.0131361	-0.00622426	-0.0145439	-0.49707	0.190918	-1.00171	-0.14891	-0.837876	-0.244694	0.464667	-7.54176	0.453908	-4.78769	0.00466721	0.0125288	-0.0124329	0.992432	0.248779	0.452637	-0.0707375	0.166284	-0.0257735	0.9832	3.38935	-0.794064	10.0003	0.00856753	0.00733045	-0.0220101	-0.695801	0.163086	-0.776367	-0.10042	0.0775943	-0.1933	0.972898	1.05041	-4.05816	9.57937	0.0138595	0.00753357	0.0031244	-0.446289	0.457275	-0.838135	0.0616514	0.0370173	-0.0470639	0.9963	0.784469	-0.857237	9.73835	-0.0011804	0.00673393	-0.00232282	-0.532471	0.00488281	-1.02734	
46	-0.0729613	-0.362058	-0.0174541	0.929132	-7.20881	0.216577	7.89415	0.00359908	-0.00299191	-0.00308108	0.519775	0.215088	-0.994629	-0.0867588	-0.207799	-0.0184206	0.974142	-4.10126	-0.0215856	9.19601	-0.010629	0.0363287	-0.0161493	0.230225	0.121582	-1.06152	-0.243163	-0.216403	0.207858	0.922408	-3.20292	5.16483	8.69993	0.0233875	0.00745681	0.00602014	-0.0529785	-0.429688	-1.06787	0.171908	-0.381125	0.376448	0.826727	-7.39684	4.77372	4.22935	0.0144289	0.0172606	0.00586963	0.523926	-0.678711	-0.648438	-0.271016	-0.0736608	-0.32631	0.902578	-3.06542	-5.42228	7.53448	0.0348943	-0.00815231	-0.000162885	0.0822754	0.812012	-0.826172	-0.642544	0.0092285	-0.410808	0.646753	-6.16	-6.3763	7.69866	-0.00467994	0.0112853	-0.0154182	0.491211	0.946533	-0.311523	-0.220011	0.0833907	0.0165153	0.971786	1.86409	-0.110774	10.3643	0.0141023	0.00191598	-0.00781925	-0.497314	0.193115	-1.00806	-0.148961	-0.837817	-0.244593	0.464809	-7.49747	0.455171	-4.77889	0.00654667	0.00555247	-0.0164156	0.992188	0.257568	0.447754	-0.0709071	0.166779	-0.0257251	0.983105	3.43265	-0.83005	10.0059	0.0114746	-0.00489562	-0.00776633	-0.691162	0.160889	-0.780762	-0.100413	0.0771849	-0.193797	0.972832	1.02768	-4.07748	9.60453	-0.0159642	0.0264019	0.00667863	-0.439453	0.455078	-0.838135	0.0616456	0.0370814	-0.0473681	0.996284	0.784223	-0.866092	9.73016	-0.0124813	0.00482503	-0.00395441	-0.537109	0.00488281	-1.03174	
47	-0.0729036	-0.362077	-0.0174369	0.929129	-7.21337	0.243502	7.87046	0.00338101	-0.00204728	-0.00516695	0.519531	0.219482	-0.996826	-0.0868046	-0.208079	-0.0183667	0.974079	-4.10677	-0.0166537	9.15169	-0.00374941	0.0375004	-0.0125101	0.228027	0.121582	-1.05225	-0.243244	-0.216455	0.207959	0.922352	-3.19375	5.1379	8.72041	0.0107169	0.00931334	0.00864717	-0.0466309	-0.427734	-1.07251	0.171808	-0.381222	0.376613	0.826628	-7.4058	4.76095	4.19522	0.0115458	0.0206121	0.00819574	0.523926	-0.683105	-0.645996	-0.271253	-0.0735461	-0.325806	0.902698	-3.03541	-5.31867	7.57038	0.0364825	-0.0170651	-0.00130189	0.078125	0.80542	-0.82373	-0.64256	0.00930927	-0.410835	0.646718	-6.13514	-6.37178	7.7062	-0.00331617	0.0116663	-0.0157052	0.487061	0.942139	-0.309326	-0.2201	0.0835163	0.0163482	0.971758	1.85639	-0.104295	10.3706	0.00220058	0.00724289	-0.00904116	-0.499268	0.188721	-1.00146	-0.149052	-0.83775	-0.244626	0.464883	-7.47561	0.441247	-4.77668	-0.00144807	0.0069874	-0.0186987	0.992432	0.253174	0.450195	-0.0711112	0.166821	-0.0255437	0.983088	3.43687	-0.801473	9.98073	0.0207714	0.00371052	-0.00525453	-0.693359	0.158447	-0.771973	-0.100458	0.0772193	-0.193831	0.972818	1.0312	-4.13684	9.60401	-0.00106707	0.0092455	0.00647688	-0.444092	0.457275	-0.840576	0.0616562	0.0371044	-0.0476088	0.996271	0.805546	-0.911125	9.73838	-0.0181479	0.00523744	-0.00448383	-0.534912	0.00708008	-1.02954	
48	-0.0729396	-0.36211	-0.0174949	0.929112	-7.21129	0.211786	7.87207	-0.00315923	-0.000625305	0.000828173	0.519531	0.219482	-0.992432	-0.0869315	-0.208418	-0.0181345	0.974	-4.09807	-0.0250107	9.20688	-0.00178657	0.0226302	-0.0103192	0.234619	0.123779	-1.05469	-0.243316	-0.216483	0.208027	0.922311	-3.26108	5.12508	8.71822	0.00819105	0.00700673	0.00732662	-0.057373	-0.42749	-1.07251	0.17173	-0.381417	0.376887	0.82643	-7.45128	4.79027	4.20321	0.0111531	0.0178242	0.00176823	0.526123	-0.678955	-0.641846	-0.271655	-0.0734662	-0.325254	0.902782	-2.97058	-5.28018	7.56135	0.0150013	0.000518272	-0.00299742	0.0844727	0.812012	-0.830566	-0.642643	0.00935905	-0.41073	0.646701	-6.04602	-6.39217	7.72832	0.008508	0.00913236	-0.0136216	0.491455	0.937744	-0.306885	-0.220245	0.0840794	0.0166006	0.971672	1.8702	-0.158671	10.3452	0.0282363	-0.0118077	-0.0122965	-0.501221	0.186523	-1.00146	-0.149354	-0.837591	-0.244575	0.4651	-7.48854	0.395129	-4.79013	-0.00217783	0.00238739	-0.0111719	0.987793	0.257568	0.447998	-0.0712871	0.166703	-0.0250082	0.983109	3.44031	-0.74925	9.96739	0.0255816	0.0140716	-0.0196843	-0.695801	0.160645	-0.77417	-0.100447	0.0774021	-0.193643	0.972842	1.045	-4.19885	9.50385	0.0154627	0.00104528	0.00107053	-0.439697	0.459473	-0.838135	0.0616776	0.037152	-0.0477741	0.99626	0.822795	-0.987409	9.76456	0.000148955	0.00732764	-0.0040869	-0.537109	0.00708008	-1.03198	
49	-0.0729918	-0.362166	-0.017554	0.929085	-7.23575	0.213421	7.88798	-0.00104926	-0.00320757	-0.00105819	0.519775	0.215088	-0.994629	-0.0868601	-0.209756	-0.0181982	0.973718	-4.15552	0.0018753	9.15885	-0.0204855	0.0726416	-0.0249787	0.241211	0.121582	-1.05469	-0.243458	-0.216644	0.208443	0.922142	-3.2517	5.14325	8.71373	0.0106034	0.00870449	0.00837835	-0.0507812	-0.42749	-1.06787	0.17172	-0.381527	0.376962	0.826347	-7.44361	4.77073	4.19219	0.00259858	0.0115317	0.00073728	0.521729	-0.681152	-0.645996	-0.271826	-0.0735395	-0.325165	0.902757	-3.00723	-5.26381	7.51972	-0.00843577	0.00706453	-0.00944545	0.0800781	0.809814	-0.826172	-0.642795	0.00934003	-0.410595	0.646636	-6.07126	-6.29967	7.71927	0.00247261	0.0111993	-0.00737158	0.493408	0.944336	-0.309326	-0.220192	0.0850058	0.0165724	0.971604	1.84377	-0.124272	10.4492	-0.0191675	-0.0392822	-0.0204138	-0.499268	0.188721	-0.999512	-0.149658	-0.837562	-0.244417	0.465137	-7.48889	0.454466	-4.78884	-0.00407963	0.0153135	-0.00405713	0.996582	0.255371	0.445557	-0.0710947	0.166682	-0.0247922	0.983132	3.40648	-0.750732	9.97111	0.00766997	0.00904494	-0.0297077	-0.691406	0.16748	-0.77417	-0.100417	0.0773294	-0.193375	0.972904	1.05246	-4.05804	9.5891	0.00832803	0.012734	0.00237574	-0.444092	0.457275	-0.835938	0.0616721	0.0370848	-0.0472318	0.996288	0.784918	-0.91098	9.73742	0.0268859	0.0145178	-0.00616403	-0.534912	0.00708008	-1.02954	
50	-0.073238	-0.362182	-0.0175599	0.92906	-7.18389	0.188244	7.89327	-0.00379976	-0.00275213	0.0136335	0.519531	0.219482	-0.994629	-0.0869191	-0.209979	-0.0181428	0.973666	-4.21279	-0.0235073	9.13076	0.00862682	0.0185226	-0.0141102	0.239014	0.121582	-1.06177	-0.243429	-0.216608	0.208621	0.922117	-3.219	5.15285	8.74758	0.00908153	0.00350284	0.00125156	-0.0488281	-0.427734	-1.06567	0.171735	-0.381533	0.377033	0.826308	-7.45692	4.78359	4.19167	0.00622505	0.00604519	-0.000220246	0.523682	-0.674561	-0.639648	-0.271953	-0.073419	-0.325412	0.90264	-3.04816	-5.33241	7.55511	-0.0235639	0.00287915	-0.00803581	0.0825195	0.80542	-0.828369	-0.642948	0.00949454	-0.410774	0.646368	-6.12066	-6.40331	7.71441	-0.0111309	0.0123205	-0.00915672	0.491455	0.939941	-0.302734	-0.220337	0.0846645	0.0167566	0.971598	1.92531	-0.0681055	10.3009	0.0296278	0.0712401	-0.0101655	-0.501465	0.190918	-1.00171	-0.149941	-0.837505	-0.244344	0.465187	-7.52118	0.497255	-4.77419	-0.00176369	0.00682931	-0.0139591	0.988037	0.250977	0.445557	-0.0710042	0.16676	-0.0247377	0.983126	3.43042	-0.747607	10.0178	0.00806272	0.00467811	-0.0218888	-0.690918	0.15625	-0.776367	-0.100488	0.077442	-0.192979	0.972967	1.06632	-4.06811	9.55228	0.0176053	0.00192469	0.00357254	-0.444092	0.457275	-0.838135	0.0616614	0.0370702	-0.0468018	0.99631	0.803751	-0.830945	9.76194	0.00702394	0.00746875	-0.00378688	-0.532471	0.00268555	-1.03174	
51	-0.0733409	-0.36228	-0.0173263	0.929018	-7.21905	0.194332	7.87448	0.0126394	-0.000274132	0.00110995	0.521729	0.219482	-0.994629	-0.0868409	-0.210524	-0.0176775	0.973564	-4.09235	0.0276375	9.20647	0.00740117	0.0448617	-0.0164035	0.239258	0.115234	-1.052	-0.243576	-0.216556	0.208292	0.922165	-3.19377	5.2188	8.70437	-0.014979	0.0041509	0.0030136	-0.0510254	-0.425293	-1.07031	0.171787	-0.381556	0.377089	0.826262	-7.43627	4.81875	4.20352	0.00804651	0.009728	0.0011419	0.526123	-0.678955	-0.641846	-0.271963	-0.0733276	-0.325297	0.902685	-3.02209	-5.41209	7.58511	0.00929892	0.00135155	-0.00745579	0.0822754	0.809814	-0.826172	-0.642978	0.00954389	-0.410742	0.646358	-6.1615	-6.44684	7.72468	0.00928717	0.0113024	-0.0162636	0.489014	0.944336	-0.311523	-0.220405	0.0844883	0.0167475	0.971598	1.78446	-0.128195	10.3993	0.0387231	-0.0382333	-0.0162502	-0.499023	0.186523	-0.999268	-0.149988	-0.837347	-0.244194	0.465536	-7.5548	0.478292	-4.76827	0.0159408	-0.00376514	-0.0156722	0.992432	0.250977	0.447998	-0.0710498	0.166801	-0.0245636	0.983121	3.46634	-0.791056	10.0366	0.0162338	0.00799512	-0.0168997	-0.686523	0.160889	-0.778564	-0.100443	0.0774338	-0.192675	0.973032	1.09203	-3.98161	9.66006	0.00278204	0.0157926	0.000995915	-0.441895	0.457275	-0.842773	0.0616675	0.0370394	-0.0468142	0.99631	0.784016	-0.85568	9.76302	-0.00693645	0.00771445	-0.00255091	-0.536865	0.000488281	-1.03174	
52	-0.0732586	-0.3624	-0.0171331	0.928981	-7.2406	0.280465	7.86406	0.00629416	0.00249325	0.00160945	0.517334	0.217285	-0.990234	-0.0869047	-0.210835	-0.0176276	0.973491	-4.16549	0.0319926	9.12742	-0.00433318	0.0396951	-0.0113961	0.241211	0.117432	-1.05908	-0.243566	-0.216647	0.208344	0.922135	-3.21994	5.09013	8.73059	0.0174814	0.00826171	0.00185434	-0.0529785	-0.429688	-1.07471	0.171682	-0.381703	0.377049	0.826234	-7.41949	4.83517	4.21164	-0.00670584	0.0111538	-0.00031525	0.528076	-0.676514	-0.644043	-0.27223	-0.0735322	-0.324375	0.90292	-3.01624	-5.28257	7.55316	0.0430704	0.00424825	-0.0044137	0.0783691	0.803223	-0.828369	-0.643033	0.00939009	-0.410542	0.646433	-6.07145	-6.3705	7.7308	0.0148067	0.0138024	-0.0128931	0.491455	0.937744	-0.309082	-0.220501	0.0858208	0.0168533	0.971458	1.89998	-0.0571517	10.3126	-0.00778712	-0.00188699	-0.00902457	-0.510254	0.192871	-0.999512	-0.149929	-0.837293	-0.244042	0.465731	-7.49285	0.482356	-4.77876	0.0114273	0.010081	-0.0153878	0.992432	0.250977	0.445557	-0.071147	0.166467	-0.0242439	0.983178	3.43327	-0.732811	9.96407	0.0179515	0.0251892	-0.0174026	-0.693359	0.158447	-0.771973	-0.100467	0.0774692	-0.193204	0.972922	1.03188	-4.11727	9.56953	-0.0135133	0.0116243	0.00495287	-0.442139	0.463867	-0.843018	0.0616595	0.0370453	-0.0470569	0.996299	0.777013	-0.900154	9.75217	-0.0125135	0.00755107	-0.00339743	-0.534668	0.00488281	-1.02954	
53	-0.073391	-0.362377	-0.0171636	0.928979	-7.23258	0.257519	7.87981	-0.00395556	-0.00716628	0.00238162	0.521484	0.223877	-0.994629	-0.0867313	-0.211172	-0.0175378	0.973435	-4.16262	0.00739222	9.14409	0.00257234	0.0148989	-0.0227126	0.241211	0.121826	-1.05225	-0.243618	-0.216727	0.208411	0.922087	-3.3325	5.19356	8.69811	-0.0113285	0.00595892	0.000182451	-0.048584	-0.429688	-1.06567	0.171828	-0.381771	0.376905	0.826237	-7.448	4.74067	4.18059	0.00255892	0.00277238	-0.00986995	0.52832	-0.678711	-0.64624	-0.272217	-0.0735327	-0.324196	0.902988	-3.00523	-5.21607	7.59227	-0.00310601	0.00862205	-0.0189009	0.0869141	0.803223	-0.833008	-0.643192	0.00925656	-0.410474	0.64632	-6.06534	-6.36589	7.7436	0.00585697	0.0129297	-0.0038332	0.493652	0.937744	-0.302734	-0.220523	0.0859133	0.0167354	0.971447	1.86546	-0.116332	10.3875	0.0216525	-0.00410495	-0.0191529	-0.501465	0.188721	-1.00366	-0.149969	-0.837322	-0.243857	0.465764	-7.51025	0.451906	-4.78471	0.00587557	0.0154103	-0.00875354	0.996582	0.253174	0.450195	-0.0709703	0.166033	-0.0243804	0.983261	3.41708	-0.724418	9.97752	-0.00693505	0.0297902	-0.0272995	-0.695557	0.15625	-0.776367	-0.100525	0.0775031	-0.193012	0.972951	1.02541	-4.11294	9.59117	0.0293309	0.0109875	0.00377024	-0.441895	0.457275	-0.842773	0.0616441	0.0371077	-0.0472428	0.996289	0.8011	-0.926125	9.75018	-0.00953358	0.00344538	-0.00355745	-0.525635	0.00512695	-1.03174	
54	-0.0735028	-0.362288	-0.0172696	0.929003	-7.22956	0.213149	7.88962	-0.00566251	-0.0058117	0.00149116	0.521729	0.219482	-0.990234	-0.086684	-0.211346	-0.0175586	0.973401	-4.1429	0.0381608	9.18829	-0.00782229	0.0289419	-0.0226339	0.243408	0.117432	-1.05688	-0.243677	-0.216583	0.207998	0.922199	-3.24241	5.154	8.72177	-0.0333373	0.00112426	-0.00198797	-0.057373	-0.42749	-1.06567	0.172145	-0.381779	0.376857	0.82619	-7.44376	4.7971	4.17131	0.00462497	0.00020036	-0.00972804	0.521484	-0.678955	-0.641846	-0.272214	-0.0735524	-0.324394	0.902916	-2.97203	-5.29623	7.5871	-0.0154836	0.0148958	-0.0152691	0.0825195	0.80542	-0.830566	-0.643338	0.0090527	-0.410325	0.646272	-6.11189	-6.32715	7.72581	0.0126099	0.0138803	-0.00976575	0.491455	0.939941	-0.309082	-0.220305	0.0860238	0.0171937	0.971478	1.91507	-0.117615	10.3533	0.0242869	-0.00130428	-0.0188791	-0.505615	0.188721	-1.00146	-0.149774	-0.837385	-0.243746	0.465771	-7.52827	0.442003	-4.77858	0.0119552	0.00989761	-0.00817204	0.994629	0.248779	0.447998	-0.0708028	0.165807	-0.0244752	0.983309	3.37852	-0.744617	9.9925	-0.00415398	0.0286408	-0.0301732	-0.691162	0.158447	-0.776367	-0.100596	0.0775314	-0.192878	0.972968	1.0553	-4.05482	9.591	0.0127427	0.00815449	0.00718254	-0.446289	0.457275	-0.83374	0.061636	0.0370737	-0.0468928	0.996307	0.797766	-0.8579	9.74653	0.0159221	0.0112581	-0.00631784	-0.534668	0.00488281	-1.02954	
55	-0.073518	-0.362244	-0.0172648	0.929019	-7.19082	0.182754	7.86925	0.000841268	-0.00761859	-0.000606138	0.519775	0.215088	-0.996826	-0.0865987	-0.211778	-0.0175957	0.973314	-4.19671	0.0404528	9.14726	-0.00996754	0.0273237	-0.0206655	0.243408	0.117188	-1.06152	-0.243742	-0.21661	0.208074	0.922158	-3.21648	5.14255	8.74634	0.0277265	0.00641571	0.00409347	-0.0529785	-0.431885	-1.06787	0.172129	-0.381729	0.376677	0.826299	-7.43288	4.78395	4.16787	-0.00851897	0.00171514	0.00216187	0.528076	-0.674316	-0.644043	-0.272175	-0.0736919	-0.324729	0.902796	-3.07153	-5.31462	7.5707	-0.00914575	0.0109374	-0.0160496	0.0803223	0.803223	-0.828369	-0.643375	0.00903524	-0.410421	0.646174	-6.14642	-6.31014	7.70964	-0.0061834	0.0172495	-0.0128551	0.493652	0.942139	-0.307129	-0.220313	0.0861452	0.0170992	0.971467	1.90283	-0.124321	10.3349	0.00711685	0.00666206	-0.0156667	-0.501465	0.188721	-0.995117	-0.149709	-0.837389	-0.24363	0.465844	-7.54652	0.466502	-4.75063	0.0158295	0.0106983	-0.0134822	0.996582	0.253174	0.447998	-0.0704869	0.165531	-0.0245858	0.983375	3.3587	-0.752916	10.028	-0.00314288	0.0181481	-0.0298281	-0.686768	0.165283	-0.776367	-0.100584	0.0775419	-0.193097	0.972925	1.04798	-4.1085	9.50884	-0.00138927	0.0133225	0.0044198	-0.441895	0.459473	-0.835938	0.061636	0.0370737	-0.0468928	0.996307	0.797766	-0.8579	9.74653	0.0159221	0.0112581	-0.00631784	-0.534668	0.00488281	-1.02954	
56	-0.0734085	-0.362298	-0.0172136	0.929007	-7.22146	0.230762	7.86758	0.00389157	0.000177707	-0.00300642	0.521729	0.219482	-0.996826	-0.0866191	-0.211862	-0.0176291	0.973294	-4.18654	-0.00398636	9.1395	-0.00980977	0.0113091	-0.0178792	0.243652	0.113037	-1.0542	-0.243695	-0.216636	0.208201	0.922136	-3.23006	5.19485	8.72013	-0.00685003	0.0039425	-0.00130185	-0.0507812	-0.429688	-1.07251	0.172079	-0.381701	0.376616	0.82635	-7.44323	4.77252	4.19671	-0.00526449	0.00326836	0.0045273	0.532715	-0.676514	-0.64624	-0.272233	-0.0735647	-0.324726	0.90279	-3.00596	-5.33318	7.54679	0.00100408	0.00296786	-0.0148063	0.0825195	0.803223	-0.826172	-0.64336	0.0091401	-0.410578	0.646089	-6.14385	-6.34076	7.71716	-0.0129445	0.0173683	-0.0152432	0.495605	0.942139	-0.307129	-0.220192	0.0865306	0.0173642	0.971456	1.90866	-0.112246	10.3821	0.0147942	-0.0102424	-0.0138884	-0.503418	0.188721	-0.997314	-0.149588	-0.837439	-0.243622	0.465797	-7.55077	0.491588	-4.74686	0.00606212	0.0254819	-0.0216356	0.996582	0.255371	0.443115	-0.0705195	0.165602	-0.0248952	0.983353	3.39648	-0.779738	10.0217	-0.00896504	0.00428121	-0.0120398	-0.688965	0.165283	-0.776367	-0.100686	0.0774263	-0.192548	0.973033	1.03484	-4.00224	9.62386	0.0406583	0.00899949	0.00405552	-0.4375	0.459473	-0.83374	0.061729	0.0370083	-0.0469227	0.996302	0.803566	-0.875768	9.75152	-0.00603877	0.00687319	-0.00483823	-0.537109	0.00488281	-1.02954	
57	-0.0733604	-0.362343	-0.0171766	0.928994	-7.22943	0.243004	7.85914	0.00279427	-0.00226733	-0.00395384	0.521729	0.22168	-0.999023	-0.0866818	-0.211942	-0.0176619	0.97327	-4.16741	-0.00997378	9.1579	-0.0107813	0.0227761	-0.0156294	0.239258	0.117188	-1.06152	-0.243709	-0.216573	0.207641	0.922273	-3.21075	5.10011	8.70889	-0.0137232	0.00433603	-0.005374	-0.0529785	-0.42749	-1.07251	0.172019	-0.381657	0.376701	0.826344	-7.42894	4.76121	4.20461	0.00691029	0.00785575	0.0059593	0.521484	-0.674561	-0.64624	-0.27248	-0.073331	-0.324971	0.902647	-3.04025	-5.36138	7.57572	-0.017756	-0.00363903	-0.00604485	0.0803223	0.803223	-0.821533	-0.643281	0.00932359	-0.410949	0.645928	-6.17491	-6.38074	7.70532	-0.0140082	0.0221548	-0.0165063	0.489502	0.937744	-0.306885	-0.220293	0.0864596	0.0171904	0.971442	1.88728	-0.127782	10.3352	0.0134023	0.009353	-0.0129577	-0.503418	0.184326	-0.997314	-0.149505	-0.837416	-0.243652	0.465851	-7.54455	0.465329	-4.80939	0.0100105	0.0134421	-0.0241756	0.992188	0.255371	0.447998	-0.0708587	0.165756	-0.0249536	0.983301	3.40439	-0.791995	10.0074	0.00810172	0.00263175	-0.00448585	-0.693604	0.163086	-0.778564	-0.100616	0.0774506	-0.193337	0.972882	1.0464	-4.13314	9.57937	-0.0248406	0.0209267	0.00328305	-0.44165	0.455078	-0.840332	0.0617311	0.0370257	-0.0470804	0.996294	0.779523	-0.877065	9.74493	-0.00523404	0.00756307	-0.00407674	-0.534668	0.00268555	-1.03174	
58	-0.0733549	-0.362389	-0.0172022	0.928976	-7.2348	0.235491	7.84552	-0.00244947	0.00017557	0.00192035	0.515137	0.217285	-0.999023	-0.0867929	-0.212238	-0.017665	0.973196	-4.22633	0.0164793	9.13369	-0.010587	0.0213224	-0.0117804	0.241211	0.119385	-1.05688	-0.243493	-0.216748	0.208096	0.922186	-3.24826	5.14669	8.72252	0.0342139	0.00713038	-0.00523578	-0.0488281	-0.429688	-1.07007	0.171928	-0.381639	0.376799	0.826326	-7.4282	4.78562	4.18902	-0.0010645	0.00975666	0.00589664	0.521484	-0.674561	-0.639648	-0.272629	-0.0732604	-0.324754	0.902685	-3.02276	-5.34544	7.58169	0.0128635	0.0019206	-0.011727	0.0847168	0.80542	-0.830566	-0.643213	0.0094529	-0.411186	0.645843	-6.11208	-6.37004	7.71244	-0.00442508	0.0176538	-0.017686	0.487061	0.942139	-0.304932	-0.220391	0.08707	0.0171825	0.971366	1.92699	-0.107882	10.35	0.0111798	-0.00342229	-0.0109034	-0.508057	0.192871	-0.990967	-0.14872	-0.837458	-0.24424	0.465719	-7.52705	0.440978	-4.77404	0.0114759	0.016079	-0.027887	0.994385	0.255371	0.447998	-0.0713797	0.165902	-0.0248116	0.983243	3.39355	-0.768533	9.96703	0.0127442	0.0038054	0.00243549	-0.688721	0.158447	-0.77417	-0.100579	0.0771357	-0.192996	0.972978	1.0241	-4.09362	9.53599	0.0327334	0.0238351	0.000568868	-0.444092	0.457275	-0.835938	0.0617214	0.0370831	-0.0474135	0.996277	0.785797	-0.897125	9.75709	-0.0167885	0.00402133	-0.0041365	-0.539062	0.000488281	-1.02954	
59	-0.0734412	-0.362332	-0.0172215	0.928992	-7.20918	0.209323	7.87616	-0.00116323	-0.00493591	0.000428917	0.515137	0.217285	-0.996826	-0.0868467	-0.212194	-0.0176131	0.973201	-4.17828	0.0235716	9.14304	-0.00582541	0.0153304	-0.0168022	0.245605	0.119629	-1.05688	-0.243384	-0.216752	0.20817	0.922197	-3.26447	5.15559	8.73461	-0.00381398	0.0040069	-0.0027788	-0.0488281	-0.42749	-1.07251	0.171878	-0.381614	0.376999	0.826257	-7.45488	4.71396	4.17879	0.0129191	0.00789299	0.00723555	0.523682	-0.676758	-0.644043	-0.272759	-0.0730931	-0.324719	0.902673	-3.01135	-5.26643	7.55415	-0.0103343	0.000628486	-0.0121587	0.0825195	0.807617	-0.833008	-0.643145	0.00959052	-0.411408	0.645767	-6.09289	-6.35675	7.71358	-0.006737	0.0164998	-0.0180343	0.493896	0.935547	-0.309082	-0.220449	0.0872815	0.0171156	0.971335	1.91976	-0.113137	10.3536	0.0141206	0.00426276	-0.0124813	-0.501465	0.188721	-0.995117	-0.148629	-0.837457	-0.244408	0.46566	-7.50553	0.415548	-4.79416	0.00486389	0.0172521	-0.0234996	0.994385	0.253174	0.445557	-0.071737	0.166086	-0.0247157	0.983188	3.39408	-0.772136	9.97043	0.010395	-0.000342424	-0.00881164	-0.691162	0.160645	-0.776367	-0.100559	0.0774245	-0.19352	0.972853	1.0163	-4.1266	9.53905	-0.0428227	0.00035972	0.00214884	-0.441895	0.46167	-0.838379	0.0617568	0.037073	-0.04753	0.996269	0.791727	-0.944959	9.7637	-0.00289911	0.00925591	-0.00420631	-0.532227	0.000488281	-1.0249	
60	-0.0733977	-0.362333	-0.0171771	0.928995	-7.22063	0.215362	7.88672	0.00305924	-0.00397696	-0.00197856	0.519287	0.22168	-0.990479	-0.0868193	-0.212306	-0.0176447	0.973179	-4.19055	0.0323665	9.10687	-0.00984729	0.0188784	-0.0218356	0.247803	0.115234	-1.05908	-0.243457	-0.21668	0.20814	0.922202	-3.22156	5.1512	8.74765	0.00576149	0.00532794	0.0062871	-0.057373	-0.429688	-1.06787	0.171856	-0.381472	0.377155	0.826256	-7.45364	4.77398	4.21086	0.00627147	0.000885096	0.00757641	0.526123	-0.678955	-0.639648	-0.272841	-0.0730516	-0.324924	0.902577	-2.98114	-5.3412	7.55132	-0.00551924	0.0120772	-0.0128686	0.0822754	0.809814	-0.830566	-0.643072	0.0096991	-0.41151	0.645774	-6.10607	-6.38477	7.68081	-0.00095404	0.0160318	-0.0199001	0.487305	0.939941	-0.300537	-0.22032	0.0873563	0.0173899	0.971352	1.91825	-0.128549	10.3525	0.0178126	0.0017347	-0.0146761	-0.508057	0.190674	-0.999512	-0.148668	-0.837419	-0.244323	0.465761	-7.51432	0.410388	-4.75022	0.0062939	0.0137242	-0.0140819	0.990234	0.253174	0.447998	-0.0716918	0.166424	-0.0247216	0.983134	3.41914	-0.757634	9.98911	-0.00203973	-0.00538322	-0.0233446	-0.693359	0.160645	-0.776367	-0.100624	0.0774383	-0.192924	0.972964	1.06806	-4.08258	9.58068	0.0548555	0.0146153	0.00356189	-0.439453	0.452881	-0.840332	0.0617418	0.0370737	-0.0472185	0.996285	0.795965	-0.87398	9.74928	0.0115184	0.00866525	-0.00275352	-0.537109	0.00708008	-1.03418	
61	-0.0733762	-0.362296	-0.0171122	0.929013	-7.23158	0.243719	7.89423	0.00353004	-0.00548762	-0.0017076	0.515137	0.217285	-0.992432	-0.0867593	-0.212298	-0.0177052	0.973185	-4.1783	0.0133427	9.15796	-0.0130504	0.0141547	-0.0238056	0.241211	0.119385	-1.05688	-0.243541	-0.216645	0.208137	0.922188	-3.18707	5.15115	8.70689	-0.00369981	0.00474796	0.00358845	-0.0507812	-0.429688	-1.07007	0.171786	-0.381384	0.377145	0.826316	-7.39564	4.78783	4.20191	-0.00155192	0.00563242	0.00330576	0.52832	-0.678711	-0.644043	-0.27285	-0.0729796	-0.325086	0.902522	-3.05888	-5.34394	7.58046	-0.00978282	0.00472982	-0.0148176	0.0800781	0.809814	-0.828369	-0.643061	0.00982461	-0.41161	0.645718	-6.16195	-6.3988	7.68406	-0.00420912	0.0119285	-0.0144751	0.489258	0.942139	-0.302734	-0.220361	0.0876057	0.0175083	0.971319	1.95302	-0.118477	10.3308	0.0195474	0.0113021	-0.0149969	-0.503418	0.188721	-0.999512	-0.148655	-0.837459	-0.244203	0.465757	-7.56213	0.462874	-4.76201	0.00778226	0.0151023	-0.0142516	0.996338	0.261963	0.445312	-0.0715987	0.166716	-0.02493	0.983086	3.46778	-0.811109	9.98871	-0.00386431	-0.000215537	-0.0184	-0.691162	0.163086	-0.780762	-0.100619	0.0773663	-0.192733	0.973008	1.03915	-4.04413	9.62644	0.0177526	0.0166803	0.00250993	-0.44165	0.455078	-0.842773	0.0617327	0.0370712	-0.0470775	0.996292	0.790019	-0.829284	9.74806	0.00265326	0.00786201	-0.00485456	-0.534668	0.00268555	-1.02734	
62	-0.0733775	-0.362248	-0.0170531	0.929033	-7.20328	0.243084	7.91267	0.00267123	-0.00562414	-0.00183559	0.515137	0.217285	-0.994629	-0.0867517	-0.211992	-0.0173121	0.973259	-4.15254	0.0254319	9.10539	0.0115508	-0.00912914	-0.0135147	0.24585	0.115234	-1.05664	-0.243601	-0.216674	0.208028	0.92219	-3.22689	5.14999	8.72165	0.00192926	0.00578101	0.000736861	-0.0532227	-0.423096	-1.07031	0.171801	-0.381443	0.377283	0.826222	-7.42271	4.79695	4.16776	0.0107317	0.0115473	0.000906966	0.52124	-0.672363	-0.644043	-0.273043	-0.0728811	-0.325018	0.902496	-2.99725	-5.39871	7.57951	0.00766656	0.000826896	-0.00872269	0.0869141	0.803223	-0.828369	-0.642854	0.00986385	-0.411814	0.645794	-6.15459	-6.41221	7.67771	-0.00325917	0.0150246	-0.0156545	0.491211	0.944336	-0.309326	-0.220465	0.0878554	0.017458	0.971273	1.93347	-0.120981	10.3535	0.0119276	5.41708e-05	-0.0128541	-0.511963	0.186523	-0.999512	-0.148723	-0.837406	-0.244284	0.465787	-7.51019	0.446474	-4.76536	0.00123743	0.0126149	-0.0224172	0.996826	0.250977	0.450195	-0.0718702	0.1667	-0.0247644	0.983073	3.45472	-0.782699	10.0021	0.0155374	0.0099318	-0.00935431	-0.686523	0.160889	-0.771973	-0.10054	0.077419	-0.192955	0.972968	1.05491	-4.10725	9.56795	0.0327584	0.00943422	0.00224913	-0.44165	0.455078	-0.838135	0.0617927	0.0370884	-0.047331	0.996276	0.798006	-0.880943	9.74683	-0.0141211	0.0051966	-0.00768294	-0.534668	0.00268555	-1.03174	
63	-0.073406	-0.362269	-0.0170819	0.929022	-7.19701	0.239534	7.89246	-0.00215116	-0.00115292	-2.51066e-06	0.517334	0.217285	-0.996826	-0.0868347	-0.211866	-0.017382	0.973278	-4.17466	-0.0573233	9.27342	-0.0168355	0.00467416	-0.0132453	0.236816	0.121582	-1.06152	-0.243544	-0.216715	0.208058	0.922189	-3.20903	5.17754	8.74367	0.00753102	0.00662876	-0.0037064	-0.0507812	-0.429688	-1.07251	0.171755	-0.381505	0.377306	0.826193	-7.43994	4.78674	4.20119	0.00213991	0.0128329	0.00256589	0.528076	-0.674316	-0.641846	-0.273112	-0.072924	-0.324755	0.902567	-3.00065	-5.33903	7.5828	0.0210561	0.00268404	-0.00831011	0.0825195	0.803223	-0.82373	-0.642846	0.00986597	-0.411831	0.645792	-6.11314	-6.37466	7.71835	0.00234186	0.016131	-0.0161824	0.484863	0.946533	-0.298584	-0.220523	0.087899	0.0175654	0.971254	1.96278	-0.138686	10.3073	0.0243754	0.00936974	-0.0130327	-0.512207	0.190674	-0.997314	-0.148757	-0.837344	-0.244353	0.465852	-7.53447	0.402108	-4.75504	0.00153366	0.00891506	-0.0234798	0.998535	0.261963	0.443115	-0.0720418	0.166615	-0.0245877	0.983079	3.41635	-0.760626	9.97292	0.0209311	0.0143023	-0.00772406	-0.695801	0.158447	-0.776367	-0.100579	0.0774669	-0.192648	0.973021	1.06506	-4.0951	9.57486	0.0264349	0.00609292	0.00315901	-0.441895	0.459473	-0.835938	0.0617758	0.0370637	-0.0473252	0.996278	0.808567	-0.925412	9.72986	0.0012792	0.0100042	-0.00251476	-0.534912	0.00708008	-1.03174	
64	-0.0734182	-0.362303	-0.0171012	0.929007	-7.24674	0.223703	7.85423	-0.00123678	-0.000153706	-0.000617845	0.519287	0.223877	-0.996826	-0.0869366	-0.211656	-0.0178604	0.973306	-4.19594	0.0499561	9.14328	-0.0326321	-0.0172949	-0.020925	0.239014	0.119385	-1.05933	-0.243586	-0.216718	0.208265	0.922131	-3.27908	5.124	8.77809	0.015199	0.0023567	0.00622207	-0.048584	-0.431885	-1.07007	0.171742	-0.381542	0.377355	0.826156	-7.46745	4.76326	4.19093	0.00483895	0.00603949	0.000510265	0.530273	-0.676514	-0.639648	-0.273151	-0.0729575	-0.324412	0.902675	-2.97503	-5.23259	7.58079	0.00493599	0.00702988	-0.0136927	0.0822754	0.809814	-0.833008	-0.642882	0.00989696	-0.411846	0.645746	-6.08127	-6.32624	7.70809	0.000738671	0.0133159	-0.0126127	0.49585	0.937744	-0.300537	-0.22053	0.0883362	0.017151	0.97122	1.875	-0.12313	10.3182	-0.00744809	-0.00923569	-0.014212	-0.505859	0.192871	-1.00171	-0.148855	-0.837336	-0.244318	0.465853	-7.50005	0.422296	-4.79174	0.00160492	0.0146	-0.0121555	0.990234	0.253174	0.440918	-0.0721119	0.1666	-0.0244421	0.98308	3.40741	-0.723111	9.96719	0.00525394	0.00778213	-0.0192118	-0.691162	0.160889	-0.778564	-0.100595	0.0774384	-0.192894	0.972973	1.01737	-4.09683	9.55633	-0.000132396	0.0114385	0.00454193	-0.444092	0.46167	-0.842773	0.0617564	0.0370473	-0.0471255	0.99629	0.78347	-0.88112	9.7584	0.00972486	0.00842833	-0.0036549	-0.532715	0.00708008	-1.0249	
65	-0.0734671	-0.362174	-0.0172378	0.929051	-7.21609	0.220641	7.90578	-0.00642771	-0.00297687	0.00315051	0.519775	0.217285	-1.00317	-0.0868951	-0.209988	-0.0175499	0.973677	-4.1513	0.0015499	9.17959	0.00872505	-0.0609087	-0.0217445	0.232666	0.115234	-1.05444	-0.243573	-0.216684	0.208328	0.922128	-3.24357	5.19804	8.72691	-0.000265478	0.00532209	0.000223465	-0.0529785	-0.42749	-1.07031	0.17184	-0.381402	0.377252	0.826247	-7.44601	4.79166	4.16988	2.07578e-05	-0.00484228	-0.000476557	0.526123	-0.683105	-0.643799	-0.27294	-0.0728891	-0.324757	0.90262	-2.98557	-5.30527	7.62588	-0.0172735	0.0131885	-0.0252979	0.0825195	0.803223	-0.830566	-0.642938	0.0100504	-0.411886	0.645661	-6.13046	-6.39586	7.70348	-0.00214759	0.00965778	-0.0153675	0.493652	0.937744	-0.300537	-0.220571	0.0877328	0.0167844	0.971272	2.02467	-0.119911	10.4363	-0.00384391	0.0582485	-0.0162167	-0.505859	0.192871	-1.00171	-0.148979	-0.83737	-0.244264	0.46578	-7.55681	0.429017	-4.75158	0.00296199	0.0196695	-0.0133252	0.992432	0.250977	0.447998	-0.0719463	0.166804	-0.0247551	0.98305	3.42287	-0.759871	10.0056	-0.0133609	-0.00018593	-0.0248168	-0.686523	0.163086	-0.771973	-0.100629	0.0774187	-0.192698	0.97301	1.06118	-4.05266	9.53722	0.010267	0.004582	0.00191167	-0.444092	0.457275	-0.842773	0.0617339	0.037027	-0.0468658	0.996304	0.80355	-0.840215	9.73224	0.0114514	0.00984008	-0.00367572	-0.532227	0.000488281	-1.03394	
66	-0.0734301	-0.362182	-0.0172591	0.92905	-7.22703	0.227561	7.87492	0.00218293	-0.0029696	-0.00589899	0.521729	0.217285	-0.996826	-0.0869266	-0.208966	-0.0173542	0.973897	-4.10007	0.0190836	9.19703	-0.0123612	-0.0219252	-0.0122987	0.232666	0.117188	-1.06152	-0.243696	-0.216439	0.207676	0.9223	-3.13963	5.13583	8.75018	-0.0234256	0.000798764	0.000573288	-0.0510254	-0.425293	-1.06787	0.171852	-0.381292	0.377369	0.826242	-7.41253	4.86254	4.2153	0.0122827	0.00666473	0.00501051	0.526123	-0.678955	-0.641846	-0.272902	-0.0728892	-0.324994	0.902547	-3.03849	-5.4407	7.57023	0.00356166	0.00952254	-0.0109009	0.0803223	0.807617	-0.828369	-0.64295	0.0100592	-0.41165	0.6458	-6.16437	-6.41077	7.68778	0.0163207	0.00806698	-0.0206647	0.495605	0.942139	-0.302734	-0.220624	0.0879937	0.0171834	0.971229	1.91684	-0.14594	10.3903	0.0438885	-0.0384507	-0.0154479	-0.507812	0.186523	-0.999512	-0.149033	-0.837375	-0.244193	0.465793	-7.54822	0.462553	-4.7569	0.00500791	0.0140037	-0.0168899	0.990234	0.250977	0.445557	-0.0719874	0.166984	-0.0247732	0.983016	3.45434	-0.794205	10.0059	0.0116263	0.00467207	-0.0126708	-0.691406	0.165283	-0.77417	-0.10069	0.0775358	-0.192544	0.973024	1.05782	-4.00226	9.5999	0.0117073	0.00252283	0.00473762	-0.44165	0.457275	-0.83374	0.0617283	0.0370231	-0.0470057	0.996298	0.801791	-0.840205	9.76907	-0.0100097	0.0080733	-0.00418959	-0.532471	0.00268555	-1.02954	
67	-0.0733841	-0.362133	-0.0172644	0.929073	-7.21972	0.266213	7.84874	-0.00105998	-0.00483954	-0.000423033	0.519531	0.22168	-0.999023	-0.0872451	-0.207753	-0.0173979	0.974127	-4.19145	-0.0257722	9.13043	-0.01542	-0.038338	-0.00955639	0.232422	0.121582	-1.06152	-0.24355	-0.216739	0.208474	0.922088	-3.28099	5.1899	8.70537	0.0576736	0.0100838	-0.00139613	-0.0551758	-0.431885	-1.07227	0.171657	-0.381322	0.377245	0.826325	-7.4751	4.78586	4.20589	-0.00880464	0.00919514	0.00594633	0.526123	-0.681152	-0.641602	-0.272942	-0.0730948	-0.324508	0.902693	-3.05887	-5.34562	7.56657	0.0171695	0.00781295	-0.0114806	0.0803223	0.80542	-0.826172	-0.642879	0.0100105	-0.411488	0.645975	-6.15318	-6.37293	7.69304	0.00780142	0.0123978	-0.0218731	0.493652	0.937744	-0.302734	-0.220813	0.08765	0.016568	0.971228	1.91013	-0.085576	10.3054	-0.00622131	0.0534886	-0.0057634	-0.505615	0.188721	-0.997314	-0.148941	-0.837425	-0.244344	0.465652	-7.51883	0.474656	-4.79977	0.00677828	0.0225503	-0.0246091	0.996582	0.255371	0.445557	-0.0722141	0.166791	-0.024468	0.98304	3.43564	-0.787755	10.0333	0.016264	0.0111637	-0.00276762	-0.691406	0.165283	-0.776367	-0.100654	0.0773869	-0.192989	0.972952	1.00939	-4.09402	9.62379	-0.0291936	0.0208105	0.00450923	-0.44165	0.455078	-0.838135	0.0617233	0.0370936	-0.0473244	0.99628	0.775239	-0.885475	9.75127	-0.0118209	0.00389305	-0.00319847	-0.534668	0.00488281	-1.0249	
68	-0.0734968	-0.362009	-0.0173889	0.92911	-7.21777	0.209359	7.86481	-0.00522326	-0.00944182	-0.000756708	0.523926	0.219482	-0.988037	-0.0872466	-0.206508	-0.0172499	0.974395	-4.07384	0.0353732	9.19626	-0.00988674	-0.0295498	-0.020519	0.230225	0.121582	-1.05933	-0.243514	-0.216676	0.208138	0.922188	-3.26275	5.17474	8.71014	-0.0342559	0.00431338	-0.00367399	-0.0444336	-0.427734	-1.06787	0.171614	-0.381433	0.377285	0.826265	-7.4482	4.72498	4.1751	0.00685779	0.0104305	-0.000599649	0.523682	-0.676758	-0.641846	-0.273069	-0.0731115	-0.323892	0.902874	-2.97624	-5.30396	7.6179	0.0267646	0.00326138	-0.00819542	0.0825195	0.803223	-0.830566	-0.642823	0.00993602	-0.411428	0.646071	-6.10412	-6.38675	7.73191	0.0128163	0.0154404	-0.0201663	0.497803	0.946533	-0.305176	-0.220746	0.0872316	0.0169925	0.971274	1.91328	-0.132474	10.4321	0.0281421	0.0198065	-0.0133131	-0.508057	0.190674	-0.999512	-0.149009	-0.837439	-0.244473	0.465537	-7.48598	0.420226	-4.83748	-0.000537075	0.0193993	-0.0199318	0.994385	0.255371	0.452637	-0.0725763	0.166466	-0.0243867	0.98307	3.38494	-0.748425	9.96861	0.0114097	0.0245537	-0.00739413	-0.695801	0.158447	-0.776367	-0.100656	0.0774191	-0.193285	0.97289	1.04792	-4.11323	9.55738	0.00356335	0.0110372	0.00305466	-0.443848	0.455078	-0.838135	0.0617172	0.0371737	-0.0476047	0.996264	0.797138	-0.890337	9.734	-0.0076271	0.00369474	-0.00422759	-0.532471	0.00488281	-1.0249	
69	-0.0735629	-0.361799	-0.0174538	0.929185	-7.23985	0.20722	7.89403	-0.00213828	-0.0129406	0.000417438	0.514893	0.221436	-0.994629	-0.0873077	-0.20586	-0.0172767	0.974526	-4.05996	0.00721159	9.21286	-0.0134013	-0.00460254	-0.017984	0.226074	0.117188	-1.05664	-0.243538	-0.216661	0.208059	0.922203	-3.22905	5.09288	8.72439	0.0245325	0.00557129	0.0037531	-0.0400391	-0.427734	-1.07031	0.171549	-0.381465	0.377236	0.826286	-7.44094	4.76453	4.16658	-0.00233189	0.00436794	0.00163069	0.521484	-0.678955	-0.64624	-0.273079	-0.0733571	-0.323634	0.902944	-2.97095	-5.22902	7.55958	0.00788634	0.0154923	-0.0123018	0.0803223	0.803223	-0.826172	-0.642709	0.00971294	-0.411033	0.646438	-6.06133	-6.31092	7.71094	0.0251475	0.0121558	-0.0255111	0.489014	0.946533	-0.305176	-0.220876	0.0867577	0.0171985	0.971283	1.93639	-0.134822	10.3588	0.0295144	0.0362268	-0.015851	-0.505615	0.188721	-1.00146	-0.149188	-0.837388	-0.24448	0.465568	-7.50618	0.407991	-4.75263	-0.00260413	0.016392	-0.0126998	0.994385	0.253174	0.447998	-0.0726258	0.166205	-0.0242147	0.983115	3.3733	-0.730459	9.97001	0.00919543	0.014567	-0.0214505	-0.693359	0.160645	-0.776367	-0.10059	0.0773504	-0.193067	0.972946	1.03306	-4.13337	9.54308	0.00857672	0.0149831	-0.0017653	-0.439453	0.457275	-0.835938	0.0617436	0.0371867	-0.0475656	0.996264	0.786046	-0.892661	9.74509	0.00507218	0.00898261	-0.00529111	-0.534668	0.00488281	-1.03174	
70	-0.0735135	-0.361645	-0.0173528	0.929251	-7.19311	0.215499	7.88989	0.00639122	-0.00804282	-0.00262671	0.521729	0.22168	-0.999023	-0.0873374	-0.205416	-0.0174776	0.974613	-4.0652	-0.0186747	9.22596	-0.02824	-0.0196824	-0.0201669	0.226074	0.117188	-1.05908	-0.243442	-0.216695	0.208709	0.922074	-3.20068	5.18877	8.75534	0.0136964	-0.000943264	0.00658722	-0.057373	-0.42749	-1.06567	0.171411	-0.381353	0.377171	0.826396	-7.42638	4.82857	4.211	-0.00501854	0.00246155	0.00772616	0.52832	-0.678711	-0.644043	-0.273061	-0.0733707	-0.323707	0.902922	-3.01427	-5.23677	7.57412	-0.00535889	0.0111421	-0.0149107	0.0783691	0.803223	-0.830566	-0.642638	0.00968589	-0.410819	0.646645	-6.08314	-6.3281	7.69156	0.00958306	0.00921688	-0.0211904	0.493164	0.94873	-0.307373	-0.221017	0.086573	0.0176438	0.97126	1.89521	-0.109445	10.4047	0.0383045	0.0125285	-0.0136631	-0.503418	0.184326	-0.999268	-0.149294	-0.837446	-0.244498	0.465421	-7.51957	0.462556	-4.77974	-4.83351e-05	0.0209419	-0.0173819	0.992188	0.255371	0.452637	-0.0725659	0.166235	-0.0242613	0.983113	3.39928	-0.745361	9.96599	-0.000406334	0.00714551	-0.0230157	-0.686768	0.165283	-0.769775	-0.100608	0.0773996	-0.193132	0.972927	1.03237	-4.09571	9.56197	-0.0035967	0.00894883	0.00384994	-0.443848	0.455078	-0.838135	0.0617847	0.0372147	-0.0475204	0.996263	0.809038	-0.884523	9.74947	0.00173668	0.00618365	-0.00680392	-0.534912	0.00927734	-1.03198	
71	-0.0734744	-0.36162	-0.0173097	0.929265	-7.18576	0.24447	7.90179	0.00453452	-0.00602154	-0.00255065	0.519531	0.217285	-0.992432	-0.0873897	-0.204384	-0.0176112	0.974823	-4.01697	-0.0159413	9.20183	-0.0169496	-0.0302409	-0.0168472	0.22168	0.119385	-1.05908	-0.24351	-0.216704	0.2085	0.922101	-3.21422	5.15827	8.76013	-0.0137595	0.0110083	0.0014506	-0.0488281	-0.42749	-1.07031	0.171386	-0.38125	0.377017	0.826519	-7.42593	4.8227	4.1763	-0.0118624	-0.00600139	0.00313058	0.52832	-0.680908	-0.643799	-0.272965	-0.0733723	-0.324081	0.902817	-2.98146	-5.25218	7.57686	-0.0248808	0.0155917	-0.017949	0.0825195	0.803223	-0.828369	-0.642589	0.00975729	-0.410825	0.646689	-6.1097	-6.36544	7.7102	0.000623892	0.0125289	-0.0223819	0.487061	0.944336	-0.309326	-0.221087	0.0862641	0.0175989	0.971272	1.98011	-0.116793	10.3905	0.0187623	0.0392788	-0.0117924	-0.505371	0.182129	-0.99707	-0.14936	-0.837474	-0.244586	0.465302	-7.52979	0.460511	-4.75945	-0.00336266	0.0240679	-0.0188253	0.990479	0.248779	0.450439	-0.0725973	0.166481	-0.0244463	0.983065	3.44718	-0.74383	10.0098	-0.00525699	0.00120351	-0.0135122	-0.691162	0.160645	-0.771973	-0.100595	0.0774112	-0.193135	0.972927	1.07821	-4.09385	9.60371	0.00148346	0.0119895	0.00218507	-0.439453	0.452881	-0.833496	0.0617636	0.0372103	-0.0475339	0.996264	0.816021	-0.871043	9.76766	0.000236218	0.00829223	-0.00292228	-0.532715	0.00927734	-1.02734	
72	-0.0733436	-0.361629	-0.0173163	0.929271	-7.1927	0.277453	7.8909	-0.000622553	-0.00243604	-0.00836717	0.517334	0.219482	-0.999023	-0.087538	-0.203948	-0.0175407	0.974902	-4.00629	0.000375785	9.23102	-0.00705684	0.00659203	-0.0099618	0.221436	0.123779	-1.05933	-0.243513	-0.216649	0.207948	0.922238	-3.19204	5.18144	8.68446	-0.0194313	0.00610395	-0.00615989	-0.0507812	-0.434082	-1.06787	0.171355	-0.381117	0.376828	0.826673	-7.41078	4.82599	4.21301	-0.00583251	-0.00128427	0.00143597	0.525879	-0.676514	-0.64624	-0.273066	-0.0732641	-0.324942	0.902486	-3.0114	-5.38822	7.60661	-0.0325765	0.0115691	-0.00951242	0.078125	0.80542	-0.833008	-0.642578	0.00979921	-0.41074	0.646754	-6.12041	-6.43596	7.73311	0.00938169	0.0113356	-0.0189088	0.491211	0.944336	-0.304932	-0.221238	0.0857539	0.0178347	0.971278	1.88845	-0.101937	10.3464	0.031407	0.0149222	-0.0128579	-0.503418	0.188721	-1.00146	-0.149427	-0.837514	-0.244769	0.465113	-7.54043	0.467435	-4.79262	-0.00413607	0.0232482	-0.0219055	0.98999	0.255371	0.450195	-0.0727702	0.166494	-0.0244743	0.983049	3.47206	-0.765578	9.98497	0.0105866	0.0118976	-0.0105446	-0.684082	0.160889	-0.778564	-0.100587	0.07719	-0.192979	0.972976	1.07052	-4.07478	9.54924	0.00452482	0.0104966	0.00266924	-0.44165	0.455078	-0.835938	0.0617559	0.0371864	-0.0475272	0.996265	0.815252	-0.869174	9.74436	0.0019037	0.0108825	-0.00386388	-0.534668	0.000488281	-1.03174	
73	-0.07339	-0.361567	-0.0175616	0.929287	-7.23814	0.249265	7.88394	-0.0124717	-0.00605163	-0.000253692	0.515137	0.221436	-0.996826	-0.0877583	-0.203735	-0.0174409	0.974929	-4.07872	0.0245614	9.23029	-0.00842613	0.00116636	-0.0123382	0.228271	0.119385	-1.06152	-0.243389	-0.216734	0.208181	0.922198	-3.27496	5.07939	8.72351	0.0284916	0.00568201	-0.00100441	-0.048584	-0.429688	-1.06567	0.171344	-0.381111	0.376542	0.826808	-7.45092	4.75119	4.2113	-0.00905202	0.000792075	-0.00304408	0.523682	-0.674316	-0.64624	-0.272901	-0.073448	-0.325364	0.902368	-2.97907	-5.30668	7.57741	-0.0136024	0.0237161	-0.0196714	0.0803223	0.807617	-0.82373	-0.642596	0.00959658	-0.410327	0.647001	-6.0576	-6.38699	7.7414	0.0268347	0.00947991	-0.0182035	0.489258	0.939941	-0.311279	-0.221439	0.0856514	0.0180901	0.971237	1.87456	-0.0657932	10.3273	0.0258023	0.020497	-0.00984843	-0.499268	0.188721	-0.997314	-0.149417	-0.837601	-0.244884	0.464898	-7.49878	0.433505	-4.79757	0.00350799	0.0237637	-0.0169705	0.987793	0.259766	0.445557	-0.0728756	0.16627	-0.0243353	0.983083	3.41223	-0.749794	10.0063	0.00970441	0.0177377	-0.0184149	-0.688721	0.15625	-0.773926	-0.100624	0.0772057	-0.193373	0.972893	1.04321	-4.05688	9.6095	-0.0160905	0.0121681	0.00543046	-0.439453	0.455078	-0.840332	0.0617428	0.0371749	-0.0475245	0.996267	0.78226	-0.858397	9.7778	-0.000691049	0.00756752	-0.00214309	-0.534668	0.00488281	-1.02734	
74	-0.0734585	-0.361405	-0.017808	0.92934	-7.20405	0.183991	7.89593	-0.00730227	-0.0109933	-0.00476693	0.515137	0.217285	-0.994629	-0.0876348	-0.203175	-0.0174461	0.975057	-4.01904	0.0267614	9.21472	-0.0104837	-0.00587672	-0.0253432	0.22168	0.121582	-1.05688	-0.243229	-0.216812	0.208505	0.922148	-3.24821	5.19649	8.71233	0.015915	0.00113379	-0.00290426	-0.0510254	-0.425293	-1.07031	0.171576	-0.381004	0.376471	0.826842	-7.42391	4.76621	4.19568	0.0063662	-0.00124448	-0.00586716	0.52832	-0.680908	-0.641602	-0.272625	-0.0736649	-0.325882	0.902247	-3.03538	-5.26187	7.57389	-0.0219141	0.0237878	-0.02104	0.0822754	0.809814	-0.828369	-0.642597	0.00938742	-0.409877	0.647288	-6.10269	-6.33376	7.72771	0.0229871	0.00753903	-0.0187911	0.489258	0.944336	-0.304932	-0.2215	0.0858168	0.0183354	0.971204	1.89493	-0.0990465	10.3578	0.023577	-0.0010177	-0.0162799	-0.505615	0.186523	-1.00146	-0.149505	-0.837691	-0.244906	0.464698	-7.48759	0.450633	-4.80452	0.00211155	0.0216714	-0.0142501	0.992432	0.253174	0.452637	-0.0727412	0.166177	-0.024325	0.983108	3.39205	-0.749954	9.99333	0.00395541	0.0102448	-0.0252729	-0.690918	0.158447	-0.771973	-0.100715	0.077148	-0.193404	0.972882	1.01288	-4.04956	9.56571	0.00765222	0.0102327	0.00690743	-0.446289	0.457275	-0.835938	0.0617274	0.0372434	-0.0477108	0.996256	0.801835	-0.85962	9.72442	-0.00827906	0.00613912	-0.00355751	-0.534668	0.00268555	-1.02734	
75	-0.0733487	-0.361298	-0.0178539	0.92939	-7.19726	0.17452	7.88734	0.00130095	-0.00636839	-0.00476738	0.519287	0.223877	-0.999023	-0.0877386	-0.202841	-0.0175394	0.975115	-4.02981	0.025557	9.17321	-0.0149454	-0.00113308	-0.0136306	0.219482	0.119385	-1.05908	-0.243342	-0.216722	0.208149	0.92222	-3.23293	5.13651	8.73715	-0.00522092	0.00805834	0.000191638	-0.048584	-0.434082	-1.06787	0.171671	-0.380846	0.376371	0.82694	-7.45401	4.81765	4.22246	-0.00371422	-0.00235738	0.0012103	0.523438	-0.670166	-0.644043	-0.272452	-0.0737233	-0.326765	0.901975	-3.05491	-5.40759	7.5113	-0.0337983	0.0216814	-0.0182772	0.0825195	0.807617	-0.826172	-0.642628	0.00933023	-0.409563	0.647457	-6.14346	-6.34481	7.73408	0.0113386	0.00854031	-0.0177116	0.487061	0.944336	-0.311523	-0.221695	0.0856747	0.0186193	0.971166	1.88889	-0.109407	10.376	0.0319151	0.0257267	-0.00719633	-0.503174	0.182129	-0.99707	-0.149545	-0.837753	-0.244947	0.46455	-7.52482	0.44691	-4.81904	0.00313943	0.0231806	-0.0178797	0.992188	0.255371	0.450195	-0.0726768	0.166272	-0.0243934	0.983095	3.40868	-0.775701	10.0212	0.00080418	0.00526764	-0.0187794	-0.691162	0.160645	-0.771973	-0.100749	0.0771655	-0.193524	0.972853	1.03965	-4.14315	9.58501	-0.00602969	0.0147894	0.00409386	-0.446289	0.457275	-0.838135	0.0617237	0.0372613	-0.0478851	0.996247	0.791221	-0.883018	9.75845	-0.00358689	0.00774959	-0.00164831	-0.534668	0.000488281	-1.02954	
76	-0.0731327	-0.361221	-0.0177815	0.929438	-7.20559	0.225782	7.88291	0.00628362	-0.00824835	-0.00884156	0.519775	0.215088	-0.996826	-0.0878215	-0.202589	-0.0176111	0.975159	-4.0336	-0.0279386	9.22897	-0.0176606	-0.00502409	-0.0133469	0.219482	0.117188	-1.06152	-0.243209	-0.216823	0.208476	0.922158	-3.20826	5.18975	8.72034	0.0163527	0.00192162	-0.00240108	-0.048584	-0.429688	-1.06787	0.171578	-0.380784	0.376136	0.827095	-7.40945	4.75139	4.20799	-0.00913082	0.00109988	0.00386838	0.52832	-0.680908	-0.641602	-0.272452	-0.0737233	-0.326765	0.901975	-3.05491	-5.40759	7.5113	-0.0337983	0.0216814	-0.0182772	0.0825195	0.807617	-0.826172	-0.642555	0.00936809	-0.409472	0.647586	-6.12561	-6.34332	7.72949	0.00553365	0.014	-0.023155	0.493408	0.944336	-0.311523	-0.2218	0.0848251	0.0188363	0.971213	1.89698	-0.0958778	10.3606	0.0244648	0.0385714	-0.00613962	-0.503174	0.179932	-1.00562	-0.149381	-0.837825	-0.245078	0.464404	-7.49905	0.450976	-4.80957	0.00838672	0.0286075	-0.0262371	0.990234	0.253174	0.452637	-0.0727507	0.16632	-0.0244694	0.98308	3.40591	-0.775389	10.054	-0.00100207	0.0055635	-0.0120069	-0.691162	0.163086	-0.771973	-0.100749	0.0771289	-0.193742	0.972813	1.07804	-4.10143	9.56211	-0.0153551	0.0172309	0.00567836	-0.44165	0.455078	-0.838135	0.0617237	0.0372739	-0.0480706	0.996238	0.793104	-0.913802	9.76563	-0.00487278	0.00680758	-0.0038514	-0.537109	0.00708008	-1.02734	
77	-0.0730525	-0.361138	-0.0178601	0.929475	-7.18725	0.25237	7.89875	-0.00381312	-0.00507876	-0.0029976	0.51709	0.22168	-0.994629	-0.0878835	-0.202054	-0.0174884	0.975267	-3.98683	-0.012242	9.20082	-0.00263639	-0.00978276	-0.0151374	0.219482	0.119385	-1.06152	-0.243129	-0.216829	0.208338	0.922209	-3.23255	5.12166	8.73379	-0.00385984	0.00362902	-0.00597511	-0.0466309	-0.429932	-1.07007	0.171497	-0.380742	0.376088	0.827153	-7.41485	4.7521	4.21565	-0.00117477	0.00403092	0.00442239	0.526123	-0.678711	-0.64624	-0.272353	-0.0737017	-0.327298	0.901814	-3.01726	-5.37497	7.55103	-0.0158953	0.00790323	-0.0115407	0.0866699	0.809814	-0.828369	-0.642401	0.00935343	-0.409383	0.647795	-6.07949	-6.36145	7.74592	0.0107148	0.0150442	-0.0263435	0.484863	0.944336	-0.309326	-0.222074	0.0845675	0.0190883	0.971168	1.86741	-0.0974988	10.39	0.0325958	0.018343	-0.00741797	-0.505371	0.179932	-1.00146	-0.149252	-0.837884	-0.245339	0.464202	-7.49827	0.429935	-4.79101	0.000768184	0.0238716	-0.0262139	0.994629	0.253174	0.454834	-0.0732933	0.166449	-0.0244718	0.983018	3.39828	-0.780577	9.99021	0.0127211	0.00406554	-0.00467109	-0.693359	0.158447	-0.780762	-0.10078	0.0770884	-0.193936	0.972774	1.01081	-4.15912	9.5593	-0.0109104	0.00401098	0.00450633	-0.437256	0.457275	-0.840576	0.0617028	0.0372876	-0.0481568	0.996235	0.80023	-0.917957	9.74691	-0.0017838	0.00703557	-0.00347092	-0.532471	0.00488281	-1.03418	
78	-0.0730782	-0.3611	-0.0180021	0.929485	-7.21753	0.201187	7.87693	-0.00424588	-0.00596347	-0.002745	0.517334	0.217285	-0.996826	-0.0879857	-0.201691	-0.0173373	0.975335	-3.97323	-0.022555	9.24355	-0.00136288	-0.0157453	-0.00856446	0.221924	0.11499	-1.06128	-0.2431	-0.216912	0.208389	0.922185	-3.28545	5.11351	8.70491	0.0118177	0.0054817	0.00336805	-0.048584	-0.436279	-1.06543	0.171403	-0.380646	0.375912	0.827297	-7.43489	4.74498	4.22567	-0.00778704	-0.00040542	0.00351185	0.530273	-0.676514	-0.641846	-0.272331	-0.0737962	-0.327282	0.901818	-3.03081	-5.34862	7.5008	0.00314245	0.0148379	-0.0134652	0.0756836	0.809814	-0.828369	-0.6423	0.00931227	-0.409244	0.647984	-6.058	-6.35512	7.71115	0.0105876	0.0141554	-0.0206064	0.491455	0.939941	-0.307129	-0.222269	0.0839822	0.019009	0.971176	1.8511	-0.0781541	10.4099	-0.00743277	0.0282827	-0.0125307	-0.503418	0.186523	-1.00586	-0.149216	-0.837926	-0.245727	0.463932	-7.47696	0.41381	-4.79882	-0.00538485	0.020212	-0.020553	0.992432	0.253174	0.454834	-0.0734362	0.16658	-0.0243252	0.982989	3.42402	-0.781338	9.98357	0.00746718	0.00313421	-0.0181537	-0.693359	0.160645	-0.776367	-0.100771	0.0770725	-0.193928	0.972778	1.06615	-4.14887	9.48242	0.00248513	0.0135718	0.00239381	-0.44165	0.455078	-0.838135	0.0617119	0.0372784	-0.0481315	0.996236	0.792045	-0.935917	9.75769	0.00203473	0.00757644	-0.0047444	-0.534912	0.00708008	-1.03418	
79	-0.0730581	-0.36104	-0.0180719	0.929509	-7.19726	0.200547	7.88307	-0.00476437	-0.00819861	-0.0049082	0.517334	0.217285	-0.992432	-0.0878772	-0.201712	-0.0182165	0.975325	-3.96838	0.025681	9.18316	-0.0350022	0.000585856	-0.0238422	0.217285	0.119385	-1.05688	-0.243047	-0.216907	0.208583	0.922157	-3.27205	5.13123	8.71187	0.0178451	0.000216547	0.000788846	-0.0488281	-0.42749	-1.07031	0.171436	-0.380621	0.375878	0.827317	-7.42455	4.72369	4.22146	-0.00099678	0.00203445	-0.000261386	0.519287	-0.676758	-0.644043	-0.272341	-0.0737067	-0.327547	0.901726	-3.07736	-5.29367	7.54704	-0.0221617	0.0072447	-0.0144021	0.0844727	0.809814	-0.819336	-0.642294	0.00926665	-0.409206	0.648014	-6.10174	-6.36891	7.71295	0.00844576	0.0143848	-0.0159216	0.487061	0.944336	-0.311523	-0.222339	0.0840111	0.0191962	0.971153	1.81334	-0.0731737	10.3393	0.031162	0.00892082	-0.0127554	-0.500977	0.179932	-1.00342	-0.149386	-0.837985	-0.24576	0.463753	-7.48518	0.425075	-4.82371	-0.00942187	0.0265634	-0.0104134	0.994629	0.250977	0.455078	-0.073385	0.166582	-0.0243556	0.982991	3.43451	-0.794664	9.99319	0.001137	0.00925536	-0.0223841	-0.686523	0.163086	-0.776367	-0.100742	0.076952	-0.193736	0.972829	1.03349	-4.09155	9.59263	0.0103907	0.0155319	0.00384499	-0.439453	0.452881	-0.835693	0.0617089	0.0372902	-0.0480415	0.99624	0.801377	-0.862556	9.76369	0.00830498	0.00746229	-0.0042911	-0.530273	0.00732422	-1.03174	
80	-0.0732176	-0.361	-0.0181807	0.929509	-7.20736	0.16134	7.90176	-0.00513264	-0.00360168	0.00366686	0.513184	0.215088	-0.996826	-0.0877986	-0.201489	-0.0177961	0.975385	-3.92716	-0.0181869	9.27009	0.0112094	0.0138982	-0.0182876	0.219482	0.119385	-1.06152	-0.242932	-0.216918	0.208752	0.922146	-3.20207	5.1956	8.751	8.9937e-05	0.00901805	-0.0020879	-0.0507812	-0.429688	-1.06567	0.171535	-0.380532	0.375799	0.827373	-7.40285	4.82521	4.25955	-0.00432602	5.30023e-05	-0.00312512	0.521484	-0.674561	-0.648438	-0.272419	-0.0736562	-0.328309	0.90143	-2.97987	-5.45633	7.55863	-0.0360261	0.0188952	-0.00611721	0.0822754	0.812012	-0.82373	-0.642318	0.00922406	-0.409055	0.648087	-6.12498	-6.43204	7.74345	0.0130705	0.0125428	-0.0178519	0.487061	0.939941	-0.311279	-0.222627	0.0823949	0.0192246	0.971225	1.93131	-0.105293	10.3891	0.017925	0.0791652	-0.00962845	-0.499023	0.186523	-1.00146	-0.14938	-0.838131	-0.245982	0.463373	-7.52637	0.450213	-4.80524	-0.00382672	0.0245726	-0.0129316	0.992432	0.253174	0.454834	-0.0732117	0.166602	-0.0244522	0.982998	3.46299	-0.794634	9.99921	-5.96979e-06	0.00960781	-0.0233364	-0.693604	0.165283	-0.776367	-0.100747	0.0770475	-0.193843	0.972799	1.09661	-4.11888	9.48011	0.01073	0.0109433	0.00167414	-0.444092	0.459473	-0.838135	0.0617169	0.0372939	-0.0480174	0.99624	0.824354	-0.865621	9.73921	0.00363505	0.00895894	-0.00321437	-0.532227	0.000488281	-1.03174	
81	-0.0731417	-0.361014	-0.0181342	0.929511	-7.20108	0.222448	7.87142	0.00378882	-0.00279795	-0.00480382	0.512939	0.217285	-1.00122	-0.0879239	-0.201813	-0.0176622	0.97531	-4.01974	0.00597541	9.24577	-0.00987829	0.0274771	-0.00934486	0.217285	0.121582	-1.06152	-0.243058	-0.216924	0.208178	0.922241	-3.18525	5.152	8.73645	-0.01849	0.0115994	0.000760097	-0.0529785	-0.42749	-1.06787	0.171468	-0.380551	0.375652	0.827445	-7.40346	4.80671	4.23582	-0.00444416	0.00732379	0.00253239	0.52832	-0.678711	-0.64624	-0.272552	-0.0738487	-0.3279	0.901523	-3.06371	-5.42523	7.52066	0.0360717	0.00216409	-0.00670822	0.0825195	0.80542	-0.82373	-0.642297	0.00903806	-0.40858	0.648409	-6.09409	-6.35917	7.71851	0.024041	0.00862624	-0.0218447	0.487061	0.944336	-0.311523	-0.222969	0.0822688	0.0197162	0.971148	1.80114	-0.0144904	10.2748	0.0337663	0.0147073	-0.00340498	-0.499023	0.184326	-0.999268	-0.149557	-0.838159	-0.246033	0.463238	-7.48124	0.45001	-4.77463	-0.00615733	0.0233733	-0.0159202	0.994385	0.255371	0.447998	-0.0733858	0.166528	-0.0242098	0.983004	3.43553	-0.780117	10.0003	0.0196194	0.0132946	-0.0103753	-0.691162	0.160645	-0.77417	-0.100754	0.0770054	-0.193831	0.972804	1.01898	-4.08021	9.63709	-0.00502278	0.0136362	0.00579389	-0.444092	0.457275	-0.835938	0.0617709	0.0372003	-0.0482246	0.99623	0.788675	-0.883756	9.74592	-0.00826289	0.00720972	-0.00343958	-0.536865	0.00268555	-1.02734	
82	-0.0731993	-0.361001	-0.0180934	0.929512	-7.22919	0.209381	7.8716	0.000787614	-0.00562133	0.00276293	0.517334	0.219238	-0.990479	-0.0880756	-0.201742	-0.0176305	0.975311	-4.04647	0.00347401	9.22061	-0.00583212	0.00765308	-0.0147267	0.217285	0.117188	-1.06152	-0.242999	-0.217222	0.208873	0.922029	-3.26729	5.11246	8.70834	0.0323584	0.00818523	0.00376423	-0.0463867	-0.434082	-1.07227	0.171343	-0.380632	0.375443	0.827529	-7.43967	4.71198	4.23489	-0.00720606	0.00718036	0.000531327	0.525879	-0.674316	-0.64624	-0.27267	-0.073921	-0.32758	0.901598	-3.03379	-5.27886	7.55091	-0.00305772	0.00731627	-0.00828955	0.0803223	0.803223	-0.826172	-0.642304	0.0088877	-0.408272	0.648599	-6.07102	-6.35367	7.76256	0.0169904	0.0115602	-0.0164358	0.484863	0.944336	-0.313477	-0.223263	0.0815292	0.0196784	0.971143	1.82137	-0.0475432	10.3878	0.0253337	0.0507836	-0.00802687	-0.496582	0.177734	-1.00342	-0.149866	-0.838221	-0.246181	0.462947	-7.47635	0.426156	-4.82978	-0.0112619	0.0264232	-0.0127258	0.996582	0.257568	0.457275	-0.0735743	0.166293	-0.024023	0.983034	3.41031	-0.774997	9.9967	0.00994591	0.0194018	-0.0149165	-0.691406	0.165283	-0.77417	-0.100762	0.0769739	-0.194148	0.972743	1.02917	-4.15706	9.52274	-0.00293896	0.0178467	0.00469183	-0.439941	0.463867	-0.843018	0.0617851	0.0372493	-0.0483863	0.99622	0.801275	-0.940266	9.76511	0.00237878	0.00623871	-0.00325574	-0.534668	0.00488281	-1.02954	
83	-0.0731889	-0.360849	-0.0181444	0.929571	-7.20306	0.213333	7.90272	-0.00119694	-0.011581	-0.00410593	0.517334	0.22168	-0.996826	-0.0880845	-0.201739	-0.0175919	0.975312	-4.00372	0.00396822	9.22116	-0.0112247	0.0174579	-0.0165246	0.219238	0.123779	-1.05933	-0.243018	-0.217143	0.208662	0.922091	-3.24582	5.17376	8.75452	-0.0226847	0.00312725	-0.000573647	-0.0510254	-0.42749	-1.07251	0.17145	-0.380663	0.375422	0.827502	-7.42785	4.75903	4.22987	0.00178662	0.00414878	-0.00345048	0.523682	-0.676514	-0.64624	-0.272879	-0.0739334	-0.327648	0.901509	-3.01868	-5.38639	7.5297	0.00501387	0.00764982	-0.00616372	0.0847168	0.807617	-0.82373	-0.642358	0.00872079	-0.407967	0.64874	-6.07427	-6.3736	7.77338	0.0197089	0.00920314	-0.0150854	0.484863	0.942139	-0.317871	-0.223536	0.0808276	0.0200528	0.971131	1.82486	-0.0438397	10.3976	0.0384959	0.0442346	-0.00729876	-0.494629	0.182129	-1.00342	-0.149985	-0.83837	-0.246419	0.462512	-7.46896	0.439828	-4.8281	-0.00935675	0.0255511	-0.0103913	0.992432	0.253174	0.454834	-0.0734574	0.166031	-0.0241314	0.983085	3.40609	-0.755747	9.97735	-0.000117908	0.0189514	-0.0262201	-0.688721	0.158447	-0.769531	-0.100883	0.0770352	-0.193878	0.972779	1.04714	-4.1021	9.58197	0.00738605	0.0115261	0.00636618	-0.44165	0.455078	-0.835938	0.0617806	0.0372826	-0.04817	0.996229	0.777206	-0.871791	9.75463	0.01288	0.00654047	-0.00505022	-0.532715	0.0117188	-1.02734	
84	-0.0731872	-0.360721	-0.0182048	0.92962	-7.21475	0.182596	7.89307	-0.000724144	-0.00858166	-0.00183265	0.512939	0.221436	-0.999023	-0.0881714	-0.201885	-0.017825	0.97527	-4.0211	0.00106352	9.22514	-0.0170752	0.019281	-0.0162917	0.22168	0.117188	-1.05444	-0.243138	-0.217184	0.208747	0.92203	-3.21803	5.15376	8.71899	0.0250189	0.00851398	0.00357459	-0.0507812	-0.431885	-1.07227	0.171419	-0.380637	0.375236	0.827604	-7.41262	4.78665	4.21675	-0.00964014	0.00181761	0.001754	0.523682	-0.674561	-0.641846	-0.272697	-0.0740971	-0.32764	0.901553	-3.03564	-5.33436	7.54156	0.00303808	0.0120292	-0.0119057	0.0842285	0.814209	-0.826172	-0.642379	0.00856842	-0.407591	0.648957	-6.09612	-6.31375	7.76794	0.0176025	0.00876965	-0.0185856	0.489014	0.944336	-0.311523	-0.223836	0.0793628	0.0198136	0.971188	1.79388	-0.0456117	10.3196	0.0190067	0.0725214	-0.00725221	-0.496582	0.179932	-1.00562	-0.150255	-0.838478	-0.246447	0.462214	-7.50118	0.473301	-4.81503	-0.00832355	0.0292128	-0.0130582	0.992432	0.250977	0.455078	-0.0733563	0.165913	-0.0242153	0.98311	3.38535	-0.761794	10.0205	-0.00126049	0.00908712	-0.0205061	-0.688721	0.160645	-0.77417	-0.100817	0.0768706	-0.194049	0.972765	1.05664	-4.07479	9.56072	-0.0053802	0.0138784	0.000975672	-0.439697	0.46167	-0.83374	0.0618253	0.0373332	-0.0482988	0.996218	0.798565	-0.870865	9.73806	-0.00593351	0.00687094	-0.0064283	-0.537109	0.00488281	-1.02734	
