40	Head	00b4120a												Throax	00b411e8												LUpArm	00b411d9												LFoArm	00b41148												RUpArm	00b411db												RFoArm	00b41204												Waist	00b411f7												Lthigh	00b411f4												Lshank	00b4111b												Rthigh	00b411c8												Rshank	00b411ee												
PacketCount	q0	q1	q2	q3	accX	accY	accZ	gyrX	gyrY	gyrZ	magX	magY	magZ	q0	q1	q2	q3	accX	accY	accZ	gyrX	gyrY	gyrZ	magX	magY	magZ	q0	q1	q2	q3	accX	accY	accZ	gyrX	gyrY	gyrZ	magX	magY	magZ	q0	q1	q2	q3	accX	accY	accZ	gyrX	gyrY	gyrZ	magX	magY	magZ	q0	q1	q2	q3	accX	accY	accZ	gyrX	gyrY	gyrZ	magX	magY	magZ	q0	q1	q2	q3	accX	accY	accZ	gyrX	gyrY	gyrZ	magX	magY	magZ	q0	q1	q2	q3	accX	accY	accZ	gyrX	gyrY	gyrZ	magX	magY	magZ	q0	q1	q2	q3	accX	accY	accZ	gyrX	gyrY	gyrZ	magX	magY	magZ	q0	q1	q2	q3	accX	accY	accZ	gyrX	gyrY	gyrZ	magX	magY	magZ	q0	q1	q2	q3	accX	accY	accZ	gyrX	gyrY	gyrZ	magX	magY	magZ	q0	q1	q2	q3	accX	accY	accZ	gyrX	gyrY	gyrZ	magX	magY	magZ	
0	0.264765	0.347669	0.0593483	-0.897498	-7.03657	0.796952	8.03286	0.00301166	0.000790251	-2.59343e-05	0.478516	0.112549	-1.02612	-0.122707	-0.214052	-0.0593188	0.967267	-4.28893	-0.59698	9.10176	-0.00462801	0.0286093	-0.0166714	0.26001	0.196045	-1.04321	-0.152719	-0.149504	0.217414	0.952395	-2.29651	4.91776	9.23747	0.0154419	-0.00371822	-0.00553811	-0.200684	-0.452881	-1.0647	0.267377	-0.267232	0.323204	0.867546	-6.22235	4.04506	6.36107	-0.00139843	0.00278165	0.00205453	0.401367	-0.628418	-0.785889	-0.135648	-0.0992739	-0.32491	0.930687	-2.65326	-5.62244	7.50964	-0.00675588	0.00826559	-0.0113512	0.0185547	0.768311	-0.912842	-0.616926	0.0124586	-0.498785	0.608656	-6.65312	-6.85337	5.50909	0.0103049	0.0174201	-0.019602	0.523926	0.955566	-0.129395	-0.257	0.0975831	0.00393791	0.961464	1.91748	-0.491647	10.2949	0.0114584	0.00511942	-0.0147852	-0.50708	0.221191	-0.998047	-0.13116	0.0143386	0.170642	0.976459	0.709414	3.44736	10.4833	0.0025586	0.0108529	-0.01378	-0.490234	-0.255127	-0.972168	-0.150644	0.0437112	0.0580308	0.985915	1.09839	1.0739	10.507	-0.000974315	0.0101977	-0.0165326	-0.550537	-0.0974121	-1.01489	-0.043788	-0.872417	0.0276795	0.48601	-7.89764	1.07614	-5.0615	0.00484475	0.0051469	-0.000442785	1.12354	-0.0285645	0.395996	-0.0700904	0.164466	0.207283	0.961807	3.37026	3.71473	8.41594	0.00083534	0.000869439	-0.00157069	-0.699707	-0.20166	-0.841797	
1	0.264653	0.347719	0.0592953	-0.897516	-7.02114	0.86142	8.02529	0.00411823	-0.00182296	-0.00262997	0.487549	0.108398	-1.02612	-0.122757	-0.213995	-0.0592808	0.967276	-4.32761	-0.595343	9.05864	-0.0122398	0.00964423	-0.0157454	0.26001	0.193848	-1.03589	-0.152856	-0.149547	0.21718	0.95242	-2.37662	4.91273	9.19255	-0.0106983	0.0106791	0.00644983	-0.200684	-0.457275	-1.06445	0.267222	-0.267187	0.323209	0.867606	-6.2339	4.09296	6.34669	-0.000825918	0.00291066	0.00702563	0.403809	-0.630615	-0.783447	-0.135628	-0.0993557	-0.32498	0.930656	-2.69148	-5.69033	7.45218	0.00534262	0.0105129	-0.0120561	0.0163574	0.770508	-0.910645	-0.616832	0.0123122	-0.49864	0.608872	-6.66226	-6.80959	5.4921	0.0116111	0.0149765	-0.0199965	0.521729	0.953369	-0.133789	-0.257028	0.0980322	0.00410508	0.96141	1.92083	-0.428707	10.3195	0.0035486	-0.000130026	-0.0126653	-0.507324	0.225342	-0.989746	-0.131158	0.0143824	0.170641	0.976459	0.719183	3.46311	10.5096	0.00426175	0.0179639	-0.0144354	-0.479248	-0.261475	-0.965088	-0.150624	0.0437137	0.057877	0.985927	1.08158	1.03844	10.5219	-0.00324428	0.00905685	-0.0167093	-0.557129	-0.102295	-1.0083	-0.0438968	-0.872388	0.0276885	0.486051	-7.89085	1.10026	-5.00445	-0.00325784	0.00929294	0.00563114	1.12354	-0.0263672	0.405029	-0.0700433	0.164653	0.207347	0.961764	3.39652	3.73142	8.45204	0.000852453	0.00171397	-0.00515106	-0.701904	-0.203857	-0.841797	
2	0.264671	0.347693	0.0592787	-0.897521	-7.03969	0.849498	8.022	-4.81596e-05	-0.00797832	-0.00193536	0.489502	0.11499	-1.03247	-0.122757	-0.213995	-0.0592808	0.967276	-4.32761	-0.595343	9.05864	-0.0122398	0.00964423	-0.0157454	0.26001	0.193848	-1.03589	-0.152883	-0.149429	0.216815	0.952517	-2.38574	4.79923	9.22589	-0.00221675	0.00163862	-0.00188372	-0.196533	-0.450928	-1.05786	0.267162	-0.267228	0.323362	0.867555	-6.25668	4.106	6.35177	0.00825146	0.00974029	0.00112806	0.403564	-0.628418	-0.781494	-0.135638	-0.0993566	-0.32473	0.930742	-2.65902	-5.66311	7.45893	0.0206243	0.00389322	-0.0114581	0.012207	0.766113	-0.906006	-0.616814	0.0122678	-0.498644	0.608887	-6.65858	-6.84375	5.49429	0.00372346	0.0151412	-0.0152288	0.519775	0.951172	-0.133545	-0.257049	0.0980968	0.00427471	0.961397	1.97687	-0.485223	10.3557	0.0295141	0.0178908	-0.0155083	-0.509521	0.227539	-0.989746	-0.131186	0.014312	0.170669	0.976451	0.697411	3.47204	10.488	0.00632606	0.0179869	-0.0127174	-0.490234	-0.257324	-0.960449	-0.150603	0.0437693	0.057891	0.985927	1.08173	1.04581	10.4994	0.0081183	0.00644977	-0.0167497	-0.552979	-0.0952148	-1.0105	-0.0439425	-0.872394	0.0276902	0.486036	-7.88089	1.06835	-5.01957	0.000714592	0.0114385	0.00406781	1.12573	-0.026123	0.395996	-0.0699666	0.164606	0.207347	0.961778	3.41779	3.75219	8.45764	-0.000517237	0.013669	-0.00825497	-0.699707	-0.20166	-0.848633	
3	0.264644	0.347646	0.0592951	-0.897547	-7.00988	0.849372	8.0443	-0.000527031	-0.00761767	-0.00447085	0.48291	0.112793	-1.03247	-0.122561	-0.214082	-0.0594316	0.967272	-4.28466	-0.619498	9.08425	-0.00697016	0.0143974	-0.0228236	0.26001	0.198242	-1.04565	-0.152781	-0.149398	0.216955	0.952507	-2.32024	4.90199	9.21314	0.0154002	-0.00048144	-0.00402768	-0.202881	-0.457275	-1.05762	0.267182	-0.267348	0.32349	0.867464	-6.19976	4.11508	6.33381	0.0060984	0.0112937	0.000227228	0.408203	-0.628418	-0.779297	-0.135701	-0.0994106	-0.324541	0.930793	-2.64938	-5.58871	7.49445	-0.00166009	0.00821121	-0.00767823	0.0163574	0.768555	-0.91748	-0.616864	0.0122838	-0.498659	0.608824	-6.61343	-6.81827	5.49609	0.000593663	0.0115416	-0.0137788	0.523926	0.953369	-0.131592	-0.25701	0.0978878	0.00424589	0.961429	1.98	-0.462378	10.29	0.0118418	0.0200672	-0.0161707	-0.507324	0.223389	-0.993896	-0.13118	0.0143057	0.170703	0.976446	0.72622	3.44683	10.4982	0.00488282	0.0156971	-0.015372	-0.490234	-0.255127	-0.962891	-0.15062	0.0437597	0.0579686	0.98592	1.10064	1.04672	10.5035	0.0112982	0.00894124	-0.0150405	-0.550537	-0.0976562	-1.0105	-0.0440777	-0.872381	0.0276437	0.48605	-7.89787	1.09601	-5.00662	-0.000106665	0.0119346	0.00199132	1.12354	-0.0263672	0.398193	-0.069945	0.164385	0.20734	0.961819	3.38674	3.70622	8.41334	-0.000526031	0.0153205	-0.00643903	-0.704102	-0.20166	-0.851074	
4	0.264702	0.34759	0.0592947	-0.897552	-7.00325	0.802366	8.02891	0.000197296	-0.00327623	0.00191693	0.485107	0.11499	-1.02832	-0.12259	-0.214276	-0.0593674	0.96723	-4.28372	-0.581263	9.05188	-0.0113207	0.021126	-0.0144166	0.257812	0.196045	-1.04077	-0.152788	-0.149361	0.216724	0.952564	-2.28283	4.90507	9.23466	-0.0124367	0.00970399	0.00010361	-0.196533	-0.452881	-1.06006	0.267122	-0.267391	0.32343	0.867491	-6.19951	4.10537	6.34159	-0.00577268	0.00852469	0.00381214	0.406006	-0.628418	-0.781494	-0.13558	-0.0993856	-0.324758	0.930738	-2.63376	-5.63988	7.47217	-0.00878485	0.00565441	-0.0118584	0.0163574	0.768555	-0.91748	-0.616883	0.0123397	-0.498692	0.608777	-6.62498	-6.80268	5.51341	-0.00305484	0.0116852	-0.0144004	0.521973	0.946777	-0.135742	-0.257018	0.0980541	0.00429163	0.96141	1.95515	-0.479058	10.2886	0.016204	-0.000581349	-0.0138496	-0.509521	0.225342	-0.996094	-0.131201	0.0143363	0.170703	0.976443	0.747123	3.46212	10.4725	0.00407345	0.0145569	-0.0126077	-0.490234	-0.257324	-0.965088	-0.150644	0.0437121	0.0580373	0.985914	1.11051	1.06943	10.4985	0.00666136	0.00937294	-0.0161804	-0.546143	-0.0883789	-1.01294	-0.0440656	-0.872442	0.0276783	0.48594	-7.89873	1.09737	-5.00378	0.00288911	0.0102623	0.0019804	1.12134	-0.0263672	0.400391	-0.0699658	0.164329	0.207298	0.961836	3.3756	3.70897	8.40357	-0.00275422	0.0134174	-0.00254523	-0.706055	-0.208252	-0.843994	
5	0.264609	0.347652	0.0592237	-0.897559	-6.98655	0.843926	8.03954	0.00520523	-0.000234089	-0.00314118	0.487061	0.117188	-1.02832	-0.122627	-0.214076	-0.0592957	0.967274	-4.29997	-0.59377	9.07904	-0.00354361	0.00275342	-0.0184293	0.253418	0.198242	-1.04077	-0.152983	-0.149381	0.216335	0.952618	-2.36057	4.74996	9.20893	-0.00232584	0.00917355	0.00485563	-0.202881	-0.457275	-1.05762	0.267021	-0.267372	0.323526	0.867492	-6.21016	4.0883	6.29953	0.00771959	0.00800284	0.00475668	0.410645	-0.632568	-0.785645	-0.135579	-0.0993644	-0.324599	0.930796	-2.63993	-5.61741	7.50974	0.00329554	0.00573737	-0.0126224	0.0144043	0.761963	-0.919678	-0.61693	0.0124509	-0.498751	0.608678	-6.64236	-6.83655	5.51751	-0.00135421	0.0120026	-0.0145108	0.521484	0.961914	-0.131836	-0.257042	0.0982075	0.0045967	0.961386	2.00392	-0.475287	10.3786	0.0165233	0.0122959	-0.0142685	-0.515869	0.225342	-0.993896	-0.131209	0.0143032	0.170771	0.976431	0.722256	3.49475	10.5034	0.0066568	0.0181209	-0.0149762	-0.488037	-0.259521	-0.965088	-0.150659	0.043678	0.0580941	0.98591	1.0861	1.07099	10.5231	0.00775157	0.00922131	-0.0167141	-0.548584	-0.0883789	-1.01294	-0.044134	-0.872431	0.027715	0.485951	-7.89524	1.09943	-4.99356	0.000243718	0.00973367	0.00417709	1.13013	-0.026123	0.395996	-0.0699577	0.16445	0.207382	0.961798	3.38581	3.71755	8.4227	0.00526267	0.0014356	-0.00334266	-0.704102	-0.203857	-0.844238	
6	0.264614	0.347754	0.0592233	-0.897518	-7.02749	0.843525	8.01248	0.000187058	0.000195725	-0.00134162	0.480713	0.114746	-1.02832	-0.122475	-0.214306	-0.0594716	0.967231	-4.27535	-0.628801	9.0768	-0.00937288	0.018447	-0.0155601	0.259766	0.200439	-1.04565	-0.152843	-0.149479	0.217007	0.952472	-2.34027	4.86418	9.22733	0.0298679	0.00228427	-0.000379786	-0.202881	-0.452881	-1.06006	0.267074	-0.26739	0.323719	0.867398	-6.24601	4.11938	6.33047	0.00976434	0.00870396	-4.70728e-05	0.401367	-0.628418	-0.781494	-0.13562	-0.0993652	-0.3247	0.930754	-2.63743	-5.61729	7.48436	-0.00760906	0.00688905	-0.0114801	0.0185547	0.768311	-0.912842	-0.61696	0.0125048	-0.498717	0.608674	-6.64927	-6.85713	5.49867	0.00301678	0.00969747	-0.0150509	0.519775	0.951172	-0.133545	-0.257018	0.0981198	0.00438908	0.961403	1.92998	-0.455693	10.3417	0.0166732	0.0117929	-0.0145721	-0.511719	0.225342	-0.993896	-0.131207	0.0143187	0.170786	0.976428	0.708529	3.47447	10.5024	0.00342435	0.0158631	-0.0148702	-0.490234	-0.257324	-0.967529	-0.150693	0.0436739	0.0580831	0.985906	1.08619	1.07282	10.5157	0.00475393	0.00958105	-0.0159261	-0.550781	-0.0883789	-1.01294	-0.0442071	-0.872436	0.0277419	0.485934	-7.87812	1.10817	-4.99221	0.00295886	0.0133739	0.0041127	1.12598	-0.0305176	0.400635	-0.0699338	0.164533	0.20758	0.961742	3.43815	3.7347	8.43889	0.00775309	0.00724737	-0.00509322	-0.701904	-0.203857	-0.837402	
7	0.264667	0.347775	0.0592745	-0.897491	-7.03246	0.839931	8.02532	-0.00423903	-0.00121445	0.00285878	0.48291	0.11499	-1.02832	-0.12249	-0.214387	-0.0594584	0.967212	-4.30615	-0.59113	9.06111	-0.00877371	0.0161839	-0.015525	0.26416	0.200439	-1.04565	-0.152853	-0.14953	0.217025	0.952458	-2.33048	4.94302	9.25981	-0.00407013	0.0085952	0.00121383	-0.202881	-0.455078	-1.06689	0.267125	-0.267402	0.323755	0.867366	-6.25261	4.09276	6.35856	0.00133463	0.00560196	0.000220757	0.405762	-0.625977	-0.785889	-0.135592	-0.0993879	-0.3247	0.930756	-2.67033	-5.63257	7.4742	0.00550144	0.00651609	-0.0138965	0.012207	0.766113	-0.915283	-0.617	0.012461	-0.498711	0.608641	-6.64331	-6.80337	5.51485	3.4475e-05	0.0150491	-0.0128076	0.523682	0.957764	-0.142334	-0.256953	0.0983171	0.00447937	0.961399	1.95079	-0.459399	10.3259	0.0150153	0.00759167	-0.0170618	-0.507324	0.227539	-0.993896	-0.13116	0.0143517	0.170798	0.976432	0.7152	3.45536	10.4934	0.00629035	0.013163	-0.0175576	-0.483887	-0.255127	-0.962891	-0.150693	0.043726	0.0579327	0.985913	1.10701	1.0603	10.5143	-0.00133115	0.00887307	-0.0156007	-0.550781	-0.0883789	-1.0061	-0.0441932	-0.872475	0.0278178	0.485861	-7.87447	1.10885	-4.99781	0.00987144	0.0134361	0.00388514	1.12354	-0.0263672	0.402832	-0.0699088	0.164461	0.207591	0.961754	3.38271	3.74127	8.40732	-0.00302316	0.0137553	-0.00396819	-0.704102	-0.203857	-0.844238	
8	0.2647	0.347751	0.0592494	-0.897493	-7.04054	0.820551	8.01712	0.000289389	-0.00579998	-0.00138394	0.487061	0.117188	-1.02832	-0.122563	-0.214296	-0.059372	0.967228	-4.295	-0.588277	9.06909	-0.00733598	0.0104996	-0.0163719	0.264404	0.198242	-1.04077	-0.152936	-0.149579	0.216755	0.952499	-2.37052	4.85693	9.17513	0.00207937	0.00911938	0.000451125	-0.200684	-0.457275	-1.05981	0.267122	-0.267425	0.323632	0.867405	-6.2477	4.05948	6.31113	-0.00119615	0.00453928	0.000256457	0.403564	-0.626221	-0.779297	-0.135384	-0.0993894	-0.32477	0.930762	-2.65947	-5.61578	7.4885	-0.00207408	0.00680968	-0.0143284	0.020752	0.766357	-0.919678	-0.617068	0.0124835	-0.498709	0.608573	-6.65334	-6.81238	5.50395	-0.000176836	0.0114476	-0.012966	0.519531	0.955566	-0.133789	-0.256967	0.0984358	0.00444965	0.961384	1.98166	-0.445185	10.3545	0.0129045	0.00969574	-0.014306	-0.509766	0.229736	-0.991943	-0.131176	0.0143499	0.17079	0.976431	0.708663	3.48985	10.4996	0.0037798	0.0187469	-0.0133875	-0.488281	-0.250732	-0.967529	-0.1507	0.0437539	0.0579059	0.985912	1.11866	1.03914	10.5087	0.00680783	0.00732742	-0.0154477	-0.552979	-0.0908203	-1.01294	-0.0441756	-0.872494	0.0278013	0.485828	-7.90057	1.10311	-5.02427	0.00297147	0.0106814	0.00152171	1.11914	-0.0285645	0.398193	-0.0699031	0.16438	0.207523	0.961783	3.35059	3.73259	8.44287	-0.00302273	0.00970765	-0.00335114	-0.701904	-0.20166	-0.844238	
9	0.264712	0.347708	0.059264	-0.897505	-7.00739	0.842651	8.03121	-0.000516603	-0.0044712	-0.00025613	0.485107	0.11499	-1.03271	-0.122595	-0.214337	-0.0593872	0.967214	-4.3073	-0.608365	9.06779	-0.0103899	0.0187094	-0.017716	0.262207	0.198242	-1.04077	-0.152822	-0.149564	0.217021	0.952459	-2.33456	4.8956	9.19586	0.0149184	0.00241767	-0.00125512	-0.194336	-0.450928	-1.06226	0.267136	-0.267386	0.323778	0.867359	-6.23815	4.09029	6.34729	0.0083715	0.00573545	0.00329561	0.401367	-0.628418	-0.783691	-0.135424	-0.099356	-0.324878	0.930722	-2.64678	-5.63724	7.50083	-0.00277705	0.00544834	-0.0134756	0.013916	0.772949	-0.91748	-0.617036	0.0125491	-0.498755	0.608566	-6.66164	-6.83009	5.52404	0.00122771	0.0149006	-0.0180203	0.523926	0.955566	-0.133789	-0.256954	0.0984942	0.00439498	0.961381	1.9579	-0.445311	10.3147	0.0158545	0.0119279	-0.0152342	-0.509521	0.227539	-0.987549	-0.131216	0.0143311	0.170778	0.976428	0.704249	3.46014	10.4746	0.00549513	0.0158942	-0.0131383	-0.481689	-0.257324	-0.962891	-0.150715	0.0437379	0.0580232	0.985903	1.10601	1.06175	10.4859	0.0099771	0.00967127	-0.0164678	-0.550537	-0.0952148	-1.01489	-0.0441823	-0.872456	0.0277921	0.485897	-7.89154	1.09122	-5.02994	0.00265166	0.00632053	0.00165626	1.12354	-0.0263672	0.402832	-0.0699247	0.164509	0.207572	0.961749	3.38323	3.72587	8.426	0.00193777	0.0015002	-0.00105239	-0.697266	-0.206055	-0.841797	
10	0.264718	0.347688	0.0593131	-0.897507	-7.02244	0.828242	8.03723	-0.00164263	-0.00290295	-0.00081836	0.48291	0.112793	-1.02832	-0.122599	-0.21433	-0.0593643	0.967217	-4.28619	-0.601492	9.01962	-0.00763026	0.0145703	-0.0185589	0.262207	0.196045	-1.04321	-0.15279	-0.149519	0.217038	0.952467	-2.33616	4.89379	9.23345	0.000404283	0.00254659	0.000932254	-0.200928	-0.450684	-1.06689	0.267103	-0.267322	0.323881	0.86735	-6.24412	4.11458	6.34725	0.00608895	0.00464196	0.00416646	0.407959	-0.626221	-0.779297	-0.135397	-0.0993376	-0.324862	0.930733	-2.65111	-5.62873	7.48446	0.000137548	0.00626888	-0.0133938	0.0185547	0.768555	-0.915283	-0.616977	0.0125799	-0.498743	0.608635	-6.64715	-6.82139	5.50522	0.00365424	0.0130576	-0.0192957	0.519775	0.951172	-0.133545	-0.256942	0.0986041	0.00451798	0.961373	1.97467	-0.457158	10.3253	0.0205758	0.00862059	-0.0158068	-0.511719	0.225342	-0.991943	-0.13127	0.0143731	0.170765	0.976423	0.714602	3.48405	10.5067	0.00100617	0.016086	-0.0122704	-0.484131	-0.248535	-0.965332	-0.150737	0.043728	0.058044	0.985899	1.09075	1.07277	10.5148	0.00416651	0.0089582	-0.0155969	-0.54834	-0.0905762	-1.0105	-0.044193	-0.872398	0.0277852	0.486001	-7.88086	1.09141	-5.00451	0.00587912	0.00549907	0.00159766	1.12817	-0.0283203	0.402832	-0.0699279	0.164721	0.207623	0.961702	3.39437	3.7448	8.4306	0.00138535	-0.000113678	-0.000767417	-0.704346	-0.199463	-0.842041	
11	0.264748	0.347554	0.0593714	-0.897546	-6.98507	0.843987	8.02888	-0.00410075	-0.00899168	-0.000416437	0.487305	0.112793	-1.02612	-0.122382	-0.214418	-0.0594866	0.967217	-4.29572	-0.604122	9.0842	-0.00728569	0.0121711	-0.0186254	0.262207	0.196045	-1.04321	-0.152751	-0.149531	0.217089	0.95246	-2.34737	4.87009	9.24271	0.00827295	0.00595253	0.000730464	-0.196289	-0.457275	-1.05981	0.267135	-0.267276	0.323961	0.867325	-6.22574	4.11381	6.36816	0.00483595	0.00347418	-0.000459417	0.403809	-0.630615	-0.783447	-0.13539	-0.0993368	-0.324825	0.930747	-2.65481	-5.63234	7.47146	0.00255715	0.00672697	-0.0135327	0.0166016	0.763916	-0.912842	-0.616923	0.0126079	-0.498809	0.608634	-6.63766	-6.83229	5.52061	0.000168673	0.0165585	-0.0167406	0.521729	0.955566	-0.131592	-0.256932	0.0986291	0.00442139	0.961373	1.97167	-0.479735	10.2949	0.0125746	0.0152669	-0.0139477	-0.513916	0.227539	-0.989746	-0.131288	0.0144342	0.170699	0.976431	0.720896	3.47994	10.4765	0.00427301	0.0126962	-0.0145337	-0.490479	-0.25293	-0.965088	-0.15077	0.0437389	0.0579928	0.985897	1.08979	1.064	10.5091	0.00108345	0.00795903	-0.0146947	-0.550781	-0.0905762	-1.01733	-0.044159	-0.872386	0.0277685	0.486026	-7.89286	1.10485	-4.99154	0.00478804	0.00821949	-0.000920772	1.12354	-0.0285645	0.402832	-0.0699429	0.164837	0.207603	0.961685	3.42599	3.75354	8.41884	-0.000551915	0.00513139	-0.000749362	-0.704102	-0.206055	-0.8396	
12	0.264744	0.347561	0.0594435	-0.89754	-7.0062	0.826233	8.04673	-0.00439414	-0.00182165	-0.0033375	0.48291	0.112793	-1.02832	-0.122444	-0.214018	-0.059494	0.967297	-4.29245	-0.598109	9.04091	-0.00853868	-0.0100269	-0.0184035	0.255371	0.202393	-1.0481	-0.152711	-0.149538	0.217112	0.95246	-2.31986	4.89778	9.23097	0.00565426	0.00489051	-0.00123962	-0.19873	-0.450684	-1.0647	0.267204	-0.267227	0.323949	0.867323	-6.21621	4.11191	6.34108	0.000810502	0.00302054	-0.00234517	0.403564	-0.628174	-0.785889	-0.135385	-0.0992821	-0.324889	0.930731	-2.61826	-5.61397	7.4836	-0.00746018	0.00588022	-0.0144598	0.0163574	0.768555	-0.919678	-0.616921	0.012649	-0.498891	0.608569	-6.62977	-6.83589	5.5034	-0.00102839	0.014684	-0.0149073	0.523682	0.957764	-0.133789	-0.25694	0.0986598	0.00462265	0.961367	1.96766	-0.464072	10.2834	0.0297178	0.0122685	-0.0145238	-0.507324	0.225342	-0.991699	-0.131279	0.01445	0.170671	0.976437	0.738911	3.46293	10.4948	0.00184	0.0172301	-0.0150171	-0.486084	-0.250732	-0.962891	-0.150755	0.0437726	0.0579593	0.985899	1.10801	1.07036	10.4983	0.00209006	0.00630196	-0.0178402	-0.54834	-0.0952148	-1.0083	-0.044172	-0.872368	0.0277179	0.48606	-7.88389	1.09244	-4.99722	0.00205534	0.0107571	-9.38443e-05	1.12598	-0.0305176	0.393799	-0.0699712	0.164864	0.207608	0.961677	3.41305	3.73578	8.41444	0.00109569	0.00747725	0.000159149	-0.70166	-0.206055	-0.843994	
13	0.264736	0.347535	0.0595169	-0.897548	-7.02695	0.80345	8.03271	-0.00294706	-0.00362929	-0.00108584	0.48291	0.112793	-1.03052	-0.122559	-0.213469	-0.059811	0.967385	-4.30009	-0.619866	9.09354	-0.0260425	0.00429006	-0.0190446	0.257812	0.198242	-1.04321	-0.152738	-0.149523	0.217261	0.952424	-2.36808	4.80292	9.23239	0.0245593	0.00324851	0.00509023	-0.196289	-0.459473	-1.06226	0.267248	-0.267194	0.323914	0.867332	-6.22215	4.11317	6.35327	0.00104082	0.00166942	-0.00195512	0.405762	-0.626221	-0.779297	-0.13532	-0.0992548	-0.325091	0.930673	-2.63997	-5.63949	7.49991	-0.00529558	0.00766715	-0.0152778	0.0141602	0.768311	-0.915283	-0.616926	0.012643	-0.498899	0.608558	-6.64689	-6.85759	5.488	0.00228458	0.0140499	-0.0141793	0.515137	0.955566	-0.137939	-0.256923	0.0988084	0.00460481	0.961356	1.99239	-0.449753	10.3772	0.0116014	0.00209738	-0.0158694	-0.50708	0.221191	-0.996094	-0.131297	0.014438	0.170637	0.97644	0.710404	3.4378	10.5024	0.0019596	0.0178196	-0.0138252	-0.479492	-0.25708	-0.969727	-0.150755	0.0438035	0.0578708	0.985903	1.10147	1.04556	10.5172	0.00162882	0.00780291	-0.0163257	-0.555176	-0.0976562	-1.0105	-0.0440492	-0.872391	0.0277772	0.486027	-7.8857	1.11227	-5.00061	0.00886159	0.013487	0.000531867	1.12158	-0.032959	0.395996	-0.0699711	0.164763	0.207606	0.961695	3.41016	3.73898	8.42474	0.00014634	0.00834587	-0.0023265	-0.699707	-0.20166	-0.8396	
14	0.2648	0.34755	0.0594636	-0.897526	-6.9923	0.793677	8.06206	0.00468355	-0.00397596	0.00195131	0.47876	0.110596	-1.02832	-0.12261	-0.21249	-0.0601631	0.967572	-4.28299	-0.631112	9.0304	-0.0202522	-0.0319536	-0.0225303	0.255615	0.200439	-1.04102	-0.152775	-0.149571	0.217414	0.952376	-2.34384	4.95891	9.20233	-0.00537565	0.00695676	0.00395903	-0.202881	-0.455078	-1.06226	0.26733	-0.267109	0.323791	0.867379	-6.23909	4.08516	6.32684	-0.000335461	-0.000399487	-0.00126332	0.405762	-0.626221	-0.781494	-0.135238	-0.099248	-0.325024	0.930709	-2.66546	-5.64825	7.47988	0.00427242	0.00716038	-0.0150332	0.0141602	0.766113	-0.910645	-0.616938	0.0126562	-0.498877	0.608564	-6.65341	-6.82413	5.46922	0.00105248	0.0111297	-0.0144124	0.521729	0.955566	-0.133789	-0.257037	0.0986675	0.00486772	0.961339	1.98317	-0.457172	10.3131	0.0395361	0.0345751	-0.0095664	-0.513916	0.227539	-0.987549	-0.1313	0.014453	0.170655	0.976437	0.723743	3.47422	10.5006	0.00476128	0.0155009	-0.0144783	-0.488037	-0.255127	-0.962891	-0.150764	0.0437946	0.057938	0.985898	1.11586	1.06256	10.4912	0.00829989	0.00919859	-0.0156006	-0.559814	-0.095459	-1.0105	-0.0439392	-0.872464	0.0277584	0.485906	-7.86977	1.10564	-5.03165	0.00827135	0.0148342	-0.00159883	1.12378	-0.0307617	0.398438	-0.0699812	0.164733	0.207548	0.961712	3.37903	3.72509	8.44106	-0.00303638	0.0113587	-0.00153975	-0.697266	-0.208252	-0.8396	
15	0.264697	0.347704	0.0593121	-0.897507	-7.03035	0.817043	8.02641	0.0106369	0.00181698	-0.00129888	0.487305	0.11499	-1.03052	-0.122654	-0.211731	-0.0597485	0.967758	-4.18079	-0.598626	9.14619	0.000799062	-0.00736335	-0.0149644	0.250977	0.20459	-1.04102	-0.152724	-0.14951	0.217422	0.952392	-2.32232	4.83666	9.19481	0.00565677	0.00534042	-0.00379074	-0.196533	-0.44873	-1.0625	0.267306	-0.267096	0.323648	0.867444	-6.2468	4.09777	6.38223	-0.0102775	0.00370725	0.00197732	0.406006	-0.630615	-0.78125	-0.135353	-0.0992247	-0.325038	0.93069	-2.63104	-5.6588	7.48499	-0.00606749	0.00433373	-0.00687191	0.0163574	0.766357	-0.91748	-0.61694	0.0127057	-0.498878	0.60856	-6.66102	-6.86075	5.50404	0.00211212	0.0128702	-0.0176865	0.521729	0.953369	-0.131592	-0.257144	0.0981479	0.00444161	0.961366	2.01493	-0.477166	10.3936	-0.00740477	0.0339847	-0.0092179	-0.509521	0.225342	-0.989746	-0.131216	0.0142039	0.170641	0.976454	0.732051	3.48049	10.4902	0.00277155	0.0174776	-0.0124181	-0.494873	-0.248535	-0.962891	-0.150758	0.0437996	0.057937	0.985899	1.10463	1.06871	10.499	0.00393622	0.00953427	-0.0175678	-0.552979	-0.0905762	-1.01514	-0.0438369	-0.872466	0.0278172	0.485909	-7.9256	1.07019	-4.99719	0.00798509	0.00700275	0.00124038	1.12329	-0.0219727	0.398193	-0.069974	0.164694	0.207476	0.961735	3.40302	3.71521	8.44677	-0.00357826	0.00819319	-0.00239948	-0.708496	-0.206055	-0.846436	
16	0.264542	0.347689	0.0592134	-0.897565	-7.02637	0.899749	8.02581	0.00438135	-0.00865951	-0.0071847	0.478271	0.116943	-1.03271	-0.12269	-0.211371	-0.0595276	0.967846	-4.31391	-0.624378	9.0949	-0.00357638	-0.00482246	-0.0179846	0.253418	0.198242	-1.04077	-0.152678	-0.149703	0.217739	0.952296	-2.34868	4.9383	9.21645	0.00993296	0.0130432	0.00209482	-0.200684	-0.455078	-1.05542	0.26723	-0.267056	0.323394	0.867574	-6.22351	4.09906	6.33292	-0.00762597	0.00209053	0.00455516	0.403564	-0.625977	-0.785889	-0.13543	-0.0992622	-0.325405	0.930547	-2.6623	-5.63905	7.48468	-0.0207064	0.0122635	-0.0118462	0.0141602	0.766357	-0.91748	-0.616924	0.0125599	-0.498757	0.608678	-6.6368	-6.84423	5.49431	0.0131419	0.0137637	-0.016714	0.521729	0.951172	-0.133545	-0.257391	0.0979481	0.00506783	0.961317	1.89935	-0.42127	10.2513	0.0436369	0.0126945	-0.00638446	-0.509521	0.227539	-0.989746	-0.131203	0.0143102	0.170679	0.976447	0.721355	3.44916	10.5027	0.00771501	0.0119876	-0.0144615	-0.486084	-0.25293	-0.967529	-0.150755	0.0437984	0.0578879	0.985902	1.09153	1.04695	10.5255	0.00366338	0.00960519	-0.016751	-0.552979	-0.0930176	-1.01733	-0.0438437	-0.872488	0.0278079	0.485869	-7.87417	1.08673	-5.02778	0.00117777	0.0135516	0.00262705	1.12109	-0.0241699	0.400391	-0.069868	0.164656	0.207441	0.961756	3.41007	3.72458	8.42566	-0.0032583	0.00953987	-0.0081531	-0.704102	-0.20166	-0.848633	
17	0.264647	0.347508	0.0593504	-0.897595	-7.03939	0.842992	8.03874	-0.0105976	-0.0115842	0.00141983	0.48291	0.112793	-1.02832	-0.122757	-0.21048	-0.0592656	0.968048	-4.24347	-0.636651	9.09871	-0.00144101	-0.0247015	-0.0173852	0.249023	0.198242	-1.04321	-0.152813	-0.1497	0.217462	0.952338	-2.4082	4.83465	9.20638	-0.0115253	0.00659453	0.00386187	-0.196289	-0.457275	-1.06226	0.267161	-0.267051	0.323265	0.867646	-6.26025	4.05634	6.34505	-0.00108582	0.00628868	0.001129	0.407959	-0.623779	-0.785889	-0.135454	-0.0993502	-0.325024	0.930667	-2.64083	-5.6709	7.45438	0.0284862	0.00611833	-0.0108148	0.020752	0.768555	-0.915283	-0.616933	0.0124675	-0.498629	0.608776	-6.65499	-6.82294	5.49356	0.00760327	0.0131968	-0.0156866	0.526123	0.953369	-0.129395	-0.257502	0.0979816	0.00524066	0.961283	1.93152	-0.433828	10.2926	0.0299149	0.00726938	-0.00718484	-0.50708	0.221191	-0.987549	-0.131172	0.0142136	0.17076	0.976439	0.698779	3.47064	10.5152	0.00946413	0.0205245	-0.0165919	-0.488281	-0.25293	-0.969971	-0.150751	0.0438408	0.0579481	0.985898	1.08788	1.06067	10.5239	0.00763423	0.00714945	-0.0165171	-0.546143	-0.0883789	-1.01514	-0.0439525	-0.872527	0.0278567	0.485786	-7.87938	1.09107	-5.0304	0.00330763	0.0146725	0.00535046	1.12354	-0.0263672	0.402832	-0.069729	0.16456	0.207364	0.961799	3.38766	3.74431	8.45253	-0.00380419	0.0118713	-0.00916835	-0.70166	-0.206055	-0.841797	
18	0.26472	0.347239	0.0594807	-0.89767	-7.02359	0.790397	8.04382	-0.00567942	-0.0147249	-0.00234625	0.480713	0.112793	-1.03271	-0.122655	-0.209229	-0.0589049	0.968354	-4.22605	-0.594614	9.11388	0.0012448	-0.0421555	-0.0258617	0.251221	0.198242	-1.04321	-0.152743	-0.149675	0.217931	0.952246	-2.31396	4.95039	9.22549	0.0254523	0.00200112	0.0031115	-0.194336	-0.457275	-1.06226	0.267173	-0.267102	0.323267	0.867625	-6.22614	4.09874	6.33054	0.0012892	0.00781044	0.000686829	0.407959	-0.625977	-0.785889	-0.135587	-0.0993748	-0.325019	0.930647	-2.66332	-5.58761	7.52015	-0.0176819	0.0077549	-0.00540917	0.012207	0.766113	-0.915283	-0.616972	0.0124588	-0.49858	0.608776	-6.65276	-6.83356	5.52289	0.00452658	0.0118389	-0.0138796	0.519531	0.953369	-0.135742	-0.257648	0.0965282	0.00613959	0.961385	1.96271	-0.424732	10.2681	0.0429203	0.0555549	-0.00838826	-0.50708	0.221191	-0.998047	-0.131183	0.0141803	0.170805	0.97643	0.708121	3.46582	10.4719	0.00657709	0.0161498	-0.0145854	-0.490234	-0.255127	-0.962891	-0.150753	0.0438317	0.0580475	0.985892	1.11878	1.06355	10.4767	0.00880742	0.00835448	-0.0171666	-0.552979	-0.0930176	-1.0105	-0.0439966	-0.872559	0.027882	0.485724	-7.88659	1.11794	-4.99136	0.000662263	0.0149232	0.0022424	1.12378	-0.0307617	0.398438	-0.0696147	0.164272	0.207317	0.961867	3.40625	3.74587	8.44584	-0.00270475	0.0219446	-0.0101068	-0.703857	-0.208252	-0.846436	
19	0.264611	0.34706	0.0594733	-0.897771	-6.98895	0.816	8.03011	0.00261286	-0.007976	-0.00682552	0.480469	0.116943	-1.03271	-0.122652	-0.20876	-0.058714	0.968467	-4.20389	-0.592489	9.1362	0.00144922	-0.0246874	-0.019533	0.246826	0.197998	-1.04785	-0.152762	-0.149592	0.21809	0.95222	-2.32333	4.96057	9.23557	0.0149494	-0.0025143	0.00660395	-0.19873	-0.450684	-1.06006	0.26705	-0.267148	0.32312	0.867704	-6.20466	4.10385	6.33059	-0.0111005	0.00553596	0.00567511	0.406006	-0.630371	-0.785889	-0.135715	-0.0993459	-0.325327	0.930524	-2.64612	-5.64859	7.47126	-0.0283771	0.00619567	-0.00486875	0.0163574	0.768311	-0.910645	-0.616988	0.0124608	-0.498572	0.608766	-6.62059	-6.81253	5.51105	0.00264866	0.0123558	-0.0138959	0.521729	0.951172	-0.135742	-0.257841	0.0962687	0.0064877	0.961357	1.93235	-0.423028	10.3091	0.0374623	-0.0026227	-0.00866361	-0.509277	0.221191	-0.993896	-0.131176	0.0142329	0.170828	0.976426	0.737626	3.46809	10.5122	0.00602679	0.0148429	-0.0146908	-0.496826	-0.255127	-0.962891	-0.150749	0.0438158	0.0580867	0.985891	1.11208	1.07049	10.4978	0.00834184	0.00977739	-0.0170198	-0.557373	-0.0976562	-1.0127	-0.0440152	-0.872579	0.0279267	0.485683	-7.90536	1.08268	-4.99781	0.00316647	0.0142399	0.00494249	1.12354	-0.0285645	0.402832	-0.0694909	0.164022	0.207163	0.961952	3.37738	3.72435	8.41535	-0.00766615	0.0167572	-0.00967759	-0.704102	-0.20166	-0.844238	
20	0.264499	0.347015	0.0594769	-0.897822	-6.98307	0.849572	8.06564	0.00282034	-0.00746187	-0.0103542	0.485107	0.112793	-1.03052	-0.122758	-0.207709	-0.0585696	0.968688	-4.16174	-0.599284	9.08906	-0.00636534	-0.028287	-0.0212601	0.246826	0.198242	-1.04077	-0.1531	-0.149603	0.217672	0.95226	-2.3216	4.8384	9.22056	-0.0111794	0.0108537	0.0147797	-0.196533	-0.455078	-1.06226	0.266955	-0.267111	0.323024	0.86778	-6.2055	4.05366	6.32868	-0.00831213	0.00213773	0.00821542	0.403564	-0.625977	-0.788086	-0.135834	-0.0993267	-0.325201	0.930552	-2.63237	-5.62678	7.48094	0.0119533	0.00327379	-0.00714627	0.0124512	0.759521	-0.910645	-0.616752	0.0125082	-0.49868	0.608916	-6.6108	-6.82362	5.50793	0.000466662	0.013172	-0.018026	0.526123	0.953369	-0.131592	-0.258096	0.095642	0.00705261	0.961348	1.99266	-0.413953	10.417	0.0306062	0.0480103	-0.00613081	-0.50708	0.218994	-0.993896	-0.131169	0.0142146	0.170873	0.976419	0.710741	3.48474	10.4979	0.008232	0.0179963	-0.0153649	-0.488281	-0.250732	-0.965332	-0.150749	0.0437966	0.0581392	0.985889	1.10105	1.06987	10.5207	0.00857243	0.00918162	-0.0150434	-0.552979	-0.0930176	-1.0061	-0.0440557	-0.872588	0.0279813	0.485662	-7.87356	1.09807	-4.99163	0.00179526	0.00912878	0.00525815	1.12354	-0.0285645	0.400635	-0.0694442	0.164028	0.207074	0.961973	3.38982	3.70944	8.41148	-0.00741323	0.00852525	-0.00566433	-0.697266	-0.203857	-0.844238	
21	0.26442	0.346962	0.0595863	-0.897858	-7.00309	0.825717	8.05243	-0.00302973	-0.00392902	-0.00418143	0.480713	0.11499	-1.03052	-0.122814	-0.206782	-0.0583812	0.968891	-4.11085	-0.639817	9.0937	-0.00911186	-0.0116232	-0.0159907	0.244629	0.197998	-1.04785	-0.153154	-0.149707	0.218303	0.95209	-2.34236	4.85274	9.19786	0.0504416	0.00578237	0.0052655	-0.198486	-0.457275	-1.05981	0.266882	-0.267025	0.322873	0.867885	-6.20589	4.09385	6.33185	-0.00387341	-0.000489865	0.00161502	0.403809	-0.632812	-0.78125	-0.135879	-0.0992999	-0.325172	0.930559	-2.62625	-5.59327	7.50192	0.000569503	0.00366901	-0.00955515	0.0163574	0.766113	-0.912842	-0.616741	0.0126037	-0.49868	0.608924	-6.62796	-6.8307	5.4869	0.00145575	0.0118537	-0.0174706	0.523926	0.953369	-0.133789	-0.258253	0.095342	0.00704799	0.961335	1.93854	-0.405281	10.4075	0.0232651	0.036794	-0.00231657	-0.513672	0.223145	-0.996094	-0.131164	0.0141549	0.170923	0.976412	0.713886	3.48725	10.5124	0.00645238	0.0173528	-0.0152318	-0.486084	-0.250732	-0.967529	-0.150757	0.0437885	0.0581839	0.985885	1.10708	1.07076	10.5056	0.00525817	0.00884811	-0.0147564	-0.546143	-0.0905762	-1.0105	-0.0440691	-0.872611	0.0280595	0.485614	-7.88527	1.10121	-5.01234	0.00240215	0.0116583	0.00335408	1.12573	-0.0283203	0.402832	-0.0693863	0.164166	0.207044	0.96196	3.39908	3.72101	8.39912	-0.000244193	0.00273552	-0.00385887	-0.704102	-0.20166	-0.841797	
22	0.264373	0.346837	0.059655	-0.897916	-7.03553	0.820117	8.0454	-0.0027798	-0.00620531	-0.00396207	0.485107	0.11499	-1.03271	-0.122846	-0.20645	-0.058211	0.968968	-4.18519	-0.608216	9.14807	-0.00236504	0.000461678	-0.0179113	0.242432	0.198242	-1.04077	-0.153125	-0.149946	0.219084	0.951878	-2.34837	4.97559	9.21707	0.0341204	0.0104057	0.004761	-0.192139	-0.459473	-1.05981	0.266877	-0.26695	0.322617	0.868005	-6.24447	4.11065	6.36004	-0.0110699	0.000263144	0.00121978	0.403564	-0.626221	-0.783691	-0.135819	-0.0992262	-0.325822	0.930348	-2.64642	-5.67836	7.45185	-0.019904	0.00794816	-0.013144	0.0161133	0.772705	-0.906006	-0.616749	0.0126268	-0.498672	0.608923	-6.63973	-6.83914	5.50689	0.00434886	0.0126851	-0.0139796	0.521729	0.955566	-0.135986	-0.258617	0.0947987	0.00754442	0.961288	1.92335	-0.393682	10.3066	0.042358	0.0388876	-0.00284458	-0.500488	0.218994	-0.99585	-0.131158	0.0141748	0.17089	0.976419	0.703528	3.46256	10.4828	0.00268651	0.0158499	-0.0141403	-0.486084	-0.255127	-0.962891	-0.150751	0.0438193	0.0581739	0.985885	1.08232	1.0614	10.5319	0.00268607	0.00701224	-0.0154307	-0.555176	-0.0952148	-1.0127	-0.0439547	-0.872659	0.0281294	0.485533	-7.86375	1.09578	-5.02369	0.00778371	0.0158315	0.00199175	1.12817	-0.0283203	0.398193	-0.0693746	0.164176	0.206993	0.961971	3.41653	3.72901	8.43924	-0.00356805	0.0120343	-0.00438672	-0.69751	-0.197266	-0.846436	
23	0.264465	0.346726	0.0596038	-0.897935	-7.00977	0.781067	8.05677	0.00121174	-0.00786939	0.00270134	0.482666	0.116943	-1.02832	-0.12286	-0.205912	-0.0580113	0.969093	-4.16288	-0.616869	9.13985	-0.00490235	-0.0100629	-0.0181255	0.242432	0.197998	-1.04785	-0.153167	-0.150115	0.219258	0.951804	-2.36148	4.94444	9.20579	0.00601066	0.0103224	0.00286307	-0.194336	-0.457275	-1.05981	0.266867	-0.266871	0.32226	0.868165	-6.25369	4.05935	6.36411	-0.0129559	-0.00306358	-0.000211362	0.405762	-0.623779	-0.790283	-0.135837	-0.0991886	-0.325901	0.930322	-2.66449	-5.65702	7.48616	-0.00150265	0.00490364	-0.012384	0.0163574	0.770752	-0.915283	-0.616751	0.0126514	-0.498717	0.608884	-6.64403	-6.83088	5.54193	-0.00142418	0.014091	-0.0154931	0.525879	0.957764	-0.129639	-0.258939	0.0941745	0.00782157	0.96126	1.89686	-0.379055	10.345	0.0360333	0.0288366	-0.00422585	-0.50708	0.221191	-0.998047	-0.131159	0.0141735	0.170903	0.976416	0.709067	3.47951	10.4925	0.00492851	0.0172177	-0.0153357	-0.488037	-0.255127	-0.965088	-0.150764	0.043857	0.0581858	0.985881	1.09974	1.04674	10.5036	0.00732658	0.00652554	-0.0156345	-0.546143	-0.0883789	-1.01294	-0.0438417	-0.872736	0.0281709	0.485403	-7.88568	1.08932	-5.04282	0.00687461	0.0159059	0.000373145	1.12354	-0.0285645	0.402832	-0.0693655	0.163974	0.206788	0.96205	3.35775	3.74831	8.46616	-0.00880937	0.018178	-0.00568936	-0.69751	-0.199463	-0.842041	
24	0.264457	0.346628	0.0594694	-0.897984	-6.98299	0.830789	8.03587	0.00668408	-0.0096933	0.000256745	0.489502	0.11499	-1.03247	-0.122854	-0.205366	-0.0577794	0.969223	-4.12889	-0.602319	9.11446	-0.00427185	-0.00742831	-0.0180792	0.242676	0.193848	-1.04541	-0.153152	-0.150149	0.219405	0.951767	-2.334	4.91645	9.17987	0.0117938	0.00459355	0.00224418	-0.200684	-0.46167	-1.05981	0.266772	-0.266771	0.321956	0.868338	-6.20456	4.04634	6.35839	-0.00883285	-0.000445566	0.00564913	0.405762	-0.625977	-0.79248	-0.135726	-0.0991525	-0.326165	0.930249	-2.64616	-5.63919	7.49193	-0.0109128	0.00541709	-0.01169	0.0183105	0.774902	-0.912842	-0.61671	0.0126386	-0.498765	0.608886	-6.63809	-6.82321	5.53386	0.00288636	0.0151436	-0.0187461	0.523926	0.953369	-0.133789	-0.259219	0.0935002	0.0080628	0.961248	1.89504	-0.379715	10.3304	0.0310207	0.0418369	-0.00544159	-0.500488	0.218994	-0.99585	-0.131209	0.0141468	0.170919	0.976407	0.700402	3.45459	10.4796	0.00563387	0.0173309	-0.0145567	-0.492432	-0.255127	-0.960449	-0.150766	0.0438693	0.0582138	0.985878	1.11222	1.0568	10.5002	0.00736916	0.00711713	-0.0170591	-0.552979	-0.0952148	-1.0127	-0.0437191	-0.872737	0.028179	0.485412	-7.89711	1.08267	-5.02269	0.00892715	0.0108103	-0.000282675	1.1167	-0.0219727	0.402588	-0.069367	0.163949	0.20659	0.962096	3.33483	3.71157	8.43898	-0.00716851	0.00713616	-0.00202277	-0.695068	-0.203857	-0.841797	
25	0.264363	0.346608	0.0593668	-0.898026	-7.00483	0.848457	8.03884	0.00559803	-0.00749279	-0.00467588	0.480469	0.119141	-1.03052	-0.122867	-0.205055	-0.0576705	0.969294	-4.13098	-0.574226	9.14738	-0.00422952	-0.0111397	-0.0181827	0.240723	0.19165	-1.04053	-0.153158	-0.150159	0.21972	0.951692	-2.34548	4.93258	9.17903	0.0170791	0.00277024	0.00368261	-0.198486	-0.46167	-1.05981	0.266684	-0.26658	0.32174	0.868504	-6.20734	4.06668	6.36406	-0.00460028	-0.00266814	0.00747843	0.403564	-0.624023	-0.781494	-0.135749	-0.0990626	-0.326493	0.93014	-2.63793	-5.67053	7.45589	-0.0120663	0.00770472	-0.0142435	0.0185547	0.770752	-0.91748	-0.616611	0.0126738	-0.498742	0.609005	-6.63669	-6.84304	5.50327	0.00420994	0.0128751	-0.0228657	0.523926	0.953369	-0.137939	-0.259522	0.0926897	0.00829298	0.961243	1.86338	-0.382244	10.3276	0.0325524	0.03931	-0.00401404	-0.498535	0.218994	-0.99585	-0.131243	0.0142131	0.170887	0.976407	0.713294	3.47473	10.4832	0.00191869	0.0161189	-0.0128783	-0.483887	-0.255127	-0.967529	-0.150582	0.043723	0.0584214	0.985901	1.10542	1.0747	10.4985	0.00943217	0.00969084	-0.0161774	-0.550781	-0.0883789	-1.0083	-0.0435874	-0.872708	0.0282301	0.485474	-7.89279	1.09034	-5.02717	0.0107088	0.00755962	0.00170653	1.12378	-0.0327148	0.402832	-0.0693488	0.164176	0.206568	0.962064	3.36879	3.70913	8.44108	-0.0008129	-0.00262305	-0.000924848	-0.69751	-0.20166	-0.846436	
26	0.264251	0.346451	0.0594927	-0.898111	-6.97078	0.868323	8.05378	-0.00704581	-0.00882219	-0.00693156	0.480713	0.114746	-1.02612	-0.122931	-0.204431	-0.0573138	0.969439	-4.11384	-0.602699	9.17216	0.00350637	-0.013589	-0.0164167	0.240479	0.196045	-1.04541	-0.15313	-0.150213	0.220256	0.951564	-2.34623	4.93064	9.17857	0.0302227	0.00543642	0.00337294	-0.198486	-0.457275	-1.06226	0.266655	-0.266509	0.321696	0.868551	-6.21322	4.08908	6.38947	-0.00195453	-0.000277571	0.00522736	0.403564	-0.624023	-0.783691	-0.13577	-0.099041	-0.326542	0.930123	-2.62987	-5.69704	7.47216	-0.00547604	0.00538018	-0.0120189	0.013916	0.772949	-0.91748	-0.616516	0.0126911	-0.498699	0.609136	-6.63763	-6.87387	5.48594	0.00718148	0.0149897	-0.0203111	0.523682	0.955566	-0.135986	-0.259757	0.0925322	0.00848435	0.961193	1.8708	-0.378205	10.3589	0.028097	0.00792336	-0.00671636	-0.496094	0.212402	-0.997803	-0.131251	0.0142257	0.170885	0.976406	0.718236	3.47521	10.4983	0.00469899	0.016715	-0.0150782	-0.488037	-0.255127	-0.960449	-0.150593	0.0437078	0.0584431	0.985898	1.1054	1.08911	10.5103	0.0072499	0.00988904	-0.0164834	-0.550537	-0.0952148	-1.01489	-0.0435595	-0.872687	0.0282521	0.485512	-7.88515	1.08024	-5.00016	0.00533286	0.00686861	0.00123365	1.12134	-0.0263672	0.395996	-0.0693229	0.16434	0.206537	0.962044	3.41485	3.72521	8.44769	-0.00135344	0.00365493	-0.0032396	-0.69751	-0.199463	-0.844238	
27	0.264338	0.346327	0.0597372	-0.898117	-7.00441	0.796416	8.06196	-0.0104368	-0.00581549	-0.00211588	0.48291	0.11499	-1.03271	-0.122936	-0.20359	-0.0569837	0.969634	-4.09123	-0.572428	9.14207	0.00103478	-0.0242969	-0.0189283	0.236328	0.189453	-1.04761	-0.153257	-0.15032	0.220372	0.9515	-2.31037	4.97434	9.16636	-0.00328149	0.0136304	0.00825336	-0.194092	-0.46167	-1.05762	0.266543	-0.266436	0.321298	0.868755	-6.19366	4.10249	6.37566	-0.014265	-0.00117333	0.00181997	0.398926	-0.624023	-0.783691	-0.135877	-0.0989618	-0.326793	0.930027	-2.6374	-5.6432	7.45071	-0.0212964	0.00521081	-0.0114671	0.00976562	0.770508	-0.915283	-0.616538	0.0126739	-0.498675	0.609134	-6.63373	-6.82264	5.49251	0.00182567	0.0132367	-0.0117322	0.517578	0.948975	-0.133545	-0.260021	0.0924108	0.00909127	0.961128	1.89922	-0.341226	10.2968	0.0463922	0.0258784	-0.00464439	-0.498535	0.218994	-1.00439	-0.131247	0.0142278	0.170922	0.9764	0.720811	3.47762	10.4963	0.0048109	0.0173074	-0.0138855	-0.492432	-0.255127	-0.965088	-0.150584	0.0437459	0.0583754	0.985902	1.1068	1.07049	10.499	0.00191498	0.00764138	-0.0171403	-0.550781	-0.0905762	-1.01514	-0.0434591	-0.872733	0.028329	0.485434	-7.87776	1.07944	-4.99804	0.0112061	0.0158587	0.00190332	1.12134	-0.0285645	0.398193	-0.0692792	0.164268	0.206433	0.962082	3.40679	3.69846	8.43725	-0.00576183	0.0134677	-0.00585427	-0.69751	-0.20166	-0.8396	
28	0.264331	0.346245	0.0598298	-0.898145	-6.99954	0.788774	8.0403	-0.0076316	-0.00835213	-0.00502547	0.480713	0.112793	-1.03467	-0.122798	-0.203351	-0.057176	0.969691	-4.10264	-0.587873	9.15676	-0.0125458	-0.000745354	-0.0167696	0.236084	0.195801	-1.04785	-0.153313	-0.150434	0.220644	0.95141	-2.33083	4.89768	9.20631	0.0265939	0.0125807	0.0082166	-0.198242	-0.468018	-1.05518	0.266434	-0.266383	0.32085	0.86897	-6.22073	4.03465	6.39709	-0.0192975	-0.00197736	0.00232954	0.401367	-0.625977	-0.788086	-0.135916	-0.0989579	-0.326917	0.929978	-2.6596	-5.67255	7.43898	-0.0118718	0.00773602	-0.00981421	0.013916	0.774902	-0.908447	-0.616567	0.0126985	-0.498701	0.609082	-6.62992	-6.82099	5.50926	-0.00163692	0.0125046	-0.0122549	0.517334	0.953369	-0.127197	-0.260275	0.0925254	0.00920742	0.961047	1.84974	-0.365425	10.3547	0.0270455	-0.00674447	-0.00343817	-0.498291	0.2146	-0.998047	-0.131209	0.0142182	0.170949	0.976401	0.719313	3.45913	10.4892	0.00653966	0.0166928	-0.0178056	-0.490234	-0.257324	-0.962891	-0.150591	0.0437717	0.0583674	0.9859	1.09483	1.06935	10.4797	0.00433101	0.00677083	-0.0162218	-0.552979	-0.0952148	-1.01489	-0.0434334	-0.872772	0.0283662	0.485364	-7.86202	1.09309	-5.03661	0.00634969	0.0168992	0.00307108	1.12573	-0.0283203	0.398193	-0.0692287	0.164168	0.206317	0.962128	3.37368	3.70653	8.4358	-0.00961423	0.0168013	-0.00750711	-0.697266	-0.206055	-0.846436	
29	0.264262	0.346125	0.059974	-0.898202	-6.96571	0.811195	8.08732	-0.00540501	-0.005917	-0.0061176	0.478271	0.116943	-1.03052	-0.122876	-0.202738	-0.0570572	0.969816	-4.09254	-0.622675	9.10686	0.00258836	-0.0176068	-0.0176723	0.236328	0.19165	-1.04761	-0.153494	-0.150681	0.220784	0.951309	-2.36548	4.94845	9.14336	0.00111107	0.0137687	0.0074164	-0.196289	-0.459473	-1.05981	0.266385	-0.266323	0.320747	0.869041	-6.1969	4.02672	6.32626	-0.00714711	-0.000623498	0.00532943	0.39917	-0.626221	-0.788086	-0.135989	-0.0988622	-0.327024	0.92994	-2.67721	-5.67249	7.47134	-0.00369373	0.00414851	-0.0111296	0.013916	0.7771	-0.910645	-0.616617	0.0127933	-0.498707	0.609025	-6.64019	-6.83995	5.52049	-0.000422217	0.011148	-0.015773	0.521484	0.957764	-0.131592	-0.260443	0.0921096	0.00946857	0.961039	1.90757	-0.368413	10.3236	0.0461363	0.0399901	-0.00388124	-0.500244	0.210205	-1	-0.131212	0.0142077	0.171007	0.97639	0.710709	3.47879	10.5002	0.00650523	0.0173691	-0.0151845	-0.486084	-0.25293	-0.962891	-0.150604	0.0437655	0.0584393	0.985894	1.1107	1.0551	10.5011	0.0102074	0.0090255	-0.0144601	-0.546143	-0.0883789	-1.01294	-0.043385	-0.872796	0.0284209	0.485322	-7.88777	1.0713	-5.01052	0.00828907	0.014473	0.00326274	1.12134	-0.0285645	0.405029	-0.0691918	0.164141	0.206201	0.96216	3.34565	3.71391	8.45614	-0.00246629	0.00727044	-0.00303801	-0.692871	-0.203857	-0.841797	
30	0.26434	0.346155	0.0601167	-0.898158	-7.01043	0.776525	8.05962	-0.00466752	0.000498365	0.00131921	0.476074	0.116943	-1.03271	-0.122953	-0.202478	-0.056454	0.969896	-4.03736	-0.595743	9.21115	0.00532105	0.0146627	-0.0100118	0.233887	0.193848	-1.04297	-0.153356	-0.150746	0.221269	0.951209	-2.3301	4.98135	9.15842	0.0276564	0.00269368	-0.00415846	-0.200439	-0.46582	-1.06201	0.266318	-0.26624	0.320549	0.86916	-6.21929	4.04291	6.42123	-0.00962924	0.000538055	0.00316193	0.403076	-0.617188	-0.792725	-0.136109	-0.0988306	-0.327298	0.92983	-2.60471	-5.67646	7.46599	-0.0154858	0.0092273	-0.00956773	0.0141602	0.770508	-0.910645	-0.61657	0.0127685	-0.498589	0.60917	-6.65381	-6.88364	5.519	0.0139802	0.0118821	-0.0207256	0.523682	0.957764	-0.133789	-0.260639	0.0915227	0.00900689	0.961046	1.87176	-0.359748	10.3702	0.00219542	0.0199201	-0.0054274	-0.500488	0.2146	-0.993652	-0.131246	0.0142089	0.171049	0.976378	0.725518	3.47235	10.4908	0.00620232	0.0154524	-0.013445	-0.481445	-0.257324	-0.960449	-0.15063	0.0437457	0.0585289	0.985886	1.10515	1.06108	10.5011	0.00721286	0.00919555	-0.0164186	-0.552979	-0.0908203	-1.01294	-0.0432591	-0.872861	0.0285248	0.485209	-7.90097	1.07212	-5.04323	0.00567011	0.00467319	0.00343007	1.12109	-0.0241699	0.402832	-0.069236	0.164293	0.206291	0.962111	3.37682	3.72639	8.45381	0.00525477	0.00040334	-0.00108356	-0.69751	-0.197266	-0.844238	
31	0.264349	0.346176	0.0601596	-0.898144	-7.01075	0.798909	8.04249	-0.0010094	-0.00200492	-0.0017428	0.48291	0.11499	-1.03271	-0.122975	-0.202588	-0.05622	0.969884	-4.14696	-0.548449	9.13044	-0.00279355	0.0127562	-0.0166878	0.233887	0.193848	-1.04541	-0.153289	-0.150827	0.22154	0.951143	-2.34255	5.01665	9.18682	0.0271316	0.00813266	-0.000950914	-0.196289	-0.466064	-1.05737	0.266187	-0.266184	0.320291	0.869312	-6.22129	4.08115	6.3948	-0.0099486	0.00187578	0.00544325	0.39917	-0.625977	-0.79248	-0.136149	-0.0989292	-0.327292	0.929815	-2.65343	-5.68837	7.41322	0.0118992	0.0093633	-0.00937797	0.0183105	0.774902	-0.906006	-0.616514	0.0126392	-0.498398	0.609385	-6.63103	-6.8237	5.52463	0.0128493	0.0145144	-0.0181332	0.519531	0.953369	-0.133789	-0.260894	0.0915781	0.00953893	0.960967	1.81827	-0.32877	10.2754	0.0349536	0.0113863	-0.0062645	-0.500244	0.212402	-1.0022	-0.131252	0.014232	0.171116	0.976366	0.699854	3.47824	10.4749	0.00621665	0.016568	-0.0155276	-0.486328	-0.248535	-0.967529	-0.150639	0.0437434	0.0585574	0.985883	1.08982	1.08889	10.5128	0.00413879	0.00809776	-0.016892	-0.560059	-0.088623	-1.01294	-0.0433217	-0.872854	0.0285414	0.485216	-7.85936	1.09685	-5.00801	0.000574285	0.0110561	0.00627677	1.12354	-0.0285645	0.402832	-0.0691805	0.164367	0.206368	0.962086	3.41549	3.73746	8.46217	0.00117998	0.006273	-0.00795087	-0.699707	-0.20166	-0.8396	
32	0.264397	0.346111	0.0600959	-0.898159	-7.00872	0.799363	8.04421	0.00242282	-0.00984838	0.000998568	0.476074	0.119141	-1.03271	-0.123053	-0.202526	-0.0561044	0.969894	-4.09124	-0.591177	9.16636	-0.00566503	0.0131306	-0.0129522	0.227539	0.19165	-1.04297	-0.153383	-0.150962	0.22133	0.951156	-2.37515	4.91988	9.16689	-0.00489269	0.00506135	0.000472796	-0.198486	-0.466064	-1.05957	0.266101	-0.266199	0.320116	0.869399	-6.21343	4.05848	6.40085	-0.00779924	0.00433616	0.00152332	0.401123	-0.619629	-0.788086	-0.136197	-0.0989606	-0.327027	0.929898	-2.65056	-5.58987	7.46783	0.00297424	0.00720355	-0.010823	0.0163574	0.770508	-0.910645	-0.616536	0.0125824	-0.49838	0.609379	-6.63441	-6.79817	5.50765	0.00320774	0.0142686	-0.0133881	0.519531	0.955566	-0.138184	-0.261111	0.0911452	0.00967846	0.960947	1.87067	-0.363336	10.3877	0.0254271	0.0314294	-0.00715137	-0.498047	0.210205	-0.995605	-0.131246	0.0141827	0.17123	0.976347	0.705295	3.48113	10.506	0.00884818	0.0161389	-0.0142034	-0.488525	-0.248535	-0.962891	-0.150634	0.0438048	0.0585985	0.985879	1.10848	1.06766	10.4998	0.00925477	0.00620071	-0.0172283	-0.550537	-0.0930176	-1.01514	-0.0433403	-0.872898	0.0285973	0.485132	-7.85775	1.08586	-5.04335	0.000831702	0.0157762	0.00218081	1.12354	-0.0285645	0.405029	-0.0690524	0.164237	0.206258	0.962141	3.3726	3.74375	8.43131	-0.00574572	0.0146128	-0.00742603	-0.697266	-0.206055	-0.841797	
33	0.264325	0.346032	0.0600135	-0.898216	-6.98131	0.829056	8.07309	0.0046861	-0.00677685	-0.00446751	0.482666	0.117188	-1.03271	-0.123056	-0.202754	-0.0559838	0.969853	-4.05571	-0.548972	9.15797	-0.000491406	0.0287536	-0.0145039	0.229736	0.193604	-1.04761	-0.1533	-0.151029	0.221502	0.951119	-2.35028	5.00203	9.15275	0.00741029	0.005153	-0.0011865	-0.200439	-0.46582	-1.05737	0.266048	-0.266248	0.320004	0.869441	-6.20613	4.04504	6.37506	-0.00195629	0.00857963	0.00177707	0.398926	-0.621582	-0.79248	-0.136264	-0.0989443	-0.327266	0.929806	-2.64866	-5.62744	7.46602	-0.0216996	0.00754389	-0.00921229	0.0117188	0.772705	-0.910645	-0.616571	0.0125807	-0.49843	0.609302	-6.62946	-6.83062	5.51797	0.000395093	0.013331	-0.0124217	0.521729	0.955566	-0.133789	-0.261308	0.0903511	0.00969977	0.960969	1.86524	-0.328917	10.3417	0.0238446	0.0472562	-0.00762876	-0.49585	0.210449	-0.997803	-0.131259	0.0141611	0.171198	0.976351	0.722599	3.47886	10.4571	0.00221185	0.016629	-0.0130923	-0.490234	-0.257324	-0.967529	-0.150654	0.0438233	0.0586358	0.985873	1.11439	1.05867	10.4865	0.00741683	0.00775146	-0.0171081	-0.552979	-0.0908203	-1.01294	-0.0433617	-0.87293	0.0285964	0.485073	-7.89425	1.10717	-5.02634	0.00206314	0.0107808	0.00165807	1.12354	-0.0285645	0.398193	-0.0690517	0.16405	0.206184	0.962189	3.34712	3.72331	8.45043	-0.00138498	0.0160952	-0.00309462	-0.69751	-0.199463	-0.842041	
34	0.264257	0.34602	0.0600034	-0.898242	-6.97938	0.828705	8.0748	0.00378784	-0.00365921	-0.00538643	0.482666	0.117188	-1.03271	-0.12315	-0.203127	-0.0560876	0.969757	-4.10619	-0.582451	9.12368	-0.0152281	0.0256967	-0.0144411	0.233887	0.193848	-1.04541	-0.153306	-0.15099	0.22139	0.95115	-2.34222	4.9948	9.14799	-0.011967	0.00750474	0.00351127	-0.194092	-0.46167	-1.05762	0.265929	-0.266216	0.319894	0.869528	-6.18413	4.0307	6.3854	-0.00430673	0.00435537	0.00748395	0.405518	-0.621582	-0.790283	-0.136183	-0.0989058	-0.327481	0.929746	-2.64211	-5.65965	7.44179	0.00509607	0.00766674	-0.0128825	0.0141602	0.770508	-0.912842	-0.616552	0.0125965	-0.498493	0.60927	-6.63191	-6.84588	5.52589	0.00100457	0.0144292	-0.017034	0.523926	0.953369	-0.133789	-0.261442	0.0898654	0.00973117	0.960977	1.81696	-0.327188	10.3094	0.0272526	0.0300872	-0.010143	-0.504639	0.2146	-1.00439	-0.131279	0.0142273	0.171206	0.976346	0.714932	3.4723	10.4848	0.00636672	0.0142617	-0.0127635	-0.488281	-0.255127	-0.969727	-0.150682	0.0437851	0.0586755	0.985868	1.10736	1.07929	10.5194	0.00755674	0.0105376	-0.0159862	-0.54834	-0.0905762	-1.0127	-0.0434221	-0.872907	0.0285458	0.485111	-7.87587	1.09335	-5.03503	-0.00104038	0.00893566	0.00085071	1.12354	-0.0285645	0.400635	-0.0690488	0.164105	0.206155	0.962186	3.36483	3.71133	8.42581	-0.00192854	0.00503767	-0.00135146	-0.699707	-0.20166	-0.846436	
35	0.264239	0.346035	0.0600347	-0.898239	-6.97046	0.812442	8.05942	-0.000828766	-0.00180687	-0.0030842	0.480469	0.117188	-1.03491	-0.12316	-0.203171	-0.0561497	0.969742	-4.09324	-0.576193	9.14565	-0.0141206	0.0197959	-0.0185186	0.233887	0.193848	-1.04541	-0.153348	-0.150928	0.221271	0.95118	-2.35109	4.90219	9.16617	-0.00707847	0.00229396	0.00389137	-0.196289	-0.466064	-1.05957	0.265905	-0.266184	0.319954	0.869523	-6.19073	4.06297	6.37843	0.00626236	0.00547808	0.00504586	0.401123	-0.619385	-0.790283	-0.136182	-0.0989242	-0.327474	0.929747	-2.66029	-5.66104	7.44795	-0.000315578	0.00838075	-0.0119445	0.0183105	0.774902	-0.908447	-0.616535	0.0126063	-0.498522	0.609263	-6.62963	-6.83971	5.50139	0.000886675	0.0153395	-0.0164288	0.521729	0.953369	-0.135742	-0.261461	0.0892971	0.00929506	0.96103	1.85028	-0.35525	10.3236	-0.00772331	0.0496061	-0.0133891	-0.491699	0.212646	-1.00415	-0.131294	0.0142214	0.171198	0.976346	0.711805	3.49771	10.4852	0.00395918	0.016989	-0.0137943	-0.490234	-0.257324	-0.965088	-0.150705	0.0437573	0.0587028	0.985864	1.11593	1.07773	10.5045	0.00782725	0.0105438	-0.0154352	-0.55542	-0.0908203	-1.01294	-0.0434107	-0.87288	0.0285668	0.485159	-7.88136	1.09828	-4.99364	0.00428838	0.00613099	0.00229698	1.12134	-0.0285645	0.405029	-0.0690449	0.164181	0.206156	0.962173	3.38535	3.70774	8.42785	2.40808e-05	0.00239703	-0.00244512	-0.697266	-0.206055	-0.837158	
36	0.264223	0.346117	0.0600925	-0.898208	-7.01053	0.786704	8.05074	0.000419303	-0.000342252	-0.00275254	0.484619	0.121338	-1.02832	-0.123203	-0.203303	-0.0562245	0.969705	-4.0737	-0.57956	9.17485	-0.0148984	0.0269308	-0.0155746	0.233887	0.193848	-1.04541	-0.153254	-0.150872	0.221434	0.951167	-2.32432	4.96879	9.18986	0.0144909	0.000430071	-0.00113758	-0.194092	-0.46167	-1.05078	0.26594	-0.266168	0.320046	0.869483	-6.19619	4.08739	6.40829	0.00607065	0.00732188	-0.00108278	0.403564	-0.623779	-0.790283	-0.136234	-0.0989014	-0.32746	0.929747	-2.64501	-5.62907	7.46456	-0.00393813	0.0054973	-0.011825	0.0161133	0.774902	-0.910645	-0.616534	0.0126573	-0.498579	0.609217	-6.62401	-6.86089	5.52925	-0.0013454	0.0141319	-0.0147002	0.521729	0.953369	-0.135742	-0.261404	0.0888138	0.00874251	0.961095	1.77678	-0.319323	10.2801	-7.49249e-05	0.0307403	-0.0168746	-0.493896	0.2146	-1.00635	-0.131299	0.0142239	0.17113	0.976357	0.706046	3.48691	10.4844	0.00177609	0.0149382	-0.0152159	-0.490479	-0.25293	-0.962891	-0.150738	0.0437516	0.0586388	0.985863	1.11479	1.06926	10.499	0.00147723	0.00977611	-0.0156957	-0.550781	-0.0905762	-1.01514	-0.0433649	-0.872845	0.0285871	0.485225	-7.87238	1.08341	-5.0294	0.00492909	0.00867061	0.00126703	1.12134	-0.0285645	0.400635	-0.0690495	0.164275	0.20618	0.962152	3.41011	3.71804	8.44661	0.00194524	0.00680148	-0.00255503	-0.695068	-0.203857	-0.841797	
37	0.264163	0.346178	0.0600776	-0.898203	-7.00561	0.816804	8.05319	0.00387039	-0.00126705	-0.00123871	0.476318	0.114746	-1.02832	-0.123055	-0.203983	-0.056523	0.969564	-4.11579	-0.569034	9.15125	-0.0128685	0.0272417	-0.0179342	0.238525	0.189453	-1.05005	-0.153318	-0.150829	0.221453	0.951159	-2.35447	4.98794	9.17248	0.00121346	0.00533422	0.00582944	-0.196289	-0.466064	-1.06201	0.265992	-0.266188	0.320068	0.869453	-6.20353	4.05926	6.40722	0.00465289	0.00704702	-0.00302454	0.401123	-0.623779	-0.788086	-0.136223	-0.0988758	-0.327759	0.929645	-2.66696	-5.71254	7.44079	-0.00872502	0.00860213	-0.0147636	0.013916	0.774902	-0.901367	-0.6166	0.0126592	-0.498615	0.609119	-6.62634	-6.83482	5.51937	-0.000257703	0.0133699	-0.0101745	0.521729	0.955566	-0.135986	-0.261311	0.0888147	0.00845578	0.961123	1.79402	-0.348739	10.3339	-0.00661986	0.0195419	-0.0202707	-0.491699	0.2146	-1.00439	-0.1313	0.0142847	0.171064	0.976367	0.710666	3.4705	10.5052	0.00118809	0.0154165	-0.0148002	-0.48584	-0.257324	-0.967529	-0.150763	0.0438074	0.0584567	0.985867	1.11228	1.06445	10.5283	-0.00217818	0.00806888	-0.0158478	-0.550537	-0.0952148	-1.0105	-0.043465	-0.872874	0.0284936	0.48517	-7.86581	1.07427	-5.0146	-0.0012307	0.0146806	0.00119757	1.12573	-0.026123	0.400391	-0.0690755	0.164208	0.206206	0.962156	3.40203	3.6956	8.44477	0.00221682	0.0130043	-0.003534	-0.701904	-0.203857	-0.846436	
38	0.264171	0.346232	0.0599841	-0.898187	-7.00194	0.799684	8.05007	0.00402269	-0.00379883	0.000743905	0.476074	0.116943	-1.03052	-0.123115	-0.204138	-0.05652	0.969523	-4.10878	-0.589411	9.16649	-0.00894119	0.0203564	-0.0168532	0.238525	0.191406	-1.05225	-0.153387	-0.150743	0.221152	0.951231	-2.3648	4.95421	9.17203	-0.00972011	0.0037797	0.00239066	-0.194092	-0.470459	-1.05957	0.26609	-0.266215	0.320089	0.869407	-6.20447	4.04833	6.36114	0.00454463	0.00529977	-0.00390296	0.40332	-0.619385	-0.794678	-0.136169	-0.098879	-0.327487	0.929749	-2.65711	-5.6466	7.44628	0.0122296	0.00741428	-0.0153146	0.0205078	0.774902	-0.910645	-0.61663	0.0126644	-0.498695	0.609024	-6.63982	-6.81405	5.50169	-0.000880792	0.0147748	-0.0133223	0.523926	0.951172	-0.133545	-0.261095	0.0887018	0.00779496	0.961197	1.81762	-0.356366	10.3461	-0.0116196	0.0322979	-0.0224999	-0.487549	0.2146	-1.00439	-0.131289	0.014277	0.170984	0.976383	0.71967	3.47374	10.498	0.00369154	0.0173056	-0.0162151	-0.488037	-0.259521	-0.965088	-0.150755	0.043849	0.0583901	0.985871	1.10565	1.03759	10.4842	0.00488298	0.00674657	-0.0151121	-0.550781	-0.0883789	-1.01074	-0.0434949	-0.872894	0.0284271	0.485134	-7.89255	1.08122	-5.02076	0.0012543	0.0112715	-0.000425824	1.12817	-0.0283203	0.400635	-0.0690693	0.164147	0.206165	0.962175	3.38098	3.7228	8.44748	-0.00302203	0.0137455	-0.00401978	-0.699951	-0.197266	-0.8396	
39	0.264172	0.346319	0.0599249	-0.898156	-7.00777	0.821507	8.04496	0.0019765	0.000562343	0.00145428	0.480469	0.116943	-1.03052	-0.123104	-0.204243	-0.0564364	0.969508	-4.1201	-0.575813	9.13917	-0.00551652	0.0171255	-0.0165716	0.231934	0.193848	-1.04077	-0.153411	-0.150604	0.221013	0.951282	-2.34518	4.94714	9.1607	-0.00442971	0.00110622	0.00368671	-0.192139	-0.459473	-1.06445	0.266208	-0.266193	0.32026	0.869315	-6.19498	4.02816	6.37257	0.0122642	0.00711178	-0.00093139	0.398926	-0.621582	-0.79248	-0.136111	-0.0988179	-0.327633	0.929712	-2.64897	-5.68133	7.45783	-0.00932334	0.00655587	-0.0170601	0.00952148	0.7771	-0.903809	-0.616611	0.0126675	-0.498757	0.608993	-6.64398	-6.8312	5.50008	-0.000469227	0.0155067	-0.0163903	0.519287	0.95752	-0.142334	-0.260781	0.0885996	0.00717147	0.961297	1.76857	-0.37004	10.333	-0.00339921	0.0206721	-0.0255125	-0.489746	0.216797	-1.00439	-0.131273	0.0142911	0.170982	0.976385	0.723391	3.48305	10.5022	0.0035857	0.0156003	-0.0153119	-0.490234	-0.255127	-0.965088	-0.150769	0.0438584	0.0584354	0.985865	1.12093	1.07346	10.5045	0.00659782	0.0078835	-0.016022	-0.552979	-0.0952148	-1.0061	-0.0434752	-0.872882	0.0284006	0.485161	-7.88029	1.06884	-5.01754	0.00428334	0.00960894	0.000470376	1.12354	-0.0285645	0.402832	-0.0690947	0.164113	0.206155	0.962181	3.35756	3.69744	8.44693	0.00303538	0.00348856	-0.00072641	-0.701904	-0.20166	-0.848633	
40	0.264163	0.346387	0.0599248	-0.898133	-6.99802	0.841944	8.05444	0.0014922	-0.00116824	-0.00212725	0.478516	0.112793	-1.03052	-0.123149	-0.204209	-0.0563168	0.969516	-4.12377	-0.552757	9.13241	-0.00424786	0.0126044	-0.0164979	0.236084	0.195801	-1.04785	-0.15349	-0.15041	0.220887	0.951329	-2.34371	4.94597	9.16171	-0.00178887	-0.000379218	0.00518516	-0.202637	-0.463623	-1.06201	0.266305	-0.266146	0.320476	0.86922	-6.20052	4.05326	6.40198	0.0115899	0.00673508	-0.000365389	0.398926	-0.619629	-0.790283	-0.136043	-0.0987555	-0.32766	0.929719	-2.65371	-5.68271	7.43536	0.000933897	0.00612721	-0.0153933	0.0163574	0.770508	-0.912842	-0.616541	0.0127113	-0.49883	0.609002	-6.62853	-6.82794	5.52087	-0.00111061	0.0157031	-0.017872	0.519531	0.957764	-0.129639	-0.260461	0.0886824	0.00675044	0.961379	1.7942	-0.362087	10.363	-0.00284418	0.0123764	-0.0273138	-0.487549	0.2146	-1	-0.131288	0.0143359	0.170929	0.976392	0.709963	3.47743	10.4797	0.003388	0.0153896	-0.0144752	-0.488525	-0.248535	-0.965332	-0.150773	0.043851	0.0583771	0.985868	1.09481	1.07061	10.5156	0.00205946	0.0103639	-0.0160173	-0.548584	-0.0861816	-1.01074	-0.0434875	-0.872824	0.0283731	0.485264	-7.87968	1.08031	-4.99962	0.00150138	0.00555581	0.00097556	1.12573	-0.0239258	0.393555	-0.0691889	0.164364	0.206271	0.962107	3.38518	3.70061	8.43626	0.00411713	-0.00242163	0.00219813	-0.699951	-0.197266	-0.837402	
41	0.264194	0.346394	0.0600038	-0.898116	-6.98726	0.815674	8.03766	-0.00397061	-0.00144295	-0.000721588	0.480713	0.11499	-1.03052	-0.123175	-0.203822	-0.0562208	0.9696	-4.0928	-0.589064	9.17998	-0.0104442	-0.00613382	-0.0175448	0.238281	0.197998	-1.04541	-0.153518	-0.150265	0.220797	0.951368	-2.33368	4.95747	9.18731	-0.00489139	0.00263349	0.00440714	-0.198242	-0.466064	-1.05518	0.266405	-0.266097	0.32075	0.869103	-6.20235	4.07731	6.38744	0.0141946	0.00690252	-0.000413825	0.401367	-0.625977	-0.788086	-0.135992	-0.098677	-0.327582	0.929763	-2.66571	-5.66017	7.45727	-0.000400011	0.00437547	-0.0157397	0.0163574	0.770508	-0.903809	-0.616464	0.0128103	-0.498912	0.609011	-6.64151	-6.85248	5.51162	-0.00150387	0.0151281	-0.0185029	0.521729	0.955566	-0.135986	-0.260159	0.0889267	0.00642857	0.961441	1.8054	-0.367105	10.3639	0.00121926	0.00679861	-0.0253963	-0.494141	0.218994	-1.00659	-0.131149	0.0141705	0.170938	0.976411	0.710829	3.4822	10.4903	0.00335704	0.0136418	-0.0142869	-0.48584	-0.257324	-0.965088	-0.150814	0.0438577	0.0582887	0.985867	1.10267	1.07087	10.5144	0.0011634	0.00915837	-0.0148186	-0.545898	-0.0952148	-1.0127	-0.0434814	-0.872753	0.0283548	0.485395	-7.88261	1.0988	-5.03126	0.00150055	0.00555582	0.000975661	1.12378	-0.0307617	0.395996	-0.0692493	0.164643	0.206364	0.962035	3.40594	3.71162	8.43275	0.00440217	-0.00171438	0.00137955	-0.701904	-0.199463	-0.844238	
42	0.264158	0.346384	0.0600541	-0.898127	-7.01928	0.787029	8.04807	0.00139144	-0.00387711	-0.00408833	0.480469	0.116943	-1.02832	-0.123276	-0.20418	-0.0566101	0.969489	-4.08939	-0.544704	9.13229	-0.032164	0.0348865	-0.0176167	0.233887	0.193848	-1.04541	-0.153581	-0.150159	0.220901	0.951351	-2.3335	4.96054	9.20866	0.0175074	0.00172382	0.0048382	-0.196289	-0.46167	-1.05298	0.266492	-0.266089	0.320951	0.869004	-6.22458	4.0856	6.4115	0.0114426	0.00719354	-0.000774488	0.396973	-0.628418	-0.783691	-0.135928	-0.0986338	-0.327664	0.929748	-2.65585	-5.64933	7.44997	-0.0040509	0.00888133	-0.0166328	0.013916	0.772705	-0.908447	-0.616473	0.0128423	-0.498944	0.608976	-6.65346	-6.87412	5.51232	0.00282407	0.0137031	-0.0139529	0.521729	0.955566	-0.135986	-0.259845	0.0893497	0.00610062	0.961488	1.77972	-0.372283	10.4169	-0.0146759	-0.0155805	-0.0263167	-0.489746	0.218994	-0.998047	-0.131125	0.0141911	0.170868	0.976427	0.705307	3.47135	10.5063	0.00121895	0.015422	-0.0147777	-0.486328	-0.248535	-0.967529	-0.150815	0.0438723	0.0581925	0.985872	1.10207	1.06088	10.5091	0.000590731	0.00845817	-0.0158582	-0.548584	-0.0883789	-1.0105	-0.0435023	-0.87274	0.0283141	0.485419	-7.85963	1.09388	-5.03064	-0.00175434	0.0129482	-0.000448386	1.12109	-0.0219727	0.398193	-0.0693244	0.164786	0.206466	0.961983	3.42634	3.71842	8.46178	0.00443334	0.00597612	-0.00258246	-0.699707	-0.20166	-0.848633	
43	0.26412	0.346425	0.060093	-0.89812	-6.95536	0.804218	8.05849	-0.00146838	-0.00060616	-0.00110743	0.480713	0.11499	-1.03271	-0.123274	-0.204108	-0.0566098	0.969504	-4.12293	-0.586003	9.11303	0.00267057	0.00953247	-0.0204006	0.238281	0.193848	-1.04541	-0.153638	-0.150022	0.220253	0.951513	-2.36389	4.96619	9.18279	-0.0386657	0.00182953	0.000936201	-0.196289	-0.463867	-1.05981	0.26663	-0.266118	0.321157	0.868878	-6.23124	4.07811	6.37635	0.0149586	0.010813	-0.0027319	0.403564	-0.623779	-0.790283	-0.135847	-0.0986386	-0.327387	0.929857	-2.63183	-5.69685	7.44679	0.0191039	0.00584085	-0.0139823	0.013916	0.7771	-0.910645	-0.616524	0.0128738	-0.499026	0.608856	-6.63511	-6.83713	5.51673	-0.0049341	0.0141279	-0.0108865	0.521484	0.957764	-0.133789	-0.259468	0.0892002	0.00609191	0.961604	1.7986	-0.396552	10.3432	0.00794682	0.0128769	-0.0230928	-0.491699	0.212646	-1.0022	-0.131162	0.0142274	0.170784	0.976436	0.719309	3.46281	10.4812	0.00196123	0.0158375	-0.013403	-0.488281	-0.25293	-0.960449	-0.150836	0.0438679	0.0581575	0.985871	1.11424	1.05752	10.4869	0.00335682	0.0088728	-0.0158664	-0.550537	-0.0952148	-1.0105	-0.0435061	-0.872774	0.0282364	0.485362	-7.88717	1.07199	-5.01612	0.0015631	0.0125405	-0.000938395	1.12354	-0.0285645	0.398193	-0.0694102	0.164656	0.206458	0.962001	3.40335	3.74655	8.46483	-0.00139241	0.0161927	-0.00243767	-0.699951	-0.195068	-0.839844	
44	0.264182	0.346511	0.0601262	-0.898066	-6.9972	0.79293	8.08338	-0.00230122	0.00458129	0.00430782	0.48291	0.11499	-1.02832	-0.12324	-0.204182	-0.0564918	0.9695	-4.07579	-0.563095	9.21497	0.000899221	0.0202638	-0.0191696	0.236084	0.193848	-1.04541	-0.153583	-0.149891	0.219891	0.951627	-2.32435	4.89608	9.2155	-0.0271516	-0.00256641	-0.00594788	-0.200684	-0.459473	-1.05762	0.266692	-0.266171	0.321189	0.86883	-6.19599	4.08228	6.41195	0.00565049	0.00959952	-0.00496265	0.406006	-0.630371	-0.785889	-0.135844	-0.0986156	-0.327183	0.929932	-2.61231	-5.65804	7.47925	0.0165961	0.00300844	-0.0130701	0.0141602	0.768311	-0.910645	-0.616519	0.0128684	-0.499087	0.608811	-6.62899	-6.85915	5.50623	-0.00170258	0.0168584	-0.0128459	0.519531	0.955566	-0.129395	-0.259254	0.0891148	0.00543732	0.961674	1.86045	-0.39259	10.4319	-0.0343188	0.0339413	-0.0273145	-0.485596	0.218994	-1.00024	-0.131177	0.0142379	0.170764	0.976437	0.721034	3.45899	10.4861	0.00285902	0.0161687	-0.0134544	-0.490479	-0.250732	-0.962891	-0.150842	0.0438707	0.0581474	0.985871	1.12691	1.05957	10.499	0.00417439	0.00881237	-0.0155774	-0.550537	-0.0952148	-1.01489	-0.0434541	-0.872779	0.0282139	0.485359	-7.90456	1.08528	-5.02307	0.00545985	0.0111649	-0.00237318	1.12109	-0.0241699	0.407227	-0.0694216	0.164572	0.206353	0.962037	3.38904	3.71941	8.43351	-0.0077259	0.0162998	-0.00345355	-0.699463	-0.206055	-0.843994	
45	0.264118	0.346643	0.0600581	-0.898038	-7.00383	0.824014	8.02551	0.00667739	0.00070403	-0.00424217	0.48291	0.112793	-1.03247	-0.12326	-0.204777	-0.0565645	0.969368	-4.13853	-0.591444	9.13132	-0.00981069	0.0389324	-0.0173439	0.238281	0.196045	-1.04321	-0.153494	-0.149866	0.219917	0.951639	-2.2976	4.95969	9.2107	0.00737917	0.00639108	0.00168891	-0.198486	-0.455078	-1.06006	0.26676	-0.266167	0.321201	0.868806	-6.19667	4.08165	6.38752	0.00427298	0.00484184	0.000999642	0.403564	-0.623779	-0.790283	-0.135798	-0.0986787	-0.327384	0.929861	-2.67973	-5.6724	7.45826	-0.0158807	0.0118865	-0.0135207	0.013916	0.772705	-0.910645	-0.616517	0.0128145	-0.49906	0.608836	-6.6432	-6.85756	5.49589	0.00792025	0.0147296	-0.014207	0.517334	0.955566	-0.133789	-0.258945	0.0903069	0.00518367	0.961647	1.76995	-0.407867	10.3421	0.00615904	-0.0511621	-0.0247752	-0.496338	0.221191	-1.00024	-0.131173	0.0143215	0.170691	0.976449	0.724925	3.45917	10.485	0.00173825	0.0143569	-0.0163612	-0.492432	-0.255127	-0.960449	-0.150838	0.0438775	0.058111	0.985873	1.10955	1.06633	10.5144	0.00363721	0.00878614	-0.0166782	-0.553223	-0.0883789	-1.01514	-0.0434043	-0.872774	0.028137	0.485377	-7.89308	1.08087	-5.03007	0.000791945	0.00956818	-0.000321332	1.12573	-0.026123	0.407227	-0.0694555	0.16459	0.206389	0.962024	3.38663	3.70063	8.42087	0.00360721	0.00490257	-0.0023639	-0.697266	-0.203857	-0.846436	
46	0.264119	0.346726	0.0600365	-0.898008	-7.02541	0.825972	8.05488	0.000203327	-0.00117668	0.0029633	0.478271	0.116943	-1.03271	-0.123364	-0.205077	-0.0566712	0.969285	-4.15923	-0.594592	9.13884	-0.0124005	0.0301126	-0.0157125	0.236084	0.195801	-1.04541	-0.153611	-0.149761	0.21931	0.951776	-2.37735	4.93479	9.20443	-0.0321186	0.0036607	0.00264114	-0.196289	-0.457275	-1.05542	0.266773	-0.266155	0.321308	0.868767	-6.2365	4.05186	6.38688	0.00859457	0.00747419	0.0015324	0.396729	-0.621826	-0.788086	-0.135708	-0.0987108	-0.327019	0.929999	-2.65669	-5.68188	7.43114	0.0245845	0.00417619	-0.0153774	0.013916	0.774902	-0.910645	-0.616246	0.0126969	-0.499128	0.609058	-6.6307	-6.81636	5.48085	0.000205573	0.0165124	-0.01651	0.523926	0.953369	-0.133789	-0.25876	0.0911802	0.00503205	0.961615	1.83136	-0.412398	10.3944	-0.000224233	-0.00632211	-0.0211712	-0.494141	0.221191	-1.00024	-0.131138	0.0142894	0.170738	0.976446	0.708348	3.45819	10.5078	0.00780355	0.0164627	-0.0158963	-0.488281	-0.250732	-0.960449	-0.15086	0.0439308	0.0580235	0.985873	1.08914	1.05079	10.5197	0.00165601	0.00762802	-0.0163199	-0.555664	-0.0861816	-1.00391	-0.0435537	-0.872761	0.0280358	0.485393	-7.87857	1.07988	-5.02726	0.000529759	0.00832837	0.00194289	1.12378	-0.0307617	0.400635	-0.0694705	0.164756	0.206507	0.961969	3.38824	3.73187	8.44237	0.00527757	0.000206681	-0.00242336	-0.699707	-0.20166	-0.844238	
47	0.264182	0.346707	0.0600541	-0.897995	-7.01958	0.797729	8.05076	-0.000405507	-0.00384216	0.000656323	0.480469	0.119141	-1.02612	-0.123321	-0.205411	-0.056853	0.969209	-4.15564	-0.597654	9.17839	-0.0144459	0.0298757	-0.0232639	0.240479	0.195801	-1.04785	-0.153524	-0.149616	0.219107	0.95186	-2.33864	4.92336	9.1959	0.00488784	-0.00162826	-0.00509977	-0.207031	-0.461426	-1.06201	0.266858	-0.266206	0.321532	0.868642	-6.22725	4.05265	6.38736	0.0121495	0.01199	-0.00307421	0.406006	-0.628174	-0.788086	-0.135633	-0.098745	-0.326899	0.930049	-2.645	-5.65163	7.49836	-0.00544356	0.00979961	-0.011971	0.013916	0.774902	-0.910645	-0.616252	0.0127097	-0.499262	0.608941	-6.67927	-6.85245	5.48879	-0.0014538	0.0160821	-0.0119812	0.521729	0.955566	-0.135986	-0.258565	0.0914759	0.00494523	0.96164	1.84572	-0.418559	10.3712	0.0111535	0.00759576	-0.0221281	-0.496338	0.218994	-0.998047	-0.131136	0.0142915	0.170705	0.976452	0.72266	3.45983	10.4879	7.99037e-06	0.0160794	-0.0145343	-0.486084	-0.250732	-0.965332	-0.150858	0.043966	0.0579961	0.985873	1.10209	1.04769	10.4974	0.00277555	0.00825258	-0.0155407	-0.551025	-0.0861816	-1.01514	-0.0435993	-0.872745	0.0280069	0.485418	-7.87901	1.08024	-5.04029	0.000595037	0.00873163	0.000606336	1.12793	-0.026123	0.402832	-0.0694726	0.164723	0.206519	0.961972	3.4085	3.71391	8.43954	-0.000797289	0.0120099	-0.00459239	-0.699707	-0.20166	-0.844238	
48	0.264249	0.346612	0.05996	-0.898018	-6.99932	0.788962	8.03859	0.00199026	-0.00671918	0.0026489	0.476074	0.116943	-1.03052	-0.12327	-0.205937	-0.0569153	0.9691	-4.16078	-0.555648	9.13594	-0.0108933	0.0341141	-0.0188929	0.242432	0.197998	-1.04565	-0.153446	-0.149468	0.218899	0.951944	-2.29193	4.97739	9.21871	-0.00567857	-0.000559886	-0.00322199	-0.196289	-0.459473	-1.05762	0.266912	-0.26627	0.321685	0.868549	-6.18789	4.07667	6.39811	0.00403116	0.00971885	0.00152063	0.403564	-0.623779	-0.794678	-0.135652	-0.0987022	-0.326985	0.93002	-2.63234	-5.67377	7.46635	0.0011647	0.00583076	-0.0142835	0.0141602	0.770508	-0.908447	-0.616253	0.0127104	-0.499337	0.608879	-6.63744	-6.79402	5.4942	-0.000660417	0.0151344	-0.0147933	0.521729	0.955566	-0.133789	-0.258385	0.0915647	0.00470669	0.961681	1.82353	-0.435064	10.313	0.0030076	0.00359015	-0.0199506	-0.494385	0.225586	-1.00244	-0.131149	0.0143643	0.170685	0.976453	0.727348	3.46821	10.4925	0.00494744	0.0123546	-0.0133442	-0.490479	-0.250732	-0.960449	-0.150887	0.0439233	0.0579599	0.985872	1.10965	1.04901	10.4963	0.00349105	0.0115534	-0.0161081	-0.550781	-0.0883789	-1.0061	-0.0437262	-0.872739	0.0279671	0.485421	-7.88965	1.0578	-4.99917	-0.00318238	0.0105404	0.00245048	1.12354	-0.0263672	0.398193	-0.0694732	0.164621	0.206536	0.961986	3.36782	3.71073	8.42134	0.000574509	0.0121021	-0.00400045	-0.699707	-0.199463	-0.8396	
49	0.264156	0.346649	0.059847	-0.898039	-6.96646	0.827572	8.05946	0.00472843	-0.00332448	-0.00243974	0.476318	0.114746	-1.02832	-0.123304	-0.205851	-0.057018	0.969108	-4.14507	-0.563948	9.16368	-0.0105598	0.00628015	-0.0223689	0.242676	0.193848	-1.04077	-0.153628	-0.149298	0.218186	0.952105	-2.33848	4.83765	9.2041	-0.0250976	0.00312971	0.00347337	-0.202881	-0.448486	-1.06006	0.266871	-0.26624	0.321869	0.868502	-6.21459	4.08514	6.38273	0.00834657	0.00792485	0.00379062	0.401367	-0.626221	-0.785889	-0.135607	-0.0987074	-0.32682	0.930084	-2.6599	-5.66704	7.44505	0.0138256	0.00659415	-0.0155767	0.0161133	0.774902	-0.906006	-0.616228	0.0127835	-0.49944	0.608818	-6.62199	-6.83699	5.4834	-0.00351173	0.0153188	-0.0162284	0.521729	0.953369	-0.133789	-0.258287	0.0919959	0.00487583	0.961666	1.88641	-0.426996	10.386	0.0118393	0.00131175	-0.0183974	-0.498535	0.221191	-1.00024	-0.131167	0.0143559	0.17065	0.976457	0.727674	3.46216	10.4685	0.0034625	0.0186073	-0.0153908	-0.488281	-0.250732	-0.967529	-0.15092	0.0439004	0.0580234	0.985865	1.10795	1.06783	10.5217	0.0066607	0.00929752	-0.0147659	-0.550781	-0.0883789	-1.01733	-0.0438632	-0.872702	0.0279411	0.485476	-7.91303	1.08551	-5.00495	-0.000954284	0.00899451	0.00434903	1.12134	-0.0263672	0.398193	-0.0694522	0.164749	0.206587	0.961954	3.3979	3.72369	8.41948	0.000868315	0.00202027	-0.00313232	-0.69751	-0.197266	-0.844238	
50	0.26409	0.346721	0.0597944	-0.898034	-6.99985	0.824902	8.0515	0.00183557	-0.00109086	-0.00262569	0.485107	0.11499	-1.03271	-0.123343	-0.205969	-0.0571472	0.969071	-4.12569	-0.633375	9.14973	-0.0132284	0.0263108	-0.0177029	0.242676	0.19165	-1.04297	-0.153561	-0.149203	0.218343	0.952094	-2.29111	4.89326	9.22628	0.0135636	0.00320634	0.00202505	-0.198486	-0.457275	-1.05298	0.266939	-0.266195	0.32204	0.868432	-6.19255	4.11332	6.37114	0.0106998	0.00638245	-0.000631993	0.401123	-0.621826	-0.785889	-0.135467	-0.0986522	-0.326764	0.93013	-2.62825	-5.6203	7.4794	-0.0191252	0.00561297	-0.0136656	0.00756836	0.770508	-0.906006	-0.616209	0.0128532	-0.49951	0.608778	-6.6285	-6.86615	5.49377	0.000714901	0.0139247	-0.0168299	0.521729	0.953369	-0.133789	-0.258149	0.0920982	0.00444601	0.961695	1.85286	-0.431102	10.4108	0.00490293	0.00661147	-0.0189862	-0.496582	0.225586	-1.00024	-0.131166	0.0143483	0.170681	0.976452	0.720364	3.47239	10.5076	0.00519247	0.0157741	-0.0151217	-0.492432	-0.255127	-0.965088	-0.150731	0.0437607	0.0581314	0.985894	1.10926	1.06372	10.4835	0.00734621	0.00875459	-0.0167656	-0.545898	-0.0930176	-1.0105	-0.0438717	-0.872641	0.0279752	0.485582	-7.86987	1.08649	-5.01005	0.00173935	0.00642139	0.00180465	1.12573	-0.026123	0.398193	-0.0694867	0.164939	0.206672	0.961901	3.42875	3.70018	8.41751	0.00441931	0.000784172	-0.000386627	-0.704102	-0.20166	-0.846436	
51	0.264147	0.346773	0.059838	-0.897994	-7.01053	0.814298	8.04425	-0.00286269	-0.00123187	0.00307238	0.482666	0.117188	-1.03271	-0.123361	-0.206216	-0.0572357	0.96901	-4.1734	-0.58104	9.14107	-0.0110826	0.0254603	-0.0180035	0.240479	0.196045	-1.04321	-0.153522	-0.149258	0.218523	0.952051	-2.33333	4.9351	9.23587	0.00604629	0.00790138	0.00153276	-0.202881	-0.455078	-1.06006	0.267004	-0.266181	0.322136	0.868381	-6.22924	4.09366	6.40067	0.00701395	0.00633242	-0.00126783	0.410156	-0.625977	-0.785889	-0.135422	-0.098645	-0.32699	0.930058	-2.65662	-5.70288	7.43423	0.000160429	0.0081457	-0.0158895	0.0161133	0.774902	-0.912842	-0.616255	0.0128523	-0.499526	0.608719	-6.65201	-6.83878	5.48765	0.00178002	0.0131688	-0.0123152	0.519531	0.953369	-0.129395	-0.258084	0.0923653	0.00437846	0.961687	1.82617	-0.44013	10.3309	0.00923489	0.00253624	-0.0169508	-0.496582	0.223389	-0.996094	-0.131175	0.0143779	0.170652	0.976455	0.716954	3.4704	10.5123	0.00138939	0.0171369	-0.015636	-0.486084	-0.250732	-0.967529	-0.150754	0.0437633	0.0580545	0.985894	1.07451	1.06684	10.5193	0.00223041	0.00830035	-0.0152782	-0.548584	-0.0883789	-1.01514	-0.0438922	-0.872673	0.0279777	0.485523	-7.89079	1.09129	-5.02776	0.00254836	0.0160038	0.00236358	1.12354	-0.0285645	0.400635	-0.0694896	0.164964	0.206732	0.961883	3.42346	3.72069	8.43248	0.00277582	0.00922277	-0.00299365	-0.704102	-0.20166	-0.841797	
52	0.264195	0.34679	0.0598474	-0.897973	-7.0197	0.794559	8.03522	-0.00110025	-0.00190271	0.00270116	0.478271	0.116943	-1.03271	-0.123387	-0.206246	-0.05727	0.968999	-4.17955	-0.586993	9.12494	-0.0122704	0.0183943	-0.0170267	0.244873	0.195801	-1.04785	-0.153558	-0.14927	0.218421	0.952067	-2.33401	4.9152	9.20647	-0.00450545	0.0082747	0.00239899	-0.198486	-0.455078	-1.06226	0.267073	-0.266303	0.322159	0.868314	-6.22515	4.08212	6.37985	0.00188627	0.0071075	-0.00361636	0.403564	-0.624023	-0.781494	-0.135377	-0.0986465	-0.326775	0.93014	-2.63456	-5.67097	7.47299	0.0179472	0.00552738	-0.015592	0.0119629	0.770508	-0.912842	-0.616326	0.0128679	-0.499571	0.608609	-6.66125	-6.83365	5.50345	-0.00122214	0.013053	-0.0114998	0.519531	0.953369	-0.133789	-0.258004	0.09263	0.00430909	0.961683	1.84211	-0.435391	10.355	0.0103563	0.00567515	-0.0166454	-0.496582	0.223389	-1.00024	-0.131144	0.014393	0.170676	0.976455	0.718058	3.47243	10.494	0.00794031	0.0149867	-0.0157888	-0.490234	-0.255127	-0.967529	-0.150777	0.0437723	0.0580332	0.985892	1.09233	1.05723	10.5258	0.00359664	0.00817465	-0.0152489	-0.555176	-0.0930176	-1.0127	-0.0438738	-0.872692	0.0279784	0.48549	-7.87697	1.08891	-5.02417	0.00444004	0.013547	0.000816532	1.1189	-0.0241699	0.398193	-0.0694881	0.164907	0.206734	0.961893	3.41846	3.73725	8.43858	0.000573105	0.0134495	-0.00421747	-0.701904	-0.20166	-0.841797	
53	0.264247	0.346779	0.0598128	-0.897964	-7.01662	0.785744	8.03479	0.00197277	-0.00393844	0.00154445	0.484863	0.119385	-1.03491	-0.123423	-0.206325	-0.0573329	0.968974	-4.1603	-0.561238	9.12829	-0.0115976	0.0212615	-0.017664	0.238281	0.197998	-1.04785	-0.153559	-0.149311	0.21842	0.95206	-2.32746	4.92886	9.19989	0.00607857	0.00537397	0.00105925	-0.19873	-0.452881	-1.06226	0.267111	-0.266314	0.322181	0.86829	-6.22307	4.06077	6.3594	0.00425507	0.00662487	-0.00163333	0.398926	-0.624023	-0.779297	-0.135328	-0.0986096	-0.32674	0.930163	-2.65926	-5.62572	7.46519	-0.00845932	0.00593354	-0.0154231	0.013916	0.772705	-0.912842	-0.616357	0.0128814	-0.499583	0.608568	-6.66174	-6.81618	5.48744	-0.00024529	0.0123164	-0.0121408	0.521729	0.955566	-0.129395	-0.257978	0.0927688	0.00424354	0.961677	1.8675	-0.441953	10.3633	0.00804066	0.00388504	-0.0161778	-0.50293	0.225586	-0.998291	-0.131141	0.0143754	0.170694	0.976452	0.718383	3.4621	10.4928	0.00601068	0.0176076	-0.0152225	-0.488281	-0.250732	-0.967529	-0.150765	0.0438332	0.0580309	0.985891	1.09972	1.05654	10.511	0.00464414	0.0065909	-0.0170105	-0.555664	-0.0861816	-1.00854	-0.0438503	-0.872743	0.0279091	0.485406	-7.89663	1.08312	-5.03305	0.00460093	0.0143682	-0.000981115	1.1189	-0.0241699	0.400391	-0.0695462	0.164783	0.206657	0.961927	3.35743	3.72908	8.44188	-0.00360189	0.0137741	-0.00195024	-0.702148	-0.197266	-0.846436	
54	0.264254	0.346836	0.0597239	-0.897946	-7.01295	0.813692	8.05894	0.00601621	-0.0029143	8.53678e-06	0.480713	0.11499	-1.03271	-0.123439	-0.206503	-0.0573764	0.968931	-4.15804	-0.590533	9.12419	-0.00945295	0.0225708	-0.0174438	0.242432	0.200439	-1.04102	-0.153528	-0.14925	0.218321	0.952098	-2.32903	4.92073	9.19537	-0.00397855	0.00284096	-0.000816013	-0.200684	-0.459473	-1.06201	0.267126	-0.266273	0.322239	0.868276	-6.21931	4.06071	6.34425	0.00660794	0.00414257	0.00276796	0.403564	-0.628174	-0.788086	-0.135339	-0.0985681	-0.326944	0.930094	-2.63043	-5.69729	7.46815	-0.00622592	0.00741331	-0.0125703	0.0161133	0.772705	-0.906006	-0.616338	0.0129167	-0.499641	0.608539	-6.65266	-6.83883	5.48478	0.00217402	0.0150419	-0.0177352	0.525635	0.961914	-0.131836	-0.25797	0.0928933	0.00419252	0.961668	1.86522	-0.446855	10.3462	0.0142713	0.0135031	-0.0151727	-0.50293	0.223389	-0.993896	-0.131179	0.0143812	0.17061	0.976462	0.699632	3.46844	10.4882	0.00206826	0.0140563	-0.0138886	-0.486084	-0.25293	-0.965088	-0.150788	0.043844	0.0580788	0.985884	1.09705	1.05418	10.4766	0.00712807	0.00709609	-0.0162003	-0.550537	-0.0976562	-1.0061	-0.0438153	-0.872709	0.0278989	0.48547	-7.88722	1.07044	-5.0392	0.00480441	0.0051467	0.000501258	1.12378	-0.0327148	0.402832	-0.0695902	0.164881	0.206694	0.961899	3.37553	3.72315	8.43561	0.00276164	0.00133345	-0.000372143	-0.704346	-0.199463	-0.844238	
55	0.264222	0.346845	0.0596156	-0.897959	-7.00696	0.842101	8.02996	0.00397167	-0.00514875	-0.000236677	0.485107	0.11499	-1.03271	-0.12346	-0.206469	-0.057443	0.968932	-4.17082	-0.588106	9.12663	-0.0151116	0.0113265	-0.020427	0.242676	0.196045	-1.04541	-0.153501	-0.149176	0.21836	0.952104	-2.33964	4.90475	9.2094	0.0127123	0.00149832	0.000825177	-0.196533	-0.455078	-1.06006	0.267117	-0.266201	0.322407	0.868239	-6.21333	4.07392	6.3807	0.0109172	0.00545329	0.00285736	0.405518	-0.619385	-0.785889	-0.135327	-0.0985951	-0.326832	0.930133	-2.63391	-5.64976	7.46501	0.00553942	0.00781208	-0.0135107	0.013916	0.772705	-0.903809	-0.616286	0.0129137	-0.499621	0.608608	-6.64312	-6.84185	5.46988	0.00523835	0.0152296	-0.01781	0.523926	0.951172	-0.133545	-0.257963	0.0929422	0.00416459	0.961665	1.84311	-0.458905	10.3613	0.0149478	0.00719979	-0.0165624	-0.494629	0.227783	-1.00049	-0.131215	0.0144565	0.170623	0.976453	0.719786	3.48463	10.4969	0.00493716	0.0141589	-0.0127831	-0.488281	-0.250732	-0.958252	-0.150792	0.0437963	0.0581093	0.985884	1.10377	1.06597	10.5234	0.00617168	0.00982939	-0.0172877	-0.548584	-0.0861816	-1.01514	-0.0438012	-0.872715	0.0279487	0.485458	-7.90006	1.07493	-5.02148	0.0028167	0.00563375	0.00188275	1.11694	-0.0263672	0.400391	-0.0696235	0.165064	0.20679	0.961844	3.41811	3.71518	8.42928	0.00278365	0.0011319	-0.00172425	-0.699707	-0.199463	-0.844238	
56	0.264232	0.34686	0.0596202	-0.89795	-7.01293	0.835223	8.0648	-0.000503154	-0.00204851	-0.00139322	0.48291	0.112793	-1.03247	-0.123493	-0.206426	-0.0574488	0.968936	-4.16999	-0.612322	9.13936	-0.00966782	0.0278741	-0.0177833	0.242676	0.19165	-1.04541	-0.153528	-0.149111	0.218209	0.952145	-2.32984	4.86953	9.19466	-0.00712339	0.00579086	0.00366405	-0.200684	-0.457275	-1.06226	0.267139	-0.266172	0.322507	0.868204	-6.21575	4.11721	6.37975	0.00515102	0.00606961	0.00128549	0.406006	-0.628174	-0.788086	-0.135338	-0.0985815	-0.32668	0.930186	-2.62983	-5.6543	7.47362	0.00406581	0.00468869	-0.0125975	0.0141602	0.770508	-0.912842	-0.616267	0.012956	-0.499621	0.608626	-6.64406	-6.85752	5.47913	0.00200934	0.0124867	-0.0158648	0.521729	0.953369	-0.140137	-0.257968	0.0930329	0.00431941	0.961654	1.86857	-0.425087	10.38	0.0257094	0.016362	-0.0158741	-0.496582	0.227783	-1.00049	-0.131253	0.0144653	0.17056	0.976459	0.709175	3.48654	10.497	0.00189238	0.0170482	-0.0140098	-0.488281	-0.25293	-0.969971	-0.150834	0.0438113	0.0580451	0.98588	1.09477	1.06427	10.4966	0.00138459	0.00765752	-0.0155064	-0.543701	-0.0927734	-1.0127	-0.0437887	-0.872688	0.0279525	0.485506	-7.88058	1.09386	-4.98469	0.00229518	0.00855716	0.00211755	1.12573	-0.0239258	0.398193	-0.0696484	0.16519	0.206835	0.961811	3.43009	3.72096	8.43861	0.0038864	0.00436213	-0.0022974	-0.704346	-0.199463	-0.842041	
57	0.264192	0.346803	0.0596607	-0.897981	-7.0008	0.822187	8.02933	-4.04241e-05	-0.00553773	-0.00307379	0.480469	0.119141	-1.02832	-0.123546	-0.206639	-0.0578628	0.968859	-4.17988	-0.616527	9.10338	-0.0238361	0.0163314	-0.019781	0.240479	0.198242	-1.04077	-0.153493	-0.149256	0.21857	0.952045	-2.31389	4.93518	9.22214	0.0174865	0.00634434	0.000898707	-0.202637	-0.46167	-1.05298	0.26719	-0.266203	0.32249	0.868186	-6.21838	4.08788	6.36533	-0.000201172	0.0057709	-0.0021352	0.407959	-0.625977	-0.785889	-0.135291	-0.0985911	-0.326743	0.930169	-2.63411	-5.66772	7.45435	-0.00465069	0.00719271	-0.0156778	0.0163574	0.770508	-0.908447	-0.616325	0.0129729	-0.499634	0.608557	-6.64041	-6.83843	5.48071	-0.00201191	0.0129434	-0.0107145	0.523926	0.953369	-0.131592	-0.257966	0.0935161	0.00412741	0.961609	1.84566	-0.460108	10.3003	0.0151641	-0.00402701	-0.013415	-0.498535	0.223389	-0.996094	-0.131227	0.0144913	0.170595	0.976456	0.716819	3.46845	10.4888	0.00503534	0.0134847	-0.0153774	-0.488281	-0.250732	-0.967529	-0.150827	0.0438228	0.0579935	0.985884	1.10049	1.03612	10.5009	0.00416377	0.00798895	-0.0168695	-0.555664	-0.0861816	-1.01514	-0.0438157	-0.872726	0.0279248	0.485437	-7.88969	1.06564	-5.00607	0.00489213	0.0152638	0.0015951	1.12573	-0.0239258	0.398193	-0.0696606	0.165145	0.206848	0.961815	3.41118	3.72497	8.40775	-0.00165616	0.0125829	-0.00257627	-0.702393	-0.192871	-0.844238	
58	0.264307	0.346845	0.0597616	-0.897925	-6.98797	0.808322	8.05547	-0.00433578	0.00025361	0.00301549	0.484863	0.119385	-1.03271	-0.123508	-0.206512	-0.0575529	0.96891	-4.11462	-0.572916	9.18009	0.00315078	0.0122858	-0.0174147	0.242432	0.198242	-1.04077	-0.153474	-0.149155	0.218193	0.952151	-2.3441	4.83898	9.22157	-0.0021816	0.00209014	-0.00445706	-0.198486	-0.455078	-1.06689	0.267243	-0.266208	0.322504	0.868162	-6.21354	4.08764	6.3811	0.000110239	0.00485039	-0.0013161	0.39917	-0.628418	-0.785889	-0.135271	-0.0985669	-0.326623	0.930217	-2.62127	-5.66798	7.48752	0.00330523	0.0036366	-0.0119144	0.0185547	0.770508	-0.910645	-0.616371	0.0129992	-0.499684	0.608468	-6.63029	-6.85857	5.48759	0.000171725	0.0140971	-0.013122	0.525879	0.959717	-0.134033	-0.257921	0.093046	0.00363367	0.961668	1.92889	-0.453614	10.4103	-0.0259306	0.0408143	-0.015462	-0.50293	0.225586	-0.998291	-0.13125	0.0145067	0.170506	0.976468	0.746822	3.45091	10.4905	0.00155599	0.0180348	-0.0138304	-0.486084	-0.25293	-0.965088	-0.150857	0.0438168	0.0580023	0.985879	1.11776	1.05784	10.5022	0.0055007	0.00718913	-0.016776	-0.550781	-0.0905762	-1.01294	-0.0438062	-0.872748	0.0278834	0.485401	-7.90566	1.08845	-5.02634	0.00133385	0.0117023	-3.96577e-06	1.12573	-0.0239258	0.398193	-0.069691	0.165065	0.206774	0.961843	3.39085	3.72813	8.42923	-0.00192927	0.00907831	-0.00200987	-0.701904	-0.203857	-0.848633	
59	0.264265	0.346943	0.0597711	-0.897899	-6.99675	0.820129	8.03892	0.00355487	-0.000706939	-0.00511778	0.482666	0.116943	-1.02832	-0.123548	-0.206747	-0.0574982	0.968858	-4.12453	-0.606411	9.15358	-0.00342668	0.0339165	-0.013589	0.24707	0.193848	-1.04541	-0.153336	-0.149175	0.218396	0.952123	-2.29027	4.97305	9.23886	0.0100001	0.00901351	-0.000419494	-0.198486	-0.46167	-1.05762	0.267226	-0.266187	0.322429	0.868202	-6.2069	4.11501	6.35751	0.000404369	0.00435509	0.00259837	0.4104	-0.630371	-0.785889	-0.135271	-0.0985669	-0.326623	0.930217	-2.62127	-5.66798	7.48752	0.00330523	0.0036366	-0.0119144	0.0185547	0.770508	-0.910645	-0.61636	0.0129057	-0.499569	0.608576	-6.64379	-6.84607	5.49506	0.0119477	0.0153564	-0.0171679	0.519531	0.953369	-0.131592	-0.257895	0.0935769	0.00366817	0.961624	1.84443	-0.442878	10.3088	0.03221	-0.0258348	-0.0149284	-0.500977	0.227539	-0.998291	-0.131246	0.0145385	0.170545	0.976462	0.716144	3.46711	10.4925	0.00782957	0.0130009	-0.0154442	-0.486328	-0.248535	-0.965332	-0.150855	0.0437835	0.0579852	0.985882	1.09286	1.05757	10.5266	0.00477743	0.00925943	-0.0172518	-0.550537	-0.0974121	-1.01489	-0.0437433	-0.872747	0.0278914	0.485408	-7.91559	1.08071	-5.02517	0.00778332	0.0100481	-3.42838e-05	1.12793	-0.026123	0.400391	-0.0697156	0.165139	0.206834	0.961815	3.41724	3.71694	8.42468	0.0050166	0.00334621	-0.0035842	-0.697754	-0.195068	-0.842041	
60	0.264249	0.346989	0.0597814	-0.897885	-7.02623	0.84673	8.03263	0.00137663	0.00030712	-0.001993	0.480713	0.11499	-1.03052	-0.123617	-0.20701	-0.0574324	0.968797	-4.21383	-0.56181	9.10056	-0.00867979	0.0185571	-0.0144019	0.242432	0.200195	-1.04565	-0.153365	-0.149224	0.21825	0.952144	-2.34989	4.95903	9.18991	-0.00804515	0.0112697	0.00116478	-0.198486	-0.457275	-1.05762	0.267178	-0.266217	0.322425	0.868209	-6.23862	4.04275	6.37372	0.00275002	0.00807902	0.00262732	0.403809	-0.630371	-0.788086	-0.135079	-0.0986888	-0.326827	0.93016	-2.66856	-5.71146	7.42651	-0.00212311	0.0107168	-0.0124842	0.0141602	0.770508	-0.912842	-0.616365	0.0128264	-0.499498	0.608632	-6.64859	-6.82234	5.46913	0.00591174	0.0139027	-0.0139099	0.523926	0.951172	-0.129395	-0.257882	0.0940439	0.00354496	0.961582	1.86492	-0.456656	10.3401	0.00646879	0.00418645	-0.0138073	-0.496582	0.225586	-0.996094	-0.131234	0.0144719	0.170562	0.976461	0.711577	3.46624	10.497	0.00553417	0.0195101	-0.0162566	-0.490479	-0.250732	-0.958252	-0.150847	0.0437946	0.0579643	0.985884	1.09187	1.07819	10.5232	0.00306764	0.00811165	-0.0163474	-0.557617	-0.0908203	-1.01074	-0.043803	-0.872755	0.027855	0.48539	-7.87884	1.09504	-4.99933	0.000135942	0.0101485	0.00283991	1.12793	-0.0239258	0.395996	-0.0696536	0.165118	0.206843	0.961821	3.38515	3.72294	8.45382	-0.000204644	0.0119698	-0.00671678	-0.704102	-0.20166	-0.841797	
61	0.264339	0.347	0.0598003	-0.897853	-7.01754	0.81746	8.03698	-0.00154566	-0.00468699	0.00124117	0.478516	0.114746	-1.03271	-0.123686	-0.207179	-0.0574644	0.96875	-4.19131	-0.599385	9.14472	-0.0102726	0.0234754	-0.0168072	0.249023	0.196045	-1.04785	-0.153406	-0.14918	0.217744	0.95226	-2.37094	4.846	9.1936	-0.0110087	0.00432947	-0.00235891	-0.19873	-0.450684	-1.06226	0.267206	-0.266258	0.322485	0.868165	-6.24444	4.08423	6.36514	0.0066134	0.0103441	-0.00160489	0.401611	-0.632568	-0.790039	-0.135023	-0.0987812	-0.326353	0.930325	-2.64183	-5.64876	7.4592	0.0195251	0.00840023	-0.0128534	0.0141602	0.770508	-0.910645	-0.616388	0.0127969	-0.499509	0.608599	-6.64907	-6.84527	5.47184	0.00283161	0.0147584	-0.0117836	0.519531	0.955566	-0.133789	-0.257868	0.0941462	0.00362109	0.961575	1.86955	-0.466871	10.3878	0.019794	0.0036819	-0.0164271	-0.505127	0.223389	-0.998047	-0.131221	0.0144647	0.170561	0.976463	0.699983	3.49629	10.4924	0.00448422	0.0171687	-0.0159077	-0.481689	-0.25293	-0.967529	-0.150854	0.0438244	0.057956	0.985882	1.104	1.06572	10.5028	0.00609791	0.00855729	-0.015794	-0.550781	-0.0883789	-1.01074	-0.04388	-0.872767	0.0278679	0.485362	-7.88792	1.06787	-5.02047	0.00226114	0.0116612	0.00337715	1.12134	-0.0263672	0.400391	-0.0696042	0.165011	0.206845	0.961843	3.40477	3.75375	8.44666	9.16985e-05	0.0166206	-0.00885265	-0.701904	-0.203857	-0.841797	
62	0.264356	0.34692	0.0597927	-0.897879	-6.98995	0.818812	8.05083	-0.00132428	-0.00554385	0.00201799	0.48291	0.11499	-1.03052	-0.123387	-0.207649	-0.0576775	0.968675	-4.17665	-0.601046	9.13772	-0.0082943	0.0281745	-0.0215508	0.246826	0.197998	-1.04785	-0.15326	-0.149133	0.217787	0.952281	-2.31724	4.94846	9.23261	-0.00219794	0.00163948	-0.00190764	-0.196289	-0.457275	-1.06665	0.267266	-0.26635	0.322617	0.86807	-6.21606	4.07842	6.33738	0.00785542	0.00976505	-0.000513523	0.403564	-0.626221	-0.781494	-0.13513	-0.0988207	-0.326374	0.930298	-2.65939	-5.64116	7.47096	-0.00963944	0.00784984	-0.0083633	0.0117188	0.774902	-0.912842	-0.616419	0.0127509	-0.499562	0.608525	-6.64412	-6.82156	5.49141	0.000372602	0.0155075	-0.0125861	0.523926	0.951172	-0.131592	-0.257795	0.0940948	0.00368985	0.9616	1.90449	-0.449102	10.324	0.0161778	0.02043	-0.0171835	-0.498535	0.223389	-1.00244	-0.13122	0.01448	0.170544	0.976466	0.725215	3.44879	10.4709	0.00314415	0.0140185	-0.0159152	-0.490479	-0.248535	-0.960693	-0.15086	0.0438359	0.0579066	0.985884	1.10714	1.04342	10.4783	0.00280247	0.00808721	-0.0168977	-0.54834	-0.0952148	-1.0127	-0.0439247	-0.872768	0.0278554	0.485356	-7.88058	1.08731	-5.02642	0.000201605	0.0105508	0.00150429	1.12134	-0.0263672	0.400391	-0.0695571	0.164755	0.206848	0.961889	3.38504	3.73152	8.42587	0.000885338	0.0179972	-0.00704664	-0.701904	-0.203857	-0.8396	
63	0.264308	0.346927	0.0597264	-0.897895	-6.997	0.817508	8.0557	0.00593701	-0.0028947	-0.00528082	0.484863	0.117188	-1.03271	-0.123476	-0.207959	-0.057826	0.968588	-4.17003	-0.628229	9.08722	-0.0182782	0.0212801	-0.0161553	0.242432	0.198242	-1.04077	-0.153333	-0.149051	0.217335	0.952386	-2.31754	4.91136	9.21126	-0.0269331	0.00868582	0.00446416	-0.198486	-0.455078	-1.06445	0.26717	-0.266353	0.322596	0.868106	-6.18073	4.06193	6.3303	-0.000337708	0.00661582	0.00671873	0.403564	-0.625977	-0.785889	-0.135114	-0.0988171	-0.326375	0.9303	-2.6189	-5.64689	7.46412	0.0051476	0.00851388	-0.0158248	0.0141602	0.770508	-0.89917	-0.616409	0.0128192	-0.499628	0.60848	-6.63416	-6.82312	5.48414	-0.000294399	0.0145775	-0.016835	0.523926	0.953369	-0.131592	-0.257807	0.0943765	0.00390821	0.961568	1.89058	-0.435399	10.317	0.0288632	-0.00559297	-0.0151745	-0.50293	0.223389	-0.993896	-0.131245	0.0145203	0.170543	0.976462	0.746569	3.4806	10.4914	0.00612886	0.0150233	-0.0130239	-0.483887	-0.25293	-0.965088	-0.15084	0.0437781	0.0579154	0.985889	1.10998	1.03293	10.5152	0.00562621	0.00986595	-0.0170186	-0.55542	-0.0883789	-1.01294	-0.0440073	-0.872731	0.0277789	0.48542	-7.89371	1.09265	-5.0151	-0.00104924	0.00584686	0.000468058	1.12378	-0.0307617	0.395996	-0.069531	0.164787	0.206836	0.961888	3.3691	3.70579	8.39463	-0.000291661	0.00333795	0.000179247	-0.701904	-0.199463	-0.848877	
64	0.264269	0.346985	0.0597397	-0.897883	-7.00134	0.827949	8.04902	-0.000400574	0.000660266	0.000565974	0.487305	0.11499	-1.03052	-0.123495	-0.207916	-0.0578399	0.968594	-4.15715	-0.599742	9.14084	-0.0115986	0.0152198	-0.0177395	0.245117	0.189453	-1.04761	-0.153367	-0.149025	0.217287	0.952395	-2.34675	4.80904	9.19474	0.0140293	0.00182622	0.000473578	-0.200684	-0.455078	-1.06689	0.267145	-0.266278	0.322704	0.868096	-6.20679	4.07148	6.36884	0.00553466	0.00425728	0.00209157	0.399414	-0.630615	-0.78125	-0.135117	-0.0987835	-0.326256	0.930345	-2.60934	-5.67088	7.48266	0.00457214	0.00508991	-0.012387	0.0117188	0.774902	-0.910645	-0.616382	0.012915	-0.499691	0.608453	-6.63318	-6.86513	5.45601	0.000549108	0.0124979	-0.0172644	0.523926	0.955566	-0.133789	-0.257813	0.0943655	0.00375607	0.961568	1.94696	-0.470432	10.364	0.000374887	0.0301574	-0.0130172	-0.494141	0.221191	-0.998047	-0.131282	0.014474	0.170529	0.976461	0.716051	3.50487	10.499	0.00325937	0.0170047	-0.0130094	-0.488281	-0.250732	-0.967529	-0.150863	0.0437526	0.0580295	0.98588	1.09313	1.06876	10.5113	0.00862636	0.00963932	-0.0164014	-0.550781	-0.0905762	-1.01294	-0.0440457	-0.872701	0.0278046	0.485469	-7.88548	1.08408	-4.98944	0.00386477	0.0079492	0.00322504	1.12573	-0.0239258	0.400391	-0.0695738	0.164891	0.206899	0.961854	3.41879	3.72292	8.41178	0.00275688	3.75352e-05	0.000182653	-0.701904	-0.203857	-0.841797	
65	0.264273	0.347019	0.0597651	-0.897867	-6.99782	0.808795	8.046	-0.00015981	-0.00197088	-0.0018913	0.48291	0.112793	-1.03052	-0.123503	-0.208145	-0.057933	0.968538	-4.21357	-0.618474	9.1408	-0.011096	0.0257795	-0.0188806	0.249268	0.196045	-1.04077	-0.153233	-0.149065	0.217767	0.952301	-2.3127	4.96044	9.23367	0.0166344	0.00513765	-0.000637556	-0.202881	-0.455078	-1.06006	0.267251	-0.266277	0.32283	0.868017	-6.22371	4.13681	6.37421	0.0060459	0.00687044	-0.00151806	0.401367	-0.628418	-0.783691	-0.135103	-0.09879	-0.326393	0.930298	-2.62586	-5.68038	7.45827	-0.00811623	0.00933241	-0.0138806	0.0185547	0.770508	-0.908447	-0.616401	0.0129	-0.499673	0.608449	-6.6398	-6.85875	5.48212	0.00337382	0.0133798	-0.0137594	0.523926	0.951172	-0.131592	-0.25781	0.0944944	0.0037837	0.961556	1.85868	-0.451061	10.3364	0.0170982	-0.00335685	-0.0159796	-0.505127	0.225342	-0.996094	-0.131277	0.0145021	0.170498	0.976466	0.7148	3.45074	10.4911	0.00217616	0.0151801	-0.0159195	-0.492676	-0.250732	-0.967529	-0.150881	0.0437685	0.0580345	0.985876	1.10392	1.08362	10.5217	0.00391814	0.00870767	-0.0161157	-0.553223	-0.0883789	-1.0083	-0.0441005	-0.872706	0.0277649	0.485457	-7.88562	1.0846	-5.00285	0.00251634	0.0128985	0.00112052	1.12134	-0.0263672	0.400391	-0.0695823	0.164875	0.207011	0.961832	3.4446	3.74294	8.41784	0.00223711	0.0115511	-0.00403424	-0.706299	-0.206055	-0.846436	
66	0.264353	0.34708	0.0597391	-0.897822	-7.0081	0.798999	8.03905	0.00127648	9.32454e-05	0.00463474	0.476074	0.116943	-1.03271	-0.123504	-0.208265	-0.0579767	0.96851	-4.2173	-0.591184	9.09972	-0.0116138	0.025511	-0.0191241	0.249023	0.198242	-1.04565	-0.153296	-0.149132	0.217503	0.95234	-2.32396	4.87492	9.20974	-0.0111459	0.0121343	0.00261086	-0.196533	-0.455078	-1.06006	0.267257	-0.266311	0.322711	0.86805	-6.1986	4.06023	6.34781	-0.00554086	0.00411384	0.000160386	0.404053	-0.634766	-0.783447	-0.135076	-0.098806	-0.326385	0.930304	-2.63143	-5.67161	7.44171	0.000755126	0.00891164	-0.0149155	0.00976562	0.770508	-0.908447	-0.616467	0.0129083	-0.499737	0.60833	-6.66871	-6.82217	5.47414	-0.00184632	0.0132277	-0.0129276	0.517334	0.957764	-0.133789	-0.257786	0.0947301	0.00380029	0.961539	1.90465	-0.461656	10.3377	0.014628	0.00588245	-0.0144153	-0.50293	0.223389	-0.996094	-0.131269	0.0145199	0.170505	0.976466	0.7105	3.45978	10.4968	0.00499942	0.0149963	-0.015396	-0.488525	-0.246338	-0.965332	-0.15089	0.0437978	0.0578915	0.985882	1.08583	1.04358	10.5098	7.42043e-05	0.0082993	-0.0169629	-0.553223	-0.0883789	-1.01294	-0.0441023	-0.872734	0.0277573	0.485407	-7.86343	1.08933	-5.01176	0.00307571	0.0150337	0.00143407	1.12573	-0.026123	0.398193	-0.0695739	0.164729	0.206896	0.961882	3.38017	3.70797	8.40865	-0.00302804	0.0151813	-0.00362231	-0.70166	-0.206055	-0.837158	
67	0.264352	0.347083	0.0596983	-0.897824	-7.01667	0.797916	8.04258	0.00351453	-0.00374813	0.000394475	0.480469	0.116943	-1.03271	-0.123569	-0.208377	-0.0580528	0.968473	-4.20556	-0.601211	9.09999	-0.0120772	0.0195067	-0.0176711	0.244629	0.200195	-1.04321	-0.153291	-0.149175	0.217498	0.952336	-2.34464	4.85359	9.18032	0.00384969	0.00853393	0.000321904	-0.196533	-0.450684	-1.06226	0.267295	-0.266314	0.322705	0.868039	-6.22	4.04374	6.33209	0.00383668	0.00621412	-0.000230661	0.401367	-0.628174	-0.788086	-0.135001	-0.0987824	-0.326316	0.930341	-2.65025	-5.64674	7.47911	-0.00146239	0.00674525	-0.0149183	0.0141602	0.770508	-0.915283	-0.616494	0.0129189	-0.499763	0.608281	-6.65907	-6.82292	5.46747	0.00225583	0.0127668	-0.0129074	0.517578	0.951172	-0.133545	-0.257816	0.0947517	0.00373039	0.96153	1.88274	-0.462825	10.3341	0.0126767	0.0135933	-0.0137195	-0.503418	0.231934	-0.996338	-0.131126	0.0142456	0.170505	0.976489	0.719007	3.47487	10.4843	0.00361664	0.0178868	-0.0152729	-0.490479	-0.250732	-0.965332	-0.150901	0.04383	0.0578604	0.98588	1.09389	1.03814	10.4816	0.00246576	0.00680009	-0.0159602	-0.54834	-0.0905762	-1.01514	-0.0440319	-0.872752	0.0277857	0.48538	-7.89163	1.08344	-5.04846	0.00634732	0.0111167	0.00104483	1.12793	-0.026123	0.400391	-0.0695666	0.164703	0.20688	0.961891	3.36581	3.73777	8.44125	-0.00109	0.0113975	-0.00313189	-0.697266	-0.203857	-0.834961	
68	0.264364	0.347084	0.0595997	-0.897826	-6.99624	0.821553	8.05009	0.00259129	-0.00336063	0.00280162	0.480713	0.11499	-1.03052	-0.12361	-0.208485	-0.0580938	0.968442	-4.20746	-0.596075	9.10743	-0.0091556	0.0199703	-0.018145	0.246826	0.200439	-1.03857	-0.1532	-0.149173	0.217875	0.952265	-2.339	4.91781	9.21903	0.0171347	-0.00104293	0.000411063	-0.194336	-0.455078	-1.05762	0.267321	-0.266272	0.322786	0.868014	-6.22638	4.05697	6.36459	0.00967157	0.00470691	0.0013349	0.403564	-0.623779	-0.785889	-0.134983	-0.0987267	-0.326473	0.930295	-2.64686	-5.66434	7.47909	-0.00704853	0.00468745	-0.0140035	0.0183105	0.772949	-0.91748	-0.616457	0.0129553	-0.499773	0.608309	-6.65601	-6.80211	5.47069	0.00138097	0.0138093	-0.0196449	0.523926	0.953369	-0.133789	-0.257822	0.0947715	0.00375031	0.961526	1.86246	-0.456523	10.3112	0.0177375	0.0116218	-0.0148858	-0.503418	0.234131	-0.996338	-0.131127	0.0142697	0.170505	0.976489	0.7145	3.44711	10.4997	0.00611839	0.0147376	-0.0135886	-0.481934	-0.248535	-0.965332	-0.150919	0.0438549	0.0579067	0.985874	1.11821	1.04147	10.4925	0.00772471	0.0076601	-0.0165012	-0.550781	-0.0883789	-1.0083	-0.0440343	-0.872728	0.0277836	0.485423	-7.89277	1.0855	-5.03095	0.00224127	0.00854094	0.00125252	1.11914	-0.0263672	0.395996	-0.0696188	0.164835	0.206985	0.961842	3.37727	3.73589	8.42288	0.0035795	-0.000184568	0.000519668	-0.701904	-0.20166	-0.8396	
69	0.264365	0.347104	0.0595503	-0.897822	-7.02137	0.830595	8.04137	0.00267541	-0.00346436	-0.00163987	0.478516	0.110352	-1.02612	-0.123653	-0.208526	-0.0580768	0.968429	-4.20488	-0.606437	9.11679	-0.00792687	0.017383	-0.0168403	0.251221	0.196045	-1.03613	-0.153194	-0.149088	0.217918	0.952269	-2.31993	4.93113	9.22091	0.00392519	0.000372407	0.00230381	-0.200684	-0.452881	-1.0647	0.267289	-0.266192	0.322887	0.868011	-6.23005	4.09094	6.3644	0.00503176	0.0047437	0.00351206	0.401611	-0.630615	-0.783447	-0.134963	-0.0987174	-0.326451	0.930306	-2.64108	-5.66379	7.49067	0.00081581	0.00722941	-0.0125151	0.013916	0.772705	-0.908447	-0.61638	0.0130276	-0.499776	0.608383	-6.65441	-6.85808	5.50707	0.00316006	0.0131847	-0.0210313	0.526123	0.953369	-0.131592	-0.257662	0.0946764	0.00399792	0.961577	1.90283	-0.459475	10.3442	0.0182309	0.00807251	-0.0154259	-0.500732	0.223389	-0.996094	-0.131184	0.014294	0.170476	0.976486	0.705861	3.47362	10.4999	0.00306633	0.0167983	-0.0121632	-0.483887	-0.255127	-0.965088	-0.150943	0.043829	0.0579917	0.985866	1.09367	1.05971	10.4995	0.00889292	0.00964244	-0.015843	-0.550781	-0.0905762	-1.0105	-0.0440487	-0.872668	0.0277726	0.485529	-7.88382	1.10452	-5.0258	0.00231551	0.00546777	0.00174664	1.12817	-0.0283203	0.398193	-0.0696581	0.165125	0.207054	0.961774	3.42657	3.74069	8.43299	0.00276575	-0.00270856	0.000275218	-0.70166	-0.206055	-0.843994	
70	0.26436	0.347063	0.0595329	-0.89784	-7.01953	0.830615	8.04297	-4.46234e-07	-0.00658851	-0.000952763	0.473877	0.119141	-1.03052	-0.123697	-0.208444	-0.0580871	0.96844	-4.1887	-0.587595	9.10212	-0.0111032	0.00881842	-0.0184319	0.249023	0.198242	-1.04321	-0.153115	-0.149043	0.217981	0.952274	-2.32093	4.93341	9.21944	0.00965494	0.00226681	-0.00211557	-0.200684	-0.455078	-1.06226	0.267268	-0.266174	0.32302	0.867973	-6.22766	4.13434	6.40337	0.00621379	0.00815337	0.00243043	0.403564	-0.628418	-0.7771	-0.134816	-0.0987668	-0.326432	0.930329	-2.63783	-5.65758	7.46917	0.00171151	0.00728425	-0.0114266	0.00756836	0.768311	-0.912842	-0.616383	0.0130021	-0.499711	0.608434	-6.63418	-6.86254	5.44156	0.00540078	0.011991	-0.0142796	0.52417	0.946777	-0.12915	-0.257663	0.0946616	0.0039625	0.961579	1.88368	-0.460691	10.3334	0.0147974	0.0116322	-0.0141273	-0.500977	0.227539	-0.998291	-0.131216	0.0143241	0.170469	0.976482	0.716258	3.47064	10.5037	0.00446072	0.0157737	-0.0143796	-0.490479	-0.25293	-0.969971	-0.150958	0.0438144	0.0580056	0.985864	1.10381	1.07473	10.5101	0.00531561	0.00924478	-0.0161413	-0.54834	-0.0905762	-1.0105	-0.0440965	-0.872636	0.0277839	0.485582	-7.8916	1.0697	-4.99501	0.000941052	0.0100463	0.00272529	1.12573	-0.0239258	0.405029	-0.0696712	0.165176	0.207146	0.961745	3.43887	3.74185	8.4234	0.00305609	0.0100302	-0.00315176	-0.704102	-0.203857	-0.8396	
71	0.264354	0.347026	0.059562	-0.897854	-7.01202	0.83316	8.03253	-0.00146605	-0.00269778	-0.00215092	0.478027	0.121338	-1.03052	-0.123807	-0.208443	-0.0581814	0.96842	-4.20703	-0.629349	9.09694	-0.0116424	0.0308342	-0.0155966	0.251221	0.196045	-1.04321	-0.153171	-0.149039	0.217646	0.952343	-2.34081	4.83262	9.20249	-0.0111255	0.00931858	0.0038282	-0.198486	-0.455078	-1.06689	0.267288	-0.266212	0.323013	0.867958	-6.19474	4.09734	6.37494	-4.25499e-06	0.00662443	-0.00128891	0.410156	-0.625977	-0.781494	-0.134862	-0.0987697	-0.326293	0.930371	-2.61368	-5.63304	7.45223	0.00727285	0.00563107	-0.0105624	0.0185547	0.770508	-0.910645	-0.616274	0.0130016	-0.499799	0.608472	-6.61197	-6.83847	5.48598	0.000244953	0.0113333	-0.0115553	0.528076	0.957764	-0.135986	-0.257673	0.0948331	0.0041631	0.961558	1.90177	-0.425592	10.373	0.0222687	0.00270142	-0.0170273	-0.500977	0.225586	-0.998291	-0.131231	0.0143507	0.170464	0.976481	0.717335	3.45688	10.4908	0.00481765	0.0147923	-0.0145436	-0.490234	-0.255127	-0.962891	-0.150976	0.0438266	0.0579278	0.985865	1.10876	1.05444	10.4991	0.000636852	0.00897864	-0.0159235	-0.555176	-0.0930176	-1.0105	-0.0441155	-0.87267	0.0277496	0.485521	-7.89594	1.09126	-5.00797	0.00384247	0.0148988	-0.000428818	1.12793	-0.026123	0.402832	-0.0696206	0.165012	0.207089	0.961789	3.43521	3.72102	8.40189	-0.0038321	0.0165981	-0.0051975	-0.704102	-0.206055	-0.837158	
72	0.264335	0.346981	0.0596384	-0.897872	-6.99312	0.821423	8.04697	0.000465201	-0.00557722	-0.00272715	0.480713	0.11499	-1.03467	-0.12387	-0.208502	-0.0585413	0.968378	-4.20424	-0.635701	9.07542	-0.0198481	0.0116265	-0.0183778	0.246826	0.202393	-1.04102	-0.153178	-0.149194	0.217872	0.952265	-2.32655	4.92494	9.19112	0.00379208	0.0127248	0.00109944	-0.198486	-0.455078	-1.05762	0.267344	-0.266215	0.322878	0.86799	-6.19317	4.03375	6.3071	-0.00229442	0.00201424	-0.00133363	0.403564	-0.628174	-0.785889	-0.134792	-0.0987719	-0.32639	0.930346	-2.65377	-5.65728	7.47677	-0.00899473	0.00964289	-0.0164415	0.0141602	0.770508	-0.910645	-0.616364	0.0130051	-0.499804	0.608377	-6.63244	-6.79993	5.47079	0.000998942	0.0108029	-0.0118468	0.523926	0.953369	-0.131592	-0.257697	0.0950749	0.0041091	0.961528	1.89359	-0.47039	10.2707	0.0215729	0.0131658	-0.0126305	-0.500977	0.225586	-0.998291	-0.131214	0.0143598	0.170508	0.976475	0.714865	3.48002	10.4958	0.00486028	0.0150919	-0.0139471	-0.492676	-0.250732	-0.962891	-0.150975	0.0438487	0.0579288	0.985864	1.10862	1.04597	10.4938	0.00470331	0.00718266	-0.0170548	-0.548096	-0.0998535	-1.0127	-0.0440567	-0.872742	0.0277601	0.485397	-7.90267	1.07376	-5.00111	0.00718336	0.0145032	-1.88275e-05	1.12573	-0.0283203	0.402832	-0.0696018	0.164944	0.207011	0.961819	3.36542	3.72313	8.42191	-0.000285867	0.00997696	-0.0015753	-0.697266	-0.203857	-0.8396	
73	0.264371	0.347005	0.0596866	-0.897849	-6.96751	0.822705	8.05903	-0.00375401	-0.000210966	0.00111098	0.487305	0.11499	-1.03467	-0.12386	-0.208386	-0.0583041	0.968419	-4.22031	-0.624055	9.08124	0.00870599	0.00359476	-0.0169917	0.248779	0.202637	-1.03857	-0.153062	-0.149144	0.218036	0.952254	-2.35841	4.89183	9.22656	0.0163364	-0.00170999	-0.00673587	-0.202881	-0.452881	-1.06226	0.267437	-0.266161	0.322965	0.867945	-6.26214	4.091	6.37483	0.00565238	0.00425742	-0.000572884	0.403564	-0.626221	-0.779297	-0.134756	-0.098748	-0.326399	0.930351	-2.64389	-5.68849	7.4648	-0.0011043	0.00646683	-0.0163159	0.0163574	0.770508	-0.908447	-0.61635	0.0130644	-0.499825	0.608372	-6.65507	-6.85533	5.50077	0.00319626	0.0143064	-0.018235	0.521729	0.953369	-0.135742	-0.257654	0.0946313	0.00342343	0.961586	1.93894	-0.487836	10.3849	-0.0291289	0.0366254	-0.0157658	-0.503174	0.227539	-1.00049	-0.131241	0.0143293	0.170451	0.976482	0.728366	3.47298	10.471	0.00288278	0.0174056	-0.013984	-0.494629	-0.25293	-0.967529	-0.15099	0.0438332	0.057976	0.98586	1.11253	1.06996	10.4964	0.00616028	0.00985763	-0.0159077	-0.550537	-0.0930176	-1.0083	-0.0440093	-0.872717	0.0277822	0.485444	-7.92095	1.07744	-5.00962	0.0074131	0.00528419	0.00146425	1.12573	-0.0239258	0.398193	-0.0696854	0.165083	0.207087	0.961773	3.40892	3.74651	8.44801	0.00302425	0.00224531	0.000165671	-0.699463	-0.203857	-0.841797	
74	0.264424	0.347112	0.0597163	-0.89779	-7.02362	0.812063	8.01577	0.00342759	-0.00163964	-0.00384608	0.487305	0.11499	-1.02832	-0.123662	-0.208796	-0.0582256	0.96836	-4.17991	-0.600129	9.15949	0.00230355	0.0241318	-0.0156837	0.244629	0.197998	-1.04565	-0.152884	-0.149083	0.218228	0.952249	-2.29219	4.98333	9.22527	-5.96532e-05	0.00632394	-0.00145697	-0.200684	-0.457275	-1.06226	0.26746	-0.266106	0.322973	0.867952	-6.22801	4.1547	6.37336	0.0014941	0.00423694	0.00327658	0.405762	-0.625977	-0.783691	-0.134576	-0.0987528	-0.326455	0.930357	-2.61865	-5.6666	7.49528	-0.00145058	0.00642472	-0.0135058	0.00976562	0.770508	-0.915283	-0.616289	0.0129157	-0.499692	0.608546	-6.66576	-6.85355	5.50033	0.0124932	0.0150727	-0.0169695	0.521729	0.953369	-0.131592	-0.257659	0.0949954	0.00358847	0.961548	1.84387	-0.428702	10.2657	0.028251	-0.0142591	-0.015601	-0.507324	0.223389	-0.998047	-0.131207	0.0144285	0.170469	0.976482	0.711794	3.44768	10.4934	0.00568854	0.0124499	-0.0168721	-0.486084	-0.25293	-0.969971	-0.150981	0.0438262	0.0579303	0.985864	1.08155	1.08787	10.511	0.0025776	0.00867928	-0.0175084	-0.550537	-0.0930176	-1.0127	-0.0439626	-0.872677	0.0277827	0.485521	-7.89579	1.06964	-5.02798	0.00609918	0.00365321	-6.98591e-05	1.12793	-0.026123	0.395996	-0.0696869	0.165217	0.207178	0.96173	3.43601	3.7441	8.41954	0.0014177	0.00508305	-0.00296513	-0.699707	-0.20166	-0.834961	
75	0.264481	0.347139	0.0596612	-0.897767	-7.0241	0.822561	8.0183	0.00236193	-0.00490956	0.00316391	0.48291	0.112793	-1.03052	-0.12375	-0.208885	-0.0582286	0.96833	-4.23609	-0.602996	9.10882	-0.0100555	0.0128774	-0.0133161	0.253418	0.200439	-1.04565	-0.153032	-0.149054	0.217355	0.952429	-2.38072	4.83683	9.19655	-0.0392101	0.00936393	0.00177513	-0.19873	-0.452881	-1.06689	0.267362	-0.266177	0.322881	0.867995	-6.22937	4.05438	6.346	-0.00204621	0.0103537	0.00175025	0.403564	-0.624023	-0.781494	-0.134521	-0.0989104	-0.326184	0.930443	-2.65252	-5.65404	7.44245	0.0208449	0.00694126	-0.012157	0.0141602	0.768311	-0.903809	-0.61631	0.0128263	-0.499689	0.60853	-6.65679	-6.81148	5.47745	0.00118755	0.0144737	-0.0109087	0.523926	0.955566	-0.127441	-0.257659	0.0953425	0.00354143	0.961514	1.90106	-0.459718	10.3563	0.0159587	0.00619478	-0.0128147	-0.500732	0.223389	-0.993896	-0.13122	0.0143929	0.170516	0.976473	0.724307	3.46974	10.514	0.00672252	0.0168936	-0.0160833	-0.490234	-0.259277	-0.969727	-0.150991	0.0438421	0.0578621	0.985866	1.07808	1.06231	10.5301	-0.000490536	0.00841787	-0.0153451	-0.553223	-0.0883789	-1.0061	-0.0440871	-0.872717	0.0277403	0.48544	-7.87038	1.06579	-5.03071	-0.00130924	0.0147128	0.00294369	1.1167	-0.0241699	0.395752	-0.0695658	0.165089	0.207067	0.961785	3.40436	3.72965	8.43553	-0.00488016	0.0156569	-0.00776664	-0.701904	-0.203857	-0.848633	
76	0.264475	0.347084	0.0596372	-0.897791	-7.01753	0.816542	8.05886	0.001021	-0.00876322	-0.00130894	0.483154	0.110596	-1.02612	-0.123765	-0.208902	-0.0582515	0.968323	-4.21024	-0.616068	9.13354	-0.0107847	0.0168091	-0.0187681	0.246826	0.198242	-1.04321	-0.153001	-0.149017	0.217282	0.952456	-2.36131	4.77076	9.19622	-0.00220635	0.00247713	-0.00175557	-0.200684	-0.457275	-1.06445	0.2674	-0.266238	0.322889	0.867962	-6.22707	4.0734	6.34386	0.00262214	0.00988587	-0.00351687	0.398926	-0.624023	-0.783691	-0.134533	-0.0989053	-0.326032	0.930495	-2.64087	-5.62087	7.48551	0.0122322	0.0046577	-0.0117096	0.012207	0.766113	-0.915283	-0.616315	0.0128045	-0.499754	0.608472	-6.64746	-6.82901	5.48657	-0.00127536	0.0174667	-0.0113198	0.519531	0.957764	-0.131592	-0.257668	0.0952966	0.00362896	0.961516	1.91449	-0.487918	10.3715	0.0237906	0.0150414	-0.0145492	-0.50293	0.223389	-0.991699	-0.131197	0.0143513	0.170528	0.976474	0.709395	3.48475	10.4809	0.00560173	0.0192473	-0.016757	-0.486328	-0.248535	-0.960693	-0.150816	0.0437499	0.0579	0.985895	1.09939	1.04097	10.5246	0.00429189	0.00763224	-0.0158679	-0.550537	-0.0930176	-1.01514	-0.0440955	-0.872739	0.0277167	0.485402	-7.87733	1.09932	-5.02112	0.00196724	0.0142688	0.000731682	1.12329	-0.0241699	0.393555	-0.0695508	0.164951	0.207006	0.961822	3.37853	3.73267	8.43551	-0.00464849	0.0194636	-0.00631558	-0.704102	-0.203857	-0.846436	
77	0.264463	0.347	0.0596664	-0.897825	-6.98156	0.842592	8.05201	-0.00283712	-0.00509341	-0.00120226	0.480713	0.112793	-1.03271	-0.123723	-0.209156	-0.0582125	0.968276	-4.21301	-0.607156	9.10571	-0.00241519	0.0325465	-0.0167811	0.249023	0.200195	-1.0481	-0.152861	-0.148963	0.217606	0.952413	-2.29758	4.92188	9.22907	0.00964991	-1.0308e-05	0.000978967	-0.196533	-0.452881	-1.06226	0.267475	-0.266287	0.323005	0.867881	-6.20469	4.10881	6.33182	0.00801425	0.00797633	-0.000541381	0.401367	-0.625977	-0.788086	-0.134586	-0.0989041	-0.32629	0.930397	-2.63849	-5.66743	7.47822	-0.0169873	0.00770054	-0.011309	0.0119629	0.768311	-0.915283	-0.616326	0.0128294	-0.499775	0.608443	-6.63121	-6.83447	5.49997	0.00120715	0.0122986	-0.0157047	0.521484	0.957764	-0.131592	-0.257664	0.0952486	0.00367473	0.961522	1.9019	-0.463577	10.2894	0.0160817	0.012001	-0.0139694	-0.507568	0.229736	-0.998291	-0.13122	0.0143672	0.170502	0.976475	0.722952	3.42977	10.4889	0.00357283	0.0151457	-0.0148971	-0.490479	-0.248535	-0.960693	-0.150813	0.0437439	0.0579806	0.985891	1.11813	1.05686	10.4847	0.00863006	0.00960186	-0.016383	-0.555176	-0.0952148	-1.0127	-0.0441647	-0.872733	0.0276471	0.485409	-7.89977	1.08509	-5.02839	-0.00330193	0.0105133	0.000681262	1.12598	-0.0305176	0.400635	-0.0695886	0.164842	0.207056	0.961828	3.38426	3.74011	8.40587	0.00414875	0.0106674	-0.0026251	-0.701904	-0.20166	-0.8396	
78	0.264438	0.346999	0.059702	-0.897831	-6.98606	0.820624	8.05317	-0.000202757	-0.0030061	-0.00505716	0.487305	0.112793	-1.02832	-0.123813	-0.209272	-0.058286	0.968235	-4.21023	-0.630765	9.07978	-0.0136911	0.0145561	-0.0172423	0.250977	0.202393	-1.04346	-0.15293	-0.148897	0.217195	0.952506	-2.32749	4.89529	9.20946	-0.0242817	0.00653796	0.00491311	-0.202881	-0.450684	-1.0647	0.267429	-0.26629	0.322979	0.867903	-6.21177	4.09155	6.35261	-0.00115269	0.00627871	0.00376982	0.401367	-0.628418	-0.785889	-0.13454	-0.0988839	-0.326165	0.93045	-2.6248	-5.64459	7.48905	0.0113663	0.00701343	-0.0158531	0.013916	0.772705	-0.912842	-0.616274	0.0129101	-0.499861	0.608423	-6.64216	-6.84992	5.4686	-0.00168778	0.0146386	-0.0174757	0.523926	0.955566	-0.131592	-0.257697	0.0955192	0.00390276	0.961485	1.88796	-0.436069	10.3364	0.031659	0.00300583	-0.0155178	-0.500977	0.225586	-0.998291	-0.131269	0.0143825	0.170501	0.976469	0.71526	3.48026	10.4896	0.00425839	0.017666	-0.0123989	-0.486084	-0.250732	-0.960449	-0.150816	0.0437035	0.0580131	0.98589	1.11343	1.06414	10.4984	0.00510707	0.0105388	-0.0168132	-0.546143	-0.0883789	-1.0105	-0.0442295	-0.8727	0.0276408	0.485462	-7.89918	1.06702	-5.02103	0.000480835	0.00834506	0.00282707	1.1189	-0.0241699	0.393555	-0.0695803	0.164951	0.20703	0.961815	3.3996	3.71216	8.44703	-0.00217203	0.00401854	-0.00260094	-0.704346	-0.197266	-0.844238	
79	0.264454	0.347067	0.059752	-0.897796	-7.03623	0.802323	8.05013	-0.00119593	-0.000110367	0.000652229	0.482666	0.119141	-1.02612	-0.123801	-0.209159	-0.0582937	0.96826	-4.18602	-0.62504	9.10842	-0.0117083	0.0147031	-0.0188621	0.246826	0.198242	-1.04565	-0.152883	-0.14883	0.21714	0.952537	-2.33773	4.82941	9.20795	0.0171679	-0.00143799	-0.00227827	-0.194336	-0.450928	-1.06934	0.267305	-0.266281	0.323185	0.867867	-6.19941	4.08345	6.36363	0.0074222	0.00803196	0.000450819	0.406006	-0.628174	-0.783691	-0.134571	-0.0989129	-0.326102	0.930464	-2.623	-5.63638	7.49444	0.00296737	0.00841209	-0.0104751	0.012207	0.766113	-0.912842	-0.616263	0.0129296	-0.499873	0.608424	-6.65317	-6.85033	5.46505	0.00352949	0.0124756	-0.0142711	0.521729	0.953369	-0.129395	-0.257669	0.095513	0.0036726	0.961494	1.92761	-0.49336	10.3617	-0.000973577	0.0229504	-0.0142664	-0.507324	0.223389	-0.996094	-0.131269	0.0143636	0.170472	0.976474	0.718047	3.48956	10.4943	0.00470442	0.015706	-0.0157489	-0.488525	-0.248535	-0.965332	-0.150839	0.0436957	0.0579719	0.985889	1.09508	1.07127	10.5135	0.000876301	0.00750491	-0.0166088	-0.555664	-0.0861816	-1.01514	-0.0442798	-0.872676	0.0276412	0.485502	-7.87777	1.08463	-5.00996	0.00142923	0.00867545	0.00312534	1.12354	-0.0241699	0.398193	-0.0695634	0.165016	0.207082	0.961794	3.43336	3.70299	8.42171	0.00477642	0.00773409	-0.0056479	-0.704102	-0.20166	-0.844238	
80	0.264421	0.34709	0.0597209	-0.897799	-7.00775	0.826391	8.05367	0.0031835	-0.0035045	-0.00129712	0.478271	0.116943	-1.03052	-0.123822	-0.209319	-0.0583507	0.968219	-4.22841	-0.612964	9.09732	-0.010634	0.0221968	-0.0182332	0.251221	0.200195	-1.04565	-0.152827	-0.148865	0.2174	0.952481	-2.30265	4.93226	9.23071	0.0108849	0.00618593	0.00171296	-0.196289	-0.459473	-1.05981	0.267399	-0.266343	0.323214	0.867809	-6.2142	4.11717	6.36607	-0.000477954	0.00668052	-0.002969	0.40332	-0.621826	-0.783691	-0.134575	-0.0989118	-0.326226	0.930421	-2.64378	-5.64912	7.45693	-0.0076106	0.00838956	-0.0149855	0.012207	0.763916	-0.910645	-0.616319	0.0129323	-0.499868	0.608371	-6.64179	-6.83385	5.49659	0.000673869	0.0125461	-0.0113292	0.519531	0.955566	-0.131592	-0.257657	0.0956397	0.00375046	0.961484	1.90667	-0.464184	10.3309	0.0205408	0.00337191	-0.0166472	-0.505127	0.223389	-0.996094	-0.13129	0.014405	0.170439	0.976476	0.720461	3.4589	10.504	0.00359362	0.0151509	-0.014882	-0.483887	-0.250732	-0.960693	-0.150853	0.0437274	0.0578277	0.985894	1.10879	1.05911	10.5071	0.000903109	0.00817391	-0.0166709	-0.553223	-0.0861816	-1.01074	-0.0442513	-0.872691	0.0276564	0.485476	-7.87093	1.08483	-4.99343	0.00593694	0.0129344	0.00195922	1.12134	-0.0285645	0.402832	-0.0695223	0.164897	0.207105	0.961812	3.4181	3.72082	8.40772	-0.0016165	0.0149677	-0.00508234	-0.699707	-0.20166	-0.844238	
81	0.264514	0.347127	0.0596854	-0.89776	-7.02167	0.804726	8.0575	0.000776255	-0.00195237	0.00324127	0.48291	0.11499	-1.02832	-0.123925	-0.209417	-0.0584231	0.968181	-4.20485	-0.620786	9.09022	-0.0114703	0.0192356	-0.0146202	0.251221	0.196045	-1.04541	-0.152905	-0.148982	0.217296	0.952474	-2.33391	4.84434	9.21462	-0.00190014	0.00959112	0.00264679	-0.198486	-0.457275	-1.06226	0.267411	-0.266349	0.323094	0.867848	-6.22707	4.05714	6.31405	-0.00217399	0.00376108	-0.000468822	0.403564	-0.626221	-0.783691	-0.134522	-0.0989017	-0.326128	0.930464	-2.63354	-5.6666	7.47912	0.00716986	0.00571972	-0.0150609	0.013916	0.772705	-0.912842	-0.616371	0.0129588	-0.499904	0.608289	-6.65266	-6.84544	5.47551	-0.00046811	0.0130598	-0.0128524	0.523926	0.953369	-0.131592	-0.257682	0.0958633	0.00377581	0.961455	1.9205	-0.460783	10.3321	0.0146603	0.00559899	-0.0138808	-0.500977	0.227539	-0.996094	-0.131285	0.0144017	0.170436	0.976478	0.723522	3.477	10.4975	0.00452869	0.0157943	-0.0143244	-0.488037	-0.259521	-0.962646	-0.150858	0.0437639	0.0577944	0.985894	1.10006	1.03009	10.4994	0.00689908	0.00699247	-0.0167129	-0.550537	-0.0930176	-1.0105	-0.0442462	-0.872847	0.0276774	0.485194	-7.89861	1.06993	-5.03352	0.00133505	0.015222	0.000802889	1.12134	-0.0285645	0.395996	-0.0695154	0.164801	0.207004	0.961851	3.3697	3.71953	8.42944	-0.00220839	0.0109593	-0.00233388	-0.701904	-0.20166	-0.841797	
82	0.264526	0.34712	0.0596508	-0.897762	-7.01363	0.840348	8.0395	0.000448084	-0.0038017	0.000506492	0.485107	0.112793	-1.03052	-0.123932	-0.209462	-0.0584244	0.96817	-4.22953	-0.599434	9.10104	-0.00946584	0.0190211	-0.0178607	0.251221	0.200439	-1.04102	-0.152871	-0.149041	0.217423	0.952441	-2.35472	4.87225	9.17079	0.0148329	0.00813293	-7.14829e-05	-0.196289	-0.457275	-1.06445	0.267448	-0.266332	0.323182	0.867809	-6.23985	4.06121	6.33684	0.00857161	0.00702451	0.00112179	0.403809	-0.630615	-0.783447	-0.134496	-0.0988961	-0.326181	0.93045	-2.64492	-5.63305	7.48179	-0.00464837	0.00826823	-0.0153308	0.0117188	0.772705	-0.908447	-0.616356	0.012953	-0.499894	0.608312	-6.66691	-6.83416	5.48102	0.0034648	0.0135387	-0.0173284	0.521973	0.948975	-0.133545	-0.257671	0.0958364	0.00371759	0.961461	1.9129	-0.457076	10.3103	0.0142332	0.0149796	-0.015249	-0.507324	0.227539	-0.996094	-0.13128	0.0143808	0.170499	0.976468	0.724959	3.4723	10.4902	0.00696787	0.0163121	-0.0142034	-0.488281	-0.25293	-0.965088	-0.150869	0.0437547	0.0579396	0.985884	1.09722	1.06487	10.4938	0.0110781	0.0086748	-0.0167875	-0.550781	-0.0883789	-1.01953	-0.0442418	-0.872846	0.0276736	0.485197	-7.8952	1.08869	-5.04697	0.00274156	0.0106588	0.000703666	1.12354	-0.0241699	0.405029	-0.0695378	0.164901	0.20709	0.961814	3.36994	3.74424	8.43337	0.00443323	0.00338891	-0.00147263	-0.699951	-0.197266	-0.842041	
83	0.264578	0.347138	0.0596148	-0.897741	-7.00795	0.812588	8.03523	0.00219798	-0.00478695	0.0023186	0.485107	0.112793	-1.02612	-0.123983	-0.209525	-0.0584307	0.968149	-4.23037	-0.586103	9.09176	-0.0102944	0.0125771	-0.0189606	0.251221	0.200439	-1.03857	-0.152766	-0.149013	0.21778	0.952381	-2.31947	4.92358	9.22361	0.00041417	0.000699392	0.0014519	-0.205078	-0.450684	-1.06226	0.267463	-0.266294	0.323346	0.867755	-6.23099	4.09347	6.3721	0.00713518	0.00717105	0.00226547	0.4104	-0.630371	-0.783447	-0.134519	-0.0988763	-0.3262	0.930442	-2.61979	-5.65437	7.48343	0.00516529	0.00589309	-0.0113899	0.0185547	0.770508	-0.912842	-0.616325	0.0129684	-0.499878	0.608356	-6.65912	-6.8458	5.48848	0.00374284	0.0139768	-0.0181162	0.526123	0.948975	-0.133545	-0.257659	0.0959553	0.00378288	0.961452	1.90878	-0.458302	10.3305	0.0192794	0.00694276	-0.014659	-0.503174	0.229736	-0.991943	-0.13132	0.0144088	0.170469	0.976467	0.706739	3.46355	10.4903	0.00220548	0.0161767	-0.0126589	-0.492676	-0.25293	-0.965088	-0.150886	0.0437235	0.0579984	0.985879	1.09433	1.09209	10.5037	0.00645003	0.00973412	-0.0167082	-0.548584	-0.0883789	-1.0105	-0.0442769	-0.872781	0.0277037	0.48531	-7.88405	1.08949	-5.0235	0.00539583	0.00734163	0.00435501	1.12354	-0.0263672	0.400391	-0.0695342	0.165068	0.207182	0.961765	3.40591	3.73206	8.43895	0.00254577	0.00147442	-0.00313992	-0.69751	-0.20166	-0.844238	
84	0.264571	0.347128	0.0595718	-0.89775	-7.01376	0.819667	8.05017	0.00351766	-0.00583282	-0.000656072	0.484863	0.117188	-1.03271	-0.124009	-0.209515	-0.0584552	0.968147	-4.22764	-0.604418	9.11887	-0.0112932	0.014781	-0.0179936	0.251221	0.198242	-1.04077	-0.152778	-0.148967	0.217722	0.9524	-2.31941	4.91446	9.22006	-0.0013725	0.00288776	0.00183852	-0.196289	-0.457275	-1.05981	0.26745	-0.266265	0.323418	0.867741	-6.2223	4.12334	6.37869	0.00699424	0.00585276	0.0044904	0.403564	-0.625977	-0.785889	-0.134519	-0.098911	-0.326127	0.930464	-2.65222	-5.63791	7.48244	0.00573093	0.00864703	-0.0119728	0.0161133	0.772949	-0.915283	-0.616336	0.0129834	-0.499828	0.608385	-6.6462	-6.85492	5.47694	0.0058867	0.0104808	-0.0176206	0.523926	0.953369	-0.135742	-0.257666	0.0959128	0.0037953	0.961454	1.93195	-0.463976	10.3463	0.0153672	0.0158563	-0.0147922	-0.498779	0.225586	-0.991699	-0.131327	0.0144491	0.170488	0.976462	0.722528	3.45962	10.4943	0.00566995	0.0134484	-0.0136331	-0.488037	-0.257324	-0.960449	-0.150892	0.043713	0.0579528	0.985881	1.10353	1.07323	10.5063	0.00179618	0.0101232	-0.0165671	-0.546143	-0.0883789	-1.0083	-0.0442757	-0.872749	0.0277288	0.485366	-7.86911	1.09687	-5.0188	0.00399191	0.00529353	0.00327862	1.12109	-0.0241699	0.398193	-0.0695179	0.165085	0.207221	0.961755	3.43203	3.73715	8.439	0.00284672	0.00612351	-0.00528784	-0.699707	-0.199463	-0.842041	
85	0.264533	0.347125	0.0595166	-0.897766	-7.00929	0.842513	8.04305	0.00318238	-0.0035036	-0.0012978	0.478516	0.112549	-1.02832	-0.12406	-0.209441	-0.0585118	0.968153	-4.22092	-0.607127	9.08638	-0.0131122	0.0105327	-0.0181154	0.249023	0.200439	-1.04321	-0.152772	-0.148975	0.217825	0.952376	-2.31971	4.88021	9.20452	0.0122003	0.00649355	0.0013475	-0.198486	-0.455078	-1.06445	0.267406	-0.266289	0.323457	0.867732	-6.21206	4.09302	6.36965	0.00154645	0.00864918	0.00152158	0.403564	-0.628418	-0.781494	-0.134574	-0.0989316	-0.326133	0.930451	-2.64365	-5.62937	7.44781	-0.00158225	0.00741125	-0.00831122	0.0100098	0.763916	-0.908447	-0.616358	0.0129998	-0.499783	0.6084	-6.63609	-6.82126	5.48602	0.00222968	0.0104365	-0.0139342	0.517334	0.953369	-0.131592	-0.2577	0.0959869	0.00376226	0.961438	1.90628	-0.469404	10.3628	0.0123492	0.00800688	-0.0117962	-0.50293	0.223389	-0.991699	-0.131328	0.0145027	0.170467	0.976465	0.732868	3.46503	10.4872	0.00410782	0.0129774	-0.0143749	-0.483887	-0.25293	-0.965088	-0.150917	0.0437372	0.0578616	0.985882	1.11633	1.05246	10.5017	0.00282688	0.00797392	-0.0168893	-0.55542	-0.0908203	-1.0105	-0.0442756	-0.872743	0.0277726	0.485375	-7.88136	1.08317	-4.98769	0.00192562	0.0107781	0.00169308	1.12378	-0.0307617	0.395996	-0.0695155	0.165024	0.207236	0.961763	3.40862	3.72314	8.42374	0.00167266	0.0127318	-0.00352344	-0.70166	-0.206055	-0.8396	
