40	Head	00b4120a												Throax	00b411e8												LUpArm	00b411d9												LFoArm	00b41148												RUpArm	00b411db												RFoArm	00b41204												Waist	00b411f7												Lthigh	00b411f4												Lshank	00b4111b												Rthigh	00b411c8												Rshank	00b411ee												
PacketCount	q0	q1	q2	q3	accX	accY	accZ	gyrX	gyrY	gyrZ	magX	magY	magZ	q0	q1	q2	q3	accX	accY	accZ	gyrX	gyrY	gyrZ	magX	magY	magZ	q0	q1	q2	q3	accX	accY	accZ	gyrX	gyrY	gyrZ	magX	magY	magZ	q0	q1	q2	q3	accX	accY	accZ	gyrX	gyrY	gyrZ	magX	magY	magZ	q0	q1	q2	q3	accX	accY	accZ	gyrX	gyrY	gyrZ	magX	magY	magZ	q0	q1	q2	q3	accX	accY	accZ	gyrX	gyrY	gyrZ	magX	magY	magZ	q0	q1	q2	q3	accX	accY	accZ	gyrX	gyrY	gyrZ	magX	magY	magZ	q0	q1	q2	q3	accX	accY	accZ	gyrX	gyrY	gyrZ	magX	magY	magZ	q0	q1	q2	q3	accX	accY	accZ	gyrX	gyrY	gyrZ	magX	magY	magZ	q0	q1	q2	q3	accX	accY	accZ	gyrX	gyrY	gyrZ	magX	magY	magZ	q0	q1	q2	q3	accX	accY	accZ	gyrX	gyrY	gyrZ	magX	magY	magZ	
0	-0.775304	-0.0945029	0.601753	-0.166931	10.4222	-0.465454	2.50905	0.011548	-0.221972	0.142317	-0.930664	-0.088623	-0.581299	0.411683	0.395108	-0.796696	0.199206	7.81502	-0.0158304	-5.87195	0.0157249	-0.00717578	-0.0248055	-1.07812	-0.408203	0.611328	-0.200677	0.260255	0.514964	-0.791712	-1.79823	-7.51861	4.04603	-0.157923	0.0376497	-0.0415688	-0.000732422	0.933105	-0.563232	0.493703	-0.320983	-0.211765	0.779989	-2.83634	-4.6451	5.67143	-0.0263784	0.00685302	-0.105221	0.248535	0.547607	-0.892578	0.572645	0.464258	-0.261013	-0.623229	-2.91779	7.81528	3.717	0.154734	0.0475787	0.0700237	0.294434	-0.687256	-0.801758	0.621676	0.0789593	0.327105	-0.707309	-4.8636	-0.282407	7.87686	0.418893	-0.0436091	0.0155048	0.429443	0.674805	-0.753906	-0.351208	0.424252	0.833222	-0.0490274	0.00374189	0.120479	-9.1001	0.00448809	-0.00976068	-0.0153484	-0.191162	-0.222168	1.07373	0.0584587	0.0861008	-0.993941	0.0353604	-0.497464	0.525323	-8.39381	0.0319604	-0.0559933	-0.0242133	-0.320068	0.0578613	1.03784	0.165674	0.101678	0.97917	-0.0586449	-3.28932	-0.0818888	-8.20655	-0.000270546	-0.211308	0.00773462	-0.0754395	0.140381	1.1521	-0.0471894	0.055736	-0.995854	-0.0542393	-0.869278	0.842302	-8.97813	-0.046989	-0.26325	0.0955064	-0.331787	-0.207275	1.14771	-0.165325	0.0639676	-0.971512	0.157289	-2.86841	-2.6799	-7.78684	0.0799058	-0.0961184	0.0622545	-0.0949707	0.315186	1.12988	
1	-0.772256	-0.0953244	0.60495	-0.169026	10.5294	-0.276226	1.9983	0.0778637	-0.14204	0.0570497	-0.935547	-0.079834	-0.570557	0.411265	0.394756	-0.797373	0.198054	8.02089	-0.152375	-6.1977	-0.0512077	0.00500205	0.00292086	-1.07593	-0.412598	0.611328	-0.202744	0.259727	0.520873	-0.787482	-2.25196	-9.85376	3.42075	-0.154651	0.0100508	-0.266969	-0.013916	0.946533	-0.556641	0.496301	-0.318859	-0.218346	0.777393	-2.8494	-5.89447	5.87041	-0.104497	-0.17639	-0.300766	0.239014	0.560547	-0.892822	0.574962	0.462475	-0.267319	-0.619739	-2.81208	7.10016	2.99269	0.196856	-0.133131	0.312106	0.279541	-0.700439	-0.808594	0.624609	0.0734206	0.31725	-0.709807	-4.31058	-0.517345	9.89318	0.108504	-0.490972	-0.0392993	0.418701	0.672607	-0.766602	-0.351208	0.424252	0.833222	-0.0490274	0.00374189	0.120479	-9.1001	0.00448809	-0.00976068	-0.0153484	-0.191162	-0.222168	1.07373	0.0569012	0.0864428	-0.99398	0.0359704	-0.527925	0.513835	-8.38029	0.0460722	-0.0351675	-0.0342035	-0.320068	0.0556641	1.04492	0.171249	0.100451	0.978601	-0.0540742	-3.43043	-0.573895	-7.99527	-0.22827	-0.204339	-0.0184665	-0.0654297	0.124512	1.15454	-0.0527677	0.0544505	-0.995595	-0.055145	-1.03172	0.799612	-8.94372	-0.0411571	-0.198352	0.0374735	-0.322998	-0.200439	1.1499	-0.165199	0.0636678	-0.971801	0.155748	-3.0727	-3.00159	-8.28145	-0.0970726	0.0379496	0.0108193	-0.0927734	0.315186	1.13208	
2	-0.771433	-0.0957651	0.60535	-0.171089	10.1854	-0.108677	2.26483	0.0539137	-0.026851	0.0610435	-0.93335	-0.079834	-0.574951	0.411901	0.393688	-0.797713	0.197489	8.13147	-0.122861	-6.16765	-0.0335939	0.0250856	-0.0100411	-1.07349	-0.414795	0.616211	-0.209738	0.255623	0.521795	-0.786382	-2.34718	-9.54473	3.44802	0.0793537	0.0444646	-0.365206	-0.0246582	0.940186	-0.561035	0.501931	-0.313042	-0.223963	0.774539	-2.74779	-6.93658	6.92628	-0.0810157	-0.214479	-0.367144	0.223145	0.566895	-0.888428	0.575705	0.461058	-0.281631	-0.613737	-2.68528	8.99754	3.68754	0.303553	-0.301365	0.434357	0.256348	-0.713867	-0.79248	0.626565	0.0648917	0.302049	-0.715522	-4.28552	-1.46585	12.2551	0.413615	-0.648785	-0.210455	0.391113	0.666016	-0.783691	-0.351208	0.424252	0.833222	-0.0490274	0.00374189	0.120479	-9.1001	0.00448809	-0.00976068	-0.0153484	-0.191162	-0.222168	1.07373	0.0561263	0.0872696	-0.993929	0.0365898	-0.555738	0.492929	-8.39645	0.0328021	-0.0203709	-0.0408539	-0.322266	0.0578613	1.04248	0.176644	0.0991605	0.97783	-0.0530337	-3.57448	-0.630063	-8.27461	-0.0247475	-0.213998	-0.0430871	-0.0537109	0.11792	1.15479	-0.0543124	0.0534099	-0.995618	-0.0542509	-1.16933	0.827858	-8.97842	0.0589107	0.0215256	0.0297571	-0.316406	-0.202637	1.14771	-0.166127	0.0627678	-0.971968	0.154077	-3.44071	-3.14218	-9.19494	-0.0564	-0.0541182	0.033387	-0.0927734	0.312988	1.13232	
3	-0.771445	-0.0951417	0.604942	-0.172814	10.6767	-0.262796	2.11803	0.0247955	0.061113	0.0773133	-0.935547	-0.079834	-0.572754	0.41299	0.3929	-0.797263	0.198596	8.01262	0.0617427	-6.06443	0.00620031	0.0894586	0.0098773	-1.07617	-0.406006	0.608887	-0.215366	0.253096	0.524546	-0.783844	-1.9858	-10.5867	3.14556	0.0367955	0.0510706	-0.262351	-0.0397949	0.947021	-0.554443	0.506078	-0.308721	-0.230212	0.771738	-2.24165	-8.12051	7.5115	-0.131776	-0.167375	-0.251459	0.207031	0.577881	-0.886475	0.578203	0.456495	-0.293266	-0.609335	-2.37676	9.74495	4.07051	0.131014	-0.269705	0.373978	0.234863	-0.725098	-0.788086	0.627663	0.052735	0.291829	-0.719788	-3.79482	-1.9011	14.2944	-0.102427	-0.558266	-0.203699	0.358398	0.672607	-0.796631	-0.351208	0.424252	0.833222	-0.0490274	0.00374189	0.120479	-9.1001	0.00448809	-0.00976068	-0.0153484	-0.191162	-0.222168	1.07373	0.0555364	0.08754	-0.993929	0.0368474	-0.562345	0.516822	-8.40961	0.0296436	-0.00198581	-0.0273028	-0.318115	0.0603027	1.0354	0.179679	0.0981956	0.97727	-0.054931	-3.66997	-0.431451	-8.30594	0.0707182	-0.0939545	-0.0593247	-0.0422363	0.125	1.15234	-0.0524042	0.053759	-0.995735	-0.0536215	-1.08176	0.766671	-9.02935	0.0084395	0.0867901	-0.00922694	-0.320801	-0.202637	1.14551	-0.167422	0.0619699	-0.972337	0.150631	-3.38491	-3.75489	-9.66305	-0.123553	-0.0638144	0.0763539	-0.0876465	0.302002	1.12793	
4	-0.773646	-0.0939913	0.601384	-0.176	10.0091	-0.227191	2.63423	0.062635	0.20096	0.0978269	-0.929443	-0.0688477	-0.577148	0.41299	0.3929	-0.797263	0.198596	8.01262	0.0617427	-6.06443	0.00620031	0.0894586	0.0098773	-1.07617	-0.406006	0.608887	-0.218431	0.250645	0.523655	-0.784379	-1.73958	-9.68505	3.82722	0.0351508	-0.0111548	-0.0883492	-0.0461426	0.944824	-0.561035	0.507772	-0.307067	-0.233493	0.770298	-2.17458	-8.56759	7.46865	-0.063554	-0.0681717	-0.0615888	0.196045	0.575439	-0.888672	0.578696	0.454261	-0.298262	-0.60811	-2.10452	9.34059	4.33888	0.150386	-0.272249	0.300509	0.224121	-0.729492	-0.790283	0.626137	0.0444764	0.286413	-0.723838	-3.57792	-2.52831	14.9459	-0.0202112	-0.255493	-0.253442	0.33252	0.67041	-0.802979	-0.351208	0.424252	0.833222	-0.0490274	0.00374189	0.120479	-9.1001	0.00448809	-0.00976068	-0.0153484	-0.191162	-0.222168	1.07373	0.0552175	0.0879104	-0.993841	0.0387645	-0.552929	0.462424	-8.40031	0.0930817	0.0117929	-0.0310875	-0.320068	0.0600586	1.04468	0.181988	0.09778	0.977018	-0.0524914	-3.38155	-0.680196	-8.13631	-0.149961	-0.0690416	0.0152365	-0.0371094	0.113525	1.15479	-0.0524042	0.053759	-0.995735	-0.0536215	-1.08176	0.766671	-9.02935	0.0084395	0.0867901	-0.00922694	-0.320801	-0.202637	1.14551	-0.171808	0.0603	-0.971597	0.151147	-3.24255	-3.03874	-9.54028	0.0282924	-0.18966	0.0920514	-0.0810547	0.306396	1.12769	
5	-0.776846	-0.092978	0.596465	-0.179148	9.64089	-0.423491	3.00541	0.0828459	0.259797	0.0665788	-0.927002	-0.0732422	-0.589844	0.413513	0.392176	-0.79679	0.200826	7.90823	0.0440692	-5.60278	0.0303002	0.0582321	0.0139831	-1.07422	-0.399658	0.599121	-0.218326	0.249975	0.521322	-0.786174	-1.52609	-10.1986	3.71975	0.15891	-0.0428147	0.0565292	-0.0458984	0.938477	-0.56543	0.504616	-0.308173	-0.235263	0.77139	-1.98379	-7.58476	7.10189	-0.0940501	-0.0330646	0.134245	0.195801	0.579834	-0.884277	0.579859	0.449782	-0.303383	-0.607798	-1.99182	10.0742	4.3787	-0.112583	-0.179082	0.124933	0.200195	-0.729492	-0.788086	0.623497	0.0402707	0.287246	-0.72603	-3.41133	-2.93692	14.4389	-0.106101	0.000296878	-0.185376	0.327881	0.678955	-0.798828	-0.351208	0.424252	0.833222	-0.0490274	0.00374189	0.120479	-9.1001	0.00448809	-0.00976068	-0.0153484	-0.191162	-0.222168	1.07373	0.0549044	0.0879722	-0.993815	0.0397244	-0.547234	0.426267	-8.40544	0.0256402	0.00837819	-0.0167428	-0.316162	0.0666504	1.04712	0.182699	0.0977727	0.976988	-0.0505525	-3.34075	-0.65321	-8.23581	-0.148192	-0.0346776	0.0168484	-0.0371094	0.113525	1.15698	-0.0497228	0.0533374	-0.995791	-0.0555283	-1.03501	0.807702	-9.12225	-0.095569	0.00811431	0.0407087	-0.329346	-0.209473	1.14331	-0.176489	0.0590244	-0.970735	0.151794	-3.20963	-3.02772	-9.1457	0.0569468	-0.168965	0.0544251	-0.0722656	0.308838	1.13013	
6	-0.778481	-0.0926596	0.593969	-0.180505	9.36554	-0.167496	3.22668	0.0688762	0.242394	0.0576292	-0.918213	-0.0708008	-0.598633	0.41307	0.391992	-0.796638	0.20269	7.82149	-0.0843419	-5.34989	0.0722101	0.00697335	0.0097383	-1.07446	-0.395264	0.599121	-0.217504	0.249036	0.518494	-0.788566	-1.65924	-9.36052	3.90785	0.273352	-0.0900092	0.101909	-0.0461426	0.940674	-0.57251	0.500042	-0.310507	-0.236177	0.773151	-2.17586	-7.22908	6.93354	-0.0978238	0.000374887	0.215548	0.202637	0.575684	-0.886475	0.580851	0.445344	-0.302482	-0.610562	-1.63934	9.07854	4.68045	-0.176477	-0.0858962	-0.0729728	0.202148	-0.725098	-0.801758	0.622035	0.0385275	0.290035	-0.72627	-3.31628	-3.11984	14.2698	-0.238121	0.0991854	-0.165906	0.323486	0.68335	-0.794678	-0.351208	0.424252	0.833222	-0.0490274	0.00374189	0.120479	-9.1001	0.00448809	-0.00976068	-0.0153484	-0.191162	-0.222168	1.07373	0.0547384	0.0878994	-0.993833	0.0396757	-0.528917	0.436458	-8.40349	0.0036905	0.00545222	-0.01475	-0.315918	0.0622559	1.04248	0.183115	0.0982729	0.976902	-0.0497382	-3.33675	-0.641381	-8.46721	0.0493834	0.00694687	-0.00156073	-0.0349121	0.111328	1.16162	-0.0546326	0.0515998	-0.99537	-0.0599239	-1.09658	0.799292	-9.0289	-0.202666	-0.248117	0.0942636	-0.315918	-0.213623	1.15015	-0.178954	0.0587076	-0.970307	0.151764	-3.15636	-2.78074	-8.63039	0.0213924	-0.188206	0.0481225	-0.060791	0.304443	1.12793	
7	-0.781541	-0.0913982	0.589276	-0.183283	9.28934	-0.702194	3.54909	0.0692645	0.237001	0.0732801	-0.911865	-0.064209	-0.60498	0.412449	0.39174	-0.796973	0.203124	7.97012	-0.0387036	-5.54151	-0.0163219	-0.0248837	-0.0125353	-1.07471	-0.388672	0.593994	-0.212806	0.250209	0.518112	-0.789727	-1.72714	-8.9439	3.88567	-0.0902103	-0.0675619	0.194192	-0.0351562	0.931641	-0.567627	0.498076	-0.310832	-0.234523	0.774792	-2.0595	-6.71416	6.45166	0.0736698	0.00814741	0.239762	0.204834	0.575684	-0.886475	0.580356	0.443539	-0.299655	-0.613732	-1.6565	9.1228	4.4751	-0.106651	-0.0177308	-0.139877	0.203613	-0.709473	-0.803955	0.619208	0.0381121	0.297309	-0.725766	-3.4763	-3.46085	12.5762	-0.239653	0.230456	-0.0721722	0.331543	0.698486	-0.775879	-0.351208	0.424252	0.833222	-0.0490274	0.00374189	0.120479	-9.1001	0.00448809	-0.00976068	-0.0153484	-0.191162	-0.222168	1.07373	0.054389	0.0877269	-0.993875	0.039481	-0.562205	0.452539	-8.41321	-0.00456231	0.00350561	-0.0138124	-0.317871	0.0578613	1.04492	0.187101	0.0995522	0.97608	-0.0484744	-3.83772	-0.621338	-8.78317	-0.0846046	-0.234662	0.0826429	-0.0251465	0.104492	1.15063	-0.0618927	0.048136	-0.994771	-0.0654479	-1.11989	1.01406	-8.90707	-0.168336	-0.293281	0.107662	-0.302246	-0.219971	1.14575	-0.184036	0.0581481	-0.96907	0.153795	-3.04842	-2.91917	-8.06803	0.177733	-0.197394	0.032018	-0.0498047	0.313477	1.11401	
8	-0.782927	-0.0908369	0.586835	-0.185469	8.97054	-0.288998	3.54522	0.0121809	0.084038	0.0750278	-0.905029	-0.0661621	-0.613525	0.411237	0.391938	-0.797783	0.202015	7.8493	-0.197315	-5.60618	-0.0187529	-0.0770287	-0.0237962	-1.06372	-0.386475	0.601074	-0.209019	0.248836	0.515243	-0.793042	-2.15373	-9.02004	3.87624	0.196434	-0.153877	0.151687	-0.0373535	0.92749	-0.581299	0.493944	-0.310184	-0.231105	0.778714	-2.72714	-6.46092	6.48301	0.155806	-0.0482816	0.239761	0.20752	0.566895	-0.890625	0.577586	0.444383	-0.297595	-0.616729	-1.71618	8.23121	4.08011	0.0271848	0.00961552	-0.21208	0.210449	-0.713867	-0.803955	0.616781	0.0433494	0.299431	-0.726666	-3.45625	-2.72419	12.0805	0.10048	0.27022	-0.0384819	0.342529	0.694092	-0.784424	-0.351208	0.424252	0.833222	-0.0490274	0.00374189	0.120479	-9.1001	0.00448809	-0.00976068	-0.0153484	-0.191162	-0.222168	1.07373	0.053913	0.0875691	-0.993917	0.0394114	-0.552872	0.441804	-8.46991	0.000977767	-0.0100925	-0.011996	-0.311768	0.0644531	1.04224	0.195787	0.101148	0.974195	-0.0487854	-3.77549	-0.114909	-9.37982	-0.0533599	-0.361821	0.0741954	0.000488281	0.100342	1.15747	-0.0683549	0.0468981	-0.99419	-0.0686548	-1.37043	1.24461	-8.84272	-0.0866876	-0.235845	0.0224897	-0.279541	-0.228516	1.15747	-0.188281	0.0579777	-0.967727	0.157141	-3.2184	-2.68701	-7.84358	0.0896585	-0.144226	-0.0101617	-0.043457	0.324463	1.11621	
9	-0.782692	-0.0894673	0.586701	-0.187541	8.62209	-0.950089	3.56575	0.0299901	-0.0518834	0.0813295	-0.905518	-0.0598145	-0.61377	0.410458	0.392338	-0.7981	0.201572	7.60583	-0.129274	-5.45695	0.0119989	-0.0159304	-0.038618	-1.06128	-0.397461	0.60376	-0.206811	0.247234	0.512538	-0.79587	-1.54255	-8.47394	4.18604	0.0380062	-0.0845536	0.0801569	-0.032959	0.929688	-0.583496	0.492524	-0.307525	-0.225818	0.782212	-2.31263	-5.85007	6.55554	0.182616	-0.0304081	0.135476	0.208008	0.555908	-0.896973	0.575452	0.445424	-0.295455	-0.618998	-1.51427	8.72096	4.55428	-0.185797	0.0243421	-0.160327	0.212402	-0.71167	-0.806396	0.615071	0.044442	0.304591	-0.725904	-3.37699	-3.14264	11.8696	-0.0908358	0.201762	-0.0678826	0.346924	0.694092	-0.771484	-0.351208	0.424252	0.833222	-0.0490274	0.00374189	0.120479	-9.1001	0.00448809	-0.00976068	-0.0153484	-0.191162	-0.222168	1.07373	0.0526812	0.0871201	-0.994052	0.0386672	-0.589831	0.47403	-8.46639	-0.012146	-0.0381395	0.0010594	-0.311768	0.0644531	1.04224	0.204001	0.102171	0.972569	-0.045319	-3.99095	-0.72627	-9.12207	-0.0916474	-0.281824	0.0658029	0.0078125	0.0935059	1.15527	-0.0729832	0.0468096	-0.993004	-0.0801613	-1.30969	0.501415	-8.89793	0.000885618	-0.0527624	-0.122646	-0.271484	-0.259033	1.14673	-0.19188	0.0579361	-0.966733	0.15891	-3.37544	-2.61562	-7.9517	0.0578302	-0.124388	-0.00272308	-0.0368652	0.32666	1.11621	
10	-0.781119	-0.0897036	0.588269	-0.189064	8.81696	-0.814743	3.33786	0.033228	-0.0682916	0.0693953	-0.914062	-0.0620117	-0.609375	0.409868	0.392527	-0.798315	0.201554	7.59634	-0.121495	-5.42736	0.0126746	-0.0358752	-0.0199855	-1.06567	-0.395264	0.60376	-0.203279	0.246937	0.51452	-0.795593	-1.66895	-8.52537	4.1846	-0.228357	-0.0725538	0.0730645	-0.0310059	0.931641	-0.579102	0.489616	-0.307901	-0.226602	0.783661	-2.21234	-5.93974	6.80157	-0.117876	-0.0482049	0.100458	0.210205	0.560303	-0.897217	0.574762	0.443726	-0.290928	-0.62299	-1.76159	7.34178	3.99693	-0.0114202	-0.00496554	-0.189292	0.225342	-0.702881	-0.806396	0.614087	0.0468544	0.307526	-0.725348	-3.4437	-2.62431	11.3903	-0.0235398	0.15866	0.00873078	0.351074	0.696289	-0.769287	-0.351208	0.424252	0.833222	-0.0490274	0.00374189	0.120479	-9.1001	0.00448809	-0.00976068	-0.0153484	-0.191162	-0.222168	1.07373	0.0509957	0.0864677	-0.99425	0.0372679	-0.591423	0.472065	-8.38853	-0.0705988	-0.0549914	0.0109298	-0.309082	0.0556641	1.04712	0.210383	0.102958	0.97129	-0.0416552	-3.94555	-0.324224	-7.97756	-0.246233	-0.260498	0.0687192	0.0314941	0.0825195	1.16016	-0.0748016	0.0474992	-0.992836	-0.0801574	-1.48081	1.25563	-8.82721	0.00279066	-0.0564489	-0.0135354	-0.265137	-0.252441	1.15796	-0.192304	0.0593019	-0.966928	0.156693	-3.44774	-3.54717	-8.04271	-0.0691308	-0.0059347	-0.0389758	-0.0322266	0.320068	1.12085	
11	-0.778223	-0.0914018	0.591447	-0.190277	8.96709	-0.55721	3.20685	0.0704139	-0.224051	0.0174343	-0.920898	-0.0578613	-0.607422	0.409894	0.391612	-0.798782	0.201431	7.61387	-0.217456	-5.46035	-0.0202456	0.0102013	0.0145815	-1.06567	-0.395264	0.608398	-0.200019	0.246945	0.517866	-0.794245	-1.91921	-8.62776	4.23963	-0.17985	-0.0713336	0.0329799	-0.0310059	0.940186	-0.565674	0.485449	-0.309425	-0.229956	0.784676	-2.59411	-5.90362	7.03577	-0.243393	-0.0782182	0.135691	0.20752	0.569092	-0.890625	0.568636	0.448883	-0.293419	-0.623749	-1.90645	8.38698	4.01392	0.263456	0.00786674	-0.202814	0.22998	-0.709473	-0.801758	0.612743	0.0508357	0.30694	-0.726464	-3.68033	-2.24451	11.9925	0.0824513	0.151349	-0.038641	0.351074	0.696289	-0.775879	-0.351208	0.424252	0.833222	-0.0490274	0.00374189	0.120479	-9.1001	0.00448809	-0.00976068	-0.0153484	-0.191162	-0.222168	1.07373	0.0491567	0.085279	-0.99449	0.036058	-0.633362	0.446707	-8.33596	-0.0466719	-0.0336397	0.0359402	-0.302734	0.0581055	1.04004	0.215174	0.104054	0.970059	-0.0431068	-3.69635	0.37167	-7.51264	0.0544773	-0.155148	0.0283112	0.0407715	0.078125	1.15137	-0.0741965	0.0473886	-0.993065	-0.0779125	-1.45925	1.25707	-8.84258	0.116171	0.0661726	0.00478062	-0.267334	-0.250244	1.15112	-0.193197	0.0588723	-0.966201	0.160201	-3.24911	-3.04424	-8.23999	0.165373	-0.0318238	0.00198331	-0.0393066	0.328857	1.11377	
12	-0.775423	-0.0926499	0.594923	-0.190269	9.68499	-0.932776	3.23262	0.0249976	-0.186518	-0.0176732	-0.925293	-0.0622559	-0.596436	0.409894	0.391612	-0.798782	0.201431	7.61387	-0.217456	-5.46035	-0.0202456	0.0102013	0.0145815	-1.06567	-0.395264	0.608398	-0.196956	0.248378	0.522855	-0.791289	-2.00365	-9.95365	3.93365	-0.225526	-0.0225657	0.0644684	-0.0246582	0.950928	-0.559082	0.482773	-0.310396	-0.230623	0.785747	-2.83378	-5.9986	7.06039	-0.0144432	-0.00716654	0.0943647	0.216553	0.564697	-0.892822	0.56887	0.448208	-0.291583	-0.624881	-2.09561	8.65393	4.28642	-0.193048	0.00486253	-0.0207741	0.227539	-0.707275	-0.806396	0.61227	0.0501278	0.311178	-0.725107	-3.88238	-3.82916	11.6944	-0.00412601	0.0837524	-0.0225547	0.355225	0.700684	-0.771729	-0.351208	0.424252	0.833222	-0.0490274	0.00374189	0.120479	-9.1001	0.00448809	-0.00976068	-0.0153484	-0.191162	-0.222168	1.07373	0.0468733	0.0836674	-0.994775	0.0350029	-0.695769	0.606339	-8.38167	0.00773109	-0.0749981	0.0416735	-0.300537	0.0556641	1.05176	0.217255	0.103849	0.969738	-0.0403086	-3.99943	-0.135012	-6.97497	-0.119784	-0.0512962	-0.00658422	0.0480957	0.0734863	1.1582	-0.0742647	0.0472761	-0.993232	-0.0757631	-1.501	1.2049	-9.06584	0.176271	0.0130072	7.40914e-05	-0.271973	-0.248047	1.15796	-0.192617	0.059065	-0.966373	0.159791	-3.59536	-3.42741	-8.84506	-0.0733445	0.0522982	-0.0243831	-0.0322266	0.320068	1.11841	
13	-0.77196	-0.0948419	0.599506	-0.188881	10.3503	-0.642625	2.48524	-0.00971473	-0.243714	-0.041204	-0.931885	-0.0625	-0.581543	0.410162	0.390093	-0.799319	0.2017	8.03449	-0.279072	-5.7959	-0.040272	0.000551914	0.013774	-1.07007	-0.390869	0.605957	-0.19679	0.248289	0.522046	-0.791892	-2.07765	-8.88922	4.04629	0.0390354	-0.00566123	0.017876	-0.0266113	0.940186	-0.558838	0.482803	-0.311111	-0.232188	0.784984	-2.64343	-6.73228	7.41679	-0.0373136	0.0380112	-0.0458089	0.220947	0.566895	-0.88623	0.564343	0.453912	-0.295801	-0.622883	-2.43835	9.35264	4.48846	0.419779	0.0610107	-0.0410782	0.239014	-0.720459	-0.79248	0.61319	0.0508378	0.310462	-0.724587	-4.09432	-2.84504	11.758	-0.0962833	0.0103286	0.0461169	0.359619	0.698486	-0.762939	-0.361931	0.410366	0.835421	-0.051758	0.0267365	0.114741	-9.08507	0.0174989	0.00991081	-0.0174033	-0.190918	-0.22876	1.07617	0.0464109	0.0835694	-0.994802	0.0350822	-0.69418	0.496714	-8.30599	0.00809541	-0.00867705	-0.00553103	-0.300537	0.0581055	1.04712	0.217197	0.103461	0.969821	-0.0396063	-3.93103	-0.257916	-7.09834	0.0253965	0.0219323	-0.0453005	0.0480957	0.0712891	1.15137	-0.0775816	0.0478653	-0.992931	-0.0760125	-1.51475	1.15353	-8.81406	-0.0132527	-0.132297	-0.0397609	-0.260742	-0.250244	1.15356	-0.192554	0.0590398	-0.966893	0.156702	-3.58847	-3.30643	-8.65691	-0.142626	-0.0152372	0.0277022	-0.0341797	0.317871	1.11865	
14	-0.770776	-0.0958057	0.600992	-0.188505	10.7068	-0.890356	2.33587	0.0284251	-0.171797	-0.0402858	-0.934082	-0.0625	-0.574951	0.410092	0.389617	-0.799414	0.202387	7.97321	-0.0385349	-5.87005	-0.000975846	0.0340026	-0.00213912	-1.07446	-0.390869	0.605957	-0.19687	0.249527	0.522454	-0.791215	-2.0339	-8.94391	4.03984	-0.0774103	0.0914223	0.0203345	-0.0244141	0.940186	-0.549561	0.483555	-0.311697	-0.231751	0.784417	-2.81813	-5.84212	7.44453	0.014465	0.0828049	-0.0432927	0.216309	0.571289	-0.890625	0.565721	0.453533	-0.294792	-0.622387	-2.08258	9.84506	4.40935	-0.10576	0.0871164	0.0480822	0.232422	-0.718262	-0.799316	0.614203	0.049717	0.311225	-0.723479	-3.95878	-3.53978	11.959	-0.129222	-0.0213413	0.062311	0.359619	0.698486	-0.762939	-0.361024	0.410703	0.835661	-0.0515309	0.0417947	0.110798	-9.07742	0.0193363	0.00868105	-0.0170922	-0.188965	-0.222168	1.07373	0.0464109	0.0835694	-0.994802	0.0350822	-0.69418	0.496714	-8.30599	0.00809541	-0.00867705	-0.00553103	-0.300537	0.0581055	1.04712	0.216267	0.103578	0.96994	-0.0414266	-3.98599	-0.150464	-7.40084	0.157827	0.0654449	-0.043863	0.0361328	0.0778809	1.15137	-0.0801452	0.0474772	-0.992519	-0.0789264	-1.56642	1.23741	-8.9191	-0.102924	-0.119728	0.0339024	-0.258301	-0.254395	1.1604	-0.192554	0.0590398	-0.966893	0.156702	-3.58847	-3.30643	-8.65691	-0.142626	-0.0152372	0.0277022	-0.0341797	0.317871	1.11865	
15	-0.770527	-0.0970311	0.601093	-0.188575	10.6517	-0.486647	2.33049	0.0271471	0.0459976	0.00309122	-0.933594	-0.0712891	-0.574951	0.410659	0.389178	-0.799269	0.202652	8.08371	-0.233582	-5.97831	0.00569241	0.04802	-0.00868808	-1.07007	-0.393066	0.608398	-0.198718	0.251894	0.522994	-0.789644	-2.04547	-9.91613	3.95883	0.0473992	0.121855	-0.0458755	-0.0202637	0.94873	-0.552246	0.486196	-0.313085	-0.231107	0.78242	-2.85243	-6.77678	7.02442	0.0974407	0.112384	-0.112311	0.216309	0.571289	-0.890625	0.567516	0.453362	-0.293161	-0.621647	-2.53985	8.34799	4.1337	0.0834683	0.096991	0.024789	0.236572	-0.716064	-0.797119	0.616217	0.0501102	0.310005	-0.722262	-4.16979	-2.10575	12.2411	-0.0250496	0.00600246	0.062736	0.359375	0.700684	-0.765137	-0.360138	0.411085	0.835876	-0.0512054	0.0340824	0.110904	-9.09472	0.0148266	0.0103801	-0.0162345	-0.190674	-0.230957	1.06982	0.0480194	0.0836051	-0.994693	0.0359122	-0.69555	0.53276	-8.41238	0.0267645	0.0496098	-0.021518	-0.298584	0.0622559	1.04712	0.21208	0.103067	0.970916	-0.0414861	-3.91443	-0.0753193	-8.03733	-0.0187187	0.211256	-0.0503265	0.0336914	0.0847168	1.15552	-0.0838334	0.0466836	-0.991433	-0.0886149	-1.68502	1.58791	-8.66475	-0.531871	-0.15991	0.0892853	-0.250732	-0.276367	1.15186	-0.193339	0.0584354	-0.966755	0.156812	-3.52804	-3.03628	-8.35902	0.0702705	0.00495954	-0.00719178	-0.0319824	0.315674	1.12549	
16	-0.771395	-0.0974563	0.599507	-0.189851	10.2703	-0.484843	2.56311	0.0567363	0.0653621	0.00932255	-0.929199	-0.0732422	-0.579102	0.411108	0.389332	-0.799133	0.201986	8.08512	-0.243866	-5.8673	-0.0458008	0.0237708	-0.0575232	-1.06763	-0.399658	0.604004	-0.20143	0.253781	0.521668	-0.78923	-2.07768	-9.43881	3.67334	-0.0295906	0.138937	-0.0520028	-0.0268555	0.946777	-0.556641	0.488883	-0.314248	-0.230905	0.780336	-2.79156	-6.8915	6.4408	0.0453987	0.0915908	-0.122523	0.218262	0.577881	-0.888672	0.569488	0.453847	-0.293268	-0.619435	-2.05069	8.66818	3.98123	0.00541087	0.0528938	0.0426391	0.239258	-0.722656	-0.79248	0.61926	0.0459203	0.312187	-0.718991	-4.02202	-2.03745	12.8015	-0.17529	-0.0801607	0.0977369	0.365967	0.702881	-0.758789	-0.35906	0.411676	0.83607	-0.0508468	0.0494187	0.117194	-9.10638	0.0133512	0.00850564	-0.0170935	-0.192871	-0.22876	1.07397	0.048595	0.083679	-0.994664	0.035765	-0.677431	0.489085	-8.3966	-0.0144626	0.0397062	-0.0256143	-0.300537	0.0581055	1.04004	0.206568	0.102321	0.972279	-0.0391586	-4.15224	-0.595623	-8.77264	-0.0255843	0.241278	-0.0489999	0.0246582	0.0754395	1.15576	-0.0856522	0.0461218	-0.990838	-0.0936781	-1.68565	1.51038	-8.79218	-0.0880421	-0.0475541	0.0206382	-0.236816	-0.289307	1.15894	-0.193779	0.0583264	-0.96685	0.155723	-3.50503	-2.50523	-7.99274	-0.0996563	-0.00957848	0.00927318	-0.0341797	0.317871	1.12085	
17	-0.773365	-0.0976015	0.596659	-0.19073	9.86662	-0.451551	2.74042	0.0390164	0.141949	-0.015415	-0.931396	-0.0732422	-0.583496	0.411173	0.390144	-0.798904	0.201191	7.88561	-0.118836	-5.67234	-0.0226885	-0.0175075	-0.0735615	-1.07007	-0.395264	0.601318	-0.204389	0.254153	0.519477	-0.789795	-2.03157	-9.11925	3.46003	0.143621	0.0638439	-0.0669831	-0.0288086	0.94458	-0.556641	0.491315	-0.314273	-0.230338	0.778965	-2.63053	-6.75868	6.03735	0.0360553	0.0332311	-0.0845137	0.211426	0.577881	-0.886475	0.573811	0.450994	-0.290988	-0.618604	-2.17458	9.71362	3.86556	-0.357212	0.0317724	0.123251	0.232178	-0.713867	-0.801758	0.620465	0.0409954	0.315383	-0.716852	-3.75814	-2.60006	12.1199	-0.289244	-0.0689065	-0.00903158	0.363281	0.71582	-0.754883	-0.358271	0.411814	0.836362	-0.0504937	0.0372314	0.108217	-9.08631	0.011326	0.00700313	-0.016944	-0.190918	-0.224365	1.07397	0.049022	0.0836934	-0.994687	0.0345067	-0.66987	0.537834	-8.42494	-0.0479614	0.0221376	-0.0139951	-0.302734	0.0581055	1.04468	0.201256	0.101609	0.973376	-0.041352	-4.09133	0.0263648	-9.03272	0.0632746	0.204292	-0.0763035	0.00830078	0.079834	1.15771	-0.0859223	0.0463798	-0.990839	-0.0932991	-1.71098	1.46534	-8.68346	0.0402632	0.0260909	-0.0163682	-0.239014	-0.284912	1.14746	-0.192406	0.0593226	-0.967466	0.1532	-3.584	-2.91862	-7.90727	-0.0823903	0.0731394	-0.0450981	-0.036377	0.311279	1.12329	
18	-0.776131	-0.0964814	0.593265	-0.190652	9.69675	-0.636814	2.76803	-0.0337343	0.20129	0.000152544	-0.924561	-0.0751953	-0.592041	0.411544	0.390724	-0.798407	0.201276	7.69397	-0.0384405	-5.44161	0.0181011	0.0298345	-0.0427071	-1.06763	-0.397461	0.601562	-0.206789	0.252955	0.517598	-0.790787	-2.04563	-8.96699	3.3227	0.18668	-0.0158275	-0.0791388	-0.0332031	0.94043	-0.567871	0.493922	-0.311711	-0.228726	0.778821	-2.65954	-6.41852	6.13052	0.0922419	-0.0401818	-0.0582536	0.211914	0.569092	-0.890625	0.576162	0.447912	-0.289825	-0.619204	-2.343	8.09208	3.98105	-0.000611261	-0.0208596	0.0432246	0.229492	-0.702881	-0.808594	0.620587	0.0378412	0.316268	-0.71653	-3.76049	-2.26289	11.8846	-0.0893604	-0.0355069	-0.0717714	0.36084	0.720215	-0.75293	-0.358271	0.411814	0.836362	-0.0504937	0.0372314	0.108217	-9.08631	0.011326	0.00700313	-0.016944	-0.190918	-0.224365	1.07397	0.0487301	0.0838783	-0.994691	0.034345	-0.685155	0.558747	-8.39656	0.0136589	0.00865328	-0.0333452	-0.30249	0.0515137	1.04492	0.196323	0.100248	0.974526	-0.0413174	-3.95245	-0.00560194	-8.47056	-0.00737184	0.190071	-0.0900806	-0.00585938	0.0842285	1.15552	-0.0816503	0.0463665	-0.991523	-0.0898128	-1.63278	1.48669	-8.73603	0.208733	0.234972	0.0156573	-0.250488	-0.278564	1.15186	-0.190268	0.0602779	-0.967654	0.154308	-3.30557	-2.83382	-7.92945	0.0510337	0.0963665	-0.073484	-0.0432129	0.313477	1.12305	
19	-0.779418	-0.0958223	0.588828	-0.191329	9.16873	-0.36705	3.17992	0.0211789	0.20421	-0.0123444	-0.92041	-0.0686035	-0.60498	0.412824	0.390687	-0.797649	0.201732	7.81096	-0.130714	-5.53592	-0.0278156	0.0898983	-0.0314847	-1.07202	-0.397461	0.594482	-0.208561	0.250606	0.515933	-0.792157	-1.73668	-9.19848	3.73389	0.111	-0.0510761	-0.0906873	-0.0375977	0.942627	-0.563477	0.495723	-0.307977	-0.22691	0.779693	-2.47225	-6.31856	6.15836	0.253667	-0.0775749	-0.0536456	0.203613	0.558105	-0.892578	0.5769	0.44611	-0.290901	-0.619313	-1.90214	8.37992	4.17261	-0.0585541	-0.0550896	0.0393512	0.220947	-0.707275	-0.810791	0.619952	0.0330711	0.319285	-0.715977	-3.73218	-2.41468	12.024	-0.258453	-0.0120096	-0.0908172	0.354004	0.729004	-0.742432	-0.357713	0.411613	0.836709	-0.05034	0.0367397	0.114724	-9.08229	0.015735	0.00633679	-0.0174844	-0.192871	-0.230957	1.07202	0.0490894	0.084409	-0.994596	0.0352603	-0.665186	0.534967	-8.38364	0.0401379	0.0262504	-0.0304579	-0.307129	0.0581055	1.04248	0.193921	0.0987272	0.975188	-0.0406984	-3.7522	-0.333981	-8.01736	0.00299043	0.0789597	-0.0793855	-0.010498	0.0864258	1.15771	-0.0747146	0.0468043	-0.992648	-0.0829226	-1.49654	1.36469	-8.75353	0.316658	0.328448	-0.0139411	-0.271484	-0.259033	1.14673	-0.187132	0.06146	-0.968186	0.15434	-3.21872	-2.9005	-8.26341	-0.0349913	0.13023	-0.061608	-0.0476074	0.313477	1.12549	
20	-0.781828	-0.0947983	0.585724	-0.191533	9.12186	-0.643908	3.45582	-0.00990944	0.128866	-0.00155575	-0.90918	-0.0705566	-0.613525	0.41331	0.390523	-0.797468	0.201772	7.79011	-0.0603091	-5.47885	-0.0223216	0.0532136	-0.0255074	-1.06763	-0.399658	0.594482	-0.209852	0.247804	0.515756	-0.792812	-1.71372	-8.53733	3.96354	-0.019566	-0.0818916	-0.105459	-0.041748	0.94043	-0.574707	0.496146	-0.305157	-0.229879	0.779663	-2.26597	-6.65329	6.72982	-0.0918547	-0.144803	-0.0711886	0.196533	0.5625	-0.89502	0.578289	0.444132	-0.29033	-0.619707	-2.08574	8.80357	4.41827	-0.178763	-0.0431084	0.0611113	0.2229	-0.698486	-0.810791	0.618867	0.0270336	0.324016	-0.715043	-3.68443	-3.45902	11.9593	-0.228033	-0.0212477	-0.112548	0.349609	0.735352	-0.731934	-0.356899	0.411883	0.836939	-0.0500957	0.0419627	0.110577	-9.07505	0.0171211	0.00758814	-0.0177538	-0.193359	-0.219971	1.06958	0.049475	0.084635	-0.994493	0.0370485	-0.659195	0.502761	-8.39551	0.0858179	0.0437068	-0.0275542	-0.309326	0.0600586	1.05176	0.193107	0.0983156	0.975366	-0.0412883	-3.55823	-0.416216	-7.97569	0.0524291	0.0663117	-0.0632716	-0.0124512	0.0773926	1.15332	-0.0705309	0.0470745	-0.993299	-0.0785279	-1.46683	1.29311	-8.93457	0.339429	0.363258	-0.014439	-0.278564	-0.248291	1.14893	-0.183284	0.06285	-0.969248	0.151706	-3.2292	-3.2556	-8.5826	-0.145995	0.162446	-0.0663326	-0.052002	0.308838	1.13013	
21	-0.782435	-0.0946055	0.58503	-0.19127	9.36197	-0.526082	3.52142	-0.0179863	0.0673334	-0.021767	-0.90918	-0.0727539	-0.611328	0.414264	0.390289	-0.796793	0.20293	7.95936	-0.0810046	-5.71343	0.0143641	0.0954622	-0.0152051	-1.07861	-0.397461	0.594482	-0.210198	0.246843	0.516856	-0.792304	-1.88976	-9.17804	4.03635	-0.0724875	-0.0522116	-0.0986687	-0.0458984	0.938477	-0.567871	0.497335	-0.301152	-0.230492	0.780281	-2.23282	-6.09103	7.28017	0.0685021	-0.133666	-0.079928	0.194336	0.5625	-0.890625	0.581386	0.439613	-0.288863	-0.620717	-2.02842	8.45	4.39186	-0.123248	-0.0391634	0.0617391	0.216064	-0.689697	-0.822266	0.618738	0.024035	0.32556	-0.71456	-3.96844	-3.16599	11.9142	-0.247168	-0.0651082	-0.0835294	0.349365	0.741943	-0.727783	-0.356041	0.412401	0.837069	-0.0497589	0.0548206	0.110447	-9.10095	0.018518	0.0175986	-0.0174521	-0.190918	-0.224365	1.08032	0.049783	0.0846591	-0.99445	0.0377415	-0.63432	0.470795	-8.37383	0.0605669	0.047878	-0.0211982	-0.309326	0.0622559	1.04004	0.188998	0.0977532	0.976156	-0.0429401	-3.48267	-0.148815	-7.91153	0.0948898	0.197695	-0.0634069	-0.0246582	0.0908203	1.15527	-0.0630041	0.0475192	-0.99437	-0.0707219	-1.29121	1.1304	-8.99395	0.283564	0.307246	-0.00312523	-0.299316	-0.233154	1.15308	-0.180907	0.0634716	-0.969667	0.151623	-3.20474	-3.47037	-8.81566	-0.030188	0.188104	-0.0786396	-0.0585938	0.304443	1.12793	
22	-0.782976	-0.0946103	0.584768	-0.189853	9.78259	-0.669027	3.3557	-0.0244937	-0.0092078	-0.0629762	-0.908936	-0.0771484	-0.615723	0.415249	0.390295	-0.796277	0.202931	8.12963	-0.0540094	-5.75587	-0.0242051	0.0391383	-0.0468605	-1.08081	-0.397461	0.594482	-0.212032	0.243623	0.517639	-0.792301	-1.6022	-9.24053	4.23543	-0.00738023	-0.0683133	-0.126348	-0.0566406	0.936523	-0.567627	0.498302	-0.298946	-0.233578	0.779595	-2.36887	-6.74268	7.58604	-0.00332786	-0.0988312	-0.0963092	0.187744	0.562256	-0.89502	0.583621	0.436734	-0.289148	-0.620519	-2.21527	8.85371	4.47895	-0.151198	-0.0400334	0.09325	0.216064	-0.691895	-0.817627	0.618038	0.0212292	0.325345	-0.715352	-3.95739	-3.98435	12.26	-0.0513133	-0.0647042	-0.0855736	0.340576	0.746338	-0.732178	-0.355404	0.412659	0.837231	-0.049455	0.0371487	0.115378	-9.1039	0.0168786	0.0138471	-0.0175866	-0.190918	-0.226562	1.07397	0.0500131	0.0847041	-0.994415	0.0382393	-0.655142	0.45554	-8.38247	0.0454152	0.0399595	-0.0233797	-0.307373	0.0644531	1.04224	0.183992	0.0968902	0.977157	-0.0438569	-3.49446	-0.256551	-8.06468	0.0613212	0.219132	-0.0754116	-0.0339355	0.0930176	1.15527	-0.0583978	0.0479172	-0.995069	-0.0642784	-1.17678	0.980758	-8.96819	0.228021	0.17882	-0.0175993	-0.306641	-0.222168	1.15283	-0.175868	0.0644678	-0.970681	0.150643	-3.23967	-3.14731	-9.07965	-0.122337	0.204485	-0.0589822	-0.0739746	0.299805	1.12793	
23	-0.783517	-0.0955496	0.584635	-0.187546	9.88085	-0.18714	3.16754	-0.0388904	0.00666497	-0.10457	-0.911133	-0.0771484	-0.611328	0.416748	0.390188	-0.795868	0.201665	8.09034	-0.0219891	-5.83346	-0.0886259	0.0529993	-0.0594531	-1.07837	-0.404053	0.594727	-0.213878	0.242388	0.519612	-0.79089	-1.61079	-9.97992	3.96805	-0.0479972	0.016264	-0.124597	-0.0568848	0.949463	-0.568115	0.500149	-0.297741	-0.234803	0.778504	-2.2032	-6.53733	8.04164	-0.0599602	-0.0129585	-0.0993813	0.183105	0.56665	-0.890625	0.583	0.439047	-0.291766	-0.618241	-1.99782	9.37922	5.14752	0.141395	0.0784185	0.0369307	0.211914	-0.698486	-0.817627	0.619348	0.0184421	0.325583	-0.714187	-3.82418	-4.03567	12.9987	-0.104523	-0.0330729	0.0105323	0.340332	0.750488	-0.72168	-0.355404	0.412659	0.837231	-0.049455	0.0371487	0.115378	-9.1039	0.0168786	0.0138471	-0.0175866	-0.190918	-0.226562	1.07397	0.0509068	0.0850446	-0.9943	0.0392842	-0.623425	0.437242	-8.39526	0.0146601	0.0369943	-0.0246025	-0.307617	0.0688477	1.04004	0.177816	0.0956143	0.978425	-0.0438635	-3.55359	-0.528534	-8.52555	0.0343744	0.254596	-0.0861708	-0.0500488	0.0881348	1.16406	-0.0555478	0.048274	-0.995427	-0.0609034	-1.1123	0.925426	-8.96874	0.129564	0.121032	-0.0115639	-0.318115	-0.211426	1.15015	-0.171954	0.0655597	-0.971713	0.14801	-3.30431	-3.26659	-9.30977	-0.123621	0.126194	-0.0470945	-0.0783691	0.29541	1.13257	
24	-0.784111	-0.095233	0.584635	-0.18521	9.96202	-0.369981	2.96711	-0.0666844	0.00476771	-0.0701511	-0.908936	-0.0771484	-0.613525	0.418422	0.390183	-0.795305	0.200423	8.01657	-0.0282965	-5.83793	-0.0608122	0.058263	-0.0631033	-1.07178	-0.408447	0.587646	-0.216898	0.242632	0.519028	-0.790377	-1.74836	-9.58373	4.02797	-0.0353719	0.0899025	-0.0717647	-0.0610352	0.938721	-0.567871	0.5027	-0.298482	-0.235238	0.776443	-2.04924	-7.06134	7.52918	0.0996091	0.0998097	-0.117415	0.1875	0.56665	-0.89502	0.585314	0.438624	-0.288132	-0.618059	-1.94051	8.42332	4.5707	-0.0337507	0.130795	-0.0658375	0.220703	-0.696289	-0.817627	0.621246	0.0215248	0.327674	-0.711491	-3.96439	-3.25855	12.4498	-0.0429716	0.15641	0.108797	0.349121	0.748535	-0.717285	-0.355404	0.412659	0.837231	-0.049455	0.0371487	0.115378	-9.1039	0.0168786	0.0138471	-0.0175866	-0.190918	-0.226562	1.07397	0.051546	0.0854012	-0.994228	0.0395034	-0.620971	0.438258	-8.4297	0.0107589	0.0351556	-0.0256611	-0.30957	0.0644531	1.04004	0.171889	0.0945156	0.979467	-0.0465383	-3.42356	-0.220515	-8.7879	0.127222	0.229387	-0.093046	-0.0644531	0.0996094	1.15503	-0.0534016	0.0488187	-0.995612	-0.0593501	-1.08226	0.899602	-9.02222	0.0441443	0.0827305	-0.0170526	-0.318115	-0.211426	1.14795	-0.170536	0.0664537	-0.972155	0.146343	-3.28729	-3.2401	-9.47764	-0.0760856	0.051303	-0.0329358	-0.0871582	0.288818	1.13501	
25	-0.785127	-0.0945487	0.583751	-0.184041	9.60392	-0.272082	3.32506	-0.0577142	0.0125451	-0.0307633	-0.906738	-0.0749512	-0.61792	0.419388	0.390787	-0.794779	0.199313	7.94541	0.0706809	-5.42407	-0.0382158	0.0408778	-0.0920808	-1.07788	-0.415039	0.585693	-0.219502	0.244654	0.517121	-0.790284	-1.52333	-9.83347	4.14959	0.190891	0.140195	-0.0141755	-0.0610352	0.940918	-0.572266	0.504017	-0.298869	-0.233655	0.775919	-2.1717	-6.85585	7.30152	0.106555	0.127348	-0.0541203	0.189697	0.566895	-0.899414	0.587365	0.43927	-0.282896	-0.618073	-1.94506	9.16756	4.4056	-0.296004	0.171754	-0.0371704	0.226562	-0.680908	-0.824463	0.621636	0.0230665	0.32931	-0.710346	-3.73043	-3.2555	12.3728	-0.0449755	0.186109	0.0971805	0.357666	0.750732	-0.717285	-0.355404	0.412659	0.837231	-0.049455	0.0371487	0.115378	-9.1039	0.0168786	0.0138471	-0.0175866	-0.190918	-0.226562	1.07397	0.0518256	0.0854163	-0.994202	0.0397613	-0.601337	0.446853	-8.40025	0.0290451	0.0286536	-0.0216396	-0.313965	0.0644531	1.04224	0.168643	0.0939313	0.980056	-0.0471909	-3.41526	-0.779805	-9.12352	0.0715318	0.111352	-0.0466708	-0.0693359	0.106201	1.16162	-0.0530664	0.0492659	-0.99562	-0.0591482	-1.06021	0.87173	-8.9992	0.00814638	0.0144817	-0.0154518	-0.318359	-0.207031	1.14771	-0.170998	0.0669575	-0.971998	0.146618	-3.22729	-3.03712	-9.28339	0.03261	-0.0334882	-0.0209423	-0.0805664	0.291016	1.13477	
26	-0.785453	-0.0929902	0.584019	-0.182586	9.80231	-0.256693	3.35742	-0.0890578	0.0085965	-0.00454838	-0.906982	-0.0705566	-0.615723	0.420804	0.391434	-0.794004	0.198142	8.06332	-0.152909	-5.53015	-0.0417115	0.065376	-0.0775771	-1.07349	-0.415039	0.583252	-0.225085	0.244846	0.508875	-0.793998	-1.71997	-9.17466	3.93204	0.383328	0.164059	-0.0591279	-0.0629883	0.927979	-0.592529	0.508249	-0.29752	-0.226254	0.77587	-2.4566	-6.38918	6.61683	0.422685	0.160295	-0.0679796	0.190674	0.547119	-0.901367	0.591427	0.436179	-0.274861	-0.62001	-2.00142	8.2626	4.43178	-0.368878	0.11573	-0.064159	0.234863	-0.669678	-0.835938	0.622962	0.0214871	0.335884	-0.706144	-3.75853	-2.50817	11.0714	-0.281992	0.113845	0.0634003	0.364014	0.75293	-0.706787	-0.355404	0.412659	0.837231	-0.049455	0.0371487	0.115378	-9.1039	0.0168786	0.0138471	-0.0175866	-0.190918	-0.226562	1.07397	0.0521465	0.0853999	-0.994161	0.0403984	-0.58038	0.435416	-8.43331	0.0246614	0.032319	-0.0186363	-0.311768	0.0644531	1.0354	0.167646	0.0937586	0.980166	-0.0487699	-3.34404	-0.347083	-9.18462	0.0676917	0.0365874	-0.0287356	-0.076416	0.108398	1.15479	-0.0537563	0.049963	-0.995559	-0.0589626	-1.05662	0.87113	-9.01122	0.00626082	-0.0439207	-0.0311303	-0.313477	-0.213623	1.14795	-0.17208	0.0675748	-0.971829	0.146184	-3.04487	-3.10418	-8.96393	-0.00128061	-0.0428006	-0.0208456	-0.0869141	0.284424	1.13037	
27	-0.785968	-0.089074	0.584563	-0.180574	9.80997	-0.132406	3.45715	-0.210775	0.00857744	0.0434038	-0.905029	-0.0661621	-0.61792	0.423624	0.391792	-0.792194	0.19867	8.07906	-0.0692126	-5.4881	-0.016839	0.150537	-0.0724058	-1.07788	-0.417236	0.573975	-0.232698	0.243424	0.50085	-0.797336	-1.62521	-8.96555	3.82082	0.406467	0.110788	-0.224746	-0.0585938	0.917236	-0.608154	0.514829	-0.293008	-0.218813	0.775383	-2.48192	-5.35686	5.75143	0.414446	0.0446187	-0.212913	0.191162	0.53833	-0.912109	0.597926	0.429487	-0.268749	-0.621128	-2.16677	7.10028	3.79384	-0.308163	0.00381623	0.119402	0.231934	-0.6521	-0.854248	0.624235	0.0178009	0.339388	-0.703441	-3.95884	-1.80455	9.40785	-0.203933	-0.0652511	0.0307451	0.36377	0.759277	-0.694092	-0.355404	0.412659	0.837231	-0.049455	0.0371487	0.115378	-9.1039	0.0168786	0.0138471	-0.0175866	-0.190918	-0.226562	1.07397	0.0521371	0.0853979	-0.994131	0.0411433	-0.56426	0.393299	-8.44476	0.0330398	0.0183769	-0.0179054	-0.311768	0.0666504	1.04004	0.168409	0.0935324	0.980071	-0.0484817	-3.11644	-0.666653	-8.98273	-0.00485919	-0.0379366	-0.0251115	-0.0646973	0.106201	1.15942	-0.0559696	0.0506049	-0.995364	-0.0596395	-1.07563	0.876986	-9.0011	-0.0191262	-0.0878922	-0.0237027	-0.309326	-0.211182	1.15259	-0.173679	0.0680196	-0.971592	0.145663	-2.85559	-3.02432	-8.65685	-0.0199348	-0.0601915	-0.0096289	-0.0825195	0.288818	1.13257	
28	-0.785714	-0.0831238	0.586937	-0.176773	9.71265	-0.39433	3.21016	-0.314546	-0.0848642	-0.00245914	-0.90332	-0.0551758	-0.622314	0.423624	0.391792	-0.792194	0.19867	8.07906	-0.0692126	-5.4881	-0.016839	0.150537	-0.0724058	-1.07788	-0.417236	0.573975	-0.244419	0.238048	0.492554	-0.800614	-1.57776	-8.35081	4.30572	0.560098	0.0371547	-0.434747	-0.0820312	0.904785	-0.630615	0.524033	-0.283241	-0.213602	0.774298	-2.23916	-4.71257	6.02162	0.452243	-0.145523	-0.354094	0.176514	0.516357	-0.920654	0.60475	0.421708	-0.271055	-0.618844	-1.82316	7.84163	3.9385	-0.294196	-0.196032	0.374986	0.214111	-0.645508	-0.856689	0.625306	0.0102383	0.333748	-0.705337	-3.55656	-2.50658	10.0344	0.101161	-0.447684	-0.175398	0.346191	0.765869	-0.702881	-0.355404	0.412659	0.837231	-0.049455	0.0371487	0.115378	-9.1039	0.0168786	0.0138471	-0.0175866	-0.190918	-0.226562	1.07397	0.0518869	0.0852922	-0.994163	0.0408994	-0.588151	0.427291	-8.41829	0.00420749	0.0067277	-0.0151437	-0.309814	0.0688477	1.04224	0.169731	0.0935472	0.97971	-0.051072	-3.31093	-0.53532	-8.52835	0.111927	-0.0633099	-0.0317139	-0.0649414	0.113281	1.15259	-0.0559696	0.0506049	-0.995364	-0.0596395	-1.07563	0.876986	-9.0011	-0.0191262	-0.0878922	-0.0237027	-0.309326	-0.211182	1.15259	-0.174352	0.0684532	-0.971448	0.145617	-3.04022	-2.85189	-8.16363	0.00638764	-0.0195034	-0.0169226	-0.0734863	0.286621	1.13501	
29	-0.785736	-0.0798404	0.588476	-0.173035	9.50726	-0.301748	3.04677	-0.402879	-0.0800537	-0.0705415	-0.910156	-0.0554199	-0.611572	0.428952	0.391975	-0.788995	0.199605	7.91955	-0.0219383	-5.40769	-0.0194941	0.155357	-0.0599018	-1.07764	-0.426025	0.5625	-0.251716	0.234142	0.488892	-0.801749	-1.22714	-8.55217	4.17475	0.473672	0.0543635	-0.531802	-0.0883789	0.891846	-0.639404	0.53517	-0.27087	-0.213288	0.771188	-1.33866	-5.30023	7.1774	0.282804	-0.2701	-0.542447	0.154785	0.505371	-0.931396	0.607208	0.418226	-0.27492	-0.617094	-1.78417	7.25723	4.17435	-0.0226928	-0.237779	0.39776	0.196777	-0.647705	-0.854248	0.626172	0.00408841	0.329234	-0.706751	-3.47924	-1.7918	10.3735	-0.01381	-0.572912	-0.200788	0.331055	0.767822	-0.707031	-0.355404	0.412659	0.837231	-0.049455	0.0371487	0.115378	-9.1039	0.0168786	0.0138471	-0.0175866	-0.190918	-0.226562	1.07397	0.0517879	0.0852381	-0.994172	0.0409094	-0.592485	0.411281	-8.41213	0.0084203	0.0113795	-0.0165746	-0.313965	0.0666504	1.04004	0.169731	0.0935472	0.97971	-0.051072	-3.31093	-0.53532	-8.52835	0.111927	-0.0633099	-0.0317139	-0.0649414	0.113281	1.15259	-0.059663	0.051284	-0.995072	-0.0603423	-1.15544	0.885521	-8.86769	0.0320414	-0.0403147	-0.00874302	-0.302246	-0.215576	1.15259	-0.174571	0.0686847	-0.971341	0.145962	-3.07227	-2.81266	-8.12908	0.0285118	-0.0136595	-0.0255694	-0.0759277	0.288818	1.13257	
30	-0.787136	-0.072838	0.590328	-0.16317	10.3592	-0.757242	2.16835	-0.463412	0.0868194	-0.170305	-0.901611	-0.0444336	-0.615967	0.431462	0.392083	-0.787184	0.201126	7.82679	0.321924	-5.30908	0.0216539	0.134147	-0.0428019	-1.08228	-0.419678	0.543457	-0.263375	0.228021	0.487629	-0.800536	-0.882994	-8.50441	4.69661	0.122814	0.0234859	-0.462965	-0.112061	0.890137	-0.653076	0.541691	-0.26603	-0.224961	0.764978	-0.910783	-6.49265	8.43077	-0.353547	-0.243909	-0.485319	0.13623	0.522705	-0.927246	0.610665	0.411069	-0.286697	-0.613119	-1.46102	7.50997	4.27599	0.0977709	-0.388557	0.388735	0.17334	-0.660889	-0.856689	0.625923	-0.00390403	0.312511	-0.714523	-3.1173	-3.53345	13.0868	0.512445	-0.590699	-0.314146	0.30127	0.75708	-0.734619	-0.355404	0.412659	0.837231	-0.049455	0.0371487	0.115378	-9.1039	0.0168786	0.0138471	-0.0175866	-0.190918	-0.226562	1.07397	0.0517049	0.0850926	-0.994193	0.040813	-0.58911	0.420588	-8.38761	0.00466912	0.0211812	-0.013072	-0.314209	0.0710449	1.03979	0.170853	0.0938077	0.979361	-0.053498	-3.18885	-0.590562	-7.81236	0.00241432	-0.00878915	0.000172732	-0.0629883	0.117676	1.15479	-0.0584538	0.0517032	-0.995236	-0.0584414	-1.1521	0.847632	-8.94617	0.0738833	0.0827046	-0.0222861	-0.311523	-0.209229	1.15015	-0.173658	0.069301	-0.971582	0.145154	-2.99619	-2.91052	-8.24123	-0.0635776	0.0582965	-0.0351723	-0.0803223	0.284424	1.13281	
31	-0.793136	-0.0674704	0.585219	-0.154602	9.21238	-0.797838	3.06964	-0.318071	0.328837	-0.19645	-0.899414	-0.0463867	-0.637451	0.432925	0.391269	-0.786388	0.202679	8.08999	0.250422	-5.45781	0.0224358	0.100674	0.00125044	-1.08862	-0.419434	0.548096	-0.273186	0.225665	0.489614	-0.796695	-0.282338	-9.1389	5.12286	-0.0626778	0.0977093	-0.389876	-0.122803	0.890381	-0.650879	0.545652	-0.264389	-0.227986	0.76183	-0.806277	-7.12947	8.84714	-0.0829946	-0.0906827	-0.469862	0.12915	0.53125	-0.923096	0.610911	0.409733	-0.2987	-0.608017	-1.02258	9.57035	5.78175	0.215861	-0.199371	0.320901	0.149902	-0.674316	-0.849854	0.625645	-0.012538	0.303588	-0.718503	-2.94565	-4.94018	14.2307	0.13382	-0.372543	-0.240356	0.283936	0.759033	-0.741211	-0.355404	0.412659	0.837231	-0.049455	0.0371487	0.115378	-9.1039	0.0168786	0.0138471	-0.0175866	-0.190918	-0.226562	1.07397	0.0518997	0.084969	-0.994195	0.0407735	-0.602014	0.388722	-8.38442	-0.00683689	0.0282479	-0.0155882	-0.316162	0.0688477	1.0376	0.17018	0.0943959	0.979401	-0.0538674	-3.38728	-0.633227	-7.91827	0.0311149	0.0491017	0.00479523	-0.0605469	0.11792	1.15479	-0.054951	0.0519731	-0.995581	-0.055653	-1.12097	0.816862	-8.90595	0.105295	0.15116	-0.00704031	-0.318359	-0.207031	1.15234	-0.171877	0.0701588	-0.971882	0.144847	-3.20614	-2.62034	-8.35108	-0.0551271	0.067079	-0.0410895	-0.0825195	0.284424	1.13281	
32	-0.798249	-0.0653511	0.580018	-0.148683	8.79437	-0.487023	3.81529	-0.15035	0.253358	-0.163983	-0.884277	-0.0397949	-0.639648	0.432455	0.390529	-0.787123	0.202254	8.30883	-0.05173	-5.54661	-0.0406338	-0.0274205	0.0213893	-1.08423	-0.421631	0.550537	-0.279224	0.229368	0.493519	-0.791115	-0.807574	-10.3386	4.938	-0.244158	0.265878	-0.190222	-0.135742	0.901367	-0.639648	0.55051	-0.26633	-0.234385	0.755692	-0.958937	-7.84643	9.04542	-0.198708	0.0842823	-0.291221	0.126221	0.544434	-0.914551	0.612058	0.407271	-0.301784	-0.606994	-1.35127	9.32275	5.39575	0.0413451	-0.0307826	0.0667673	0.141113	-0.672119	-0.849854	0.62532	-0.0158673	0.300418	-0.72005	-3.01108	-4.4795	14.8494	-0.0848514	-0.061174	-0.0647027	0.270996	0.759033	-0.739014	-0.355404	0.412659	0.837231	-0.049455	0.0371487	0.115378	-9.1039	0.0168786	0.0138471	-0.0175866	-0.190918	-0.226562	1.07397	0.052486	0.0847691	-0.994176	0.0409186	-0.567841	0.429643	-8.40473	0.0167029	0.0426704	-0.0157827	-0.311768	0.0688477	1.04224	0.168135	0.0952879	0.979649	-0.0542069	-3.13224	-0.515017	-8.07772	0.0361842	0.100188	0.00894243	-0.0725098	0.122314	1.15015	-0.0499514	0.0525591	-0.995984	-0.0525236	-1.01399	0.756766	-8.99928	0.105327	0.218159	-0.0146171	-0.332275	-0.196289	1.14746	-0.169631	0.0712015	-0.972356	0.143805	-3.19562	-2.9477	-8.67709	-0.0417888	0.0907037	-0.0540463	-0.0844727	0.277832	1.13745	
33	-0.800056	-0.0646192	0.578415	-0.145499	8.95603	-0.400159	3.83935	-0.0741408	0.0184241	-0.0777868	-0.881836	-0.0439453	-0.648193	0.431133	0.390422	-0.787868	0.202383	8.17001	0.222038	-5.44172	-0.00203494	-0.05306	0.00174517	-1.08008	-0.415039	0.550293	-0.285247	0.233014	0.489548	-0.790368	-0.603824	-10.1651	4.76176	0.118616	0.27389	-0.0916136	-0.131348	0.894775	-0.64624	0.556044	-0.269026	-0.23117	0.751665	-1.11367	-7.46902	8.47891	0.031602	0.276689	-0.15142	0.133057	0.542236	-0.918945	0.612656	0.407148	-0.298988	-0.607857	-0.986924	9.26653	5.40129	-0.1496	0.0859352	-0.11676	0.145264	-0.667725	-0.854248	0.625229	-0.0137027	0.301967	-0.719526	-3.00662	-4.13385	14.267	0.0216223	0.17061	0.0478935	0.275391	0.756836	-0.745361	-0.355404	0.412659	0.837231	-0.049455	0.0371487	0.115378	-9.1039	0.0168786	0.0138471	-0.0175866	-0.190918	-0.226562	1.07397	0.0529522	0.0845629	-0.99418	0.040626	-0.550141	0.416712	-8.43082	-0.0159833	0.0349792	-0.011913	-0.320312	0.0644531	1.04004	0.164915	0.0961768	0.980053	-0.0552214	-3.10588	-0.496642	-8.63258	0.0795343	0.150472	-0.00685394	-0.0795898	0.128906	1.1499	-0.0458231	0.0528544	-0.996279	-0.0503371	-0.919082	0.695944	-9.00904	0.0706605	0.159839	0.00014718	-0.33667	-0.194092	1.14966	-0.167439	0.0720895	-0.972876	0.142403	-2.94002	-3.16763	-8.98774	-0.0547443	0.086807	-0.0404045	-0.0957031	0.275391	1.13745	
34	-0.799833	-0.064542	0.578956	-0.144606	9.70845	-0.415489	3.36522	-0.00931543	-0.0238899	-0.0163071	-0.879395	-0.0461426	-0.648193	0.429306	0.390259	-0.789282	0.201068	8.03842	0.206126	-5.04335	-0.0452077	-0.0817847	-0.00604875	-1.07983	-0.423828	0.550537	-0.28826	0.238568	0.483761	-0.791181	-0.759653	-9.43036	4.40679	0.167295	0.258326	0.11209	-0.116455	0.896729	-0.660156	0.559501	-0.272615	-0.224337	0.749875	-1.18975	-6.96119	7.71502	0.243176	0.333785	0.00622244	0.140381	0.529297	-0.918701	0.615678	0.405576	-0.289061	-0.610649	-1.12147	8.98617	5.38134	-0.532369	0.238296	-0.145862	0.159668	-0.647705	-0.861328	0.625172	-0.0122573	0.311137	-0.715684	-2.95204	-4.36333	12.9401	-0.339143	0.3277	0.110772	0.281738	0.76123	-0.721924	-0.355404	0.412659	0.837231	-0.049455	0.0371487	0.115378	-9.1039	0.0168786	0.0138471	-0.0175866	-0.190918	-0.226562	1.07397	0.0531787	0.0843745	-0.994199	0.0402537	-0.570046	0.43499	-8.40172	0.000945199	0.0201891	-0.0179388	-0.313965	0.0644531	1.04004	0.161233	0.0965919	0.98056	-0.0563503	-3.12463	-0.574407	-8.84014	0.0671875	0.136136	-0.0210054	-0.0959473	0.131104	1.1521	-0.0434559	0.0528326	-0.996434	-0.0493973	-0.851009	0.690659	-9.02766	0.0114514	0.0905669	0.00774392	-0.341309	-0.191895	1.14502	-0.165434	0.0725658	-0.973287	0.141695	-2.90763	-3.23832	-9.06671	-0.021637	0.0769952	-0.0245693	-0.100098	0.275391	1.13745	
35	-0.801013	-0.064618	0.577286	-0.144718	9.87279	-0.206062	3.19288	0.00960086	0.118791	-0.00940804	-0.879395	-0.0461426	-0.650146	0.427667	0.389892	-0.790915	0.198845	8.03879	-0.099723	-5.28746	-0.0595024	-0.107475	-0.00932274	-1.07788	-0.415039	0.552734	-0.28833	0.245576	0.480035	-0.79128	-0.926398	-8.84479	4.66702	-0.0596942	0.222339	0.196071	-0.105713	0.892334	-0.659912	0.560695	-0.278727	-0.218856	0.748355	-1.38882	-7.03681	6.76729	0.042435	0.338103	0.049889	0.151367	0.533691	-0.923096	0.617636	0.404479	-0.28257	-0.612435	-0.8715	8.03336	5.27595	-0.475956	0.262972	-0.192229	0.17041	-0.641113	-0.863525	0.625742	-0.0112649	0.323025	-0.709912	-2.90237	-3.6701	11.7768	-0.36257	0.354889	0.156723	0.309326	0.776611	-0.707275	-0.355404	0.412659	0.837231	-0.049455	0.0371487	0.115378	-9.1039	0.0168786	0.0138471	-0.0175866	-0.190918	-0.226562	1.07397	0.0533154	0.0842359	-0.994224	0.0397625	-0.554044	0.446823	-8.42096	-0.0153057	0.0216356	-0.0168405	-0.315918	0.0644531	1.04248	0.158108	0.0967144	0.980982	-0.0576442	-3.12478	-0.356739	-9.02918	0.0280914	0.11896	-0.0294665	-0.0961914	0.137939	1.1543	-0.0423692	0.0527062	-0.996506	-0.0490127	-0.847391	0.673914	-9.02301	0.00370319	0.0401863	0.0106524	-0.3479	-0.194336	1.14746	-0.164154	0.0722956	-0.973546	0.141543	-3.01144	-3.04794	-9.0779	-0.0112125	0.0509628	0.0116295	-0.104736	0.279785	1.14185	
36	-0.804318	-0.0633425	0.572905	-0.14436	9.80713	-0.0409425	3.30155	-0.0448678	0.252331	-0.0126222	-0.870605	-0.0437012	-0.658936	0.426853	0.389315	-0.79205	0.197199	7.89267	0.183034	-5.29444	-0.0906467	-0.0219827	-0.00562891	-1.07349	-0.419434	0.564453	-0.285983	0.251945	0.477861	-0.791445	-1.63701	-8.86814	3.88032	-0.0352825	0.193356	0.183529	-0.0905762	0.885498	-0.653076	0.559577	-0.285771	-0.216579	0.747196	-2.24103	-5.71068	6.90824	-0.33256	0.231436	0.0983666	0.164551	0.533691	-0.916504	0.621521	0.404458	-0.266048	-0.615909	-1.5465	7.26982	4.70109	-0.252525	0.242395	-0.157244	0.195557	-0.621094	-0.879395	0.626587	-0.00757633	0.33211	-0.705006	-3.18183	-3.58051	10.8984	-0.227236	0.330171	0.188697	0.322021	0.781006	-0.698975	-0.355404	0.412659	0.837231	-0.049455	0.0371487	0.115378	-9.1039	0.0168786	0.0138471	-0.0175866	-0.190918	-0.226562	1.07397	0.0532442	0.0841533	-0.994228	0.0399198	-0.547058	0.44441	-8.42154	0.0220989	0.018241	-0.0188689	-0.311768	0.0666504	1.04224	0.156002	0.0963668	0.98134	-0.0578595	-3.03847	-0.524385	-8.96627	0.0245478	0.0835505	-0.0411286	-0.105713	0.140137	1.14746	-0.0424091	0.0524979	-0.996466	-0.0500116	-0.830175	0.689651	-9.02549	-0.0350024	-0.00922815	0.0105729	-0.352295	-0.194336	1.14282	-0.163237	0.0718137	-0.973857	0.140707	-2.90476	-3.04022	-9.0963	-0.0184975	0.0447146	0.0150035	-0.102295	0.275391	1.13501	
37	-0.806763	-0.0613845	0.569695	-0.144266	9.92483	-0.232422	3.34828	-0.104598	0.335579	0.039302	-0.86377	-0.0478516	-0.671631	0.426638	0.388758	-0.792466	0.197092	8.10612	-0.365131	-5.56833	-0.0330252	-0.00981518	0.0247795	-1.07129	-0.421631	0.566895	-0.285694	0.255706	0.478767	-0.789795	-1.31954	-9.04312	4.13933	-0.222693	0.223894	0.104003	-0.0883789	0.894043	-0.655518	0.562126	-0.287912	-0.209724	0.746416	-2.08826	-5.74933	5.97971	0.204227	0.225159	0.0225564	0.18042	0.527344	-0.925293	0.621698	0.406038	-0.2634	-0.615828	-1.17448	7.2298	4.82379	-0.056357	0.226081	-0.121254	0.197266	-0.610107	-0.881836	0.628421	-0.0063469	0.337301	-0.70091	-3.41061	-2.76204	9.95	-0.150155	0.119687	0.130443	0.332764	0.778809	-0.690186	-0.355404	0.412659	0.837231	-0.049455	0.0371487	0.115378	-9.1039	0.0168786	0.0138471	-0.0175866	-0.190918	-0.226562	1.07397	0.0532442	0.0841533	-0.994228	0.0399198	-0.547058	0.44441	-8.42154	0.0220989	0.018241	-0.0188689	-0.311768	0.0666504	1.04224	0.155514	0.0960939	0.981458	-0.0576318	-3.06414	-0.592355	-8.87276	-0.0113285	0.0461694	-0.0398052	-0.0983887	0.135742	1.1499	-0.0426517	0.0523481	-0.99642	-0.050871	-0.822526	0.694896	-8.99762	-0.0643308	-0.0150614	0.016289	-0.338867	-0.194092	1.14282	-0.163044	0.0714496	-0.973932	0.140603	-2.98728	-2.96364	-8.98477	-0.00318909	0.0251847	0.0229176	-0.095459	0.270996	1.13525	
38	-0.812021	-0.0579644	0.561979	-0.146427	9.79652	-0.550155	3.69617	0.00986251	0.397825	0.110333	-0.853516	-0.0302734	-0.691162	0.425755	0.388503	-0.792937	0.197609	8.05312	0.0270473	-5.54536	0.0182633	-0.0196038	0.0196295	-1.07568	-0.417236	0.564453	-0.286801	0.258237	0.475738	-0.7904	-1.50913	-9.1245	3.99543	0.196243	0.0991144	-0.0130844	-0.0820312	0.894043	-0.65332	0.562464	-0.287631	-0.207348	0.746934	-1.99305	-6.65791	5.36348	0.1735	0.0874373	0.0571606	0.180664	0.522949	-0.925049	0.624276	0.405431	-0.259718	-0.615184	-1.65915	7.54641	4.73959	-0.137009	0.0945992	0.0595913	0.203613	-0.605713	-0.88623	0.629482	-0.00807325	0.338914	-0.69916	-3.59957	-2.1111	10.0802	-0.221949	-0.0213818	0.0832356	0.341553	0.781006	-0.683838	-0.355404	0.412659	0.837231	-0.049455	0.0371487	0.115378	-9.1039	0.0168786	0.0138471	-0.0175866	-0.190918	-0.226562	1.07397	0.0532646	0.0843688	-0.994196	0.0402286	-0.548417	0.438553	-8.4265	0.0164514	0.0112464	-0.0188368	-0.318115	0.0644531	1.04248	0.155462	0.0958016	0.981516	-0.0572741	-3.11686	-0.881271	-8.94981	0.0159194	0.00302882	-0.0242686	-0.0983887	0.131104	1.1499	-0.0435292	0.0519397	-0.996318	-0.0525125	-0.852276	0.744206	-9.03587	-0.0495441	-0.0323246	0.018925	-0.343262	-0.196289	1.14526	-0.163593	0.0703956	-0.973633	0.142548	-3.0144	-2.84075	-8.96456	0.113516	-0.0113488	0.0223744	-0.100342	0.281982	1.14185	
39	-0.819881	-0.0546426	0.549444	-0.151396	9.16405	-0.718429	4.07402	0.0865579	0.394323	0.0666621	-0.831055	-0.0341797	-0.716797	0.425873	0.387589	-0.793271	0.197808	7.98931	0.261227	-5.51857	-0.038342	0.0305546	0.0178373	-1.07568	-0.415039	0.557373	-0.290356	0.253354	0.468789	-0.794822	-1.07776	-8.3355	4.25556	0.304377	-0.11937	-0.104351	-0.0883789	0.881104	-0.671143	0.567089	-0.273756	-0.195658	0.751788	-1.86557	-6.62281	6.2776	0.46686	-0.215189	0.0173062	0.17334	0.492432	-0.944336	0.627547	0.402338	-0.260834	-0.613412	-1.6921	7.49615	4.58487	-0.0100042	-0.0751744	0.193897	0.192871	-0.60791	-0.88623	0.632204	-0.0159282	0.332844	-0.699485	-3.36421	-2.79061	11.6309	0.0550128	-0.326093	-0.0728771	0.323975	0.787354	-0.688477	-0.357836	0.405739	0.839477	-0.0510611	0.0140891	0.124144	-9.08404	0.0142909	0.00254553	-0.0169443	-0.188477	-0.230957	1.08057	0.0532186	0.0845001	-0.994174	0.0405612	-0.553721	0.434183	-8.40696	0.0103953	0.0152786	-0.0202471	-0.315918	0.0644531	1.04004	0.15578	0.0958173	0.981459	-0.057364	-3.06686	-0.689827	-8.47382	-0.0150387	-0.0110693	-0.0174004	-0.100586	0.128906	1.14771	-0.0444099	0.0516005	-0.99621	-0.0541361	-0.870226	0.788234	-8.99406	-0.0622276	-0.0323229	0.0168787	-0.34082	-0.200684	1.14087	-0.164415	0.0695851	-0.973353	0.143906	-2.99192	-2.67782	-8.82323	0.0457531	-0.0285301	0.0196874	-0.0957031	0.275391	1.13745	
40	-0.822264	-0.0548165	0.545503	-0.152655	9.05925	-0.814218	4.1247	0.104473	0.361404	0.0292362	-0.82666	-0.0339355	-0.721191	0.42642	0.386223	-0.793524	0.198288	7.89943	0.0156038	-5.51022	-0.00882545	0.0567649	0.0273065	-1.08032	-0.412842	0.571533	-0.291354	0.247826	0.46569	-0.798015	-1.51198	-9.36554	4.15537	0.320435	-0.225401	-0.0565944	-0.0991211	0.881348	-0.682617	0.566059	-0.270425	-0.196276	0.753607	-1.8518	-5.6846	7.53114	0.123925	-0.280499	0.0825683	0.171387	0.48584	-0.944336	0.626134	0.404511	-0.27005	-0.609427	-1.85909	8.54146	5.20558	0.354925	-0.122091	0.176912	0.189209	-0.625488	-0.877197	0.632592	-0.0185132	0.329692	-0.700562	-3.3117	-3.60081	11.9552	0.0773993	-0.291053	-0.124497	0.313477	0.781006	-0.688232	-0.357836	0.405739	0.839477	-0.0510611	0.0140891	0.124144	-9.08404	0.0142909	0.00254553	-0.0169443	-0.188477	-0.230957	1.08057	0.0532004	0.0844301	-0.994182	0.0405336	-0.544857	0.411327	-8.40464	0.00550368	0.0174634	-0.015734	-0.318359	0.0710449	1.04468	0.156212	0.0958145	0.981396	-0.0572666	-2.95838	-0.80701	-8.51557	0.0138169	-0.00403177	-0.0188683	-0.100586	0.128662	1.1543	-0.0447971	0.0515727	-0.996154	-0.0548632	-0.882147	0.801706	-8.98021	-0.00234439	0.000246993	-0.00323782	-0.338379	-0.209473	1.14771	-0.165527	0.0695315	-0.973157	0.143984	-3.04104	-2.70944	-8.744	0.00896256	-0.0411297	0.00516611	-0.0957031	0.279785	1.13501	
41	-0.825692	-0.0570916	0.53907	-0.156128	8.94208	-0.433682	4.45992	0.191091	0.245772	0.0327635	-0.822021	-0.0383301	-0.734131	0.426313	0.385771	-0.793636	0.198946	7.95311	0.0451953	-5.37385	0.0202041	0.0298238	0.0330383	-1.08008	-0.417236	0.564453	-0.288965	0.244645	0.468015	-0.798505	-1.18809	-8.95503	4.94057	-0.240091	-0.135031	0.0288842	-0.0966797	0.874756	-0.680176	0.562	-0.269185	-0.200856	0.755879	-2.01488	-6.14553	8.23483	-0.119068	-0.167344	0.124848	0.166748	0.488037	-0.939941	0.625953	0.403695	-0.276906	-0.607073	-1.13624	8.30315	5.35044	0.205644	-0.135508	0.128009	0.169922	-0.632324	-0.870361	0.632905	-0.0196974	0.320586	-0.704462	-3.03194	-3.74784	13.2895	0.31171	-0.205378	-0.135653	0.302734	0.776611	-0.696533	-0.357836	0.405739	0.839477	-0.0510611	0.0140891	0.124144	-9.08404	0.0142909	0.00254553	-0.0169443	-0.188477	-0.230957	1.08057	0.0530384	0.0842536	-0.99422	0.0401791	-0.546481	0.436623	-8.41673	-0.00506316	0.00891023	-0.0146755	-0.318115	0.0622559	1.04004	0.15551	0.0960985	0.981403	-0.05856	-2.98769	-0.760739	-8.52798	0.0860936	0.0312366	-0.0151108	-0.105469	0.137695	1.15186	-0.0445015	0.0516904	-0.996161	-0.0548643	-0.888748	0.795173	-8.99893	0.0171228	0.026569	-0.000205817	-0.338623	-0.200684	1.14307	-0.166906	0.0697809	-0.97296	0.143606	-2.94386	-2.9874	-8.73222	0.00961145	-0.0476116	-0.0109644	-0.0935059	0.277588	1.13745	
42	-0.827193	-0.0595678	0.53543	-0.159744	9.02153	-0.627623	4.67558	0.191743	0.0994	0.0451554	-0.815186	-0.0402832	-0.740479	0.426628	0.385249	-0.79337	0.200339	8.11502	-0.0457258	-5.61591	0.0288308	0.0465124	0.0222235	-1.08228	-0.415039	0.557373	-0.284644	0.245796	0.474536	-0.79585	-0.787831	-9.46674	5.26608	-0.318869	-0.084504	0.0860405	-0.101318	0.887939	-0.664551	0.558067	-0.271579	-0.206519	0.75641	-1.72224	-6.46273	8.62731	-0.22701	-0.0453009	0.0812455	0.163818	0.505371	-0.940186	0.625061	0.403587	-0.281474	-0.605961	-1.02024	8.74734	5.17778	0.127302	-0.10194	0.0361996	0.170166	-0.638916	-0.861328	0.63286	-0.0194907	0.315348	-0.706869	-3.02963	-4.11597	13.4938	0.120204	-0.0787454	-0.044185	0.296387	0.776611	-0.71167	-0.358783	0.404863	0.839504	-0.0509275	-0.00151408	0.131271	-9.08752	0.0220029	0.0216918	-0.018226	-0.186523	-0.230957	1.07617	0.0529939	0.0841446	-0.994235	0.040104	-0.551133	0.428127	-8.39809	0.00192806	0.0148904	-0.0125549	-0.320312	0.0666504	1.04224	0.155109	0.0970308	0.981315	-0.0595528	-2.95578	-0.458549	-8.56115	0.019467	0.0141299	0.0200648	-0.0986328	0.140137	1.14966	-0.0441259	0.0518101	-0.996256	-0.0533198	-0.870759	0.778787	-9.0136	0.0784842	0.0282827	-0.00672707	-0.341064	-0.196289	1.14746	-0.167692	0.069697	-0.972577	0.145311	-3.01621	-2.74364	-8.62686	0.0646455	-0.0167595	-0.00457775	-0.0915527	0.286621	1.13257	
43	-0.827769	-0.0624998	0.533223	-0.162988	9.46326	-0.72776	4.48618	0.191958	0.0763188	0.0373899	-0.810547	-0.046875	-0.736084	0.426069	0.385579	-0.792884	0.202802	8.13893	-0.000956894	-5.5378	0.029382	0.0426667	-0.00915995	-1.08887	-0.415039	0.564453	-0.283317	0.247224	0.474786	-0.795733	-0.99424	-9.18523	4.77933	-0.0206603	0.0223953	0.044309	-0.0991211	0.885498	-0.662109	0.555705	-0.275362	-0.209332	0.756008	-1.48459	-6.12927	8.39835	-0.279275	0.0716773	0.0384912	0.167969	0.511963	-0.933838	0.622767	0.406376	-0.284776	-0.604915	-1.50285	9.50132	5.02323	0.127621	-0.00474133	-0.0362486	0.170654	-0.649902	-0.861084	0.63327	-0.018744	0.313615	-0.707293	-3.2352	-3.59661	13.1629	0.0870125	0.0154015	-0.00450063	0.294434	0.767822	-0.709229	-0.358212	0.405113	0.839644	-0.0506502	0.0185137	0.129064	-9.08314	0.0199083	0.0167565	-0.0174443	-0.190918	-0.22876	1.07178	0.0529636	0.0840983	-0.994234	0.0402716	-0.569255	0.438637	-8.43157	0.00872174	0.00848312	-0.0123364	-0.318359	0.0666504	1.0354	0.155004	0.0978489	0.981265	-0.0593217	-3.0409	-0.584295	-8.76054	0.0234977	0.0196362	0.0131382	-0.0986328	0.137939	1.1521	-0.0441826	0.052064	-0.996364	-0.0509578	-0.851112	0.729373	-9.02369	0.0820859	0.000584155	-0.0146233	-0.343262	-0.196289	1.14526	-0.167734	0.0699493	-0.972605	0.144956	-2.94072	-2.87845	-8.75141	-0.032629	0.00465565	-0.00997553	-0.0913086	0.282227	1.13281	
44	-0.82859	-0.0658367	0.530826	-0.165311	9.76283	-0.290858	4.42031	0.147131	0.0934396	-0.0246436	-0.8125	-0.0532227	-0.740234	0.425991	0.385701	-0.792827	0.202958	8.13342	0.002316	-5.55407	0.00995118	0.0124687	-0.0257372	-1.08716	-0.4021	0.561523	-0.282002	0.250405	0.4752	-0.794957	-1.27661	-9.58009	4.58597	0.0444824	0.0647042	0.0619583	-0.0905762	0.891846	-0.657715	0.554377	-0.278462	-0.207911	0.756239	-1.80322	-5.98471	7.20222	-0.0346144	0.0891437	0.136624	0.174561	0.509766	-0.931396	0.622544	0.406029	-0.284454	-0.605529	-1.26426	9.14836	5.11872	-0.0400351	-0.0169052	-0.0584236	0.172852	-0.649902	-0.865723	0.633333	-0.0179052	0.313927	-0.70712	-3.08714	-3.16489	12.8963	-0.00835683	0.0688847	-0.0149648	0.301025	0.767822	-0.713623	-0.358212	0.405113	0.839644	-0.0506502	0.0185137	0.129064	-9.08314	0.0199083	0.0167565	-0.0174443	-0.190918	-0.22876	1.07178	0.0527276	0.0839835	-0.994274	0.0398191	-0.556245	0.444991	-8.41048	-0.0170706	0.00531437	-0.0183393	-0.318115	0.0644531	1.04248	0.154953	0.0980589	0.981264	-0.0591278	-3.03789	-0.61636	-8.76587	-0.00529323	0.0127236	0.00040505	-0.0986328	0.137939	1.14966	-0.0445574	0.0521834	-0.996389	-0.049998	-0.845092	0.713573	-8.99529	0.0805456	-0.015786	-0.0115434	-0.338867	-0.194092	1.14746	-0.167735	0.0705789	-0.972664	0.144253	-3.04784	-3.11661	-8.76384	-0.0102828	-0.00426099	-0.032036	-0.09375	0.28418	1.13501	
45	-0.829528	-0.0670869	0.528963	-0.166076	9.48494	-0.291362	4.4603	0.135606	0.146961	-0.0244617	-0.803467	-0.0554199	-0.744385	0.425426	0.386064	-0.793058	0.202549	8.16554	-0.0110536	-5.52875	-0.00927222	-0.0166916	-0.0346998	-1.08691	-0.408447	0.568848	-0.28272	0.249855	0.4724	-0.796542	-1.18423	-9.33108	4.43448	0.258983	0.015792	0.0240445	-0.0925293	0.885498	-0.662109	0.554403	-0.276757	-0.202202	0.758391	-2.11856	-5.24484	6.57646	0.267877	0.0332774	0.0938779	0.170898	0.496582	-0.935547	0.622779	0.403785	-0.281892	-0.607981	-1.51074	8.33421	5.13357	-0.146719	-0.0239576	-0.0905629	0.170166	-0.638916	-0.875	0.631797	-0.0175343	0.315854	-0.707644	-3.1962	-3.46744	11.8974	-0.0433247	0.0945665	-0.0847889	0.300537	0.774414	-0.713623	-0.358212	0.405113	0.839644	-0.0506502	0.0185137	0.129064	-9.08314	0.0199083	0.0167565	-0.0174443	-0.190918	-0.22876	1.07178	0.0524657	0.0838944	-0.994325	0.039068	-0.562554	0.447307	-8.4006	-0.0214872	0.00726037	-0.0200391	-0.318359	0.0710449	1.04004	0.154713	0.0977981	0.981316	-0.0593218	-3.03602	-0.502185	-8.59351	0.00284561	0.00565569	-0.0370033	-0.105713	0.142334	1.14746	-0.045797	0.0525144	-0.996327	-0.0497756	-0.895572	0.701241	-9.002	-0.00639572	-0.0426769	-0.0115168	-0.334717	-0.189697	1.14966	-0.168232	0.0712073	-0.972514	0.144374	-3.0483	-3.03755	-8.6852	0.000424035	-0.0183903	-0.0212228	-0.0935059	0.281982	1.13501	
46	-0.831372	-0.0688745	0.525768	-0.166267	9.05512	-0.178923	4.7174	0.0576526	0.107799	-0.0647836	-0.799072	-0.0551758	-0.750977	0.425538	0.38664	-0.792918	0.20176	8.12816	-0.032761	-5.54548	-0.0282151	1.9536e-05	-0.0589072	-1.08911	-0.410645	0.562012	-0.28353	0.248117	0.46929	-0.798634	-1.47622	-8.42226	4.22213	0.0278033	-0.0287953	-0.0423969	-0.0881348	0.878906	-0.668701	0.553629	-0.27724	-0.203865	0.758335	-2.09382	-4.91286	6.62242	-0.137232	-0.051493	0.0188413	0.172852	0.503418	-0.937988	0.622947	0.401913	-0.280475	-0.609702	-1.27062	8.36952	4.90945	-0.123091	-0.0192735	-0.0546255	0.163574	-0.636719	-0.875	0.631246	-0.0181688	0.317102	-0.707563	-3.04947	-3.65122	11.9047	-0.102947	0.0622038	-0.0610176	0.298584	0.772217	-0.709473	-0.358192	0.404704	0.839872	-0.0502779	0.0193345	0.13198	-9.07897	0.0136823	0.0133813	-0.0172701	-0.188965	-0.224365	1.07397	0.0524657	0.0838944	-0.994325	0.039068	-0.562554	0.447307	-8.4006	-0.0214872	0.00726037	-0.0200391	-0.318359	0.0710449	1.04004	0.15494	0.0970481	0.981383	-0.0588452	-3.03621	-0.772722	-8.60147	-0.010997	0.00155163	-0.0449096	-0.0986328	0.137939	1.14746	-0.0469417	0.0526752	-0.996228	-0.0505053	-0.917226	0.719675	-9.0381	-0.0390342	-0.0421892	-0.00282592	-0.329834	-0.198486	1.14746	-0.168339	0.0714524	-0.972491	0.144286	-3.02411	-3.10226	-8.67649	-0.00689128	-0.00645702	-0.0216992	-0.0847168	0.282227	1.13965	
47	-0.831971	-0.069529	0.52504	-0.165297	8.70002	-0.297464	4.84133	0.000616033	-0.00416343	-0.0526672	-0.799072	-0.0529785	-0.746582	0.425373	0.387283	-0.792667	0.201866	7.95856	0.104339	-5.46893	0.0116768	0.000456683	-0.048346	-1.08228	-0.412842	0.564453	-0.282466	0.247946	0.474506	-0.795977	-1.40507	-8.97219	4.53011	-0.141183	-0.0889987	-0.0478694	-0.103516	0.887939	-0.662109	0.553881	-0.276387	-0.208651	0.75716	-2.04521	-5.46037	6.90034	-0.199339	-0.145608	-0.0671046	0.16748	0.518555	-0.931641	0.62317	0.400795	-0.280501	-0.610199	-1.27937	8.14018	5.1216	0.0102129	-0.0189656	0.0175593	0.169922	-0.634521	-0.875	0.63085	-0.0182248	0.317495	-0.707738	-3.10993	-3.85389	11.5489	-0.0192344	0.0483809	-0.0517907	0.29834	0.776611	-0.709473	-0.35729	0.40522	0.840027	-0.0499642	0.0242267	0.127461	-9.08044	0.0167332	0.0105749	-0.0161483	-0.190918	-0.224365	1.07178	0.0524576	0.0840955	-0.994316	0.038892	-0.557085	0.451792	-8.37921	0.00610834	0.0190782	-0.0194749	-0.311523	0.0622559	1.04248	0.154321	0.0967878	0.981441	-0.0599149	-3.00485	-0.622594	-8.33212	0.0423205	0.0344217	-0.035158	-0.103271	0.140137	1.14746	-0.0477536	0.0527664	-0.996161	-0.0509827	-0.941198	0.710468	-8.98312	-0.00661314	-0.00616741	0.000830366	-0.336914	-0.1875	1.14966	-0.168106	0.0715387	-0.972733	0.142877	-3.08706	-2.90689	-8.55727	-0.0788264	0.014226	0.01164	-0.0959473	0.281982	1.12817	
48	-0.830453	-0.0702703	0.527679	-0.164211	8.8997	-0.339095	4.45962	-0.00959621	-0.168896	-0.0208672	-0.80542	-0.0617676	-0.744385	0.425556	0.387507	-0.792496	0.20172	7.89881	0.00588697	-5.29514	-0.0100454	0.0378882	-0.0316967	-1.08667	-0.415039	0.562012	-0.28385	0.243874	0.475675	-0.796045	-0.932172	-9.07882	4.80868	0.0216543	-0.152053	-0.105499	-0.107666	0.890137	-0.662109	0.55451	-0.272493	-0.212721	0.756978	-1.80328	-5.88682	7.45228	0.0918433	-0.198157	-0.109686	0.156982	0.509766	-0.933594	0.623712	0.400447	-0.280762	-0.609752	-1.3185	8.08699	5.25419	-0.0495161	0.0144714	0.019741	0.17627	-0.630127	-0.877197	0.631173	-0.0201796	0.316479	-0.707852	-3.05291	-3.86017	12.1754	0.0206382	-0.0446995	-0.0151304	0.294189	0.772217	-0.707275	-0.356908	0.405242	0.840195	-0.0496837	0.0237767	0.128343	-9.07483	0.0160805	0.013452	-0.0167198	-0.190918	-0.226562	1.07397	0.052565	0.0840477	-0.994306	0.0390999	-0.547083	0.440159	-8.39257	0.0182544	0.0266984	-0.018115	-0.315918	0.0622559	1.04248	0.153727	0.0966934	0.981516	-0.0603764	-2.95524	-0.71489	-8.33478	0.0251037	0.0261519	-0.026251	-0.098877	0.142578	1.14746	-0.0471558	0.0527629	-0.996202	-0.0507313	-0.936097	0.703505	-9.00507	0.0179903	0.0440909	0.00340811	-0.334473	-0.191895	1.1543	-0.167591	0.0712999	-0.973136	0.140843	-3.04687	-2.89599	-8.65662	-0.0792363	0.0279043	0.0148185	-0.0883789	0.266602	1.13989	
49	-0.829777	-0.0705618	0.528811	-0.163858	9.25425	-0.320683	4.48079	-0.00592312	-0.114424	-0.0201913	-0.80542	-0.0617676	-0.740234	0.426131	0.387357	-0.792428	0.201061	8.23956	-0.129223	-5.57928	-0.028969	0.024631	-0.0306817	-1.08423	-0.419434	0.564697	-0.28164	0.245063	0.484492	-0.791132	-0.749587	-9.19337	4.70882	-0.617044	0.000376374	-0.0312323	-0.112061	0.900879	-0.641846	0.551415	-0.276085	-0.22505	0.754368	-1.29192	-7.5283	7.98469	-0.395205	-0.0951828	-0.0583981	0.155518	0.535889	-0.918701	0.62507	0.400005	-0.279896	-0.60905	-1.10448	8.60108	5.48888	-0.120491	0.0642091	-0.003534	0.171875	-0.625732	-0.877197	0.63197	-0.0217937	0.316181	-0.707226	-3.05296	-5.53657	13.0147	0.0766471	-0.0235109	0.00429829	0.293945	0.778564	-0.709473	-0.356908	0.405242	0.840195	-0.0496837	0.0237767	0.128343	-9.07483	0.0160805	0.013452	-0.0167198	-0.190918	-0.226562	1.07397	0.0526447	0.0839922	-0.994307	0.0390734	-0.537712	0.468618	-8.424	0.00856786	0.0211284	-0.0202243	-0.311768	0.0666504	1.04224	0.152454	0.0966815	0.981676	-0.0610138	-2.94682	-0.845344	-8.6024	0.0524847	0.0668092	-0.0268239	-0.105713	0.142334	1.15405	-0.0461913	0.0526797	-0.996235	-0.0510638	-0.91228	0.720049	-8.98334	-0.0122423	0.0477267	0.00809802	-0.332275	-0.196289	1.1499	-0.166753	0.0711898	-0.973373	0.14025	-2.93698	-2.86794	-8.79379	-0.0044374	0.0404007	-0.00334994	-0.0908203	0.268799	1.13965	
50	-0.828148	-0.073016	0.531151	-0.163457	9.05744	-0.310546	4.77978	0.0705395	-0.100631	-0.024686	-0.80957	-0.0683594	-0.738037	0.426227	0.387674	-0.792254	0.200932	8.05412	0.0469051	-5.52044	-0.00251465	0.007803	-0.0271685	-1.08203	-0.419434	0.562256	-0.281087	0.24532	0.485189	-0.790822	-1.09753	-9.76019	4.75872	0.175312	-0.0344751	0.029012	-0.110107	0.900879	-0.641846	0.550104	-0.278329	-0.22837	0.753502	-1.60157	-7.17157	8.48702	-0.227818	0.0151012	0.038394	0.148682	0.54248	-0.912354	0.621419	0.407571	-0.282346	-0.606634	-1.34597	8.71544	5.79895	0.535133	0.20154	-0.0814571	0.17041	-0.645508	-0.854248	0.634913	-0.0185594	0.315987	-0.704765	-3.333	-4.27976	12.8221	0.00722059	0.0767207	0.191213	0.302979	0.77002	-0.713623	-0.356908	0.405242	0.840195	-0.0496837	0.0237767	0.128343	-9.07483	0.0160805	0.013452	-0.0167198	-0.190918	-0.226562	1.07397	0.0526731	0.0839214	-0.994313	0.0390465	-0.5324	0.428454	-8.40621	0.00500675	0.0218124	-0.0167073	-0.317871	0.0600586	1.04004	0.150463	0.0967543	0.981878	-0.062573	-2.93093	-0.781599	-8.66774	0.0797856	0.0753267	-0.0315646	-0.113037	0.151367	1.14941	-0.0456733	0.0525803	-0.996247	-0.0513868	-0.895148	0.72969	-9.0119	-0.0124534	0.0250087	0.0070929	-0.338867	-0.194092	1.14526	-0.165599	0.0711894	-0.973609	0.139979	-2.99212	-2.84474	-8.79902	-0.0204836	0.0494161	-0.00844473	-0.0883789	0.266602	1.13989	
51	-0.825919	-0.0748546	0.53456	-0.162787	9.082	-0.0105282	4.73614	0.00417677	-0.215099	-0.033739	-0.820801	-0.0644531	-0.727295	0.426557	0.387889	-0.792253	0.199815	8.19616	-0.0102328	-5.64882	-0.0450128	0.0117399	-0.0521207	-1.08643	-0.419434	0.564697	-0.280935	0.247833	0.483591	-0.791071	-1.11584	-9.41407	4.8482	-0.064891	0.112613	0.0592475	-0.10376	0.905029	-0.64209	0.549908	-0.280508	-0.225843	0.753599	-1.77005	-6.05944	8.10837	0.0137191	0.144302	0.0602643	0.157959	0.535889	-0.914307	0.622342	0.409332	-0.276399	-0.607241	-1.37005	8.64751	5.03763	-0.346021	0.181268	-0.127756	0.187744	-0.638916	-0.863525	0.637248	-0.0124824	0.316208	-0.702689	-3.00884	-3.41509	12.6629	0.147347	0.202175	0.177105	0.315918	0.767822	-0.717773	-0.356908	0.405242	0.840195	-0.0496837	0.0237767	0.128343	-9.07483	0.0160805	0.013452	-0.0167198	-0.190918	-0.226562	1.07397	0.052593	0.0838502	-0.994355	0.0382239	-0.550529	0.447246	-8.42993	-0.0330846	0.00715082	-0.0140029	-0.313721	0.0622559	1.04004	0.14968	0.0967672	0.981905	-0.0639907	-3.02582	-0.916176	-8.80712	0.124157	0.0570418	-0.0380191	-0.117676	0.151367	1.15161	-0.045695	0.052481	-0.996234	-0.0517161	-0.896387	0.742952	-9.02282	-0.00711198	0.000367977	0.00959891	-0.33667	-0.198486	1.14746	-0.164783	0.0712313	-0.973768	0.139817	-2.94154	-2.7479	-8.90298	-0.0180914	0.0347478	-0.00846728	-0.102051	0.268799	1.13745	
52	-0.822841	-0.0755317	0.539848	-0.160599	9.46424	-0.220912	4.19749	-0.0572928	-0.257917	-0.0623354	-0.831787	-0.0666504	-0.712158	0.425814	0.388938	-0.79225	0.199373	8.00713	0.162882	-5.44797	0.0127119	-0.0210632	-0.0629429	-1.08398	-0.426025	0.574219	-0.282305	0.250586	0.480088	-0.79185	-0.996703	-9.04236	4.69352	0.0930578	0.145112	0.0646931	-0.0993652	0.907227	-0.644531	0.552355	-0.282349	-0.221573	0.752388	-1.66897	-5.87288	7.36383	0.12314	0.188368	-0.0458738	0.162109	0.54248	-0.918945	0.624266	0.410634	-0.270425	-0.607077	-1.50145	8.20083	4.95771	-0.097535	0.218818	-0.0669654	0.194092	-0.634521	-0.872559	0.638965	-0.0102506	0.320592	-0.69917	-3.20109	-3.11876	11.8277	-0.165166	0.150729	0.132119	0.326904	0.767822	-0.709229	-0.356773	0.404314	0.840709	-0.0495066	0.0246445	0.131719	-9.08132	0.0125217	0.00550915	-0.0175409	-0.186523	-0.226562	1.07397	0.0523389	0.0838532	-0.994407	0.0371903	-0.550718	0.493559	-8.43822	-0.0363252	-0.00404726	-0.0127208	-0.318115	0.0622559	1.03784	0.145538	0.0968901	0.981799	-0.0741765	-2.9546	-0.584575	-8.86729	0.30745	0.11086	-0.0613647	-0.12085	0.174316	1.14233	-0.0458462	0.0525372	-0.99626	-0.0510261	-0.902003	0.722672	-9.02387	0.0411743	0.0114222	-0.00399735	-0.33667	-0.196289	1.14526	-0.163882	0.0712689	-0.974044	0.138933	-2.97231	-2.80642	-8.91503	-0.0249141	0.0398638	-0.00572961	-0.0998535	0.270996	1.13965	
53	-0.821501	-0.0757199	0.542275	-0.159187	9.588	-0.261429	3.96073	-0.0702108	-0.233293	-0.0688457	-0.831543	-0.0732422	-0.714355	0.425469	0.389318	-0.792309	0.199135	8.01253	0.0362997	-5.33175	-3.5626e-05	-0.0244224	-0.0476338	-1.08203	-0.421631	0.569336	-0.284116	0.251517	0.477502	-0.79247	-0.954592	-9.01026	4.56496	0.199775	0.172469	-0.0141115	-0.0969238	0.894287	-0.646484	0.555245	-0.284191	-0.21795	0.750624	-1.69292	-5.98881	6.89487	0.105128	0.190487	-0.0752543	0.171143	0.53833	-0.916504	0.625314	0.410698	-0.267435	-0.60728	-1.71387	8.01419	4.66537	-0.181005	0.178124	-0.0734497	0.200195	-0.627686	-0.870361	0.640847	-0.0108637	0.325585	-0.69512	-3.51011	-2.92362	11.1747	-0.251118	0.0700795	0.124575	0.333252	0.772217	-0.694336	-0.355951	0.404555	0.840957	-0.0492499	0.0207235	0.139163	-9.07902	0.0135633	0.00322212	-0.0173517	-0.190674	-0.233154	1.07422	0.0521698	0.0838415	-0.994418	0.0371637	-0.573543	0.512484	-8.39965	0.00672289	0.00493455	-0.0205842	-0.313721	0.0622559	1.04248	0.144418	0.096785	0.981838	-0.0759614	-2.95734	-0.459302	-8.6666	0.154303	0.0800928	-0.0542845	-0.128174	0.180908	1.1377	-0.045818	0.0525733	-0.99628	-0.0506189	-0.900085	0.69762	-8.97488	0.035	0.0140099	-0.00131111	-0.338867	-0.198486	1.14746	-0.163501	0.0713111	-0.974106	0.138925	-2.98406	-2.72565	-8.84317	-0.00185558	0.035535	-0.0121629	-0.095459	0.270996	1.13062	
54	-0.820046	-0.077085	0.545012	-0.156666	9.49826	-0.111891	4.04974	-0.000764425	-0.119588	-0.107671	-0.838135	-0.0756836	-0.701416	0.425502	0.38933	-0.792371	0.198791	8.0555	0.0426065	-5.46028	-0.024519	0.00524982	-0.0249072	-1.07788	-0.419434	0.576416	-0.286003	0.255092	0.476476	-0.791266	-1.15681	-8.69297	4.63112	-0.128727	0.188425	-0.00270449	-0.0949707	0.898438	-0.651123	0.555245	-0.284191	-0.21795	0.750624	-1.69292	-5.98881	6.89487	0.105128	0.190487	-0.0752543	0.171143	0.53833	-0.916504	0.627507	0.410836	-0.263555	-0.60662	-1.68005	7.772	4.946	-0.141813	0.123346	-0.0184209	0.202148	-0.621094	-0.872559	0.641539	-0.0103743	0.325932	-0.694325	-3.50039	-3.98634	11.407	-0.0105504	0.0471542	0.0736261	0.3396	0.772217	-0.700928	-0.355165	0.404792	0.841188	-0.0490288	0.0109068	0.136338	-9.07687	0.0147446	0.00333175	-0.0165019	-0.190918	-0.22876	1.07617	0.0522523	0.0842827	-0.994347	0.0379494	-0.567409	0.494627	-8.38825	0.0359268	0.0150406	-0.0273655	-0.313721	0.0622559	1.04712	0.144481	0.0957043	0.982051	-0.0744461	-2.89286	-0.748637	-8.55916	-0.116522	-0.00559874	-0.0525661	-0.121338	0.181152	1.14233	-0.0458798	0.0526563	-0.996306	-0.0499712	-0.901226	0.71287	-8.99988	0.0424756	0.00866889	-0.00588206	-0.33667	-0.194092	1.14526	-0.163249	0.0718615	-0.974079	0.139125	-2.99668	-2.77906	-8.89894	0.0120106	0.0086047	-0.0367452	-0.102295	0.270996	1.12842	
55	-0.81901	-0.078595	0.546887	-0.154789	9.34281	-0.145693	4.12173	0.0137229	-0.100964	-0.0725748	-0.844482	-0.0778809	-0.708008	0.425205	0.389274	-0.792499	0.199025	7.91879	0.139165	-5.35499	-0.00474215	0.0104915	-0.00976987	-1.08203	-0.421631	0.571777	-0.288645	0.257476	0.474979	-0.790433	-1.2637	-9.79751	4.26285	0.227978	0.148617	-0.018737	-0.0864258	0.89624	-0.65332	0.559333	-0.285857	-0.215203	0.747743	-1.95934	-5.99068	7.38117	0.20236	0.115446	-0.0798623	0.168945	0.536133	-0.918701	0.627058	0.414584	-0.264389	-0.604166	-1.60833	8.06158	5.25328	0.26212	0.118173	0.0221266	0.213623	-0.636475	-0.86792	0.644305	-0.00902471	0.325009	-0.692213	-3.55207	-3.14461	11.4335	-0.0100534	-0.0257168	0.127752	0.348633	0.761475	-0.702637	-0.35444	0.404985	0.841416	-0.0487818	0.0153876	0.133471	-9.09084	0.0147899	0.00498608	-0.0181326	-0.190674	-0.233154	1.07422	0.0522556	0.0844578	-0.994305	0.0386409	-0.560306	0.478219	-8.41461	0.0395303	0.0252049	-0.0270966	-0.313965	0.0644531	1.04224	0.14446	0.0943514	0.982357	-0.0721336	-2.7723	-1.29583	-8.4746	-0.0456673	0.0235072	-0.0617084	-0.127686	0.169434	1.14478	-0.0460393	0.052993	-0.996315	-0.0492736	-0.910464	0.696705	-9.00764	0.0332306	0.00146054	-0.0120645	-0.339111	-0.191895	1.14966	-0.163103	0.0727289	-0.974063	0.138955	-2.92789	-2.76721	-8.87377	-0.0264758	0.0151835	-0.0394601	-0.104248	0.266602	1.14429	
56	-0.81756	-0.0799887	0.549192	-0.153575	9.33074	0.0928299	4.10102	-0.00411855	-0.133129	-0.0418148	-0.84668	-0.0800781	-0.705811	0.425901	0.388499	-0.7927	0.198252	8.06389	0.0199749	-5.4834	-0.057964	0.0396982	-0.00993679	-1.08179	-0.43042	0.564941	-0.291435	0.258813	0.472135	-0.790677	-0.811323	-8.76428	4.73237	-0.0982295	0.140718	-0.00404977	-0.0905762	0.894043	-0.65332	0.561831	-0.287407	-0.214403	0.745503	-1.9202	-5.9597	7.54344	0.00549978	0.119302	-0.12433	0.175781	0.533936	-0.923096	0.629136	0.414811	-0.262901	-0.602497	-1.58447	8.20459	4.72004	-0.127424	0.0783886	0.0457719	0.21582	-0.634277	-0.863525	0.646901	-0.0087056	0.322712	-0.690869	-3.24934	-3.13307	12.0522	0.0249897	-0.0662516	0.096116	0.342285	0.761475	-0.698486	-0.353579	0.405427	0.841583	-0.0484724	0.000827574	0.139722	-9.08242	0.0128509	0.00415818	-0.0181768	-0.18457	-0.224365	1.07593	0.0523134	0.0845655	-0.994257	0.0395576	-0.549209	0.423636	-8.37642	0.0440792	0.0225583	-0.0248681	-0.320312	0.0644531	1.04004	0.142773	0.0933962	0.982574	-0.0737712	-2.74441	-1.03714	-8.30075	0.0680283	0.0615544	-0.0619275	-0.12793	0.171875	1.14453	-0.0461625	0.0531749	-0.996322	-0.0488211	-0.89577	0.680255	-9.00493	0.0384745	0.00251067	-0.0140045	-0.339111	-0.191895	1.14966	-0.162853	0.0735836	-0.97404	0.138965	-2.87882	-2.77495	-8.80008	0.00855352	0.00409487	-0.035052	-0.0998535	0.266602	1.13745	
57	-0.815417	-0.0798629	0.552645	-0.152644	9.45722	-0.122611	4.06257	-0.0482754	-0.183588	0.00829108	-0.848877	-0.0800781	-0.695068	0.426204	0.388181	-0.79261	0.198585	8.16506	-0.121782	-5.61441	0.00457357	0.0425988	-0.0145879	-1.08179	-0.428223	0.564941	-0.2915	0.266172	0.47617	-0.785775	-1.19986	-9.62445	4.75097	-0.334782	0.246042	0.0713845	-0.0734863	0.906738	-0.637695	0.562023	-0.296995	-0.2228	0.73911	-1.5003	-7.13054	8.54413	-0.55256	0.242282	-0.211489	0.178711	0.564453	-0.906006	0.630852	0.414908	-0.263003	-0.600589	-1.84152	8.34687	4.58128	-0.00158029	0.024669	0.0941022	0.215576	-0.629883	-0.865723	0.649146	-0.00910246	0.321225	-0.68945	-3.61562	-3.24937	11.7321	0.114608	-0.0537001	0.0530313	0.344238	0.763672	-0.702637	-0.353047	0.405388	0.841841	-0.0481951	0.0157954	0.155265	-9.07538	0.0124959	0.00642974	-0.0177594	-0.190674	-0.233154	1.07617	0.0523552	0.0845105	-0.994237	0.0401101	-0.547102	0.429971	-8.41138	0.0287307	0.0206312	-0.0161628	-0.315918	0.0644531	1.04712	0.140681	0.0929257	0.982908	-0.0739279	-2.72948	-1.04955	-8.45831	0.0122828	0.0990023	-0.0436612	-0.134766	0.171631	1.14453	-0.0458882	0.0536938	-0.996427	-0.0463035	-0.898611	0.653437	-9.03293	0.0807742	0.0208541	-0.0188008	-0.339355	-0.185303	1.14258	-0.162744	0.0742328	-0.974062	0.138593	-2.84561	-2.99203	-8.87902	-0.0086076	0.00981686	-0.0279129	-0.101807	0.264404	1.14209	
58	-0.812886	-0.0800309	0.556744	-0.151157	9.29484	0.026823	4.16602	-0.0381117	-0.21962	-0.0256581	-0.859863	-0.0803223	-0.684326	0.428383	0.38749	-0.792	0.197673	8.29761	-0.0998073	-5.56964	-0.0774111	0.0660355	-0.0391951	-1.08838	-0.428223	0.564941	-0.293209	0.275128	0.476659	-0.781748	-1.30784	-10.5144	4.60292	0.0315072	0.380868	-0.00485367	-0.0671387	0.913086	-0.630859	0.561668	-0.309704	-0.228484	0.732398	-1.58117	-7.15015	8.29775	-0.58034	0.330672	-0.0685364	0.188721	0.586426	-0.891113	0.630357	0.417536	-0.266978	-0.597525	-1.44683	8.67561	5.28331	0.129973	0.00495902	0.0640746	0.21167	-0.636719	-0.858887	0.651042	-0.00989965	0.317056	-0.68958	-3.38499	-2.70082	12.765	0.0559201	-0.121311	-0.00882052	0.342285	0.75708	-0.711182	-0.353047	0.405388	0.841841	-0.0481951	0.0157954	0.155265	-9.07538	0.0124959	0.00642974	-0.0177594	-0.190674	-0.233154	1.07617	0.0523221	0.0843802	-0.99423	0.0406096	-0.560357	0.38207	-8.42118	0.0187999	0.0219869	-0.0147303	-0.316162	0.0666504	1.0376	0.138471	0.0930705	0.983026	-0.076317	-2.78724	-1.47428	-8.72858	0.180298	0.0831122	-0.0371589	-0.14209	0.180908	1.1377	-0.0463248	0.0541746	-0.996497	-0.0437397	-0.900088	0.583648	-8.96561	0.0912367	-0.00498455	-0.0227753	-0.337402	-0.178711	1.15161	-0.161943	0.0747367	-0.974168	0.138511	-2.96237	-2.62967	-8.70346	-0.0338004	0.0354546	-0.0244789	-0.101807	0.264404	1.13525	
59	-0.808991	-0.0798679	0.562833	-0.149578	9.77175	-0.147636	3.62711	-0.0537362	-0.276893	-0.00681724	-0.868896	-0.0805664	-0.671387	0.429197	0.387448	-0.791658	0.197359	8.10175	0.241688	-5.49348	-0.0289879	0.0170434	-0.0484087	-1.08618	-0.426025	0.567139	-0.29508	0.284373	0.472568	-0.780217	-1.32854	-9.37024	4.23019	0.0103201	0.390652	0.144148	-0.0458984	0.914795	-0.633301	0.566068	-0.317552	-0.221503	0.72778	-1.77258	-7.41435	6.54398	0.145788	0.488295	-0.0418827	0.20459	0.584473	-0.890869	0.634886	0.412292	-0.265113	-0.597202	-1.55296	8.39136	4.82356	-0.311693	-0.0198109	0.123656	0.209229	-0.632324	-0.865723	0.651835	-0.0143049	0.317383	-0.688603	-3.30383	-3.55014	12.4406	-0.145029	-0.113079	-0.0149571	0.342041	0.761475	-0.708984	-0.353047	0.405388	0.841841	-0.0481951	0.0157954	0.155265	-9.07538	0.0124959	0.00642974	-0.0177594	-0.190674	-0.233154	1.07617	0.0523723	0.0841085	-0.994275	0.0400085	-0.54971	0.449815	-8.42146	-0.0146717	0.016698	-0.0147376	-0.315918	0.0644531	1.04248	0.135503	0.0934096	0.982904	-0.0825409	-2.74101	-0.974719	-8.79531	0.24552	0.104817	-0.0502901	-0.14502	0.19458	1.13965	-0.0464943	0.0548541	-0.996536	-0.0417844	-0.915988	0.539314	-8.99506	0.0808606	0.0167121	-0.030036	-0.339844	-0.174316	1.14917	-0.161043	0.0757015	-0.974504	0.136661	-3.00852	-2.76014	-8.67189	-0.0673143	0.0285895	-0.0387555	-0.101562	0.257812	1.14453	
60	-0.805842	-0.0796422	0.567623	-0.148596	9.96413	0.221367	3.28251	-0.066138	-0.215619	0.0328578	-0.873291	-0.0786133	-0.662842	0.430009	0.3868	-0.791396	0.197917	8.0091	0.245521	-5.27785	-0.0116777	0.0443678	0.01309	-1.08423	-0.423828	0.55542	-0.29784	0.289686	0.465122	-0.781687	-1.16621	-9.06188	3.77963	0.257677	0.250529	0.121273	-0.034668	0.89502	-0.64209	0.56949	-0.322031	-0.212612	0.725792	-1.74694	-7.60316	5.6853	0.215263	0.360723	0.0166325	0.220459	0.575684	-0.895264	0.635016	0.412622	-0.266969	-0.596008	-1.84151	7.66778	4.99486	0.245398	-0.0145947	0.0332878	0.207031	-0.634277	-0.86792	0.652657	-0.013458	0.314106	-0.689344	-3.37589	-3.67457	11.923	0.184763	-0.0399449	0.000960456	0.33374	0.754883	-0.717529	-0.352869	0.404606	0.842306	-0.0479396	0.00818663	0.144604	-9.08004	0.0115932	0.00543476	-0.0183884	-0.194824	-0.235352	1.07837	0.0526731	0.0843596	-0.994235	0.0400716	-0.546006	0.421715	-8.42033	0.00632932	0.0215391	-0.0215667	-0.318359	0.0666504	1.04004	0.133669	0.0932244	0.983159	-0.0827105	-2.71993	-0.794575	-8.56846	-0.0675094	0.0631067	-0.0267591	-0.149658	0.196777	1.13525	-0.0456121	0.0552729	-0.99658	-0.0411543	-0.879143	0.517089	-9.00599	0.0177635	0.0509962	-0.00897393	-0.335205	-0.178711	1.14722	-0.16014	0.0768908	-0.974638	0.1361	-2.8526	-2.96712	-8.77905	-0.00476255	0.0324247	-0.0562493	-0.108398	0.259766	1.14209	
61	-0.804989	-0.0788725	0.568948	-0.148561	9.9336	0.0364121	3.38045	-0.0602068	-0.120382	0.0520304	-0.878174	-0.0720215	-0.654297	0.430087	0.386256	-0.791579	0.198078	8.02661	0.254432	-5.36607	-0.0212379	0.0250447	0.021219	-1.08838	-0.423828	0.5625	-0.299152	0.292146	0.461229	-0.782577	-1.38352	-9.32241	4.10094	0.2472	0.276245	0.119943	-0.026123	0.892822	-0.65332	0.572602	-0.321855	-0.202394	0.726342	-2.44208	-5.98581	6.27442	0.28081	0.216588	0.0594403	0.223389	0.560547	-0.906006	0.635016	0.412622	-0.266969	-0.596008	-1.84151	7.66778	4.99486	0.245398	-0.0145947	0.0332878	0.207031	-0.634277	-0.86792	0.653253	-0.0132325	0.312699	-0.689424	-3.34799	-3.90649	12.3887	-0.00630344	0.00132088	0.00476428	0.338135	0.752686	-0.719482	-0.352166	0.404757	0.842536	-0.0477835	0.00281467	0.162677	-9.07734	0.0166691	0.0018034	-0.0174076	-0.188477	-0.230957	1.08057	0.0527847	0.0843508	-0.994231	0.0400495	-0.536643	0.447256	-8.42244	0.00571617	0.0278407	-0.0221082	-0.318115	0.0644531	1.04468	0.133627	0.0928707	0.983403	-0.0802341	-2.67597	-1.09216	-8.61999	-0.193195	0.0281568	-0.0213627	-0.149658	0.192139	1.13745	-0.0450807	0.0553702	-0.996602	-0.0410596	-0.883009	0.498957	-9.00468	0.00775904	0.0533168	-0.00318763	-0.337402	-0.180908	1.14722	-0.15968	0.0773704	-0.974646	0.136316	-2.91881	-2.86908	-8.72318	0.0100342	0.0376118	-0.0502639	-0.104004	0.26001	1.14209	
62	-0.803919	-0.0764431	0.570664	-0.149044	9.75187	-0.0530274	3.41046	-0.0843609	-0.048349	0.109572	-0.876465	-0.0634766	-0.6521	0.430135	0.385344	-0.791812	0.198817	8.02816	0.112125	-5.45311	0.00417316	0.0170454	0.0256146	-1.08203	-0.419434	0.559814	-0.301637	0.29296	0.452371	-0.78648	-1.40089	-8.33563	3.92293	0.284362	0.131706	0.0624955	-0.0195312	0.879883	-0.668945	0.573432	-0.322567	-0.199768	0.726099	-1.96103	-6.57817	5.90666	0.14023	0.186801	0.0224105	0.236816	0.558594	-0.912598	0.636612	0.412684	-0.266973	-0.594258	-1.71528	8.22572	5.22787	-0.221733	0.0417022	0.0584802	0.207275	-0.640869	-0.870361	0.653799	-0.014506	0.313912	-0.688328	-3.50981	-3.62593	11.9393	-0.157964	-0.00155736	0.0368958	0.342285	0.75708	-0.715332	-0.352166	0.404757	0.842536	-0.0477835	0.00281467	0.162677	-9.07734	0.0166691	0.0018034	-0.0174076	-0.188477	-0.230957	1.08057	0.052804	0.0843038	-0.994236	0.0399984	-0.521875	0.422728	-8.42034	0.00183567	0.0193185	-0.0179518	-0.320068	0.0600586	1.03784	0.132991	0.0928907	0.983637	-0.0783721	-2.51186	-1.51387	-8.87087	0.0154358	0.0571257	-0.00834829	-0.15625	0.185303	1.1377	-0.0434134	0.0554389	-0.996687	-0.0406982	-0.855662	0.529115	-9.02043	0.0276233	0.0797245	0.00370765	-0.344238	-0.174561	1.14478	-0.158563	0.0777914	-0.974678	0.137148	-2.75957	-2.90966	-8.77713	0.0426278	0.0540875	-0.0228524	-0.112793	0.255371	1.14233	
63	-0.80302	-0.074424	0.571694	-0.150953	9.60807	-0.479769	3.5484	0.0102091	-0.054584	0.0988116	-0.880859	-0.0634766	-0.656494	0.429715	0.385123	-0.791995	0.199422	8.01954	0.163146	-5.36224	0.0330574	0.00240447	0.0240986	-1.09082	-0.419434	0.555176	-0.302046	0.295357	0.449372	-0.787145	-1.85986	-8.93	4.56895	0.0923061	0.0749071	0.0779042	-0.0239258	0.884277	-0.669189	0.57484	-0.323112	-0.195265	0.725968	-2.3623	-6.2706	6.45796	0.0636666	0.104291	0.0423856	0.243652	0.556396	-0.910156	0.63928	0.412156	-0.265154	-0.592572	-1.4808	8.03001	5.08475	-0.0629238	0.09769	0.0519089	0.208984	-0.629883	-0.865723	0.655659	-0.01753	0.315952	-0.68555	-3.47989	-4.12878	12.22	-0.13312	-0.0381405	0.084942	0.337891	0.761475	-0.702637	-0.351491	0.404892	0.842758	-0.0477082	0.00613687	0.157935	-9.07942	0.0195482	0.000944037	-0.0165054	-0.188477	-0.235107	1.06982	0.0527861	0.0842123	-0.994248	0.0399059	-0.531159	0.431421	-8.42635	0.00136965	0.0171188	-0.0148111	-0.324707	0.0644531	1.04004	0.13055	0.0936723	0.983655	-0.0812716	-2.59372	-1.01353	-8.57768	0.13277	0.101179	-0.0110898	-0.156738	0.198975	1.14185	-0.0415631	0.0552995	-0.996807	-0.0398839	-0.803972	0.499817	-9.0328	0.025209	0.0834482	0.0114781	-0.353271	-0.172363	1.14917	-0.15696	0.0776053	-0.975024	0.136637	-2.74017	-2.98462	-8.84789	-0.0294933	0.0729417	0.00264373	-0.112793	0.257568	1.14453	
64	-0.802462	-0.0740834	0.57184	-0.153513	9.56359	-0.411258	3.69751	0.0621512	-0.00525231	0.0952213	-0.878662	-0.0612793	-0.647949	0.433361	0.382004	-0.791639	0.198943	8.2624	0.169457	-5.56008	-0.187862	0.238472	0.0216643	-1.09082	-0.421631	0.548096	-0.30227	0.294861	0.446902	-0.788649	-2.01116	-8.75132	4.42265	0.0727247	-0.0279482	0.0412708	-0.0131836	0.877441	-0.675781	0.575492	-0.322811	-0.193274	0.726118	-2.66254	-5.52791	6.67621	0.0273694	0.0186985	-0.0133968	0.246094	0.549805	-0.907959	0.64522	0.409355	-0.259778	-0.590454	-1.9653	9.60448	5.66173	-0.579674	0.167168	0.150559	0.206543	-0.621094	-0.875	0.658245	-0.0244963	0.32176	-0.680135	-3.34882	-5.10131	11.6401	-0.326213	-0.0641922	0.0851343	0.341797	0.772217	-0.694336	-0.350845	0.40504	0.842964	-0.0475507	0.00356642	0.148935	-9.07356	0.0165776	0.0029502	-0.0167925	-0.184326	-0.230957	1.07617	0.0528591	0.0841956	-0.994243	0.0399648	-0.513878	0.432473	-8.43665	0.00452534	0.0142041	-0.015143	-0.318359	0.0688477	1.04004	0.129318	0.0943486	0.983726	-0.0815959	-2.61956	-1.02923	-8.61667	-0.00324203	0.040108	0.00338774	-0.156494	0.194336	1.13306	-0.0400881	0.055057	-0.996908	-0.0391834	-0.781918	0.47842	-9.01313	0.027512	0.0692851	0.0147654	-0.348877	-0.170166	1.14453	-0.155784	0.0769017	-0.975318	0.136282	-2.77243	-2.92336	-8.94339	-0.0131569	0.050562	0.0216974	-0.119629	0.257568	1.14209	
65	-0.801453	-0.0748823	0.572491	-0.155948	9.60238	-0.0616872	3.71662	0.0759499	-0.037151	0.0690724	-0.874268	-0.059082	-0.650146	0.441714	0.377988	-0.788632	0.200184	8.30498	0.0627449	-5.10618	-0.129336	0.267861	0.0105494	-1.09961	-0.41748	0.522217	-0.2965	0.296984	0.454584	-0.785647	-1.92474	-9.41265	4.02444	-0.404061	-0.109227	0.0947616	-0.0131836	0.885986	-0.657715	0.572687	-0.327108	-0.201543	0.724161	-2.53127	-7.07904	5.86278	-0.352751	-0.0797362	-0.0197291	0.245361	0.56958	-0.903809	0.648461	0.408833	-0.258108	-0.587992	-1.68479	7.0241	5.1575	0.265349	0.190339	0.105404	0.208496	-0.614502	-0.877197	0.661701	-0.0264308	0.320992	-0.677065	-3.4144	-2.92993	11.6381	-0.173772	-0.0825249	0.132323	0.34375	0.774414	-0.687988	-0.349982	0.405095	0.843322	-0.0471078	-0.00698339	0.161613	-9.08242	0.00264938	-0.00172278	-0.0171992	-0.184082	-0.235107	1.07422	0.0527304	0.0839877	-0.994279	0.0396728	-0.526251	0.426617	-8.4056	-0.00971149	0.0122915	-0.0144596	-0.320557	0.0688477	1.0354	0.128524	0.0946413	0.983835	-0.081203	-2.51397	-1.35433	-8.76178	0.0274651	0.0493035	-0.0110353	-0.158936	0.192139	1.13745	-0.0394172	0.0548665	-0.996932	-0.0395263	-0.753507	0.499361	-9.04459	-0.0244236	0.016445	0.00933269	-0.351074	-0.170166	1.14697	-0.154388	0.0766268	-0.975573	0.1362	-2.61968	-2.82502	-8.99083	-0.00273218	0.0661996	-0.00539643	-0.117188	0.255371	1.14917	
66	-0.799957	-0.0744269	0.574078	-0.157999	9.72249	-0.214883	3.25515	0.0286359	-0.0870683	0.0907418	-0.885498	-0.0549316	-0.650146	0.443387	0.376351	-0.788632	0.199567	7.99601	-0.00467177	-4.98674	-0.0848975	0.0354501	-0.000651003	-1.09766	-0.41333	0.514893	-0.29353	0.293467	0.455926	-0.787305	-1.83962	-9.11898	3.65753	0.139477	-0.208914	0.00703611	-0.0217285	0.88623	-0.662354	0.568892	-0.327001	-0.2068	0.725718	-2.55414	-6.82983	5.98587	-0.07009	-0.190611	0.105132	0.236084	0.57373	-0.897461	0.658214	0.401301	-0.251994	-0.584988	-0.560865	8.23939	4.98087	-0.819815	0.0896224	0.29087	0.209717	-0.594727	-0.890869	0.6645	-0.0370642	0.326858	-0.670992	-2.59877	-3.27439	11.2765	-0.537613	-0.193119	0.0754842	0.341309	0.7854	-0.668945	-0.348188	0.405971	0.843686	-0.046338	-0.023312	0.161744	-9.07694	-0.000907756	-0.00581964	-0.0182918	-0.188477	-0.230957	1.07617	0.0525632	0.0836882	-0.994349	0.0387835	-0.528267	0.456495	-8.40823	-0.0290391	0.0113098	-0.0122074	-0.32251	0.0644531	1.04004	0.12682	0.095089	0.983749	-0.0843359	-2.45006	-1.15447	-8.60089	0.159866	0.0667011	-0.0229837	-0.164062	0.203369	1.13965	-0.0389226	0.0546864	-0.996937	-0.0401392	-0.763127	0.496151	-9.01924	-0.0360277	0.0350501	0.0127473	-0.357666	-0.176758	1.14478	-0.153146	0.0763313	-0.975911	0.135339	-2.87021	-2.8209	-8.92057	-0.0362308	0.0523957	0.0086121	-0.124023	0.253174	1.14917	
67	-0.799513	-0.0719054	0.57449	-0.159904	9.66023	-0.597383	3.25647	-0.0538625	0.0267535	0.129759	-0.883789	-0.0483398	-0.650391	0.442667	0.376257	-0.788772	0.200788	8.13662	0.0809529	-5.29568	0.0624579	0.0376707	0.0190231	-1.09985	-0.415527	0.510254	-0.291109	0.289724	0.45833	-0.788193	-1.75235	-8.58028	4.60587	-0.150361	-0.188376	0.000380191	-0.0305176	0.888672	-0.660156	0.567215	-0.322938	-0.20875	0.728287	-2.61441	-6.39691	6.63627	0.046086	-0.217007	0.0314959	0.225098	0.57373	-0.899658	0.664249	0.396224	-0.251874	-0.58167	-1.68155	6.84581	4.70531	0.155778	-0.0149028	0.25742	0.203125	-0.592529	-0.893311	0.667406	-0.0424697	0.32282	-0.669741	-3.01913	-4.1483	10.9045	0.150932	-0.302569	0.0106429	0.330566	0.7854	-0.677734	-0.34732	0.406377	0.843865	-0.0460233	-0.021645	0.180095	-9.11242	0.00458892	-0.00627926	-0.0173547	-0.188477	-0.233154	1.07202	0.0524513	0.0834476	-0.99439	0.0383947	-0.532613	0.459312	-8.40799	-0.00342737	0.0136207	-0.014856	-0.317871	0.0600586	1.04468	0.125444	0.0957109	0.983805	-0.0850377	-2.56225	-1.09108	-8.65732	0.00747569	0.0518611	0.00774172	-0.168701	0.208008	1.12817	-0.0379562	0.054347	-0.996974	-0.0405983	-0.743044	0.523663	-9.03816	-0.00770246	0.0488826	0.0186991	-0.357666	-0.172363	1.14233	-0.152478	0.0755834	-0.975978	0.136035	-2.79928	-2.78226	-8.97466	0.0504388	0.0375911	0.0191804	-0.124268	0.259766	1.14209	
68	-0.799658	-0.0700018	0.574282	-0.160769	9.55982	-0.491766	3.28617	-0.044391	0.0185121	0.0565793	-0.884033	-0.0439453	-0.652588	0.442567	0.376174	-0.788672	0.201552	8.27902	0.00451638	-5.18164	0.042679	0.0341924	0.00776027	-1.09766	-0.41333	0.517334	-0.289075	0.286512	0.460539	-0.788829	-1.40135	-9.35841	4.63649	0.03582	-0.178859	-0.0158284	-0.034668	0.888672	-0.657715	0.564574	-0.320359	-0.211973	0.730543	-2.07848	-6.7058	7.29136	0.0408682	-0.168097	0.0596573	0.218506	0.569336	-0.897217	0.663113	0.400182	-0.258154	-0.577488	-0.922472	7.31904	5.13781	0.622572	-0.031579	0.274937	0.193115	-0.612305	-0.884033	0.671577	-0.0443735	0.312631	-0.670282	-2.87404	-3.64248	12.2659	0.184358	-0.352855	0.0249698	0.328369	0.781006	-0.69458	-0.346888	0.406225	0.844123	-0.0458898	-0.0304964	0.175423	-9.07519	0.0151127	0.00404084	-0.0179285	-0.182129	-0.23291	1.06982	0.0527807	0.0835735	-0.994358	0.0385003	-0.533086	0.462292	-8.41135	0.00790754	0.0230786	-0.0166117	-0.315918	0.0644531	1.04004	0.125082	0.0960679	0.983872	-0.0843902	-2.64596	-1.05188	-8.6268	-0.0387155	0.0427476	0.0142516	-0.168457	0.19873	1.13281	-0.0374131	0.0542331	-0.997006	-0.0404688	-0.739365	0.527873	-9.02488	0.010683	0.0532374	0.0130356	-0.353027	-0.178955	1.14478	-0.151978	0.0748726	-0.976094	0.136151	-2.77568	-2.65936	-9.05528	-0.0170055	0.0297631	0.0165095	-0.126465	0.257568	1.14209	
69	-0.800024	-0.0688882	0.573843	-0.161001	9.55557	-0.630354	3.51308	-0.055558	0.0555919	0.0595856	-0.879639	-0.041748	-0.650391	0.441693	0.375913	-0.789054	0.202461	8.25172	0.171532	-5.20401	0.0277284	-0.020573	0.0164546	-1.09131	-0.411133	0.51709	-0.288858	0.28481	0.4599	-0.789896	-1.70408	-9.23234	4.67792	0.11376	-0.122975	-0.00996603	-0.0368652	0.888672	-0.660156	0.563076	-0.318965	-0.213614	0.73183	-2.19916	-6.32436	7.70294	-0.0229137	-0.104972	0.041381	0.213867	0.575684	-0.899658	0.665745	0.401615	-0.263986	-0.570789	-1.07853	9.46755	5.64277	-0.0963961	0.00920499	0.32304	0.18457	-0.618896	-0.884033	0.675535	-0.0502722	0.30696	-0.668506	-2.57953	-3.60887	13.2562	-0.102315	-0.341078	0.0749036	0.319824	0.778809	-0.696777	-0.346888	0.406225	0.844123	-0.0458898	-0.0304964	0.175423	-9.07519	0.0151127	0.00404084	-0.0179285	-0.182129	-0.23291	1.06982	0.0528215	0.0835171	-0.994359	0.0385318	-0.528985	0.451892	-8.40882	0.0104602	0.0232699	-0.0184019	-0.320312	0.0644531	1.0376	0.124481	0.0966229	0.984003	-0.0831089	-2.51457	-1.32396	-8.99185	0.000655059	0.0400005	0.00262321	-0.172852	0.196533	1.13062	-0.036429	0.0539966	-0.997061	-0.0403437	-0.704834	0.518424	-9.03211	0.000428517	0.0478563	0.0146101	-0.364258	-0.179199	1.13794	-0.151917	0.074743	-0.976162	0.135803	-2.75692	-2.76079	-9.0507	-0.0244354	0.0105435	0.00904906	-0.128662	0.259766	1.14453	
70	-0.800545	-0.0669171	0.57328	-0.161245	9.58486	-0.58828	3.58261	-0.0615072	0.0470565	0.0580353	-0.881836	-0.0395508	-0.650391	0.439933	0.37611	-0.78969	0.203447	8.23668	-0.0974514	-5.19359	0.053306	-0.0380818	0.0153963	-1.1001	-0.406738	0.526611	-0.286878	0.284602	0.462364	-0.789254	-1.67999	-9.17793	4.57353	-0.20261	-0.0266953	0.0495649	-0.0324707	0.890869	-0.651123	0.562897	-0.318872	-0.214131	0.731857	-2.44027	-6.81535	7.56262	-0.0266433	-0.0281192	-0.000581156	0.209717	0.566895	-0.901611	0.671607	0.397633	-0.264069	-0.566657	-1.21092	8.50253	5.3571	-0.0331754	0.0776219	0.266006	0.18457	-0.614502	-0.884033	0.677073	-0.0537095	0.305977	-0.667132	-3.04408	-3.38223	13.385	-0.157073	-0.261369	0.0480231	0.315674	0.776611	-0.690186	-0.346855	0.405752	0.844361	-0.0459611	-0.0229177	0.175401	-9.08848	0.0201555	0.00779585	-0.017608	-0.182129	-0.233154	1.07202	0.0528215	0.0835171	-0.994359	0.0385318	-0.528985	0.451892	-8.40882	0.0104602	0.0232699	-0.0184019	-0.320312	0.0644531	1.0376	0.123389	0.0967768	0.984019	-0.0843548	-2.35546	-1.10289	-8.87433	0.0672787	0.0476501	-0.0290083	-0.166504	0.208008	1.13501	-0.0357229	0.0537838	-0.997098	-0.0403443	-0.682618	0.517257	-9.02448	0.00857814	0.0317296	0.0119927	-0.362061	-0.176758	1.14478	-0.153278	0.0742635	-0.97598	0.135846	-2.72549	-3.0216	-9.35071	0.0252507	-0.0709271	0.0299185	-0.124268	0.257568	1.14673	
71	-0.80035	-0.0658329	0.573498	-0.161879	9.37107	-0.6732	3.62429	0.00361711	-0.0508583	0.032099	-0.877686	-0.0351562	-0.650391	0.438661	0.376722	-0.789799	0.20463	8.23591	0.106167	-5.17516	0.0564855	-0.0295698	-0.0194614	-1.0957	-0.404541	0.519287	-0.286212	0.284225	0.461653	-0.790048	-1.32388	-9.37657	4.80349	0.180604	-0.0485433	0.0341145	-0.0366211	0.884277	-0.644043	0.562488	-0.318458	-0.212615	0.732794	-2.03914	-7.08915	7.18487	0.126672	0.0203906	0.0621655	0.216553	0.567139	-0.903809	0.672598	0.398791	-0.267217	-0.563181	-0.446902	8.39354	5.2409	0.208173	-0.0265941	0.062109	0.178223	-0.621094	-0.879395	0.679617	-0.0557542	0.301298	-0.666507	-2.48109	-2.7944	14.0742	0.0687373	-0.166543	0.0315995	0.309326	0.776611	-0.69873	-0.346855	0.405752	0.844361	-0.0459611	-0.0229177	0.175401	-9.08848	0.0201555	0.00779585	-0.017608	-0.182129	-0.233154	1.07202	0.0531059	0.0841253	-0.994288	0.0386533	-0.532066	0.466393	-8.42189	0.0148742	0.00554186	-0.0315843	-0.318115	0.0644531	1.04468	0.121833	0.0965951	0.984143	-0.0853787	-2.32439	-1.02825	-8.90896	0.0379187	0.0716013	-0.0365531	-0.182861	0.210205	1.12598	-0.0355909	0.0537068	-0.997111	-0.0402227	-0.695607	0.519469	-9.1006	0.00241212	0.0100874	0.00137228	-0.364258	-0.177002	1.14014	-0.154717	0.0737433	-0.975686	0.136604	-2.77996	-2.74983	-9.30315	0.0157053	-0.0164951	0.00688953	-0.119629	0.259766	1.14209	
72	-0.800118	-0.0652526	0.573676	-0.162632	9.51948	-0.78789	3.4345	0.00451011	0.0187925	0.0335849	-0.880127	-0.032959	-0.654785	0.43776	0.377062	-0.790097	0.204785	8.11663	-0.0594005	-5.20224	0.00480118	-0.0120536	-0.0185261	-1.0979	-0.404541	0.52417	-0.285839	0.283356	0.457405	-0.79296	-1.70359	-8.67173	4.44508	0.165475	-0.00174466	0.0682355	-0.0324707	0.888672	-0.660156	0.561601	-0.317968	-0.20881	0.734778	-1.98099	-6.50095	7.06348	0.122845	0.0620625	0.108347	0.225586	0.562744	-0.9104	0.675871	0.394317	-0.263827	-0.564011	-0.905292	9.32759	5.53235	-0.559585	0.0174819	0.0404003	0.177734	-0.612305	-0.88623	0.677795	-0.0584621	0.304443	-0.666701	-2.41814	-3.9528	13.1032	-0.339576	0.106703	-0.109424	0.304688	0.782959	-0.688232	-0.346415	0.40583	0.844505	-0.0459226	-0.0329165	0.181274	-9.0922	0.0223712	0.00577101	-0.0157555	-0.186279	-0.233154	1.07422	0.0526381	0.0843631	-0.994274	0.0391381	-0.531628	0.421836	-8.39173	0.0287699	0.00398368	-0.0281509	-0.318115	0.0644531	1.0354	0.1201	0.0956142	0.984653	-0.0830221	-2.45068	-1.07209	-8.72982	-0.0893782	0.079234	-0.0439014	-0.177979	0.205566	1.13721	-0.0362255	0.0538673	-0.997044	-0.0411062	-0.682253	0.509747	-8.9834	-0.0377024	-0.0269111	-0.00182591	-0.364258	-0.179199	1.14697	-0.155218	0.0738443	-0.975557	0.136906	-2.70341	-2.54947	-8.50736	0.0359853	-0.0437829	-0.00185475	-0.117676	0.261963	1.13989	
73	-0.80084	-0.0648043	0.572731	-0.162589	9.32193	-0.380376	3.55444	-0.0334519	0.0508979	0.0164981	-0.880127	-0.0307617	-0.652588	0.436816	0.377296	-0.790387	0.205253	8.24012	-0.11353	-5.28538	0.0262842	-0.0174623	0.00238158	-1.10254	-0.402344	0.526367	-0.283846	0.285151	0.459025	-0.792096	-1.72729	-9.2883	4.53947	-0.11745	0.0515892	0.0325968	-0.0324707	0.886475	-0.653076	0.560442	-0.318908	-0.206882	0.735801	-2.37451	-5.80668	6.96542	-0.0772605	0.020497	0.0881474	0.225586	0.560547	-0.9104	0.678401	0.390074	-0.258583	-0.566347	-0.727856	6.8614	5.35155	0.0383862	0.0794749	-0.0941202	0.181641	-0.596924	-0.895508	0.676545	-0.0603946	0.311234	-0.66466	-2.70817	-4.44293	12.3515	-0.130761	0.186284	0.0121112	0.314941	0.796143	-0.675781	-0.346086	0.405911	0.844606	-0.0458341	-0.0304779	0.15935	-9.09063	0.0221806	0.0105555	-0.0157192	-0.186523	-0.230957	1.07837	0.0525094	0.0843966	-0.994275	0.0392106	-0.532927	0.431414	-8.41699	0.00512183	0.0125559	-0.0241113	-0.320312	0.0666504	1.04004	0.121361	0.0948003	0.984692	-0.0816439	-2.37131	-1.58426	-9.05076	-0.00808455	-0.0599508	-0.0375415	-0.177734	0.200928	1.13062	-0.0368808	0.0539678	-0.996999	-0.0414861	-0.718827	0.543017	-9.05194	-0.00285325	-0.0128007	-0.00615035	-0.359863	-0.174561	1.14014	-0.156775	0.074089	-0.975298	0.136848	-2.75114	-2.87909	-8.63039	0.0166743	-0.0393056	-0.0190399	-0.124268	0.259766	1.14209	
74	-0.800861	-0.0635532	0.572702	-0.16308	9.23414	-0.566214	3.53869	-0.0112934	-0.00397533	0.0372095	-0.882568	-0.0266113	-0.654785	0.436227	0.377578	-0.790563	0.205307	8.07868	6.46524e-06	-5.3001	0.0104587	-0.0168895	-0.0121341	-1.10229	-0.404541	0.528809	-0.282561	0.286311	0.459505	-0.791859	-1.77944	-7.94472	4.44853	-0.106564	0.0306827	0.0374562	-0.0239258	0.888428	-0.655518	0.560549	-0.321079	-0.207974	0.734466	-2.43513	-5.23018	6.69381	-0.170953	0.069716	-0.04144	0.227783	0.564941	-0.903809	0.675611	0.396289	-0.259347	-0.565016	-0.452254	8.49609	5.60438	0.155345	0.11882	-0.0927034	0.188721	-0.610107	-0.895508	0.677246	-0.0567622	0.312492	-0.663675	-2.52933	-4.68027	12.0426	0.0324184	0.107971	0.118081	0.32373	0.791748	-0.682129	-0.346339	0.405644	0.844628	-0.0458896	-0.0249842	0.165648	-9.10314	0.0273862	0.018605	-0.0167449	-0.184082	-0.235107	1.07202	0.05242	0.0843633	-0.994287	0.0390931	-0.533925	0.439516	-8.4449	-0.000385294	0.011365	-0.0205404	-0.315918	0.0644531	1.04248	0.12186	0.0946983	0.984514	-0.0831527	-2.50075	-1.0539	-8.76356	0.0447343	-0.013842	-0.0210383	-0.177734	0.200928	1.12842	-0.0371687	0.0540728	-0.996982	-0.041488	-0.713627	0.543785	-8.98052	-0.00199634	0.00769748	0.00194424	-0.364014	-0.181396	1.14722	-0.156293	0.0747311	-0.975133	0.138215	-2.73234	-2.50846	-8.43357	0.0297473	0.0366086	-0.0385343	-0.124268	0.259766	1.14453	
75	-0.800574	-0.0609864	0.573422	-0.162939	9.28073	-0.801701	3.62666	-0.109864	-0.0170295	0.0617179	-0.876221	-0.0200195	-0.656982	0.436148	0.377288	-0.790699	0.205482	8.0387	0.156142	-5.20907	-0.0162875	0.0231254	-0.00833226	-1.1001	-0.406494	0.533447	-0.278905	0.291433	0.469967	-0.785118	-1.90271	-7.79914	3.98964	-0.733992	0.0260208	0.0426718	-0.0241699	0.910156	-0.624268	0.557298	-0.330925	-0.221847	0.728486	-2.5918	-5.64098	6.22936	-0.979217	0.0319976	-0.161183	0.226074	0.597656	-0.87793	0.676762	0.398258	-0.255378	-0.564061	-1.2744	7.78575	5.55135	-0.082801	0.205361	-0.00543349	0.192871	-0.610107	-0.890869	0.679174	-0.0530232	0.314153	-0.661225	-3.08087	-4.30348	11.1738	0.046876	0.137061	0.148512	0.328369	0.783203	-0.684082	-0.346339	0.405644	0.844628	-0.0458896	-0.0249842	0.165648	-9.10314	0.0273862	0.018605	-0.0167449	-0.184082	-0.235107	1.07202	0.0524472	0.0846431	-0.994249	0.0394231	-0.531165	0.418113	-8.38709	0.00481756	0.0129957	-0.0212483	-0.320557	0.0688477	1.0354	0.124159	0.0946839	0.984398	-0.0811189	-2.45647	-1.35504	-8.79908	-0.0777313	-0.0953412	0.00103359	-0.170654	0.19873	1.13501	-0.0367803	0.0541117	-0.997029	-0.0406565	-0.6934	0.543748	-9.04641	0.0394626	0.0286501	-0.00084812	-0.357666	-0.172363	1.14014	-0.155682	0.0752133	-0.975334	0.137222	-2.68345	-2.80408	-8.82174	-0.0562165	0.0235932	-0.0209365	-0.12207	0.259766	1.13989	
76	-0.800128	-0.06	0.574461	-0.161832	9.32494	-0.930178	3.6163	-0.0423348	-0.0542904	-0.03024	-0.880371	-0.0244141	-0.656982	0.43776	0.376899	-0.789919	0.205771	8.21527	-0.128153	-5.15413	-0.00647557	0.0943084	-0.0331652	-1.0979	-0.404541	0.52417	-0.275206	0.298355	0.48561	-0.774228	-1.30022	-10.343	4.22694	-0.604655	0.0814156	-0.0881737	-0.0244141	0.927246	-0.583496	0.554468	-0.338114	-0.235085	0.723173	-1.75337	-7.23151	5.80469	-0.371113	-0.0594187	-0.143093	0.217773	0.630371	-0.863037	0.678826	0.40146	-0.253762	-0.560027	-0.356748	7.51219	5.32143	0.114598	0.213617	0.115252	0.206055	-0.612305	-0.88623	0.681852	-0.0520096	0.315275	-0.658008	-2.38801	-3.15173	11.3914	-0.0197356	0.00843895	0.12731	0.334961	0.778809	-0.681641	-0.346339	0.405644	0.844628	-0.0458896	-0.0249842	0.165648	-9.10314	0.0273862	0.018605	-0.0167449	-0.184082	-0.235107	1.07202	0.052142	0.0845033	-0.994301	0.0388175	-0.533764	0.469337	-8.46418	-0.0115074	0.00256963	-0.0190302	-0.318359	0.0666504	1.04004	0.126625	0.0949763	0.984031	-0.0814143	-2.41045	-1.45354	-9.07526	0.0446639	-0.0887435	0.00173988	-0.163818	0.19873	1.13525	-0.0366854	0.054239	-0.997062	-0.0397487	-0.703224	0.486769	-9.0074	0.0219089	0.0102813	-0.00275089	-0.359863	-0.174561	1.14478	-0.154039	0.0758617	-0.975769	0.135614	-2.74917	-3.05324	-9.06762	-0.048164	0.0626001	-0.0206963	-0.121826	0.255371	1.14673	
77	-0.799089	-0.0605109	0.576246	-0.160425	9.40257	-0.896466	3.64774	-0.0132048	-0.103433	-0.0533345	-0.882568	-0.0244141	-0.650635	0.438142	0.376855	-0.789684	0.205938	8.22338	0.069483	-5.16706	-0.00610256	0.0509681	-0.0276186	-1.1001	-0.406494	0.528809	-0.280554	0.293108	0.480546	-0.777465	-1.88323	-8.92867	3.75562	0.465481	-0.0446929	-0.195625	-0.0373535	0.92334	-0.61084	0.557283	-0.334225	-0.235214	0.722775	-2.12704	-7.21386	6.22108	0.210053	-0.0808382	-0.136535	0.213867	0.621582	-0.865234	0.679195	0.403137	-0.254097	-0.55822	-0.913974	7.97291	5.01601	0.130587	0.130388	0.0774386	0.208252	-0.612305	-0.884033	0.683664	-0.0535547	0.314863	-0.656199	-2.89247	-2.87794	11.3878	-0.167087	-0.104494	0.0545717	0.337158	0.778809	-0.681641	-0.346339	0.405644	0.844628	-0.0458896	-0.0249842	0.165648	-9.10314	0.0273862	0.018605	-0.0167449	-0.184082	-0.235107	1.07202	0.0516076	0.0844042	-0.994356	0.0383364	-0.510576	0.463671	-8.41813	-0.0086012	-0.00624604	-0.0183357	-0.318115	0.0600586	1.03784	0.127226	0.0952153	0.983823	-0.0827042	-2.34466	-1.05655	-8.86041	0.107238	-0.0511689	-0.00638499	-0.156982	0.201172	1.13525	-0.0366464	0.0542236	-0.997061	-0.0398204	-0.682692	0.490605	-9.01265	-0.00325233	0.0125922	0.00430675	-0.359863	-0.174561	1.14014	-0.153746	0.0754073	-0.975883	0.135382	-2.58043	-3.29557	-9.40427	0.0285757	0.0121984	0.00974933	-0.119629	0.255371	1.14673	
78	-0.798371	-0.0612761	0.577358	-0.159711	9.44957	-0.619543	3.55471	0.00620756	-0.122241	-0.0657618	-0.887207	-0.0244141	-0.641846	0.438965	0.376595	-0.789389	0.205794	8.26756	-0.0991385	-5.2146	-0.0211759	0.0579089	-0.0309907	-1.10669	-0.406738	0.528809	-0.282075	0.291919	0.480919	-0.777132	-1.59455	-8.56612	4.18512	0.02603	-0.0128323	-0.15623	-0.0395508	0.925537	-0.606201	0.558734	-0.332483	-0.23586	0.722247	-2.30149	-6.44771	6.91885	0.0720448	-0.0843474	-0.155409	0.207031	0.625977	-0.871826	0.683252	0.400349	-0.25264	-0.555932	-1.0236	8.20874	5.04671	-0.263417	0.0367178	0.157587	0.201416	-0.605713	-0.890869	0.684554	-0.0552706	0.314074	-0.655506	-2.94568	-3.80059	11.8722	-0.0638173	-0.139292	0.0186073	0.332764	0.781006	-0.67749	-0.348899	0.403926	0.844337	-0.046995	-0.00350199	0.142628	-9.07644	0.0383919	0.0257616	-0.0167506	-0.19043	-0.235352	1.07642	0.0513351	0.084356	-0.99438	0.0381814	-0.536592	0.44724	-8.38966	-0.00149516	-0.00332775	-0.0186925	-0.311768	0.0644531	1.04224	0.129783	0.0952617	0.983585	-0.0815008	-2.55354	-0.95718	-8.6411	-0.104194	-0.111996	0.00139794	-0.156494	0.194336	1.13525	-0.0371937	0.0541888	-0.997016	-0.0404915	-0.702934	0.508801	-9.06655	-0.0344294	-0.0266237	0.00175709	-0.357666	-0.172363	1.14453	-0.153796	0.0749901	-0.975738	0.136595	-2.7879	-3.12689	-9.45735	0.104007	0.0118326	0.0122487	-0.12207	0.261963	1.14209	
79	-0.796821	-0.0626451	0.57965	-0.158615	9.5799	-0.586669	3.32817	0.0233348	-0.121146	-0.0501741	-0.888916	-0.0310059	-0.639648	0.439335	0.376555	-0.789232	0.205678	8.16059	0.0371518	-5.10606	-0.0298603	0.00741738	-0.0329077	-1.10181	-0.415283	0.533936	-0.281628	0.293491	0.487663	-0.772485	-1.41694	-10.1412	3.8074	-0.29994	0.0339109	-0.0595968	-0.0373535	0.936279	-0.588379	0.557911	-0.334371	-0.244275	0.719209	-1.85462	-7.76327	6.92483	-0.316232	-0.0821076	-0.125701	0.20166	0.643311	-0.854492	0.683294	0.403044	-0.256341	-0.552227	-0.822562	8.20912	5.39867	0.361832	0.0420291	0.113239	0.206299	-0.616699	-0.879395	0.687373	-0.0562462	0.309124	-0.654826	-2.71013	-3.76326	12.4331	0.114467	-0.191179	0.058137	0.337158	0.781006	-0.686035	-0.348432	0.40424	0.844394	-0.0467351	-0.000114984	0.118305	-9.08526	0.0207995	0.0178782	-0.0179732	-0.190918	-0.226562	1.07397	0.0508099	0.084324	-0.994417	0.0379896	-0.561163	0.452612	-8.42615	0.00684051	2.99458e-05	-0.0213958	-0.315918	0.0600586	1.03784	0.132854	0.0947335	0.9835	-0.0781288	-2.65636	-1.22459	-8.61696	-0.140942	-0.100287	-0.0122528	-0.15625	0.182861	1.1355	-0.0387854	0.0542242	-0.996876	-0.0423583	-0.738637	0.53387	-9.03761	-0.0839082	-0.0656648	0.00483413	-0.353027	-0.176758	1.14697	-0.154851	0.0741937	-0.975629	0.136618	-2.85364	-2.79842	-9.30125	-0.0278377	-0.0498176	0.0378707	-0.121826	0.257568	1.1377	
80	-0.795922	-0.0636849	0.580984	-0.157828	9.81912	-0.356824	3.15858	-0.00655862	-0.0513144	-0.0275914	-0.893311	-0.0354004	-0.635498	0.439554	0.376341	-0.789474	0.20467	8.29484	0.010388	-5.24837	-0.0408803	-0.0132755	-0.0287878	-1.11084	-0.406738	0.528809	-0.283734	0.292256	0.486221	-0.773091	-1.20629	-9.28899	3.94811	0.0893534	0.0257924	-0.0735142	-0.0395508	0.934082	-0.590576	0.558335	-0.335415	-0.246633	0.717586	-1.76629	-7.50837	6.80994	-0.0487829	0.0262786	-0.0605143	0.203613	0.649902	-0.854736	0.682827	0.406062	-0.259334	-0.549187	-1.19141	8.58486	5.19189	0.113749	0.0439555	0.0665793	0.198242	-0.629883	-0.872559	0.689805	-0.0544037	0.303778	-0.654926	-2.87934	-3.57362	13.01	0.174708	-0.0775232	0.0644053	0.335449	0.77002	-0.69873	-0.348423	0.404086	0.844495	-0.046313	0.0157421	0.117365	-9.08797	0.0122051	0.0167056	-0.0189578	-0.193115	-0.224365	1.07397	0.0504232	0.0842789	-0.994452	0.0376884	-0.561013	0.454207	-8.40463	-0.00807476	0.00235373	-0.0207139	-0.313965	0.0644531	1.04004	0.135326	0.0944455	0.983319	-0.0764864	-2.63565	-1.2151	-8.52005	-0.0513063	-0.0852377	-0.0151599	-0.14917	0.180664	1.13989	-0.0409304	0.0541469	-0.996685	-0.0448578	-0.785594	0.607311	-9.04204	-0.0832511	-0.0906637	0.00330456	-0.350586	-0.185547	1.14722	-0.157203	0.0734539	-0.975325	0.136501	-2.90497	-2.86789	-9.12419	0.0336233	-0.0896797	0.0306189	-0.115234	0.261963	1.14429	
81	-0.795833	-0.064222	0.581229	-0.157157	9.7995	-0.516702	3.2916	0.0127697	-0.0147478	-0.0396751	-0.88916	-0.0288086	-0.633301	0.438625	0.376522	-0.790041	0.204145	8.29627	0.157956	-5.32143	-0.00601756	-0.0300666	-0.0177798	-1.1106	-0.41748	0.538574	-0.282819	0.294738	0.488886	-0.770801	-1.84091	-9.39465	3.65074	-0.197589	0.0509984	0.0384098	-0.0332031	0.94043	-0.579346	0.558021	-0.338476	-0.249253	0.715486	-2.16665	-7.25874	6.6061	-0.256353	0.068225	-0.0209131	0.203125	0.658691	-0.852539	0.683548	0.40709	-0.259148	-0.547615	-1.00756	8.7941	5.3536	-0.0597657	0.0644735	0.0230243	0.202148	-0.623291	-0.877197	0.691252	-0.0540215	0.302796	-0.653886	-2.99613	-3.97872	13.1019	0.0546156	0.0128743	0.0346765	0.333252	0.767822	-0.698486	-0.348189	0.404162	0.844571	-0.0460065	0.02003	0.122	-9.06136	0.0151009	0.0160232	-0.0180678	-0.193115	-0.224365	1.06958	0.0499575	0.0841452	-0.994509	0.0370857	-0.555424	0.472921	-8.4107	-0.0181438	-0.00420554	-0.0169617	-0.313965	0.0644531	1.04004	0.136775	0.0944029	0.983172	-0.0758577	-2.62335	-1.19838	-8.65808	-0.0186689	-0.0335992	-0.00734626	-0.146729	0.178467	1.14453	-0.0435839	0.0539432	-0.996463	-0.0474496	-0.817194	0.648454	-8.98723	-0.0947683	-0.0962736	0.00717785	-0.341309	-0.191895	1.14502	-0.159602	0.0730375	-0.974857	0.137282	-2.75213	-2.58357	-8.72571	0.0320221	-0.0841812	0.0175827	-0.117676	0.26416	1.13525	
82	-0.795485	-0.0650979	0.581768	-0.156563	9.82208	-0.619581	3.37792	0.0231865	-0.0501313	-0.0371198	-0.893066	-0.0375977	-0.635254	0.437742	0.376712	-0.790488	0.203957	8.35809	0.0384417	-5.49775	0.0133705	-0.0379659	-0.0214117	-1.1084	-0.41748	0.538574	-0.280492	0.298575	0.494496	-0.766584	-1.40571	-9.85755	3.74105	-0.322366	0.0469548	0.0391019	-0.0375977	0.953369	-0.572754	0.556518	-0.343458	-0.25458	0.712399	-1.89913	-7.62164	5.94537	-0.262544	0.0450359	-0.0511086	0.198242	0.671631	-0.8396	0.68298	0.409389	-0.25933	-0.546523	-0.824813	8.64513	5.30324	0.149647	0.0788845	-0.0282646	0.204834	-0.63208	-0.870361	0.692114	-0.0522054	0.302834	-0.653104	-2.76817	-3.35185	12.7557	0.025785	0.064952	0.0484373	0.340088	0.75708	-0.700439	-0.348189	0.404162	0.844571	-0.0460065	0.02003	0.122	-9.06136	0.0151009	0.0160232	-0.0180678	-0.193115	-0.224365	1.06958	0.0495423	0.0843088	-0.994539	0.0364756	-0.568199	0.478412	-8.40381	-0.0182708	-0.00908536	-0.0188442	-0.315918	0.0600586	1.04468	0.135998	0.0947871	0.983235	-0.0759527	-2.58092	-1.00066	-8.54964	0.00998657	0.0572998	-0.0126027	-0.144531	0.185303	1.14429	-0.0462322	0.0538776	-0.996297	-0.048503	-0.881411	0.69189	-8.99106	-0.0152504	-0.0935911	-0.00219344	-0.338867	-0.194092	1.14526	-0.161474	0.0726615	-0.974657	0.136713	-2.88816	-2.57932	-8.4777	-0.0310742	-0.0605395	0.0197629	-0.104248	0.268799	1.14648	
83	-0.794761	-0.0670051	0.582664	-0.156104	10.0675	-0.220518	3.16922	0.0419364	-0.0508512	-0.0543848	-0.899658	-0.0378418	-0.631104	0.436193	0.377422	-0.791086	0.203646	8.33275	0.0868941	-5.40495	-0.0077575	-0.0400031	-0.0327041	-1.1062	-0.419678	0.541016	-0.27977	0.29959	0.497095	-0.764769	-1.59062	-9.60802	3.36452	-0.16749	0.0356293	-0.0217141	-0.03125	0.953369	-0.561279	0.555907	-0.345232	-0.257031	0.711138	-2.0355	-8.18153	5.52354	0.0500545	0.0015825	-0.0302538	0.200195	0.676025	-0.837402	0.684085	0.410009	-0.258531	-0.545052	-1.21251	8.71369	5.2631	-0.0607535	0.0895177	0.0365125	0.211182	-0.629883	-0.870361	0.691756	-0.0528323	0.305314	-0.652278	-3.08282	-2.90504	12.5017	-0.19762	0.0656303	-0.0215989	0.3396	0.772217	-0.694336	-0.348441	0.40375	0.844674	-0.0458403	0.0275859	0.130703	-9.08427	0.0170412	0.0142543	-0.0168929	-0.188477	-0.233154	1.07837	0.0491373	0.0844078	-0.994577	0.0357435	-0.582925	0.489604	-8.375	-0.0230568	-0.00907906	-0.0163546	-0.313477	0.0559082	1.04248	0.134764	0.0949565	0.983377	-0.0761078	-2.75927	-0.994195	-8.43226	0.019457	0.0377281	-0.015448	-0.144287	0.17627	1.1377	-0.0480001	0.0538699	-0.996181	-0.0491709	-0.906236	0.66356	-8.96621	-0.0257426	-0.0554314	0.00408262	-0.336914	-0.191895	1.15186	-0.162035	0.0727506	-0.974654	0.13602	-2.81766	-2.69627	-8.284	0.00348844	-0.0100454	-0.00597834	-0.10376	0.255615	1.13989	
84	-0.794677	-0.0678625	0.582632	-0.156278	9.79701	-0.453059	3.14509	0.0433216	-0.00816107	-0.00227035	-0.901855	-0.0400391	-0.633301	0.43585	0.377693	-0.791197	0.203445	8.24471	-0.0127518	-5.41009	-0.00243313	-0.0229565	-0.0375424	-1.10571	-0.42627	0.54126	-0.280782	0.29855	0.496072	-0.765468	-1.55165	-10.2023	3.51378	0.138305	-0.0147173	-0.0629285	-0.0397949	0.949219	-0.563477	0.557551	-0.341211	-0.254492	0.712703	-2.13492	-7.08148	5.89563	0.0971947	-0.0841948	-0.014259	0.202881	0.66748	-0.846191	0.689737	0.402574	-0.251701	-0.546666	-0.727055	8.34851	5.54897	-0.593393	0.0496146	0.0327102	0.215088	-0.614502	-0.881836	0.690048	-0.0619203	0.314549	-0.648891	-2.94768	-3.3663	11.7475	-0.597715	0.0464061	-0.0871794	0.345703	0.7854	-0.67334	-0.348052	0.403839	0.844803	-0.0456239	0.0266868	0.12057	-9.07742	0.0148251	0.00800174	-0.0167289	-0.192871	-0.230957	1.08057	0.049073	0.0845628	-0.994582	0.0353107	-0.59583	0.498163	-8.41902	-0.0119789	0.00555849	-0.0185368	-0.309326	0.0581055	1.04004	0.134525	0.0949948	0.983375	-0.0765029	-2.71199	-0.912319	-8.65778	0.00779576	0.0222669	-0.0219421	-0.151367	0.180664	1.13989	-0.0481431	0.0537729	-0.996179	-0.0491692	-0.931571	0.676363	-8.94551	0.0035362	-0.00224275	0.00962328	-0.334717	-0.1875	1.14722	-0.161889	0.0727517	-0.974655	0.136189	-2.87449	-2.75988	-8.37034	0.00896387	0.0250024	-0.00884286	-0.10376	0.257812	1.14453	
85	-0.794951	-0.0680509	0.582089	-0.156826	9.56763	-0.342205	3.21787	-0.00124722	0.0224261	0.0228149	-0.893066	-0.0419922	-0.631104	0.435069	0.378293	-0.791427	0.203107	8.18645	0.0654001	-5.29468	-0.0149243	-0.0199899	-0.0414806	-1.1084	-0.415283	0.548096	-0.285653	0.292694	0.490585	-0.769454	-1.55537	-9.87407	3.6498	0.20012	0.00336096	-0.131299	-0.0461426	0.938477	-0.58374	0.561317	-0.333634	-0.248401	0.715478	-2.05742	-6.34247	6.61163	0.493118	-0.077724	-0.0535042	0.192383	0.649902	-0.852539	0.700395	0.387615	-0.240234	-0.54908	-0.785725	7.81928	5.37234	-0.894726	0.0503534	0.124873	0.208984	-0.576904	-0.904541	0.686426	-0.077678	0.328534	-0.644089	-2.67158	-4.59785	11.3534	-0.889206	0.0175528	-0.153379	0.331543	0.817871	-0.633545	-0.34693	0.404472	0.84499	-0.0450903	0.0282703	0.123939	-9.08544	0.0151358	0.00684038	-0.0179913	-0.190918	-0.22876	1.07837	0.0490516	0.084458	-0.994591	0.0353465	-0.583933	0.514195	-8.39946	0.0237503	0.023045	-0.0222565	-0.311523	0.0600586	1.04248	0.134088	0.0949787	0.983421	-0.0766922	-2.70707	-1.06148	-8.55618	0.0402552	0.0168115	-0.0235791	-0.14917	0.180664	1.13989	-0.0469285	0.0537454	-0.996287	-0.0481876	-0.917735	0.667107	-8.99878	0.0395986	0.070851	0.00251206	-0.339111	-0.189697	1.15186	-0.160314	0.0728347	-0.974921	0.1361	-2.8982	-2.62069	-8.53814	-0.0306936	0.0756257	-0.0131942	-0.108643	0.262207	1.14209	
86	-0.795121	-0.0678377	0.581864	-0.156891	9.60209	-0.610651	3.275	-0.00752556	0.0209533	0.0114231	-0.899414	-0.0419922	-0.637451	0.434603	0.378539	-0.791426	0.203651	8.15209	-0.107225	-5.38633	0.0395751	0.00706564	0.00107188	-1.10181	-0.41748	0.552734	-0.287168	0.290783	0.489481	-0.770317	-1.40976	-9.24454	3.81069	0.181438	-0.0500766	-0.122257	-0.050293	0.938477	-0.58374	0.561827	-0.33261	-0.24927	0.715252	-1.73574	-6.94619	6.71016	0.00878159	-0.0774665	-0.080813	0.192627	0.647705	-0.854736	0.703743	0.382708	-0.237182	-0.549568	-0.855411	7.02494	5.14225	-0.523181	0.0119003	0.105711	0.206299	-0.563721	-0.916016	0.685222	-0.0828655	0.332359	-0.642761	-2.92104	-5.20679	11.2044	-0.520303	-0.0152673	-0.119944	0.329102	0.824463	-0.623047	-0.346389	0.404784	0.845074	-0.0448724	0.0328085	0.138318	-9.07344	0.0162846	0.00533689	-0.0154851	-0.192871	-0.230957	1.07617	0.0491769	0.0844365	-0.994575	0.0356732	-0.59223	0.487289	-8.38454	0.0340571	0.0321822	-0.021367	-0.316162	0.0644531	1.03296	0.134151	0.0949567	0.983382	-0.077108	-2.71091	-0.937929	-8.45548	0.0396719	-0.00269853	-0.0247489	-0.146973	0.183105	1.1377	-0.0445951	0.0536297	-0.996462	-0.0468896	-0.877126	0.656342	-9.0017	0.0583602	0.11464	0.00960325	-0.345947	-0.187744	1.14722	-0.159393	0.0727899	-0.975207	0.135155	-2.88467	-2.71982	-8.75597	-0.0793518	0.076081	0.00212459	-0.108154	0.250977	1.14697	
