40	Head	00b4120a												Throax	00b411e8												LUpArm	00b411d9												LFoArm	00b41148												RUpArm	00b411db												RFoArm	00b41204												Waist	00b411f7												Lthigh	00b411f4												Lshank	00b4111b												Rthigh	00b411c8												Rshank	00b411ee												
PacketCount	q0	q1	q2	q3	accX	accY	accZ	gyrX	gyrY	gyrZ	magX	magY	magZ	q0	q1	q2	q3	accX	accY	accZ	gyrX	gyrY	gyrZ	magX	magY	magZ	q0	q1	q2	q3	accX	accY	accZ	gyrX	gyrY	gyrZ	magX	magY	magZ	q0	q1	q2	q3	accX	accY	accZ	gyrX	gyrY	gyrZ	magX	magY	magZ	q0	q1	q2	q3	accX	accY	accZ	gyrX	gyrY	gyrZ	magX	magY	magZ	q0	q1	q2	q3	accX	accY	accZ	gyrX	gyrY	gyrZ	magX	magY	magZ	q0	q1	q2	q3	accX	accY	accZ	gyrX	gyrY	gyrZ	magX	magY	magZ	q0	q1	q2	q3	accX	accY	accZ	gyrX	gyrY	gyrZ	magX	magY	magZ	q0	q1	q2	q3	accX	accY	accZ	gyrX	gyrY	gyrZ	magX	magY	magZ	q0	q1	q2	q3	accX	accY	accZ	gyrX	gyrY	gyrZ	magX	magY	magZ	q0	q1	q2	q3	accX	accY	accZ	gyrX	gyrY	gyrZ	magX	magY	magZ	
0	0.0727486	-0.0421741	0.995032	0.0532978	-1.34922	1.17343	-8.39182	0.00393176	0.0058544	-0.0108296	-0.236328	-0.132812	1.04932	0.224325	0.0356983	-0.973436	-0.0287366	4.11667	0.634203	-8.71925	-0.0167886	0.0074704	-0.0240347	-0.720947	-0.135498	0.833984	-0.948275	-0.10404	0.283204	-0.0987212	5.95205	1.49918	8.68613	0.00283221	0.0109505	-0.00444366	-0.386475	-0.267334	-1.021	0.914966	0.39475	-0.0816519	-0.0184983	1.29669	7.1457	6.5894	-0.00891569	0.00551981	0.00519108	0.158936	-0.773438	-0.730469	0.930885	-0.0466882	-0.354525	0.074732	6.44396	-1.4271	7.33473	0.0131581	0.0102354	-0.0130583	-0.338623	0.0666504	-1.03589	0.906465	-0.409563	-0.0595955	-0.0838281	2.11475	-8.68872	7.72961	0.00746906	0.0132761	-0.0150772	0.0429688	0.851807	-0.771484	-0.0996406	-0.421886	0.816758	-0.380777	-2.73904	-1.15615	-8.61498	0.0129743	0.00624919	-0.0191783	-0.102051	0.0964355	1.13232	-0.92445	-0.0744361	0.173948	0.331049	2.93413	2.92335	10.2725	0.0163168	0.013375	-0.0163423	0.1521	-0.321289	-1.05737	-0.028343	-0.0225928	0.998731	-0.03496	0.482501	0.0163514	-9.20637	0.00863092	0.00755524	-0.0266337	-0.523193	0.0788574	1.05493	0.98227	0.0713624	-0.134768	0.109043	2.91465	1.24926	9.98443	-0.00288325	0.0144898	0.00416478	0.141357	-0.250244	-1.11475	0.0270201	0.0754645	-0.992686	-0.0902705	0.336225	1.94783	-9.56885	0.000388894	0.00653499	-0.00639498	-0.523926	-0.313477	1.10986	
1	0.0727647	-0.042083	0.995033	0.0533279	-1.3425	1.1722	-8.42202	0.00480641	-0.00760122	-0.0119498	-0.238525	-0.132812	1.04712	0.224134	0.0356918	-0.973476	-0.0288855	4.1872	0.658661	-8.73028	-0.0055885	0.0101751	-0.0212004	-0.71875	-0.137695	0.838623	-0.948223	-0.104449	0.283205	-0.0987881	5.98138	1.61188	8.77242	0.0174537	0.00464903	0.000370524	-0.388672	-0.271484	-1.02783	0.914956	0.394792	-0.0815454	-0.0186038	1.28163	7.06892	6.65022	0.0162859	0.0092827	-0.00665035	0.161133	-0.773438	-0.732666	0.9309	-0.0464381	-0.354501	0.0748244	6.38348	-1.25624	7.2875	-0.0059594	0.0102562	-0.0100744	-0.338623	0.0622559	-1.03809	0.906574	-0.409309	-0.059626	-0.083867	2.10672	-8.63206	7.79877	0.014048	0.0138219	-0.0166712	0.0476074	0.847412	-0.775635	-0.0996406	-0.421886	0.816758	-0.380777	-2.73904	-1.15615	-8.61498	0.0129743	0.00624919	-0.0191783	-0.102051	0.0964355	1.13232	-0.924423	-0.0745447	0.174003	0.331071	2.8603	2.9184	10.2766	0.0031782	0.017158	-0.0168419	0.15625	-0.321289	-1.05518	-0.0283556	-0.0224664	0.998736	-0.0348826	0.47357	0.0044702	-9.19035	0.00762264	0.00871506	-0.0258362	-0.530029	0.076416	1.05493	0.982278	0.071183	-0.134834	0.10901	2.88416	1.28209	9.99205	-0.00168155	0.0089477	0.00371405	0.136963	-0.252686	-1.11694	0.0270317	0.0754687	-0.992681	-0.0903243	0.336451	1.94928	-9.55949	0.00224338	0.00615889	-0.00844785	-0.521729	-0.311279	1.10986	
2	0.0730302	-0.0420287	0.995012	0.0533962	-1.34316	1.17369	-8.44233	0.00419913	-0.0154222	-0.0127163	-0.238525	-0.133057	1.05151	0.224177	0.0356964	-0.973464	-0.0289475	4.16939	0.642536	-8.73673	-0.00832651	0.0133562	-0.0196041	-0.720947	-0.135498	0.838623	-0.948229	-0.104522	0.283155	-0.0987965	5.94224	1.46333	8.69955	0.00554297	-0.00165909	0.000269189	-0.388672	-0.273926	-1.01855	0.914733	0.395334	-0.0814275	-0.0185453	1.28812	7.22442	6.58756	0.0158463	0.00683319	-0.00213095	0.161133	-0.773438	-0.726074	0.930879	-0.0467025	-0.35455	0.0746742	6.47079	-1.44548	7.3322	-0.0153536	0.0112306	-0.0142509	-0.338623	0.0622559	-1.03589	0.906565	-0.409338	-0.0596392	-0.083816	2.10699	-8.66082	7.76154	-0.00330043	0.0123903	-0.0150021	0.0407715	0.854004	-0.773682	-0.0996406	-0.421886	0.816758	-0.380777	-2.73904	-1.15615	-8.61498	0.0129743	0.00624919	-0.0191783	-0.102051	0.0964355	1.13232	-0.924417	-0.0745527	0.174071	0.331051	2.8889	2.91276	10.2845	0.0110492	0.0121995	-0.0152014	0.158447	-0.323486	-1.05981	-0.0284211	-0.0225729	0.998732	-0.0348768	0.491884	0.0166192	-9.19968	0.0115227	0.00593781	-0.0263147	-0.523193	0.0788574	1.05933	0.982278	0.0710261	-0.134948	0.108969	2.92385	1.26252	10.013	-0.0072467	0.00632784	0.00358548	0.13916	-0.250244	-1.11719	0.0269676	0.0754923	-0.992681	-0.09032	0.332961	1.95216	-9.57192	0.00342643	0.00333805	-0.0085902	-0.52417	-0.306885	1.1167	
3	0.0730732	-0.0419342	0.995014	0.0533818	-1.34545	1.1786	-8.41247	0.00984965	-0.00103913	-0.0113115	-0.238525	-0.130859	1.04932	0.224189	0.0356473	-0.973461	-0.0290088	4.14707	0.660534	-8.73182	-0.0107658	0.0125431	-0.0199233	-0.716797	-0.133301	0.83374	-0.948217	-0.104337	0.283244	-0.0988453	5.99569	1.72472	8.80688	-0.0128014	0.00709813	0.00414045	-0.388672	-0.271729	-1.0188	0.914593	0.395671	-0.0813755	-0.0184692	1.26705	7.22936	6.59795	0.0224681	0.0115592	0.0073339	0.16333	-0.77124	-0.730469	0.930872	-0.0464259	-0.354579	0.0748106	6.45324	-1.2934	7.30522	0.0174615	0.00616173	-0.014347	-0.336182	0.0600586	-1.04028	0.906566	-0.409319	-0.0596693	-0.0838836	2.09984	-8.63181	7.78577	0.0105849	0.0131722	-0.0152315	0.0471191	0.854004	-0.773682	-0.0996406	-0.421886	0.816758	-0.380777	-2.73904	-1.15615	-8.61498	0.0129743	0.00624919	-0.0191783	-0.102051	0.0964355	1.13232	-0.924373	-0.0746366	0.174292	0.331038	2.90711	2.94542	10.2739	0.00730773	0.00986912	-0.0128205	0.1521	-0.321289	-1.05493	-0.0283974	-0.0223293	0.998742	-0.0347845	0.479251	0.0103593	-9.20542	0.00903113	0.00629608	-0.0262714	-0.529785	0.0695801	1.05273	0.982278	0.0707822	-0.13508	0.108965	2.93649	1.24327	10.0104	-0.00983164	0.00785885	0.00538995	0.137207	-0.254883	-1.1123	0.026861	0.0754781	-0.992687	-0.0903039	0.327148	1.94232	-9.54149	0.00456997	0.000634402	-0.00686853	-0.521729	-0.313477	1.1145	
4	0.072986	-0.0418929	0.995025	0.0533268	-1.34479	1.16514	-8.45159	0.0110667	0.0042569	-0.0114391	-0.240723	-0.130859	1.04712	0.224207	0.0356268	-0.973458	-0.0290036	4.16051	0.645763	-8.72786	-0.00714566	0.0143381	-0.0201121	-0.720947	-0.133301	0.84082	-0.948272	-0.103905	0.283264	-0.0987167	5.95627	1.43675	8.66018	-0.0322544	0.00765806	0.000466551	-0.388428	-0.275879	-1.02075	0.914719	0.395377	-0.0814216	-0.0183684	1.29813	7.13304	6.58471	-0.0112258	0.00273928	0.0059253	0.15918	-0.777832	-0.730225	0.930875	-0.0463166	-0.354568	0.0748853	6.45693	-1.38325	7.31284	0.00974377	0.00746527	-0.0109311	-0.338379	0.0600586	-1.03809	0.906513	-0.409431	-0.0597233	-0.0838671	2.10959	-8.69894	7.72198	-0.000740877	0.0103507	-0.0145834	0.0495605	0.851807	-0.769287	-0.0996406	-0.421886	0.816758	-0.380777	-2.73904	-1.15615	-8.61498	0.0129743	0.00624919	-0.0191783	-0.102051	0.0964355	1.13232	-0.924347	-0.0746403	0.174444	0.331031	2.89374	2.87623	10.2693	0.0100958	0.0120983	-0.0138429	0.154053	-0.321289	-1.06445	-0.028387	-0.0222309	0.998747	-0.0346955	0.480676	0.00879488	-9.20535	0.00735333	0.00614252	-0.0272216	-0.520996	0.0810547	1.05933	0.982282	0.0706624	-0.135114	0.108962	2.92646	1.25213	9.98565	-0.00830965	0.00975269	0.00541474	0.136963	-0.250488	-1.11719	0.0267617	0.0754808	-0.99269	-0.0902912	0.342497	1.95265	-9.55116	0.00357027	0.00239809	-0.00757892	-0.521973	-0.304688	1.1167	
5	0.072834	-0.0417655	0.995052	0.0531247	-1.34474	1.17674	-8.41682	0.0134427	-0.00527418	-0.0111361	-0.240723	-0.130859	1.05151	0.224252	0.0354791	-0.973455	-0.0289266	4.15975	0.657166	-8.69338	-0.00540339	0.015224	-0.0142692	-0.71875	-0.135498	0.836182	-0.948211	-0.104199	0.283283	-0.0989406	5.93309	1.52209	8.7381	0.0199922	0.00765151	-0.00138268	-0.386475	-0.267334	-1.0188	0.914666	0.395523	-0.081329	-0.0182837	1.26779	7.20528	6.58178	0.00147545	0.00838202	0.00488003	0.15918	-0.775635	-0.726074	0.930888	-0.0461362	-0.354542	0.0749539	6.40492	-1.3072	7.34769	-0.000491312	0.00331147	-0.013784	-0.332031	0.0600586	-1.04028	0.906493	-0.409495	-0.0596853	-0.0837928	2.09575	-8.64849	7.79957	-0.00654785	0.0129114	-0.0128778	0.0495605	0.849609	-0.77124	-0.0996406	-0.421886	0.816758	-0.380777	-2.73904	-1.15615	-8.61498	0.0129743	0.00624919	-0.0191783	-0.102051	0.0964355	1.13232	-0.924309	-0.0746994	0.174579	0.331051	2.90259	2.9389	10.2834	0.00614055	0.0148395	-0.0154401	0.149902	-0.321289	-1.05737	-0.0282931	-0.0220063	0.99876	-0.0345415	0.477681	0.0127939	-9.21026	0.00856566	0.00435705	-0.0278366	-0.525635	0.0810547	1.05273	0.982295	0.0704851	-0.135122	0.10895	2.90144	1.2395	9.9898	-0.00461909	0.0131583	0.00501368	0.141357	-0.248047	-1.11938	0.0266979	0.0755568	-0.992689	-0.0902632	0.331096	1.94225	-9.56221	0.00295126	0.000792425	-0.00711305	-0.519775	-0.306885	1.1167	
6	0.0729522	-0.0417208	0.995048	0.0530667	-1.32291	1.16075	-8.4276	0.0119755	-0.0122633	-0.0121239	-0.24292	-0.130859	1.04932	0.224256	0.0353409	-0.973465	-0.0287301	4.12654	0.615372	-8.67519	0.00446282	0.00741913	-0.0129305	-0.720947	-0.137695	0.843506	-0.948197	-0.104292	0.283295	-0.0989387	5.95104	1.50693	8.73194	0.0116333	0.00354367	-0.000939458	-0.386475	-0.271729	-1.02319	0.914736	0.395354	-0.0813537	-0.018277	1.29395	7.10331	6.62649	-0.0128267	0.00322457	0.00225963	0.15918	-0.775635	-0.732666	0.930901	-0.0461277	-0.354489	0.0750539	6.41865	-1.33994	7.30962	0.00421521	0.0158396	-0.0101147	-0.333984	0.0600586	-1.04272	0.906456	-0.409568	-0.059713	-0.083824	2.10751	-8.72565	7.71884	-0.00346741	0.012068	-0.0181571	0.0495605	0.851807	-0.771484	-0.0996406	-0.421886	0.816758	-0.380777	-2.73904	-1.15615	-8.61498	0.0129743	0.00624919	-0.0191783	-0.102051	0.0964355	1.13232	-0.924309	-0.0746994	0.174579	0.331051	2.90259	2.9389	10.2834	0.00614055	0.0148395	-0.0154401	0.149902	-0.321289	-1.05737	-0.0282387	-0.0217624	0.998771	-0.0344381	0.477133	0.00225998	-9.2165	0.0105436	0.00544662	-0.0268481	-0.527832	0.0788574	1.05273	0.982294	0.0704418	-0.135134	0.108977	2.91275	1.21646	9.96934	0.00272814	0.0102116	0.00612907	0.136963	-0.250488	-1.11719	0.0266979	0.0755568	-0.992689	-0.0902632	0.331096	1.94225	-9.56221	0.00295126	0.000792425	-0.00711305	-0.519775	-0.306885	1.1167	
7	0.0730381	-0.0416346	0.995051	0.0529643	-1.34871	1.16545	-8.42608	0.0103528	-0.00344641	-0.0113545	-0.236572	-0.126465	1.05151	0.224194	0.0352707	-0.973484	-0.0286674	4.18815	0.643822	-8.75351	-0.0028975	0.015259	-0.0183429	-0.720703	-0.139893	0.838867	-0.948193	-0.104297	0.283262	-0.0990653	5.97501	1.5468	8.70082	0.00514648	0.0098495	0.00544146	-0.388672	-0.273926	-1.01636	0.914707	0.395436	-0.0813005	-0.0182262	1.2709	7.2016	6.57046	0.00413055	0.00824161	0.00183615	0.161133	-0.77124	-0.730469	0.930839	-0.0467139	-0.354609	0.0748986	6.45062	-1.42681	7.32248	-0.03844	0.00294276	-0.00639518	-0.336426	0.0644531	-1.03809	0.906437	-0.409645	-0.0596629	-0.0836839	2.09662	-8.60632	7.7997	-0.0123019	0.0138989	-0.00818711	0.0539551	0.847412	-0.76709	-0.0996406	-0.421886	0.816758	-0.380777	-2.73904	-1.15615	-8.61498	0.0129743	0.00624919	-0.0191783	-0.102051	0.0964355	1.13232	-0.924235	-0.0749153	0.174668	0.331162	2.89979	2.93907	10.2636	0.00935277	0.0131719	-0.0134421	0.154541	-0.327881	-1.05737	-0.028241	-0.0216471	0.998776	-0.0343666	0.484203	0.0141631	-9.20372	0.00814765	0.00735614	-0.0269452	-0.523193	0.0788574	1.05493	0.982298	0.0702812	-0.135183	0.108977	2.89643	1.24998	10.0091	-0.00606687	0.012161	0.00528884	0.141602	-0.254639	-1.11475	0.0267193	0.0756044	-0.992688	-0.0902273	0.337705	1.94215	-9.55184	0.00464619	0.00434699	-0.0070562	-0.521729	-0.311279	1.12134	
8	0.0731094	-0.0415812	0.995046	0.0530097	-1.33271	1.18237	-8.42665	0.00542368	-0.00863356	-0.0130403	-0.240967	-0.128662	1.04932	0.224222	0.035264	-0.973479	-0.0286277	4.14581	0.632566	-8.70853	-0.00569803	0.0109766	-0.0208855	-0.721191	-0.131104	0.838379	-0.948165	-0.104459	0.283283	-0.0991047	5.97268	1.52967	8.7357	0.00153538	0.00222647	0.000984576	-0.393066	-0.269287	-1.0188	0.914717	0.395412	-0.0812878	-0.0182701	1.28715	7.08195	6.62354	0.0124028	0.00385221	-0.00379208	0.16333	-0.77124	-0.730469	0.930843	-0.0467438	-0.354595	0.0748961	6.4507	-1.40817	7.36823	0.00912026	0.0078257	-0.0157318	-0.333984	0.0578613	-1.03809	0.906367	-0.409807	-0.0596691	-0.0836532	2.09758	-8.67126	7.76	0.00160279	0.0122639	-0.0156031	0.0537109	0.851807	-0.777832	-0.0996406	-0.421886	0.816758	-0.380777	-2.73904	-1.15615	-8.61498	0.0129743	0.00624919	-0.0191783	-0.102051	0.0964355	1.13232	-0.924204	-0.0749834	0.174752	0.331191	2.89946	2.91986	10.2612	0.00759087	0.0157176	-0.015202	0.147949	-0.325684	-1.05737	-0.0283518	-0.0218348	0.998764	-0.0344948	0.480182	0.00390019	-9.21562	0.0123098	0.00803347	-0.0254089	-0.525635	0.0810547	1.05493	0.982306	0.0701984	-0.135183	0.108964	2.90633	1.23933	9.98373	-0.00224713	0.0121841	0.00408265	0.13916	-0.252441	-1.11938	0.0267516	0.0756268	-0.992686	-0.0902219	0.333107	1.94682	-9.5549	0.00360941	0.00843626	-0.00836729	-0.517334	-0.311035	1.12134	
9	0.0732891	-0.0414966	0.995033	0.0530721	-1.3375	1.16066	-8.42094	0.00396148	-0.00909782	-0.0118489	-0.240723	-0.130859	1.04712	0.224257	0.0353174	-0.973467	-0.0286911	4.15295	0.629979	-8.72151	-0.00921573	0.0159491	-0.025128	-0.71875	-0.137695	0.833984	-0.948151	-0.104826	0.283157	-0.0992173	5.94166	1.46207	8.62409	0.0376945	0.0131645	-0.00250051	-0.392822	-0.271484	-1.021	0.914659	0.395549	-0.0812715	-0.0183016	1.27703	7.16105	6.59884	0.0138518	0.00519337	-0.00296527	0.165527	-0.77124	-0.728271	0.930882	-0.0468635	-0.354495	0.0748066	6.44896	-1.35465	7.28517	-0.00943632	0.0114903	-0.0145724	-0.336426	0.0644531	-1.03809	0.906365	-0.409808	-0.059721	-0.0836279	2.12098	-8.66298	7.71901	-0.000525458	0.0115283	-0.0138843	0.0432129	0.849609	-0.773438	-0.0996406	-0.421886	0.816758	-0.380777	-2.73904	-1.15615	-8.61498	0.0129743	0.00624919	-0.0191783	-0.102051	0.0964355	1.13232	-0.924174	-0.0750799	0.174801	0.331224	2.91462	2.91268	10.2654	0.0117647	0.0167517	-0.0160348	0.150146	-0.327881	-1.05957	-0.0284673	-0.0218847	0.998756	-0.0345958	0.480425	0.00700014	-9.20283	0.0115272	0.00686732	-0.0257283	-0.525391	0.0766602	1.04834	0.982311	0.0701601	-0.135171	0.108955	2.93034	1.21966	10.0049	-0.000809429	0.011242	0.00418108	0.138916	-0.248291	-1.11719	0.0267715	0.0756366	-0.992684	-0.0902232	0.333279	1.94804	-9.5766	0.00364218	0.00611232	-0.00776601	-0.51709	-0.313477	1.1167	
10	0.0733271	-0.0414344	0.995024	0.0532279	-1.35471	1.16189	-8.44625	0.000475503	-0.00424671	-0.0129735	-0.23877	-0.128662	1.05151	0.224252	0.0353859	-0.973463	-0.0287968	4.1459	0.624018	-8.70922	-0.00746646	0.0158451	-0.0262304	-0.720947	-0.135498	0.836182	-0.948123	-0.105143	0.283146	-0.0991745	5.98309	1.54009	8.7108	0.00710577	0.00745361	-0.00372257	-0.388428	-0.278076	-1.02075	0.914599	0.395726	-0.0810825	-0.0182993	1.2799	7.15907	6.59329	0.0176522	0.00892534	-0.0004912	0.165527	-0.770996	-0.732666	0.930877	-0.0466634	-0.354535	0.0748065	6.48318	-1.32697	7.29306	0.00757386	0.0126157	-0.0131184	-0.333984	0.0600586	-1.03809	0.906412	-0.409699	-0.0596941	-0.0836688	2.1066	-8.6798	7.73757	0.00439341	0.0142347	-0.0173622	0.0449219	0.856201	-0.778076	-0.0996406	-0.421886	0.816758	-0.380777	-2.73904	-1.15615	-8.61498	0.0129743	0.00624919	-0.0191783	-0.102051	0.0964355	1.13232	-0.924151	-0.075104	0.174809	0.331278	2.92535	2.91859	10.2712	0.00250284	0.0182666	-0.0164992	0.149902	-0.323486	-1.06201	-0.0284849	-0.0216076	0.998766	-0.034462	0.483984	0.0029977	-9.20264	0.00591591	0.0073993	-0.0244367	-0.525879	0.083252	1.05273	0.982323	0.0700129	-0.135199	0.108906	2.91832	1.21925	9.99498	-0.00189154	0.0114663	0.00419901	0.13916	-0.252441	-1.11475	0.0268072	0.075618	-0.992685	-0.0902207	0.33855	1.95728	-9.55806	0.0034502	0.00717237	-0.00691318	-0.519775	-0.306641	1.1189	
11	0.0734421	-0.0413801	0.995006	0.0534545	-1.35391	1.15824	-8.42244	-0.00134694	-0.00702989	-0.0119478	-0.240723	-0.130859	1.04932	0.224189	0.0353777	-0.973477	-0.0288126	4.1671	0.648648	-8.73933	-0.0031975	0.0152752	-0.021464	-0.720703	-0.139893	0.841064	-0.948091	-0.105317	0.283166	-0.0992449	5.97055	1.50628	8.66851	0.0212451	0.00599019	0.000677296	-0.384277	-0.276123	-1.02319	0.914583	0.395771	-0.0810181	-0.0184339	1.28597	7.12029	6.58997	0.00325762	0.00487512	-0.00572838	0.16333	-0.769043	-0.728271	0.930865	-0.0466139	-0.354585	0.0747495	6.41893	-1.37306	7.36231	0.0010963	0.00327382	-0.0191959	-0.338623	0.0644531	-1.04028	0.906495	-0.409504	-0.0597203	-0.0837019	2.12825	-8.65892	7.75928	0.0074516	0.0158301	-0.0154333	0.0495605	0.851807	-0.777832	-0.0996406	-0.421886	0.816758	-0.380777	-2.73904	-1.15615	-8.61498	0.0129743	0.00624919	-0.0191783	-0.102051	0.0964355	1.13232	-0.924101	-0.0752682	0.174872	0.331347	2.89315	2.92647	10.2676	0.0131508	0.0171759	-0.0193893	0.147705	-0.323486	-1.06445	-0.0284856	-0.0213823	0.998777	-0.0342946	0.490309	0.00896961	-9.21295	0.00635686	0.00735901	-0.0264924	-0.525635	0.0788574	1.05273	0.982326	0.0699708	-0.135229	0.108869	2.92027	1.21644	10.0082	-0.00139818	0.00931215	0.00312863	0.138916	-0.248291	-1.11938	0.0268285	0.0756063	-0.99268	-0.0902843	0.332219	1.95141	-9.5488	0.000519209	0.00780806	-0.00784787	-0.517334	-0.308838	1.1189	
12	0.0734688	-0.0413498	0.995	0.053548	-1.34376	1.16569	-8.43157	-0.000492311	-0.00557487	-0.0120375	-0.240723	-0.130859	1.04712	0.224185	0.0353488	-0.973477	-0.0288711	4.13807	0.643839	-8.70037	-0.0122942	0.0125864	-0.019718	-0.723145	-0.137695	0.836426	-0.948081	-0.105496	0.283144	-0.0992143	5.92197	1.56736	8.74913	0.0171744	0.00493091	-0.00547703	-0.38623	-0.278076	-1.01636	0.914454	0.396089	-0.0809157	-0.0184287	1.27856	7.13741	6.61242	0.0147527	0.00624292	-0.0021495	0.15918	-0.775635	-0.730469	0.930897	-0.0471094	-0.354504	0.074417	6.45093	-1.36745	7.29912	-0.0229166	0.00939644	-0.0119076	-0.334229	0.0622559	-1.04028	0.906501	-0.409498	-0.0596326	-0.0837337	2.09525	-8.66848	7.74351	0.000682875	0.0172596	-0.01488	0.0537109	0.854004	-0.775879	-0.0996406	-0.421886	0.816758	-0.380777	-2.73904	-1.15615	-8.61498	0.0129743	0.00624919	-0.0191783	-0.102051	0.0964355	1.13232	-0.924055	-0.0754392	0.174922	0.33141	2.89685	2.94642	10.2835	0.00966062	0.0180758	-0.0179099	0.154297	-0.327637	-1.05957	-0.0284856	-0.0213823	0.998777	-0.0342946	0.490309	0.00896961	-9.21295	0.00635686	0.00735901	-0.0264924	-0.525635	0.0788574	1.05273	0.982334	0.0699454	-0.135227	0.108815	2.9233	1.22671	10.0158	-0.000598055	0.0114035	0.000721819	0.141357	-0.252441	-1.12158	0.0268194	0.0755949	-0.992679	-0.090302	0.33554	1.94931	-9.55816	0.0019725	0.00543017	-0.00656619	-0.530762	-0.313477	1.1167	
13	0.0735935	-0.0414576	0.994983	0.0536193	-1.35485	1.17786	-8.42148	0.000378163	-0.00640924	-0.0118092	-0.23877	-0.128662	1.05151	0.224192	0.0353136	-0.973473	-0.0290098	4.1779	0.645671	-8.75875	-0.0149039	0.0137988	-0.0211596	-0.725342	-0.137695	0.836426	-0.948126	-0.105305	0.283093	-0.0991263	5.95808	1.62747	8.75998	-0.01056	0.00526459	0.000202843	-0.388428	-0.278076	-1.02075	0.914398	0.396231	-0.0808823	-0.0183029	1.2875	7.17167	6.55884	0.00011648	0.00665245	0.0025574	0.158936	-0.77124	-0.730469	0.930905	-0.0473247	-0.35448	0.0742974	6.40387	-1.34743	7.33817	0.00282259	0.00559918	-0.0151904	-0.334229	0.0622559	-1.03589	0.906608	-0.409258	-0.0596563	-0.0837347	2.10395	-8.64027	7.7841	0.0166423	0.0124353	-0.0161412	0.0476074	0.845215	-0.773438	-0.0996406	-0.421886	0.816758	-0.380777	-2.73904	-1.15615	-8.61498	0.0129743	0.00624919	-0.0191783	-0.102051	0.0964355	1.13232	-0.924027	-0.0755154	0.174951	0.331457	2.91897	2.93348	10.2566	0.0113767	0.0160557	-0.0176812	0.147705	-0.325439	-1.06665	-0.0285445	-0.0214718	0.998775	-0.0342544	0.476588	0.0158134	-9.21738	0.00905712	0.0064002	-0.0263597	-0.527832	0.076416	1.05273	0.982333	0.0699855	-0.135274	0.108745	2.92469	1.23473	10.0148	0.00155528	0.00900844	0.00106663	0.141357	-0.252441	-1.11938	0.0268402	0.0755564	-0.992673	-0.0903895	0.339885	1.94721	-9.56749	-0.0011102	0.00479711	-0.0060493	-0.521729	-0.313477	1.1123	
14	0.0735888	-0.0413448	0.994983	0.0537048	-1.3589	1.16216	-8.43341	0.00421574	-0.00164317	-0.00845317	-0.234375	-0.128418	1.04712	0.22427	0.0352569	-0.97345	-0.029233	4.17684	0.662359	-8.72393	-0.0174626	0.0180895	-0.0177583	-0.725098	-0.144287	0.83667	-0.948141	-0.105197	0.283134	-0.0989819	5.94443	1.53077	8.77184	-0.00229999	-0.00223555	-0.00358096	-0.390625	-0.275879	-1.02075	0.914379	0.396281	-0.0808484	-0.0183153	1.2973	7.08143	6.60862	0.00642621	0.00734499	-0.00202626	0.15918	-0.777832	-0.72583	0.930918	-0.0470774	-0.354488	0.0742477	6.43771	-1.47768	7.33078	0.0118735	0.00725186	-0.0180802	-0.334229	0.0644531	-1.03589	0.906611	-0.409249	-0.0596688	-0.0837383	2.10362	-8.64327	7.76378	0.00345477	0.0134742	-0.0159441	0.0517578	0.851807	-0.769287	-0.0996406	-0.421886	0.816758	-0.380777	-2.73904	-1.15615	-8.61498	0.0129743	0.00624919	-0.0191783	-0.102051	0.0964355	1.13232	-0.924	-0.0756109	0.175035	0.331467	2.88511	2.96165	10.2658	0.00866261	0.0142906	-0.0130675	0.150146	-0.329834	-1.06421	-0.0285297	-0.0212447	0.998785	-0.0341079	0.476915	0.00566678	-9.22357	0.00800511	0.00639021	-0.0285169	-0.525879	0.0834961	1.05029	0.982343	0.0700054	-0.135254	0.108667	2.89319	1.22539	9.99744	0.00128148	0.0125776	0.000867069	0.13916	-0.250244	-1.11719	0.0268457	0.0755572	-0.992665	-0.090476	0.335535	1.9531	-9.53929	0.00125354	0.00560666	-0.00855519	-0.521729	-0.315674	1.1123	
15	0.073512	-0.0412759	0.994983	0.0538617	-1.34089	1.18132	-8.43406	0.0012167	-0.00266976	-0.0122164	-0.236328	-0.132812	1.04932	0.224623	0.035261	-0.97336	-0.029522	4.19566	0.667363	-8.6997	-0.0182367	0.027408	-0.0235627	-0.716553	-0.137695	0.836426	-0.948187	-0.105295	0.282952	-0.0989567	5.90503	1.37359	8.65661	0.0132158	0.0144954	-0.00234916	-0.386475	-0.276123	-1.01392	0.914402	0.396247	-0.0807832	-0.0182264	1.29444	7.16682	6.56323	-0.0114108	0.0083226	0.00161511	0.167969	-0.773438	-0.723877	0.930901	-0.0466772	-0.354578	0.0742939	6.43002	-1.28573	7.30143	0.00825812	-0.000702827	-0.0190216	-0.329834	0.0622559	-1.03809	0.906716	-0.409011	-0.0596174	-0.0837964	2.11302	-8.60117	7.78507	0.0154843	0.016011	-0.013602	0.0473633	0.851807	-0.771484	-0.0996406	-0.421886	0.816758	-0.380777	-2.73904	-1.15615	-8.61498	0.0129743	0.00624919	-0.0191783	-0.102051	0.0964355	1.13232	-0.924	-0.0755501	0.174963	0.331519	2.9213	2.94149	10.2332	-2.25725e-05	0.0207951	-0.0158906	0.154297	-0.325439	-1.06201	-0.0285126	-0.0210033	0.998795	-0.033975	0.485451	0.016251	-9.21074	0.00756768	0.0064509	-0.0264792	-0.527832	0.0788574	1.05493	0.982361	0.0700121	-0.135176	0.108597	2.92366	1.26645	9.97624	-0.000952493	0.0133926	0.00278066	0.138916	-0.248291	-1.11938	0.0267925	0.0755655	-0.992664	-0.0904965	0.336459	1.9655	-9.54222	0.00261208	0.00375853	-0.00684713	-0.52417	-0.311279	1.11206	
16	0.073472	-0.0412213	0.994975	0.0540966	-1.3498	1.17949	-8.40389	-0.00274303	-0.000773246	-0.0125531	-0.24707	-0.137451	1.05151	0.225192	0.035303	-0.973222	-0.0296925	4.19666	0.707086	-8.77298	-0.0171288	0.0431192	-0.0224102	-0.723145	-0.137695	0.831543	-0.948124	-0.105603	0.283033	-0.0990049	5.9791	1.63965	8.78536	0.00707021	0.000802388	-0.000209002	-0.384277	-0.276123	-1.01855	0.914279	0.396564	-0.0805838	-0.0183598	1.26286	7.17275	6.61163	0.031707	0.0119758	-0.00666772	0.163086	-0.766846	-0.730469	0.930933	-0.0469624	-0.354494	0.074107	6.43493	-1.40068	7.30513	-0.0156841	0.0142913	-0.0149462	-0.333984	0.0600586	-1.04028	0.906671	-0.409109	-0.0595646	-0.0838417	2.11801	-8.66945	7.73578	-0.00318462	0.0173907	-0.0151895	0.0473633	0.851807	-0.773438	-0.0996406	-0.421886	0.816758	-0.380777	-2.73904	-1.15615	-8.61498	0.0129743	0.00624919	-0.0191783	-0.102051	0.0964355	1.13232	-0.924002	-0.0754089	0.174783	0.33164	2.88288	2.95043	10.2929	-0.00649633	0.0245333	-0.0173987	0.149902	-0.323486	-1.05957	-0.0284738	-0.0207581	0.998805	-0.0338639	0.477536	0.00250661	-9.19465	0.0112526	0.00603978	-0.0258402	-0.528076	0.0810547	1.05054	0.982365	0.0701436	-0.135052	0.108625	2.89081	1.2462	10.0056	0.0105311	0.0172141	0.00576145	0.141357	-0.250244	-1.12402	0.0267896	0.0755853	-0.992663	-0.0904924	0.335812	1.95333	-9.5612	0.00563504	0.00480879	-0.00879825	-0.519531	-0.313477	1.11914	
17	0.0734038	-0.0411905	0.994976	0.0541947	-1.35903	1.17705	-8.44764	-0.000769532	0.00154577	-0.0112983	-0.238281	-0.13501	1.04712	0.226164	0.0352333	-0.972989	-0.0300245	4.2155	0.657084	-8.73042	-0.020634	0.0511007	-0.0217394	-0.723145	-0.137695	0.836426	-0.948158	-0.105648	0.2829	-0.0990059	5.94656	1.56741	8.73136	0.00817907	0.0157486	-0.0014781	-0.386475	-0.276123	-1.02075	0.91441	0.396265	-0.08056	-0.0184081	1.2903	7.11893	6.59167	-0.0186751	0.00432399	-0.00205037	0.167969	-0.773193	-0.730469	0.930826	-0.0472437	-0.354748	0.0740601	6.50936	-1.41068	7.39544	-0.00469744	-0.000677412	-0.0103892	-0.334229	0.0622559	-1.03589	0.906627	-0.409242	-0.0593344	-0.0838355	2.09374	-8.63803	7.80006	-0.00567081	0.0214132	-0.0103928	0.0471191	0.856201	-0.767334	-0.0996406	-0.421886	0.816758	-0.380777	-2.73904	-1.15615	-8.61498	0.0129743	0.00624919	-0.0191783	-0.102051	0.0964355	1.13232	-0.923976	-0.0754352	0.174662	0.331769	2.91325	2.93177	10.2925	0.013418	0.0173439	-0.0183602	0.156494	-0.325439	-1.06201	-0.0285836	-0.0209612	0.998795	-0.0339536	0.493254	0.00713205	-9.21635	0.0107521	0.00766439	-0.0263477	-0.527832	0.0788574	1.05493	0.98239	0.0702149	-0.134774	0.108703	2.90532	1.22251	9.98854	0.00110083	0.0227781	0.0071369	0.145996	-0.252441	-1.12158	0.026773	0.0755826	-0.992666	-0.0904689	0.336592	1.95205	-9.56143	0.00559356	0.00492604	-0.0069354	-0.524414	-0.304688	1.12109	
18	0.0732995	-0.0413007	0.994973	0.0543145	-1.33278	1.18037	-8.43172	0.000729993	-0.00682639	-0.0143437	-0.240723	-0.133057	1.04932	0.227268	0.0353396	-0.972722	-0.0302121	4.23861	0.692361	-8.615	-0.0203808	0.0590393	-0.0284154	-0.7229	-0.139893	0.826904	-0.948164	-0.105419	0.282971	-0.098995	5.92826	1.62167	8.73415	-0.00875875	0.00583827	0.0106415	-0.384277	-0.271729	-1.0188	0.91434	0.39644	-0.0804646	-0.0184946	1.26144	7.17111	6.59896	0.0135561	0.00708485	-0.00261476	0.163574	-0.777832	-0.730225	0.930884	-0.0468786	-0.354664	0.0739623	6.39977	-1.37148	7.32656	0.0164602	0.00593907	-0.0263018	-0.334473	0.0666504	-1.04028	0.906697	-0.409086	-0.0593091	-0.0838604	2.10249	-8.62179	7.77925	0.0179028	0.0136828	-0.016299	0.0493164	0.856201	-0.771484	-0.0996406	-0.421886	0.816758	-0.380777	-2.73904	-1.15615	-8.61498	0.0129743	0.00624919	-0.0191783	-0.102051	0.0964355	1.13232	-0.923974	-0.0753298	0.174528	0.331869	2.87442	2.95374	10.2799	-0.00717661	0.0231433	-0.0196144	0.158691	-0.325684	-1.05273	-0.0285714	-0.0207177	0.998802	-0.0339099	0.484286	-0.00672751	-9.19429	0.0117725	0.00549429	-0.0262602	-0.525391	0.0742188	1.05713	0.982404	0.0702689	-0.134614	0.10874	2.88656	1.24473	9.99273	0.0106644	0.0157954	0.00456747	0.136719	-0.248291	-1.11719	0.0268604	0.075789	-0.992666	-0.0902655	0.331209	1.93791	-9.54769	0.0063787	0.00519781	-0.00776973	-0.521729	-0.311279	1.1167	
19	0.0734187	-0.0412244	0.994973	0.0542046	-1.34413	1.17422	-8.40177	0.0135829	-0.00694328	-0.0117777	-0.23877	-0.128662	1.04932	0.227898	0.0353517	-0.97257	-0.0303488	4.24703	0.710401	-8.69948	-0.0197715	0.0641602	-0.0234343	-0.727295	-0.139893	0.836426	-0.948136	-0.105552	0.282944	-0.0991898	5.99396	1.58377	8.72288	0.0172334	0.0071824	0.00857352	-0.388428	-0.275879	-1.01636	0.91434	0.396445	-0.0804491	-0.0184871	1.26013	7.17246	6.59774	0.00231665	0.00614596	0.000185585	0.165527	-0.769043	-0.730469	0.930886	-0.046396	-0.354714	0.0740031	6.49128	-1.52227	7.3884	0.0369228	0.000671577	-0.0239749	-0.334473	0.0688477	-1.03589	0.906673	-0.409104	-0.0594033	-0.0839547	2.13494	-8.70798	7.71404	0.00159789	0.0118385	-0.0181727	0.0473633	0.851807	-0.771484	-0.0996406	-0.421886	0.816758	-0.380777	-2.73904	-1.15615	-8.61498	0.0129743	0.00624919	-0.0191783	-0.102051	0.0964355	1.13232	-0.923915	-0.0750366	0.174151	0.332297	2.89685	2.92023	10.28	0.00495312	0.0116471	-0.0183669	0.149902	-0.323486	-1.05957	-0.0285301	-0.0206229	0.998805	-0.0339143	0.493637	0.0145409	-9.20894	0.0146064	0.00441499	-0.0275658	-0.527832	0.0788574	1.05493	0.982406	0.0703407	-0.134529	0.108775	2.89519	1.24934	10.0354	0.00879395	0.0178442	0.00621292	0.13916	-0.250244	-1.11719	0.0267757	0.0757894	-0.992677	-0.0901728	0.326477	1.95719	-9.56849	0.00793826	0.00161613	-0.00781018	-0.528564	-0.309082	1.12134	
20	0.0733697	-0.0411616	0.994987	0.0540679	-1.34744	1.19028	-8.43978	0.0176049	0.00137936	-0.0106469	-0.238281	-0.137207	1.05151	0.229134	0.0355641	-0.97226	-0.0307228	4.22847	0.685054	-8.68937	-0.0183674	0.057265	-0.0212086	-0.723145	-0.137695	0.826904	-0.948129	-0.105421	0.282997	-0.0992526	5.9574	1.56798	8.75259	-0.00500051	0.00301274	0.00874094	-0.388428	-0.278076	-1.01855	0.914462	0.396191	-0.0803363	-0.0183889	1.27189	7.16846	6.59043	-0.00968743	0.00861155	0.00328093	0.16333	-0.773438	-0.728271	0.931025	-0.0452663	-0.354517	0.0738963	6.46566	-1.30614	7.29981	0.04167	0.00985342	-0.0265214	-0.335938	0.0534668	-1.03589	0.906734	-0.408977	-0.0593934	-0.0839305	2.10135	-8.58987	7.81661	0.0143631	0.0147128	-0.0128029	0.045166	0.851807	-0.773438	-0.118909	-0.462987	0.765872	-0.430051	-2.75032	-1.17324	-8.61692	0.0176651	0.00838146	-0.0181137	-0.106445	0.10083	1.13647	-0.923866	-0.0751056	0.174271	0.332357	2.91411	2.92342	10.2849	0.0130934	0.00900667	-0.0196268	0.151855	-0.319092	-1.05981	-0.0286224	-0.0208473	0.998791	-0.0340928	0.484003	0.00793008	-9.2091	0.0144169	0.00712101	-0.026877	-0.525879	0.083252	1.05493	0.982407	0.0704026	-0.134398	0.108889	2.91211	1.2212	10.0088	0.00227877	0.0145744	0.00965298	0.13916	-0.250244	-1.11719	0.0267757	0.0757894	-0.992677	-0.0901728	0.326477	1.95719	-9.56849	0.00793826	0.00161613	-0.00781018	-0.528564	-0.309082	1.12134	
21	0.0732379	-0.0411032	0.995007	0.0539242	-1.33483	1.15535	-8.3981	0.0109288	0.000113239	-0.0130968	-0.234131	-0.130859	1.05371	0.230244	0.0358093	-0.971983	-0.0309036	4.24173	0.674164	-8.62257	-0.010293	0.052277	-0.0210053	-0.731689	-0.139893	0.829346	-0.948154	-0.104872	0.28311	-0.0992743	5.93359	1.5201	8.70729	-0.0152865	0.0112718	0.00850193	-0.386475	-0.273926	-1.01636	0.914546	0.396002	-0.0803392	-0.0182455	1.27734	7.10773	6.59617	-0.000347547	0.00732516	0.00129616	0.161133	-0.77124	-0.730469	0.931113	-0.0443973	-0.354395	0.0739037	6.39002	-1.32224	7.31057	0.0357847	0.00908781	-0.027131	-0.336182	0.0578613	-1.03809	0.906686	-0.409064	-0.0594161	-0.0840017	2.10384	-8.62653	7.82187	0.00533066	0.0149369	-0.0187795	0.0473633	0.849609	-0.773438	-0.118909	-0.462987	0.765872	-0.430051	-2.75032	-1.17324	-8.61692	0.0176651	0.00838146	-0.0181137	-0.106445	0.10083	1.13647	-0.923766	-0.0749523	0.174615	0.332487	2.88458	2.91084	10.2762	0.00162249	0.00904256	-0.0164357	0.154297	-0.325684	-1.05737	-0.0285535	-0.0206191	0.998802	-0.0339855	0.47822	-0.0135721	-9.21041	0.00924195	0.00258348	-0.027384	-0.527832	0.0786133	1.06152	0.982404	0.0703771	-0.134369	0.108972	2.90667	1.24305	9.99084	0.00104664	0.0142809	0.011239	0.13916	-0.250244	-1.11719	0.0267757	0.0757894	-0.992677	-0.0901728	0.326477	1.95719	-9.56849	0.00793826	0.00161613	-0.00781018	-0.528564	-0.309082	1.12134	
22	0.0732896	-0.041077	0.995002	0.0539632	-1.35161	1.1728	-8.42922	0.00330189	-0.00400195	-0.0143975	-0.240479	-0.137451	1.05591	0.231077	0.0359269	-0.971785	-0.0307823	4.27569	0.693195	-8.65006	-0.000598338	0.0478835	-0.026231	-0.727051	-0.146484	0.827148	-0.948085	-0.10507	0.283215	-0.0994236	5.90286	1.5077	8.71473	0.0229414	-0.00322118	0.00126469	-0.390625	-0.275879	-1.01392	0.914491	0.396141	-0.0802831	-0.018253	1.27193	7.05227	6.61528	0.0140012	0.00880446	-0.00304447	0.167969	-0.773193	-0.730469	0.931175	-0.0440116	-0.354281	0.0739036	6.42869	-1.21911	7.31861	0.00294579	0.0191924	-0.0124049	-0.331543	0.0534668	-1.04272	0.906644	-0.409146	-0.0594129	-0.0840582	2.10423	-8.66782	7.77993	-0.00477035	0.0152355	-0.0188125	0.0498047	0.845215	-0.77124	-0.118909	-0.462987	0.765872	-0.430051	-2.75032	-1.17324	-8.61692	0.0176651	0.00838146	-0.0181137	-0.106445	0.10083	1.13647	-0.923738	-0.0749086	0.174698	0.332533	2.89417	2.90667	10.2378	0.00398468	0.00894371	-0.0155321	0.154297	-0.325439	-1.06201	-0.0285535	-0.0206191	0.998802	-0.0339855	0.47822	-0.0135721	-9.21041	0.00924195	0.00258348	-0.027384	-0.527832	0.0786133	1.06152	0.982416	0.0702019	-0.13423	0.109143	2.89343	1.22547	9.97776	-0.000750141	0.013444	0.00662829	0.143799	-0.252441	-1.11694	0.026676	0.0761227	-0.992673	-0.0899715	0.330936	1.94382	-9.56394	0.00412994	0.000254725	-0.00689618	-0.521973	-0.306885	1.11206	
23	0.0733683	-0.04105	0.994989	0.0541186	-1.32874	1.18595	-8.41545	0.00250685	-0.0108047	-0.013558	-0.238525	-0.133057	1.04932	0.232155	0.0362839	-0.97151	-0.0309031	4.25308	0.661052	-8.59289	-0.0140308	0.0498004	-0.0366071	-0.733887	-0.137939	0.822266	-0.947921	-0.106273	0.283169	-0.0998377	5.94421	1.44109	8.66613	0.066198	0.0107836	0.00639558	-0.388428	-0.278076	-1.02075	0.914277	0.396696	-0.0799935	-0.0181927	1.26664	7.19112	6.55183	0.0157544	0.0170486	-0.00457573	0.165771	-0.775635	-0.723877	0.931187	-0.0443841	-0.354273	0.0735564	6.49958	-1.35134	7.35024	-0.0303694	0.0147715	-0.0233204	-0.333984	0.0600586	-1.03809	0.906571	-0.409321	-0.059364	-0.0840338	2.09573	-8.62768	7.78216	-0.00576492	0.0140011	-0.0123781	0.0429688	0.856201	-0.771484	-0.118354	-0.463073	0.76669	-0.428652	-2.75005	-1.19177	-8.60494	0.0185092	0.0121481	-0.0184178	-0.104492	0.10498	1.13623	-0.923692	-0.074939	0.174742	0.33263	2.92086	2.91759	10.238	0.00590866	0.0142667	-0.0171514	0.15625	-0.321289	-1.06445	-0.0286245	-0.0210743	0.998785	-0.0341321	0.482398	-0.000998861	-9.20266	0.0115556	0.00704285	-0.0258616	-0.530518	0.083252	1.05493	0.982423	0.0700559	-0.13425	0.109154	2.90899	1.21855	9.98276	-0.00069606	0.00915847	0.0055262	0.143799	-0.252441	-1.11694	0.0266464	0.0761152	-0.992673	-0.0899824	0.323423	1.93966	-9.55762	0.00269533	0.00323313	-0.00727138	-0.52417	-0.311279	1.1167	
24	0.0734962	-0.0409931	0.994976	0.0542264	-1.36171	1.18127	-8.42211	0.00273024	-0.00682413	-0.0127626	-0.238525	-0.132812	1.04492	0.232626	0.0364263	-0.971393	-0.0308722	4.28263	0.675901	-8.60959	-0.00512013	0.0311152	-0.023838	-0.736084	-0.140137	0.820068	-0.947774	-0.107546	0.28307	-0.100147	5.99119	1.65496	8.77076	0.0452149	0.0085059	0.000822657	-0.38623	-0.27832	-1.01172	0.914202	0.396902	-0.0798378	-0.0181738	1.26604	7.10848	6.60272	0.0190533	0.0160911	-0.00499256	0.166016	-0.782227	-0.728027	0.931209	-0.0447908	-0.354215	0.0733186	6.40684	-1.427	7.33531	-0.0135582	0.00400264	-0.0230054	-0.333984	0.0556641	-1.03809	0.906579	-0.4093	-0.0593439	-0.0840615	2.08949	-8.69	7.74998	0.0154641	0.0156518	-0.0161151	0.0515137	0.854004	-0.773682	-0.118354	-0.463073	0.76669	-0.428652	-2.75005	-1.19177	-8.60494	0.0185092	0.0121481	-0.0184178	-0.104492	0.10498	1.13623	-0.923692	-0.0748808	0.174695	0.332669	2.91691	2.8937	10.2466	0.0033164	0.0177355	-0.0144456	0.156494	-0.325684	-1.05737	-0.0286393	-0.0208144	0.998794	-0.0340218	0.483316	-0.0121622	-9.20878	0.00718053	0.00782479	-0.0269757	-0.527832	0.0788574	1.05054	0.982421	0.0700387	-0.134278	0.109146	2.91269	1.20295	10.0009	0.00298832	0.0106128	0.00552367	0.141602	-0.254639	-1.11694	0.0267042	0.0761923	-0.992669	-0.0899424	0.334686	1.94265	-9.56728	0.00190369	0.00776566	-0.00716719	-0.52417	-0.309082	1.1167	
25	0.0735662	-0.0409236	0.994973	0.054242	-1.35053	1.17386	-8.43783	0.00644577	-0.0061585	-0.0110547	-0.240967	-0.128662	1.05151	0.232626	0.0364263	-0.971393	-0.0308722	4.28263	0.675901	-8.60959	-0.00512013	0.0311152	-0.023838	-0.736084	-0.140137	0.820068	-0.947756	-0.10782	0.282981	-0.100281	5.96329	1.58625	8.72188	0.00458194	0.00566513	-0.000247226	-0.388428	-0.275879	-1.01636	0.914112	0.397191	-0.0794685	-0.0179956	1.24861	7.14503	6.5856	0.000620365	0.0117337	-0.000850038	0.167969	-0.773193	-0.730469	0.931224	-0.0443673	-0.354269	0.0731275	6.51577	-1.19806	7.30252	0.0126522	0.0138855	-0.0223198	-0.333984	0.0578613	-1.04492	0.906724	-0.40895	-0.0594696	-0.0841105	2.12292	-8.68356	7.75385	0.0201541	0.0108071	-0.0196192	0.0473633	0.851807	-0.775635	-0.117571	-0.462897	0.767985	-0.426735	-2.73028	-1.20462	-8.60012	0.0163016	0.0102445	-0.0180822	-0.104492	0.10498	1.13623	-0.923655	-0.0750348	0.17472	0.332722	2.87312	2.9083	10.2727	0.0160948	0.0159524	-0.0169517	0.156494	-0.323486	-1.06201	-0.0286699	-0.0205766	0.998802	-0.0339006	0.484701	-0.000503926	-9.22422	0.00847486	0.00846734	-0.0270885	-0.525635	0.0810547	1.05273	0.982431	0.0701269	-0.134195	0.1091	2.89073	1.22558	9.98305	0.00425515	0.0155297	0.00057898	0.13916	-0.252441	-1.12158	0.0267717	0.0761928	-0.992667	-0.0899488	0.335765	1.94349	-9.55804	0.00418104	0.00881566	-0.00594585	-0.521729	-0.311279	1.12354	
26	0.0735463	-0.0408207	0.994975	0.054304	-1.34152	1.18994	-8.40858	0.00493658	-0.0020422	-0.0105033	-0.245117	-0.133057	1.04932	0.233221	0.0369285	-0.971224	-0.0310999	4.30701	0.672594	-8.61089	-0.010632	0.0142943	-0.0217638	-0.738037	-0.14209	0.824707	-0.947747	-0.108168	0.282853	-0.100347	5.94194	1.53238	8.6666	0.0237601	0.00719231	0.000224153	-0.38623	-0.284668	-1.01367	0.914146	0.397151	-0.0792869	-0.0179507	1.25865	7.19543	6.57146	-0.00732227	0.0119098	-0.0023402	0.163574	-0.777832	-0.730225	0.931218	-0.0442301	-0.354339	0.0729433	6.41546	-1.32367	7.35615	0.00426277	0.00170345	-0.0311044	-0.335938	0.0534668	-1.04028	0.906871	-0.408612	-0.0595	-0.0841491	2.09424	-8.63908	7.80991	0.0115984	0.0153945	-0.018993	0.0454102	0.847412	-0.775635	-0.117571	-0.462897	0.767985	-0.426735	-2.73028	-1.20462	-8.60012	0.0163016	0.0102445	-0.0180822	-0.104492	0.10498	1.13623	-0.923595	-0.0752633	0.174739	0.332828	2.90774	2.92596	10.2854	0.0145817	0.0170977	-0.0182217	0.149658	-0.319092	-1.05981	-0.028679	-0.0203241	0.998811	-0.033789	0.483179	0.000904354	-9.21229	0.00906402	0.00738726	-0.0258425	-0.525391	0.0742188	1.05493	0.982443	0.0702754	-0.134086	0.109033	2.89636	1.23398	9.99427	0.00684669	0.0152518	0.000978458	0.141602	-0.254639	-1.11914	0.0268283	0.0761957	-0.992662	-0.0899847	0.33914	1.94237	-9.55814	0.00189843	0.00776856	-0.00716598	-0.526367	-0.309082	1.10986	
27	0.0736298	-0.0407292	0.994964	0.0544563	-1.35142	1.18469	-8.4198	-0.000683348	-0.00689067	-0.0101186	-0.240479	-0.135254	1.05151	0.233169	0.0369486	-0.971238	-0.031058	4.32135	0.691788	-8.63811	-0.00775268	0.00683695	-0.0227096	-0.73584	-0.144531	0.817871	-0.947737	-0.108318	0.282841	-0.100317	5.98338	1.6447	8.73435	-0.00905647	0.00355112	-0.00252325	-0.390625	-0.278076	-1.02075	0.914183	0.397085	-0.0791893	-0.0179215	1.25216	7.18413	6.58248	0.0052015	0.00883206	0.00182738	0.15918	-0.775635	-0.728271	0.931309	-0.0437657	-0.354214	0.0726643	6.39763	-1.27726	7.34032	0.00449929	0.00887297	-0.0205518	-0.33374	0.0512695	-1.03809	0.907028	-0.408239	-0.0595488	-0.0842302	2.10927	-8.59207	7.82092	0.0198775	0.014874	-0.0160007	0.0495605	0.851807	-0.775635	-0.117571	-0.462897	0.767985	-0.426735	-2.73028	-1.20462	-8.60012	0.0163016	0.0102445	-0.0180822	-0.104492	0.10498	1.13623	-0.923532	-0.0753642	0.174822	0.332937	2.88907	2.93371	10.2636	0.00954978	0.0155292	-0.0186025	0.154297	-0.325439	-1.06201	-0.0286478	-0.0200609	0.998822	-0.0336383	0.475852	-0.0113752	-9.21301	0.007384	0.00511877	-0.0249921	-0.530273	0.0786133	1.05933	0.98243	0.0703475	-0.134193	0.108969	2.87844	1.22847	10.0181	0.00427317	0.00662569	0.00283394	0.139404	-0.254639	-1.11938	0.0268697	0.0761675	-0.992659	-0.0900251	0.329153	1.95301	-9.57314	4.40563e-05	0.00813665	-0.00512089	-0.521973	-0.306885	1.1145	
28	0.0738	-0.0406918	0.994937	0.0547561	-1.36068	1.18875	-8.44219	-0.0061009	-0.00972778	-0.0117442	-0.236572	-0.128662	1.04492	0.233142	0.0369626	-0.971241	-0.0311353	4.34866	0.670779	-8.63895	-0.0127884	0.0103354	-0.0238133	-0.731689	-0.140137	0.817627	-0.947779	-0.107913	0.28288	-0.100239	5.97644	1.5523	8.67531	-0.00474069	0.00613205	0.00297695	-0.38208	-0.280518	-1.01611	0.914191	0.397047	-0.0792735	-0.0179871	1.26615	7.15133	6.58153	0.00137065	0.00108804	-0.00202552	0.17041	-0.777588	-0.728027	0.931286	-0.0442198	-0.354272	0.0724047	6.47391	-1.36482	7.34743	-0.0263521	0.012012	-0.013183	-0.335938	0.0534668	-1.04028	0.907029	-0.408241	-0.0595093	-0.0842364	2.10817	-8.68573	7.7603	0.000816753	0.01736	-0.0168301	0.0473633	0.851807	-0.773438	-0.117571	-0.462897	0.767985	-0.426735	-2.73028	-1.20462	-8.60012	0.0163016	0.0102445	-0.0180822	-0.104492	0.10498	1.13623	-0.923458	-0.0757069	0.174694	0.333129	2.88921	2.9464	10.2671	0.0125994	0.0166283	-0.0173028	0.163086	-0.325684	-1.05737	-0.0286339	-0.0198135	0.998833	-0.0334706	0.48421	0.00155804	-9.21709	0.00801166	0.00528821	-0.0262055	-0.523438	0.0810547	1.05054	0.982429	0.0703645	-0.134206	0.108956	2.87304	1.26412	9.99458	0.00262858	0.0100901	0.00320414	0.141357	-0.250244	-1.11719	0.0270269	0.0763191	-0.992641	-0.090049	0.336582	1.94855	-9.56086	0.000232891	0.00644023	-0.00624876	-0.519531	-0.311279	1.11914	
29	0.0739623	-0.0406507	0.994908	0.055099	-1.37138	1.20675	-8.38421	-0.00747289	-0.00804073	-0.0117158	-0.236084	-0.13501	1.04932	0.233173	0.0369511	-0.971234	-0.031138	4.31688	0.696343	-8.63366	-0.00766211	0.0154434	-0.0208068	-0.733887	-0.140137	0.817627	-0.947801	-0.107899	0.282827	-0.100202	5.98733	1.6258	8.71467	0.00634044	0.00496233	-0.000619555	-0.390625	-0.280273	-1.01611	0.914097	0.397261	-0.0792744	-0.0180646	1.26228	7.17891	6.5644	0.0189631	0.00497425	-0.0019653	0.165771	-0.777832	-0.72583	0.931306	-0.0444728	-0.354223	0.0722288	6.43308	-1.2876	7.32585	-0.00473428	0.00724575	-0.0170865	-0.332031	0.0600586	-1.04492	0.90707	-0.408146	-0.0594605	-0.0842953	2.11497	-8.61806	7.79785	0.00293857	0.0152926	-0.0156488	0.0473633	0.849609	-0.777832	-0.117571	-0.462897	0.767985	-0.426735	-2.73028	-1.20462	-8.60012	0.0163016	0.0102445	-0.0180822	-0.104492	0.10498	1.13623	-0.92342	-0.0758489	0.174764	0.333166	2.92048	2.96942	10.27	0.00728935	0.015586	-0.0143872	0.154297	-0.323486	-1.06201	-0.0287039	-0.0200208	0.998825	-0.0335206	0.47176	0.00875778	-9.19925	0.00920112	0.00625447	-0.0264171	-0.527832	0.076416	1.05713	0.982415	0.0704645	-0.134239	0.108971	2.88436	1.24537	10.015	0.00579088	0.00979538	0.00504094	0.136475	-0.241699	-1.11719	0.0270269	0.0763191	-0.992641	-0.090049	0.336582	1.94855	-9.56086	0.000232891	0.00644023	-0.00624876	-0.519531	-0.311279	1.11914	
30	0.0740029	-0.0406088	0.994898	0.0552407	-1.36071	1.19492	-8.42924	-0.00414332	-0.00663816	-0.0106016	-0.234131	-0.132812	1.05151	0.233436	0.0373594	-0.971144	-0.0315009	4.32747	0.706435	-8.63582	-0.0126652	0.0142048	-0.0304256	-0.738037	-0.14209	0.82251	-0.947817	-0.107909	0.282752	-0.100248	5.94229	1.56965	8.69401	0.00614609	0.0120826	0.00290832	-0.390625	-0.282471	-1.01611	0.914079	0.397305	-0.0792609	-0.0180646	1.26416	7.20229	6.56599	0.00552485	0.00525743	-0.000920287	0.161377	-0.777832	-0.728027	0.931299	-0.044322	-0.354264	0.0722081	6.43842	-1.33477	7.38186	0.0103418	0.0029862	-0.0190774	-0.331543	0.0534668	-1.03809	0.907076	-0.408123	-0.0595034	-0.084312	2.08991	-8.6199	7.83429	0.00486503	0.0116536	-0.0177218	0.0473633	0.851807	-0.771484	-0.117571	-0.462897	0.767985	-0.426735	-2.73028	-1.20462	-8.60012	0.0163016	0.0102445	-0.0180822	-0.104492	0.10498	1.13623	-0.92342	-0.0758489	0.174764	0.333166	2.92048	2.96942	10.27	0.00728935	0.015586	-0.0143872	0.154297	-0.323486	-1.06201	-0.0287039	-0.0200208	0.998825	-0.0335206	0.47176	0.00875778	-9.19925	0.00920112	0.00625447	-0.0264171	-0.527832	0.076416	1.05713	0.982413	0.0703083	-0.134378	0.108926	2.88713	1.25714	9.99071	-0.0071328	0.00622373	0.00449122	0.13916	-0.250244	-1.11719	0.0270269	0.0763191	-0.992641	-0.090049	0.336582	1.94855	-9.56086	0.000232891	0.00644023	-0.00624876	-0.519531	-0.311279	1.11914	
31	0.0741943	-0.0405694	0.994874	0.0554596	-1.34945	1.20888	-8.41731	-0.00105591	-0.0104395	-0.0131932	-0.238281	-0.135254	1.05151	0.23343	0.0373991	-0.971142	-0.0315368	4.32361	0.711191	-8.6111	-0.00914165	0.0124722	-0.0255109	-0.740234	-0.144531	0.817871	-0.947823	-0.107929	0.282747	-0.100187	5.94999	1.64935	8.74119	0.00380389	0.00354287	-0.00392717	-0.390381	-0.286865	-1.02051	0.913986	0.397518	-0.0792487	-0.0181163	1.2474	7.14404	6.56508	0.0196251	0.00248173	-0.00173813	0.165771	-0.775635	-0.728271	0.931341	-0.0442594	-0.354169	0.0721788	6.48464	-1.36569	7.35333	0.00375089	0.0152354	-0.017321	-0.327637	0.0644531	-1.03589	0.907065	-0.408127	-0.0595128	-0.084402	2.13888	-8.63084	7.77683	0.00551665	0.0164714	-0.015527	0.045166	0.851807	-0.777832	-0.117777	-0.463706	0.767772	-0.426184	-2.73351	-1.18789	-8.62104	0.0140317	0.010931	-0.0172435	-0.100098	0.103027	1.12988	-0.92338	-0.0759877	0.174516	0.333376	2.89383	2.93549	10.2735	0.00840105	0.0173069	-0.0141758	0.154297	-0.323486	-1.05957	-0.028757	-0.0201179	0.998821	-0.0335381	0.496377	0.0061465	-9.20412	0.00879019	0.00651756	-0.0259348	-0.525391	0.0742188	1.05713	0.982413	0.0702914	-0.134395	0.108912	2.89879	1.24118	9.98829	0.00170833	0.0140671	0.00342918	0.13916	-0.250488	-1.12402	0.0271574	0.0765886	-0.99262	-0.0900125	0.326438	1.9614	-9.55735	0.00268673	0.00324174	-0.00726573	-0.521729	-0.315674	1.1145	
32	0.0742302	-0.0405173	0.994865	0.0556011	-1.35764	1.21142	-8.44009	0.00392536	-0.00305588	-0.0126944	-0.231689	-0.137207	1.04517	0.233767	0.0375238	-0.971053	-0.0316362	4.31155	0.710321	-8.63623	-0.0011559	0.0166048	-0.0153627	-0.738037	-0.144287	0.820068	-0.94784	-0.107728	0.282744	-0.100248	5.96523	1.55387	8.68274	-0.00148627	0.00298241	0.00437841	-0.38623	-0.280273	-1.01611	0.914017	0.397442	-0.0792726	-0.0181406	1.2438	7.17091	6.57866	-0.0146298	0.00215627	-0.00135973	0.165527	-0.769043	-0.730469	0.931401	-0.0448814	-0.353986	0.0719107	6.46348	-1.361	7.35732	-0.0181244	0.00908727	-0.00829044	-0.333984	0.0556641	-1.04028	0.907021	-0.408233	-0.05943	-0.0844215	2.09948	-8.63062	7.80969	-0.0054663	0.0172418	-0.0140732	0.0471191	0.854004	-0.773682	-0.116931	-0.463386	0.769239	-0.424114	-2.73584	-1.17019	-8.61183	0.0159562	0.0108104	-0.0179197	-0.0998535	0.0986328	1.13843	-0.923363	-0.075973	0.174492	0.333439	2.90991	2.93348	10.291	0.00812735	0.0135918	-0.0168661	0.149902	-0.325439	-1.06421	-0.0287233	-0.0198894	0.99883	-0.0334409	0.483849	0.00137267	-9.22683	0.0116081	0.00631722	-0.026596	-0.523193	0.0788574	1.04614	0.982415	0.070338	-0.134362	0.108907	2.92766	1.24567	9.97023	0.00486846	0.0137734	0.00526687	0.138916	-0.246094	-1.11719	0.0271463	0.0766079	-0.992619	-0.0900148	0.329189	1.95882	-9.56682	0.00379022	0.00508077	-0.00860403	-0.526367	-0.309082	1.1167	
33	0.0742812	-0.0404154	0.994868	0.0555594	-1.35561	1.2136	-8.41972	0.0107665	-0.00572527	-0.0105665	-0.238281	-0.137207	1.05151	0.233745	0.0373421	-0.971067	-0.0315743	4.31522	0.720628	-8.62523	-0.00878428	0.0117143	-0.0159615	-0.731689	-0.14209	0.822266	-0.94787	-0.107699	0.282664	-0.100217	5.96005	1.63089	8.7259	-0.00397138	0.00857049	-0.000124903	-0.38623	-0.282471	-1.02075	0.914008	0.397451	-0.0793413	-0.0181043	1.23645	7.2107	6.55845	0.00186824	0.00235902	0.00448185	0.167969	-0.773438	-0.728271	0.931411	-0.0452835	-0.353914	0.0718902	6.44281	-1.41736	7.34959	-0.00908735	0.0100044	-0.00839715	-0.336182	0.0600586	-1.03809	0.906954	-0.408406	-0.0593049	-0.0843963	2.09613	-8.65073	7.80583	-0.00163718	0.016487	-0.0138021	0.0495605	0.847412	-0.777832	-0.116931	-0.463386	0.769239	-0.424114	-2.73584	-1.17019	-8.61183	0.0159562	0.0108104	-0.0179197	-0.0998535	0.0986328	1.13843	-0.923346	-0.0759357	0.174481	0.333501	2.89976	2.95005	10.2538	-0.00140197	0.0173992	-0.0158675	0.147949	-0.327881	-1.06201	-0.0287157	-0.0196368	0.998839	-0.0333227	0.481709	0.0025309	-9.21495	0.00910817	0.00662115	-0.0265587	-0.525635	0.0810547	1.05493	0.982427	0.0702847	-0.134321	0.108883	2.90584	1.24824	10.0221	0.00228643	0.0160255	0.00446278	0.132812	-0.25708	-1.11694	0.0272724	0.0767504	-0.99261	-0.0899535	0.328357	1.95127	-9.563	0.00259399	0.0056885	-0.00600603	-0.521729	-0.313477	1.11914	
34	0.0743046	-0.0403257	0.994875	0.0554702	-1.37456	1.20377	-8.43385	0.00900563	-0.00331173	-0.0111273	-0.238281	-0.13501	1.03857	0.233677	0.0372533	-0.971089	-0.0315331	4.33902	0.68983	-8.66866	-0.00539058	0.00745031	-0.014029	-0.736084	-0.140137	0.822266	-0.94787	-0.10776	0.28265	-0.100194	5.91961	1.5132	8.6934	0.0156696	0.00487109	-0.0014878	-0.388428	-0.282471	-1.01831	0.914137	0.397142	-0.0793877	-0.0181242	1.25488	7.10073	6.5967	-0.00679252	0.00341044	-0.000323565	0.165771	-0.777832	-0.728027	0.931419	-0.0458442	-0.353826	0.0718607	6.40977	-1.41679	7.35505	-0.0213562	0.00796941	-0.00774979	-0.332031	0.0644531	-1.04028	0.906928	-0.408489	-0.0592251	-0.08432	2.10246	-8.65916	7.8015	-0.0047305	0.0139907	-0.0132987	0.0473633	0.849609	-0.773438	-0.116931	-0.463386	0.769239	-0.424114	-2.73584	-1.17019	-8.61183	0.0159562	0.0108104	-0.0179197	-0.0998535	0.0986328	1.13843	-0.923311	-0.0760218	0.174573	0.333529	2.86228	2.94621	10.2567	0.00746019	0.0162304	-0.014893	0.150391	-0.332031	-1.06177	-0.0287104	-0.0195097	0.998844	-0.0332581	0.477939	0.00581339	-9.20316	0.00858979	0.00719137	-0.0261652	-0.525635	0.0788574	1.05713	0.982437	0.0701804	-0.134317	0.108864	2.88701	1.24473	9.98233	-0.00560233	0.0101016	0.00410935	0.145996	-0.254639	-1.11914	0.027344	0.0768154	-0.992607	-0.0899061	0.331842	1.95777	-9.55791	0.00355091	0.00625876	-0.00589161	-0.521729	-0.313477	1.1167	
35	0.0744215	-0.0402807	0.994868	0.0554715	-1.35722	1.21971	-8.40229	0.00858658	-0.0113038	-0.0127094	-0.236084	-0.13501	1.05151	0.233729	0.0373798	-0.971072	-0.0315248	4.33982	0.70124	-8.62105	-0.0059075	0.0138155	-0.0188685	-0.733887	-0.140137	0.817627	-0.947852	-0.107739	0.282706	-0.100226	5.94499	1.61204	8.70121	0.0027579	-0.00236054	0.00258009	-0.384277	-0.280273	-1.02075	0.913973	0.397521	-0.0793913	-0.0180935	1.2375	7.22063	6.57997	0.022687	0.00502987	0.00128506	0.165771	-0.775391	-0.739258	0.931381	-0.0459754	-0.353911	0.0718587	6.44979	-1.36734	7.34777	-0.00347205	4.74518e-05	-0.0147871	-0.332031	0.0600586	-1.04492	0.906914	-0.408536	-0.0592479	-0.0842322	2.11618	-8.61012	7.80629	0.00303982	0.0118035	-0.0122142	0.0454102	0.847412	-0.773438	-0.116931	-0.463386	0.769239	-0.424114	-2.73584	-1.17019	-8.61183	0.0159562	0.0108104	-0.0179197	-0.0998535	0.0986328	1.13843	-0.923367	-0.0757602	0.174403	0.333523	2.89711	2.93816	10.2899	-0.0073019	0.0197789	-0.00966059	0.149902	-0.323486	-1.05737	-0.0287223	-0.0195968	0.998839	-0.0333385	0.492145	0.00947153	-9.21895	0.0108157	0.00599552	-0.0262745	-0.527832	0.0786133	1.06152	0.982429	0.0702531	-0.134358	0.108838	2.89445	1.25713	10.0112	0.00298052	0.00937838	0.0033212	0.139404	-0.259033	-1.11914	0.0273281	0.0768171	-0.992611	-0.0898607	0.327972	1.94804	-9.55841	0.00671295	0.00446344	-0.00765691	-0.521973	-0.309082	1.1145	
36	0.0747248	-0.0401791	0.99486	0.0552684	-1.37495	1.19425	-8.4314	0.0164	-0.0134136	-0.0114148	-0.238525	-0.133057	1.05371	0.23362	0.0372865	-0.971101	-0.0315225	4.33073	0.673419	-8.64864	-0.00826322	0.00367023	-0.0147825	-0.733643	-0.144287	0.820068	-0.947875	-0.107816	0.282598	-0.100237	5.94493	1.55738	8.69816	0.0116859	0.0117225	-0.000357636	-0.388428	-0.284668	-1.01831	0.914003	0.397433	-0.0794957	-0.0180569	1.25241	7.16662	6.55222	-0.00570613	0.000901336	0.00549697	0.165527	-0.773438	-0.728271	0.931406	-0.0458984	-0.353847	0.0718969	6.48471	-1.44956	7.36061	0.00683969	0.0120781	-0.0125429	-0.334229	0.0622559	-1.04028	0.906864	-0.408635	-0.05933	-0.0842371	2.11392	-8.65911	7.75403	0.00343883	0.0106125	-0.0130522	0.045166	0.851807	-0.775635	-0.11658	-0.464192	0.769081	-0.423615	-2.73429	-1.18291	-8.62234	0.0191332	0.0093175	-0.0183395	-0.100098	0.10083	1.13208	-0.9234	-0.0756939	0.174368	0.333466	2.916	2.93529	10.2987	0.00230218	0.0180839	-0.0106144	0.154297	-0.325684	-1.05737	-0.0286974	-0.0195051	0.998842	-0.0333166	0.482882	0.0185904	-9.21235	0.0122766	0.00568299	-0.02849	-0.530029	0.076416	1.05933	0.982423	0.0702899	-0.134392	0.108822	2.90118	1.23929	10.0194	0.00355587	0.00809751	0.00257407	0.136963	-0.250488	-1.11938	0.0272372	0.0768007	-0.99262	-0.0898037	0.328348	1.95839	-9.56182	0.00313678	0.00263007	-0.00669269	-0.519531	-0.311279	1.1123	
37	0.0747248	-0.0401791	0.99486	0.0552684	-1.37495	1.19425	-8.4314	0.0164	-0.0134136	-0.0114148	-0.238525	-0.133057	1.05371	0.233593	0.0372095	-0.97111	-0.0315379	4.31844	0.692617	-8.63367	-0.0143563	0.00851736	-0.0190595	-0.733887	-0.14209	0.820068	-0.947838	-0.107758	0.282747	-0.100227	5.97082	1.58666	8.69377	-0.00206315	-0.00633728	0.0024665	-0.384033	-0.282471	-1.01831	0.914053	0.397317	-0.0795111	-0.0180094	1.2674	7.14327	6.56575	-0.0041407	0.00255584	0.000739256	0.161377	-0.775635	-0.726074	0.931374	-0.0457683	-0.35393	0.071989	6.4259	-1.32547	7.33897	0.00111015	0.000538226	-0.0128604	-0.332031	0.0600586	-1.04272	0.906789	-0.40881	-0.0593775	-0.084157	2.08817	-8.67206	7.7871	-0.00341821	0.00972572	-0.0152798	0.0539551	0.847412	-0.773438	-0.11658	-0.464192	0.769081	-0.423615	-2.73429	-1.18291	-8.62234	0.0191332	0.0093175	-0.0183395	-0.100098	0.10083	1.13208	-0.923419	-0.0754763	0.174322	0.333487	2.88426	2.95282	10.2789	-0.00502569	0.0150765	-0.012453	0.1521	-0.325439	-1.06421	-0.0286737	-0.019286	0.99885	-0.0332216	0.478171	-0.00835092	-9.21419	0.0099503	0.00617964	-0.0276005	-0.528076	0.083252	1.05273	0.982415	0.0703219	-0.134398	0.108873	2.91116	1.24417	9.98878	0.00292158	0.013687	0.00440437	0.141602	-0.254639	-1.11914	0.0271923	0.0767756	-0.992624	-0.0897994	0.342378	1.94492	-9.55626	0.0042515	0.00225748	-0.00556687	-0.52417	-0.306885	1.1145	
38	0.0746102	-0.0402217	0.994879	0.0550556	-1.35981	1.18093	-8.41589	0.00684196	0.000577397	-0.0123885	-0.238281	-0.135254	1.05151	0.233434	0.0371356	-0.971157	-0.0313813	4.32781	0.696347	-8.6053	0.000735673	0.00590043	-0.0172432	-0.736084	-0.137939	0.824707	-0.947894	-0.107285	0.282744	-0.100218	5.96008	1.62103	8.72953	-0.0158434	0.00567768	0.0025037	-0.38623	-0.284668	-1.02295	0.91404	0.397334	-0.0795972	-0.0179144	1.2923	7.175	6.54473	0.00220441	0.00447502	0.00551768	0.165771	-0.775635	-0.726074	0.931395	-0.0454744	-0.35387	0.0721892	6.42133	-1.34403	7.28494	0.0105966	0.0113488	-0.00933644	-0.336182	0.0578613	-1.04492	0.906787	-0.408808	-0.0594174	-0.0841633	2.12459	-8.66763	7.74843	0.00305582	0.0110279	-0.0173316	0.0561523	0.849609	-0.77124	-0.11658	-0.464192	0.769081	-0.423615	-2.73429	-1.18291	-8.62234	0.0191332	0.0093175	-0.0183395	-0.100098	0.10083	1.13208	-0.923427	-0.0753352	0.174281	0.333517	2.8772	2.89562	10.2491	-0.00654451	0.0162069	-0.01373	0.15625	-0.321289	-1.06445	-0.0286012	-0.0190512	0.998862	-0.0330666	0.4777	0.00198743	-9.21296	0.00730825	0.00333406	-0.0272417	-0.525391	0.076416	1.05273	0.98241	0.070439	-0.134335	0.108915	2.89265	1.23155	9.99486	0.00976316	0.0148486	0.00625134	0.139404	-0.256836	-1.11914	0.0271114	0.0767313	-0.992631	-0.0897785	0.340868	1.94473	-9.54732	0.00425021	0.00225824	-0.00556652	-0.526367	-0.311279	1.1167	
39	0.0745728	-0.0401714	0.994885	0.0550281	-1.36371	1.18882	-8.4099	0.00872152	-0.00198442	-0.0126694	-0.236328	-0.132812	1.04712	0.233287	0.0369966	-0.9712	-0.0312837	4.30504	0.6652	-8.60757	0.00208447	0.0065456	-0.0129649	-0.733887	-0.137939	0.824463	-0.947861	-0.107175	0.282905	-0.100191	5.9449	1.50072	8.66912	0.00654825	-0.00124297	0.00435608	-0.379883	-0.280518	-1.01392	0.914062	0.397286	-0.0795708	-0.017955	1.28047	7.15795	6.57525	-0.00250077	0.00550046	-0.0031014	0.165771	-0.775635	-0.723877	0.931346	-0.0453763	-0.353964	0.0724209	6.45106	-1.31964	7.36436	0.0132958	0.0087768	-0.00807765	-0.334229	0.0622559	-1.04028	0.906751	-0.408883	-0.0594242	-0.0841737	2.10119	-8.66324	7.80814	-0.00211809	0.0122182	-0.0153544	0.0495605	0.851807	-0.771484	-0.11658	-0.464192	0.769081	-0.423615	-2.73429	-1.18291	-8.62234	0.0191332	0.0093175	-0.0183395	-0.100098	0.10083	1.13208	-0.923459	-0.0751857	0.174168	0.333522	2.88162	2.91341	10.2467	-0.00867937	0.0215246	-0.011442	0.154053	-0.321289	-1.06445	-0.0285487	-0.0189628	0.998868	-0.0330014	0.480914	0.00751479	-9.20664	0.00894471	0.00322396	-0.0286042	-0.522949	0.0720215	1.05518	0.982398	0.0707352	-0.134218	0.108981	2.89177	1.25012	9.97081	0.016108	0.0136859	0.00518316	0.141357	-0.252441	-1.11011	0.0270469	0.0767124	-0.992635	-0.0897751	0.336174	1.9482	-9.55972	0.00424491	0.000342033	-0.00639929	-0.52417	-0.309082	1.1189	
40	0.074613	-0.0400839	0.994888	0.0549873	-1.37851	1.19525	-8.40607	0.00801822	-0.00237004	-0.0105086	-0.234131	-0.130615	1.04932	0.232817	0.0368818	-0.971318	-0.0312579	4.28406	0.683441	-8.6087	-0.0116986	-0.012223	-0.0187404	-0.733643	-0.144287	0.824707	-0.94789	-0.107054	0.282895	-0.100075	5.98005	1.56308	8.68684	-0.00246595	0.00753689	-0.00723751	-0.38623	-0.278076	-1.01855	0.913973	0.397489	-0.0796176	-0.0178017	1.27641	7.24531	6.54973	0.0104599	0.00570992	0.012147	0.16333	-0.773438	-0.728271	0.931304	-0.045602	-0.354039	0.0724604	6.43097	-1.33557	7.30901	-0.0215896	0.00210168	-0.00352899	-0.334229	0.0644531	-1.03809	0.906702	-0.408991	-0.0594392	-0.0841745	2.11731	-8.64657	7.77207	-0.00721426	0.0152791	-0.0132216	0.0517578	0.851807	-0.773682	-0.11658	-0.464192	0.769081	-0.423615	-2.73429	-1.18291	-8.62234	0.0191332	0.0093175	-0.0183395	-0.100098	0.10083	1.13208	-0.923472	-0.0751473	0.173825	0.333672	2.89868	2.93035	10.2935	-0.00146591	0.0178408	-0.0133517	0.151855	-0.321289	-1.06445	-0.0285985	-0.0191006	0.998864	-0.032992	0.492488	0.00428643	-9.21186	0.0101971	0.00799073	-0.0269424	-0.530518	0.0854492	1.05713	0.982375	0.0711373	-0.134093	0.109079	2.92163	1.23442	9.99444	0.0117088	0.0137014	0.00490977	0.143799	-0.252441	-1.11694	0.0270265	0.0767951	-0.992632	-0.0897379	0.333024	1.94338	-9.56	0.00333187	0.00253076	-0.00712462	-0.519531	-0.309082	1.1167	
41	0.0744859	-0.0400196	0.994896	0.0550619	-1.36695	1.1906	-8.41321	0.00138505	0.00351507	-0.0117419	-0.238525	-0.132812	1.04712	0.232093	0.0368198	-0.971502	-0.030987	4.26877	0.704376	-8.60127	0.00482173	-0.0154973	-0.0179408	-0.731689	-0.137939	0.822266	-0.947888	-0.106836	0.283052	-0.0998764	5.93691	1.56664	8.72698	-0.00555127	-0.00033081	-0.00670476	-0.379883	-0.280518	-1.01611	0.914044	0.397319	-0.0796403	-0.0178462	1.27995	7.16015	6.57295	-0.0126241	0.00244184	-0.000767079	0.167969	-0.775391	-0.728271	0.931206	-0.0459233	-0.354197	0.0727429	6.47172	-1.32958	7.33465	-0.00579513	0.00446429	0.00141278	-0.32959	0.0556641	-1.04028	0.9067	-0.408999	-0.0594444	-0.0841536	2.10377	-8.61028	7.81051	0.00320971	0.0119774	-0.0141236	0.0427246	0.856201	-0.775879	-0.115531	-0.46508	0.769246	-0.422627	-2.73901	-1.19095	-8.61427	0.0195127	0.00193441	-0.0172332	-0.100098	0.103027	1.13208	-0.923505	-0.0750283	0.173754	0.333643	2.88341	2.9064	10.2781	-0.00504646	0.0196588	-0.0098309	0.154297	-0.323486	-1.06201	-0.0286013	-0.0189616	0.998868	-0.0329555	0.486247	-0.00126857	-9.1895	0.0105811	0.00755182	-0.0258869	-0.530029	0.076416	1.05493	0.982356	0.0715209	-0.134047	0.109055	2.90913	1.24377	9.98338	0.0191453	0.0110413	0.00165799	0.148193	-0.254639	-1.11475	0.0270897	0.0768662	-0.992631	-0.0896745	0.333041	1.95617	-9.55841	0.00411471	0.00601979	-0.00625881	-0.521973	-0.309082	1.1145	
42	0.0743419	-0.039949	0.994904	0.0551677	-1.35963	1.20204	-8.40484	0.00477253	0.00111198	-0.0100924	-0.234131	-0.132812	1.05151	0.231533	0.0367714	-0.971636	-0.0310293	4.2751	0.697961	-8.57192	-0.00932093	-0.0332518	-0.0199473	-0.731689	-0.139893	0.829346	-0.947883	-0.107054	0.283072	-0.0996331	5.96753	1.53986	8.63899	0.022214	0.00327486	-0.0138808	-0.390625	-0.280273	-1.02075	0.913888	0.397688	-0.0796028	-0.0178025	1.27623	7.1896	6.55367	0.00786659	0.00764785	0.000712318	0.161133	-0.77124	-0.728271	0.931116	-0.0465027	-0.354345	0.0728026	6.43671	-1.33334	7.28483	-0.0202014	-0.00161777	-0.00377119	-0.336426	0.0622559	-1.04272	0.906639	-0.409125	-0.0594391	-0.0841997	2.13121	-8.66124	7.75376	-0.000657097	0.0152739	-0.0147828	0.0495605	0.851807	-0.773682	-0.115531	-0.46508	0.769246	-0.422627	-2.73901	-1.19095	-8.61427	0.0195127	0.00193441	-0.0172332	-0.100098	0.103027	1.13208	-0.923529	-0.0750402	0.173376	0.333772	2.88076	2.90325	10.2615	-0.00282629	0.0223807	-0.012238	0.158447	-0.323486	-1.05981	-0.0286013	-0.0189616	0.998868	-0.0329555	0.486247	-0.00126857	-9.1895	0.0105811	0.00755182	-0.0258869	-0.530029	0.076416	1.05493	0.98235	0.071872	-0.133955	0.108988	2.89468	1.26063	9.99057	0.0183832	0.0123067	-0.00148495	0.144043	-0.259033	-1.12134	0.0270897	0.0768662	-0.992631	-0.0896745	0.333041	1.95617	-9.55841	0.00411471	0.00601979	-0.00625881	-0.521973	-0.309082	1.1145	
43	0.0743071	-0.0398547	0.99491	0.0551827	-1.36249	1.19016	-8.43473	0.00617782	-0.00210929	-0.00990097	-0.236084	-0.13501	1.04712	0.230797	0.0368203	-0.971807	-0.0310994	4.2736	0.676231	-8.66993	-0.00456841	-0.023601	-0.0140586	-0.727295	-0.144287	0.82959	-0.947849	-0.107653	0.282977	-0.0995852	5.89927	1.54937	8.73255	0.0207039	0.00391012	-0.00909861	-0.38623	-0.286865	-1.02051	0.913931	0.397595	-0.0795738	-0.0177862	1.23777	7.10682	6.59803	-0.000517605	0.00507382	0.00159703	0.163574	-0.777832	-0.730225	0.93106	-0.0471139	-0.354419	0.0727602	6.47243	-1.4827	7.38652	-0.0268904	0.00747227	-0.0086806	-0.333984	0.0600586	-1.03809	0.906631	-0.409161	-0.0593899	-0.0841523	2.07899	-8.65353	7.80548	-0.000873755	0.0134561	-0.0155334	0.0471191	0.854004	-0.775879	-0.115531	-0.46508	0.769246	-0.422627	-2.73901	-1.19095	-8.61427	0.0195127	0.00193441	-0.0172332	-0.100098	0.103027	1.13208	-0.923628	-0.0748346	0.172607	0.333944	2.89454	2.918	10.3142	-0.0106147	0.0270459	-0.0133007	0.158447	-0.321289	-1.06201	-0.0289207	-0.0196889	0.998838	-0.0331429	0.473725	0.0139082	-9.19293	0.00839569	0.0079398	-0.0264721	-0.527832	0.0788574	1.0459	0.982319	0.0724918	-0.133862	0.108974	2.89398	1.27821	10.0207	0.0210294	0.0109685	-0.000382056	0.141357	-0.252441	-1.11475	0.0274293	0.0771358	-0.992615	-0.0895151	0.341583	1.94512	-9.57309	0.00377301	0.00892624	-0.00693404	-0.528809	-0.306885	1.1145	
44	0.074233	-0.0398367	0.994911	0.0552653	-1.36522	1.18412	-8.38164	0.000155111	0.00276581	-0.0122354	-0.236084	-0.137207	1.04712	0.230238	0.0369656	-0.97193	-0.0312292	4.28656	0.688946	-8.68636	-0.00636267	-0.0162556	-0.0179017	-0.731689	-0.14209	0.829346	-0.947837	-0.10765	0.283061	-0.0994644	5.99754	1.63487	8.72776	-0.000268852	-0.00243746	-0.0078217	-0.38208	-0.280518	-1.02075	0.913798	0.39789	-0.0796247	-0.0177913	1.2579	7.22696	6.55032	0.0114725	0.00240743	0.00167081	0.17041	-0.777832	-0.721436	0.931059	-0.0471885	-0.354407	0.0727907	6.42619	-1.42882	7.29032	-0.00537956	0.00859821	-0.00901044	-0.341064	0.0688477	-1.03809	0.906657	-0.409085	-0.0594192	-0.0842101	2.11032	-8.66802	7.77858	0.014049	0.0144859	-0.0164495	0.0471191	0.858398	-0.771484	-0.115531	-0.46508	0.769246	-0.422627	-2.73901	-1.19095	-8.61427	0.0195127	0.00193441	-0.0172332	-0.100098	0.103027	1.13208	-0.923658	-0.0747611	0.17245	0.333959	2.85121	2.90612	10.2957	-0.00444467	0.0268015	-0.0132511	0.158447	-0.319092	-1.05981	-0.0289157	-0.0195607	0.998844	-0.0330421	0.488709	0.00970725	-9.20991	0.00582647	0.00664486	-0.0262668	-0.528076	0.0810547	1.05493	0.982319	0.0724918	-0.133862	0.108974	2.89398	1.27821	10.0207	0.0210294	0.0109685	-0.000382056	0.141357	-0.252441	-1.11475	0.0274293	0.0771358	-0.992615	-0.0895151	0.341583	1.94512	-9.57309	0.00377301	0.00892624	-0.00693404	-0.528809	-0.306885	1.1145	
45	0.073993	-0.0397899	0.994921	0.0554361	-1.35203	1.1988	-8.43558	0.000845331	0.00665945	-0.0118129	-0.238525	-0.133057	1.05151	0.229838	0.0368827	-0.972035	-0.0310102	4.26922	0.707226	-8.68116	0.00677715	0.00255505	-0.0159055	-0.731689	-0.137695	0.829346	-0.94791	-0.107087	0.283105	-0.0992471	5.94933	1.57931	8.7382	-0.0211525	0.00427321	-0.00300269	-0.388428	-0.278076	-1.01855	0.913824	0.397815	-0.0797008	-0.0178158	1.25439	7.09903	6.59691	0.00381182	0.00102131	0.00200046	0.167969	-0.773438	-0.72168	0.930982	-0.0470428	-0.354588	0.0729863	6.43924	-1.30973	7.31873	-0.0027259	0.00272271	-0.00784162	-0.332031	0.0622559	-1.04272	0.906626	-0.409155	-0.0594346	-0.0841921	2.0943	-8.66087	7.7694	-0.00485126	0.0114502	-0.0135245	0.045166	0.854004	-0.773682	-0.115531	-0.46508	0.769246	-0.422627	-2.73901	-1.19095	-8.61427	0.0195127	0.00193441	-0.0172332	-0.100098	0.103027	1.13208	-0.923735	-0.074509	0.172003	0.33403	2.87458	2.89621	10.261	-0.00315421	0.0281731	-0.0155983	0.15625	-0.319092	-1.06445	-0.0288736	-0.0193437	0.998854	-0.0328975	0.486134	0.0132449	-9.21496	0.00830503	0.00607364	-0.0286405	-0.527588	0.0717773	1.05737	0.982302	0.073098	-0.133672	0.108956	2.88544	1.30096	10.0072	0.0198715	0.0103107	-0.000683589	0.141846	-0.259033	-1.11914	0.0275557	0.0771816	-0.992608	-0.0895134	0.339801	1.94912	-9.54527	0.000858715	0.00541299	-0.00624953	-0.521973	-0.309082	1.1167	
46	0.0739378	-0.0397277	0.99492	0.0555741	-1.35011	1.19683	-8.40341	0.00196615	-0.0019439	-0.0113436	-0.236084	-0.137207	1.04712	0.229507	0.0367526	-0.972125	-0.0307978	4.23457	0.682354	-8.64589	-0.00143158	-0.00130988	-0.0158931	-0.725098	-0.139893	0.829346	-0.947929	-0.106786	0.283182	-0.099176	5.90288	1.56179	8.72843	-0.0211704	0.00185163	0.00269665	-0.388428	-0.278076	-1.02319	0.913755	0.397963	-0.0797483	-0.0178133	1.2806	7.17894	6.53244	0.0150524	0.0009149	0.00115604	0.165771	-0.777588	-0.730225	0.930934	-0.0471137	-0.354701	0.0730088	6.46207	-1.46278	7.32847	0.0078086	0.000478163	-0.00888611	-0.33667	0.0666504	-1.04492	0.906579	-0.409249	-0.0594694	-0.0842154	2.11564	-8.68197	7.76548	-0.00511203	0.0111765	-0.0172679	0.0429688	0.854004	-0.777832	-0.115531	-0.46508	0.769246	-0.422627	-2.73901	-1.19095	-8.61427	0.0195127	0.00193441	-0.0172332	-0.100098	0.103027	1.13208	-0.923768	-0.0743808	0.171843	0.33405	2.86602	2.88439	10.302	-0.00873812	0.0256593	-0.013547	0.154053	-0.321289	-1.05981	-0.0288463	-0.0192239	0.998859	-0.032834	0.489645	0.017286	-9.19178	0.00924335	0.00538906	-0.0256633	-0.527832	0.0742188	1.05273	0.982266	0.0735704	-0.133672	0.108958	2.88906	1.30733	9.97777	0.0215576	0.00705458	0.00184172	0.136719	-0.248291	-1.11719	0.027542	0.0771526	-0.992612	-0.0894987	0.337413	1.93857	-9.5549	0.00392495	0.00606949	-0.00675242	-0.526123	-0.313477	1.10986	
47	0.0740345	-0.0396587	0.994912	0.0556463	-1.35741	1.18841	-8.42377	0.00489628	-0.00852297	-0.0118043	-0.233887	-0.13501	1.05371	0.229125	0.0365331	-0.972239	-0.0303011	4.2564	0.679447	-8.65278	0.012177	-0.003596	-0.00737832	-0.725342	-0.137695	0.831543	-0.947927	-0.106445	0.283348	-0.0990833	5.96266	1.6225	8.74082	-0.0080449	0.00374399	0.00298494	-0.38623	-0.278076	-1.01636	0.913705	0.398072	-0.0797615	-0.0178825	1.25217	7.18671	6.5782	0.00336078	0.00272061	-0.00119601	0.166016	-0.780029	-0.723633	0.930912	-0.047114	-0.354727	0.0731574	6.43873	-1.23351	7.30294	-0.0190362	0.00976438	-0.0034742	-0.332031	0.0600586	-1.04028	0.906585	-0.409227	-0.0595157	-0.0842282	2.11859	-8.62377	7.79026	0.00398981	0.0131613	-0.0135621	0.045166	0.849609	-0.769287	-0.115531	-0.46508	0.769246	-0.422627	-2.73901	-1.19095	-8.61427	0.0195127	0.00193441	-0.0172332	-0.100098	0.103027	1.13208	-0.92384	-0.0741453	0.17152	0.334071	2.84436	2.8878	10.2963	-0.00521215	0.0258119	-0.012926	0.154053	-0.319092	-1.05981	-0.0289089	-0.0194657	0.998852	-0.0328523	0.476146	0.0126344	-9.20617	0.00818596	0.00578172	-0.027517	-0.530273	0.0786133	1.05933	0.982206	0.0741068	-0.133813	0.10897	2.88294	1.29445	9.97522	0.0257706	0.00459513	0.00407494	0.139404	-0.259033	-1.1145	0.0275531	0.0771474	-0.992614	-0.0894748	0.333881	1.94189	-9.5673	0.00563691	0.00635585	-0.00650567	-0.52417	-0.309082	1.12134	
48	0.074079	-0.0395941	0.994907	0.0557193	-1.36822	1.19351	-8.39634	0.00467671	-0.00227697	-0.0118286	-0.234131	-0.132812	1.04932	0.228908	0.0361507	-0.972321	-0.0297564	4.25555	0.669098	-8.73194	0.0118826	0.00804432	0.000334333	-0.725342	-0.135498	0.833984	-0.947885	-0.106252	0.283575	-0.0990405	5.98197	1.56906	8.7046	-0.00230796	-0.00551726	0.00273286	-0.390625	-0.280273	-1.02075	0.913715	0.398042	-0.0797811	-0.0179692	1.27884	7.13432	6.54964	0.000658289	0.00195555	-0.00534268	0.168213	-0.780029	-0.72583	0.930833	-0.0478307	-0.354845	0.0731219	6.46053	-1.41104	7.30347	-0.0255025	0.00537178	-0.00332661	-0.34082	0.0666504	-1.03589	0.906434	-0.409591	-0.0593825	-0.0841761	2.12143	-8.68537	7.7296	-0.016378	0.0182216	-0.00954287	0.0429688	0.856201	-0.769287	-0.115531	-0.46508	0.769246	-0.422627	-2.73901	-1.19095	-8.61427	0.0195127	0.00193441	-0.0172332	-0.100098	0.103027	1.13208	-0.923856	-0.0739171	0.171312	0.334183	2.84676	2.88263	10.3246	-0.00266898	0.0187114	-0.0172325	0.15625	-0.321289	-1.06445	-0.0289429	-0.0196097	0.99885	-0.0328162	0.488687	0.00979743	-9.21976	0.00890839	0.00502345	-0.0274025	-0.532471	0.0788574	1.05054	0.982169	0.0747132	-0.133728	0.108994	2.8886	1.33186	9.99753	0.0271348	0.0136713	0.00114822	0.139648	-0.263428	-1.1123	0.0276446	0.0773131	-0.992612	-0.0893327	0.335839	1.9439	-9.55834	0.00479817	0.00511753	-0.00656566	-0.521973	-0.306885	1.1167	
49	0.0739628	-0.039485	0.994929	0.0555511	-1.35207	1.20042	-8.42745	0.0166074	0.00158396	-0.0099592	-0.234375	-0.126465	1.04492	0.228878	0.0358091	-0.97235	-0.0294537	4.20394	0.652641	-8.65861	0.0023597	0.00707368	-0.00891228	-0.727295	-0.14209	0.827148	-0.947933	-0.105307	0.283791	-0.0989721	5.97401	1.58074	8.72429	-0.038293	0.0063157	0.00652958	-0.386475	-0.276123	-1.02075	0.913735	0.397967	-0.0799448	-0.01787	1.24449	7.22791	6.55635	-0.0112025	-0.00239141	0.0116667	0.165527	-0.77124	-0.72168	0.930834	-0.0480798	-0.354831	0.0730216	6.49385	-1.4479	7.36887	-0.0107248	0.00542672	-0.00677737	-0.332031	0.0622559	-1.04028	0.906388	-0.409713	-0.059304	-0.0841343	2.09955	-8.66702	7.79846	-0.00179367	0.0133235	-0.0140677	0.0493164	0.854004	-0.773682	-0.115531	-0.46508	0.769246	-0.422627	-2.73901	-1.19095	-8.61427	0.0195127	0.00193441	-0.0172332	-0.100098	0.103027	1.13208	-0.923825	-0.0736535	0.171141	0.334415	2.86438	2.88814	10.2966	-0.00138575	0.0170137	-0.0216827	0.158203	-0.316895	-1.05981	-0.0289039	-0.0193639	0.998859	-0.0327149	0.493574	0.0129522	-9.21338	0.00903977	0.00607683	-0.0259086	-0.525635	0.0810547	1.05273	0.982151	0.0752368	-0.133567	0.108988	2.92266	1.34879	9.99947	0.0195881	0.017206	0.000788277	0.141846	-0.26123	-1.11694	0.0276279	0.077286	-0.992616	-0.0893102	0.333802	1.95365	-9.55242	0.00336003	0.00721681	-0.00689957	-0.526611	-0.306885	1.1167	
50	0.0737669	-0.0393316	0.994967	0.0552402	-1.34645	1.19793	-8.40838	0.0165269	0.00615453	-0.0106127	-0.236084	-0.13501	1.05151	0.228724	0.035615	-0.972401	-0.0292078	4.26061	0.642964	-8.65127	0.00411823	0.0102458	-0.0133863	-0.727539	-0.133301	0.831543	-0.947943	-0.104595	0.284076	-0.0988183	5.96214	1.40818	8.67582	-0.0192277	-0.0077849	0.00534939	-0.388428	-0.280273	-1.01855	0.913847	0.397678	-0.0801163	-0.0178217	1.28471	7.10517	6.5682	-0.00121081	0.00116966	0.00169089	0.163574	-0.777832	-0.72583	0.930871	-0.0469964	-0.354801	0.073396	6.38247	-1.3436	7.32561	0.0433766	0.000680427	-0.0139937	-0.33667	0.0666504	-1.03809	0.906353	-0.409795	-0.0593763	-0.0840693	2.12434	-8.65088	7.75743	0.00327215	0.0100409	-0.0136777	0.045166	0.854004	-0.76709	-0.115531	-0.46508	0.769246	-0.422627	-2.73901	-1.19095	-8.61427	0.0195127	0.00193441	-0.0172332	-0.100098	0.103027	1.13208	-0.923772	-0.0735441	0.171125	0.334594	2.84114	2.88768	10.2945	-0.0082869	0.0177902	-0.0198356	0.1604	-0.314697	-1.05981	-0.0288722	-0.0191254	0.998866	-0.0326781	0.496382	0.00695069	-9.19636	0.012833	0.00648683	-0.0260713	-0.523438	0.083252	1.05933	0.982133	0.0756706	-0.133392	0.109063	2.83056	1.37016	9.9782	0.0250222	0.0163339	0.00360952	0.144043	-0.26123	-1.1123	0.0276605	0.0772195	-0.992622	-0.089299	0.325432	1.94937	-9.56493	0.00477205	0.00717639	-0.00621143	-0.523926	-0.313477	1.1123	
51	0.0738757	-0.0392473	0.994967	0.0551641	-1.35467	1.17906	-8.41761	0.00817995	-0.0127915	-0.0120926	-0.236328	-0.133057	1.05371	0.228747	0.0357986	-0.972394	-0.0290181	4.21872	0.618715	-8.62979	0.00543971	0.00800324	-0.0163279	-0.723145	-0.135498	0.829102	-0.947953	-0.104354	0.284106	-0.0988877	5.94385	1.52036	8.72553	-0.00374821	0.00492762	0.00297479	-0.390625	-0.278076	-1.01392	0.913743	0.397908	-0.0801741	-0.0177349	1.27548	7.17289	6.55993	0.00962459	0.00231949	0.00460204	0.167969	-0.775635	-0.72168	0.930857	-0.0469672	-0.35483	0.073447	6.45201	-1.33268	7.29199	-0.0141355	0.00991902	-0.0112201	-0.330078	0.0666504	-1.04028	0.90627	-0.409954	-0.0594775	-0.0841108	2.13936	-8.67063	7.75875	-0.00524652	0.0112205	-0.0178628	0.0473633	0.849609	-0.77124	-0.115531	-0.46508	0.769246	-0.422627	-2.73901	-1.19095	-8.61427	0.0195127	0.00193441	-0.0172332	-0.100098	0.103027	1.13208	-0.923754	-0.0734705	0.170807	0.334821	2.852	2.87191	10.2993	-0.00569013	0.0183402	-0.0157468	0.162842	-0.321289	-1.05737	-0.0287921	-0.0189083	0.998873	-0.0326493	0.477924	0.00522317	-9.20754	0.0139338	0.00454431	-0.0275271	-0.532471	0.0788574	1.04834	0.982106	0.0760489	-0.133368	0.109074	2.90998	1.35452	10.0062	0.0118687	0.00932003	0.00475786	0.144043	-0.263428	-1.1123	0.0276759	0.0773227	-0.992624	-0.0891739	0.344753	1.95055	-9.55151	0.00691355	0.00417931	-0.00735624	-0.521973	-0.309082	1.11206	
52	0.074023	-0.0391792	0.99495	0.0553179	-1.37445	1.18092	-8.40122	-0.00144015	-0.00478281	-0.0113804	-0.236084	-0.137207	1.04712	0.228596	0.0357867	-0.972432	-0.0289727	4.2256	0.613438	-8.70625	-0.00337606	0.00080769	-0.0199785	-0.723145	-0.133301	0.829102	-0.947989	-0.103871	0.284194	-0.0987965	6.01033	1.47775	8.64436	-0.0128077	0.00798926	0.00341942	-0.386475	-0.269531	-1.0188	0.913649	0.398113	-0.0802315	-0.0177102	1.2738	7.20128	6.54131	0.0121079	0.00365794	0.000426515	0.161133	-0.773438	-0.728271	0.930793	-0.0470723	-0.354981	0.0734685	6.44804	-1.42318	7.31329	-0.00819345	-0.00560852	-0.00867686	-0.334229	0.0622559	-1.03809	0.906147	-0.410224	-0.0594681	-0.0841258	2.11901	-8.67632	7.73352	-0.0090548	0.0135824	-0.0154874	0.0515137	0.856201	-0.771484	-0.115531	-0.46508	0.769246	-0.422627	-2.73901	-1.19095	-8.61427	0.0195127	0.00193441	-0.0172332	-0.100098	0.103027	1.13208	-0.923786	-0.0731936	0.170685	0.334857	2.86961	2.86513	10.3307	-0.0108704	0.0196667	-0.0125488	0.158447	-0.319092	-1.06201	-0.0287692	-0.0187847	0.998876	-0.0326388	0.471174	0.000268004	-9.20209	0.0130931	0.00502122	-0.0265283	-0.525879	0.0856934	1.05493	0.982094	0.0761564	-0.13338	0.109095	2.89536	1.34265	10.0111	0.0104929	0.00920346	0.00533756	0.146484	-0.265625	-1.1167	0.0275972	0.0772904	-0.992637	-0.0890837	0.325858	1.94521	-9.55675	0.00911238	0.00268911	-0.00623281	-0.519287	-0.315674	1.1167	
53	0.0738782	-0.0391337	0.994956	0.0554408	-1.36392	1.19714	-8.4135	0.004422	0.00547619	-0.012076	-0.238525	-0.133057	1.04932	0.228452	0.0357591	-0.972473	-0.0287578	4.18269	0.640196	-8.63374	-0.000268665	0.00290043	-0.0197456	-0.729736	-0.135498	0.829102	-0.948013	-0.10371	0.284196	-0.0987337	5.97694	1.51414	8.70633	-0.00953887	0.00641986	-0.000252085	-0.390869	-0.269531	-1.0188	0.913652	0.398091	-0.0803135	-0.0177133	1.2563	7.15416	6.57596	0.00233936	0.00239509	0.00163435	0.161377	-0.775635	-0.723877	0.930771	-0.0472966	-0.354981	0.0735947	6.45276	-1.39648	7.32293	-0.00743145	0.0101876	-0.00532587	-0.34082	0.0666504	-1.04272	0.906143	-0.410221	-0.0595189	-0.0841539	2.12461	-8.63457	7.78543	0.01009	0.0121224	-0.0169618	0.0473633	0.851807	-0.76709	-0.115531	-0.46508	0.769246	-0.422627	-2.73901	-1.19095	-8.61427	0.0195127	0.00193441	-0.0172332	-0.100098	0.103027	1.13208	-0.923811	-0.0729859	0.170557	0.334899	2.84929	2.83474	10.296	-0.00244657	0.0183174	-0.0146566	0.1604	-0.314697	-1.06226	-0.0287605	-0.0186643	0.998881	-0.0325882	0.46239	-0.0113262	-9.20287	0.00946195	0.00692619	-0.0273673	-0.528076	0.0810547	1.05493	0.98208	0.0763619	-0.133366	0.109092	2.91445	1.32365	10.0022	0.00684089	0.0116691	0.00451534	0.141846	-0.263428	-1.12134	0.0275728	0.0773543	-0.992641	-0.0889903	0.345636	1.93198	-9.56068	0.00576693	0.00260162	-0.00580655	-0.521729	-0.311279	1.1167	
54	0.0737222	-0.0390932	0.994968	0.0554488	-1.36735	1.19144	-8.393	0.00585443	0.00945767	-0.0106955	-0.236328	-0.132812	1.04712	0.22812	0.0357138	-0.972559	-0.0285587	4.21417	0.631951	-8.67923	-0.000770894	0.00304701	-0.0152951	-0.723145	-0.133301	0.83374	-0.948029	-0.103194	0.28441	-0.0985067	5.93683	1.46969	8.66505	-0.0146542	-0.0030284	-0.00337389	-0.390869	-0.269531	-1.02319	0.913658	0.39807	-0.0803593	-0.0176743	1.29328	7.16596	6.55759	-0.00260524	0.0048656	0.00030232	0.163818	-0.780029	-0.730225	0.930741	-0.047015	-0.355048	0.0738346	6.46449	-1.37992	7.29375	0.0151879	0.00798216	-0.0073331	-0.332031	0.0622559	-1.04028	0.906097	-0.410319	-0.059548	-0.0841446	2.11661	-8.63925	7.76771	-0.00517928	0.0102955	-0.0148182	0.0471191	0.854004	-0.773682	-0.115531	-0.46508	0.769246	-0.422627	-2.73901	-1.19095	-8.61427	0.0195127	0.00193441	-0.0172332	-0.100098	0.103027	1.13208	-0.923818	-0.0728631	0.170503	0.334932	2.82062	2.86123	10.3173	-0.00547394	0.0174265	-0.0141951	0.160156	-0.3125	-1.05981	-0.028745	-0.0187854	0.998882	-0.0324999	0.486047	0.00282791	-9.201	0.00479753	0.00427713	-0.0290282	-0.523193	0.0788574	1.05493	0.982061	0.0766285	-0.13335	0.109094	2.90695	1.35393	9.99274	0.014498	0.0117113	0.00216867	0.142334	-0.272217	-1.11206	0.0275728	0.0773543	-0.992641	-0.0889903	0.345636	1.93198	-9.56068	0.00576693	0.00260162	-0.00580655	-0.521729	-0.311279	1.1167	
55	0.0736028	-0.0389954	0.994982	0.0554368	-1.34194	1.18486	-8.40728	0.00767507	-0.00320823	-0.0108712	-0.234131	-0.132812	1.05151	0.227941	0.0356295	-0.972609	-0.0283907	4.24262	0.634091	-8.65071	0.00493564	-0.00121253	-0.0122962	-0.725342	-0.135498	0.833984	-0.94802	-0.103154	0.284451	-0.0985169	5.9735	1.57183	8.77824	0.00128592	0.00327984	-0.000211879	-0.390869	-0.269287	-1.02563	0.91363	0.398133	-0.0803678	-0.0176455	1.2502	7.13576	6.56212	0.00787676	0.00525558	0.00240907	0.165527	-0.773438	-0.726074	0.930705	-0.0470244	-0.35511	0.0739843	6.44584	-1.36891	7.31941	-0.00355703	-0.00147071	-0.00474114	-0.336426	0.0622559	-1.03589	0.906043	-0.41044	-0.0595807	-0.0841168	2.10813	-8.65843	7.76838	0.000491286	0.0108286	-0.0148348	0.0493164	0.856201	-0.769287	-0.115531	-0.46508	0.769246	-0.422627	-2.73901	-1.19095	-8.61427	0.0195127	0.00193441	-0.0172332	-0.100098	0.103027	1.13208	-0.923819	-0.0727513	0.170446	0.334984	2.8352	2.82138	10.3083	0.0015828	0.0172849	-0.0165297	0.1604	-0.316895	-1.06689	-0.02866	-0.0185448	0.998893	-0.0323733	0.477118	0.0113347	-9.1945	0.0109755	0.0048741	-0.025447	-0.527832	0.0788574	1.05493	0.982041	0.0769119	-0.133403	0.109009	2.91176	1.3533	9.95466	0.00917268	0.00522225	-0.00058616	0.140137	-0.272217	-1.11646	0.0274889	0.0774099	-0.992647	-0.0889018	0.329383	1.93652	-9.5674	0.00262184	0.00145337	-0.00622743	-0.521973	-0.309082	1.12134	
56	0.0738784	-0.0388753	0.994969	0.0553824	-1.35707	1.18852	-8.41214	0.00886471	-0.0141035	-0.0100578	-0.234131	-0.130615	1.04492	0.227489	0.0356636	-0.97272	-0.0281425	4.2305	0.625064	-8.72922	0.000536568	-0.00175265	-0.012212	-0.723145	-0.133301	0.829102	-0.94802	-0.103039	0.284504	-0.0984841	5.98856	1.42705	8.65129	0.00730187	-0.00212391	-0.0015494	-0.386475	-0.273926	-1.01855	0.913622	0.398123	-0.0805223	-0.0175916	1.31308	7.19058	6.53497	-0.000478164	-3.00558e-05	0.00283993	0.165527	-0.773438	-0.723877	0.930725	-0.0471354	-0.355048	0.0739645	6.44134	-1.34821	7.28968	-0.010114	0.0135834	-0.00935666	-0.333984	0.0600586	-1.03589	0.905951	-0.410648	-0.0595986	-0.084074	2.12216	-8.66815	7.70443	-0.00864851	0.0133913	-0.0137175	0.045166	0.851807	-0.769287	-0.115531	-0.46508	0.769246	-0.422627	-2.73901	-1.19095	-8.61427	0.0195127	0.00193441	-0.0172332	-0.100098	0.103027	1.13208	-0.923765	-0.0727823	0.170226	0.335238	2.8471	2.8612	10.302	-0.000602895	0.0159127	-0.0174763	0.158203	-0.316895	-1.06226	-0.028633	-0.018309	0.998902	-0.0322569	0.474567	0.0148836	-9.21648	0.00813937	0.0071514	-0.0266518	-0.527832	0.0788574	1.0437	0.982015	0.0772299	-0.133462	0.108952	2.87928	1.35766	9.99505	0.0168608	0.00875383	0.00169114	0.14209	-0.265625	-1.10986	0.0275073	0.0773842	-0.992647	-0.088922	0.328634	1.95067	-9.56112	0.000876907	0.00721704	-0.00728114	-0.521973	-0.309082	1.1145	
57	0.0740419	-0.0388093	0.994957	0.05542	-1.35026	1.18348	-8.41858	0.00494904	-0.0100944	-0.0115673	-0.231934	-0.132812	1.04517	0.227321	0.0355896	-0.972767	-0.0279654	4.21511	0.640365	-8.71603	-0.00433808	0.00983907	-0.0173797	-0.723145	-0.133301	0.836182	-0.948017	-0.102986	0.284483	-0.0986229	5.98942	1.5771	8.76224	-0.00347722	0.00767151	0.00403053	-0.388672	-0.267334	-1.0166	0.913572	0.398234	-0.0805337	-0.0176111	1.26947	7.19528	6.5763	0.0109109	0.00346739	0.00188695	0.167969	-0.773438	-0.728271	0.930701	-0.0475283	-0.355099	0.0737671	6.47254	-1.43664	7.35064	-0.00576812	0.0067593	-0.0153724	-0.334229	0.0622559	-1.04028	0.905954	-0.410652	-0.0595948	-0.0840315	2.1065	-8.6492	7.78407	0.00347321	0.0118571	-0.0129142	0.045166	0.851807	-0.771484	-0.115531	-0.46508	0.769246	-0.422627	-2.73901	-1.19095	-8.61427	0.0195127	0.00193441	-0.0172332	-0.100098	0.103027	1.13208	-0.923706	-0.0727893	0.170345	0.335338	2.84165	2.86064	10.3144	0.00693362	0.0129529	-0.0182083	0.151611	-0.3125	-1.06445	-0.0286171	-0.0180508	0.998908	-0.0322074	0.469393	0.00702321	-9.19409	0.0125821	0.008069	-0.0257076	-0.522949	0.0742188	1.05737	0.981994	0.0775143	-0.133465	0.108937	2.90095	1.381	9.99126	0.005574	0.00988241	0.00104144	0.139893	-0.265625	-1.12134	0.0275612	0.0773663	-0.992647	-0.0889226	0.350095	1.93249	-9.54319	0.00198557	0.00876902	-0.00532245	-0.519531	-0.309082	1.1189	
58	0.0741185	-0.0386854	0.994953	0.0554765	-1.37404	1.19946	-8.38707	0.00580999	-0.00219054	-0.0103784	-0.236084	-0.13501	1.04712	0.227249	0.0355575	-0.972783	-0.0280463	4.18837	0.617571	-8.72315	-0.013283	0.016291	-0.0212092	-0.729736	-0.135498	0.831543	-0.948054	-0.102853	0.28441	-0.0986163	5.95408	1.45091	8.64282	0.00634559	0.00496442	-0.000592449	-0.388672	-0.269531	-1.01636	0.913616	0.39812	-0.0805891	-0.0176306	1.31063	7.15715	6.55742	-0.00499254	0.00551996	0.00128634	0.161133	-0.77124	-0.723877	0.930763	-0.0471929	-0.354981	0.0737619	6.46889	-1.40952	7.2987	0.0138903	0.0150579	-0.0181261	-0.334473	0.0666504	-1.04028	0.905953	-0.410636	-0.05965	-0.0840776	2.13543	-8.70382	7.70624	0.00425552	0.0148235	-0.0178532	0.0493164	0.854004	-0.769287	-0.115531	-0.46508	0.769246	-0.422627	-2.73901	-1.19095	-8.61427	0.0195127	0.00193441	-0.0172332	-0.100098	0.103027	1.13208	-0.923653	-0.0728837	0.17047	0.335399	2.87427	2.85603	10.2927	0.0124466	0.0138545	-0.016667	0.1604	-0.316895	-1.06445	-0.0286161	-0.0178101	0.998914	-0.0321592	0.483173	0.0114027	-9.19306	0.012003	0.00706225	-0.0251498	-0.525635	0.0810547	1.0481	0.981994	0.077549	-0.133477	0.108889	2.9143	1.34788	9.97635	0.00217125	0.0100363	0.00263961	0.141846	-0.263428	-1.10767	0.0276028	0.0773995	-0.992645	-0.0889032	0.328483	1.92692	-9.55875	0.00317711	0.00816751	-0.00791178	-0.531006	-0.306885	1.1145	
59	0.0740187	-0.0385979	0.994954	0.0556521	-1.34773	1.18297	-8.40708	-0.00260671	-0.000643212	-0.0103557	-0.238281	-0.13501	1.04932	0.22728	0.0355801	-0.97277	-0.0282277	4.17224	0.614389	-8.64334	-0.0147287	0.0115561	-0.0254659	-0.727539	-0.137695	0.829346	-0.947988	-0.103536	0.284365	-0.0986724	5.98628	1.54274	8.75338	0.0265595	0.00860769	-0.00640613	-0.39502	-0.26709	-1.0166	0.913632	0.398108	-0.0804441	-0.0177376	1.26543	7.18437	6.56406	0.0016146	0.00906938	-0.00703522	0.165771	-0.777832	-0.723633	0.930739	-0.0474335	-0.355033	0.0736653	6.48541	-1.36179	7.3156	-0.0195749	0.00452443	-0.0139037	-0.334229	0.0622559	-1.04736	0.906059	-0.410417	-0.0595787	-0.084052	2.10594	-8.61938	7.78794	0.0100284	0.0167083	-0.0120986	0.0471191	0.856201	-0.769287	-0.115531	-0.46508	0.769246	-0.422627	-2.73901	-1.19095	-8.61427	0.0195127	0.00193441	-0.0172332	-0.100098	0.103027	1.13208	-0.923617	-0.0730063	0.170643	0.335385	2.83861	2.85403	10.2939	0.0125956	0.0133983	-0.0140648	0.156006	-0.316895	-1.06689	-0.0286131	-0.0175436	0.998922	-0.0320679	0.476547	-0.000997302	-9.2106	0.00981101	0.00740563	-0.0257249	-0.523438	0.083252	1.05713	0.981991	0.07744	-0.133582	0.10887	2.90127	1.35967	9.99286	-0.00594438	0.00588497	0.00538357	0.137939	-0.272217	-1.1189	0.0276184	0.0773932	-0.992644	-0.0889125	0.330656	1.93913	-9.56177	0.00248472	0.00612107	-0.00743773	-0.526367	-0.309082	1.1145	
60	0.074103	-0.0385753	0.994941	0.0557945	-1.35109	1.17451	-8.43634	-0.00418463	-0.0101667	-0.0122866	-0.231689	-0.137207	1.04932	0.227218	0.035609	-0.97278	-0.0283485	4.19535	0.601757	-8.64932	-0.0158485	0.00737948	-0.0257009	-0.720947	-0.137695	0.831543	-0.948009	-0.103718	0.284228	-0.0986747	5.97048	1.5524	8.70073	0.0190384	0.0153607	-0.00474056	-0.386475	-0.273926	-1.01416	0.913682	0.398006	-0.0803659	-0.0178317	1.27941	7.16107	6.55545	-0.00605162	0.00665955	-0.00477182	0.161133	-0.773438	-0.72168	0.930777	-0.0477232	-0.354911	0.0735813	6.44264	-1.41416	7.32488	-0.0237188	0.0193354	-0.0111902	-0.330078	0.0688477	-1.03809	0.906144	-0.410232	-0.0595548	-0.0840616	2.12959	-8.65448	7.72952	0.0172854	0.0154481	-0.0132712	0.0471191	0.856201	-0.769287	-0.115531	-0.46508	0.769246	-0.422627	-2.73901	-1.19095	-8.61427	0.0195127	0.00193441	-0.0172332	-0.100098	0.103027	1.13208	-0.923602	-0.0731042	0.17072	0.335364	2.8726	2.85018	10.3022	0.0150605	0.013929	-0.0136056	0.156006	-0.316895	-1.05518	-0.0286292	-0.0174272	0.998926	-0.0319917	0.485143	0.0188906	-9.19183	0.00750061	0.00911669	-0.0273269	-0.528076	0.0810547	1.05273	0.981986	0.0773507	-0.133667	0.108873	2.89215	1.37247	9.97637	-0.00624176	0.00554691	0.00595645	0.139648	-0.263428	-1.1145	0.0276378	0.0773931	-0.992642	-0.0889335	0.340632	1.94404	-9.57105	0.00162552	0.00693617	-0.00714737	-0.519531	-0.311279	1.12134	
61	0.0741685	-0.0385036	0.994925	0.056042	-1.36148	1.20816	-8.42572	-0.00358862	-0.000441965	-0.00962951	-0.233887	-0.137207	1.05151	0.227006	0.03565	-0.972822	-0.0285379	4.2187	0.649132	-8.71499	-0.0158551	0.00562886	-0.0252486	-0.725342	-0.133301	0.83374	-0.947976	-0.104372	0.284093	-0.0986841	5.99773	1.54893	8.69991	0.0310602	0.00405863	-0.00441883	-0.392822	-0.273682	-1.02319	0.913705	0.397981	-0.0801961	-0.0179804	1.25957	7.22939	6.56317	-0.00423866	0.00843052	-0.00531355	0.165771	-0.777832	-0.728027	0.93069	-0.0484495	-0.355076	0.073414	6.48814	-1.41187	7.32049	-0.0274803	-0.0029216	-0.00713288	-0.334473	0.0688477	-1.04028	0.906197	-0.410135	-0.0594829	-0.0840118	2.09697	-8.66126	7.75963	0.00789598	0.0149329	-0.0130276	0.0471191	0.856201	-0.769287	-0.115531	-0.46508	0.769246	-0.422627	-2.73901	-1.19095	-8.61427	0.0195127	0.00193441	-0.0172332	-0.100098	0.103027	1.13208	-0.923593	-0.0731987	0.170827	0.335316	2.84626	2.85998	10.3177	0.0158587	0.0118134	-0.0108989	0.153809	-0.3125	-1.05981	-0.0286385	-0.0171982	0.998936	-0.0318074	0.475686	0.0204998	-9.19152	0.00649001	0.0069767	-0.0276656	-0.528076	0.0810547	1.05933	0.981992	0.0770241	-0.133856	0.10882	2.89622	1.35909	10.013	-0.0137696	0.00579372	0.00384058	0.141846	-0.263428	-1.12134	0.0276466	0.0773979	-0.992632	-0.0890372	0.342566	1.95743	-9.57384	-0.00324897	0.00651078	-0.00647651	-0.521729	-0.311279	1.1145	
62	0.0741255	-0.038411	0.994925	0.0561629	-1.35251	1.20842	-8.42347	0.00378317	-0.00593528	-0.0105485	-0.238281	-0.13501	1.04932	0.22685	0.0356503	-0.972852	-0.028764	4.2032	0.643755	-8.68131	-0.0163067	0.00435387	-0.0219636	-0.721191	-0.133301	0.83374	-0.947922	-0.104928	0.284074	-0.0986756	5.95615	1.56044	8.70839	0.0201838	-0.00018563	-0.00563105	-0.38623	-0.278076	-1.01636	0.913765	0.397847	-0.0801633	-0.0180219	1.26668	7.17499	6.58239	-0.00990377	0.00629706	-0.00244822	0.167969	-0.777832	-0.72583	0.930755	-0.0485757	-0.354903	0.0733493	6.43336	-1.42962	7.33985	0.00544918	0.00917818	-0.0169961	-0.338379	0.0600586	-1.04028	0.906226	-0.410068	-0.0594961	-0.0840159	2.10574	-8.66468	7.73477	0.00921405	0.0132426	-0.0153768	0.0495605	0.847412	-0.773438	-0.115531	-0.46508	0.769246	-0.422627	-2.73901	-1.19095	-8.61427	0.0195127	0.00193441	-0.0172332	-0.100098	0.103027	1.13208	-0.923495	-0.0738343	0.171114	0.335298	2.84197	2.88918	10.3087	0.0219314	0.00793896	-0.0124287	0.158203	-0.3125	-1.05762	-0.0286179	-0.0169603	0.998944	-0.0316917	0.474813	0.00403725	-9.22066	0.00950523	0.00493289	-0.0256156	-0.530029	0.076416	1.05493	0.982007	0.0765738	-0.134066	0.108744	2.89466	1.36152	9.96832	-0.0187298	0.0038066	0.0025533	0.139893	-0.267822	-1.1167	0.0276174	0.0774022	-0.992625	-0.0891213	0.328899	1.94531	-9.56454	0.00083155	0.00542043	-0.00624975	-0.52417	-0.309082	1.1167	
63	0.0742825	-0.0382938	0.994914	0.0562218	-1.35821	1.18952	-8.40861	0.00401279	-0.0114302	-0.0106208	-0.240723	-0.133057	1.04492	0.226702	0.035721	-0.972879	-0.0289364	4.19451	0.64593	-8.69946	-0.0122153	0.0115395	-0.025301	-0.727539	-0.137695	0.841064	-0.947891	-0.105753	0.283825	-0.0988047	5.94513	1.55657	8.71595	0.0401772	0.0102848	-0.00638528	-0.388428	-0.278076	-1.01855	0.913752	0.397901	-0.0800329	-0.0180856	1.27173	7.18262	6.53073	0.00678546	0.00911695	-0.0031887	0.15918	-0.775635	-0.730469	0.930739	-0.0484957	-0.354961	0.0733184	6.46235	-1.41288	7.32422	0.00122162	0.00473554	-0.0155369	-0.332031	0.0622559	-1.03809	0.906287	-0.409945	-0.0595333	-0.0839401	2.1001	-8.62852	7.79409	0.00457127	0.013149	-0.013683	0.0432129	0.849609	-0.77124	-0.115531	-0.46508	0.769246	-0.422627	-2.73901	-1.19095	-8.61427	0.0195127	0.00193441	-0.0172332	-0.100098	0.103027	1.13208	-0.923449	-0.0740054	0.171382	0.33525	2.84672	2.8814	10.3169	0.0131214	0.00906304	-0.0135385	0.154053	-0.321289	-1.05981	-0.0286196	-0.0168509	0.998947	-0.0316412	0.487017	-0.010295	-9.21004	0.00996784	0.00733777	-0.0272263	-0.523438	0.0810547	1.05054	0.982021	0.0761484	-0.134316	0.108608	2.89177	1.35973	9.98802	-0.0165745	0.00337189	0.00253557	0.144043	-0.26123	-1.11694	0.0276026	0.0773818	-0.992623	-0.0891596	0.33406	1.95437	-9.55513	0.000338558	0.0042316	-0.00579322	-0.52417	-0.311279	1.10767	
64	0.0745951	-0.0382273	0.994885	0.0563675	-1.38651	1.18822	-8.40322	0.00134821	-0.0154155	-0.0125954	-0.234131	-0.130615	1.04932	0.22672	0.0357238	-0.972869	-0.0291084	4.19565	0.648313	-8.73905	-0.0158252	0.0147681	-0.0223928	-0.720947	-0.137695	0.829346	-0.947801	-0.106536	0.283753	-0.0990384	5.94586	1.62899	8.74611	0.0297614	0.00150978	0.000515853	-0.388428	-0.275879	-1.01855	0.913757	0.397918	-0.0798387	-0.0183079	1.25144	7.15704	6.5698	0.00501284	0.0101	-0.0106276	0.165527	-0.769043	-0.726074	0.930743	-0.0489717	-0.354942	0.0730394	6.4569	-1.39468	7.29492	-0.0286689	0.00385081	-0.0159144	-0.332275	0.0688477	-1.04272	0.906302	-0.409936	-0.0594634	-0.0838622	2.10653	-8.65098	7.76645	0.00427615	0.015295	-0.00964241	0.0515137	0.854004	-0.773682	-0.115531	-0.46508	0.769246	-0.422627	-2.73901	-1.19095	-8.61427	0.0195127	0.00193441	-0.0172332	-0.100098	0.103027	1.13208	-0.923406	-0.0743146	0.171743	0.335116	2.87277	2.87992	10.2795	0.0170946	0.00793837	-0.0102323	0.15625	-0.321289	-1.05737	-0.0286716	-0.0169354	0.998942	-0.0317301	0.477502	0.00858507	-9.21942	0.0123842	0.00639053	-0.0264657	-0.523193	0.0742188	1.05273	0.982048	0.0755448	-0.134534	0.10851	2.93047	1.36218	9.97772	-0.0234437	0.00476532	0.0050062	0.14209	-0.267822	-1.1167	0.0276451	0.077503	-0.992604	-0.0892587	0.327135	1.96343	-9.57947	0.000274098	0.00464638	-0.00722832	-0.521973	-0.309082	1.11206	
65	0.07476	-0.0381519	0.994868	0.0565105	-1.34752	1.20238	-8.42616	0.00226463	-0.0105591	-0.0109684	-0.238525	-0.135254	1.05591	0.226632	0.0357761	-0.972882	-0.0292845	4.17001	0.637596	-8.69629	-0.019682	0.00543531	-0.02866	-0.720947	-0.135498	0.831543	-0.947789	-0.106916	0.283607	-0.099158	5.96473	1.53753	8.65612	0.0159878	0.0152136	-0.000733469	-0.38623	-0.282471	-1.01831	0.913769	0.3979	-0.0797689	-0.0183906	1.26946	7.22642	6.54587	-0.00580236	0.00542415	-0.000788964	0.163818	-0.780029	-0.72583	0.930779	-0.0491753	-0.354853	0.072882	6.46287	-1.387	7.33734	0.00394463	0.0153409	-0.0178519	-0.33667	0.0666504	-1.04272	0.906315	-0.409918	-0.0594234	-0.0838445	2.09649	-8.66398	7.74904	0.00569235	0.0150817	-0.0143908	0.045166	0.849609	-0.773438	-0.115531	-0.46508	0.769246	-0.422627	-2.73901	-1.19095	-8.61427	0.0195127	0.00193441	-0.0172332	-0.100098	0.103027	1.13208	-0.923354	-0.0747265	0.172114	0.334977	2.87085	2.90241	10.2798	0.0275435	0.0110067	-0.010872	0.153809	-0.316895	-1.06909	-0.0286493	-0.0167079	0.998949	-0.03165	0.482655	0.0112972	-9.21306	0.0108384	0.00721615	-0.0259335	-0.527832	0.076416	1.05713	0.982089	0.0748655	-0.134668	0.108448	2.90067	1.3478	9.94708	-0.0275467	0.00837559	0.00589814	0.139404	-0.259033	-1.1145	0.0276094	0.077513	-0.992601	-0.0892944	0.335615	1.95633	-9.54568	0.00419169	0.00450189	-0.00801264	-0.521973	-0.309082	1.12134	
66	0.0748855	-0.0380528	0.994859	0.0565746	-1.36852	1.19711	-8.39805	0.00302811	-0.00603817	-0.0115114	-0.236084	-0.13501	1.04932	0.226812	0.0360232	-0.972821	-0.0296319	4.19937	0.661929	-8.66883	-0.0119902	0.0204108	-0.0218009	-0.723145	-0.133301	0.83374	-0.947805	-0.107021	0.283509	-0.0991675	5.93245	1.66495	8.75808	0.00612012	0.0108131	0.00122178	-0.38623	-0.278076	-1.01855	0.913768	0.397896	-0.0797942	-0.0184279	1.24438	7.14576	6.58865	0.0156452	0.00386288	0.00232708	0.165771	-0.777832	-0.728027	0.930739	-0.0491581	-0.354955	0.0729007	6.49641	-1.48753	7.33019	0.00384878	0.00247344	-0.0163141	-0.334473	0.0666504	-1.03589	0.906356	-0.409829	-0.059431	-0.0838244	2.09461	-8.69212	7.77039	0.00269837	0.0134128	-0.0163707	0.0473633	0.849609	-0.769287	-0.115531	-0.46508	0.769246	-0.422627	-2.73901	-1.19095	-8.61427	0.0195127	0.00193441	-0.0172332	-0.100098	0.103027	1.13208	-0.923365	-0.0747993	0.172255	0.334858	2.86279	2.89508	10.2971	0.0122217	0.0120703	-0.00903515	0.160645	-0.321289	-1.06201	-0.0286488	-0.0164894	0.998955	-0.0315509	0.475969	-0.00226038	-9.21373	0.00990894	0.00791532	-0.0289534	-0.530273	0.0810547	1.05493	0.98212	0.0743977	-0.134781	0.108344	2.91922	1.30519	9.99566	-0.0158086	0.00983118	0.00113198	0.144043	-0.259033	-1.1123	0.0275699	0.0775316	-0.992602	-0.0892763	0.326023	1.95106	-9.52746	0.0046504	0.00388969	-0.00743889	-0.521973	-0.306885	1.1145	
67	0.0748618	-0.0379388	0.99487	0.0564834	-1.38552	1.20439	-8.42652	0.0138771	0.00190231	-0.00950178	-0.238281	-0.137207	1.04712	0.226822	0.0359496	-0.972818	-0.029735	4.18383	0.678314	-8.72537	-0.0165533	0.0134184	-0.0181252	-0.723389	-0.131104	0.831299	-0.947831	-0.106939	0.283467	-0.0991324	5.98015	1.55074	8.67674	0.00387621	0.0126097	-0.00402135	-0.388428	-0.280273	-1.01392	0.913872	0.397649	-0.0798445	-0.0183948	1.26395	7.19202	6.56228	-0.0183579	0.00471134	0.00491182	0.165771	-0.777588	-0.732666	0.930768	-0.0491109	-0.35489	0.0728856	6.45253	-1.38857	7.29996	0.00308156	0.0129321	-0.0157307	-0.338623	0.0622559	-1.04492	0.906401	-0.409748	-0.0593541	-0.0837909	2.11708	-8.60881	7.82382	0.00465567	0.0172765	-0.0108084	0.0515137	0.854004	-0.771484	-0.115531	-0.46508	0.769246	-0.422627	-2.73901	-1.19095	-8.61427	0.0195127	0.00193441	-0.0172332	-0.100098	0.103027	1.13208	-0.923326	-0.0750038	0.172484	0.334802	2.88869	2.90938	10.3061	0.0168065	0.00986386	-0.0134033	0.15625	-0.319092	-1.05737	-0.0286603	-0.0162325	0.998963	-0.0314298	0.474314	0.00151461	-9.23571	0.00907483	0.00869467	-0.0256259	-0.525391	0.0720215	1.05957	0.982137	0.0741999	-0.134791	0.108321	2.94169	1.32979	9.98792	-0.014127	0.0118047	0.00501742	0.141846	-0.259033	-1.1145	0.0275362	0.0775312	-0.992602	-0.0892813	0.342649	1.96236	-9.5678	0.00129309	0.00289091	-0.00650441	-0.521729	-0.315674	1.12134	
68	0.0744701	-0.0378528	0.994911	0.0563268	-1.36822	1.20543	-8.40526	0.0117486	0.014381	-0.0106636	-0.238525	-0.130859	1.04712	0.227114	0.0358411	-0.972751	-0.0298179	4.17695	0.664749	-8.69671	-0.0125913	0.0234398	-0.0191095	-0.725342	-0.137695	0.836426	-0.947826	-0.107121	0.283414	-0.0991368	5.95792	1.5324	8.68125	0.017962	0.00801384	-0.00375855	-0.38623	-0.280273	-1.02295	0.91399	0.39739	-0.0797928	-0.0183655	1.24357	7.16452	6.58803	-0.00374844	0.00835366	0.00095441	0.163574	-0.775635	-0.732666	0.930748	-0.0489164	-0.354932	0.0730628	6.49571	-1.46235	7.31851	0.00792044	0.0104578	-0.00858594	-0.332275	0.0688477	-1.04492	0.906414	-0.409729	-0.05933	-0.0837614	2.10326	-8.68821	7.7284	0.010334	0.012391	-0.0131851	0.045166	0.849609	-0.77124	-0.115531	-0.46508	0.769246	-0.422627	-2.73901	-1.19095	-8.61427	0.0195127	0.00193441	-0.0172332	-0.100098	0.103027	1.13208	-0.923259	-0.0752181	0.172805	0.334775	2.84019	2.92044	10.2935	0.0148874	0.00707605	-0.0132737	0.154053	-0.321289	-1.05981	-0.0286796	-0.0161167	0.998967	-0.0313445	0.473464	-0.0109215	-9.1912	0.00736123	0.00930975	-0.0259488	-0.530273	0.0788574	1.05273	0.982172	0.0737	-0.134825	0.108301	2.92643	1.28666	9.98219	-0.0218544	0.0128723	0.00661334	0.139648	-0.26123	-1.1145	0.0275158	0.0775955	-0.992597	-0.0892952	0.325773	1.94447	-9.548	0.00137479	0.00241957	-0.00599785	-0.521729	-0.311279	1.1145	
69	0.0742146	-0.03777	0.994939	0.056229	-1.36167	1.18802	-8.41293	0.00876007	0.00361814	-0.0112726	-0.234131	-0.132812	1.04932	0.227324	0.0357334	-0.972708	-0.0297824	4.24187	0.643312	-8.67353	-0.00750825	0.0289611	-0.0176724	-0.725342	-0.137695	0.833984	-0.947794	-0.106962	0.283635	-0.0989838	5.92016	1.45153	8.62853	0.00427895	-0.00215687	-0.00280269	-0.38623	-0.280273	-1.01611	0.914091	0.397155	-0.0798141	-0.0183242	1.28191	7.12571	6.56296	-0.00946089	0.00459721	0.000735899	0.167969	-0.775391	-0.732666	0.930742	-0.0485467	-0.354943	0.0733329	6.42186	-1.34763	7.3291	0.011619	-0.00196493	-0.00465538	-0.332031	0.0644531	-1.04028	0.906357	-0.409889	-0.0592792	-0.0836346	2.09396	-8.68649	7.73487	-0.012043	0.0123132	-0.00932111	0.0493164	0.854004	-0.771484	-0.115531	-0.46508	0.769246	-0.422627	-2.73901	-1.19095	-8.61427	0.0195127	0.00193441	-0.0172332	-0.100098	0.103027	1.13208	-0.92322	-0.0753344	0.173031	0.334739	2.85462	2.90095	10.2829	0.014745	0.0100934	-0.0122432	0.1521	-0.323486	-1.05957	-0.0286476	-0.0158817	0.998978	-0.0311427	0.4816	0.0036951	-9.21236	0.00526153	0.00426585	-0.0257808	-0.528076	0.0810547	1.05054	0.982197	0.0732743	-0.134879	0.108293	2.88953	1.30672	9.99173	-0.0144469	0.00950844	0.0059888	0.139404	-0.256836	-1.11914	0.0274246	0.0776746	-0.992596	-0.0892605	0.329836	1.95286	-9.55425	0.00347711	-0.000308033	-0.00692327	-0.521973	-0.306885	1.1189	
70	0.0742678	-0.0377535	0.994933	0.0562846	-1.35547	1.19014	-8.40168	0.00241872	-0.0070567	-0.0131993	-0.234131	-0.132812	1.05151	0.22762	0.0356837	-0.972642	-0.0297177	4.22809	0.656923	-8.65354	-0.00358813	0.0225561	-0.0181656	-0.727539	-0.135498	0.831543	-0.947745	-0.107197	0.283677	-0.0990752	5.94728	1.54045	8.73349	0.0236879	-7.62015e-05	0.00303568	-0.390625	-0.282471	-1.02075	0.914069	0.397217	-0.0797343	-0.0184221	1.27113	7.09554	6.5904	0.00694398	0.0080628	-0.00899029	0.16333	-0.770996	-0.734863	0.9307	-0.0491575	-0.354983	0.0732605	6.41312	-1.38468	7.3083	-0.0256322	0.00453292	-0.0112134	-0.336426	0.0644531	-1.04272	0.90637	-0.409883	-0.0592468	-0.083546	2.08971	-8.67548	7.72766	0.00414874	0.0131875	-0.00729097	0.0515137	0.854004	-0.773682	-0.115531	-0.46508	0.769246	-0.422627	-2.73901	-1.19095	-8.61427	0.0195127	0.00193441	-0.0172332	-0.100098	0.103027	1.13208	-0.923203	-0.0754053	0.17316	0.334702	2.87105	2.89891	10.2762	0.0146224	0.00949254	-0.0117552	0.156494	-0.325439	-1.06201	-0.0286199	-0.0157745	0.998983	-0.0310584	0.490218	0.00370784	-9.2008	0.0070075	0.00493483	-0.0279796	-0.525635	0.0788574	1.05713	0.982225	0.0729168	-0.134902	0.108255	2.9064	1.28289	10.0028	-0.0160107	0.0106466	0.00484627	0.139404	-0.259033	-1.11694	0.0273627	0.0776592	-0.992598	-0.0892701	0.33601	1.95257	-9.56841	0.00271327	0.000935706	-0.00664244	-0.517578	-0.306641	1.1145	
71	0.0746021	-0.0377269	0.994904	0.0563732	-1.35719	1.19215	-8.42192	0.00518195	-0.0205605	-0.0131242	-0.229492	-0.137207	1.05371	0.227628	0.0356706	-0.972641	-0.0297018	4.2031	0.64993	-8.67182	-0.0142582	0.0114342	-0.023175	-0.727295	-0.14209	0.831787	-0.94772	-0.107321	0.283656	-0.0992386	5.97918	1.5733	8.68474	0.0139185	0.0105142	0.00578353	-0.38623	-0.280273	-1.01611	0.914043	0.397286	-0.0796824	-0.0184219	1.24706	7.19571	6.53075	-0.00409097	0.00520737	0.00185784	0.16333	-0.773438	-0.72168	0.930682	-0.049551	-0.355027	0.0730196	6.49395	-1.48385	7.31802	-0.00922093	0.0173651	-0.0189261	-0.33667	0.0710449	-1.03809	0.906298	-0.410048	-0.0592422	-0.0835187	2.09319	-8.68627	7.73533	-0.00635664	0.0129831	-0.0174788	0.0473633	0.849609	-0.769287	-0.115531	-0.46508	0.769246	-0.422627	-2.73901	-1.19095	-8.61427	0.0195127	0.00193441	-0.0172332	-0.100098	0.103027	1.13208	-0.92318	-0.0753797	0.173322	0.334687	2.89254	2.9106	10.254	0.00720688	0.011484	-0.0126001	0.160645	-0.321045	-1.06445	-0.028666	-0.0159971	0.998976	-0.0311181	0.483714	0.00978189	-9.20023	0.00965741	0.00534347	-0.0268457	-0.525635	0.0788574	1.05054	0.982219	0.0727509	-0.135024	0.108269	2.91876	1.2776	9.96377	0.000580851	0.00872737	0.00739971	0.139404	-0.259033	-1.11914	0.0273101	0.077671	-0.992594	-0.0893232	0.334134	1.95372	-9.55924	0.0006493	0.00636982	-0.00726122	-0.519531	-0.311279	1.1167	
72	0.0748529	-0.0376082	0.994895	0.056273	-1.38589	1.18761	-8.41687	0.0121034	-0.00735622	-0.00973018	-0.229736	-0.132812	1.05151	0.227633	0.0356161	-0.972641	-0.0297208	4.22726	0.657906	-8.68838	-0.0112274	0.0169495	-0.0196878	-0.723145	-0.135498	0.836182	-0.947722	-0.107575	0.283508	-0.0993695	5.94235	1.59458	8.75923	0.0126793	0.0123603	0.00224326	-0.390625	-0.280273	-1.01855	0.914055	0.397264	-0.0796594	-0.0184051	1.26775	7.16783	6.57141	0.00202805	0.00667515	0.000261297	0.165771	-0.775635	-0.728271	0.930698	-0.0492915	-0.355018	0.0730363	6.48902	-1.45393	7.32612	0.0183789	0.00579612	-0.016394	-0.343018	0.0622559	-1.04492	0.906369	-0.409895	-0.0592364	-0.0834971	2.09587	-8.64523	7.81208	0.00977459	0.0136351	-0.0129335	0.0495605	0.851807	-0.773682	-0.115531	-0.46508	0.769246	-0.422627	-2.73901	-1.19095	-8.61427	0.0195127	0.00193441	-0.0172332	-0.100098	0.103027	1.13208	-0.923147	-0.0754494	0.173465	0.334689	2.88971	2.88837	10.2708	0.00961434	0.0146095	-0.0147349	0.158447	-0.323486	-1.06201	-0.0287691	-0.0160952	0.998969	-0.0311996	0.494466	0.00797426	-9.2164	0.0114289	0.00833612	-0.0265823	-0.523438	0.0810547	1.04834	0.982233	0.0725309	-0.135069	0.108233	2.9143	1.27398	9.96554	-0.00505481	0.0121801	0.00499343	0.139404	-0.256836	-1.11475	0.0273315	0.0776882	-0.992587	-0.0893836	0.325602	1.94985	-9.54071	-8.0525e-06	0.00612386	-0.0078175	-0.52417	-0.311279	1.1145	
73	0.0747569	-0.0375286	0.994906	0.0562534	-1.3566	1.19334	-8.4224	0.00630005	0.00210363	-0.0122553	-0.234131	-0.132812	1.04712	0.227787	0.0356296	-0.972601	-0.02984	4.19619	0.623968	-8.66372	-0.0124964	0.0168186	-0.0230179	-0.729492	-0.139893	0.831787	-0.947688	-0.107658	0.283609	-0.0993157	5.97604	1.52593	8.68287	0.00758858	0.00253368	-0.00319982	-0.390625	-0.280273	-1.01611	0.914081	0.397203	-0.0796709	-0.0183906	1.26071	7.14758	6.58983	0.0020282	0.00667499	0.000261126	0.167969	-0.773438	-0.728271	0.930706	-0.0487905	-0.35506	0.0730662	6.47183	-1.46434	7.33547	0.0142167	0.00268873	-0.0223833	-0.332275	0.0666504	-1.03809	0.906414	-0.4098	-0.0592524	-0.0834691	2.07778	-8.67255	7.77541	0.0100048	0.0150522	-0.0147424	0.045166	0.854004	-0.76709	-0.115531	-0.46508	0.769246	-0.422627	-2.73901	-1.19095	-8.61427	0.0195127	0.00193441	-0.0172332	-0.100098	0.103027	1.13208	-0.9231	-0.0756028	0.173562	0.334734	2.86631	2.89736	10.2883	0.0123084	0.014803	-0.016841	0.156494	-0.323486	-1.05737	-0.0287918	-0.0158683	0.998974	-0.0311498	0.463423	0.00611739	-9.17701	0.011423	0.00804434	-0.0289312	-0.525635	0.0788574	1.05713	0.982252	0.0723728	-0.135035	0.108211	2.91463	1.26905	9.97967	-0.00646171	0.011853	0.00269095	0.137207	-0.25708	-1.11914	0.0273853	0.0776952	-0.992582	-0.0894124	0.326029	1.95176	-9.56228	0.00244346	0.00805787	-0.0066025	-0.52417	-0.309082	1.1167	
74	0.0747603	-0.037495	0.994897	0.0564419	-1.37236	1.19591	-8.40649	-0.00281993	-0.00521025	-0.0141263	-0.238525	-0.135254	1.05591	0.227838	0.0356222	-0.972586	-0.0299608	4.19416	0.650498	-8.64903	-0.0143356	0.0108213	-0.0240421	-0.727295	-0.139893	0.841064	-0.947661	-0.108205	0.283448	-0.0994347	5.94982	1.58733	8.70639	0.0267533	0.00525854	-0.000885051	-0.38623	-0.280273	-1.02295	0.914109	0.397159	-0.0795516	-0.0184717	1.26523	7.14279	6.58717	0.000123283	0.0107738	-0.00524908	0.165527	-0.77124	-0.728271	0.930738	-0.0490855	-0.354952	0.0729811	6.42	-1.32384	7.28007	-0.0193814	0.00901547	-0.0107635	-0.33667	0.0688477	-1.03809	0.906475	-0.409658	-0.0592244	-0.0835212	2.12212	-8.67636	7.75797	0.0143397	0.0156594	-0.0150447	0.0473633	0.851807	-0.773438	-0.115531	-0.46508	0.769246	-0.422627	-2.73901	-1.19095	-8.61427	0.0195127	0.00193441	-0.0172332	-0.100098	0.103027	1.13208	-0.923078	-0.0756873	0.173526	0.334794	2.89091	2.91084	10.2899	0.00838627	0.0211217	-0.0180597	0.1521	-0.323242	-1.06909	-0.028808	-0.0155952	0.998981	-0.0310384	0.47223	0.0202627	-9.21506	0.0100058	0.00778638	-0.0250204	-0.528076	0.0856934	1.05493	0.982269	0.0723114	-0.134972	0.108172	2.92169	1.26884	9.98249	0.000956984	0.0137144	0.00342659	0.136963	-0.254883	-1.11938	0.0274274	0.0776921	-0.992576	-0.0894698	0.308898	1.94276	-9.56547	-0.000885884	0.00885897	-0.00669986	-0.526123	-0.313477	1.11914	
75	0.0747851	-0.0374421	0.994884	0.0566584	-1.37547	1.20512	-8.40887	-0.00317886	-0.00400155	-0.0117058	-0.238281	-0.13501	1.04712	0.227848	0.0356551	-0.972579	-0.0300763	4.23159	0.663035	-8.71126	-0.0107717	0.0147078	-0.0220483	-0.71875	-0.139893	0.836426	-0.947572	-0.10925	0.283262	-0.099673	5.91902	1.51305	8.65009	0.0625393	0.00404584	-0.00489986	-0.390625	-0.280273	-1.02075	0.914192	0.397	-0.0793349	-0.0186971	1.26432	7.12764	6.56427	-0.00775709	0.0102888	-0.0111009	0.165527	-0.773438	-0.730469	0.930665	-0.049814	-0.355098	0.0727037	6.47383	-1.53812	7.34847	-0.0327587	0.00200791	-0.0143088	-0.336914	0.0732422	-1.03809	0.906463	-0.409728	-0.0591192	-0.08338	2.0813	-8.65612	7.79552	-0.0121283	0.0142044	-0.00978854	0.0495605	0.851807	-0.771484	-0.115531	-0.46508	0.769246	-0.422627	-2.73901	-1.19095	-8.61427	0.0195127	0.00193441	-0.0172332	-0.100098	0.103027	1.13208	-0.923054	-0.0757217	0.173529	0.334852	2.86441	2.92663	10.2792	0.00822242	0.0184173	-0.0175978	0.158447	-0.323242	-1.06445	-0.0288122	-0.0153685	0.998989	-0.0308955	0.467859	0.0146072	-9.20954	0.00764961	0.00790575	-0.0264649	-0.525635	0.0810547	1.05273	0.982283	0.0721217	-0.135007	0.108125	2.88872	1.26335	9.98308	-0.0079154	0.0108454	0.00295886	0.143799	-0.254639	-1.12158	0.0275251	0.0778139	-0.992565	-0.089456	0.336574	1.95254	-9.57156	0.00208607	0.00718374	-0.00801168	-0.526611	-0.304688	1.1189	
76	0.0748626	-0.0374368	0.994871	0.0568014	-1.36585	1.21342	-8.41813	-0.00443595	-0.00968736	-0.0136927	-0.236328	-0.132812	1.04712	0.227812	0.0357185	-0.972585	-0.0300713	4.21469	0.651172	-8.62061	-0.00569504	0.0108401	-0.025943	-0.727539	-0.135498	0.836182	-0.947546	-0.109666	0.283159	-0.0997512	5.99849	1.81512	8.83114	0.0388818	0.010203	-0.00325356	-0.388428	-0.282471	-1.01392	0.914087	0.397266	-0.0792101	-0.0187409	1.22889	7.23175	6.56955	0.0139712	0.00570391	0.00277331	0.17041	-0.777832	-0.723633	0.930678	-0.0498251	-0.355078	0.0726406	6.46104	-1.56498	7.37102	-0.00234586	0.00970017	-0.017483	-0.33667	0.0688477	-1.03809	0.906539	-0.409532	-0.059171	-0.0834842	2.106	-8.64085	7.77913	0.016683	0.0149408	-0.0212891	0.0517578	0.851807	-0.773682	-0.115531	-0.46508	0.769246	-0.422627	-2.73901	-1.19095	-8.61427	0.0195127	0.00193441	-0.0172332	-0.100098	0.103027	1.13208	-0.923029	-0.0757872	0.173554	0.334891	2.86594	2.92609	10.2513	0.00262329	0.0179093	-0.0155375	0.156494	-0.323242	-1.06445	-0.0288122	-0.0153685	0.998989	-0.0308955	0.467859	0.0146072	-9.20954	0.00764961	0.00790575	-0.0264649	-0.525635	0.0810547	1.05273	0.982283	0.0720892	-0.135019	0.108131	2.91146	1.26622	10.0267	-0.000688081	0.0102119	0.00568568	0.139404	-0.259033	-1.11914	0.0275214	0.0777923	-0.992565	-0.0894729	0.350503	1.96047	-9.5499	0.00156492	0.0051485	-0.00611201	-0.519531	-0.311279	1.1167	
77	0.074987	-0.0373784	0.994853	0.0569847	-1.39576	1.19777	-8.43048	0.000442088	-0.00590965	-0.011855	-0.234131	-0.130615	1.04932	0.227764	0.0357454	-0.972592	-0.0301904	4.24113	0.67942	-8.74342	-0.00947054	0.0111615	-0.0244096	-0.725342	-0.137695	0.836426	-0.94759	-0.109313	0.283214	-0.0995626	5.95765	1.60944	8.65936	-0.0289561	0.000975293	-0.00372301	-0.388428	-0.284668	-1.01831	0.91412	0.397184	-0.0792318	-0.0187467	1.25927	7.08235	6.58292	0.00507277	0.00592024	-0.00218782	0.168213	-0.780029	-0.721436	0.930666	-0.0498164	-0.355112	0.0726265	6.47823	-1.43188	7.3551	-0.00341274	0.0040425	-0.014872	-0.334473	0.0688477	-1.04028	0.906553	-0.409489	-0.0592019	-0.0835153	2.09058	-8.62228	7.81553	0.00660083	0.0129086	-0.0185573	0.0476074	0.847412	-0.77124	-0.115531	-0.46508	0.769246	-0.422627	-2.73901	-1.19095	-8.61427	0.0195127	0.00193441	-0.0172332	-0.100098	0.103027	1.13208	-0.923018	-0.0757973	0.173569	0.334914	2.86673	2.92253	10.263	0.00655008	0.0157665	-0.0153395	0.158691	-0.327637	-1.05957	-0.0288789	-0.0156016	0.998982	-0.030937	0.484478	0.0120716	-9.20635	0.00886924	0.00608004	-0.027482	-0.530518	0.083252	1.06152	0.982293	0.0719845	-0.135073	0.108049	2.89325	1.27817	9.99023	-0.00507304	0.0087074	0.000357319	0.141357	-0.252441	-1.10791	0.0275128	0.077785	-0.99256	-0.0895442	0.35495	1.94493	-9.55631	0.00194707	0.00687139	-0.00614451	-0.521973	-0.309082	1.1145	
78	0.074804	-0.0372965	0.994864	0.0570842	-1.37054	1.21166	-8.41762	0.00317913	0.00516041	-0.00956866	-0.233887	-0.137207	1.05371	0.22785	0.0357761	-0.972569	-0.030234	4.20425	0.699425	-8.685	-0.00472193	0.0126235	-0.0220358	-0.727295	-0.139893	0.836426	-0.947614	-0.109203	0.28321	-0.0994661	5.96975	1.72423	8.72148	-0.00322622	0.00631806	-0.00247042	-0.38623	-0.284668	-1.01611	0.914069	0.397305	-0.0792218	-0.0186974	1.23482	7.19364	6.55836	0.0122349	0.0062496	0.00228269	0.167969	-0.773438	-0.728271	0.930782	-0.0494589	-0.354846	0.0726867	6.41281	-1.53101	7.30507	0.0329079	0.0121578	-0.0182565	-0.338867	0.0688477	-1.04028	0.906647	-0.409217	-0.0593118	-0.0837549	2.10964	-8.68515	7.75712	0.0217725	0.0172536	-0.0266295	0.0561523	0.849609	-0.773438	-0.115531	-0.46508	0.769246	-0.422627	-2.73901	-1.19095	-8.61427	0.0195127	0.00193441	-0.0172332	-0.100098	0.103027	1.13208	-0.922975	-0.0759228	0.173674	0.334949	2.88171	2.93928	10.2718	0.0101533	0.0144568	-0.0152017	0.150146	-0.327637	-1.06201	-0.0289535	-0.0156974	0.998979	-0.0309167	0.482945	0.00709867	-9.19764	0.00691999	0.00670281	-0.0267792	-0.530273	0.0786133	1.05713	0.982311	0.0718027	-0.135086	0.107988	2.93755	1.26101	10.0022	-0.00583031	0.00949659	0.00265516	0.141357	-0.252441	-1.12158	0.027488	0.0777716	-0.992557	-0.0895874	0.338334	1.96045	-9.54371	0.000906991	0.00490268	-0.0066684	-0.521729	-0.311279	1.1123	
79	0.0747082	-0.037233	0.994873	0.0570971	-1.37689	1.20469	-8.42952	0.00479614	-0.00252529	-0.012666	-0.234131	-0.132812	1.04712	0.227868	0.0357352	-0.972567	-0.0302143	4.21942	0.646335	-8.71116	0.000341287	0.0109385	-0.0172973	-0.731934	-0.135498	0.836182	-0.9476	-0.109179	0.283316	-0.0993277	5.97948	1.56222	8.6963	0.00656996	0.000133446	-0.00449296	-0.388428	-0.282471	-1.02075	0.914187	0.397032	-0.0792335	-0.0186961	1.25072	7.13431	6.57432	-0.0166635	0.00356643	0.000348915	0.167725	-0.769043	-0.726074	0.930992	-0.0482828	-0.354399	0.0729638	6.54431	-1.61556	7.36744	0.0608355	0.0374142	-0.0238972	-0.334229	0.0622559	-1.03809	0.906721	-0.408883	-0.0595554	-0.0844071	2.08547	-8.72084	7.76324	0.00611867	0.0147909	-0.0540874	0.0429688	0.851807	-0.777832	-0.115531	-0.46508	0.769246	-0.422627	-2.73901	-1.19095	-8.61427	0.0195127	0.00193441	-0.0172332	-0.100098	0.103027	1.13208	-0.922959	-0.0759043	0.173673	0.334996	2.89131	2.92148	10.2847	0.00600849	0.0164706	-0.0175388	0.154053	-0.321289	-1.06445	-0.0289544	-0.0154611	0.998987	-0.0307882	0.498475	0.0220851	-9.20733	0.00899564	0.00809734	-0.0249249	-0.523193	0.0742188	1.05273	0.982331	0.0716421	-0.135057	0.107945	2.92857	1.2458	9.9561	-0.00157848	0.0129402	0.00369661	0.134766	-0.252686	-1.11938	0.027573	0.0778547	-0.992551	-0.0895623	0.330985	1.96143	-9.55145	0.00252156	0.00663291	-0.00650714	-0.52417	-0.306885	1.11206	
80	0.0744753	-0.0371469	0.994895	0.0570732	-1.37939	1.21318	-8.4238	0.00953563	0.0123009	-0.0102238	-0.240479	-0.135254	1.05151	0.227943	0.0356196	-0.972552	-0.0302458	4.23242	0.678745	-8.7004	-0.0223764	0.0190916	-0.0214027	-0.7229	-0.14209	0.836426	-0.94762	-0.109163	0.283285	-0.0992473	5.99494	1.65554	8.69099	-0.00196096	0.00912826	0.000268902	-0.390381	-0.289062	-1.01587	0.914326	0.396707	-0.0792575	-0.0187139	1.24176	7.253	6.57456	-0.0200617	0.0035631	0.00198701	0.165527	-0.77124	-0.730469	0.931118	-0.0473681	-0.354102	0.0733953	6.33434	-0.789569	7.17445	0.00590416	-0.00636465	-0.00890613	-0.332031	0.0600586	-1.04492	0.906669	-0.40896	-0.0595507	-0.0845973	2.13977	-8.62337	7.70376	0.0285898	0.0162814	-0.00186668	0.045166	0.851807	-0.773438	-0.115531	-0.46508	0.769246	-0.422627	-2.73901	-1.19095	-8.61427	0.0195127	0.00193441	-0.0172332	-0.100098	0.103027	1.13208	-0.922941	-0.0758873	0.173568	0.335105	2.88683	2.94823	10.241	-0.00605608	0.0242803	-0.0197859	0.154297	-0.327637	-1.05957	-0.0289481	-0.0152387	0.998995	-0.0306263	0.459956	0.0227647	-9.21334	0.00686346	0.00756733	-0.0261553	-0.532471	0.0786133	1.05493	0.982363	0.0715117	-0.134895	0.107943	2.91883	1.29223	10.024	-0.00463784	0.0193997	0.00345337	0.137207	-0.25708	-1.11914	0.0275708	0.0778333	-0.992555	-0.0895325	0.329318	1.95654	-9.54721	0.0033921	0.00672498	-0.00730896	-0.52417	-0.311279	1.11206	
81	0.0742337	-0.0370668	0.994919	0.0570206	-1.35416	1.19897	-8.42677	0.00722875	-0.000257864	-0.0118005	-0.234131	-0.132812	1.04712	0.22791	0.0356527	-0.972558	-0.03027	4.22145	0.684067	-8.61468	-0.00487188	0.00793597	-0.0188884	-0.720703	-0.139893	0.833984	-0.947607	-0.109526	0.283199	-0.0992104	5.90509	1.56097	8.73541	0.0227318	0.00726771	-0.00277927	-0.390625	-0.282471	-1.01392	0.914639	0.396006	-0.0791416	-0.0187666	1.22276	7.09062	6.60867	-0.030289	0.00876688	-0.00347911	0.172119	-0.770996	-0.734863	0.931057	-0.048607	-0.35412	0.0732741	6.4049	-1.64331	7.31646	-0.0385745	0.0224972	0.000646913	-0.334473	0.0666504	-1.03809	0.906535	-0.409347	-0.0593562	-0.084293	2.10728	-8.80921	7.63845	-0.0237812	0.016386	-0.00575264	0.045166	0.851807	-0.771484	-0.115531	-0.46508	0.769246	-0.422627	-2.73901	-1.19095	-8.61427	0.0195127	0.00193441	-0.0172332	-0.100098	0.103027	1.13208	-0.922911	-0.0760677	0.173614	0.335122	2.87825	2.91471	10.298	0.0140905	0.0159803	-0.0144748	0.158447	-0.323486	-1.05981	-0.0289781	-0.014997	0.999001	-0.0305186	0.476657	0.0146554	-9.19628	0.0106529	0.00806894	-0.0263198	-0.525635	0.0810547	1.05933	0.982388	0.0713457	-0.134782	0.107967	2.90386	1.23151	9.99612	-0.00186411	0.0128293	0.00712843	0.136963	-0.250488	-1.12158	0.0275904	0.0778158	-0.992555	-0.0895411	0.336392	1.95142	-9.56599	0.0030952	0.00639496	-0.00686951	-0.517334	-0.311279	1.1167	
82	0.0746042	-0.0370146	0.994889	0.0570963	-1.37513	1.20931	-8.41313	0.00413587	-0.0215146	-0.0144307	-0.238281	-0.139404	1.05151	0.227674	0.0356562	-0.972615	-0.0302365	4.27885	0.678576	-8.66458	-0.0099239	0.0078663	-0.0231872	-0.727295	-0.139893	0.833984	-0.94764	-0.109213	0.283157	-0.0993663	5.92859	1.54896	8.65984	-0.00425005	0.0143125	0.0122133	-0.381836	-0.289062	-1.01367	0.914579	0.396147	-0.0791334	-0.0187521	1.22239	7.05231	6.6435	0.0148926	0.0064225	0.00144447	0.165283	-0.766846	-0.730469	0.930927	-0.0494167	-0.354381	0.0731246	6.488	-1.51538	7.40552	-0.0359697	-0.00220105	-0.0120323	-0.332031	0.0622559	-1.03345	0.906589	-0.409272	-0.0593098	-0.0841128	2.08381	-8.54413	7.90978	-0.00352958	0.00847991	-0.0103867	0.0454102	0.847412	-0.775635	-0.115531	-0.46508	0.769246	-0.422627	-2.73901	-1.19095	-8.61427	0.0195127	0.00193441	-0.0172332	-0.100098	0.103027	1.13208	-0.922932	-0.0758005	0.173551	0.335159	2.83175	2.95442	10.2975	-0.00652712	0.0140388	-0.0110851	0.160889	-0.325439	-1.06445	-0.028902	-0.0147565	0.999009	-0.0304691	0.48697	0.0124682	-9.2015	0.0124085	0.00506947	-0.0264712	-0.528076	0.0810547	1.06152	0.982369	0.0713386	-0.134919	0.107972	2.8827	1.26255	10.0044	-0.00371289	0.00509226	0.00347013	0.141602	-0.254639	-1.11914	0.0275789	0.0778081	-0.992559	-0.0895087	0.340665	1.96065	-9.54759	0.00509038	0.00329831	-0.00685254	-0.526367	-0.311279	1.12354	
83	0.0748921	-0.0369295	0.994873	0.0570546	-1.39706	1.19771	-8.43504	0.0110592	-0.00980343	-0.0108336	-0.238281	-0.139404	1.05151	0.227781	0.0355862	-0.972595	-0.0301545	4.19826	0.694529	-8.71063	-0.00844297	0.0212107	-0.0178653	-0.727539	-0.137695	0.831543	-0.947586	-0.109425	0.283202	-0.0995109	5.99027	1.73301	8.7413	0.0156165	0.00117228	0.00261715	-0.388428	-0.284668	-1.01831	0.914437	0.396481	-0.0791116	-0.0186683	1.23692	7.14213	6.60024	0.0201525	0.0108477	0.000404578	0.165771	-0.775391	-0.730469	0.930931	-0.049419	-0.354379	0.0730858	6.44227	-1.38948	7.26856	-0.00566506	-0.00340494	-0.0136528	-0.336914	0.0732422	-1.04272	0.906459	-0.40958	-0.0593044	-0.0840237	2.12526	-8.66936	7.73145	0.00390258	0.0157766	-0.00826751	0.0493164	0.854004	-0.773682	-0.115531	-0.46508	0.769246	-0.422627	-2.73901	-1.19095	-8.61427	0.0195127	0.00193441	-0.0172332	-0.100098	0.103027	1.13208	-0.92285	-0.0760711	0.173641	0.335276	2.87635	2.93208	10.3167	0.0135561	0.00781876	-0.0130463	0.154297	-0.327637	-1.06201	-0.0288533	-0.0145243	0.999013	-0.0305028	0.472698	0.0234983	-9.20059	0.0161981	0.00557889	-0.0266375	-0.528076	0.0810547	1.05933	0.982376	0.0711964	-0.134979	0.107933	2.9425	1.23839	10.0309	-0.00701957	0.0101365	0.00450154	0.136963	-0.254883	-1.11938	0.0274891	0.0779021	-0.992561	-0.0894286	0.332624	1.95954	-9.56028	0.00520002	-5.53675e-05	-0.00758772	-0.52417	-0.306885	1.1145	
84	0.0747481	-0.0368503	0.994894	0.0569305	-1.38197	1.20626	-8.42498	0.0106068	0.00256608	-0.0117837	-0.233887	-0.137207	1.04932	0.227781	0.0355862	-0.972595	-0.0301545	4.19826	0.694529	-8.71063	-0.00844297	0.0212107	-0.0178653	-0.727539	-0.137695	0.831543	-0.947601	-0.108868	0.283367	-0.0995159	5.96859	1.56152	8.68179	-0.0156506	-0.000831094	0.00502069	-0.390381	-0.286865	-1.01611	0.914494	0.396335	-0.0792027	-0.0185931	1.25463	7.1087	6.57723	-0.011763	0.000401575	0.00579542	0.170166	-0.773193	-0.732666	0.9311	-0.0486712	-0.354	0.0732641	6.47043	-1.54593	7.32581	0.0696951	0.0374729	-0.0184359	-0.334473	0.0688477	-1.03809	0.906372	-0.409674	-0.0594467	-0.0843974	2.12801	-8.79606	7.67618	-0.0050885	0.0123505	-0.0398311	0.045166	0.854004	-0.775879	-0.115531	-0.46508	0.769246	-0.422627	-2.73901	-1.19095	-8.61427	0.0195127	0.00193441	-0.0172332	-0.100098	0.103027	1.13208	-0.9228	-0.0760977	0.173927	0.335259	2.89846	2.91924	10.2783	0.00932606	0.00662986	-0.0122938	0.154541	-0.329834	-1.06421	-0.028828	-0.0142668	0.999021	-0.0303715	0.481454	0.014471	-9.21196	0.00897445	0.00627362	-0.0271419	-0.528076	0.0810547	1.05713	0.982386	0.0710112	-0.135011	0.107917	2.95681	1.24146	9.96814	-0.0134469	0.0104349	0.00519391	0.141357	-0.250244	-1.11475	0.0274052	0.0778544	-0.992564	-0.0894695	0.329218	1.95388	-9.56075	0.000288094	0.00243624	-0.00476095	-0.521729	-0.311279	1.1167	
85	0.074652	-0.0368093	0.994905	0.056881	-1.36659	1.19256	-8.39715	0.0108061	0.00505619	-0.0107965	-0.238525	-0.133057	1.05151	0.227956	0.0357227	-0.972547	-0.0301943	4.20799	0.678354	-8.66514	-0.00454776	0.0105167	-0.0168618	-0.727295	-0.144287	0.82959	-0.947619	-0.108712	0.283359	-0.0995354	5.98787	1.56004	8.64272	-0.00803544	0.00797606	0.00507215	-0.390381	-0.286865	-1.01831	0.914464	0.396405	-0.0792002	-0.0185974	1.25775	7.11837	6.56863	0.00843393	0.00522233	0.00028265	0.165527	-0.770996	-0.732666	0.931167	-0.0479765	-0.353874	0.0734738	6.32738	-0.99793	7.15523	0.0585958	0.0139357	-0.017159	-0.329834	0.0644531	-1.04028	0.90645	-0.409476	-0.0595304	-0.0844649	2.17212	-8.60499	7.72841	0.0200504	0.011952	-0.0229002	0.0473633	0.854004	-0.771484	-0.115531	-0.46508	0.769246	-0.422627	-2.73901	-1.19095	-8.61427	0.0195127	0.00193441	-0.0172332	-0.100098	0.103027	1.13208	-0.9228	-0.0760977	0.173927	0.335259	2.89846	2.91924	10.2783	0.00932606	0.00662986	-0.0122938	0.154541	-0.329834	-1.06421	-0.0287931	-0.0141607	0.999027	-0.0302594	0.482702	0.013219	-9.21189	0.00477871	0.00464049	-0.0278907	-0.525635	0.0788574	1.05713	0.982384	0.0708996	-0.135049	0.107965	2.91577	1.24745	9.98367	-0.000735658	0.0115333	0.0078327	0.138916	-0.248291	-1.11719	0.0274052	0.0778544	-0.992564	-0.0894695	0.329218	1.95388	-9.56075	0.000288094	0.00243624	-0.00476095	-0.521729	-0.311279	1.1167	
