40	Head	00b4120a												Throax	00b411e8												LUpArm	00b411d9												LFoArm	00b41148												RUpArm	00b411db												RFoArm	00b41204												Waist	00b411f7												Lthigh	00b411f4												Lshank	00b4111b												Rthigh	00b411c8												Rshank	00b411ee												
PacketCount	q0	q1	q2	q3	accX	accY	accZ	gyrX	gyrY	gyrZ	magX	magY	magZ	q0	q1	q2	q3	accX	accY	accZ	gyrX	gyrY	gyrZ	magX	magY	magZ	q0	q1	q2	q3	accX	accY	accZ	gyrX	gyrY	gyrZ	magX	magY	magZ	q0	q1	q2	q3	accX	accY	accZ	gyrX	gyrY	gyrZ	magX	magY	magZ	q0	q1	q2	q3	accX	accY	accZ	gyrX	gyrY	gyrZ	magX	magY	magZ	q0	q1	q2	q3	accX	accY	accZ	gyrX	gyrY	gyrZ	magX	magY	magZ	q0	q1	q2	q3	accX	accY	accZ	gyrX	gyrY	gyrZ	magX	magY	magZ	q0	q1	q2	q3	accX	accY	accZ	gyrX	gyrY	gyrZ	magX	magY	magZ	q0	q1	q2	q3	accX	accY	accZ	gyrX	gyrY	gyrZ	magX	magY	magZ	q0	q1	q2	q3	accX	accY	accZ	gyrX	gyrY	gyrZ	magX	magY	magZ	q0	q1	q2	q3	accX	accY	accZ	gyrX	gyrY	gyrZ	magX	magY	magZ	
0	0.927109	0.14546	0.184154	-0.292227	-3.72564	1.4434	10.2729	-0.00437789	0.0353926	0.143932	0.70752	0.09375	-0.711914	0.659485	-0.356181	-0.508814	-0.423465	9.7334	-0.384615	2.47596	0.111051	-0.0748893	-0.016203	-0.675537	0.280518	-0.36792	0.862047	0.183951	0.471258	0.0308658	-7.67537	3.43651	6.23589	-0.147374	0.0310032	0.153266	0.86377	-0.344727	-0.13916	0.350668	-0.390565	0.668257	-0.527184	-0.717426	-9.34832	-2.03658	-0.0883115	-0.182601	0.0259807	-0.121338	0.854248	0.502686	0.879778	0.010776	0.297178	-0.37089	-5.11025	-2.19634	7.82942	0.00669833	-0.00535817	0.14264	0.730713	0.429199	-0.47583	0.726182	0.51879	0.284767	0.349891	-2.56743	9.19605	6.43957	-0.0374525	0.148472	0.0522191	0.38208	-0.928467	0.149902	0.666618	-0.357108	-0.479898	-0.444738	9.78159	-0.687857	2.47286	0.205474	0.0739196	0.0081029	-0.778809	0.430664	-0.403076	0.475588	-0.518672	-0.506487	-0.498263	9.76241	-0.0984598	-0.146524	0.106661	0.0431293	0.00952404	-0.980713	0.418213	0.0197754	0.53869	-0.362909	-0.670812	-0.35794	9.55613	0.84656	-1.46064	0.0975959	0.0133825	-0.0038569	-1.05933	0.249268	-0.0388184	0.339125	-0.641644	-0.392103	-0.565281	9.64343	0.0976913	-1.10083	0.0760567	-0.0187392	0.0111906	-0.911377	0.423096	0.295166	0.470903	-0.544098	-0.550578	-0.423168	9.3734	-0.492436	-1.81009	0.0622067	-0.0168804	0.00974809	-1.00513	0.529541	0.143799	
1	0.928311	0.145624	0.183829	-0.288512	-4.00195	1.59249	10.441	-0.0165197	-0.00689878	0.148918	0.707764	0.0893555	-0.709717	0.65979	-0.355149	-0.510774	-0.421493	9.6711	-0.759199	2.16321	0.111514	-0.0680647	-0.00191878	-0.67749	0.278564	-0.36792	0.862493	0.181447	0.471088	0.0354705	-7.90087	3.07268	6.01996	-0.135349	0.0395497	0.112126	0.86377	-0.349121	-0.129883	0.353504	-0.392782	0.666075	-0.526404	-0.52521	-9.7407	-2.10956	0.0662563	-0.140727	-0.0260069	-0.114502	0.854248	0.511475	0.882139	0.0101936	0.296199	-0.366051	-5.0519	-1.957	7.8056	-0.0615578	-0.0597373	0.192228	0.735596	0.42041	-0.482666	0.725292	0.515071	0.285981	0.356186	-2.42759	9.12314	6.5572	-0.136309	0.168124	0.0729022	0.373535	-0.930664	0.145508	0.668133	-0.354961	-0.480573	-0.443452	9.8373	-0.967286	2.92613	0.113811	0.0565879	-0.0101648	-0.776611	0.42627	-0.402832	0.476866	-0.517977	-0.506907	-0.497336	9.89026	0.23129	-0.376829	0.0308059	0.028318	0.000183693	-0.976562	0.42041	0.010498	0.538657	-0.363205	-0.670699	-0.357901	9.70601	1.12187	-1.57647	-0.0619531	0.00635056	-0.0108927	-1.05249	0.249512	-0.0388184	0.338732	-0.64195	-0.391818	-0.565366	9.77184	0.260771	-1.51741	-0.053951	0.0193302	0.00712212	-0.916016	0.423096	0.297363	0.470386	-0.544841	-0.550363	-0.423067	9.90281	-0.16661	-2.09245	-0.0456749	0.00209293	0.00514273	-1.00537	0.533936	0.145996	
2	0.930087	0.144198	0.183041	-0.283973	-3.70414	1.17957	10.1848	-0.0872007	-0.00501947	0.187917	0.708008	0.0827637	-0.707275	0.660036	-0.354586	-0.512689	-0.419251	9.60312	-0.581314	2.47112	0.0718868	-0.026803	-0.000731391	-0.684326	0.280518	-0.36792	0.862582	0.180468	0.471086	0.0382306	-7.68445	3.3344	6.02871	-0.0481673	0.0455317	0.064525	0.861572	-0.348877	-0.145752	0.355477	-0.394647	0.66463	-0.525506	-0.629863	-9.66792	-2.04558	-0.0260093	-0.116297	-0.0105914	-0.121338	0.858643	0.50708	0.883983	0.00917607	0.294875	-0.362681	-4.98559	-1.70321	8.13132	-0.0301557	-0.0772905	0.0847761	0.733398	0.42041	-0.480469	0.724975	0.512372	0.287442	0.359533	-2.25165	9.17875	6.74646	-0.0612662	0.150643	0.0190877	0.369385	-0.935059	0.145752	0.670743	-0.35212	-0.479946	-0.442457	9.40186	-0.848617	2.97681	0.10397	0.0948426	0.0152281	-0.776367	0.424316	-0.411377	0.476879	-0.518878	-0.50577	-0.497542	9.5649	-0.0156769	-0.467198	-0.0410471	0.0293858	0.0246262	-0.98291	0.418213	0.0151367	0.538033	-0.364812	-0.669692	-0.359089	9.41436	0.858479	-1.67074	-0.0709355	0.0202823	0.00791578	-1.06177	0.251465	-0.0366211	0.33915	-0.642267	-0.391781	-0.564781	9.4691	-0.126987	-1.02509	0.056578	-0.0128204	0.028395	-0.913574	0.423096	0.299561	0.470676	-0.545067	-0.550465	-0.422319	9.49903	-0.516346	-1.82564	0.0666344	-0.0169811	0.0185114	-1.00537	0.533936	0.152832	
3	0.930833	0.143821	0.183173	-0.281624	-4.0976	1.26486	10.444	-0.0240091	0.0072384	0.0550319	0.705811	0.0827637	-0.709473	0.660105	-0.353599	-0.514272	-0.418036	9.65106	-0.483965	2.19852	0.0797091	-0.0627283	-0.0285304	-0.679688	0.278564	-0.365479	0.862829	0.178486	0.471153	0.0410317	-7.97403	3.47388	5.91328	-0.108859	0.0235009	0.0620466	0.865967	-0.355469	-0.136475	0.356259	-0.395327	0.664039	-0.525212	-0.536312	-9.49637	-2.1904	0.0138993	-0.0908784	-0.00930749	-0.114502	0.854248	0.50708	0.88486	0.00805836	0.294464	-0.360899	-4.86771	-2.13121	8.10212	-0.0234817	-0.0124571	0.0391639	0.738037	0.411621	-0.471191	0.724868	0.511247	0.288124	0.360801	-2.30177	9.34342	6.61211	-0.0605853	0.135934	0.0136037	0.363037	-0.937256	0.143555	0.67049	-0.351803	-0.481795	-0.44108	9.79111	-0.951437	2.61919	0.092962	-0.05371	-0.0314514	-0.776367	0.422119	-0.411377	0.476997	-0.518989	-0.505061	-0.498034	9.8979	0.0690282	-0.139554	-0.0219793	0.0339328	0.00156961	-0.97876	0.42041	0.010498	0.537899	-0.365677	-0.669204	-0.35932	9.76246	1.07468	-1.3617	-0.0309877	0.00525038	0.00597311	-1.05957	0.251709	-0.0432129	0.339357	-0.642563	-0.392077	-0.564114	9.79095	0.601697	-1.28085	-0.0298695	-0.00591181	0.00960095	-0.92041	0.423096	0.299561	0.470877	-0.545069	-0.550815	-0.421636	9.83943	0.00188644	-1.95139	0.0526326	-0.0251051	0.0136774	-1.00537	0.536133	0.150391	
4	0.930981	0.143682	0.183117	-0.281244	-4.183	1.1896	10.4512	-0.00160145	0.00132711	0.0260561	0.710205	0.0827637	-0.707275	0.659648	-0.353658	-0.515747	-0.416888	9.94218	-0.515271	2.32722	0.0755443	-0.117452	-0.0134381	-0.681885	0.276367	-0.358398	0.863307	0.177471	0.470566	0.0420963	-7.87171	3.3638	5.89271	-0.0988388	-0.0238308	0.0476279	0.86377	-0.351318	-0.138916	0.357612	-0.396084	0.662839	-0.52524	-0.586502	-9.67781	-2.26939	0.0476745	-0.0565218	-0.00663449	-0.112549	0.856445	0.504883	0.885169	0.00873854	0.294163	-0.360371	-4.94293	-1.82519	8.2513	0.0462768	-0.00384562	0.0466382	0.733398	0.416016	-0.478027	0.724781	0.510046	0.288268	0.362557	-2.51632	9.29242	6.64826	-0.0296996	0.0423767	0.0177134	0.367188	-0.937256	0.143555	0.671248	-0.350594	-0.481934	-0.440738	9.96114	-0.884951	2.85431	0.116043	0.0701411	-0.0226334	-0.773926	0.415527	-0.411133	0.476918	-0.51937	-0.504687	-0.498092	9.83117	-0.172973	-0.35203	-0.032272	0.0179802	0.00858757	-0.97876	0.422607	0.00805664	0.537625	-0.366362	-0.668792	-0.359798	9.64527	0.913459	-1.58178	-0.0715593	0.00572156	0.000341241	-1.05713	0.253906	-0.0366211	0.337943	-0.643347	-0.390954	-0.564849	9.80067	-0.00545191	-1.49127	-0.167519	0.00312972	0.00191559	-0.908936	0.418701	0.302002	0.468402	-0.54734	-0.549044	-0.423757	9.8986	-0.821315	-1.84944	-0.234371	0.0126249	0.00645273	-1.00977	0.531738	0.155029	
5	0.931413	0.143575	0.181699	-0.280788	-4.03053	1.54101	10.3586	0.0103107	-0.0718474	0.0263306	0.708252	0.0805664	-0.709473	0.659	-0.354026	-0.516834	-0.416253	9.7663	-0.201066	2.20979	-0.00780046	-0.0394229	-0.0265899	-0.681885	0.276367	-0.36792	0.863877	0.177211	0.469555	0.0427811	-7.83752	3.41885	5.84335	-0.00313525	-0.0242034	0.0234796	0.868164	-0.357666	-0.143311	0.35833	-0.395702	0.662614	-0.525321	-0.716375	-9.52966	-2.19477	0.0305893	0.0173488	0.0315283	-0.112549	0.858643	0.50708	0.885536	0.00836678	0.29403	-0.359588	-5.13803	-1.87784	8.03461	-0.00425597	-0.0136757	-0.00327975	0.735596	0.416016	-0.478027	0.725309	0.509133	0.288178	0.362855	-2.47074	9.06532	6.57224	-0.0260878	0.0138829	-0.0217724	0.369385	-0.935059	0.143555	0.671456	-0.350232	-0.482529	-0.440056	9.65412	-0.506607	2.77341	0.0274288	-0.0358068	-0.0116788	-0.776123	0.417725	-0.406982	0.477404	-0.519398	-0.504797	-0.497485	9.76677	-0.390679	-0.43312	0.0559123	0.0195042	0.00523371	-0.976807	0.422607	0.00585938	0.537818	-0.366661	-0.668563	-0.359631	9.59619	0.325585	-1.69314	0.0741386	0.0222782	-0.0031181	-1.05957	0.251709	-0.0432129	0.33779	-0.64378	-0.390159	-0.564997	9.5312	-0.358731	-1.18379	0.0261807	0.00968342	0.0337243	-0.918213	0.425293	0.299561	0.469246	-0.547325	-0.548932	-0.422986	9.59048	-0.503212	-1.85075	0.0961349	0.00634951	0.0318914	-1.00317	0.536377	0.152832	
6	0.931949	0.142491	0.17962	-0.280898	-3.81616	1.21118	10.2809	-0.000183697	-0.0916248	-0.0128303	0.706055	0.0805664	-0.71167	0.65787	-0.354617	-0.51781	-0.416325	9.52872	-0.697606	2.07615	-0.0192907	-0.0572284	-0.0437494	-0.686279	0.276367	-0.365479	0.864854	0.177359	0.467807	0.0415779	-7.71021	3.41631	6.01341	0.0429551	-0.0755242	-0.0371287	0.859619	-0.353271	-0.138916	0.358208	-0.394311	0.66299	-0.525975	-0.70807	-9.49553	-2.08693	0.00998087	0.06309	0.0332283	-0.112549	0.86084	0.504883	0.885809	0.00831243	0.293109	-0.359668	-5.16386	-1.8718	7.95166	0.0354191	-0.0339257	-0.0152008	0.733643	0.413818	-0.480469	0.725816	0.50892	0.287751	0.362479	-2.30231	9.11641	6.57905	-0.0111283	-0.0210656	-0.0233497	0.366943	-0.930664	0.143555	0.670023	-0.351396	-0.483207	-0.440569	9.56694	-0.846755	2.72868	-0.043169	-0.0509502	-0.0343677	-0.778564	0.424316	-0.40918	0.477998	-0.519257	-0.505038	-0.496817	9.76329	-0.00641382	-0.365881	0.0158376	0.00602909	-0.00666104	-0.976807	0.422607	0.010498	0.538695	-0.365915	-0.668846	-0.358551	9.54081	1.10375	-1.62482	0.0304445	0.0210999	-0.0139507	-1.05908	0.244873	-0.0432129	0.338824	-0.643648	-0.390747	-0.564121	9.70394	0.0475977	-1.27996	0.0553159	-0.00109219	0.0138659	-0.918213	0.425293	0.304199	0.469956	-0.547159	-0.549039	-0.422273	9.77384	-0.280158	-2.02887	0.0223992	0.01142	0.0085305	-1.00537	0.536133	0.145996	
7	0.932001	0.142173	0.177842	-0.282016	-3.68356	1.56394	10.2904	0.0270122	-0.0636541	-0.0355585	0.699463	0.0805664	-0.716064	0.656257	-0.355827	-0.519394	-0.415864	9.81801	-0.771708	2.11293	-0.0309969	-0.0786266	-0.0246441	-0.69043	0.276367	-0.351318	0.866535	0.176192	0.465279	0.0398706	-7.72938	3.26753	6.25813	-0.0234705	-0.115814	-0.0742216	0.861572	-0.34668	-0.152832	0.357798	-0.392567	0.66272	-0.527895	-0.697003	-9.57589	-1.93633	0.0950374	0.0840887	-0.00475381	-0.112549	0.858643	0.502686	0.885681	0.00842906	0.291768	-0.361068	-5.06939	-1.67002	7.9361	0.00657943	-0.0431771	-0.0733024	0.735596	0.418213	-0.484863	0.727176	0.508126	0.28699	0.361469	-2.14509	9.03835	6.67907	-0.0508535	-0.0406323	-0.0621758	0.367188	-0.935059	0.13501	0.670353	-0.350856	-0.483242	-0.44046	9.69045	-1.14503	2.90515	0.0411346	0.0488361	-0.0153862	-0.77417	0.419922	-0.40918	0.478573	-0.518662	-0.505485	-0.49643	9.8461	-0.250466	-0.189087	0.0558248	0.0298384	-0.0194527	-0.980713	0.418213	0.0129395	0.539162	-0.365396	-0.669053	-0.357992	9.63062	0.860985	-1.41188	0.0398894	0.0172847	-0.0177025	-1.06152	0.24707	-0.0388184	0.339582	-0.643158	-0.391314	-0.56383	9.7098	-0.387302	-1.11235	0.0510101	0.0325707	-0.00106657	-0.911621	0.425293	0.306396	0.470316	-0.546956	-0.549205	-0.421919	9.66868	-1.02128	-1.73342	0.0618238	0.00529998	0.000779867	-1.01221	0.536133	0.148193	
8	0.93223	0.140831	0.17619	-0.28297	-3.79652	1.68272	10.1459	-0.0273036	-0.0777274	-0.0384312	0.701416	0.0849609	-0.716064	0.654871	-0.357206	-0.520045	-0.416053	9.56363	-0.459049	1.8497	-0.0693143	-0.067229	-0.0359888	-0.692627	0.27417	-0.348877	0.867507	0.17503	0.464103	0.0374802	-7.59977	3.33593	6.4522	0.024876	-0.0366006	-0.0951105	0.861328	-0.340332	-0.152832	0.356549	-0.391605	0.662118	-0.530205	-0.709314	-9.66219	-1.87064	0.0522031	0.0842605	-0.051296	-0.115234	0.867432	0.49585	0.884508	0.00888624	0.29058	-0.36487	-4.7099	-1.93715	8.27048	0.0973896	0.000329818	-0.185776	0.729004	0.416016	-0.489502	0.728803	0.507863	0.285929	0.359397	-2.45239	8.98425	6.76003	-0.0267872	-0.0830536	-0.0703108	0.371582	-0.937012	0.143555	0.670729	-0.350533	-0.482834	-0.44059	9.76416	-0.734191	2.80906	0.0247707	0.0470548	-0.0143198	-0.77417	0.419922	-0.417725	0.480397	-0.516918	-0.506787	-0.495158	9.77934	-0.206482	-0.225342	0.157796	0.0464113	-0.0216384	-0.976807	0.424805	0.00805664	0.540606	-0.363552	-0.669749	-0.356386	9.60526	0.780721	-1.61186	0.154456	0.0404982	-0.0271733	-1.05493	0.253906	-0.0432129	0.341116	-0.642175	-0.392213	-0.563401	9.73088	0.0514913	-1.2891	0.0683994	0.0412498	0.00595888	-0.913818	0.42749	0.294922	0.471389	-0.546131	-0.550259	-0.420414	9.80646	-0.317804	-1.97184	0.0523778	-0.0044522	0.0022866	-1.00122	0.545166	0.147949	
9	0.932295	0.138573	0.174712	-0.284779	-3.70844	1.47914	10.4977	-0.0358947	-0.104665	-0.105525	0.690186	0.0891113	-0.724854	0.652125	-0.360324	-0.520949	-0.416547	9.73593	-0.56333	1.9636	-0.140986	-0.0948485	-0.0174681	-0.697266	0.282959	-0.346924	0.867941	0.173273	0.464121	0.035308	-7.7983	3.35878	6.28894	-0.0192725	-0.0093306	-0.115096	0.861572	-0.344727	-0.150635	0.35424	-0.391372	0.66141	-0.532802	-0.812465	-9.57913	-1.938	0.049484	0.111614	-0.0984519	-0.123779	0.86084	0.489502	0.882938	0.00925773	0.290728	-0.368526	-4.90716	-1.75868	7.95166	0.0221725	0.0478238	-0.148661	0.726807	0.42041	-0.484863	0.73013	0.508936	0.284471	0.356331	-2.48362	9.01091	6.70319	0.0266302	-0.126126	-0.0813757	0.373779	-0.937256	0.13501	0.672406	-0.348977	-0.480705	-0.441597	9.48915	-0.997825	2.81721	-0.0759879	0.150734	-0.0187973	-0.771973	0.422119	-0.413574	0.482185	-0.515234	-0.507794	-0.494142	9.94435	0.0212243	-0.0971345	0.0973266	0.0462623	-0.00988855	-0.980957	0.422607	-0.0012207	0.542556	-0.361338	-0.670471	-0.354312	9.6173	1.11686	-1.29375	0.128185	0.0391488	-0.0108628	-1.05713	0.25415	-0.0500488	0.34152	-0.641673	-0.392442	-0.563569	9.628	0.105692	-1.1989	-0.0182843	0.0223404	-0.0011649	-0.913574	0.423096	0.297363	0.471118	-0.546304	-0.550346	-0.420379	9.72548	-0.314701	-1.90447	-0.0461668	-0.00139885	-0.00456893	-1.00537	0.538574	0.157227	
10	0.932235	0.136975	0.173698	-0.286365	-3.42448	1.56473	10.5092	-0.0590215	-0.121013	-0.135081	0.69458	0.0913086	-0.722656	0.651614	-0.36261	-0.519503	-0.417169	9.87459	-0.481171	2.43916	-0.130165	-0.0118906	0.0325119	-0.690674	0.280762	-0.342041	0.868944	0.170762	0.463475	0.0310943	-7.58727	3.03877	6.10024	0.0120843	-0.0637344	-0.207807	0.867676	-0.331787	-0.153076	0.351029	-0.390634	0.660458	-0.536636	-0.58121	-9.63633	-1.80703	0.109061	0.172749	-0.12022	-0.132812	0.865234	0.489258	0.881361	0.00881506	0.290286	-0.372637	-4.95825	-1.55253	7.93514	0.0348299	-0.0204681	-0.202935	0.721924	0.433594	-0.482666	0.731989	0.509327	0.283579	0.352648	-2.16923	8.98041	6.90379	-0.00360189	-0.11402	-0.137101	0.390869	-0.932861	0.132812	0.672705	-0.35002	-0.478341	-0.44288	9.63693	-0.764537	2.87383	-0.0390165	0.0768631	0.0132171	-0.77417	0.422119	-0.413574	0.483693	-0.513961	-0.508235	-0.493541	9.58255	-0.210489	-0.392985	0.0722786	0.0510097	-0.0151977	-0.974609	0.424805	-0.0012207	0.542302	-0.361107	-0.671363	-0.353246	9.4605	0.68835	-1.69851	0.0478561	-0.0453026	-0.0205483	-1.05469	0.249512	-0.0476074	0.340997	-0.642019	-0.391469	-0.564167	9.54983	0.0215611	-1.23754	-0.0530204	0.034815	0.0166184	-0.911377	0.423096	0.295166	0.470382	-0.547103	-0.549751	-0.420944	9.54298	-0.530826	-1.95561	-0.0274214	-0.000791047	0.00591441	-1.00562	0.540771	0.148193	
11	0.931796	0.132956	0.172456	-0.290411	-3.41017	1.21363	10.4778	-0.0173608	-0.0590597	-0.143708	0.687256	0.102295	-0.727051	0.650777	-0.364973	-0.517926	-0.418374	9.72513	-0.565435	1.92554	-0.111158	-0.0101155	-0.00165286	-0.695312	0.287354	-0.342285	0.86944	0.17001	0.463008	0.0281793	-7.62213	2.93333	6.11755	0.0665669	-0.0721007	-0.22046	0.865479	-0.32959	-0.155518	0.349383	-0.389775	0.659865	-0.53906	-0.450118	-9.50586	-1.71017	0.126308	0.189295	-0.10965	-0.137207	0.863037	0.487061	0.880471	0.00763782	0.290277	-0.374769	-5.16344	-1.70844	8.10003	-0.0292903	-0.00986377	-0.214427	0.717773	0.424805	-0.487305	0.733232	0.509024	0.28332	0.350707	-2.27834	9.06567	6.77521	-0.0225392	-0.103451	-0.151801	0.390869	-0.932861	0.132812	0.672949	-0.35064	-0.476807	-0.443674	9.61298	-0.904545	3.00636	-0.0658359	0.0589583	-0.0105895	-0.770264	0.428711	-0.422119	0.484398	-0.51326	-0.50881	-0.492985	9.64048	-0.165137	-0.493169	0.104364	0.0308896	-0.0201502	-0.981201	0.427002	0.000976562	0.542421	-0.360517	-0.67201	-0.352434	9.57512	0.666829	-1.76636	0.0946207	-0.019799	-0.0316169	-1.05688	0.24707	-0.0454102	0.340905	-0.642034	-0.391221	-0.564378	9.52416	-0.00908525	-1.35564	-0.0226117	0.02872	0.00652607	-0.915771	0.423096	0.299561	0.470158	-0.54745	-0.549594	-0.420947	9.53378	-0.3357	-2.13599	-0.026931	-0.00706694	0.0106868	-1.00781	0.53833	0.150391	
12	0.931377	0.131982	0.172685	-0.292057	-3.41172	1.35586	10.4894	-0.0365779	-0.0107357	-0.153104	0.689697	0.100098	-0.7229	0.650224	-0.366196	-0.51747	-0.418728	9.92567	-0.553253	2.41276	-0.114712	-0.0160457	0.00747075	-0.697754	0.291748	-0.342529	0.870545	0.168564	0.461776	0.0223635	-7.64561	2.96454	6.38887	0.0557977	-0.100483	-0.209848	0.865234	-0.316406	-0.155762	0.34565	-0.387673	0.659205	-0.543769	-0.31178	-9.79982	-1.75325	0.128226	0.219572	-0.0919623	-0.146484	0.871582	0.482666	0.878749	0.00670433	0.289296	-0.379557	-4.95067	-2.19022	8.30546	0.0717206	-0.0221739	-0.213393	0.710693	0.437988	-0.489502	0.735716	0.508312	0.282325	0.347323	-2.81655	9.18121	6.90783	-0.0342577	-0.112851	-0.121965	0.39502	-0.932861	0.130615	0.672702	-0.35219	-0.475133	-0.444616	9.69613	-0.920279	2.93019	-0.0788037	0.0240435	0.0167883	-0.772217	0.428711	-0.415771	0.484995	-0.512756	-0.509403	-0.49231	9.82472	0.126929	-0.379399	0.0139742	0.0155346	-0.0186434	-0.976562	0.42041	-0.0012207	0.542362	-0.360143	-0.672591	-0.351799	9.64994	0.946672	-1.64605	5.18952e-05	-0.00571482	-0.0259171	-1.05713	0.249512	-0.0410156	0.341271	-0.64175	-0.391572	-0.564237	9.77416	0.0373086	-1.4252	0.0405899	0.0135985	-0.00204423	-0.911377	0.423096	0.297363	0.470387	-0.547299	-0.550032	-0.420316	9.78565	-0.436547	-2.12191	0.0469679	0.00108433	-0.00366201	-1.00562	0.545166	0.152588	
13	0.930007	0.130168	0.173146	-0.296924	-3.72123	1.6549	10.5271	-0.0171564	-0.0112927	-0.131091	0.688965	0.113037	-0.727295	0.649736	-0.368933	-0.515209	-0.41987	9.96613	-0.615623	2.0069	-0.0938156	-0.00989587	0.00743423	-0.687012	0.296143	-0.335693	0.871913	0.166844	0.460076	0.0161539	-7.64512	2.76633	6.67461	0.0375851	-0.045951	-0.121352	0.863037	-0.312012	-0.158203	0.340504	-0.385182	0.659296	-0.548654	-0.22989	-10.0448	-1.4887	0.00352371	0.160077	-0.062352	-0.157471	0.867188	0.478271	0.876254	0.00691423	0.289495	-0.385129	-5.18187	-2.22562	8.33115	0.0592846	0.0553291	-0.148004	0.708252	0.446777	-0.491943	0.737368	0.508523	0.281094	0.344498	-2.9323	9.29944	6.95595	0.0161892	-0.102582	-0.0740576	0.392822	-0.928467	0.126221	0.672266	-0.3537	-0.47493	-0.444293	9.93426	-0.778075	2.89437	-0.0210508	-0.0368315	0.00889524	-0.770264	0.428711	-0.411377	0.48437	-0.513353	-0.508806	-0.492922	9.84417	-0.16543	-0.202241	-0.0118887	0.0338898	-0.00982966	-0.976807	0.424805	0.000976562	0.542169	-0.360101	-0.67251	-0.352294	9.58102	0.837004	-1.59334	-0.0168722	0.0061302	-0.0228935	-1.05957	0.251709	-0.0432129	0.341571	-0.641696	-0.391256	-0.564335	9.70795	-0.0169756	-1.20487	-0.0374109	0.0341179	0.0194904	-0.916016	0.42749	0.292725	0.470922	-0.546885	-0.550145	-0.420107	9.79917	-0.424361	-1.9149	-0.00143229	0.0279044	-0.000698152	-1.00562	0.545166	0.147949	
14	0.92984	0.129079	0.173518	-0.297705	-3.76462	1.35069	10.3823	-0.0635905	0.00175777	-0.0861515	0.693359	0.115234	-0.725098	0.649083	-0.37004	-0.515084	-0.42006	9.79256	-0.582132	2.05559	-0.093709	-0.0382057	-0.00208031	-0.691406	0.296143	-0.335693	0.871854	0.166707	0.460291	0.0145131	-7.53913	2.56843	6.6152	0.0709231	0.0120007	-0.121051	0.871338	-0.303467	-0.165283	0.338892	-0.38493	0.659946	-0.549046	-0.225634	-9.89567	-1.54244	-0.0491752	0.132692	-0.0457528	-0.157471	0.869385	0.482666	0.87541	0.00688809	0.290396	-0.386368	-4.84069	-2.20057	8.09713	0.000506679	0.090573	-0.125281	0.710205	0.451172	-0.485107	0.737375	0.510485	0.280813	0.341799	-2.83858	9.17842	6.88707	0.116063	-0.0718367	-0.0619866	0.401123	-0.924072	0.128174	0.670962	-0.355754	-0.475152	-0.444387	9.41081	-0.953845	2.9302	-0.059454	-0.0595039	-0.00559233	-0.772461	0.430664	-0.415771	0.484361	-0.513478	-0.50859	-0.493022	9.65091	-0.114722	-0.290424	-0.0145318	0.0271605	-0.00758377	-0.97876	0.42041	-0.0012207	0.542043	-0.360223	-0.672514	-0.352355	9.54673	0.729215	-1.69522	-0.00804383	0.000342677	-0.0198012	-1.05688	0.24707	-0.0454102	0.341521	-0.641779	-0.390905	-0.564514	9.54523	-0.00435787	-1.22223	-0.0262085	0.0279748	0.0166152	-0.911377	0.423096	0.290527	0.471271	-0.546836	-0.549805	-0.420223	9.57279	-0.45238	-2.03911	0.0221598	0.0201839	0.00725098	-0.998779	0.540771	0.150391	
15	0.929463	0.128119	0.174366	-0.298798	-3.6114	1.06129	10.4187	-0.00291213	0.0243772	-0.0627578	0.691162	0.115234	-0.729492	0.648406	-0.37175	-0.514602	-0.420186	9.57356	-0.86774	1.92418	-0.0542114	-0.0208757	0.00989181	-0.688965	0.293945	-0.330811	0.871386	0.166938	0.461168	0.0119303	-7.70565	2.79134	6.47543	0.0460349	0.0333561	-0.0774797	0.873535	-0.301514	-0.154053	0.336397	-0.384597	0.661548	-0.548887	-0.112277	-9.56843	-1.68098	-0.0721617	0.0962395	-0.0184174	-0.155273	0.867188	0.478271	0.873921	0.00595906	0.29301	-0.387779	-5.23218	-2.22033	7.69581	-0.0572326	0.0818013	-0.0958317	0.708252	0.446777	-0.482666	0.736443	0.512887	0.282169	0.339086	-2.60244	8.95007	6.42193	0.137711	-0.0149236	-0.0828934	0.40332	-0.921875	0.134521	0.670275	-0.356833	-0.475438	-0.444253	9.42446	-1.26727	2.91482	-0.0512044	-0.0686027	-0.00161066	-0.770264	0.432861	-0.405273	0.484318	-0.513743	-0.508277	-0.49311	9.88432	-0.00246114	-0.211524	-0.00705831	0.0278143	-0.0136228	-0.974609	0.420654	-0.00830078	0.542254	-0.360054	-0.672459	-0.352307	9.6153	1.06215	-1.55374	-0.0165467	0.0143111	-0.0237426	-1.06641	0.249268	-0.0478516	0.341472	-0.641823	-0.390652	-0.564669	9.84651	0.0181413	-1.26989	-0.00430872	0.0238295	0.0040476	-0.918457	0.431885	0.294922	0.471427	-0.546868	-0.549398	-0.42054	9.80798	-0.397921	-1.9847	-0.0174	0.0286539	0.000420554	-1.00537	0.538574	0.155029	
16	0.929143	0.127951	0.175165	-0.299398	-3.77139	1.43981	10.3964	-0.00713581	0.0344233	-0.0174053	0.693115	0.119629	-0.7229	0.647611	-0.373332	-0.515321	-0.419127	9.85117	-0.775809	2.02209	-0.0240625	-0.056233	0.0130083	-0.689209	0.300537	-0.328613	0.871622	0.165245	0.461358	0.0108909	-7.57365	2.52673	6.40199	-0.0160383	0.016704	-0.0632541	0.873535	-0.299316	-0.158691	0.335218	-0.384724	0.661053	-0.550114	-0.164589	-9.46185	-1.75408	0.0531031	0.0347047	-0.0644793	-0.166504	0.869385	0.480469	0.873149	0.00567082	0.292937	-0.389573	-5.28882	-2.40345	7.87701	0.0261151	-0.0100053	-0.0836194	0.708008	0.453369	-0.482666	0.736648	0.513206	0.282941	0.337513	-2.69048	8.96724	6.38187	0.0123124	-0.00276709	-0.0621217	0.407715	-0.924072	0.132568	0.670359	-0.357238	-0.475852	-0.443356	9.81607	-1.0479	2.94395	0.0433111	0.00409576	0.00746881	-0.768311	0.437256	-0.407471	0.483847	-0.514279	-0.507623	-0.493689	9.77383	-0.0440112	-0.269857	-0.0402604	0.0269978	-0.00571177	-0.976807	0.422607	-0.0012207	0.5417	-0.360855	-0.672024	-0.353169	9.56316	0.923213	-1.53	-0.0594805	0.0033312	-0.0154889	-1.05249	0.251709	-0.0410156	0.341216	-0.641753	-0.390383	-0.565089	9.61935	0.0483904	-1.22498	-0.0231635	0.0258424	-0.00835471	-0.911621	0.425293	0.292725	0.471596	-0.54668	-0.54929	-0.420736	9.66904	-0.430744	-2.05234	0.0138041	0.0203704	-0.007577	-1.00757	0.536133	0.148193	
17	0.92937	0.126974	0.175402	-0.298972	-3.73861	1.28848	10.4291	-0.0297397	0.00748817	-0.00137214	0.688721	0.117432	-0.720703	0.647274	-0.373808	-0.515944	-0.418456	9.68076	-0.708694	2.01489	0.00633108	-0.0541919	-0.00844705	-0.693604	0.29834	-0.326172	0.871699	0.163904	0.4617	0.0104881	-7.74055	2.64501	6.25415	-0.0401047	0.0198183	-0.0290191	0.871338	-0.301514	-0.151611	0.334392	-0.385304	0.660214	-0.551217	0.113949	-9.65071	-1.65997	0.00901419	0.0213501	-0.0479252	-0.163818	0.862793	0.473877	0.872945	0.00534791	0.292425	-0.390418	-5.19661	-2.23812	7.98598	-0.00637427	0.00610718	-0.0265276	0.707764	0.455566	-0.485107	0.73685	0.512728	0.283394	0.337418	-2.84442	9.29565	6.62797	0.00300133	0.0375955	-0.0260935	0.401123	-0.924072	0.136719	0.670092	-0.357651	-0.476834	-0.442371	9.5805	-0.813895	2.78651	0.0118873	-0.053511	-0.00556492	-0.776855	0.432861	-0.407227	0.4834	-0.515258	-0.506237	-0.494528	9.81724	-0.0699225	-0.108618	-0.0743523	0.0336616	0.00787137	-0.979004	0.422607	-0.00366211	0.541146	-0.361782	-0.671619	-0.353839	9.64627	0.937957	-1.53315	-0.0201851	-0.000406746	-0.0106792	-1.05469	0.24707	-0.0432129	0.341096	-0.641679	-0.390529	-0.565145	9.63606	0.221071	-1.09209	0.000859335	0.0130773	-0.0136665	-0.91626	0.429688	0.299561	0.469758	-0.547925	-0.547841	-0.423055	9.86167	0.430381	-2.14711	-0.246574	0.0301066	-0.0263897	-1.00317	0.538574	0.148193	
18	0.929528	0.125879	0.175976	-0.298604	-3.95445	1.06035	10.4837	-0.0380152	0.00449156	0.00347481	0.692871	0.121826	-0.71875	0.647022	-0.374464	-0.51629	-0.417833	9.79783	-0.684663	2.09958	-0.0299509	-0.0289441	0.00860971	-0.693604	0.300537	-0.326416	0.872091	0.162703	0.461364	0.0113013	-7.71126	2.65802	6.2548	-0.0377858	0.00695528	0.0154061	0.869141	-0.297119	-0.156494	0.334272	-0.385481	0.660632	-0.550665	0.0221911	-9.6195	-1.71519	-0.0332107	-0.00166771	0.0197407	-0.164062	0.86499	0.476074	0.873514	0.00420025	0.292171	-0.389348	-5.0676	-2.3806	8.07446	-0.00813933	-0.0285161	0.0266739	0.708008	0.451172	-0.482666	0.73636	0.512211	0.285257	0.337701	-2.83862	9.0733	6.62999	0.0400627	0.0847526	-0.0381537	0.407471	-0.919678	0.138672	0.670052	-0.357714	-0.477377	-0.441794	9.6886	-1.01478	2.95846	0.0350424	0.00341615	-0.00890937	-0.774902	0.437256	-0.403076	0.481952	-0.517522	-0.504598	-0.495251	9.74882	0.100511	-0.231221	-0.142767	-0.0254512	0.026187	-0.979248	0.431396	0.000976562	0.540209	-0.363519	-0.670943	-0.354772	9.59126	0.821201	-1.61518	-0.0963102	-0.0175579	0.0101965	-1.05957	0.256104	-0.0410156	0.335441	-0.643469	-0.386566	-0.569204	9.68427	-0.301618	-1.29569	-0.291864	0.0388556	-0.0453865	-0.918213	0.423096	0.304199	0.46563	-0.550917	-0.544369	-0.428184	9.81601	-1.10822	-1.66572	-0.304418	0.0524506	-0.0286526	-1.00513	0.531738	0.161865	
19	0.929786	0.125772	0.175638	-0.298046	-3.90265	0.945269	10.543	0.0170877	-0.00832738	0.0193278	0.690918	0.117432	-0.71875	0.646168	-0.375969	-0.516544	-0.417489	10.0168	-0.539573	1.9365	-0.0430469	-0.0291888	-0.00490215	-0.695801	0.29834	-0.319092	0.872088	0.16259	0.461398	0.0117843	-7.8747	2.63738	6.16942	-0.00734268	0.0259562	0.0313459	0.875732	-0.297119	-0.154053	0.334286	-0.385576	0.661148	-0.54997	-0.201464	-9.69173	-2.09674	0.00877028	0.00562432	0.00886733	-0.168701	0.869385	0.480469	0.874005	0.0040252	0.291767	-0.388551	-5.05423	-2.32289	8.3355	-0.00617796	-0.0111397	0.0124722	0.708008	0.451172	-0.485107	0.735839	0.512165	0.286292	0.338031	-2.83465	9.12193	6.39831	-0.00209228	0.0319552	-0.00549149	0.401123	-0.924072	0.134521	0.66889	-0.35921	-0.478377	-0.44126	9.83576	-0.747851	2.7454	-0.0254123	-0.101682	-0.0151756	-0.770264	0.432861	-0.400879	0.479447	-0.5203	-0.502996	-0.496401	9.92595	-0.284269	-0.401411	-0.142556	-0.0280109	-0.0133086	-0.983643	0.431152	0.0126953	0.539752	-0.364805	-0.670235	-0.355487	9.67199	0.760548	-1.56458	-0.0309982	0.0154354	-0.00094403	-1.05713	0.251709	-0.0388184	0.3345	-0.643775	-0.385867	-0.569886	9.75104	-0.440206	-0.885574	0.0331019	0.00500114	0.0101982	-0.915771	0.418701	0.302002	0.466495	-0.550034	-0.544358	-0.428392	9.69008	-1.11004	-1.65093	0.0318314	0.0431993	-0.00976536	-1.00757	0.536133	0.150391	
20	0.929809	0.126017	0.175255	-0.298096	-3.88042	0.864397	10.4699	0.0403867	-0.0186074	-0.0029005	0.688721	0.119629	-0.729492	0.645847	-0.3761	-0.516735	-0.41763	9.83967	-0.732674	1.96178	-0.0208471	-0.00947707	-0.0379007	-0.698242	0.304932	-0.326416	0.872007	0.163057	0.461356	0.0129334	-7.90784	2.93428	6.1483	0.00441629	0.0154363	0.0505202	0.869385	-0.303467	-0.15625	0.33454	-0.385409	0.660748	-0.550413	-0.236483	-9.53959	-2.08085	0.0537857	0.00347243	-0.00140714	-0.159668	0.86499	0.476074	0.874127	0.00474889	0.291368	-0.388567	-5.12306	-2.29588	8.29082	0.0640925	-0.000422341	0.00614843	0.705566	0.455566	-0.489502	0.736043	0.512001	0.285771	0.338277	-2.77497	9.22075	6.4702	-0.026665	-0.0120481	0.0144886	0.405518	-0.921875	0.138916	0.667899	-0.359886	-0.479796	-0.440669	9.88368	-1.02133	2.6618	0.0196711	-0.139315	-0.0357643	-0.776855	0.435059	-0.396729	0.478384	-0.521087	-0.502555	-0.497047	9.86284	-0.186144	-0.113039	-0.114757	-0.0103383	-0.0341761	-0.970459	0.427002	0.0148926	0.539778	-0.364958	-0.670133	-0.355481	9.63582	0.993536	-1.51027	-0.0044622	0.0101747	-0.00757101	-1.05957	0.256348	-0.0456543	0.334991	-0.643468	-0.386481	-0.569528	9.90414	0.167835	-1.04864	0.0726447	0.00910831	-0.00618704	-0.917725	0.414307	0.299805	0.466768	-0.549601	-0.544721	-0.428188	9.87958	-0.029745	-1.79855	0.0505459	0.0124895	-0.0214964	-1.00488	0.527344	0.155029	
21	0.929794	0.126663	0.173909	-0.298657	-3.75026	1.23584	10.305	0.0512708	-0.0401774	-0.0173097	0.686523	0.119629	-0.7229	0.644731	-0.376177	-0.517908	-0.417833	9.6344	-1.09399	1.79234	-0.00904005	-0.0469375	-0.0610077	-0.700195	0.302734	-0.316895	0.872836	0.163021	0.459816	0.0122734	-7.85169	2.82905	6.06931	0.0254832	-0.0713975	-0.0276018	0.873535	-0.301514	-0.158447	0.334851	-0.384343	0.660654	-0.551082	-0.16317	-9.53912	-1.82497	0.0311309	0.0423152	0.0323685	-0.164062	0.86499	0.473877	0.874008	0.00634327	0.290702	-0.389309	-4.98435	-2.01258	8.07696	0.0798576	0.0242353	-0.0285298	0.706055	0.448975	-0.485107	0.736248	0.512635	0.28439	0.338033	-2.62533	9.06673	6.71942	0.0237887	-0.0540158	0.0130319	0.405518	-0.92627	0.136719	0.667104	-0.359574	-0.48107	-0.440739	9.51876	-1.3574	2.8784	0.0271436	0.0143749	-0.0591482	-0.778809	0.430664	-0.396729	0.477167	-0.521648	-0.502698	-0.497484	9.71858	-0.309866	-0.331699	0.0203246	-0.0110685	-0.0386253	-0.972168	0.42041	0.0151367	0.539594	-0.365307	-0.669867	-0.355903	9.59579	0.711048	-1.50921	-0.0141003	0.010843	-0.0213073	-1.06201	0.256104	-0.0388184	0.334287	-0.643009	-0.386944	-0.570146	9.60588	0.0683231	-1.17254	-0.0553667	0.0260501	-0.0454939	-0.920166	0.416504	0.297607	0.465738	-0.549707	-0.544459	-0.429505	9.68465	-0.525899	-1.82595	-0.0903406	0.0244685	-0.0369565	-1.00757	0.533936	0.157227	
22	0.92999	0.126337	0.172986	-0.29872	-3.74436	1.09738	10.2906	0.00719805	-0.0385168	-0.0035159	0.68457	0.115234	-0.725098	0.643935	-0.37569	-0.518837	-0.418345	9.58562	-0.64806	1.91485	0.00293023	-0.0114857	-0.0701703	-0.699951	0.293945	-0.321289	0.873848	0.162841	0.457996	0.0105639	-7.65793	2.54848	6.19296	0.0401229	-0.0679757	-0.0468472	0.877686	-0.299316	-0.158691	0.334578	-0.382576	0.661276	-0.551731	-0.0125597	-9.53643	-1.72547	0.0338423	0.0746691	0.0457675	-0.164307	0.871582	0.47168	0.873195	0.00731188	0.291499	-0.390519	-4.89939	-2.16765	7.85973	0.0363395	0.0558507	-0.0503565	0.706055	0.448975	-0.485107	0.736556	0.513322	0.283187	0.33733	-2.69137	8.94451	6.44673	0.0100926	-0.0510927	-0.0124832	0.405273	-0.921875	0.130371	0.666206	-0.359398	-0.482428	-0.440757	9.53472	-0.758413	2.72927	0.0194423	-0.0619372	-0.0519705	-0.776611	0.428467	-0.394531	0.47735	-0.521042	-0.504308	-0.496312	9.82496	-0.190731	-0.301277	0.0788623	-0.0106287	-0.0351619	-0.976807	0.426758	0.0219727	0.540169	-0.364471	-0.670205	-0.355252	9.59174	0.705034	-1.4795	0.0686093	0.0218342	-0.0277244	-1.05688	0.244873	-0.0432129	0.333615	-0.642746	-0.387216	-0.57065	9.60309	-0.493084	-1.2429	0.00964454	0.0171948	-0.0223579	-0.917725	0.414307	0.299805	0.465826	-0.549215	-0.544659	-0.429786	9.5829	-1.01567	-1.71961	0.0529324	0.0192756	-0.0161695	-1.01416	0.529541	0.157471	
23	0.92996	0.126148	0.171882	-0.299528	-3.63377	0.97076	10.392	0.0319053	-0.0404854	-0.0410646	0.682373	0.113037	-0.7229	0.642946	-0.375871	-0.519384	-0.419026	9.78882	-0.504734	1.68482	-0.0360258	-0.0282715	-0.0521886	-0.697754	0.293945	-0.314209	0.874661	0.163374	0.456275	0.00943876	-7.76414	2.74215	6.417	0.03342	-0.0716598	-0.0119079	0.869141	-0.30127	-0.160889	0.334346	-0.380805	0.661594	-0.552715	-0.12474	-9.50005	-1.75529	0.054605	0.0668424	0.0252553	-0.166504	0.871582	0.473877	0.873143	0.0080905	0.29038	-0.391452	-5.10252	-2.29376	7.86926	0.0953021	-0.0409986	-0.0328309	0.706055	0.448975	-0.487305	0.737472	0.51288	0.281943	0.337042	-2.75951	8.85926	6.44736	-0.0597192	-0.0363142	-0.00500991	0.40332	-0.92627	0.134766	0.665352	-0.359709	-0.48299	-0.441177	9.83613	-0.853334	2.64956	-0.027346	0.0183593	-0.0459416	-0.782959	0.428467	-0.390137	0.477507	-0.520464	-0.504769	-0.496299	9.93154	-0.154599	-0.225786	-0.000423816	0.0367294	-0.0375459	-0.977051	0.429199	0.0102539	0.540855	-0.363634	-0.670062	-0.355335	9.6767	0.819454	-1.43022	0.00421091	0.0439353	-0.0317779	-1.05713	0.251709	-0.0432129	0.334946	-0.642317	-0.388153	-0.569717	9.79568	-0.125282	-1.24506	0.0754121	0.0054958	0.0270925	-0.917725	0.416504	0.302002	0.467528	-0.547746	-0.545914	-0.428217	9.82244	-0.416929	-1.81275	0.105456	0.0125174	-0.00315934	-1.01196	0.533936	0.152832	
24	0.929882	0.126691	0.170295	-0.300447	-3.65048	1.23179	10.4368	0.0612677	-0.06182	-0.0174664	0.684082	0.121826	-0.727295	0.642516	-0.375953	-0.519613	-0.419327	9.83293	-0.78195	1.71304	-0.0269776	-0.00950424	-0.0529826	-0.69751	0.291748	-0.311768	0.875967	0.162764	0.454	0.00860859	-7.63147	2.65368	6.47815	-0.00427621	-0.0938139	-0.0358351	0.871338	-0.294922	-0.172363	0.334846	-0.378987	0.659982	-0.555582	-0.16477	-9.65305	-1.59833	0.154885	0.0493428	-0.00574441	-0.166504	0.871826	0.458496	0.873429	0.00955336	0.28835	-0.392283	-4.82463	-1.98155	8.1671	0.0836217	-0.0325913	-0.0191826	0.710449	0.446777	-0.494141	0.739227	0.511456	0.279272	0.337583	-2.67286	8.99459	6.77219	-0.113087	-0.0648011	0.0221757	0.40332	-0.92627	0.128174	0.665289	-0.359659	-0.481724	-0.442694	9.64996	-1.1889	2.74947	-0.0209625	0.08812	-0.0389203	-0.780762	0.424072	-0.396484	0.477861	-0.519545	-0.505213	-0.496469	9.74423	-0.321761	-0.40355	0.0544375	0.0404748	-0.0397675	-0.976807	0.422607	0.010498	0.54194	-0.362384	-0.669985	-0.355104	9.54051	0.75758	-1.51525	0.0409223	0.0531586	-0.0316507	-1.05908	0.244873	-0.0476074	0.336827	-0.641819	-0.389131	-0.5685	9.63769	-0.10523	-1.12659	0.114506	0.0104561	0.0254365	-0.917969	0.420898	0.302002	0.469916	-0.545758	-0.54778	-0.425753	9.64935	-0.555744	-1.82689	0.21665	-0.00209174	-0.0011712	-1.00781	0.53833	0.145752	
25	0.930048	0.126691	0.168845	-0.300752	-3.52173	1.37996	10.338	0.0163719	-0.0421642	-0.00850455	0.68457	0.113037	-0.731689	0.641962	-0.375166	-0.519706	-0.420763	9.73456	-0.749885	1.83908	-0.00340941	0.0460862	-0.0547597	-0.695312	0.289551	-0.321289	0.877207	0.162029	0.451877	0.00780768	-7.59515	2.65403	6.65643	-0.0065772	-0.0794788	-0.0181829	0.869141	-0.296875	-0.174561	0.335463	-0.377545	0.658505	-0.557938	-0.139548	-9.77389	-1.37702	0.102241	0.0319147	0.00308821	-0.166748	0.878418	0.458252	0.873364	0.0100412	0.288009	-0.392664	-4.84882	-1.96548	8.1745	0.054587	-0.000247276	-0.0316562	0.703857	0.44458	-0.496338	0.740606	0.510871	0.27681	0.337475	-2.71175	9.03477	6.95032	-0.0532008	-0.0762565	0.00839283	0.403564	-0.928467	0.121826	0.665223	-0.359483	-0.481589	-0.443083	9.66483	-1.01863	2.63278	0.00807003	0.0061416	-0.0291341	-0.782959	0.42627	-0.396484	0.479051	-0.517688	-0.506847	-0.495596	9.5773	-0.118827	-0.404529	0.120732	0.0235457	-0.0507762	-0.97876	0.42041	0.0151367	0.542471	-0.360803	-0.67091	-0.354156	9.45967	0.810128	-1.70597	0.116236	0.00206387	-0.0510106	-1.05713	0.253906	-0.0432129	0.338428	-0.640862	-0.390299	-0.567828	9.52591	0.347698	-1.30999	0.0648618	0.0286041	-0.00457932	-0.913574	0.423096	0.297363	0.471657	-0.544129	-0.549709	-0.423419	9.63685	0.0267276	-2.13705	0.106308	-0.0110218	-0.0153225	-1.00732	0.531738	0.145996	
26	0.930208	0.12634	0.168107	-0.300816	-3.36088	1.15299	10.458	0.0129924	-0.0221501	-0.00836968	0.677979	0.113037	-0.727295	0.64184	-0.374754	-0.519703	-0.42132	9.74285	-0.616239	1.79777	-0.00121456	0.00693072	-0.0388421	-0.699707	0.291748	-0.31665	0.877702	0.161549	0.451095	0.00735112	-7.6646	2.56811	6.65757	0.0289256	-0.00327998	-0.0169522	0.871338	-0.299072	-0.174561	0.335658	-0.377161	0.65798	-0.5587	-0.101159	-9.7188	-1.32299	0.0172493	0.019619	-0.00137251	-0.164307	0.871582	0.462891	0.87256	0.0122507	0.287934	-0.39444	-4.96782	-1.99654	8.1529	0.066808	0.0471493	-0.0324098	0.703857	0.448975	-0.496338	0.741409	0.511053	0.27471	0.337153	-2.70161	8.98409	6.94886	-0.0267231	-0.0678382	0.0164736	0.39917	-0.92627	0.117432	0.665514	-0.358816	-0.480921	-0.443911	9.64755	-0.966409	2.82494	-0.0178487	0.071234	-0.0373438	-0.780762	0.42627	-0.396484	0.479252	-0.516779	-0.507651	-0.495528	9.97965	0.281351	-0.080269	-0.018197	0.0396052	-0.0468172	-0.976807	0.422607	0.010498	0.542196	-0.360198	-0.671425	-0.354218	9.62842	1.20947	-1.34163	-0.0551593	-0.00618518	-0.0448156	-1.05688	0.242676	-0.0498047	0.338844	-0.640285	-0.39105	-0.567715	9.72923	-0.0833345	-1.15063	0.0379666	0.017506	-0.0106059	-0.919922	0.414307	0.297607	0.471676	-0.54384	-0.550105	-0.423254	9.70259	-0.223765	-2.03202	0.0342871	-0.00274164	-0.0265327	-1.00977	0.533936	0.143555	
27	0.930152	0.126184	0.167887	-0.301179	-3.34702	1.21512	10.3267	0.00746557	0.00415783	-0.0264163	0.68457	0.115234	-0.73584	0.641556	-0.375209	-0.519097	-0.422093	9.60296	-0.556679	1.66141	-0.052466	0.0426542	-0.0280158	-0.695801	0.300537	-0.316895	0.877916	0.161287	0.450773	0.00734655	-7.62629	2.7667	6.60348	-0.0133684	0.00801282	-0.0064904	0.873535	-0.297119	-0.170166	0.33549	-0.377249	0.657471	-0.55934	-0.218567	-9.62755	-1.43336	0.0151657	0.00626152	-0.0297271	-0.175537	0.875977	0.458252	0.872108	0.0136745	0.288538	-0.394951	-4.88709	-2.15072	7.97818	0.0734262	0.0617972	-0.0199201	0.706055	0.44458	-0.496338	0.741946	0.511184	0.272745	0.337367	-2.5759	8.98138	6.87566	-0.0209962	-0.0487889	0.0323904	0.401367	-0.928467	0.119629	0.665388	-0.359202	-0.480117	-0.444657	9.71237	-0.80308	2.72135	-0.0328779	0.0323572	-0.0209832	-0.778564	0.422119	-0.398682	0.478707	-0.516719	-0.506928	-0.496854	9.60254	-0.398885	-0.424425	-0.0294982	0.0386334	-0.0407615	-0.982666	0.411621	0.00585938	0.541037	-0.360636	-0.671848	-0.354742	9.57345	0.428972	-1.80682	0.0296124	-0.0306245	-0.0427319	-1.05688	0.244873	-0.0498047	0.339572	-0.639876	-0.391358	-0.567528	9.64735	0.211464	-1.10789	0.0326499	0.0301388	0.0053684	-0.920166	0.420898	0.290527	0.47195	-0.542964	-0.551628	-0.42209	9.67716	-0.253872	-1.92413	0.0240766	-0.0255731	-0.0175081	-1.00537	0.538574	0.143555	
28	0.929997	0.126336	0.168311	-0.301358	-3.45383	1.17762	10.4359	0.0171464	0.040785	-0.0260896	0.682129	0.117432	-0.727295	0.641348	-0.375346	-0.519265	-0.422081	9.70056	-0.52792	1.82921	-0.0118886	-0.00860877	-0.0255294	-0.704102	0.287354	-0.313965	0.877818	0.161143	0.451015	0.0073608	-7.67559	2.68531	6.46061	0.00838847	0.0366407	-0.00672628	0.873291	-0.297119	-0.179199	0.335254	-0.377488	0.657315	-0.559504	-0.174546	-9.80768	-1.53613	0.00296895	0.0086777	-0.0284046	-0.169189	0.880371	0.458252	0.871931	0.0143601	0.288724	-0.395182	-5.03665	-1.8175	8.03537	0.0483051	0.0467626	-0.0200459	0.706055	0.446777	-0.496338	0.742409	0.510937	0.271815	0.337475	-2.4604	9.12666	6.86608	-0.0530211	-0.04544	0.0154529	0.401367	-0.930664	0.119873	0.664821	-0.360176	-0.479266	-0.445636	9.71818	-0.742842	2.76965	-0.0606331	0.0377441	-0.0201793	-0.781006	0.430664	-0.400879	0.47886	-0.516403	-0.507381	-0.496574	9.73318	-0.205274	-0.373307	0.0509031	0.00937627	-0.0311648	-0.980957	0.42041	0.010498	0.541497	-0.359525	-0.672653	-0.35364	9.7056	0.848238	-1.55689	0.146628	-0.00211533	-0.041763	-1.06152	0.24707	-0.0522461	0.339698	-0.63952	-0.391585	-0.567697	9.61391	0.0702282	-1.14244	0.0211964	0.0370089	-0.0185769	-0.917969	0.420898	0.28833	0.471544	-0.543037	-0.551929	-0.422056	9.67839	-0.411166	-1.93267	-0.00752723	-0.0246074	-0.0263652	-1.01416	0.531738	0.145996	
29	0.929392	0.126577	0.170966	-0.301629	-3.98122	1.58594	10.2982	-0.0289489	0.102625	-0.0208371	0.68457	0.113037	-0.7229	0.641328	-0.375772	-0.518131	-0.423124	9.89504	-0.411359	1.77689	-0.0809583	0.0966935	-0.0204325	-0.702148	0.296143	-0.328369	0.877941	0.161382	0.450698	0.00685176	-7.68706	2.79165	6.46744	0.0411628	-0.0167225	-0.017617	0.873291	-0.294922	-0.172363	0.335168	-0.377232	0.65688	-0.560238	-0.209561	-9.78585	-1.56902	0.0445765	0.0225529	-0.00540602	-0.164551	0.876221	0.456055	0.871676	0.0149042	0.28847	-0.395908	-5.05919	-1.98954	8.11308	0.0495175	-0.0150312	-0.042895	0.70166	0.446777	-0.494141	0.743755	0.509694	0.270304	0.337603	-2.49373	9.15325	6.97177	-0.0687486	-0.0291066	-0.0162243	0.39917	-0.930664	0.113281	0.664428	-0.361271	-0.477314	-0.447425	9.67924	-0.794417	2.71864	-0.105827	0.0618561	-0.0190358	-0.783203	0.432861	-0.394531	0.479371	-0.515796	-0.508066	-0.496011	9.96	0.0421672	-0.252177	0.0977811	0.015255	-0.0284798	-0.980469	0.411621	0.0107422	0.541907	-0.358258	-0.673418	-0.35284	9.59614	0.581008	-1.63959	0.0684649	0.0129397	-0.0399502	-1.06152	0.242676	-0.0498047	0.340251	-0.638786	-0.392033	-0.567883	9.71855	-0.403861	-0.982529	0.0599465	0.0404476	-0.00283886	-0.917969	0.416504	0.290771	0.471302	-0.54283	-0.553057	-0.421116	9.56061	-0.829438	-1.76488	0.0585182	-0.0433675	-0.0144109	-1.00757	0.536133	0.143555	
30	0.929492	0.125974	0.171274	-0.301396	-4.17146	1.38672	10.4028	-0.0451465	0.0141894	-1.65394e-05	0.686768	0.115234	-0.727295	0.64106	-0.376954	-0.516166	-0.424876	9.61671	-0.443398	1.74578	-0.118195	0.0483533	-0.0141752	-0.697754	0.296143	-0.31665	0.878187	0.162114	0.44996	0.0064741	-7.64641	2.74748	6.60248	0.0511974	-0.00171749	0.0190896	0.871338	-0.299072	-0.174561	0.335425	-0.377001	0.657428	-0.559596	-0.176946	-9.41704	-1.4612	-0.0749802	-0.0038539	0.0365824	-0.168945	0.874023	0.453857	0.871166	0.0152258	0.288381	-0.397082	-4.91394	-1.62068	8.30631	-0.0088722	0.0311191	-0.0611931	0.703857	0.448975	-0.496338	0.744377	0.510186	0.269869	0.335833	-2.33521	8.89127	6.99399	0.082725	-0.0614823	-0.0665369	0.407715	-0.928467	0.108887	0.663345	-0.363161	-0.47632	-0.44856	9.61567	-0.625807	2.57496	-0.198594	-0.00731461	-0.0157298	-0.783203	0.430664	-0.392334	0.481203	-0.513075	-0.510303	-0.494761	9.93321	-0.0207429	-0.232186	0.1419	0.0280466	-0.0391783	-0.980713	0.414062	-0.00341797	0.544602	-0.354293	-0.675181	-0.349307	9.68757	0.84213	-1.56614	0.30293	0.0616165	-0.0409645	-1.05908	0.242676	-0.052002	0.343095	-0.637109	-0.394261	-0.566512	9.87004	0.00303456	-1.07162	0.202727	0.0220949	0.00429872	-0.91626	0.429688	0.285889	0.472938	-0.541013	-0.556437	-0.417148	9.88011	-0.234771	-1.84595	0.232381	-0.0792761	-0.014332	-1.01196	0.533936	0.143555	
31	0.930018	0.124805	0.168981	-0.301555	-3.51388	1.1523	10.4764	0.00848527	-0.112681	-0.0185056	0.68457	0.115234	-0.725098	0.640613	-0.378377	-0.514464	-0.426348	10.0017	-0.4302	1.93163	-0.0882938	0.0576615	-0.0137487	-0.701904	0.289551	-0.318848	0.878024	0.162702	0.450067	0.00650765	-7.58871	3.16681	6.47422	0.0308939	0.0109714	-0.00447139	0.869141	-0.299072	-0.169922	0.334604	-0.377245	0.658457	-0.558714	-0.621254	-9.78469	-1.62775	0.0015871	0.0360862	-0.00588735	-0.171387	0.878174	0.462646	0.870289	0.0158095	0.288962	-0.398558	-5.10401	-2.03672	8.08453	0.0688561	0.0383794	-0.0740225	0.710449	0.446777	-0.491943	0.74428	0.512069	0.268967	0.333901	-2.45661	9.00458	6.94512	0.041375	-0.0882998	-0.016124	0.40332	-0.928467	0.109131	0.662353	-0.36508	-0.474621	-0.450267	9.73985	-0.683557	2.74494	-0.245007	0.0491739	-0.0206201	-0.779053	0.435059	-0.390381	0.482245	-0.511234	-0.512113	-0.493782	9.71162	0.131237	-0.339422	0.108547	0.0120326	-0.0482902	-0.980713	0.411865	-0.000976562	0.547238	-0.349778	-0.677715	-0.344801	9.57532	1.12772	-1.53272	0.26568	0.0124012	-0.0396631	-1.06836	0.240234	-0.0566406	0.344967	-0.635793	-0.395591	-0.565927	9.57834	0.679773	-1.33644	0.0468627	0.0420379	-0.0103692	-0.922363	0.418701	0.279297	0.472467	-0.541018	-0.55772	-0.415961	9.76774	0.0491776	-2.1487	0.0382263	-0.0562325	-0.0148041	-1.01416	0.529541	0.143799	
32	0.929648	0.124829	0.167773	-0.303356	-3.13595	1.45615	10.4648	0.0433361	-0.017198	-0.0826388	0.679932	0.119629	-0.729492	0.641372	-0.37781	-0.512474	-0.428102	9.74339	-0.54754	1.98885	-0.0436234	0.101485	-0.0322752	-0.697998	0.29834	-0.314453	0.878601	0.162772	0.448932	0.00513465	-7.69879	3.02502	6.57435	0.0407389	-0.0445301	-0.0420914	0.869141	-0.292725	-0.172363	0.333737	-0.376086	0.658415	-0.560062	-0.272312	-9.7813	-1.36072	0.0180587	0.0922036	0.0013766	-0.168945	0.875977	0.458252	0.869767	0.0170915	0.288525	-0.399958	-5.14467	-1.53889	8.16563	0.0398702	0.0197628	-0.0567114	0.699463	0.446777	-0.500977	0.744876	0.512708	0.267362	0.332879	-2.25715	9.12216	7.24381	0.00359324	-0.0634766	-0.014605	0.409912	-0.930664	0.109131	0.660789	-0.367763	-0.47108	-0.454083	9.56665	-0.963688	2.82345	-0.123325	0.0421798	-0.0290849	-0.779297	0.441406	-0.388428	0.482461	-0.51081	-0.512931	-0.493159	9.87044	0.347463	-0.426469	0.00545184	0.00270474	-0.0244982	-0.978516	0.414062	-0.00341797	0.547165	-0.349283	-0.678274	-0.34432	9.5978	1.01938	-1.70841	-0.033027	-0.00957754	-0.0283972	-1.05664	0.240479	-0.0563965	0.343894	-0.635944	-0.395297	-0.566615	9.74388	0.395088	-1.30535	-0.0699347	0.00937804	-0.0156661	-0.913574	0.423096	0.281494	0.471358	-0.541618	-0.557255	-0.417059	9.76509	0.0104388	-2.25716	-0.100068	0.0196505	-0.0211279	-1.01196	0.533936	0.148193	
33	0.928932	0.124874	0.168337	-0.305214	-3.57816	1.62604	10.4293	0.0135209	0.0249494	-0.0808544	0.682129	0.119629	-0.729492	0.642611	-0.377105	-0.509779	-0.430079	9.88531	-0.50606	1.9094	-0.0439204	0.185593	-0.020492	-0.695801	0.29834	-0.331055	0.879346	0.162692	0.447515	0.00347041	-7.56529	2.93674	6.79526	0.0578175	-0.0507527	-0.0569372	0.871094	-0.290527	-0.179443	0.331968	-0.374169	0.659366	-0.561276	-0.551823	-9.91555	-1.39465	0.00864314	0.130872	0.00763704	-0.175781	0.878174	0.458252	0.869124	0.0171244	0.288608	-0.401292	-4.97839	-1.83384	8.25852	0.0261913	0.0181212	-0.0637659	0.70166	0.446777	-0.496338	0.745071	0.512881	0.267024	0.332446	-2.3591	9.18852	7.26389	0.0111372	-0.0371504	-0.0233451	0.405518	-0.928467	0.113281	0.659421	-0.36926	-0.471761	-0.45415	9.86377	-0.751649	2.85904	-0.0279917	-0.0852058	-0.0302094	-0.783447	0.437256	-0.381836	0.481473	-0.511579	-0.512087	-0.494205	9.87464	0.105958	-0.277186	-0.0858933	0.0295028	-0.0211226	-0.978271	0.409668	0.00366211	0.5465	-0.350011	-0.678091	-0.344995	9.64621	0.934966	-1.51546	-0.0511056	-0.00485801	-0.0190516	-1.06152	0.242676	-0.0541992	0.343062	-0.636359	-0.394792	-0.567005	9.70778	-0.0789369	-1.04321	-0.0287223	0.01855	0.00405206	-0.917969	0.416504	0.283936	0.470329	-0.54236	-0.55631	-0.418515	9.63191	-0.589047	-1.90486	-0.0453418	0.0217103	-0.00473508	-1.00952	0.529541	0.150635	
34	0.928608	0.124477	0.169274	-0.305842	-3.65812	1.39918	10.5275	-0.0138721	0.0412745	-0.0272636	0.679688	0.121582	-0.727295	0.643377	-0.377214	-0.507384	-0.431669	9.57242	-0.437389	1.88553	-0.0770752	0.0942941	-0.00761253	-0.696045	0.304688	-0.331055	0.879169	0.163453	0.447598	0.00138581	-7.6014	2.90913	6.75886	0.0737597	0.0268562	-0.0597193	0.873291	-0.294922	-0.174805	0.32974	-0.373277	0.660736	-0.561573	-0.408507	-9.94372	-1.48925	-0.060126	0.0996273	-0.0105635	-0.168701	0.869629	0.456299	0.868212	0.0170928	0.289906	-0.402332	-5.0556	-1.67099	8.04064	-0.012982	0.0708401	-0.0717856	0.706055	0.448975	-0.494141	0.744692	0.514405	0.267369	0.330658	-2.28997	9.20333	7.05552	0.0803667	-0.0199508	-0.0492292	0.412109	-0.928467	0.117676	0.65792	-0.371278	-0.471323	-0.455135	9.62997	-0.80047	2.46612	-0.10401	0.00358813	-0.0198572	-0.779297	0.441406	-0.379883	0.480797	-0.512268	-0.510979	-0.495294	9.79835	-0.0356937	-0.222036	-0.0486001	0.0307122	-0.0150085	-0.987061	0.409424	0.00610352	0.545102	-0.351632	-0.677746	-0.346235	9.60679	0.981573	-1.54887	-0.11806	-0.0393589	-0.0190106	-1.05664	0.238037	-0.0563965	0.342447	-0.636832	-0.394152	-0.567291	9.75582	0.168611	-1.12196	-0.0628356	0.012687	0.00459452	-0.916016	0.425293	0.28125	0.469842	-0.542853	-0.555563	-0.419414	9.75574	-0.247822	-2.01342	-0.0844631	0.0271884	-0.00247352	-1.00732	0.531738	0.148193	
35	0.928663	0.124125	0.170279	-0.30526	-3.63739	1.64194	10.4747	-0.0321442	0.0357024	0.0128947	0.686279	0.124023	-0.725098	0.643489	-0.378612	-0.505074	-0.432985	9.74224	-0.59256	2.01249	-0.113687	0.0961904	0.0145773	-0.691406	0.300537	-0.328613	0.87903	0.163494	0.447857	-0.000836955	-7.50298	2.7145	6.47777	0.0527803	0.000627762	-0.0879047	0.875488	-0.290527	-0.170166	0.328161	-0.372207	0.662368	-0.561285	-0.279249	-9.58948	-1.66458	-0.0421811	0.0840803	0.0304651	-0.170898	0.871582	0.456055	0.867223	0.0154044	0.291187	-0.403605	-4.98257	-1.7373	7.83565	-0.0753625	0.0157809	-0.104572	0.701172	0.457764	-0.491943	0.744532	0.515379	0.269406	0.327837	-2.21859	9.00376	6.77626	0.104399	0.00348206	-0.150061	0.409668	-0.919678	0.119385	0.657093	-0.372774	-0.470416	-0.456044	9.63616	-1.00426	2.8214	-0.0773415	0.00531322	-0.0137275	-0.7771	0.439209	-0.377686	0.480387	-0.512814	-0.510423	-0.4957	9.86358	0.00924683	-0.308616	-0.0325168	0.0134686	-0.00682227	-0.98291	0.413818	0.0012207	0.544188	-0.352764	-0.677545	-0.346915	9.63961	0.869541	-1.53595	-0.0288341	-0.0133195	-0.0138778	-1.05908	0.240234	-0.0476074	0.341127	-0.63739	-0.393216	-0.568109	9.73504	0.0263391	-1.10796	-0.0708205	0.0118223	-0.0106008	-0.920166	0.416504	0.286133	0.468624	-0.543752	-0.554494	-0.421024	9.70818	-0.415294	-1.99266	-0.102842	0.0203571	-0.0116624	-1.00952	0.529541	0.150635	
36	0.928966	0.121602	0.171488	-0.304674	-3.71763	1.62063	10.4312	-0.108581	0.0170492	-0.00124079	0.688477	0.124023	-0.725098	0.644694	-0.378825	-0.501316	-0.435365	9.89609	-0.538029	2.11571	-0.102136	0.209961	-0.000262093	-0.687256	0.304688	-0.333496	0.879137	0.163336	0.447701	-0.00189983	-7.58432	2.75768	6.51702	0.0423026	-0.0128563	-0.0792748	0.871094	-0.28833	-0.174805	0.327753	-0.371667	0.6626	-0.561607	-0.210865	-9.35903	-1.6082	0.00909445	0.0695426	0.00923704	-0.175537	0.873779	0.453857	0.866682	0.0140455	0.291325	-0.404716	-5.08036	-1.8116	8.07173	-0.071278	-0.0151664	-0.138794	0.696777	0.457764	-0.482666	0.745007	0.515266	0.270333	0.326168	-2.34732	8.83685	6.60272	0.04211	-0.01221	-0.164632	0.416016	-0.919678	0.117432	0.655924	-0.374395	-0.470635	-0.456173	9.78597	-0.834036	2.6439	-0.0390785	-0.048099	-0.017107	-0.775146	0.443604	-0.373535	0.480063	-0.513145	-0.510251	-0.495849	9.78389	0.126375	-0.19852	-0.0360241	0.00580918	-0.015182	-0.980469	0.409668	0.00366211	0.543652	-0.353431	-0.677385	-0.347388	9.5869	0.935884	-1.63379	-0.0702143	-0.0183675	-0.0145319	-1.05664	0.240479	-0.052002	0.340507	-0.637784	-0.392794	-0.56833	9.71162	-0.0261553	-1.10433	-0.0681939	6.60643e-05	0.0029634	-0.917969	0.418701	0.286133	0.467997	-0.544236	-0.553905	-0.421872	9.69098	-0.532772	-1.91447	-0.101911	0.0233449	-0.00923518	-1.00952	0.529541	0.152832	
37	0.929132	0.119423	0.171647	-0.304943	-3.78147	0.818625	10.3909	-0.153405	-0.0418948	-0.0556233	0.686035	0.130371	-0.725342	0.645743	-0.378397	-0.499506	-0.436263	9.65507	-0.639857	2.10567	-0.0671111	0.192157	0.00473722	-0.687256	0.304688	-0.338135	0.879194	0.162204	0.447986	-0.00390325	-7.64753	2.9409	6.74526	0.0112538	0.0263413	-0.101641	0.875244	-0.279785	-0.172852	0.326702	-0.371197	0.660898	-0.564529	-0.288508	-9.59471	-1.49662	0.13375	0.0666042	-0.10082	-0.184326	0.871582	0.449463	0.86557	0.0127443	0.290696	-0.40758	-5.10876	-2.21064	8.19583	0.0517949	-0.0188015	-0.130233	0.698975	0.462158	-0.494141	0.746987	0.514094	0.2696	0.32409	-2.73977	8.8732	6.75956	-0.0750648	-0.077398	-0.0713439	0.416016	-0.921875	0.11084	0.655341	-0.375137	-0.470933	-0.456095	9.80306	-0.838284	2.56076	-0.0308931	-0.0514264	-0.0160739	-0.783936	0.445801	-0.375732	0.479342	-0.514098	-0.509479	-0.496352	9.85411	-0.0371772	-0.261214	-0.0430574	0.0184558	-0.000296139	-0.985107	0.416016	-0.0012207	0.543023	-0.354334	-0.677242	-0.347732	9.54579	0.9789	-1.50988	-0.0339895	-0.0193647	-0.00893331	-1.06372	0.242432	-0.0432129	0.339541	-0.638538	-0.392198	-0.568474	9.71409	0.0834895	-1.15086	-0.0493016	-0.0074223	0.00551939	-0.924561	0.418457	0.290527	0.467331	-0.544859	-0.552962	-0.423041	9.7469	-0.336489	-1.97237	-0.0668	0.026416	-0.00230958	-1.00952	0.529541	0.148193	
38	0.928661	0.117973	0.171153	-0.307209	-3.45363	0.804925	10.4099	0.0216068	-0.0225087	-0.109586	0.685791	0.134766	-0.727539	0.646996	-0.37827	-0.497101	-0.437263	9.58138	-0.696968	2.23281	-0.0495872	0.116319	0.0107404	-0.678711	0.304688	-0.345459	0.879198	0.160417	0.44861	-0.00509525	-7.7165	2.64346	6.26771	-0.0244792	0.0226882	-0.0666575	0.875244	-0.275391	-0.179688	0.325165	-0.371352	0.659697	-0.566715	-0.000616522	-9.90794	-1.3063	0.0378562	0.0686131	-0.0671007	-0.186523	0.869385	0.454102	0.864906	0.0124048	0.29049	-0.409144	-5.0885	-2.05329	7.92548	-0.0278389	-9.76785e-05	-0.0716809	0.692383	0.462158	-0.496338	0.748122	0.513617	0.269177	0.322576	-2.64473	9.18713	7.15719	0.00775911	-0.0147945	-0.0791113	0.418213	-0.919678	0.11084	0.654661	-0.37618	-0.471632	-0.455489	9.58467	-1.10488	2.72566	0.00727738	-0.041044	-0.00280036	-0.783691	0.443604	-0.369385	0.478849	-0.514753	-0.508638	-0.497011	9.82357	-0.145247	-0.360975	-0.0412757	0.0310058	-0.0129914	-0.980713	0.413818	0.0012207	0.542253	-0.355242	-0.677041	-0.348398	9.59762	0.998496	-1.67593	-0.0987809	-0.0303	-0.0151889	-1.06372	0.240234	-0.0498047	0.33789	-0.639385	-0.391349	-0.569089	9.70037	0.016216	-1.20009	-0.0811497	0.0037892	-0.0110038	-0.922119	0.414307	0.292969	0.466507	-0.545439	-0.551804	-0.424712	9.699	-0.373331	-1.95826	-0.0964032	0.0394113	-0.0149906	-1.01147	0.522949	0.155273	
39	0.92772	0.118006	0.172195	-0.30945	-3.55425	1.30799	10.4089	0.00446735	0.0529242	-0.103546	0.679443	0.130371	-0.725342	0.647634	-0.378794	-0.495151	-0.438076	9.75829	-0.756674	2.23521	-0.05443	0.0835315	0.00226167	-0.676758	0.315674	-0.341064	0.879165	0.160673	0.448553	-0.00735894	-7.77569	2.70631	6.24872	0.0882812	-0.00956929	-0.0789651	0.875244	-0.275391	-0.170654	0.322778	-0.369962	0.661245	-0.567184	-0.0283445	-9.68779	-1.51441	-0.0523513	0.148191	0.0195485	-0.188965	0.873779	0.456055	0.864385	0.0100718	0.291025	-0.409929	-5.08654	-2.47582	8.13715	-0.0686776	-0.0076893	-0.0765785	0.691895	0.470947	-0.494141	0.747914	0.513627	0.271523	0.321071	-2.89056	9.02667	6.87542	0.0677066	0.0624582	-0.101113	0.422363	-0.917725	0.113037	0.653775	-0.377662	-0.471885	-0.455274	9.72441	-1.0138	2.60284	-0.0367909	-0.0498319	-0.00823236	-0.786133	0.447998	-0.369385	0.478963	-0.514738	-0.508629	-0.496927	9.75088	-0.109615	-0.456327	0.0224959	0.0125134	-0.0121099	-0.978516	0.416016	0.0012207	0.541936	-0.355452	-0.677037	-0.348685	9.63739	0.738091	-1.68477	0.0405308	0.0173866	-0.0165647	-1.05884	0.238037	-0.0476074	0.336874	-0.639932	-0.391003	-0.569315	9.69199	0.0194526	-1.214	-0.022848	-0.0109047	-0.00534868	-0.915771	0.418701	0.292969	0.465622	-0.546066	-0.550748	-0.426246	9.71236	-0.466759	-1.99038	-0.0606784	0.030564	-0.0103415	-1.01367	0.518555	0.164307	
40	0.927095	0.117802	0.173751	-0.310528	-3.96245	0.938414	10.4118	0.00177358	0.0579639	-0.0501602	0.685303	0.141357	-0.721191	0.648117	-0.378545	-0.494105	-0.438758	9.67405	-0.746109	2.23775	-0.0206228	0.0430275	-0.0190768	-0.678955	0.311279	-0.34082	0.879787	0.160411	0.447372	-0.0100625	-7.63033	2.57388	6.46865	0.0356114	-0.0609648	-0.0963958	0.881592	-0.273438	-0.173096	0.320379	-0.367657	0.662826	-0.568196	-0.0474459	-9.71545	-1.66827	0.00418742	0.154553	0.0187958	-0.193604	0.880371	0.447266	0.864108	0.0092329	0.291065	-0.410504	-4.90862	-2.12605	8.19808	-0.028139	0.00438951	-0.0425647	0.687744	0.46875	-0.487305	0.747681	0.513644	0.273254	0.320117	-2.82474	9.03022	6.63345	0.0280817	0.0287717	-0.067445	0.428711	-0.911133	0.11499	0.653406	-0.377988	-0.472466	-0.45493	9.71694	-0.916454	2.50535	0.0472978	-0.003714	-0.0220579	-0.78833	0.450195	-0.367432	0.479203	-0.514549	-0.509156	-0.496351	9.67864	0.0677288	-0.253973	0.0201141	0.00546666	-0.0175255	-0.985107	0.413818	0.00585938	0.541816	-0.355338	-0.677198	-0.348674	9.52054	0.926693	-1.60211	0.00870454	0.00212474	-0.0244357	-1.06128	0.240234	-0.0432129	0.336677	-0.639988	-0.391435	-0.569072	9.56922	0.171071	-1.23021	0.00169066	0.00546813	-0.00970312	-0.922363	0.416504	0.299805	0.465305	-0.546199	-0.550324	-0.426968	9.56004	-0.210159	-2.04495	-0.0312731	0.0221071	-0.0116301	-1.00952	0.529541	0.157471	
41	0.927227	0.117932	0.173763	-0.31008	-4.05556	1.23317	10.3648	0.000421183	-0.0149074	0.0308472	0.692383	0.134766	-0.723145	0.647643	-0.379352	-0.493992	-0.438888	9.51368	-0.721274	2.10557	-0.0398187	-0.0446762	-0.0125599	-0.680908	0.309082	-0.345459	0.880159	0.160477	0.44656	-0.0123104	-7.57417	2.31116	6.3558	0.0652683	-0.018237	-0.0568969	0.875	-0.270996	-0.170654	0.318547	-0.365969	0.665031	-0.56774	0.152951	-9.40824	-1.69425	-0.0676112	0.111973	0.0422612	-0.190918	0.871582	0.453857	0.863246	0.00861857	0.291606	-0.411944	-4.74477	-2.01639	8.02197	0.00459555	0.0239486	-0.105965	0.692139	0.46875	-0.485107	0.747438	0.514961	0.274217	0.317737	-2.54606	8.88366	6.62622	0.126056	-0.0462036	-0.0947646	0.433105	-0.915527	0.121338	0.653647	-0.377695	-0.472374	-0.454922	9.63375	-0.981309	2.55632	0.00249808	0.0333798	-0.0121852	-0.783936	0.445801	-0.369385	0.479014	-0.515061	-0.508845	-0.496322	9.80515	-0.103266	-0.249599	-0.0195136	0.0176535	-0.00106237	-0.980469	0.411621	0.00366211	0.541954	-0.355221	-0.67723	-0.348517	9.63358	0.722823	-1.68386	0.0281252	0.0150983	-0.0174343	-1.06152	0.242432	-0.0432129	0.336143	-0.640251	-0.391837	-0.568815	9.70413	0.276571	-1.14483	-0.0142809	-0.0161451	-0.0115729	-0.915527	0.414307	0.297607	0.464496	-0.546655	-0.549846	-0.427879	9.71481	-0.196276	-1.95387	-0.061575	0.0108058	-0.0138609	-1.01611	0.525146	0.155273	
42	0.927572	0.116645	0.173108	-0.309899	-4.12471	0.791744	10.4494	-0.0431891	-0.0520727	-0.0341674	0.685303	0.143555	-0.721191	0.646755	-0.380632	-0.493651	-0.439472	9.6214	-0.632027	2.23113	-0.0888935	0.00469251	-0.0218531	-0.678955	0.315674	-0.336426	0.880149	0.160458	0.446561	-0.0131817	-7.82185	2.95563	6.57328	0.00319894	0.00707343	-0.0405435	0.875	-0.264648	-0.170898	0.317397	-0.365861	0.665908	-0.567425	-0.284955	-9.56133	-1.80263	0.019356	0.0365232	-0.0309385	-0.193115	0.871582	0.453857	0.861625	0.00866623	0.291717	-0.415246	-4.9618	-2.43677	7.87659	0.0677614	0.0309662	-0.160632	0.680908	0.477295	-0.485107	0.748345	0.516233	0.273466	0.314166	-2.80455	8.8269	6.37881	0.0137474	-0.131808	-0.0961197	0.430908	-0.91333	0.125732	0.653593	-0.378006	-0.471371	-0.455782	9.70622	-0.861895	2.49673	-0.057751	0.0480928	-0.0266881	-0.786133	0.447998	-0.367188	0.479586	-0.515	-0.509232	-0.495435	9.68884	-0.287772	-0.268427	0.0636234	-0.000681723	0.00197612	-0.978516	0.416016	0.00830078	0.542885	-0.353713	-0.678252	-0.346608	9.4754	0.619719	-1.5781	0.128265	-0.00360175	-0.021333	-1.06152	0.242676	-0.0476074	0.33511	-0.640872	-0.39125	-0.569129	9.61383	-0.292822	-0.930877	-0.0412441	0.0114231	0.00460571	-0.919922	0.414307	0.299805	0.462846	-0.548035	-0.54848	-0.429652	9.50337	-0.77961	-1.79422	-0.101125	0.00600639	-0.00183081	-1.01172	0.525146	0.162109	
43	0.926925	0.115188	0.170732	-0.313675	-3.53957	0.716878	10.4386	0.0369183	-0.118765	-0.183576	0.683105	0.145508	-0.723389	0.645982	-0.381915	-0.492593	-0.440681	9.74586	-0.731335	1.92605	-0.0470321	0.0709372	-0.02526	-0.681396	0.317871	-0.343506	0.88054	0.158547	0.446419	-0.0148951	-7.91934	2.67375	6.24865	-0.00144251	-0.00935421	-0.107115	0.877197	-0.264648	-0.17334	0.316324	-0.365988	0.664597	-0.569476	-0.0268017	-9.78607	-1.52394	0.0836942	0.0631646	-0.0766926	-0.197754	0.875977	0.449463	0.860553	0.00875677	0.290446	-0.418345	-5.18134	-2.29116	7.88974	0.0298923	-0.0409546	-0.127773	0.684814	0.484131	-0.494141	0.750136	0.516204	0.271835	0.311344	-2.82762	8.96708	6.82787	-0.0255931	-0.100521	-0.0853397	0.439453	-0.911133	0.119141	0.65349	-0.378022	-0.470951	-0.456349	9.64596	-1.00115	2.59524	-0.0210325	0.0143875	-0.0235731	-0.781738	0.447998	-0.367188	0.481254	-0.513724	-0.510961	-0.493358	9.97995	0.297987	-0.249235	0.148316	0.00298956	-0.0128251	-0.978516	0.414062	-0.0012207	0.54393	-0.352085	-0.679263	-0.344643	9.75881	1.35678	-1.52798	0.100091	0.0184005	-0.0259511	-1.06128	0.240479	-0.0541992	0.335471	-0.640489	-0.391855	-0.568931	9.77317	-0.114039	-1.1014	0.0314063	0.0085847	-0.00913315	-0.920166	0.418701	0.297363	0.463455	-0.547544	-0.549593	-0.428197	9.94173	-0.246258	-1.88841	0.119842	-0.0232124	-0.00168045	-1.01392	0.525146	0.157471	
44	0.925932	0.114956	0.169538	-0.317321	-3.52807	1.34646	10.4679	0.0357032	-0.0342018	-0.126347	0.683105	0.145752	-0.729736	0.644584	-0.383849	-0.492199	-0.441488	9.84485	-0.965348	2.39337	-0.125924	-0.060234	-0.019538	-0.676758	0.315674	-0.331543	0.880932	0.158046	0.445773	-0.0163245	-8.0435	2.62935	6.15183	0.0275559	-0.062154	-0.111643	0.875	-0.260254	-0.175537	0.31543	-0.365181	0.664158	-0.571	0.179363	-9.83294	-1.57635	0.095856	0.12486	-0.0476108	-0.202148	0.871582	0.447266	0.860238	0.00832574	0.289632	-0.419564	-5.11713	-2.56949	8.03059	0.0270697	-0.0563769	-0.116399	0.682617	0.486328	-0.498779	0.750957	0.515773	0.271514	0.310359	-3.01687	9.11902	6.92951	-0.0382593	-0.058372	-0.0878112	0.446045	-0.915283	0.11499	0.653364	-0.378215	-0.46984	-0.457515	9.90973	-1.17831	2.89703	-0.021641	0.099722	-0.0348601	-0.781738	0.445801	-0.367188	0.481561	-0.513283	-0.511408	-0.493053	9.78935	-0.0255309	-0.382553	0.0171666	0.0167284	-0.0204303	-0.97876	0.41626	-0.00341797	0.544412	-0.351444	-0.679525	-0.344018	9.69029	0.825594	-1.70914	0.0853229	0.0228662	-0.0212491	-1.06128	0.240234	-0.0476074	0.335973	-0.640251	-0.392332	-0.568575	9.80671	0.34699	-1.27907	0.0646708	0.0101998	0.00308909	-0.922363	0.416504	0.297607	0.463619	-0.54743	-0.549926	-0.427738	9.82448	0.066133	-2.07969	0.0441436	-0.0130219	-0.000422187	-1.01147	0.522949	0.159668	
45	0.925541	0.113948	0.169292	-0.318952	-3.8679	1.25296	10.5422	-0.0295258	-0.0197062	-0.072143	0.68042	0.1521	-0.729736	0.643944	-0.384488	-0.491724	-0.442395	9.83378	-0.680169	2.44873	-0.0266866	0.0370697	-0.0404788	-0.679199	0.317871	-0.336426	0.881649	0.157716	0.444405	-0.0180153	-7.82288	2.51568	6.26892	0.0452419	-0.127722	-0.114056	0.876953	-0.262451	-0.180176	0.313108	-0.36215	0.664428	-0.573887	0.16518	-9.64428	-1.44639	0.0557536	0.193021	0.0044378	-0.202393	0.875977	0.442871	0.859911	0.00765429	0.288215	-0.42122	-5.06608	-2.31759	8.25644	0.00288347	-0.0423571	-0.0750626	0.678223	0.484131	-0.496582	0.752075	0.515069	0.271562	0.308775	-2.97334	9.041	6.82393	-0.0159773	-0.019329	-0.0747667	0.446045	-0.91333	0.121338	0.653572	-0.377799	-0.468701	-0.458728	9.65227	-0.781264	2.63074	-0.0333404	0.0281595	-0.036393	-0.777344	0.447998	-0.369385	0.482652	-0.512363	-0.512359	-0.491955	9.76464	-0.0454008	-0.377974	0.103535	0.0101306	-0.0121419	-0.980713	0.416016	-0.0012207	0.547303	-0.348227	-0.680428	-0.340904	9.50146	0.734032	-1.6242	0.159905	0.045853	-0.0182515	-1.06372	0.240479	-0.0610352	0.336461	-0.640047	-0.392699	-0.568262	9.73948	0.0137364	-1.19998	0.0421634	0.0156905	0.0064516	-0.922119	0.409912	0.297607	0.463709	-0.547433	-0.550266	-0.427199	9.69869	-0.529598	-1.95573	0.0620699	-0.00640019	0.00496901	-1.01855	0.529541	0.161865	
46	0.925489	0.113025	0.1689	-0.319639	-3.89844	0.937918	10.5474	-0.0390641	-0.0543254	-0.0683607	0.671875	0.149902	-0.727783	0.644523	-0.383753	-0.490619	-0.443415	9.6897	-0.584656	2.38304	-0.0283268	0.150793	-0.0464803	-0.681152	0.313477	-0.338623	0.883705	0.15694	0.440329	-0.023364	-7.47603	2.32446	6.69349	0.048304	-0.121655	-0.103649	0.878906	-0.247314	-0.189697	0.310662	-0.358869	0.665004	-0.576604	-0.0338952	-9.59442	-1.40777	0.0556682	0.187262	0.0112622	-0.20459	0.878174	0.436279	0.859438	0.00728541	0.287455	-0.422708	-4.94879	-2.38846	8.1783	0.0355291	-0.0186419	-0.0744427	0.678223	0.484131	-0.494141	0.753026	0.514597	0.271073	0.307669	-2.81132	9.05926	6.82617	-0.00812781	-0.0381783	-0.048233	0.44165	-0.91333	0.110596	0.653026	-0.378099	-0.468985	-0.458968	9.67042	-0.752581	2.54705	-0.0189859	-0.0235856	-0.0480238	-0.785889	0.441406	-0.369141	0.482994	-0.512048	-0.512928	-0.491354	9.60908	0.19079	-0.371919	0.0760597	-0.000903267	-0.0166712	-0.980957	0.418213	0.0012207	0.547618	-0.347796	-0.68055	-0.340594	9.40546	1.23126	-1.59037	0.050433	0.0229456	-0.0241708	-1.05884	0.23584	-0.0541992	0.336717	-0.639837	-0.392664	-0.568371	9.53475	0.255323	-1.40144	-0.0152566	0.0329116	-0.000176243	-0.919922	0.412109	0.29541	0.464087	-0.54722	-0.550486	-0.426777	9.57915	-0.266258	-2.23792	0.0285597	0.0114552	-0.00167912	-1.01172	0.525146	0.162109	
47	0.92536	0.11212	0.167693	-0.320963	-3.73727	0.764119	10.4118	0.0192712	-0.0513189	-0.0552194	0.673828	0.154297	-0.72998	0.644474	-0.383744	-0.489332	-0.444914	9.57132	-0.703648	2.1228	-0.0612167	0.021328	-0.0351377	-0.674805	0.317871	-0.338867	0.884591	0.15666	0.438508	-0.0258268	-7.58806	2.35707	6.82963	0.028021	-0.066732	-0.0719042	0.878906	-0.247314	-0.1875	0.309314	-0.357071	0.665226	-0.578186	0.0658122	-9.74488	-1.45783	0.0706617	0.087303	-0.00926022	-0.211426	0.880371	0.436279	0.858852	0.00762211	0.286635	-0.424447	-4.83748	-2.23774	8.0686	0.0458594	0.00537916	-0.0758014	0.673828	0.486328	-0.500977	0.753901	0.51453	0.270201	0.306405	-2.82663	8.877	6.74366	-0.00882921	-0.0610692	-0.046562	0.449951	-0.906738	0.106201	0.651826	-0.378968	-0.469036	-0.459904	9.65708	-1.01744	2.69293	-0.053288	-0.0158149	-0.0429043	-0.785889	0.445801	-0.36499	0.482541	-0.512455	-0.512832	-0.491474	9.88152	-0.117942	-0.282259	-0.0274193	0.00497446	-0.0198884	-0.976318	0.413818	0.00366211	0.547259	-0.348412	-0.680089	-0.341461	9.61475	0.693906	-1.51486	-0.0219084	0.00950912	-0.0229659	-1.06152	0.242676	-0.052002	0.336803	-0.639628	-0.393084	-0.568264	9.78084	0.0620184	-1.1969	0.0141178	0.0141421	-0.00331495	-0.919678	0.409912	0.297607	0.464457	-0.546862	-0.550705	-0.426551	9.72457	-0.339231	-1.93904	0.00220976	0.016747	-0.00248697	-1.01392	0.525146	0.157471	
48	0.925272	0.111704	0.165685	-0.322401	-3.60744	1.18236	10.5003	0.0222575	-0.0977286	-0.0566647	0.671631	0.154297	-0.734131	0.643166	-0.38517	-0.489831	-0.445025	9.69306	-0.782509	2.28966	-0.0544214	-0.0450669	-0.0240663	-0.681152	0.315674	-0.336426	0.88521	0.155839	0.437491	-0.0268278	-7.6268	2.41922	6.6326	0.00059494	-0.0350505	-0.0444092	0.881104	-0.247314	-0.189697	0.308846	-0.356512	0.664328	-0.579812	0.0524781	-9.6287	-1.38552	0.0654502	0.0407485	-0.0292749	-0.208984	0.875977	0.429688	0.858374	0.00803927	0.285414	-0.426226	-4.90731	-2.28585	8.0328	0.0559116	-0.0260642	-0.0705909	0.669434	0.490723	-0.503418	0.755061	0.514247	0.26898	0.305094	-2.85471	8.90507	6.83355	-0.0324016	-0.0614252	-0.043327	0.452148	-0.908936	0.112549	0.651475	-0.379426	-0.468475	-0.460594	9.72039	-0.940537	2.56763	-0.0305516	0.0283888	-0.025258	-0.785889	0.441406	-0.36499	0.482208	-0.512856	-0.512377	-0.491857	9.8152	0.0176752	-0.136724	-0.0341263	0.0218078	-0.00828092	-0.978516	0.413818	0.00366211	0.546773	-0.349055	-0.679911	-0.341937	9.57574	0.942145	-1.4545	-0.0515756	-0.00957383	-0.0135625	-1.05444	0.242676	-0.0432129	0.336934	-0.639597	-0.393076	-0.568228	9.6875	0.0781831	-1.14553	-0.00177325	0.0172722	0.00240657	-0.920166	0.416504	0.292969	0.464713	-0.54669	-0.550884	-0.426261	9.71966	-0.31735	-1.93999	0.0266667	0.00756581	-0.00161783	-1.01392	0.525146	0.164307	
49	0.925316	0.110271	0.164143	-0.323554	-3.46334	1.09526	10.3779	-0.0284183	-0.0646695	-0.0486825	0.669434	0.1521	-0.734131	0.641797	-0.386565	-0.490359	-0.44521	9.60633	-0.749015	2.27015	-0.0505054	-0.0625187	-0.031495	-0.681152	0.317871	-0.331787	0.886223	0.154533	0.43582	-0.0281055	-7.5808	2.40769	6.65142	-0.0213305	-0.0769526	-0.0600944	0.880859	-0.240723	-0.196777	0.308441	-0.355508	0.663368	-0.58174	0.119057	-9.5888	-1.31818	0.0750121	0.0621388	-0.0125904	-0.211426	0.880371	0.431885	0.858043	0.00767618	0.284478	-0.427522	-4.75254	-2.28467	8.01927	0.0087728	-0.0284791	-0.0574827	0.671631	0.488525	-0.510254	0.7563	0.513612	0.268096	0.303871	-2.88464	8.84762	6.9106	-0.0303873	-0.0465453	-0.0584717	0.449951	-0.908936	0.106201	0.65125	-0.379397	-0.468058	-0.46136	9.65298	-0.958936	2.63362	-0.00738988	0.033067	-0.0396697	-0.788086	0.443604	-0.369385	0.481459	-0.513632	-0.51165	-0.492538	9.70906	-0.0713395	-0.355399	-0.0544149	0.0129985	-0.019066	-0.985352	0.422607	0.00805664	0.545329	-0.350652	-0.679632	-0.343161	9.58736	0.755521	-1.80512	-0.0715342	-0.0266467	-0.0200366	-1.05664	0.238037	-0.0541992	0.336447	-0.639657	-0.39267	-0.568728	9.65258	0.130153	-1.06598	-0.034131	0.0205123	-0.00674064	-0.919922	0.412109	0.29541	0.464204	-0.547035	-0.550631	-0.426701	9.68825	-0.301305	-1.97162	-0.0354056	0.0049729	-0.0103511	-1.00952	0.525146	0.159668	
50	0.925428	0.108784	0.163197	-0.324215	-3.43609	0.780113	10.5407	-0.0259879	-0.0500721	-0.0348553	0.666992	0.158447	-0.738525	0.640359	-0.388402	-0.490514	-0.44551	9.75668	-0.728556	2.03138	-0.060612	-0.0403355	-0.0108628	-0.683594	0.320068	-0.329346	0.887	0.153426	0.434549	-0.029299	-7.66225	2.33835	6.75516	0.0187851	-0.0386386	-0.0525869	0.880859	-0.24292	-0.198975	0.30777	-0.354762	0.662858	-0.583131	0.0980315	-9.90231	-1.29641	0.0498085	0.0565539	-0.0178134	-0.213867	0.886963	0.427246	0.857837	0.00675754	0.283691	-0.428474	-4.89149	-2.37697	8.12042	0.00128191	-0.0382105	-0.0623092	0.665039	0.490723	-0.500977	0.757406	0.512837	0.267857	0.302633	-2.85774	8.969	7.03932	-0.0332008	-0.02143	-0.0707347	0.454102	-0.906738	0.0996094	0.651253	-0.37932	-0.467565	-0.461919	9.75781	-0.950138	2.77522	-0.00918633	0.0418154	-0.0225274	-0.788086	0.445801	-0.369385	0.480838	-0.514066	-0.511561	-0.492785	9.88688	-0.201761	-0.244034	-0.0175524	0.00187372	-0.0234757	-0.980957	0.418213	0.00585938	0.545164	-0.350752	-0.679803	-0.342982	9.69077	0.696758	-1.59634	0.0203139	-0.000358543	-0.0171985	-1.05884	0.238037	-0.0563965	0.335899	-0.639684	-0.392712	-0.568993	9.73783	-0.0949155	-1.13442	-0.00961856	0.0117784	-0.0106898	-0.926758	0.414062	0.29541	0.464022	-0.546925	-0.550841	-0.426768	9.71809	-0.417937	-1.92195	0.00949938	0.00357498	-0.0138841	-1.01172	0.525146	0.157471	
51	0.92528	0.108313	0.162494	-0.325147	-3.46441	0.830421	10.5149	0.0149396	-0.0263094	-0.0480853	0.662598	0.158447	-0.734375	0.638704	-0.390298	-0.49149	-0.445153	9.82961	-0.738717	2.28659	-0.0513028	-0.0685841	-0.0242611	-0.681396	0.322266	-0.32251	0.887484	0.153193	0.433539	-0.0308039	-7.57317	2.38349	6.808	0.0311107	-0.0330873	-0.0548529	0.878662	-0.238525	-0.196777	0.307075	-0.353764	0.662587	-0.584409	0.0592926	-9.78084	-1.11985	0.0300258	0.0614655	-0.00615609	-0.211426	0.880371	0.425293	0.857684	0.00604685	0.282781	-0.429391	-4.85959	-2.32513	8.30327	0.00233244	-0.0383901	-0.0483821	0.662598	0.49292	-0.507812	0.758166	0.512159	0.26819	0.301582	-2.99888	8.96806	7.06961	-0.00739265	0.0032643	-0.0615082	0.456299	-0.906738	0.0996094	0.651506	-0.378994	-0.467375	-0.462022	9.80326	-0.947489	2.72545	0.0287929	0.0375536	-0.020492	-0.783936	0.447998	-0.363037	0.480651	-0.514191	-0.511783	-0.492606	9.83894	-0.128415	-0.306469	0.0161082	0.0113469	-0.0217384	-0.980957	0.42041	0.00805664	0.545978	-0.349685	-0.680322	-0.341746	9.57985	0.829904	-1.62594	0.0935656	0.0196963	-0.0189212	-1.05884	0.238037	-0.0541992	0.335548	-0.639759	-0.392872	-0.569006	9.73518	0.0547444	-1.16743	-0.00263044	0.00610112	-0.00780619	-0.919922	0.412109	0.29541	0.463659	-0.546966	-0.550966	-0.42695	9.71424	-0.28674	-1.9315	-0.0144419	0.000957401	-0.0150183	-1.01392	0.525146	0.159668	
52	0.924873	0.108406	0.161974	-0.32653	-3.38053	1.05699	10.4498	0.0317119	-0.0110115	-0.0648393	0.664795	0.158447	-0.734375	0.637451	-0.391387	-0.492329	-0.445068	9.75346	-0.767625	2.20996	-0.0240878	-0.0611184	-0.0312861	-0.687744	0.317871	-0.319824	0.887723	0.153088	0.433006	-0.0319084	-7.53626	2.12403	6.78734	0.0408995	-0.000260289	-0.033001	0.874268	-0.231934	-0.197021	0.306652	-0.353383	0.662774	-0.58465	0.126142	-9.73954	-1.11251	0.00269266	0.0598287	0.000688464	-0.218262	0.884766	0.422852	0.857454	0.00547707	0.283047	-0.429683	-4.7079	-2.42899	8.29028	-0.014713	0.0202862	-0.0280693	0.662598	0.49292	-0.510254	0.758311	0.51201	0.268352	0.301325	-3.07324	8.90618	7.0836	0.00349669	0.00817697	-0.0413201	0.456299	-0.902344	0.10376	0.651587	-0.378681	-0.467402	-0.462137	9.58345	-0.978083	2.77021	0.0206117	0.00800179	-0.0248372	-0.781738	0.445801	-0.367188	0.480517	-0.51405	-0.512596	-0.492038	9.77816	-0.0479917	-0.455044	0.0383476	-0.0170586	-0.0296369	-0.982666	0.409424	0.0107422	0.546818	-0.348348	-0.680946	-0.340523	9.60416	0.829291	-1.68402	0.0792583	0.0216272	-0.0293446	-1.06616	0.242676	-0.0544434	0.33528	-0.639763	-0.392942	-0.56911	9.65035	0.172994	-1.22658	-0.0137752	0.00947691	-0.015559	-0.922119	0.412109	0.292969	0.463659	-0.546966	-0.550966	-0.42695	9.71424	-0.28674	-1.9315	-0.0144419	0.000957401	-0.0150183	-1.01392	0.525146	0.159668	
53	0.924611	0.108323	0.162452	-0.327064	-3.37117	1.00697	10.4284	-0.00516564	0.0253357	-0.0194268	0.666992	0.158447	-0.732178	0.636472	-0.392377	-0.493126	-0.444714	9.77906	-0.749111	2.22135	-0.0288882	-0.0545055	-0.0163615	-0.687744	0.317871	-0.317627	0.887546	0.153647	0.433148	-0.0322096	-7.55984	2.15995	6.78255	0.0659245	0.029172	-0.00571393	0.878662	-0.238525	-0.196777	0.305696	-0.352799	0.663862	-0.584269	0.20819	-9.69224	-1.20554	-0.039395	0.0537465	0.0175631	-0.220215	0.878174	0.423096	0.857309	0.00585527	0.283147	-0.429901	-4.74738	-2.33352	8.38409	0.0280626	0.0314038	-0.0249488	0.669189	0.49292	-0.505615	0.757838	0.512871	0.268608	0.300824	-3.01255	8.93827	7.0146	0.0580652	-0.00631522	-0.00906235	0.458496	-0.904541	0.104004	0.651653	-0.378489	-0.467819	-0.461778	9.71255	-0.898056	2.74123	0.0343043	0.0134554	-0.0143852	-0.788086	0.445801	-0.375732	0.480319	-0.513971	-0.513603	-0.491263	9.73266	-0.0299803	-0.316145	0.0367479	-0.0165445	-0.0274029	-0.980469	0.409424	0.00830078	0.547228	-0.347706	-0.681169	-0.340076	9.5448	0.784061	-1.66239	0.0731944	0.0261612	-0.0302741	-1.06128	0.238037	-0.0541992	0.334844	-0.639621	-0.393482	-0.569155	9.56483	0.084052	-1.17348	0.0161404	0.000234253	-0.0197523	-0.924561	0.414307	0.299805	0.463135	-0.546702	-0.551371	-0.427333	9.57348	-0.356278	-2.01895	0.0207665	-0.00133326	-0.0248585	-1.01611	0.525146	0.159668	
54	0.924531	0.108478	0.163027	-0.326951	-3.39418	0.875939	10.4674	0.00398574	0.0513612	-0.00636238	0.666992	0.160645	-0.73877	0.636296	-0.392408	-0.493395	-0.444639	9.7746	-0.749435	2.05775	0.00048511	-0.0103051	-0.029096	-0.687744	0.317871	-0.319824	0.887365	0.154331	0.433285	-0.0320859	-7.55337	2.37673	6.88265	0.0240292	0.0278229	0.0143995	0.880859	-0.238525	-0.198975	0.305221	-0.352577	0.66489	-0.583481	0.130947	-9.7912	-1.16318	-0.0487542	0.0172695	0.0215776	-0.21582	0.878174	0.429688	0.85659	0.00716222	0.284777	-0.430238	-4.82376	-2.32168	8.21857	0.0116496	0.102247	-0.0213889	0.669189	0.495117	-0.500977	0.757142	0.514362	0.267973	0.300598	-2.94344	8.90977	6.96527	0.0639527	-0.0288295	0.0238678	0.454102	-0.904541	0.108154	0.651496	-0.378673	-0.46802	-0.461646	9.70985	-0.955296	2.66433	0.00901929	-0.0119879	-0.0157811	-0.790283	0.443604	-0.371338	0.480147	-0.513947	-0.514127	-0.490907	9.80877	-0.00540631	-0.280673	0.0323693	-0.0213144	-0.0324358	-0.984863	0.411621	0.0107422	0.5476	-0.346849	-0.681649	-0.33939	9.58116	0.924557	-1.55136	0.0350541	0.00470625	-0.0296774	-1.05688	0.242676	-0.0541992	0.334674	-0.639454	-0.394385	-0.568816	9.74728	0.0817303	-1.21287	0.0195487	0.00142234	-0.0257027	-0.919922	0.412109	0.299805	0.463271	-0.546117	-0.552197	-0.426867	9.72782	-0.359744	-1.97753	0.0492835	-0.00299918	-0.0264219	-1.01172	0.527344	0.157471	
55	0.924264	0.109584	0.164048	-0.326827	-3.5712	0.87598	10.4989	0.0462772	0.0490405	-0.00910701	0.666992	0.15625	-0.732178	0.635706	-0.392582	-0.494776	-0.443796	9.78407	-0.745955	2.0201	0.0259896	-0.0585725	-0.0212103	-0.685791	0.320312	-0.310547	0.887039	0.154526	0.433961	-0.0310133	-7.52533	2.27113	6.72489	0.024492	0.0630968	0.0365698	0.874512	-0.238525	-0.189941	0.304909	-0.352995	0.66588	-0.582261	0.0228526	-9.71131	-1.25926	-0.0668852	0.0013734	0.0119927	-0.213623	0.880371	0.431885	0.856109	0.00861074	0.286453	-0.430057	-5.01888	-2.35471	8.08989	0.0200209	0.0866322	0.00880994	0.665039	0.488281	-0.491943	0.756114	0.515852	0.267609	0.300955	-2.88808	8.91656	6.92848	0.0744111	0.0102668	0.0384304	0.460449	-0.902344	0.10376	0.651324	-0.378433	-0.469144	-0.460944	9.75298	-0.988874	2.63419	0.0695431	-0.0123561	-0.019213	-0.787842	0.441406	-0.369141	0.479594	-0.513932	-0.514506	-0.491068	9.82704	-0.0434272	-0.244148	-0.00527264	-0.00519443	-0.0304783	-0.985107	0.416016	0.010498	0.5473	-0.34669	-0.682122	-0.339084	9.57826	0.914771	-1.51193	0.0104542	-0.0183432	-0.0277606	-1.0564	0.23584	-0.0498047	0.334301	-0.639346	-0.395042	-0.568702	9.71548	0.150212	-1.08898	0.00195488	-0.00350285	-0.0243437	-0.921875	0.407715	0.293213	0.463067	-0.54572	-0.552852	-0.426747	9.73008	-0.19745	-1.90636	0.000803973	-0.00617134	-0.0295501	-1.01611	0.522949	0.152832	
56	0.924074	0.11074	0.164849	-0.326572	-3.44747	1.07525	10.4265	0.0303477	0.0575523	0.0092362	0.671387	0.158447	-0.72998	0.635636	-0.392186	-0.496032	-0.442843	9.74058	-0.775215	2.05856	0.0564135	-0.0288048	-0.0276131	-0.687744	0.318115	-0.312744	0.886395	0.155682	0.434899	-0.0304959	-7.62898	2.37915	6.71357	0.043585	0.059938	0.0260596	0.878662	-0.240723	-0.192139	0.304613	-0.353313	0.667464	-0.580407	0.108055	-9.71869	-1.26608	-0.0990498	0.000400656	0.0339494	-0.215576	0.875977	0.436279	0.856008	0.00976401	0.287635	-0.429443	-4.69658	-2.29621	8.01858	0.0100714	0.0650178	0.020317	0.669189	0.49292	-0.498779	0.754628	0.517229	0.268225	0.301772	-2.91783	8.87158	6.93167	0.0826001	0.0539153	0.0280935	0.454346	-0.906738	0.118896	0.652129	-0.37736	-0.469993	-0.459819	9.69666	-0.947157	2.67678	0.0816352	0.00928468	-0.00652292	-0.781494	0.441406	-0.373535	0.479351	-0.513684	-0.515285	-0.490747	9.75617	-0.00259021	-0.345189	0.0346636	-0.00433799	-0.0401984	-0.984619	0.407471	0.00366211	0.546473	-0.346908	-0.682669	-0.339096	9.59372	0.85548	-1.6199	-0.00166472	-0.0300841	-0.0339054	-1.05884	0.238037	-0.0541992	0.333628	-0.639164	-0.395635	-0.568889	9.63784	0.143855	-1.16389	-0.00607194	0.00364085	-0.0334164	-0.921875	0.407715	0.29541	0.462311	-0.545649	-0.553453	-0.426878	9.69577	-0.20602	-1.97237	1.29899e-05	-0.0189834	-0.0343749	-1.02051	0.518555	0.159912	
57	0.923846	0.111949	0.166797	-0.325814	-3.50516	0.966901	10.4976	0.0246954	0.104197	0.0187423	0.676025	0.154297	-0.725586	0.635938	-0.391471	-0.496898	-0.442071	9.79945	-0.761017	1.9802	0.0435938	0.00374595	-0.0170644	-0.685547	0.315918	-0.317383	0.885901	0.15648	0.435688	-0.0294936	-7.72153	2.25676	6.6862	0.0262156	0.0627349	0.0478608	0.876709	-0.24292	-0.189697	0.304347	-0.35356	0.669173	-0.578426	0.142429	-9.69054	-1.35852	-0.0853727	0.00706778	0.0366877	-0.213623	0.880127	0.440674	0.856003	0.00957694	0.289788	-0.428008	-4.982	-2.36295	8.17595	-0.0698452	0.0750581	0.0300668	0.676025	0.488525	-0.494141	0.753031	0.518432	0.26943	0.302621	-2.89353	8.90195	6.83363	0.0715487	0.0665204	0.0247934	0.452148	-0.904541	0.121094	0.65321	-0.375475	-0.470619	-0.459187	9.73778	-0.951802	2.79044	0.0943815	0.0366708	-0.0173824	-0.785889	0.443604	-0.373535	0.478667	-0.513727	-0.515852	-0.490774	9.87905	0.105732	-0.407822	-0.0162635	-0.00314952	-0.0428918	-0.980713	0.413818	0.0129395	0.54519	-0.347627	-0.683026	-0.339704	9.62808	0.985398	-1.60477	-0.0665673	-0.0392622	-0.0342899	-1.05884	0.238037	-0.052002	0.332625	-0.639296	-0.396206	-0.568931	9.73456	0.125013	-1.24091	-0.0223462	-0.0126634	-0.0310316	-0.917236	0.40332	0.297852	0.461573	-0.545486	-0.553942	-0.427252	9.7391	-0.307766	-2.05947	-0.000613588	-0.00224536	-0.0363871	-1.02271	0.520752	0.164307	
58	0.923757	0.113244	0.168722	-0.324625	-3.58678	0.858928	10.3917	0.0222651	0.103299	0.0388426	0.680176	0.156494	-0.725586	0.63638	-0.39086	-0.497475	-0.441325	9.78382	-0.628068	2.10222	0.0416156	0.00140045	-0.0196753	-0.692139	0.320068	-0.315186	0.885266	0.157402	0.436735	-0.0281283	-7.57022	2.3361	6.71245	0.0267805	0.0845276	0.0452407	0.881104	-0.249512	-0.182861	0.30432	-0.354284	0.670391	-0.576583	0.18914	-9.81608	-1.34709	-0.0939746	-0.0302578	0.0227954	-0.20874	0.871582	0.442871	0.85591	0.0114724	0.291268	-0.427141	-4.73079	-2.35899	8.29681	0.0525707	0.103726	0.0406192	0.678223	0.486328	-0.496582	0.751501	0.519688	0.269565	0.304147	-3.0176	9.0183	6.94393	0.0688297	0.0371206	0.0729275	0.443604	-0.908936	0.125488	0.654486	-0.373909	-0.470923	-0.458336	9.76419	-0.841344	2.63965	0.0923674	0.0629505	-0.00859178	-0.785889	0.441406	-0.377686	0.477834	-0.513895	-0.516346	-0.49089	9.74159	-0.106004	-0.515591	0.00201704	-0.0134917	-0.041792	-0.982666	0.409424	0.0153809	0.543956	-0.348363	-0.683298	-0.340381	9.58983	0.740052	-1.76245	-0.0237181	-0.0274645	-0.0360375	-1.05884	0.235596	-0.0407715	0.331495	-0.6396	-0.396695	-0.568908	9.67827	0.152089	-1.2199	-0.0273064	-0.0152739	-0.0346119	-0.92627	0.405273	0.300049	0.460613	-0.545477	-0.554235	-0.427918	9.65384	-0.281503	-2.032	-0.0334331	-0.00356897	-0.0396867	-1.02026	0.516357	0.171143	
59	0.923467	0.115396	0.171071	-0.323462	-3.69772	0.997284	10.4651	0.0523125	0.123839	0.0294543	0.689209	0.1521	-0.718994	0.636746	-0.390174	-0.497732	-0.441114	9.74813	-0.644564	1.94374	0.0227682	0.046892	-0.0228959	-0.694092	0.311523	-0.3125	0.884242	0.159006	0.438369	-0.0257913	-7.70421	2.46693	6.57135	0.0227088	0.110054	0.111463	0.876953	-0.251465	-0.178223	0.30438	-0.35493	0.672435	-0.573767	0.0853028	-9.64912	-1.40368	-0.153698	-0.0251399	0.0543043	-0.206543	0.871338	0.453857	0.855638	0.0128185	0.294334	-0.425544	-5.06722	-2.33548	8.14828	-0.0382771	0.148252	0.048964	0.687012	0.484131	-0.489502	0.749179	0.521954	0.270223	0.305408	-2.89013	9.05488	6.90103	0.114409	0.047373	0.0701829	0.443848	-0.915283	0.125732	0.655113	-0.372907	-0.471632	-0.457526	9.63816	-0.861593	2.70604	0.080409	-0.00687833	-0.015996	-0.785889	0.441406	-0.377686	0.477382	-0.513707	-0.517734	-0.490064	9.74201	0.00936114	-0.487419	0.0489421	-0.0304412	-0.0450378	-0.980469	0.409424	0.0129395	0.543309	-0.348191	-0.683909	-0.340363	9.56342	0.785996	-1.75342	0.0243816	-0.0182844	-0.0438546	-1.06104	0.23584	-0.0476074	0.330543	-0.639601	-0.397557	-0.568858	9.65612	0.159971	-1.27819	0.00509303	-0.0130872	-0.0405414	-0.919434	0.398926	0.304688	0.460056	-0.545055	-0.554972	-0.428101	9.67898	-0.287092	-2.03145	0.0179237	-0.00512524	-0.0427202	-1.01123	0.51416	0.157715	
60	0.92322	0.116356	0.172248	-0.323199	-3.68572	0.913704	10.3821	0.047471	0.119492	0.00638029	0.682617	0.1521	-0.723389	0.636785	-0.390122	-0.497769	-0.441062	9.73805	-0.631919	2.11229	0.00234567	0.0138076	-0.018505	-0.691895	0.311523	-0.317383	0.883594	0.160051	0.439354	-0.0247512	-7.64024	2.41541	6.50208	0.0587325	0.122571	0.0936674	0.876953	-0.253662	-0.177979	0.304145	-0.355379	0.673982	-0.571795	-0.0537331	-9.58332	-1.58491	-0.193143	-0.0177166	0.0586817	-0.210938	0.871338	0.45166	0.855441	0.0138823	0.295824	-0.424872	-4.98837	-2.48448	8.03848	0.00736156	0.150981	0.0485074	0.685059	0.477295	-0.480469	0.747801	0.523363	0.270437	0.306185	-2.90506	8.96172	6.69332	0.139086	0.0483526	0.0896099	0.439453	-0.911133	0.127686	0.655534	-0.372234	-0.472243	-0.45684	9.70799	-0.955843	2.56652	0.0600309	0.0298035	-0.0146995	-0.776855	0.435059	-0.377686	0.477107	-0.513616	-0.518342	-0.489786	9.81937	-0.00209507	-0.438229	0.0302803	-0.0231537	-0.046372	-0.984619	0.407227	0.0129395	0.543111	-0.347924	-0.684282	-0.340203	9.58426	0.845458	-1.69306	0.0281266	-0.0159554	-0.0430951	-1.05859	0.231201	-0.0473633	0.330233	-0.639534	-0.398101	-0.568734	9.63829	0.143736	-1.27784	0.0151203	-0.0126737	-0.0378326	-0.924072	0.40332	0.304688	0.460055	-0.54464	-0.55553	-0.427906	9.68618	-0.340842	-2.03284	0.0437546	-0.00682311	-0.0393481	-1.02026	0.51416	0.168945	
61	0.922479	0.119029	0.174914	-0.322908	-3.79989	0.996345	10.3899	0.0830117	0.150721	0.00493694	0.687256	0.149902	-0.716797	0.637422	-0.388966	-0.498056	-0.440839	9.54746	-0.799292	2.20747	0.0448847	0.00193311	-0.0326672	-0.689697	0.311523	-0.31958	0.882356	0.162683	0.440954	-0.0232737	-7.80013	2.629	6.32375	0.0689406	0.0896317	0.081123	0.87915	-0.256104	-0.171143	0.304035	-0.355505	0.676326	-0.569001	0.131291	-9.52255	-1.66075	-0.117315	0.00528394	0.068392	-0.201904	0.866943	0.456299	0.855321	0.0158556	0.298482	-0.423182	-5.12176	-2.07861	7.80934	-0.009912	0.120277	0.0636128	0.691406	0.486328	-0.482666	0.745456	0.525533	0.270862	0.307806	-2.57247	8.99786	6.58655	0.0976087	0.059817	0.0695305	0.4375	-0.915283	0.13208	0.655758	-0.371774	-0.472296	-0.456839	9.68164	-0.99611	2.54273	0.0438432	0.0377928	-0.0285471	-0.787598	0.435059	-0.377686	0.476795	-0.513182	-0.519478	-0.48934	9.82368	0.118894	-0.456635	0.0419693	-0.0103418	-0.0481068	-0.986816	0.405029	0.0153809	0.541979	-0.34829	-0.68466	-0.340872	9.60509	1.14386	-1.61203	-0.066559	-0.0285262	-0.0470232	-1.06323	0.22876	-0.0407715	0.329552	-0.639494	-0.39898	-0.568557	9.73578	0.285654	-1.22229	-0.00830573	-0.00314248	-0.0316065	-0.921631	0.398926	0.304688	0.459553	-0.544217	-0.556272	-0.42802	9.68094	-0.112572	-2.02343	-0.0167607	-0.00709449	-0.0394195	-1.02026	0.51416	0.171387	
62	0.921991	0.121364	0.176975	-0.322309	-4.01186	1.24616	10.3467	0.0618669	0.114158	0.0185483	0.698242	0.147949	-0.712402	0.637381	-0.38879	-0.498277	-0.440805	9.63241	-0.746504	1.64753	0.00111593	0.012683	-0.022901	-0.6875	0.311523	-0.322021	0.881801	0.163979	0.441663	-0.0217118	-7.7431	2.57118	6.43302	0.0455002	0.0690656	0.0596567	0.877197	-0.262451	-0.166504	0.303736	-0.355492	0.678674	-0.566367	-0.0327837	-9.50653	-1.7704	-0.130906	0.00738902	0.0554492	-0.201416	0.858154	0.465332	0.854982	0.0172953	0.300943	-0.422067	-5.00349	-2.27618	7.84008	0.00672484	0.125438	0.0377567	0.693604	0.481934	-0.480469	0.743358	0.527483	0.271408	0.309061	-2.63817	8.99678	6.50414	0.10553	0.0420562	0.0585539	0.430908	-0.911133	0.140625	0.656582	-0.370491	-0.472342	-0.456651	9.65535	-0.882287	2.63074	0.0626266	0.062816	-0.020735	-0.783447	0.439209	-0.381836	0.476342	-0.512906	-0.520286	-0.489213	9.66178	-0.0311391	-0.521197	0.0133848	-0.000910704	-0.044023	-0.990967	0.405029	0.0131836	0.540883	-0.348616	-0.685087	-0.341422	9.4871	0.78622	-1.73474	-0.00110706	-0.0270805	-0.0426645	-1.05835	0.226562	-0.0383301	0.328952	-0.639398	-0.399706	-0.568503	9.61288	0.345762	-1.29974	-0.000280936	-0.00100723	-0.0345859	-0.923828	0.398926	0.300293	0.459014	-0.543841	-0.55715	-0.427934	9.64204	-0.112426	-2.05864	0.0127653	-0.0119269	-0.0375224	-1.02246	0.513916	0.164551	
63	0.921728	0.122479	0.179115	-0.321456	-4.10629	1.0032	10.4	0.0157407	0.0956598	0.0188209	0.696289	0.141357	-0.712402	0.637616	-0.388259	-0.498827	-0.440309	9.74023	-0.586104	2.04425	0.0228652	0.0564391	-0.0231765	-0.685547	0.313721	-0.314941	0.881134	0.165342	0.442532	-0.020727	-7.76959	2.72182	6.45037	0.0333909	0.0631597	0.0463223	0.881348	-0.264648	-0.166504	0.303444	-0.355522	0.6803	-0.564551	-0.14623	-9.66116	-1.81591	-0.0720822	0.00799642	0.0367337	-0.201904	0.866943	0.465088	0.854633	0.0187072	0.302888	-0.421321	-5.24502	-2.15808	7.87456	0.0119852	0.0997866	0.00866286	0.696045	0.479492	-0.473633	0.741969	0.528768	0.271463	0.310154	-2.6194	9.07719	6.50517	0.0593651	0.0302678	0.045349	0.433105	-0.911133	0.142822	0.657493	-0.369526	-0.471215	-0.457286	9.6212	-0.746468	2.7447	0.0169302	0.08747	-0.0192683	-0.779053	0.437256	-0.38623	0.476281	-0.5124	-0.521716	-0.488277	9.74884	-0.0223851	-0.669202	0.0728233	-0.0206857	-0.0393808	-0.986572	0.402832	0.0202637	0.540492	-0.348044	-0.685835	-0.341122	9.54272	0.729712	-1.84419	0.0535968	-0.00655241	-0.0439837	-1.06323	0.230957	-0.0407715	0.328497	-0.63914	-0.400278	-0.568654	9.58412	0.178704	-1.31676	0.0158308	0.00560923	-0.0227617	-0.923828	0.401123	0.304688	0.458888	-0.543295	-0.558092	-0.427534	9.57652	-0.315268	-2.06907	0.0621325	-0.0130365	-0.027821	-1.02246	0.511719	0.168945	
64	0.92148	0.123638	0.180287	-0.321069	-4.03384	0.972997	10.3418	0.0422138	0.0599355	0.00175035	0.700928	0.13916	-0.710205	0.638549	-0.387131	-0.498061	-0.440817	9.85985	-0.589392	1.96232	0.021577	0.0899907	-0.0273484	-0.689453	0.307129	-0.324219	0.880685	0.166166	0.443161	-0.0197915	-7.74056	2.62972	6.45484	0.0248721	0.0497238	0.0448735	0.877197	-0.269043	-0.164062	0.303178	-0.355701	0.682119	-0.562381	-0.110385	-9.67462	-1.80182	-0.104291	0.000930368	0.044937	-0.199463	0.864746	0.469482	0.854317	0.0194189	0.304279	-0.420927	-5.23346	-2.23127	8.02605	-0.00067808	0.0606593	0.00841061	0.696045	0.479492	-0.47583	0.740484	0.530298	0.272076	0.310553	-2.68909	9.15093	6.55329	0.0870028	0.0297423	0.019011	0.426758	-0.913086	0.151367	0.657943	-0.36903	-0.470514	-0.45776	9.7486	-0.895783	2.5852	0.00979343	0.0274242	-0.0232437	-0.78125	0.437256	-0.388184	0.47655	-0.511517	-0.523446	-0.487088	9.7604	0.113411	-0.584859	0.0800647	-0.0142665	-0.0440116	-0.986816	0.407227	0.0153809	0.540857	-0.346302	-0.686951	-0.340068	9.50553	0.858879	-1.84481	0.0884896	-0.000836164	-0.0454019	-1.0564	0.231201	-0.045166	0.328917	-0.638423	-0.401668	-0.568237	9.6554	0.456779	-1.43646	0.0586193	0.0149523	-0.0325958	-0.93042	0.396484	0.304932	0.459372	-0.542234	-0.559634	-0.426345	9.66823	-0.0370989	-2.1653	0.0796419	-0.0160236	-0.0343253	-1.02026	0.51416	0.171387	
65	0.920973	0.125552	0.181306	-0.321205	-3.91569	1.30059	10.2463	0.0714597	0.07163	-0.0136603	0.705078	0.143555	-0.705811	0.638526	-0.386808	-0.498492	-0.440647	9.65832	-0.721475	2.03101	0.00349092	-0.00929709	-0.0323846	-0.691895	0.311279	-0.324463	0.879995	0.167745	0.443986	-0.0186156	-7.76763	2.79401	6.35372	0.0523815	0.0593927	0.0644182	0.877197	-0.269043	-0.159424	0.303103	-0.355802	0.683865	-0.560234	-0.11939	-9.58237	-1.82286	-0.0980122	-0.00365168	0.0497016	-0.194824	0.858154	0.474121	0.85414	0.020225	0.30496	-0.420756	-5.24677	-2.21363	8.17913	0.0288303	0.0867852	0.0119799	0.698242	0.475098	-0.471436	0.739037	0.532083	0.271809	0.311179	-2.71232	9.17857	6.5441	0.0817544	0.00134343	0.0594069	0.424561	-0.915283	0.151611	0.658234	-0.368499	-0.470761	-0.457516	9.62394	-0.90694	2.72382	0.0321381	0.0255574	-0.0205759	-0.783447	0.435059	-0.390381	0.4767	-0.510894	-0.524362	-0.48661	9.73019	0.0884559	-0.592483	0.0315006	0.0107041	-0.0361153	-0.993164	0.402832	0.0202637	0.540852	-0.345403	-0.687686	-0.339506	9.52413	0.826167	-1.78374	0.0498806	-0.00362269	-0.0373775	-1.06299	0.224121	-0.0383301	0.329094	-0.637687	-0.40259	-0.568308	9.58726	0.340316	-1.33834	0.0281773	0.0281278	-0.0275777	-0.923584	0.394531	0.300293	0.459527	-0.541442	-0.560696	-0.425787	9.56588	-0.18588	-2.09139	0.0482287	-0.00626299	-0.0312332	-1.02441	0.509521	0.162354	
66	0.9206	0.127046	0.182867	-0.320802	-4.14245	1.2062	10.3178	0.0386856	0.0859101	0.00921918	0.707275	0.143555	-0.703613	0.638026	-0.386923	-0.499281	-0.440378	9.71744	-0.692754	1.90606	0.0195098	-0.0187333	-0.0343537	-0.69165	0.307129	-0.317139	0.879529	0.168904	0.444513	-0.0175549	-7.74281	2.75382	6.32615	0.0524338	0.0500285	0.0449484	0.885742	-0.269043	-0.161621	0.303009	-0.355847	0.684765	-0.559156	-0.216855	-9.67108	-1.81436	-0.102587	0.0023836	0.0468291	-0.194824	0.858154	0.471924	0.85414	0.020225	0.30496	-0.420756	-5.24677	-2.21363	8.17913	0.0288303	0.0867852	0.0119799	0.698242	0.475098	-0.471436	0.737455	0.534152	0.271161	0.311951	-2.56029	9.17746	6.5015	0.086904	-0.00326428	0.0617835	0.422363	-0.911133	0.159912	0.6584	-0.368038	-0.470882	-0.457524	9.64995	-0.773434	2.65379	0.0367166	0.0152407	-0.0257911	-0.778809	0.430664	-0.392334	0.477448	-0.509839	-0.525136	-0.486148	9.74284	0.0847151	-0.442404	0.0797567	0.0392278	-0.0316912	-0.988525	0.398438	0.015625	0.540959	-0.344401	-0.688438	-0.338827	9.52818	0.839754	-1.80219	0.0728789	-0.000681658	-0.0409525	-1.06055	0.221924	-0.0427246	0.330001	-0.636856	-0.403657	-0.567956	9.69412	0.187775	-1.25531	0.0830347	0.0180602	-0.00854784	-0.921387	0.394531	0.295654	0.460534	-0.540204	-0.562454	-0.423951	9.83628	-0.267613	-1.96991	0.141023	-0.0228982	-0.0162695	-1.02246	0.513916	0.164551	
67	0.920187	0.128489	0.184165	-0.320672	-4.17259	1.29371	10.4368	0.0458247	0.066366	-0.00821445	0.709717	0.136963	-0.699219	0.637846	-0.386615	-0.499913	-0.440191	10.0195	-0.639878	1.82021	0.0254094	-0.00267565	-0.0305061	-0.6875	0.309326	-0.314941	0.879353	0.170087	0.444431	-0.0170426	-7.901	2.7847	6.38639	0.0446337	0.00904653	0.040205	0.873047	-0.275391	-0.15918	0.302417	-0.35504	0.687951	-0.55607	-0.249374	-9.67296	-2.08596	-0.0790641	0.0360022	0.0647732	-0.192383	0.85376	0.48291	0.852325	0.0253458	0.310226	-0.42031	-5.28632	-2.156	7.86497	0.0330682	0.117052	0.014542	0.709229	0.4729	-0.464355	0.736189	0.535614	0.271058	0.312522	-2.53722	9.16645	6.29559	0.0520421	0.0181763	0.0289786	0.42041	-0.91748	0.155762	0.659115	-0.36665	-0.471362	-0.457114	9.98134	-0.994261	2.69597	0.0685132	0.063032	-0.0300891	-0.774414	0.42627	-0.394287	0.477694	-0.508966	-0.525838	-0.486061	9.9071	0.150043	-0.50679	0.0295542	0.0286117	-0.0466912	-0.986816	0.405029	0.0153809	0.540819	-0.343557	-0.689106	-0.33855	9.63567	1.13577	-1.77478	-0.00639377	-0.00253582	-0.0493685	-1.06519	0.221924	-0.0383301	0.330238	-0.636057	-0.40445	-0.56815	9.74429	0.608238	-1.36951	-0.00597356	0.03832	-0.0281052	-0.932373	0.39209	0.298096	0.460593	-0.539508	-0.563112	-0.423898	9.7603	0.122377	-2.20801	-0.0261671	0.014958	-0.0347025	-1.02002	0.507324	0.162354	
68	0.920093	0.128742	0.184579	-0.3206	-4.16324	1.28538	10.296	0.0161393	0.0414547	-0.00612137	0.709717	0.137207	-0.703613	0.637821	-0.386565	-0.500014	-0.440157	9.91464	-0.673129	1.95064	0.0018774	0.00849562	-0.0236939	-0.689453	0.302734	-0.323975	0.879437	0.170405	0.444146	-0.0169407	-7.77004	2.90625	6.48903	0.0325453	-0.00664484	0.0202059	0.873291	-0.281982	-0.156738	0.302263	-0.354625	0.688594	-0.555623	-0.418973	-9.59729	-2.01308	-0.0469569	0.0376456	0.0470625	-0.19043	0.858154	0.487305	0.852325	0.0253458	0.310226	-0.42031	-5.28632	-2.156	7.86497	0.0330682	0.117052	0.014542	0.709229	0.4729	-0.464355	0.735969	0.535752	0.270962	0.312889	-2.51829	9.05865	6.30919	0.0153614	0.0195336	0.0222823	0.422363	-0.915283	0.155762	0.659684	-0.365745	-0.471112	-0.457275	9.89496	-0.926327	2.97518	0.059416	0.0873938	-0.0320315	-0.783203	0.432861	-0.392334	0.477851	-0.508547	-0.526288	-0.485859	9.69666	0.0585706	-0.696532	0.0512813	0.0169667	-0.039923	-0.988525	0.398682	0.0109863	0.540629	-0.343419	-0.689212	-0.338778	9.50262	0.7604	-1.90169	-0.00537713	0.00363046	-0.0449296	-1.06055	0.224365	-0.0429688	0.330011	-0.635869	-0.40447	-0.568478	9.53804	0.326481	-1.23286	-0.0161353	0.031599	-0.0227823	-0.930176	0.389893	0.302734	0.460417	-0.539348	-0.563205	-0.424169	9.55687	-0.257895	-2.10514	-0.0093564	0.0142179	-0.0308829	-1.02222	0.505127	0.160156	
69	0.919676	0.12975	0.185623	-0.320789	-4.05351	0.993547	10.1143	0.0569501	0.0702941	-0.0284155	0.711914	0.137207	-0.701416	0.637732	-0.386149	-0.500148	-0.440497	9.44499	-0.442398	2.06149	-1.00955e-05	0.0146318	-0.0414107	-0.693848	0.309326	-0.317139	0.879173	0.170885	0.444501	-0.0165164	-7.66114	2.65391	6.33489	0.0310363	0.0572367	0.0378452	0.881592	-0.277832	-0.15918	0.302175	-0.354577	0.689562	-0.554499	-0.0466301	-9.66266	-1.96601	-0.0527628	-0.00165074	0.030081	-0.192627	0.858154	0.48291	0.852037	0.027125	0.311736	-0.419665	-5.32782	-2.0383	7.7991	0.00754237	0.0732105	0.013627	0.71167	0.470703	-0.464355	0.735432	0.536156	0.270665	0.313715	-2.50292	9.24377	6.43164	0.0213358	0.0214351	0.028418	0.413818	-0.915283	0.157959	0.659747	-0.365307	-0.471433	-0.457205	9.30591	-0.550232	2.65434	0.0268573	-0.0278066	-0.0256769	-0.778809	0.428467	-0.394531	0.47843	-0.507556	-0.527331	-0.485196	9.71037	0.187139	-0.53403	0.0686022	0.017887	-0.0337167	-0.984375	0.400879	0.0131836	0.541035	-0.342181	-0.689816	-0.338151	9.46876	0.975131	-1.77513	0.0726558	0.0169059	-0.0424568	-1.0603	0.217529	-0.0427246	0.330425	-0.635117	-0.405252	-0.568521	9.54146	0.304589	-1.33456	0.0378531	0.0219711	-0.0216266	-0.927979	0.39209	0.295898	0.460668	-0.538645	-0.563812	-0.423986	9.59215	-0.125833	-2.17632	0.0404348	0.0128086	-0.0248988	-1.02686	0.509521	0.162354	
70	0.918919	0.131902	0.1868	-0.321397	-4.30101	1.32963	10.25	0.0795575	0.0684744	-0.0267541	0.712402	0.130615	-0.694824	0.636983	-0.386681	-0.501136	-0.439992	9.73632	-0.58708	1.8888	-0.00581714	-0.0621823	-0.0225306	-0.69165	0.307129	-0.317139	0.878872	0.1717	0.444842	-0.014797	-7.80028	2.98459	6.18181	0.0115424	0.0200943	0.0717229	0.879639	-0.277832	-0.150146	0.302392	-0.354316	0.690739	-0.55308	-0.266388	-9.41815	-2.11031	-0.0751147	0.00450274	0.0556129	-0.183594	0.855957	0.485107	0.852078	0.0284196	0.312619	-0.418838	-5.57511	-2.25439	7.87037	0.0432904	0.0521848	0.0337407	0.709473	0.468506	-0.462158	0.7345	0.536902	0.27086	0.314453	-2.57724	9.21279	6.30101	0.0532951	0.0309512	0.029748	0.416016	-0.91748	0.160156	0.659129	-0.365646	-0.472686	-0.45653	9.90328	-0.822485	2.62157	0.0299594	-0.0280568	-0.0237011	-0.782959	0.42627	-0.394531	0.478574	-0.507116	-0.527466	-0.485367	9.78717	0.0965175	-0.589113	0.00697172	0.0303025	-0.0267986	-0.988525	0.396484	0.00146484	0.540893	-0.341827	-0.689973	-0.338417	9.57749	0.904018	-1.86845	-0.0141148	0.0113986	-0.0394338	-1.06274	0.219727	-0.0383301	0.330983	-0.634472	-0.405868	-0.568477	9.66648	0.39511	-1.25084	0.0360546	0.0294367	-0.0096463	-0.932373	0.39209	0.298096	0.460889	-0.538071	-0.564199	-0.423958	9.66658	-0.15105	-2.10184	0.0201547	0.0170798	-0.0211155	-1.02222	0.505127	0.162354	
71	0.918425	0.133565	0.187293	-0.321833	-4.34271	1.33166	10.2617	0.0700949	0.0379226	-0.0167288	0.714355	0.132812	-0.697021	0.635706	-0.387419	-0.502856	-0.439227	9.86671	-0.573995	1.97675	-0.000802113	-0.0638935	-0.0385802	-0.69165	0.304932	-0.314697	0.878936	0.172316	0.444503	-0.0139541	-7.79667	2.89419	6.1797	0.0131024	3.2693e-05	0.0421145	0.879639	-0.28418	-0.1521	0.302461	-0.35349	0.692056	-0.551924	-0.290656	-9.63195	-2.17229	-0.0307681	0.0318549	0.0593131	-0.187988	0.855957	0.487305	0.852284	0.03031	0.313006	-0.417995	-5.36345	-1.91222	7.81879	0.0358753	0.0428386	0.0375297	0.718506	0.461914	-0.459961	0.733807	0.537525	0.27039	0.315409	-2.42752	9.23131	6.3418	0.0111642	0.00709711	0.0386411	0.414062	-0.921875	0.158203	0.659302	-0.365287	-0.472419	-0.456845	9.64533	-0.732966	2.86613	0.0171319	0.0291104	-0.0266735	-0.783203	0.430664	-0.394531	0.479099	-0.506368	-0.527855	-0.485206	9.84455	0.120524	-0.341657	0.0523232	0.0430706	-0.0248505	-0.986572	0.400879	0.00854492	0.541312	-0.340824	-0.690386	-0.337917	9.54555	1.08775	-1.62818	0.0431938	0.0157097	-0.0354416	-1.06494	0.215088	-0.0471191	0.331822	-0.633691	-0.406607	-0.568331	9.65834	0.249222	-1.14124	0.0585516	0.0362254	-0.00453577	-0.925781	0.392334	0.295898	0.461154	-0.537557	-0.564833	-0.423478	9.68636	-0.218709	-1.92151	0.046735	-0.00513829	-0.0128899	-1.02466	0.513916	0.155273	
72	0.918223	0.135168	0.186796	-0.322031	-4.20489	1.41462	10.3003	0.0712295	-0.00288125	-0.00151814	0.712158	0.132812	-0.694824	0.635174	-0.387131	-0.503863	-0.439096	9.77804	-0.609131	1.87158	0.0193419	-0.0318384	-0.0459367	-0.696045	0.304932	-0.312256	0.87951	0.173314	0.442977	-0.0139718	-7.88311	2.97435	6.31366	0.0419137	-0.0634917	0.0262824	0.879639	-0.281982	-0.154541	0.302371	-0.351895	0.693517	-0.551158	-0.368163	-9.51837	-2.18477	-0.038149	0.0584343	0.0719778	-0.183594	0.85376	0.487305	0.852414	0.0311649	0.3137	-0.417146	-5.51901	-1.98972	7.75101	0.0118084	0.0435309	0.015819	0.716309	0.464111	-0.45752	0.733279	0.538161	0.270124	0.31578	-2.32808	9.17599	6.32993	0.0369725	0.00526478	0.0144148	0.413818	-0.913086	0.164307	0.658748	-0.365289	-0.473479	-0.456544	9.82255	-0.830891	2.65343	0.032882	-0.0151547	-0.0355688	-0.778564	0.42627	-0.392334	0.479417	-0.505706	-0.528094	-0.485322	9.83803	0.156491	-0.536922	0.00287255	0.0308801	-0.0391654	-0.993164	0.400635	0.0107422	0.541318	-0.340248	-0.690651	-0.337946	9.64628	0.961613	-1.86416	0.0233882	0.0131374	-0.0411608	-1.05811	0.219727	-0.0427246	0.332303	-0.633123	-0.406818	-0.568533	9.76359	0.522251	-1.36292	0.00143926	0.0349409	-0.00531848	-0.923828	0.398926	0.291016	0.461347	-0.537245	-0.564991	-0.423453	9.79743	0.105381	-2.24506	-0.0281129	0.02405	-0.0114309	-1.02222	0.509521	0.157715	
73	0.918157	0.136312	0.186234	-0.32206	-4.2766	1.3557	10.16	0.057312	-0.00214523	0.0018036	0.7146	0.128418	-0.694824	0.634318	-0.387276	-0.50498	-0.438922	9.84395	-0.478302	1.94057	-0.0091057	-0.0364435	-0.0469765	-0.700195	0.302734	-0.312256	0.880431	0.173031	0.441255	-0.0139779	-7.61495	2.8835	6.53829	0.00184801	-0.0521195	-0.00529849	0.875488	-0.286377	-0.158936	0.302629	-0.350511	0.693684	-0.551689	-0.448015	-9.63638	-2.01591	0.0473913	0.0279271	0.0309461	-0.185547	0.849365	0.487305	0.852445	0.0317323	0.313467	-0.417216	-5.41237	-2.02559	7.81232	0.0505278	0.00995431	-0.00541777	0.714111	0.464111	-0.459961	0.733506	0.53823	0.26926	0.315875	-2.41477	9.21177	6.34945	-0.0203887	-0.0236616	0.00310564	0.407227	-0.91333	0.157959	0.659513	-0.363884	-0.473434	-0.456608	9.73406	-0.71202	2.7842	0.0558517	0.0550776	-0.0325976	-0.780518	0.422119	-0.394287	0.479504	-0.505382	-0.528123	-0.485542	9.73422	0.124566	-0.428785	0.0175214	0.0349437	-0.0228005	-0.986328	0.394287	0.0180664	0.541304	-0.340018	-0.690632	-0.33824	9.50502	0.930308	-1.71298	-0.0158372	0.0147065	-0.0314434	-1.06494	0.217529	-0.0449219	0.332459	-0.632728	-0.40683	-0.568872	9.63452	0.252138	-1.15203	0.0176629	0.0389459	-0.00397631	-0.927979	0.39209	0.29126	0.461643	-0.536857	-0.565114	-0.423457	9.60588	-0.225111	-1.98927	0.0454715	0.0162395	-0.00784632	-1.02222	0.505127	0.160156	
74	0.918026	0.13688	0.185109	-0.322842	-4.11693	1.51063	10.2064	0.0423086	-0.0433532	-0.0336911	0.710205	0.126221	-0.694824	0.633519	-0.38757	-0.505585	-0.439121	9.74376	-0.487223	1.9076	-0.0213574	-0.0235841	-0.0360323	-0.699951	0.29834	-0.307373	0.880504	0.173472	0.440934	-0.0140369	-7.67665	2.87128	6.43784	0.0397758	0.0162204	0.0122431	0.877686	-0.288574	-0.156738	0.302619	-0.350158	0.69416	-0.551319	-0.382573	-9.63401	-1.96451	-0.0164558	0.0124339	0.0218092	-0.181396	0.85376	0.489502	0.852355	0.03252	0.313193	-0.417544	-5.46922	-1.96233	7.8587	0.0367327	0.00865638	-0.0104559	0.714111	0.461914	-0.459961	0.733582	0.538523	0.268608	0.315752	-2.36391	9.2733	6.50321	0.00424176	-0.0223221	0.00624092	0.414062	-0.921875	0.164551	0.659021	-0.364087	-0.473534	-0.457052	9.63078	-0.662334	2.76756	-0.0194227	-0.00617347	-0.0336839	-0.780762	0.42627	-0.390137	0.479638	-0.505117	-0.528541	-0.48523	9.76087	0.165773	-0.507156	0.0231315	0.0094836	-0.0233313	-0.99292	0.396484	0.00170898	0.541771	-0.339137	-0.690893	-0.337841	9.54497	1.069	-1.74873	0.051749	0.0266525	-0.031966	-1.0625	0.215088	-0.0471191	0.332841	-0.632348	-0.406935	-0.568996	9.63874	0.389343	-1.27824	0.0126907	0.027774	-0.000555088	-0.925781	0.394531	0.29126	0.462125	-0.536446	-0.565358	-0.423127	9.68524	-0.136065	-2.13691	0.0347485	0.0156583	-0.00457029	-1.01978	0.50293	0.160156	
75	0.917954	0.13696	0.184726	-0.32323	-4.0521	1.49762	10.17	0.0120067	-0.00581212	-0.0135707	0.712402	0.130615	-0.697021	0.633274	-0.387516	-0.505909	-0.439149	9.84475	-0.550556	1.81448	0.000246704	-0.00964434	-0.0414119	-0.697754	0.296143	-0.312012	0.880697	0.173631	0.440484	-0.0140929	-7.70128	2.8658	6.41877	0.0143561	-0.00525795	-0.00322906	0.877441	-0.286377	-0.161133	0.30285	-0.349736	0.694573	-0.55094	-0.383104	-9.54984	-1.94695	-0.0124788	0.0154048	0.0312397	-0.181396	0.858154	0.491699	0.851895	0.0338288	0.312958	-0.418554	-5.34404	-1.90803	7.84313	0.0240697	0.0194208	-0.0193467	0.716309	0.464111	-0.459961	0.733341	0.539251	0.268356	0.315285	-2.46564	9.13214	6.47306	0.031487	-0.0148733	-0.0114948	0.409668	-0.919678	0.156006	0.658585	-0.3645	-0.473302	-0.457593	9.79866	-0.787227	2.90295	-0.0191597	0.027234	-0.0301371	-0.785156	0.42627	-0.394531	0.479712	-0.505053	-0.528431	-0.485344	9.71535	0.0320517	-0.590251	0.00501232	0.0232816	-0.0164112	-0.986328	0.394287	0.00854492	0.541864	-0.33902	-0.69061	-0.338388	9.53031	0.768337	-1.94675	-0.0132293	0.0291545	-0.0290828	-1.0625	0.212891	-0.0471191	0.333404	-0.631925	-0.407027	-0.569071	9.62996	0.340359	-1.11612	0.0235021	0.0329461	0.0060323	-0.935059	0.398682	0.291016	0.462413	-0.536231	-0.565424	-0.422998	9.7383	-0.0164531	-2.14267	0.0302908	0.021096	-0.00177845	-1.02002	0.507324	0.159912	
76	0.917955	0.136964	0.184349	-0.323442	-3.89058	1.51939	10.0544	0.0106851	-0.00618267	-0.0134125	0.712646	0.124023	-0.697021	0.632583	-0.387648	-0.506285	-0.439594	9.79795	-0.496258	1.87577	-0.0190577	-0.0119868	-0.0361453	-0.697754	0.296143	-0.307373	0.880754	0.173725	0.440333	-0.0140623	-7.60682	2.89232	6.36162	0.0187443	0.00220024	0.00517588	0.873291	-0.286377	-0.156738	0.30273	-0.349449	0.694924	-0.550746	-0.356537	-9.45627	-1.89575	-0.0224075	0.030125	0.0268166	-0.183838	0.860352	0.487305	0.851801	0.0340401	0.3133	-0.418472	-5.39789	-1.90687	7.8253	0.00364081	0.0407838	-0.00930061	0.713867	0.466309	-0.462158	0.73321	0.539575	0.268179	0.315187	-2.42177	9.07578	6.4735	0.0314222	-0.0121519	0.000167598	0.413818	-0.91333	0.159912	0.658132	-0.365139	-0.472784	-0.458271	9.49832	-0.615685	2.75982	-0.0430358	-0.00342012	-0.0225995	-0.785156	0.424072	-0.387939	0.480001	-0.504792	-0.528801	-0.484927	9.68929	-0.0208823	-0.592049	0.0568357	0.0107368	-0.0160568	-0.984131	0.394287	0.0180664	0.542458	-0.338286	-0.690756	-0.337874	9.49443	0.802315	-1.84064	0.0832065	0.0406258	-0.0254077	-1.06494	0.215088	-0.0427246	0.333881	-0.631607	-0.407259	-0.568978	9.59462	0.230466	-1.08958	0.0458485	0.0336759	0.00477559	-0.93042	0.394287	0.284424	0.462976	-0.535783	-0.565873	-0.422347	9.52536	-0.302087	-1.97087	0.0745877	-0.0022024	-0.00145387	-1.02417	0.50293	0.15332	
77	0.917839	0.13712	0.184681	-0.323516	-3.93323	1.41019	10.1406	0.0128241	0.0317189	-0.0187768	0.712402	0.128418	-0.701416	0.632391	-0.388047	-0.505733	-0.440154	9.62114	-0.434933	1.73833	-0.0258663	0.0252304	-0.0174917	-0.700195	0.300537	-0.309814	0.88075	0.174507	0.440037	-0.0139789	-7.63199	3.07704	6.39627	0.0420812	0.00113122	0.0183753	0.877686	-0.286377	-0.1521	0.302199	-0.348742	0.695808	-0.55037	-0.505511	-9.59508	-2.0947	-0.0232142	0.0456698	0.0247437	-0.178955	0.851562	0.489502	0.851581	0.035095	0.313655	-0.418567	-5.49172	-1.81279	7.76675	0.0384954	0.0387807	-0.0111212	0.723145	0.455322	-0.462158	0.732873	0.540267	0.267702	0.315189	-2.26562	9.23131	6.39984	0.0234723	-0.00852764	0.00867619	0.409912	-0.921875	0.158203	0.657261	-0.366274	-0.473185	-0.458199	9.77716	-0.806284	2.52296	0.00166711	-0.0240921	-0.0163279	-0.787109	0.424072	-0.390137	0.481081	-0.503849	-0.52951	-0.484063	9.78953	0.21342	-0.185501	0.0631297	0.0430432	-0.0145816	-0.990479	0.39209	-0.00292969	0.543454	-0.336953	-0.691141	-0.336816	9.51131	1.18611	-1.57556	0.072521	0.0245713	-0.0244269	-1.06274	0.217529	-0.0471191	0.335157	-0.630823	-0.407943	-0.568607	9.68307	0.422449	-1.3412	0.0573034	0.0310326	0.00966468	-0.925781	0.390137	0.284424	0.46387	-0.535193	-0.566794	-0.420877	9.72362	-0.00703229	-2.13639	0.0602438	-0.00723398	0.00634825	-1.02246	0.511719	0.153076	
78	0.917725	0.137689	0.184812	-0.323524	-4.27026	1.53769	10.3111	0.0270816	-0.00845399	0.00303984	0.710449	0.124023	-0.697021	0.632069	-0.388196	-0.506017	-0.440159	9.81645	-0.572848	1.78419	-0.00153544	-0.00347083	-0.0268606	-0.700195	0.300537	-0.312256	0.881157	0.174594	0.439172	-0.0144269	-7.6129	2.9527	6.46444	0.0291123	-0.0343941	-0.0236987	0.877686	-0.290771	-0.158936	0.301688	-0.347774	0.696428	-0.550478	-0.616463	-9.41778	-2.03791	-0.0154088	0.0554442	0.0225075	-0.181152	0.851562	0.487305	0.851509	0.0356867	0.313674	-0.418651	-5.5133	-1.85676	7.69129	0.0191848	0.00999525	-0.0099324	0.716553	0.45752	-0.462158	0.732747	0.540493	0.2676	0.315181	-2.25393	9.13492	6.41448	0.0251571	0.00959465	-0.00734899	0.409668	-0.915283	0.162354	0.657793	-0.36554	-0.473097	-0.458113	9.84235	-0.884943	2.71036	0.065035	0.0648966	-0.0185511	-0.780762	0.424072	-0.390137	0.481134	-0.503958	-0.528922	-0.484538	9.78882	0.18864	-0.510906	-0.0436779	0.0362452	-0.0127391	-0.990723	0.396484	0.00634766	0.543058	-0.337358	-0.69096	-0.337421	9.60177	0.937669	-1.80455	-0.0455112	0.00170132	-0.0233561	-1.06226	0.208252	-0.0449219	0.33513	-0.630853	-0.407299	-0.569052	9.75154	0.43834	-1.102	-0.0409927	0.0315468	0.00931032	-0.928223	0.398682	0.28418	0.463103	-0.535971	-0.565919	-0.421908	9.76867	0.0331261	-2.11945	-0.0683249	0.0120071	0.00224273	-1.02686	0.511719	0.159912	
79	0.917903	0.137634	0.184518	-0.32321	-4.10889	1.50045	10.1717	0.00155548	-0.000564198	0.00289087	0.717041	0.126221	-0.697021	0.631902	-0.388425	-0.506113	-0.440085	9.848	-0.410438	1.59787	0.00390678	0.0331829	-0.0153713	-0.697998	0.29834	-0.307373	0.881504	0.174703	0.438399	-0.0153483	-7.61347	2.90656	6.61657	0.0200068	-0.0139427	-0.0215989	0.875488	-0.286377	-0.161133	0.301159	-0.347106	0.696951	-0.550527	-0.367546	-9.69463	-1.92101	0.0101749	0.0321557	0.00890605	-0.185791	0.85376	0.491699	0.851385	0.0355864	0.313838	-0.418788	-5.39311	-1.83792	7.90683	-0.0160758	0.01822	-0.0287202	0.723145	0.45752	-0.464355	0.732721	0.540566	0.267706	0.315027	-2.2827	9.32548	6.49746	0.0151355	0.00565784	-0.02359	0.409668	-0.915283	0.162354	0.658967	-0.364436	-0.472138	-0.458296	9.7017	-0.634406	2.96236	0.0283403	0.0802041	-0.00172053	-0.780762	0.424072	-0.394287	0.481883	-0.503145	-0.52896	-0.484598	9.76193	-0.00901473	-0.580007	0.0317729	0.0418435	-0.0132505	-0.986328	0.396484	0.00146484	0.543191	-0.337111	-0.69101	-0.33735	9.56095	0.830682	-1.84754	0.0375386	0.0176066	-0.0247031	-1.06006	0.208496	-0.0537109	0.334943	-0.630843	-0.40692	-0.569444	9.66079	0.214255	-1.12325	0.00578147	0.026615	0.00461347	-0.925781	0.392334	0.284424	0.463017	-0.536167	-0.56567	-0.422088	9.64213	-0.184432	-2.03145	0.0175277	0.00798337	0.0013435	-1.02222	0.509521	0.14624	
80	0.917565	0.137455	0.184676	-0.324153	-3.98984	1.30661	10.1101	0.0170217	0.00813324	-0.0655347	0.712158	0.132812	-0.699219	0.631771	-0.388837	-0.506106	-0.439919	9.94068	-0.44967	2.0819	-0.0368658	0.0141609	-0.0063677	-0.702393	0.300537	-0.307373	0.881216	0.174759	0.438967	-0.0150011	-7.51024	2.95572	6.49695	0.0227047	0.0563323	0.0148678	0.875244	-0.28418	-0.163574	0.300858	-0.347597	0.697336	-0.549894	-0.45634	-9.55842	-1.96313	-0.0357868	-0.00951908	-0.00736614	-0.190186	0.851562	0.489502	0.851189	0.0353301	0.31433	-0.418839	-5.48977	-1.91341	7.79539	0.00104624	0.0244024	-0.0261171	0.716553	0.459717	-0.459961	0.732439	0.540835	0.26818	0.314818	-2.4279	9.17425	6.42885	0.0271535	0.0181102	-0.0166057	0.411621	-0.91333	0.162109	0.659164	-0.364599	-0.471554	-0.458484	9.73556	-0.685075	2.82051	-0.0260606	0.0255001	-0.00710415	-0.785156	0.42627	-0.394531	0.482495	-0.502654	-0.529225	-0.48421	9.77523	0.121435	-0.434032	0.0728686	0.038266	-0.0102463	-0.988525	0.396484	0.00146484	0.54359	-0.336582	-0.691076	-0.3371	9.52397	1.08709	-1.74772	0.00583086	0.020417	-0.0249504	-1.0625	0.212891	-0.0427246	0.335229	-0.630716	-0.406881	-0.569444	9.70347	0.435384	-1.12158	0.00081903	0.0223739	0.00562196	-0.932373	0.39209	0.286621	0.462825	-0.536484	-0.565519	-0.422097	9.70043	-0.0127189	-2.07451	-0.0219375	0.00218632	0.00360918	-1.02441	0.509521	0.155518	
81	0.916537	0.138378	0.185666	-0.326096	-4.02656	1.5215	10.1916	0.0561575	0.0683546	-0.0913828	0.714844	0.126221	-0.699219	0.631569	-0.389539	-0.505971	-0.439744	9.76758	-0.519403	1.97006	-0.00388269	-0.0290544	0.00170652	-0.699951	0.29834	-0.302734	0.881073	0.174233	0.4395	-0.013909	-7.72514	3.05536	6.47171	-0.0390027	0.0391832	0.02244	0.875488	-0.28418	-0.156738	0.300803	-0.348265	0.696477	-0.55059	-0.599986	-9.59303	-2.08687	0.0300056	-0.00033155	-0.0441739	-0.18335	0.851562	0.489502	0.851124	0.0353167	0.314992	-0.418474	-5.52928	-1.9964	7.85486	-0.0251575	0.0311914	-0.00312861	0.718506	0.459717	-0.459961	0.732569	0.540523	0.268034	0.315175	-2.3635	9.19689	6.40981	-0.0138237	0.0102811	0.00281428	0.409424	-0.91333	0.159912	0.659224	-0.365221	-0.470725	-0.458755	9.59445	-0.86406	2.87198	-0.0345741	0.0194947	0.00632939	-0.783203	0.428467	-0.394531	0.48476	-0.500475	-0.530307	-0.483019	9.83138	0.142953	-0.428043	0.096114	0.0327906	-0.0157967	-0.988525	0.39209	-0.00292969	0.544077	-0.335747	-0.691348	-0.336588	9.57477	1.03034	-1.76913	0.0527855	0.0202631	-0.0280823	-1.0603	0.217529	-0.0471191	0.334842	-0.630692	-0.406838	-0.569729	9.69317	0.305257	-1.25427	-0.01961	0.0211418	-0.0145158	-0.928223	0.396484	0.286621	0.462128	-0.537026	-0.564914	-0.422982	9.68914	-0.138566	-2.12409	-0.0547708	0.0155901	-0.0101539	-1.02222	0.509521	0.159912	
82	0.915681	0.139493	0.187009	-0.327257	-4.31004	1.47375	10.1083	0.0504754	0.0617608	-0.0500299	0.714355	0.132812	-0.692871	0.632876	-0.389172	-0.503963	-0.440494	9.84831	-0.455337	1.95914	-0.0196276	0.161019	0.00153791	-0.699951	0.29834	-0.312012	0.880484	0.174595	0.440537	-0.0138194	-7.73798	2.9437	6.25466	0.0451035	0.0642988	-0.00168595	0.873291	-0.286377	-0.156738	0.299994	-0.348676	0.69708	-0.550007	-0.363606	-9.62646	-1.99921	-0.0558225	0.0301105	-0.00182309	-0.185547	0.851562	0.489502	0.850754	0.0360768	0.315495	-0.418783	-5.41142	-1.80573	7.95243	0.00506869	0.0507636	-0.0306624	0.718262	0.468506	-0.459961	0.73202	0.541005	0.268399	0.315313	-2.38264	9.31	6.60823	0.0727101	0.0269276	-0.00735001	0.405273	-0.915283	0.164307	0.65915	-0.365849	-0.470576	-0.458513	9.68503	-0.731469	2.89596	-0.0204577	-0.00929905	0.0202951	-0.7854	0.430664	-0.394531	0.485375	-0.499949	-0.530622	-0.482599	9.7707	0.151999	-0.344898	0.019729	0.0251617	-0.0158774	-0.994873	0.39209	-0.00756836	0.543984	-0.335892	-0.691319	-0.336654	9.51781	0.945925	-1.68147	-0.00839193	-0.000650799	-0.0161091	-1.05786	0.212891	-0.0515137	0.334819	-0.630605	-0.407074	-0.569671	9.66287	0.28605	-1.10983	0.0252657	0.00768345	-0.000109263	-0.932373	0.39209	0.279785	0.462064	-0.537029	-0.564802	-0.423197	9.62599	-0.157868	-2.03464	0.00657532	0.0117857	-0.00606616	-1.02686	0.511719	0.155273	
83	0.915237	0.140498	0.188197	-0.32739	-4.23663	1.75024	10.1222	0.0124453	0.0690149	-0.0120223	0.718994	0.130615	-0.694824	0.635041	-0.387141	-0.501773	-0.441665	9.64419	-0.576005	1.89812	0.0146089	0.125305	-0.019899	-0.693848	0.304932	-0.317139	0.88	0.175298	0.441231	-0.0136403	-7.7453	2.99616	6.25016	0.0376385	0.0388967	0.00573971	0.875488	-0.288574	-0.156738	0.299311	-0.348624	0.698029	-0.549208	-0.300603	-9.55682	-2.11256	-0.104615	0.0483214	0.0201286	-0.190186	0.851562	0.489502	0.850022	0.0363223	0.317569	-0.41868	-5.50599	-2.06731	7.79839	-0.0231	0.105287	-0.0192102	0.725098	0.461914	-0.453125	0.731174	0.541986	0.268872	0.315187	-2.42666	9.26203	6.40548	0.116914	0.023004	0.00177355	0.407227	-0.911133	0.166504	0.657788	-0.367546	-0.471987	-0.457659	9.65554	-0.805327	2.82503	0.0109261	-0.0787367	-0.012097	-0.7854	0.430664	-0.383789	0.485403	-0.499924	-0.530517	-0.482714	9.73777	0.161233	-0.271642	-0.0133339	0.0184314	-0.0171936	-0.988525	0.396484	-0.00537109	0.543532	-0.336466	-0.691243	-0.336966	9.5305	0.887927	-1.80444	-0.0415395	-0.0132235	-0.0139556	-1.05786	0.212891	-0.0493164	0.33488	-0.630652	-0.407129	-0.569543	9.6783	0.43092	-1.15676	0.00518776	0.00755784	0.00580953	-0.932861	0.400879	0.286377	0.462076	-0.537059	-0.564747	-0.423219	9.72332	-0.0540726	-2.05851	-0.00256639	0.0106377	-0.000592214	-1.02002	0.511719	0.157715	
84	0.915001	0.140961	0.189736	-0.32696	-4.48377	1.38336	10.1918	0.0127599	0.0582844	0.0110809	0.721191	0.126221	-0.688232	0.636486	-0.385828	-0.500453	-0.442232	9.74926	-0.58797	1.9252	0.0144154	0.104478	-0.011734	-0.691406	0.29834	-0.326172	0.879915	0.175416	0.441349	-0.0137494	-7.66079	2.9632	6.24439	0.0262341	0.0239521	-0.00767351	0.875488	-0.286377	-0.1521	0.297949	-0.348519	0.699799	-0.547761	-0.344553	-9.56458	-2.29421	-0.0863018	0.0441067	0.0182869	-0.185547	0.851562	0.496094	0.849658	0.0369542	0.318466	-0.418683	-5.59358	-2.05784	7.5758	0.0161798	0.0992135	-0.0157379	0.718506	0.461914	-0.453125	0.729821	0.543747	0.26914	0.315061	-2.2823	9.28902	6.10127	0.070097	-0.00080563	0.014594	0.407471	-0.915283	0.172852	0.657967	-0.367572	-0.47204	-0.457327	9.84616	-0.844548	2.95506	0.0071776	0.0368226	-0.0054793	-0.783203	0.430664	-0.388184	0.485212	-0.500208	-0.530321	-0.482826	9.83999	0.0636182	-0.335932	-0.0285645	0.012191	-0.00919031	-0.988525	0.39209	-0.00292969	0.543572	-0.336481	-0.691345	-0.336678	9.66267	0.921232	-1.64247	0.0225167	-0.00199051	-0.00791379	-1.0625	0.215332	-0.0517578	0.334664	-0.630853	-0.406944	-0.56958	9.68703	0.346308	-1.14851	-0.0263936	0.00508199	0.00744125	-0.934814	0.39209	0.282227	0.461828	-0.537405	-0.564403	-0.42351	9.7651	-0.0997239	-1.97508	-0.0371007	0.0117747	0.00172002	-1.01758	0.507324	0.155518	
85	0.915491	0.141081	0.190249	-0.325235	-4.45651	1.50918	10.1361	-0.0355035	0.0231903	0.0614641	0.718994	0.126221	-0.686279	0.637791	-0.384876	-0.499297	-0.442488	9.8157	-0.460056	2.19445	0.00440083	0.126991	-0.004549	-0.69165	0.302734	-0.328857	0.879546	0.175697	0.441973	-0.0137398	-7.80785	2.93903	6.25841	0.0235918	0.0502425	0.00412686	0.875488	-0.288574	-0.147461	0.297063	-0.348577	0.700291	-0.547577	-0.347346	-9.50992	-2.25914	-0.0119753	0.0284891	-0.0231602	-0.189941	0.847168	0.500732	0.849036	0.037379	0.319697	-0.418968	-5.44844	-1.90995	7.53823	-0.0156205	0.0569713	-0.0393901	0.7229	0.461914	-0.453125	0.72945	0.544289	0.269072	0.315043	-2.26033	9.13411	6.14839	0.0538591	-0.00255133	0.0107807	0.407227	-0.913086	0.170654	0.659097	-0.366791	-0.470871	-0.457533	9.70992	-0.756778	2.85518	0.0537421	0.0932175	0.00174842	-0.774414	0.428467	-0.394531	0.485073	-0.500862	-0.529714	-0.482954	9.70816	-0.013474	-0.583264	0.00564416	0.0127545	-0.00313262	-0.986328	0.396484	-0.00537109	0.543303	-0.337362	-0.691073	-0.33679	9.48285	0.884456	-1.85902	-0.0159469	0.00405426	-0.00253361	-1.0625	0.215088	-0.0493164	0.334383	-0.6312	-0.406287	-0.569829	9.66834	0.282173	-1.07381	-0.0329011	0.0217967	0.0188491	-0.928223	0.398682	0.28418	0.461365	-0.538018	-0.563781	-0.424063	9.65825	-0.136602	-2.05283	-0.0383779	0.00785543	0.00575719	-1.01978	0.505127	0.157715	
86	0.915623	0.14051	0.19046	-0.324988	-4.45096	1.04147	9.99567	-0.0455802	0.00347871	0.0026299	0.716553	0.132812	-0.690674	0.638506	-0.384438	-0.498074	-0.443216	9.63529	-0.518981	2.16855	-0.0330185	0.142456	-0.0107074	-0.689697	0.309326	-0.317139	0.879033	0.17589	0.442916	-0.0137312	-7.55513	3.09691	6.40018	0.0165345	0.0689316	-0.00784571	0.881836	-0.288574	-0.145264	0.296743	-0.349424	0.698953	-0.548918	-0.526732	-9.49263	-2.18188	0.0414863	-0.0084869	-0.0661705	-0.187744	0.851562	0.498291	0.848569	0.0372912	0.320086	-0.419626	-5.54754	-2.06801	7.75553	0.00877116	0.0314007	-0.0496322	0.7229	0.464111	-0.450684	0.730456	0.5438	0.267888	0.314566	-2.41503	9.36463	6.25608	-0.0229703	-0.038906	-0.0169446	0.407471	-0.919678	0.164551	0.659713	-0.366136	-0.470908	-0.457131	9.52103	-0.776467	2.90966	0.0795899	0.0485085	-1.78555e-05	-0.774658	0.430664	-0.398682	0.485376	-0.500684	-0.530004	-0.482516	9.63868	0.0757017	-0.502077	0.0512174	0.0100685	-0.00780734	-0.988525	0.394287	-0.00317383	0.543433	-0.337397	-0.691051	-0.336589	9.45037	0.991084	-1.78796	0.0155763	0.0100534	-0.00472029	-1.0603	0.217529	-0.0471191	0.334296	-0.631546	-0.406111	-0.569623	9.54307	0.302462	-1.10799	0.00822363	-0.000252231	0.00978564	-0.930176	0.39209	0.282227	0.460795	-0.53865	-0.563626	-0.424088	9.58425	-0.137653	-2.07832	-0.00329454	-0.0171571	0.00211828	-1.02246	0.511719	0.157715	
