40	Head	00b4120a												Throax	00b411e8												LUpArm	00b411d9												LFoArm	00b41148												RUpArm	00b411db												RFoArm	00b41204												Waist	00b411f7												Lthigh	00b411f4												Lshank	00b4111b												Rthigh	00b411c8												Rshank	00b411ee												
PacketCount	q0	q1	q2	q3	accX	accY	accZ	gyrX	gyrY	gyrZ	magX	magY	magZ	q0	q1	q2	q3	accX	accY	accZ	gyrX	gyrY	gyrZ	magX	magY	magZ	q0	q1	q2	q3	accX	accY	accZ	gyrX	gyrY	gyrZ	magX	magY	magZ	q0	q1	q2	q3	accX	accY	accZ	gyrX	gyrY	gyrZ	magX	magY	magZ	q0	q1	q2	q3	accX	accY	accZ	gyrX	gyrY	gyrZ	magX	magY	magZ	q0	q1	q2	q3	accX	accY	accZ	gyrX	gyrY	gyrZ	magX	magY	magZ	q0	q1	q2	q3	accX	accY	accZ	gyrX	gyrY	gyrZ	magX	magY	magZ	q0	q1	q2	q3	accX	accY	accZ	gyrX	gyrY	gyrZ	magX	magY	magZ	q0	q1	q2	q3	accX	accY	accZ	gyrX	gyrY	gyrZ	magX	magY	magZ	q0	q1	q2	q3	accX	accY	accZ	gyrX	gyrY	gyrZ	magX	magY	magZ	q0	q1	q2	q3	accX	accY	accZ	gyrX	gyrY	gyrZ	magX	magY	magZ	
0	0.915589	-0.00920955	0.401595	0.0182344	-6.75245	-0.579081	8.196	0.244732	-0.0503401	-0.167627	0.977295	0.00756836	-0.359863	0.779822	-0.00991214	-0.6247	0.0391051	9.619	-0.782903	2.45174	0.0176263	-0.00195484	0.0145571	-0.685303	-0.0866699	-0.508057	0.875038	-0.0379389	0.452969	0.166398	-7.49332	1.02528	7.22927	-0.0936996	0.00973932	0.107974	0.864502	-0.292236	-0.25	0.396157	-0.471765	0.647239	-0.448975	-0.891587	-9.37243	-2.68687	0.0782091	-0.110918	-0.0457221	0.00732422	0.812744	0.604736	0.902031	-0.198036	0.383166	-0.0174705	-6.28085	-3.36818	6.41536	0.167679	0.139631	-0.0167277	0.935059	0.241211	-0.219727	0.513454	0.440215	0.519026	0.522674	-2.64996	9.43203	3.69958	-0.0944878	-0.135101	0.0296357	0.0473633	-0.946045	0.358887	0.805568	0.00575372	-0.589588	0.0584304	9.57838	-1.07056	2.81123	-0.0112995	-0.0109011	0.00369535	-0.771484	0.0219727	-0.608154	0.691554	0.0539511	-0.718603	0.0495207	9.81081	-0.182181	-0.480762	-0.0373071	0.0418604	-0.00978738	-1.05225	-0.0981445	-0.220703	0.625365	0.23064	-0.733055	0.135475	9.63845	0.592391	-1.9515	-0.0646691	0.020171	-0.0287701	-1.09277	-0.293457	-0.0820312	0.655641	-0.121546	-0.742033	-0.0689109	9.62802	-0.452342	-1.24921	-0.0245551	0.0445516	0.0169495	-1.01758	0.116699	-0.213379	0.626645	-0.0283248	-0.77866	0.0142485	9.68214	-0.440944	-2.13066	-0.0159758	0.0331626	0.00262137	-1.13428	0.0600586	-0.256592	
1	0.915658	-0.00698545	0.401611	0.0151953	-6.65512	-0.586461	8.10168	0.265612	0.00389361	-0.145488	0.974609	0.013916	-0.357666	0.779647	-0.00991648	-0.624886	0.0396239	9.55408	-0.903645	2.23932	0.020343	-0.00700442	0.0151707	-0.680908	-0.0844727	-0.500977	0.874773	-0.0383827	0.452826	0.168071	-7.5622	0.937872	7.08518	-0.0964938	0.0108771	0.107559	0.866699	-0.296631	-0.25	0.398253	-0.473669	0.645167	-0.448099	-0.629843	-9.60637	-2.42887	-0.00042409	-0.125309	-0.0251338	0.00268555	0.817139	0.606934	0.902031	-0.198036	0.383166	-0.0174705	-6.28085	-3.36818	6.41536	0.167679	0.139631	-0.0167277	0.935059	0.241211	-0.219727	0.516829	0.443301	0.514274	0.521435	-2.84614	9.50029	3.94476	-0.048034	-0.295096	0.0545639	0.0473633	-0.946045	0.356689	0.805495	0.0055842	-0.589662	0.0586914	9.56054	-1.07685	2.81743	0.0124072	0.00812291	0.0089565	-0.776123	0.0283203	-0.604004	0.691733	0.0538097	-0.718439	0.0495509	9.81528	-0.199395	-0.561228	-0.0100192	0.0404495	-0.0077052	-1.05688	-0.0915527	-0.218506	0.625687	0.230599	-0.732785	0.135523	9.6436	0.527977	-1.93579	-0.00149956	0.0434253	-0.0256014	-1.09253	-0.298096	-0.088623	0.655908	-0.121764	-0.741771	-0.0688043	9.60926	-0.583213	-1.26076	0.0185404	0.0294933	0.0155227	-1.01562	0.121094	-0.211182	0.627271	-0.0286357	-0.778145	0.0141668	9.62562	-0.658581	-2.13944	0.0119449	0.0397517	0.00471887	-1.13672	0.0644531	-0.252197	
2	0.914906	-0.00215157	0.403563	0.00893838	-6.88808	0.182436	8.67935	0.283642	0.102176	-0.152858	0.979248	0.0119629	-0.349121	0.778321	-0.00941499	-0.62643	0.0413985	9.94105	-0.733531	2.16669	0.0226247	-0.0186251	0.0275536	-0.689697	-0.0822754	-0.505859	0.87409	-0.0386981	0.452835	0.171493	-7.99883	1.3269	7.13992	-0.0845026	0.0144311	0.127224	0.873291	-0.298828	-0.252197	0.398253	-0.473669	0.645167	-0.448099	-0.629843	-9.60637	-2.42887	-0.00042409	-0.125309	-0.0251338	0.00268555	0.817139	0.606934	0.897452	-0.195514	0.394893	-0.0203411	-7.92788	-3.60732	6.18027	-0.0459796	0.368257	0.0448551	0.946045	0.236572	-0.192383	0.521854	0.447351	0.507568	0.519538	-2.16708	9.52128	3.51294	-0.0913677	-0.348988	0.075761	0.0495605	-0.948242	0.352539	0.804964	0.00402485	-0.590423	0.058459	9.65247	-1.17048	2.853	-0.0339021	-0.0286569	0.0179672	-0.782471	0.0283203	-0.599854	0.692164	0.0539491	-0.717983	0.0499926	9.71657	0.0527305	-0.180341	0.00702674	0.0396212	-0.0160095	-1.05298	-0.0849609	-0.225586	0.626306	0.230792	-0.732114	0.135962	9.51562	0.917942	-1.7386	0.00762422	0.0436268	-0.0260494	-1.09253	-0.295654	-0.0908203	0.656022	-0.121439	-0.74178	-0.0681863	9.64847	-0.537552	-1.18806	0.055455	0.0174681	0.0162526	-1.02002	0.121094	-0.213379	0.627856	-0.0283214	-0.777675	0.0147271	9.70963	-0.416193	-2.00818	0.0279559	0.0394668	-0.0018616	-1.13623	0.0556641	-0.258789	
3	0.915086	-0.000405987	0.403242	0.00363338	-6.80993	0.489299	8.3371	0.106588	-0.0196508	-0.149609	0.980957	0.0205078	-0.355713	0.779032	-0.0101798	-0.625541	0.0412851	9.78942	-0.36221	2.04153	-0.0278317	0.0408856	-0.0199977	-0.680908	-0.0844727	-0.503418	0.874182	-0.0398834	0.451879	0.173265	-7.3705	1.29115	6.9601	-0.0433855	-0.0257515	0.00613028	0.866699	-0.301025	-0.252197	0.400022	-0.475352	0.642951	-0.447925	-0.885708	-9.29508	-2.73289	0.0276356	-0.0740793	-0.03128	0.0119629	0.812744	0.604736	0.896091	-0.191401	0.399691	-0.025164	-7.02388	-3.93967	5.19166	0.254111	0.176191	-0.103348	0.946045	0.23877	-0.187744	0.523386	0.449636	0.504748	0.518772	-2.43837	9.49982	3.33143	-0.0283375	-0.300307	0.0992761	0.0498047	-0.950195	0.352539	0.805097	0.00375441	-0.590228	0.0586057	9.90717	-0.558055	2.53713	0.0106463	0.0806834	-0.0142761	-0.77832	0.0327148	-0.604248	0.692388	0.0534082	-0.717837	0.0495511	9.85245	-0.145336	-0.0699882	-0.038272	0.0307492	-0.00884186	-1.04858	-0.0849609	-0.228027	0.626907	0.230442	-0.731814	0.135396	9.65062	0.770864	-1.60887	-0.0286434	0.0263751	-0.0208072	-1.09033	-0.295654	-0.088623	0.656563	-0.121228	-0.741372	-0.0678001	9.64352	-0.435297	-1.17142	-0.0351629	0.0249074	0.0087538	-1.01758	0.116699	-0.220215	0.628548	-0.0284774	-0.77711	0.0147365	9.65321	-0.564759	-2.10581	-0.0217184	0.0460281	0.00331873	-1.13647	0.0578613	-0.249756	
4	0.915015	-0.000837759	0.403418	0.000838232	-6.94605	-0.125999	8.34123	0.0356669	0.01406	-0.0946388	0.980957	0.0183105	-0.346924	0.779297	-0.0101723	-0.625279	0.0402285	9.50608	-0.565439	2.13242	-0.0279366	0.0220417	-0.0423475	-0.6875	-0.0844727	-0.505615	0.875254	-0.0381779	0.450869	0.170854	-7.70447	1.11215	7.07435	0.112297	-0.047043	-0.0612514	0.866699	-0.294434	-0.256836	0.399808	-0.473799	0.643606	-0.448819	-0.615366	-9.45196	-2.13904	0.00755154	0.115721	0.068019	0.0158691	0.821777	0.602539	0.896127	-0.190227	0.400118	-0.0260071	-7.21945	-3.59489	5.52332	-0.0222223	0.0104118	0.00341425	0.943848	0.236572	-0.185303	0.526058	0.451576	0.500952	0.518063	-2.53571	9.39828	3.95373	-0.0347317	-0.00643095	-0.0133354	0.0498047	-0.950195	0.350342	0.805456	0.00252524	-0.589908	0.0569481	9.40438	-0.753429	2.71789	-0.0967948	0.0352633	-0.0449696	-0.77832	0.0305176	-0.602051	0.692693	0.05212	-0.71768	0.048941	9.69477	0.0044777	-0.105382	-0.0555063	0.0353702	0.000464439	-1.05078	-0.0827637	-0.230225	0.627104	0.229814	-0.731937	0.134885	9.48879	0.864824	-1.6001	-0.0655984	0.0122313	-0.0103721	-1.09277	-0.29126	-0.0864258	0.65663	-0.12257	-0.74101	-0.0686825	9.63194	-0.534044	-1.07406	-0.0476814	0.0340949	0.0234658	-1.01807	0.123291	-0.220215	0.628877	-0.0297713	-0.776815	0.0136012	9.5652	-0.58786	-1.90442	-0.0521996	0.0229527	0.00961166	-1.13428	0.0644531	-0.263428	
5	0.915106	-0.000750703	0.403209	-0.00173751	-6.76364	-0.4329	8.32372	0.0509506	0.000952779	-0.0842552	0.980957	0.0227051	-0.353516	0.77946	-0.0116301	-0.625116	0.0392135	9.65215	-0.624341	2.15781	-0.0727501	0.0187836	-0.00428744	-0.681152	-0.0778809	-0.499023	0.87613	-0.0362968	0.450093	0.168803	-7.38778	1.00057	7.22974	0.109525	-0.0531161	-0.0365078	0.868896	-0.301025	-0.249756	0.39783	-0.471771	0.64694	-0.447919	-0.819667	-9.50641	-2.83525	-0.102602	0.124113	0.100195	0.00927734	0.819336	0.602539	0.896219	-0.190646	0.399821	-0.0242536	-6.79952	-3.4461	5.59454	-0.0330649	-0.0324774	0.0528829	0.950684	0.22998	-0.192139	0.525168	0.450584	0.503195	0.517655	-2.48647	9.54172	3.65501	0.09168	0.0885926	-0.0637843	0.0517578	-0.948242	0.354736	0.805768	0.00132783	-0.589604	0.0557027	9.57036	-1.09705	2.88336	-0.0615582	0.0277597	-0.0208006	-0.780518	0.0349121	-0.599854	0.692898	0.0503445	-0.717688	0.0477602	9.83803	-0.238491	-0.387395	-0.0827117	0.0216049	0.000738431	-1.04639	-0.0827637	-0.223389	0.627349	0.228305	-0.732449	0.133521	9.60699	0.644789	-1.79842	-0.0708807	-0.00293398	-0.00499862	-1.09277	-0.29126	-0.0888672	0.656799	-0.123848	-0.740556	-0.069673	9.67649	-0.520701	-1.25875	-0.075955	0.0314582	0.0167239	-1.02246	0.123047	-0.218018	0.629038	-0.0310868	-0.776652	0.0124985	9.66212	-0.634956	-2.14656	-0.0760004	0.0219958	0.0110845	-1.13232	0.0666504	-0.256592	
6	0.915106	0.00117052	0.403183	-0.00482539	-7.14317	-0.608903	8.46215	0.151289	-0.00809975	-0.0748347	0.98291	0.0270996	-0.353516	0.780167	-0.0130902	-0.624245	0.0385555	9.87154	-0.841871	2.32241	-0.0719346	0.0950809	-0.011589	-0.681152	-0.0800781	-0.508301	0.876953	-0.0341489	0.449221	0.167293	-7.50825	1.04004	7.43882	0.0649942	-0.0404996	-0.00801663	0.868896	-0.298828	-0.25	0.397383	-0.469981	0.648802	-0.447504	-0.820912	-9.17583	-2.57532	-0.0162539	0.061847	0.0643394	0.00512695	0.812744	0.606934	0.896811	-0.190593	0.398586	-0.0230791	-6.977	-3.33613	6.10344	0.0100307	-0.0429365	-0.000635284	0.946045	0.23877	-0.19458	0.52525	0.449304	0.504913	0.517012	-2.42457	9.29319	3.75075	0.0050408	0.0306913	-0.0559818	0.0537109	-0.946045	0.352539	0.805819	0.00076226	-0.589556	0.0554855	9.81512	-1.0618	2.8444	-0.0347884	0.0241294	-0.00403904	-0.776367	0.0349121	-0.604248	0.693125	0.0489394	-0.717617	0.0469905	9.8948	-0.109442	-0.280746	-0.0480292	0.0342598	-0.000508474	-1.04858	-0.0827637	-0.228027	0.627347	0.227515	-0.732774	0.133094	9.64577	0.859144	-1.73659	-0.0210231	0.00572636	-0.00952881	-1.09497	-0.293457	-0.0910645	0.656833	-0.12495	-0.740255	-0.0705695	9.78235	-0.618254	-1.16276	-0.0562589	0.0211916	0.0104387	-1.02222	0.118652	-0.222412	0.629211	-0.0326071	-0.776473	0.0109463	9.82275	-0.640363	-1.86631	-0.0979234	0.0225917	0.00240718	-1.13232	0.0666504	-0.263428	
7	0.91543	0.00445681	0.402349	-0.00909989	-6.7141	-0.167876	8.24413	0.190976	-0.0137049	-0.101901	0.980713	0.0270996	-0.35791	0.781014	-0.013476	-0.623235	0.0375882	9.71663	-0.855106	2.13857	-0.0363844	0.0605735	-0.0302322	-0.678955	-0.0800781	-0.510498	0.876965	-0.0336211	0.449157	0.167511	-7.59119	1.00382	7.37712	0.0064345	0.00477121	0.0338123	0.868896	-0.301025	-0.263428	0.397279	-0.469794	0.648912	-0.447635	-0.718383	-9.24855	-2.68518	0.00453018	0.0282737	0.0128188	0.00952148	0.817139	0.604736	0.896872	-0.189943	0.398714	-0.0238669	-6.91657	-3.45186	6.19928	0.0357913	0.0141878	-0.0214537	0.950439	0.236572	-0.189941	0.525755	0.44904	0.504489	0.517141	-2.57511	9.4167	3.72771	-0.0327876	-0.022625	-0.00861404	0.0605469	-0.950195	0.352539	0.806	0.000260881	-0.589406	0.0544527	9.67166	-1.15236	2.68583	-0.00189944	0.00804843	-0.0359682	-0.778564	0.0349121	-0.610596	0.693284	0.0481507	-0.717558	0.046355	9.77074	-0.299924	-0.508554	-0.0404941	0.020785	-0.0133587	-1.04883	-0.0783691	-0.228027	0.62776	0.226885	-0.73276	0.132299	9.62737	0.620789	-1.7866	-0.042314	0.0132902	-0.0146391	-1.09277	-0.293457	-0.0932617	0.657057	-0.125663	-0.739873	-0.0712292	9.61098	-0.542868	-1.25318	-0.0362348	0.032328	0.00968367	-1.01343	0.121094	-0.222412	0.6294	-0.0328715	-0.776311	0.0107797	9.76595	-0.763772	-2.00652	-0.020827	0.0286019	0.0045349	-1.13232	0.0666504	-0.26123	
8	0.915238	0.0074798	0.402612	-0.0136486	-7.07049	-0.307375	8.34826	0.20729	0.0123005	-0.116999	0.978516	0.0249023	-0.355713	0.780727	-0.0132184	-0.623641	0.0369194	9.63786	-0.712563	2.26543	-0.020371	-0.0165109	-0.0502479	-0.678955	-0.0844727	-0.498779	0.876968	-0.0333692	0.449003	0.167958	-7.39405	1.16067	7.2006	-0.00272803	-0.00138168	0.0420795	0.862305	-0.298828	-0.254395	0.397598	-0.469685	0.648407	-0.448196	-0.780923	-9.50571	-2.74067	0.0568779	0.00398897	-0.0176464	0.00732422	0.814941	0.602539	0.896729	-0.189185	0.399351	-0.0245839	-6.98552	-3.66326	5.96447	0.073371	0.0664694	-0.0299288	0.946045	0.240967	-0.196777	0.527018	0.449829	0.502657	0.516955	-2.67229	9.67884	3.82457	-0.000888202	-0.089898	0.0219994	0.0541992	-0.952393	0.354736	0.806442	0.000426956	-0.588822	0.0542229	9.5708	-1.00469	2.65358	0.0090499	0.0410611	-0.0279157	-0.77417	0.0371094	-0.606445	0.693149	0.0480944	-0.717683	0.0465118	9.68566	-0.328772	-0.448938	0.00492541	0.00621882	-0.00487397	-1.05518	-0.0827637	-0.228027	0.62776	0.226885	-0.73276	0.132299	9.62737	0.620789	-1.7866	-0.042314	0.0132902	-0.0146391	-1.09277	-0.293457	-0.0932617	0.657093	-0.12571	-0.739841	-0.0711399	9.53117	-0.647902	-1.20186	0.00242386	0.0169978	0.011334	-1.02026	0.123291	-0.220215	0.62978	-0.0333358	-0.775987	0.0104828	9.54933	-0.720056	-2.06612	-0.0209412	0.0275162	0.0033014	-1.13232	0.0666504	-0.263428	
9	0.915265	0.00901507	0.402443	-0.0157641	-7.02139	0.104672	8.36284	0.185204	-0.00485604	-0.102321	0.984619	0.0336914	-0.355713	0.780727	-0.0132184	-0.623641	0.0369194	9.63786	-0.712563	2.26543	-0.020371	-0.0165109	-0.0502479	-0.678955	-0.0844727	-0.498779	0.876982	-0.0330132	0.448899	0.168234	-7.47899	1.09387	7.19171	0.0100561	-0.00475993	0.035526	0.866699	-0.296631	-0.259033	0.398349	-0.469529	0.648114	-0.448118	-0.853327	-9.53791	-2.51925	0.0175411	-0.0177827	0.015235	0.0117188	0.817139	0.606934	0.896476	-0.188114	0.400379	-0.0253048	-7.02076	-3.63508	5.65151	0.0256812	0.0631948	0.00637135	0.948242	0.236572	-0.192383	0.527286	0.45037	0.502172	0.516682	-2.73193	9.67409	3.88068	0.0225297	-0.0637675	0.0192042	0.0583496	-0.950195	0.356934	0.806452	0.000337729	-0.588842	0.0538465	9.63438	-0.941893	2.55409	-0.0116012	0.0153281	-0.0366044	-0.780762	0.0368652	-0.602051	0.693019	0.0482827	-0.717774	0.0468379	9.76964	-0.0941284	-0.224915	0.0278255	0.008204	-0.00920459	-1.05078	-0.0827637	-0.228027	0.627969	0.227453	-0.732284	0.132966	9.5127	0.633766	-1.81529	0.0349417	0.0257721	-0.0161108	-1.09277	-0.293457	-0.0910645	0.657098	-0.12541	-0.739928	-0.0707202	9.70452	-0.439341	-1.25575	0.0108376	0.0136083	0.00877507	-1.01758	0.116699	-0.217773	0.629875	-0.033147	-0.775908	0.0112082	9.70477	-0.500194	-2.03885	0.0356163	0.00921612	0.014813	-1.13672	0.0666504	-0.26123	
10	0.915465	0.0108845	0.401797	-0.0191064	-6.88641	0.100643	8.39769	0.112216	-0.0331086	-0.0891066	0.980469	0.0314941	-0.35791	0.780727	-0.0132184	-0.623641	0.0369194	9.63786	-0.712563	2.26543	-0.020371	-0.0165109	-0.0502479	-0.678955	-0.0844727	-0.498779	0.87716	-0.0317204	0.448649	0.168223	-7.49834	1.13154	7.15751	0.0428013	-0.0150902	0.0247483	0.862549	-0.300781	-0.259033	0.398334	-0.467974	0.650404	-0.446435	-0.86962	-9.41495	-2.55492	-0.0401962	0.0264578	0.0736246	0.013916	0.817139	0.611328	0.896364	-0.187781	0.400876	-0.0238168	-7.13315	-3.6253	5.42046	-0.00217124	-0.00540158	0.0587526	0.947998	0.240967	-0.192383	0.526502	0.450263	0.502522	0.517234	-2.47799	9.38625	3.45772	-0.0155709	0.0623706	0.0136286	0.0537109	-0.946045	0.350342	0.806452	0.000337729	-0.588842	0.0538465	9.63438	-0.941893	2.55409	-0.0116012	0.0153281	-0.0366044	-0.780762	0.0368652	-0.602051	0.693347	0.0480403	-0.717487	0.0466359	9.82456	-0.0549661	-0.14314	-0.0133208	0.0274424	-0.00844664	-1.05298	-0.0849609	-0.228027	0.628274	0.226953	-0.732301	0.132285	9.55037	0.845172	-1.61734	-0.0349655	0.0097278	-0.0147253	-1.09033	-0.293457	-0.0976562	0.65704	-0.126055	-0.739832	-0.0711151	9.64077	-0.561023	-1.15086	-0.0322732	0.012679	0.00859185	-1.01782	0.118896	-0.220215	0.629847	-0.0338529	-0.775903	0.011044	9.63662	-0.650296	-2.02459	-0.0364518	0.00730543	0.0103292	-1.12793	0.0710449	-0.259033	
11	0.915443	0.0113493	0.401733	-0.0211186	-6.8861	0.246389	8.2308	0.0418675	0.0196517	-0.0369038	0.980225	0.0336914	-0.355713	0.780132	-0.0110933	-0.624563	0.0345345	9.70449	-0.685247	2.18972	0.00100122	-0.0154145	-0.0544262	-0.685303	-0.0888672	-0.505615	0.87766	-0.0294073	0.447895	0.168043	-7.51775	1.1227	7.32779	0.0287018	-0.0340312	0.0393156	0.860352	-0.305176	-0.26123	0.398569	-0.467097	0.651449	-0.445619	-0.873727	-9.30079	-2.61262	-0.0064268	0.0132236	0.0477135	0.0119629	0.810547	0.611328	0.897187	-0.186965	0.39952	-0.0219778	-6.96667	-3.50339	5.70679	0.0183792	-0.0868737	0.0495485	0.950928	0.227783	-0.192139	0.525823	0.448422	0.503117	0.518942	-2.46539	9.44687	3.70527	-0.0434102	0.0944972	0.00463372	0.0517578	-0.948242	0.352539	0.806452	0.000337729	-0.588842	0.0538465	9.63438	-0.941893	2.55409	-0.0116012	0.0153281	-0.0366044	-0.780762	0.0368652	-0.602051	0.693624	0.0471617	-0.717303	0.0462464	9.8012	-0.0281164	-0.177793	-0.0204658	0.0248242	-0.00633798	-1.05127	-0.0739746	-0.23291	0.628504	0.226679	-0.732161	0.132436	9.58852	0.759458	-1.67444	0.0121096	0.0116076	-0.0063841	-1.09497	-0.293457	-0.0888672	0.65713	-0.126451	-0.739669	-0.0712746	9.68256	-0.577808	-1.16754	-0.0164077	0.0221936	0.0143578	-1.01807	0.123291	-0.21582	0.629712	-0.034564	-0.775987	0.0105667	9.69338	-0.623567	-1.93767	-0.0317146	-0.000965028	0.00797429	-1.13428	0.0644531	-0.263428	
12	0.915302	0.0109146	0.402155	-0.0193646	-7.00229	0.353801	8.4193	-0.0696619	0.0242526	0.0960627	0.978027	0.0380859	-0.35791	0.779456	-0.0103788	-0.625431	0.0342876	9.79428	-0.777997	2.15494	0.00418223	-0.0291891	-0.0467835	-0.689697	-0.0866699	-0.503174	0.877775	-0.028383	0.447566	0.168491	-7.53925	1.1818	7.21304	0.0320798	-0.0156247	0.0408418	0.868896	-0.303223	-0.26123	0.39879	-0.466969	0.651562	-0.44539	-0.861623	-9.31115	-2.61369	6.87883e-05	-0.00248812	0.0318756	0.020752	0.812988	0.606934	0.898056	-0.186092	0.398045	-0.0206109	-6.91345	-3.38442	6.05909	0.0102131	-0.0653098	0.0370813	0.950928	0.227783	-0.199219	0.525774	0.446294	0.502791	0.521138	-2.57383	9.52379	3.76932	-0.0822275	0.0619332	0.0173095	0.0495605	-0.948242	0.346191	0.806981	0.00180551	-0.588305	0.0517246	9.71094	-1.10723	2.69732	-0.0238626	0.0324782	-0.0456485	-0.780762	0.0368652	-0.606445	0.69377	0.0463424	-0.717252	0.0456742	9.82823	-0.229122	-0.295175	-0.0470158	0.0281441	-0.011554	-1.04663	-0.0783691	-0.230469	0.628487	0.226435	-0.732263	0.132374	9.6828	0.813986	-1.67598	-0.016302	0.00523125	-0.00835782	-1.09741	-0.29126	-0.0910645	0.657206	-0.126868	-0.739494	-0.0716447	9.69866	-0.470121	-1.20405	-0.0404919	0.0261811	0.00449686	-1.01562	0.121094	-0.218018	0.629889	-0.0353618	-0.775819	0.00971865	9.73202	-0.529942	-2.06954	-0.0626953	0.0234376	-0.00179445	-1.13696	0.0710449	-0.263672	
13	0.915403	0.00978153	0.402107	-0.0158476	-7.14176	-0.284497	8.35785	-0.0883091	-0.0067985	0.106322	0.980469	0.0292969	-0.353516	0.779456	-0.0103788	-0.625431	0.0342876	9.79428	-0.777997	2.15494	0.00418223	-0.0291891	-0.0467835	-0.689697	-0.0866699	-0.503174	0.878196	-0.0278488	0.446307	0.169723	-7.31865	1.2455	7.42859	-0.0206678	-0.0347477	0.059443	0.860352	-0.30957	-0.260986	0.400618	-0.466174	0.650976	-0.445439	-1.02884	-9.48017	-2.57768	0.00922075	-0.0353138	0.0276068	0.0163574	0.812988	0.602539	0.898649	-0.184839	0.397318	-0.0200655	-6.88403	-3.25874	6.0533	0.0473297	-0.0235506	0.0266221	0.950928	0.223633	-0.201416	0.525968	0.445561	0.502174	0.522163	-2.60531	9.56832	3.76747	-0.0830337	0.0311539	0.0324225	0.0454102	-0.950195	0.346191	0.806856	0.00259761	-0.588533	0.0510461	9.72227	-1.07177	2.92538	0.0152649	-0.00394458	-0.0485876	-0.780273	0.0283203	-0.608398	0.693617	0.0459841	-0.717439	0.045415	9.77386	-0.194815	-0.212233	-0.0176085	0.004485	-0.0153547	-1.04883	-0.0805664	-0.225586	0.628562	0.226011	-0.73238	0.132089	9.5138	0.663591	-1.77091	-0.0171081	0.00307336	-0.0140131	-1.09741	-0.29126	-0.0910645	0.657109	-0.127495	-0.739407	-0.072314	9.62718	-0.70654	-1.17612	-0.0208889	0.0102355	0.00234884	-1.02466	0.125244	-0.220459	0.630029	-0.0359403	-0.775687	0.00906491	9.62347	-0.609006	-1.98124	-0.0169656	0.0136803	-0.00329444	-1.1394	0.0754395	-0.263672	
14	0.915665	0.00938887	0.401601	-0.0136354	-6.86833	-0.384016	8.29592	-0.0305104	-0.00272528	0.0808013	0.982666	0.0292969	-0.351318	0.779612	-0.00828672	-0.625305	0.0336281	9.74012	-0.700103	2.20665	0.0310844	0.00812944	-0.0546884	-0.685059	-0.0910645	-0.503174	0.878041	-0.0269679	0.446134	0.171119	-7.49798	1.31403	7.43277	0.000704302	0.00492425	0.0745043	0.860596	-0.315918	-0.265381	0.401692	-0.466545	0.651048	-0.443977	-1.12108	-9.46168	-2.51365	-0.0205277	-0.0522742	0.0356098	0.0231934	0.810791	0.606934	0.898693	-0.184273	0.397516	-0.0193588	-6.94598	-3.29253	5.8091	0.00911814	0.016036	0.0185876	0.94873	0.227783	-0.199219	0.526053	0.444651	0.501279	0.52371	-2.40227	9.50767	3.96836	-0.0109986	0.0227364	0.00792616	0.045166	-0.948242	0.343994	0.806652	0.00331832	-0.588821	0.050901	9.60743	-1.01892	2.70478	0.0431629	-0.00506625	-0.0338115	-0.778076	0.0283203	-0.601807	0.693582	0.0457756	-0.717497	0.045237	9.7941	-0.248484	-0.242526	-0.0250649	0.0154382	-0.0145724	-1.05127	-0.0739746	-0.23291	0.628543	0.225902	-0.732429	0.132099	9.60836	0.694179	-1.71362	-0.00430063	0.00746607	-0.0138118	-1.09521	-0.286621	-0.0866699	0.657244	-0.127301	-0.739326	-0.0722618	9.67925	-0.726017	-1.08898	0.00682217	0.013882	-0.00190826	-1.01562	0.121094	-0.218018	0.62986	-0.0359061	-0.775825	0.00902958	9.72608	-0.759119	-1.87706	0.00803409	-0.00317545	-0.00597887	-1.13232	0.0710449	-0.265869	
15	0.915735	0.0098093	0.401453	-0.0129645	-6.94236	-0.311154	8.38782	0.0127513	-0.00615652	0.0703339	0.978516	0.0227051	-0.353516	0.779437	-0.00654062	-0.625541	0.0336667	9.8226	-0.481017	2.16217	0.0286116	-0.00731737	-0.038145	-0.687012	-0.095459	-0.50293	0.877775	-0.0267908	0.446293	0.172092	-7.49951	1.42776	7.3899	-0.0243902	0.0288913	0.0788732	0.860596	-0.311523	-0.263184	0.402055	-0.466975	0.651092	-0.443132	-1.07562	-9.32272	-2.61743	-0.0451901	-0.0510317	0.0208592	0.0229492	0.815186	0.604736	0.898989	-0.183822	0.397105	-0.0183092	-6.92343	-3.43821	5.84445	-0.00701925	-0.0216729	0.0407839	0.946533	0.223633	-0.203613	0.525872	0.444251	0.50136	0.524155	-2.4699	9.4007	3.78731	-0.00443962	0.0398019	0.0116722	0.0454102	-0.952393	0.342041	0.806742	0.0049634	-0.588607	0.0518162	9.78007	-0.896262	2.91904	0.0857188	0.0315658	-0.0236166	-0.778076	0.026123	-0.604004	0.693628	0.0471458	-0.717304	0.0461771	9.80105	-0.187811	-0.34324	0.0794498	0.0120047	-0.0222615	-1.05298	-0.0849609	-0.228027	0.628558	0.226656	-0.732069	0.132726	9.61125	0.528666	-1.73737	0.0394298	0.0162159	-0.0207294	-1.09277	-0.291016	-0.095459	0.657286	-0.126964	-0.739375	-0.0719675	9.64487	-0.698269	-1.14333	0.0352766	0.0138869	-0.00105437	-1.01807	0.123291	-0.220215	0.629753	-0.0356105	-0.775924	0.00926101	9.66623	-0.691295	-1.98179	0.0309541	-0.00450416	-0.0105682	-1.13232	0.0710449	-0.263672	
16	0.915698	0.0101628	0.401581	-0.0112396	-6.82729	0.0901128	8.38578	-0.0239729	0.0331445	0.0434194	0.98291	0.0270996	-0.349121	0.779654	-0.00542048	-0.625257	0.0341058	9.76648	-0.743344	2.14978	0.0421278	0.0261097	-0.03253	-0.689209	-0.0976562	-0.50293	0.877286	-0.0264783	0.44673	0.173497	-7.46908	1.31756	7.31136	-0.0135064	0.0263638	0.0611649	0.858398	-0.315918	-0.260742	0.402897	-0.467724	0.650535	-0.442394	-1.0438	-9.41304	-2.59419	0.00553281	-0.0405116	-0.00230931	0.0275879	0.808594	0.611572	0.8993	-0.183261	0.396685	-0.0177524	-7.07658	-3.35594	5.82051	0.0267797	-0.038868	0.0423648	0.94873	0.223633	-0.208252	0.525651	0.443784	0.501416	0.524718	-2.48261	9.44549	3.77023	-0.00924031	0.0471507	0.0178306	0.0410156	-0.952393	0.342041	0.806733	0.00588903	-0.588581	0.0521434	9.74057	-0.989995	2.83577	0.0434771	0.00679048	-0.0195231	-0.784424	0.0239258	-0.608154	0.693364	0.0486999	-0.717387	0.0472287	9.90668	-0.241556	-0.406589	0.0750246	0.0142564	-0.0304326	-1.05103	-0.0805664	-0.230225	0.629047	0.228961	-0.73047	0.135243	9.71123	0.543697	-1.76849	0.140371	0.0738919	-0.0262537	-1.09521	-0.286621	-0.095459	0.657132	-0.126134	-0.739699	-0.0715064	9.79631	-0.578931	-1.2446	0.0363602	0.00215977	-0.0121347	-1.01562	0.123291	-0.218018	0.629697	-0.0349216	-0.775997	0.00953605	9.76374	-0.614655	-2.03784	0.029925	0.00920551	-0.0193685	-1.12988	0.0666504	-0.263428	
17	0.915536	0.00989553	0.401983	-0.0103321	-6.97256	0.301369	8.39741	-0.0458894	0.0407424	0.0662263	0.980957	0.0205078	-0.351318	0.779706	-0.00505908	-0.625186	0.0342942	9.76326	-0.657669	2.22226	0.0270838	0.0199024	-0.024419	-0.687012	-0.0976562	-0.498291	0.87748	-0.0259105	0.446106	0.174203	-7.57413	1.36976	7.37531	-0.00723528	-0.0296871	0.0381029	0.860596	-0.318115	-0.262939	0.403466	-0.467624	0.650549	-0.44196	-1.07518	-9.40284	-2.62945	0.003167	-0.0136282	0.0201934	0.0251465	0.815186	0.606934	0.899722	-0.183158	0.395825	-0.0165866	-6.82472	-3.18016	6.01603	-0.0397967	-0.0175225	0.0258864	0.948975	0.218994	-0.201416	0.525121	0.441294	0.501531	0.527233	-2.46688	9.54199	3.99437	-0.0506526	0.0748501	0.00946495	0.0388184	-0.950439	0.339844	0.806653	0.00589055	-0.5887	0.0520469	9.75022	-1.00783	2.61603	0.00671517	0.00457872	-0.0225307	-0.773926	0.0305176	-0.610596	0.693288	0.0493976	-0.71738	0.0477227	9.75695	-0.0770446	-0.29694	0.0647493	0.0152463	-0.0296819	-1.05078	-0.0827637	-0.232666	0.629072	0.229944	-0.729894	0.136563	9.46059	0.743579	-1.72292	0.133952	0.0535192	-0.0242363	-1.09277	-0.29126	-0.0932617	0.656975	-0.125224	-0.740082	-0.0705762	9.65813	-0.473955	-1.21954	0.0521786	-0.00226725	0.00159245	-1.02026	0.123291	-0.213379	0.62981	-0.0340693	-0.775935	0.0102129	9.61703	-0.581075	-2.12042	0.0456351	0.0110368	-0.0111671	-1.13208	0.0644531	-0.26123	
18	0.915534	0.00863537	0.402083	-0.0072634	-7.07262	0.0577311	8.3491	-0.102757	-0.00578089	0.0989396	0.976562	0.0183105	-0.351318	0.779694	-0.00342502	-0.625153	0.0353392	9.5051	-0.550827	2.13764	0.0959644	-0.037168	-0.0297531	-0.684814	-0.0996094	-0.49585	0.8776	-0.0259564	0.445686	0.174668	-7.42619	1.25613	7.34894	-0.00980753	-0.00263524	0.0101981	0.858398	-0.315918	-0.258545	0.404068	-0.467759	0.650387	-0.441507	-1.04841	-9.49468	-2.57984	-0.0147387	-0.0158272	0.0196922	0.0249023	0.821777	0.602539	0.89961	-0.183686	0.39589	-0.0152386	-6.81443	-3.15486	5.98567	-0.0468782	-0.000112193	0.0297379	0.945068	0.210449	-0.206055	0.525191	0.440276	0.501406	0.528132	-2.47116	9.55519	3.92935	-0.0647612	0.0606454	0.00259451	0.0410156	-0.952393	0.335449	0.806419	0.00666136	-0.588973	0.0524892	9.47908	-0.864497	2.74837	0.0713008	-0.0159135	-0.0195407	-0.780273	0.0283203	-0.606201	0.69293	0.050266	-0.717622	0.0483704	9.72911	-0.127936	-0.304683	0.0348145	0.0094297	-0.0217538	-1.04639	-0.0827637	-0.230225	0.629129	0.23147	-0.729114	0.137879	9.45318	0.7312	-1.72055	0.0810543	0.0298798	-0.0298868	-1.09741	-0.29126	-0.095459	0.65697	-0.124476	-0.740247	-0.0702259	9.62457	-0.481419	-1.22502	0.0236989	0.0122241	-0.0155668	-1.01807	0.123291	-0.213379	0.629825	-0.0334112	-0.775947	0.0105146	9.62231	-0.537192	-2.03977	0.0117504	0.00773755	-0.0175298	-1.14136	0.0666504	-0.259033	
19	0.915859	0.00746327	0.401406	-0.00447037	-6.95357	-0.0737422	8.38626	-0.0725761	-0.0289064	0.0851746	0.983154	0.0185547	-0.355713	0.778741	-0.00279259	-0.626306	0.0359881	9.66831	-0.519158	1.86354	0.0259524	-0.0783246	-0.00554966	-0.689453	-0.0932617	-0.498291	0.877425	-0.0258708	0.445746	0.175405	-7.45397	1.35386	7.29853	-0.0300419	0.0145577	0.0384869	0.860596	-0.318115	-0.265381	0.40422	-0.468005	0.650494	-0.440947	-1.10482	-9.29224	-2.66961	-0.0471673	-0.0246491	0.0193312	0.0253906	0.810791	0.61377	0.899639	-0.184467	0.395501	-0.0141791	-6.85593	-3.05778	5.71921	-0.0344776	-0.028603	-0.000262891	0.948975	0.219238	-0.203613	0.524454	0.438438	0.503488	0.528413	-2.19533	9.47691	3.82855	0.0468936	0.0687244	-0.0534972	0.0410156	-0.950439	0.343994	0.806236	0.00721927	-0.589184	0.0528514	9.54661	-0.864618	2.6238	0.0644935	-0.00839611	-0.018753	-0.780029	0.0239258	-0.601807	0.692848	0.0509771	-0.717628	0.0487159	9.82792	-0.0945614	-0.223856	0.0165809	0.018458	-0.0251631	-1.05518	-0.0827637	-0.232666	0.629057	0.231931	-0.728953	0.138283	9.55859	0.75915	-1.54374	0.0511917	0.0158283	-0.0307913	-1.09985	-0.29126	-0.0998535	0.657047	-0.123947	-0.740287	-0.070004	9.63137	-0.573854	-1.22317	0.0257626	0.0137525	-0.000695216	-1.02002	0.121094	-0.220215	0.629683	-0.0328771	-0.776077	0.0110912	9.62088	-0.589821	-2.04812	0.0367267	-0.0050228	0.00131573	-1.13428	0.0644531	-0.26123	
20	0.916328	0.00558476	0.400384	-0.0021619	-6.86864	0.045515	8.41695	-0.110968	-0.0449024	0.0510805	0.983643	0.0119629	-0.353271	0.777712	-0.00177579	-0.6275	0.037485	9.87447	-0.546109	2.22256	0.0536363	0.0107516	0.00528697	-0.689453	-0.0932617	-0.496094	0.877673	-0.0264241	0.444829	0.176406	-7.43245	1.50877	7.41862	-0.0641734	-0.0324814	0.0252248	0.860596	-0.315918	-0.263184	0.405735	-0.468864	0.649538	-0.440052	-1.23698	-9.11909	-2.70996	0.0637673	-0.0589219	-0.0184844	0.0297852	0.808594	0.609375	0.899858	-0.185667	0.394461	-0.0135451	-6.91034	-3.36161	5.90067	-0.0421363	-0.0454671	-0.0214403	0.951172	0.216797	-0.201416	0.525439	0.435951	0.503801	0.529193	-2.40578	9.41342	3.80769	-0.0939274	0.0428051	-0.0488894	0.0390625	-0.956787	0.339844	0.806939	0.00777473	-0.588149	0.0535659	9.75262	-0.856195	2.69333	0.0284153	0.0380466	-0.000117813	-0.778076	0.0239258	-0.606201	0.693109	0.0510568	-0.717388	0.0484488	9.81731	-0.131312	-0.314227	-0.00673372	0.0232182	-0.0193357	-1.04883	-0.0805664	-0.228027	0.62907	0.232029	-0.729061	0.137489	9.65518	0.71354	-1.73332	-0.0220997	-0.000850559	-0.0290033	-1.09277	-0.29126	-0.0932617	0.657064	-0.123746	-0.740318	-0.069875	9.64123	-0.544877	-1.16169	0.018004	0.0139785	-0.00212502	-1.01978	0.114502	-0.220215	0.629449	-0.0322284	-0.776283	0.0118353	9.75963	-0.563279	-2.0046	0.0388992	-0.00138407	-0.00791467	-1.13672	0.0688477	-0.256836	
21	0.916766	0.00353098	0.399409	0.000335539	-6.64196	-0.0408486	8.27645	-0.111977	-0.0287972	0.0725192	0.979248	0.0119629	-0.357666	0.778233	-0.00173249	-0.626791	0.0385017	9.83968	-0.55619	2.11772	0.0177805	0.0573956	0.0171643	-0.691406	-0.0998535	-0.49585	0.877874	-0.0270074	0.444239	0.176803	-7.47635	1.33805	7.44724	-0.0681758	-0.0305073	0.00957845	0.856201	-0.318115	-0.265381	0.407332	-0.469761	0.647268	-0.440964	-1.24833	-9.57566	-2.42724	0.0933179	-0.0662872	-0.0587248	0.029541	0.817383	0.602539	0.900245	-0.185956	0.393445	-0.0134146	-6.85619	-3.26867	5.98418	-0.0188111	-0.0842217	-0.026564	0.944824	0.216797	-0.203613	0.526405	0.43337	0.503648	0.530496	-2.50859	9.45617	4.25049	-0.0560611	0.0511917	-0.0350727	0.0412598	-0.95459	0.333496	0.806246	0.00837583	-0.589012	0.0544167	9.81421	-0.856281	2.71263	0.0437279	-0.0371988	0.00672441	-0.775635	0.0217285	-0.608154	0.693109	0.0515094	-0.717343	0.0486403	9.83245	-0.112332	-0.296762	0.0128816	0.0108881	-0.0215093	-1.05054	-0.0871582	-0.227783	0.62907	0.232029	-0.729061	0.137489	9.65518	0.71354	-1.73332	-0.0220997	-0.000850559	-0.0290033	-1.09277	-0.29126	-0.0932617	0.657325	-0.123482	-0.740129	-0.0698879	9.62155	-0.653335	-1.18437	-0.00118583	0.0143867	0.00275064	-1.02222	0.12085	-0.215576	0.629464	-0.0319163	-0.776283	0.011845	9.66615	-0.598842	-2.06776	0.00938953	0.00487191	-0.0114592	-1.13672	0.0688477	-0.26123	
22	0.916553	0.00169017	0.399901	0.00271973	-6.80458	-0.22011	8.3013	-0.090536	0.0473068	0.0486701	0.979248	0.00976562	-0.349121	0.778185	-0.00213719	-0.626776	0.0396836	9.72311	-0.569061	2.02938	0.014709	0.00960799	0.0307496	-0.687256	-0.0932617	-0.498291	0.877786	-0.0297049	0.443691	0.17818	-7.34919	1.30317	7.53491	-0.083821	0.0592531	0.00130644	0.860352	-0.311523	-0.27002	0.407341	-0.471457	0.645584	-0.441615	-1.23883	-9.61977	-2.31681	0.0165219	-0.0400888	-0.0839939	0.0249023	0.817383	0.598145	0.900619	-0.18714	0.392028	-0.0133116	-6.78797	-3.31608	6.24269	-0.0540373	-0.000737907	-0.0182392	0.942139	0.225586	-0.203613	0.526221	0.431526	0.504587	0.531289	-2.58787	9.71707	4.22134	0.00899643	0.0740283	-0.0295205	0.0432129	-0.95459	0.331299	0.805457	0.00885704	-0.589948	0.0558704	9.6052	-1.0081	2.78344	0.0573282	-0.0285592	0.0214364	-0.782227	0.0239258	-0.601807	0.693096	0.0512259	-0.717406	0.0481987	9.81708	-0.194492	-0.382687	-0.0292758	0.0105078	-0.024008	-1.04443	-0.0827637	-0.228027	0.629086	0.232488	-0.729033	0.136792	9.63588	0.660995	-1.69826	-0.00814614	0.00145362	-0.02969	-1.0835	-0.293457	-0.0908203	0.6573	-0.123177	-0.740227	-0.0696326	9.68907	-0.586733	-1.20816	0.0309469	0.00810021	-0.00250085	-1.02002	0.121094	-0.220215	0.629571	-0.0312757	-0.776219	0.0121075	9.79806	-0.556227	-2.05179	0.0180479	0.0207076	-0.0191838	-1.13208	0.0644531	-0.263428	
23	0.916298	-0.000506047	0.400474	0.00425207	-6.87756	-0.191251	8.45144	-0.102392	0.0207732	0.0214832	0.979248	0.00756836	-0.346924	0.777764	-0.00239445	-0.627231	0.0407431	9.76361	-0.575137	1.99609	0.0134202	-0.00396316	0.0198236	-0.689209	-0.0998535	-0.498047	0.876901	-0.0310984	0.445347	0.178169	-7.42085	1.23448	7.25457	-0.0308896	0.103969	-0.0188255	0.862793	-0.315918	-0.260742	0.40633	-0.473164	0.645323	-0.441102	-0.979436	-9.46856	-2.37726	-0.0782412	0.000935294	-0.0424591	0.0251465	0.815186	0.604736	0.900065	-0.188959	0.392447	-0.0127845	-6.74698	-3.30456	6.11323	-0.0904365	0.0377269	-0.0103742	0.948975	0.221436	-0.206055	0.5253	0.430214	0.507131	0.530843	-2.57794	9.57112	4.23387	0.098387	0.0918179	-0.0602651	0.0410156	-0.952393	0.339844	0.804835	0.00984738	-0.590608	0.0576707	9.76658	-0.983443	2.75487	0.0875316	0.00104289	0.0139902	-0.784424	0.0239258	-0.599609	0.693105	0.0513289	-0.717412	0.0478658	9.85039	-0.17778	-0.288286	0.00148666	0.0179895	-0.0268301	-1.05298	-0.0827637	-0.230225	0.629152	0.232605	-0.72898	0.136567	9.65328	0.718499	-1.63935	0.00494181	0.0163905	-0.0300149	-1.09473	-0.298096	-0.0908203	0.657197	-0.122077	-0.740558	-0.0690201	9.66198	-0.561381	-1.1007	0.0214996	0.00196568	-0.0144107	-1.02002	0.118896	-0.215576	0.629864	-0.0307829	-0.776003	0.0119424	9.65128	-0.549717	-1.95148	0.0045476	0.021426	-0.024834	-1.12769	0.0666504	-0.263428	
24	0.916035	-0.00230906	0.401058	0.00525141	-6.70401	-0.409653	8.28148	-0.067848	0.0391087	0.00362572	0.983398	0.0141602	-0.353516	0.778566	-0.00292887	-0.626191	0.0413656	9.67739	-0.493104	1.97742	-0.00280067	0.0953386	0.0127931	-0.689453	-0.0910645	-0.505615	0.876468	-0.0312759	0.446335	0.177793	-7.36218	1.13881	7.19602	0.00778802	0.0985352	-0.0193403	0.864746	-0.311768	-0.260986	0.40527	-0.473965	0.646097	-0.440082	-0.939445	-9.31748	-2.41627	-0.149851	0.0230708	-0.0117626	0.0229492	0.812988	0.609131	0.899575	-0.190201	0.392989	-0.0121842	-6.7727	-3.24647	6.15459	-0.117115	0.0489608	0.000427725	0.946777	0.221436	-0.208252	0.524328	0.429881	0.509176	0.530116	-2.54242	9.41836	4.10569	0.157826	0.107343	-0.0679101	0.0412598	-0.952393	0.346191	0.804505	0.0106995	-0.590908	0.0590313	9.61741	-0.876367	2.78116	0.0617387	0.00109585	0.00809292	-0.781982	0.0195312	-0.601807	0.693012	0.051961	-0.717437	0.0481458	9.69566	-0.0736416	-0.328016	0.0192435	0.00725135	-0.0298807	-1.05078	-0.0849609	-0.230225	0.629051	0.232722	-0.729089	0.136252	9.50944	0.715156	-1.72954	-0.0109981	-0.0047064	-0.0321174	-1.09277	-0.293457	-0.0932617	0.65711	-0.121708	-0.740712	-0.0688433	9.69111	-0.54817	-1.14962	0.0286563	0.00250877	-0.0111812	-1.01782	0.121094	-0.220215	0.629921	-0.0305038	-0.775968	0.0119415	9.66027	-0.620435	-1.95051	0.0166373	0.01316	-0.02152	-1.14111	0.0622559	-0.26123	
25	0.915763	-0.00271246	0.401676	0.00520867	-6.65625	-0.341377	8.30307	-0.0236117	0.0639178	-0.0109351	0.983643	0.00976562	-0.344727	0.778919	-0.00285014	-0.625722	0.0418225	9.53715	-0.549419	1.9626	0.0259294	0.0601827	0.00555574	-0.682861	-0.0910645	-0.500732	0.875701	-0.0316299	0.448087	0.177104	-7.32169	1.24766	7.16896	0.0084893	0.0844005	-0.0193063	0.860596	-0.320312	-0.258545	0.403545	-0.474731	0.647412	-0.438907	-0.944504	-9.15471	-2.64158	-0.0834449	0.0406993	-0.00078013	0.0253906	0.806396	0.61377	0.898566	-0.192113	0.394398	-0.0110665	-6.69051	-3.39858	5.99628	-0.0707652	0.0692247	0.0138572	0.951172	0.221191	-0.196777	0.522675	0.429182	0.512251	0.529351	-2.61225	9.28808	3.81158	0.0950862	0.0823872	-0.0308466	0.0429688	-0.946045	0.345947	0.804205	0.010976	-0.591256	0.0595895	9.58105	-0.812952	2.78544	0.0544535	-0.0215488	0.00796426	-0.786621	0.026123	-0.599854	0.692799	0.0520066	-0.717646	0.0480515	9.78776	-0.00316771	-0.313451	-0.00529231	-0.00451464	-0.0234567	-1.04883	-0.0805664	-0.225586	0.62902	0.232648	-0.729196	0.135948	9.59355	0.77986	-1.72934	-0.020658	-0.00251493	-0.030692	-1.08789	-0.297852	-0.0930176	0.656706	-0.121286	-0.741155	-0.0686712	9.59825	-0.42061	-1.32737	0.00498496	-0.0135047	-0.00711277	-1.02417	0.112061	-0.215576	0.629962	-0.0301967	-0.77595	0.0117372	9.68709	-0.509694	-2.1257	-0.00663951	0.0138399	-0.0178998	-1.13892	0.0622559	-0.268066	
26	0.914851	-0.00346733	0.403741	0.00531239	-6.78179	-0.224532	8.27467	-0.0269533	0.107547	-0.008903	0.987793	0.0141602	-0.340332	0.778869	-0.00228049	-0.625727	0.0427117	9.803	-0.581766	2.12694	0.027978	0.0255668	-0.00539465	-0.691406	-0.095459	-0.49585	0.875327	-0.0314156	0.449131	0.176345	-7.5025	1.19275	7.20118	0.0159437	0.0456692	-0.0102475	0.860596	-0.313965	-0.251709	0.402362	-0.475138	0.648107	-0.438527	-0.845259	-9.16098	-2.58132	-0.0435616	0.0462751	-0.0123375	0.0275879	0.808594	0.61377	0.897598	-0.193492	0.395953	-0.00994734	-6.96901	-3.35033	5.88226	-0.0700353	0.0586501	0.00921489	0.94873	0.223633	-0.203613	0.521619	0.428411	0.514124	0.529201	-2.39757	9.36582	3.70845	0.0575257	0.0650474	-0.0188049	0.045166	-0.948242	0.348145	0.804713	0.012194	-0.590385	0.061102	9.74579	-0.850364	2.70233	0.0967697	0.0619936	-0.00163465	-0.78418	0.017334	-0.597412	0.692613	0.051529	-0.717911	0.0472725	9.80892	-0.101744	-0.307694	-0.036775	-0.00332769	-0.0158502	-1.05078	-0.0849609	-0.230225	0.629077	0.232257	-0.729408	0.135212	9.58114	0.603524	-1.77391	-0.0211895	0.00094684	-0.0247063	-1.09277	-0.293457	-0.095459	0.656015	-0.121542	-0.741686	-0.0690891	9.66558	-0.577931	-1.21633	-0.0322798	-0.0165122	-0.000867013	-1.02002	0.121094	-0.215576	0.63032	-0.0306769	-0.775655	0.0107166	9.61824	-0.671503	-2.02216	-0.0510167	0.0286972	-0.0105212	-1.13184	0.0600586	-0.268066	
27	0.913855	-0.00474524	0.405988	0.00455503	-7.11339	-0.330958	8.22438	-0.0325274	0.101199	-0.0445773	0.985352	0.0205078	-0.338379	0.779266	-0.00242648	-0.625202	0.0431468	9.74366	-0.459594	2.08728	-9.05781e-05	0.0432575	-0.00116951	-0.687012	-0.0998535	-0.498047	0.875075	-0.0318068	0.44979	0.175844	-7.5185	1.2908	7.32668	-0.00825644	0.0463483	-0.0202331	0.858398	-0.313721	-0.25415	0.401521	-0.475226	0.647733	-0.439755	-0.975402	-9.37531	-2.72908	0.0366492	0.044603	-0.0537117	0.0231934	0.808594	0.611572	0.897228	-0.193861	0.396606	-0.0101573	-6.87718	-3.43605	5.88401	-0.0137827	0.035254	-0.0135846	0.953125	0.223389	-0.196777	0.521518	0.427059	0.514099	0.530416	-2.54961	9.40718	3.78036	-0.0426156	0.0367468	0.0146505	0.0410156	-0.950195	0.350586	0.805592	0.0120981	-0.589182	0.0611552	9.78749	-0.845517	2.71181	0.00642265	0.0678252	-0.00705953	-0.782471	0.026123	-0.601807	0.692312	0.0507951	-0.718299	0.0465949	9.79685	0.0193095	-0.232905	-0.0540069	0.00324708	-0.010167	-1.05298	-0.0827637	-0.223389	0.628971	0.231721	-0.729797	0.134525	9.55449	0.885684	-1.66721	-0.0559025	-0.0103877	-0.0195982	-1.09253	-0.295654	-0.0908203	0.655425	-0.121832	-0.742148	-0.0692201	9.71517	-0.377972	-1.16296	-0.0132043	-0.0153874	0.00585576	-1.01978	0.112305	-0.213135	0.630485	-0.0307986	-0.775519	0.010472	9.70588	-0.352367	-1.99376	-0.0124493	0.0147908	-0.00677199	-1.13208	0.0622559	-0.270264	
28	0.913068	-0.00537316	0.407753	0.00377583	-7.31946	-0.328192	8.26195	-0.00181788	0.0820404	-0.0260559	0.987549	0.0161133	-0.32959	0.779371	-0.00313759	-0.625065	0.0431756	9.6881	-0.640092	2.13641	-0.0359182	0.0157016	0.00331732	-0.684814	-0.0976562	-0.500488	0.874498	-0.0321909	0.451041	0.175442	-7.62407	1.22231	7.16559	0.00445631	0.076412	-0.012044	0.864746	-0.30957	-0.25415	0.401074	-0.475534	0.647397	-0.440322	-0.941608	-9.45808	-2.66363	0.00991321	0.0361829	-0.0608506	0.0187988	0.806152	0.611572	0.896808	-0.194552	0.397222	-0.0099507	-6.90934	-3.509	5.95263	-0.0227314	0.0422658	-0.0164638	0.955566	0.221191	-0.19458	0.521012	0.426264	0.514737	0.530934	-2.59465	9.61821	3.83712	0.0389252	0.043588	-0.00340956	0.0388184	-0.946045	0.352539	0.805964	0.0119171	-0.588641	0.0614967	9.63233	-0.929312	2.62821	0.0321593	0.0329883	-0.00155994	-0.780029	0.0195312	-0.601807	0.69186	0.0503074	-0.718806	0.0460037	9.79993	-0.226889	-0.412773	-0.00754231	0.000526592	-0.0211042	-1.05713	-0.0871582	-0.223145	0.628971	0.231721	-0.729797	0.134525	9.55449	0.885684	-1.66721	-0.0559025	-0.0103877	-0.0195982	-1.09253	-0.295654	-0.0908203	0.655099	-0.122051	-0.742366	-0.0695747	9.66897	-0.643678	-1.05529	-0.000273305	0.00733653	-0.00308619	-1.01782	0.118896	-0.215576	0.630362	-0.0310441	-0.775617	0.00991374	9.63669	-0.68409	-1.84645	0.00978848	-0.00479827	-0.0104817	-1.13428	0.0622559	-0.268066	
29	0.91265	-0.00547815	0.408692	0.00329891	-7.18069	-0.32477	8.23586	0.0117998	0.0437531	-0.0211198	0.989502	0.0227051	-0.331787	0.779389	-0.00364036	-0.625047	0.0430921	9.75552	-0.63684	2.1095	-0.0406047	0.0176764	0.0018937	-0.685303	-0.0866699	-0.498535	0.87405	-0.0322355	0.452315	0.174383	-7.54005	1.13618	7.13817	0.0341037	0.0653894	-0.0327041	0.869141	-0.309814	-0.238281	0.398352	-0.476335	0.648686	-0.440031	-0.912299	-9.5225	-2.85918	-0.0948849	0.0497039	0.00280199	0.0166016	0.806152	0.624756	0.896305	-0.19499	0.398137	-0.0101581	-6.86625	-3.39836	5.99361	-0.0276934	0.0527928	-0.0179063	0.948975	0.218994	-0.19458	0.520096	0.426186	0.516603	0.530082	-2.61745	9.65959	3.74476	0.107212	0.0301678	-0.0319075	0.0322266	-0.946045	0.350342	0.806594	0.0118458	-0.587737	0.0618939	9.71554	-0.916834	2.79161	0.0220322	0.0727035	-0.0045079	-0.773682	0.026123	-0.601807	0.691776	0.0509937	-0.718813	0.0464105	9.82399	-0.124323	-0.317079	0.0293427	0.00709134	-0.0168204	-1.05273	-0.0849609	-0.220947	0.628643	0.232726	-0.729745	0.134609	9.61298	0.663543	-1.75991	0.015788	-0.00402534	-0.0184106	-1.09741	-0.293457	-0.0888672	0.655156	-0.121986	-0.742318	-0.0696785	9.708	-0.52311	-1.23865	-0.00173886	0.0109536	-0.00268777	-1.01758	0.116699	-0.213379	0.630082	-0.0306378	-0.775857	0.0101966	9.73112	-0.541054	-1.97263	0.0196277	-0.0112688	-0.00752379	-1.13208	0.0644531	-0.263428	
30	0.912337	-0.00514998	0.409401	0.00250067	-7.18144	-0.124445	8.25619	0.0300566	0.030104	-0.0130756	0.987549	0.0161133	-0.327637	0.779075	-0.00415461	-0.625483	0.0423757	9.82113	-0.659464	2.17561	-0.0241002	-0.00303786	-0.0243935	-0.687256	-0.0932617	-0.498291	0.873935	-0.0312654	0.453183	0.172874	-7.69766	1.17541	7.11625	0.0550597	0.0170196	-0.0271862	0.864746	-0.311768	-0.240479	0.396938	-0.476209	0.650332	-0.439014	-0.812713	-9.25573	-2.78553	-0.0777324	0.0614837	0.0355208	0.0212402	0.801758	0.620361	0.895339	-0.195823	0.399893	-0.0103607	-7.08327	-3.55446	5.95198	-0.0214945	0.0866677	-0.0248177	0.948975	0.221191	-0.187744	0.519218	0.426697	0.518365	0.528811	-2.55299	9.49026	3.62974	0.116459	0.00145464	-0.0146357	0.0388184	-0.946045	0.361084	0.807198	0.0116175	-0.586912	0.0618886	9.74022	-1.02642	2.70136	0.00363951	0.0543334	-0.0179421	-0.775635	0.0217285	-0.605957	0.691706	0.0511493	-0.718856	0.0466076	9.82371	-0.0922389	-0.397001	-0.000138984	0.0202347	-0.0146652	-1.04419	-0.0871582	-0.223145	0.628483	0.233781	-0.729242	0.13624	9.66337	0.722736	-1.72499	0.0708681	0.0350421	-0.0152869	-1.09253	-0.295654	-0.0908203	0.655198	-0.122089	-0.742248	-0.0698392	9.71367	-0.537334	-1.35042	-0.00638695	0.0155855	0.00390747	-1.01538	0.114502	-0.222412	0.629912	-0.0305567	-0.775997	0.0103094	9.72101	-0.652137	-1.9954	0.00481461	0.00199918	-0.00305516	-1.13184	0.0578613	-0.268066	
31	0.912082	-0.00506751	0.409972	0.00196371	-7.03717	-0.13864	8.1566	0.0106364	0.0322333	-0.0170216	0.987549	0.0161133	-0.32959	0.778969	-0.00414828	-0.62562	0.0423119	9.91953	-0.669845	2.1945	-0.00804374	9.33323e-05	-0.0220039	-0.687256	-0.0910645	-0.500732	0.874076	-0.0308891	0.453148	0.172322	-7.58143	1.15069	7.17985	0.0390733	-0.000296332	-0.023776	0.869141	-0.309814	-0.242676	0.396399	-0.475964	0.650996	-0.438783	-0.859149	-9.24027	-2.78011	-0.0501087	0.064979	0.0262598	0.0166016	0.806152	0.620361	0.895033	-0.195469	0.400738	-0.0108315	-7.09295	-3.48474	5.89575	0.0335655	0.084156	-0.0218026	0.953369	0.218994	-0.189941	0.518945	0.427105	0.518577	0.528541	-2.50084	9.44209	3.53251	0.0705729	-0.0151941	0.0169058	0.0385742	-0.94165	0.36084	0.807214	0.0126474	-0.586794	0.0625965	9.80259	-0.861912	2.78137	0.0885192	0.00366742	-0.0188269	-0.777832	0.0217285	-0.604004	0.691674	0.0511655	-0.718882	0.0466665	9.85667	-0.235816	-0.556926	0.00148152	0.0169477	-0.0144592	-1.04858	-0.0849609	-0.220947	0.628473	0.234482	-0.728817	0.137353	9.64469	0.51967	-1.84263	0.106288	0.0435537	-0.0145741	-1.09277	-0.293457	-0.0864258	0.655312	-0.122002	-0.742184	-0.0695998	9.68673	-0.558902	-1.33149	0.0169125	0.0220567	0.0124761	-1.02441	0.118652	-0.211182	0.629935	-0.0302779	-0.775983	0.010731	9.69679	-0.59256	-2.08019	0.0419497	0.00858774	0.000734776	-1.13428	0.0622559	-0.26123	
32	0.911826	-0.00559285	0.410536	0.00143146	-7.23956	-0.308059	8.16251	-0.00256454	0.0294593	-0.0274578	0.994141	0.0205078	-0.321045	0.779089	-0.00405241	-0.625482	0.042141	9.83315	-0.643125	2.07396	-0.00624768	0.0281828	-0.0337891	-0.69165	-0.0910645	-0.496094	0.874143	-0.0304058	0.453363	0.171497	-7.49938	1.24652	7.30989	0.0218942	0.0267346	-0.0161169	0.873291	-0.307617	-0.245117	0.39577	-0.475731	0.651184	-0.439323	-0.953447	-9.36802	-2.72685	0.0121867	0.0400067	-0.0185271	0.0146484	0.799561	0.624756	0.894549	-0.194889	0.402074	-0.0117097	-7.06958	-3.54061	5.57829	0.0290861	0.0639789	-0.0266699	0.955322	0.223389	-0.187744	0.519193	0.427046	0.517463	0.529436	-2.42308	9.39185	3.52809	-0.0368396	-0.0141473	0.0405758	0.0388184	-0.946045	0.356689	0.806909	0.014063	-0.587104	0.0633109	9.42176	-0.946767	2.67818	0.0645924	-0.0119169	-0.0242103	-0.781982	0.0153809	-0.610107	0.691497	0.0522516	-0.718898	0.0478215	9.73458	0.0138863	-0.408796	0.0738314	0.0216445	-0.0160557	-1.04663	-0.0805664	-0.21875	0.628473	0.234482	-0.728817	0.137353	9.64469	0.51967	-1.84263	0.106288	0.0435537	-0.0145741	-1.09277	-0.293457	-0.0864258	0.655326	-0.121455	-0.742326	-0.068909	9.60918	-0.329148	-1.37579	0.0269538	0.00867873	0.00161005	-1.02002	0.121094	-0.213379	0.6301	-0.0298462	-0.775859	0.0112408	9.64117	-0.41946	-2.16004	0.0280458	0.0117897	-0.00238409	-1.13428	0.0600586	-0.26123	
33	0.911757	-0.0055258	0.410692	0.00108474	-7.23424	-0.284163	8.22954	0.01967	0.0206035	-0.0193621	0.996338	0.0205078	-0.318848	0.779011	-0.0031678	-0.625617	0.0416612	9.55296	-0.705415	1.96922	0.0122427	-0.014061	-0.0245196	-0.682861	-0.0910645	-0.496094	0.873918	-0.0302708	0.453938	0.171145	-7.47551	1.12746	7.13459	0.00975309	0.0336139	0.00101921	0.864746	-0.30957	-0.242676	0.394827	-0.476119	0.651771	-0.438882	-0.873124	-9.33345	-2.76248	-0.0682679	0.0261121	0.00262931	0.0100098	0.806152	0.626953	0.894457	-0.194727	0.402356	-0.0117548	-7.00877	-3.3495	5.52347	-0.0106119	0.00965392	0.00299354	0.953125	0.223389	-0.185303	0.518279	0.426854	0.518497	0.529475	-2.38527	9.46235	3.62149	0.0784022	0.0532646	-0.00580137	0.0341797	-0.94165	0.363037	0.806479	0.0145983	-0.587652	0.0635843	9.47675	-1.02097	2.72552	0.0567865	-0.0422663	-0.0210545	-0.777588	0.0175781	-0.614502	0.691523	0.0524668	-0.718844	0.0480238	9.69147	0.157798	-0.25946	0.0214867	0.0248981	-0.0192634	-1.05322	-0.0786133	-0.21875	0.628771	0.235054	-0.72841	0.137173	9.56386	0.682997	-1.66989	-0.0702913	-0.0108999	-0.0206953	-1.09253	-0.298096	-0.0930176	0.655573	-0.121451	-0.742106	-0.0689368	9.60888	-0.375946	-1.27679	-0.000792507	0.0207504	0.00239508	-1.02661	0.116455	-0.210938	0.63009	-0.0300109	-0.775863	0.0111246	9.62571	-0.559518	-2.01419	-0.0139447	0.00879027	-5.8291e-05	-1.13208	0.0622559	-0.263428	
34	0.911975	-0.0052078	0.410212	0.00105974	-7.27706	0.014155	8.27527	0.0091968	-0.0340039	0.0127812	0.989746	0.0205078	-0.327637	0.778579	-0.00325698	-0.626142	0.0418452	9.65171	-0.571795	1.97764	-0.00850954	-0.00836148	-0.0052717	-0.689453	-0.0932617	-0.500732	0.873974	-0.029861	0.453853	0.171155	-7.57469	1.15695	7.02344	0.00437573	-0.0123071	0.0122531	0.869141	-0.309814	-0.240479	0.394884	-0.47604	0.65223	-0.438233	-0.859613	-9.2792	-3.01478	0.00137869	-0.00346012	0.0287091	0.0124512	0.801758	0.626953	0.894591	-0.195306	0.401811	-0.010524	-6.98442	-3.40594	5.54578	-0.0509372	-0.0458346	0.0207681	0.953125	0.223389	-0.183105	0.517605	0.425253	0.5203	0.529654	-2.40747	9.45673	3.30136	0.02775	0.0772757	-0.0499175	0.0302734	-0.946045	0.361084	0.806002	0.0150645	-0.588228	0.0642003	9.71335	-0.82334	2.79225	0.0295245	0.00441656	-0.00181322	-0.78418	0.0175781	-0.60376	0.691996	0.0518646	-0.718485	0.0472223	9.78461	-0.0366275	-0.311923	-0.040964	0.0332585	-0.0155172	-1.04858	-0.0849609	-0.228027	0.628614	0.233338	-0.729492	0.135051	9.67353	0.706822	-1.79645	-0.0999017	-0.0253968	-0.00946649	-1.09253	-0.295654	-0.0932617	0.655738	-0.122065	-0.741815	-0.0694107	9.67016	-0.414515	-1.21134	-0.0430768	0.0230622	0.0126806	-1.02222	0.116455	-0.210938	0.630146	-0.0307867	-0.775795	0.0104923	9.6792	-0.450029	-2.06033	-0.0556527	0.0119893	0.00247368	-1.13208	0.0644531	-0.265869	
35	0.912413	-0.00507046	0.409233	0.00243516	-7.14739	-0.289135	8.292	-0.0120313	-0.0276357	0.0666512	0.991943	0.0205078	-0.327637	0.778279	-0.00337727	-0.626494	0.0421391	9.88985	-0.578386	2.06595	-0.00421703	0.00589238	-0.00706728	-0.689453	-0.0932617	-0.493652	0.874511	-0.029405	0.452809	0.17126	-7.59111	1.26403	7.08747	-0.0125083	-0.0480708	0.0131237	0.864746	-0.311768	-0.240479	0.396163	-0.475685	0.651556	-0.438467	-0.779992	-9.26032	-2.87162	0.0619217	-0.0243773	0.0174016	0.0146484	0.801758	0.624756	0.8954	-0.196056	0.399673	-0.00909403	-6.99831	-3.25629	5.74254	-0.0428587	-0.111694	0.00651056	0.953369	0.221191	-0.187744	0.518283	0.422316	0.521041	0.530612	-2.34814	9.36744	3.56738	-0.0784125	0.0629352	-0.0642887	0.0324707	-0.948242	0.363281	0.80616	0.0143831	-0.588042	0.064074	9.82561	-0.895385	2.82583	-0.0114897	0.0343867	-0.00740651	-0.777588	0.0131836	-0.60791	0.692795	0.0503963	-0.717897	0.0460349	9.83077	-0.151191	-0.361335	-0.0443239	0.0323729	-0.0128979	-1.05298	-0.0827637	-0.225586	0.628695	0.23247	-0.729844	0.13427	9.65999	0.679722	-1.77859	-0.0360044	0.00365059	-0.0128804	-1.09521	-0.29126	-0.0888672	0.655834	-0.123053	-0.741483	-0.0703092	9.70445	-0.60486	-1.32476	-0.065808	0.0257786	0.0124112	-1.02441	0.118652	-0.211182	0.630267	-0.0319009	-0.775665	0.00944859	9.75522	-0.643098	-2.00521	-0.0588693	0.0219124	0.00499582	-1.12769	0.0644531	-0.265869	
36	0.913098	-0.00434919	0.407704	0.00316479	-7.14177	-0.349585	8.10211	0.023962	-0.0653773	0.0259012	0.991943	0.0205078	-0.327637	0.778689	-0.00412778	-0.626001	0.0418303	9.68564	-0.55531	2.10517	-0.0442215	0.0525554	-0.00906212	-0.687256	-0.0910645	-0.493652	0.875254	-0.0292389	0.451199	0.171743	-7.43631	1.29332	7.29649	-0.0178511	-0.0420538	0.021307	0.869141	-0.316162	-0.251709	0.398708	-0.475042	0.649292	-0.440211	-1.11219	-9.20725	-2.83948	0.143747	-0.0582148	-0.0157148	0.0166016	0.806152	0.615967	0.896566	-0.196162	0.397014	-0.00836384	-6.87004	-3.48903	6.08146	-0.0057421	-0.112512	-0.0110568	0.955566	0.218994	-0.192139	0.520354	0.418858	0.519967	0.532376	-2.61162	9.58905	3.67919	-0.148288	0.01035	-0.0443664	0.0432129	-0.950195	0.352539	0.806355	0.0141123	-0.587803	0.063882	9.74061	-0.950473	2.91949	-0.0139685	0.0412352	-0.0171318	-0.782227	0.0239258	-0.599609	0.692965	0.0499087	-0.717777	0.0458716	9.71166	-0.28637	-0.428596	-0.00458096	0.0303621	-0.0108069	-1.04663	-0.0805664	-0.225586	0.629017	0.231985	-0.729771	0.133998	9.5272	0.571225	-1.81285	0.00353103	0.0266488	-0.0192808	-1.09497	-0.293457	-0.095459	0.655959	-0.123585	-0.741256	-0.0705947	9.6043	-0.68854	-1.22961	-0.00665411	0.0250265	0.0143998	-1.01782	0.121094	-0.218018	0.630632	-0.032271	-0.775354	0.00933479	9.60321	-0.694979	-1.9603	0.00826755	0.0269098	0.00487663	-1.13208	0.0622559	-0.265869	
37	0.913892	-0.00428828	0.405931	0.00161242	-6.94314	-0.174552	8.07858	0.0315863	-0.0681059	-0.0761611	0.98999	0.0161133	-0.331787	0.778261	-0.00388299	-0.626548	0.0416265	9.67617	-0.665021	2.17964	-0.000726931	-0.0211035	-0.0208857	-0.69165	-0.0932617	-0.498291	0.875423	-0.0298778	0.45061	0.172313	-7.60055	1.32557	7.20615	-0.0395739	-0.0124019	0.00729185	0.862793	-0.316162	-0.24707	0.400786	-0.47503	0.647194	-0.441425	-0.948907	-9.49816	-2.57339	0.106594	-0.0581179	-0.0205501	0.0187988	0.80835	0.61377	0.897205	-0.19573	0.395778	-0.00847695	-6.93918	-3.46352	6.1404	0.0280583	-0.0277028	-0.0244078	0.953369	0.221191	-0.199219	0.522085	0.416958	0.518595	0.533509	-2.64645	9.58472	4.01405	-0.0604795	-0.0144835	-0.0159513	0.0388184	-0.950439	0.348389	0.80694	0.0138801	-0.587016	0.0637734	9.61392	-1.04531	2.6768	0.0377825	0.0336325	-0.007861	-0.781982	0.0195312	-0.601807	0.693317	0.0502381	-0.717384	0.0463434	9.76232	-0.135514	-0.26757	0.0164331	0.0443872	-0.0182106	-1.05298	-0.0849609	-0.225586	0.628989	0.231666	-0.729999	0.133437	9.48923	0.80314	-1.73696	-0.047152	-0.0118493	-0.0264973	-1.09253	-0.295654	-0.095459	0.656438	-0.123133	-0.740971	-0.0699222	9.65819	-0.552661	-1.14567	0.0321422	0.0269684	0.00872076	-1.01782	0.121094	-0.213379	0.630779	-0.0320482	-0.775239	0.00974589	9.65679	-0.512217	-1.95037	0.0118379	0.0102756	-0.00123431	-1.13647	0.0600586	-0.258789	
38	0.914078	-0.00481212	0.405511	0.000192418	-7.0009	0.0819171	8.22601	-0.00466721	0.00552468	-0.0398366	0.989502	0.0227051	-0.329834	0.777272	-0.00350113	-0.627782	0.0415498	9.77112	-0.731739	2.05464	0.0290238	-0.0817039	-0.0299112	-0.693604	-0.0932617	-0.496094	0.875677	-0.029705	0.450099	0.172388	-7.81456	1.27768	7.19362	0.0166502	-0.00912814	-0.00526381	0.866943	-0.311768	-0.247314	0.401004	-0.474898	0.647067	-0.441556	-0.923019	-9.6069	-2.61927	0.00348051	0.0339209	0.010673	0.0144043	0.80835	0.607178	0.897153	-0.195608	0.395952	-0.00876423	-6.85265	-3.43818	5.97491	-0.0183547	0.0299924	-0.00874124	0.951172	0.218994	-0.196777	0.522321	0.416655	0.518578	0.533532	-2.7015	9.49798	3.92249	0.00509259	-0.00863464	-0.0134428	0.0390625	-0.952393	0.352783	0.806788	0.0151632	-0.587112	0.0645247	9.79217	-0.964638	2.94298	0.0701725	0.00578207	-0.0202467	-0.775635	0.0197754	-0.60376	0.693752	0.0507665	-0.716898	0.0467822	9.96203	-0.116249	-0.262063	0.0168054	0.0503997	-0.021791	-1.04883	-0.0805664	-0.228027	0.628935	0.231717	-0.730048	0.133335	9.73131	0.694359	-1.70127	0.0173007	0.0105876	-0.0233554	-1.09521	-0.29126	-0.0932617	0.656933	-0.122701	-0.740641	-0.0695281	9.74243	-0.60062	-1.21234	0.0208814	0.0360417	0.00884064	-1.02002	0.116699	-0.220215	0.630781	-0.0317746	-0.775243	0.0101791	9.73194	-0.573539	-1.9676	0.0228182	0.00744562	0.00208845	-1.12988	0.0622559	-0.263428	
39	0.914226	-0.00573595	0.405163	0.000590869	-7.15867	-0.113997	8.2723	-0.0430925	-0.00845207	0.00851989	0.989746	0.0183105	-0.331787	0.777023	-0.00330917	-0.628093	0.041511	9.84026	-0.537061	2.05189	-0.00997306	0.0237656	-0.0220672	-0.693848	-0.0888672	-0.496094	0.876289	-0.029143	0.449347	0.171334	-7.44836	1.26195	7.29904	0.029056	-0.0336515	-0.0356681	0.864746	-0.30957	-0.249512	0.400532	-0.473983	0.647552	-0.442256	-1.0421	-9.36571	-2.65492	-0.00460819	0.0633891	0.0212755	0.0163574	0.812744	0.609131	0.896945	-0.195632	0.396406	-0.00895301	-7.01417	-3.47713	5.76881	0.00947341	0.0105023	-0.024584	0.950928	0.223389	-0.199219	0.522486	0.416153	0.518849	0.533499	-2.48228	9.64486	3.75158	0.00761503	0.0152165	-0.00890412	0.0388184	-0.948242	0.348145	0.807383	0.0150103	-0.586281	0.0646774	9.74198	-0.829521	2.97097	-0.0218161	0.0536453	-0.0115792	-0.775635	0.0197754	-0.612305	0.694047	0.0514344	-0.716509	0.0476295	9.70944	-0.105114	-0.435006	0.0592492	0.028454	-0.0171864	-1.04419	-0.0849609	-0.230225	0.62899	0.232428	-0.729583	0.134374	9.54179	0.687434	-1.88404	0.0711414	0.0318457	-0.0234157	-1.09033	-0.293457	-0.0864258	0.657362	-0.122234	-0.740397	-0.0688914	9.66647	-0.40462	-1.30101	0.0274131	0.0299631	0.0082311	-1.02466	0.125244	-0.218018	0.630799	-0.031579	-0.775231	0.0105819	9.70816	-0.526259	-2.08152	0.0268003	0.0108055	0.00189318	-1.13647	0.0600586	-0.26123	
40	0.914553	-0.00779412	0.40439	0.00139178	-7.20439	-0.0632966	8.21021	-0.103206	-0.025282	-0.00107207	0.989746	0.0205078	-0.32959	0.777023	-0.00330917	-0.628093	0.041511	9.84026	-0.537061	2.05189	-0.00997306	0.0237656	-0.0220672	-0.693848	-0.0888672	-0.496094	0.876588	-0.0289476	0.449069	0.170566	-7.43652	1.14125	7.31381	0.0303169	-0.0173365	-0.0473515	0.864746	-0.307373	-0.247314	0.400402	-0.473515	0.647887	-0.442386	-1.009	-9.46731	-2.64437	-0.000436041	0.0505608	0.0319575	0.0185547	0.812744	0.611328	0.897119	-0.195522	0.396061	-0.00918619	-6.80327	-3.24733	5.74302	0.0167356	-0.0193333	-0.0300782	0.950928	0.223389	-0.196777	0.522445	0.415644	0.519386	0.533413	-2.34938	9.41104	3.8043	0.0342604	0.0300694	-0.0330591	0.0412598	-0.952393	0.356934	0.807344	0.0144866	-0.586401	0.0641819	9.68409	-0.880392	2.71452	0.0045814	0.00678743	-0.0172674	-0.773438	0.0175781	-0.610107	0.693989	0.051851	-0.716506	0.0480555	9.79906	0.0173372	-0.231792	0.0452386	0.0170383	-0.0172342	-1.05298	-0.0827637	-0.223389	0.629038	0.232696	-0.729392	0.134726	9.54922	0.915748	-1.65228	0.0361452	0.0259297	-0.0235118	-1.09277	-0.293457	-0.0910645	0.657421	-0.122175	-0.740361	-0.0688172	9.6277	-0.497393	-1.39592	0.00500256	0.0203824	0.0042994	-1.01782	0.118896	-0.213379	0.630949	-0.0314203	-0.775111	0.010855	9.65454	-0.518523	-2.10926	0.0271142	0.0235905	0.000996023	-1.13672	0.0666504	-0.263428	
41	0.914553	-0.00779412	0.40439	0.00139178	-7.20439	-0.0632966	8.21021	-0.103206	-0.025282	-0.00107207	0.989746	0.0205078	-0.32959	0.777636	-0.00332972	-0.627366	0.0410218	9.73327	-0.600018	2.03565	-0.00892473	0.0300448	-0.0164144	-0.69165	-0.0888672	-0.496094	0.876896	-0.0283375	0.448989	0.16929	-7.5101	1.15909	7.26676	0.0274458	0.00799505	-0.0204474	0.866699	-0.303223	-0.256592	0.400304	-0.473242	0.648144	-0.442389	-0.903523	-9.32274	-2.65588	-0.00778955	0.0361568	0.0229191	0.0185547	0.812744	0.613525	0.897107	-0.196631	0.395534	-0.00935665	-6.8698	-3.36742	5.81329	-0.0454638	-0.0130485	-0.0476098	0.955566	0.218994	-0.196777	0.522577	0.414757	0.520767	0.532628	-2.3907	9.5149	3.51786	0.0418112	0.0184999	-0.061697	0.0495605	-0.948242	0.348145	0.807395	0.0147129	-0.586305	0.0643717	9.59644	-0.926575	2.79603	0.0359381	0.0230989	-0.0149405	-0.781982	0.0153809	-0.605957	0.693989	0.051851	-0.716506	0.0480555	9.79906	0.0173372	-0.231792	0.0452386	0.0170383	-0.0172342	-1.05298	-0.0827637	-0.223389	0.629038	0.232696	-0.729392	0.134726	9.54922	0.915748	-1.65228	0.0361452	0.0259297	-0.0235118	-1.09277	-0.293457	-0.0910645	0.657387	-0.122503	-0.740342	-0.0687643	9.66345	-0.55107	-1.14722	-0.015172	0.0153571	0.0162128	-1.01782	0.121094	-0.218018	0.631163	-0.031955	-0.77492	0.0105102	9.65041	-0.58359	-1.92689	-0.0415354	0.0198519	0.00308918	-1.13208	0.0644531	-0.268066	
42	0.915629	-0.00979832	0.401895	0.00287728	-7.18396	-0.484517	8.29189	-0.0388897	-0.101459	0.0139527	0.982666	0.0270996	-0.340576	0.777955	-0.00435727	-0.626975	0.0408662	9.72615	-0.589887	2.09588	-0.0412153	0.0311793	0.00687696	-0.685059	-0.0910645	-0.491455	0.877139	-0.0280856	0.448643	0.168988	-7.58066	1.32337	7.15504	-0.00618179	-0.0169916	-0.00122812	0.868896	-0.303223	-0.247559	0.401055	-0.473172	0.647773	-0.442327	-0.908341	-9.19802	-2.77936	0.0343151	-0.023295	0.00625308	0.0185547	0.810547	0.609131	0.89737	-0.19779	0.394348	-0.00973221	-6.91581	-3.39639	5.81958	-0.0329169	-0.0511073	-0.0512706	0.950928	0.223633	-0.201416	0.524069	0.413188	0.521308	0.531851	-2.49157	9.38799	3.59246	-0.012131	-0.0147903	-0.084012	0.0429688	-0.946045	0.354736	0.807291	0.0138826	-0.586492	0.0641608	9.65799	-0.937599	2.87854	-0.0399719	0.0158306	-0.000878008	-0.777588	0.0153809	-0.610107	0.694902	0.050772	-0.715762	0.0470847	9.77486	-0.157274	-0.390282	-0.0108253	0.0266699	-0.00732619	-1.05298	-0.0827637	-0.225586	0.629489	0.231525	-0.729717	0.132862	9.55152	0.686457	-1.81504	-0.0318382	-0.00385217	-0.0163781	-1.09277	-0.291016	-0.095459	0.657414	-0.123141	-0.740174	-0.0691813	9.61275	-0.425063	-1.24442	-0.0272646	0.0160183	0.0109451	-1.02222	0.12085	-0.222412	0.631357	-0.0325645	-0.774741	0.0101842	9.63451	-0.486538	-2.10733	-0.0254	0.0197157	0.00594195	-1.12988	0.0644531	-0.270264	
43	0.916785	-0.0106014	0.399233	0.00238791	-6.86709	-0.329696	8.22197	-0.0194342	-0.105172	-0.0388498	0.985107	0.0270996	-0.344971	0.778938	-0.00541636	-0.625753	0.0407323	9.7945	-0.67348	2.20761	-0.0451239	0.10135	-0.00145043	-0.685303	-0.0866699	-0.498535	0.877739	-0.0287143	0.447464	0.168894	-7.52515	1.22546	7.25162	-0.0331703	-0.0250528	-0.0183601	0.866943	-0.30957	-0.25415	0.402192	-0.473453	0.646226	-0.443255	-0.965038	-9.31452	-2.59383	0.0702634	-0.0252827	-0.0349927	0.0161133	0.817139	0.609131	0.898159	-0.197605	0.39261	-0.0109441	-6.88933	-3.4591	6.00902	0.0475749	-0.0617326	-0.0716991	0.94458	0.223633	-0.206055	0.525859	0.411619	0.52092	0.531681	-2.58747	9.45283	3.75544	-0.0522814	-0.0318103	-0.0496405	0.0456543	-0.95459	0.348389	0.807397	0.0132236	-0.58637	0.0640711	9.74724	-0.955759	2.86166	-0.00866318	0.0272231	-0.00451005	-0.77124	0.0175781	-0.601562	0.695548	0.0502259	-0.715204	0.0466217	9.82483	-0.109977	-0.246123	-0.0300244	0.0445425	-0.00834316	-1.04858	-0.0827637	-0.230225	0.629476	0.231245	-0.72987	0.13257	9.51403	0.770759	-1.70757	-0.0305559	-0.00150007	-0.017231	-1.09253	-0.295654	-0.0976562	0.657708	-0.123545	-0.739811	-0.0695459	9.69259	-0.541277	-1.16401	-0.0231706	0.0472523	0.00800092	-1.01782	0.121094	-0.220215	0.631343	-0.0335159	-0.774724	0.00922885	9.66485	-0.561392	-1.97993	-0.0474446	0.00616232	0.00127971	-1.13208	0.0644531	-0.270264	
44	0.917289	-0.0116328	0.398048	0.00170597	-6.64868	-0.18678	8.24654	-0.0314415	-0.0086423	-0.0303753	0.987061	0.0292969	-0.344971	0.77945	-0.00607366	-0.625114	0.0406541	9.8147	-0.676311	2.17591	-0.0280273	0.0312823	-0.0026801	-0.689697	-0.0866699	-0.498535	0.878254	-0.0291465	0.446594	0.168448	-7.75994	1.2356	7.21874	-0.022706	-0.0330369	-0.0250446	0.866943	-0.30542	-0.251953	0.402988	-0.473341	0.644632	-0.444969	-0.971942	-9.52706	-2.57192	0.106481	0.00830591	-0.0402122	0.020752	0.812988	0.602539	0.898399	-0.197957	0.391848	-0.0120895	-6.87229	-3.68295	6.01543	-0.000824805	-0.00665805	-0.0659957	0.941895	0.234619	-0.206055	0.527581	0.410389	0.520027	0.531799	-2.74719	9.61622	3.88389	-0.0414106	-0.0376199	-0.0354005	0.052002	-0.952393	0.346191	0.807516	0.0122065	-0.586283	0.0635747	9.70139	-1.00983	2.92188	-0.0363713	0.0221702	-0.0100769	-0.777832	0.0217285	-0.604004	0.695853	0.0498375	-0.714946	0.0464442	9.81535	-0.152343	-0.40037	-0.0346066	0.0530375	-0.00726457	-1.05737	-0.0827637	-0.228027	0.629745	0.230853	-0.729877	0.131939	9.69608	0.720724	-1.84138	-0.011301	0.0221318	-0.0198934	-1.09497	-0.293457	-0.0888672	0.657843	-0.124191	-0.739534	-0.0700649	9.82118	-0.721429	-1.28515	-0.0361143	0.0171586	0.0079229	-1.01782	0.121094	-0.220215	0.631597	-0.0348418	-0.774474	0.00777528	9.80808	-0.84433	-1.97779	-0.0644343	0.0365809	0.00157113	-1.12988	0.0644531	-0.268066	
45	0.917371	-0.0125522	0.397832	0.00173389	-7.05649	-0.456624	8.2715	-0.0264125	-0.0129985	-0.0158269	0.985107	0.0249023	-0.344971	0.779711	-0.00702704	-0.6248	0.0403332	9.78404	-0.56194	2.28237	-0.0437002	0.0394963	-0.00774458	-0.683105	-0.0888672	-0.503174	0.878872	-0.0295599	0.445821	0.167193	-7.49473	1.16988	7.25921	0.00783226	-0.016978	-0.0595843	0.864746	-0.302979	-0.251953	0.403044	-0.473192	0.644122	-0.445817	-0.942791	-9.51822	-2.38083	0.0657837	0.0325306	-0.0350779	0.0161133	0.819336	0.606934	0.898597	-0.197518	0.39157	-0.013507	-6.71757	-3.56778	6.17405	0.0269961	0.0163544	-0.0509868	0.944092	0.230225	-0.208252	0.528466	0.409592	0.519723	0.531832	-2.84297	9.47264	3.96263	0.00911682	-0.0155332	-0.0160596	0.0517578	-0.950195	0.346191	0.807846	0.0110991	-0.585916	0.0629668	9.72779	-0.871793	2.92368	-0.0368918	0.0371323	-0.013106	-0.777588	0.0175781	-0.616455	0.696377	0.0494916	-0.714484	0.0460588	9.79222	-0.113303	-0.18281	-0.00874849	0.0285147	-0.0161834	-1.04663	-0.0783691	-0.232666	0.630017	0.230519	-0.729807	0.131613	9.52116	0.775077	-1.68934	-0.0207854	0.0128207	-0.0235033	-1.09033	-0.295654	-0.0976562	0.658212	-0.124141	-0.739227	-0.0699238	9.61644	-0.523282	-1.14197	0.00283033	0.0363913	0.00989075	-1.02246	0.123047	-0.222656	0.632054	-0.0346768	-0.774106	0.00809654	9.62553	-0.554458	-1.95108	0.0168769	0.0277042	0.00138669	-1.13257	0.0732422	-0.272705	
46	0.917528	-0.0132321	0.397451	0.000678034	-6.89302	-0.572476	8.21657	0.00651431	-0.00301886	-0.0515147	0.984863	0.0314941	-0.342773	0.780491	-0.0077585	-0.623854	0.039744	9.62385	-0.675679	2.16513	-0.0379977	0.0572555	-0.0100743	-0.685303	-0.0866699	-0.503418	0.879023	-0.0288266	0.446245	0.165386	-7.47383	1.12053	7.2127	0.0699801	0.0370097	-0.0425104	0.866699	-0.303223	-0.258789	0.401059	-0.472408	0.64537	-0.446631	-0.880096	-9.47689	-2.56888	-0.0510116	0.0788742	0.0131207	0.0117188	0.817139	0.602539	0.898164	-0.19781	0.39239	-0.0142398	-6.73529	-3.41485	5.95213	-0.00477989	0.0584789	-0.036496	0.944092	0.232178	-0.201416	0.528466	0.409685	0.52063	0.530873	-2.63326	9.50985	3.8082	0.0871433	-0.00601966	-0.0304525	0.0473633	-0.946045	0.352539	0.807397	0.00930681	-0.586714	0.0615597	9.52047	-1.05419	2.84591	-0.0821204	-0.0243572	-0.0175861	-0.778076	0.026123	-0.606201	0.696511	0.0490621	-0.714398	0.045845	9.81731	-0.10107	-0.215401	-0.0227945	0.0262114	-0.00904264	-1.04883	-0.0805664	-0.235107	0.630129	0.230322	-0.729806	0.131424	9.56117	0.697728	-1.74115	-0.0213622	0.0143984	-0.0206099	-1.09277	-0.293457	-0.0910645	0.658274	-0.124434	-0.739112	-0.0700337	9.62475	-0.499292	-1.23552	-0.0164343	0.0126176	0.00863212	-1.01807	0.127686	-0.220459	0.632332	-0.0349921	-0.773865	0.00802423	9.68169	-0.492489	-2.05717	-0.01398	0.0233163	0.0073206	-1.13672	0.0666504	-0.263428	
47	0.917564	-0.0133234	0.397364	-0.00101775	-6.89538	-0.328643	8.27899	0.0232435	0.0118029	-0.0654484	0.982666	0.0314941	-0.342773	0.781262	-0.00856783	-0.622908	0.0392632	9.75474	-0.729829	2.1651	-0.0385165	0.0724773	-0.0141234	-0.676758	-0.0844727	-0.505859	0.879276	-0.0283137	0.446382	0.163754	-7.50546	1.07701	7.2345	0.0308997	0.00629023	-0.0444908	0.864746	-0.303223	-0.249756	0.399428	-0.472113	0.646927	-0.446153	-0.867155	-9.24361	-2.6299	-0.0700949	0.0729777	0.0161397	0.013916	0.814941	0.611328	0.897619	-0.19806	0.393474	-0.0151827	-6.85936	-3.58954	5.88263	0.0141797	0.057578	-0.0448609	0.944092	0.232178	-0.196777	0.528228	0.410103	0.521883	0.529555	-2.64401	9.35763	3.65589	0.0826652	-0.0166751	-0.0240073	0.0539551	-0.950195	0.363281	0.807197	0.00872462	-0.587031	0.0612595	9.7589	-0.990935	2.99481	-0.00631	0.00274121	-0.013766	-0.776123	0.0283203	-0.606201	0.696603	0.0482856	-0.71438	0.0455378	9.81615	-0.155577	-0.260687	-0.0256958	0.0241436	-0.00553753	-1.04883	-0.0761719	-0.235107	0.63062	0.229852	-0.729628	0.130881	9.58021	0.687003	-1.74543	-0.0196731	0.0124913	-0.014518	-1.09033	-0.293457	-0.0998535	0.65826	-0.125073	-0.738979	-0.0704281	9.74906	-0.634992	-1.00824	-0.0287842	0.0222569	0.0110206	-1.01367	0.127686	-0.222656	0.632503	-0.0358534	-0.773694	0.00717185	9.69488	-0.6612	-1.79287	-0.0352258	0.0157543	0.000420681	-1.12769	0.0644531	-0.270264	
48	0.917583	-0.0137819	0.397296	-0.0026422	-7.0097	-0.446231	8.26777	0.0134588	0.00274637	-0.05901	0.986572	0.0380859	-0.342773	0.782224	-0.00914928	-0.621724	0.0387455	9.66577	-0.641094	2.21832	-0.0330264	0.0794151	-0.0217263	-0.68335	-0.0803223	-0.515381	0.879332	-0.0282287	0.446519	0.163091	-7.50209	1.09426	7.22817	0.0231942	0.0210652	-0.0418789	0.868896	-0.298828	-0.256836	0.398927	-0.471931	0.647144	-0.446479	-0.859977	-9.34401	-2.65283	-0.00497918	0.0658113	-0.00799202	0.00732422	0.814941	0.604736	0.897514	-0.197917	0.393758	-0.015869	-6.75698	-3.51621	5.8808	0.0282875	0.0401373	-0.0534902	0.950439	0.239014	-0.199219	0.528499	0.410097	0.521871	0.529302	-2.60743	9.35303	3.5882	0.0278332	-0.0284313	-0.0157137	0.0517578	-0.950195	0.359131	0.80684	0.00797646	-0.587593	0.0606655	9.62191	-0.913616	2.7419	-0.0309342	-0.0246398	-0.0171911	-0.778076	0.026123	-0.610352	0.69678	0.048179	-0.714204	0.0456993	9.81082	-0.155999	-0.121853	-0.00715123	0.0325426	-0.0111934	-1.04688	-0.0761719	-0.237549	0.63062	0.229852	-0.729628	0.130881	9.58021	0.687003	-1.74543	-0.0196731	0.0124913	-0.014518	-1.09033	-0.293457	-0.0998535	0.65826	-0.125073	-0.738979	-0.0704281	9.74906	-0.634992	-1.00824	-0.0287842	0.0222569	0.0110206	-1.01367	0.127686	-0.222656	0.632535	-0.0357786	-0.77367	0.00736593	9.72289	-0.693931	-1.898	0.0175301	0.0109712	0.00219462	-1.13452	0.0688477	-0.272705	
49	0.917618	-0.0137711	0.397212	-0.00326326	-6.98831	-0.41809	8.25477	0.0232422	0.00218949	-0.0412869	0.986328	0.0422363	-0.338623	0.782857	-0.00951222	-0.620942	0.0384181	9.66977	-0.657965	2.19102	-0.0388804	0.0953496	-0.0216893	-0.680908	-0.0844727	-0.505859	0.879439	-0.0281799	0.446563	0.1624	-7.57309	1.13662	7.1964	0.0206535	0.0162064	-0.0442874	0.871094	-0.301025	-0.254395	0.398212	-0.4714	0.647012	-0.447867	-0.867986	-9.34981	-2.65646	0.0309939	0.0573967	-0.0212299	0.00512695	0.814941	0.606934	0.897184	-0.197805	0.394504	-0.0173399	-6.87303	-3.56715	5.88372	0.0178749	0.0499458	-0.0580931	0.950439	0.236572	-0.199219	0.529234	0.41022	0.521394	0.528941	-2.65686	9.46707	3.66611	0.0186872	-0.0476596	-0.00568172	0.0561523	-0.947998	0.358887	0.806509	0.00761304	-0.588091	0.0602802	9.64443	-1.00998	2.83511	-0.0320255	-0.0308013	-0.0220249	-0.782471	0.026123	-0.610352	0.696844	0.0479327	-0.714157	0.0457214	9.80055	-0.0856414	-0.217669	-0.0144483	0.0274257	-0.00287263	-1.05103	-0.0783691	-0.232666	0.63083	0.229993	-0.729354	0.131148	9.58441	0.784209	-1.68449	0.000297511	0.018493	-0.0144255	-1.09302	-0.288818	-0.0998535	0.658593	-0.125364	-0.738628	-0.0704766	9.63381	-0.55267	-1.07856	-0.0289716	0.0220372	0.0127548	-1.01807	0.123291	-0.222656	0.632613	-0.0364182	-0.773583	0.00668377	9.6543	-0.635244	-1.89876	-0.0586554	0.0128666	-0.000775999	-1.12573	0.0710449	-0.268066	
50	0.917627	-0.0134093	0.397196	-0.0041702	-6.9849	-0.395866	8.2487	0.0320252	0.00853187	-0.0206249	0.986816	0.0356445	-0.336426	0.783785	-0.0104858	-0.619795	0.0377503	9.67973	-0.723972	2.24114	-0.0498617	0.0700839	-0.011892	-0.676758	-0.0800781	-0.508301	0.879608	-0.0281289	0.446688	0.161149	-7.463	1.05651	7.17991	0.0210419	0.00987321	-0.0426729	0.873047	-0.294678	-0.247803	0.397469	-0.471181	0.647468	-0.448098	-0.753864	-9.39958	-2.54341	-0.028538	0.0490607	0.00748006	0.00512695	0.814941	0.606934	0.896886	-0.197451	0.395299	-0.018635	-6.99801	-3.4952	5.89581	0.0196091	0.0458656	-0.0422473	0.950439	0.23877	-0.192383	0.529774	0.41045	0.521399	0.528217	-2.60467	9.47261	3.71437	0.0438479	-0.0316381	-0.0168077	0.0603027	-0.947998	0.358887	0.806037	0.00647893	-0.588871	0.0591101	9.608	-1.05718	2.80501	-0.060013	-0.0261723	-0.0177762	-0.778076	0.0283203	-0.604004	0.696927	0.0475713	-0.714103	0.0456804	9.77557	-0.0374901	-0.145166	-0.0146887	0.026799	-0.0132629	-1.04883	-0.0761719	-0.235107	0.630703	0.229972	-0.729424	0.131404	9.52997	0.888955	-1.66136	0.00432873	-0.00678087	-0.0148275	-1.09302	-0.286621	-0.095459	0.658678	-0.125674	-0.738483	-0.0706497	9.7221	-0.485282	-1.17355	-0.0118923	0.0177014	0.00601852	-1.02271	0.127441	-0.222656	0.632489	-0.0368191	-0.773667	0.00644629	9.77571	-0.418132	-1.95364	-0.0280412	0.0068095	-0.000245052	-1.13013	0.0710449	-0.268066	
51	0.917675	-0.0129876	0.397089	-0.00487221	-7.04919	-0.416405	8.26039	0.0280871	-0.000698049	-0.0140711	0.984375	0.0400391	-0.336426	0.784581	-0.0110314	-0.618821	0.0370353	9.79351	-0.685458	2.27362	-0.0349145	0.0583505	-0.0186923	-0.679199	-0.078125	-0.512939	0.879873	-0.0275378	0.446715	0.159723	-7.48044	1.09557	7.30456	0.00540925	0.00706048	-0.0222956	0.873047	-0.296875	-0.245361	0.396666	-0.470976	0.647782	-0.448572	-0.94023	-9.47232	-2.67937	0.00697167	0.0453009	-0.0108659	0.000732422	0.810547	0.602539	0.896691	-0.197245	0.395794	-0.0196813	-6.9182	-3.71502	5.76046	0.0345145	0.020554	-0.039503	0.943848	0.240967	-0.192383	0.530051	0.410485	0.521482	0.52783	-2.70794	9.52526	3.59438	0.0333153	-0.0196344	-0.00593938	0.0625	-0.943848	0.363037	0.80595	0.00643929	-0.589002	0.0589923	9.81673	-0.924726	2.74212	0.030553	0.0261708	-0.0222815	-0.780518	0.0327148	-0.602051	0.697126	0.0469707	-0.71398	0.0451966	9.80285	-0.27535	-0.341577	-0.0257135	0.027502	-0.0126633	-1.04468	-0.0761719	-0.235107	0.630847	0.229403	-0.729618	0.13063	9.63501	0.65395	-1.72782	-0.0383227	-4.85367e-05	-0.0128354	-1.09302	-0.286621	-0.0976562	0.658704	-0.12598	-0.738369	-0.0710601	9.68113	-0.7199	-1.0917	-0.0198257	0.0194165	0.00421809	-1.02246	0.123047	-0.229492	0.632405	-0.0376098	-0.773705	0.00545823	9.65917	-0.8109	-1.86986	-0.0478894	0.00548728	-0.00158485	-1.13037	0.0776367	-0.266113	
52	0.917771	-0.0130761	0.396856	-0.0055425	-6.95486	-0.20524	8.26077	-0.00480598	0.00340352	-0.0252357	0.983887	0.0488281	-0.347412	0.785342	-0.0116354	-0.617873	0.0365423	9.65547	-0.747169	2.29797	-0.0342384	0.062823	-0.0132596	-0.674561	-0.0803223	-0.52002	0.87988	-0.0269934	0.447137	0.158591	-7.55236	1.01015	7.18319	0.038541	0.031047	-0.0205384	0.866699	-0.298828	-0.247559	0.396398	-0.471045	0.64783	-0.448666	-0.827516	-9.42895	-2.53475	-0.0129322	0.0267155	-0.00888898	0.000732422	0.810547	0.609131	0.896585	-0.197291	0.395983	-0.0202167	-6.89745	-3.55912	5.76723	-0.0116588	0.0147831	-0.0315258	0.943604	0.243164	-0.199219	0.530096	0.410208	0.522056	0.527433	-2.59158	9.42717	3.70537	0.0610506	0.0128706	-0.021252	0.0583496	-0.947998	0.363281	0.805826	0.00502532	-0.589299	0.0578417	9.57747	-1.02387	2.8695	-0.0992588	-0.00885629	-0.016867	-0.77832	0.0327148	-0.602051	0.696866	0.0474691	-0.714156	0.0458854	9.80428	-0.0811032	-0.208996	0.0330277	0.00648387	-0.0134006	-1.05103	-0.0783691	-0.237305	0.630624	0.230262	-0.729311	0.131904	9.61738	0.801115	-1.69757	0.0793023	0.0233239	-0.0168895	-1.08813	-0.291016	-0.0976562	0.658863	-0.125988	-0.738233	-0.0709877	9.66683	-0.482077	-1.29289	-0.00582101	0.0213804	0.007721	-1.01587	0.127686	-0.222656	0.632431	-0.0373539	-0.773693	0.0059558	9.72711	-0.458643	-2.05682	0.017296	0.0137651	-0.00119297	-1.12793	0.0732422	-0.265869	
53	0.91787	-0.0146238	0.396571	-0.00576542	-6.94656	-0.0883499	8.37281	-0.0683479	-0.00588921	-0.0179552	0.990723	0.0444336	-0.34082	0.786025	-0.0121484	-0.617024	0.0360414	9.71004	-0.790286	2.21057	-0.0303994	0.0505106	-0.0275345	-0.678955	-0.0825195	-0.522217	0.87982	-0.0266349	0.447608	0.157649	-7.58833	1.07049	7.1412	0.0298711	0.0294138	-0.027926	0.87085	-0.294678	-0.247803	0.394929	-0.47121	0.648669	-0.448577	-0.750868	-9.30303	-2.73722	-0.0248121	0.0463416	-0.0107357	-0.00390625	0.814941	0.609131	0.896499	-0.197828	0.395903	-0.020342	-6.93945	-3.57961	5.74128	-0.0187455	0.00309421	-0.0195072	0.952637	0.23877	-0.196777	0.529967	0.40928	0.52282	0.527526	-2.58408	9.36784	3.45388	0.00766429	0.0313299	-0.0175848	0.0603027	-0.943848	0.358887	0.805801	0.00381515	-0.589442	0.0568193	9.80188	-1.11368	2.62871	-0.021849	0.0258757	-0.0227804	-0.778564	0.0368652	-0.602051	0.696732	0.0471207	-0.714325	0.0456485	9.78489	-0.105206	-0.32211	-0.0290182	0.0108846	-0.0141821	-1.04663	-0.0783691	-0.235107	0.630657	0.230303	-0.729227	0.132138	9.58083	0.886766	-1.60909	0.0178246	0.0194216	-0.0139585	-1.09521	-0.286621	-0.0979004	0.658906	-0.126241	-0.738136	-0.071145	9.66305	-0.535043	-1.18184	-0.0139657	0.0231107	0.0090635	-1.02271	0.127441	-0.222656	0.632727	-0.0375635	-0.773442	0.00564128	9.66042	-0.559725	-1.98727	-0.00412225	0.0257926	-0.00389937	-1.13037	0.0754395	-0.265869	
54	0.918018	-0.016945	0.396157	-0.00401462	-7.30073	-0.500184	8.19714	-0.115063	-0.0247147	0.0369465	0.993408	0.0358887	-0.340576	0.786717	-0.0128378	-0.616176	0.0351936	9.60286	-0.738856	2.33406	-0.0365225	0.0636745	-0.024141	-0.678955	-0.0803223	-0.52002	0.880363	-0.0263409	0.446843	0.156838	-7.46942	1.1342	7.28973	2.01924e-05	-0.0438456	-0.0191544	0.866699	-0.294434	-0.245361	0.394504	-0.470983	0.648784	-0.449022	-0.842633	-9.34983	-2.59362	0.000990514	0.0292942	-0.00123741	0.000732422	0.810547	0.606934	0.897024	-0.197617	0.394824	-0.020232	-6.80807	-3.66669	5.78531	0.0358291	-0.0473745	-0.0142356	0.950195	0.243408	-0.199219	0.530172	0.407642	0.523228	0.528184	-2.71083	9.47029	3.59661	-0.00530553	0.0379321	-0.0242814	0.0539551	-0.946045	0.363281	0.806114	0.00349609	-0.58907	0.0562524	9.56852	-0.943493	2.58009	-0.00676084	0.0263909	-0.0264159	-0.782959	0.0368652	-0.602051	0.696751	0.0468936	-0.714334	0.0454582	9.80582	-0.13059	-0.248157	-0.0261102	0.0210519	-0.0150373	-1.05103	-0.0761719	-0.239746	0.630845	0.229905	-0.729281	0.131632	9.57898	0.649972	-1.76944	-0.00866494	0.00622296	-0.0160488	-1.09497	-0.293457	-0.0998535	0.658787	-0.126462	-0.738183	-0.071367	9.6594	-0.536286	-1.11955	-0.0124237	0.0112251	0.00122363	-1.01831	0.129883	-0.222656	0.632794	-0.037927	-0.773373	0.00523762	9.64076	-0.623724	-1.90315	-0.0124557	0.0087645	-0.00329364	-1.13232	0.0666504	-0.274902	
55	0.918431	-0.0184204	0.395146	-0.00232783	-7.02794	-0.676685	8.28431	-0.0667924	-0.0290071	0.0437964	0.986328	0.0422363	-0.34082	0.78719	-0.0127757	-0.615584	0.0350043	9.57503	-0.724399	2.32789	-0.00372417	0.0372963	-0.0168731	-0.676758	-0.0803223	-0.517578	0.880522	-0.0259823	0.446643	0.156573	-7.44465	0.986478	7.25583	0.0116962	-0.00511235	-0.00269942	0.87085	-0.285889	-0.250244	0.393811	-0.471568	0.649718	-0.447664	-0.835857	-9.62147	-2.64367	-0.0815101	0.00138634	0.021928	0.000732422	0.810547	0.618164	0.896849	-0.198644	0.394748	-0.0193876	-6.93833	-3.5612	5.91341	-0.0714177	0.0159462	0.00264159	0.946289	0.234375	-0.19458	0.529564	0.406812	0.524789	0.527885	-2.66479	9.68062	3.67633	0.0636133	0.0482891	-0.0340937	0.0537109	-0.943848	0.363037	0.80639	0.00393023	-0.58865	0.0566676	9.63638	-1.0918	2.59884	0.0596465	0.0563256	-0.0153338	-0.77832	0.0305176	-0.602051	0.69671	0.0473656	-0.714318	0.0458517	9.7755	-0.127824	-0.253537	0.00456834	0.0152613	-0.0136225	-1.04443	-0.0783691	-0.232666	0.630568	0.230134	-0.729394	0.131939	9.54144	0.792964	-1.64298	0.0149484	-0.00280925	-0.017003	-1.09277	-0.29126	-0.0932617	0.658825	-0.126436	-0.738156	-0.0713381	9.62452	-0.551257	-1.24309	-0.00579208	0.0211385	0.00633203	-1.02246	0.125244	-0.224854	0.632627	-0.0379665	-0.773506	0.00551016	9.64133	-0.504182	-2.02012	-0.00577826	-0.000558017	0.00358798	-1.13721	0.0754395	-0.275146	
56	0.918903	-0.018355	0.394055	-0.00106519	-6.84078	-0.510548	8.24962	-0.00637434	-0.042728	0.0431493	0.984863	0.0314941	-0.340576	0.787302	-0.0125596	-0.615425	0.0353441	9.80666	-0.631072	2.27784	0.0149806	0.035293	-0.0115551	-0.674805	-0.0759277	-0.520264	0.880522	-0.0259823	0.446643	0.156573	-7.44465	0.986478	7.25583	0.0116962	-0.00511235	-0.00269942	0.87085	-0.285889	-0.250244	0.394044	-0.471734	0.649751	-0.447236	-0.737326	-9.43233	-2.68962	-0.0197156	-0.0205947	0.0191037	0.00317383	0.810547	0.609131	0.896822	-0.198792	0.394747	-0.0191595	-6.95572	-3.70729	5.89114	-0.0199628	0.00271301	-0.00319579	0.945801	0.243164	-0.199219	0.529517	0.406145	0.525302	0.527935	-2.6313	9.48767	3.56017	0.0231615	0.0378234	-0.0331405	0.0539551	-0.947998	0.369629	0.807132	0.00474774	-0.587557	0.057376	9.82505	-0.985723	2.91972	0.0525983	0.0606602	-0.00892162	-0.776123	0.0305176	-0.608398	0.696811	0.0472276	-0.714231	0.045807	9.85874	-0.189357	-0.368492	-0.01284	0.0315563	-0.0126962	-1.04883	-0.0783691	-0.237305	0.630551	0.230093	-0.729424	0.131919	9.6711	0.631577	-1.79132	-0.00183632	0.00716342	-0.0193164	-1.09521	-0.291016	-0.102295	0.658825	-0.126436	-0.738156	-0.0713381	9.62452	-0.551257	-1.24309	-0.00579208	0.0211385	0.00633203	-1.02246	0.125244	-0.224854	0.632562	-0.0381583	-0.77355	0.00536165	9.73364	-0.649906	-2.00747	-0.0167767	0.00229835	0.000151632	-1.13477	0.0732422	-0.272705	
57	0.918987	-0.0184626	0.393855	-0.000807845	-6.72792	-0.486174	8.22736	-0.0104531	-0.00989901	0.014391	0.984375	0.0400391	-0.342773	0.786734	-0.0119461	-0.616137	0.0358081	9.71214	-0.619043	2.47077	0.05581	-0.0611854	-0.0180679	-0.679199	-0.078125	-0.515381	0.880142	-0.0263693	0.446753	0.158325	-7.53736	1.11902	7.34207	-0.0533115	0.0475703	0.0553775	0.866699	-0.298828	-0.247559	0.394376	-0.473293	0.649068	-0.446287	-0.849634	-9.36841	-2.57461	-0.0503111	-0.061718	-0.0425252	0.00317383	0.80835	0.61377	0.896956	-0.198227	0.394725	-0.0191751	-6.93318	-3.64584	6.07369	0.0223561	0.0103166	-0.00280287	0.950195	0.243408	-0.201416	0.529382	0.405524	0.525435	0.528416	-2.68952	9.42984	3.67857	0.00857764	0.00397127	0.017432	0.0537109	-0.943848	0.365234	0.807457	0.00500867	-0.58707	0.0577661	9.7584	-0.983739	2.74454	0.0490083	0.0611707	-0.00495552	-0.780273	0.0283203	-0.608398	0.69689	0.0478229	-0.714074	0.0464311	9.80533	-0.265698	-0.312975	0.0505233	0.0223845	-0.0189845	-1.04883	-0.0805664	-0.239746	0.630822	0.230605	-0.728909	0.132577	9.60017	0.615333	-1.7775	0.0441336	0.0397589	-0.0286969	-1.09521	-0.29126	-0.095459	0.659054	-0.1259	-0.738102	-0.0707262	9.67472	-0.624297	-1.22729	0.038394	0.00567455	0.00413235	-1.01807	0.125488	-0.220459	0.632563	-0.0380833	-0.773553	0.00547099	9.74845	-0.69356	-1.97971	0.0127031	0.00773888	-0.00290381	-1.13477	0.0710449	-0.270508	
58	0.918785	-0.0183944	0.39433	-0.000492569	-6.9376	-0.328378	8.19508	0.000320966	0.0335965	0.026731	0.97998	0.0400391	-0.34082	0.785585	-0.0118536	-0.617587	0.0360878	9.59767	-0.753579	2.1765	0.00743191	-0.067219	-0.00721387	-0.672363	-0.0844727	-0.515137	0.879393	-0.0266831	0.447562	0.160139	-7.59394	1.0557	7.155	-0.0311708	0.0645678	0.0709963	0.866699	-0.294434	-0.243164	0.394454	-0.475053	0.648366	-0.445367	-0.854968	-9.53582	-2.63757	-0.0525725	-0.0414693	-0.0280139	0.00317383	0.806152	0.61377	0.896809	-0.197622	0.39537	-0.0190274	-6.82453	-3.53992	5.8487	2.11869e-05	0.0466518	0.0152977	0.943848	0.240967	-0.196777	0.528913	0.405027	0.525278	0.529422	-2.6761	9.55889	3.76634	0.0169747	0.0278502	0.0291532	0.0495605	-0.943848	0.367432	0.808226	0.00560108	-0.585942	0.0583971	9.55494	-1.00198	2.61572	0.0479869	0.0650972	-0.0130139	-0.77417	0.0327148	-0.610596	0.696827	0.0482147	-0.714086	0.0467769	9.816	-0.112141	-0.154636	0.039252	0.0156473	-0.0200289	-1.04907	-0.0739746	-0.235107	0.63081	0.23084	-0.728838	0.132616	9.59401	0.752119	-1.57511	-0.0077156	0.00516152	-0.0265179	-1.09497	-0.293457	-0.095459	0.659194	-0.125172	-0.738169	-0.0700156	9.6246	-0.580556	-1.03041	0.0360131	0.0211038	-0.000983798	-1.02271	0.129639	-0.222656	0.632787	-0.0370586	-0.773412	0.00645929	9.63658	-0.531702	-1.87484	0.0461059	0.00577375	-0.00980184	-1.13232	0.0666504	-0.272705	
59	0.918488	-0.0183317	0.395023	0.000647038	-7.14993	-0.505038	8.36513	-0.0104976	0.0275399	0.0474895	0.98877	0.0400391	-0.338623	0.784868	-0.011237	-0.61846	0.0369114	9.69036	-0.723117	2.23132	0.0203541	0.0116218	-0.00498388	-0.676758	-0.0822754	-0.510498	0.878735	-0.0263687	0.448606	0.160879	-7.47058	1.26613	7.04897	-0.00668964	0.0487708	0.0280712	0.868896	-0.298828	-0.243164	0.394207	-0.476232	0.648549	-0.444059	-0.92584	-9.28455	-2.74627	-0.0625685	-0.0193195	0.0029491	0.012207	0.806152	0.615967	0.896418	-0.197692	0.396255	-0.0183026	-6.80726	-3.5631	5.6101	-0.0223675	0.0252853	0.0199325	0.946045	0.236572	-0.19458	0.527681	0.404372	0.526748	0.529691	-2.62486	9.41862	3.56444	0.0668393	0.0723557	-0.0089165	0.0559082	-0.946045	0.365234	0.808251	0.00605962	-0.585831	0.0591142	9.6216	-1.04137	3.09505	0.046597	0.0280233	-0.00405942	-0.773926	0.0305176	-0.610596	0.697274	0.049295	-0.713526	0.0475323	9.78103	-0.092543	-0.246877	0.0472136	0.025891	-0.0172665	-1.05103	-0.0783691	-0.232666	0.630831	0.23141	-0.728635	0.132636	9.58799	0.745114	-1.71274	0.0165736	0.00764959	-0.0287408	-1.09302	-0.288818	-0.0976562	0.659242	-0.124772	-0.738234	-0.069588	9.68398	-0.565988	-1.07922	0.0445071	0.0127296	0.00181378	-1.01807	0.123291	-0.224854	0.632665	-0.036555	-0.773532	0.00686728	9.68184	-0.456447	-2.0292	0.0303421	0.00164996	-0.00924233	-1.13696	0.0710449	-0.265869	
60	0.918786	-0.0179028	0.394347	0.00150111	-6.89813	-0.374154	8.2282	0.00702662	-0.034733	0.0483294	0.986816	0.0358887	-0.344971	0.784931	-0.0109712	-0.618354	0.0374305	9.6293	-0.665988	2.23641	0.0237925	0.00501061	-0.0092244	-0.678955	-0.0844727	-0.508057	0.878625	-0.025889	0.448775	0.161087	-7.53079	1.0287	7.11305	0.00429189	0.0196589	0.0228863	0.871094	-0.298828	-0.243164	0.394109	-0.476885	0.649258	-0.442405	-0.751723	-9.23971	-2.76454	-0.059277	-0.0138149	0.02194	0.00341797	0.803955	0.620361	0.896353	-0.198639	0.395986	-0.0170036	-6.88571	-3.59412	5.78937	-0.034277	-0.0218299	0.0146229	0.948242	0.240967	-0.189941	0.526359	0.403216	0.528992	0.529651	-2.46299	9.33588	3.46502	0.0682388	0.0896673	-0.0259392	0.0493164	-0.937256	0.369385	0.808519	0.00658452	-0.585389	0.0597824	9.61682	-0.924633	2.6873	0.0394851	0.0326816	-0.00753792	-0.773926	0.0283203	-0.614746	0.697366	0.0498314	-0.713385	0.047748	9.83485	-0.0534267	-0.144336	0.0200061	0.0164144	-0.0185522	-1.04883	-0.0805664	-0.237305	0.63062	0.231685	-0.728689	0.132864	9.59564	0.852915	-1.55977	0.010156	-0.00245888	-0.0206039	-1.09277	-0.291016	-0.0998535	0.65933	-0.124185	-0.738301	-0.0690964	9.71988	-0.540835	-1.13633	0.0124639	0.00938224	-0.00122126	-1.01147	0.125488	-0.224854	0.632449	-0.0364616	-0.773713	0.00682638	9.77334	-0.532088	-1.88412	0.00190005	-0.00298056	-0.00657973	-1.13013	0.0710449	-0.270508	
61	0.918781	-0.0177878	0.39436	0.00242424	-6.96188	-0.456664	8.23782	-0.0097548	0.015138	0.0314738	0.986572	0.0378418	-0.338623	0.784568	-0.0106288	-0.618788	0.0379696	9.68458	-0.658456	2.30812	0.0145472	0.00959409	-0.00925338	-0.678711	-0.0866699	-0.512695	0.878539	-0.025679	0.448672	0.161874	-7.6748	1.15263	7.24571	-0.0344953	0.00405258	0.0471883	0.866699	-0.296631	-0.240723	0.394128	-0.477326	0.649325	-0.441816	-0.702112	-9.15933	-2.84235	-0.0488346	-0.0255591	0.00405722	0.00341797	0.801758	0.622559	0.896566	-0.198644	0.395527	-0.0163822	-6.79998	-3.52432	5.93078	-0.0123273	-0.0128077	0.00520882	0.946289	0.234375	-0.19458	0.526104	0.401593	0.529474	0.530655	-2.60347	9.34896	3.4375	-0.0322686	0.038801	2.22395e-05	0.0493164	-0.94165	0.369385	0.809236	0.00687044	-0.584345	0.0602606	9.69219	-0.940789	2.88535	0.0407875	0.0553518	-0.00992578	-0.773682	0.0239258	-0.612549	0.697484	0.0499311	-0.713251	0.0479168	9.75562	-0.200119	-0.31543	0.00834232	0.0263751	-0.0167179	-1.04883	-0.0783691	-0.230469	0.630447	0.231481	-0.728968	0.13251	9.57782	0.606801	-1.80529	-0.00439758	-0.00189503	-0.0192201	-1.09058	-0.291016	-0.095459	0.659292	-0.124184	-0.738329	-0.0691589	9.72822	-0.480675	-1.20906	-0.00654155	0.0117777	-0.000399122	-1.01807	0.127686	-0.224854	0.632309	-0.0369258	-0.773811	0.00617183	9.63511	-0.547717	-2.01341	-0.0416818	0.00294614	-0.00648789	-1.12769	0.0666504	-0.270264	
62	0.918672	-0.0180384	0.394601	0.00258436	-6.97969	-0.382293	8.21774	-0.0139735	0.0289454	0.00928115	0.991211	0.0336914	-0.338379	0.784434	-0.0104947	-0.618941	0.0382785	9.78361	-0.658959	2.22915	0.00297818	0.0145132	-0.0101624	-0.674316	-0.0866699	-0.512695	0.878173	-0.0264225	0.448789	0.16341	-7.67181	1.13616	7.06796	-0.0551889	0.0328789	0.0493255	0.866943	-0.307617	-0.245117	0.394801	-0.478294	0.64802	-0.442083	-0.78263	-9.28639	-2.82875	0.0267439	-0.0443713	-0.0396804	0.00341797	0.803955	0.620361	0.896741	-0.198551	0.395188	-0.0161272	-6.82072	-3.58628	5.94363	0.00712675	-0.00966896	-0.0109227	0.947998	0.243164	-0.199219	0.52633	0.400468	0.528834	0.531919	-2.6726	9.51216	3.62096	-0.0351047	0.0107077	0.0178086	0.0473633	-0.943848	0.371826	0.80963	0.007808	-0.583712	0.0609704	9.64135	-0.971945	2.98594	0.053992	0.0354665	-0.00816474	-0.769287	0.0219727	-0.618896	0.697427	0.0498887	-0.713306	0.0479784	9.82178	-0.111288	-0.235803	-0.00548999	0.0165107	-0.0157989	-1.04688	-0.0761719	-0.242188	0.630227	0.231589	-0.729094	0.13267	9.5951	0.786501	-1.69767	-0.00213754	0.00137583	-0.0183101	-1.08789	-0.295654	-0.0932617	0.659294	-0.124428	-0.738254	-0.0694993	9.70784	-0.556767	-1.18445	-0.0189511	0.0152986	0.00325896	-1.02271	0.127441	-0.220459	0.632133	-0.0374136	-0.773936	0.005564	9.72299	-0.564427	-1.94118	-0.0318884	0.000766667	-0.0027957	-1.13696	0.0732422	-0.265869	
63	0.918481	-0.0184537	0.395022	0.00295348	-7.14573	-0.574758	8.29558	-0.0149198	0.0208656	0.00377796	0.989014	0.0336914	-0.336426	0.784752	-0.0106346	-0.618534	0.0383044	9.68969	-0.731498	2.25223	-0.00669151	0.0462849	-0.0186861	-0.678955	-0.0800781	-0.515381	0.877911	-0.0264222	0.449002	0.164228	-7.67299	1.24437	7.09444	-0.0114027	0.0300553	0.0306179	0.871094	-0.30542	-0.240479	0.395179	-0.47935	0.64682	-0.442357	-0.812663	-9.51198	-2.73854	0.0175767	-0.0365906	-0.0452946	0.00366211	0.799561	0.620361	0.896831	-0.198031	0.395242	-0.0161899	-6.86532	-3.51561	5.98321	0.00395608	0.0103685	-0.00257517	0.950439	0.236572	-0.196777	0.526312	0.400129	0.528685	0.532338	-2.65433	9.56218	3.66249	-0.00836595	0.0101472	0.0153086	0.0495605	-0.946045	0.371826	0.809466	0.00785111	-0.583917	0.0611948	9.69033	-0.97145	2.88413	0.0109589	0.00333766	-0.0112857	-0.771729	0.026123	-0.612549	0.697439	0.0501918	-0.713244	0.048404	9.80575	-0.121888	-0.257135	0.016383	0.0183781	-0.0145861	-1.04907	-0.0739746	-0.244385	0.630067	0.231714	-0.729166	0.132823	9.57708	0.717964	-1.76109	0.0176571	0.00364212	-0.01845	-1.09277	-0.293457	-0.0976562	0.659355	-0.124463	-0.738192	-0.0695095	9.63858	-0.565642	-1.16325	-0.000609939	0.020177	0.00659207	-1.02246	0.125244	-0.220459	0.632087	-0.037488	-0.77397	0.00554357	9.68697	-0.691737	-1.9866	-0.00286007	0.00449325	-0.000451017	-1.13696	0.0710449	-0.265869	
64	0.918381	-0.0183795	0.395258	0.00304577	-7.07181	-0.470926	8.26531	-0.00116817	0.0172992	0.0139409	0.989014	0.0336914	-0.334229	0.784661	-0.0103889	-0.618648	0.0383742	9.67075	-0.681252	2.26779	0.0106838	-0.0180453	-0.023001	-0.678955	-0.0844727	-0.517578	0.87785	-0.0262841	0.44906	0.164417	-7.75683	1.21201	7.09873	-0.00633815	0.0190418	0.0230947	0.869141	-0.30542	-0.240479	0.395313	-0.479761	0.64626	-0.442612	-0.833313	-9.50106	-2.90554	0.0263776	0.00283815	-0.0163454	0.00317383	0.806152	0.622559	0.896677	-0.198202	0.395512	-0.0160073	-6.90034	-3.58745	5.92804	-0.0223585	0.0273527	-0.000896188	0.952637	0.23877	-0.19458	0.526247	0.399853	0.528661	0.532634	-2.64823	9.56629	3.61967	0.00643485	0.0142481	0.0111194	0.0471191	-0.939453	0.367188	0.809269	0.00864569	-0.584114	0.0618035	9.67429	-0.957877	2.86926	0.0695232	0.00974103	-0.011143	-0.769531	0.0283203	-0.612549	0.697503	0.0501286	-0.713188	0.0483755	9.83261	-0.132692	-0.271883	-0.0064733	0.0266816	-0.0163928	-1.04883	-0.0761719	-0.235107	0.630089	0.231686	-0.729152	0.132842	9.61601	0.774078	-1.68329	0.00121627	0.0119085	-0.0192729	-1.09717	-0.295654	-0.0932617	0.659335	-0.124463	-0.738214	-0.0694671	9.7085	-0.546507	-1.20493	-0.000169781	0.0129195	0.00559873	-1.01587	0.125488	-0.222656	0.631978	-0.0374914	-0.774059	0.00560403	9.73422	-0.508252	-1.96933	1.59895e-05	0.00359219	-0.00311619	-1.13232	0.0688477	-0.270508	
65	0.918371	-0.018528	0.395276	0.00272983	-7.11503	-0.517821	8.23099	0.00107058	0.00989586	-0.024411	0.987061	0.0314941	-0.334229	0.784301	-0.0100897	-0.619105	0.0384562	9.66968	-0.660136	2.34507	0.0169169	-0.0336992	-0.0269192	-0.680908	-0.0866699	-0.508057	0.877862	-0.0259572	0.449088	0.16433	-7.62644	1.20087	7.05044	0.00339457	0.00890837	0.00262543	0.871094	-0.307617	-0.245117	0.395201	-0.479845	0.64621	-0.442694	-0.770983	-9.4198	-2.8112	-0.0117642	0.0109408	0.00813212	0.00561523	0.803955	0.615967	0.896626	-0.197978	0.395752	-0.0156815	-6.98203	-3.58682	5.79449	0.0129432	0.00722217	0.00284975	0.952637	0.234375	-0.19458	0.525316	0.399356	0.529144	0.533446	-2.58293	9.63098	3.5116	0.031146	0.0345266	0.0164097	0.0432129	-0.946045	0.369629	0.809641	0.00927745	-0.58353	0.0623555	9.68847	-0.952016	2.7314	0.0813355	0.0680591	-0.0123302	-0.771729	0.026123	-0.614746	0.697529	0.0502507	-0.713145	0.0485057	9.7867	-0.11553	-0.247256	0.00934857	0.0199713	-0.0173582	-1.05762	-0.0761719	-0.237305	0.630079	0.231535	-0.729245	0.132646	9.54867	0.74008	-1.72626	-0.0130404	0.003042	-0.0213041	-1.08838	-0.288818	-0.0976562	0.659355	-0.12439	-0.738216	-0.0693902	9.61222	-0.504609	-1.13157	-0.00925006	0.0160277	0.00502714	-1.01807	0.125488	-0.220459	0.63208	-0.0373718	-0.773981	0.00568108	9.63707	-0.53882	-2.00642	0.00455882	0.0145012	-0.00398037	-1.13257	0.0754395	-0.270508	
66	0.918398	-0.0184639	0.395222	0.00188443	-7.14454	-0.388887	8.14578	0.0178421	0.0106248	-0.0121203	0.98877	0.0400391	-0.334229	0.783336	-0.00940433	-0.620335	0.0384976	9.69224	-0.662047	2.25547	0.0104485	-0.0693604	-0.0321605	-0.680908	-0.0866699	-0.510498	0.877884	-0.0262462	0.448874	0.16475	-7.6353	1.14909	7.27265	-0.0576038	0.0207795	0.0213105	0.866943	-0.30542	-0.240479	0.395242	-0.480344	0.645626	-0.442967	-0.739578	-9.22604	-2.77954	0.00155546	-0.0115961	-0.038348	0.00341797	0.803711	0.624756	0.896567	-0.197398	0.396167	-0.0159426	-6.83852	-3.44062	5.98512	0.00346086	0.0309848	-0.00828355	0.950684	0.234375	-0.196777	0.524937	0.399021	0.529125	0.534088	-2.50769	9.34884	3.49052	0.00892097	-0.00134877	0.0292087	0.045166	-0.94165	0.373779	0.810143	0.0106517	-0.582698	0.0633969	9.60662	-0.930743	2.83633	0.0840861	0.0225768	-0.0154815	-0.773682	0.0239258	-0.618896	0.697485	0.0501489	-0.713193	0.0485457	9.85272	-0.0915277	-0.145443	-0.00841478	0.0247207	-0.0152151	-1.05542	-0.0761719	-0.237305	0.630046	0.231629	-0.7292	0.132881	9.58135	0.86893	-1.6013	0.0304359	0.0127994	-0.016588	-1.09521	-0.288818	-0.0910645	0.659425	-0.124369	-0.738163	-0.0693321	9.67504	-0.479789	-1.12545	0.00693853	0.0230542	0.00584578	-1.01807	0.127686	-0.227295	0.63196	-0.0374083	-0.774076	0.00582893	9.69009	-0.520053	-1.9507	0.0113785	0.000179546	-0.0014369	-1.13257	0.0732422	-0.270508	
67	0.918447	-0.0178939	0.395134	0.00210155	-7.15834	-0.320217	8.24687	0.0175926	-0.000313322	0.0197253	0.989014	0.0358887	-0.334229	0.782545	-0.00929175	-0.621344	0.0383285	9.73319	-0.660715	2.26564	-0.0146234	-0.0413033	-0.0221877	-0.685547	-0.0822754	-0.508057	0.877243	-0.0274252	0.44944	0.166422	-7.60299	1.16942	7.26987	-0.0908366	0.0553528	0.0597536	0.869141	-0.307617	-0.238281	0.395243	-0.482308	0.643991	-0.443213	-0.829593	-9.41614	-2.86885	0.0272291	-0.0570553	-0.0950162	0.0012207	0.801758	0.618164	0.896662	-0.196234	0.396483	-0.0170434	-6.90931	-3.54687	5.85368	0.0886177	0.012265	-0.0424304	0.943848	0.23877	-0.19458	0.525161	0.399343	0.528077	0.534664	-2.43903	9.52082	3.36573	-0.00857164	-0.0498933	0.0383568	0.0407715	-0.94165	0.367432	0.809739	0.0115579	-0.583172	0.0640215	9.6531	-0.91979	3.10987	0.0457973	-0.0241745	-0.015879	-0.77124	0.0197754	-0.614502	0.697594	0.0497736	-0.713129	0.0483021	9.7585	-0.179438	-0.354544	-0.0218533	0.0194315	-0.014536	-1.04224	-0.0805664	-0.232666	0.630043	0.23133	-0.729354	0.13257	9.58537	0.81032	-1.69682	-0.0331541	-0.000951859	-0.0170128	-1.09253	-0.298096	-0.095459	0.659382	-0.124991	-0.738053	-0.0697877	9.66488	-0.588541	-1.17124	-0.0345427	0.0193661	0.0102381	-1.01831	0.13208	-0.2229	0.631965	-0.0380507	-0.774045	0.00520872	9.65486	-0.682888	-1.99339	-0.0334398	0.0115953	0.000100328	-1.13013	0.0710449	-0.270508	
68	0.918816	-0.0180405	0.394267	0.00206444	-7.21319	-0.442501	8.23923	0.00120638	-0.0365086	-0.00913429	0.982422	0.0334473	-0.334229	0.782118	-0.00939652	-0.621886	0.0382247	9.73401	-0.709857	2.20726	-0.0174891	-0.0406898	-0.0184789	-0.683105	-0.0844727	-0.505859	0.876109	-0.0299406	0.45051	0.169047	-7.53926	0.995551	7.33732	-0.145246	0.112687	0.0627268	0.871094	-0.303223	-0.24292	0.396187	-0.485492	0.640514	-0.443932	-0.814708	-9.58642	-2.74682	0.0390439	-0.124949	-0.144259	0.0012207	0.803955	0.61377	0.897003	-0.193928	0.39673	-0.0195782	-6.77012	-3.37504	5.97871	0.113935	0.0421105	-0.066002	0.950195	0.243164	-0.196777	0.526731	0.399741	0.52547	0.53539	-2.44395	9.55804	3.63641	-0.0582362	-0.106602	0.034676	0.0432129	-0.946045	0.371826	0.809554	0.0113915	-0.583428	0.064061	9.71509	-1.01038	2.93981	-0.0173504	0.0108265	-0.0100103	-0.771729	0.026123	-0.618896	0.697677	0.0493745	-0.71309	0.0480798	9.83484	-0.127382	-0.22404	-0.0265938	0.029269	-0.0153321	-1.04907	-0.0739746	-0.23291	0.630154	0.231476	-0.729209	0.132582	9.60149	0.630882	-1.79549	0.00441665	0.010901	-0.0163517	-1.09521	-0.29126	-0.0910645	0.659651	-0.125189	-0.737758	-0.0700054	9.68134	-0.570716	-1.19113	-0.00841298	0.0326324	0.00645305	-1.01807	0.125488	-0.229492	0.632096	-0.0380626	-0.773937	0.00522239	9.71743	-0.511462	-1.96083	-0.0049288	0.0161636	-0.00408286	-1.13257	0.0732422	-0.270508	
69	0.919414	-0.0179044	0.392879	0.00173438	-6.88317	-0.382935	8.21655	0.0184972	-0.0552976	-0.00804193	0.986816	0.0336914	-0.338379	0.781051	-0.0100773	-0.623252	0.037615	9.69951	-0.701546	2.16453	-0.0265826	-0.0250782	-0.0109705	-0.68335	-0.0800781	-0.503662	0.87441	-0.0320382	0.452659	0.171698	-7.63688	1.23021	6.90941	-0.111653	0.12441	0.0696272	0.871094	-0.30542	-0.236084	0.397163	-0.488805	0.637587	-0.443637	-0.700738	-9.43486	-2.75565	0.00925373	-0.129722	-0.117408	0.000976562	0.806152	0.618164	0.896724	-0.193224	0.397583	-0.021886	-6.89541	-3.54013	5.82055	0.043534	0.0620405	-0.082233	0.948242	0.236572	-0.199219	0.527873	0.401032	0.52436	0.534387	-2.53716	9.55263	3.65636	0.0510799	-0.0895069	-0.00524488	0.0388184	-0.943848	0.369629	0.809285	0.0108489	-0.583844	0.0637747	9.6056	-1.07421	3.00311	-0.00406382	-0.019687	-0.0112764	-0.775879	0.0239258	-0.614502	0.697775	0.0491761	-0.713019	0.0479152	9.75393	-0.229679	-0.254827	-0.00485922	0.0278306	-0.0185912	-1.04688	-0.0761719	-0.237549	0.630452	0.231453	-0.729071	0.131965	9.56932	0.714176	-1.72501	-0.0132408	0.00757413	-0.0189628	-1.09253	-0.295654	-0.0976562	0.659648	-0.125236	-0.737752	-0.0700148	9.62397	-0.633607	-1.12638	0.00277379	0.013488	0.00145767	-1.01367	0.129883	-0.225098	0.632194	-0.0381552	-0.773853	0.00519464	9.65915	-0.578091	-1.93648	0.00414953	0.0091183	-0.000829488	-1.13257	0.0732422	-0.272705	
70	0.919679	-0.0178019	0.392263	0.00179075	-6.8653	-0.274827	8.24205	-0.00389199	-0.0073505	0.0107933	0.986816	0.0358887	-0.340576	0.780476	-0.0103104	-0.62398	0.037407	9.73389	-0.728929	2.0896	-0.010694	-0.0183403	-0.02243	-0.689697	-0.0844727	-0.503418	0.873744	-0.033484	0.453353	0.172979	-7.74116	1.27603	6.83032	-0.0737751	0.0437566	0.0134376	0.869141	-0.307617	-0.236084	0.397606	-0.490111	0.636497	-0.443364	-0.681682	-9.25868	-2.7442	-0.00131295	-0.101645	-0.0800899	0.0012207	0.803955	0.61377	0.896594	-0.192203	0.398258	-0.0238266	-6.93851	-3.65789	5.85479	0.0593097	0.0381688	-0.0520744	0.945801	0.245361	-0.192383	0.52829	0.401461	0.523985	0.534021	-2.58954	9.50543	3.57699	0.0347157	-0.079737	0.00275226	0.0473633	-0.943848	0.367432	0.809006	0.0108857	-0.58422	0.0638498	9.6658	-0.995379	2.9147	0.0111482	0.00461691	-0.0178116	-0.771484	0.0241699	-0.621094	0.697797	0.0489957	-0.713027	0.0476634	9.87677	-0.138218	-0.134167	-0.0175883	0.0182124	-0.0209127	-1.05347	-0.0739746	-0.237549	0.630416	0.231638	-0.728998	0.132216	9.63724	0.772203	-1.63538	0.0270262	0.0135722	-0.0202664	-1.09497	-0.293457	-0.0932617	0.659731	-0.125045	-0.73772	-0.0699148	9.77515	-0.597131	-1.10052	0.0141485	0.0215906	-0.0020245	-1.02026	0.127441	-0.222656	0.632244	-0.0380537	-0.773816	0.00524006	9.76112	-0.555695	-1.89949	0.0102585	0.0127899	-0.0077288	-1.13721	0.0776367	-0.270508	
71	0.919839	-0.0179025	0.391884	0.00180884	-6.80017	-0.409694	8.23024	0.00238105	-0.00560096	-0.00265781	0.984619	0.0356445	-0.338623	0.780305	-0.00970067	-0.624227	0.0370172	9.72804	-0.719787	2.14629	0.00648938	-0.00565672	-0.0363082	-0.685303	-0.0844727	-0.500977	0.873787	-0.0341194	0.453158	0.173149	-7.64309	1.15024	6.76419	-0.0632601	0.0108993	-0.00740753	0.873291	-0.307617	-0.236084	0.398304	-0.491243	0.634781	-0.443945	-0.513129	-9.2534	-2.58829	0.0343146	-0.0183585	-0.0394663	0.000976562	0.806152	0.615967	0.896635	-0.190863	0.398731	-0.0251207	-6.77363	-3.42542	5.84892	0.0600204	0.0326027	-0.0254743	0.948242	0.236572	-0.192383	0.529025	0.401651	0.522724	0.534386	-2.56777	9.35921	3.63267	-0.0128917	-0.0393595	0.0283008	0.0388184	-0.943848	0.369629	0.808994	0.0114994	-0.584207	0.0640201	9.65732	-1.00592	2.9051	0.0498457	0.020623	-0.0277998	-0.771484	0.0219727	-0.610352	0.697514	0.0494552	-0.713255	0.0479005	9.78443	-0.211972	-0.287569	0.0327058	0.00261303	-0.024961	-1.04688	-0.0739746	-0.23291	0.630635	0.232288	-0.728626	0.132081	9.59256	0.682774	-1.74178	0.00877667	0.0105522	-0.0251071	-1.09497	-0.293457	-0.0976562	0.659869	-0.125038	-0.737576	-0.0701417	9.68043	-0.590256	-1.12377	-0.00748787	0.0167836	-0.00331895	-1.02051	0.129639	-0.227295	0.63234	-0.038201	-0.773734	0.00470886	9.66309	-0.610628	-1.97947	-0.0220118	0.015346	-0.013691	-1.13257	0.0732422	-0.270508	
72	0.91982	-0.0178674	0.391929	0.00189598	-6.7371	-0.329383	8.18329	0.00124931	0.0116846	0.0113083	0.982666	0.03125	-0.336426	0.780175	-0.00942012	-0.62439	0.0370867	9.69983	-0.677987	2.09045	0.0158596	-0.00352928	-0.0275393	-0.6875	-0.0844727	-0.503418	0.874342	-0.0336517	0.452414	0.172381	-7.64705	1.09975	7.04599	0.0325581	-0.0242513	-0.0154382	0.873535	-0.312012	-0.231201	0.398478	-0.490908	0.634201	-0.444987	-0.563802	-9.31844	-2.57605	0.0445563	0.0191642	-0.0140577	0.00317383	0.810547	0.615967	0.896568	-0.190582	0.399001	-0.0253274	-6.81792	-3.5009	5.90408	0.0234772	0.0316873	-0.0155334	0.947998	0.240967	-0.19458	0.52939	0.401653	0.521599	0.535122	-2.43935	9.51454	3.70477	-0.0210423	-0.0258881	0.0303338	0.045166	-0.94165	0.365234	0.809072	0.011894	-0.584069	0.0642177	9.54759	-0.978326	3.05514	0.0470985	0.0264735	-0.0225502	-0.775635	0.0175781	-0.612305	0.697484	0.0497897	-0.713243	0.0481851	9.88011	-0.0692702	-0.0509773	0.0332759	0.0196088	-0.0210178	-1.05103	-0.0783691	-0.235107	0.630621	0.232665	-0.728431	0.132561	9.58323	0.849328	-1.58113	0.0511581	0.0233468	-0.022707	-1.09277	-0.293457	-0.095459	0.659703	-0.124511	-0.737836	-0.0699088	9.69098	-0.609152	-1.12266	0.0254072	0.00112073	-0.00443874	-1.01807	0.123291	-0.218018	0.632354	-0.0377017	-0.773746	0.0049287	9.67374	-0.530792	-1.9037	0.0258642	0.00638378	-0.0126125	-1.13257	0.0754395	-0.270508	
73	0.919553	-0.0180425	0.392546	0.00233557	-7.12785	-0.406005	8.24673	-0.0186133	0.0324181	0.0155913	0.989258	0.0314941	-0.340576	0.779827	-0.00883176	-0.624819	0.0373248	9.69449	-0.682458	2.19523	0.0192683	-0.0245741	-0.0251984	-0.689697	-0.0866699	-0.500977	0.874814	-0.0341264	0.451542	0.172177	-7.4674	1.05457	7.29431	-0.0395243	-0.0038795	-0.0207489	0.875488	-0.307617	-0.236084	0.398971	-0.490964	0.632935	-0.446284	-0.798462	-9.48325	-2.67789	0.0690693	-0.00992319	-0.0429071	-0.00805664	0.80835	0.609375	0.896578	-0.188625	0.399811	-0.0268463	-6.77831	-3.48778	5.94765	0.108659	0.0585682	-0.0309906	0.952148	0.247559	-0.189941	0.530239	0.401543	0.519514	0.53639	-2.43672	9.53386	3.67061	-0.0537029	-0.0617816	0.0473088	0.0429688	-0.94165	0.367432	0.808958	0.0119618	-0.584215	0.0643114	9.66458	-0.983106	2.68414	0.0288381	0.0120104	-0.0155406	-0.77124	0.0197754	-0.612305	0.697345	0.0501809	-0.713334	0.0484385	9.75814	-0.182244	-0.255834	0.0186222	0.00488251	-0.0221848	-1.04907	-0.0761719	-0.239746	0.63046	0.23274	-0.728548	0.132552	9.56215	0.647763	-1.76924	0.00590568	-0.00205661	-0.0224499	-1.09302	-0.288818	-0.0998535	0.659564	-0.124205	-0.738031	-0.0697085	9.62251	-0.558082	-1.01113	0.00983764	0.0102333	-0.0035621	-1.02051	0.131836	-0.2229	0.632212	-0.0374666	-0.773873	0.0049634	9.64267	-0.596167	-1.89849	0.00804339	-0.00354261	-0.00871238	-1.12793	0.0688477	-0.277344	
74	0.91958	-0.0178356	0.392488	0.0028098	-7.01041	-0.378411	8.29462	0.0148566	0.00157592	0.0282669	0.987061	0.0314941	-0.336426	0.779643	-0.00815906	-0.625047	0.0375074	9.8485	-0.655634	2.13191	0.018826	0.0083457	-0.0268011	-0.689697	-0.0866699	-0.500977	0.874669	-0.0343434	0.451896	0.171946	-7.54381	0.928033	7.25246	-0.0127957	0.0503243	-0.0161727	0.877686	-0.307861	-0.231445	0.399468	-0.492433	0.631303	-0.446533	-0.478857	-9.51242	-2.48761	0.0117289	-0.0542061	-0.0629504	-0.00805664	0.810303	0.611328	0.896098	-0.187751	0.401193	-0.028321	-6.85234	-3.3299	5.87029	0.0377398	0.0762796	-0.0490567	0.947754	0.247559	-0.19458	0.53065	0.401722	0.518518	0.536814	-2.3591	9.52696	3.80471	-0.0389465	-0.0600507	0.0432175	0.0410156	-0.947998	0.367676	0.808983	0.0133781	-0.584046	0.0652464	9.70285	-0.956756	3.06055	0.0838381	0.0125312	-0.0180368	-0.773438	0.0175781	-0.610107	0.697209	0.050819	-0.713387	0.0489526	9.89535	-0.126585	-0.174287	0.0281317	0.0151709	-0.0199826	-1.04443	-0.0783691	-0.237305	0.630159	0.233514	-0.728375	0.13357	9.70243	0.705728	-1.68618	0.0627915	0.0148913	-0.0184824	-1.09717	-0.298096	-0.0932617	0.659672	-0.123738	-0.738029	-0.0695326	9.73156	-0.581091	-1.15541	0.0169457	0.0113779	-0.00742768	-1.02271	0.127441	-0.222656	0.631845	-0.0370917	-0.77419	0.00518237	9.74657	-0.607706	-1.95734	0.013366	-0.0112644	-0.0114919	-1.13916	0.0710449	-0.265869	
75	0.919553	-0.0180364	0.392536	0.00341794	-6.98514	-0.380462	8.26516	-0.0225891	0.014736	0.0142431	0.989258	0.0270996	-0.333984	0.779907	-0.00799747	-0.624699	0.0378365	9.80677	-0.654994	2.06434	0.00293312	0.0389397	-0.00755787	-0.687256	-0.0888672	-0.505615	0.873858	-0.0358067	0.452834	0.173296	-7.6787	1.1403	7.15664	-0.0827835	0.019292	0.0370909	0.871338	-0.307617	-0.231445	0.400674	-0.49419	0.629125	-0.446585	-0.602662	-9.22199	-2.80854	0.0519563	-0.0991614	-0.0666428	-0.00341797	0.80835	0.611572	0.895635	-0.187024	0.402393	-0.0306668	-6.99191	-3.5131	5.99545	0.0807643	0.0728172	-0.0824329	0.950195	0.240967	-0.187744	0.531361	0.402479	0.517249	0.536769	-2.30587	9.51971	3.73617	-0.00693983	-0.06271	0.0220581	0.0407715	-0.943848	0.369629	0.808969	0.0141141	-0.583954	0.066084	9.7513	-0.922107	2.81564	0.0450147	0.0146308	-0.00353908	-0.77124	0.0153809	-0.616455	0.69683	0.0520953	-0.713578	0.0502088	9.78084	-0.149699	-0.287799	0.082943	0.000475661	-0.0170232	-1.04883	-0.0805664	-0.239746	0.630065	0.234925	-0.727628	0.135592	9.41486	0.742671	-1.742	0.0799916	0.0236539	-0.0200603	-1.09033	-0.295654	-0.095459	0.65952	-0.123474	-0.738245	-0.0691522	9.67538	-0.566241	-1.31189	0.0236442	-0.0069674	0.00853714	-1.01367	0.127686	-0.222656	0.631645	-0.0366789	-0.774369	0.00566537	9.70534	-0.691638	-2.07371	0.0404261	0.00152077	-0.00235626	-1.13477	0.0710449	-0.265869	
76	0.919665	-0.0179554	0.392277	0.00366482	-7.05234	-0.44475	8.14153	0.00735902	-0.00831678	0.0123232	0.991211	0.0336914	-0.338379	0.779584	-0.00673656	-0.625084	0.0383867	9.63533	-0.55132	2.39762	0.0384506	-0.0182407	-0.0380865	-0.689453	-0.0888672	-0.503174	0.872965	-0.0391186	0.453273	0.175912	-7.64373	1.04185	7.0805	-0.166528	0.058982	0.0405383	0.875488	-0.305664	-0.231445	0.402648	-0.497179	0.62479	-0.447577	-0.472332	-9.50714	-2.30941	0.0766468	-0.146496	-0.149923	-0.00170898	0.814941	0.611328	0.895361	-0.185598	0.403491	-0.0328305	-7.00454	-3.50713	5.73762	0.067688	0.0627812	-0.0433481	0.952148	0.249756	-0.187744	0.53398	0.403186	0.512562	0.538132	-2.30793	9.39055	3.70584	-0.102538	-0.113544	0.0622143	0.0410156	-0.946045	0.358887	0.808805	0.015684	-0.584004	0.0672893	9.43034	-0.919088	2.68239	0.131645	-0.0103586	-0.017401	-0.77124	0.0175781	-0.618652	0.696621	0.0525248	-0.71373	0.0504965	9.78345	-0.0491351	-0.127352	-0.00300848	0.0172607	-0.017775	-1.04883	-0.0783691	-0.235107	0.629805	0.234952	-0.7279	0.135297	9.44679	0.895566	-1.58348	-0.0659716	-0.0224572	-0.0262564	-1.09033	-0.293457	-0.095459	0.659192	-0.123114	-0.738624	-0.0688775	9.65686	-0.445348	-1.14527	0.0102582	-0.0030588	-0.00411523	-1.02026	0.125244	-0.220459	0.631545	-0.0361476	-0.774473	0.00603884	9.61346	-0.390943	-1.99489	-0.0129717	0.00113746	-0.0118147	-1.13672	0.0666504	-0.265869	
77	0.91966	-0.0179838	0.392293	0.00299584	-7.06188	-0.158237	8.30738	0.000821159	0.0205975	-0.0266508	0.987061	0.0292969	-0.340576	0.778929	-0.0063938	-0.625898	0.0384792	9.60837	-0.609515	1.94484	0.0213697	-0.072926	-0.0157808	-0.691895	-0.0866699	-0.496338	0.871657	-0.0400966	0.454766	0.178309	-7.87905	0.92345	6.74082	-0.0449011	0.0877788	0.0936205	0.875488	-0.305664	-0.224609	0.403486	-0.499943	0.622839	-0.446461	-0.349101	-9.75579	-2.67826	-0.027347	-0.0962314	-0.0404549	0.000732422	0.814941	0.611328	0.895176	-0.184538	0.404289	-0.0339977	-7.08356	-3.5293	5.47147	0.0595818	0.0398426	-0.0302114	0.947998	0.243164	-0.183105	0.534587	0.403516	0.511542	0.538253	-2.352	9.81557	3.74556	0.0295202	-0.022048	-0.00525966	0.0385742	-0.943848	0.361084	0.807995	0.0174568	-0.584941	0.0684322	9.61828	-0.889687	2.91149	0.0484932	-0.0332339	-0.0168881	-0.770996	0.0131836	-0.612305	0.696669	0.0528422	-0.713651	0.0506205	9.87637	-0.155215	-0.3318	0.0241618	0.0193987	-0.0213198	-1.04663	-0.0805664	-0.235107	0.62942	0.234744	-0.728418	0.13466	9.63055	0.678923	-1.73435	0.0045381	-0.012722	-0.0233873	-1.09033	-0.295654	-0.095459	0.659141	-0.122991	-0.738689	-0.0688854	9.68428	-0.484056	-1.25027	0.00215912	0.00990711	0.00164459	-1.01587	0.125488	-0.222656	0.631242	-0.0360806	-0.774723	0.00598115	9.72006	-0.492902	-2.03834	0.00164907	-0.0073619	-0.00377864	-1.13208	0.0644531	-0.272705	
78	0.919889	-0.0183198	0.391736	0.00340018	-7.2177	-0.468943	8.30105	-0.00474409	-0.0409644	0.0247324	0.986816	0.0336914	-0.340576	0.778472	-0.00625835	-0.62644	0.0389229	9.76928	-0.663862	2.01651	0.00704776	0.0161529	-0.0121325	-0.694092	-0.0866699	-0.498535	0.871328	-0.0396801	0.455209	0.178882	-7.87452	1.30453	6.77957	0.00062355	0.0518189	0.0684749	0.877686	-0.305664	-0.231445	0.403486	-0.499943	0.622839	-0.446461	-0.349101	-9.75579	-2.67826	-0.027347	-0.0962314	-0.0404549	0.000732422	0.814941	0.611328	0.895182	-0.184617	0.404252	-0.0338539	-7.03743	-3.67053	5.52863	-0.0117598	0.00137785	-0.00592485	0.950195	0.245361	-0.178467	0.534818	0.401944	0.512378	0.538404	-2.34375	9.33476	3.71469	-0.00259042	0.0576001	-0.0473085	0.0368652	-0.950195	0.356934	0.807886	0.0172588	-0.585051	0.0688331	9.78227	-0.800489	3.03465	0.018837	0.00591506	-0.0001004	-0.777588	0.0175781	-0.612305	0.696838	0.0526126	-0.71351	0.0505116	9.84623	-0.0308121	-0.27131	-0.0228566	0.0300464	-0.0103236	-1.05103	-0.0783691	-0.235107	0.629118	0.234263	-0.728998	0.133766	9.58721	0.783105	-1.7808	-0.0483042	-0.0175221	-0.0239344	-1.09717	-0.295654	-0.0932617	0.659192	-0.1233	-0.738556	-0.0692721	9.69873	-0.499758	-1.21347	-0.02962	0.0264701	0.00291852	-1.02026	0.123291	-0.220215	0.631083	-0.0365063	-0.774837	0.00544217	9.69268	-0.439739	-2.03247	-0.0338091	0.00372165	-0.00388984	-1.1394	0.0754395	-0.265869	
79	0.920274	-0.0180119	0.390835	0.00432671	-6.92216	-0.372085	8.22075	-0.0159131	-0.0216921	0.0381273	0.989014	0.0336914	-0.336426	0.778064	-0.00607842	-0.626933	0.0391832	9.74484	-0.688564	2.07632	0.00878787	-0.00976282	-0.014342	-0.687256	-0.0910645	-0.500732	0.871751	-0.0391135	0.454316	0.179211	-7.8256	1.03511	6.9824	0.0194124	-0.0399153	0.0253933	0.871338	-0.312012	-0.226807	0.403915	-0.500575	0.623233	-0.444813	-0.525305	-9.31988	-2.63836	-0.0335396	-0.0277735	0.0191054	0.000732422	0.812744	0.611328	0.89608	-0.185056	0.402167	-0.0325166	-6.94175	-3.37752	5.90933	0.00832991	-0.0704572	-0.00513507	0.947754	0.249756	-0.187744	0.534646	0.400947	0.513062	0.538667	-2.20839	9.36123	3.81698	0.0130913	0.072426	-0.0392474	0.0432129	-0.948242	0.361084	0.80762	0.0169266	-0.58546	0.0685631	9.66103	-1.02961	2.77495	-0.0120057	-0.010384	-0.0174544	-0.773438	0.0175781	-0.610107	0.696987	0.052134	-0.713431	0.0500772	9.8121	-0.219354	-0.383818	-0.016978	0.0204337	-0.0180532	-1.04663	-0.0805664	-0.244385	0.629181	0.233927	-0.729144	0.133262	9.62233	0.609392	-1.84386	-0.00957985	0.0131275	-0.0236713	-1.09277	-0.29126	-0.0932617	0.65923	-0.123621	-0.738429	-0.0696785	9.65503	-0.583335	-1.26211	-0.0227708	0.0169563	0.000102647	-1.01562	0.123291	-0.222656	0.631062	-0.0369018	-0.774838	0.00494963	9.68899	-0.517587	-2.03372	-0.0478765	0.00891668	-0.00486245	-1.13232	0.0710449	-0.265869	
80	0.920358	-0.0181826	0.390628	0.00438997	-7.02545	-0.572265	8.22609	-0.0146509	-0.0101847	0.00389968	0.985107	0.0249023	-0.329834	0.777738	-0.00603471	-0.627336	0.0391958	9.79486	-0.691693	2.12014	-0.00247428	-0.0278246	-0.018592	-0.691895	-0.0866699	-0.500977	0.871958	-0.0390762	0.453906	0.179252	-7.80123	1.17944	7.12525	-0.0151309	-0.0200321	0.00517442	0.871338	-0.309814	-0.233643	0.404606	-0.500287	0.622952	-0.444902	-0.58761	-9.47441	-2.8062	0.0334325	-0.0142005	0.00821179	0.000732422	0.812744	0.606934	0.896447	-0.185014	0.401366	-0.0325384	-6.84513	-3.35338	5.96687	0.00970144	-0.0624763	-0.022619	0.945557	0.249756	-0.192383	0.53511	0.398673	0.51344	0.539534	-2.36023	9.59975	3.67439	-0.0564747	0.0369548	-0.0443336	0.0388184	-0.948242	0.358887	0.807119	0.0169356	-0.586148	0.0685784	9.67068	-0.946203	2.95646	0.0234564	-0.0254277	-0.014616	-0.781738	0.0131836	-0.612305	0.69698	0.0521147	-0.71344	0.0500545	9.80862	-0.199369	-0.332929	-0.00414953	0.0187529	-0.0174733	-1.04858	-0.0827637	-0.234863	0.629175	0.233918	-0.729166	0.133183	9.54038	0.684766	-1.79247	-0.00316672	0.00651367	-0.0245591	-1.09277	-0.293457	-0.0932617	0.659285	-0.123563	-0.738403	-0.0695519	9.65474	-0.662534	-1.1698	0.0084112	0.0188857	0.00750203	-1.01807	0.125488	-0.224854	0.631183	-0.037209	-0.774727	0.00461789	9.63502	-0.685473	-1.96976	-0.00238787	0.0157105	-0.00275218	-1.13013	0.0710449	-0.26123	
81	0.92054	-0.0177728	0.390223	0.00410436	-7.17272	-0.558366	8.20219	0.0213693	-0.0145956	-0.00412848	0.987061	0.0270996	-0.334229	0.77727	-0.00611272	-0.627938	0.0388263	9.71326	-0.599044	2.07056	-0.0143675	-0.0233741	-0.0179598	-0.689697	-0.0866699	-0.491455	0.872193	-0.0396407	0.453335	0.179434	-7.73035	1.05003	7.01739	-0.0541421	0.00982289	0.00070642	0.873291	-0.30542	-0.226807	0.40557	-0.500685	0.621558	-0.445525	-0.473839	-9.52237	-2.39515	0.0514838	-0.0260909	-0.0330413	0.00488281	0.817139	0.604736	0.896833	-0.185289	0.400366	-0.0326425	-6.88639	-3.55953	6.05487	0.00156813	-0.0348117	-0.0286113	0.950195	0.245361	-0.192383	0.536103	0.396904	0.513084	0.54019	-2.42905	9.51325	3.90798	-0.036775	0.00136727	-0.0312374	0.0344238	-0.943848	0.358887	0.806551	0.0170087	-0.58693	0.0685529	9.60536	-0.933713	2.77532	0.0115652	-0.0618747	-0.0173496	-0.781494	0.00878906	-0.609863	0.697056	0.0524053	-0.713325	0.0503407	9.82103	-0.0464876	-0.110035	0.0175048	0.0235291	-0.0197067	-1.05103	-0.0805664	-0.235107	0.629258	0.23412	-0.729009	0.133295	9.52902	0.875164	-1.66629	0.0086354	0.0107555	-0.0276033	-1.09497	-0.293457	-0.095459	0.659503	-0.122947	-0.738372	-0.0688942	9.70109	-0.485991	-1.12544	0.0331358	0.0245108	0.00454637	-1.01343	0.123291	-0.220215	0.631208	-0.0369853	-0.774716	0.00491809	9.68218	-0.507147	-1.9645	0.0163823	0.00915603	-0.00233378	-1.13257	0.0732422	-0.261475	
82	0.920984	-0.0171327	0.389209	0.00339256	-7.00041	-0.345614	8.29293	0.0346686	-0.0349647	-0.0235832	0.987061	0.0314941	-0.340576	0.777016	-0.00637472	-0.628277	0.0383761	9.79917	-0.592239	2.1317	-0.0391816	0.0237256	-0.0290556	-0.689697	-0.0866699	-0.493896	0.872214	-0.039274	0.45331	0.179473	-7.66739	1.01392	6.8535	0.011476	0.00430599	0.0136455	0.873535	-0.309814	-0.229004	0.405759	-0.500886	0.621396	-0.445354	-0.418585	-9.55487	-2.62269	-0.000240361	0.00520933	0.0177662	0.00292969	0.814941	0.611328	0.897089	-0.184623	0.400047	-0.0332915	-6.96835	-3.52722	5.9896	0.0390059	-0.000437499	-0.0292701	0.945557	0.249756	-0.192383	0.536763	0.396213	0.512867	0.540248	-2.40954	9.7166	3.76495	0.00403639	-0.0245029	-0.0209126	0.0432129	-0.952393	0.350586	0.805079	0.0175334	-0.588921	0.0686475	9.72953	-0.882997	2.85192	0.0300605	-0.0763003	-0.0227515	-0.779785	0.0175781	-0.601562	0.697211	0.0522557	-0.713194	0.0502097	9.8621	-0.096977	-0.225021	-0.0124331	0.0369857	-0.0141245	-1.04858	-0.0827637	-0.237305	0.629244	0.233923	-0.72914	0.132996	9.60262	0.734744	-1.71216	-0.0167026	0.00716065	-0.0211834	-1.09497	-0.293457	-0.095459	0.659791	-0.122847	-0.738143	-0.0687702	9.65542	-0.480762	-1.12783	-0.00236251	0.0275233	0.00588066	-1.02026	0.125244	-0.227295	0.630825	-0.0372267	-0.775015	0.00505286	9.66844	-0.463523	-2.02996	-0.00727739	-0.0150098	0.0083926	-1.13232	0.0688477	-0.265869	
83	0.921468	-0.0167878	0.388083	0.00236873	-6.9324	-0.209198	8.23649	0.0229159	-0.0398585	-0.0259687	0.986816	0.0356445	-0.336426	0.777288	-0.00690637	-0.627977	0.0376884	9.70042	-0.579631	2.02812	-0.0455064	0.0263939	-0.0248958	-0.698242	-0.0888672	-0.491455	0.872707	-0.0382702	0.452512	0.179308	-7.91058	1.09525	6.99144	0.00584292	-0.0527682	0.0107518	0.871338	-0.314209	-0.222168	0.406331	-0.500043	0.622198	-0.444658	-0.48911	-9.1809	-2.61287	0.00418286	0.00609121	0.0604996	0.00512695	0.814941	0.606934	0.897354	-0.183722	0.399798	-0.0341007	-6.78299	-3.33574	5.98407	0.0330755	0.00839919	-0.0247835	0.945557	0.247559	-0.192383	0.537571	0.396061	0.512759	0.539659	-2.45703	9.38909	3.87155	0.0233093	-0.0367219	-0.0256596	0.0432129	-0.948242	0.361084	0.804372	0.0159668	-0.590108	0.0671031	9.68692	-0.838918	3.05821	-0.0940919	-0.0133712	-0.0248546	-0.781982	0.0175781	-0.601562	0.697155	0.0518101	-0.713304	0.0498857	9.82433	0.00819404	-0.220255	-0.0245673	0.00280997	-0.0139337	-1.05103	-0.0805664	-0.239746	0.629236	0.2338	-0.72918	0.133025	9.6346	0.825368	-1.77348	0.00953681	0.013106	-0.017243	-1.09277	-0.293457	-0.095459	0.659925	-0.123224	-0.73793	-0.0690948	9.73503	-0.457856	-1.26028	-0.0339416	0.0240667	0.00588455	-1.02246	0.123047	-0.222656	0.630691	-0.0376682	-0.775105	0.00467356	9.85423	-0.563155	-2.02786	-0.0153611	0.0108147	-0.00173202	-1.13037	0.0732422	-0.263672	
84	0.921817	-0.0166554	0.387263	0.00188083	-6.99701	-0.510869	8.29311	0.0185861	-0.0296279	-0.0112004	0.984863	0.0292969	-0.344971	0.77754	-0.00760027	-0.627712	0.0367605	9.82786	-0.589671	2.12769	-0.0469641	0.023128	-0.0208782	-0.687256	-0.0910645	-0.500732	0.87317	-0.0387406	0.45127	0.180078	-7.59153	0.895924	7.08782	-0.0401412	-0.0143924	0.0220352	0.86499	-0.311768	-0.231201	0.407431	-0.499873	0.621197	-0.445244	-0.636532	-9.51904	-2.5838	0.0811207	-0.0185607	-0.0117559	0.00268555	0.819336	0.604736	0.8977	-0.182439	0.399497	-0.0353998	-6.92114	-3.38944	5.83795	0.106882	-0.00741355	-0.0598027	0.949951	0.251953	-0.19458	0.538704	0.395856	0.511074	0.540277	-2.22917	9.4682	3.76909	-0.0660207	-0.0602511	0.0215196	0.0429688	-0.946045	0.352539	0.804286	0.0145937	-0.590389	0.0659663	9.73114	-0.946001	2.79961	-0.0554459	0.0142315	-0.0192006	-0.78418	0.017334	-0.597412	0.697094	0.0508397	-0.713489	0.0490749	9.79186	-0.17683	-0.166528	-0.065914	0.0167408	-0.0110751	-1.04639	-0.0849609	-0.237305	0.629391	0.233389	-0.729194	0.13294	9.59428	0.632577	-1.70906	-0.0131511	0.014345	-0.0102117	-1.09277	-0.291016	-0.095459	0.659792	-0.12422	-0.737806	-0.0699104	9.6552	-0.621317	-1.09278	-0.0515827	0.0153312	0.0148634	-1.02026	0.127441	-0.222656	0.630945	-0.0388279	-0.774848	0.00334279	9.64368	-0.686166	-1.92872	-0.076773	0.0263758	-0.000949253	-1.13696	0.0710449	-0.268066	
