40	Head	00b4120a												Throax	00b411e8												LUpArm	00b411d9												LFoArm	00b41148												RUpArm	00b411db												RFoArm	00b41204												Waist	00b411f7												Lthigh	00b411f4												Lshank	00b4111b												Rthigh	00b411c8												Rshank	00b411ee												
PacketCount	q0	q1	q2	q3	accX	accY	accZ	gyrX	gyrY	gyrZ	magX	magY	magZ	q0	q1	q2	q3	accX	accY	accZ	gyrX	gyrY	gyrZ	magX	magY	magZ	q0	q1	q2	q3	accX	accY	accZ	gyrX	gyrY	gyrZ	magX	magY	magZ	q0	q1	q2	q3	accX	accY	accZ	gyrX	gyrY	gyrZ	magX	magY	magZ	q0	q1	q2	q3	accX	accY	accZ	gyrX	gyrY	gyrZ	magX	magY	magZ	q0	q1	q2	q3	accX	accY	accZ	gyrX	gyrY	gyrZ	magX	magY	magZ	q0	q1	q2	q3	accX	accY	accZ	gyrX	gyrY	gyrZ	magX	magY	magZ	q0	q1	q2	q3	accX	accY	accZ	gyrX	gyrY	gyrZ	magX	magY	magZ	q0	q1	q2	q3	accX	accY	accZ	gyrX	gyrY	gyrZ	magX	magY	magZ	q0	q1	q2	q3	accX	accY	accZ	gyrX	gyrY	gyrZ	magX	magY	magZ	q0	q1	q2	q3	accX	accY	accZ	gyrX	gyrY	gyrZ	magX	magY	magZ	
0	0.736421	0.0894994	0.111468	-0.661248	-2.34557	0.241866	10.9156	0.0174569	0.0226382	-0.0409712	0.306396	0.411377	-0.851562	0.543033	-0.476605	-0.464235	-0.512297	10.018	-1.01506	1.14473	0.000887192	0.0219731	0.0281488	-0.745605	0.356201	-0.0974121	0.843445	0.147733	0.208033	-0.472756	-4.3816	0.849024	10.2582	-0.0604931	0.0285939	0.0425567	0.536133	0.197266	-0.72998	0.101909	0.0469703	0.621391	-0.775423	-1.91227	-9.42424	2.51325	0.0264949	-0.00958917	-0.0320123	-0.197998	0.990479	-0.188965	0.547585	0.0987881	0.282897	-0.781256	-4.59555	-3.14854	8.01546	-0.0530127	-0.00474768	-0.00761165	0.265625	0.65332	-0.661377	0.841798	0.532743	0.0773852	0.0396646	-2.7917	8.63992	7.95255	-0.0150007	0.0471084	-0.0284998	0.697998	-0.733643	-0.225342	0.626342	-0.41847	-0.450059	-0.47961	9.85979	-1.28745	2.34492	0.0864292	0.0772531	0.0353129	-0.79834	0.482422	-0.280762	0.73692	-0.297176	-0.230771	-0.561588	7.28177	-2.02909	7.44686	-0.0123087	0.0771948	-0.0540053	-0.523682	0.591064	-0.681152	0.362918	-0.475293	-0.800062	-0.0478244	5.43034	-2.94942	-6.40163	-0.098432	0.0449973	-0.084678	-0.734131	0.578613	0.526611	0.489364	-0.563001	-0.475093	-0.466732	9.83611	0.115223	0.0825348	-0.138997	-0.0101397	-0.0304545	-0.894287	0.537354	0.112305	0.535937	-0.507002	-0.578286	-0.34829	9.59795	0.348865	-1.68192	-0.248439	-0.0359254	-0.0122961	-0.988037	0.609131	0.0627441	
1	0.736284	0.0887639	0.11329	-0.66119	-2.7162	0.0328131	10.8579	-0.0940064	0.0211802	0.0101182	0.304199	0.411133	-0.843018	0.543999	-0.476999	-0.463184	-0.511857	9.71986	-0.286172	1.0468	-0.00202666	0.0433071	0.0394307	-0.74585	0.360596	-0.0952148	0.843445	0.147733	0.208033	-0.472756	-4.3816	0.849024	10.2582	-0.0604931	0.0285939	0.0425567	0.536133	0.197266	-0.72998	0.101464	0.0456938	0.62082	-0.776015	-2.07165	-9.59842	2.272	0.0277557	-0.0272605	-0.0455857	-0.200439	0.992676	-0.193359	0.547323	0.0980642	0.283456	-0.781328	-4.46122	-3.19003	8.04618	-0.0323714	-0.00340755	-0.0262216	0.265381	0.655518	-0.65918	0.841955	0.532401	0.078024	0.0396576	-2.85586	8.66148	7.86541	-0.0155156	0.0488244	-0.0459914	0.702637	-0.742188	-0.220947	0.626948	-0.418815	-0.44865	-0.479837	9.77434	-0.577237	2.60628	-0.0200099	0.0569557	0.0234766	-0.807129	0.486572	-0.278809	0.737775	-0.297452	-0.229396	-0.560882	7.38049	-2.324	7.60376	0.023981	0.0321467	0.0647784	-0.517334	0.595459	-0.676514	0.364369	-0.473129	-0.800606	-0.0491287	5.85344	-3.05502	-6.65362	0.0817125	0.0904436	-0.119095	-0.740723	0.56958	0.517822	0.485869	-0.565323	-0.472418	-0.470278	9.88771	0.846691	0.0144853	-0.480806	0.0617705	-0.0586134	-0.898682	0.535156	0.114746	0.529441	-0.513325	-0.575025	-0.354309	9.68502	0.7906	-1.39399	-0.900311	-0.0828097	-0.017394	-0.990479	0.609131	0.0786133	
2	0.737539	0.0866283	0.11484	-0.659806	-2.57819	-0.635943	10.6966	-0.105961	-0.0222841	0.0640791	0.301758	0.417725	-0.849609	0.54473	-0.477725	-0.461571	-0.51186	9.84207	-0.254885	1.32494	-0.0650905	0.0548959	0.0441386	-0.741455	0.360596	-0.0927734	0.843392	0.14642	0.211305	-0.471807	-4.35421	0.796091	10.0882	-0.0752909	0.0634864	0.000795292	0.538086	0.201416	-0.72998	0.100929	0.0431513	0.621477	-0.775705	-1.88889	-9.39077	2.24433	-0.0491999	-0.0547652	-0.0849105	-0.204834	0.990479	-0.193359	0.546452	0.0960232	0.285983	-0.78127	-4.26751	-3.4118	8.00984	-0.0710303	-0.00655849	-0.0438453	0.260986	0.659668	-0.654541	0.841731	0.532544	0.0797092	0.0391556	-3.06306	8.26744	7.97224	0.0406781	0.054189	-0.0742856	0.698242	-0.738037	-0.227539	0.627145	-0.41902	-0.446608	-0.481302	9.47	-1.29495	2.74059	-0.0436491	0.0839368	-0.0254828	-0.79834	0.484375	-0.280762	0.739556	-0.295564	-0.230672	-0.559007	7.666	-1.72461	7.85416	0.148569	0.0255422	0.0301624	-0.51709	0.591064	-0.678711	0.367546	-0.470576	-0.800694	-0.0485572	6.14704	-2.52605	-6.82266	0.111805	0.110768	-0.0778109	-0.743164	0.571777	0.52002	0.473386	-0.575042	-0.461552	-0.481874	9.35004	-3.28461	-1.54513	-0.247437	0.0183089	0.0125235	-0.900391	0.526367	0.133057	0.517478	-0.525289	-0.568165	-0.365345	9.38937	-3.28552	-2.08771	-0.639407	-0.0526145	0.00947021	-0.988037	0.606934	0.10376	
3	0.737863	0.0861859	0.115354	-0.659411	-2.41252	-0.772321	10.6548	-0.0576253	0.00474176	0.0319447	0.301758	0.417725	-0.847412	0.545011	-0.478129	-0.460807	-0.511871	9.56837	-0.603042	0.917071	-0.0431665	0.0413786	0.0373254	-0.741455	0.362793	-0.0930176	0.84256	0.146239	0.214141	-0.47207	-4.34004	0.569807	9.47764	-0.0517197	0.101616	-0.0421498	0.544434	0.203613	-0.723389	0.0999401	0.0415412	0.622164	-0.77537	-1.54405	-9.05587	2.26548	-0.0407924	0.00293917	-0.0580635	-0.206787	0.986084	-0.193359	0.546407	0.0956	0.286523	-0.781156	-4.39372	-3.37425	8.18551	-0.05605	0.00776149	-0.0235154	0.267334	0.661865	-0.652344	0.841398	0.532837	0.0813831	0.0388835	-3.03269	8.47646	7.98617	0.0266404	0.0582564	-0.0487334	0.70459	-0.733643	-0.223389	0.62696	-0.41917	-0.446166	-0.481824	9.40819	-1.33439	2.5573	-0.0368709	0.042775	-0.0284816	-0.79834	0.484375	-0.287354	0.740081	-0.294894	-0.230687	-0.558661	7.8208	-1.09652	7.79628	0.0634935	0.0544193	0.0147641	-0.515137	0.593262	-0.685791	0.369021	-0.470066	-0.800325	-0.0483925	6.16752	-2.25101	-6.95341	0.0806334	0.111828	-0.0303937	-0.745361	0.571777	0.506592	0.473386	-0.575042	-0.461552	-0.481874	9.35004	-3.28461	-1.54513	-0.247437	0.0183089	0.0125235	-0.900391	0.526367	0.133057	0.516553	-0.526144	-0.567512	-0.366438	9.77621	-3.53901	-1.39128	0.0909888	0.0405683	-0.0168354	-0.98999	0.602539	0.10376	
4	0.737237	0.0867121	0.11629	-0.659878	-2.39998	-0.592773	10.7138	0.0186765	0.053242	-0.0501819	0.308105	0.419922	-0.843018	0.544645	-0.478725	-0.46148	-0.511098	9.73971	-0.629257	1.17652	0.00142097	0.00637971	-0.0274547	-0.743652	0.360596	-0.0905762	0.841978	0.147248	0.214851	-0.472472	-4.44106	0.563913	9.38494	0.0432167	0.0333492	-0.0116997	0.546631	0.203369	-0.720947	0.099058	0.0418637	0.622752	-0.774994	-1.56426	-9.2379	1.97366	-0.016508	0.0533147	0.000735109	-0.213623	0.992432	-0.186768	0.546187	0.0960195	0.287699	-0.780826	-4.57787	-3.52211	8.21998	-0.0286198	0.0669879	-0.0072611	0.267334	0.661865	-0.652344	0.840841	0.533541	0.0822199	0.0394967	-3.10944	8.56882	7.69295	0.0587062	0.0382328	0.00590227	0.702393	-0.733643	-0.221191	0.62759	-0.418604	-0.44606	-0.481593	9.7296	-1.20849	2.37729	0.0919386	0.0631329	0.000208638	-0.800537	0.484375	-0.282959	0.740034	-0.295528	-0.227302	-0.559774	7.70523	-1.76169	7.59951	-0.137481	0.143832	-0.0181086	-0.508789	0.593506	-0.692871	0.370774	-0.470801	-0.798991	-0.0498525	5.84129	-2.31865	-6.89251	-0.0655508	0.109618	0.0171645	-0.743164	0.572021	0.504395	0.484655	-0.56653	-0.469274	-0.473218	9.52204	-1.34154	-0.862263	0.823985	0.0181166	0.033119	-0.90332	0.539307	0.116699	0.526232	-0.515955	-0.573953	-0.356997	9.45325	-1.12783	-2.13141	0.831788	0.0313352	-0.0454276	-0.99707	0.609131	0.083252	
5	0.736185	0.0892087	0.117622	-0.660484	-2.65696	0.110645	10.948	0.0362841	0.117838	-0.0227681	0.30835	0.417725	-0.847412	0.544391	-0.477888	-0.463716	-0.510126	10.0561	-0.57868	1.30252	0.0973777	-0.0344457	-0.0659068	-0.743652	0.36499	-0.0952148	0.841983	0.147628	0.214348	-0.472573	-4.45709	0.697442	9.61266	0.0479017	-0.0138182	0.00652631	0.540283	0.197021	-0.720947	0.0990836	0.043211	0.623302	-0.774474	-1.73535	-9.34977	1.95884	-0.0156858	0.0481727	0.0421246	-0.209229	0.992676	-0.188965	0.546232	0.0980763	0.288698	-0.78017	-4.66501	-3.54701	7.91302	0.0187728	0.0905236	0.0288809	0.269531	0.661865	-0.647705	0.840626	0.533901	0.0813137	0.0410607	-3.10192	8.70317	7.57823	0.010041	0.00432349	0.0683671	0.700439	-0.740234	-0.216553	0.629678	-0.416178	-0.445815	-0.481197	9.80707	-1.22447	2.55895	0.09375	0.109011	-0.00253911	-0.794189	0.484619	-0.293701	0.739515	-0.295145	-0.224293	-0.561871	7.47822	-1.96614	7.43777	-0.0556733	0.132983	-0.0796568	-0.506592	0.595703	-0.688232	0.372221	-0.47241	-0.797249	-0.0517137	5.56086	-2.49277	-6.88331	-0.0392165	0.11425	0.0442428	-0.747559	0.56958	0.506592	0.490401	-0.561554	-0.473934	-0.468562	9.85457	-0.590278	-0.605834	0.14518	0.0237282	0.00981221	-0.898682	0.537354	0.103271	0.53234	-0.509111	-0.578274	-0.35074	9.89394	-1.97224	-1.82813	0.379503	0.0334104	-0.0124	-0.992676	0.611328	0.0695801	
6	0.736812	0.0905737	0.119872	-0.659193	-3.05413	-0.0536052	11.1072	-0.043105	0.0864566	0.0740036	0.317139	0.417969	-0.845215	0.545562	-0.476223	-0.463726	-0.510423	10.073	-0.389141	1.15959	0.038481	0.0797993	-0.0180045	-0.741455	0.360596	-0.0998535	0.842558	0.148056	0.21241	-0.472289	-4.4791	0.664201	10.253	0.00636904	-0.0162248	0.034658	0.54248	0.199219	-0.725586	0.0992286	0.0436033	0.623065	-0.774624	-1.78391	-9.75712	2.26018	0.013382	0.00678179	0.0132889	-0.207031	0.990479	-0.188965	0.546836	0.099413	0.288655	-0.779593	-4.54113	-3.38038	7.82146	0.0225937	0.0247868	0.0292688	0.276611	0.653076	-0.649902	0.840587	0.533916	0.0806643	0.0429075	-2.93666	8.69362	7.77481	0.00589882	0.0342413	0.0504064	0.702637	-0.742188	-0.210205	0.629442	-0.416135	-0.445948	-0.48142	9.79195	-0.758092	2.32129	-0.0117138	-0.0086817	-0.0426255	-0.800537	0.484619	-0.295654	0.738792	-0.293507	-0.223708	-0.563911	7.66859	-1.65401	7.48662	0.0267405	0.0716334	-0.100436	-0.502441	0.599854	-0.690674	0.373239	-0.4742	-0.795569	-0.0538342	5.55769	-2.47806	-7.05709	-0.085381	0.102905	0.0382166	-0.748047	0.576416	0.504395	0.495688	-0.558066	-0.477724	-0.463287	9.63743	-1.54875	-1.00222	0.469595	-0.0170651	0.0547517	-0.898926	0.539551	0.0939941	0.541343	-0.498967	-0.584662	-0.340807	9.61851	-1.16678	-2.07523	0.733292	0.0200221	-0.039086	-0.990479	0.613525	0.0466309	
7	0.737506	0.0908307	0.120599	-0.658248	-3.19586	-0.386001	11.037	-0.0357059	0.0542963	0.0879802	0.319336	0.420166	-0.843018	0.547089	-0.474614	-0.464167	-0.509886	9.94611	-0.59291	1.04571	0.0876614	0.0422919	-0.0189308	-0.743408	0.358398	-0.102051	0.842893	0.148022	0.212244	-0.471777	-4.31713	0.676455	10.1806	-0.00715568	-0.00485557	0.0492528	0.544678	0.197021	-0.723145	0.0996385	0.043557	0.623159	-0.774498	-1.88408	-9.76882	2.30354	-0.0151395	-0.0132114	0.0267699	-0.209229	0.990479	-0.188965	0.548459	0.099048	0.289455	-0.778202	-4.71961	-3.27716	7.97883	-0.081117	-0.00447476	0.0725358	0.27417	0.659668	-0.649902	0.840502	0.533782	0.0814812	0.0446527	-2.88368	8.79708	7.83809	0.00936899	0.0831157	0.0233907	0.69873	-0.746582	-0.212158	0.628948	-0.416633	-0.445982	-0.481604	9.90217	-0.988749	2.5443	-0.0352674	-0.0175723	-0.0271649	-0.800781	0.48877	-0.287354	0.737391	-0.292836	-0.222443	-0.566588	7.49541	-2.09958	7.66454	-0.0659393	0.0990735	-0.131751	-0.510742	0.591309	-0.695068	0.373579	-0.476855	-0.793661	-0.0561358	5.88878	-2.44584	-6.75374	-0.138533	0.0768383	0.0704328	-0.75	0.571777	0.504395	0.501426	-0.552232	-0.483695	-0.457876	9.89961	0.514962	-0.714007	0.40045	-0.00967147	-0.0578471	-0.898926	0.541748	0.0803223	0.546756	-0.491464	-0.589942	-0.3339	10.0354	0.293167	-1.91693	0.385309	-0.00562946	-0.0559543	-0.996826	0.602539	0.0332031	
8	0.739547	0.0907726	0.120242	-0.656028	-2.7569	0.0740436	10.8542	-0.0276448	-0.0221838	0.0944212	0.319092	0.420166	-0.834229	0.548216	-0.473693	-0.465042	-0.508734	10.0291	-0.597356	1.19893	0.0603157	0.0189805	0.0081263	-0.748047	0.362793	-0.106934	0.844361	0.148235	0.213557	-0.46848	-4.42772	0.864495	10.2844	-0.059917	0.0765043	0.0969454	0.544678	0.194824	-0.718506	0.101966	0.0411264	0.624302	-0.773407	-2.04515	-9.68208	2.26814	-0.0614746	-0.106552	-0.0107313	-0.211182	0.988037	-0.182373	0.549925	0.0986766	0.290593	-0.776789	-4.49689	-3.20694	8.02915	-0.0665536	0.00621101	0.0616548	0.280518	0.661865	-0.649902	0.840024	0.534141	0.083064	0.0464053	-2.76898	8.59983	7.86344	0.0371415	0.09731	0.00661056	0.694092	-0.740234	-0.208008	0.631714	-0.413701	-0.446954	-0.479605	9.54572	-0.748372	2.53183	0.135178	0.0542142	0.0105172	-0.79834	0.482422	-0.297852	0.735737	-0.29274	-0.221443	-0.569173	6.86941	-2.81214	7.51483	-0.0376312	0.055053	-0.0944458	-0.508789	0.593262	-0.685791	0.372818	-0.479037	-0.792495	-0.0590058	5.63774	-2.99025	-6.39836	-0.11368	0.0421234	-0.00225891	-0.75708	0.573975	0.510986	0.500232	-0.552573	-0.484261	-0.458172	9.61294	0.550299	-0.725438	-0.138827	-0.0326812	-0.0303192	-0.900879	0.534912	0.0849609	0.544957	-0.493265	-0.588564	-0.336607	9.62733	0.269614	-2.08644	-0.336469	0.0336653	-0.00585929	-0.999268	0.609131	0.0263672	
9	0.741445	0.0895287	0.121007	-0.653912	-2.65239	-0.215691	10.7249	-0.0727904	-0.0127702	0.103005	0.321533	0.415771	-0.84082	0.549517	-0.473781	-0.463755	-0.508423	9.75122	0.0117259	1.28602	-0.0290192	0.101358	0.0528534	-0.741455	0.36499	-0.104736	0.844954	0.148005	0.216825	-0.465976	-4.58146	0.801893	9.89646	-0.0930784	0.138942	0.0671116	0.553467	0.192383	-0.713867	0.103114	0.03808	0.625691	-0.772288	-1.89071	-9.40694	2.1632	-0.114009	-0.103581	-0.0443435	-0.207031	0.990234	-0.175781	0.550835	0.0980357	0.292203	-0.775621	-4.15302	-3.20196	7.8395	-0.0691542	0.00886978	0.0152958	0.282715	0.664062	-0.63623	0.839366	0.53474	0.0852317	0.0474661	-2.81949	8.47811	7.89262	0.0609716	0.103139	-0.0399416	0.696533	-0.746582	-0.205811	0.631278	-0.41417	-0.448566	-0.478267	9.54889	-0.0982889	2.40646	0.0126274	-0.0856644	-0.00584077	-0.80249	0.478027	-0.295654	0.736157	-0.29223	-0.222095	-0.568638	7.06762	-2.26677	7.59576	0.06274	0.00707767	0.0168951	-0.512939	0.591309	-0.69043	0.372861	-0.477447	-0.793367	-0.0598898	5.74016	-2.92105	-6.53642	0.0446956	0.0146913	-0.123068	-0.752197	0.56958	0.504395	0.491529	-0.559597	-0.477985	-0.465597	9.85095	-0.978778	-0.970392	-0.788987	0.0228973	-0.0295683	-0.896484	0.535156	0.0964355	0.534596	-0.504966	-0.580752	-0.349202	9.86956	-2.43573	-1.13389	-0.903279	0.0272033	0.0188269	-0.992676	0.609131	0.0605469	
10	0.742547	0.0884575	0.121938	-0.652634	-2.62359	-0.885696	10.5904	-0.048066	-0.0045208	0.0340493	0.319336	0.417969	-0.843018	0.550733	-0.474026	-0.461595	-0.508844	9.58938	0.00945778	1.00769	-0.0365579	0.0799082	0.0519847	-0.741455	0.36499	-0.104736	0.844796	0.14815	0.22109	-0.464209	-4.5769	0.849446	9.31191	-0.0803361	0.167362	0.0168433	0.55542	0.198975	-0.711914	0.102922	0.0355308	0.627453	-0.771004	-1.91865	-9.12422	1.91915	-0.0870151	-0.0356454	-0.0662656	-0.216064	0.994629	-0.175781	0.551023	0.0964751	0.29327	-0.77528	-4.22958	-3.10086	8.04585	-0.0723031	-0.0220457	-0.0157526	0.271729	0.664062	-0.645508	0.838294	0.536009	0.0878955	0.0472342	-2.84606	8.28239	7.82744	0.0908149	0.0830327	-0.0750765	0.702637	-0.73999	-0.199463	0.629342	-0.416616	-0.449103	-0.47819	9.78942	-1.01661	2.62673	-0.0961628	-0.0912374	-0.0255707	-0.804932	0.484375	-0.293701	0.736998	-0.291592	-0.224038	-0.567111	7.71767	-1.60926	7.66424	0.0923898	-0.0331943	0.0113452	-0.506592	0.593506	-0.692871	0.373782	-0.475204	-0.794306	-0.059543	6.0103	-2.54334	-6.77906	0.0658879	0.0285338	-0.0881858	-0.759033	0.564941	0.502197	0.490804	-0.562048	-0.475719	-0.46573	9.16456	-3.57135	-1.37741	0.368788	-0.0168514	0.0845134	-0.898682	0.535156	0.103271	0.537336	-0.503143	-0.580898	-0.347383	9.10355	-2.16933	-1.81725	0.455183	0.0497282	-0.0108371	-0.995117	0.613525	0.0466309	
11	0.741199	0.0898713	0.121872	-0.653984	-2.45345	-0.549444	10.8956	0.095986	0.0566922	-0.105087	0.325928	0.420166	-0.838623	0.550617	-0.474336	-0.461633	-0.508645	9.6311	-0.477236	1.17126	-0.0139131	-0.0124093	-0.00372238	-0.743652	0.362793	-0.104736	0.84438	0.148525	0.222768	-0.464044	-4.28354	0.847126	9.1446	-0.0336537	0.143913	-0.0166298	0.561768	0.19873	-0.714111	0.102687	0.0348401	0.628621	-0.770115	-1.82842	-8.95911	1.91119	-0.123308	-0.010035	-0.0416393	-0.213623	0.992432	-0.169189	0.550899	0.0964927	0.293348	-0.775336	-4.54072	-3.28678	8.26359	-0.0041652	0.0162194	-0.0219409	0.27832	0.661865	-0.645264	0.837773	0.536736	0.0884885	0.0471297	-2.86132	8.49181	7.75797	0.0854054	0.0422922	-0.0407998	0.700684	-0.742188	-0.199463	0.630704	-0.415229	-0.447573	-0.479036	9.71424	-2.02877	2.57484	0.0620099	0.173716	0.00523626	-0.796387	0.48877	-0.293701	0.737028	-0.291754	-0.22419	-0.566928	7.92586	-1.10969	7.64288	0.00471013	0.00219997	-0.00703051	-0.506348	0.591309	-0.68335	0.3743	-0.475033	-0.794179	-0.0593598	6.20093	-2.45207	-6.85549	0.0361197	0.0399609	-0.0191145	-0.759277	0.567139	0.5	0.494748	-0.558228	-0.479161	-0.462613	9.70704	-0.133033	-0.171052	0.575061	0.0324175	-0.0275104	-0.898926	0.541748	0.0939941	0.539464	-0.500757	-0.582139	-0.34545	9.80513	-0.263236	-1.4908	0.313807	0.0413836	-0.0235562	-1.00171	0.609131	0.0444336	
12	0.739962	0.0911233	0.121679	-0.655245	-2.71472	0.111973	10.9199	0.107605	0.0545628	-0.127792	0.317139	0.415771	-0.844971	0.550193	-0.473395	-0.462769	-0.508949	10.2385	-1.14862	1.22768	0.0300205	0.0218281	-0.0875687	-0.741455	0.362793	-0.104736	0.843867	0.149791	0.222384	-0.464754	-4.68501	0.626648	9.3561	0.0956052	-0.0392857	-0.0123367	0.557617	0.19873	-0.707275	0.10248	0.036239	0.629681	-0.769212	-1.56126	-9.27116	1.83095	-0.00432268	0.0905442	0.0600207	-0.213623	0.990234	-0.166992	0.550804	0.0969786	0.293242	-0.775383	-4.6193	-3.15857	8.18515	0.0273164	0.0358594	-0.00867744	0.280518	0.664062	-0.645264	0.837426	0.537266	0.088471	0.0472859	-2.85879	8.67766	7.72733	0.0272841	0.00561918	-0.00341129	0.702881	-0.742188	-0.199463	0.632275	-0.413307	-0.447542	-0.478655	9.76362	-1.60714	2.5075	0.173941	0.133788	-0.00445716	-0.796143	0.482422	-0.300049	0.736166	-0.293309	-0.222207	-0.568026	7.17125	-2.51854	7.77878	-0.104191	0.0466214	-0.0432093	-0.508789	0.593506	-0.688232	0.374969	-0.476438	-0.793018	-0.0593959	5.99858	-2.68067	-6.52934	-0.0353487	0.0428791	0.0483368	-0.754639	0.571777	0.499756	0.49502	-0.557137	-0.479962	-0.462806	9.74309	-0.0420337	-0.634986	-0.102467	0.0179199	-0.0175742	-0.896484	0.532959	0.0942383	0.540009	-0.50006	-0.582602	-0.344827	9.96577	-0.104627	-1.36097	0.095703	0.0078357	-0.0120549	-0.999268	0.604736	0.0490723	
13	0.738898	0.0918316	0.122347	-0.656222	-2.7369	0.294136	10.7364	-0.0223799	0.0468677	-0.0169249	0.32373	0.417969	-0.838623	0.550564	-0.471778	-0.462782	-0.510037	9.62794	-0.207723	1.16982	0.00922312	0.067641	-0.0460182	-0.741455	0.364746	-0.116455	0.843651	0.150933	0.218972	-0.466394	-4.491	0.851752	10.1543	0.104889	-0.0830545	-0.0396622	0.55127	0.19043	-0.71167	0.10218	0.0387391	0.629425	-0.769339	-1.95325	-9.39294	1.9592	0.00982811	0.0785664	0.0419712	-0.209229	0.992432	-0.175781	0.549329	0.0989309	0.294861	-0.775569	-4.45911	-3.49126	7.90015	0.00252572	0.104693	-0.0346883	0.284668	0.664062	-0.643066	0.837225	0.537754	0.0872635	0.0475402	-3.01085	8.47697	7.53262	0.0233079	-0.0422613	0.0303525	0.702881	-0.742188	-0.20166	0.632582	-0.41213	-0.447913	-0.478919	9.62504	-0.184503	2.56543	-0.0366767	0.0311302	-0.0448905	-0.79834	0.484619	-0.291504	0.736385	-0.293752	-0.222755	-0.567298	7.17693	-2.23254	7.70194	0.0328744	-0.0209906	0.0278115	-0.512939	0.591309	-0.687988	0.375802	-0.476359	-0.792714	-0.0588216	5.98392	-2.88419	-6.53947	0.084192	0.0263671	-0.0237481	-0.75	0.567383	0.497803	0.491782	-0.559994	-0.477259	-0.465597	9.808	-0.999707	-0.645233	-0.208962	0.0151889	-0.0069777	-0.898438	0.530762	0.098877	0.535994	-0.504536	-0.580436	-0.348206	9.75875	-0.757629	-1.77759	-0.340936	-0.0234617	-0.0124267	-0.999268	0.604736	0.0515137	
14	0.739873	0.0918038	0.123812	-0.654851	-3.08156	-0.370626	10.8592	-0.045314	0.0154181	0.0682683	0.321533	0.417969	-0.84082	0.550749	-0.471359	-0.462575	-0.510413	9.84792	-0.161681	1.27806	-0.0101325	0.0283417	-0.0190487	-0.743652	0.362793	-0.106934	0.843435	0.150365	0.218827	-0.467035	-4.53144	0.711079	10.2075	-0.0359485	0.0164672	-0.0155333	0.553223	0.19458	-0.713867	0.101463	0.0388868	0.628657	-0.770054	-1.84733	-9.57258	2.20215	0.0472286	0.0135324	-0.0347067	-0.206787	0.988037	-0.171387	0.548924	0.0997161	0.295037	-0.775688	-4.52721	-3.47173	7.66395	0.0276924	0.0732206	-0.026623	0.289307	0.661865	-0.643066	0.837611	0.537318	0.0860394	0.0478958	-2.87492	8.54269	7.67491	-0.0167179	-0.0122777	0.00892994	0.69873	-0.746582	-0.203613	0.632371	-0.412557	-0.447186	-0.479509	9.50953	-0.83338	2.55479	0.00183152	0.0229429	-0.0214169	-0.805176	0.490967	-0.298096	0.737387	-0.293768	-0.223155	-0.565829	7.75332	-2.05185	7.83669	0.0387632	0.00768514	0.0374505	-0.508545	0.589111	-0.687988	0.377055	-0.475111	-0.792969	-0.0574452	6.26557	-2.45334	-6.70438	0.0709538	0.0270108	-0.0457013	-0.752441	0.571777	0.502197	0.489803	-0.562243	-0.474836	-0.467447	9.55391	-3.10592	-1.28562	-0.0509283	0.0154434	0.0590329	-0.898682	0.535156	0.105469	0.535189	-0.505984	-0.57925	-0.349317	9.44653	-3.09658	-1.99237	0.117452	0.0284627	0.0210239	-0.997314	0.613525	0.0581055	
15	0.740275	0.0915168	0.123891	-0.654423	-2.8754	-0.550663	10.8194	-0.0268371	-0.012692	0.041897	0.316895	0.420166	-0.838623	0.551044	-0.471679	-0.461775	-0.510523	9.96694	-0.729016	1.23043	-0.00818227	0.0345776	0.00704867	-0.748047	0.362793	-0.114014	0.843201	0.150773	0.220333	-0.466618	-4.32654	0.68355	9.75333	0.00531591	0.0635249	0.0114532	0.553223	0.19458	-0.713867	0.101003	0.0380644	0.629275	-0.769651	-1.78419	-9.51269	2.1305	-0.0513522	-0.00206892	-0.0161094	-0.20459	0.98584	-0.171387	0.549116	0.0999231	0.294951	-0.775558	-4.82157	-3.22187	7.92018	-0.0301789	-0.00705464	-7.02277e-05	0.284668	0.66626	-0.640869	0.837447	0.537463	0.0865305	0.0482603	-2.75067	8.88064	7.79547	0.0135669	0.0430492	-0.0179876	0.705322	-0.748779	-0.201416	0.631955	-0.412636	-0.446531	-0.480597	10.0611	-1.70034	2.77481	-0.0429913	0.0643186	-0.0224164	-0.796143	0.482422	-0.300049	0.737888	-0.292899	-0.222626	-0.565835	8.02448	-1.38698	7.75882	0.0205704	0.0513581	0.000967263	-0.502441	0.600098	-0.692871	0.379116	-0.474578	-0.79234	-0.0569586	6.2339	-2.02529	-6.76439	0.0405606	0.0940994	0.0031748	-0.750488	0.581055	0.490723	0.493435	-0.559325	-0.478312	-0.463568	9.76427	-0.959068	-0.793889	0.266572	-0.0100964	-0.00873703	-0.89209	0.537354	0.0964355	0.538226	-0.502539	-0.580869	-0.346928	9.71363	-1.42351	-1.99942	0.227018	0.0424592	-0.0275062	-0.99292	0.613525	0.0512695	
16	0.739087	0.0927357	0.124127	-0.655548	-2.82872	0.203657	10.942	0.0239654	0.0308935	-0.0473947	0.328125	0.417969	-0.838623	0.551904	-0.470517	-0.462238	-0.510247	10.1119	-0.931042	1.24616	0.0657171	0.0487456	-0.033238	-0.745605	0.354004	-0.111328	0.843528	0.151495	0.220353	-0.465783	-4.52432	0.812179	9.95904	0.0151645	0.0200363	0.0409005	0.55542	0.196777	-0.714111	0.101396	0.0379888	0.629527	-0.769397	-1.85307	-9.47225	1.946	-0.0157925	-0.00641837	0.0117167	-0.218262	0.992432	-0.171387	0.549486	0.0994535	0.29588	-0.775003	-4.87288	-3.63191	8.09302	-0.0257752	0.0165758	-0.000740873	0.29126	0.66626	-0.643066	0.837398	0.537264	0.0876583	0.0492705	-3.01368	8.81354	7.58847	0.00905424	0.0631942	0.00413627	0.698486	-0.742188	-0.199463	0.634277	-0.410517	-0.446609	-0.479281	9.85174	-1.0427	2.46535	0.189775	0.0531583	0.0199798	-0.795898	0.478027	-0.304199	0.737004	-0.293309	-0.220797	-0.567488	7.15705	-2.32984	7.68512	-0.0707244	0.0714001	-0.0717428	-0.504395	0.591309	-0.69043	0.379753	-0.476242	-0.790811	-0.0599913	5.89762	-2.68308	-6.52298	-0.134152	0.104881	0.00680479	-0.761719	0.573975	0.497559	0.494959	-0.557594	-0.480618	-0.46164	9.68886	0.186722	-0.612087	0.0589366	-0.00333316	-0.00824936	-0.901367	0.543701	0.0961914	0.539416	-0.501018	-0.581485	-0.346247	9.65096	-0.245042	-1.79624	-0.0400318	0.0290585	-0.00799559	-0.994873	0.606934	0.0422363	
17	0.739884	0.0927186	0.125362	-0.654416	-2.91482	0.0933931	10.7797	-0.0405678	0.0352661	0.0486914	0.325928	0.417969	-0.838623	0.553153	-0.469218	-0.462287	-0.510046	9.74446	-0.0498655	1.24317	0.0386988	0.048941	0.000633025	-0.741455	0.360352	-0.123535	0.844044	0.151382	0.220539	-0.464797	-4.53142	0.646681	10.1694	-0.0153453	0.0440922	0.0426038	0.562012	0.187988	-0.711426	0.102313	0.0366207	0.630168	-0.768817	-1.78179	-9.72221	2.17358	-0.0499445	-0.0612215	-0.0104277	-0.211426	0.992432	-0.171387	0.549675	0.10022	0.297207	-0.774262	-4.4728	-3.49164	7.99888	-0.0347032	0.0575395	0.0189225	0.282227	0.670654	-0.640869	0.836879	0.53789	0.0880407	0.0505632	-3.14708	8.61066	7.73856	0.040968	0.0490017	0.0234961	0.696289	-0.742188	-0.197266	0.63531	-0.409347	-0.44751	-0.47807	9.62479	-0.352876	2.50697	0.091395	0.00571805	0.00726143	-0.793945	0.478027	-0.302002	0.7369	-0.293418	-0.220368	-0.567734	7.08403	-2.44245	7.61581	-0.00500312	0.0250293	0.000453254	-0.510742	0.591309	-0.699707	0.381562	-0.475321	-0.790421	-0.0609543	5.94608	-2.90622	-6.41165	0.0775084	0.0874682	-0.0761345	-0.761719	0.574219	0.48877	0.491262	-0.56109	-0.477038	-0.465052	9.65956	-0.699564	-0.625872	-0.321827	0.0395578	0.0208971	-0.894531	0.539551	0.10083	0.535357	-0.505705	-0.577875	-0.351733	9.54511	-0.92074	-1.82197	-0.428507	0.0341327	0.00357384	-0.994873	0.609131	0.0605469	
18	0.741952	0.0921356	0.126282	-0.651974	-2.9529	-0.57341	10.7112	-0.0603461	-0.00781787	0.112441	0.330322	0.417969	-0.836426	0.553852	-0.469796	-0.461072	-0.509855	9.53155	-0.164683	0.908063	-0.0414856	0.0444555	0.0405507	-0.741455	0.362793	-0.116455	0.844218	0.151575	0.22167	-0.463878	-4.68158	0.728075	9.89535	-0.0463476	0.0982726	0.0580519	0.561768	0.19873	-0.711914	0.102629	0.0357695	0.630613	-0.76845	-1.64106	-9.65462	2.22785	-0.0556012	-0.0552133	-0.0187489	-0.209229	0.992432	-0.166992	0.55108	0.0999647	0.298319	-0.772867	-4.32142	-3.25245	7.66302	-0.0529482	-0.00564237	0.0560312	0.291016	0.670654	-0.63623	0.836592	0.538184	0.0886002	0.0512103	-2.99222	8.45642	7.80135	0.0415771	0.0724942	0.00710424	0.700684	-0.744385	-0.195068	0.634936	-0.410496	-0.446633	-0.478402	9.59016	-0.873609	2.76592	-0.0604415	0.0300182	-0.00360984	-0.79834	0.484619	-0.302246	0.737748	-0.293193	-0.220368	-0.566749	7.34448	-2.19753	7.66018	0.0376768	0.0237068	0.0364005	-0.502197	0.593506	-0.69043	0.383109	-0.47319	-0.79091	-0.0614806	6.13991	-2.7844	-6.46306	0.0340315	0.0613133	-0.105385	-0.766357	0.573975	0.486328	0.488816	-0.563207	-0.474852	-0.467303	9.70558	-0.572006	-0.401484	-0.359688	0.029849	0.000944039	-0.900879	0.535156	0.10791	0.531788	-0.509568	-0.575239	-0.355868	9.63283	-0.635787	-1.51839	-0.57188	0.0161628	0.00360827	-0.994873	0.606934	0.0649414	
19	0.742608	0.091687	0.126349	-0.651278	-2.83461	-0.855193	10.6076	-0.0404401	-0.0225368	0.0687831	0.330322	0.417969	-0.834229	0.55316	-0.471209	-0.461775	-0.508665	9.64303	-0.454214	1.4325	-0.0211074	-0.14533	0.0323915	-0.741455	0.36499	-0.111816	0.844423	0.151808	0.224363	-0.462131	-4.58302	0.69225	9.55154	-0.0580413	0.107484	0.0493125	0.562012	0.194336	-0.707031	0.102975	0.0345898	0.632394	-0.766993	-1.84008	-9.15745	1.78382	-0.0996626	-0.0186579	-0.0153857	-0.213867	0.992432	-0.1604	0.551798	0.099569	0.298498	-0.772337	-4.33	-3.18159	7.82415	-0.0480312	-0.0212691	0.0439389	0.293213	0.670654	-0.634033	0.836191	0.5386	0.0895655	0.0516975	-2.90031	8.3599	7.68198	0.0571548	0.0927579	-0.0191228	0.701172	-0.753174	-0.197021	0.634459	-0.411151	-0.445481	-0.479545	9.68938	-1.33923	2.87708	-0.121203	0.0694204	-0.030417	-0.796387	0.486816	-0.304443	0.738361	-0.292765	-0.22056	-0.566097	7.54334	-1.73395	7.78141	0.0621272	0.0264226	0.0363038	-0.500244	0.5979	-0.695312	0.38391	-0.472207	-0.791106	-0.0615204	6.20814	-2.64967	-6.61033	0.0590776	0.061031	-0.0890042	-0.768555	0.56958	0.481934	0.483773	-0.567625	-0.469941	-0.472145	9.63498	-2.29858	-0.728311	-0.321199	0.0410774	0.0190539	-0.898926	0.539551	0.116943	0.526102	-0.515984	-0.571183	-0.361562	9.4792	-2.47615	-1.55733	-0.312486	-0.0161527	0.0243439	-0.996826	0.604736	0.0810547	
20	0.742717	0.0915862	0.125964	-0.651242	-2.70751	-0.950453	10.5833	0.0144898	-0.030615	0.00787995	0.330322	0.417969	-0.838623	0.552472	-0.472153	-0.462006	-0.508327	9.6521	-0.952789	1.04765	-0.00936882	-0.0178232	-0.0349504	-0.734863	0.360596	-0.109375	0.843786	0.153001	0.226487	-0.461865	-4.54599	0.859799	9.22813	0.00311702	0.104797	-0.00448418	0.562012	0.194336	-0.704834	0.102912	0.0341114	0.633159	-0.766391	-1.87813	-8.99652	1.72421	-0.0823262	-0.0092064	-0.0221764	-0.220703	0.998779	-0.160645	0.552255	0.0993565	0.298639	-0.771983	-4.41571	-3.16387	7.93638	-0.0311299	-0.00699707	0.0243292	0.293213	0.672852	-0.634033	0.835137	0.5398	0.0917987	0.0522956	-2.73185	8.56595	7.56016	0.0398818	0.0311775	-0.00942497	0.696533	-0.744385	-0.192871	0.635005	-0.41046	-0.443794	-0.480977	9.49083	-1.55465	2.65354	0.0460892	0.127529	-0.0236793	-0.79834	0.484619	-0.306396	0.739016	-0.292102	-0.219896	-0.565842	7.63389	-1.55764	7.80332	0.00157629	0.0743363	-0.00766417	-0.502441	0.595703	-0.695312	0.385782	-0.471907	-0.790354	-0.0617809	6.33342	-2.2134	-6.5636	-0.00299313	0.0967707	0.00694082	-0.770752	0.56958	0.477539	0.485434	-0.566492	-0.47066	-0.471083	9.62189	-2.02588	-1.02276	0.231893	0.0252918	0.00439169	-0.905273	0.532715	0.112305	0.52677	-0.515206	-0.572362	-0.35983	9.61259	-1.79062	-1.85779	0.193063	-0.0239348	-0.00761358	-0.994873	0.606934	0.0810547	
21	0.74052	0.0936295	0.125378	-0.653563	-2.69613	0.0450077	10.8902	0.0499694	0.0453596	-0.0774684	0.32373	0.417969	-0.836426	0.552419	-0.469891	-0.464431	-0.508271	10.0466	-0.760809	1.38395	0.0987729	0.0556417	-0.116344	-0.741211	0.358398	-0.114014	0.843398	0.153778	0.225733	-0.462684	-4.66812	0.652961	9.42959	0.0504633	-0.00870121	-0.0226209	0.566406	0.189941	-0.707031	0.10243	0.0350639	0.634374	-0.765407	-1.61298	-9.39027	1.67827	-0.00192805	0.0498222	0.0372543	-0.213867	0.994629	-0.158203	0.551479	0.100976	0.298613	-0.772337	-4.7813	-3.49464	7.86868	0.0926955	0.0540275	-0.029106	0.289062	0.66626	-0.634033	0.835214	0.539726	0.0909845	0.0532498	-3.01823	8.7541	7.38461	0.00289998	-0.00972611	0.0455697	0.700928	-0.748779	-0.192871	0.637626	-0.406277	-0.444448	-0.480456	9.62345	-1.17682	2.83263	0.193451	0.118629	-0.0447364	-0.789551	0.480225	-0.316895	0.738798	-0.292117	-0.217888	-0.566895	7.18368	-2.02985	7.83075	-0.072781	0.0941536	-0.0293073	-0.498047	0.5979	-0.686035	0.387719	-0.472977	-0.788678	-0.0628791	6.20492	-2.45023	-6.32583	-0.0107826	0.118991	0.0280031	-0.768799	0.574219	0.479736	0.489039	-0.562934	-0.474092	-0.46817	9.87958	-0.02799	-0.644785	0.224624	0.0187537	-0.0234369	-0.900879	0.535156	0.0986328	0.528245	-0.513325	-0.574221	-0.357387	9.78683	-0.397962	-1.78487	0.116847	-0.0236203	-0.00751023	-0.990234	0.606934	0.0742188	
22	0.74052	0.0936295	0.125378	-0.653563	-2.69613	0.0450077	10.8902	0.0499694	0.0453596	-0.0774684	0.32373	0.417969	-0.836426	0.552768	-0.467851	-0.464815	-0.509421	10.069	-0.0673896	1.33404	0.00681544	0.0533146	-0.0592418	-0.74585	0.360352	-0.123535	0.843429	0.153973	0.2246	-0.463114	-4.6576	0.575676	9.94055	0.0634427	-0.0676482	-0.00999614	0.564209	0.189941	-0.709229	0.102608	0.0356168	0.63412	-0.765569	-1.60381	-9.50905	1.84738	0.0263837	0.0309744	0.0414671	-0.220215	0.98999	-0.156006	0.55126	0.101512	0.298778	-0.77236	-4.59711	-3.42792	7.89198	0.0142208	0.0539917	-0.0156495	0.29126	0.668457	-0.638428	0.83557	0.539311	0.0895045	0.0543563	-3.15548	8.71344	7.53434	-0.0201563	-0.0190507	0.054351	0.692383	-0.753174	-0.192627	0.638799	-0.403677	-0.443853	-0.481637	9.87876	-0.269983	2.85915	0.0296508	0.119403	-0.0599634	-0.793701	0.47583	-0.323242	0.738929	-0.292165	-0.216991	-0.567044	6.96962	-2.37023	7.80041	0.0212908	0.0343761	0.00119673	-0.493652	0.5979	-0.692871	0.389937	-0.472131	-0.787996	-0.0640668	6.00619	-2.53307	-6.31575	0.0232854	0.114095	-0.0786614	-0.770996	0.574219	0.4729	0.487404	-0.5643	-0.472191	-0.470147	9.67976	-0.478437	-0.764446	-0.249552	0.0394441	0.0144134	-0.896484	0.535156	0.103271	0.527828	-0.514358	-0.574158	-0.356617	9.67356	-0.914716	-1.85045	-0.080726	-0.0255264	0.0366025	-0.999512	0.611328	0.0808105	
23	0.741371	0.0953862	0.12669	-0.652089	-3.13157	-0.0338486	10.795	0.00403969	0.0427434	0.0346328	0.330322	0.417969	-0.838623	0.552867	-0.468229	-0.464398	-0.509348	9.67444	-0.180092	1.44267	-0.0337392	-0.0142188	0.0126122	-0.745605	0.358398	-0.109131	0.843854	0.154668	0.224573	-0.462121	-4.73849	0.862498	10.0387	-0.0243851	0.0787195	0.0411218	0.562012	0.190186	-0.707031	0.102549	0.0350643	0.634098	-0.76562	-1.89644	-9.79659	2.08204	-0.053399	-0.021819	-0.0311878	-0.209473	0.996826	-0.158203	0.552195	0.103005	0.298974	-0.771417	-4.73893	-3.33738	7.79428	0.0271696	0.0224648	0.0521438	0.289062	0.664062	-0.638428	0.835642	0.539254	0.0884582	0.05552	-2.77399	8.73492	7.59286	0.00920815	0.00207241	0.04153	0.692383	-0.753174	-0.194824	0.63766	-0.404946	-0.441759	-0.484001	9.36589	-0.755047	2.75714	-0.171313	0.0531894	-0.0374096	-0.795898	0.47583	-0.319092	0.739409	-0.291174	-0.217467	-0.566746	7.5844	-1.60509	7.87913	0.0426592	0.0403301	-0.0228139	-0.49585	0.595703	-0.692871	0.391997	-0.470362	-0.787887	-0.065817	6.43917	-2.21766	-6.55432	-0.00453147	0.118769	-0.0915304	-0.777588	0.564941	0.470947	0.484298	-0.567702	-0.468797	-0.472651	9.59404	-2.02769	-1.10937	-0.182876	0.00224427	0.0363179	-0.898926	0.539551	0.116943	0.525931	-0.517091	-0.572605	-0.357962	9.5836	-2.08669	-1.84553	-0.106791	-0.00584744	0.0296023	-0.990479	0.609131	0.0878906	
24	0.741551	0.0955107	0.126685	-0.651867	-3.09876	-0.442092	10.7218	0.0183234	-0.00118089	-0.0174019	0.337158	0.416016	-0.842773	0.552696	-0.469107	-0.46398	-0.509106	9.93716	-0.784311	1.41605	-0.0172459	-0.00731251	-0.000626872	-0.745605	0.358398	-0.114014	0.843779	0.155291	0.227104	-0.460809	-4.83358	1.06402	9.7616	-0.0471869	0.114295	0.0224735	0.572754	0.192139	-0.707031	0.102014	0.033824	0.635338	-0.764719	-2.05533	-9.4448	1.71744	-0.0630188	-0.00595613	-0.0496815	-0.216064	0.996582	-0.158203	0.552899	0.103324	0.299695	-0.77059	-4.7863	-3.09398	7.69843	-0.0291499	0.0254178	0.0349551	0.297852	0.664062	-0.640869	0.835316	0.539609	0.0888686	0.0563094	-2.53358	8.82856	7.64223	0.0388527	0.0485527	-0.0096214	0.696777	-0.753174	-0.186279	0.636437	-0.406181	-0.440353	-0.485854	9.81415	-1.63583	2.93658	-0.0760744	0.0399927	-0.0374844	-0.79834	0.480225	-0.319092	0.738663	-0.290521	-0.216595	-0.568384	7.74132	-1.43365	7.87086	-0.0474243	0.0922707	-0.0932617	-0.491455	0.595703	-0.695312	0.393684	-0.47036	-0.786816	-0.0685212	6.5243	-2.18496	-6.64356	-0.0556943	0.125933	-0.0286858	-0.777588	0.564941	0.46875	0.485983	-0.566923	-0.469563	-0.471093	9.5681	-2.17246	-0.892978	0.202474	0.0205498	0.0363972	-0.90332	0.537109	0.110107	0.528928	-0.514802	-0.57372	-0.355047	9.35843	-2.26514	-1.83884	0.311938	0.0254244	0.0207177	-0.99292	0.613525	0.0717773	
25	0.74034	0.0960059	0.126905	-0.653127	-2.90063	-0.145476	10.7145	0.0204894	0.0377289	-0.0771513	0.337158	0.416016	-0.838379	0.55316	-0.468833	-0.462734	-0.509986	9.95195	-0.617336	1.42022	-0.0296084	0.094491	-0.00829774	-0.741211	0.356201	-0.11377	0.843069	0.155819	0.229577	-0.460705	-4.96295	0.951331	9.4744	-0.00787155	0.0860784	-0.0287724	0.570557	0.189941	-0.707031	0.100965	0.0329361	0.637115	-0.763417	-1.8329	-9.51951	1.46208	-0.0897481	0.0273186	-0.0423787	-0.213867	0.992188	-0.156006	0.552664	0.103563	0.300863	-0.770272	-4.9116	-3.2536	7.78441	-0.025666	0.0516875	-0.0223085	0.299805	0.668457	-0.63623	0.834762	0.540287	0.0896428	0.0567996	-2.65956	8.84445	7.39253	0.0466255	0.0385766	-0.0129699	0.688232	-0.755371	-0.192627	0.637308	-0.405369	-0.439648	-0.48603	9.51076	-0.938518	3.00239	0.0551226	0.0519572	0.00412267	-0.791748	0.478027	-0.321045	0.737102	-0.29046	-0.214463	-0.571244	7.01757	-2.15461	7.77769	-0.0918256	0.106226	-0.11722	-0.498047	0.5979	-0.69751	0.393853	-0.472523	-0.785127	-0.0719544	6.19667	-2.59034	-6.39083	-0.157504	0.087575	0.0241549	-0.780273	0.56958	0.466309	0.489451	-0.563596	-0.47205	-0.469005	9.91643	0.750112	-0.0296804	0.0730454	0.0577721	-0.0250954	-0.894531	0.541748	0.10083	0.531766	-0.511972	-0.576837	-0.349812	9.90427	0.516486	-1.48447	0.0748259	-0.081025	0.0239313	-0.990479	0.611328	0.0739746	
26	0.739542	0.096648	0.128174	-0.653688	-3.21917	0.231382	10.777	-0.0363951	0.0483493	-0.0233589	0.339111	0.418213	-0.838379	0.553342	-0.469194	-0.462272	-0.509876	9.68781	-0.0180382	1.44466	-0.0215667	-0.0265478	0.00635215	-0.743408	0.358398	-0.116211	0.84237	0.155787	0.230689	-0.461438	-5.13529	0.980928	9.55412	-0.0241787	0.0424125	-0.0525991	0.574951	0.191895	-0.700195	0.100235	0.0328583	0.637501	-0.763195	-1.7987	-9.52589	1.3769	-0.0357067	0.0440746	-0.0452748	-0.218262	0.992188	-0.151611	0.551978	0.103768	0.301402	-0.770526	-4.75081	-3.35759	7.66181	0.00532264	0.0310078	-0.0492656	0.304199	0.668457	-0.63623	0.83456	0.54054	0.0899963	0.0568027	-2.67278	8.85614	7.33117	0.0398565	0.0307822	-0.0279192	0.701172	-0.755127	-0.181885	0.636437	-0.40655	-0.440387	-0.485515	9.75915	-0.347284	3.03141	-0.0400936	-0.051187	-0.0221564	-0.794189	0.484619	-0.319092	0.735694	-0.290368	-0.214051	-0.573257	6.86744	-2.07253	7.73589	-0.0148647	0.0302875	-0.104377	-0.498047	0.5979	-0.688232	0.393449	-0.474097	-0.784195	-0.0739438	6.08115	-2.67011	-6.29991	-0.0750197	0.0336474	0.0116055	-0.782471	0.567383	0.461914	0.485919	-0.567274	-0.468201	-0.472091	9.6332	-2.17842	-1.50112	-0.266612	-0.00500198	0.0548812	-0.900879	0.537354	0.112305	0.529873	-0.514361	-0.575689	-0.351068	10.0434	-1.2984	-1.79305	-0.266244	-0.0447118	0.0478161	-0.99292	0.613525	0.0808105	
27	0.73918	0.0959002	0.129733	-0.6539	-3.31237	-0.451543	10.7285	-0.0500318	0.021461	-0.0404022	0.334717	0.420166	-0.836426	0.552834	-0.470165	-0.461979	-0.509799	9.8461	-0.00675833	1.50795	-0.0762769	-0.0346219	0.0118288	-0.741455	0.362793	-0.118896	0.841982	0.155256	0.231223	-0.462058	-4.96992	0.940801	9.53509	-0.0381095	0.0231445	-0.0719882	0.572754	0.189941	-0.700195	0.0984357	0.0325877	0.637956	-0.76306	-1.77619	-9.50336	1.41263	-0.0167809	0.0437818	-0.0604004	-0.220459	0.992188	-0.151611	0.55159	0.103592	0.301405	-0.770826	-4.73134	-3.29212	7.71641	0.000590204	0.0043594	-0.0550142	0.304443	0.66626	-0.634033	0.834142	0.541189	0.0904103	0.0561113	-2.81594	8.68141	7.19766	0.0365466	-0.00660374	-0.0459663	0.692383	-0.750977	-0.186279	0.634982	-0.408512	-0.437681	-0.488212	9.61248	-0.827635	2.94594	-0.182911	0.084308	-0.0318071	-0.79834	0.484619	-0.312744	0.735091	-0.290487	-0.214435	-0.573825	7.20235	-2.12333	7.80599	-0.00976071	-0.00171751	-0.0857419	-0.5	0.593506	-0.69751	0.393242	-0.474714	-0.783877	-0.0744566	6.3095	-2.70898	-6.32707	-0.061202	0.0224665	0.01147	-0.782471	0.567139	0.473145	0.486056	-0.567865	-0.46795	-0.471489	9.63078	-2.4277	-1.26563	-0.00284033	-0.0195866	0.0650738	-0.894531	0.541748	0.112305	0.529874	-0.515338	-0.574549	-0.351502	9.49782	-2.44109	-1.96916	0.0643638	0.0477961	0.0224456	-0.990723	0.615723	0.076416	
28	0.738505	0.0957667	0.130113	-0.654607	-3.26986	-0.596857	10.6911	-0.0134944	0.0159129	-0.08301	0.334473	0.422363	-0.836426	0.551906	-0.472187	-0.460419	-0.510346	9.87991	-0.428248	1.54557	-0.106197	0.0165919	0.0176624	-0.743896	0.369141	-0.112061	0.840993	0.154858	0.232481	-0.46336	-4.95047	0.960336	9.47692	-0.00637498	0.047819	-0.0665681	0.568359	0.200684	-0.695801	0.0961027	0.0319592	0.637691	-0.763605	-1.68898	-9.37797	1.50806	0.0366712	0.0510275	-0.0920908	-0.2229	0.998779	-0.151611	0.551343	0.10348	0.301255	-0.771076	-4.75594	-3.3594	7.80485	0.010537	-0.00164756	-0.0416996	0.299805	0.668457	-0.63623	0.834878	0.540306	0.089375	0.0553166	-2.77177	8.68455	7.33161	-0.0493723	-0.0593034	-0.0141044	0.696777	-0.753174	-0.19043	0.634725	-0.409284	-0.436338	-0.4891	9.61308	-1.13919	2.95546	-0.118458	0.0737017	0.00056615	-0.791992	0.484619	-0.312744	0.733848	-0.291498	-0.214249	-0.574972	7.6694	-1.56213	7.85498	-0.0866292	0.0281363	-0.0742118	-0.49585	0.595703	-0.690674	0.393599	-0.476059	-0.782911	-0.0741514	6.63306	-2.49841	-6.45268	0.00729565	0.0332191	0.0654161	-0.777832	0.567139	0.470947	0.488861	-0.566319	-0.469503	-0.468897	9.8143	-1.0676	-0.0839829	0.142443	0.0191194	0.0389412	-0.892334	0.541748	0.107666	0.532589	-0.512973	-0.575747	-0.348888	9.68166	-1.5357	-1.46216	0.166621	0.015959	0.0169299	-0.986084	0.615967	0.076416	
29	0.738505	0.0957667	0.130113	-0.654607	-3.26986	-0.596857	10.6911	-0.0134944	0.0159129	-0.08301	0.334473	0.422363	-0.836426	0.551343	-0.473096	-0.459751	-0.510715	9.79526	-0.692292	1.31872	-0.0464697	-0.00550471	-0.018116	-0.743652	0.36499	-0.107178	0.840438	0.153593	0.232812	-0.464619	-4.95683	1.01689	9.61884	-0.0383681	-0.0259029	-0.0711065	0.574707	0.200684	-0.700439	0.0946879	0.0316949	0.637067	-0.764314	-1.7686	-9.36882	1.4144	0.074915	0.057849	-0.101184	-0.224854	0.98999	-0.158203	0.550813	0.104346	0.299646	-0.771965	-4.96779	-3.35484	7.89886	0.0806626	-0.00183308	-0.0254226	0.293457	0.66626	-0.638428	0.836534	0.538226	0.0864779	0.0551802	-2.81681	8.96357	7.23269	-0.11358	-0.106707	0.0459042	0.688232	-0.755371	-0.194824	0.635268	-0.409246	-0.435558	-0.489123	9.77943	-1.14917	2.73111	0.0648508	0.0561937	-0.00382073	-0.787598	0.480225	-0.314697	0.731951	-0.293188	-0.213002	-0.576991	7.00346	-2.36332	7.77578	-0.10116	0.0123166	-0.0900038	-0.500488	0.604248	-0.688477	0.392943	-0.479452	-0.781058	-0.075302	6.24272	-2.78602	-6.2389	-0.13759	0.028292	0.0992172	-0.780273	0.56958	0.468506	0.490272	-0.56576	-0.469771	-0.467829	9.83256	-0.201474	-0.485167	0.0683115	0.0150757	0.0318242	-0.901367	0.545898	0.109863	0.531857	-0.513945	-0.575397	-0.349151	9.76154	-0.214183	-2.11093	-0.221331	-0.00529235	0.0137793	-0.98877	0.622559	0.0715332	
30	0.738505	0.0957667	0.130113	-0.654607	-3.26986	-0.596857	10.6911	-0.0134944	0.0159129	-0.08301	0.334473	0.422363	-0.836426	0.549862	-0.474694	-0.460123	-0.510494	9.95504	-0.36656	1.31547	-0.0631156	-0.0791845	-0.0196659	-0.741455	0.360596	-0.106934	0.83977	0.150405	0.23305	-0.466747	-4.84327	0.897229	10.1459	-0.105398	-0.0415997	-0.129749	0.570312	0.205078	-0.696045	0.0901208	0.0299253	0.632583	-0.768649	-2.12559	-9.64038	1.54809	0.219149	-0.00120311	-0.16652	-0.237793	0.985596	-0.175781	0.549903	0.107369	0.29615	-0.773546	-4.9926	-3.58595	7.82706	0.130866	0.0167224	-0.0121416	0.29834	0.655518	-0.643066	0.839319	0.534487	0.0821606	0.0558302	-3.17345	8.69238	7.253	-0.213665	-0.128757	0.0913614	0.686035	-0.757568	-0.209717	0.635102	-0.409699	-0.434099	-0.490256	9.76182	-0.459799	2.89676	-0.101404	0.0573391	-0.00924612	-0.79248	0.493164	-0.315186	0.731372	-0.295373	-0.212333	-0.576858	7.24947	-2.65009	7.88531	-0.076306	-0.022108	0.0342645	-0.50708	0.604248	-0.683594	0.393424	-0.480535	-0.780267	-0.0740725	6.4335	-3.09839	-6.33325	0.0983774	0.00580175	0.0281468	-0.773193	0.56958	0.464111	0.486284	-0.569892	-0.466065	-0.470673	9.75681	-0.953044	-0.848732	-0.333529	-0.00339601	0.0460793	-0.894775	0.546143	0.118896	0.526911	-0.519803	-0.571683	-0.354045	9.66452	-1.04547	-1.84907	-0.442094	-0.0150644	0.0374061	-0.990723	0.61792	0.0876465	
31	0.738505	0.0957667	0.130113	-0.654607	-3.26986	-0.596857	10.6911	-0.0134944	0.0159129	-0.08301	0.334473	0.422363	-0.836426	0.548811	-0.476775	-0.460053	-0.509749	9.92174	-0.32199	1.36048	-0.0552672	-0.0687011	0.0281718	-0.737549	0.375977	-0.102783	0.838632	0.14685	0.235921	-0.46848	-4.74987	0.665949	10.1648	-0.149508	0.0337609	-0.129763	0.572266	0.220215	-0.691895	0.0862628	0.0252582	0.627753	-0.773206	-1.56677	-9.7418	2.10406	0.250366	-0.0655245	-0.245599	-0.246582	0.979004	-0.177734	0.550501	0.108442	0.294043	-0.773775	-4.73778	-3.65027	7.89128	0.175653	-0.0340935	0.0571531	0.29834	0.65332	-0.649902	0.842982	0.529347	0.0765403	0.0575731	-2.41809	8.7028	8.10709	-0.255837	-0.139394	0.14612	0.679443	-0.755371	-0.222656	0.63414	-0.411655	-0.432374	-0.491386	9.60255	-0.975982	3.10219	-0.100114	-0.00799408	0.00140535	-0.790039	0.489014	-0.314941	0.732288	-0.296479	-0.212348	-0.57512	7.62301	-2.59172	7.94601	0.0158068	-0.0123548	0.0662521	-0.504883	0.608643	-0.681396	0.395053	-0.479408	-0.780348	-0.0718207	6.72772	-2.52112	-6.2067	0.0842036	0.0233446	-0.0286712	-0.775879	0.576416	0.457275	0.482162	-0.573923	-0.462727	-0.473304	9.73334	-0.858636	-0.733261	-0.283517	-0.0199258	0.0235301	-0.892578	0.550537	0.118896	0.520768	-0.526372	-0.567948	-0.359401	9.79432	-0.234643	-2.04564	-0.362362	-0.053324	0.0107258	-0.990723	0.615723	0.0966797	
32	0.735213	0.0923097	0.128558	-0.659101	-3.23604	-0.148595	10.8547	-0.00699635	-0.0391775	-0.0662081	0.327637	0.428955	-0.838623	0.547934	-0.479204	-0.459668	-0.508761	10.1021	-0.821873	1.25949	-0.0598079	-0.0592734	0.0380932	-0.741699	0.369385	-0.0979004	0.838217	0.145079	0.239087	-0.468168	-4.76382	0.279283	9.8149	-0.0954864	0.0859217	-0.0068275	0.570068	0.222412	-0.685059	0.0838745	0.0212593	0.623938	-0.776669	-1.35044	-9.69155	2.4685	0.189117	-0.0714335	-0.159412	-0.255371	0.981201	-0.182373	0.550501	0.108442	0.294043	-0.773775	-4.73778	-3.65027	7.89128	0.175653	-0.0340935	0.0571531	0.29834	0.65332	-0.649902	0.844769	0.526765	0.0739924	0.0583866	-2.2514	9.0968	8.29384	-0.084634	-0.0349698	0.0176295	0.681885	-0.759766	-0.231201	0.633993	-0.412613	-0.431733	-0.491334	9.98536	-1.54935	2.77679	-0.00203755	0.0226169	0.0134497	-0.790283	0.493164	-0.308838	0.733672	-0.296739	-0.212206	-0.573271	7.40989	-2.17372	7.9424	0.00951106	0.0184831	0.0785119	-0.500488	0.606445	-0.681396	0.396805	-0.477523	-0.780708	-0.070794	6.59052	-2.71729	-6.35114	0.135295	0.0479077	-0.0772354	-0.778076	0.574219	0.455078	0.473995	-0.580275	-0.457276	-0.479071	9.76102	-1.23295	-0.546718	-0.632352	-0.0106725	-0.00605714	-0.890137	0.543945	0.144043	0.510634	-0.536629	-0.56169	-0.368493	9.56689	-1.80025	-1.8443	-0.748562	-0.0475997	0.0374429	-0.98584	0.609375	0.126465	
33	0.735241	0.0892194	0.127582	-0.659685	-2.7633	-0.213754	10.8342	-0.0408294	-0.0754433	-0.0197709	0.321289	0.424561	-0.838623	0.547398	-0.481106	-0.458578	-0.508526	9.96944	-0.621913	1.22285	-0.0747463	0.00372666	0.0298639	-0.741943	0.375977	-0.088623	0.837955	0.144482	0.240724	-0.467982	-4.80587	0.538094	10.1115	-0.100635	0.101509	-0.0272211	0.569824	0.230957	-0.689941	0.0838745	0.0212593	0.623938	-0.776669	-1.35044	-9.69155	2.4685	0.189117	-0.0714335	-0.159412	-0.255371	0.981201	-0.182373	0.550501	0.108442	0.294043	-0.773775	-4.73778	-3.65027	7.89128	0.175653	-0.0340935	0.0571531	0.29834	0.65332	-0.649902	0.845508	0.525775	0.0727187	0.0582107	-2.6718	8.48162	8.06157	-0.0378863	-0.04814	0.00543796	0.679688	-0.759766	-0.229004	0.634321	-0.413076	-0.431294	-0.490908	9.64847	-0.746396	2.91995	-0.00230142	0.00786399	0.0151845	-0.790283	0.493164	-0.312988	0.735754	-0.296709	-0.212219	-0.570607	7.35453	-2.29684	7.79604	0.069692	0.0104623	0.112205	-0.494385	0.61084	-0.683838	0.39904	-0.474351	-0.781587	-0.0698521	6.39655	-2.68958	-6.2829	0.1235	0.0620001	-0.127788	-0.782471	0.571777	0.455078	0.467464	-0.585944	-0.451694	-0.483859	9.55358	-1.64487	-0.997161	-0.395316	0.0256922	0.0253689	-0.891846	0.535156	0.155762	0.502818	-0.544707	-0.556792	-0.374769	9.35401	-2.08049	-2.09343	-0.452575	-0.0504101	0.0498021	-0.988281	0.61377	0.146973	
34	0.735277	0.0884098	0.127375	-0.659793	-2.56862	-0.546585	10.6294	-0.0346611	-0.0570191	-0.0138455	0.318848	0.428711	-0.838867	0.5466	-0.48314	-0.458669	-0.507372	9.59908	-0.466443	1.25449	-0.0179605	-0.156694	0.0211911	-0.737793	0.380371	-0.0888672	0.837955	0.144482	0.240724	-0.467982	-4.80587	0.538094	10.1115	-0.100635	0.101509	-0.0272211	0.569824	0.230957	-0.689941	0.0838745	0.0212593	0.623938	-0.776669	-1.35044	-9.69155	2.4685	0.189117	-0.0714335	-0.159412	-0.255371	0.981201	-0.182373	0.550501	0.108442	0.294043	-0.773775	-4.73778	-3.65027	7.89128	0.175653	-0.0340935	0.0571531	0.29834	0.65332	-0.649902	0.84548	0.525928	0.0719766	0.0581603	-2.58385	8.55675	8.23665	0.0184549	-0.0466454	0.0133945	0.675293	-0.757568	-0.233398	0.634414	-0.413463	-0.431283	-0.490472	9.52755	-0.720908	3.02437	0.0102017	-0.0107127	0.0240466	-0.785889	0.493164	-0.308838	0.737725	-0.296265	-0.212382	-0.568228	7.47749	-1.91826	7.71057	0.0537579	0.0256223	0.0803736	-0.496582	0.61084	-0.690918	0.400439	-0.472579	-0.781986	-0.0694032	6.44546	-2.5938	-6.14132	0.140836	0.0775049	-0.125518	-0.782715	0.574219	0.448486	0.464628	-0.588334	-0.449295	-0.48592	9.47962	-1.66021	-1.26038	-0.388041	0.00712596	0.0144525	-0.89209	0.537354	0.160156	0.499558	-0.548098	-0.554623	-0.377391	9.59157	-1.6384	-2.02732	-0.457688	-0.0367148	0.0394983	-0.979248	0.61377	0.156006	
35	0.735277	0.0884098	0.127375	-0.659793	-2.56862	-0.546585	10.6294	-0.0346611	-0.0570191	-0.0138455	0.318848	0.428711	-0.838867	0.546528	-0.483737	-0.45839	-0.507133	9.95647	-0.599176	1.17992	-0.0358323	-0.0101673	0.0222204	-0.737549	0.375977	-0.0910645	0.836722	0.143497	0.251128	-0.465015	-4.47015	0.00816501	9.2949	-0.100276	0.205273	0.0369279	0.582764	0.230713	-0.67627	0.0838745	0.0212593	0.623938	-0.776669	-1.35044	-9.69155	2.4685	0.189117	-0.0714335	-0.159412	-0.255371	0.981201	-0.182373	0.550501	0.108442	0.294043	-0.773775	-4.73778	-3.65027	7.89128	0.175653	-0.0340935	0.0571531	0.29834	0.65332	-0.649902	0.844892	0.526998	0.0710084	0.0582038	-2.69881	8.44103	8.18578	0.0655423	-0.0212163	0.0111419	0.67334	-0.763916	-0.230957	0.634826	-0.414144	-0.431013	-0.489601	9.41914	-1.61329	2.92793	0.041032	0.00613543	0.0134033	-0.790039	0.489014	-0.306396	0.738352	-0.296203	-0.212199	-0.567514	7.47862	-1.84319	7.58577	0.0249762	0.0306758	0.0556405	-0.494141	0.608643	-0.695557	0.403372	-0.469767	-0.782192	-0.0691835	6.38371	-2.60635	-6.23099	0.108207	0.108809	-0.0884315	-0.789795	0.576416	0.44165	0.461342	-0.591828	-0.446276	-0.487586	9.34256	-2.71501	-1.32677	-0.105175	-0.0239526	0.0502852	-0.88501	0.533203	0.164795	0.497433	-0.55072	-0.552583	-0.379368	9.20703	-2.60637	-2.21196	0.00904763	0.00781467	0.0128595	-0.98584	0.609375	0.158447	
36	0.735277	0.0884098	0.127375	-0.659793	-2.56862	-0.546585	10.6294	-0.0346611	-0.0570191	-0.0138455	0.318848	0.428711	-0.838867	0.546879	-0.484163	-0.458264	-0.506462	9.74026	-0.964737	0.919181	0.00481931	-0.00559468	0.0230683	-0.737793	0.380371	-0.0864258	0.836201	0.145225	0.254431	-0.46362	-4.82818	0.179604	9.2846	-0.0140567	0.159915	0.0355404	0.591309	0.234863	-0.669434	0.0790634	0.00587341	0.622332	-0.778728	-1.06128	-9.35577	2.45507	0.0152789	-0.103099	-0.153638	-0.283691	0.967773	-0.184326	0.550501	0.108442	0.294043	-0.773775	-4.73778	-3.65027	7.89128	0.175653	-0.0340935	0.0571531	0.29834	0.65332	-0.649902	0.844218	0.527996	0.0708189	0.0591632	-2.61131	8.40892	8.11965	0.0546381	0.0400476	0.0333138	0.675537	-0.763916	-0.22876	0.635157	-0.414117	-0.43173	-0.488561	9.55681	-1.5468	2.97557	0.0885847	-0.0426585	0.0264509	-0.790283	0.493164	-0.310791	0.738846	-0.29657	-0.211139	-0.567075	7.37443	-1.68768	7.54868	-0.0583929	0.0480951	0.00625001	-0.485596	0.606689	-0.690918	0.406101	-0.468893	-0.781276	-0.069496	6.26123	-2.42148	-6.29943	0.0118525	0.114723	-0.00712738	-0.789551	0.569824	0.432861	0.46445	-0.58961	-0.449843	-0.484033	9.55117	-1.25986	-0.859097	0.291436	-0.0348292	0.00128306	-0.894531	0.543945	0.160156	0.50082	-0.547253	-0.555229	-0.376052	9.32637	-1.43217	-2.22397	0.286479	0.00425954	-0.0234421	-0.98584	0.607178	0.149414	
37	0.735277	0.0884098	0.127375	-0.659793	-2.56862	-0.546585	10.6294	-0.0346611	-0.0570191	-0.0138455	0.318848	0.428711	-0.838867	0.548983	-0.482195	-0.45733	-0.506907	9.77719	-0.902229	1.00906	0.0531878	0.155706	-0.00392839	-0.73584	0.384521	-0.0959473	0.836081	0.145695	0.255596	-0.463046	-4.80262	0.216505	9.2673	-0.0205242	0.112074	0.0307851	0.59375	0.232666	-0.6604	0.0790634	0.00587341	0.622332	-0.778728	-1.06128	-9.35577	2.45507	0.0152789	-0.103099	-0.153638	-0.283691	0.967773	-0.184326	0.550501	0.108442	0.294043	-0.773775	-4.73778	-3.65027	7.89128	0.175653	-0.0340935	0.0571531	0.29834	0.65332	-0.649902	0.842772	0.529868	0.0720811	0.0614787	-2.71997	8.57991	7.88889	0.11147	0.111677	0.047703	0.675781	-0.768311	-0.222168	0.63728	-0.412907	-0.431889	-0.486677	9.41273	-1.2313	2.78914	0.118657	0.0701947	0.0453875	-0.786133	0.497559	-0.315186	0.738637	-0.29783	-0.209363	-0.567344	6.94984	-2.55128	7.61981	-0.0660393	0.0486878	0.00407577	-0.492432	0.617432	-0.693359	0.407134	-0.469773	-0.780113	-0.0705684	6.28057	-2.90991	-6.15389	-0.028767	0.0623235	0.0117287	-0.789795	0.57666	0.437256	0.46596	-0.588137	-0.452563	-0.481832	9.83629	-0.0922115	-0.920949	0.0326267	-0.0292952	-0.0199633	-0.887451	0.537354	0.157959	0.501564	-0.546086	-0.556918	-0.374253	9.84565	-0.616351	-2.11145	-0.0322596	-0.0308266	-0.0100022	-0.988281	0.61377	0.151611	
38	0.735277	0.0884098	0.127375	-0.659793	-2.56862	-0.546585	10.6294	-0.0346611	-0.0570191	-0.0138455	0.318848	0.428711	-0.838867	0.551248	-0.480512	-0.456392	-0.506892	9.69585	-0.568435	1.02695	0.0607836	0.0942807	0.0202637	-0.735596	0.382324	-0.100586	0.836171	0.146816	0.25835	-0.460997	-4.9626	0.0145323	9.67164	-0.0420392	0.131133	0.0504476	0.595703	0.232666	-0.662598	0.0780181	0.00442158	0.624291	-0.777274	-0.834076	-9.2985	2.38954	-0.0682517	-0.00577171	-0.0420894	-0.28833	0.969971	-0.177734	0.550501	0.108442	0.294043	-0.773775	-4.73778	-3.65027	7.89128	0.175653	-0.0340935	0.0571531	0.29834	0.65332	-0.649902	0.841604	0.531146	0.0737212	0.0644344	-2.62121	8.42093	7.79722	0.0617624	0.125608	0.0548608	0.673828	-0.770508	-0.213623	0.637639	-0.412535	-0.43383	-0.484792	9.69691	-0.796285	3.03554	0.0702129	-0.101744	-0.0118385	-0.790527	0.497559	-0.308838	0.739393	-0.298175	-0.209285	-0.566206	7.10124	-2.29764	7.57967	0.0299633	-0.00301004	0.0438818	-0.492432	0.619629	-0.684082	0.408734	-0.468816	-0.779994	-0.0689688	6.15437	-2.70919	-6.17347	0.131429	0.027558	-0.0277337	-0.796631	0.576416	0.43042	0.464627	-0.58957	-0.452068	-0.481833	9.42363	-1.78726	-0.926212	-0.023388	-0.0237451	0.0254913	-0.894287	0.539551	0.160156	0.501345	-0.546416	-0.556841	-0.37418	9.74447	-1.62011	-2.18399	-0.0192542	-0.0110486	0.0117259	-0.986084	0.615967	0.151367	
39	0.736774	0.0940955	0.137514	-0.655286	-3.17851	-0.884665	10.7411	0.00828119	0.139492	0.0562288	0.342773	0.435547	-0.825684	0.552999	-0.479214	-0.456146	-0.506436	9.72085	-0.688144	1.14991	0.0627818	0.0882674	0.00903022	-0.731201	0.375977	-0.100342	0.836213	0.148021	0.261784	-0.458591	-4.93498	0.0832653	9.36632	-0.0479316	0.154878	0.0889939	0.600098	0.230225	-0.651123	0.0778678	0.00139239	0.626996	-0.77512	-0.736475	-9.49391	2.27168	-0.0986737	-0.0515773	-0.0483647	-0.29248	0.965332	-0.168701	0.551028	0.118033	0.297644	-0.770613	-4.70205	-3.12064	7.85221	0.00787309	0.0517276	0.0235478	0.318115	0.648926	-0.640869	0.840105	0.532853	0.0757217	0.0675018	-2.68251	8.78054	7.81386	0.0987211	0.13921	0.0557266	0.669189	-0.763916	-0.21582	0.637956	-0.412364	-0.4338	-0.484547	9.54799	-1.13693	2.56971	0.0230377	0.0360363	0.000929996	-0.786133	0.499756	-0.313232	0.740471	-0.298591	-0.209933	-0.564335	7.345	-2.36797	7.6944	0.0383978	-0.0177902	0.0599065	-0.483643	0.615234	-0.688721	0.409581	-0.467437	-0.78047	-0.0679227	6.53059	-2.59076	-6.11794	0.0592725	0.00837542	-0.0629629	-0.787598	0.578857	0.426025	0.466279	-0.588475	-0.454015	-0.47974	9.71164	-0.479913	-1.11763	0.102054	-0.0247514	0.00526246	-0.894531	0.546143	0.159912	0.503246	-0.544878	-0.558934	-0.370733	9.76952	-0.705206	-2.29634	0.00934785	-0.0339617	0.0149912	-0.981689	0.618164	0.140137	
40	0.737027	0.0968179	0.139077	-0.654275	-3.21892	-0.277423	10.9857	0.0370837	0.108656	0.0451357	0.349609	0.431152	-0.829834	0.555678	-0.476038	-0.456133	-0.506511	10.1097	-0.974258	1.31687	0.129169	0.158501	-0.037556	-0.73584	0.382324	-0.114746	0.836439	0.148891	0.263013	-0.457192	-5.09328	0.191094	9.27119	-0.0173286	0.133666	0.105962	0.602295	0.232422	-0.653564	0.0778678	0.00139239	0.626996	-0.77512	-0.736475	-9.49391	2.27168	-0.0986737	-0.0515773	-0.0483647	-0.29248	0.965332	-0.168701	0.551028	0.118033	0.297644	-0.770613	-4.70205	-3.12064	7.85221	0.00787309	0.0517276	0.0235478	0.318115	0.648926	-0.640869	0.838902	0.534086	0.0772597	0.0708957	-2.68606	8.86908	7.76927	0.0684551	0.123983	0.0763107	0.671631	-0.772705	-0.202881	0.638853	-0.411778	-0.434117	-0.483577	9.83665	-1.48709	2.87837	0.112579	0.0477538	-0.00086619	-0.786133	0.497559	-0.315186	0.741106	-0.298484	-0.21029	-0.563425	7.2857	-2.3367	7.75873	0.0548746	-0.0043516	0.0535486	-0.490234	0.613037	-0.695557	0.41047	-0.465171	-0.781421	-0.0671668	6.72008	-2.6867	-6.03321	0.0833678	0.0211773	-0.110147	-0.799072	0.578857	0.423828	0.466654	-0.588079	-0.455425	-0.478524	10.0278	-0.588096	-0.51498	0.100338	-0.0153921	-0.0127518	-0.887939	0.546143	0.159912	0.503061	-0.545146	-0.559758	-0.369345	9.66193	-0.648664	-1.88991	0.0369095	-0.0631066	0.00893198	-0.979492	0.615967	0.14917	
41	0.73785	0.0984954	0.141038	-0.652674	-2.80099	-0.0335794	10.8698	-0.0376829	0.129608	0.0807725	0.36084	0.427002	-0.827637	0.559112	-0.471646	-0.454997	-0.507861	10.2538	-0.889723	1.21441	0.0974357	0.226416	-0.0270968	-0.731201	0.37793	-0.126465	0.837654	0.151405	0.263549	-0.453822	-5.55214	0.353736	9.79924	0.0145798	0.0179003	0.112281	0.611084	0.22583	-0.651123	0.0778678	0.00139239	0.626996	-0.77512	-0.736475	-9.49391	2.27168	-0.0986737	-0.0515773	-0.0483647	-0.29248	0.965332	-0.168701	0.551028	0.118033	0.297644	-0.770613	-4.70205	-3.12064	7.85221	0.00787309	0.0517276	0.0235478	0.318115	0.648926	-0.640869	0.837257	0.536204	0.0780443	0.0734487	-2.44966	9.08744	7.86931	0.114822	0.071072	0.0611373	0.66333	-0.776855	-0.196289	0.638842	-0.4109	-0.436089	-0.482564	9.78682	-1.0866	2.82988	0.0675506	-0.0824736	-0.0364083	-0.78833	0.499756	-0.317383	0.744382	-0.297377	-0.210556	-0.559579	7.41256	-3.36556	7.93795	0.114628	0.0395513	0.1463	-0.477295	0.617432	-0.688721	0.412384	-0.460808	-0.782972	-0.0674505	7.07109	-3.32987	-5.65383	0.133292	0.0805118	-0.218244	-0.803467	0.572021	0.421631	0.463021	-0.589344	-0.453293	-0.482504	10.3424	2.07969	-0.305226	-0.497918	0.0631408	-0.0984593	-0.889648	0.537354	0.164795	0.494243	-0.553537	-0.556371	-0.373861	10.2822	1.91085	-1.72492	-0.904865	-0.159537	0.0468858	-0.983643	0.611572	0.181152	
42	0.739582	0.0998289	0.145046	-0.649626	-3.50915	-0.828894	10.702	-0.0872493	0.136962	0.126576	0.362549	0.433594	-0.823486	0.561657	-0.468885	-0.453837	-0.508645	9.68307	-0.272089	1.3659	0.023873	0.136203	-0.0104027	-0.733398	0.37793	-0.131104	0.837998	0.152217	0.263607	-0.452881	-5.67885	0.572593	10.0397	0.03023	0.0453035	0.0927307	0.606689	0.223633	-0.65332	0.0778678	0.00139239	0.626996	-0.77512	-0.736475	-9.49391	2.27168	-0.0986737	-0.0515773	-0.0483647	-0.29248	0.965332	-0.168701	0.551028	0.118033	0.297644	-0.770613	-4.70205	-3.12064	7.85221	0.00787309	0.0517276	0.0235478	0.318115	0.648926	-0.640869	0.836788	0.536784	0.0780367	0.0745626	-2.54771	8.74499	7.72298	0.0625211	0.0528738	0.0658532	0.665771	-0.785645	-0.19165	0.638165	-0.41173	-0.43819	-0.480846	9.95853	-0.754305	2.77023	0.0888948	-0.204552	0.00564148	-0.790283	0.493164	-0.310791	0.746504	-0.296114	-0.211165	-0.557186	7.12414	-3.2915	8.06707	0.195906	0.0222892	0.183001	-0.477295	0.617432	-0.697998	0.414598	-0.457088	-0.784008	-0.0671551	6.96459	-3.41578	-5.6611	0.228981	0.123306	-0.271511	-0.810059	0.565186	0.415039	0.454711	-0.595513	-0.445279	-0.490234	9.82042	-0.236513	-1.41215	-1.20919	0.137028	-0.00398945	-0.89624	0.530762	0.180908	0.485275	-0.562298	-0.550946	-0.380511	9.61	-2.41213	-2.85361	-1.19773	-0.142452	0.0969965	-0.98584	0.609375	0.192627	
43	0.740174	0.100956	0.146751	-0.648394	-3.47775	-1.24603	10.3917	0.00888791	0.0595681	0.0150086	0.371582	0.431396	-0.825439	0.562668	-0.468386	-0.451409	-0.510147	9.5327	0.0287974	1.3828	-0.0438492	0.162838	0.00602118	-0.729248	0.380127	-0.133545	0.837546	0.153663	0.266541	-0.451508	-5.28899	0.46176	9.53225	-0.0155451	0.141959	0.0356898	0.615479	0.219238	-0.64624	0.0798468	-0.00157855	0.634285	-0.768964	-0.977692	-9.85651	2.2849	-0.173496	-0.0116223	-0.0395471	-0.292725	0.967529	-0.148926	0.55345	0.123166	0.307417	-0.764211	-4.87033	-3.16622	7.96415	-0.0691498	0.0948166	0.0560023	0.3396	0.657715	-0.626953	0.83527	0.538891	0.0783749	0.076011	-2.43272	9.00912	7.99665	0.133636	0.06143	0.0103126	0.656738	-0.7771	-0.194092	0.636657	-0.413771	-0.435763	-0.483292	9.54518	-0.94364	2.77023	-0.203449	0.114876	-0.0320543	-0.78833	0.499756	-0.313232	0.751664	-0.293423	-0.213487	-0.550751	7.37741	-2.21315	7.84886	0.270589	-0.0122356	0.250104	-0.470459	0.608887	-0.700195	0.420894	-0.447142	-0.786529	-0.065463	6.7648	-2.88222	-6.0658	0.342507	0.171619	-0.348255	-0.819092	0.556152	0.39502	0.445259	-0.603512	-0.435417	-0.497926	9.61175	-3.84174	-1.70226	-0.388017	0.0616474	0.0755256	-0.891602	0.530762	0.196777	0.477594	-0.570114	-0.545966	-0.38574	9.10117	-3.81308	-2.39315	-0.300497	-0.0380811	0.0648358	-0.979004	0.607178	0.215332	
44	0.739345	0.102382	0.147002	-0.649059	-3.11807	-1.1378	10.5298	0.0879557	0.0926816	-0.0704748	0.369385	0.431396	-0.821289	0.563286	-0.46767	-0.450459	-0.51096	9.41935	-0.669316	1.22433	-0.0179586	0.13829	-0.0197067	-0.731445	0.384277	-0.138428	0.836083	0.15761	0.270108	-0.45074	-5.35963	0.386741	8.74566	0.0945142	0.199424	0.0129244	0.626221	0.218994	-0.637207	0.0798468	-0.00157855	0.634285	-0.768964	-0.977692	-9.85651	2.2849	-0.173496	-0.0116223	-0.0395471	-0.292725	0.967529	-0.148926	0.55345	0.123166	0.307417	-0.764211	-4.87033	-3.16622	7.96415	-0.0691498	0.0948166	0.0560023	0.3396	0.657715	-0.626953	0.832655	0.542486	0.0808113	0.0765766	-2.46386	8.6703	7.47716	0.192574	0.0964696	-0.024687	0.665527	-0.779053	-0.18335	0.637033	-0.413866	-0.435274	-0.483156	9.09239	-1.83575	2.90038	0.00544346	0.0447063	0.0250258	-0.78833	0.497559	-0.311035	0.755737	-0.2914	-0.21388	-0.546079	8.01808	-1.27024	7.60968	0.115362	0.0517126	0.158667	-0.464111	0.611084	-0.707275	0.427183	-0.439601	-0.787441	-0.0648237	6.66555	-2.15894	-6.50907	0.210043	0.201006	-0.200732	-0.825928	0.556152	0.388184	0.447427	-0.602514	-0.435616	-0.497017	9.86317	-2.45867	-1.41926	0.230467	0.0294297	0.0116071	-0.893799	0.530762	0.199219	0.477172	-0.570651	-0.545538	-0.386074	9.77634	-2.29173	-2.51169	0.0373638	0.0343443	-0.00973182	-0.974854	0.61377	0.213135	
45	0.737073	0.105387	0.146446	-0.651284	-3.63364	0.132022	10.5536	0.113307	0.0271921	-0.0969277	0.374268	0.420654	-0.825439	0.564099	-0.465731	-0.450045	-0.512198	9.65648	-1.68222	1.41633	0.0251796	0.0856825	-0.0619549	-0.729004	0.375732	-0.133545	0.835237	0.160029	0.270049	-0.45149	-5.43155	0.596776	8.92497	0.0964295	0.0498025	-0.0136496	0.626221	0.212402	-0.643799	0.0798468	-0.00157855	0.634285	-0.768964	-0.977692	-9.85651	2.2849	-0.173496	-0.0116223	-0.0395471	-0.292725	0.967529	-0.148926	0.55345	0.123166	0.307417	-0.764211	-4.87033	-3.16622	7.96415	-0.0691498	0.0948166	0.0560023	0.3396	0.657715	-0.626953	0.831462	0.544044	0.0813848	0.0778766	-2.56212	8.68738	7.06045	0.0807731	0.0493194	0.0324846	0.663818	-0.785645	-0.176758	0.638669	-0.411578	-0.437899	-0.480572	9.73724	-2.53012	2.27846	0.16061	0.0290596	-0.0264737	-0.78833	0.499756	-0.311035	0.756472	-0.290204	-0.213171	-0.545976	7.31215	-1.07536	7.61153	0.0118343	0.081376	-0.0516914	-0.457764	0.613281	-0.707275	0.429316	-0.439522	-0.786219	-0.0660825	6.33274	-2.34031	-6.65773	-0.0501315	0.0902806	0.0400743	-0.828125	0.551514	0.375	0.452992	-0.598984	-0.440107	-0.492262	9.04265	-2.38614	-1.67865	0.446586	-0.0231975	0.0342831	-0.889648	0.537354	0.180664	0.486547	-0.56209	-0.551351	-0.378601	8.63528	-2.71087	-2.90067	0.870231	0.057119	-0.0328731	-0.977051	0.615967	0.185547	
46	0.737103	0.105585	0.145417	-0.651449	-3.05025	-0.0306412	10.1189	0.0180905	-0.00311354	0.0343895	0.367432	0.425049	-0.827637	0.564858	-0.464256	-0.449816	-0.512901	9.24448	-0.825026	1.53696	0.0394228	0.0862067	-0.0281626	-0.731201	0.375732	-0.142822	0.835079	0.161129	0.268507	-0.452309	-4.73886	-0.0128385	9.27307	0.0843371	0.00713829	0.00966024	0.617676	0.210449	-0.643799	0.0798468	-0.00157855	0.634285	-0.768964	-0.977692	-9.85651	2.2849	-0.173496	-0.0116223	-0.0395471	-0.292725	0.967529	-0.148926	0.552139	0.126945	0.315193	-0.761368	-4.96371	-3.13873	7.48389	-0.0610794	0.107377	0.0081002	0.352783	0.657715	-0.622559	0.82943	0.54709	0.0812128	0.0783779	-2.2775	8.49344	7.23232	0.152938	0.00637063	0.0193249	0.661377	-0.783447	-0.170166	0.640331	-0.41065	-0.437261	-0.479735	8.79839	-0.790924	2.8779	0.108451	0.00569827	0.0734499	-0.786133	0.497559	-0.31958	0.75502	-0.29099	-0.211571	-0.548185	7.02848	-1.71432	7.38953	-0.139935	0.0883673	-0.101637	-0.459961	0.613281	-0.705078	0.428152	-0.444326	-0.784141	-0.066205	6.48376	-2.46035	-5.91432	-0.150806	-0.0285227	0.185524	-0.821533	0.560791	0.381592	0.461786	-0.591646	-0.449142	-0.484747	9.49541	0.775677	-1.31381	0.644032	-0.042849	-0.0955576	-0.89624	0.535156	0.162598	0.497495	-0.550766	-0.559679	-0.368666	9.79238	0.615589	-2.75602	0.627772	0.0369632	-0.0880852	-0.979492	0.618164	0.162842	
47	0.737523	0.106673	0.146256	-0.650608	-2.88425	-0.12316	10.7288	0.00888759	0.107844	0.0751645	0.376465	0.422852	-0.818848	0.566041	-0.463824	-0.449687	-0.5121	10.0647	-0.523513	1.30867	0.0255909	0.000548449	0.0344157	-0.729248	0.380127	-0.143066	0.835767	0.161696	0.267493	-0.451437	-6.1587	0.720444	9.64357	-0.0261817	-0.0678582	0.0590889	0.62207	0.212646	-0.64624	0.0798468	-0.00157855	0.634285	-0.768964	-0.977692	-9.85651	2.2849	-0.173496	-0.0116223	-0.0395471	-0.292725	0.967529	-0.148926	0.552262	0.127546	0.31662	-0.760586	-5.51911	-3.47125	6.90671	-0.0217665	-0.00786441	0.00411714	0.352539	0.659668	-0.613281	0.829881	0.546163	0.0815123	0.0797392	-2.39831	8.87567	6.85146	-0.0987389	0.0664601	0.0152926	0.663818	-0.785645	-0.170166	0.64182	-0.409959	-0.441544	-0.474384	9.72296	-0.722219	2.96736	0.197871	-0.0868465	0.00931767	-0.786133	0.497559	-0.315186	0.752633	-0.293407	-0.208051	-0.551516	6.66965	-2.69603	7.33964	-0.18795	0.0632692	-0.111522	-0.459961	0.615479	-0.70752	0.425352	-0.44992	-0.782435	-0.0666606	5.80802	-2.83915	-5.70639	-0.138343	-0.0526613	0.147041	-0.819336	0.562988	0.392578	0.464629	-0.588382	-0.453345	-0.482084	10.3895	-0.605242	-0.390066	0.170977	0.0119986	0.000210479	-0.889893	0.539551	0.157959	0.501672	-0.546126	-0.562135	-0.366163	9.70427	-1.49693	-1.91065	0.287835	0.0533955	-0.0276673	-0.977539	0.624756	0.151367	
48	0.740063	0.10624	0.148326	-0.647317	-3.91436	-0.893859	10.6749	-0.0887508	-0.0649757	0.0738291	0.376221	0.427246	-0.823242	0.566937	-0.46477	-0.448355	-0.511419	10.1297	-0.502906	1.79944	-0.0358627	0.0547199	0.0556658	-0.724609	0.37793	-0.145264	0.836536	0.157909	0.267751	-0.4512	-5.63449	0.516046	9.66646	-0.137814	-0.0622482	-0.0200393	0.615479	0.214844	-0.643799	0.0798468	-0.00157855	0.634285	-0.768964	-0.977692	-9.85651	2.2849	-0.173496	-0.0116223	-0.0395471	-0.292725	0.967529	-0.148926	0.552262	0.127546	0.31662	-0.760586	-5.51911	-3.47125	6.90671	-0.0217665	-0.00786441	0.00411714	0.352539	0.659668	-0.613281	0.831908	0.542627	0.0834067	0.0807954	-2.47472	8.91537	7.63352	-0.111067	0.103216	-0.0630675	0.665771	-0.785645	-0.176758	0.6399	-0.411196	-0.439458	-0.477831	10.8114	-1.04172	2.27947	-0.207718	0.0899797	-0.0430101	-0.786133	0.499756	-0.311035	0.750973	-0.294947	-0.209453	-0.552427	7.26001	-3.13839	7.64116	-0.00583329	-0.0794049	-0.0683292	-0.468506	0.615479	-0.697998	0.42437	-0.45217	-0.781643	-0.0669895	6.84356	-2.77421	-5.33746	-0.0663111	0.00950345	0.0275525	-0.817139	0.567627	0.390381	0.465339	-0.587376	-0.453468	-0.48251	9.51657	0.458553	-0.777582	-0.0151031	0.0625627	-0.047313	-0.894043	0.532959	0.155762	0.504104	-0.543588	-0.56421	-0.363399	9.47476	0.603034	-2.48741	0.043356	-0.00999909	-0.014563	-0.979736	0.622559	0.142334	
49	0.739872	0.104569	0.147826	-0.647921	-3.57397	-0.769005	10.625	-0.0191114	-0.0608509	-0.0555771	0.371826	0.427002	-0.818848	0.567923	-0.464929	-0.446274	-0.512001	9.53495	-0.938079	1.59699	-0.0184383	0.0140906	0.0161563	-0.727051	0.384277	-0.147949	0.836002	0.158462	0.268738	-0.451409	-5.52994	0.549302	9.3772	0.0131547	0.0809846	-0.0060914	0.621826	0.216797	-0.644043	0.077676	0.00137407	0.638906	-0.765352	-0.855504	-9.48007	1.77776	-0.0409427	0.0299589	0.00391969	-0.292969	0.971924	-0.151367	0.553668	0.121922	0.315006	-0.761156	-4.98594	-3.21143	7.71627	-0.0507294	-0.148692	-0.0264421	0.348145	0.662109	-0.622559	0.832838	0.540869	0.0861033	0.0801678	-2.59235	8.98719	7.64446	-0.0419149	0.0620439	-0.100679	0.665527	-0.779053	-0.178955	0.64042	-0.413449	-0.439732	-0.474929	8.76815	-1.16328	2.9445	0.110999	-0.121916	0.103309	-0.78418	0.50415	-0.311035	0.751417	-0.294665	-0.211436	-0.551216	7.1372	-2.98362	8.22989	0.084862	-0.0234178	0.0225013	-0.464111	0.613281	-0.695557	0.424517	-0.452088	-0.781549	-0.0677044	7.27329	-3.12481	-5.34901	-0.0366503	0.0482921	-0.0468852	-0.819336	0.560547	0.392578	0.460495	-0.589448	-0.449683	-0.48814	9.86994	-0.186868	-0.553569	-0.435729	0.0951903	-0.053102	-0.902832	0.530762	0.162598	0.497491	-0.549904	-0.560423	-0.368828	9.54607	-1.01663	-2.03763	-0.495959	-0.0539768	0.0280382	-0.981689	0.618164	0.165039	
50	0.739363	0.103788	0.147319	-0.648744	-3.45906	-0.701667	10.5543	-0.00420914	-0.0726711	-0.0815111	0.369629	0.427246	-0.825439	0.566661	-0.466373	-0.446527	-0.511864	9.67772	-0.356305	1.62295	-0.0819712	-0.0628623	-0.0266493	-0.724609	0.37793	-0.147705	0.835285	0.15716	0.270994	-0.451843	-5.6938	0.487866	8.89455	-0.0875137	0.0534682	-0.0742347	0.621826	0.223389	-0.644043	0.077676	0.00137407	0.638906	-0.765352	-0.855504	-9.48007	1.77776	-0.0409427	0.0299589	0.00391969	-0.292969	0.971924	-0.151367	0.551216	0.121318	0.315556	-0.762802	-4.96883	-3.48594	8.15892	0.000682093	0.0141206	-0.0857012	0.341797	0.657471	-0.615723	0.832938	0.541078	0.0852512	0.0786213	-2.84134	8.99265	7.40397	0.0277494	-0.0907896	-0.0338595	0.663574	-0.78125	-0.181152	0.638584	-0.413453	-0.44124	-0.475998	9.81273	-0.638318	2.48357	-0.109709	-0.0136057	-0.153931	-0.785889	0.493164	-0.300293	0.753156	-0.293672	-0.212269	-0.549049	7.517	-1.94622	8.06346	0.0817803	0.027001	0.0718588	-0.466309	0.611084	-0.705078	0.430623	-0.444287	-0.782702	-0.0674577	7.19046	-2.29826	-5.87102	0.174069	0.164792	-0.213364	-0.826172	0.55835	0.374756	0.456003	-0.593242	-0.443945	-0.492988	9.79938	-4.2383	-1.56928	-0.234444	0.0746209	0.0631585	-0.895996	0.528564	0.169434	0.494475	-0.553804	-0.557701	-0.371167	9.82655	-4.3575	-1.70634	-0.0401506	0.0172324	0.0579341	-0.977295	0.618164	0.171875	
51	0.737728	0.103301	0.145798	-0.651021	-3.44798	-0.563078	10.8162	0.0342508	-0.0416709	-0.0533462	0.365479	0.422607	-0.823242	0.565551	-0.467271	-0.447224	-0.511664	9.67146	-0.344911	1.33861	-0.0523783	-0.101987	-0.0482955	-0.729248	0.380127	-0.140625	0.835285	0.15716	0.270994	-0.451843	-5.6938	0.487866	8.89455	-0.0875137	0.0534682	-0.0742347	0.621826	0.223389	-0.644043	0.077676	0.00137407	0.638906	-0.765352	-0.855504	-9.48007	1.77776	-0.0409427	0.0299589	0.00391969	-0.292969	0.971924	-0.151367	0.551216	0.121318	0.315556	-0.762802	-4.96883	-3.48594	8.15892	0.000682093	0.0141206	-0.0857012	0.341797	0.657471	-0.615723	0.83292	0.541384	0.0842063	0.0778242	-2.64572	9.05438	7.54186	0.0317813	-0.0999023	-0.0205945	0.667725	-0.78125	-0.176758	0.63616	-0.416127	-0.439027	-0.478951	10.2753	-1.76738	2.77994	-0.147818	0.0765237	-0.010741	-0.783936	0.495361	-0.304443	0.753885	-0.29309	-0.212393	-0.548311	7.60891	-1.55679	8.01393	0.0714893	0.036824	0.0449662	-0.466309	0.611084	-0.693359	0.432261	-0.442391	-0.782762	-0.0687364	7.02354	-2.17787	-6.25086	0.0444519	0.165629	-0.177681	-0.830566	0.553711	0.374756	0.459243	-0.591548	-0.445106	-0.490966	10.0684	-4.8012	-1.74565	0.333626	0.0584973	0.0884806	-0.898193	0.528564	0.162598	0.497892	-0.550933	-0.558893	-0.369073	9.86165	-4.33552	-1.83513	0.395664	0.105768	-0.000128381	-0.977295	0.620361	0.1604	
52	0.737728	0.103301	0.145798	-0.651021	-3.44798	-0.563078	10.8162	0.0342508	-0.0416709	-0.0533462	0.365479	0.422607	-0.823242	0.564972	-0.46577	-0.448528	-0.512531	10.1638	-0.914136	1.84936	0.0449591	0.102715	-0.117328	-0.726807	0.37793	-0.145264	0.834842	0.157712	0.267993	-0.454252	-4.83626	0.30501	9.15545	0.123744	-0.135158	-0.0198463	0.615479	0.217041	-0.641602	0.0752767	0.00126026	0.638219	-0.766165	-0.739971	-9.56021	1.66723	0.0160573	0.0236644	-0.0307847	-0.295166	0.971924	-0.146973	0.549445	0.124073	0.313674	-0.764411	-5.30415	-3.50153	7.75239	0.155269	0.0136662	0.00288613	0.3396	0.657715	-0.624756	0.833087	0.54156	0.0817141	0.0774718	-2.74003	8.86244	7.44651	0.00392563	-0.0867407	0.0517039	0.661621	-0.785645	-0.183105	0.637109	-0.415031	-0.438104	-0.479487	9.69674	-2.25841	3.16805	0.0447566	0.15511	-0.0143801	-0.790527	0.497559	-0.306641	0.753768	-0.29212	-0.212509	-0.548944	7.8582	-1.87381	8.12767	0.00401263	0.0619844	-0.0805717	-0.461914	0.608887	-0.709717	0.434346	-0.442074	-0.781559	-0.0712718	7.44847	-2.52053	-6.39607	-0.0460851	0.129449	-0.000253636	-0.833008	0.55835	0.365967	0.474337	-0.580334	-0.455588	-0.480268	9.02056	0.799119	-0.979023	1.04002	0.0425365	-0.00771986	-0.89209	0.539551	0.137451	0.512358	-0.536423	-0.568295	-0.356062	9.05421	2.16104	-3.24156	1.04087	0.0238227	-0.0849314	-0.977539	0.624756	0.124023	
53	0.736225	0.105117	0.14166	-0.653342	-2.95003	0.652649	10.5706	0.111701	0.00382484	-0.0390671	0.365479	0.420654	-0.827637	0.566687	-0.461736	-0.449053	-0.513826	9.84032	-1.47598	1.67581	0.112851	0.139172	-0.0721846	-0.729004	0.375488	-0.154541	0.836176	0.15917	0.262886	-0.454275	-5.28928	0.386204	10.0054	0.128236	-0.137207	0.103204	0.613281	0.214844	-0.655273	0.0765833	0.00491073	0.638196	-0.766039	-0.79762	-9.27587	1.97066	0.00760149	0.0825074	0.135367	-0.288574	0.976318	-0.14917	0.550003	0.127254	0.313564	-0.763532	-5.27649	-2.99433	7.37394	0.0108626	0.136436	0.0616411	0.343994	0.657471	-0.61792	0.83336	0.541467	0.0783072	0.0786976	-2.08411	8.90151	7.46586	-0.0290491	-0.0775459	0.10297	0.659424	-0.785645	-0.187256	0.639365	-0.411552	-0.440992	-0.476826	9.28812	-1.34058	3.06908	0.251821	-0.0689515	-0.00529055	-0.794434	0.490967	-0.310791	0.752447	-0.290948	-0.211564	-0.551737	6.51746	-2.65823	8.01466	-0.0393322	0.107737	-0.132977	-0.470459	0.606689	-0.697754	0.433782	-0.445105	-0.779949	-0.0734514	6.97881	-2.80587	-5.47268	-0.178455	0.0262114	0.0601962	-0.830566	0.556152	0.372559	0.473839	-0.577862	-0.458726	-0.480752	10.3932	1.25494	0.0336793	-0.255566	0.00546669	-0.122385	-0.896484	0.537354	0.130615	0.512906	-0.534626	-0.569491	-0.356065	10.1024	-0.453154	-2.15306	-0.072592	0.0211214	-0.0356991	-0.981934	0.620361	0.126465	
54	0.738094	0.104772	0.143026	-0.650986	-3.65321	0.0600979	10.5681	-0.115858	0.0168177	0.154741	0.369873	0.422852	-0.827637	0.56819	-0.460575	-0.448154	-0.513993	9.64963	0.105272	1.6478	-0.0129733	0.0752161	0.0299845	-0.726807	0.373535	-0.1521	0.8374	0.158827	0.262147	-0.452564	-5.5453	0.902074	10.3331	-0.0787554	0.0405137	0.0534971	0.615723	0.206299	-0.652832	0.0786184	0.00498901	0.637088	-0.766755	-1.5288	-9.95509	1.84933	-0.00476544	-0.0916431	-0.0527279	-0.288574	0.974121	-0.153564	0.549547	0.129052	0.314424	-0.763204	-4.9988	-3.25684	6.91957	0.0164301	0.0567995	-0.0276484	0.348145	0.659912	-0.620117	0.833769	0.540906	0.0767957	0.0797033	-2.20882	8.67418	7.281	-0.0120338	-0.00299756	0.0220738	0.655029	-0.785645	-0.187256	0.638653	-0.412392	-0.441744	-0.476359	9.85077	0.562115	2.13137	-0.0628671	0.0222516	-0.0232864	-0.785889	0.493164	-0.308838	0.752746	-0.291365	-0.210155	-0.551647	6.65986	-3.43735	7.90909	-0.0281575	0.0406121	0.0709516	-0.464111	0.611084	-0.702637	0.43316	-0.444396	-0.780513	-0.07539	7.06907	-3.61149	-5.02659	0.0375173	0.0297033	-0.147609	-0.835205	0.556152	0.372559	0.470937	-0.58009	-0.455999	-0.483506	10.0005	-0.0643101	0.231761	-0.424897	0.0526399	-0.00631181	-0.900635	0.532959	0.144287	0.504188	-0.543268	-0.564121	-0.363898	9.54338	0.229239	-2.07237	-0.839647	-0.0635332	0.0366632	-0.986328	0.620361	0.151367	
55	0.740214	0.102574	0.14432	-0.64864	-3.59885	-1.21361	10.6188	-0.0963689	-0.0417108	0.0652484	0.362793	0.431396	-0.825439	0.567811	-0.46292	-0.446964	-0.513342	9.54332	0.0948559	1.8783	-0.0986741	-0.061444	0.0574995	-0.724854	0.38208	-0.150146	0.837024	0.157911	0.266893	-0.450802	-5.595	0.56492	8.86377	-0.124586	0.16034	0.0106293	0.619629	0.221191	-0.650879	0.0783123	0.00137439	0.637218	-0.766694	-0.86266	-9.55973	1.84271	-0.00867725	-0.0778635	-0.0959004	-0.286377	0.976318	-0.14917	0.550151	0.126233	0.314343	-0.763274	-4.82851	-2.98129	7.21106	-0.0872308	-0.129433	-0.0267797	0.341797	0.659912	-0.622559	0.833878	0.540454	0.0792392	0.0792329	-2.23453	8.75524	7.60496	0.00521247	0.102962	-0.119917	0.659424	-0.787842	-0.189453	0.638016	-0.414216	-0.437916	-0.479157	9.61836	-1.01255	2.8569	-0.175714	0.147006	-0.000920161	-0.790527	0.497559	-0.304688	0.756214	-0.289675	-0.209454	-0.548049	7.37383	-2.44913	7.94241	0.189733	0.074511	0.161587	-0.457275	0.604736	-0.709473	0.437537	-0.436852	-0.782466	-0.0739451	7.16782	-2.52777	-5.33072	0.289151	0.14477	-0.26816	-0.841797	0.547119	0.359375	0.452203	-0.593949	-0.439644	-0.499449	9.6262	-4.18811	-2.11064	-0.976665	0.0435082	0.00937558	-0.902588	0.52417	0.174072	0.491248	-0.556044	-0.554827	-0.376375	9.4695	-5.26458	-2.02997	-0.715139	0.0246057	0.0619968	-0.979248	0.61377	0.181152	
56	0.73923	0.101549	0.14295	-0.650225	-3.15216	-1.17582	10.3883	0.0613377	-0.0617302	-0.119119	0.36084	0.422607	-0.823242	0.568175	-0.463974	-0.444385	-0.514225	9.60072	-1.23156	1.48367	-0.0419366	0.0964391	0.00699656	-0.724854	0.379883	-0.147705	0.83612	0.158418	0.269043	-0.451024	-5.28865	0.72051	8.39395	0.0260137	0.0650068	-0.0484119	0.626221	0.216797	-0.644043	0.077802	0.000523321	0.637538	-0.76648	-1.00323	-9.17138	1.57327	-0.0377227	-0.0160074	-0.0709292	-0.292725	0.969727	-0.146729	0.550452	0.123107	0.313942	-0.763733	-5.31437	-3.35864	8.27524	-0.0146676	-0.0691725	-0.0607161	0.339355	0.661865	-0.61792	0.833816	0.54033	0.0818329	0.0780849	-2.46311	8.85353	7.35602	0.00950822	0.0371686	-0.0830005	0.65918	-0.78125	-0.185303	0.63682	-0.415048	-0.435509	-0.482211	9.38458	-2.51397	2.82167	-0.0863283	0.0542147	-0.0761413	-0.78833	0.499756	-0.311035	0.758549	-0.284512	-0.212298	-0.546431	8.25203	-0.125301	7.61414	0.234815	0.0557837	-0.0654944	-0.457275	0.600342	-0.711914	0.443503	-0.432692	-0.781321	-0.0749685	6.8912	-1.10303	-6.29129	0.0311226	0.266532	-0.0581041	-0.85083	0.540283	0.34375	0.460367	-0.590123	-0.444485	-0.492189	9.24703	-5.49175	-1.41935	1.12517	-0.0314593	0.108411	-0.895996	0.528564	0.1604	0.502472	-0.545284	-0.561706	-0.366979	9.08701	-4.03551	-1.65518	1.20187	0.0687832	-0.102549	-0.983887	0.61377	0.146973	
57	0.73923	0.101549	0.14295	-0.650225	-3.15216	-1.17582	10.3883	0.0613377	-0.0617302	-0.119119	0.36084	0.422607	-0.823242	0.56819	-0.461269	-0.447261	-0.514149	9.50208	-1.54222	2.25779	0.127056	-0.02374	-0.142971	-0.726807	0.373291	-0.154541	0.836114	0.158284	0.267	-0.452295	-5.10579	0.513886	8.73157	0.0469668	-0.0749161	-0.0308448	0.617676	0.214844	-0.648438	0.0772125	0.00212763	0.637972	-0.766176	-0.580449	-9.31798	1.75409	-0.0238829	0.0633966	0.0696113	-0.292969	0.974121	-0.144775	0.550452	0.123107	0.313942	-0.763733	-5.31437	-3.35864	8.27524	-0.0146676	-0.0691725	-0.0607161	0.339355	0.661865	-0.61792	0.834141	0.540227	0.0789887	0.0782529	-2.61214	8.9502	7.47258	0.0123664	-0.114788	0.0890951	0.657227	-0.787842	-0.189453	0.639522	-0.410977	-0.439496	-0.478491	9.11061	-2.13751	2.57349	0.374419	-0.0591974	0.0174747	-0.79248	0.493164	-0.312988	0.755618	-0.283129	-0.211773	-0.55139	7.33691	-0.375651	7.4163	-0.160878	0.13213	-0.282403	-0.46167	0.602539	-0.714111	0.44485	-0.439021	-0.776422	-0.0808548	6.73373	-1.61029	-6.55536	-0.287141	0.216429	0.17155	-0.84668	0.549316	0.343506	0.483458	-0.571556	-0.461158	-0.476368	9.05923	-1.22445	-0.487104	1.59356	0.150955	0.0182558	-0.89917	0.546143	0.112061	0.523605	-0.521574	-0.579454	-0.343556	8.49286	-2.18792	-2.78019	1.97157	-0.105248	-0.149275	-0.986572	0.624756	0.101318	
58	0.734677	0.103845	0.140812	-0.655468	-3.2367	0.220265	10.2529	0.114982	7.87512e-05	-0.168085	0.356445	0.424805	-0.825439	0.567454	-0.460548	-0.449748	-0.513437	9.81046	-0.227411	1.67413	0.0499408	-0.0638914	-0.0423189	-0.726562	0.369141	-0.156738	0.836444	0.158764	0.265701	-0.452282	-5.42591	0.242317	9.22539	0.0761439	-0.0681843	0.0399494	0.617676	0.210449	-0.645996	0.0776356	0.00343001	0.63859	-0.765613	-0.702834	-9.65472	1.73051	-0.059879	0.0705334	0.0994673	-0.290771	0.971924	-0.14917	0.548005	0.129063	0.314487	-0.764285	-5.30789	-3.36106	7.72819	0.0883457	0.151035	-0.0143443	0.345947	0.659912	-0.622559	0.833746	0.541065	0.0770194	0.0786425	-2.41066	8.88369	7.32765	0.0692136	-0.110873	0.103572	0.653076	-0.787842	-0.187256	0.640972	-0.408824	-0.444308	-0.473928	9.49216	-0.133102	3.23348	0.177342	-0.104758	0.0191918	-0.794434	0.490967	-0.315186	0.752815	-0.284405	-0.209125	-0.555563	6.77314	-1.19992	7.40724	-0.325668	0.175141	-0.312501	-0.457275	0.600342	-0.707031	0.444092	-0.443831	-0.773927	-0.0826713	6.1562	-2.39823	-6.33743	-0.326002	0.0839433	0.295018	-0.839844	0.551758	0.345947	0.496037	-0.560452	-0.470772	-0.467135	9.55954	1.4021	0.0758753	1.71143	0.107295	-0.0113494	-0.894775	0.54834	0.0869141	0.534485	-0.508474	-0.590017	-0.328115	9.37227	1.22689	-2.98446	2.01124	-0.213811	-0.106324	-0.984375	0.62915	0.0715332	
59	0.737085	0.106244	0.14408	-0.651658	-4.37021	0.134005	11.3008	-0.0959031	0.0282854	0.20878	0.363281	0.422852	-0.832031	0.567593	-0.461232	-0.451165	-0.511423	10.6974	-0.0344809	1.64686	0.0460064	-0.0414512	0.0198884	-0.726562	0.371338	-0.149658	0.837383	0.158794	0.262587	-0.452352	-5.82582	0.747144	9.82922	0.0270149	-0.13823	0.0372906	0.611328	0.210693	-0.650635	0.0782615	0.00606155	0.637348	-0.766568	-1.14778	-9.84241	1.45787	0.119728	0.0633799	0.0779663	-0.281982	0.974121	-0.151367	0.547832	0.130971	0.315675	-0.763594	-5.77766	-3.43281	6.78055	-0.00681577	0.189591	0.0422264	0.357178	0.65332	-0.615723	0.83454	0.539858	0.0750273	0.0804248	-2.22991	9.28152	6.92822	-0.11862	0.0200933	0.0686152	0.650879	-0.792236	-0.193604	0.640502	-0.40912	-0.444839	-0.473811	11.0929	0.305485	3.17481	-0.0407115	0.0364376	-0.0535202	-0.790039	0.486816	-0.321289	0.744839	-0.292175	-0.204732	-0.563856	5.88234	-3.8978	7.85942	-0.203447	-0.115584	-0.210792	-0.475098	0.613281	-0.697998	0.434866	-0.456583	-0.771396	-0.0858552	6.28354	-3.29029	-5.45066	-0.340246	-0.242033	0.130902	-0.826172	0.55835	0.374756	0.50259	-0.553036	-0.477942	-0.461655	10.5408	3.33855	-0.981319	-0.00521502	0.0013324	-0.0590967	-0.89917	0.543945	0.0778809	0.536502	-0.504656	-0.594027	-0.323451	10.5567	0.885586	-3.04931	-0.279466	0.00989192	-0.0196808	-0.984375	0.624756	0.0693359	
60	0.739229	0.104714	0.143659	-0.649567	-4.25863	-0.640014	10.8239	-0.109718	-0.113251	0.221133	0.367676	0.420654	-0.825439	0.567588	-0.461661	-0.451043	-0.511149	10.2926	-0.177771	1.96749	-0.0203663	-0.00879486	0.0142209	-0.722656	0.377686	-0.156982	0.838225	0.157503	0.260738	-0.452314	-5.64587	0.892399	10.1661	-0.0295812	-0.179915	0.0300218	0.613281	0.210449	-0.650635	0.0785308	0.00618486	0.634795	-0.768654	-1.42903	-10.1286	1.98018	0.104814	-0.0349185	-0.0187059	-0.281738	0.969727	-0.160156	0.550791	0.128383	0.313369	-0.762855	-5.21248	-2.91352	7.43667	-0.0324277	-0.216533	0.0320598	0.348145	0.662109	-0.620117	0.836227	0.536598	0.0770447	0.0827711	-2.0611	8.9438	7.4717	-0.1127	0.153414	-0.0226257	0.650879	-0.790039	-0.193604	0.640052	-0.409295	-0.443346	-0.475664	10.4992	-0.108528	2.77696	-0.135692	0.129042	-0.0723107	-0.790039	0.491211	-0.317139	0.743545	-0.293626	-0.20789	-0.563654	6.59	-4.42271	8.06681	0.0311362	-0.255239	-0.114412	-0.481201	0.608887	-0.697754	0.4312	-0.458209	-0.772518	-0.0856011	7.18133	-4.02187	-5.34875	-0.166032	-0.275352	0.0209408	-0.828613	0.560547	0.37915	0.49518	-0.560021	-0.471454	-0.467872	9.47146	0.294798	-0.497171	-0.589852	0.04904	0.0234512	-0.896973	0.543945	0.0893555	0.530688	-0.511868	-0.589018	-0.330786	9.2775	0.008439	-2.34016	-0.675724	0.0197127	0.041616	-0.97998	0.62915	0.0874023	
61	0.740651	0.103503	0.142946	-0.648298	-3.72093	-0.992968	10.5125	-0.0600749	-0.113348	0.14035	0.37207	0.422852	-0.825439	0.567523	-0.46371	-0.449299	-0.510903	9.30638	-0.394825	1.634	-0.0872851	-0.0170241	0.0655033	-0.724854	0.38208	-0.152588	0.838681	0.155622	0.263183	-0.450701	-5.78533	0.901845	9.31157	-0.100766	0.162969	0.0379135	0.615479	0.212646	-0.655273	0.0783894	0.00294366	0.633212	-0.769993	-1.11242	-9.9378	1.40909	0.089861	-0.0962048	-0.0983234	-0.292969	0.971924	-0.157959	0.552276	0.124148	0.312689	-0.762761	-5.22775	-3.03865	8.07018	-0.0607644	-0.117802	-0.0448674	0.343994	0.657471	-0.620117	0.837721	0.533864	0.0797961	0.0827369	-2.14006	9.30397	7.58566	-0.100705	0.0718349	-0.106816	0.659424	-0.787842	-0.19165	0.638774	-0.411859	-0.442507	-0.475949	9.00683	-1.01421	2.71574	-0.046716	-0.0680453	0.0419769	-0.79248	0.493164	-0.306641	0.745105	-0.293183	-0.215082	-0.559108	7.85083	-2.85445	8.68945	0.238526	-0.181517	0.100751	-0.485352	0.604492	-0.695557	0.43008	-0.453969	-0.776363	-0.0787689	8.4171	-3.12427	-5.18043	0.3732	-0.163646	-0.138995	-0.830811	0.560547	0.381348	0.483225	-0.569325	-0.462194	-0.478267	9.8379	-0.960395	-1.1239	-0.921724	-0.00213541	-0.0406203	-0.900879	0.537354	0.116943	0.517562	-0.526699	-0.579029	-0.345606	9.58312	-1.81343	-2.63191	-1.08284	0.025331	0.0856642	-0.986572	0.626953	0.117188	
62	0.739262	0.10034	0.14034	-0.650944	-3.53448	-0.482407	10.6918	0.0283014	-0.163271	-0.149234	0.36084	0.424805	-0.829834	0.565906	-0.466017	-0.450204	-0.509798	9.71669	-0.752843	1.72738	-0.046388	-0.100576	-0.0358136	-0.729248	0.38208	-0.143066	0.838621	0.153465	0.265514	-0.450184	-5.51994	0.852841	8.43057	-0.118694	0.047199	-0.0208345	0.619629	0.217041	-0.64624	0.0786264	0.000956549	0.6328	-0.770313	-1.05452	-9.31904	1.38892	0.0137918	-0.064674	-0.0419511	-0.293213	0.976318	-0.157959	0.552276	0.124148	0.312689	-0.762761	-5.22775	-3.03865	8.07018	-0.0607644	-0.117802	-0.0448674	0.343994	0.657471	-0.620117	0.83822	0.533416	0.0798684	0.080476	-2.37775	8.93136	7.57654	0.0299991	-0.0710184	-0.0856951	0.65918	-0.78125	-0.196045	0.637553	-0.413327	-0.440327	-0.478331	9.87569	-1.51089	2.69174	-0.109049	0.124425	-0.0688726	-0.79248	0.493164	-0.308838	0.747672	-0.293902	-0.217089	-0.554509	7.80379	-2.57907	8.6396	0.0592455	-0.0537549	0.188775	-0.483643	0.611084	-0.700195	0.431251	-0.448591	-0.779167	-0.0754181	8.3892	-2.83113	-5.0798	0.172811	-0.00516572	-0.193939	-0.835449	0.55835	0.374756	0.474095	-0.576639	-0.457485	-0.483145	9.9692	-0.899797	-0.553657	-0.448689	-0.106445	-0.0435761	-0.895996	0.52417	0.135498	0.507373	-0.538176	-0.570772	-0.356592	9.90833	-0.308417	-1.6408	-0.977565	0.0245798	0.0585586	-0.984131	0.620361	0.146729	
63	0.738106	0.098337	0.136961	-0.653277	-3.17525	0.0434191	10.6251	0.0402067	-0.15346	-0.0698531	0.352051	0.424805	-0.832031	0.563985	-0.466304	-0.452282	-0.509826	9.88883	-0.668513	1.61821	0.00230928	-0.0753759	-0.102796	-0.724609	0.373535	-0.135742	0.838656	0.153048	0.263692	-0.451331	-5.27022	0.298857	8.52785	0.0632229	-0.144875	-0.0620625	0.611084	0.221436	-0.64624	0.0791507	0.00376602	0.631769	-0.771096	-0.755401	-9.29514	1.79096	0.0597335	0.0738818	0.0865843	-0.286133	0.971924	-0.162354	0.550043	0.122924	0.310025	-0.765655	-5.27275	-3.36902	7.72133	0.0449677	-0.0101051	-0.0629698	0.3396	0.655518	-0.631592	0.839269	0.532238	0.0782713	0.078887	-2.49926	8.66192	7.53048	-0.080154	-0.0832957	-0.0195141	0.65918	-0.783447	-0.198242	0.637628	-0.412735	-0.438984	-0.479972	9.95963	-1.18945	2.81634	0.0208471	0.0657002	-0.0142377	-0.794434	0.490967	-0.310791	0.751509	-0.294287	-0.21501	-0.549909	7.42207	-2.49206	8.22816	0.0225436	0.0884758	0.236978	-0.472656	0.608887	-0.702637	0.43567	-0.442147	-0.780497	-0.0743062	7.63238	-2.73134	-5.23929	0.245655	0.163803	-0.21431	-0.837646	0.553955	0.361328	0.461129	-0.587136	-0.447537	-0.492282	9.85013	-2.05026	-0.853924	-0.924615	-0.0291364	0.003825	-0.902832	0.528564	0.165039	0.492872	-0.553532	-0.558874	-0.371939	9.68666	-2.08828	-1.94876	-1.14243	0.0264678	0.0868511	-0.983643	0.607178	0.176758	
64	0.738106	0.098337	0.136961	-0.653277	-3.17525	0.0434191	10.6251	0.0402067	-0.15346	-0.0698531	0.352051	0.424805	-0.832031	0.561839	-0.467273	-0.453681	-0.510065	9.8405	-0.476368	1.37779	-0.0334403	-0.0863012	-0.0591622	-0.733154	0.371338	-0.133301	0.839338	0.152303	0.255947	-0.454759	-5.17614	0.470992	9.95751	0.0843343	-0.183147	-0.0248007	0.602539	0.212891	-0.664307	0.0793967	0.00554558	0.630579	-0.772034	-0.912785	-9.48424	1.84704	0.130367	0.0970827	0.102696	-0.281738	0.972168	-0.164551	0.549704	0.123865	0.307715	-0.766677	-4.95488	-3.13125	7.61668	0.0837651	-0.0180253	-0.0145768	0.341797	0.657715	-0.631592	0.840653	0.530593	0.0754978	0.077932	-2.42096	8.76368	7.66499	-0.0902142	-0.111677	0.00051507	0.65918	-0.785645	-0.206787	0.638889	-0.411278	-0.435788	-0.482452	9.32487	-1.42719	3.21673	-0.0662652	0.202462	-0.0519445	-0.788086	0.495361	-0.312988	0.755537	-0.292327	-0.214222	-0.545726	7.60253	-2.09909	7.61471	0.166896	0.0773559	0.162872	-0.466309	0.613281	-0.700439	0.443351	-0.434692	-0.780446	-0.0733931	6.92784	-2.41996	-5.77682	0.312708	0.278082	-0.210057	-0.849121	0.551514	0.348145	0.45154	-0.595627	-0.439538	-0.498143	9.27145	-3.05561	-0.772098	-0.53138	-0.0423043	0.0653812	-0.902588	0.52417	0.180908	0.483372	-0.562778	-0.550785	-0.382449	8.88604	-2.80234	-2.12063	-0.541155	0.0366177	0.0239396	-0.983398	0.60498	0.187988	
65	0.739572	0.0967591	0.132456	-0.652783	-2.87611	-0.208121	10.4572	0.031622	-0.090959	0.0308202	0.3479	0.42041	-0.832031	0.56	-0.469195	-0.455488	-0.508711	9.63292	-0.991331	1.76257	-0.0224755	-0.10155	-0.0187753	-0.737549	0.375732	-0.128662	0.839338	0.152303	0.255947	-0.454759	-5.17614	0.470992	9.95751	0.0843343	-0.183147	-0.0248007	0.602539	0.212891	-0.664307	0.0796491	0.00743437	0.628668	-0.773548	-1.19789	-9.65298	2.29808	0.102458	0.0494745	0.0524392	-0.281982	0.974365	-0.168945	0.549704	0.123865	0.307715	-0.766677	-4.95488	-3.13125	7.61668	0.0837651	-0.0180253	-0.0145768	0.341797	0.657715	-0.631592	0.840653	0.530593	0.0754978	0.077932	-2.42096	8.76368	7.66499	-0.0902142	-0.111677	0.00051507	0.65918	-0.785645	-0.206787	0.638513	-0.411481	-0.436781	-0.481879	9.42494	-1.73257	2.60392	0.113285	-0.0476235	0.00431698	-0.79248	0.493164	-0.315186	0.758045	-0.288201	-0.21583	-0.543806	7.48073	-0.752766	7.50907	0.175732	0.0608806	-0.00636723	-0.459473	0.604736	-0.714111	0.449885	-0.430474	-0.778972	-0.0741436	6.55131	-1.7521	-6.28009	0.0851712	0.244773	-0.0811853	-0.853516	0.547119	0.334717	0.450737	-0.596515	-0.439094	-0.498199	9.52432	-4.54471	-1.78365	0.0919796	0.00875563	0.0165114	-0.902588	0.52417	0.178711	0.481972	-0.563816	-0.549994	-0.383824	9.23253	-2.80817	-1.9252	-0.187781	0.00421665	-0.0157049	-0.979004	0.60498	0.197266	
66	0.739117	0.0975816	0.133079	-0.653049	-2.91468	-0.0236268	10.6113	0.00700257	0.0663836	-0.0161978	0.352295	0.42041	-0.834229	0.559526	-0.470049	-0.457197	-0.506908	9.58256	-0.95612	1.30144	0.0628776	-0.0903964	-0.0042076	-0.731201	0.37793	-0.124023	0.839498	0.15224	0.255173	-0.454922	-4.81916	0.492165	9.92307	0.00892645	-0.0172284	0.00097458	0.604736	0.217285	-0.664551	0.0798229	0.00730173	0.62925	-0.773058	-1.18046	-9.66503	2.49986	-0.0314081	-0.00244064	0.00503893	-0.281982	0.976562	-0.171143	0.548976	0.125287	0.306935	-0.76728	-5.09262	-3.04399	7.44034	0.0435837	0.0243871	-0.0142532	0.337402	0.657715	-0.63623	0.840981	0.530334	0.0742819	0.0773226	-2.2419	8.76747	7.96556	-0.0083534	-0.0339977	-0.00280997	0.656738	-0.774902	-0.213379	0.639251	-0.411106	-0.439162	-0.479047	9.29183	-1.58237	3.00556	0.110931	-0.0991553	0.0169048	-0.786133	0.495361	-0.319336	0.756788	-0.287991	-0.214618	-0.546143	7.12135	-1.07236	7.37585	-0.0539108	0.0692478	-0.0955111	-0.468018	0.602539	-0.711914	0.450216	-0.433572	-0.776725	-0.0775842	6.45219	-2.3383	-6.17698	-0.222071	0.0585708	0.0834821	-0.851074	0.547119	0.328125	0.458025	-0.591853	-0.444366	-0.492404	9.4532	-6.16746	-2.31773	0.930441	-0.00980452	0.0868492	-0.893799	0.528564	0.165039	0.492615	-0.552892	-0.558191	-0.374251	9.15415	-6.24609	-3.22147	1.2553	0.0559845	-0.112705	-0.977051	0.615967	0.171875	
67	0.739117	0.0975816	0.133079	-0.653049	-2.91468	-0.0236268	10.6113	0.00700257	0.0663836	-0.0161978	0.352295	0.42041	-0.834229	0.560889	-0.469041	-0.458285	-0.50535	10.2592	-0.993039	1.22101	0.0991875	0.045044	0.0151227	-0.733154	0.373535	-0.131104	0.839498	0.15224	0.255173	-0.454922	-4.81916	0.492165	9.92307	0.00892645	-0.0172284	0.00097458	0.604736	0.217285	-0.664551	0.0798229	0.00730173	0.62925	-0.773058	-1.18046	-9.66503	2.49986	-0.0314081	-0.00244064	0.00503893	-0.281982	0.976562	-0.171143	0.548976	0.125287	0.306935	-0.76728	-5.09262	-3.04399	7.44034	0.0435837	0.0243871	-0.0142532	0.337402	0.657715	-0.63623	0.840286	0.530968	0.0765075	0.0783479	-2.49582	8.66115	7.41283	0.0585121	0.119446	-0.0191521	0.65918	-0.78125	-0.202637	0.643105	-0.407621	-0.441257	-0.474924	10.0957	-1.18888	3.0031	0.332353	0.0824907	0.0920836	-0.788086	0.491211	-0.321533	0.75421	-0.291457	-0.211053	-0.549251	6.08012	-3.10813	7.51053	-0.23066	0.0614567	-0.076094	-0.461914	0.608887	-0.702637	0.448617	-0.436226	-0.77606	-0.078612	6.52607	-2.9225	-5.71421	-0.218303	-0.0470649	0.119385	-0.853516	0.549316	0.336914	0.478981	-0.573205	-0.466379	-0.473819	9.38192	6.00304	-0.112278	1.18915	-0.0941284	-0.180859	-0.896484	0.539551	0.125977	0.507221	-0.535602	-0.572274	-0.358275	9.79124	4.78876	-2.39167	0.633718	-0.0530964	-0.136174	-0.986084	0.615967	0.137695	
68	0.739117	0.0975816	0.133079	-0.653049	-2.91468	-0.0236268	10.6113	0.00700257	0.0663836	-0.0161978	0.352295	0.42041	-0.834229	0.561876	-0.468725	-0.458476	-0.504373	10.1974	-0.759503	1.14283	0.0889469	0.0171293	0.0470184	-0.737549	0.373535	-0.124023	0.839995	0.152017	0.256767	-0.453178	-4.868	0.295319	9.55329	-0.0375965	0.0391442	0.0372328	0.606934	0.215088	-0.657471	0.0798229	0.00730173	0.62925	-0.773058	-1.18046	-9.66503	2.49986	-0.0314081	-0.00244064	0.00503893	-0.281982	0.976562	-0.171143	0.548976	0.125287	0.306935	-0.76728	-5.09262	-3.04399	7.44034	0.0435837	0.0243871	-0.0142532	0.337402	0.657715	-0.63623	0.839839	0.531284	0.0781192	0.079408	-2.43625	8.64163	7.60962	0.0546652	0.159153	-0.00797108	0.659424	-0.785645	-0.202393	0.643105	-0.407621	-0.441257	-0.474924	10.0957	-1.18888	3.0031	0.332353	0.0824907	0.0920836	-0.788086	0.491211	-0.321533	0.753739	-0.292144	-0.211624	-0.549312	5.74344	-3.59597	7.55694	-0.0267708	-0.0470521	-0.0445444	-0.466064	0.608887	-0.702637	0.444513	-0.438605	-0.777188	-0.0775389	6.29058	-3.13779	-5.33625	-0.0769065	-0.169144	0.0497001	-0.844482	0.551758	0.343506	0.471992	-0.577261	-0.463807	-0.47841	10.5269	-0.964048	-0.833388	-0.574647	-0.0403827	0.00256491	-0.898438	0.528564	0.137695	0.501479	-0.540108	-0.569798	-0.363499	9.89349	-2.31228	-2.09177	-0.408681	-0.00967223	-0.00274825	-0.981445	0.609375	0.153809	
69	0.744267	0.0949306	0.137869	-0.646565	-3.44205	-1.07893	10.6594	-0.183943	-0.0247535	0.179664	0.358398	0.429199	-0.825439	0.563149	-0.469862	-0.457854	-0.502457	9.5393	0.0877716	1.53652	-0.00953365	-0.00104212	0.092938	-0.729004	0.37793	-0.126465	0.841611	0.148903	0.25949	-0.449648	-5.19191	0.330631	9.62513	-0.203074	0.0996333	0.0369668	0.611084	0.212891	-0.659912	0.0798229	0.00730173	0.62925	-0.773058	-1.18046	-9.66503	2.49986	-0.0314081	-0.00244064	0.00503893	-0.281982	0.976562	-0.171143	0.552691	0.119161	0.309941	-0.764376	-4.64743	-3.35568	7.91426	-0.0634935	-0.143235	0.00330251	0.330811	0.659668	-0.624756	0.841018	0.528128	0.083461	0.0824822	-2.61843	8.77046	7.65607	-0.0602494	0.142148	-0.0484929	0.663574	-0.78125	-0.198242	0.644102	-0.406139	-0.442277	-0.473893	9.30425	0.0499225	2.22283	-0.127775	-0.0931822	-0.0440981	-0.783691	0.493408	-0.327881	0.754832	-0.291653	-0.21857	-0.545339	7.57171	-2.44047	7.68114	0.254867	-0.228921	0.0730549	-0.468018	0.602295	-0.702393	0.442441	-0.437813	-0.778955	-0.0761206	6.3919	-3.24819	-5.32399	0.0551441	-0.227117	-0.0955598	-0.841797	0.544922	0.350342	0.466501	-0.58295	-0.45882	-0.481696	9.34093	-2.03914	-1.55552	-0.348387	-0.0204379	0.0315092	-0.905029	0.530518	0.151123	0.498674	-0.54292	-0.567601	-0.366594	9.3896	-1.89791	-2.22688	-0.237974	0.0257944	-0.00259183	-0.988037	0.607178	0.158447	
70	0.745209	0.094113	0.138477	-0.645469	-3.23957	-1.65901	10.6755	-0.0977224	-0.0117643	0.0996655	0.363281	0.422607	-0.825439	0.563787	-0.470752	-0.458007	-0.500766	9.73185	-0.590708	1.25102	0.0325935	-0.0545457	0.0173262	-0.724609	0.37793	-0.126465	0.841776	0.148318	0.26181	-0.448186	-5.09894	0.327276	9.12961	-0.153426	0.157142	0.0636586	0.613037	0.22583	-0.65332	0.0798229	0.00730173	0.62925	-0.773058	-1.18046	-9.66503	2.49986	-0.0314081	-0.00244064	0.00503893	-0.281982	0.976562	-0.171143	0.552691	0.119161	0.309941	-0.764376	-4.64743	-3.35568	7.91426	-0.0634935	-0.143235	0.00330251	0.330811	0.659668	-0.624756	0.841174	0.527437	0.0859256	0.0827835	-2.61023	8.86236	7.92767	-0.0101713	0.0782115	-0.0524386	0.667725	-0.78125	-0.202637	0.642617	-0.408894	-0.441053	-0.47468	9.76111	-2.13768	2.55936	-0.087498	0.0215739	0.0156848	-0.785889	0.493164	-0.315186	0.756106	-0.29138	-0.222298	-0.542204	8.38458	-1.50914	8.04628	0.058098	-0.0613282	0.0304449	-0.474365	0.598145	-0.704834	0.440685	-0.432954	-0.783172	-0.070632	7.9032	-2.21385	-5.63583	0.115804	-0.0712362	-0.0562349	-0.846436	0.547119	0.345947	0.469742	-0.581169	-0.46213	-0.477515	9.58004	-3.83857	-1.62564	0.568161	-0.0750766	0.0394039	-0.89624	0.532959	0.151123	0.505638	-0.536163	-0.571749	-0.360503	9.3236	-3.55849	-2.07445	0.780407	0.0498853	-0.0398509	-0.986084	0.611572	0.135498	
71	0.744487	0.0949594	0.13711	-0.646469	-3.28886	-0.993023	10.659	0.0692247	-0.0205154	-0.0395854	0.362793	0.429199	-0.827637	0.563911	-0.469676	-0.458853	-0.500862	9.72622	-1.1757	1.14141	0.0630635	0.0479129	-0.0800726	-0.733643	0.386719	-0.126709	0.842191	0.148574	0.26446	-0.445758	-5.20292	0.461206	8.66171	-0.0656771	0.10759	0.076684	0.613037	0.22583	-0.648682	0.0798229	0.00730173	0.62925	-0.773058	-1.18046	-9.66503	2.49986	-0.0314081	-0.00244064	0.00503893	-0.281982	0.976562	-0.171143	0.55412	0.117019	0.30911	-0.764008	-4.99352	-3.28101	8.22027	-0.02298	-0.0635651	0.0151677	0.332764	0.664062	-0.622559	0.840959	0.52769	0.0858815	0.0834007	-2.69664	8.82907	7.76979	0.0174513	0.013338	0.0159783	0.661377	-0.785645	-0.197998	0.643994	-0.40672	-0.441337	-0.474418	9.71455	-1.88434	2.74452	0.172668	0.0613186	-0.0334343	-0.781738	0.493408	-0.325684	0.755262	-0.292826	-0.221916	-0.542758	7.53672	-1.91376	7.86756	-0.0995554	0.0114679	-0.0448363	-0.481201	0.608887	-0.697754	0.440274	-0.434169	-0.782729	-0.0706486	7.35272	-2.68699	-5.56796	-0.0557576	0.0171195	0.0421194	-0.848877	0.549316	0.352539	0.485123	-0.568429	-0.476134	-0.463508	9.53144	1.12212	-0.67642	1.20698	-0.0433335	-0.0431039	-0.896484	0.537354	0.114502	0.519244	-0.521126	-0.581961	-0.346606	9.59283	1.26387	-2.60565	1.03157	0.0168323	-0.108668	-0.990723	0.615723	0.105957	
72	0.744487	0.0949594	0.13711	-0.646469	-3.28886	-0.993023	10.659	0.0692247	-0.0205154	-0.0395854	0.362793	0.429199	-0.827637	0.563435	-0.467277	-0.462716	-0.500087	10.1629	-0.926267	1.23367	0.138418	-0.0876967	-0.126068	-0.733398	0.375732	-0.128662	0.843628	0.149068	0.257943	-0.446695	-5.38845	0.45387	9.77717	0.106399	-0.239152	0.0305846	0.606934	0.212891	-0.653076	0.0855341	-0.000445872	0.630596	-0.771384	-0.892435	-9.45718	1.97691	-0.0201946	-0.068129	-0.00215364	-0.28418	0.976318	-0.151367	0.555006	0.119931	0.308976	-0.762967	-5.12565	-3.28188	7.78868	0.0339893	0.0561122	0.0534145	0.3396	0.655273	-0.622559	0.841795	0.526388	0.083795	0.0852936	-2.45235	8.68956	7.5533	-0.101512	-0.0238621	0.0961017	0.655029	-0.785645	-0.202393	0.646803	-0.402922	-0.444186	-0.471168	9.77814	-0.511165	2.83605	0.254516	0.00807726	0.0174277	-0.789795	0.482422	-0.325439	0.754515	-0.295221	-0.220222	-0.543189	6.70428	-3.13804	7.77951	-0.0995264	0.0178437	0.0101703	-0.474854	0.606689	-0.702637	0.440086	-0.435548	-0.782004	-0.0713573	6.8737	-3.16298	-5.40623	-0.0355046	0.0210147	0.00122983	-0.844238	0.546875	0.356934	0.484986	-0.567003	-0.478639	-0.462819	10.0676	1.56035	-0.329046	-0.342499	-0.00447437	-0.0369887	-0.898682	0.537354	0.119141	0.518232	-0.521477	-0.581792	-0.347873	9.85673	0.255925	-2.26111	-0.356048	0.00126391	-0.00136831	-0.99292	0.615723	0.112793	
73	0.744487	0.0949594	0.13711	-0.646469	-3.28886	-0.993023	10.659	0.0692247	-0.0205154	-0.0395854	0.362793	0.429199	-0.827637	0.562709	-0.467479	-0.464073	-0.499458	9.87146	-0.016642	1.24516	-0.026254	-0.0364641	0.000273813	-0.733398	0.375732	-0.126465	0.845199	0.146435	0.253848	-0.446941	-5.2435	0.418529	10.3868	-0.0215605	-0.19921	0.0169612	0.598389	0.213135	-0.664307	0.0855341	-0.000445872	0.630596	-0.771384	-0.892435	-9.45718	1.97691	-0.0201946	-0.068129	-0.00215364	-0.28418	0.976318	-0.151367	0.556115	0.120095	0.307772	-0.76262	-4.74093	-3.05582	7.35516	0.0298665	-0.0295748	0.0422467	0.341797	0.655518	-0.629395	0.843339	0.523832	0.0826815	0.0868476	-2.24232	8.67249	7.74694	-0.0991687	0.0133841	0.0113093	0.65918	-0.785645	-0.20459	0.646397	-0.402531	-0.444602	-0.471666	9.89803	-0.357758	2.71166	-0.0926602	0.0256919	-0.0602243	-0.790039	0.489014	-0.332031	0.755895	-0.295276	-0.222288	-0.540392	7.1873	-2.86748	7.82244	0.13589	-0.0790475	0.0927293	-0.474854	0.608887	-0.704834	0.441201	-0.432953	-0.782972	-0.0696317	7.16322	-3.04559	-5.59229	0.177229	1.78372e-05	-0.107534	-0.846436	0.547119	0.348145	0.476035	-0.574415	-0.471669	-0.47007	9.67413	-0.33507	-0.749553	-0.660997	0.0198857	-0.0112491	-0.89624	0.532959	0.137451	0.507071	-0.532175	-0.575486	-0.358447	9.61212	-0.205906	-1.98839	-0.94743	-0.0579073	-0.00212402	-0.992432	0.604736	0.135742	
74	0.744487	0.0949594	0.13711	-0.646469	-3.28886	-0.993023	10.659	0.0692247	-0.0205154	-0.0395854	0.362793	0.429199	-0.827637	0.562663	-0.469638	-0.463355	-0.49815	9.94136	-0.658895	1.26338	-0.0530381	-0.0451327	0.0676976	-0.735596	0.37793	-0.116943	0.845378	0.14585	0.255204	-0.446021	-4.8773	0.542512	9.93476	-0.0578689	0.0951193	0.0127256	0.604736	0.212891	-0.664307	0.0871056	0.002603	0.626472	-0.774557	-1.20011	-9.84093	2.19979	0.108798	0.0224755	0.0579633	-0.283936	0.969727	-0.160156	0.556938	0.11719	0.306861	-0.762838	-4.68902	-2.78153	7.70145	-0.0392163	-0.115792	-0.0181479	0.331055	0.653076	-0.626953	0.843812	0.523016	0.0832154	0.0866588	-2.09809	8.69708	8.03432	-0.0566871	0.0334179	-0.0594115	0.659424	-0.787842	-0.20459	0.645552	-0.404626	-0.4421	-0.473378	9.66419	-1.54594	2.93068	-0.0767748	0.0691584	0.0196151	-0.779541	0.495605	-0.330078	0.758259	-0.293779	-0.224694	-0.536889	7.74207	-1.8226	7.97151	0.154159	-0.0176006	0.0858018	-0.472412	0.604492	-0.704834	0.442786	-0.429013	-0.784514	-0.0665371	7.3989	-2.33236	-5.83039	0.183906	-0.0107638	-0.105595	-0.848877	0.547119	0.345947	0.465925	-0.582015	-0.464142	-0.478272	9.69358	-2.99625	-1.57447	-0.603932	0.00615795	-0.012838	-0.900635	0.528564	0.155762	0.499973	-0.538821	-0.57118	-0.365311	9.78073	-1.74054	-2.29112	-1.00923	-0.0425309	0.00483125	-0.992188	0.600342	0.151611	
75	0.748136	0.0910316	0.132402	-0.643797	-3.00425	-0.331239	10.7547	-0.00507049	-0.0563691	0.037712	0.349854	0.427002	-0.834229	0.562747	-0.470642	-0.462819	-0.497604	9.60836	-1.24597	1.23186	-0.0129188	-0.0112567	0.00522192	-0.733643	0.382324	-0.124268	0.845378	0.14585	0.255204	-0.446021	-4.8773	0.542512	9.93476	-0.0578689	0.0951193	0.0127256	0.604736	0.212891	-0.664307	0.0873087	0.00107545	0.6262	-0.774758	-1.33416	-9.69716	2.50207	0.0160168	-0.0976051	-0.0612228	-0.286133	0.971924	-0.157959	0.556938	0.11719	0.306861	-0.762838	-4.68902	-2.78153	7.70145	-0.0392163	-0.115792	-0.0181479	0.331055	0.653076	-0.626953	0.844071	0.522461	0.0856151	0.085138	-2.26072	8.55906	8.2194	0.0249392	0.051445	-0.129562	0.661377	-0.783447	-0.208984	0.645499	-0.404748	-0.441186	-0.474199	9.2365	-1.84615	2.81738	-0.0212465	-0.00134619	-0.0349369	-0.779297	0.486816	-0.332031	0.759036	-0.292712	-0.22538	-0.536086	7.8031	-1.17018	7.78927	0.0242468	0.0365483	-0.0278589	-0.468018	0.600342	-0.707031	0.442952	-0.42853	-0.784746	-0.0658064	7.21899	-1.87024	-5.90031	-0.0389474	0.00196858	0.0030821	-0.848877	0.547119	0.345947	0.464662	-0.583328	-0.462842	-0.479161	9.28165	-4.39309	-1.76954	-0.18994	0.00772079	0.0299705	-0.902588	0.52417	0.158203	0.496436	-0.542443	-0.568683	-0.368656	9.12632	-4.57517	-2.06517	0.0733506	0.0143152	0.0109121	-0.98999	0.600342	0.154053	
76	0.748136	0.0910316	0.132402	-0.643797	-3.00425	-0.331239	10.7547	-0.00507049	-0.0563691	0.037712	0.349854	0.427002	-0.834229	0.562798	-0.470346	-0.463234	-0.497441	9.56228	-0.988661	1.19475	0.0324247	0.00238034	-0.0352786	-0.733398	0.37793	-0.121826	0.844134	0.145013	0.259955	-0.445907	-4.89492	0.307836	8.85155	-0.0264312	0.0811914	-0.0524996	0.606689	0.219482	-0.655518	0.0867866	-0.00235082	0.627342	-0.773889	-0.745322	-9.16964	2.09973	-0.0460886	-0.0178541	-0.0369211	-0.292969	0.971924	-0.157959	0.554779	0.115212	0.307614	-0.764408	-4.86321	-3.33454	8.10115	-0.0429045	0.0767374	-0.102249	0.335205	0.659912	-0.624756	0.843674	0.523201	0.0864755	0.0836464	-2.76286	8.65495	7.89577	0.0476503	-0.0184922	-0.0557912	0.66333	-0.776855	-0.198242	0.645518	-0.404562	-0.442323	-0.473272	9.49367	-1.67993	2.67777	0.0969367	-0.0662698	-0.0103694	-0.785889	0.493408	-0.332275	0.758366	-0.292869	-0.224674	-0.537243	7.66364	-1.31544	7.72938	-0.0753834	0.0748767	-0.0986018	-0.474854	0.606689	-0.707275	0.442155	-0.430276	-0.784153	-0.0668221	7.15041	-2.09081	-5.85624	-0.154945	0.00578872	0.0682726	-0.848877	0.549316	0.348145	0.473578	-0.576528	-0.470419	-0.471217	8.99071	-1.76314	-1.79156	0.838286	-0.0311305	-0.00275306	-0.898438	0.530762	0.135254	0.507942	-0.531116	-0.575974	-0.358001	9.0217	-1.40042	-2.62294	0.938959	0.0590033	-0.0553753	-0.990234	0.604736	0.131104	
77	0.748136	0.0910316	0.132402	-0.643797	-3.00425	-0.331239	10.7547	-0.00507049	-0.0563691	0.037712	0.349854	0.427002	-0.834229	0.562878	-0.469411	-0.464768	-0.496802	9.85574	-0.526947	1.24338	0.0545203	-0.016488	-0.0431137	-0.733398	0.380127	-0.131104	0.8441	0.145257	0.259168	-0.446349	-5.00748	0.218352	9.36836	0.0375096	-0.0383614	0.00658763	0.606689	0.219482	-0.650879	0.0867866	-0.00235082	0.627342	-0.773889	-0.745322	-9.16964	2.09973	-0.0460886	-0.0178541	-0.0369211	-0.292969	0.971924	-0.157959	0.554003	0.117406	0.308184	-0.764408	-4.98529	-3.38054	7.59932	0.0476561	0.0878294	0.0156677	0.337402	0.659912	-0.629395	0.843318	0.523842	0.085499	0.0842256	-2.68488	8.47607	7.72796	0.0176175	-0.00990891	0.0536501	0.661133	-0.779053	-0.202637	0.648071	-0.402201	-0.443704	-0.470494	9.49914	-1.0482	2.99387	0.174949	0.0324015	0.0466948	-0.7771	0.489014	-0.332031	0.755632	-0.294211	-0.221788	-0.541544	7.16872	-1.92062	7.65881	-0.185196	0.109048	-0.179753	-0.476807	0.604492	-0.704834	0.439957	-0.435556	-0.782268	-0.0691767	6.83975	-2.49413	-5.7257	-0.214417	-0.00398847	0.141022	-0.839844	0.556152	0.3479	0.483411	-0.568188	-0.479578	-0.46204	9.82079	-1.48376	-1.09481	0.796333	-0.0255293	0.00687188	-0.898682	0.537354	0.121338	0.520479	-0.516934	-0.584845	-0.346176	9.37546	-2.03958	-2.5842	1.14787	0.0546324	-0.108031	-0.992676	0.609131	0.0947266	
78	0.748136	0.0910316	0.132402	-0.643797	-3.00425	-0.331239	10.7547	-0.00507049	-0.0563691	0.037712	0.349854	0.427002	-0.834229	0.563396	-0.46937	-0.464781	-0.496241	9.98218	-0.502329	1.00569	0.00697014	0.0230811	0.0245031	-0.735596	0.375732	-0.124023	0.844698	0.144757	0.258048	-0.44603	-5.3166	0.331645	10.11	-0.0173781	-0.0450501	0.0279243	0.602539	0.22168	-0.657715	0.0859534	-0.000862821	0.627774	-0.773635	-0.726059	-9.28037	2.20212	-0.00997274	0.0486082	0.00975348	-0.286133	0.969727	-0.160156	0.554727	0.118688	0.308736	-0.763461	-5.12017	-3.162	7.38097	-0.0204252	0.0325252	0.0444764	0.337402	0.657715	-0.626953	0.843552	0.523217	0.0851124	0.0861386	-2.31751	8.97008	7.63044	-0.0355382	0.0446611	0.0411624	0.659424	-0.785645	-0.202393	0.648661	-0.401641	-0.445333	-0.468617	9.78244	-0.653167	2.77778	0.0735093	-0.0551188	-0.00117041	-0.779541	0.493408	-0.332275	0.752227	-0.295238	-0.219797	-0.546514	7.19333	-2.30827	7.43503	-0.138716	0.0842965	-0.216862	-0.47876	0.602295	-0.702393	0.437409	-0.441417	-0.780181	-0.0717098	6.59945	-2.52668	-5.62568	-0.256245	-0.00574335	0.147398	-0.837646	0.55835	0.361328	0.491485	-0.560987	-0.486841	-0.454667	10.1338	1.12928	-0.320884	0.28454	0.0121065	-0.00761038	-0.90332	0.537109	0.105469	0.530393	-0.505436	-0.591948	-0.335879	10.0934	0.733103	-1.86494	0.428867	0.0399353	-0.0506971	-0.99707	0.606934	0.0742188	
79	0.748136	0.0910316	0.132402	-0.643797	-3.00425	-0.331239	10.7547	-0.00507049	-0.0563691	0.037712	0.349854	0.427002	-0.834229	0.564342	-0.470154	-0.464276	-0.494895	10.0534	-0.958219	1.21965	-0.00563013	-0.00129322	0.0568161	-0.731445	0.382324	-0.126709	0.845026	0.143389	0.259219	-0.44517	-5.09385	0.460476	10.0983	-0.0896695	0.0413824	0.00213043	0.604492	0.223633	-0.650879	0.0859534	-0.000862821	0.627774	-0.773635	-0.726059	-9.28037	2.20212	-0.00997274	0.0486082	0.00975348	-0.286133	0.969727	-0.160156	0.555628	0.117545	0.308683	-0.763004	-4.985	-2.9376	7.58038	-0.0443795	-0.0563928	-0.00421838	0.34375	0.662109	-0.626953	0.843902	0.522204	0.0867731	0.0871893	-2.19077	8.86952	7.8532	-0.00584785	0.0959864	-0.0438063	0.665527	-0.78125	-0.20459	0.647918	-0.403423	-0.445382	-0.468068	10.0314	-1.26891	2.71288	-0.0477561	0.0148958	0.0247307	-0.783691	0.489014	-0.329834	0.749162	-0.296416	-0.219501	-0.550193	7.15363	-2.72547	7.63997	-0.0968118	0.00747672	-0.161217	-0.485596	0.608643	-0.690918	0.434208	-0.44691	-0.778539	-0.0749105	6.79836	-3.25762	-5.86243	-0.208123	-0.0273684	0.0973603	-0.828125	0.551758	0.36377	0.491182	-0.56121	-0.486901	-0.454655	9.87176	-0.169224	-1.12311	-0.00329179	-0.0219269	-0.0168097	-0.894531	0.541748	0.107666	0.532421	-0.50279	-0.593276	-0.334295	9.79895	-0.267803	-2.29951	0.122605	0.0295127	-0.0275933	-0.994873	0.609131	0.0695801	
80	0.748136	0.0910316	0.132402	-0.643797	-3.00425	-0.331239	10.7547	-0.00507049	-0.0563691	0.037712	0.349854	0.427002	-0.834229	0.564743	-0.471801	-0.463199	-0.493878	9.63125	-0.682094	1.0935	-0.0264449	-0.0404454	0.0608275	-0.729248	0.384521	-0.124268	0.84457	0.142132	0.263075	-0.444174	-5.18319	0.397323	9.64157	-0.130054	0.153915	-0.0134881	0.613037	0.227783	-0.646484	0.0859534	-0.000862821	0.627774	-0.773635	-0.726059	-9.28037	2.20212	-0.00997274	0.0486082	0.00975348	-0.286133	0.969727	-0.160156	0.55577	0.114513	0.309655	-0.762968	-4.90604	-3.19713	7.9837	-0.0998847	-0.0547529	-0.0618638	0.334961	0.66626	-0.620117	0.843681	0.522037	0.09021	0.0868463	-2.43934	8.8103	7.89765	0.0423442	0.108332	-0.10692	0.669922	-0.78125	-0.198242	0.648143	-0.40401	-0.445166	-0.467454	9.5086	-0.982624	2.84205	0.0349241	-0.0180706	0.0174749	-0.785889	0.491211	-0.330078	0.747792	-0.297099	-0.219877	-0.551537	7.32575	-2.87946	7.77303	-0.0245749	0.00159633	-0.0646196	-0.483154	0.602295	-0.688477	0.432777	-0.448877	-0.778294	-0.0739681	7.08792	-2.95661	-5.73461	-0.0112548	-0.0661566	0.0405901	-0.830811	0.560791	0.374756	0.489598	-0.562013	-0.48628	-0.456035	9.73648	0.0698092	-0.291999	-0.0976084	0.0222242	-0.0410357	-0.90332	0.541504	0.114502	0.528761	-0.506357	-0.590677	-0.339286	9.70166	-0.000141182	-1.9409	-0.45648	0.0205215	-0.0312516	-0.999512	0.613525	0.083252	
81	0.746855	0.0901089	0.139415	-0.643935	-3.08603	-0.655196	10.7077	-0.0202181	-0.00097793	-0.0562473	0.360107	0.437744	-0.819092	0.564146	-0.473878	-0.462705	-0.493034	9.70985	-0.462032	1.04634	-0.0852679	-0.00233847	0.0253924	-0.724854	0.382324	-0.114746	0.843725	0.141527	0.267391	-0.443396	-5.44563	0.253939	8.94801	-0.0788591	0.148023	-0.0194492	0.615234	0.234375	-0.644531	0.0859534	-0.000862821	0.627774	-0.773635	-0.726059	-9.28037	2.20212	-0.00997274	0.0486082	0.00975348	-0.286133	0.969727	-0.160156	0.55485	0.112969	0.310064	-0.763701	-4.94492	-3.50793	8.0533	-0.0071684	-0.0135229	-0.0807958	0.330322	0.668457	-0.622559	0.84327	0.522467	0.0926009	0.0857242	-2.77986	8.83012	7.71889	0.0584009	0.0434107	-0.0961836	0.671875	-0.776855	-0.196289	0.648045	-0.40422	-0.446765	-0.46588	9.79578	-0.719899	2.62419	0.0680711	-0.054278	-0.0072146	-0.78125	0.486816	-0.329834	0.748012	-0.297264	-0.220436	-0.550926	7.04483	-2.73085	7.87215	0.0314834	-0.0032641	0.0216741	-0.485596	0.61084	-0.693115	0.430636	-0.44908	-0.779483	-0.0727105	6.9956	-3.1208	-5.7678	0.0336716	-0.111707	-0.045451	-0.830811	0.560547	0.376953	0.480461	-0.568987	-0.479429	-0.464282	10.0009	-1.12042	-1.29325	-0.935259	0.0330744	-0.0117317	-0.898438	0.532959	0.133057	0.516221	-0.519613	-0.582038	-0.3532	10.0787	-2.36443	-1.81416	-1.10018	0.0153074	0.0461441	-0.999268	0.604736	0.110596	
82	0.746468	0.0898267	0.139786	-0.644342	-3.18408	-0.598147	10.7422	-0.0264228	0.00515366	-0.0511971	0.355957	0.435547	-0.825684	0.562501	-0.475709	-0.463475	-0.492427	9.90331	-0.476017	1.30896	-0.0426492	-0.0612627	-0.0325848	-0.731689	0.388916	-0.117432	0.842859	0.141087	0.269064	-0.44417	-5.30307	0.16619	8.74311	-0.0304014	0.057185	-0.0550481	0.61084	0.234375	-0.637695	0.0822507	-0.00902227	0.628739	-0.773202	-0.964133	-9.71983	2.03623	-0.0173576	-0.0379557	-0.0790736	-0.303955	0.97168	-0.153564	0.553843	0.112581	0.309621	-0.764669	-4.87357	-3.46827	8.10535	0.0292382	-0.00235514	-0.0644794	0.326172	0.668457	-0.622559	0.8428	0.523327	0.0931757	0.0844738	-2.76799	8.62605	7.70492	0.0577854	-0.0230999	-0.0498547	0.669678	-0.774902	-0.189941	0.646065	-0.406262	-0.444885	-0.468645	9.87129	-1.07756	2.81608	-0.214364	0.0881819	-0.0672579	-0.783691	0.491211	-0.323486	0.749723	-0.29637	-0.221842	-0.548514	7.91267	-2.12084	7.86604	0.124159	-0.0199712	0.074287	-0.485352	0.604492	-0.695557	0.429235	-0.447049	-0.781665	-0.070031	7.22067	-2.61759	-6.01629	0.10591	-0.106059	-0.0800712	-0.828369	0.556152	0.379395	0.477192	-0.573097	-0.475583	-0.466549	9.12538	-3.35217	-1.95234	0.0824771	-0.0139856	0.0488608	-0.898682	0.537354	0.13501	0.51399	-0.52251	-0.579656	-0.356084	9.11819	-4.47078	-2.63952	-0.411578	0.0411226	0.0476274	-0.994629	0.602539	0.108398	
83	0.745593	0.0893884	0.138921	-0.645602	-3.12965	-0.892273	10.6631	0.0201097	-0.0382655	-0.0599486	0.360352	0.435791	-0.819092	0.562376	-0.475227	-0.463398	-0.493108	9.82115	-0.763192	1.18522	-0.0169511	0.0573039	-0.0685334	-0.731445	0.384521	-0.11499	0.842547	0.141526	0.268652	-0.444872	-4.76532	-0.118659	8.8911	0.0645169	-0.00597242	-0.0433874	0.617432	0.232178	-0.64209	0.081655	-0.0080517	0.629645	-0.772538	-0.511168	-9.17339	1.98716	-0.0420808	0.0522565	0.0102509	-0.303955	0.969727	-0.160156	0.553369	0.113248	0.30905	-0.765144	-5.07053	-3.31902	8.09577	0.0790906	0.0312423	-0.0415858	0.326172	0.668457	-0.622559	0.842679	0.523696	0.0924278	0.0842087	-2.72211	8.76547	7.73564	0.0395789	-0.0597204	0.000805811	0.671875	-0.774902	-0.189941	0.645738	-0.406822	-0.443172	-0.470231	9.33761	-1.58737	2.57915	-0.14868	0.122693	-0.0340489	-0.783936	0.497559	-0.325928	0.750502	-0.295792	-0.222157	-0.547631	8.05855	-1.68409	7.82035	0.0840705	0.0236485	0.0507733	-0.485352	0.604492	-0.697754	0.4286	-0.446753	-0.782269	-0.0690616	7.40195	-2.35998	-5.974	0.0524975	-0.0841506	-0.0318506	-0.828369	0.556152	0.379395	0.479988	-0.570567	-0.478016	-0.464291	9.6808	-1.65397	-0.908809	0.401255	0.018786	-0.0159573	-0.898682	0.537354	0.132812	0.518314	-0.518022	-0.581882	-0.352729	9.58679	-1.32606	-2.14348	0.369735	0.055446	-0.0369863	-0.994629	0.602539	0.10376	
84	0.744297	0.0916489	0.136871	-0.647216	-2.98964	-0.234368	10.7045	0.134909	-0.00343049	-0.0625816	0.355957	0.433594	-0.827881	0.56242	-0.472708	-0.4642	-0.494721	9.91964	-1.22748	1.0995	0.0418351	0.0764221	-0.12341	-0.735596	0.380127	-0.121826	0.843101	0.142923	0.265527	-0.445251	-5.10611	0.146613	9.31653	0.104508	-0.0849344	0.0299128	0.615234	0.22998	-0.644287	0.0824019	-0.00527329	0.62916	-0.772877	-0.58404	-9.39089	2.0144	0.0318083	0.0694552	0.0937318	-0.297363	0.969727	-0.15332	0.552843	0.116569	0.307469	-0.765663	-5.00581	-3.48555	7.80166	0.136713	0.0853853	0.0294754	0.337402	0.657715	-0.624756	0.843048	0.523623	0.0890283	0.0846338	-2.72958	8.71362	7.56486	-0.0269249	-0.114182	0.0888929	0.661377	-0.78125	-0.198242	0.647251	-0.404314	-0.44555	-0.468062	9.76498	-1.81715	2.89357	0.247254	-0.0494731	-0.0179982	-0.781494	0.489014	-0.329834	0.750682	-0.295316	-0.2207	-0.54823	7.15336	-2.2252	7.76252	-0.0371836	0.0918071	-0.0370226	-0.480957	0.602295	-0.695312	0.427065	-0.448227	-0.782322	-0.0684136	6.8405	-2.68062	-5.57487	-0.0442917	-0.0449346	0.0422328	-0.821289	0.556152	0.381592	0.48202	-0.56799	-0.481024	-0.462234	9.80079	0.582789	-0.71853	0.00674786	4.29184e-05	-0.0336696	-0.898682	0.535156	0.125977	0.518188	-0.517563	-0.581938	-0.353494	9.76337	-0.183687	-2.17447	-0.182959	0.018848	-0.0242825	-0.999023	0.600342	0.101562	
85	0.744291	0.0923958	0.136378	-0.64722	-3.13749	0.365089	10.7921	0.0719316	0.00563545	0.01018	0.354004	0.431396	-0.825684	0.561906	-0.471817	-0.464594	-0.495784	9.94516	-0.677505	1.11606	-0.0271095	0.0300345	-0.0490763	-0.737793	0.380127	-0.119385	0.844142	0.142777	0.262278	-0.445252	-5.22016	0.187118	10.1293	0.0460394	-0.0948258	0.0301784	0.61084	0.230225	-0.646484	0.0828868	-0.0042232	0.628581	-0.773303	-0.916729	-9.62523	2.15262	0.0638396	0.0461366	0.0831635	-0.295166	0.971924	-0.157959	0.552796	0.119753	0.306868	-0.765446	-4.8469	-3.18462	7.47171	0.0856459	0.0895839	0.0378662	0.337158	0.662109	-0.626953	0.843805	0.522808	0.0854653	0.0857935	-2.36168	8.6213	7.78953	-0.0419352	-0.0730515	0.0783015	0.656982	-0.78125	-0.202393	0.646801	-0.403677	-0.446685	-0.46815	9.79039	-0.378426	2.80695	-0.0439321	0.0145258	-0.0597175	-0.78125	0.486816	-0.327637	0.751185	-0.295389	-0.219495	-0.547986	6.86476	-2.50351	7.50493	0.00314406	0.0512588	0.0391968	-0.483398	0.608887	-0.697754	0.426453	-0.448057	-0.782807	-0.0677979	6.40765	-2.85127	-5.53306	0.0392501	-0.0272233	-0.057756	-0.825928	0.556152	0.385986	0.477844	-0.571018	-0.478472	-0.465476	9.57819	-0.68763	-1.31305	-0.301669	-0.0067046	-0.0181165	-0.89624	0.528564	0.133057	0.514581	-0.521063	-0.579375	-0.357804	9.56553	-0.937203	-1.99506	-0.321219	0.0277057	-0.012681	-0.998779	0.595947	0.11084	
86	0.746651	0.0911873	0.136068	-0.644735	-3.13871	-0.422993	10.7056	-0.032897	-0.0306977	0.0861517	0.356201	0.431396	-0.827637	0.562102	-0.471929	-0.463613	-0.496374	9.73847	-0.430832	1.29763	-0.0401464	0.0759947	0.00382464	-0.735596	0.37793	-0.124023	0.844292	0.142484	0.263055	-0.444603	-4.87033	0.214919	9.90549	-0.0527168	0.0778009	0.0179077	0.615234	0.227783	-0.65332	0.0832687	-0.00442819	0.627982	-0.773748	-1.06501	-9.81223	2.34062	0.019076	-0.00894796	0.00449076	-0.299316	0.967529	-0.159912	0.553058	0.119763	0.306562	-0.765378	-4.87678	-3.04661	7.45422	0.00137926	-0.029217	-0.0103812	0.3396	0.657715	-0.631592	0.844012	0.522501	0.0850827	0.086013	-2.29595	8.64606	7.82186	0.00447954	0.0144944	-0.0277243	0.654785	-0.779053	-0.202637	0.644173	-0.407393	-0.445983	-0.469224	9.29072	-0.924832	2.65095	-0.157435	-0.0858097	-0.00875345	-0.785889	0.491211	-0.321533	0.752505	-0.295025	-0.219661	-0.546301	7.5599	-2.20525	7.65037	0.0546518	0.0040175	0.0475594	-0.472656	0.606689	-0.700195	0.426744	-0.446487	-0.783582	-0.0673685	6.85274	-2.47683	-5.81377	0.0308348	0.0139762	-0.0722592	-0.82373	0.556152	0.381592	0.475666	-0.57337	-0.476264	-0.467078	9.40701	-2.72488	-1.58747	0.0294798	-0.0176025	0.0383078	-0.900879	0.535156	0.137451	0.514918	-0.521199	-0.578137	-0.359122	9.32357	-2.41355	-2.35528	0.144344	0.0700914	-0.00661245	-0.996582	0.598145	0.108398	
