40	Head	00b4120a												Throax	00b411e8												LUpArm	00b411d9												LFoArm	00b41148												RUpArm	00b411db												RFoArm	00b41204												Waist	00b411f7												Lthigh	00b411f4												Lshank	00b4111b												Rthigh	00b411c8												Rshank	00b411ee												
PacketCount	q0	q1	q2	q3	accX	accY	accZ	gyrX	gyrY	gyrZ	magX	magY	magZ	q0	q1	q2	q3	accX	accY	accZ	gyrX	gyrY	gyrZ	magX	magY	magZ	q0	q1	q2	q3	accX	accY	accZ	gyrX	gyrY	gyrZ	magX	magY	magZ	q0	q1	q2	q3	accX	accY	accZ	gyrX	gyrY	gyrZ	magX	magY	magZ	q0	q1	q2	q3	accX	accY	accZ	gyrX	gyrY	gyrZ	magX	magY	magZ	q0	q1	q2	q3	accX	accY	accZ	gyrX	gyrY	gyrZ	magX	magY	magZ	q0	q1	q2	q3	accX	accY	accZ	gyrX	gyrY	gyrZ	magX	magY	magZ	q0	q1	q2	q3	accX	accY	accZ	gyrX	gyrY	gyrZ	magX	magY	magZ	q0	q1	q2	q3	accX	accY	accZ	gyrX	gyrY	gyrZ	magX	magY	magZ	q0	q1	q2	q3	accX	accY	accZ	gyrX	gyrY	gyrZ	magX	magY	magZ	q0	q1	q2	q3	accX	accY	accZ	gyrX	gyrY	gyrZ	magX	magY	magZ	
0	0.191278	0.396068	0.0693692	-0.895394	-7.29176	0.704377	7.85956	0.00592523	0.00493627	0.0018504	0.533691	0.197754	-0.987793	0.160081	-0.0289286	0.0189072	-0.986499	0.576205	-0.424078	10.0792	-0.014594	0.0214024	-0.0198155	-0.282959	0.177734	-0.94458	0.150192	0.170196	-0.465429	-0.855483	-1.37144	8.58032	5.46507	0.00678148	-0.00238087	-0.0011933	-0.250977	-0.819336	-0.758057	-0.479819	0.438628	-0.423547	-0.630862	-9.3874	1.01063	2.56681	0.00909685	0.0181341	-0.00793563	0.9104	-0.484863	-0.3479	0.0926992	0.121992	0.437639	-0.886	-2.83991	-7.41281	5.76928	0.00637578	0.000674247	-0.00824479	0.0244141	1.00171	-0.607178	0.791024	0.0193332	0.442681	-0.42183	-6.85776	-5.21723	8.29389	0.00193091	0.0139197	-0.0117639	0.727539	0.810547	-0.256348	0.017164	-0.229772	-0.0911767	-0.968812	4.64635	1.8615	9.19081	0.0165912	0.0167681	-0.0221424	-0.794434	-0.0427246	-0.761963	0.18758	0.879175	0.189595	-0.394866	-6.80504	1.89234	-5.36469	-0.00170892	0.0123267	-0.00933988	0.945801	0.138916	0.581055	0.070027	-0.0317962	0.154252	-0.985034	0.68628	-2.86108	10.1562	0.0241919	0.0200251	-0.0182551	-0.439941	0.429443	-0.861816	-0.0430491	-0.0467519	0.163316	-0.984525	1.08614	-3.16462	9.91436	0.019343	0.00960704	0.00378792	-0.479004	0.279053	-0.923096	-0.00448312	-0.092057	0.299962	-0.949488	1.74558	-5.57826	7.89512	-0.011102	0.01288	-0.00534467	-0.625732	0.514404	-0.828369	
1	0.191983	0.39561	0.0691175	-0.895465	-7.1232	0.725929	7.86967	0.0198107	-0.0082754	-0.00520313	0.533936	0.195557	-0.98999	0.159988	-0.0289959	0.0188704	-0.986513	0.593496	-0.377856	10.1597	-0.0139861	0.0200618	-0.0215473	-0.282715	0.175537	-0.942139	0.150152	0.170271	-0.465786	-0.855281	-1.28013	8.64609	5.42837	0.0199542	0.000996343	0.0017838	-0.248779	-0.82373	-0.760254	-0.479776	0.438899	-0.423624	-0.630654	-9.35266	1.1072	2.41893	-0.000373451	0.0194191	-0.0067227	0.912842	-0.487061	-0.349854	0.0927148	0.122265	0.437128	-0.886213	-2.88994	-7.20588	5.68843	0.0135948	0.0138097	-0.00945695	0.0244141	1.00171	-0.607178	0.79108	0.0192715	0.442065	-0.422375	-6.72352	-5.1681	8.22612	0.0112841	0.00673855	-0.0217344	0.731689	0.810547	-0.264893	0.0171084	-0.229713	-0.0911397	-0.968831	4.67053	1.81774	9.21072	0.0113534	0.018857	-0.0176613	-0.79248	-0.0407715	-0.76416	0.188055	0.878946	0.189505	-0.395192	-6.77911	1.90716	-5.29313	0.000420674	0.012854	-0.0149593	0.947998	0.136719	0.583252	0.0704447	-0.0318293	0.153829	-0.985069	0.77379	-2.8029	10.1225	0.0147815	0.00858068	-0.0132166	-0.435303	0.429443	-0.861816	-0.0429605	-0.0468247	0.163252	-0.984536	1.10244	-3.08437	9.92905	-0.00225931	0.00959926	0.00404405	-0.487793	0.279053	-0.918457	-0.00442045	-0.0921587	0.299573	-0.949601	1.76313	-5.51946	7.90126	0.0199835	0.00485109	-0.00395398	-0.623779	0.516602	-0.828369	
2	0.192634	0.39555	0.0689925	-0.895362	-7.24187	0.70622	7.85084	0.0153394	0.00665503	-0.00663973	0.538574	0.191406	-0.98999	0.159999	-0.0287042	0.0190551	-0.986516	0.633113	-0.4331	10.1302	-0.00805108	0.0303003	-0.0158512	-0.282959	0.179932	-0.939941	0.149897	0.169911	-0.466289	-0.855123	-1.29035	8.52737	5.533	0.0454035	-0.0149447	-0.00101677	-0.244629	-0.823975	-0.758057	-0.479789	0.43921	-0.423912	-0.630235	-9.47279	1.0889	2.50719	0.00713797	0.0215441	-0.00654532	0.916992	-0.480225	-0.350098	0.0927837	0.122205	0.437329	-0.886115	-2.83611	-7.349	5.76024	-0.00959079	0.00161423	-0.00692062	0.0266113	1.00391	-0.604736	0.791274	0.0189761	0.441525	-0.422588	-6.73617	-5.24417	8.19169	0.00885329	0.00236348	-0.0159535	0.723145	0.810547	-0.262695	0.0170174	-0.22942	-0.091816	-0.968838	4.69314	1.82589	9.16303	0.0221226	0.0117709	-0.011818	-0.790527	-0.036377	-0.764404	0.188078	0.878977	0.189741	-0.394999	-6.80925	1.85889	-5.32395	0.00172609	0.0231557	-0.0154382	0.945557	0.143066	0.585449	0.0707563	-0.0319096	0.153473	-0.9851	0.755838	-2.81737	10.1118	0.0278323	0.00257955	-0.0103884	-0.435059	0.427002	-0.864014	-0.0428504	-0.0469167	0.16308	-0.984565	1.17364	-3.1431	9.96203	0.00460728	0.0105543	0.00478314	-0.479004	0.28125	-0.920898	-0.0045421	-0.0919407	0.299849	-0.949535	1.7651	-5.58118	7.92061	-0.0104582	0.0170857	-0.00733147	-0.623291	0.51001	-0.821289	
3	0.192967	0.395519	0.068643	-0.89533	-7.18326	0.789156	7.85048	0.0280477	0.00845193	-0.0130882	0.53833	0.193604	-0.987793	0.159984	-0.0287962	0.0188881	-0.986519	0.602301	-0.399362	10.0847	-0.0163461	0.0207547	-0.0179244	-0.282715	0.175537	-0.94458	0.150084	0.169724	-0.466365	-0.855086	-1.28445	8.58296	5.47999	-0.00645916	0.00618434	0.0105762	-0.248779	-0.821533	-0.758057	-0.479772	0.439423	-0.423831	-0.630154	-9.42426	1.03488	2.48029	-0.00133786	0.0106565	-0.00430743	0.917236	-0.489014	-0.347656	0.092825	0.122291	0.43693	-0.886296	-2.88412	-7.27727	5.71208	0.0143067	0.00326949	-0.00781305	0.0244141	1.00415	-0.611572	0.791441	0.0187843	0.441057	-0.422774	-6.7855	-5.17686	8.25328	0.0169329	0.00737963	-0.0118125	0.736084	0.812744	-0.262939	0.0171313	-0.229324	-0.0918674	-0.968854	4.70446	1.83358	9.16829	0.0101781	0.0201835	-0.0114632	-0.783936	-0.0405273	-0.76416	0.188639	0.878768	0.18973	-0.395202	-6.80588	1.88912	-5.37675	-0.00868679	0.0100605	-0.0120896	0.949951	0.143311	0.576172	0.0708791	-0.0319931	0.152892	-0.985179	0.748587	-2.77867	10.1668	0.0227488	0.0016861	-0.0129258	-0.435059	0.427002	-0.864014	-0.0427319	-0.0469654	0.162889	-0.984599	1.12641	-3.14477	9.86771	0.0264979	0.00520324	0.00491523	-0.481201	0.279053	-0.923096	-0.00446847	-0.0920183	0.299622	-0.9496	1.76875	-5.58641	7.87106	0.010043	0.00418875	-0.00141743	-0.628174	0.514404	-0.828369	
4	0.193645	0.395219	0.0685518	-0.895324	-7.24533	0.741558	7.83494	0.0136927	-0.00721316	-0.00731474	0.53833	0.193604	-0.98999	0.16002	-0.0287755	0.0189854	-0.986512	0.665331	-0.496664	10.0362	-0.0188879	0.0190391	-0.0145031	-0.280518	0.175537	-0.947021	0.14995	0.169709	-0.466441	-0.855071	-1.33898	8.67633	5.50804	0.0146977	-0.000512673	-0.00924951	-0.250977	-0.821533	-0.755859	-0.479734	0.439545	-0.423737	-0.630161	-9.34367	1.01684	2.47318	-0.00556529	0.00455258	-0.00241096	0.912598	-0.482422	-0.352295	0.0928914	0.122319	0.436935	-0.886283	-2.84219	-7.16065	5.71827	-0.00180803	0.00730682	-0.00964143	0.0266113	1.00391	-0.602539	0.791441	0.0186444	0.4409	-0.422944	-6.73746	-5.15524	8.28001	0.00336259	0.00624508	-0.0106898	0.727783	0.803955	-0.260498	0.0171613	-0.229404	-0.0919647	-0.968825	4.65561	1.84013	9.1946	0.0272707	0.00516207	-0.0135549	-0.790527	-0.0385742	-0.76416	0.188876	0.878648	0.18964	-0.3954	-6.77386	1.94232	-5.3184	0.0141416	0.0214066	-0.0185591	0.945557	0.145264	0.583252	0.0710658	-0.0319947	0.152383	-0.985244	0.760109	-2.81823	10.107	0.00802385	0.0036101	-0.0156839	-0.4375	0.427002	-0.861816	-0.0425807	-0.0470053	0.162885	-0.984604	1.11468	-3.05646	9.85983	0.000204789	0.00750367	0.004736	-0.48584	0.28125	-0.927734	-0.00450383	-0.0917609	0.299596	-0.949633	1.74937	-5.552	7.88186	0.00102992	0.0220156	-0.00106949	-0.623535	0.512207	-0.828125	
5	0.194356	0.39505	0.0686354	-0.895238	-7.20437	0.74483	7.85367	0.00228626	0.00546419	-0.00417826	0.536377	0.191406	-0.994141	0.160031	-0.028626	0.0191709	-0.986511	0.639831	-0.412237	10.1415	-0.00330579	0.0205135	-0.0185061	-0.280762	0.179932	-0.942383	0.15	0.169516	-0.466515	-0.85506	-1.30578	8.65866	5.53529	0.0115525	-0.000363498	0.00357008	-0.253174	-0.821533	-0.758057	-0.47962	0.439763	-0.423675	-0.630137	-9.46305	1.0766	2.47064	0.00627629	0.0138906	-0.00161793	0.910645	-0.487061	-0.345459	0.0929239	0.122188	0.437144	-0.886194	-2.81143	-7.45294	5.73799	-0.0193659	-0.000651347	-0.0190421	0.0224609	0.999756	-0.614014	0.791578	0.0184007	0.440578	-0.423032	-6.76035	-5.08328	8.22701	0.000614879	0.0110202	-0.012551	0.729736	0.80835	-0.260498	0.0172887	-0.2298	-0.0920116	-0.968724	4.65326	1.82157	9.218	0.021492	-0.00465895	-0.00771283	-0.79248	-0.0407715	-0.766357	0.189059	0.878616	0.189706	-0.39535	-6.8237	1.92825	-5.35703	-0.00327295	0.0281235	-0.0174396	0.947754	0.143066	0.580811	0.0716245	-0.0324378	0.151998	-0.985248	0.702184	-2.80575	10.2102	0.0104576	-0.00887742	-0.0131862	-0.439697	0.424805	-0.868408	-0.0424	-0.0471721	0.162461	-0.984674	1.12714	-3.10922	9.98545	0.0259072	0.005806	0.00687243	-0.485596	0.274658	-0.920654	-0.00443757	-0.0915043	0.29931	-0.949748	1.76569	-5.53107	7.89987	0.00377898	0.0212095	0.00325741	-0.625732	0.514404	-0.830566	
6	0.194795	0.394903	0.0686392	-0.895207	-7.25262	0.71002	7.85668	0.00499017	-0.000694117	0.000124575	0.538574	0.189209	-0.985596	0.160003	-0.0284831	0.0192078	-0.986519	0.633472	-0.427579	10.1399	-0.0122649	0.0279845	-0.0197818	-0.280762	0.179932	-0.942383	0.149747	0.169174	-0.466787	-0.855024	-1.29126	8.55843	5.5058	0.016226	-0.014566	-0.00286438	-0.250977	-0.821533	-0.758057	-0.479333	0.440196	-0.42369	-0.630043	-9.31997	0.936977	2.44383	-0.0186828	0.0396723	-0.00305468	0.914795	-0.482666	-0.3479	0.0926609	0.122059	0.437079	-0.886272	-2.85519	-7.41899	5.75471	-0.0137028	-0.00221902	-0.0136482	0.0266113	1.00635	-0.614014	0.791631	0.0179007	0.440662	-0.422868	-6.87948	-5.31091	8.35446	-0.0342028	0.0141416	-0.0137108	0.731689	0.812744	-0.264893	0.0173825	-0.229967	-0.0920838	-0.968676	4.65752	1.80362	9.17327	0.0228302	0.000770184	-0.00669203	-0.79248	-0.0385742	-0.762207	0.189059	0.878616	0.189706	-0.39535	-6.8237	1.92825	-5.35703	-0.00327295	0.0281235	-0.0174396	0.947754	0.143066	0.580811	0.0719563	-0.0326789	0.151701	-0.985262	0.722316	-2.82199	10.1203	0.0218289	-0.00988491	-0.00995335	-0.439453	0.420166	-0.861572	-0.0423922	-0.0471348	0.162603	-0.984653	1.10798	-3.08411	9.91762	-0.012277	0.0143584	0.00260855	-0.485596	0.276855	-0.918457	-0.0044876	-0.091331	0.299563	-0.949685	1.7272	-5.52749	7.88782	-0.0202116	0.0216422	-0.00178536	-0.623535	0.512207	-0.825928	
7	0.195446	0.394732	0.0686397	-0.89514	-7.17058	0.754137	7.85213	0.00888511	0.0117569	-0.00963776	0.531494	0.197754	-0.983643	0.159999	-0.0285994	0.0190539	-0.986519	0.624496	-0.39533	10.1385	-0.008256	0.00415358	-0.01816	-0.282959	0.177734	-0.94458	0.149806	0.168979	-0.466877	-0.855003	-1.29346	8.68783	5.43476	0.00924351	-0.000471435	0.00570039	-0.25293	-0.83252	-0.76001	-0.479484	0.440353	-0.424415	-0.62933	-9.47473	1.10027	2.47794	0.0449625	0.0269622	-0.00635289	0.914795	-0.484863	-0.343506	0.0926002	0.122199	0.436543	-0.886523	-2.87742	-7.21355	5.71196	0.038049	0.0129667	-0.0205697	0.0244141	1.00195	-0.611572	0.79166	0.0175233	0.440318	-0.423188	-6.72384	-5.08932	8.27186	-0.00186961	0.012526	-0.0200399	0.727539	0.80835	-0.26709	0.0173648	-0.23004	-0.092305	-0.968638	4.69017	1.80183	9.17776	0.0162918	0.00366656	-0.00947319	-0.794678	-0.0385742	-0.76416	0.188701	0.878387	0.190387	-0.395702	-6.78604	1.83989	-5.3902	0.00530415	0.00554249	-0.0206535	0.949951	0.143066	0.583252	0.0725425	-0.0331123	0.150868	-0.985332	0.729462	-2.76545	10.183	0.0156509	-0.00625187	-0.0155168	-0.435059	0.422607	-0.866211	-0.0421787	-0.0473147	0.16244	-0.98468	1.14814	-3.17737	9.97143	0.0117966	0.00260165	0.0083179	-0.481201	0.28125	-0.923096	-0.00451226	-0.0910707	0.299655	-0.94968	1.76318	-5.587	7.87697	-0.00327065	0.0140695	0.000577923	-0.621338	0.516602	-0.828369	
8	0.196266	0.394413	0.0688852	-0.895083	-7.23401	0.732089	7.87247	-0.00230618	-0.00915906	-0.0042103	0.53418	0.191406	-0.98999	0.159989	-0.0285843	0.0191867	-0.986518	0.632315	-0.462885	10.118	-0.0130288	0.0143729	-0.0186781	-0.276367	0.177734	-0.939941	0.149634	0.168764	-0.467034	-0.85499	-1.32209	8.48843	5.50104	0.0153149	-0.00232284	0.00268175	-0.250732	-0.830322	-0.753174	-0.479754	0.44041	-0.424939	-0.62873	-9.40385	1.06272	2.413	0.0313273	0.0179372	-0.0119505	0.919434	-0.484863	-0.343506	0.0926285	0.122015	0.436826	-0.886406	-2.86691	-7.34876	5.71333	-0.0208855	0.000239003	-0.0148209	0.0288086	1.00415	-0.616211	0.791856	0.0171134	0.440071	-0.423094	-6.81917	-5.25473	8.27932	-0.00121941	0.00788789	-0.00661286	0.725342	0.80835	-0.258545	0.0173385	-0.230155	-0.0923527	-0.968607	4.74201	1.81711	9.13725	0.0194135	0.0116065	-0.012294	-0.790283	-0.0427246	-0.766357	0.189199	0.878246	0.190349	-0.395797	-6.83485	1.88013	-5.29446	-0.0063924	0.0262247	-0.00971642	0.945801	0.140869	0.583252	0.0729306	-0.0332723	0.150647	-0.985332	0.77548	-2.79759	10.1432	0.0131659	0.004294	-0.0151459	-0.439697	0.424805	-0.864014	-0.0420628	-0.0474189	0.162708	-0.984636	1.173	-3.07534	9.9489	-0.0235826	0.0158334	0.00245851	-0.481201	0.276855	-0.918457	-0.00448018	-0.0908841	0.299983	-0.949595	1.76978	-5.57302	7.95994	-0.0117843	0.0131482	-0.000562772	-0.621582	0.518799	-0.830566	
9	0.197132	0.394147	0.0690803	-0.894994	-7.19855	0.736864	7.8631	-0.00247474	0.00681704	-0.00235413	0.536133	0.193604	-0.98999	0.159972	-0.0285254	0.0192025	-0.986523	0.569255	-0.427545	10.1405	-0.0164578	0.0215511	-0.0218907	-0.278564	0.177734	-0.942383	0.149635	0.168696	-0.467117	-0.854958	-1.30049	8.70673	5.46251	0.0072204	0.00329528	-0.0042655	-0.250977	-0.825928	-0.760254	-0.479953	0.440484	-0.42504	-0.628459	-9.48021	1.09895	2.45746	-0.00958506	0.00665792	-0.00709145	0.916992	-0.484863	-0.343506	0.0925807	0.122012	0.436893	-0.886378	-2.82553	-7.33088	5.72459	-0.00340389	0.0105967	-0.0190997	0.0222168	1.00195	-0.614014	0.792041	0.0168299	0.439738	-0.423106	-6.79258	-5.14135	8.24417	0.00988192	0.0121942	-0.0129996	0.731689	0.810547	-0.260742	0.0174552	-0.230275	-0.0924102	-0.968571	4.71462	1.81794	9.17003	0.0183188	0.00937488	-0.00833668	-0.79248	-0.0385742	-0.762207	0.189136	0.878309	0.190627	-0.395553	-6.80474	1.88871	-5.37642	0.0032619	0.025592	-0.0176834	0.947998	0.138672	0.587891	0.0729844	-0.033309	0.150421	-0.985361	0.753969	-2.77487	10.214	0.00850755	0.00499144	-0.014787	-0.439697	0.422607	-0.864014	-0.0419049	-0.0474844	0.162746	-0.984633	1.15611	-3.13733	9.92953	-0.00534678	0.0042832	0.00506105	-0.488037	0.279053	-0.923096	-0.00445364	-0.0908638	0.300021	-0.949585	1.75363	-5.58222	7.92959	-0.0168857	0.00901676	-0.00543329	-0.619141	0.514404	-0.821533	
10	0.197889	0.394025	0.0691603	-0.894875	-7.27719	0.713606	7.85291	0.0105537	0.00141748	-0.00514588	0.53418	0.191406	-0.987793	0.160006	-0.0284352	0.0192454	-0.986519	0.583806	-0.403764	10.1234	-0.014804	0.0164092	-0.0149572	-0.282715	0.17334	-0.942139	0.149568	0.168452	-0.467146	-0.855002	-1.26667	8.61072	5.4324	-0.0104765	0.00637551	0.00464355	-0.255127	-0.825928	-0.760254	-0.479964	0.440461	-0.424939	-0.628535	-9.36091	1.04575	2.44544	-0.00264411	-0.00237947	0.00350163	0.912598	-0.484863	-0.345703	0.092561	0.12194	0.436909	-0.886382	-2.86061	-7.25142	5.75905	-0.0254524	-0.000862759	-0.0157729	0.0244141	1.00195	-0.609375	0.792186	0.0166548	0.439513	-0.423074	-6.8009	-5.18214	8.25712	-0.00174782	0.0117467	-0.00364865	0.725586	0.803955	-0.260498	0.0175604	-0.230364	-0.0924867	-0.96854	4.68192	1.77311	9.16385	0.0190031	0.0108463	-0.0131111	-0.794434	-0.0449219	-0.759766	0.189162	0.878235	0.190675	-0.395682	-6.74469	1.84927	-5.34875	0.0194191	0.0250535	-0.0232878	0.949951	0.141113	0.580811	0.0734038	-0.0335447	0.150311	-0.985339	0.755729	-2.80672	10.1245	0.00616525	0.00472332	-0.019094	-0.4375	0.427002	-0.864014	-0.0418877	-0.0473535	0.162848	-0.984624	1.13141	-3.13121	9.92828	0.00398524	0.01271	0.00426591	-0.483643	0.28125	-0.925293	-0.00444823	-0.0908822	0.300122	-0.949551	1.7272	-5.5531	7.85242	0.00146576	0.00558352	-0.00297845	-0.621338	0.516602	-0.825928	
11	0.198682	0.393682	0.0691412	-0.894851	-7.17306	0.748819	7.821	0.00645883	-0.00206782	-0.00241565	0.533936	0.193359	-0.985596	0.160009	-0.0284956	0.0192167	-0.986517	0.606084	-0.420259	10.0479	-0.00963143	0.0154598	-0.0191188	-0.281006	0.184326	-0.942627	0.149566	0.168406	-0.467418	-0.854862	-1.32545	8.72681	5.53872	0.0346225	-0.000308607	0.00351189	-0.248779	-0.821777	-0.755859	-0.480029	0.440599	-0.425082	-0.628291	-9.44624	1.05103	2.47096	0.0129037	0.0176053	-0.0109383	0.916992	-0.480469	-0.345703	0.0925935	0.121871	0.437202	-0.886244	-2.88379	-7.41925	5.83382	-0.0192819	0.00552563	-0.0159962	0.0222168	1.00195	-0.609375	0.792406	0.0162809	0.439151	-0.423053	-6.83004	-5.23262	8.30533	0.00809881	0.00362071	-0.0125915	0.731934	0.80835	-0.264893	0.0175297	-0.230317	-0.0924444	-0.968556	4.6967	1.84256	9.15087	0.0117588	0.0181815	-0.0156833	-0.794678	-0.0385742	-0.76001	0.189691	0.878092	0.190534	-0.395813	-6.80139	1.89094	-5.3448	-0.00563668	0.013484	-0.00363437	0.945557	0.143066	0.585449	0.0736205	-0.0336109	0.150089	-0.985355	0.752107	-2.8222	10.2183	0.00472802	0.0128953	-0.0240391	-0.437256	0.422607	-0.861572	-0.0417948	-0.0473772	0.162969	-0.984606	1.14253	-3.14666	9.88911	-0.000258236	0.00729198	0.00267063	-0.48584	0.28125	-0.91626	-0.0044346	-0.0909539	0.300292	-0.949491	1.75566	-5.51773	7.98535	-0.022926	0.00877536	-0.00200315	-0.621582	0.518799	-0.830566	
12	0.199547	0.393585	0.0692477	-0.894694	-7.29185	0.726379	7.81197	0.00126658	0.00487898	0.00242141	0.540527	0.193604	-0.987793	0.160067	-0.0284872	0.019235	-0.986507	0.645123	-0.413575	10.2328	-0.044871	0.0442344	-0.0155987	-0.278564	0.179932	-0.944824	0.149731	0.168416	-0.467451	-0.854814	-1.26806	8.6584	5.50088	0.00899858	0.0129807	0.00988291	-0.259521	-0.827881	-0.750977	-0.480156	0.44074	-0.425183	-0.628028	-9.37662	1.09601	2.37677	-0.000980564	0.0135901	-0.00817466	0.916748	-0.478271	-0.343506	0.0924817	0.121895	0.43668	-0.88651	-2.89616	-7.08425	5.68987	0.0171081	0.00804286	-0.0230237	0.0244141	1.00195	-0.614014	0.792574	0.0160787	0.438743	-0.42317	-6.71471	-5.07576	8.25791	0.00633565	0.0140986	-0.00777457	0.729736	0.806152	-0.262695	0.0172848	-0.229899	-0.0924865	-0.968656	4.69675	1.79615	9.22214	0.00489739	0.0202185	-0.0163883	-0.788086	-0.0407715	-0.757812	0.190007	0.878008	0.190474	-0.395877	-6.7372	1.90016	-5.34869	0.0119996	0.038869	-0.0188964	0.947754	0.143066	0.585449	0.0736297	-0.0336164	0.149812	-0.985396	0.756917	-2.77504	10.1508	0.0106086	0.00622119	-0.016421	-0.437256	0.422607	-0.86377	-0.0417669	-0.0472411	0.16326	-0.984566	1.11688	-3.09898	9.95246	-0.00151432	0.0156045	0.00175716	-0.483643	0.28125	-0.918457	-0.00439139	-0.0910375	0.300428	-0.94944	1.72534	-5.59013	7.87511	0.00604027	0.000245439	-0.00342917	-0.623291	0.51001	-0.830566	
13	0.200287	0.393272	0.0693292	-0.89466	-7.18946	0.824711	7.87116	-0.000920225	-0.00251737	-0.00516612	0.536133	0.193604	-0.985596	0.160114	-0.0285685	0.0191933	-0.986498	0.54567	-0.412205	9.94878	-0.00884102	0.00895337	-0.014208	-0.278564	0.179932	-0.942383	0.149644	0.168009	-0.467575	-0.854841	-1.4076	8.4391	5.45806	0.0324281	-0.019462	0.0145191	-0.248779	-0.830322	-0.76001	-0.480249	0.441108	-0.425299	-0.627619	-9.4778	1.07334	2.49584	0.00877865	0.0183744	-0.0105266	0.919189	-0.480225	-0.345703	0.0926631	0.121778	0.436986	-0.886356	-2.87205	-7.50224	5.75053	-0.0302789	-0.00334776	-0.00853815	0.0244141	1.00195	-0.611572	0.792763	0.01574	0.438541	-0.423038	-6.79915	-5.2394	8.26645	-0.0126707	-0.00229825	-0.00502916	0.723145	0.812744	-0.262939	0.0172902	-0.230011	-0.0926872	-0.96861	4.65089	1.82871	9.13118	0.0316325	0.00444524	-0.0168082	-0.790527	-0.036377	-0.757812	0.190035	0.878051	0.190516	-0.395747	-6.73572	1.87479	-5.30355	0.00768608	0.0370352	-0.0187459	0.945801	0.140869	0.585693	0.0740602	-0.033758	0.149166	-0.985457	0.68695	-2.75051	10.1672	0.0205904	0.00425764	-0.0236462	-0.43042	0.427246	-0.861572	-0.0416862	-0.0472759	0.163606	-0.98451	1.17142	-3.14841	9.8346	-0.0152953	0.00759972	0.00307398	-0.485596	0.276855	-0.925293	-0.00442481	-0.0911142	0.300728	-0.949337	1.744	-5.58987	7.8536	-0.0212003	0.00698176	-0.00497768	-0.619141	0.516602	-0.828369	
14	0.201509	0.392885	0.0696561	-0.89453	-7.19952	0.667072	7.84828	-0.0106792	-0.0063702	0.0106576	0.540771	0.191406	-0.98999	0.160154	-0.0287136	0.0192449	-0.986487	0.699733	-0.506466	10.1002	-0.013307	0.0219675	-0.0201838	-0.278564	0.177734	-0.947021	0.14967	0.16781	-0.467495	-0.854919	-1.31236	8.67765	5.48946	-0.0196143	0.0106286	-0.00549457	-0.255127	-0.828125	-0.753418	-0.480283	0.441329	-0.425198	-0.627505	-9.40253	0.976258	2.3987	-0.00608255	0.0114883	-0.011336	0.916992	-0.480469	-0.345703	0.0924086	0.121732	0.436298	-0.886728	-2.74757	-7.29352	5.79925	0.018657	0.00999054	-0.0259047	0.0288086	1.00195	-0.614014	0.792819	0.0153104	0.438069	-0.423438	-6.88411	-5.28918	8.26947	0.0442717	0.00581085	-0.0233024	0.729736	0.80835	-0.258545	0.0165497	-0.229502	-0.0919331	-0.968815	4.7164	1.78051	9.21862	-0.00482845	0.0118361	-0.0241451	-0.79248	-0.0407715	-0.76001	0.190416	0.877914	0.19032	-0.395963	-6.78639	1.84936	-5.35442	0.00242322	0.00842778	-0.00850226	0.945801	0.138672	0.587891	0.0743323	-0.0340091	0.149027	-0.985449	0.789647	-2.83464	10.1983	0.00795819	0.00394727	-0.022313	-0.439697	0.422607	-0.864014	-0.0416173	-0.0472127	0.163287	-0.984569	1.15321	-3.1678	9.97141	0.00423802	0.0053342	0.00460169	-0.483643	0.28125	-0.918457	-0.00437677	-0.0910935	0.300665	-0.949359	1.78518	-5.57517	7.90395	0.00540955	0.00779975	-0.00194833	-0.619385	0.523438	-0.82373	
15	0.202029	0.392807	0.0697476	-0.89444	-7.18646	0.719481	7.814	-0.00530897	0.00511744	0.00690312	0.540527	0.193604	-0.985596	0.160034	-0.0286038	0.019301	-0.986508	0.550191	-0.445934	10.1511	-0.0200122	0.0199095	-0.0216993	-0.280518	0.175537	-0.942139	0.149442	0.167487	-0.46791	-0.854796	-1.21475	8.6827	5.46243	0.0221125	-0.0110851	-0.000358958	-0.25293	-0.825928	-0.750977	-0.480315	0.441494	-0.425274	-0.627314	-9.4279	1.12391	2.37666	0.00964769	0.0214476	-0.0110167	0.916992	-0.484863	-0.341064	0.0924957	0.121814	0.43607	-0.886819	-2.86979	-7.30645	5.69889	0.00666926	0.00459238	-0.0114679	0.0244141	1.00415	-0.609375	0.792864	0.0151767	0.437934	-0.423498	-6.72671	-5.08259	8.26966	0.00417948	0.0133153	-0.0140658	0.729736	0.806152	-0.264893	0.016419	-0.229463	-0.0917021	-0.968849	4.63846	1.8051	9.15385	-0.00456398	0.017398	-0.0202809	-0.796875	-0.0407715	-0.766357	0.190744	0.877728	0.19015	-0.396299	-6.71937	1.89518	-5.33713	0.00550172	0.00676273	-0.0113338	0.946045	0.132324	0.585693	0.0744925	-0.0340584	0.148814	-0.985467	0.773579	-2.75054	10.1576	0.0160997	0.00763737	-0.0211238	-0.44165	0.417969	-0.865967	-0.0415596	-0.0472618	0.163441	-0.984544	1.11901	-3.11061	9.94473	-0.0122389	0.0068181	0.00487495	-0.488037	0.283203	-0.927734	-0.00439007	-0.0910883	0.30075	-0.949333	1.75915	-5.54905	7.93084	-0.00586171	0.00805494	-0.00426684	-0.623535	0.514404	-0.828369	
16	0.202573	0.392845	0.0698915	-0.894289	-7.27069	0.689727	7.80553	-0.00856178	0.015102	0.00899566	0.533936	0.193359	-0.987793	0.159938	-0.0287094	0.0191959	-0.986523	0.579315	-0.379784	10.1372	-0.00770669	0.0148853	-0.0221229	-0.280762	0.179932	-0.942383	0.149086	0.167206	-0.468349	-0.854672	-1.3498	8.64587	5.37898	0.0208418	-0.0139612	-0.000776428	-0.255127	-0.828125	-0.748779	-0.48037	0.441938	-0.42499	-0.627152	-9.36875	1.0036	2.41707	-0.00968009	0.00897784	-0.0200792	0.919189	-0.480469	-0.343506	0.0924382	0.121874	0.43618	-0.886763	-2.84723	-7.24689	5.71006	-0.0177352	0.0122882	-0.0160879	0.0290527	0.999756	-0.618408	0.793058	0.0147996	0.437559	-0.423536	-6.75167	-5.20127	8.26875	0.00312459	0.00527962	-0.00809544	0.725342	0.810547	-0.264893	0.0162121	-0.229373	-0.0916276	-0.96888	4.6561	1.79704	9.18631	0.0213117	0.0167649	-0.0221642	-0.792725	-0.036377	-0.76001	0.190788	0.8779	0.190098	-0.395922	-6.70982	1.89799	-5.33869	0.0102333	0.0479174	-0.00955043	0.947998	0.138672	0.592529	0.0749886	-0.0339122	0.148518	-0.985479	0.763959	-2.76582	10.1095	0.012211	0.0174196	-0.0123097	-0.441895	0.422363	-0.859375	-0.0414967	-0.0472841	0.163384	-0.984555	1.10875	-3.12018	9.94318	0.00440798	0.0104622	0.00375384	-0.481201	0.279053	-0.918457	-0.00444914	-0.0910523	0.301	-0.949257	1.72179	-5.60533	7.90162	-0.00793801	0.00748435	-0.0053086	-0.623535	0.514404	-0.830566	
17	0.203482	0.392359	0.0694284	-0.894332	-7.12933	0.74794	7.86205	0.0131287	-0.00972912	0.00401377	0.538574	0.189209	-0.98999	0.159839	-0.0287153	0.0193515	-0.986536	0.623326	-0.501785	10.0977	-0.0076198	0.0145563	-0.0213233	-0.276611	0.184326	-0.940186	0.148724	0.166878	-0.46897	-0.854459	-1.2926	8.66983	5.51971	0.0232835	-0.00436925	3.98313e-05	-0.25293	-0.828125	-0.748779	-0.480449	0.44258	-0.424889	-0.626707	-9.56875	1.07294	2.47848	-0.00527136	0.0223271	-0.0191774	0.914795	-0.484863	-0.3479	0.0925794	0.121718	0.436655	-0.886536	-2.78757	-7.37759	5.80402	-0.016844	-0.00597851	-0.0154789	0.0266113	1.00415	-0.609375	0.793266	0.0145997	0.437296	-0.423425	-6.76072	-5.17175	8.30107	-0.0024345	0.0174983	-0.00356588	0.732178	0.801758	-0.260498	0.0159931	-0.229271	-0.0917004	-0.968901	4.71568	1.79392	9.18596	0.0107924	0.0185786	-0.023419	-0.78833	-0.0385742	-0.76416	0.190971	0.878096	0.190197	-0.39535	-6.78652	1.88972	-5.40367	-0.00444703	0.0353463	-0.00443084	0.946045	0.13208	0.592773	0.075482	-0.0336376	0.147943	-0.985537	0.717259	-2.72945	10.2567	0.0233512	0.0196495	-0.0159857	-0.435059	0.424805	-0.864014	-0.0414424	-0.0472232	0.163451	-0.984549	1.15907	-3.10707	9.88393	0.00147785	0.0122683	0.0039853	-0.481445	0.283447	-0.918701	-0.00440685	-0.0911274	0.300759	-0.949326	1.76418	-5.53282	7.88422	0.00277481	0.00841043	-0.00165533	-0.617188	0.52124	-0.828369	
18	0.204363	0.392281	0.0692833	-0.894176	-7.28252	0.792461	7.84771	0.00626715	0.00447257	0.00846633	0.536133	0.193604	-0.98999	0.159801	-0.0284756	0.0194446	-0.986547	0.583795	-0.394357	10.1455	-0.0174001	0.0383885	-0.0176472	-0.280762	0.177734	-0.939941	0.148707	0.166685	-0.469144	-0.854404	-1.24531	8.55142	5.31222	0.00794779	-0.00863266	0.00421825	-0.250732	-0.830322	-0.750977	-0.480556	0.442765	-0.424874	-0.626504	-9.36123	1.06953	2.30901	0.0171824	0.0141147	-0.00969119	0.919434	-0.486816	-0.343262	0.092518	0.121485	0.436742	-0.886532	-2.81538	-7.32688	5.75436	-0.0310385	0.00160412	-0.0173468	0.0222168	1.00415	-0.614014	0.793229	0.0146724	0.437228	-0.423562	-6.74593	-5.22338	8.33335	0.00961584	0.0144049	-0.00796356	0.733887	0.812744	-0.26709	0.0158188	-0.229353	-0.0917465	-0.968881	4.68016	1.82809	9.15266	0.0180154	0.00436855	-0.0195587	-0.794922	-0.0341797	-0.762207	0.191012	0.878224	0.190278	-0.395007	-6.76032	1.91646	-5.35306	0.00283511	0.0269936	-0.00780105	0.941406	0.140869	0.587891	0.075482	-0.0336376	0.147943	-0.985537	0.717259	-2.72945	10.2567	0.0233512	0.0196495	-0.0159857	-0.435059	0.424805	-0.864014	-0.0413274	-0.0472629	0.163201	-0.984593	1.13435	-3.25204	9.88324	0.00966005	0.00737374	0.00824568	-0.488037	0.281006	-0.91626	-0.00423589	-0.0909608	0.300349	-0.949473	1.76226	-5.60513	7.83754	0.0322821	0.00931712	0.00319497	-0.621338	0.514404	-0.82373	
19	0.205231	0.392198	0.0693975	-0.894005	-7.17369	0.793936	7.81643	-0.00300422	0.0138679	0.00255698	0.538574	0.191406	-0.987793	0.15982	-0.0285156	0.0195978	-0.98654	0.635194	-0.441266	10.0713	-0.0212492	0.0223067	-0.0173777	-0.27417	0.179932	-0.942383	0.148501	0.166397	-0.469805	-0.854133	-1.29233	8.69193	5.39848	0.0433472	-0.0055043	0.000201369	-0.255127	-0.830322	-0.750977	-0.480805	0.44314	-0.424787	-0.626107	-9.47316	1.05206	2.37862	0.00739942	0.0117605	-0.0258704	0.921387	-0.480225	-0.343506	0.0923413	0.121368	0.437033	-0.886423	-2.83377	-7.24082	5.84239	-0.0409715	0.00541128	-0.0273082	0.0268555	0.999756	-0.611572	0.793549	0.0141293	0.436875	-0.423345	-6.77114	-5.13809	8.37013	-0.0101258	0.00255692	-0.00291316	0.727539	0.80835	-0.264893	0.0159729	-0.229367	-0.0918824	-0.968862	4.68267	1.81145	9.17943	0.0226256	0.0161901	-0.0112581	-0.794678	-0.0385742	-0.76416	0.191156	0.878474	0.19034	-0.394352	-6.7547	1.93557	-5.37346	0.00418319	0.0521866	-0.0141737	0.945801	0.140869	0.587891	0.0753678	-0.033593	0.147011	-0.985687	0.768817	-2.72322	10.2045	0.00947564	0.00683469	-0.0115517	-0.439453	0.42041	-0.870605	-0.0411413	-0.0473877	0.163307	-0.984577	1.12812	-3.06854	9.98763	-0.00406108	2.37852e-06	0.00606938	-0.481445	0.283447	-0.918701	-0.00417853	-0.0908482	0.300318	-0.949494	1.73389	-5.52939	7.95737	-0.00379888	0.0148806	-0.000310634	-0.623779	0.516602	-0.835205	
20	0.20554	0.392211	0.0694766	-0.893922	-7.27197	0.739036	7.83926	0.00212122	0.005889	-0.00354583	0.53418	0.191162	-0.985596	0.159842	-0.0284009	0.0195994	-0.986539	0.594072	-0.438452	10.1263	-0.0097357	0.0247829	-0.0163419	-0.278564	0.179932	-0.937744	0.148424	0.166423	-0.470203	-0.853922	-1.09254	8.74635	5.50094	0.0430638	0.00327376	-0.000665719	-0.255127	-0.83252	-0.746338	-0.480798	0.443492	-0.424379	-0.626139	-9.46642	0.958196	2.43988	-0.015783	0.00101268	-0.0105857	0.918945	-0.476074	-0.341309	0.0923413	0.121368	0.437033	-0.886423	-2.83377	-7.24082	5.84239	-0.0409715	0.00541128	-0.0273082	0.0268555	0.999756	-0.611572	0.793657	0.0138565	0.436712	-0.423319	-6.75553	-5.22228	8.25442	-0.00265276	0.00337579	-0.00524733	0.72998	0.803955	-0.264648	0.0160879	-0.229281	-0.0923411	-0.968837	4.68665	1.79614	9.20288	0.0270439	0.0103747	-0.00709164	-0.79248	-0.0407715	-0.76416	0.19086	0.878816	0.190848	-0.393487	-6.72066	1.88644	-5.38022	0.00408438	0.0544322	-0.0229847	0.943604	0.138672	0.592773	0.0756092	-0.0333659	0.14665	-0.98573	0.792722	-2.73579	10.1625	0.0149883	0.0137984	-0.00591661	-0.44165	0.417969	-0.86377	-0.0410377	-0.0472288	0.163627	-0.984536	1.1768	-3.21858	9.92546	-0.0134363	0.0190984	0.00703921	-0.483643	0.28125	-0.923096	-0.00421788	-0.0908453	0.300386	-0.949472	1.76343	-5.56135	7.92213	-0.00264249	0.00435305	-0.00321647	-0.621582	0.518799	-0.828369	
21	0.20584	0.392053	0.0695221	-0.893919	-7.21864	0.793377	7.82312	0.00542757	-0.00332926	-0.0096214	0.540283	0.197998	-0.987793	0.160047	-0.0282729	0.0197648	-0.986506	0.570509	-0.402176	10.1223	-0.0228167	0.023908	-0.00853442	-0.282715	0.171387	-0.944336	0.148587	0.166408	-0.470006	-0.854005	-1.3212	8.53824	5.39364	0.00401563	0.00525909	0.00374118	-0.259277	-0.832275	-0.748535	-0.481035	0.44382	-0.424025	-0.625965	-9.39825	0.924061	2.38919	0.00263859	0.00987403	-0.0241984	0.921143	-0.473633	-0.343506	0.0917467	0.121443	0.43709	-0.886446	-2.85678	-7.31461	5.68319	-0.0175118	0.00407795	-0.0259229	0.0268555	0.999756	-0.614014	0.793908	0.013748	0.436423	-0.42315	-6.7141	-5.16669	8.2509	0.00496727	0.000382146	0.00841201	0.729736	0.810547	-0.260742	0.0160879	-0.229281	-0.0923411	-0.968837	4.68665	1.79614	9.20288	0.0270439	0.0103747	-0.00709164	-0.79248	-0.0407715	-0.76416	0.19095	0.879028	0.190935	-0.392927	-6.67317	1.85863	-5.41229	-0.00220868	0.0707859	-0.0105519	0.94165	0.134277	0.594971	0.0758585	-0.0332705	0.146649	-0.985714	0.777658	-2.71523	10.1461	7.14534e-05	0.019434	-0.0115571	-0.434814	0.417969	-0.861572	-0.0409952	-0.0471392	0.163504	-0.984563	1.12682	-3.10207	9.92522	0.00949997	0.0188757	0.00502358	-0.483643	0.283447	-0.923096	-0.00421416	-0.0909029	0.300563	-0.949411	1.74741	-5.57871	7.89115	-0.0139065	0.00272655	-0.00379929	-0.619385	0.52124	-0.828369	
22	0.206751	0.391751	0.0700245	-0.893802	-7.22488	0.683464	7.83287	-0.0078592	-0.00791846	0.00221607	0.542725	0.195801	-0.98999	0.160189	-0.0282686	0.0199135	-0.986481	0.596911	-0.520797	10.0954	-0.00781994	0.0162816	-0.0165127	-0.282959	0.182129	-0.949463	0.148603	0.16627	-0.470386	-0.85382	-1.21777	8.59227	5.55288	0.0245472	0.00433322	0.00460424	-0.255127	-0.830322	-0.748779	-0.481285	0.443894	-0.423616	-0.625997	-9.45303	0.874197	2.40984	-0.00249377	-0.0121315	-0.00876793	0.916748	-0.476074	-0.343506	0.0912967	0.121106	0.437574	-0.8863	-2.7441	-7.48952	5.80402	-0.0132089	0.0109475	-0.040041	0.0202637	0.999512	-0.609375	0.794496	0.0132341	0.435871	-0.42263	-6.80758	-5.21226	8.37654	-0.0107227	-0.0096533	0.00715211	0.729736	0.810547	-0.262695	0.0161627	-0.229028	-0.093547	-0.96878	4.68368	1.82591	9.19865	0.0149181	0.0149935	-0.013159	-0.786133	-0.0385742	-0.76001	0.191037	0.879598	0.191234	-0.391462	-6.69732	1.92994	-5.41233	-0.00786763	0.0743017	-0.00278929	0.937256	0.140869	0.599609	0.0757983	-0.0328143	0.146734	-0.985722	0.731791	-2.73433	10.1809	-0.00252581	0.0258033	-0.0158659	-0.439453	0.417969	-0.86377	-0.0408789	-0.047215	0.163717	-0.984529	1.10444	-3.17384	9.87423	-0.0233473	0.00240448	0.00551787	-0.483887	0.287842	-0.925537	-0.00416956	-0.0909252	0.300852	-0.949317	1.72691	-5.60989	7.86826	-0.0157742	0.00917003	-0.00168864	-0.619141	0.514404	-0.830566	
23	0.207166	0.391607	0.0700435	-0.893767	-7.21747	0.716824	7.82081	0.00271262	-0.00300072	0.0015162	0.542725	0.193604	-0.98999	0.160108	-0.0282623	0.0198104	-0.986496	0.574163	-0.450122	10.1188	-0.00950049	0.0204885	-0.0229294	-0.271973	0.175537	-0.947021	0.148662	0.166136	-0.470063	-0.854014	-1.29446	8.68515	5.30511	-0.0180887	-0.00382661	-0.00538165	-0.250732	-0.83252	-0.746338	-0.48138	0.44394	-0.423587	-0.625911	-9.46817	0.926121	2.41026	0.00747998	0.00560123	-0.0102447	0.921143	-0.478027	-0.3479	0.0907339	0.121308	0.437227	-0.886501	-2.82882	-7.3357	5.73164	0.0110513	0.0204329	-0.0251317	0.0244141	1.00391	-0.607178	0.79476	0.0130014	0.435289	-0.422741	-6.82641	-5.12169	8.30256	0.0153026	0.00757266	-0.0109106	0.732178	0.801758	-0.264648	0.0161627	-0.229028	-0.093547	-0.96878	4.68368	1.82591	9.19865	0.0149181	0.0149935	-0.013159	-0.786133	-0.0385742	-0.76001	0.191033	0.879814	0.19128	-0.390955	-6.69574	1.92095	-5.5296	0.0057706	0.0307995	-0.0154211	0.9375	0.13208	0.602051	0.0761892	-0.0327357	0.146502	-0.985729	0.660214	-2.79498	10.231	0.0125025	0.0120243	-0.0182498	-0.437256	0.42041	-0.868408	-0.040746	-0.0470266	0.163675	-0.98455	1.11373	-3.15862	9.95851	0.00358676	0.027436	0.00659506	-0.48584	0.285645	-0.91626	-0.00414078	-0.0909273	0.30122	-0.9492	1.74396	-5.58759	7.88563	-0.0231329	0.0079811	-0.00133375	-0.621582	0.520996	-0.826172	
24	0.207953	0.39132	0.0698171	-0.893728	-7.28539	0.73506	7.83023	0.0199245	-0.012498	0.00362678	0.533936	0.195557	-0.992188	0.160116	-0.0284216	0.0197801	-0.986491	0.56037	-0.450517	10.0927	-0.014311	0.00494599	-0.0164209	-0.27417	0.179932	-0.939941	0.148825	0.166245	-0.47014	-0.853921	-1.16256	8.75066	5.55653	-0.000917034	0.0224576	0.00506461	-0.255127	-0.83252	-0.746338	-0.48134	0.443871	-0.423322	-0.62617	-9.42952	1.04512	2.45017	-0.00568778	-0.0139687	0.0125509	0.921143	-0.47583	-0.350098	0.090559	0.121257	0.437056	-0.88661	-2.82026	-7.32526	5.73945	0.0176868	0.0132742	-0.0236994	0.0285645	1.00635	-0.607178	0.794751	0.0128945	0.435172	-0.422883	-6.79801	-5.12596	8.3401	0.00513565	0.00997266	-0.0103005	0.734131	0.806152	-0.262695	0.016159	-0.228852	-0.0937499	-0.968802	4.66401	1.79169	9.2042	0.0176397	0.0117904	-0.0118864	-0.798828	-0.0449219	-0.76416	0.191098	0.879773	0.191348	-0.390982	-6.65223	1.91269	-5.47879	0.0119176	0.0231233	-0.0221146	0.937256	0.136475	0.604492	0.0761583	-0.0326789	0.146546	-0.985726	0.70192	-2.7559	10.1582	-0.00211892	0.00986156	-0.0170458	-0.434814	0.420166	-0.861572	-0.0406721	-0.0471582	0.163955	-0.9845	1.10519	-3.14689	9.94999	-0.0200438	0.00538384	0.00293498	-0.481445	0.283447	-0.925537	-0.00409778	-0.0909836	0.301371	-0.949147	1.73057	-5.56296	7.91292	-0.0048641	0.00471559	-0.00254984	-0.621582	0.520996	-0.828369	
25	0.208706	0.391063	0.0696968	-0.893675	-7.20071	0.827029	7.84357	0.00570459	0.00759934	0.000389431	0.54541	0.184814	-0.987549	0.160131	-0.0283265	0.0199179	-0.986488	0.57427	-0.442171	10.1758	-0.0209589	0.0141913	-0.018596	-0.270264	0.186523	-0.945068	0.148981	0.166052	-0.469584	-0.854238	-1.2693	8.45821	5.20594	0.0041269	-0.0129057	-0.00155691	-0.255127	-0.830322	-0.755615	-0.481307	0.443918	-0.423319	-0.626165	-9.35066	0.973992	2.3962	0.0143504	0.0201245	-0.00977564	0.921143	-0.47583	-0.350098	0.0905369	0.121136	0.437392	-0.886463	-2.79421	-7.3236	5.74647	-0.0275436	0.00173813	-0.0234492	0.0200195	1.00635	-0.611572	0.794912	0.0126957	0.434799	-0.42297	-6.82114	-5.19186	8.26983	0.000208537	0.0138792	-0.00744686	0.736572	0.799561	-0.266846	0.016228	-0.228998	-0.0940938	-0.968733	4.68173	1.78178	9.1765	0.0371985	0.00705809	-0.0149238	-0.79248	-0.0385742	-0.762207	0.1914	0.879712	0.191268	-0.39101	-6.65588	1.90428	-5.4427	-0.00399806	0.0226505	-0.00593334	0.9375	0.13208	0.599854	0.0760726	-0.0326818	0.146324	-0.985766	0.736062	-2.80159	10.1509	0.00840946	0.00702433	-0.0201762	-0.434814	0.42041	-0.865967	-0.0406537	-0.0470481	0.164092	-0.984483	1.10378	-3.1753	9.8372	-0.00977788	0.0228455	0.00200029	-0.483643	0.285645	-0.918701	-0.00414655	-0.0909516	0.301736	-0.949034	1.74246	-5.65903	7.88566	-0.00342909	0.00665488	-0.00385816	-0.616943	0.516602	-0.830566	
26	0.209631	0.390777	0.0698251	-0.893573	-7.26903	0.726208	7.81367	-0.00116788	-0.00916592	0.0050468	0.540527	0.193604	-0.98999	0.160092	-0.0281948	0.019793	-0.986501	0.615152	-0.419601	10.1804	-0.00433658	0.0115802	-0.0174372	-0.276611	0.182129	-0.942383	0.14903	0.166087	-0.470026	-0.853979	-1.23441	8.90234	5.51305	-0.0194483	0.0193641	0.00459216	-0.261475	-0.834473	-0.753174	-0.481357	0.443984	-0.423284	-0.626102	-9.45637	1.00335	2.44983	0.000342641	-0.00401183	-0.000317996	0.923584	-0.478027	-0.345703	0.0903312	0.121225	0.437008	-0.886661	-2.78491	-7.31429	5.68099	0.0369106	0.0178573	-0.0211378	0.0244141	1.00415	-0.614014	0.795083	0.0124333	0.43425	-0.42322	-6.73606	-5.15916	8.25501	-0.00560585	0.00176883	-0.0159488	0.729736	0.806152	-0.27124	0.0163107	-0.229171	-0.0943846	-0.968662	4.68895	1.82763	9.17155	0.0407739	-0.000140301	-0.0120132	-0.798828	-0.0429688	-0.761963	0.191555	0.879753	0.19146	-0.390748	-6.6646	1.91208	-5.45427	-0.00342547	0.0218265	-0.0110205	0.939453	0.136475	0.604492	0.0765239	-0.0327075	0.145883	-0.985795	0.754722	-2.73144	10.1514	0.017646	0.0106384	-0.0135852	-0.437256	0.420166	-0.865967	-0.0405352	-0.0471899	0.163851	-0.984522	1.13741	-3.20825	9.94927	0.010452	0.000917628	0.00418429	-0.481445	0.285645	-0.918701	-0.00420804	-0.0909617	0.301637	-0.949064	1.75564	-5.63677	7.9026	0.000596228	0.00995441	-0.00904799	-0.619141	0.516602	-0.82373	
27	0.210502	0.390431	0.0698539	-0.893517	-7.19723	0.758552	7.83288	-0.000900366	0.00115105	0.00256309	0.540527	0.193604	-0.98999	0.160052	-0.0281499	0.019814	-0.986508	0.580469	-0.490313	10.0763	-0.0223382	0.0186716	-0.0195506	-0.27832	0.175537	-0.942139	0.14909	0.165802	-0.47001	-0.854033	-1.23251	8.48387	5.29781	0.05113	-0.014591	0.00580798	-0.263672	-0.827881	-0.750977	-0.481383	0.444194	-0.423156	-0.62602	-9.41352	0.987599	2.38748	0.0141101	0.0197072	-0.0105496	0.92334	-0.473633	-0.345703	0.0902833	0.121243	0.436933	-0.886701	-2.79393	-7.22987	5.72894	0.00685014	0.00940538	-0.0179095	0.0200195	1.00415	-0.611572	0.795275	0.0123999	0.43368	-0.423444	-6.79689	-5.20532	8.25393	0.0311014	0.00878251	-0.00783302	0.738281	0.80835	-0.273438	0.0162193	-0.228938	-0.0950142	-0.968657	4.71307	1.83686	9.12507	0.0289569	0.0192617	-0.016739	-0.79248	-0.0427246	-0.761963	0.191621	0.879791	0.191458	-0.390632	-6.64821	1.88924	-5.42359	0.00626809	0.0321054	-0.0147426	0.939453	0.138672	0.602051	0.0769423	-0.032625	0.145524	-0.985819	0.767097	-2.75388	10.181	0.0208418	0.0172705	-0.0175523	-0.437256	0.422607	-0.861572	-0.0404341	-0.0470939	0.163671	-0.98456	1.13812	-3.17257	9.94675	0.00149838	0.0157703	0.00455844	-0.483643	0.28125	-0.91626	-0.00419406	-0.0910642	0.301511	-0.949095	1.75513	-5.55681	7.87388	0.0158372	3.0181e-05	-0.00336037	-0.623779	0.518799	-0.819336	
28	0.211359	0.390112	0.0698386	-0.893455	-7.25127	0.754849	7.78555	0.00427911	-0.00879527	0.00381342	0.545166	0.191406	-0.983398	0.160076	-0.0283959	0.0196337	-0.986501	0.609464	-0.401044	10.4227	-0.00694625	0.0115983	-0.0185147	-0.281006	0.184326	-0.940186	0.148984	0.165616	-0.470532	-0.8538	-1.2163	8.72984	5.51297	0.0104701	-0.00119685	0.00348404	-0.25708	-0.832275	-0.739502	-0.48136	0.444597	-0.423001	-0.625857	-9.48374	1.02335	2.42523	-0.00879056	0.00785131	-0.00833066	0.921143	-0.478027	-0.352295	0.0898458	0.121271	0.437012	-0.886703	-2.77006	-7.38054	5.77145	0.0315105	0.0221071	-0.0229269	0.0200195	1.00415	-0.609375	0.795297	0.01233	0.433389	-0.423702	-6.79164	-5.17119	8.37395	0.00933045	0.00425579	-0.0102463	0.736328	0.806152	-0.273438	0.0162436	-0.228734	-0.0951803	-0.968689	4.69002	1.85676	9.14793	0.0233777	0.024935	-0.0163048	-0.788086	-0.0405273	-0.770508	0.191657	0.880134	0.191811	-0.389666	-6.67283	1.94119	-5.4688	-0.00397375	0.0357454	-0.00768446	0.939453	0.136475	0.604492	0.0769182	-0.0324367	0.144997	-0.985904	0.71151	-2.72239	10.1773	0.0215195	0.0134308	-0.0173422	-0.434814	0.42041	-0.868408	-0.0403312	-0.0470739	0.163438	-0.984604	1.09863	-3.15477	9.86648	0.00187256	0.0114958	0.00398938	-0.479248	0.287842	-0.916504	-0.00421475	-0.0910378	0.301679	-0.949044	1.72119	-5.59862	7.83056	-0.00920844	0.0126725	-0.00267954	-0.623779	0.518799	-0.828369	
29	0.211965	0.389874	0.0697646	-0.893422	-7.23588	0.77496	7.82436	0.0121291	-0.00127014	-0.00630438	0.538574	0.189209	-0.98999	0.16008	-0.0284427	0.0198256	-0.986495	0.605803	-0.501955	10.0295	-0.0199663	-0.00442328	-0.0115768	-0.281006	0.184326	-0.942627	0.149407	0.165577	-0.470093	-0.853976	-1.24171	8.71501	5.37481	-0.0174533	0.0131639	0.00728103	-0.255127	-0.832275	-0.753174	-0.481427	0.444605	-0.422857	-0.625896	-9.50255	0.975521	2.4178	-0.00564563	0.00208505	-0.00339589	0.925537	-0.473633	-0.345703	0.0898443	0.121201	0.437369	-0.886536	-2.89467	-7.26111	5.65138	-0.029435	-0.00281745	-0.0202351	0.0202637	1.00171	-0.607178	0.795504	0.0122929	0.432958	-0.423756	-6.70804	-5.04422	8.36595	-0.00921273	0.0154119	0.000457646	0.734375	0.801758	-0.269043	0.0162541	-0.228689	-0.0952697	-0.96869	4.67073	1.82562	9.174	0.0260824	0.0200944	-0.0144941	-0.790283	-0.0407715	-0.76001	0.191858	0.880256	0.191884	-0.389257	-6.62467	1.99292	-5.44844	-0.00927917	0.0543969	-0.0102261	0.939453	0.136475	0.606689	0.0771611	-0.0324512	0.144652	-0.985936	0.689235	-2.68485	10.2295	0.0272516	0.00849373	-0.0147756	-0.432373	0.415771	-0.868164	-0.0402395	-0.0470355	0.163625	-0.984579	1.10385	-3.16865	9.93614	-0.00109254	0.014774	0.00473931	-0.474609	0.283447	-0.91626	-0.00421631	-0.091062	0.301814	-0.948999	1.76631	-5.55033	7.86861	-0.00907548	0.00991184	-0.00356226	-0.619385	0.518799	-0.826172	
30	0.21242	0.389623	0.069748	-0.893424	-7.26278	0.818917	7.84094	0.00210989	-0.0124899	0.00462029	0.538574	0.191406	-0.987793	0.16008	-0.0284427	0.0198256	-0.986495	0.605803	-0.501955	10.0295	-0.0199663	-0.00442328	-0.0115768	-0.281006	0.184326	-0.942627	0.149265	0.165473	-0.470164	-0.853981	-1.24389	8.67223	5.4079	0.0118259	-0.00724454	-0.00742414	-0.261475	-0.834473	-0.746338	-0.481329	0.444737	-0.422695	-0.625988	-9.41653	0.882001	2.43945	0.00852066	0.00515052	-0.00174487	0.918701	-0.47168	-0.343506	0.0899239	0.120906	0.437627	-0.886441	-2.74375	-7.47727	5.85553	-0.0248408	-0.0136198	-0.0219069	0.0222168	1.00635	-0.611572	0.795597	0.0121103	0.432927	-0.423619	-6.85388	-5.24524	8.37115	-0.00837862	0.0180703	-0.00237336	0.729736	0.80835	-0.264893	0.0159521	-0.228646	-0.0945605	-0.968775	4.69731	1.84359	9.19686	-0.0201698	0.00988711	-0.0200594	-0.797119	-0.036377	-0.76001	0.191499	0.8803	0.19213	-0.389211	-6.6734	1.92246	-5.52775	0.0144813	0.0188289	-0.0234511	0.939697	0.134277	0.599854	0.07723	-0.0323751	0.144639	-0.985935	0.682802	-2.70255	10.2028	0.000340749	0.00967311	-0.0129755	-0.432373	0.417969	-0.868164	-0.0401517	-0.0470775	0.163334	-0.984629	1.12866	-3.17819	9.91997	0.0239671	0.00817964	0.00537162	-0.481445	0.283447	-0.91626	-0.0042466	-0.0909726	0.301994	-0.94895	1.74275	-5.61571	7.82257	-0.0142746	0.0147057	-0.00279115	-0.628174	0.518799	-0.828369	
31	0.213117	0.389366	0.069825	-0.893364	-7.21774	0.74665	7.80136	0.0055727	0.0053161	-0.0067574	0.53833	0.193604	-0.985596	0.159819	-0.0281712	0.0202122	-0.986537	0.570361	-0.436797	10.0631	-0.00405018	0.0176209	-0.0241752	-0.276367	0.179932	-0.944824	0.14915	0.165269	-0.470079	-0.854088	-1.22961	8.65694	5.38528	0.00850425	-0.00340961	-0.00741964	-0.263672	-0.830078	-0.750977	-0.481314	0.44487	-0.422608	-0.625963	-9.48525	1.01896	2.42116	-0.00501372	0.00918334	-0.00708411	0.920898	-0.47168	-0.343506	0.0896087	0.121169	0.436977	-0.886758	-2.77096	-7.20058	5.72063	0.0232238	0.0207692	-0.0209323	0.0200195	1.00635	-0.611572	0.795576	0.0118938	0.43253	-0.42407	-6.67978	-5.06912	8.26007	0.00346771	0.0109766	-0.0294385	0.734131	0.806152	-0.266846	0.0158974	-0.228661	-0.0944033	-0.968788	4.67939	1.81082	9.16025	0.00356716	0.0135481	-0.0156138	-0.790527	-0.0385742	-0.762207	0.191498	0.880121	0.192106	-0.389629	-6.61062	1.91337	-5.4456	0.00961999	0.00254812	-0.020512	0.935303	0.136475	0.604492	0.077551	-0.032634	0.144072	-0.985984	0.763712	-2.70099	10.1958	0.0127984	0.0023822	-0.021302	-0.43457	0.415771	-0.870361	-0.040044	-0.047225	0.163421	-0.984612	1.12786	-3.1948	9.88901	0.00141854	0.00423213	0.00376243	-0.481445	0.283447	-0.920898	-0.00417063	-0.0909168	0.30181	-0.949014	1.75558	-5.60354	7.86895	0.00895194	0.0102495	-0.000326007	-0.621582	0.518799	-0.821533	
32	0.213893	0.389187	0.0698462	-0.893255	-7.26648	0.709745	7.77494	0.00816317	-0.00253237	0.00225554	0.540771	0.191406	-0.983398	0.159839	-0.028445	0.0202284	-0.986526	0.563878	-0.513021	10.1179	-0.0158746	0.00459368	-0.013458	-0.280762	0.179932	-0.944824	0.149108	0.165189	-0.470314	-0.853981	-1.2947	8.73607	5.39431	-0.000830694	0.00116297	-0.00355996	-0.259277	-0.834473	-0.748535	-0.481257	0.445097	-0.422164	-0.626146	-9.47744	0.97106	2.43867	-0.0205071	-0.00415015	-0.00605237	0.920898	-0.471436	-0.350342	0.089635	0.121083	0.437105	-0.886704	-2.85828	-7.28611	5.72211	-0.0208637	-0.0019733	-0.0163617	0.0222168	1.00635	-0.611572	0.795692	0.0116408	0.432246	-0.424147	-6.78251	-5.10374	8.32738	-0.0106162	0.0148498	-0.00350089	0.72998	0.801758	-0.266846	0.0158408	-0.228563	-0.094054	-0.968846	4.66466	1.79671	9.23174	0.00479777	0.0203333	-0.0135514	-0.790283	-0.0405273	-0.768555	0.191481	0.880115	0.192101	-0.389654	-6.60576	1.93763	-5.4288	0.0137109	0.0209582	-0.0193313	0.941406	0.140869	0.604248	0.078098	-0.0326315	0.144007	-0.98595	0.69673	-2.74383	10.2146	0.00281363	0.0125935	-0.00804559	-0.437012	0.415771	-0.870361	-0.0398415	-0.0473612	0.162996	-0.984684	1.09315	-3.16602	9.87001	0.0174806	0.00490105	0.00707001	-0.477051	0.283447	-0.923096	-0.00416262	-0.0908289	0.30164	-0.949076	1.72354	-5.61434	7.82349	0.0153148	0.0148118	-0.00237333	-0.623535	0.514404	-0.821533	
33	0.214327	0.388992	0.0696293	-0.893253	-7.20459	0.811076	7.83425	0.014501	-0.00357628	-0.00680228	0.540527	0.193604	-0.987793	0.159892	-0.0286273	0.0202636	-0.986511	0.597948	-0.490655	10.1482	-0.00700104	0.010213	-0.0148093	-0.280762	0.182129	-0.944824	0.14895	0.164954	-0.470472	-0.853967	-1.25766	8.70449	5.36235	0.018859	-0.00296698	-0.00166663	-0.25293	-0.830322	-0.748779	-0.481144	0.445364	-0.421924	-0.626204	-9.42749	0.921423	2.44085	-0.0137769	0.0103573	-0.0020532	0.92334	-0.47583	-0.3479	0.0897831	0.12108	0.436953	-0.886764	-2.79921	-7.41847	5.75537	0.0104759	0.00729042	-0.0102779	0.0222168	1.00195	-0.616211	0.795823	0.0116072	0.431959	-0.424195	-6.81272	-5.0881	8.33134	0.0122655	0.0141184	-0.0129881	0.727783	0.799561	-0.270996	0.0158378	-0.22859	-0.0940285	-0.968842	4.68833	1.81668	9.20306	0.0154865	0.0124644	-0.0137895	-0.794678	-0.0385742	-0.762207	0.191011	0.880233	0.192379	-0.38948	-6.6577	1.91847	-5.50812	0.00972351	0.0121585	-0.0243308	0.9375	0.13208	0.602051	0.0785931	-0.0325509	0.143534	-0.985983	0.669665	-2.76534	10.1709	0.0224286	0.0109634	-0.0143309	-0.437012	0.417969	-0.868164	-0.0396948	-0.0474697	0.162711	-0.984731	1.11161	-3.18272	9.86247	0.0205089	0.0127078	0.00458068	-0.490234	0.281006	-0.920898	-0.00421229	-0.0903419	0.301304	-0.949229	1.74513	-5.58316	7.86232	0.00501491	0.0198537	-0.00182209	-0.619141	0.516602	-0.82373	
34	0.215021	0.388888	0.0696355	-0.893131	-7.22521	0.775037	7.79835	0.00319918	0.00473011	0.00179685	0.538574	0.189209	-0.987793	0.159857	-0.0285722	0.0202358	-0.986519	0.584919	-0.472939	10.0954	-0.00535629	0.0172105	-0.0193035	-0.280762	0.179932	-0.947021	0.149121	0.165042	-0.470513	-0.853898	-1.208	8.7597	5.46721	0.0168291	0.0148852	0.00392667	-0.255127	-0.834473	-0.746338	-0.481114	0.445487	-0.422177	-0.625969	-9.43847	0.98974	2.47473	0.00953927	0.0148871	0.000351426	0.925537	-0.473633	-0.3479	0.0899831	0.121143	0.436672	-0.886874	-2.80761	-7.23303	5.74177	-0.000419752	0.00571928	-0.00664969	0.0180664	0.999756	-0.611572	0.795834	0.0113851	0.431636	-0.42451	-6.72445	-5.04238	8.35559	0.0209261	0.0114271	-0.0226338	0.727539	0.80835	-0.26709	0.0158563	-0.228707	-0.0940357	-0.968813	4.67775	1.79494	9.16659	0.0177726	0.010443	-0.0130682	-0.79248	-0.0427246	-0.76001	0.191358	0.87997	0.192424	-0.389881	-6.62584	1.90184	-5.4683	0.00156296	0.00450643	-0.0186981	0.932861	0.138672	0.597412	0.0790227	-0.0327971	0.142942	-0.986026	0.706165	-2.68987	10.1507	0.0203651	-0.00231277	-0.0170065	-0.432373	0.417969	-0.868164	-0.0394111	-0.0480495	0.162234	-0.984793	1.14503	-3.12814	9.94578	0.0192534	-0.0115538	0.00538358	-0.483643	0.28125	-0.91626	-0.00423577	-0.0897626	0.301254	-0.9493	1.69848	-5.55397	7.84482	-0.00177219	0.0317058	0.00499047	-0.619385	0.518799	-0.830566	
35	0.215674	0.388781	0.0697026	-0.893015	-7.24763	0.756129	7.80821	0.00567112	0.00077013	-0.00454741	0.540771	0.189209	-0.987793	0.15989	-0.0284859	0.020266	-0.986516	0.589998	-0.514072	10.1076	-0.0148919	0.0152776	-0.0135422	-0.278809	0.186523	-0.942627	0.149089	0.164769	-0.470639	-0.853887	-1.29305	8.62693	5.37199	0.0232935	-0.0119502	0.0045458	-0.257324	-0.830322	-0.741943	-0.48104	0.445663	-0.422387	-0.625759	-9.48369	0.958884	2.43148	0.00873044	0.0205824	-0.0019776	0.921143	-0.47583	-0.343506	0.0901559	0.121055	0.436687	-0.886861	-2.8138	-7.19921	5.73951	-0.00561507	0.00203517	-0.013473	0.0202637	1.00171	-0.602539	0.79587	0.0110286	0.43142	-0.424672	-6.74009	-5.07301	8.35367	-0.00439325	0.0108569	-0.0179361	0.725586	0.801758	-0.269043	0.0159773	-0.228817	-0.0942041	-0.968769	4.68134	1.78646	9.18701	0.0250178	0.0131985	-0.0107954	-0.796631	-0.0449219	-0.76416	0.19148	0.879824	0.192615	-0.390058	-6.63347	1.90263	-5.49246	-0.00133052	0.0028921	-0.0163536	0.935059	0.138672	0.602051	0.0794608	-0.0331676	0.142579	-0.986031	0.726074	-2.69654	10.1963	0.0127344	-0.00376165	-0.0187169	-0.434814	0.417969	-0.868164	-0.039272	-0.048276	0.162174	-0.984798	1.15649	-3.12896	10.087	0.0172432	0.00634274	0.0035567	-0.48584	0.283447	-0.920898	-0.00423645	-0.0895377	0.301204	-0.949337	1.76183	-5.5291	7.95429	-0.0028217	0.0153368	-0.00206028	-0.61499	0.523438	-0.830566	
36	0.216285	0.388553	0.0697188	-0.892965	-7.26187	0.799194	7.81394	0.00497113	-0.00420845	-0.00430602	0.545166	0.189209	-0.987793	0.15992	-0.0285612	0.0201978	-0.98651	0.641587	-0.464182	10.1297	-0.00617051	0.00923047	-0.0154284	-0.280762	0.182129	-0.947266	0.149141	0.164834	-0.47089	-0.853727	-1.18205	8.7417	5.48693	0.0288751	0.0121683	0.00411594	-0.261475	-0.838867	-0.743896	-0.480923	0.445738	-0.422153	-0.625953	-9.40068	1.00163	2.37683	-0.0169066	-0.000422225	0.0031507	0.923096	-0.47168	-0.341309	0.0902783	0.120923	0.436902	-0.88676	-2.766	-7.45855	5.77031	-0.0210607	-0.00403767	-0.0125204	0.0222168	1.00635	-0.609375	0.795939	0.0105487	0.431222	-0.424756	-6.73452	-5.22105	8.32181	0.000938791	0.00693614	-0.021217	0.731934	0.806152	-0.273438	0.0159191	-0.228857	-0.0942205	-0.968759	4.68457	1.82142	9.16989	0.0147048	0.0125651	-0.015955	-0.792725	-0.036377	-0.762207	0.191786	0.879604	0.192558	-0.390432	-6.6406	1.93812	-5.43552	0.0039198	0.00760972	-0.0168922	0.941895	0.13208	0.606689	0.0797404	-0.0333875	0.142342	-0.986035	0.818046	-2.68516	10.1353	0.0131865	0.00317543	-0.0213293	-0.44165	0.415527	-0.86377	-0.0392667	-0.0482243	0.162085	-0.984815	1.12969	-3.17237	9.99983	-0.00833527	0.0267214	0.000160273	-0.488037	0.279053	-0.923096	-0.00426533	-0.0894317	0.301407	-0.949283	1.70735	-5.636	7.87759	-0.00253148	0.00975507	-0.00290648	-0.619141	0.516602	-0.82373	
37	0.216942	0.388328	0.0699225	-0.892888	-7.18459	0.765149	7.82761	-0.00634006	0.00389939	0.000340874	0.543213	0.184814	-0.987549	0.159931	-0.0285194	0.0203658	-0.986506	0.586644	-0.445657	10.147	-0.0181493	0.0191233	-0.0169796	-0.276367	0.179932	-0.944824	0.149061	0.164632	-0.470576	-0.853953	-1.32299	8.52147	5.23787	-0.0119816	-0.00997182	-0.0108744	-0.255127	-0.834717	-0.741699	-0.480808	0.446239	-0.421908	-0.62585	-9.49983	0.955294	2.42328	-0.0135427	0.0167299	-0.0128571	0.925293	-0.471436	-0.341309	0.0902153	0.121083	0.436727	-0.886831	-2.82272	-7.22846	5.70488	-0.0155947	0.0126595	-0.0160706	0.0222168	1.00195	-0.611572	0.796098	0.0104515	0.430847	-0.424841	-6.78016	-5.11957	8.30247	-0.000231063	0.0134288	-0.00678413	0.727783	0.801758	-0.275391	0.0159191	-0.228857	-0.0942205	-0.968759	4.68457	1.82142	9.16989	0.0147048	0.0125651	-0.015955	-0.792725	-0.036377	-0.762207	0.191791	0.879669	0.192565	-0.39028	-6.63862	1.91428	-5.40895	0.0102199	0.0356852	-0.0164683	0.939697	0.134277	0.602051	0.0799445	-0.0334295	0.142133	-0.986047	0.787535	-2.66723	10.1628	0.0175937	0.00688938	-0.0163826	-0.434326	0.408936	-0.865967	-0.0391517	-0.0483389	0.161776	-0.984865	1.14215	-3.13959	9.86801	0.0257843	0.00265844	0.00792859	-0.485596	0.276855	-0.91626	-0.00422243	-0.0893688	0.301177	-0.949362	1.7147	-5.59289	7.83768	0.00340649	0.0108581	-0.00274569	-0.621582	0.518799	-0.833008	
38	0.217317	0.388355	0.0700149	-0.892778	-7.21334	0.734606	7.80973	-0.00176894	0.0119896	0.00133279	0.540771	0.191406	-0.985596	0.159922	-0.02849	0.0204702	-0.986506	0.630335	-0.477661	10.0779	-0.0101538	0.012693	-0.0170028	-0.280762	0.179932	-0.942383	0.148721	0.164509	-0.471493	-0.85353	-1.13935	8.9436	5.57177	0.0220239	0.00511994	-0.00307354	-0.261475	-0.834473	-0.741699	-0.480767	0.446307	-0.421816	-0.625895	-9.51471	1.02866	2.44051	-0.00639256	0.00384409	-0.0010463	0.925537	-0.473633	-0.345703	0.090255	0.120922	0.437092	-0.886669	-2.80129	-7.48168	5.80576	0.0048252	0.00679555	-0.0171529	0.015625	1.00635	-0.616211	0.79618	0.0102351	0.430695	-0.424846	-6.83164	-5.16818	8.42732	0.00117207	0.00800785	-0.0163447	0.721191	0.803955	-0.273193	0.0158243	-0.228508	-0.0950068	-0.968766	4.68744	1.83589	9.16726	0.0254709	0.0132908	-0.0130264	-0.794678	-0.0407715	-0.766357	0.191951	0.879697	0.192672	-0.390084	-6.65096	1.92688	-5.48622	0.00363517	0.0132881	-0.020983	0.939697	0.134277	0.602051	0.079985	-0.0334176	0.141952	-0.986071	0.701686	-2.69211	10.233	0.00761804	0.00618379	-0.0138113	-0.43457	0.41333	-0.86377	-0.039068	-0.0483355	0.162017	-0.984829	1.07494	-3.11807	9.9421	-0.0276459	0.0114896	0.00567289	-0.488037	0.283203	-0.91626	-0.00417439	-0.0892765	0.301015	-0.949422	1.69285	-5.55287	7.86282	0.0147499	0.0141602	0.00076034	-0.614746	0.519043	-0.830566	
39	0.218123	0.3883	0.0701621	-0.892594	-7.25173	0.752246	7.77542	0.00351934	0.000522704	-0.000618688	0.545166	0.189209	-0.987793	0.159908	-0.028492	0.0203912	-0.98651	0.531945	-0.432742	10.1254	-0.0108087	0.0106433	-0.017466	-0.278809	0.186523	-0.937988	0.14887	0.164391	-0.470944	-0.85383	-1.36214	8.54638	5.17319	0.00323339	-0.00384312	0.00383453	-0.25708	-0.838867	-0.741699	-0.480649	0.446419	-0.421592	-0.626057	-9.40619	0.832256	2.37336	0.00686217	0.0103009	-0.00466001	0.927979	-0.478027	-0.343506	0.0901491	0.12114	0.436847	-0.886771	-2.88304	-7.26212	5.67192	0.00332518	0.0103914	-0.0155602	0.0180664	1.00195	-0.614014	0.796211	0.0101318	0.430517	-0.424971	-6.75965	-5.17024	8.34076	0.0146303	0.0103837	-0.023204	0.731934	0.803955	-0.269043	0.0158742	-0.228586	-0.094988	-0.968748	4.67732	1.80436	9.19135	0.0227409	0.00917151	-0.0104302	-0.788086	-0.0405273	-0.76416	0.192204	0.879526	0.192741	-0.39031	-6.63329	1.92931	-5.46415	-0.00104082	0.0153329	-0.0197238	0.934814	0.142822	0.604248	0.0803812	-0.0336169	0.141634	-0.986077	0.746425	-2.68894	10.1688	0.019426	0.00171894	-0.017636	-0.432617	0.42041	-0.86377	-0.0389399	-0.0485222	0.161907	-0.984843	1.18704	-3.12228	9.86999	-0.0149121	0.00337818	0.00241162	-0.481201	0.28125	-0.91626	-0.00416169	-0.0892534	0.301095	-0.949399	1.72866	-5.58934	7.97361	-0.0178112	0.0122927	-0.00443785	-0.623779	0.518799	-0.828369	
40	0.218893	0.388309	0.070296	-0.89239	-7.2684	0.7699	7.8006	0.000378994	0.0092201	0.00283474	0.545166	0.189209	-0.985596	0.159973	-0.0285508	0.0203688	-0.986498	0.594397	-0.407692	10.1619	-0.0144615	0.00986986	-0.0153842	-0.276367	0.179932	-0.942383	0.148718	0.164212	-0.47134	-0.853672	-1.26757	8.77419	5.34522	-0.00954628	0.0090019	0.00370363	-0.261475	-0.830078	-0.741699	-0.480472	0.446823	-0.421053	-0.626267	-9.37939	0.850741	2.4156	-0.00688738	-0.00362331	-0.0086992	0.929932	-0.47583	-0.345703	0.090264	0.120691	0.43761	-0.886445	-2.80685	-7.40466	5.74039	-0.0412514	-0.0110939	-0.0232436	0.0200195	1.00415	-0.609375	0.796315	0.00975183	0.430428	-0.424875	-6.78232	-5.31078	8.32468	-0.0131232	0.00563797	0.00242122	0.72998	0.801758	-0.269043	0.0160106	-0.228616	-0.0952613	-0.968712	4.69554	1.82424	9.13869	0.0265722	0.0146189	-0.0132155	-0.792725	-0.036377	-0.76001	0.1921	0.879734	0.192837	-0.389847	-6.61585	1.90104	-5.40724	0.0162829	0.0576614	-0.0184551	0.933105	0.136475	0.606689	0.0807971	-0.0336918	0.141567	-0.98605	0.825085	-2.7046	10.1134	0.00151419	0.00929329	-0.0133138	-0.436768	0.41333	-0.865967	-0.0388901	-0.0484158	0.162059	-0.984825	1.13114	-3.19048	10.0229	0.00318905	0.00923049	0.00505684	-0.483643	0.283447	-0.914062	-0.00414379	-0.0893294	0.301281	-0.949333	1.73769	-5.57436	7.87895	0.00316978	-0.0016994	-0.00345303	-0.614746	0.52124	-0.830566	
41	0.219485	0.388142	0.0702938	-0.892318	-7.24161	0.755707	7.7814	0.00929134	-0.00321583	-0.00229325	0.547607	0.184814	-0.983398	0.160026	-0.0285374	0.0202915	-0.986492	0.575294	-0.432115	10.1913	0.00271283	0.0128418	-0.0158283	-0.278564	0.177734	-0.94458	0.1485	0.164086	-0.471512	-0.853639	-1.1665	8.70079	5.38001	0.0501761	-0.00668376	-0.0072347	-0.25708	-0.838867	-0.741699	-0.480771	0.447003	-0.420888	-0.62602	-9.47795	1.01821	2.35963	-0.0101807	0.00243977	-0.019726	0.927734	-0.47583	-0.3479	0.0904011	0.120305	0.438206	-0.886188	-2.82901	-7.27698	5.68483	-0.0403317	-0.0182853	-0.0199037	0.015625	1.00391	-0.609375	0.796803	0.00950838	0.429783	-0.424619	-6.67416	-5.06471	8.34967	0.00517619	-0.00480291	0.00769839	0.734131	0.803955	-0.27124	0.0161575	-0.22855	-0.0955998	-0.968692	4.67943	1.79174	9.14304	0.0325828	0.0178333	-0.0134099	-0.794922	-0.036377	-0.768555	0.192229	0.880259	0.193029	-0.3885	-6.59895	1.88774	-5.47067	0.0023979	0.0890379	-0.0086235	0.935059	0.138672	0.604492	0.081082	-0.0334396	0.141626	-0.986027	0.808867	-2.62666	10.1872	-0.0109414	0.0251518	-0.0146631	-0.432129	0.411377	-0.870361	-0.0388103	-0.048145	0.162379	-0.984789	1.17739	-3.1911	9.91215	-0.0180217	0.0265627	0.00454015	-0.483643	0.28125	-0.920898	-0.00414635	-0.0893896	0.301616	-0.949221	1.71468	-5.60134	7.92904	-0.0128317	0.00484556	-0.00368039	-0.621338	0.516602	-0.828369	
42	0.219692	0.388259	0.0701533	-0.892227	-7.24562	0.738548	7.82636	0.0100122	0.00678628	-0.000810449	0.547607	0.184814	-0.981201	0.160133	-0.0286881	0.0202237	-0.986471	0.612087	-0.464457	10.1172	-0.01205	0.00471003	-0.0139652	-0.280762	0.179932	-0.942383	0.148465	0.164184	-0.47153	-0.853617	-1.31528	8.74595	5.37067	-0.00410238	0.00646852	0.001322	-0.259277	-0.834473	-0.741699	-0.48105	0.447033	-0.420305	-0.626176	-9.51442	0.907095	2.46292	0.00250144	-0.0214726	-0.0135886	0.923096	-0.469238	-0.34375	0.0903718	0.119875	0.438665	-0.886023	-2.73995	-7.34472	5.72929	-0.0108414	0.00987352	-0.0264272	0.0222168	1.00415	-0.609375	0.797339	0.00931528	0.429196	-0.424211	-6.83214	-5.14697	8.36674	0.00874629	-0.00249237	0.0062112	0.732178	0.799561	-0.268799	0.0163643	-0.228401	-0.0958946	-0.968695	4.71054	1.82847	9.21259	0.0259437	0.0214652	-0.0110184	-0.79248	-0.0427246	-0.76416	0.192081	0.881018	0.193344	-0.386692	-6.61815	1.93093	-5.58191	0.00529588	0.096075	-0.0114144	0.926758	0.131836	0.616211	0.0811117	-0.0328	0.14182	-0.986018	0.711429	-2.71997	10.2199	-0.00451586	0.0314933	-0.00936379	-0.427734	0.418213	-0.870361	-0.0387085	-0.048161	0.162608	-0.984754	1.1521	-3.13332	9.87724	-0.0130086	0.00592039	0.00515869	-0.481445	0.285645	-0.920898	-0.00408967	-0.0895841	0.301549	-0.949224	1.72941	-5.61085	7.81769	0.00260505	0.00137291	-0.00386284	-0.621338	0.516602	-0.830566	
43	0.220079	0.387965	0.0699453	-0.892276	-7.20871	0.842798	7.81134	0.00972317	-0.00881764	-0.00528744	0.538574	0.189209	-0.987793	0.160119	-0.0288006	0.0204017	-0.986467	0.530418	-0.475534	10.1737	-0.0158784	0.00718518	-0.0175341	-0.281006	0.184326	-0.937744	0.148499	0.164081	-0.471437	-0.853682	-1.28526	8.57494	5.2882	0.00918158	0.00673025	-0.0013128	-0.261475	-0.830078	-0.739502	-0.481145	0.447197	-0.419737	-0.626367	-9.35881	0.816878	2.40613	-0.020815	-0.00570974	-0.00936707	0.925293	-0.471436	-0.345703	0.0903619	0.119777	0.438842	-0.885949	-2.83461	-7.42531	5.75027	0.0144073	0.00783011	-0.0145312	0.0112305	1.0083	-0.611572	0.797675	0.00940058	0.428647	-0.424132	-6.803	-5.15442	8.34138	0.0110169	0.000752045	-0.00376515	0.731934	0.803955	-0.277588	0.0164037	-0.228246	-0.0959503	-0.968725	4.65544	1.84869	9.16289	0.0155245	0.0205596	-0.0143711	-0.790527	-0.0385742	-0.76001	0.192225	0.881257	0.193401	-0.386045	-6.56396	1.93799	-5.57245	0.00450776	0.0363514	-0.0137171	0.924316	0.138428	0.616211	0.0813832	-0.0324355	0.142072	-0.985972	0.663373	-2.75606	10.1225	0.00441535	0.0216099	-0.0169363	-0.42749	0.413574	-0.870361	-0.0386745	-0.0477689	0.162841	-0.984736	1.09565	-3.14893	9.93837	-0.0120742	0.0269905	0.00420169	-0.483643	0.28125	-0.918457	-0.00409481	-0.0896939	0.301926	-0.949094	1.73721	-5.55456	7.85634	-0.00720053	-0.000251692	-0.00313705	-0.617188	0.52124	-0.821533	
44	0.220759	0.387841	0.0700951	-0.89215	-7.33239	0.767143	7.7698	0.00272129	5.10465e-05	-0.00324498	0.534424	0.187012	-0.985596	0.160198	-0.0290471	0.0199477	-0.986456	0.573579	-0.525012	10.2621	0.0132354	-0.00526518	-0.015335	-0.278809	0.182129	-0.944824	0.148423	0.163933	-0.471465	-0.853708	-1.2432	8.662	5.27175	0.00565517	-0.00695592	-0.00222446	-0.263428	-0.838867	-0.741699	-0.481251	0.447376	-0.419739	-0.626156	-9.50682	0.995452	2.50046	0.000518056	0.00730576	-0.00773646	0.922852	-0.464844	-0.350342	0.0903441	0.119741	0.438913	-0.885921	-2.81236	-7.34341	5.72589	-0.00664049	0.00640653	-0.0181468	0.0180664	0.999512	-0.609375	0.797927	0.00929841	0.428036	-0.424278	-6.77327	-4.97315	8.43785	0.0178715	0.00159161	-0.00963098	0.73877	0.799561	-0.268799	0.0164747	-0.228097	-0.0962193	-0.968732	4.67231	1.82592	9.11044	0.0332156	0.0210673	-0.0158752	-0.790527	-0.0385742	-0.76001	0.192261	0.881479	0.193314	-0.385565	-6.55621	1.86534	-5.64612	0.0167062	0.0371194	-0.0103378	0.924316	0.138428	0.618408	0.0812465	-0.0322567	0.141855	-0.98602	0.670999	-2.72293	10.1514	0.0106525	0.0126878	-0.0190435	-0.430176	0.42041	-0.868164	-0.0386163	-0.047893	0.163197	-0.984673	1.12679	-3.19171	9.90821	-0.0283329	0.00918301	0.00246438	-0.486084	0.285645	-0.920898	-0.00414655	-0.0896962	0.30249	-0.948914	1.70175	-5.63478	7.86923	-0.0260613	0.00802973	-0.00505738	-0.621582	0.518799	-0.82373	
45	0.221353	0.387475	0.0701515	-0.892157	-7.20518	0.76003	7.82176	0.0039485	-0.00518021	-0.00558735	0.541016	0.187012	-0.983398	0.160259	-0.0292008	0.0211042	-0.986417	0.562485	-0.574986	10.0114	-0.0499427	0.00528332	-0.0121903	-0.274414	0.184326	-0.942627	0.148361	0.163751	-0.471899	-0.853514	-1.33444	8.75087	5.31753	-0.00560909	0.00626867	0.00940613	-0.25708	-0.838867	-0.741699	-0.481367	0.447626	-0.419724	-0.625898	-9.47569	0.929727	2.41615	-0.00235599	0.0209368	-0.013138	0.929443	-0.462646	-0.348145	0.0902454	0.119575	0.438874	-0.885973	-2.78043	-7.39993	5.72247	0.00721638	0.00535219	-0.0185458	0.0200195	1.0061	-0.607178	0.796776	0.0096924	0.426708	-0.427755	-6.69225	-5.06142	8.33409	0.00383076	0.00615236	-0.0104672	0.731934	0.803955	-0.275391	0.0163104	-0.227996	-0.0957881	-0.968802	4.68118	1.81382	9.16891	-0.0197416	0.0229526	-0.0205955	-0.79248	-0.0407715	-0.766357	0.191981	0.881849	0.193337	-0.384846	-6.51132	1.89433	-5.54242	0.0114786	0.0365365	-0.0137388	0.930908	0.13623	0.625488	0.0815022	-0.032266	0.141679	-0.986024	0.683376	-2.64457	10.2156	0.00773879	0.012677	-0.0204054	-0.432373	0.417969	-0.865967	-0.0385396	-0.0477266	0.163198	-0.984684	1.0942	-3.21105	9.94229	-0.00797314	0.0168263	0.00494512	-0.488281	0.2854	-0.91626	-0.00416152	-0.0897839	0.302659	-0.948852	1.71987	-5.63735	7.84601	-0.000629411	0.00326169	-0.00409437	-0.621582	0.520996	-0.82373	
46	0.221667	0.38738	0.0701505	-0.892121	-7.2465	0.787089	7.81962	0.00532747	-0.00155196	-0.00113387	0.541016	0.184814	-0.983398	0.160312	-0.0292979	0.0214455	-0.986398	0.650361	-0.568481	10.1632	-0.0390209	0.0123487	-0.0130576	-0.278809	0.184326	-0.940186	0.148105	0.163343	-0.472574	-0.853263	-1.22072	8.60318	5.5127	0.0438659	-0.0154335	0.00138949	-0.261475	-0.834473	-0.739502	-0.481367	0.447626	-0.419724	-0.625898	-9.47569	0.929727	2.41615	-0.00235599	0.0209368	-0.013138	0.929443	-0.462646	-0.348145	0.090146	0.119535	0.438581	-0.886133	-2.72172	-7.41264	5.74543	-0.00433312	-0.00773486	-0.0212416	0.015625	1.00391	-0.604736	0.796207	0.00986844	0.426215	-0.4293	-6.75502	-5.1214	8.38061	0.00626214	0.0119894	-0.00981098	0.736572	0.797607	-0.270996	0.0160501	-0.227668	-0.0959769	-0.968864	4.6912	1.7939	9.19718	0.013388	0.0193951	-0.0203985	-0.79248	-0.0407715	-0.76416	0.191744	0.881937	0.193326	-0.384768	-6.57285	1.89536	-5.60213	0.0276722	0.0326867	-0.0238383	0.926758	0.134033	0.623291	0.0816203	-0.032247	0.141714	-0.98601	0.73356	-2.69122	10.1816	0.00107912	0.011477	-0.0191095	-0.429932	0.415771	-0.875	-0.0384998	-0.047745	0.163152	-0.984693	1.16233	-3.26784	9.90643	0.0045032	0.0105113	0.00374009	-0.483643	0.28125	-0.920898	-0.00418298	-0.0898298	0.302703	-0.948833	1.74889	-5.65416	7.76706	-0.00309149	0.00478194	-0.00634407	-0.621338	0.514404	-0.82373	
47	0.223104	0.386874	0.0703359	-0.891967	-7.22871	0.797811	7.77343	-0.00678791	0.00313875	0.00761759	0.543213	0.187012	-0.989746	0.160315	-0.0294834	0.0222762	-0.986374	0.581675	-0.523218	10.0527	-0.0444416	0.0180035	-0.0181845	-0.274414	0.186523	-0.940186	0.147892	0.163162	-0.472598	-0.853321	-1.23296	8.60377	5.30325	0.0118424	-0.014827	-0.00289688	-0.254883	-0.83667	-0.737061	-0.48131	0.448189	-0.41916	-0.625917	-9.39925	0.94748	2.4197	0.00202092	0.0113507	-0.0157273	0.923096	-0.469238	-0.350342	0.0899704	0.119644	0.438046	-0.886401	-2.72017	-7.43941	5.71948	0.0204277	0.0143431	-0.0147058	0.015625	1.00391	-0.609375	0.795245	0.0102324	0.425067	-0.432202	-6.78833	-5.14398	8.3865	0.0372711	0.0088499	-0.0225593	0.736572	0.797607	-0.277344	0.0158148	-0.227728	-0.0958792	-0.968864	4.7472	1.82574	9.14794	0.00512388	0.00823046	-0.030602	-0.790527	-0.0385742	-0.76416	0.191319	0.882109	0.193258	-0.384618	-6.50959	1.88219	-5.51948	0.0232671	0.0242522	-0.0162284	0.926514	0.140625	0.623047	0.0816619	-0.0322171	0.141738	-0.986004	0.744424	-2.74042	10.2042	0.00189537	0.0127185	-0.0242346	-0.432373	0.418213	-0.870605	-0.0383638	-0.0478328	0.162837	-0.984746	1.16881	-3.09845	9.97236	0.00252158	0.00580761	0.00691201	-0.483643	0.285645	-0.918701	-0.00415962	-0.0898461	0.302272	-0.948969	1.74239	-5.5854	7.89624	0.0208446	0.00627454	-0.00379745	-0.619385	0.523438	-0.821533	
48	0.223552	0.386772	0.0704245	-0.891893	-7.31131	0.769072	7.77643	-0.0052105	0.00046382	0.00646828	0.538818	0.187012	-0.98999	0.160147	-0.0299094	0.0222824	-0.986388	0.527002	-0.538135	10.1533	-0.00499173	0.00562193	-0.026262	-0.276855	0.188721	-0.937988	0.147604	0.162829	-0.473198	-0.853102	-1.17737	8.73602	5.36032	0.0286572	-0.0106109	0.00214478	-0.25708	-0.838867	-0.739258	-0.481434	0.448304	-0.418957	-0.625876	-9.46575	0.988162	2.43086	-0.00398326	-5.36225e-06	-0.0187589	0.92749	-0.471436	-0.345703	0.0898111	0.119637	0.437677	-0.8866	-2.88166	-7.32793	5.74178	0.0114395	0.000597023	-0.018925	0.0134277	1.0061	-0.607178	0.794791	0.0105296	0.424294	-0.433786	-6.77494	-5.11726	8.39623	0.0227686	-0.000908607	-0.0142807	0.732178	0.801758	-0.277588	0.0151516	-0.227265	-0.0965743	-0.968914	4.66461	1.84817	9.16105	0.0196883	0.0151154	-0.0275137	-0.790039	-0.0449219	-0.766113	0.191121	0.882496	0.192969	-0.383975	-6.51169	1.94237	-5.60195	0.0172741	0.0606121	-0.000513058	0.930908	0.134033	0.62085	0.0811119	-0.031586	0.14145	-0.986111	0.761813	-2.7195	10.1667	0.0101629	0.0217557	-0.0219977	-0.429932	0.415771	-0.868164	-0.0382797	-0.0477596	0.162854	-0.98475	1.09666	-3.18082	9.89229	-0.000397601	0.0126706	0.00521456	-0.483643	0.283447	-0.914062	-0.00412957	-0.0899497	0.30226	-0.948963	1.6919	-5.55016	7.90249	-0.00348688	0.00309522	-0.0040598	-0.619385	0.52124	-0.821533	
49	0.224245	0.38638	0.0704727	-0.891885	-7.21915	0.794584	7.80547	0.00518691	-0.00696167	-0.00481494	0.540771	0.189209	-0.981201	0.160142	-0.0303037	0.0222736	-0.986377	0.60686	-0.501794	10.0802	-0.0146942	0.00353331	-0.0181151	-0.279053	0.190918	-0.937988	0.147254	0.162463	-0.473712	-0.852947	-1.26021	8.66865	5.19966	0.0455648	-0.0229353	0.000418045	-0.263672	-0.83667	-0.739258	-0.481471	0.448771	-0.418607	-0.625746	-9.47365	0.819515	2.38566	-0.0034018	0.0194782	-0.0202991	0.92749	-0.467041	-0.354736	0.0898487	0.119625	0.437489	-0.886691	-2.8101	-7.33826	5.75337	-0.00559685	-0.00218287	-0.0119514	0.0112305	1.00391	-0.609375	0.794136	0.0110283	0.422984	-0.436247	-6.78642	-4.99413	8.47584	0.0227932	-0.00306307	-0.00430277	0.736328	0.801758	-0.277588	0.0150434	-0.227068	-0.0971053	-0.968909	4.65464	1.82829	9.16395	0.0397274	0.020857	-0.0227874	-0.790527	-0.0385742	-0.76416	0.190893	0.882863	0.192879	-0.383289	-6.52311	1.9379	-5.61906	0.0239909	0.0825822	-0.00405318	0.926514	0.138428	0.625488	0.0812654	-0.0312047	0.141318	-0.98613	0.665997	-2.70992	10.2035	0.0173954	0.0382167	-0.012221	-0.425293	0.413574	-0.872559	-0.0382921	-0.0475217	0.163026	-0.984732	1.10587	-3.16115	9.93737	-0.00702722	0.0151884	0.00174817	-0.48584	0.285645	-0.911865	-0.00413275	-0.0900636	0.302509	-0.948873	1.71999	-5.60844	7.85456	-0.00675506	0.00318435	-0.0043984	-0.619385	0.523438	-0.826172	
50	0.224821	0.386214	0.0707219	-0.891792	-7.23245	0.765486	7.81831	-0.00487926	0.00234792	-0.00548784	0.542969	0.191406	-0.985596	0.160164	-0.0307382	0.022445	-0.986356	0.634972	-0.507556	10.1453	-0.0210949	0.00649243	-0.0156697	-0.281006	0.188721	-0.942627	0.147245	0.162103	-0.474027	-0.852842	-1.20577	8.65564	5.38236	-0.00776612	0.00507067	0.00856075	-0.263428	-0.83667	-0.737061	-0.481473	0.449035	-0.418613	-0.625552	-9.45017	0.897664	2.42909	0.00889422	0.00743206	-0.0037428	0.929443	-0.464844	-0.34375	0.0897365	0.119693	0.436681	-0.887091	-2.76807	-7.23042	5.79255	0.0469022	0.011743	-0.0176698	0.0134277	1.0061	-0.609375	0.793678	0.0112759	0.422313	-0.437721	-6.76775	-5.07616	8.42746	0.0196957	0.000322436	-0.0155183	0.734131	0.806152	-0.277588	0.0150045	-0.226996	-0.0972391	-0.968913	4.67548	1.87235	9.22607	0.0195123	0.0157818	-0.017339	-0.792236	-0.0449219	-0.766113	0.190077	0.883538	0.193142	-0.382005	-6.52788	1.945	-5.6614	0.0166821	0.0494165	-0.0110271	0.926514	0.138428	0.62085	0.0809596	-0.0304168	0.14057	-0.986286	0.61107	-2.68998	10.2034	0.0230043	0.0237802	-0.0152328	-0.427246	0.406738	-0.870361	-0.0382311	-0.0473869	0.163079	-0.984732	1.08136	-3.17641	9.95362	-0.000690711	0.0205448	0.00333528	-0.483643	0.283447	-0.920898	-0.00412447	-0.0902997	0.302747	-0.948774	1.74455	-5.59496	7.86586	-0.0137657	2.19455e-05	-0.00566054	-0.619385	0.523438	-0.82373	
51	0.225202	0.386199	0.0708821	-0.891689	-7.22793	0.754341	7.79752	0.00727116	0.00753897	-0.0140925	0.542969	0.189209	-0.989746	0.160175	-0.0307607	0.0222534	-0.986358	0.580608	-0.425697	10.2161	-0.00182795	0.000888851	-0.0164248	-0.276611	0.184326	-0.933105	0.147345	0.162075	-0.474286	-0.852686	-1.20838	8.75527	5.26222	0.0137006	0.00362861	0.0051732	-0.263428	-0.841064	-0.734619	-0.481378	0.449243	-0.418456	-0.62558	-9.48439	0.842309	2.42804	-0.0118024	0.00810836	-0.00297911	0.927246	-0.462646	-0.350342	0.0895636	0.119777	0.436324	-0.887273	-2.80701	-7.35118	5.69116	0.0338381	0.0110039	-0.0222843	0.0200195	1.00635	-0.614014	0.792999	0.0113179	0.421393	-0.439832	-6.6958	-5.00184	8.37383	0.010484	0.00614595	-0.0172871	0.734131	0.803955	-0.281982	0.015306	-0.227178	-0.0980562	-0.968783	4.60611	1.84279	9.20797	0.0555809	0.00493857	-0.00688532	-0.788086	-0.0407715	-0.757812	0.189979	0.883698	0.193103	-0.381703	-6.46035	1.90339	-5.60545	0.0152099	0.0474779	-0.0127926	0.922363	0.13623	0.625488	0.0812798	-0.0305674	0.14034	-0.986288	0.659845	-2.6651	10.2026	0.00886854	0.00176893	-0.0155675	-0.427734	0.418213	-0.872803	-0.0381639	-0.0474088	0.1633	-0.984698	1.13512	-3.20505	9.85996	-0.0109895	0.00911141	0.00440606	-0.483887	0.290039	-0.918701	-0.00406381	-0.0903002	0.302954	-0.948709	1.73284	-5.60991	7.79542	-0.00333212	0.00640616	0.00168674	-0.617188	0.52124	-0.82373	
52	0.225671	0.386123	0.0709957	-0.891595	-7.27165	0.725673	7.80777	0.0065748	-0.000317958	-0.00578787	0.54126	0.182617	-0.987549	0.160246	-0.0309804	0.0222919	-0.986339	0.657509	-0.5805	10.0899	-0.0165894	-0.00112967	-0.0129022	-0.285645	0.190918	-0.94043	0.147382	0.162233	-0.474217	-0.852688	-1.14137	8.72752	5.35387	0.00187655	0.0197095	-0.0069219	-0.265625	-0.843018	-0.739258	-0.480878	0.449533	-0.417912	-0.62612	-9.5346	0.908546	2.44367	-0.0416228	-0.00504594	0.012292	0.925049	-0.464844	-0.352539	0.089603	0.119572	0.436309	-0.887304	-2.78546	-7.36757	5.80361	-8.55988e-05	-0.00917421	-0.0198848	0.0136719	0.997559	-0.618408	0.792436	0.0109422	0.420666	-0.441549	-6.81917	-5.0693	8.49329	0.0112242	0.00371622	-0.0240156	0.731934	0.803955	-0.279785	0.0156349	-0.227791	-0.0989646	-0.968542	4.69765	1.86263	9.19669	0.0586717	-0.0138865	-0.00770101	-0.790039	-0.0449219	-0.761963	0.189867	0.883762	0.193456	-0.381431	-6.50221	1.90169	-5.66536	0.00151083	0.0160103	-0.0139707	0.924561	0.134033	0.616211	0.0815459	-0.0306159	0.140339	-0.986265	0.670274	-2.697	10.2422	0.00445248	0.0066915	-0.0168888	-0.42749	0.413574	-0.874756	-0.0380696	-0.0474223	0.163201	-0.984717	1.12246	-3.16748	9.92472	-0.0102599	0.0110797	0.00202445	-0.483643	0.285645	-0.920898	-0.00411925	-0.0902612	0.303148	-0.94865	1.75204	-5.63406	7.84137	-0.0135908	0.0108556	-0.00594714	-0.623779	0.518799	-0.819336	
53	0.22617	0.385983	0.0710689	-0.891523	-7.2465	0.835648	7.78617	-0.00283052	0.00414983	-0.00554312	0.542969	0.189209	-0.983398	0.160431	-0.0309887	0.0220933	-0.986313	0.601007	-0.467354	10.1887	-0.00605906	0.0148348	-0.0120492	-0.281006	0.186523	-0.940186	0.14757	0.16261	-0.474078	-0.852661	-1.21263	8.92234	5.35579	-0.0131156	0.0210699	-0.000384388	-0.265625	-0.83667	-0.737061	-0.480557	0.449583	-0.417433	-0.62665	-9.39842	0.846481	2.40941	-0.0280791	-0.00809124	0.00829016	0.924805	-0.460449	-0.350342	0.0896369	0.119639	0.435933	-0.887476	-2.75153	-7.43082	5.80882	0.0323313	0.00713201	-0.00850202	0.0090332	1.00391	-0.614014	0.792062	0.0110952	0.420231	-0.44263	-6.64242	-5.0678	8.32596	0.0244222	0.0098246	-0.0248617	0.732178	0.801758	-0.279785	0.0161466	-0.228764	-0.100334	-0.968163	4.65794	1.92739	9.16091	0.086975	-0.0335923	-0.00319871	-0.792236	-0.0471191	-0.759766	0.19011	0.883621	0.193513	-0.381608	-6.45725	1.92202	-5.62664	-0.00820548	0.000186857	-0.0201191	0.922363	0.13623	0.625488	0.0817004	-0.0306397	0.140482	-0.986231	0.694345	-2.63661	10.1671	-0.00697235	0.00728863	-0.0147797	-0.432617	0.42041	-0.872803	-0.0380614	-0.0475079	0.16329	-0.984698	1.12792	-3.2165	9.90931	-0.00659002	0.00470607	0.000824599	-0.483643	0.283447	-0.920898	-0.00412411	-0.0902627	0.303115	-0.948661	1.71019	-5.68043	7.86461	0.00352361	0.00815942	-0.00452513	-0.621582	0.523193	-0.826172	
54	0.226577	0.385945	0.0713074	-0.891417	-7.26749	0.785095	7.79034	-0.014843	0.00737594	0.00130547	0.547363	0.191406	-0.985596	0.160438	-0.0310275	0.0223107	-0.986306	0.59837	-0.567331	10.0705	-0.0164386	0.0166058	-0.0165058	-0.28125	0.190918	-0.94043	0.147829	0.162582	-0.473602	-0.852886	-1.28614	8.53903	5.17165	0.0138185	0.00414547	0.000630443	-0.259033	-0.843262	-0.739258	-0.480613	0.449556	-0.417497	-0.626583	-9.37864	0.813588	2.37278	0.0126785	0.00626345	-0.00137821	0.927246	-0.462646	-0.352539	0.0893556	0.11953	0.436333	-0.887323	-2.81711	-7.30484	5.79232	-0.0389756	-0.00548444	-0.0200482	0.0158691	1.00195	-0.614014	0.791623	0.0113156	0.419399	-0.444195	-6.76888	-5.06455	8.43612	0.034547	0.00344138	-0.0105712	0.729736	0.803955	-0.283936	0.0164662	-0.229267	-0.101197	-0.967949	4.7145	1.89848	9.08663	0.0910064	-0.0268704	-0.0015931	-0.798828	-0.0449219	-0.759766	0.190062	0.883833	0.193569	-0.381111	-6.46924	1.87417	-5.60147	0.00649828	0.0454662	-0.0130712	0.924561	0.13623	0.625488	0.082081	-0.0306208	0.14078	-0.986157	0.680643	-2.72902	10.1624	-0.00211232	0.0113323	-0.0126869	-0.432373	0.417969	-0.865967	-0.037903	-0.0475333	0.163075	-0.984739	1.13799	-3.10815	9.9176	-0.00461691	0.00624585	0.00558398	-0.488281	0.2854	-0.918701	-0.00407406	-0.0902932	0.303059	-0.948676	1.72386	-5.59477	7.88927	0.00210087	0.00616077	-0.00230884	-0.616943	0.519043	-0.826172	
55	0.227329	0.385756	0.0713905	-0.891301	-7.25168	0.65969	7.79313	0.00736913	-0.00289183	0.00161085	0.54541	0.187012	-0.987549	0.160305	-0.0309142	0.0218701	-0.986341	0.653776	-0.500411	10.0213	0.00605858	0.0141467	-0.0263824	-0.278809	0.186523	-0.945068	0.147539	0.162439	-0.474141	-0.852664	-1.15139	8.87232	5.54186	0.0170938	-0.00118242	-0.00424325	-0.267822	-0.843018	-0.736816	-0.480522	0.449786	-0.417376	-0.626569	-9.58139	0.952182	2.48559	-0.0208428	0.00509018	0.00186616	0.927246	-0.462646	-0.350342	0.0890975	0.119768	0.436047	-0.887457	-2.74387	-7.46469	5.71035	0.0355593	0.0337461	-0.0167122	0.015625	1.00635	-0.618408	0.791141	0.01177	0.418232	-0.446138	-6.80153	-5.05707	8.46397	0.0438445	0.0025676	-0.0359466	0.732178	0.797363	-0.281738	0.0166829	-0.229733	-0.102693	-0.967677	4.71743	1.93399	9.14404	0.0694074	-0.0132502	-0.0105922	-0.794434	-0.0471191	-0.757568	0.190636	0.883778	0.193503	-0.380988	-6.49588	1.92001	-5.69299	-0.0173012	-0.000548744	-0.00627196	0.92627	0.142822	0.625244	0.0822902	-0.030432	0.140858	-0.986135	0.622932	-2.71526	10.2825	-0.00323714	0.0161898	-0.018212	-0.427734	0.415771	-0.870361	-0.0378492	-0.0476544	0.163057	-0.984738	1.12647	-3.18059	9.89742	0.00496225	0.000265676	0.0040873	-0.488037	0.283203	-0.914062	-0.00401386	-0.0904097	0.303096	-0.948653	1.75253	-5.57311	7.87205	-0.00410318	0.000643174	-0.00201266	-0.621826	0.525635	-0.826172	
56	0.227732	0.385602	0.0712078	-0.891279	-7.24026	0.857769	7.78359	0.00963689	-0.000924711	-0.00635429	0.542969	0.189209	-0.985596	0.160026	-0.0306676	0.0220963	-0.986389	0.61115	-0.480799	10.1981	-0.0131393	0.0193648	-0.0197191	-0.281006	0.188721	-0.94043	0.147893	0.162448	-0.473257	-0.853092	-1.23703	8.53574	5.11684	-0.0326744	0.00950652	-0.000183919	-0.263428	-0.838867	-0.741699	-0.480519	0.449681	-0.417183	-0.626775	-9.35341	0.800824	2.3818	0.00205305	-0.00097333	-0.000430092	0.925049	-0.462646	-0.352539	0.0892271	0.119668	0.436276	-0.887345	-2.80775	-7.20049	5.72426	-0.0312209	-0.00579532	-0.016469	0.0178223	1.00415	-0.618408	0.790717	0.0116555	0.417967	-0.44714	-6.70482	-5.05783	8.44161	-0.0105192	0.0240031	-0.00636808	0.732178	0.797363	-0.283936	0.0169037	-0.230199	-0.103347	-0.967493	4.72206	1.91007	9.11553	0.0471163	-0.00285346	-0.00884319	-0.796387	-0.0471191	-0.759766	0.190907	0.88355	0.193451	-0.381405	-6.46012	1.91813	-5.62065	0.00722139	0.0076356	-0.0203477	0.924561	0.134033	0.62793	0.0825838	-0.0304352	0.14102	-0.986087	0.687041	-2.70015	10.1346	-0.000909257	0.00669585	-0.0148264	-0.430176	0.417969	-0.865967	-0.0378598	-0.047638	0.163156	-0.984722	1.12235	-3.14217	9.88337	-0.0181128	0.0145986	0.00115636	-0.48584	0.285645	-0.91626	-0.00402347	-0.0904095	0.303178	-0.948627	1.73539	-5.6101	7.78605	-0.00153103	0.0101475	-0.00373153	-0.612793	0.523438	-0.828369	
57	0.228289	0.38543	0.071378	-0.891197	-7.27322	0.753209	7.79415	0.000213359	-0.00295408	-0.00445534	0.545166	0.189209	-0.985596	0.160078	-0.0305114	0.0218546	-0.986391	0.651177	-0.46201	10.134	0.00842992	0.0172101	-0.0138622	-0.278564	0.179932	-0.944824	0.14773	0.162432	-0.473804	-0.85282	-1.26335	8.9609	5.42374	0.0137988	0.00796402	-0.00324906	-0.261475	-0.832275	-0.739502	-0.480378	0.449925	-0.417183	-0.626708	-9.49791	0.871906	2.44958	-0.004851	0.00934842	0.00128622	0.925049	-0.464844	-0.352539	0.0891841	0.119755	0.435956	-0.887495	-2.74211	-7.45191	5.76221	0.0619301	0.0151887	-0.0145568	0.0200195	1.00171	-0.609375	0.790302	0.0116575	0.417391	-0.448409	-6.78502	-5.06106	8.41547	0.00281766	0.00594636	-0.0271723	0.736572	0.799561	-0.277588	0.0171148	-0.230568	-0.103854	-0.967347	4.73585	1.96266	9.05735	0.025785	0.00692093	-0.0116093	-0.796387	-0.0493164	-0.74707	0.191284	0.883363	0.193413	-0.381669	-6.5011	1.9299	-5.66317	-0.000638073	-0.00785073	-0.0141472	0.924316	0.138428	0.625488	0.0824891	-0.0305809	0.140771	-0.986126	0.645969	-2.71806	10.1971	0.0120564	-0.000964919	-0.018704	-0.429932	0.413574	-0.865967	-0.0377707	-0.0476973	0.163167	-0.984721	1.13205	-3.20645	9.95695	0.0173249	0.0118509	0.0042675	-0.486084	0.290039	-0.918701	-0.00401209	-0.0903981	0.303179	-0.948628	1.74522	-5.62121	7.86345	0.00679127	0.00807906	-0.0041775	-0.621582	0.523193	-0.830566	
58	0.228958	0.385202	0.0716705	-0.891101	-7.2383	0.770874	7.78317	-0.0120229	0.00281889	-0.00103967	0.542969	0.191406	-0.985596	0.160018	-0.0302641	0.0218168	-0.986409	0.575682	-0.585597	10.0154	0.00335864	0.0211699	-0.019418	-0.280762	0.182129	-0.942383	0.147877	0.162499	-0.473625	-0.852881	-1.20647	8.63384	5.37947	0.0428204	0.00836689	-0.000975121	-0.259277	-0.834473	-0.743896	-0.480343	0.449975	-0.417045	-0.626791	-9.54254	0.976049	2.42302	-0.00753907	-0.00208957	-0.00229963	0.929443	-0.460449	-0.354736	0.0890675	0.119913	0.435802	-0.887561	-2.88802	-7.24558	5.72513	-0.00489032	0.0138676	-0.0161051	0.0114746	0.999756	-0.616211	0.789923	0.011463	0.417079	-0.449372	-6.6359	-5.1018	8.46619	0.00387526	0.0166249	-0.0115353	0.730225	0.79541	-0.288086	0.0173343	-0.230507	-0.103775	-0.967366	4.72496	1.9496	9.10677	0.0268816	0.0215176	-0.00300407	-0.796387	-0.0493164	-0.757568	0.191795	0.883083	0.193463	-0.382037	-6.47471	1.9178	-5.58784	-0.00737604	0.0036791	-0.0197699	0.92041	0.131836	0.632568	0.0828588	-0.030635	0.140804	-0.986088	0.75103	-2.61464	10.2056	-0.00666476	0.00793145	-0.00935243	-0.425293	0.413574	-0.872559	-0.0376868	-0.0477446	0.16309	-0.984734	1.11808	-3.18564	9.90978	-0.00500323	0.0150476	0.00469615	-0.483643	0.283447	-0.918701	-0.00413758	-0.0903361	0.303113	-0.948654	1.72178	-5.66593	7.8723	0.00267336	0.00782553	-0.00624339	-0.619385	0.523438	-0.82373	
59	0.229608	0.385106	0.0716659	-0.890975	-7.2712	0.637701	7.77662	0.0180471	0.000643489	0.00031866	0.545166	0.189209	-0.985596	0.160253	-0.0303872	0.0210487	-0.986384	0.65549	-0.455061	10.376	0.0130588	0.0053808	-0.00935998	-0.278809	0.186523	-0.935547	0.148024	0.162437	-0.473043	-0.85319	-1.28014	8.63925	5.06805	-0.0287805	-0.00370809	-0.00679178	-0.259277	-0.834473	-0.741699	-0.480132	0.450271	-0.416397	-0.62717	-9.37111	0.812618	2.44688	-0.0239534	0.00532309	-0.00667767	0.92749	-0.469238	-0.352539	0.0887192	0.120024	0.434868	-0.888039	-2.70719	-7.37022	5.79911	0.046987	0.0124577	-0.0225262	0.0158691	1.00195	-0.614014	0.790092	0.0111652	0.416403	-0.44971	-6.80006	-5.01494	8.43942	0.0120842	0.00571919	-0.0103784	0.729736	0.803955	-0.28833	0.0173762	-0.230344	-0.103522	-0.967431	4.72921	1.92121	9.03275	-0.00170741	0.0291854	-0.0084644	-0.79834	-0.0559082	-0.759521	0.191743	0.883078	0.193553	-0.382028	-6.46942	1.86081	-5.715	0.00829829	0.0185564	-0.0192302	0.924561	0.134033	0.630127	0.0833346	-0.0304585	0.14043	-0.986107	0.654268	-2.76502	10.1554	0.0316526	0.0135083	-0.0115268	-0.429932	0.415771	-0.875	-0.0376071	-0.0476717	0.163016	-0.984753	1.15418	-3.15419	9.87238	-0.00887246	0.0163498	0.00375709	-0.488281	0.2854	-0.920898	-0.00408607	-0.0904252	0.302934	-0.948703	1.7532	-5.54784	7.80821	-0.00398204	0.00783452	-0.00158874	-0.621582	0.523193	-0.828369	
60	0.229849	0.385187	0.0710621	-0.890927	-7.28128	0.781881	7.79051	0.040404	0.00187838	-0.005228	0.543213	0.184814	-0.987549	0.160498	-0.0300574	0.0212615	-0.986349	0.605127	-0.613682	9.91913	-0.00854697	0.0138932	-0.00483875	-0.283203	0.184326	-0.937744	0.147898	0.162389	-0.473672	-0.852872	-1.35475	8.59781	5.25318	0.0615861	-0.00527491	0.00243275	-0.265625	-0.838867	-0.734619	-0.480293	0.450668	-0.416565	-0.626651	-9.47963	0.913229	2.39793	0.014607	0.021959	-0.0139195	0.927002	-0.460449	-0.352539	0.0885162	0.120224	0.434312	-0.888304	-2.83203	-7.28364	5.78212	0.0517722	0.0219263	-0.0192373	0.0136719	0.999756	-0.616211	0.789978	0.0117156	0.415408	-0.450814	-6.74715	-5.02687	8.47223	0.0546246	0.00713674	-0.00993262	0.732178	0.799561	-0.279541	0.0172268	-0.229864	-0.103051	-0.967598	4.74626	1.94042	9.13904	-0.0112879	0.0271932	-0.0108031	-0.796143	-0.0537109	-0.757568	0.192036	0.883104	0.193572	-0.381811	-6.48933	1.95459	-5.62327	-0.0142043	0.030851	-0.00788824	0.922363	0.13623	0.625488	0.083572	-0.0304281	0.139973	-0.986153	0.603056	-2.67733	10.2107	0.0270643	0.00222212	-0.0155748	-0.429932	0.413574	-0.872559	-0.0375425	-0.0475928	0.163349	-0.984704	1.08975	-3.14642	9.95392	-0.0154212	0.00957746	0.00485059	-0.483887	0.290039	-0.925537	-0.00406469	-0.090434	0.303066	-0.94866	1.72187	-5.54591	7.8656	0.000707147	0.0078588	-0.00171992	-0.619385	0.52124	-0.826172	
61	0.230451	0.385015	0.0708419	-0.890863	-7.24727	0.864936	7.76294	0.00113313	-0.00335609	0.00745089	0.543213	0.182617	-0.983398	0.160673	-0.0299713	0.0212459	-0.986324	0.624321	-0.502463	10.1997	-0.0080603	0.022496	-0.00340083	-0.279053	0.190918	-0.935791	0.14792	0.162468	-0.473791	-0.852787	-1.2072	8.87597	5.45442	-0.0262454	0.0170415	-0.00479563	-0.26123	-0.841064	-0.739258	-0.480022	0.450882	-0.416175	-0.626963	-9.39327	0.750937	2.421	-0.0147379	0.00226461	-0.00146609	0.927246	-0.462646	-0.350342	0.088196	0.120409	0.432694	-0.8891	-2.69286	-7.20325	5.78366	0.0749185	0.00604663	-0.0233611	0.0183105	0.995361	-0.623047	0.789833	0.0113898	0.415178	-0.451289	-6.7217	-5.1904	8.41893	-0.00327925	0.00627148	-0.00768393	0.734375	0.799561	-0.286133	0.0169539	-0.229328	-0.102322	-0.967807	4.76065	1.87217	9.11878	-0.00958755	0.0149934	-0.0193417	-0.796387	-0.0515137	-0.759766	0.192096	0.882979	0.193709	-0.382	-6.48564	1.95265	-5.65649	0.00103609	0.00134236	-0.0158551	0.922363	0.134033	0.623291	0.0837931	-0.0305692	0.139785	-0.986156	0.676029	-2.64455	10.1963	0.0197385	-0.00519533	-0.0110857	-0.42749	0.413574	-0.870361	-0.0375179	-0.0475544	0.16311	-0.984747	1.14408	-3.22279	9.94384	0.0198516	0.0153257	0.0026403	-0.479492	0.290039	-0.92334	-0.00412124	-0.0903844	0.30344	-0.948545	1.75197	-5.67686	7.85248	-0.0136079	0.00901869	-0.00513823	-0.623779	0.520996	-0.826172	
62	0.230852	0.384953	0.070896	-0.890782	-7.26599	0.776459	7.77265	-0.00282502	0.00151832	0.00711266	0.541016	0.182617	-0.985596	0.160799	-0.0294185	0.0214365	-0.986316	0.508643	-0.552884	10.0813	-0.0163205	0.0366129	-0.0130646	-0.281006	0.188721	-0.94043	0.147981	0.162514	-0.473644	-0.852849	-1.26213	8.62665	5.25153	0.0443745	0.000923421	-0.00128292	-0.259277	-0.834473	-0.734863	-0.480116	0.450915	-0.416218	-0.626839	-9.44354	0.892745	2.44016	0.0125389	0.00911729	-0.00853335	0.929443	-0.460449	-0.352539	0.0883501	0.120288	0.432351	-0.889268	-2.79983	-7.31764	5.86745	0.00460971	-0.00907124	-0.00806335	0.0180664	0.999756	-0.625244	0.789852	0.0112984	0.414884	-0.451528	-6.79853	-5.03895	8.48875	0.00450949	0.00309704	-0.00148665	0.727783	0.803955	-0.283936	0.0169035	-0.22935	-0.102291	-0.967806	4.70549	1.87759	9.13578	0.0140722	0.0126716	-0.0178264	-0.794189	-0.0493164	-0.757568	0.192066	0.883109	0.19368	-0.38173	-6.4379	1.89689	-5.62471	0.00159241	0.0366013	-0.0121322	0.931152	0.134033	0.623047	0.08405	-0.0307528	0.139639	-0.986149	0.713327	-2.72833	10.2001	0.0181153	0.00614408	-0.020068	-0.432373	0.415771	-0.875	-0.0375459	-0.047622	0.163462	-0.984684	1.10978	-3.2171	9.93997	-0.0274472	0.015281	1.61068e-05	-0.481689	0.287842	-0.920898	-0.00411083	-0.0904276	0.30335	-0.94857	1.74663	-5.68398	7.84721	0.0081532	0.00460005	-0.00485889	-0.619629	0.525635	-0.826172	
63	0.231565	0.384782	0.0709643	-0.890665	-7.25859	0.755497	7.75537	0.00169184	-0.00389563	0.00155922	0.540771	0.191406	-0.987793	0.1609	-0.0292167	0.0212749	-0.986309	0.601511	-0.509812	10.1125	-0.00190939	0.0248324	-0.0157884	-0.281006	0.186523	-0.942627	0.148091	0.162494	-0.473558	-0.852882	-1.26945	8.7958	5.29564	-0.00797942	0.0150201	-0.00416087	-0.265625	-0.843018	-0.734619	-0.479914	0.451354	-0.41597	-0.626842	-9.4697	0.867738	2.4584	-0.0267331	0.0154832	-0.00513245	0.924805	-0.460449	-0.350342	0.0883578	0.120458	0.431913	-0.889457	-2.82418	-7.18786	5.8302	0.0042512	0.00995289	-0.00570602	0.0158691	1.00195	-0.62085	0.789819	0.0113378	0.41426	-0.452158	-6.78713	-4.98068	8.54233	0.0114105	0.00512168	-0.00407562	0.738525	0.799561	-0.290283	0.0165369	-0.228999	-0.102401	-0.967884	4.69625	1.93641	9.164	0.00952186	0.0201086	-0.0241363	-0.800781	-0.0493164	-0.757568	0.192343	0.883301	0.193443	-0.381266	-6.48339	1.9703	-5.67332	0.00410723	0.0345113	-0.00289678	0.91626	0.125244	0.632812	0.0842624	-0.0304009	0.139321	-0.986187	0.592578	-2.70155	10.1938	0.0154789	0.0225471	-0.0127366	-0.425293	0.411377	-0.868164	-0.0373628	-0.047671	0.162834	-0.984793	1.0882	-3.21375	9.97932	0.0492983	0.00509137	0.00796768	-0.483643	0.285645	-0.925537	-0.00410083	-0.0904352	0.303218	-0.948611	1.70795	-5.60853	7.91807	0.00163193	0.00472499	-0.00462523	-0.621582	0.523193	-0.823975	
64	0.232077	0.38454	0.0708046	-0.890649	-7.25635	0.777573	7.80436	0.0155185	-0.00899957	-0.00184638	0.541016	0.187012	-0.985596	0.161001	-0.028888	0.0214184	-0.986299	0.573814	-0.527357	10.0999	-0.0111361	0.0221025	-0.0110122	-0.276611	0.186523	-0.933105	0.147896	0.162491	-0.474247	-0.852533	-1.1304	8.82592	5.33489	0.0611557	-0.00593063	-0.00456232	-0.26123	-0.838867	-0.734863	-0.479778	0.451942	-0.416024	-0.626486	-9.47297	0.911366	2.40804	0.0109944	0.032795	-0.0124586	0.924805	-0.458252	-0.350342	0.0886007	0.120636	0.431383	-0.889666	-2.75722	-7.25813	5.85108	0.0579781	0.0157102	-0.00726061	0.0180664	0.997559	-0.629883	0.789794	0.0109583	0.413689	-0.452732	-6.70136	-5.07702	8.50546	0.00168712	0.00342884	-0.0155527	0.72998	0.799561	-0.286133	0.0164291	-0.228901	-0.102191	-0.967932	4.71393	1.91356	9.1324	0.00199612	0.0196343	-0.0127456	-0.793945	-0.0537109	-0.757568	0.192757	0.883252	0.193393	-0.381196	-6.46184	1.93961	-5.66389	-0.00779442	0.0119067	-0.0105802	0.92041	0.131836	0.632568	0.0846598	-0.0302671	0.138864	-0.986222	0.61902	-2.61768	10.177	0.0239301	0.00592322	-0.00960863	-0.42749	0.413574	-0.865967	-0.0373751	-0.0477404	0.162939	-0.984771	1.10626	-3.17211	9.85978	0.00372297	0.0125959	0.00216749	-0.48584	0.283447	-0.91626	-0.00410512	-0.0905202	0.30288	-0.948711	1.71684	-5.57937	7.80871	0.0118479	0.00801367	-0.00668286	-0.621582	0.520996	-0.82373	
65	0.232688	0.384379	0.070564	-0.890578	-7.26092	0.775941	7.79686	0.0142957	-0.00355598	0.00443113	0.542969	0.189209	-0.987793	0.161044	-0.0285679	0.0214794	-0.9863	0.596949	-0.494522	10.0539	-0.017985	0.0301956	-0.0161592	-0.276611	0.186523	-0.942627	0.148185	0.162563	-0.474002	-0.852606	-1.2833	8.76678	5.3318	-0.00726353	0.0177059	-0.000656774	-0.265625	-0.843018	-0.741455	-0.479672	0.452006	-0.416307	-0.626333	-9.56766	0.919803	2.43695	0.0030542	0.0111585	0.00265439	0.929443	-0.462646	-0.350342	0.0886567	0.12075	0.431071	-0.889796	-2.74758	-7.09622	5.77795	0.000288131	0.0084568	-0.0137012	0.0161133	0.993164	-0.627686	0.789678	0.0107431	0.413428	-0.453179	-6.65075	-5.03277	8.45422	0.00199729	0.00118479	-0.0146809	0.72998	0.797363	-0.281738	0.0163666	-0.228898	-0.102133	-0.967939	4.73822	1.91191	9.11052	0.0144344	0.0146467	-0.0164004	-0.790039	-0.0493164	-0.761963	0.19295	0.883294	0.193376	-0.381008	-6.45172	1.91628	-5.65113	0.00361042	0.0305739	-0.0115839	0.92041	0.131836	0.62085	0.0849203	-0.0304254	0.138342	-0.986268	0.697012	-2.57322	10.2395	0.0172124	0.00123552	-0.0177543	-0.425537	0.418213	-0.872803	-0.0372807	-0.0477445	0.162811	-0.984796	1.14693	-3.20324	9.99478	-0.00109669	0.00879484	0.00452229	-0.490479	0.287598	-0.918701	-0.00412793	-0.0905023	0.302747	-0.948755	1.74842	-5.648	7.87359	0.0179579	0.00625659	-0.00554652	-0.617188	0.525635	-0.821533	
66	0.233155	0.384164	0.0703132	-0.890569	-7.24618	0.863141	7.77018	0.0127998	-0.00604651	-0.00403098	0.543213	0.187012	-0.985596	0.16117	-0.0282485	0.0215618	-0.986287	0.516309	-0.477987	10.1254	-0.0262456	0.0153689	-0.012415	-0.272217	0.186523	-0.942627	0.148471	0.16244	-0.473797	-0.852693	-1.15414	8.68918	5.25883	-0.0233287	0.00314419	0.00780574	-0.259277	-0.838867	-0.737061	-0.479714	0.4521	-0.416226	-0.626287	-9.43415	0.876593	2.33024	0.00326181	0.0107104	-0.00665154	0.924805	-0.458252	-0.350342	0.0889273	0.120478	0.431811	-0.889447	-2.7556	-7.44381	5.84778	-0.0288503	-0.00109969	-0.0140277	0.0161133	0.993164	-0.618408	0.789742	0.0105334	0.413284	-0.453202	-6.80743	-5.15375	8.54693	-0.0132902	0.0128671	0.0065677	0.727539	0.803955	-0.290527	0.0162644	-0.22883	-0.101836	-0.967989	4.68295	1.92091	9.17136	0.00687177	0.0177376	-0.0153654	-0.798828	-0.0449219	-0.759766	0.192979	0.883507	0.193325	-0.380526	-6.42129	1.97107	-5.63852	0.00756141	0.0437589	-0.0110368	0.920166	0.134033	0.625488	0.0850203	-0.0304282	0.138457	-0.986243	0.700812	-2.61223	10.2363	-0.0034489	0.00858192	-0.0184222	-0.42749	0.40918	-0.874756	-0.0371688	-0.0477033	0.162534	-0.984848	1.09572	-3.10863	9.96099	0.0195601	0.0181048	0.00564809	-0.48584	0.28125	-0.918457	-0.00411404	-0.0905115	0.302521	-0.948826	1.71661	-5.56391	7.91542	-0.00626971	0.00648336	-0.00289815	-0.619385	0.52124	-0.821533	
67	0.233422	0.384146	0.0703747	-0.890502	-7.23197	0.851617	7.78129	0.00239372	0.00418954	-0.00215765	0.543213	0.184814	-0.981201	0.161273	-0.0282221	0.0212592	-0.986277	0.571927	-0.47406	10.0962	0.00434697	0.0150301	-0.0177959	-0.276611	0.184326	-0.951904	0.148419	0.162464	-0.47395	-0.852613	-1.22937	8.80238	5.31262	0.00497259	0.00526809	-0.00125548	-0.261475	-0.83667	-0.728027	-0.479814	0.452245	-0.415959	-0.626283	-9.39592	0.802409	2.37324	0.00158427	-0.00265899	-0.01207	0.92041	-0.458496	-0.345947	0.088663	0.120527	0.43118	-0.889773	-2.76155	-7.13873	5.84431	0.0246923	0.00620714	-0.0259946	0.0183105	0.995361	-0.629883	0.789912	0.0102548	0.412776	-0.453377	-6.6738	-5.0069	8.43877	-0.00926626	0.000832516	0.00232762	0.732178	0.799561	-0.286133	0.0159748	-0.22842	-0.101598	-0.968115	4.71415	1.92482	9.12745	-0.00325073	0.0234405	-0.0181918	-0.794434	-0.0449219	-0.761963	0.192845	0.883855	0.193259	-0.379818	-6.44413	1.98145	-5.62592	0.0149255	0.05663	-0.00744584	0.918213	0.129639	0.63501	0.085009	-0.0299241	0.13837	-0.986272	0.682318	-2.62955	10.1586	-0.00607151	0.0228494	-0.0133988	-0.429443	0.404541	-0.870361	-0.0371493	-0.0475611	0.162804	-0.984811	1.12664	-3.12915	9.89595	-0.0161959	0.0186574	0.00436928	-0.481201	0.279053	-0.920654	-0.00410972	-0.0906131	0.302552	-0.948807	1.72879	-5.57282	7.83994	0.00632161	0.00475731	-0.00474975	-0.623779	0.516602	-0.821533	
68	0.234072	0.383855	0.0705331	-0.890444	-7.24941	0.773251	7.77199	-0.00409584	-0.000577475	-0.00466391	0.543213	0.187012	-0.985596	0.161264	-0.0281334	0.021299	-0.98628	0.60664	-0.44677	10.1416	-0.0130639	0.0234451	-0.0178921	-0.272461	0.188721	-0.94043	0.148463	0.16229	-0.473725	-0.852763	-1.25076	8.64997	5.19118	-0.0192199	-0.00274052	0.0025632	-0.26123	-0.843262	-0.739258	-0.480008	0.452453	-0.415842	-0.626062	-9.54471	0.89702	2.4411	0.00241985	0.011099	-0.016643	0.929443	-0.462646	-0.352539	0.0886675	0.120457	0.431286	-0.889731	-2.70375	-7.34767	5.82563	-0.00995955	0.00359525	-0.0184565	0.0158691	0.997559	-0.62085	0.790006	0.0102938	0.412247	-0.453693	-6.71002	-4.9688	8.4801	0.0103992	0.0116048	0.000813135	0.734375	0.797363	-0.290283	0.0159386	-0.228321	-0.10138	-0.968162	4.75196	1.88958	9.18285	0.010548	0.0172574	-0.0143888	-0.792236	-0.0471191	-0.766113	0.192894	0.884256	0.193312	-0.378833	-6.43912	1.92681	-5.7024	-0.00637541	0.0623837	-0.00561753	0.918213	0.131836	0.63501	0.0851984	-0.0297211	0.138241	-0.98628	0.629738	-2.62672	10.2398	0.00474604	0.0147133	-0.0204188	-0.425293	0.411377	-0.872559	-0.0370376	-0.0475305	0.162736	-0.984828	1.11086	-3.20949	9.96472	-0.00108905	0.0137847	0.00559796	-0.483887	0.287842	-0.918701	-0.00409107	-0.0905954	0.302911	-0.948694	1.72759	-5.61615	7.83483	-0.0156235	0.00633294	-0.000802414	-0.61499	0.525635	-0.819336	
69	0.23471	0.383648	0.0706782	-0.890354	-7.30563	0.842128	7.78461	-0.00512841	-0.00769222	0.00229433	0.541016	0.184814	-0.985596	0.161237	-0.0279894	0.0214574	-0.986285	0.551892	-0.453631	10.0882	-0.00797673	0.0208371	-0.0194521	-0.274414	0.184326	-0.942627	0.148369	0.16214	-0.474284	-0.852497	-1.17681	8.86977	5.43502	0.0260363	-0.000846913	0.00580197	-0.261475	-0.83667	-0.737061	-0.480174	0.452472	-0.415681	-0.626028	-9.47054	0.861326	2.41196	-0.000757801	-0.00607097	-0.00423154	0.929199	-0.456055	-0.352783	0.0884479	0.120451	0.431465	-0.889667	-2.81036	-7.41322	5.88382	-0.00221578	0.00895182	-0.0245556	0.0183105	0.990967	-0.625244	0.790082	0.0100729	0.412012	-0.453779	-6.76143	-5.07213	8.57076	-0.000734749	0.00422704	-0.00654895	0.734375	0.797363	-0.29248	0.0159386	-0.228321	-0.10138	-0.968162	4.75196	1.88958	9.18285	0.010548	0.0172574	-0.0143888	-0.792236	-0.0471191	-0.766113	0.193022	0.884382	0.193279	-0.37849	-6.41656	1.96631	-5.63446	-0.00220864	0.0433962	-0.00555434	0.911621	0.131836	0.632568	0.0852995	-0.0296729	0.13831	-0.986263	0.637386	-2.64888	10.1972	0.000471269	0.0122364	-0.0171599	-0.425293	0.411377	-0.874756	-0.037015	-0.0475037	0.16302	-0.984783	1.08296	-3.24278	9.90617	-0.0221818	0.0127405	0.00403587	-0.486084	0.290039	-0.918701	-0.00409438	-0.090637	0.303033	-0.948651	1.72416	-5.6961	7.89914	0.00228936	0.00705288	-0.00389505	-0.621582	0.523438	-0.817139	
70	0.235128	0.383483	0.0708509	-0.890301	-7.23477	0.814719	7.78852	-0.012722	-0.0051935	0.00398701	0.545654	0.182617	-0.985352	0.161222	-0.0279366	0.0211698	-0.986295	0.58895	-0.523063	10.094	-0.0032596	0.00766708	-0.0181118	-0.27002	0.184326	-0.937988	0.148541	0.161981	-0.47371	-0.852816	-1.31325	8.57677	5.14796	-0.00130146	-0.00124693	-0.00195833	-0.265625	-0.84082	-0.739258	-0.480263	0.452548	-0.415565	-0.625982	-9.4437	0.766285	2.39675	0.000170217	0.00277705	-0.0121864	0.931641	-0.460449	-0.352539	0.0880147	0.120639	0.431061	-0.88988	-2.82619	-7.15712	5.84681	-0.023488	0.0137815	-0.023566	0.013916	0.990967	-0.627686	0.790329	0.0096813	0.411413	-0.453901	-6.78489	-4.95328	8.49788	-0.00811286	0.00180802	-0.00398017	0.734375	0.79541	-0.285889	0.0156233	-0.227626	-0.10151	-0.968317	4.69308	1.88934	9.14908	0.00716159	0.0228176	-0.0158849	-0.792236	-0.0471191	-0.76416	0.192967	0.884693	0.193283	-0.377788	-6.42488	1.95047	-5.69473	0.00844918	0.0546354	-0.0113299	0.92041	0.131836	0.632568	0.0852389	-0.0293805	0.138231	-0.986288	0.643458	-2.65946	10.2228	0.00694445	0.0161708	-0.0138637	-0.425293	0.411377	-0.879395	-0.0369349	-0.0473657	0.163031	-0.984791	1.10909	-3.19832	9.95826	0.00650513	0.0116231	0.00598087	-0.481445	0.285645	-0.914062	-0.00404921	-0.090697	0.303069	-0.948634	1.75409	-5.63631	7.84861	-0.00182985	0.00204332	-0.0016352	-0.621338	0.516602	-0.82373	
71	0.235616	0.3833	0.0710614	-0.890234	-7.24784	0.797549	7.79085	-0.00025327	-0.00423313	-0.00702638	0.543213	0.184814	-0.989746	0.161338	-0.0278849	0.0209889	-0.986282	0.579809	-0.523121	10.1309	-0.00762906	0.00832963	-0.0108008	-0.272217	0.184326	-0.940186	0.148551	0.161833	-0.474036	-0.852662	-1.16186	8.82074	5.43012	-0.0246158	0.0104447	0.00690891	-0.26123	-0.843262	-0.736816	-0.480268	0.452687	-0.415507	-0.625916	-9.47292	0.86128	2.43168	-0.00579041	0.00202687	9.03201e-05	0.927002	-0.460449	-0.354736	0.0877491	0.120678	0.430608	-0.89012	-2.78968	-7.1104	5.86503	0.0365506	0.0119595	-0.0256481	0.013916	0.995361	-0.627686	0.790504	0.00947851	0.410922	-0.454045	-6.77123	-5.026	8.48745	0.00841299	0.00316084	-0.00174887	0.734619	0.793213	-0.285889	0.0155815	-0.227512	-0.101539	-0.968342	4.69153	1.86165	9.16646	0.0122609	0.0196808	-0.0189032	-0.801025	-0.0449219	-0.761963	0.193131	0.884913	0.193227	-0.377218	-6.39885	1.94818	-5.73229	0.0039359	0.0396875	-0.00992789	0.916016	0.131592	0.637207	0.0853554	-0.0292822	0.138262	-0.986276	0.624031	-2.67085	10.1813	0.00386766	0.0157094	-0.0152224	-0.429688	0.40918	-0.87915	-0.0368201	-0.0474171	0.162762	-0.984837	1.12901	-3.1627	9.86936	-0.0015673	0.0100557	0.0029712	-0.481445	0.283447	-0.918701	-0.00405858	-0.0907071	0.302993	-0.948657	1.73133	-5.58773	7.84355	0.00599603	0.0104202	-0.00479425	-0.621582	0.518799	-0.821533	
72	0.23615	0.383017	0.0713224	-0.890194	-7.27474	0.820165	7.77989	-0.00831677	-0.0062184	-0.00641631	0.542969	0.189209	-0.989746	0.161467	-0.0278014	0.0208422	-0.986266	0.528825	-0.503882	10.1242	-0.00793811	0.0189424	-0.0150536	-0.272461	0.186523	-0.947266	0.148891	0.161725	-0.473943	-0.852675	-1.249	8.66863	5.26977	0.028108	0.00195862	0.0121394	-0.267822	-0.84082	-0.737061	-0.480194	0.452969	-0.415461	-0.6258	-9.4183	0.80052	2.39685	-0.00356891	0.0119579	-0.00580869	0.931396	-0.458252	-0.348145	0.0873868	0.120941	0.430025	-0.890402	-2.73277	-7.27637	5.87018	0.0557681	0.031966	-0.0257411	0.0117188	0.993164	-0.629883	0.790581	0.00928571	0.41064	-0.454171	-6.77092	-5.05976	8.47022	0.00247911	-0.00111969	-0.00627596	0.740967	0.797607	-0.286133	0.0155548	-0.22751	-0.101706	-0.968325	4.69617	1.89823	9.12179	0.025691	0.0156099	-0.0168253	-0.792236	-0.0471191	-0.761963	0.1931	0.885178	0.193463	-0.376491	-6.37486	1.94666	-5.71563	-0.00161257	0.0405675	-0.0106481	0.918213	0.133789	0.639648	0.085009	-0.0288629	0.137878	-0.986372	0.629615	-2.68401	10.1842	0.0129723	0.0146351	-0.0166118	-0.422852	0.411377	-0.874756	-0.0367621	-0.0474558	0.162985	-0.984801	1.11986	-3.22124	9.92104	-0.0117887	0.00967391	0.00522188	-0.486084	0.290039	-0.911865	-0.00407265	-0.0907607	0.303164	-0.948598	1.75193	-5.62229	7.87045	-0.0194912	0.0095975	-0.0033972	-0.619629	0.525635	-0.826172	
73	0.236755	0.382722	0.071753	-0.890125	-7.30054	0.785869	7.78486	-0.0126171	-0.00369362	-0.00399803	0.538818	0.187012	-0.98999	0.161486	-0.0278327	0.0205385	-0.986269	0.584741	-0.502231	10.0511	-0.00621274	0.0111465	-0.0188428	-0.278809	0.184326	-0.947266	0.149418	0.161501	-0.47385	-0.852677	-1.20862	8.7728	5.2852	-0.0338215	0.012163	0.019596	-0.263428	-0.841064	-0.739258	-0.480126	0.453217	-0.415251	-0.625812	-9.45957	0.884418	2.43432	-0.00230553	0.00810919	-0.0036119	0.931396	-0.456055	-0.350586	0.0865799	0.121795	0.428485	-0.891106	-2.74905	-7.25043	5.87237	0.102502	0.0582091	-0.0236701	0.0161133	0.990967	-0.63208	0.790671	0.00909543	0.409798	-0.454778	-6.78919	-5.09331	8.53134	0.0432061	-0.00968435	-0.0193254	0.734619	0.793213	-0.285889	0.0154842	-0.227459	-0.101781	-0.96833	4.70302	1.90629	9.1599	0.0170216	0.0167722	-0.0193851	-0.794434	-0.0471191	-0.761963	0.19322	0.885276	0.193431	-0.376213	-6.37649	1.97334	-5.71313	-0.00232924	0.0381508	-0.00817588	0.914062	0.127441	0.637451	0.0853271	-0.0286361	0.137283	-0.986434	0.654605	-2.66658	10.2105	0.035487	0.0162688	-0.0133158	-0.42041	0.406982	-0.874756	-0.0367201	-0.047214	0.162894	-0.984829	1.09276	-3.20671	9.95114	0.00467453	0.019135	0.00237135	-0.486328	0.294189	-0.914307	-0.00407862	-0.09086	0.302929	-0.948663	1.7471	-5.65559	7.88328	0.0168395	0.000609229	-0.00683885	-0.614746	0.52124	-0.821533	
74	0.237458	0.382332	0.0721048	-0.890077	-7.22096	0.748457	7.80099	-0.0104505	-0.00303652	-3.47997e-05	0.542969	0.191406	-0.983398	0.16142	-0.0279339	0.0203532	-0.98628	0.532492	-0.388112	10.0611	-0.00303375	0.00549199	-0.0231886	-0.274658	0.188721	-0.94751	0.149645	0.161373	-0.474205	-0.852464	-1.18629	8.78503	5.24554	0.041375	-0.00312887	0.00853728	-0.267578	-0.843018	-0.727783	-0.480381	0.453493	-0.415291	-0.625389	-9.49766	0.848866	2.40461	0.0237052	0.0226138	-0.0231474	0.929199	-0.458252	-0.352783	0.0854334	0.122707	0.427107	-0.891753	-2.7615	-7.22137	5.87293	0.0688118	0.0478907	-0.0284551	0.013916	0.990967	-0.636719	0.790736	0.00966702	0.40878	-0.455568	-6.7101	-4.92376	8.56216	0.0485421	0.0056945	-0.0121837	0.736572	0.793213	-0.298828	0.0154037	-0.227478	-0.102034	-0.9683	4.68807	1.90789	9.14562	0.0287475	0.0162214	-0.0201106	-0.794434	-0.0471191	-0.757568	0.193264	0.885792	0.193704	-0.374833	-6.36263	1.96695	-5.72011	-0.00510476	0.0447166	-0.00241114	0.911865	0.127197	0.644287	0.0852153	-0.0282818	0.136798	-0.986522	0.637744	-2.62239	10.2173	0.0234179	0.0174186	-0.0160198	-0.425049	0.40918	-0.87915	-0.0366595	-0.047375	0.162633	-0.984867	1.12497	-3.21295	10.0072	0.0231607	-0.000292573	0.00232221	-0.483887	0.290039	-0.918701	-0.00409208	-0.0909772	0.30306	-0.94861	1.76521	-5.63096	7.85443	-0.00202978	0.00692405	-0.00615483	-0.621582	0.518799	-0.821533	
75	0.238112	0.38235	0.0722372	-0.889884	-7.30465	0.685113	7.74762	0.00705681	0.00457309	0.00318465	0.543457	0.180664	-0.987549	0.161239	-0.0278602	0.0203751	-0.986312	0.49239	-0.514034	9.9624	-0.0272804	0.033027	-0.0261688	-0.271973	0.179932	-0.942383	0.15084	0.161129	-0.472907	-0.85302	-1.18101	8.78029	5.53281	-0.104321	0.044683	0.0387511	-0.265625	-0.83667	-0.734863	-0.480741	0.453419	-0.415489	-0.625034	-9.53002	0.842324	2.42868	0.0345027	-0.00499035	-0.00453956	0.929443	-0.462646	-0.348145	0.0849847	0.123249	0.426066	-0.892219	-2.84539	-7.20121	5.96723	0.0455628	0.0229301	-0.0173857	0.0144043	0.984375	-0.638916	0.790895	0.00889701	0.408154	-0.455869	-6.70003	-5.07497	8.53138	0.00422638	-0.00497257	-0.0208225	0.730225	0.793213	-0.292236	0.0153946	-0.227656	-0.102347	-0.968225	4.70345	1.94045	9.20349	0.0301189	0.00747878	-0.0175648	-0.791992	-0.0493164	-0.763916	0.193616	0.886133	0.193632	-0.373882	-6.34209	2.03392	-5.6683	-0.00327784	0.0741797	-0.000965371	0.91626	0.129395	0.64209	0.0855215	-0.0281615	0.136353	-0.98656	0.639956	-2.58721	10.2463	0.0265763	0.0090484	-0.0127586	-0.425293	0.411377	-0.879395	-0.0365662	-0.0469521	0.162505	-0.984911	1.04618	-3.19965	9.92948	0.021136	0.0190381	0.00287505	-0.481689	0.290039	-0.921143	-0.00408152	-0.0910998	0.302931	-0.94864	1.72473	-5.59513	7.85008	-0.00368525	0.00418623	-0.00511264	-0.624023	0.523193	-0.819336	
76	0.238523	0.38246	0.0719909	-0.889746	-7.26114	0.844751	7.80686	0.0125114	0.00515601	0.00589555	0.547852	0.180664	-0.987549	0.161189	-0.0285035	0.0203435	-0.986302	0.62935	-0.503215	10.2412	-0.019654	0.000121061	-0.0183111	-0.278809	0.184326	-0.942627	0.15177	0.160836	-0.471793	-0.853527	-1.25886	8.70917	5.30945	-0.106151	0.0286121	0.0514666	-0.265625	-0.83667	-0.737061	-0.481433	0.452807	-0.415798	-0.62474	-9.4631	0.843995	2.27176	0.0389373	-0.00519493	-0.00969139	0.931396	-0.458252	-0.348145	0.0849847	0.123249	0.426066	-0.892219	-2.84539	-7.20121	5.96723	0.0455628	0.0229301	-0.0173857	0.0144043	0.984375	-0.638916	0.791244	0.00844195	0.407671	-0.455704	-6.69441	-5.01934	8.58712	-0.0127196	0.00327165	0.00449499	0.736572	0.79541	-0.294434	0.0155166	-0.227825	-0.103051	-0.968109	4.77016	1.90169	9.15145	0.0434515	0.0176425	-0.017256	-0.792236	-0.0471191	-0.759766	0.193527	0.886609	0.1935	-0.372866	-6.33913	1.98237	-5.81459	0.0148083	0.0691768	-0.00808248	0.914307	0.125	0.646729	0.0856289	-0.0278531	0.136379	-0.986556	0.659571	-2.56106	10.2249	0.00302976	0.0162705	-0.0070777	-0.425049	0.406738	-0.874756	-0.0364196	-0.0471078	0.162533	-0.984905	1.16683	-3.16884	9.88596	0.0128755	0.00875131	0.00720848	-0.483887	0.292236	-0.916504	-0.0040925	-0.0911244	0.303031	-0.948605	1.76016	-5.61833	7.86283	0.00285126	0.00593004	-0.00614171	-0.626221	0.525391	-0.823975	
77	0.238889	0.382437	0.0719243	-0.889663	-7.27452	0.789809	7.78285	0.00570103	0.00160023	0.0112289	0.547363	0.191406	-0.985596	0.161062	-0.0285611	0.02042	-0.98632	0.639776	-0.453914	10.139	-0.0177133	0.0127741	-0.0276871	-0.276611	0.184326	-0.944824	0.152174	0.159016	-0.47218	-0.853583	-1.21029	8.68025	5.20803	0.000740877	-0.0538705	0.0490395	-0.263672	-0.834473	-0.739502	-0.48199	0.45277	-0.416018	-0.62419	-9.64526	0.808699	2.43732	0.00522941	0.00208082	-0.0177385	0.931152	-0.453857	-0.346191	0.08458	0.123008	0.42615	-0.892251	-2.63307	-7.39636	6.02363	-0.00500359	0.0129802	-0.0205976	0.0119629	0.986572	-0.636719	0.7913	0.00840029	0.407405	-0.455845	-6.79876	-5.2751	8.52622	0.0168175	0.00871466	-0.00960024	0.730225	0.791016	-0.294434	0.0154989	-0.2279	-0.104057	-0.967984	4.70814	1.96415	9.15058	0.0481649	0.00264877	-0.0170617	-0.791992	-0.0515137	-0.763916	0.193328	0.886962	0.193561	-0.372098	-6.38181	2.02322	-5.7365	0.0145722	0.0865294	-0.0123431	0.905518	0.125	0.64917	0.0857984	-0.0276127	0.136207	-0.986572	0.670561	-2.65055	10.2667	0.0213236	0.0252505	-0.0102713	-0.418213	0.40918	-0.874756	-0.0364217	-0.0470122	0.162472	-0.984919	1.12334	-3.18307	9.95803	0.00594192	0.0198712	0.00151902	-0.481445	0.285645	-0.918701	-0.00407238	-0.0911576	0.302955	-0.948626	1.80583	-5.57945	7.88305	0.00735944	0.00503934	-0.00374273	-0.619385	0.52124	-0.821533	
78	0.240022	0.382115	0.0717629	-0.88951	-7.29203	0.785992	7.73737	0.00225653	-0.0102319	0.0104859	0.545166	0.189209	-0.987793	0.160678	-0.0287125	0.0201436	-0.986383	0.569627	-0.414218	10.17	-0.00274799	0.0112142	-0.0325088	-0.276611	0.184326	-0.942627	0.152508	0.158556	-0.471643	-0.853905	-1.2449	8.82742	5.27953	-0.0482238	0.00508252	0.00203196	-0.276611	-0.829834	-0.746338	-0.482541	0.452673	-0.415754	-0.624011	-9.32057	0.653729	2.37254	0.0299434	-0.0077046	-0.0220791	0.931152	-0.453857	-0.350586	0.0842718	0.123396	0.425686	-0.892448	-2.81658	-7.07708	5.83809	0.02348	0.0196794	-0.0232395	0.0144043	0.984375	-0.638916	0.791498	0.00807864	0.406593	-0.456233	-6.7787	-5.07738	8.58285	-0.00106703	0.0091414	-0.00989795	0.736572	0.793213	-0.294434	0.0155488	-0.228091	-0.104344	-0.967907	4.69849	1.92678	9.13133	0.0413189	-0.00146811	-0.014809	-0.79834	-0.0515137	-0.755371	0.192923	0.887415	0.193578	-0.371218	-6.2538	1.99278	-5.81292	0.0249764	0.0521461	-0.0163531	0.912109	0.125	0.651367	0.0863512	-0.0270844	0.136783	-0.986458	0.611997	-2.65051	10.1214	-0.00367884	0.0234862	-0.00586329	-0.422607	0.404541	-0.87915	-0.0363601	-0.047023	0.162846	-0.984859	1.07391	-3.1691	9.93199	-0.00953346	0.0144622	0.006036	-0.483887	0.287842	-0.918701	-0.00412755	-0.0914541	0.303426	-0.948447	1.70395	-5.58428	7.91409	0.00183766	-0.00612386	-0.0085766	-0.621582	0.520996	-0.828369	
79	0.240299	0.382053	0.0717359	-0.889464	-7.29038	0.776395	7.75929	0.00703462	-0.00206269	0.00222466	0.543213	0.187012	-0.987793	0.160363	-0.0292456	0.0203879	-0.986414	0.503433	-0.574131	10.0956	-0.01954	-0.00938463	-0.030123	-0.276367	0.177734	-0.939941	0.152808	0.158049	-0.471529	-0.854008	-1.13247	8.79428	5.34682	0.0135229	-0.0147718	0.0180024	-0.267822	-0.834229	-0.741699	-0.48288	0.452623	-0.415805	-0.623751	-9.47992	0.860431	2.43763	0.029756	0.00233782	-0.0229324	0.929443	-0.460449	-0.345947	0.0842753	0.123346	0.425897	-0.892354	-2.905	-7.13495	5.90081	-0.0189365	0.0061841	-0.0182729	0.0161133	0.995361	-0.634521	0.791631	0.0076493	0.406372	-0.456206	-6.70295	-4.9542	8.53637	-0.0131316	-0.00534678	-0.0116999	0.734375	0.79541	-0.296631	0.0156191	-0.228228	-0.105411	-0.967758	4.68067	1.97549	9.12295	0.0514931	0.000539097	-0.0138023	-0.796387	-0.0515137	-0.761719	0.191961	0.88833	0.193541	-0.369545	-6.22909	1.94912	-5.842	0.04079	0.112247	-0.00558733	0.90332	0.129395	0.653809	0.0865253	-0.0268747	0.136735	-0.986456	0.556078	-2.61037	10.2044	0.011006	0.0233827	-0.00919327	-0.422852	0.411377	-0.881592	-0.0363174	-0.0466827	0.163351	-0.984793	1.07264	-3.18079	9.92195	-0.0286016	0.0276014	0.00385912	-0.483643	0.285645	-0.920898	-0.00408982	-0.0915551	0.30359	-0.948385	1.75692	-5.55793	7.83117	-0.0131066	-0.00142948	-0.00243204	-0.619629	0.525635	-0.821533	
80	0.240774	0.381648	0.0714931	-0.889529	-7.2939	0.845765	7.78543	0.00912156	-0.0214122	0.00134372	0.547852	0.182861	-0.985352	0.160156	-0.0294377	0.0202899	-0.986444	0.673134	-0.532067	10.104	-0.00679965	0.0185892	-0.0271371	-0.281006	0.186523	-0.945068	0.152712	0.158018	-0.471841	-0.853859	-0.915308	8.78194	5.50234	0.0482987	0.015869	-0.00695911	-0.268066	-0.830078	-0.737305	-0.482947	0.452668	-0.415856	-0.623633	-9.55261	0.901076	2.4167	-0.0135918	0.00833037	0.011604	0.933594	-0.456055	-0.346191	0.0836699	0.123747	0.425399	-0.892593	-2.76303	-7.2445	5.87913	0.0377036	0.0210431	-0.00957824	0.0185547	0.984375	-0.641357	0.791526	0.00726995	0.406052	-0.456678	-6.78845	-4.99509	8.58006	0.010103	0.0209166	-0.0298875	0.736816	0.793213	-0.292236	0.0157623	-0.228718	-0.1062	-0.967554	4.71411	1.93879	9.17748	0.0478478	-0.00613926	-0.0128362	-0.798584	-0.0515137	-0.757568	0.191964	0.888464	0.193429	-0.36928	-6.2924	1.97369	-5.89603	-0.00272729	-0.0127645	-0.0185076	0.907471	0.129395	0.648926	0.0866019	-0.026729	0.136814	-0.986442	0.4925	-2.64843	10.2653	0.00394517	0.010535	-0.0262181	-0.418457	0.416016	-0.877197	-0.0362305	-0.0467014	0.163139	-0.984831	1.04495	-3.23426	9.80216	0.014772	0.0123616	0.0050161	-0.477051	0.287842	-0.920898	-0.00403571	-0.0915435	0.303882	-0.948293	1.71888	-5.61306	7.77761	0.00414129	0.00682296	-0.00213881	-0.624023	0.527588	-0.821533	
81	0.241196	0.381091	0.0715827	-0.889646	-7.23858	0.90608	7.7667	-0.0112985	-0.010426	-0.00886549	0.543457	0.180664	-0.989746	0.16013	-0.0294149	0.0204787	-0.986445	0.525731	-0.493551	10.1111	-0.0252337	0.0202539	-0.0188243	-0.278809	0.182129	-0.944824	0.153278	0.157936	-0.471028	-0.854222	-1.13919	8.53585	5.19423	-0.0372925	0.00292302	0.0141211	-0.272217	-0.829834	-0.741699	-0.482695	0.452487	-0.415669	-0.624083	-9.31831	0.747338	2.3548	0.00614893	-0.00501419	0.00765347	0.931396	-0.458252	-0.345947	0.0836082	0.123822	0.424633	-0.892953	-2.83642	-7.05954	5.89243	0.0537963	0.00804154	-0.0227313	0.012207	0.984375	-0.645996	0.791524	0.00656231	0.40599	-0.456747	-6.68659	-5.01449	8.54061	-0.0146944	0.0136439	-0.0147585	0.734619	0.793213	-0.292236	0.0159792	-0.229418	-0.107026	-0.967294	4.70942	1.93658	9.09886	0.0557586	-0.0170757	-0.00912202	-0.79834	-0.0537109	-0.755371	0.1918	0.888366	0.19344	-0.369593	-6.20217	1.96042	-5.78598	0.015706	0.0204695	-0.0253558	0.90332	0.129395	0.656006	0.0867873	-0.0269434	0.137175	-0.98637	0.648816	-2.62838	10.1343	-0.010457	-0.0017639	-0.0157687	-0.422852	0.411377	-0.874756	-0.0361915	-0.0469708	0.163388	-0.984778	1.10966	-3.23197	9.96408	-0.00678279	0.00160197	0.0016785	-0.481689	0.287842	-0.92334	-0.00405438	-0.0913515	0.303934	-0.948295	1.75052	-5.67218	7.82585	-0.00730158	0.0197832	-0.00139738	-0.619385	0.523438	-0.82373	
82	0.241634	0.380707	0.0721636	-0.889644	-7.29683	0.793733	7.80055	-0.0184596	-0.0103943	-0.0129515	0.543213	0.187012	-0.987793	0.159994	-0.0295842	0.0204181	-0.986463	0.641088	-0.468012	10.0791	-0.00789324	0.00898426	-0.015805	-0.279053	0.190918	-0.942871	0.153468	0.156643	-0.471293	-0.854279	-1.20206	8.78354	5.3903	-0.0105905	-0.0438568	0.0325355	-0.272217	-0.827637	-0.746338	-0.482477	0.452817	-0.415876	-0.623875	-9.44419	0.730103	2.41576	0.00194443	0.0319197	-0.00275664	0.931396	-0.458252	-0.35498	0.0832327	0.12391	0.423975	-0.893288	-2.76259	-7.39364	5.96166	0.0799893	0.0229138	-0.0267922	0.0163574	0.986572	-0.641357	0.79148	0.00649958	0.405796	-0.456997	-6.83512	-5.10005	8.54874	0.0209342	0.0203941	-0.0179866	0.73877	0.79541	-0.296631	0.0164227	-0.230199	-0.108304	-0.966959	4.80423	2.0125	9.07686	0.0639599	-0.00556818	-0.00886459	-0.79834	-0.0537109	-0.759521	0.191737	0.888366	0.193482	-0.369603	-6.29189	1.96151	-5.85455	0.00230399	0.00434824	-0.0182191	0.907471	0.129395	0.653809	0.0870595	-0.02705	0.137167	-0.986344	0.600377	-2.72414	10.2284	0.010173	0.00409548	-0.0155659	-0.42041	0.40918	-0.87915	-0.036122	-0.0469149	0.163201	-0.984814	1.14785	-3.23424	9.97219	0.0150988	0.0225416	0.00520522	-0.481689	0.287842	-0.916504	-0.00409769	-0.09141	0.304043	-0.948254	1.78238	-5.68167	7.89533	0.00180222	0.00382308	-0.00631542	-0.621582	0.520996	-0.821533	
83	0.241971	0.379986	0.0726449	-0.889822	-7.20704	0.779348	7.76887	-0.0157797	-0.0171205	-0.0197755	0.541016	0.187012	-0.985596	0.159879	-0.0294678	0.0203364	-0.986487	0.607831	-0.417256	10.1669	-0.00885783	0.0144193	-0.0270609	-0.276611	0.184326	-0.942627	0.154771	0.156268	-0.470183	-0.854724	-1.06926	8.66494	5.34874	-0.0533071	0.0366052	0.0372988	-0.276611	-0.825439	-0.744141	-0.482229	0.452757	-0.415932	-0.624073	-9.45647	0.837519	2.3978	-0.0276365	-0.00438571	0.0164717	0.927002	-0.460449	-0.345947	0.0825845	0.125174	0.421999	-0.894107	-2.78661	-7.2851	5.92777	0.0731136	0.0527787	-0.00508921	0.0251465	0.984619	-0.655029	0.791108	0.00641684	0.405414	-0.457981	-6.76336	-5.00546	8.56166	0.0217723	0.0252586	-0.0509596	0.734375	0.79541	-0.296631	0.0165423	-0.230475	-0.108725	-0.966844	4.771	2.00316	9.13144	0.0534478	-0.00814015	-0.0111713	-0.800537	-0.0559082	-0.757568	0.192254	0.887956	0.193741	-0.370184	-6.28868	1.98935	-5.85294	-0.0167762	-0.0202797	-0.0188811	0.907715	0.122803	0.64917	0.0873865	-0.0271598	0.136504	-0.986404	0.597848	-2.63469	10.2027	0.0390381	-0.00148929	-0.0113747	-0.424805	0.404541	-0.876953	-0.0360682	-0.0470557	0.163326	-0.984789	1.13754	-3.15601	9.9027	-0.0159797	0.000355806	0.00150866	-0.483643	0.285645	-0.91626	-0.00408122	-0.0914129	0.303867	-0.94831	1.74154	-5.65955	7.86992	0.0155476	0.00762516	-0.00406623	-0.624023	0.525391	-0.819336	
84	0.242361	0.37968	0.0732725	-0.889795	-7.32184	0.715358	7.76814	-0.0165101	-0.00388008	-0.0119356	0.545166	0.189209	-0.987793	0.159859	-0.0292646	0.0202824	-0.986498	0.471402	-0.4968	10.1208	0.00851201	0.0173434	-0.01518	-0.276611	0.186523	-0.940186	0.155193	0.156175	-0.470097	-0.854712	-1.05832	8.56001	5.47641	0.016263	0.0113878	0.0107788	-0.274414	-0.827637	-0.748779	-0.482012	0.452916	-0.415856	-0.624175	-9.42553	0.850341	2.35286	-0.00677499	0.000848213	0.00274647	0.933594	-0.458252	-0.345947	0.0819535	0.126146	0.420148	-0.8949	-2.95808	-7.05744	5.90694	0.0500846	0.024574	-0.0145328	0.0234375	0.97583	-0.652832	0.790962	0.0058976	0.405051	-0.458561	-6.58558	-5.04795	8.59153	-0.00875615	0.00250664	-0.0270036	0.732422	0.793213	-0.298828	0.0169216	-0.231198	-0.110412	-0.966473	4.71985	2.05369	9.01459	0.0589933	-0.00240814	-0.0112082	-0.795898	-0.0581055	-0.750977	0.192854	0.887584	0.193823	-0.370722	-6.1964	1.98584	-5.74552	-0.00249	-0.00322195	-0.0211432	0.907715	0.127197	0.646729	0.0877127	-0.0274537	0.136443	-0.986375	0.681145	-2.50956	10.1387	0.000219911	-0.00568504	-0.0138013	-0.422607	0.404541	-0.874756	-0.036114	-0.0467995	0.163436	-0.984781	1.03986	-3.24459	9.94526	-0.00127977	0.027261	0.000222522	-0.481689	0.292236	-0.918701	-0.00415168	-0.0914926	0.304101	-0.948227	1.72063	-5.61635	7.77797	-0.0192833	0.0103809	-0.00315439	-0.624023	0.525391	-0.823975	
85	0.242577	0.379493	0.0737784	-0.889774	-7.20385	0.705188	7.81736	-0.0072098	0.00583878	-0.0188821	0.541016	0.187012	-0.981201	0.160043	-0.0295598	0.0198988	-0.986467	0.645532	-0.422103	10.0027	-0.00186009	-0.00443698	-0.00940839	-0.280762	0.182129	-0.940186	0.155113	0.15609	-0.470074	-0.854755	-1.17913	8.63978	5.38476	0.00344583	0.000490234	-0.00839832	-0.274414	-0.827637	-0.739502	-0.481826	0.453015	-0.415584	-0.624429	-9.58161	0.773107	2.3993	-0.0180171	-0.00333204	0.000935071	0.931396	-0.458252	-0.350342	0.0813863	0.126094	0.419769	-0.895137	-2.72899	-7.12266	6.09436	-0.0458798	0.00652034	-0.0316212	0.0146484	0.97583	-0.657227	0.791202	0.00511673	0.404983	-0.458216	-6.7579	-5.1177	8.68654	-0.0362172	0.0135	-0.00376832	0.728027	0.795166	-0.298828	0.0172107	-0.231486	-0.111313	-0.966296	4.81088	2.05647	9.08211	0.0547037	0.0043068	-0.0117468	-0.804443	-0.0625	-0.755127	0.192325	0.887907	0.193862	-0.370202	-6.32139	2.01271	-5.80034	0.028702	0.0453405	-0.0240607	0.905273	0.131592	0.653564	0.0878532	-0.0275603	0.136462	-0.986357	0.647438	-2.5282	10.1875	0.0033255	-0.000813734	-0.0150008	-0.422852	0.411377	-0.881592	-0.0360355	-0.046961	0.16375	-0.984724	1.12605	-3.23086	9.94312	-0.0211454	0.0133574	0.00502928	-0.481689	0.290039	-0.916504	-0.0040951	-0.091598	0.304038	-0.948237	1.76031	-5.71847	7.8919	0.00710406	0.000615656	-0.00327628	-0.621582	0.520996	-0.821533	
