40	Head	00b4120a												Throax	00b411e8												LUpArm	00b411d9												LFoArm	00b41148												RUpArm	00b411db												RFoArm	00b41204												Waist	00b411f7												Lthigh	00b411f4												Lshank	00b4111b												Rthigh	00b411c8												Rshank	00b411ee												
PacketCount	q0	q1	q2	q3	accX	accY	accZ	gyrX	gyrY	gyrZ	magX	magY	magZ	q0	q1	q2	q3	accX	accY	accZ	gyrX	gyrY	gyrZ	magX	magY	magZ	q0	q1	q2	q3	accX	accY	accZ	gyrX	gyrY	gyrZ	magX	magY	magZ	q0	q1	q2	q3	accX	accY	accZ	gyrX	gyrY	gyrZ	magX	magY	magZ	q0	q1	q2	q3	accX	accY	accZ	gyrX	gyrY	gyrZ	magX	magY	magZ	q0	q1	q2	q3	accX	accY	accZ	gyrX	gyrY	gyrZ	magX	magY	magZ	q0	q1	q2	q3	accX	accY	accZ	gyrX	gyrY	gyrZ	magX	magY	magZ	q0	q1	q2	q3	accX	accY	accZ	gyrX	gyrY	gyrZ	magX	magY	magZ	q0	q1	q2	q3	accX	accY	accZ	gyrX	gyrY	gyrZ	magX	magY	magZ	q0	q1	q2	q3	accX	accY	accZ	gyrX	gyrY	gyrZ	magX	magY	magZ	q0	q1	q2	q3	accX	accY	accZ	gyrX	gyrY	gyrZ	magX	magY	magZ	
0	0.3221	0.36644	0.08643	-0.868621	-7.361	0.851889	7.64556	0.00715727	0.00461618	0.00283274	0.550781	0.16748	-0.976562	0.160787	-0.0350186	0.0170295	-0.986221	0.576084	-0.46295	10.0782	-0.0199136	0.0182192	-0.0254227	-0.285156	0.182129	-0.940186	0.159663	0.157059	-0.477419	-0.849654	-1.18746	8.83327	5.10576	0.00901937	0.00790586	-0.0054015	-0.269531	-0.856201	-0.718262	-0.454235	0.483069	-0.385958	-0.641366	-9.50126	0.586367	2.32919	0.00696124	0.006562	-0.00558527	0.934326	-0.422852	-0.375244	0.0857651	0.134851	0.413731	-0.896262	-3.03423	-7.15192	6.14832	0.0254541	0.0237481	-0.0113134	0.0395508	0.953857	-0.675537	0.825952	-0.0612532	0.339763	-0.44566	-6.27301	-4.85945	9.09208	0.0342098	-0.00613506	-0.0323385	0.688721	0.799316	-0.380371	0.00459014	-0.210921	-0.155184	-0.965095	4.9715	2.15498	8.89769	-0.0102274	0.0128052	-0.0193246	-0.810547	-0.0690918	-0.73584	0.18784	0.888646	0.206372	-0.363915	-6.21363	2.01569	-5.80166	0.0240915	0.0189601	-0.0186079	0.903564	0.122803	0.64917	0.148684	-0.0293668	0.120669	-0.981055	0.544949	-2.56405	10.2355	0.0080118	0.0151455	-0.0134333	-0.41333	0.402588	-0.885742	-0.022304	-0.050255	0.163291	-0.985045	1.11852	-3.37288	9.86292	0.00886058	0.0153884	0.00210121	-0.482178	0.301025	-0.914551	-0.00906473	-0.0867108	0.307554	-0.947528	1.67758	-5.69274	7.85511	-0.0143939	0.00858859	-0.0039945	-0.617432	0.527832	-0.819336	
1	0.322063	0.366545	0.0862216	-0.868611	-7.37952	0.851539	7.67639	0.0196695	-0.000370073	0.00307317	0.55957	0.16748	-0.968018	0.160654	-0.0350126	0.017102	-0.986241	0.666527	-0.51875	10.038	-0.0106289	0.0194943	-0.0241828	-0.285156	0.182129	-0.942383	0.159535	0.157071	-0.477481	-0.849641	-1.14893	8.79712	5.05957	0.013008	-4.2481e-05	-0.00906628	-0.265381	-0.856201	-0.718262	-0.45423	0.483196	-0.385844	-0.641343	-9.4967	0.603336	2.27844	-0.0066224	0.0091513	-0.00901921	0.938965	-0.429443	-0.375244	0.0855531	0.135128	0.413522	-0.896338	-3.10035	-6.82037	5.93308	-0.0358175	0.0075032	-0.0191123	0.0393066	0.958252	-0.668701	0.825952	-0.0611908	0.33976	-0.445671	-6.24872	-4.78233	9.19901	0.00810259	0.0171808	-0.0140549	0.693115	0.797363	-0.378174	0.00459014	-0.210921	-0.155184	-0.965095	4.9715	2.15498	8.89769	-0.0102274	0.0128052	-0.0193246	-0.810547	-0.0690918	-0.73584	0.187533	0.888781	0.206285	-0.363795	-6.2371	2.01565	-5.81261	0.0303573	0.0309508	-0.0187723	0.89917	0.125	0.651367	0.148744	-0.0292005	0.120782	-0.981037	0.498337	-2.53258	10.2251	-0.00116064	0.0225621	-0.0131404	-0.413086	0.400146	-0.881348	-0.0222577	-0.0502238	0.163075	-0.985083	1.13732	-3.40617	9.89604	0.0204624	0.0134371	0.00664451	-0.484375	0.301025	-0.909912	-0.00911253	-0.0867277	0.30778	-0.947453	1.68291	-5.76233	7.7708	-0.0181506	0.00748558	-0.00643963	-0.617432	0.527832	-0.821533	
2	0.321903	0.366665	0.085837	-0.868658	-7.31096	1.00121	7.68267	0.0159618	-0.00280245	-0.00459158	0.552979	0.16748	-0.97876	0.160752	-0.0350019	0.017335	-0.986222	0.618841	-0.523403	10.1875	-0.0112025	0.0130499	-0.0106141	-0.282959	0.179932	-0.939941	0.159587	0.157223	-0.477425	-0.849634	-1.12956	8.98817	5.15913	-0.0263311	0.0192471	0.00161879	-0.265381	-0.851807	-0.720703	-0.454117	0.483232	-0.385536	-0.641582	-9.54379	0.554999	2.27848	-0.0181049	-0.00901073	0.00570638	0.938721	-0.420654	-0.368652	0.0855553	0.135276	0.413461	-0.896343	-2.98423	-7.03121	6.00295	0.0254664	0.0224234	-0.0146705	0.0461426	0.953857	-0.670898	0.826052	-0.0610977	0.33948	-0.445711	-6.31772	-4.86926	9.16789	0.0165543	0.00567117	-0.0188764	0.688721	0.801514	-0.382568	0.00355452	-0.209462	-0.15331	-0.965717	4.94796	2.14541	8.97737	-0.0161454	0.0279404	-0.0150246	-0.808594	-0.0668945	-0.738037	0.187078	0.888921	0.206191	-0.363741	-6.26776	2.05034	-5.8673	0.0211564	0.015622	-0.0217199	0.907715	0.127197	0.656006	0.148855	-0.0290773	0.120945	-0.981004	0.44539	-2.56514	10.2523	-0.00163296	0.00991955	-0.015214	-0.413574	0.40918	-0.87915	-0.0222265	-0.0502719	0.162961	-0.9851	1.13489	-3.34078	9.85707	0.0123377	0.00747321	0.00476116	-0.484619	0.30542	-0.914551	-0.00906677	-0.0868137	0.307425	-0.94756	1.68326	-5.67358	7.79729	0.0130987	0.00721732	-0.00373128	-0.608398	0.527832	-0.828369	
3	0.321886	0.36668	0.0859545	-0.868647	-7.3892	0.974387	7.65269	-0.00956571	-0.00567754	-0.00337333	0.557373	0.167725	-0.983154	0.160785	-0.0349108	0.0174366	-0.986218	0.609407	-0.556988	10.0731	-0.0184337	0.0258971	-0.0189591	-0.282959	0.179932	-0.937744	0.159502	0.157151	-0.477534	-0.849602	-1.14098	8.76933	5.14119	0.0387383	-0.00702997	-0.00580467	-0.269531	-0.854004	-0.718262	-0.454161	0.483114	-0.385644	-0.641574	-9.50299	0.622454	2.31393	0.0128717	0.00827481	-0.000457471	0.938721	-0.422852	-0.373047	0.0857084	0.13512	0.413715	-0.896235	-3.07141	-6.98039	6.07854	-0.0209181	0.000378725	-0.0110641	0.041748	0.953857	-0.668701	0.826031	-0.061157	0.339595	-0.445654	-6.33224	-4.93988	9.21677	0.00190392	0.0127249	-0.0115057	0.690918	0.797119	-0.380371	0.00355812	-0.20945	-0.153083	-0.965755	4.93752	2.13221	9.01703	0.00096704	0.0169046	-0.0118426	-0.810791	-0.0668945	-0.733887	0.186724	0.88899	0.206167	-0.363767	-6.25136	2.02868	-5.84999	0.0248086	0.0241359	-0.0228451	0.901123	0.127197	0.658447	0.148959	-0.0291976	0.121061	-0.98097	0.507065	-2.5667	10.2113	0.000521878	0.00374836	-0.0148289	-0.408936	0.409424	-0.881348	-0.0222161	-0.0499746	0.163057	-0.9851	1.09234	-3.36085	9.8957	0.0237452	0.0177899	0.00300084	-0.482178	0.298828	-0.916748	-0.00910878	-0.0867896	0.307718	-0.947467	1.67235	-5.67093	7.74815	-0.0195308	0.0110657	-0.00347458	-0.612793	0.527832	-0.826172	
4	0.321895	0.366586	0.0862659	-0.868652	-7.34558	0.884406	7.64275	-0.00778302	0.000551579	-0.00719561	0.555176	0.165527	-0.980957	0.160782	-0.0350413	0.0172289	-0.986217	0.630967	-0.443047	10.1926	-0.00696839	0.000934401	-0.0182515	-0.282959	0.177979	-0.935303	0.159584	0.157204	-0.477481	-0.849607	-1.10712	9.06141	5.24747	-0.00174396	0.0131005	0.0010613	-0.269775	-0.851807	-0.720703	-0.454077	0.482998	-0.385423	-0.641853	-9.51433	0.579797	2.31812	-0.0151132	-0.00780844	0.00736925	0.940918	-0.420654	-0.373047	0.0856142	0.135199	0.41338	-0.896386	-3.03726	-6.92235	5.96488	0.0303329	0.0109929	-0.0209867	0.0393066	0.958252	-0.67334	0.826005	-0.0610768	0.339535	-0.44576	-6.27195	-4.8174	9.12337	0.00506621	0.0196765	-0.0190042	0.688721	0.799316	-0.380371	0.00371871	-0.20939	-0.153792	-0.965655	4.93794	2.12878	8.99977	0.0408059	0.0107884	-0.00972398	-0.808594	-0.0646973	-0.738037	0.18655	0.889064	0.206178	-0.363669	-6.22931	2.00886	-5.85951	0.0182975	0.0264954	-0.0223404	0.905273	0.131592	0.658447	0.149062	-0.0292247	0.121052	-0.980955	0.47693	-2.58578	10.246	0.00691518	0.00522551	-0.0121655	-0.410889	0.404785	-0.887939	-0.0222593	-0.0499869	0.163595	-0.985009	1.12345	-3.33968	9.85938	-0.0162812	0.019361	0.00351699	-0.486572	0.300781	-0.912109	-0.00909691	-0.0867842	0.307722	-0.947467	1.691	-5.72812	7.87273	-0.00474265	0.00859949	-0.0029499	-0.612793	0.527832	-0.823975	
5	0.321898	0.366453	0.0863769	-0.868696	-7.34865	0.877341	7.67487	-0.00198422	-0.0114219	-0.0043243	0.552734	0.169678	-0.972412	0.160776	-0.0350606	0.0172217	-0.986218	0.635747	-0.508747	10.1171	-0.0112422	0.016515	-0.0164312	-0.287354	0.179932	-0.937744	0.159947	0.157289	-0.477055	-0.849762	-1.10157	8.99358	5.18573	0.00921146	0.00969819	0.00480993	-0.263184	-0.847412	-0.720703	-0.453964	0.482905	-0.385387	-0.642025	-9.55265	0.678515	2.34006	0.00374946	0.00137061	0.00695519	0.936523	-0.422852	-0.375244	0.085993	0.135	0.41374	-0.896214	-2.97131	-7.09276	6.10192	-0.00248235	-0.00256733	-0.00550457	0.0415039	0.958252	-0.668701	0.826005	-0.0610696	0.339606	-0.445705	-6.29121	-4.87732	9.18007	0.00357419	0.0145435	-0.0136762	0.692871	0.801514	-0.382568	0.0038279	-0.209472	-0.154184	-0.965574	4.94255	2.13001	8.96433	0.052004	0.00875358	-0.0128881	-0.808594	-0.0646973	-0.731689	0.186438	0.889009	0.206614	-0.363614	-6.2592	1.99525	-5.8487	-9.56158e-05	0.00836786	-0.0179587	0.907715	0.125	0.658447	0.148639	-0.0290593	0.121042	-0.981025	0.482874	-2.57431	10.2357	0.00274152	0.00855669	-0.0175078	-0.410889	0.402588	-0.87915	-0.0222423	-0.0500436	0.163374	-0.985043	1.13029	-3.43521	9.80918	0.00906727	0.0052805	0.000185772	-0.484375	0.301025	-0.909912	-0.00910029	-0.0868412	0.30794	-0.947391	1.67579	-5.74013	7.72602	-0.000912373	0.00373387	-0.00435235	-0.613037	0.532227	-0.826172	
6	0.322006	0.366457	0.0865297	-0.868639	-7.34156	0.866053	7.65757	-0.00714801	0.00179992	0.00324475	0.55957	0.165527	-0.976562	0.160717	-0.0353626	0.0171063	-0.986219	0.670445	-0.478583	10.1674	-0.0098565	0.00353083	-0.0233608	-0.280518	0.175781	-0.935059	0.160135	0.157324	-0.476703	-0.849918	-1.22168	8.71839	5.05236	0.00213918	0.00940076	0.00430608	-0.267578	-0.851807	-0.716064	-0.45386	0.48273	-0.385264	-0.642304	-9.47256	0.513299	2.33236	0.00449846	-0.00576289	0.0081537	0.936523	-0.425049	-0.373047	0.0859068	0.134992	0.413573	-0.8963	-2.97978	-7.00703	6.00778	0.0152457	0.00769898	-0.020557	0.0415039	0.958252	-0.670898	0.825954	-0.06117	0.339646	-0.445756	-6.32216	-4.92145	9.1457	-0.00192913	0.0158856	-0.018886	0.688721	0.797119	-0.380371	0.00423609	-0.209725	-0.155865	-0.965248	4.94945	2.16291	8.97588	0.066578	0.00425141	-0.00721174	-0.812988	-0.0646973	-0.731689	0.186627	0.88895	0.206676	-0.363625	-6.25007	2.01019	-5.83634	-0.0080138	0.00628949	-0.0189637	0.907715	0.127197	0.651367	0.148798	-0.0292869	0.121271	-0.980966	0.488804	-2.60422	10.2134	-0.00246007	-0.000147979	-0.0149267	-0.408691	0.402588	-0.885742	-0.0222778	-0.0500177	0.163477	-0.985027	1.14906	-3.39364	9.82435	-0.0106215	0.0113395	0.00372081	-0.47998	0.303223	-0.909912	-0.00912354	-0.0867573	0.307804	-0.947442	1.70392	-5.71248	7.77883	0.0111341	0.0115468	-0.00423506	-0.617188	0.525635	-0.828369	
7	0.322043	0.366455	0.0863987	-0.868639	-7.36299	0.928548	7.65223	0.00932373	-0.0096588	-1.85764e-06	0.552979	0.163086	-0.976562	0.160681	-0.0355415	0.0169397	-0.986221	0.64325	-0.471213	10.0971	-0.00334334	0.00141519	-0.0176678	-0.283203	0.184326	-0.930664	0.160181	0.157285	-0.476706	-0.849915	-1.14511	8.90864	5.09337	0.00139515	0.00500698	0.00315959	-0.271729	-0.851807	-0.720703	-0.453761	0.482691	-0.385428	-0.642305	-9.52658	0.621566	2.32523	-5.11421e-05	0.00997403	0.0078283	0.934326	-0.425049	-0.377441	0.0856297	0.134823	0.413694	-0.896297	-3.04983	-7.03373	6.02208	-0.00244655	0.00189797	-0.0141093	0.0371094	0.956055	-0.67334	0.825885	-0.0612708	0.339668	-0.445854	-6.31869	-4.89011	9.19788	-0.00116779	0.0145183	-0.0219586	0.690918	0.797363	-0.378174	0.00449464	-0.210133	-0.157122	-0.964954	4.94254	2.18289	8.91002	0.0680087	-0.00031784	-0.0130384	-0.812744	-0.0690918	-0.733643	0.186868	0.888905	0.206651	-0.363626	-6.23388	1.98284	-5.84012	-0.0114953	0.00916346	-0.0124043	0.897217	0.120605	0.653809	0.148799	-0.0294146	0.12126	-0.980964	0.476	-2.58199	10.247	0.00903995	0.00456561	-0.0223026	-0.40625	0.404785	-0.883545	-0.0222726	-0.050119	0.163394	-0.985035	1.11881	-3.31509	9.89296	-0.0103157	0.00381638	0.00206793	-0.479736	0.298828	-0.907471	-0.00909981	-0.0868396	0.307726	-0.94746	1.66176	-5.67882	7.84144	0.00744063	0.00101571	-0.00522084	-0.612793	0.527832	-0.821533	
8	0.322153	0.366466	0.0862626	-0.868607	-7.36604	0.883889	7.66085	0.00627924	-0.00419975	0.0035526	0.55957	0.165527	-0.976562	0.160646	-0.0357353	0.0168687	-0.986221	0.626547	-0.502927	10.0998	-0.00655273	-0.000960702	-0.0216806	-0.284912	0.175537	-0.939941	0.160199	0.15727	-0.476705	-0.849914	-1.18288	8.86445	5.0972	0.010039	0.00832209	-0.00455138	-0.260986	-0.854004	-0.7229	-0.453672	0.482687	-0.385405	-0.642385	-9.4295	0.548837	2.30052	0.00727433	0.00886498	-0.000724657	0.936768	-0.427246	-0.368652	0.085668	0.134777	0.413551	-0.896366	-2.99553	-6.92193	6.07153	0.0112025	0.00236328	-0.0135556	0.041748	0.953857	-0.67334	0.825844	-0.0612334	0.339528	-0.446043	-6.29669	-4.89261	9.16817	0.0154056	0.00982358	-0.0212085	0.684326	0.799316	-0.382568	0.00467115	-0.210431	-0.157979	-0.964748	4.95223	2.20645	8.91444	0.0562848	0.000915951	-0.0139394	-0.812744	-0.0710449	-0.731445	0.187307	0.888687	0.206862	-0.363812	-6.24813	2.02918	-5.80848	-0.0153233	-0.00462749	-0.0140045	0.89917	0.120605	0.651611	0.148899	-0.0295046	0.121246	-0.980947	0.529871	-2.58677	10.1981	0.00988938	0.00337161	-0.015722	-0.41333	0.406982	-0.87915	-0.0223104	-0.0500827	0.163136	-0.985079	1.14016	-3.3995	9.86072	0.012307	0.0166162	0.00130796	-0.486572	0.298584	-0.914307	-0.00912105	-0.0868989	0.307922	-0.947391	1.68944	-5.74452	7.8268	-0.00629349	0.004325	-0.00540657	-0.612793	0.525635	-0.823975	
9	0.322158	0.366514	0.0862055	-0.868591	-7.31721	0.936921	7.67039	0.00673347	-0.00131844	0.000676305	0.557373	0.16748	-0.976562	0.160602	-0.0358693	0.0168973	-0.986223	0.65133	-0.469439	10.099	-0.0144649	0.00477962	-0.0211594	-0.287109	0.175781	-0.935059	0.160094	0.157102	-0.477006	-0.849796	-1.08938	8.90922	5.15323	0.0210656	-0.003351	0.000508529	-0.267334	-0.854004	-0.716064	-0.453633	0.482742	-0.38545	-0.642344	-9.58458	0.657619	2.33484	0.00361779	0.0120635	0.000122331	0.929932	-0.425049	-0.377441	0.0858025	0.134661	0.413682	-0.89631	-3.04237	-6.96048	5.97009	-0.0169554	-0.00816549	-0.0153244	0.0373535	0.956055	-0.666504	0.825838	-0.0612963	0.339624	-0.44597	-6.27196	-4.84523	9.19542	-0.00622006	0.0192492	-0.011382	0.690918	0.799316	-0.382568	0.00478814	-0.210599	-0.158434	-0.964637	4.97379	2.18059	8.89015	0.0572386	0.00175951	-0.0122948	-0.819092	-0.0690918	-0.729492	0.187717	0.888646	0.206853	-0.363708	-6.2866	2.00726	-5.80389	-0.00962978	0.0108992	-0.0135985	0.903564	0.120605	0.653809	0.148954	-0.0295683	0.121247	-0.980937	0.481683	-2.5359	10.2688	0.00544393	0.00343167	-0.0162354	-0.41333	0.402344	-0.87915	-0.022315	-0.0501401	0.163219	-0.985062	1.14942	-3.36099	9.86917	-0.00398617	0.00671868	0.00282345	-0.484619	0.307373	-0.912354	-0.00910876	-0.086891	0.308031	-0.947356	1.68933	-5.71649	7.77342	-0.00820778	0.00766047	-0.00208822	-0.612793	0.523438	-0.821533	
10	0.322169	0.366553	0.0862248	-0.868569	-7.36448	0.944983	7.68331	-0.000317565	-0.00401574	-0.00230652	0.557373	0.167725	-0.980957	0.16024	-0.0359308	0.0171935	-0.986274	0.679649	-0.482075	10.1038	-0.0117901	0.00493998	-0.0153286	-0.285156	0.182129	-0.935303	0.160202	0.157095	-0.476707	-0.849945	-1.16896	8.82969	5.07963	-0.0273928	0.00744934	0.000122029	-0.267578	-0.854004	-0.718262	-0.453508	0.482713	-0.385365	-0.642505	-9.49578	0.610873	2.29471	0.00655559	0.00371259	0.00366202	0.93457	-0.429443	-0.377441	0.0858541	0.134499	0.413929	-0.896215	-2.93598	-7.05402	6.1007	-0.00517304	0.00911394	-0.0174308	0.0393066	0.958252	-0.666504	0.825806	-0.0614507	0.339763	-0.445904	-6.28043	-4.96501	9.17695	0.00106611	0.0166263	-0.0193389	0.688965	0.795166	-0.382324	0.004943	-0.210773	-0.158975	-0.964509	4.95893	2.22255	8.88129	0.0408188	0.00917215	-0.0128839	-0.81665	-0.0754395	-0.735596	0.187758	0.888558	0.207061	-0.363782	-6.26513	2.02673	-5.80968	-0.00131751	0.00459904	-0.0180058	0.907959	0.122803	0.653809	0.149042	-0.0296982	0.121432	-0.980897	0.541932	-2.55131	10.2177	0.00132364	0.00522338	-0.0177607	-0.408691	0.404785	-0.87915	-0.0222895	-0.0501836	0.163215	-0.985061	1.15434	-3.35451	9.8313	0.0116945	0.00558588	0.00431235	-0.482178	0.301025	-0.916748	-0.00911215	-0.0869383	0.307744	-0.947445	1.69735	-5.68849	7.77172	0.022791	0.00372543	-0.0061464	-0.612793	0.525635	-0.823975	
11	0.322206	0.366432	0.0863917	-0.868589	-7.33453	0.871473	7.67276	-0.00570261	-0.0059073	-0.00339874	0.553223	0.16333	-0.987305	0.160235	-0.0361623	0.0167567	-0.986274	0.649406	-0.517479	10.0463	0.0115385	0.00198609	-0.0172792	-0.287354	0.184326	-0.930664	0.160105	0.157129	-0.476936	-0.849828	-1.15842	8.88138	5.11696	0.0131018	0.00521673	-0.00365578	-0.263184	-0.849609	-0.718506	-0.453438	0.482713	-0.385281	-0.642605	-9.48902	0.561361	2.30618	0.00126188	0.00609432	0.000576213	0.929932	-0.427246	-0.375244	0.0857283	0.134802	0.413537	-0.896363	-3.05732	-6.96508	5.96845	0.0121917	0.0179868	-0.0101196	0.0373535	0.953857	-0.670898	0.825811	-0.0613809	0.339465	-0.446129	-6.30381	-4.89389	9.1579	0.0143664	0.0075423	-0.0212952	0.690918	0.799316	-0.376221	0.00520981	-0.210996	-0.159627	-0.964351	4.95575	2.22513	8.91289	0.0476534	0.00802952	-0.0107721	-0.814941	-0.0668945	-0.733887	0.18809	0.8885	0.207103	-0.36373	-6.23936	2.03685	-5.80617	-0.0115308	0.00983872	-0.0145304	0.905518	0.127197	0.653809	0.149163	-0.0297133	0.121455	-0.980875	0.513214	-2.58996	10.2315	0.00863235	0.00868856	-0.0147468	-0.415527	0.404785	-0.881348	-0.0222898	-0.0501643	0.163312	-0.985046	1.1338	-3.35175	9.89143	-0.0161513	0.00580522	0.0024089	-0.486816	0.305176	-0.909912	-0.00914656	-0.0868678	0.307802	-0.947432	1.69253	-5.66867	7.83403	-0.00419479	0.0137436	-0.00442842	-0.605957	0.523438	-0.821533	
12	0.322029	0.366468	0.0863818	-0.868641	-7.36492	0.906672	7.64161	0.00447902	-0.00328815	-0.0103401	0.557373	0.167725	-0.97876	0.160263	-0.0362479	0.0170025	-0.986262	0.585541	-0.488136	10.0076	-0.0190609	0.0128864	-0.0144904	-0.287109	0.175781	-0.9375	0.160048	0.157056	-0.477042	-0.849794	-1.1699	8.88348	5.08241	0.0215517	-0.00411008	-0.00313971	-0.267578	-0.854004	-0.718262	-0.453286	0.482764	-0.385143	-0.642756	-9.54256	0.566603	2.3217	-0.00915509	0.00292987	0.00293893	0.929688	-0.418457	-0.375488	0.0859622	0.134504	0.413931	-0.896203	-3.07697	-7.04498	6.06219	-0.0159428	-0.00378479	-0.0126058	0.0371094	0.960449	-0.670898	0.825808	-0.0614403	0.339666	-0.445974	-6.35486	-4.877	9.25336	-0.00267642	0.0171486	-0.00869157	0.688477	0.805908	-0.384766	0.00537541	-0.211187	-0.160279	-0.9642	4.9306	2.21959	8.9181	0.0444625	0.0020033	-0.015783	-0.810303	-0.0776367	-0.731445	0.188367	0.888563	0.207125	-0.36342	-6.24445	2.04649	-5.78619	-0.0160497	0.0195493	-0.0132272	0.907959	0.120605	0.64917	0.149256	-0.0296772	0.121686	-0.980834	0.423317	-2.57846	10.2576	-0.0105212	0.0104821	-0.0157626	-0.408691	0.402588	-0.881348	-0.022312	-0.0500742	0.163444	-0.985028	1.1065	-3.37553	9.84661	0.00658421	0.0178769	0.00376811	-0.486816	0.305176	-0.916748	-0.00912272	-0.0869147	0.307949	-0.94738	1.65047	-5.69333	7.78198	-0.000458596	0.00113799	-0.00427204	-0.615234	0.530029	-0.826172	
13	0.321998	0.366371	0.0864817	-0.868683	-7.36754	0.944453	7.68775	-0.00731679	-0.00838124	-0.00119627	0.550781	0.16748	-0.97876	0.160385	-0.0365986	0.0171245	-0.986227	0.711291	-0.570924	10.157	-0.0161324	0.0162753	-0.0167936	-0.285156	0.179932	-0.935303	0.159947	0.156962	-0.477039	-0.849831	-1.09182	8.80721	5.16541	0.00459246	0.00314409	-0.00479698	-0.267578	-0.849609	-0.716309	-0.453081	0.48271	-0.385225	-0.642892	-9.57129	0.693404	2.36935	0.0122507	0.00521523	0.0128563	0.931885	-0.418457	-0.377686	0.0861011	0.134388	0.413771	-0.896281	-2.97702	-6.91789	6.05846	0.00486595	0.00308767	-0.0140786	0.0373535	0.956055	-0.668701	0.82571	-0.0614145	0.339746	-0.446099	-6.25682	-4.93797	9.16708	0.00421162	0.0211967	-0.0220867	0.690674	0.803711	-0.376221	0.00559021	-0.211352	-0.160953	-0.96405	5.01603	2.26113	8.87009	0.0457615	0.00450726	-0.0143033	-0.8125	-0.0754395	-0.733643	0.188592	0.8884	0.207081	-0.363725	-6.29978	2.05345	-5.85759	-0.00657535	-0.0157581	-0.0182579	0.907715	0.125	0.64917	0.14927	-0.029884	0.121756	-0.980816	0.512933	-2.56176	10.2423	0.00162784	-0.00209479	-0.0218955	-0.408691	0.406982	-0.87915	-0.0223333	-0.0501916	0.163642	-0.984989	1.15228	-3.37154	9.77447	-0.00108846	0.000502357	0.000679244	-0.484619	0.30542	-0.907715	-0.00917011	-0.0869217	0.308175	-0.947306	1.69963	-5.7301	7.76906	-0.0127505	0.0128481	-0.00340038	-0.612793	0.527832	-0.823975	
14	0.322152	0.36623	0.0866927	-0.868664	-7.30951	0.855963	7.66788	-0.00754147	-0.00234535	-0.00102303	0.555176	0.167725	-0.980957	0.160407	-0.0366465	0.0172257	-0.98622	0.663026	-0.438745	10.1149	-0.0167207	0.00573584	-0.0171771	-0.284912	0.175781	-0.9375	0.159621	0.156803	-0.477215	-0.849824	-1.22067	8.84564	5.07207	0.00970286	-0.0137263	-0.00802171	-0.269531	-0.856201	-0.718262	-0.452874	0.482726	-0.385186	-0.643049	-9.45963	0.576447	2.32476	-0.00184527	0.00874569	0.00310668	0.941162	-0.427246	-0.37085	0.0860837	0.134376	0.413761	-0.896289	-3.04015	-7.02303	6.0112	0.0116754	0.00643562	-0.0166634	0.0351562	0.956055	-0.668701	0.8256	-0.0614407	0.339795	-0.446261	-6.32212	-4.9369	9.16314	0.00782398	0.0159531	-0.0217801	0.690674	0.803711	-0.378418	0.00569386	-0.21169	-0.16139	-0.963903	4.9836	2.25443	8.83184	0.0345348	0.00649241	-0.0112207	-0.814209	-0.0820312	-0.729248	0.188518	0.888208	0.20725	-0.364137	-6.24926	2.00875	-5.7506	0.0040637	0.00360725	-0.0200702	0.903564	0.122803	0.65625	0.149328	-0.0302329	0.121864	-0.980784	0.572605	-2.62541	10.21	0.00359723	-0.00337195	-0.0187429	-0.41333	0.406982	-0.883545	-0.022305	-0.0503243	0.163551	-0.984998	1.18055	-3.39183	9.95405	0.0129942	0.00871789	0.00381378	-0.482422	0.30542	-0.907715	-0.0092137	-0.0868326	0.308416	-0.947235	1.68533	-5.76217	7.85452	-0.00422714	0.00882585	-0.00330321	-0.608154	0.52124	-0.82373	
15	0.322183	0.366322	0.0866835	-0.868615	-7.39376	0.851098	7.65537	0.00898383	-0.00226326	5.83854e-05	0.55957	0.167725	-0.976562	0.160407	-0.0366465	0.0172257	-0.98622	0.663026	-0.438745	10.1149	-0.0167207	0.00573584	-0.0171771	-0.284912	0.175781	-0.9375	0.159631	0.156771	-0.477246	-0.84981	-1.07372	8.76888	5.14114	0.00424515	0.00376282	0.000912485	-0.269775	-0.849609	-0.723145	-0.45266	0.482929	-0.384906	-0.643215	-9.49872	0.664729	2.30737	-0.0278212	0.00618425	0.00112757	0.938965	-0.429443	-0.373047	0.0860837	0.134376	0.413761	-0.896289	-3.04015	-7.02303	6.0112	0.0116754	0.00643562	-0.0166634	0.0351562	0.956055	-0.668701	0.825624	-0.0613316	0.339763	-0.446256	-6.37517	-4.90646	9.18095	0.00497038	0.0157446	-0.0102938	0.686523	0.799316	-0.382568	0.00569386	-0.21169	-0.16139	-0.963903	4.9836	2.25443	8.83184	0.0345348	0.00649241	-0.0112207	-0.814209	-0.0820312	-0.729248	0.188674	0.888245	0.207215	-0.363985	-6.23373	2.04592	-5.7991	0.0045894	0.0232702	-0.0140466	0.907715	0.127197	0.651367	0.149404	-0.0302188	0.121935	-0.980764	0.572573	-2.63276	10.2496	0.000474677	0.00993733	-0.0134957	-0.408447	0.400391	-0.885742	-0.0223672	-0.0501889	0.163722	-0.984975	1.11459	-3.35613	9.88379	-0.000942136	0.00793755	0.00394134	-0.482178	0.301025	-0.907715	-0.0091756	-0.0869657	0.308097	-0.947327	1.66026	-5.71341	7.79688	0.0186868	0.00179894	-0.00518131	-0.617188	0.523438	-0.821533	
16	0.322099	0.366369	0.086513	-0.868644	-7.32966	0.96464	7.68631	0.00583579	-0.00182555	-0.00190999	0.555176	0.167725	-0.980957	0.160214	-0.0366768	0.0173296	-0.986248	0.659104	-0.490087	10.1199	-0.0138964	0.00472054	-0.0126551	-0.285156	0.180176	-0.932861	0.159899	0.156894	-0.476893	-0.849935	-1.22876	8.7977	5.03855	-0.00971617	0.0133115	0.00348588	-0.265381	-0.849609	-0.716309	-0.45244	0.483257	-0.384733	-0.643227	-9.52053	0.551914	2.31875	-0.00402102	0.016746	-0.00280273	0.936523	-0.422852	-0.373047	0.0861812	0.134299	0.413835	-0.896257	-3.05077	-7.02116	6.06668	0.0157707	0.00157921	-0.00714226	0.0437012	0.958252	-0.666504	0.825661	-0.0613997	0.33971	-0.446218	-6.3564	-4.9287	9.22323	-9.11028e-05	0.00807141	-0.0132309	0.688477	0.805908	-0.380615	0.00535368	-0.211149	-0.162509	-0.963835	4.96142	2.25788	8.88403	0.0250544	0.0127195	-0.0169437	-0.81665	-0.079834	-0.727051	0.188601	0.888297	0.207145	-0.363937	-6.26472	2.02229	-5.80616	0.0128222	0.0199434	-0.0156871	0.905762	0.122803	0.653809	0.149412	-0.0297817	0.121738	-0.9808	0.492128	-2.611	10.2202	0.0131765	0.0200886	-0.00782098	-0.41333	0.402588	-0.883545	-0.0223654	-0.0502859	0.163727	-0.984969	1.12956	-3.36978	9.82616	0.00258284	0.00359722	0.00226814	-0.484375	0.303223	-0.914551	-0.00928808	-0.0868536	0.308207	-0.947301	1.70226	-5.70544	7.75358	-0.00502388	0.0136674	-0.00635209	-0.619873	0.532227	-0.821777	
17	0.322292	0.366368	0.0866255	-0.868561	-7.36251	0.88613	7.68031	-0.00571757	-0.00128204	0.00479805	0.55957	0.165527	-0.97876	0.160244	-0.0366992	0.0173588	-0.986242	0.701119	-0.507922	10.1009	-0.00666706	0.0153851	-0.0164363	-0.282959	0.182373	-0.930664	0.159802	0.156962	-0.477113	-0.849817	-1.16778	8.83587	5.13984	0.00938378	0.00332609	-0.00553155	-0.263184	-0.856201	-0.720703	-0.452524	0.483281	-0.384961	-0.643014	-9.51364	0.648622	2.27938	0.0166065	0.00969119	-0.000914827	0.932129	-0.425049	-0.373047	0.0862952	0.134267	0.413616	-0.896352	-2.95913	-6.89996	5.95541	0.00807609	-0.00258459	-0.0170888	0.0412598	0.962646	-0.668701	0.825673	-0.0614198	0.339618	-0.446264	-6.1896	-4.83089	9.14762	-0.0116479	0.0188851	-0.0150127	0.688477	0.803711	-0.382568	0.00519135	-0.210918	-0.162216	-0.963936	4.99578	2.2588	8.89019	-0.00393125	0.0164409	-0.0132266	-0.814453	-0.0776367	-0.727051	0.188624	0.888267	0.207109	-0.364017	-6.27671	2.02145	-5.81173	0.00658954	0.00716457	-0.0183763	0.907715	0.125	0.651367	0.149486	-0.0296712	0.121588	-0.980811	0.445161	-2.54774	10.2165	0.0189343	0.0150808	-0.0134743	-0.40625	0.400146	-0.878906	-0.0223295	-0.0503161	0.163547	-0.984999	1.15835	-3.36653	9.81197	-0.00219167	0.0188133	0.00398118	-0.47998	0.301025	-0.914551	-0.00927738	-0.0868927	0.308124	-0.947324	1.69376	-5.72502	7.75017	0.00816492	0.00522377	-0.0046751	-0.610596	0.525635	-0.821533	
18	0.322366	0.366343	0.0866597	-0.868541	-7.35636	0.87665	7.66193	-0.00365294	-0.00428052	0.00237663	0.55957	0.167725	-0.97876	0.160195	-0.0361539	0.0176624	-0.986265	0.61849	-0.496544	10.0416	-0.0141567	0.044581	-0.0194796	-0.291748	0.182129	-0.933105	0.15968	0.156978	-0.47723	-0.849772	-1.14861	8.88623	5.10676	0.00460455	0.00753034	-0.00583576	-0.271729	-0.851807	-0.720703	-0.452587	0.483217	-0.385005	-0.642991	-9.52824	0.657601	2.28131	0.0109667	0.00261449	-0.000665225	0.932373	-0.429443	-0.37085	0.0863589	0.134312	0.413999	-0.896162	-3.09439	-7.02635	6.05523	-0.0286825	0.0105059	-0.0100979	0.0393066	0.960449	-0.668701	0.825659	-0.0614537	0.339668	-0.446246	-6.26484	-4.98477	9.2058	-0.00105018	0.0174725	-0.0147657	0.688477	0.803711	-0.380615	0.0051191	-0.210928	-0.161815	-0.964002	4.9517	2.2387	8.88226	-0.0142866	0.0149505	-0.0145477	-0.814697	-0.0754395	-0.729248	0.187744	0.888473	0.20712	-0.363964	-6.24363	2.04233	-5.7819	0.0370699	0.0271791	-0.0231312	0.901367	0.122803	0.653809	0.149342	-0.0299085	0.121609	-0.980823	0.521072	-2.58934	10.2522	0.00493164	-0.000583292	-0.0155987	-0.408691	0.402588	-0.87915	-0.0223023	-0.0503521	0.163536	-0.984999	1.15604	-3.36847	9.88132	0.000595614	0.00327432	0.00431134	-0.482178	0.301025	-0.907715	-0.00923698	-0.0869046	0.307841	-0.947416	1.66141	-5.74675	7.84946	0.0127969	0.00849321	-0.00282429	-0.612793	0.525635	-0.823975	
19	0.322342	0.366493	0.0865433	-0.868498	-7.37787	0.912461	7.65919	0.0100564	0.000476783	-0.00149806	0.557373	0.16333	-0.976562	0.160261	-0.0359834	0.0177065	-0.98626	0.711736	-0.532801	10.113	-0.00535931	0.0218459	-0.0182496	-0.287354	0.179932	-0.935303	0.159646	0.156981	-0.477289	-0.849744	-1.14173	8.79161	5.09958	0.0165949	0.00348591	-0.00296089	-0.267578	-0.849609	-0.716309	-0.452645	0.4833	-0.384966	-0.642912	-9.52085	0.605528	2.34964	-0.000533877	0.0097818	-0.00637943	0.934326	-0.422852	-0.375244	0.0864382	0.134305	0.414011	-0.896151	-3.01386	-6.99587	6.03345	-0.00693455	0.000996514	-0.0113773	0.0371094	0.960449	-0.668701	0.825642	-0.0613345	0.339767	-0.44622	-6.33473	-4.89754	9.13534	-3.73326e-05	0.0165829	-0.00840387	0.690918	0.797363	-0.378174	0.00497381	-0.210779	-0.160954	-0.964179	5.00021	2.23189	8.93729	-0.0143306	0.0217633	-0.0176448	-0.814453	-0.079834	-0.724854	0.187504	0.888578	0.207032	-0.363882	-6.26881	2.00641	-5.81349	0.0120412	0.0182338	-0.0171446	0.901123	0.127197	0.658447	0.149453	-0.0297227	0.121599	-0.980813	0.509944	-2.60582	10.254	0.00596112	0.0188223	-0.0160856	-0.411133	0.407227	-0.885742	-0.0222967	-0.0503274	0.163539	-0.985	1.15962	-3.36737	9.86466	0.00661444	0.015471	0.00451719	-0.484131	0.296631	-0.909668	-0.00925176	-0.0868164	0.308058	-0.947353	1.66901	-5.69019	7.80738	-0.0169864	0.0101289	-0.00274206	-0.60376	0.523438	-0.821533	
20	0.322383	0.366415	0.0864761	-0.868523	-7.32996	0.947357	7.63345	-0.00514746	-0.00460723	-0.000869619	0.552979	0.16748	-0.97876	0.160295	-0.0356311	0.0177414	-0.986266	0.614574	-0.511022	10.1005	-0.0103154	0.0243523	-0.0141207	-0.285156	0.177979	-0.935303	0.159616	0.1571	-0.477314	-0.849714	-1.20864	8.85341	5.1278	-0.000408475	0.00740696	-0.00187081	-0.269531	-0.854004	-0.7229	-0.452645	0.483482	-0.384891	-0.642819	-9.50992	0.570363	2.30877	0.0168421	0.0117564	-0.00631748	0.936523	-0.422852	-0.375244	0.0864051	0.134489	0.413736	-0.896253	-2.97384	-7.01042	6.02155	0.0269444	0.0221797	-0.0146664	0.0415039	0.958252	-0.675537	0.825761	-0.0612119	0.339442	-0.446263	-6.25356	-4.87556	9.16381	0.021963	0.000734066	-0.0181644	0.684326	0.799316	-0.382568	0.00468325	-0.210516	-0.159858	-0.96442	4.98375	2.22407	8.89249	-0.0376569	0.0280738	-0.0179604	-0.818604	-0.0820312	-0.729248	0.187048	0.888649	0.207135	-0.363884	-6.27404	2.01433	-5.78673	0.0186951	0.0126292	-0.0192794	0.89917	0.125	0.646729	0.149302	-0.0295086	0.121478	-0.980857	0.489178	-2.55151	10.1904	0.00901821	0.0127696	-0.0153035	-0.41333	0.406982	-0.87915	-0.0222816	-0.0503019	0.163242	-0.985051	1.15988	-3.35515	9.80594	0.00791408	0.0154212	0.00233348	-0.481934	0.296631	-0.907471	-0.00918981	-0.0869611	0.308013	-0.947355	1.68067	-5.74385	7.78474	0.0120089	0.00146033	-0.00292207	-0.61499	0.523438	-0.826172	
21	0.322539	0.366397	0.0865912	-0.868461	-7.37092	0.882299	7.66074	-0.00598759	-0.000271059	0.00373239	0.561768	0.165527	-0.976562	0.160269	-0.035416	0.0178365	-0.986277	0.627883	-0.485084	10.1135	-0.0162761	0.0292766	-0.0196778	-0.280762	0.182129	-0.942383	0.159381	0.157123	-0.477662	-0.849558	-1.16613	8.88419	5.06814	0.0291002	-0.00279802	-0.00999283	-0.265381	-0.854004	-0.716064	-0.4528	0.483388	-0.384973	-0.642732	-9.50847	0.58675	2.30262	0.00428685	0.00520836	-0.00126111	0.932129	-0.425049	-0.375244	0.0863154	0.134339	0.41413	-0.896102	-3.07024	-7.0485	6.03787	-0.0313972	0.000693454	-0.019609	0.0393066	0.958252	-0.666504	0.825739	-0.0613572	0.339619	-0.446149	-6.3661	-4.91603	9.2276	-0.0147248	0.020477	-0.0105928	0.690674	0.801514	-0.378418	0.00455214	-0.210328	-0.15886	-0.964627	4.96309	2.2268	8.93569	-0.0163539	0.0215344	-0.0136904	-0.821289	-0.0712891	-0.731445	0.186597	0.888719	0.207017	-0.364012	-6.26411	2.01848	-5.82187	0.0299117	0.010755	-0.0236749	0.905273	0.129395	0.651367	0.14939	-0.0297643	0.121702	-0.980809	0.496364	-2.60728	10.2469	-0.00555662	-0.00169021	-0.0164605	-0.41333	0.402588	-0.885742	-0.022252	-0.0502796	0.163814	-0.984958	1.13581	-3.4227	9.93568	-0.0132767	0.00736598	0.00742346	-0.486816	0.307373	-0.914551	-0.00920127	-0.0868528	0.307965	-0.94738	1.67829	-5.68322	7.82862	-0.00229168	0.0118334	-0.00356472	-0.610596	0.525635	-0.821533	
22	0.322627	0.366352	0.0864724	-0.868459	-7.33714	0.910125	7.67166	0.00444484	-0.00548387	0.00302031	0.559082	0.174072	-0.97876	0.160296	-0.0353436	0.0178049	-0.986275	0.621639	-0.514067	10.1119	-0.00240291	0.0180706	-0.0182438	-0.280762	0.179932	-0.935303	0.159228	0.157036	-0.477768	-0.849543	-1.20725	8.80071	5.01999	0.012354	-0.000274374	-0.00387379	-0.263184	-0.856201	-0.716064	-0.452753	0.483481	-0.384813	-0.64279	-9.48819	0.565057	2.32578	-0.013552	0.00446649	-0.00481179	0.941162	-0.427246	-0.37085	0.0863154	0.134339	0.41413	-0.896102	-3.07024	-7.0485	6.03787	-0.0313972	0.000693454	-0.019609	0.0393066	0.958252	-0.666504	0.825764	-0.0613752	0.339463	-0.446219	-6.31846	-4.89429	9.17909	0.00855674	0.00831588	-0.0193781	0.688721	0.799316	-0.380371	0.00429527	-0.210034	-0.157636	-0.964893	4.9766	2.17443	8.95494	-0.0347682	0.0260629	-0.0183601	-0.808105	-0.0732422	-0.731445	0.186471	0.888697	0.206934	-0.364177	-6.24463	2.01479	-5.81089	0.0195792	0.00325829	-0.020689	0.905762	0.122803	0.651367	0.149435	-0.0298562	0.121668	-0.980803	0.52702	-2.6361	10.2605	0.00711624	0.000797202	-0.0172371	-0.413574	0.40918	-0.87915	-0.0222479	-0.0503401	0.163749	-0.984966	1.14893	-3.36983	9.82501	0.00856231	0.00674701	0.00242416	-0.482422	0.30542	-0.914551	-0.0091501	-0.0869514	0.308029	-0.947351	1.68148	-5.70174	7.81661	-0.00427245	-0.00135409	-0.00211148	-0.610352	0.523438	-0.819336	
23	0.322646	0.366443	0.0863228	-0.868428	-7.35693	0.920053	7.67311	0.0106639	-0.00298793	-0.000567847	0.557373	0.167725	-0.980957	0.16029	-0.0352558	0.0177861	-0.98628	0.62527	-0.499731	10.0887	-0.00746461	0.0215583	-0.0183213	-0.285156	0.182129	-0.937744	0.159143	0.156971	-0.478021	-0.849429	-1.14541	8.84241	5.069	0.023986	-0.00410514	0.000182042	-0.267334	-0.856201	-0.7229	-0.452857	0.483644	-0.384849	-0.642574	-9.56264	0.648775	2.33231	0.00154287	0.0118825	-0.0075238	0.932129	-0.422852	-0.373047	0.0857338	0.134654	0.413924	-0.896206	-3.04085	-7.03622	6.01803	0.008711	0.0155437	-0.01493	0.0415039	0.958252	-0.664062	0.825845	-0.0612432	0.339445	-0.446101	-6.27068	-4.8442	9.1603	0.000237477	0.0186255	-0.00285567	0.686279	0.803711	-0.382568	0.0040628	-0.209811	-0.156695	-0.965096	4.95936	2.16217	8.91944	-0.0210996	0.0259766	-0.0195714	-0.8125	-0.0732422	-0.731445	0.186335	0.888708	0.207128	-0.364111	-6.24522	1.99894	-5.80254	0.00469013	0.012475	-0.0183684	0.903564	0.122803	0.651611	0.14921	-0.029445	0.121342	-0.98089	0.517219	-2.57589	10.2289	0.0124006	0.0132553	-0.0118414	-0.417725	0.400146	-0.881348	-0.0222497	-0.0499655	0.163665	-0.984999	1.13014	-3.39692	9.75868	-0.00961162	0.0040945	0.0056731	-0.482178	0.301025	-0.909912	-0.00931883	-0.0868841	0.308173	-0.947309	1.69246	-5.70029	7.80843	-0.0132108	0.0202977	-0.00463824	-0.610596	0.527832	-0.821533	
24	0.322691	0.366413	0.0862943	-0.868427	-7.3335	0.945461	7.68954	-0.00459185	-0.00330373	0.00165536	0.555176	0.165527	-0.980957	0.160422	-0.0352148	0.0178567	-0.986258	0.657127	-0.469162	10.074	-0.0132455	0.017855	-0.0117217	-0.285156	0.182129	-0.935303	0.1591	0.15702	-0.478215	-0.849319	-1.13521	8.85872	5.1522	0.000942262	0.00978828	-0.00142205	-0.267578	-0.851807	-0.71167	-0.452864	0.483589	-0.384756	-0.642665	-9.51917	0.577145	2.2971	0.0154459	0.000280797	0.00199868	0.941162	-0.429443	-0.377441	0.0860064	0.134347	0.414632	-0.895899	-3.01097	-7.12991	6.07094	-0.0332059	-0.00791882	-0.0170829	0.0371094	0.958252	-0.668701	0.825903	-0.0614634	0.339518	-0.445909	-6.29493	-5.00072	9.19327	0.00164661	0.00986652	-0.0161245	0.688477	0.805908	-0.378418	0.0040628	-0.209811	-0.156695	-0.965096	4.95936	2.16217	8.91944	-0.0210996	0.0259766	-0.0195714	-0.8125	-0.0732422	-0.731445	0.186197	0.888653	0.207008	-0.364382	-6.2834	2.0028	-5.821	0.00403741	0.00077432	-0.020656	0.90332	0.125	0.653809	0.149303	-0.0296018	0.121438	-0.980859	0.48968	-2.56729	10.2414	0.00148381	0.000406034	-0.0176328	-0.411133	0.409424	-0.883545	-0.0222244	-0.0500351	0.163375	-0.985044	1.18191	-3.39689	9.94238	0.02215	0.0118421	0.00227403	-0.48877	0.298584	-0.914307	-0.00923469	-0.0869425	0.308002	-0.94736	1.69726	-5.73384	7.8487	0.0134057	-0.00102559	-0.00273807	-0.61499	0.523438	-0.82373	
25	0.322755	0.366411	0.086365	-0.868397	-7.36168	0.899327	7.66874	-0.00562333	-0.000928796	0.00147583	0.555176	0.167725	-0.985352	0.160532	-0.0350478	0.0176782	-0.98625	0.675125	-0.464458	10.0853	0.00479578	0.0190554	-0.0180908	-0.283203	0.184326	-0.935547	0.159452	0.157031	-0.477709	-0.849536	-1.16923	8.74277	5.02942	-0.0222382	0.0158998	0.00607045	-0.269531	-0.856201	-0.716064	-0.453042	0.483559	-0.384891	-0.642482	-9.48742	0.63511	2.30169	0.0123848	0.00520561	-0.00517245	0.932129	-0.422852	-0.373047	0.0857046	0.134655	0.414151	-0.896104	-3.04705	-6.96667	5.99948	0.0118297	0.0258586	-0.0183091	0.0393066	0.958252	-0.670898	0.825892	-0.0613199	0.339368	-0.446062	-6.28531	-4.90102	9.16652	0.022781	0.0111349	-0.0217923	0.684326	0.801514	-0.380371	0.0033699	-0.208581	-0.155427	-0.96557	4.94698	2.1608	8.94694	-0.0240813	0.0275025	-0.0158847	-0.812744	-0.0668945	-0.738037	0.186124	0.888652	0.206972	-0.364443	-6.25945	2.00982	-5.78924	0.0138725	0.0107646	-0.0202102	0.912109	0.122803	0.65625	0.149346	-0.0296794	0.121485	-0.980845	0.551316	-2.57561	10.2306	0.00161537	0.0027197	-0.0172189	-0.411133	0.406982	-0.874756	-0.0222355	-0.0499041	0.163446	-0.985038	1.13537	-3.33466	9.8806	-0.00324203	0.02188	0.00484969	-0.482422	0.30542	-0.912354	-0.00919682	-0.0870146	0.307934	-0.947376	1.69684	-5.7351	7.77395	0.00650838	0.00164794	-0.00319832	-0.610596	0.525635	-0.821533	
26	0.32287	0.36631	0.0864057	-0.868393	-7.37	0.871156	7.62569	0.000593585	-0.00678454	0.000546541	0.557129	0.169922	-0.980957	0.160576	-0.034856	0.0176759	-0.986249	0.60217	-0.447481	10.1513	-0.0224186	0.0376271	-0.0160014	-0.282715	0.175781	-0.9375	0.159479	0.157194	-0.477635	-0.849542	-1.18166	8.92769	5.12678	-0.00208492	0.0118263	-0.00404833	-0.263184	-0.851807	-0.716064	-0.453033	0.483617	-0.384696	-0.642561	-9.55608	0.588259	2.33422	-0.0116498	-0.00151698	-0.00621381	0.931885	-0.418457	-0.375488	0.0857671	0.134482	0.414513	-0.895956	-3.0408	-6.98314	6.06602	-0.0237467	-0.000213055	-0.0174671	0.0393066	0.958252	-0.668701	0.826009	-0.0613706	0.339466	-0.445764	-6.34343	-4.90954	9.20554	-0.00433918	0.0151807	-0.000225714	0.690674	0.801514	-0.380371	0.00324532	-0.208414	-0.15491	-0.965689	4.93869	2.16315	8.97155	-0.0246355	0.0287143	-0.0189213	-0.808594	-0.0668945	-0.73584	0.185612	0.888952	0.206861	-0.364034	-6.24963	2.02385	-5.88357	0.0306546	0.052202	-0.0180727	0.903564	0.122803	0.65625	0.149413	-0.0296266	0.121514	-0.980833	0.557399	-2.56791	10.2299	0.00478619	0.0127475	-0.0139426	-0.408691	0.402588	-0.881348	-0.02218	-0.0497823	0.163678	-0.985007	1.1161	-3.35982	9.78597	0.00828024	0.0200088	0.00593969	-0.482422	0.307617	-0.912354	-0.00921246	-0.0870112	0.308059	-0.947335	1.67554	-5.67706	7.80983	-0.0141196	0.0135895	-0.00187047	-0.614746	0.519043	-0.82373	
27	0.322799	0.366376	0.0863777	-0.868394	-7.35094	0.965592	7.70133	0.000951305	-0.00250399	-0.00178628	0.555176	0.16333	-0.97876	0.160673	-0.0350375	0.0178767	-0.986224	0.696457	-0.547344	10.1615	-0.0200223	0.00936667	-0.013617	-0.280762	0.179932	-0.937744	0.159539	0.157155	-0.477472	-0.849629	-1.13021	8.80587	5.03658	-0.0197779	0.0048216	-0.00651441	-0.263184	-0.849609	-0.713867	-0.453025	0.483639	-0.384682	-0.642559	-9.56829	0.573523	2.31668	0.00216163	0.0109913	0.00419595	0.934082	-0.418457	-0.373291	0.0857614	0.13465	0.414332	-0.896015	-2.98026	-7.01639	6.03074	0.035132	0.0113823	-0.0176444	0.0415039	0.960449	-0.670898	0.826037	-0.0611268	0.339333	-0.445848	-6.24987	-4.75661	9.18531	0.0130444	0.0188474	-0.0195166	0.688721	0.801514	-0.384766	0.00300492	-0.207767	-0.154271	-0.965932	4.93541	2.10354	8.97685	-0.0186415	0.0332395	-0.0158944	-0.810791	-0.0668945	-0.740234	0.185881	0.888785	0.206884	-0.364292	-6.29584	1.98552	-5.89491	-0.00327851	-0.0177393	-0.0226655	0.903564	0.122803	0.653809	0.149114	-0.0292114	0.121451	-0.980898	0.432562	-2.58666	10.2608	0.00517623	0.0144784	-0.0133807	-0.411133	0.406982	-0.883545	-0.0222309	-0.049783	0.163655	-0.98501	1.12775	-3.40569	9.86155	-0.00600967	0.0123564	-0.000341179	-0.484375	0.298828	-0.914307	-0.00927085	-0.0869615	0.308295	-0.947262	1.69142	-5.74176	7.79412	-0.0120206	0.0085814	-0.00527344	-0.610596	0.527832	-0.821533	
28	0.323031	0.366216	0.0864108	-0.868372	-7.34269	0.884088	7.66514	-0.00432567	-0.00772484	0.00531193	0.554932	0.169678	-0.972412	0.160691	-0.0346707	0.0179507	-0.986232	0.567197	-0.467918	10.0898	-0.015044	0.0332893	-0.0177267	-0.2854	0.186523	-0.937988	0.159217	0.157158	-0.477893	-0.849453	-1.09488	8.94148	5.16906	0.0107136	-0.00416246	-0.00205698	-0.267334	-0.858398	-0.718262	-0.453035	0.483497	-0.384923	-0.642514	-9.46209	0.667522	2.3141	0.0225499	0.00531334	0.00601809	0.936279	-0.420654	-0.377441	0.0858014	0.134734	0.414427	-0.895955	-3.03391	-7.07192	5.97594	-0.004512	0.0149586	-0.0105193	0.0415039	0.958252	-0.675537	0.82599	-0.0611053	0.33922	-0.446024	-6.30526	-4.91327	9.17778	0.0125167	0.00752573	-0.018151	0.688721	0.797119	-0.380371	0.00263518	-0.2073	-0.153029	-0.966231	4.89483	2.09619	8.92146	-0.0376963	0.0262654	-0.0221133	-0.804443	-0.0603027	-0.736084	0.18585	0.888637	0.206835	-0.364697	-6.32695	1.95446	-5.80285	0.0148769	-0.0188761	-0.0257146	0.907471	0.133789	0.648926	0.14912	-0.0296048	0.121546	-0.980874	0.578378	-2.58358	10.1864	0.0058915	-0.00912554	-0.0206652	-0.411133	0.406982	-0.881348	-0.0221789	-0.0497173	0.163481	-0.985043	1.16876	-3.38681	9.85321	0.00843077	0.00810286	0.0040012	-0.482422	0.307617	-0.905518	-0.00919583	-0.0869827	0.308117	-0.947319	1.69162	-5.73653	7.77404	0.00992213	0.0109983	-0.00168042	-0.610596	0.527832	-0.823975	
29	0.323103	0.366317	0.0864528	-0.868299	-7.41441	0.877713	7.63265	0.00422322	0.000551348	0.00318807	0.55957	0.167725	-0.97876	0.160794	-0.0347225	0.0179632	-0.986214	0.66201	-0.490528	10.1446	-0.00719561	0.0194043	-0.0170847	-0.278809	0.184326	-0.935547	0.159148	0.157228	-0.47771	-0.849556	-1.22393	8.80335	5.01132	0.014558	0.0077031	-0.00847932	-0.260986	-0.854004	-0.725098	-0.452939	0.483557	-0.384722	-0.642657	-9.44345	0.524561	2.29893	-0.00945881	0.00307652	-0.0030619	0.934082	-0.420654	-0.373047	0.0859057	0.134543	0.414844	-0.89578	-3.09587	-7.03867	6.04031	-0.0357606	-0.00169912	-0.00961208	0.041748	0.953857	-0.668701	0.826029	-0.0611269	0.339313	-0.445877	-6.41498	-5.00512	9.22545	0.00239007	0.0169544	-0.00654102	0.686523	0.799316	-0.380371	0.00237099	-0.206816	-0.151775	-0.966533	4.92015	2.06399	9.05715	-0.0280298	0.0347592	-0.0200282	-0.808838	-0.0625	-0.736084	0.185055	0.888754	0.207104	-0.364662	-6.24363	1.97775	-5.78828	0.0184544	0.0126681	-0.020039	0.905518	0.125	0.656006	0.149254	-0.0296251	0.121771	-0.980825	0.550981	-2.66011	10.2383	-0.0015847	0.0146131	-0.0114884	-0.410889	0.402588	-0.883545	-0.0221832	-0.0496727	0.16363	-0.985021	1.12017	-3.41704	9.83239	-0.0154851	0.0143414	0.00356384	-0.484375	0.298828	-0.918945	-0.00921346	-0.0869604	0.308226	-0.947286	1.67901	-5.7055	7.80638	-0.00769346	0.00677593	-0.00560988	-0.615234	0.527832	-0.826172	
30	0.323062	0.366322	0.0862958	-0.868327	-7.30912	0.933054	7.63851	0.00622926	-0.000784479	-0.00332499	0.555176	0.16333	-0.97876	0.16091	-0.0347767	0.0179655	-0.986192	0.654293	-0.516114	10.1066	-0.00841069	0.00471057	-0.0109688	-0.282715	0.171387	-0.939697	0.158905	0.157305	-0.478119	-0.849357	-1.15023	8.87628	5.11918	0.0212024	-0.001014	-0.00658104	-0.267334	-0.856201	-0.720459	-0.4528	0.483881	-0.384541	-0.64262	-9.57593	0.549095	2.31914	-0.0164702	0.0112461	-0.00421361	0.934082	-0.420654	-0.37085	0.0861271	0.134478	0.414587	-0.895888	-3.01443	-6.9684	6.01085	0.018711	-0.00188	-0.0108995	0.0458984	0.956055	-0.668701	0.826143	-0.0609603	0.339156	-0.445809	-6.28301	-4.83486	9.18985	0.00546882	0.0145546	-0.00938132	0.690674	0.801514	-0.384766	0.00212638	-0.206335	-0.150884	-0.966776	4.91165	2.06548	8.96732	-0.0193571	0.0295816	-0.0206907	-0.808838	-0.0603027	-0.731689	0.185036	0.888815	0.207065	-0.364546	-6.28423	1.98017	-5.8367	0.00426422	0.0155315	-0.0181072	0.907715	0.125	0.653809	0.149444	-0.0292059	0.121655	-0.980823	0.43578	-2.55475	10.2616	0.00899521	0.0227797	-0.0112184	-0.41333	0.402588	-0.883545	-0.0221594	-0.0496553	0.163462	-0.98505	1.10813	-3.36061	9.82249	0.00804295	0.00822178	0.00464204	-0.47998	0.301025	-0.905273	-0.00920704	-0.0870073	0.308187	-0.947294	1.69158	-5.69759	7.79124	0.00313104	0.00844017	-0.00389657	-0.610596	0.525635	-0.817139	
31	0.323077	0.366386	0.0863526	-0.868289	-7.34081	0.944526	7.67886	-0.00271501	-0.00175375	-0.0024523	0.55957	0.167725	-0.974365	0.160936	-0.0347619	0.0179606	-0.986189	0.636407	-0.502497	10.0829	-0.0101311	0.0159946	-0.0148103	-0.281006	0.186523	-0.935547	0.158943	0.157384	-0.478038	-0.84938	-1.16344	8.86887	5.12355	-0.00321477	0.0130787	-0.00334161	-0.263184	-0.856201	-0.718262	-0.452752	0.483888	-0.38447	-0.64269	-9.48722	0.500616	2.27852	-0.0121528	0.00172862	0.00123875	0.936523	-0.422852	-0.37085	0.0862436	0.134439	0.414712	-0.895825	-2.99474	-6.9574	6.01648	-0.0130196	0.00276921	-0.0102614	0.0415039	0.956055	-0.661865	0.826148	-0.0609678	0.339193	-0.44577	-6.28001	-4.87995	9.23176	0.000586743	0.0169013	-0.0121917	0.688721	0.799316	-0.380371	0.00202047	-0.206118	-0.150343	-0.966907	4.9128	2.08098	8.98005	-0.0262916	0.0332977	-0.0178638	-0.806885	-0.0537109	-0.736328	0.184942	0.888817	0.207032	-0.364607	-6.29626	2.01497	-5.83812	0.0151443	0.0114524	-0.0213955	0.898682	0.135986	0.651367	0.149499	-0.0291615	0.121651	-0.980816	0.45651	-2.54486	10.1989	0.00654012	0.0119614	-0.0150125	-0.408691	0.404785	-0.885742	-0.0221698	-0.0495976	0.163534	-0.985041	1.13163	-3.36139	9.84783	-0.00299615	0.0158618	0.00352972	-0.481934	0.298828	-0.912109	-0.00922134	-0.0869612	0.308135	-0.947315	1.68167	-5.68802	7.77199	-0.00581462	0.0125837	-0.00446174	-0.608398	0.527832	-0.819336	
32	0.323192	0.36645	0.0865522	-0.868199	-7.35492	0.855701	7.66157	-0.00234041	0.00234871	0.00116084	0.552979	0.165283	-0.976562	0.16094	-0.034815	0.0181894	-0.986182	0.640482	-0.52438	10.1151	-0.012457	0.0116306	-0.0169924	-0.282959	0.179932	-0.935303	0.158996	0.157243	-0.477939	-0.849452	-1.16588	8.85513	5.06614	-0.00223161	0.000337401	0.000637238	-0.267334	-0.854004	-0.711426	-0.452987	0.483686	-0.384829	-0.642462	-9.5101	0.675214	2.31575	0.0331825	0.00866938	-0.000365062	0.931885	-0.420898	-0.37085	0.0861822	0.134525	0.414607	-0.895867	-3.01822	-6.9475	6.02197	0.00809255	0.0129738	-0.0178001	0.0393066	0.956055	-0.664062	0.826054	-0.0609636	0.33922	-0.445923	-6.28769	-4.88279	9.16597	-0.00218492	0.0223224	-0.0194145	0.690674	0.801514	-0.380371	0.0015418	-0.204812	-0.148379	-0.967488	4.86292	2.00193	9.08475	-0.0368792	0.0336745	-0.0156236	-0.806641	-0.0603027	-0.740234	0.184483	0.888806	0.206929	-0.364925	-6.25012	1.93663	-5.81726	0.0138156	0.00512678	-0.0221252	0.905273	0.131592	0.646729	0.149722	-0.0295349	0.12173	-0.980761	0.521928	-2.59206	10.2071	-0.00178074	0.00091731	-0.0154296	-0.408691	0.404785	-0.87915	-0.0221122	-0.0496313	0.163513	-0.985044	1.11784	-3.32659	9.937	-0.0113013	0.00859019	0.00422488	-0.484619	0.30542	-0.907715	-0.00921668	-0.0869073	0.307925	-0.947388	1.67122	-5.70424	7.83282	0.0131911	0.00797145	-0.00340731	-0.61499	0.525635	-0.828369	
33	0.323093	0.366561	0.0864252	-0.868202	-7.39064	0.919381	7.66579	0.010212	-0.00236906	-0.00325351	0.557373	0.16748	-0.974365	0.160937	-0.034573	0.0182849	-0.986189	0.613847	-0.507639	10.1238	-0.0223203	0.0241715	-0.0135301	-0.282959	0.177734	-0.942383	0.159131	0.157294	-0.477729	-0.849536	-1.14287	8.88045	5.13788	-0.00901706	0.0161797	0.000961142	-0.256836	-0.854248	-0.720703	-0.45294	0.483702	-0.384651	-0.642589	-9.47763	0.591975	2.29394	-0.00229584	0.00111986	-0.000315366	0.938721	-0.422852	-0.377441	0.0860013	0.134539	0.41485	-0.895769	-3.07589	-6.98382	5.96826	-0.00955659	0.0084897	-0.0147383	0.0395508	0.953857	-0.668701	0.826054	-0.0609636	0.33922	-0.445923	-6.28769	-4.88279	9.16597	-0.00218492	0.0223224	-0.0194145	0.690674	0.801514	-0.380371	0.00131717	-0.204365	-0.147953	-0.967648	4.87617	2.00541	9.03454	-0.00981885	0.0250199	-0.0157923	-0.804688	-0.0559082	-0.744629	0.184395	0.888816	0.206882	-0.364971	-6.25914	1.96752	-5.83714	0.0142462	0.0126943	-0.0201214	0.901123	0.127197	0.658447	0.149722	-0.0295349	0.12173	-0.980761	0.521928	-2.59206	10.2071	-0.00178074	0.00091731	-0.0154296	-0.408691	0.404785	-0.87915	-0.0220927	-0.0496863	0.163644	-0.98502	1.13572	-3.40074	9.83411	-0.00723646	0.00673033	0.00445216	-0.48877	0.298584	-0.914307	-0.00921692	-0.0869108	0.308124	-0.947323	1.68312	-5.72256	7.84862	-0.00887157	0.00587774	-0.00414334	-0.610596	0.530029	-0.821777	
34	0.323085	0.366578	0.0864257	-0.868198	-7.34919	0.977367	7.66569	-0.00277979	-0.000311155	-0.00125138	0.552979	0.165283	-0.97876	0.161047	-0.034591	0.0182663	-0.986171	0.650253	-0.491587	10.1267	-0.00147468	0.0171513	-0.0162489	-0.285156	0.182129	-0.937744	0.159393	0.157268	-0.477527	-0.849605	-1.19697	8.80902	5.05625	0.00505907	0.011272	0.00662782	-0.265381	-0.854004	-0.718262	-0.453087	0.483673	-0.384687	-0.642486	-9.48115	0.550873	2.32117	0.0203471	0.00569034	-0.00680759	0.934326	-0.423096	-0.366455	0.0861492	0.13448	0.415178	-0.895612	-3.02028	-7.10962	6.04268	-0.0312985	0.00325668	-0.00978685	0.0393066	0.960449	-0.670898	0.826018	-0.0608242	0.339409	-0.445865	-6.28506	-4.90854	9.11255	0.00399211	0.0150203	-0.0141831	0.686523	0.801514	-0.382568	0.00113662	-0.203935	-0.14704	-0.967878	4.867	1.99727	9.04526	-0.020815	0.0325553	-0.0179945	-0.804688	-0.0559082	-0.742676	0.184324	0.888869	0.206877	-0.364882	-6.27633	1.97014	-5.81536	0.0121001	0.0231066	-0.0185557	0.903076	0.131592	0.637207	0.149722	-0.0295349	0.12173	-0.980761	0.521928	-2.59206	10.2071	-0.00178074	0.00091731	-0.0154296	-0.408691	0.404785	-0.87915	-0.0221347	-0.0494854	0.163302	-0.985086	1.11976	-3.37681	9.93365	0.00598584	0.0162448	0.000730159	-0.479736	0.298828	-0.907471	-0.00919863	-0.0869315	0.308236	-0.947285	1.70716	-5.7158	7.762	-0.00817705	0.00518038	-0.0024829	-0.61499	0.523438	-0.821533	
35	0.32318	0.366578	0.0865779	-0.868147	-7.37585	0.862088	7.65335	-0.0124228	0.00183121	0.00201262	0.555176	0.165283	-0.974365	0.16072	-0.0344088	0.0183495	-0.986229	0.634624	-0.515332	10.1066	-0.00753658	0.0156839	-0.0219777	-0.282959	0.179932	-0.939941	0.159427	0.157326	-0.477563	-0.849568	-1.07746	8.86667	5.14141	-0.00512481	0.0131774	-0.00123819	-0.269531	-0.855957	-0.7229	-0.453205	0.483577	-0.384781	-0.642419	-9.51995	0.639895	2.30463	0.0181015	0.00221499	-0.00206232	0.936523	-0.425049	-0.373047	0.0858135	0.13476	0.414823	-0.895767	-3.08168	-6.94015	5.92272	0.0103903	0.0187112	-0.0153861	0.0390625	0.964844	-0.675537	0.826034	-0.0607321	0.339057	-0.446117	-6.29547	-4.81362	9.18238	0.0238005	0.00651022	-0.0215904	0.688721	0.797363	-0.378174	0.00109968	-0.203731	-0.146675	-0.967977	4.86623	1.99144	9.03915	-0.0110585	0.0324003	-0.0151975	-0.804688	-0.0559082	-0.746826	0.184212	0.88892	0.207028	-0.364727	-6.28341	1.98612	-5.87103	0.00765397	0.0157851	-0.0161867	0.90332	0.129395	0.651367	0.149254	-0.029135	0.121454	-0.980879	0.456404	-2.57475	10.2398	0.00892642	0.00195452	-0.0154776	-0.408691	0.406982	-0.881348	-0.022065	-0.0495536	0.163592	-0.985036	1.12978	-3.40659	9.80736	0.0110384	0.0117192	0.00852798	-0.482422	0.30542	-0.907715	-0.0091652	-0.0869064	0.30813	-0.947322	1.67966	-5.75559	7.77631	0.00563691	0.0103576	-0.00169789	-0.612549	0.52124	-0.821533	
36	0.323228	0.366626	0.0864138	-0.868125	-7.34164	0.898486	7.64664	0.0106926	-0.00469523	0.00286305	0.561523	0.169922	-0.976562	0.16077	-0.0344259	0.0183281	-0.986221	0.624581	-0.468576	10.1015	-0.0137147	0.0155389	-0.013282	-0.281006	0.184326	-0.935547	0.159408	0.157446	-0.477662	-0.849493	-1.25794	8.89205	5.09196	0.00708678	0.00427696	-0.00505229	-0.267334	-0.854004	-0.716064	-0.453215	0.483364	-0.384653	-0.642648	-9.52241	0.50179	2.32903	0.00856308	-0.00707301	0.00250176	0.929932	-0.422852	-0.375244	0.0859467	0.134459	0.415329	-0.895565	-3.06882	-7.10992	6.06447	-0.027981	-0.00451487	-0.0151952	0.0393066	0.960449	-0.664062	0.826064	-0.0608839	0.339329	-0.445832	-6.34161	-4.93102	9.23939	-0.00760664	0.0185462	-0.00363067	0.688721	0.801514	-0.384766	0.00109968	-0.203731	-0.146675	-0.967977	4.86623	1.99144	9.03915	-0.0110585	0.0324003	-0.0151975	-0.804688	-0.0559082	-0.746826	0.184089	0.888944	0.206983	-0.364758	-6.24896	1.95721	-5.82296	0.0173963	0.014467	-0.0203795	0.896729	0.129395	0.656006	0.149383	-0.0293043	0.121643	-0.980831	0.495692	-2.59633	10.2625	-0.00362565	0.00313273	-0.0148296	-0.408691	0.404785	-0.881348	-0.0220433	-0.0494172	0.163307	-0.98509	1.11308	-3.34445	9.94118	0.00344619	0.0166221	0.00254514	-0.477539	0.298828	-0.916748	-0.00918315	-0.0868939	0.308141	-0.947319	1.6868	-5.69979	7.7702	-0.00190483	0.00566986	-0.00515226	-0.610596	0.525635	-0.819336	
37	0.323252	0.366737	0.0863147	-0.868079	-7.31968	0.939175	7.66004	0.00684166	0.00060454	0.000507094	0.55957	0.165527	-0.976562	0.160842	-0.0344478	0.018211	-0.986211	0.634264	-0.529703	10.0488	-0.00422809	0.0125395	-0.0180393	-0.280762	0.179932	-0.937744	0.159401	0.157352	-0.477648	-0.84952	-1.17107	8.71802	5.07195	0.00551531	0.00348399	0.00133197	-0.271729	-0.854004	-0.716064	-0.453254	0.483278	-0.384654	-0.642685	-9.41926	0.553765	2.30168	-0.000777186	0.00525984	0.000133542	0.936279	-0.418457	-0.373291	0.0858857	0.134387	0.415246	-0.895619	-3.02261	-7.03735	5.97179	0.00896602	0.00562975	-0.0233031	0.0349121	0.958252	-0.670898	0.826028	-0.0609407	0.33944	-0.445807	-6.33454	-4.90175	9.15336	-0.00769068	0.0227099	-0.0160494	0.686523	0.799316	-0.384766	0.000624043	-0.202692	-0.145922	-0.968309	4.83423	1.98614	9.01016	-0.00497507	0.0310313	-0.022381	-0.802734	-0.0515137	-0.746826	0.184054	0.888834	0.207266	-0.364884	-6.2639	1.9775	-5.76479	0.00809761	0.0119365	-0.0195415	0.905273	0.131592	0.651367	0.149446	-0.0293365	0.121748	-0.980807	0.532221	-2.60865	10.1566	0.00775186	0.00810484	-0.0164369	-0.410889	0.402588	-0.881348	-0.0220492	-0.0495256	0.163329	-0.985081	1.1274	-3.33608	9.75363	0.00376171	0.0114005	0.00370296	-0.47998	0.30542	-0.912354	-0.00922078	-0.0869189	0.308039	-0.94735	1.67273	-5.69296	7.8021	0.00458405	0.00351941	-0.00406778	-0.612793	0.523438	-0.828369	
38	0.323298	0.366792	0.0862331	-0.868047	-7.34445	0.9163	7.68524	0.0041135	-0.00622123	0.00045254	0.55542	0.161133	-0.98291	0.160858	-0.0346322	0.0180706	-0.986204	0.674201	-0.476993	10.1093	-0.00731258	0.0107246	-0.0174143	-0.280762	0.182129	-0.937744	0.159213	0.157335	-0.477849	-0.849445	-1.10693	8.91456	5.17498	0.00141775	0.00353138	-0.00310972	-0.263184	-0.856201	-0.718262	-0.453422	0.483218	-0.38475	-0.642554	-9.57398	0.624162	2.34685	0.00406518	0.00261858	-0.00352493	0.936279	-0.420654	-0.37085	0.085941	0.134378	0.415188	-0.895643	-2.92494	-7.02549	6.02303	0.00459697	0.0087944	-0.0153073	0.0368652	0.962646	-0.668701	0.826099	-0.0609502	0.339338	-0.445753	-6.2652	-4.93263	9.11316	0.00102942	0.0103344	-0.0137602	0.691162	0.792969	-0.384521	0.000561427	-0.202394	-0.145283	-0.968467	4.87643	1.92957	9.13239	0.00165571	0.0254107	-0.0123411	-0.804688	-0.0537109	-0.740479	0.184231	0.88877	0.207173	-0.365002	-6.28882	1.9696	-5.84339	0.00372148	0.00740386	-0.0165429	0.909912	0.127197	0.653809	0.149584	-0.0293304	0.121753	-0.980786	0.503427	-2.56442	10.2428	0.00192209	0.00644905	-0.0125698	-0.410889	0.402588	-0.883545	-0.0220416	-0.0493609	0.163438	-0.985071	1.14827	-3.38528	9.91195	-0.0127975	0.0158237	0.00401476	-0.482178	0.301025	-0.914551	-0.00921302	-0.0868962	0.308247	-0.947284	1.69129	-5.73795	7.78218	-0.00659832	0.00627583	-0.00247786	-0.610352	0.523438	-0.819336	
39	0.323265	0.366865	0.0862761	-0.868025	-7.37561	0.966684	7.65194	-0.000994113	0.000888064	-0.00203636	0.555176	0.167725	-0.980957	0.160837	-0.034755	0.0178908	-0.986207	0.619571	-0.503451	10.0467	0.00820911	0.0125574	-0.0182897	-0.282959	0.177979	-0.935303	0.159265	0.157314	-0.477653	-0.84955	-1.12133	8.84684	5.05508	-0.0158786	0.00703009	-0.000719116	-0.267578	-0.854004	-0.718262	-0.453393	0.483226	-0.384698	-0.6426	-9.51688	0.552493	2.31502	0.00583264	0.00630198	7.92212e-05	0.931641	-0.416504	-0.373291	0.08585	0.13447	0.415162	-0.895649	-3.14683	-7.05213	6.0022	-0.00444154	0.00526239	-0.0132241	0.0415039	0.958252	-0.668701	0.826078	-0.0609456	0.339339	-0.445791	-6.37537	-4.86369	9.25567	0.006173	0.0148634	-0.0139089	0.693115	0.797363	-0.380371	0.000668988	-0.202416	-0.145476	-0.968434	4.84823	1.9299	9.07604	0.0360138	0.0146178	-0.0105468	-0.806885	-0.0559082	-0.742676	0.184162	0.888799	0.207138	-0.364986	-6.26692	1.94799	-5.82845	0.0124182	0.0172941	-0.0190251	0.90332	0.127197	0.653809	0.149655	-0.0294194	0.121925	-0.980751	0.495495	-2.62738	10.2519	0.00469757	0.00655665	-0.0180048	-0.410889	0.404785	-0.883545	-0.0220592	-0.0494056	0.163549	-0.98505	1.13371	-3.41389	9.86189	0.00926296	0.00965959	0.00278912	-0.482178	0.301025	-0.914551	-0.00922588	-0.0868953	0.308335	-0.947256	1.69338	-5.7282	7.815	-0.00401656	0.00993198	-0.00385273	-0.61084	0.532227	-0.826172	
40	0.323275	0.3669	0.0864037	-0.867993	-7.39684	0.898969	7.63295	-5.64279e-05	0.00166224	-0.00409191	0.555176	0.163086	-0.972168	0.160875	-0.034817	0.0179535	-0.986197	0.584546	-0.494603	10.0057	-0.0260558	0.0298435	-0.0193498	-0.285156	0.182129	-0.937744	0.159171	0.157299	-0.477842	-0.849463	-1.1502	8.95484	5.10415	0.00490828	0.00179797	-0.00240374	-0.267334	-0.854004	-0.713867	-0.453334	0.483228	-0.384583	-0.642709	-9.51983	0.505532	2.30708	-0.0041363	0.00346511	0.00173453	0.936768	-0.429443	-0.37085	0.0859167	0.134461	0.415129	-0.89566	-3.0317	-7.12094	5.9815	0.0092609	0.0089423	-0.0152114	0.0393066	0.956055	-0.668701	0.826106	-0.0610073	0.339386	-0.445695	-6.33478	-4.8853	9.18035	-0.0014516	0.0161776	-0.0131337	0.688721	0.799316	-0.380371	0.000824599	-0.202466	-0.146229	-0.96831	4.80743	1.96954	9.12789	0.0420259	-0.000961637	-0.00990019	-0.807129	-0.0515137	-0.744873	0.184067	0.88884	0.207389	-0.364792	-6.27996	2.01087	-5.79055	0.00885194	0.0298516	-0.019114	0.905518	0.127197	0.653809	0.149755	-0.0294355	0.122023	-0.980723	0.457374	-2.58955	10.2398	0.00152902	0.00750017	-0.0153788	-0.413574	0.409424	-0.885986	-0.022045	-0.0493282	0.163401	-0.985079	1.09578	-3.34414	9.8399	-0.0071589	0.0151509	0.00300464	-0.47998	0.30542	-0.912354	-0.00914054	-0.0868725	0.308073	-0.947344	1.64583	-5.67819	7.77782	0.0249927	0.00242603	-0.000785295	-0.610352	0.523438	-0.82373	
41	0.323276	0.366846	0.0864371	-0.868012	-7.37268	0.938671	7.67567	-0.00157584	-0.0105578	0.000236745	0.552979	0.16748	-0.976562	0.16094	-0.0351087	0.0180119	-0.986175	0.660614	-0.547274	10.0477	-0.0181943	-0.00717941	-0.0128003	-0.283203	0.186523	-0.937988	0.159112	0.157124	-0.477937	-0.849454	-1.13311	8.85018	5.0178	0.00588975	-0.003279	0.000407287	-0.263184	-0.854004	-0.716064	-0.453264	0.483204	-0.38468	-0.642719	-9.56924	0.65151	2.38613	0.00133144	0.00426581	0.0073312	0.934326	-0.425049	-0.37085	0.0859685	0.134451	0.415013	-0.89571	-3.11655	-6.93474	5.95905	0.0088255	0.00450733	-0.0116051	0.0349121	0.958252	-0.668701	0.826066	-0.0611433	0.339695	-0.445516	-6.28971	-4.88156	9.15026	-0.021	0.027588	-0.00878747	0.69751	0.797363	-0.384521	0.0010525	-0.202614	-0.146739	-0.968201	4.84036	1.99544	9.02021	0.0635684	0.00491738	-0.00494703	-0.800293	-0.0559082	-0.744629	0.184122	0.888797	0.207426	-0.364848	-6.28086	1.9771	-5.8098	0.00194573	0.00896744	-0.0224582	0.90332	0.129395	0.646729	0.149898	-0.029465	0.122008	-0.980702	0.468577	-2.58833	10.2283	0.00716403	0.0047536	-0.00875722	-0.411133	0.406982	-0.881348	-0.0220643	-0.0494699	0.163529	-0.98505	1.17122	-3.36354	9.94727	0.00974395	-0.00174654	0.00167696	-0.47998	0.303223	-0.907715	-0.00917763	-0.0869789	0.308155	-0.947307	1.72992	-5.67279	7.80452	-0.0144192	0.00737816	-0.00724708	-0.617676	0.534424	-0.826416	
42	0.323342	0.36675	0.0864308	-0.868029	-7.3151	0.897276	7.66864	-0.00228817	-0.0107668	0.002243	0.555176	0.16333	-0.976562	0.16092	-0.0350136	0.0181458	-0.986179	0.720716	-0.474249	10.179	-0.0121561	0.0243602	-0.0206061	-0.282959	0.182373	-0.930664	0.159122	0.157204	-0.477737	-0.84955	-1.15757	8.92682	5.17365	-0.0115295	0.015693	-0.00161563	-0.263184	-0.854004	-0.718262	-0.453196	0.483052	-0.384655	-0.642896	-9.48768	0.570829	2.37209	-0.000516259	-0.00841603	0.0132959	0.936523	-0.422852	-0.37085	0.0862732	0.134074	0.415333	-0.895589	-2.91055	-7.19469	6.10427	0.00651714	-0.00235086	-0.0125369	0.0371094	0.958252	-0.668701	0.826017	-0.0611685	0.339756	-0.445557	-6.35694	-5.04982	9.16908	0.000425884	0.0195179	-0.0206482	0.688721	0.801514	-0.382568	0.00108559	-0.202656	-0.147717	-0.968044	4.89847	1.98502	9.03145	0.0485654	0.00495954	-0.0143203	-0.800293	-0.0603027	-0.744629	0.184261	0.888623	0.207351	-0.365244	-6.32234	1.9216	-5.81071	0.00105657	-0.00520955	-0.0173282	0.905762	0.122803	0.651367	0.149705	-0.0296054	0.122039	-0.980724	0.515568	-2.61542	10.215	0.000924032	-7.87649e-05	-0.0182227	-0.41333	0.404785	-0.883545	-0.0220196	-0.0495466	0.163408	-0.985068	1.18782	-3.3595	9.78088	0.0131506	0.00495079	0.00530703	-0.484131	0.296631	-0.916504	-0.00923835	-0.0868844	0.308466	-0.947214	1.71605	-5.76907	7.74498	-0.025203	0.015588	-0.00426108	-0.612793	0.525635	-0.819336	
43	0.323462	0.366786	0.0865085	-0.867961	-7.38454	0.906619	7.65488	-0.00313115	0.000261067	0.00398156	0.555176	0.165283	-0.974365	0.16086	-0.0350169	0.0180349	-0.986191	0.607145	-0.500299	10.0557	-0.00537095	0.0121726	-0.0204061	-0.281006	0.186523	-0.937988	0.159183	0.157216	-0.477564	-0.849633	-1.19736	8.78271	5.04477	0.0179815	0.0037262	-0.00326414	-0.269531	-0.860352	-0.722656	-0.453088	0.483053	-0.384589	-0.643011	-9.49524	0.624675	2.30111	-0.00349094	0.00792164	-0.000855646	0.938721	-0.425049	-0.37085	0.0863606	0.134278	0.415181	-0.89562	-3.09423	-7.06238	5.95206	-0.0121984	0.00247842	-0.00562682	0.0415039	0.960449	-0.661865	0.825989	-0.0609706	0.339451	-0.445868	-6.3388	-4.85093	9.19497	0.0132774	0.0093771	-0.0186521	0.686523	0.799316	-0.380371	0.00126245	-0.203048	-0.148586	-0.967829	4.82189	2.01171	9.01676	0.0572702	-0.000684335	-0.0133038	-0.80249	-0.0559082	-0.749023	0.184479	0.888551	0.207267	-0.365357	-6.25206	1.982	-5.77668	0.00604815	0.0152596	-0.0170601	0.896729	0.129395	0.656006	0.149718	-0.0296737	0.121987	-0.980726	0.563765	-2.62074	10.2424	0.00992425	0.0114437	-0.0152693	-0.40625	0.404785	-0.876953	-0.0221613	-0.0493316	0.163675	-0.985031	1.08699	-3.40669	9.89631	0.000833559	0.0203759	-0.00106307	-0.482178	0.301025	-0.912109	-0.00915833	-0.0869202	0.308467	-0.947211	1.6724	-5.68378	7.78277	0.00340672	0.00787882	-0.00266964	-0.613037	0.530029	-0.826172	
44	0.323504	0.366859	0.0864153	-0.867924	-7.36473	0.899523	7.63503	0.00826905	-0.000726345	-0.000725465	0.559814	0.16333	-0.980957	0.160817	-0.0351929	0.0179676	-0.986193	0.625506	-0.498804	10.133	-0.00607559	0.00690887	-0.0200413	-0.282959	0.179932	-0.935303	0.159095	0.157247	-0.477601	-0.849623	-1.18334	8.8645	5.08411	-0.00101625	-0.0019478	-0.00444818	-0.265381	-0.845215	-0.716309	-0.452911	0.483305	-0.384376	-0.643073	-9.461	0.586575	2.28297	-0.0222018	0.0065351	-0.00308057	0.934326	-0.425049	-0.373047	0.0865633	0.134247	0.414946	-0.895715	-3.07069	-7.00944	6.03782	0.00634061	0.00392671	-0.00538269	0.0390625	0.967041	-0.670898	0.825858	-0.060856	0.339513	-0.446078	-6.33958	-4.88033	9.2061	0.00702771	0.013831	-0.0149578	0.688721	0.801514	-0.380371	0.00144418	-0.203358	-0.149404	-0.967637	4.83072	1.99116	9.03888	0.0571679	0.00213571	-0.0141536	-0.804932	-0.0537109	-0.742676	0.184308	0.888621	0.207461	-0.365163	-6.27242	1.98618	-5.84295	0.00598821	0.017765	-0.0167678	0.905518	0.127197	0.653809	0.149922	-0.0294211	0.122034	-0.980696	0.472709	-2.60054	10.2387	0.00227444	0.0186142	-0.00908289	-0.401855	0.409424	-0.883545	-0.0221353	-0.049547	0.163674	-0.985021	1.12321	-3.37061	9.76484	0.00210574	0.00356997	0.00415039	-0.482178	0.301025	-0.907715	-0.00919423	-0.086996	0.308497	-0.947194	1.67941	-5.74865	7.76327	0.00482036	0.00467321	-0.00458241	-0.608398	0.525635	-0.826172	
45	0.323499	0.366836	0.0862749	-0.86795	-7.34941	0.959634	7.64725	0.00355844	-0.00927332	0.000714434	0.550781	0.165283	-0.974365	0.160817	-0.0352668	0.0179579	-0.986191	0.649095	-0.53714	10.1123	-0.00694085	0.0141728	-0.0157329	-0.282959	0.182129	-0.933105	0.158921	0.157158	-0.477815	-0.849552	-1.14471	8.90501	5.18168	0.0138572	0.00156103	-0.00586094	-0.265137	-0.858398	-0.716064	-0.452776	0.483456	-0.3845	-0.642981	-9.57532	0.684267	2.37301	-0.000717937	0.0132418	0.00240665	0.929932	-0.425049	-0.379639	0.0867658	0.134295	0.414731	-0.895787	-3.0561	-6.92598	5.93382	0.0239185	0.0032663	-0.0108542	0.0415039	0.960449	-0.668701	0.825846	-0.0608188	0.339428	-0.44617	-6.23927	-4.77886	9.19068	0.00447498	0.0154551	-0.0155848	0.690918	0.795166	-0.382324	0.00166236	-0.203739	-0.150055	-0.967456	4.89218	2.02768	8.98467	0.0402449	0.00152458	-0.0131515	-0.800537	-0.0515137	-0.740479	0.184506	0.888515	0.207441	-0.365331	-6.30314	1.93064	-5.80129	0.0022142	0.00047912	-0.0179804	0.905273	0.131592	0.648926	0.150061	-0.0293921	0.1219	-0.980693	0.480188	-2.53901	10.2202	0.00421689	0.00393221	-0.0178847	-0.408691	0.402588	-0.881348	-0.0221985	-0.0494295	0.163772	-0.985009	1.13027	-3.37046	9.87234	0.000784775	0.0136378	0.00167999	-0.482422	0.30542	-0.912354	-0.00921127	-0.0869432	0.308265	-0.947274	1.71775	-5.63517	7.7575	0.0155299	0.0101078	-0.00528026	-0.608398	0.527832	-0.826172	
46	0.323478	0.366805	0.0863023	-0.867968	-7.33231	0.948748	7.66839	-0.000628904	-0.00471321	-0.00421407	0.555176	0.165527	-0.980957	0.160825	-0.0352942	0.0180802	-0.986186	0.651899	-0.490796	10.0446	-0.0147945	0.0171369	-0.0187145	-0.285156	0.177734	-0.9375	0.159149	0.157304	-0.477435	-0.849696	-1.14219	8.92486	5.03995	-0.0276658	0.0168605	-0.00168708	-0.265137	-0.858398	-0.718262	-0.452692	0.483259	-0.384563	-0.64315	-9.53357	0.662604	2.30232	0.0136724	-0.0016591	0.0119635	0.945312	-0.420654	-0.375244	0.0870041	0.134042	0.415037	-0.89566	-2.95144	-7.11451	6.07231	-0.012512	-0.00234712	-0.011743	0.0371094	0.960449	-0.666504	0.825772	-0.0609835	0.339678	-0.446095	-6.339	-4.97913	9.19495	-0.00337981	0.0239927	-0.0178289	0.688477	0.803711	-0.380615	0.00161469	-0.203738	-0.150497	-0.967388	4.87538	2.02131	8.99011	0.02674	0.00687188	-0.0134421	-0.811035	-0.0581055	-0.740479	0.18422	0.888508	0.207545	-0.365434	-6.29075	1.96203	-5.82165	0.0124763	0.00674155	-0.0187136	0.900879	0.131592	0.651367	0.149793	-0.0296147	0.122	-0.980715	0.5007	-2.58434	10.2307	-0.00257398	-0.00266412	-0.0213729	-0.413574	0.409424	-0.881348	-0.0221988	-0.0495601	0.163783	-0.985001	1.14233	-3.36055	9.82695	-0.0123383	0.0135483	-0.000670213	-0.475586	0.303223	-0.909912	-0.00921223	-0.0869448	0.308254	-0.947278	1.6978	-5.73672	7.81579	-0.00220644	0.00692701	-0.00428651	-0.608643	0.532227	-0.821777	
47	0.323568	0.366741	0.0865767	-0.867934	-7.38087	0.891419	7.65095	-0.00571807	-0.00438063	-0.000867239	0.555176	0.16748	-0.97876	0.160794	-0.0353749	0.0179553	-0.98619	0.617527	-0.554694	10.0716	-0.0037769	0.0107656	-0.0203735	-0.287598	0.186523	-0.933105	0.158988	0.157325	-0.477715	-0.849565	-1.15834	8.89469	5.12968	0.0229899	-0.00163319	-0.00523505	-0.267578	-0.845215	-0.71167	-0.452731	0.483179	-0.384614	-0.643152	-9.46652	0.660164	2.3164	0.000142779	0.00531179	-0.00145589	0.936768	-0.427246	-0.375244	0.0870037	0.134163	0.414806	-0.895749	-3.04835	-7.08856	6.01967	0.0198085	0.0136325	-0.00909102	0.0393066	0.958252	-0.670898	0.825733	-0.060996	0.33957	-0.446248	-6.27118	-4.87169	9.14329	0.00635901	0.0124857	-0.0185205	0.684326	0.803711	-0.376221	0.0017699	-0.203891	-0.150678	-0.967327	4.88205	2.04561	9.04054	0.0345713	0.00987951	-0.0114028	-0.804443	-0.0603027	-0.740234	0.184397	0.888395	0.207543	-0.36562	-6.28705	1.98008	-5.79041	-0.00426373	-0.00510178	-0.0188043	0.903076	0.133789	0.653564	0.149792	-0.0296833	0.121978	-0.980715	0.571739	-2.60182	10.2039	0.00735784	0.0030082	-0.0204918	-0.408936	0.409424	-0.881348	-0.0222569	-0.0494891	0.164007	-0.984966	1.11175	-3.35344	9.8367	-0.00847742	0.0120207	0.00349557	-0.482178	0.301025	-0.909912	-0.00919358	-0.0868297	0.308427	-0.947232	1.67605	-5.67511	7.794	-0.0102374	0.0118734	-0.00268898	-0.610596	0.525635	-0.821533	
48	0.323645	0.366689	0.0865324	-0.867932	-7.37127	0.870888	7.65505	0.00570291	-0.00554305	0.000369466	0.55957	0.165527	-0.97876	0.160676	-0.0352795	0.017897	-0.986214	0.624497	-0.510324	10.1215	-0.00680347	0.0197244	-0.0224183	-0.280762	0.179932	-0.937744	0.158882	0.15722	-0.477837	-0.849535	-1.13635	8.87923	5.12434	0.0182256	-0.00246562	-0.00170221	-0.263184	-0.854004	-0.711426	-0.452814	0.483252	-0.384543	-0.643081	-9.55546	0.591764	2.3306	0.00868458	0.00223645	-0.00423184	0.936279	-0.420654	-0.377441	0.0866827	0.134272	0.41489	-0.895725	-3.0213	-6.95566	5.98889	-0.00107366	0.00923254	-0.0119837	0.0393066	0.958252	-0.67334	0.825739	-0.0609377	0.339527	-0.446276	-6.23671	-4.84878	9.19333	0.0138691	0.0143623	-0.0168699	0.68457	0.797119	-0.382568	0.0017699	-0.203891	-0.150678	-0.967327	4.88205	2.04561	9.04054	0.0345713	0.00987951	-0.0114028	-0.804443	-0.0603027	-0.740234	0.184077	0.888583	0.207966	-0.365084	-6.28115	1.96401	-5.79671	0.00367424	0.0231673	-0.0159165	0.907471	0.129395	0.651367	0.149792	-0.0296833	0.121978	-0.980715	0.571739	-2.60182	10.2039	0.00735784	0.0030082	-0.0204918	-0.408936	0.409424	-0.881348	-0.0222299	-0.0494886	0.163935	-0.984978	1.14347	-3.44899	9.87645	0.0016899	0.0143545	0.0038317	-0.47998	0.301025	-0.909912	-0.00918583	-0.0868853	0.308594	-0.947173	1.6797	-5.77623	7.79755	0.00171886	0.00040571	-0.00391185	-0.615234	0.532227	-0.819336	
49	0.323642	0.366767	0.0864493	-0.867908	-7.37976	0.933132	7.63881	0.0052542	-7.21874e-05	0.000582851	0.550781	0.163086	-0.97876	0.160635	-0.0353025	0.0178478	-0.986221	0.656836	-0.488076	10.1098	-0.00666164	0.0124314	-0.0212743	-0.287354	0.182129	-0.935303	0.158986	0.157247	-0.477752	-0.849558	-1.16982	8.91646	5.19823	-0.00556669	0.0122362	0.00348285	-0.267334	-0.856201	-0.718262	-0.452841	0.483014	-0.384416	-0.643317	-9.50679	0.562506	2.32907	0.00413409	-0.00842493	0.00796035	0.936523	-0.422852	-0.375244	0.0867835	0.134162	0.415173	-0.895601	-3.09374	-7.03964	5.9898	-0.0268694	0.000826109	-0.0148295	0.0393066	0.956055	-0.664062	0.825731	-0.0609528	0.33963	-0.446211	-6.31836	-4.84285	9.23772	-0.00313356	0.021322	-0.01083	0.690674	0.803711	-0.378418	0.00185392	-0.203955	-0.152617	-0.967009	4.88461	2.04927	9.00065	0.0435275	0.00150953	-0.0100457	-0.804688	-0.0581055	-0.742432	0.184064	0.888604	0.20797	-0.365035	-6.29132	1.97405	-5.83695	0.00650785	0.0191739	-0.0198496	0.905273	0.131592	0.651367	0.149341	-0.0293266	0.121839	-0.980812	0.500639	-2.57416	10.2245	0.0053815	0.00977369	-0.0132811	-0.410889	0.404785	-0.874756	-0.0222669	-0.0494338	0.164064	-0.984959	1.12288	-3.37752	9.83721	-0.00784336	0.0156672	0.00173523	-0.484375	0.303223	-0.903076	-0.00915974	-0.086922	0.308468	-0.947211	1.68176	-5.73956	7.78763	0.00932033	0.0116995	-0.00514506	-0.612793	0.525635	-0.826172	
50	0.323601	0.366749	0.0864292	-0.867933	-7.38603	0.955284	7.64674	0.00323416	-0.00494084	-0.00425525	0.557373	0.16748	-0.974365	0.160651	-0.0353587	0.017943	-0.986215	0.667818	-0.530021	10.0506	-0.0125535	0.0112114	-0.0184509	-0.282959	0.182129	-0.940186	0.159237	0.157293	-0.477387	-0.849708	-1.22489	8.78176	5.01555	-0.0127505	0.0131657	-3.72558e-05	-0.267578	-0.847412	-0.718506	-0.452796	0.482949	-0.384452	-0.643376	-9.49522	0.577909	2.31656	0.00383029	0.00237225	0.00798468	0.929932	-0.422852	-0.375244	0.0868066	0.134201	0.415149	-0.895604	-3.02013	-7.022	5.99175	0.00173393	0.0130032	-0.0133497	0.0349121	0.960449	-0.664062	0.825702	-0.0609992	0.3396	-0.446281	-6.30319	-4.8733	9.14918	0.00570181	0.0161786	-0.0216058	0.690674	0.803711	-0.384766	0.00194502	-0.204074	-0.152841	-0.966949	4.8598	2.08541	9.03454	0.0386528	0.00629209	-0.0111225	-0.809082	-0.0559082	-0.736084	0.184193	0.888557	0.207965	-0.365088	-6.27637	1.95162	-5.85325	-0.00250423	0.00732675	-0.0174101	0.907715	0.125	0.646729	0.149377	-0.0294404	0.121898	-0.980796	0.456256	-2.63396	10.2233	0.00021813	-6.03333e-06	-0.0174306	-0.408691	0.402588	-0.87915	-0.022214	-0.0495346	0.164134	-0.984943	1.07688	-3.39377	9.81515	0.00355182	0.00854476	0.00596818	-0.482178	0.301025	-0.912109	-0.00915158	-0.0868768	0.308525	-0.947196	1.64816	-5.65634	7.76488	-0.00404211	0.0106365	-0.0017691	-0.612793	0.527832	-0.819336	
51	0.323736	0.366635	0.0865861	-0.867915	-7.34752	0.892501	7.6541	-0.00784728	-0.00478883	-0.000137404	0.552979	0.16333	-0.97876	0.160621	-0.0354704	0.0177951	-0.986218	0.641159	-0.446306	10.0933	-0.0100583	0.00360102	-0.0165786	-0.289307	0.177979	-0.928223	0.159244	0.157348	-0.477486	-0.849641	-1.1205	8.89991	5.1316	0.00230184	0.00890553	-0.00084706	-0.265381	-0.856201	-0.718262	-0.452752	0.482946	-0.384493	-0.643385	-9.50012	0.615623	2.31868	0.00164102	0.00390933	0.0020259	0.934326	-0.422852	-0.373047	0.0868675	0.134166	0.415129	-0.895612	-3.02591	-7.11932	6.01219	-0.00163116	0.00553885	-0.011767	0.043457	0.964844	-0.670898	0.825676	-0.0609747	0.339557	-0.446365	-6.3356	-4.92313	9.15484	0.00667745	0.0130104	-0.0176593	0.688721	0.799316	-0.378174	0.00199914	-0.204283	-0.153695	-0.966769	4.90928	2.06147	8.99468	0.0441222	-0.00146046	-0.0116814	-0.806641	-0.0603027	-0.736084	0.184223	0.888432	0.208357	-0.365154	-6.2874	1.9806	-5.81169	-0.00278576	0.0039788	-0.0169053	0.909424	0.133789	0.648926	0.14897	-0.0294955	0.121813	-0.980867	0.506995	-2.59642	10.2363	0.00391451	0.00233924	-0.0176476	-0.41333	0.406982	-0.87915	-0.0222408	-0.0495398	0.163755	-0.985005	1.15171	-3.33583	9.87322	0.0187488	0.0174527	0.00133934	-0.47998	0.30542	-0.912354	-0.00920048	-0.0869144	0.308741	-0.947122	1.68435	-5.72193	7.83972	-0.00382422	0.00190973	-0.00701229	-0.610596	0.527832	-0.819336	
52	0.323683	0.366661	0.0866047	-0.867922	-7.37428	0.890382	7.65742	0.00504635	-0.00369686	-0.00438822	0.561523	0.169922	-0.97876	0.160651	-0.0355029	0.017891	-0.98621	0.705147	-0.488831	10.1845	-0.01471	0.0155607	-0.0170764	-0.282959	0.182373	-0.930664	0.159278	0.15748	-0.477212	-0.849764	-1.16076	8.77288	5.082	-0.0117552	0.0153332	-0.00294275	-0.265137	-0.856201	-0.713623	-0.452529	0.483027	-0.384297	-0.643598	-9.43397	0.611192	2.30223	-0.0147603	-0.00136239	0.00484106	0.932129	-0.425049	-0.373047	0.0870392	0.134091	0.41506	-0.895639	-3.02661	-6.95242	5.99902	0.00153818	0.00522702	-0.0114844	0.0390625	0.962646	-0.666504	0.825614	-0.0610266	0.339679	-0.44638	-6.29196	-4.96526	9.16981	0.00645709	0.0178337	-0.0167979	0.686523	0.799316	-0.380371	0.00211781	-0.204624	-0.154106	-0.966631	4.93268	2.05407	8.94078	0.0345781	0.00401042	-0.0154257	-0.806396	-0.0646973	-0.742432	0.184578	0.888245	0.208348	-0.365436	-6.29279	1.95134	-5.78842	-0.00226181	0.000171924	-0.0172064	0.905029	0.135986	0.653564	0.14908	-0.0296107	0.121997	-0.980824	0.55353	-2.58194	10.1602	-0.00516468	0.00604306	-0.0170842	-0.413574	0.40918	-0.876953	-0.0222886	-0.0496567	0.164337	-0.984901	1.14806	-3.43241	9.85841	-0.0240994	0.00497467	0.00426451	-0.486572	0.300781	-0.907715	-0.00918785	-0.0869289	0.308831	-0.947092	1.69001	-5.76633	7.76059	0.00333969	0.00992902	-0.00336085	-0.608398	0.527832	-0.823975	
53	0.323697	0.366633	0.0866582	-0.867923	-7.33661	0.914842	7.68214	-0.00365263	-0.00252981	-0.000390641	0.550781	0.165283	-0.976562	0.160673	-0.035578	0.017904	-0.986204	0.661557	-0.499589	10.0771	-0.00624479	0.00915701	-0.0169604	-0.282715	0.175781	-0.9375	0.159094	0.157478	-0.477333	-0.849731	-1.19154	8.80341	5.12558	0.0189455	0.0021613	-0.00790079	-0.263184	-0.854004	-0.718262	-0.452548	0.483127	-0.384426	-0.643432	-9.55234	0.600375	2.30935	0.00841047	0.0148921	-0.00555532	0.93457	-0.431641	-0.37085	0.0869471	0.133999	0.415397	-0.895505	-3.01648	-7.05469	6.04258	-0.0143445	0.00379538	-0.0136293	0.0412598	0.962646	-0.661865	0.825635	-0.0610535	0.339726	-0.446301	-6.33007	-4.98069	9.21049	-0.00183547	0.0125883	-0.0139366	0.692871	0.803711	-0.380615	0.00218367	-0.204739	-0.154367	-0.966565	4.89458	2.08957	8.98372	0.0409474	0.00606632	-0.0135723	-0.804443	-0.0625	-0.740234	0.184578	0.888245	0.208348	-0.365436	-6.29279	1.95134	-5.78842	-0.00226181	0.000171924	-0.0172064	0.905029	0.135986	0.653564	0.148916	-0.0295906	0.121912	-0.98086	0.532773	-2.57825	10.2283	0.00676467	0.00547035	-0.0164695	-0.410889	0.400146	-0.883545	-0.0222536	-0.049646	0.164228	-0.984921	1.14461	-3.38211	9.78206	0.0117472	0.0123369	0.00614523	-0.482422	0.30542	-0.909912	-0.00913548	-0.0868639	0.308752	-0.947124	1.68186	-5.66309	7.78456	0.00228179	0.00943419	-0.00267372	-0.604004	0.530029	-0.823975	
54	0.323697	0.366619	0.0866478	-0.86793	-7.40749	0.879172	7.64469	0.00519333	-0.00501004	-0.0036227	0.555176	0.16748	-0.976562	0.160579	-0.0355036	0.0178757	-0.986222	0.670878	-0.441266	10.2147	-0.0281815	0.0253187	-0.0233907	-0.278564	0.180176	-0.935303	0.159138	0.157551	-0.477288	-0.849734	-1.17978	8.85918	5.04794	-0.00914081	0.00975869	-0.000888466	-0.267578	-0.851807	-0.716064	-0.452574	0.483121	-0.384376	-0.643449	-9.49956	0.564008	2.33803	-0.00441199	0.00451276	-0.00120188	0.932129	-0.425049	-0.373047	0.0867752	0.134283	0.415131	-0.895603	-3.103	-6.92914	5.95022	0.000197122	0.0136834	-0.0146613	0.043457	0.964844	-0.670898	0.82561	-0.0610024	0.33958	-0.446466	-6.31878	-4.86065	9.19095	0.00118321	0.0149635	-0.0174277	0.682129	0.801514	-0.376221	0.00251868	-0.205034	-0.155811	-0.96627	4.9226	2.12235	9.00139	0.0606117	-0.000581652	-0.00755257	-0.808594	-0.0668945	-0.740234	0.184453	0.888368	0.208823	-0.364929	-6.26146	1.96988	-5.87745	0.0140729	0.035396	-0.0204111	0.90332	0.129395	0.644287	0.149103	-0.0295886	0.121901	-0.980833	0.50049	-2.61125	10.2387	0.00712915	0.00847994	-0.0116272	-0.410889	0.404785	-0.876953	-0.0222421	-0.049531	0.164058	-0.984955	1.11818	-3.36635	9.88724	-0.000745542	0.00598891	0.00313919	-0.482178	0.301025	-0.907715	-0.00914734	-0.0868865	0.308846	-0.947091	1.66054	-5.77298	7.79948	-0.00366027	0.00584436	-0.00613608	-0.615234	0.532227	-0.828613	
55	0.323585	0.366732	0.0865104	-0.867938	-7.34911	0.943294	7.68165	0.0108686	0.00260751	-0.00368783	0.559814	0.16333	-0.976562	0.160752	-0.0356485	0.0178584	-0.986189	0.686227	-0.5135	10.1213	-0.00358075	-0.00260402	-0.00368551	-0.285156	0.182129	-0.937744	0.159091	0.157494	-0.477388	-0.849698	-1.20067	8.82134	5.1115	0.010353	-0.000663902	-0.000966287	-0.263184	-0.854004	-0.716064	-0.452531	0.483168	-0.384408	-0.643424	-9.52033	0.57763	2.30201	-0.00306719	0.00728297	0.00285331	0.936279	-0.418457	-0.373291	0.086982	0.134149	0.415106	-0.895615	-2.96958	-7.03209	5.94825	0.00909634	-0.00201749	-0.0142395	0.0437012	0.956055	-0.666504	0.825688	-0.0609615	0.339581	-0.446327	-6.27661	-4.82469	9.15214	-0.00410971	0.0157514	-0.00635516	0.688721	0.799316	-0.380371	0.00261019	-0.205309	-0.156258	-0.966139	4.87942	2.11642	8.98461	0.0564821	-0.00701769	-0.0126603	-0.804443	-0.0625	-0.738037	0.184761	0.888377	0.208808	-0.364758	-6.29672	2.00671	-5.86037	-0.000134806	0.00610602	-0.0141932	0.905518	0.127197	0.653809	0.149226	-0.0294877	0.121884	-0.980819	0.451238	-2.57831	10.2183	0.00802535	0.00899713	-0.0135935	-0.411377	0.411621	-0.883789	-0.0222056	-0.0495416	0.164225	-0.984928	1.11748	-3.40108	9.80001	0.00571432	0.0066405	0.0057367	-0.47998	0.30542	-0.914551	-0.00916981	-0.0869012	0.309056	-0.947021	1.65988	-5.68789	7.78699	-0.0115693	0.00593326	-0.00525143	-0.612793	0.523438	-0.821533	
56	0.323735	0.366597	0.0866255	-0.867928	-7.32672	0.892839	7.66864	-0.0100798	-0.00712142	0.000756639	0.550781	0.163086	-0.976562	0.160729	-0.0355845	0.0179225	-0.986194	0.701334	-0.562174	10.0874	-0.0142898	0.0209896	-0.0195167	-0.287354	0.184326	-0.935547	0.158997	0.157595	-0.477365	-0.84971	-1.1786	8.84892	5.14171	0.0013572	0.00447973	-0.0060088	-0.263184	-0.851807	-0.720703	-0.452409	0.483131	-0.384402	-0.643541	-9.47301	0.618398	2.29272	0.00896886	0.00299354	0.00479659	0.936523	-0.422852	-0.375244	0.0870377	0.134066	0.415263	-0.895548	-2.94959	-6.98221	6.06454	-0.0151208	0.00189215	-0.0160103	0.0415039	0.956055	-0.664062	0.825607	-0.0609781	0.339624	-0.446442	-6.31767	-4.91372	9.19669	0.0150984	0.00974724	-0.0252576	0.690674	0.805908	-0.382812	0.00251039	-0.205295	-0.157413	-0.965955	4.95141	2.10402	8.92212	0.0363238	0.00396189	-0.014229	-0.806641	-0.0625	-0.733887	0.184761	0.888377	0.208808	-0.364758	-6.29672	2.00671	-5.86037	-0.000134806	0.00610602	-0.0141932	0.905518	0.127197	0.653809	0.149016	-0.0296703	0.122038	-0.980826	0.521631	-2.58596	10.2166	-0.00399801	-0.00108719	-0.0189009	-0.410889	0.404785	-0.881348	-0.0222935	-0.0494686	0.164383	-0.984903	1.19358	-3.36389	9.85671	-0.00832007	0.0198159	0.000605443	-0.480225	0.307617	-0.909912	-0.00911871	-0.0869793	0.308942	-0.947051	1.7107	-5.74665	7.7593	0.00257574	0.00365204	-0.00136707	-0.610596	0.525635	-0.823975	
57	0.323795	0.366586	0.0867164	-0.867901	-7.3622	0.894868	7.65243	-0.00757995	-0.000859789	0.000854366	0.55957	0.16333	-0.974365	0.160742	-0.0354868	0.0180819	-0.986193	0.60508	-0.473461	10.1179	-0.0165965	0.0120249	-0.0160682	-0.2854	0.184326	-0.940186	0.158894	0.157543	-0.477357	-0.849743	-1.12739	8.80097	5.07248	-0.00295501	0.000317079	-0.00155397	-0.263184	-0.854004	-0.718262	-0.452346	0.483208	-0.384401	-0.643529	-9.48068	0.639499	2.29571	-0.00777873	0.00762486	-0.00185465	0.932129	-0.422852	-0.373047	0.0869413	0.13422	0.415091	-0.895615	-3.04757	-7.03207	5.96177	0.0119261	0.00920397	-0.0177555	0.0415039	0.958252	-0.668701	0.825596	-0.0609718	0.339585	-0.446492	-6.29413	-4.89578	9.13889	0.00674714	0.0129912	-0.0183678	0.692871	0.801514	-0.382568	0.00238701	-0.205348	-0.156975	-0.966015	4.91466	2.14002	8.93006	-0.00602661	0.0146846	-0.0200782	-0.811035	-0.0603027	-0.738281	0.184421	0.888293	0.208908	-0.365077	-6.24932	1.95165	-5.74507	0.0158247	0.00774757	-0.0209486	0.907959	0.120605	0.653809	0.149064	-0.0297642	0.121998	-0.980821	0.564252	-2.60674	10.2094	0.00818943	-6.95939e-05	-0.0166899	-0.411377	0.413818	-0.881592	-0.0222823	-0.0494856	0.164343	-0.984909	1.10752	-3.4291	9.94381	0.00656044	0.00984706	0.00358436	-0.47998	0.30542	-0.909912	-0.00909884	-0.0869533	0.308993	-0.947037	1.69389	-5.73269	7.76514	-0.00346577	0.00881073	-0.00141941	-0.610352	0.523438	-0.819336	
58	0.323902	0.366607	0.0867646	-0.867847	-7.40481	0.890578	7.6372	0.00110341	-0.00556714	0.00176297	0.557373	0.16748	-0.976562	0.160719	-0.035527	0.0181289	-0.986194	0.611277	-0.455213	10.1058	-0.0173001	0.0170498	-0.0219658	-0.283203	0.186523	-0.935547	0.158638	0.157488	-0.477729	-0.849592	-1.18751	8.81595	5.0963	0.0254939	-0.00704537	-0.00519978	-0.263184	-0.854004	-0.716064	-0.452377	0.483375	-0.384229	-0.643484	-9.60963	0.673638	2.33549	-0.0135844	-0.00016311	-0.00521761	0.932129	-0.422852	-0.373047	0.0869365	0.134164	0.415134	-0.895604	-3.03076	-6.95109	6.0029	-0.00428262	0.00458567	-0.018461	0.0437012	0.960449	-0.668701	0.825719	-0.0608882	0.339449	-0.44638	-6.36391	-4.92304	9.22664	0.0208242	0.00571545	-0.00759712	0.690918	0.799316	-0.380371	0.00218539	-0.20514	-0.156221	-0.966182	4.91893	2.10223	8.99969	-0.0110338	0.022423	-0.0185877	-0.812988	-0.0646973	-0.740234	0.183893	0.888493	0.20899	-0.364811	-6.25891	1.9676	-5.78285	0.0203099	0.0246808	-0.0171007	0.901367	0.125	0.64917	0.149177	-0.0295239	0.121971	-0.980815	0.528036	-2.60936	10.2258	0.0159938	0.0226001	-0.0117625	-0.411133	0.406982	-0.87915	-0.0222197	-0.049579	0.164419	-0.984893	1.15236	-3.38345	9.83921	-0.00433594	0.0143975	0.0052588	-0.47998	0.303223	-0.907715	-0.00914934	-0.0869667	0.309109	-0.946998	1.6864	-5.77486	7.83234	0.00148313	0.00412585	-0.00451791	-0.605957	0.525635	-0.821533	
59	0.323878	0.366574	0.0866644	-0.86788	-7.34525	0.939018	7.66785	0.0060069	-0.00309741	-0.000500354	0.552979	0.16748	-0.983154	0.160747	-0.0356076	0.0180727	-0.986188	0.672102	-0.482894	10.1355	-0.00868862	0.0111096	-0.0171797	-0.282959	0.179932	-0.937744	0.158874	0.157728	-0.477453	-0.849658	-1.20875	8.81241	5.05856	-0.0145797	0.0214249	9.1147e-05	-0.267334	-0.854004	-0.713867	-0.452338	0.483432	-0.384087	-0.643553	-9.47705	0.529506	2.29128	-0.00983188	0.00157902	-0.0028693	0.934326	-0.422852	-0.373047	0.0868835	0.134239	0.415267	-0.895536	-3.07831	-6.95123	5.94073	-0.00385805	0.00484178	-0.016621	0.0415039	0.958252	-0.666504	0.825756	-0.0608088	0.339356	-0.446394	-6.28325	-4.84779	9.165	0.0127715	0.0105315	-0.0130659	0.686523	0.797119	-0.382568	0.00218539	-0.20514	-0.156221	-0.966182	4.91893	2.10223	8.99969	-0.0110338	0.022423	-0.0185877	-0.812988	-0.0646973	-0.740234	0.183678	0.88857	0.208912	-0.364775	-6.29922	1.97412	-5.81152	0.0208988	0.0154959	-0.0217127	0.89917	0.125	0.646729	0.149268	-0.0293185	0.121965	-0.980808	0.4697	-2.58575	10.2856	0.00950504	0.0234866	-0.0102783	-0.410889	0.404785	-0.881348	-0.0222068	-0.0495124	0.164405	-0.984899	1.12155	-3.39638	9.78367	0.00129153	0.0079752	0.0024312	-0.482422	0.30542	-0.907715	-0.00913725	-0.0869481	0.309007	-0.947033	1.6857	-5.68911	7.74659	0.0057479	0.00963515	-0.0056032	-0.612793	0.527832	-0.823975	
60	0.324001	0.366469	0.0867354	-0.867871	-7.35651	0.925172	7.67282	-0.00846387	-0.00639967	0.00133317	0.557373	0.165283	-0.972168	0.160744	-0.035549	0.0181446	-0.986189	0.630179	-0.537904	10.0977	-0.0151131	0.020453	-0.0176654	-0.282959	0.182129	-0.937744	0.158734	0.157681	-0.477584	-0.84962	-1.16959	8.84018	5.14092	0.0211973	8.93686e-05	-0.00477942	-0.265381	-0.851807	-0.713867	-0.452453	0.483431	-0.384278	-0.643358	-9.51522	0.579867	2.3139	0.0137127	0.0119217	-0.00265666	0.938721	-0.425049	-0.375244	0.0870473	0.134117	0.415645	-0.895363	-2.97081	-7.15575	6.0245	-0.0125428	0.00741079	-0.0152862	0.0393066	0.958252	-0.666504	0.825671	-0.060866	0.33958	-0.446372	-6.31824	-4.90795	9.17809	-0.000176839	0.0136333	-0.0144692	0.688965	0.795166	-0.382324	0.00186541	-0.204654	-0.155249	-0.966443	4.91752	2.08264	8.96637	-0.019426	0.0211835	-0.0149129	-0.808594	-0.0646973	-0.731689	0.18308	0.888719	0.2088	-0.364778	-6.27772	1.96807	-5.82768	0.0321037	0.0240908	-0.0229716	0.905273	0.129395	0.644287	0.149242	-0.0292372	0.122041	-0.980805	0.481953	-2.59615	10.2336	0.00863857	-0.000711856	-0.0162258	-0.410889	0.402588	-0.881348	-0.0221725	-0.0496011	0.164267	-0.984918	1.14292	-3.38589	9.85402	0.0128972	0.0152706	0.00460115	-0.482422	0.30542	-0.907715	-0.0091662	-0.0869853	0.308959	-0.947045	1.69017	-5.75425	7.81261	7.12929e-05	0.00659208	-0.0047051	-0.610596	0.525635	-0.826172	
61	0.324116	0.366458	0.0868517	-0.867821	-7.36428	0.912618	7.64694	-0.00184047	-0.00128654	-0.000521249	0.55957	0.167725	-0.97876	0.16049	-0.0353203	0.0183952	-0.986234	0.671134	-0.505263	10.1471	-0.0102187	0.0161189	-0.0186801	-0.280762	0.182129	-0.935303	0.158964	0.15774	-0.477212	-0.849775	-1.2022	8.78674	5.01449	-0.0213292	0.0127577	-0.00234207	-0.265381	-0.849609	-0.71167	-0.45258	0.483286	-0.384371	-0.643323	-9.48023	0.61381	2.32402	0.00354047	0.00160871	-0.00103406	0.929932	-0.425293	-0.373047	0.0868127	0.134374	0.41512	-0.89559	-3.12527	-6.91014	5.92297	0.0199215	0.0209543	-0.0152904	0.0415039	0.958252	-0.677734	0.825658	-0.0607777	0.339345	-0.446587	-6.31373	-4.88909	9.17563	0.017776	0.00602835	-0.0195395	0.690918	0.799316	-0.378174	0.00168584	-0.204381	-0.154179	-0.966672	4.92629	2.05975	9.01487	-0.0210151	0.0299813	-0.0151473	-0.813232	-0.0603027	-0.738281	0.182997	0.888733	0.208781	-0.364797	-6.25908	1.94729	-5.79538	0.0133251	0.0147432	-0.0207254	0.90332	0.129395	0.646729	0.149269	-0.0293153	0.122009	-0.980802	0.523848	-2.59422	10.2275	0.00760501	0.00155969	-0.0180659	-0.408691	0.407227	-0.885742	-0.0221732	-0.0495091	0.164646	-0.98486	1.14703	-3.378	9.87224	-0.0218934	0.0146737	0.00416612	-0.484375	0.301025	-0.907715	-0.00907815	-0.0869709	0.308883	-0.947072	1.68699	-5.72805	7.78254	0.0106462	0.00262739	-0.000235075	-0.610596	0.527832	-0.821533	
62	0.324198	0.366371	0.0868788	-0.867825	-7.35525	0.905317	7.64914	-0.00104592	-0.00754885	-0.000672584	0.555176	0.16333	-0.974365	0.160579	-0.0352245	0.0184605	-0.986222	0.624785	-0.530976	10.0778	-0.0134122	0.0189812	-0.0165854	-0.278564	0.180176	-0.935303	0.158918	0.157632	-0.477502	-0.84964	-1.07699	8.90454	5.19483	0.011127	0.00421576	0.00205829	-0.265381	-0.851807	-0.718506	-0.452759	0.483315	-0.384445	-0.643131	-9.52454	0.675298	2.34678	0.0104092	0.00469016	-0.00648471	0.934326	-0.422852	-0.377441	0.0871276	0.134093	0.415667	-0.895348	-2.92813	-7.11116	6.09269	-0.0157883	-0.00369118	-0.0141226	0.0393066	0.958252	-0.661865	0.825802	-0.0607938	0.339419	-0.446263	-6.30448	-4.95381	9.20019	-0.00440183	0.0150785	-0.00173418	0.690918	0.799316	-0.380371	0.00154998	-0.204145	-0.153504	-0.966829	4.89017	2.05013	8.96493	-0.00470035	0.0234787	-0.0183284	-0.804443	-0.0603027	-0.736084	0.182654	0.888899	0.208875	-0.36451	-6.25993	1.95967	-5.7903	0.0178505	0.0312633	-0.0189563	0.90332	0.127197	0.651367	0.149239	-0.0290468	0.121805	-0.98084	0.504207	-2.57241	10.2225	0.0161058	0.0132108	-0.00965552	-0.41333	0.406982	-0.876953	-0.0221573	-0.0495079	0.164689	-0.984853	1.10231	-3.43388	9.78355	0.00558163	0.00645786	0.00472307	-0.486572	0.302979	-0.907715	-0.00905231	-0.0870581	0.308829	-0.947082	1.70073	-5.68956	7.76467	0.00547479	0.000432771	-0.00456787	-0.610596	0.527832	-0.823975	
63	0.324302	0.36641	0.0869927	-0.867758	-7.37525	0.910673	7.65105	-0.00596965	0.00139126	0.00394097	0.557373	0.165283	-0.968018	0.160635	-0.0350896	0.0182974	-0.98622	0.648313	-0.49957	10.1756	-0.00535011	0.025201	-0.0166187	-0.282959	0.182129	-0.933105	0.158996	0.157734	-0.477222	-0.849764	-1.1761	8.89279	5.12986	-0.0208466	0.0174459	-0.00533608	-0.265381	-0.854004	-0.716064	-0.452741	0.483318	-0.38435	-0.643199	-9.4873	0.485666	2.29651	0.00895133	0.00699229	-0.000495325	0.934326	-0.422852	-0.375244	0.0870713	0.134252	0.415518	-0.895399	-3.0292	-7.12815	6.03609	0.0135873	0.0189048	-0.0123875	0.0371094	0.958252	-0.670898	0.825822	-0.0607938	0.339153	-0.446428	-6.27939	-4.80932	9.18135	0.00627127	0.00799614	-0.0208073	0.688721	0.797119	-0.380371	0.00146612	-0.204039	-0.15306	-0.966922	4.93218	2.04984	8.97607	-0.0180717	0.0240066	-0.0162837	-0.811035	-0.0603027	-0.733887	0.182801	0.888823	0.208911	-0.364601	-6.27556	1.95517	-5.86201	-0.00760012	0.000251656	-0.018013	0.905518	0.129395	0.656006	0.149368	-0.0290553	0.121786	-0.980823	0.449838	-2.58735	10.212	0.00905997	0.00380464	-0.0163495	-0.408691	0.404785	-0.881348	-0.0221669	-0.0493723	0.164475	-0.984895	1.14049	-3.37891	9.80134	0.0110511	0.0177911	0.00433482	-0.482422	0.30542	-0.909912	-0.00922243	-0.0869383	0.309218	-0.946964	1.67062	-5.77009	7.78586	0.00058006	0.00756271	-0.00295196	-0.605957	0.523438	-0.821533	
64	0.324388	0.366375	0.0870537	-0.867735	-7.3817	0.930563	7.65011	-0.00486751	-0.00395615	0.000412116	0.550781	0.16748	-0.976562	0.160677	-0.0350687	0.0183087	-0.986214	0.638961	-0.500494	10.0949	-0.00774872	0.0203937	-0.0163315	-0.285156	0.177979	-0.932861	0.159056	0.157734	-0.477329	-0.849693	-1.18464	8.8237	5.15101	-0.00578006	0.00991507	-0.00598667	-0.267578	-0.851807	-0.7229	-0.452711	0.483272	-0.384437	-0.643202	-9.52387	0.593092	2.303	-0.00675933	0.00281691	0.00421317	0.932129	-0.422852	-0.377441	0.0871826	0.134113	0.415707	-0.895322	-3.07365	-7.06365	6.02617	-0.0195592	-0.00316794	-0.0159195	0.0368652	0.962646	-0.670898	0.825814	-0.0608613	0.339331	-0.446298	-6.28685	-4.90866	9.23341	-0.00773057	0.018594	-0.00979063	0.686768	0.795166	-0.384521	0.00105967	-0.203381	-0.152174	-0.967201	4.87606	2.03178	8.97729	-0.012907	0.0306928	-0.0198212	-0.806885	-0.0581055	-0.738281	0.182919	0.888714	0.208809	-0.364867	-6.26303	1.97334	-5.81286	0.00780842	0.000292367	-0.0177322	0.898926	0.129395	0.651367	0.149397	-0.0292185	0.121942	-0.980794	0.501892	-2.56579	10.2243	-0.00383702	0.00259774	-0.0180441	-0.408936	0.409424	-0.87915	-0.0221438	-0.0493866	0.164461	-0.984898	1.08579	-3.40912	9.8433	-0.00244954	0.00541517	0.00575936	-0.477783	0.301025	-0.907471	-0.00916906	-0.0870371	0.308966	-0.947038	1.66309	-5.72875	7.77686	0.0148821	0.00423469	-0.00402285	-0.617432	0.530029	-0.819336	
65	0.324468	0.366332	0.0870479	-0.867724	-7.30773	0.864494	7.66456	0.00474844	-0.00128845	-0.000634135	0.559814	0.161133	-0.980713	0.160727	-0.0350641	0.0181484	-0.986209	0.624875	-0.475632	10.0612	-0.0068856	0.0193905	-0.0175974	-0.281006	0.184326	-0.933105	0.159133	0.157821	-0.477256	-0.849704	-1.20853	8.87716	5.00041	-0.00232363	0.0151816	-0.000995239	-0.265381	-0.849609	-0.718506	-0.452771	0.483224	-0.384569	-0.643117	-9.48845	0.588673	2.29698	0.0211166	0.0129103	-0.00225022	0.932129	-0.422852	-0.377441	0.0871767	0.134093	0.415634	-0.895359	-3.05615	-7.08781	6.0238	0.0134188	0.00668272	-0.0139543	0.0437012	0.958252	-0.668701	0.825801	-0.060867	0.339285	-0.446356	-6.32349	-4.91728	9.18359	0.0112717	0.0134455	-0.0208589	0.686523	0.801514	-0.382568	0.000885657	-0.203023	-0.15135	-0.967406	4.89504	2.04152	9.00597	-0.0151662	0.0300626	-0.0179837	-0.802246	-0.0603027	-0.744629	0.182854	0.888646	0.208993	-0.364959	-6.30482	1.96503	-5.79744	0.00309911	0.00493954	-0.0185537	0.901123	0.127197	0.64917	0.14948	-0.029296	0.121951	-0.980778	0.507998	-2.63527	10.2616	0.00508712	0.00131032	-0.0136035	-0.411133	0.406982	-0.87915	-0.0221365	-0.0493646	0.164395	-0.98491	1.1543	-3.36589	9.79578	0.0262017	0.0199391	0.00251456	-0.482422	0.309814	-0.910156	-0.00916919	-0.0870994	0.309083	-0.946994	1.70047	-5.67825	7.79912	-0.0202443	0.00910223	-0.00571325	-0.610596	0.527832	-0.821533	
66	0.324426	0.366447	0.0869689	-0.867699	-7.35888	0.896501	7.6448	0.0106345	0.00357178	-0.00113954	0.552979	0.165283	-0.972412	0.160806	-0.0351264	0.0180499	-0.986196	0.663566	-0.515851	10.1285	-0.00259289	0.00870159	-0.0121346	-0.285156	0.182129	-0.937744	0.15903	0.157633	-0.47742	-0.849666	-1.0859	8.86649	5.16781	0.0131864	-0.000833474	-0.00145183	-0.267578	-0.854004	-0.7229	-0.45286	0.483175	-0.384682	-0.643023	-9.54106	0.686623	2.34023	0.0171025	0.0082148	-0.00223182	0.932129	-0.427246	-0.375244	0.0871623	0.134133	0.415447	-0.895441	-3.03585	-6.96568	5.94787	0.0160747	0.00936514	-0.0146079	0.0415039	0.956055	-0.664062	0.82581	-0.0609517	0.339259	-0.446348	-6.25604	-4.89447	9.1619	-0.00131137	0.00989576	-0.0162009	0.686279	0.803711	-0.38916	0.000885657	-0.203023	-0.15135	-0.967406	4.89504	2.04152	9.00597	-0.0151662	0.0300626	-0.0179837	-0.802246	-0.0603027	-0.744629	0.183012	0.88857	0.208987	-0.365069	-6.27446	1.93993	-5.79311	-0.00401911	0.00181756	-0.0174832	0.905273	0.129395	0.648926	0.14933	-0.0292363	0.121775	-0.980824	0.544311	-2.58984	10.2278	0.0105293	0.00625607	-0.0158182	-0.406494	0.407227	-0.881348	-0.0221588	-0.0493056	0.164372	-0.984916	1.12664	-3.39553	9.89515	0.0051288	0.0164423	0.00193504	-0.477539	0.298828	-0.909912	-0.00922824	-0.0870777	0.309289	-0.946928	1.68899	-5.76898	7.78057	-0.016791	0.010033	-0.00654781	-0.606201	0.530029	-0.819336	
67	0.324341	0.366542	0.0867551	-0.867711	-7.34455	0.973323	7.66329	0.00873766	-0.00440301	-0.00307792	0.55957	0.16333	-0.972168	0.160997	-0.0349904	0.0180539	-0.986169	0.623225	-0.498527	10.1067	-0.00980118	0.0184703	-0.00975317	-0.283203	0.184326	-0.935547	0.159072	0.157769	-0.477361	-0.849665	-1.18498	8.92399	5.03621	0.00440175	0.00432754	-0.00247976	-0.265381	-0.851807	-0.71167	-0.452898	0.48305	-0.384529	-0.643183	-9.50709	0.596035	2.31482	0.00523864	-0.000242404	-0.000818113	0.934326	-0.425049	-0.373047	0.0872719	0.134049	0.415776	-0.89529	-2.96541	-7.11085	5.98047	-0.0244276	0.00386796	-0.0152373	0.0415039	0.956055	-0.664062	0.825938	-0.060962	0.339256	-0.446111	-6.28152	-4.89171	9.16434	-0.00281363	0.0169586	-0.00304559	0.690918	0.799316	-0.380371	0.000573987	-0.202341	-0.150634	-0.967661	4.90462	2.00214	8.99494	-0.0224425	0.0341575	-0.0181535	-0.806885	-0.0559082	-0.744629	0.18297	0.888611	0.208982	-0.364992	-6.30464	1.96212	-5.79017	0.00667426	0.0163432	-0.0175242	0.903076	0.131592	0.653564	0.149485	-0.0291735	0.121864	-0.980792	0.505641	-2.59224	10.2247	0.00484389	0.0122099	-0.0133626	-0.408691	0.402588	-0.876953	-0.022138	-0.0493806	0.164731	-0.984853	1.17275	-3.39061	9.7558	-0.0222336	0.014943	0.00349375	-0.481934	0.296631	-0.905273	-0.00921241	-0.0871339	0.309151	-0.946968	1.68846	-5.73756	7.79119	0.00896433	0.00491159	-0.00373391	-0.610352	0.523438	-0.819336	
68	0.324384	0.366539	0.0869432	-0.867678	-7.37895	0.934449	7.65229	-0.0102513	-0.000779544	-0.00305486	0.555176	0.165527	-0.97876	0.161037	-0.0350696	0.0176784	-0.986167	0.611498	-0.55921	10.1786	0.00926349	0.00506666	-0.0176586	-0.287354	0.182129	-0.935303	0.158996	0.157781	-0.47742	-0.849644	-1.15148	8.80696	5.13275	0.00833168	0.00835833	-0.00302844	-0.260986	-0.851807	-0.716064	-0.453069	0.483024	-0.384631	-0.64302	-9.50527	0.611595	2.33823	0.0210589	0.00737405	-0.00563892	0.932129	-0.425049	-0.373047	0.0869664	0.134127	0.41577	-0.895311	-3.03459	-7.03674	6.00668	0.00221101	0.0116406	-0.0175016	0.0393066	0.960449	-0.664062	0.825983	-0.0608716	0.339245	-0.44605	-6.32256	-4.88174	9.24215	0.0136657	0.0137516	-0.0127997	0.690674	0.801514	-0.378418	0.000194301	-0.201233	-0.149373	-0.968087	4.84757	1.98232	9.05986	-0.0285025	0.0418382	-0.0170985	-0.804688	-0.0537109	-0.738281	0.18298	0.888598	0.209129	-0.364933	-6.27204	1.97699	-5.81466	6.80721e-05	0.0101753	-0.0145639	0.907471	0.129395	0.651367	0.149532	-0.0291291	0.121982	-0.980771	0.488636	-2.59084	10.2274	0.00511623	0.0106124	-0.0166278	-0.40625	0.404785	-0.881348	-0.0221518	-0.049174	0.164458	-0.984909	1.0731	-3.40136	9.90941	0.0120774	0.00975988	0.00402873	-0.480225	0.307617	-0.909912	-0.00917354	-0.0871417	0.309355	-0.946901	1.66966	-5.70263	7.73788	-0.00973393	0.00719351	-0.00193668	-0.613037	0.530029	-0.823975	
69	0.324394	0.366487	0.0871664	-0.867674	-7.32071	0.877397	7.66524	-0.0038333	-0.00103986	-0.00709777	0.550781	0.16748	-0.976562	0.161126	-0.0348873	0.0179913	-0.986153	0.597687	-0.489637	10.0988	-0.015246	0.0076668	-0.00994663	-0.280762	0.182129	-0.935303	0.158977	0.157816	-0.477478	-0.849609	-1.22081	8.88832	5.0636	0.0164476	-0.00138531	0.00158561	-0.267334	-0.858398	-0.718262	-0.453082	0.483015	-0.384554	-0.643065	-9.50999	0.53997	2.29754	0.00701601	0.00439278	-0.00161638	0.934326	-0.425049	-0.375244	0.0869757	0.134156	0.415738	-0.895321	-3.12641	-7.07038	5.97167	0.0159213	0.00313145	-0.0147152	0.0393066	0.958252	-0.664062	0.825985	-0.0608981	0.339353	-0.445958	-6.35294	-4.8205	9.22821	-0.0051682	0.0197272	-0.0109952	0.690918	0.795166	-0.382324	-1.4535e-05	-0.200796	-0.148376	-0.968331	4.83233	1.97163	9.03935	-0.0217934	0.0244062	-0.0171057	-0.807129	-0.0495605	-0.742676	0.182896	0.888618	0.209151	-0.364915	-6.28733	1.98154	-5.79357	-0.00300695	0.00118819	-0.0215112	0.900879	0.131592	0.651367	0.149649	-0.0291761	0.122076	-0.98074	0.44059	-2.60933	10.245	-0.000876257	0.0056632	-0.0141321	-0.410889	0.402588	-0.881348	-0.0221552	-0.0492021	0.164915	-0.984831	1.14734	-3.38842	9.86237	-0.0190673	0.0230469	0.00285552	-0.477783	0.303223	-0.909912	-0.00923167	-0.0871255	0.30943	-0.946877	1.67375	-5.74098	7.81107	0.00405099	0.00776634	-0.0058785	-0.61084	0.532227	-0.823975	
70	0.324507	0.366388	0.0871948	-0.867671	-7.37652	0.885917	7.6506	-0.00397522	-0.0118396	0.00500998	0.55957	0.165527	-0.974365	0.161256	-0.0347635	0.0180335	-0.986135	0.712836	-0.535317	10.0711	-0.00370735	0.0351269	-0.0195812	-0.278564	0.180176	-0.926025	0.158871	0.157785	-0.47738	-0.84969	-1.1451	8.83013	5.18076	0.00611354	0.0115492	-0.00707064	-0.263184	-0.854004	-0.716064	-0.453132	0.482886	-0.38473	-0.64302	-9.5174	0.630392	2.35583	0.0143726	0.000131359	0.00567858	0.934326	-0.422852	-0.373047	0.0870656	0.134022	0.416029	-0.895197	-2.96197	-7.08005	6.04992	-0.039118	0.00332259	-0.0117464	0.0393066	0.958252	-0.664062	0.825969	-0.0610167	0.339548	-0.445824	-6.34597	-5.00197	9.178	-0.000843478	0.0187964	-0.0143665	0.686523	0.797119	-0.382568	-1.4535e-05	-0.200796	-0.148376	-0.968331	4.83233	1.97163	9.03935	-0.0217934	0.0244062	-0.0171057	-0.807129	-0.0495605	-0.742676	0.183028	0.888482	0.209095	-0.365211	-6.3395	1.91259	-5.81492	0.0094461	0.00572959	-0.0182546	0.905273	0.129395	0.651367	0.149727	-0.0293087	0.122129	-0.980718	0.534466	-2.62161	10.2202	0.00256632	0.00134309	-0.0171293	-0.413574	0.411621	-0.876953	-0.0221367	-0.0491621	0.164589	-0.984888	1.15933	-3.40183	9.87565	0.0143105	0.00546701	0.00461901	-0.482178	0.303223	-0.905273	-0.00916025	-0.0872612	0.309479	-0.94685	1.73968	-5.76553	7.70098	0.00523629	-0.00034734	-0.00299372	-0.612793	0.525635	-0.817139	
71	0.324639	0.366406	0.0871329	-0.86762	-7.32534	0.910608	7.65574	0.000559272	0.00283268	0.00502746	0.552979	0.165283	-0.980957	0.161242	-0.0345356	0.0180591	-0.986145	0.606774	-0.497054	10.1002	-0.00899658	0.0335015	-0.018676	-0.2854	0.184326	-0.928467	0.158784	0.157781	-0.477433	-0.849677	-1.13724	8.93214	5.10783	0.00740524	0.00140915	-0.00624746	-0.265381	-0.851807	-0.713867	-0.453113	0.482936	-0.384774	-0.64297	-9.51026	0.605263	2.33955	-0.00114802	0.0105098	-0.00327106	0.932129	-0.427246	-0.375244	0.0870541	0.134132	0.415898	-0.895242	-3.0138	-7.17121	6.02187	0.0112006	0.0145391	-0.0114238	0.0415039	0.960449	-0.666504	0.825958	-0.0608615	0.339363	-0.446006	-6.28945	-4.86849	9.15505	0.00981959	0.00909534	-0.0171961	0.688965	0.795166	-0.378174	-0.000627535	-0.199534	-0.147278	-0.96876	4.84532	1.93482	9.01175	-0.0244526	0.0412233	-0.0195616	-0.800781	-0.0493164	-0.749023	0.183042	0.888431	0.209051	-0.365353	-6.27755	1.93354	-5.78557	0.00832093	0.00211993	-0.019054	0.905273	0.131592	0.651367	0.149815	-0.0294551	0.12205	-0.98071	0.575257	-2.61113	10.2448	0.0092964	0.00563677	-0.0145052	-0.41333	0.402588	-0.885742	-0.0221596	-0.0492711	0.164803	-0.984846	1.13214	-3.40501	9.89492	-0.0142737	0.00273427	0.000954151	-0.486816	0.307373	-0.912354	-0.00910394	-0.0871726	0.309376	-0.946892	1.68748	-5.72067	7.83102	0.00963128	0.00945226	-0.00214363	-0.617432	0.527832	-0.817139	
72	0.324679	0.366584	0.0869655	-0.867546	-7.40925	0.897684	7.65398	0.0137286	-0.00202344	0.00190663	0.562012	0.16333	-0.97876	0.161326	-0.0346545	0.0179399	-0.986129	0.614658	-0.473601	10.1122	-0.00706225	0.0128326	-0.0160803	-0.280762	0.182373	-0.930664	0.158775	0.157841	-0.477305	-0.849739	-1.15998	8.79896	5.05907	0.00990254	0.0128672	-0.00500786	-0.269531	-0.858398	-0.711426	-0.453151	0.483125	-0.384704	-0.642843	-9.54315	0.571354	2.30571	-0.000825244	0.0122758	-0.00609461	0.936768	-0.427246	-0.37085	0.0869863	0.13408	0.415806	-0.895299	-3.06251	-6.99165	5.94121	-0.00756713	0.000614233	-0.0173568	0.0393066	0.960449	-0.664062	0.826076	-0.0609006	0.339337	-0.445802	-6.35639	-4.93888	9.22595	0.010619	0.0105816	-0.00777213	0.690918	0.799316	-0.386719	-0.000815145	-0.199178	-0.146675	-0.968924	4.82351	1.90443	9.08392	0.00513884	0.022806	-0.0187128	-0.798828	-0.045166	-0.744873	0.182944	0.888456	0.209017	-0.365363	-6.25734	1.94815	-5.76592	0.0152445	0.015863	-0.0203501	0.903076	0.131592	0.646729	0.14974	-0.0290693	0.121971	-0.980743	0.495346	-2.61047	10.2332	0.00836281	0.0192368	-0.0109954	-0.408691	0.404785	-0.883545	-0.0222031	-0.0491905	0.164678	-0.98487	1.10601	-3.43308	9.8392	0.0226192	0.0144635	0.00173507	-0.482422	0.30542	-0.914551	-0.00912634	-0.0871541	0.30949	-0.946856	1.65424	-5.78293	7.72891	-0.00222331	0.00688958	-0.00429686	-0.617188	0.523438	-0.8125	
73	0.32464	0.366604	0.0868843	-0.86756	-7.34026	1.00054	7.65569	-0.00221407	-0.000538334	-0.00123465	0.557129	0.169922	-0.980957	0.161416	-0.0345814	0.0178364	-0.986119	0.626529	-0.515196	10.1341	-0.00353357	0.0175188	-0.0144173	-0.278564	0.182129	-0.935303	0.158788	0.157897	-0.477298	-0.84973	-1.1793	8.94279	5.13964	-0.00716619	0.0127693	0.00154889	-0.265381	-0.845215	-0.716309	-0.453072	0.483137	-0.384618	-0.64294	-9.46584	0.54743	2.2961	-0.00572304	0.00386973	0.00363378	0.936279	-0.420654	-0.375244	0.0871075	0.134214	0.415653	-0.895339	-3.07298	-7.00601	5.97031	0.020421	0.0123513	-0.00686707	0.0351562	0.956055	-0.666504	0.826132	-0.0608297	0.339297	-0.44574	-6.29516	-4.81542	9.18495	0.000614273	0.0175332	-0.00879246	0.690918	0.799316	-0.386719	-0.000889176	-0.199081	-0.146435	-0.96898	4.8399	1.93366	9.04715	-0.00168757	0.0227599	-0.0187538	-0.807129	-0.0515137	-0.746826	0.182733	0.888624	0.20916	-0.364976	-6.29936	2.0128	-5.8055	0.00970736	0.0118463	-0.021111	0.90332	0.125	0.64209	0.14985	-0.0289366	0.122056	-0.980719	0.459219	-2.57453	10.2149	0.000744516	0.00920534	-0.0138742	-0.408691	0.407227	-0.883545	-0.0221492	-0.0491366	0.164629	-0.984882	1.12377	-3.33955	9.84856	0.00761088	0.0200043	0.00416174	-0.47998	0.301025	-0.907715	-0.00913454	-0.0871869	0.309201	-0.946947	1.69574	-5.689	7.747	0.0163805	0.00775806	-0.00363156	-0.612793	0.525635	-0.821533	
74	0.324715	0.366644	0.0870392	-0.8675	-7.35312	0.957961	7.66205	-0.01053	0.00495207	0.0010884	0.562012	0.161133	-0.976562	0.161544	-0.0345869	0.0179281	-0.986096	0.623313	-0.501144	10.1199	-0.0176432	0.0172805	-0.0127116	-0.278564	0.177979	-0.935303	0.158734	0.157958	-0.477361	-0.849694	-1.19897	8.78401	5.06432	0.0189018	0.00368686	-0.00160289	-0.267334	-0.854004	-0.713867	-0.453089	0.483126	-0.384725	-0.642874	-9.50306	0.560976	2.30439	0.0116114	0.0107221	0.00151937	0.929688	-0.420898	-0.373047	0.0873065	0.134035	0.415965	-0.895201	-3.00449	-7.07134	5.95934	-0.0146385	-0.00152598	-0.0146418	0.0458984	0.958252	-0.664062	0.82614	-0.0609255	0.339435	-0.445606	-6.2786	-4.84523	9.16726	-0.0115787	0.0199304	-0.00786477	0.690918	0.797119	-0.382568	-0.00115193	-0.19839	-0.145849	-0.96921	4.82217	1.94507	9.03054	-0.0169158	0.0346807	-0.0174002	-0.804932	-0.0493164	-0.749023	0.182637	0.888625	0.209125	-0.365044	-6.29522	1.96979	-5.82111	0.0154422	0.0108634	-0.0208826	0.903076	0.131592	0.646729	0.149912	-0.0290448	0.12203	-0.98071	0.494782	-2.58044	10.2193	0.00710275	-0.00144302	-0.0155481	-0.411133	0.406982	-0.87915	-0.0221317	-0.0491741	0.164461	-0.984908	1.13294	-3.40625	9.8215	0.0164755	0.00850705	0.00383148	-0.484619	0.30542	-0.909912	-0.00916483	-0.0871629	0.309154	-0.946965	1.67744	-5.70215	7.80698	0.00450142	0.0104184	-0.00587233	-0.612793	0.527832	-0.821533	
75	0.324828	0.366606	0.0871994	-0.867458	-7.35152	0.856409	7.65583	-0.00197459	-0.00325178	-0.00101239	0.557373	0.165527	-0.97876	0.161562	-0.0344672	0.0178238	-0.986099	0.589197	-0.492192	10.0574	-0.000421484	0.0214642	-0.0200743	-0.285156	0.177734	-0.9375	0.158878	0.157979	-0.477166	-0.849772	-1.1663	8.80556	5.11788	-0.0167852	0.0112619	0.0038757	-0.260986	-0.854004	-0.718262	-0.453245	0.482965	-0.384798	-0.642841	-9.47306	0.630874	2.28865	0.0102385	-0.00157501	-0.000608496	0.931885	-0.420898	-0.37085	0.0872332	0.134018	0.415994	-0.895198	-3.02807	-7.10337	6.0061	-0.00332541	0.0152637	-0.0156198	0.0371094	0.958252	-0.666504	0.826125	-0.0610143	0.33946	-0.445602	-6.35853	-4.99338	9.23887	0.0126305	0.00853303	-0.018389	0.693115	0.799316	-0.378174	-0.00141458	-0.197574	-0.14453	-0.969574	4.80175	1.90267	9.10496	-0.0371082	0.0494382	-0.0198405	-0.790039	-0.0471191	-0.74707	0.182172	0.888712	0.209297	-0.364964	-6.26736	1.92996	-5.76878	0.0171936	0.0165621	-0.0214116	0.898682	0.131592	0.644287	0.149981	-0.0292313	0.122215	-0.98067	0.558111	-2.61511	10.2089	0.002491	0.00463965	-0.0176549	-0.40625	0.402588	-0.881348	-0.0221343	-0.0491636	0.164738	-0.984863	1.16917	-3.36971	9.87877	-0.00750105	0.0196384	0.00373568	-0.477783	0.30542	-0.914551	-0.0091283	-0.0872273	0.30927	-0.946921	1.69041	-5.75251	7.75051	-0.00544247	0.00260171	-0.00181271	-0.617676	0.532227	-0.821777	
76	0.324863	0.366738	0.0871532	-0.867394	-7.38637	0.892413	7.6638	0.00454769	-0.000280919	0.00258049	0.555176	0.16333	-0.976562	0.161615	-0.0344004	0.017805	-0.986093	0.651378	-0.525972	10.0924	-0.00398166	0.0183098	-0.0150379	-0.278809	0.184326	-0.935547	0.158749	0.157924	-0.477214	-0.84978	-1.17534	8.8886	5.10591	0.0188454	-0.00206528	-0.00884833	-0.263184	-0.851807	-0.716064	-0.453402	0.482945	-0.384885	-0.642693	-9.54619	0.649205	2.32915	0.00156116	0.00938203	-0.00644874	0.934326	-0.422852	-0.377441	0.0873645	0.133992	0.416099	-0.89514	-3.00924	-7.04139	6.01787	-0.0181247	-0.00218824	-0.0117737	0.0478516	0.964844	-0.664062	0.826184	-0.0609722	0.339562	-0.445421	-6.32	-4.89836	9.18516	-0.00663598	0.0198979	-0.00417025	0.693359	0.792969	-0.380127	-0.00156215	-0.197112	-0.143593	-0.969807	4.82464	1.87297	9.14826	-0.0104898	0.0298729	-0.0158339	-0.802979	-0.0471191	-0.751221	0.182319	0.888696	0.209256	-0.364955	-6.30798	1.95715	-5.81711	0.00501472	0.0130294	-0.0183584	0.905273	0.133789	0.646729	0.150065	-0.0290601	0.122145	-0.980672	0.518344	-2.58249	10.2464	0.00180066	0.0162976	-0.0122517	-0.408936	0.409424	-0.87915	-0.022124	-0.0490259	0.164743	-0.984869	1.10722	-3.38159	9.80623	-0.00470225	0.0163265	0.00586168	-0.482422	0.30542	-0.905518	-0.00910118	-0.087187	0.309197	-0.946949	1.69334	-5.73546	7.77712	0.00601603	0.00907426	-0.00436879	-0.612793	0.527832	-0.819336	
77	0.324849	0.366802	0.0871285	-0.867374	-7.36091	0.977027	7.65093	-0.00273568	0.00152377	-0.00271633	0.554688	0.17627	-0.97876	0.16161	-0.0342936	0.0177795	-0.986098	0.599275	-0.483174	10.1259	-0.0113898	0.0142988	-0.0184453	-0.280762	0.182129	-0.935303	0.158742	0.157911	-0.477036	-0.849884	-1.21649	8.77498	5.07032	-0.0299779	0.00789963	-0.000984616	-0.265137	-0.856201	-0.711426	-0.45345	0.482943	-0.384778	-0.642724	-9.47788	0.577553	2.3132	-0.000651133	-0.000461694	-0.00270378	0.938721	-0.425049	-0.375244	0.0872454	0.134249	0.415871	-0.895219	-3.11174	-6.98965	5.9194	0.0164789	0.0205452	-0.0185769	0.0415039	0.958252	-0.657227	0.826235	-0.0609428	0.33947	-0.445401	-6.29142	-4.79931	9.18865	0.00350136	0.00928078	-0.0148108	0.684326	0.801514	-0.376221	-0.00159657	-0.197028	-0.143379	-0.969855	4.77292	1.87618	9.07128	0.000851178	0.0220389	-0.0158878	-0.796631	-0.045166	-0.74707	0.182215	0.88876	0.209281	-0.364835	-6.26388	1.92458	-5.83021	0.0114983	0.0249312	-0.0189551	0.898926	0.129395	0.651367	0.150225	-0.0289607	0.122214	-0.980641	0.480627	-2.59967	10.1729	0.00435845	0.00959219	-0.0132333	-0.410889	0.404785	-0.876953	-0.0220895	-0.0491407	0.164765	-0.98486	1.10411	-3.39544	9.80751	0.00518961	0.0058201	0.00519748	-0.484619	0.307373	-0.914551	-0.00912401	-0.0871092	0.309369	-0.9469	1.6806	-5.76532	7.75345	-0.0101668	0.0121785	-0.00352894	-0.610596	0.527832	-0.817139	
78	0.324973	0.366769	0.0872454	-0.86733	-7.37342	0.861702	7.638	-0.00107999	-0.00606229	0.00118448	0.555176	0.16333	-0.976562	0.161708	-0.0342067	0.0177652	-0.986086	0.619898	-0.472877	10.0809	-0.0094174	0.0131609	-0.0147322	-0.278564	0.179932	-0.937744	0.15859	0.157915	-0.477531	-0.849633	-1.1795	8.94968	5.1523	0.0313121	0.00106886	0.00117487	-0.263184	-0.854004	-0.720703	-0.453548	0.482989	-0.385012	-0.64248	-9.56297	0.562714	2.32713	0.0156068	0.0169475	-0.00268718	0.93457	-0.427246	-0.37085	0.0872708	0.134084	0.41616	-0.895107	-3.01496	-7.15624	6.02416	-0.0105008	0.00163462	-0.01548	0.0390625	0.964844	-0.661865	0.826288	-0.0610875	0.339583	-0.445196	-6.35592	-4.88896	9.19993	-0.00351088	0.0168873	-0.010819	0.690918	0.797119	-0.384521	-0.00181088	-0.196526	-0.142958	-0.970019	4.79007	1.85432	9.10781	0.000569208	0.0234952	-0.0165489	-0.796875	-0.0385742	-0.749268	0.182375	0.88877	0.209229	-0.364762	-6.29011	1.9658	-5.85226	-0.00308154	0.00556036	-0.0145915	0.903076	0.131592	0.646729	0.150233	-0.0290856	0.122233	-0.980634	0.459789	-2.61899	10.2655	0.00385675	0.00304255	-0.0214641	-0.411133	0.409424	-0.881348	-0.022095	-0.0489947	0.1648	-0.984862	1.09877	-3.40272	9.86624	-0.016206	0.0174546	0.00217533	-0.47583	0.312012	-0.907959	-0.00907726	-0.0871939	0.309305	-0.946913	1.65707	-5.76479	7.80973	0.0103333	-0.000358469	-0.00309333	-0.613037	0.530029	-0.821777	
79	0.324986	0.366847	0.0872375	-0.867293	-7.36467	0.885295	7.65474	0.0026635	0.00166858	0.001132	0.557129	0.169678	-0.976562	0.161745	-0.0341752	0.0177455	-0.986081	0.59661	-0.487156	10.1652	-0.00806927	0.017032	-0.014782	-0.280762	0.182129	-0.940186	0.158703	0.157942	-0.477375	-0.849694	-1.16192	8.93664	5.15611	-0.0113755	0.012727	0.00236466	-0.258789	-0.854004	-0.718262	-0.453558	0.48294	-0.385064	-0.64248	-9.56669	0.616031	2.2935	0.00873555	0.00286333	0.00142604	0.932129	-0.425049	-0.375244	0.0872283	0.134096	0.41596	-0.895202	-3.04968	-7.05236	6.00221	0.0176123	0.00670902	-0.0156572	0.0415039	0.958252	-0.664062	0.826305	-0.0611502	0.339559	-0.445174	-6.29758	-4.86549	9.21397	0.00356001	0.013007	-0.0108288	0.691162	0.795166	-0.380371	-0.00190775	-0.196223	-0.142403	-0.970162	4.78877	1.83515	9.15204	0.000537391	0.018361	-0.0132195	-0.796875	-0.0385742	-0.751465	0.182625	0.888654	0.209198	-0.364937	-6.2946	1.98251	-5.82535	-0.00919121	-0.0058534	-0.0146413	0.900879	0.131592	0.648926	0.150296	-0.0292051	0.122412	-0.980598	0.526849	-2.56283	10.2462	-0.00153152	0.00353958	-0.0154154	-0.408447	0.397949	-0.876709	-0.022095	-0.0489947	0.1648	-0.984862	1.09877	-3.40272	9.86624	-0.016206	0.0174546	0.00217533	-0.47583	0.312012	-0.907959	-0.00906889	-0.0872253	0.309339	-0.9469	1.68865	-5.73255	7.79273	-0.00884912	0.00859305	-0.0046525	-0.608643	0.534424	-0.823975	
80	0.324963	0.367006	0.0871313	-0.867245	-7.36481	0.931517	7.66785	0.00754567	0.00234535	0.0009897	0.561768	0.16333	-0.972168	0.161849	-0.0339541	0.0175308	-0.986075	0.62468	-0.461927	10.1105	-0.00398822	0.0255087	-0.0118579	-0.281006	0.184326	-0.937744	0.158613	0.158133	-0.477469	-0.849623	-1.1725	8.83453	5.01444	0.0259125	0.00484672	-0.00854529	-0.258789	-0.856201	-0.718262	-0.453513	0.483045	-0.384795	-0.642593	-9.48315	0.547919	2.30535	-0.0111536	0.00214579	-0.00503577	0.932129	-0.423096	-0.37085	0.0872062	0.134092	0.415978	-0.895197	-3.02893	-7.07541	5.99446	-0.00635594	0.00442343	-0.0158078	0.0393066	0.956055	-0.657227	0.826331	-0.0612281	0.339639	-0.445055	-6.31939	-4.89562	9.19041	-0.00755595	0.0160564	-0.00822933	0.690918	0.797119	-0.382568	-0.00188123	-0.196318	-0.142214	-0.97017	4.7888	1.89477	9.04743	0.00444497	0.0143069	-0.0130431	-0.790527	-0.0385742	-0.749268	0.182712	0.888584	0.209235	-0.365041	-6.27189	1.93886	-5.80448	0.00835852	0.0153601	-0.0227378	0.90332	0.129395	0.653809	0.150365	-0.0292467	0.122527	-0.980572	0.508493	-2.59056	10.2188	-0.00397352	0.00553208	-0.0133913	-0.411133	0.409424	-0.883545	-0.0220477	-0.0488885	0.164361	-0.984941	1.13923	-3.36379	9.89883	-0.0012262	0.00685741	0.0038756	-0.473389	0.303223	-0.905273	-0.00911808	-0.0870604	0.30938	-0.946901	1.67986	-5.71916	7.77716	0.00216975	0.011811	-0.00232003	-0.610352	0.523438	-0.828369	
81	0.324978	0.367027	0.0871294	-0.867231	-7.38073	0.943298	7.6479	0.00179805	-0.00207932	-0.000516578	0.564209	0.16333	-0.976562	0.161906	-0.0338698	0.0174555	-0.98607	0.630362	-0.481673	10.0665	-0.0053166	0.024784	-0.0189652	-0.281006	0.184326	-0.930664	0.158582	0.158146	-0.477553	-0.849579	-1.16798	8.89127	5.13278	0.0102913	0.00435297	-0.00216687	-0.263184	-0.856201	-0.718262	-0.453523	0.483046	-0.384693	-0.642647	-9.52782	0.617024	2.30855	-0.00332572	-0.000841139	-0.00280562	0.936279	-0.420654	-0.377441	0.0871481	0.13412	0.415888	-0.89524	-3.02365	-6.9418	5.9715	0.00283839	0.0103492	-0.0176331	0.0371094	0.958252	-0.670898	0.826307	-0.0612751	0.339715	-0.445035	-6.26622	-4.88612	9.18376	0.00266208	0.0161404	-0.0154795	0.695557	0.792969	-0.382324	-0.00193789	-0.196269	-0.141899	-0.970227	4.7977	1.87481	9.08649	-0.0073441	0.0191061	-0.0155631	-0.79248	-0.0429688	-0.753418	0.182867	0.88845	0.209233	-0.365291	-6.29872	1.94262	-5.75403	0.00141212	0.000979538	-0.0186674	0.907471	0.133789	0.648926	0.150437	-0.0293149	0.122683	-0.98054	0.527733	-2.58353	10.2158	-0.000793843	0.00503868	-0.0183162	-0.411133	0.40918	-0.876953	-0.0220863	-0.0488445	0.164631	-0.984897	1.1497	-3.50101	9.86963	0.00761901	0.0109846	0.00421846	-0.482178	0.303223	-0.912109	-0.00913067	-0.0870747	0.309403	-0.946892	1.69539	-5.72758	7.81315	-0.00180929	0.00636474	-0.00490998	-0.612793	0.527832	-0.819336	
82	0.325032	0.367083	0.0872011	-0.867179	-7.37355	0.892625	7.63474	0.00138137	0.00190462	-0.00216149	0.555176	0.16748	-0.974365	0.161911	-0.0338696	0.0173966	-0.98607	0.584549	-0.473309	10.0781	-0.00367449	0.00893719	-0.0180649	-0.27832	0.175781	-0.935059	0.15847	0.158319	-0.477531	-0.84958	-1.17399	8.89124	5.05503	0.0185072	-0.00667762	-0.0111288	-0.263184	-0.849609	-0.720703	-0.453708	0.482894	-0.384637	-0.642664	-9.45585	0.605084	2.27364	0.00797625	0.00048857	-0.00533501	0.929932	-0.425049	-0.375244	0.0870748	0.134025	0.416097	-0.895164	-2.99901	-7.03374	6.02124	0.00134222	0.0112297	-0.0243201	0.0390625	0.962646	-0.661865	0.826312	-0.0613196	0.339955	-0.444836	-6.2843	-4.92423	9.17737	-0.00454747	0.0199379	-0.00851936	0.693359	0.792969	-0.382324	-0.00195004	-0.196003	-0.14131	-0.970366	4.7613	1.84299	9.08738	-0.0108723	0.029202	-0.0120611	-0.794678	-0.0407715	-0.753662	0.182817	0.888446	0.209242	-0.365322	-6.26158	1.95357	-5.77227	0.0108409	0.0210065	-0.0238298	0.905518	0.129395	0.653809	0.150494	-0.0293793	0.122766	-0.980519	0.530662	-2.57	10.2353	-0.000694512	0.00367201	-0.0150127	-0.41333	0.406982	-0.881348	-0.0220445	-0.0488892	0.164638	-0.984895	1.14003	-3.34195	9.8851	-0.0241735	0.0140482	0.00395925	-0.47998	0.301025	-0.907715	-0.00908193	-0.0871234	0.309374	-0.946898	1.68014	-5.73986	7.78808	0.000769386	0.00941414	-0.0013809	-0.608154	0.523438	-0.819336	
83	0.324972	0.367084	0.0871435	-0.867207	-7.35159	0.930373	7.64831	0.00306053	-0.00541936	-0.00289534	0.557617	0.161133	-0.976562	0.161863	-0.0337947	0.0173944	-0.986081	0.61105	-0.491627	10.0198	-0.0232053	0.0390257	-0.0224621	-0.276367	0.177979	-0.9375	0.158345	0.15828	-0.477542	-0.849605	-1.2018	8.88676	5.11194	0.00165373	0.00893443	-0.0056981	-0.267578	-0.854004	-0.718262	-0.453764	0.482972	-0.384277	-0.642781	-9.56081	0.534509	2.36368	0.00117113	-0.0006909	-0.00868998	0.932129	-0.422852	-0.375244	0.0870376	0.134005	0.416399	-0.89503	-3.02452	-7.07928	6.02264	-0.0109501	0.0101015	-0.0153318	0.0390625	0.962646	-0.668701	0.826375	-0.0612803	0.340043	-0.444656	-6.3514	-4.92422	9.15995	0.00489658	0.0173119	-0.00742767	0.690918	0.797119	-0.382568	-0.00190325	-0.19579	-0.140924	-0.970465	4.78488	1.8476	9.18469	0.00330583	0.0221701	-0.0143264	-0.798828	-0.0407715	-0.749268	0.182307	0.888757	0.209245	-0.364818	-6.2972	1.94385	-5.8369	0.0198352	0.0463895	-0.0172615	0.898438	0.138184	0.646484	0.15055	-0.029232	0.12281	-0.980509	0.482631	-2.65752	10.2615	0.0033891	0.0143036	-0.00903979	-0.40625	0.404785	-0.876953	-0.0220281	-0.0487134	0.164761	-0.984884	1.10552	-3.42685	9.81185	0.0190084	0.0162913	0.00761172	-0.47998	0.30542	-0.914551	-0.00912795	-0.0871415	0.309684	-0.946794	1.66575	-5.77778	7.77016	-0.0150094	0.00420216	-0.00658252	-0.617432	0.527832	-0.823975	
84	0.324856	0.367098	0.0871998	-0.867239	-7.37043	0.980537	7.67375	-0.0025209	-0.00276548	-0.00565608	0.55957	0.16333	-0.974365	0.161926	-0.0341177	0.0176544	-0.986055	0.667797	-0.503619	10.202	-0.0251139	0.00556645	-0.0146633	-0.282959	0.179932	-0.939941	0.158325	0.158125	-0.477439	-0.849695	-1.24158	8.71028	5.15645	0.00552102	-0.00305913	0.00162598	-0.260986	-0.852051	-0.713867	-0.453773	0.48293	-0.384266	-0.642813	-9.54823	0.57044	2.38219	0.0134824	0.0062551	0.00343269	0.934082	-0.420654	-0.375244	0.0869268	0.133908	0.416453	-0.89503	-3.04723	-7.06883	5.97713	-0.00194861	0.00264369	-0.0137064	0.0393066	0.958252	-0.659668	0.826351	-0.0613217	0.340237	-0.444547	-6.32444	-4.87539	9.17542	-0.00820184	0.0228091	-0.0111924	0.688721	0.799316	-0.380371	-0.00178021	-0.19578	-0.141006	-0.970456	4.81365	1.81125	9.12615	0.0263965	0.0135598	-0.01196	-0.794678	-0.0407715	-0.753662	0.182429	0.888672	0.20927	-0.36495	-6.31529	1.91764	-5.85583	0.00208764	0.00267066	-0.0213715	0.907471	0.133789	0.656006	0.150682	-0.0291379	0.122774	-0.980496	0.471611	-2.61215	10.2246	0.013748	0.00660793	-0.0157647	-0.408691	0.406982	-0.874756	-0.022016	-0.0488663	0.164986	-0.984839	1.14356	-3.39403	9.88236	-0.0158835	-0.000100196	0.000812783	-0.480225	0.307617	-0.909912	-0.00899569	-0.0872475	0.309611	-0.946809	1.72788	-5.72248	7.74107	0.000238891	0.00916673	-0.00103757	-0.610596	0.525635	-0.814697	
