40	Head	00b4120a												Throax	00b411e8												LUpArm	00b411d9												LFoArm	00b41148												RUpArm	00b411db												RFoArm	00b41204												Waist	00b411f7												Lthigh	00b411f4												Lshank	00b4111b												Rthigh	00b411c8												Rshank	00b411ee												
PacketCount	q0	q1	q2	q3	accX	accY	accZ	gyrX	gyrY	gyrZ	magX	magY	magZ	q0	q1	q2	q3	accX	accY	accZ	gyrX	gyrY	gyrZ	magX	magY	magZ	q0	q1	q2	q3	accX	accY	accZ	gyrX	gyrY	gyrZ	magX	magY	magZ	q0	q1	q2	q3	accX	accY	accZ	gyrX	gyrY	gyrZ	magX	magY	magZ	q0	q1	q2	q3	accX	accY	accZ	gyrX	gyrY	gyrZ	magX	magY	magZ	q0	q1	q2	q3	accX	accY	accZ	gyrX	gyrY	gyrZ	magX	magY	magZ	q0	q1	q2	q3	accX	accY	accZ	gyrX	gyrY	gyrZ	magX	magY	magZ	q0	q1	q2	q3	accX	accY	accZ	gyrX	gyrY	gyrZ	magX	magY	magZ	q0	q1	q2	q3	accX	accY	accZ	gyrX	gyrY	gyrZ	magX	magY	magZ	q0	q1	q2	q3	accX	accY	accZ	gyrX	gyrY	gyrZ	magX	magY	magZ	q0	q1	q2	q3	accX	accY	accZ	gyrX	gyrY	gyrZ	magX	magY	magZ	
0	0.308687	0.377344	0.0700958	-0.870294	-7.45555	1.17116	7.47675	-0.00149244	-0.00375896	0.00200033	0.5625	0.104736	-0.98877	0.1957	-0.0669862	0.0204979	-0.978159	1.21729	-0.699369	10.119	-0.000380662	0.0237101	-0.0189436	-0.338623	0.215088	-0.905762	0.125541	0.162235	-0.284706	-0.936409	-2.44368	5.96286	8.37627	0.0270156	-0.000253758	-0.00352671	-0.160156	-0.540527	-0.993896	-0.529466	0.232977	-0.288796	-0.762879	-6.3905	1.93138	7.13546	0.017205	0.0153474	-0.00612759	0.56665	-0.543701	-0.75415	-0.020169	0.0373246	0.540117	-0.84052	-0.443621	-8.72276	4.03624	0.00944475	0.0120703	-0.0153894	-0.273682	1.09912	-0.493164	0.832848	0.0371857	0.441291	-0.332029	-8.68269	-2.50886	6.92418	0.0089595	0.00711264	-0.0122762	0.968262	0.563965	-0.228027	0.238565	-0.0994667	-0.0421271	-0.9651	2.22037	0.377921	10.19	0.0410396	0.0749257	-0.0146712	-0.552246	0.123291	-0.953125	0.0599271	-0.0276955	-0.0875531	-0.99397	0.65461	1.75818	10.9046	-0.00559509	0.0234193	-0.0158336	-0.513428	-0.172119	-1.00854	0.0974314	-0.0579872	-0.0888099	-0.989574	1.31695	1.74202	10.334	0.00791872	0.0037333	-0.0153303	-0.580811	-0.205322	-0.995605	-0.185782	0.900548	0.0380867	-0.391214	-6.41614	-3.28144	-5.81025	0.00250352	0.0109542	0.00470818	0.980225	0.45874	0.43457	0.142874	-0.0478618	0.0554663	-0.987026	0.913083	-1.26672	9.61677	0.00659053	0.0158636	-0.00151482	-0.470947	0.259521	-0.99707	
1	0.308698	0.377417	0.0700657	-0.87026	-7.48202	1.16457	7.49838	-9.54319e-05	-0.00157372	0.00178112	0.5625	0.106934	-0.984619	0.195694	-0.0670167	0.0204447	-0.978159	1.27246	-0.641164	10.0594	-0.012373	0.0284984	-0.0196694	-0.334229	0.215088	-0.908203	0.125545	0.162322	-0.284792	-0.936367	-2.43609	6.04392	8.34531	0.00232318	0.00965428	-0.00152416	-0.164795	-0.533936	-0.998535	-0.529538	0.233113	-0.288808	-0.762783	-6.49582	1.92978	7.13859	0.00147343	0.0146638	-0.0109263	0.571045	-0.543701	-0.751953	-0.0200239	0.0371635	0.540515	-0.840275	-0.449837	-8.90754	4.10451	-0.0258013	-0.00482455	-0.0123991	-0.273926	1.10132	-0.497803	0.832854	0.0370522	0.441527	-0.331716	-8.75799	-2.53821	7.01181	-0.00708914	0.0243355	-0.00690673	0.968506	0.559814	-0.232178	0.238553	-0.0980164	-0.0424222	-0.965239	2.08448	0.368021	10.3756	0.0407119	0.0403045	-0.0201279	-0.550049	0.123291	-0.953125	0.0599817	-0.027616	-0.0877294	-0.993953	0.608997	1.77719	10.947	0.018808	0.0126861	-0.0128405	-0.513672	-0.169922	-1.01318	0.0974853	-0.0579903	-0.0892283	-0.989531	1.32655	1.86694	10.367	0.0218087	0.006324	-0.0141644	-0.581055	-0.200684	-1.00024	-0.185689	0.900607	0.0381346	-0.391117	-6.44737	-3.31753	-5.85677	-0.00403059	0.0180525	0.000639779	0.982422	0.456543	0.432373	0.14304	-0.0478673	0.0556815	-0.986989	0.828604	-1.25083	9.71714	-0.00884028	0.00820363	0.00343624	-0.46875	0.257324	-0.99707	
2	0.308693	0.377453	0.0700454	-0.870248	-7.47567	1.20127	7.49654	0.00234679	-0.00140501	0.000426041	0.564697	0.106934	-0.984619	0.19568	-0.0671336	0.0203359	-0.978156	1.17481	-0.682992	10.0023	-0.00160192	0.0139419	-0.0190147	-0.336426	0.212891	-0.912842	0.125596	0.162215	-0.284806	-0.936375	-2.46473	6.15953	8.44456	-0.00982296	0.0114227	0.00109723	-0.164551	-0.540527	-0.996094	-0.52968	0.233188	-0.289	-0.762588	-6.51743	1.90771	7.19801	-0.00401995	0.003485	-0.000275347	0.56665	-0.543701	-0.760742	-0.0202129	0.0373094	0.540345	-0.840373	-0.402916	-8.86784	4.01688	0.016302	0.0161911	-0.021085	-0.278076	1.09912	-0.497803	0.83287	0.0370767	0.441473	-0.331744	-8.72659	-2.52394	6.90022	0.00178213	0.0114301	-0.0181214	0.966064	0.562012	-0.22998	0.238561	-0.0972518	-0.0425387	-0.965309	2.14319	0.371777	10.2632	0.0315499	0.0590927	-0.0184556	-0.549805	0.118896	-0.955322	0.0599279	-0.0276252	-0.0877939	-0.993951	0.614387	1.81076	10.9458	-0.00693475	0.0146219	-0.0173424	-0.515625	-0.169922	-1.00635	0.0974333	-0.0579982	-0.0891663	-0.989541	1.32455	1.8359	10.4043	-0.00367251	0.00671249	-0.0183565	-0.581055	-0.202881	-1	-0.185862	0.900638	0.0380946	-0.390968	-6.42794	-3.37328	-5.8796	0.0111335	0.00733146	0.00287349	0.987061	0.45459	0.432373	0.143101	-0.0480636	0.0556413	-0.986973	0.860913	-1.23766	9.70325	-0.00540878	0.00148109	-0.00379774	-0.470947	0.255127	-0.994873	
3	0.308722	0.377442	0.0700416	-0.870243	-7.44935	1.15532	7.49514	0.00226503	-0.00346313	0.000274534	0.5625	0.109131	-0.98877	0.195623	-0.0672514	0.020306	-0.97816	1.24034	-0.684507	10.1015	-0.0125834	0.024486	-0.0186867	-0.336182	0.208496	-0.905518	0.12558	0.162173	-0.284711	-0.936413	-2.48098	5.92732	8.29209	0.014836	-0.00321574	0.00141483	-0.164551	-0.536133	-1.00098	-0.529721	0.233129	-0.289229	-0.762491	-6.44165	1.86215	7.06498	0.0169068	0.0118871	-0.00198797	0.568848	-0.543701	-0.75415	-0.0202772	0.0374168	0.540103	-0.840522	-0.439005	-8.83963	4.06486	0.022222	0.0174362	-0.0151017	-0.267334	1.10132	-0.497803	0.832878	0.0370088	0.441492	-0.331707	-8.73897	-2.50326	6.97767	0.00645797	0.0127749	-0.0124397	0.970459	0.562012	-0.232178	0.238614	-0.0962614	-0.042847	-0.965381	2.07989	0.43126	10.3714	0.0342841	0.0362449	-0.0163543	-0.545654	0.119141	-0.955322	0.0599439	-0.0275447	-0.0878534	-0.993947	0.608386	1.77734	10.9917	0.0132455	0.0171168	-0.016002	-0.513672	-0.165527	-1.00635	0.0974552	-0.0579886	-0.0890964	-0.989546	1.33196	1.80201	10.3374	0.00783387	0.0068365	-0.0151232	-0.578857	-0.198242	-1.00024	-0.185947	0.900573	0.0380757	-0.391078	-6.43194	-3.3269	-5.87026	0.0121261	0.000577183	0.000875963	0.987061	0.456787	0.43457	0.143058	-0.0483073	0.055666	-0.986966	0.902945	-1.25869	9.6772	0.0046233	0.00154987	-0.00481962	-0.471191	0.261719	-0.994873	
4	0.308613	0.377503	0.0698918	-0.870267	-7.46252	1.20808	7.51412	0.0100932	-0.00476993	0.00062788	0.5625	0.106934	-0.986816	0.195597	-0.0672006	0.0203048	-0.978168	1.21028	-0.665905	10.0053	-0.0094447	0.0191356	-0.0192737	-0.336426	0.210693	-0.9104	0.125431	0.162074	-0.285045	-0.936348	-2.46867	6.09083	8.37175	0.0301245	-0.00695501	-0.00466983	-0.162354	-0.540527	-0.996094	-0.529907	0.233194	-0.289423	-0.762268	-6.49117	1.93441	7.08611	0.0154509	0.0121576	-0.00669616	0.575439	-0.541504	-0.752197	-0.0204113	0.0373886	0.540407	-0.840325	-0.43503	-8.78879	4.07696	-0.0144901	0.00572232	-0.0144857	-0.280518	1.10132	-0.495361	0.832877	0.0369019	0.441527	-0.331674	-8.68127	-2.52301	6.93543	-5.08479e-05	0.0188398	-0.0156237	0.970459	0.559814	-0.232178	0.238669	-0.0958253	-0.0431493	-0.965398	2.11517	0.380687	10.2452	0.0413912	0.0361275	-0.0165521	-0.54126	0.116943	-0.961426	0.0599379	-0.0276306	-0.0877601	-0.993953	0.644076	1.7601	10.9377	-0.00291902	0.00805938	-0.0157829	-0.509033	-0.174316	-1.00635	0.0975032	-0.0579349	-0.0891992	-0.989535	1.3251	1.81898	10.3454	0.00646259	0.0102146	-0.0141716	-0.576172	-0.205078	-1	-0.186086	0.900644	0.0379656	-0.390859	-6.43451	-3.33061	-5.85878	0.0130963	0.0132455	-0.00153419	0.986816	0.458984	0.425293	0.143131	-0.0484646	0.0558162	-0.986939	0.893456	-1.22731	9.689	-0.0148716	0.00385059	-3.90269e-05	-0.482178	0.254883	-0.994873	
5	0.308636	0.377489	0.0698782	-0.870266	-7.44799	1.19627	7.50956	8.77513e-05	-0.0050222	0.00190813	0.557861	0.108887	-0.986816	0.195577	-0.0672974	0.0201793	-0.978168	1.312	-0.692366	10.0706	-0.0103527	0.010642	-0.0172537	-0.338379	0.206299	-0.912598	0.125407	0.162059	-0.284944	-0.936385	-2.40287	6.05253	8.43083	-0.0165937	0.00964956	0.000265814	-0.162354	-0.540527	-0.996094	-0.529854	0.233189	-0.289323	-0.762345	-6.51537	1.91956	7.16325	-0.00441484	0.00187638	0.00402056	0.568604	-0.541504	-0.756592	-0.0203424	0.0372965	0.540165	-0.840486	-0.447244	-8.82653	4.0188	0.0308241	0.00192984	-0.0117366	-0.27832	1.10132	-0.495361	0.832908	0.0367938	0.441596	-0.331517	-8.75765	-2.54584	6.96445	-0.0115329	0.0163064	-0.00827291	0.972656	0.559814	-0.234131	0.23878	-0.0945697	-0.0433328	-0.965486	2.08371	0.407299	10.3544	0.0316465	0.0631801	-0.0148246	-0.547852	0.119141	-0.955322	0.0599494	-0.0275613	-0.0880452	-0.993929	0.626438	1.83612	10.967	0.03835	0.0256634	-0.0131869	-0.509277	-0.172119	-1.01099	0.0974899	-0.0578941	-0.0892043	-0.989539	1.33549	1.80885	10.3755	0.00535837	0.00983843	-0.0163059	-0.583252	-0.205322	-1.00244	-0.186157	0.900608	0.0379983	-0.390906	-6.43856	-3.30482	-5.87177	0.00813036	0.00556252	-0.00325025	0.984863	0.456787	0.429932	0.143182	-0.0485318	0.0558647	-0.986926	0.891802	-1.2653	9.68052	-0.0048834	0.00543851	0.000638966	-0.470947	0.259521	-0.994873	
6	0.308596	0.377483	0.0700629	-0.870268	-7.44756	1.16467	7.50868	-0.0104641	-0.00248286	-9.56344e-05	0.5625	0.106934	-0.982422	0.195632	-0.0672757	0.0200908	-0.978161	1.24559	-0.680111	10.0019	-0.00375074	0.0043976	-0.0186735	-0.336182	0.208496	-0.90332	0.125413	0.16215	-0.284512	-0.9365	-2.47419	6.05402	8.37112	-0.0159253	0.00807022	-0.00444213	-0.166748	-0.53833	-1.00073	-0.529944	0.233149	-0.289468	-0.762239	-6.4163	1.89702	7.07833	0.0140136	0.00703975	-0.00622312	0.571045	-0.545898	-0.751953	-0.0203304	0.037247	0.540538	-0.840249	-0.422681	-8.8594	4.03353	-0.0313039	0.00610156	-0.0191316	-0.282471	1.09912	-0.497803	0.83285	0.0368061	0.441803	-0.331386	-8.73101	-2.55075	6.94411	-0.00610054	0.0247992	-0.00822664	0.968506	0.559814	-0.227783	0.238888	-0.0936814	-0.0435909	-0.965534	2.02005	0.451421	10.3589	0.037161	0.0354736	-0.0138153	-0.543457	0.116943	-0.963623	0.0599504	-0.0275413	-0.0879465	-0.993938	0.651947	1.75976	10.9469	-0.00598078	0.0147112	-0.0168601	-0.513672	-0.169922	-1.00635	0.0974982	-0.0579537	-0.0891826	-0.989536	1.33665	1.83601	10.3586	0.00469375	0.00447427	-0.0152895	-0.580811	-0.205322	-1	-0.1864	0.900548	0.0380261	-0.390926	-6.44175	-3.29138	-5.83538	0.0053269	0.0103176	-0.00352337	0.980225	0.456543	0.427734	0.143183	-0.0486579	0.0562048	-0.9869	0.906108	-1.27334	9.67694	-0.0121914	0.00438053	-0.00247494	-0.475586	0.263916	-0.994873	
7	0.308577	0.377549	0.07009	-0.870244	-7.48172	1.12877	7.50672	0.000440376	0.00224115	-0.00135348	0.564941	0.102539	-0.982422	0.195514	-0.0672871	0.0201515	-0.978182	1.22107	-0.644464	10.0273	-0.0347745	0.0228872	-0.020928	-0.338623	0.212646	-0.912842	0.125293	0.161963	-0.284772	-0.936469	-2.48776	5.90114	8.35398	0.0274512	-0.00261001	0.00124803	-0.162354	-0.540527	-0.991699	-0.530105	0.233178	-0.289553	-0.762087	-6.44854	1.86601	7.12501	0.0129975	0.0101064	-0.0145253	0.573242	-0.543701	-0.751953	-0.0202894	0.0371114	0.540488	-0.840288	-0.373515	-8.83457	4.12544	0.0159159	0.00582967	-0.0167752	-0.276123	1.10132	-0.502441	0.832877	0.036834	0.441811	-0.331303	-8.7612	-2.57713	6.94227	0.00185557	0.0153907	-0.00813671	0.968262	0.563965	-0.234375	0.238897	-0.0930186	-0.0437205	-0.96559	2.11229	0.41545	10.2411	0.0404834	0.064146	-0.0192543	-0.54126	0.116943	-0.96582	0.0599302	-0.0276093	-0.0879548	-0.993937	0.623692	1.80745	10.8728	0.0129217	0.0193737	-0.0148728	-0.517822	-0.169922	-1.01318	0.0974954	-0.0579578	-0.0891836	-0.989536	1.3103	1.8255	10.3362	0.00477146	0.00673509	-0.0149521	-0.578613	-0.202881	-0.995605	-0.186421	0.900577	0.0380024	-0.390851	-6.43561	-3.34685	-5.85313	0.00592695	0.0170348	0.00153119	0.986816	0.458984	0.43457	0.143176	-0.0486888	0.0561332	-0.986904	0.898276	-1.28591	9.69294	0.00538353	0.0067844	-0.00507231	-0.470947	0.259521	-0.99707	
8	0.308436	0.377612	0.0699781	-0.870276	-7.46118	1.21086	7.50354	0.0062065	-0.00661579	-0.00132543	0.568848	0.111328	-0.984619	0.195533	-0.0675712	0.0201196	-0.97816	1.27388	-0.728226	9.97248	-0.00585253	-0.015001	-0.016959	-0.338623	0.212891	-0.90332	0.125308	0.161956	-0.284912	-0.936426	-2.42756	6.14084	8.45289	-0.021084	0.0121139	0.00402438	-0.168945	-0.540527	-0.993896	-0.530237	0.233124	-0.289632	-0.761981	-6.51063	1.89174	7.11505	0.00828349	-0.000139338	0.00105439	0.573242	-0.543701	-0.751953	-0.0202894	0.0371114	0.540488	-0.840288	-0.373515	-8.83457	4.12544	0.0159159	0.00582967	-0.0167752	-0.276123	1.10132	-0.502441	0.832921	0.0367819	0.441695	-0.331353	-8.75602	-2.46521	6.97063	0.00934001	0.0117738	-0.0179477	0.966064	0.563965	-0.228027	0.2389	-0.0925092	-0.0438324	-0.965633	2.11444	0.402156	10.1702	0.0313325	0.0300292	-0.0178333	-0.538818	0.110352	-0.955078	0.0599281	-0.027522	-0.0877964	-0.993953	0.614798	1.79519	10.9847	-0.00606026	0.0176371	-0.0162552	-0.513184	-0.178711	-1.00854	0.0975101	-0.0579295	-0.0891279	-0.989541	1.32998	1.8021	10.3872	0.00161494	0.00755174	-0.0142107	-0.583252	-0.200684	-0.993408	-0.186482	0.900541	0.0380324	-0.390902	-6.44047	-3.32057	-5.88158	0.00938832	0.00396958	-0.000492998	0.987061	0.45459	0.427734	0.143227	-0.0487	0.05617	-0.986894	0.883759	-1.25988	9.68714	-0.00319112	0.00887422	-0.000144631	-0.473633	0.266113	-0.992676	
9	0.308514	0.377568	0.0700973	-0.870257	-7.45735	1.16288	7.48218	-0.00444843	-0.00163127	0.000871948	0.560303	0.106934	-0.986816	0.195493	-0.0676138	0.0201455	-0.978164	1.27197	-0.672751	10.0969	-0.00359201	0.0216255	-0.020511	-0.336426	0.212891	-0.905762	0.125373	0.162029	-0.284416	-0.936555	-2.46352	6.02386	8.33008	0.00363623	0.00381516	-0.00473484	-0.164551	-0.53833	-0.993896	-0.530181	0.233102	-0.289595	-0.762041	-6.45072	1.90977	7.11526	0.00537585	0.00709794	0.00149271	0.571045	-0.545898	-0.751953	-0.0209918	0.0372359	0.540248	-0.84042	-0.427905	-8.77024	4.09248	-0.00671467	0.00841371	-0.0176397	-0.271729	1.10352	-0.497803	0.832891	0.03693	0.441677	-0.331437	-8.71176	-2.57853	6.91793	0.0086253	0.0174197	-0.0140159	0.972656	0.562012	-0.227783	0.238989	-0.0883648	-0.0435949	-0.96601	1.93954	0.44126	10.3896	0.0521707	0.185262	-0.0236779	-0.530518	0.119141	-0.96582	0.0598991	-0.0276643	-0.0879213	-0.99394	0.657198	1.74595	10.9295	0.0294432	0.0107716	-0.0135891	-0.517822	-0.169922	-1.00635	0.097526	-0.0579832	-0.089088	-0.98954	1.34399	1.78618	10.3562	0.00801633	0.00599688	-0.0149437	-0.578613	-0.202881	-0.995605	-0.186524	0.900505	0.037975	-0.390969	-6.4739	-3.35657	-5.82108	0.0114932	0.00918824	0.00394311	0.984863	0.456787	0.429932	0.143207	-0.0487774	0.0561848	-0.986892	0.922204	-1.26437	9.67748	0.00107549	0.00258758	-0.00566344	-0.475586	0.261719	-0.988037	
10	0.308533	0.377616	0.0702268	-0.870219	-7.46854	1.16069	7.49051	-0.00381967	0.000695534	0.000131506	0.564697	0.109131	-0.98877	0.195449	-0.0677825	0.0200663	-0.978163	1.18618	-0.672764	9.97954	-0.00669619	0.000722691	-0.0220788	-0.338379	0.210693	-0.9104	0.125398	0.161913	-0.284254	-0.936621	-2.43651	5.95984	8.35988	-0.00761214	0.00580615	-0.000387149	-0.166748	-0.53833	-0.996338	-0.530281	0.233133	-0.289692	-0.761925	-6.45285	1.92924	7.1242	0.00569125	0.00631626	-0.00422445	0.575439	-0.545898	-0.749756	-0.0210555	0.0373687	0.540258	-0.840405	-0.449029	-8.91558	4.02361	0.0140208	0.0144028	-0.0137226	-0.273682	1.09497	-0.504639	0.83291	0.0369051	0.441721	-0.331334	-8.75541	-2.52486	6.96641	-0.00565843	0.01438	-0.0095176	0.96582	0.568359	-0.230225	0.238997	-0.0864974	-0.0438633	-0.966165	1.98089	0.477187	10.2888	0.049692	0.0810744	-0.0196388	-0.532227	0.110352	-0.967773	0.0599325	-0.0275107	-0.0879436	-0.99394	0.620602	1.76998	10.9755	-0.0136369	0.0213611	-0.0158778	-0.515625	-0.172119	-1.00635	0.0975114	-0.0579999	-0.0891584	-0.989534	1.31322	1.81903	10.4074	0.00426947	0.00608478	-0.0162981	-0.581299	-0.193848	-0.998047	-0.186459	0.900489	0.0380125	-0.391034	-6.41231	-3.32994	-5.79671	-0.00124825	0.00413044	0.001308	0.985107	0.450195	0.430176	0.143183	-0.0487747	0.0561317	-0.986899	0.914821	-1.29644	9.6908	0.00750494	0.0132609	-0.00317836	-0.475586	0.259521	-0.992676	
11	0.308527	0.377621	0.0702504	-0.870218	-7.46785	1.15998	7.49131	0.000573783	-0.00376193	-0.000580347	0.560547	0.102539	-0.986572	0.195116	-0.0680304	0.0199213	-0.978215	1.24432	-0.69443	10.0576	-0.00552801	-0.00683716	-0.0228618	-0.338623	0.214844	-0.912842	0.125299	0.161868	-0.284465	-0.936578	-2.45648	6.11703	8.36128	0.0103665	0.000872867	-0.00159735	-0.164551	-0.536133	-0.998535	-0.530349	0.233361	-0.289545	-0.761864	-6.50213	1.86313	7.10962	0.00228535	0.0131346	-0.0068463	0.575439	-0.541504	-0.754395	-0.0215255	0.0378382	0.539679	-0.840745	-0.454944	-8.83048	4.07334	0.0264577	0.0371941	-0.0257648	-0.280518	1.10352	-0.497803	0.833031	0.0368725	0.441505	-0.331319	-8.73071	-2.49028	6.93742	0.00622688	0.00566071	-0.0168617	0.966064	0.566162	-0.228027	0.239133	-0.0832172	-0.0442245	-0.966403	1.88452	0.479193	10.2972	0.0724167	0.155437	-0.0195044	-0.521729	0.112793	-0.972168	0.0598865	-0.0275694	-0.088044	-0.993932	0.611121	1.81115	10.9229	0.0138828	0.0107684	-0.0170907	-0.51123	-0.172119	-1.00854	0.0975029	-0.0580272	-0.0889836	-0.989549	1.32218	1.81762	10.3437	-0.00367112	0.00867499	-0.0156836	-0.578613	-0.200684	-1.00244	-0.186179	0.90055	0.0380759	-0.39102	-6.41429	-3.35776	-5.90599	0.000246657	0.0104383	0.00510695	0.984619	0.461182	0.427734	0.143247	-0.0484997	0.0559389	-0.986914	0.859428	-1.25819	9.6927	-0.000498345	0.0187416	-0.00204667	-0.473389	0.261719	-0.99707	
12	0.308519	0.377651	0.0701777	-0.870213	-7.45029	1.16838	7.51579	0.00466335	-0.00231359	5.17569e-05	0.5625	0.106934	-0.986816	0.195076	-0.068369	0.0199492	-0.978199	1.25034	-0.672507	10.0703	-0.0217218	-0.00441396	-0.018733	-0.343018	0.215088	-0.908203	0.125316	0.161754	-0.284394	-0.936617	-2.4484	6.06349	8.3843	-0.00403694	0.0023205	0.000653929	-0.166748	-0.540527	-0.996094	-0.530296	0.233596	-0.289434	-0.761871	-6.50057	1.8593	7.0618	-0.00686627	0.00948584	4.2285e-05	0.572998	-0.541504	-0.754395	-0.0216342	0.0382321	0.539246	-0.841002	-0.441704	-8.81349	4.06958	0.0245618	0.0227712	-0.0126516	-0.27832	1.10352	-0.502441	0.833131	0.0370819	0.441229	-0.331413	-8.66084	-2.46439	6.96584	0.00656151	0.00836275	-0.0108193	0.970459	0.559814	-0.22998	0.239366	-0.0796201	-0.0450788	-0.966609	1.80025	0.49287	10.3759	0.0835999	0.135026	-0.017715	-0.51709	0.110596	-0.978516	0.059915	-0.0275682	-0.0879217	-0.993942	0.623298	1.78384	10.9024	0.00145496	0.0211698	-0.0147232	-0.51123	-0.172119	-1.00854	0.0974583	-0.0580018	-0.0888266	-0.989569	1.3437	1.7886	10.3648	-0.000509442	0.00786236	-0.0164109	-0.581055	-0.198486	-1.00024	-0.18602	0.900559	0.0380307	-0.391081	-6.48179	-3.36638	-5.85513	-0.000697762	0.00694581	0.00712462	0.987061	0.45459	0.43457	0.14326	-0.0483467	0.0558869	-0.986922	0.877736	-1.29163	9.68892	0.00586188	0.0212593	-0.00281691	-0.471191	0.263916	-0.992676	
13	0.308452	0.377673	0.070189	-0.870226	-7.45862	1.22207	7.50609	-0.00118217	-0.00306928	-0.00303038	0.564697	0.104736	-0.986572	0.195131	-0.0683085	0.0199663	-0.978192	1.31613	-0.686783	10.0605	-0.00999177	0.0201739	-0.0132332	-0.34082	0.212891	-0.908203	0.125317	0.161669	-0.284322	-0.936653	-2.4202	5.96789	8.33007	-0.00494912	0.000679642	0.00024093	-0.164551	-0.536133	-0.989502	-0.530359	0.233678	-0.289529	-0.761766	-6.45551	1.8977	7.09797	0.00729989	0.0101605	-0.00419781	0.575439	-0.541504	-0.754395	-0.0216596	0.0382502	0.539095	-0.841097	-0.392077	-8.713	4.04174	0.0139367	0.00998866	-0.0168859	-0.273926	1.09912	-0.5	0.833147	0.0370554	0.441234	-0.331369	-8.67644	-2.50802	6.93835	-0.000295609	0.0140587	-0.0129939	0.968506	0.557617	-0.227783	0.239547	-0.0775198	-0.0457675	-0.966702	1.75204	0.566667	10.3577	0.0653802	0.0743072	-0.0129621	-0.512207	0.095459	-0.980225	0.0599314	-0.0275595	-0.0880331	-0.993931	0.641005	1.7413	10.9532	0.0142662	0.0146649	-0.0155291	-0.511475	-0.169922	-1.00171	0.0974813	-0.0579763	-0.0887876	-0.989572	1.34168	1.79756	10.3426	0.00212052	0.00938939	-0.014545	-0.585693	-0.203125	-0.997803	-0.186024	0.900514	0.038033	-0.391181	-6.41876	-3.30316	-5.85106	0.00559377	0.00132562	0.00201051	0.980225	0.456543	0.43457	0.143126	-0.0481896	0.0558935	-0.986949	0.874372	-1.23819	9.64847	0.000527476	0.0114937	-0.00721003	-0.466553	0.259521	-0.994873	
14	0.30849	0.377654	0.070418	-0.870203	-7.45142	1.14502	7.48912	-0.0104455	0.000564957	-0.00153622	0.564697	0.109131	-0.984619	0.195142	-0.0685548	0.0197712	-0.978176	1.31365	-0.665244	10.0743	-0.00144679	-0.00829689	-0.0170895	-0.340576	0.210693	-0.912842	0.125358	0.161643	-0.284312	-0.936656	-2.43066	6.09242	8.41147	-0.00221325	0.00512009	-0.000178022	-0.164795	-0.531982	-0.994141	-0.5304	0.233686	-0.289502	-0.761745	-6.44999	1.90968	7.09396	-0.00140311	0.00359826	0.000517152	0.568848	-0.543701	-0.751953	-0.0215102	0.0382396	0.539438	-0.840882	-0.398692	-8.90488	4.03089	-0.00915757	0.00814101	-0.0124556	-0.276123	1.10132	-0.497803	0.833168	0.0369621	0.441403	-0.3311	-8.79884	-2.63537	6.93208	0.00879347	0.015168	-0.0113069	0.968506	0.557617	-0.227783	0.239604	-0.075645	-0.0464372	-0.966805	1.77884	0.56107	10.345	0.0643081	0.0945286	-0.0213821	-0.506104	0.104004	-0.980469	0.0599361	-0.0275395	-0.08802	-0.993932	0.628205	1.77061	10.9951	-0.000900096	0.0239181	-0.0133936	-0.511475	-0.165527	-1.00415	0.0974769	-0.057977	-0.0888657	-0.989565	1.31781	1.80481	10.3972	0.00223773	0.00409696	-0.01433	-0.583252	-0.200684	-1.00244	-0.185859	0.900499	0.0381795	-0.39128	-6.42719	-3.32395	-5.87347	0.00579006	0.00835262	0.000856565	0.984863	0.452393	0.432373	0.143229	-0.0482643	0.0558312	-0.986934	0.91302	-1.30737	9.70576	0.00454483	0.00942397	0.00106085	-0.475586	0.263916	-0.990479	
15	0.308461	0.377656	0.0704827	-0.870207	-7.47472	1.11328	7.50286	-0.00313941	-0.00197716	-0.00416152	0.562256	0.111328	-0.986816	0.195164	-0.0685158	0.0198202	-0.978174	1.26535	-0.692636	10.059	-0.0133506	0.0186824	-0.0154967	-0.334229	0.215088	-0.903564	0.125525	0.161652	-0.284003	-0.936725	-2.44403	6.01893	8.37723	-0.0102904	0.00989059	0.00469301	-0.171143	-0.533936	-1.00098	-0.530401	0.233666	-0.289435	-0.761776	-6.46557	1.90961	7.14106	-0.00116511	0.00109504	0.000905845	0.573242	-0.543701	-0.756348	-0.0215861	0.0383126	0.539413	-0.840892	-0.39944	-8.85139	4.13823	0.00296998	0.0164589	-0.0176066	-0.273682	1.09692	-0.5	0.833231	0.0369841	0.44125	-0.331144	-8.73149	-2.58773	6.92489	0.0101433	0.00278513	-0.0154987	0.972656	0.559814	-0.227783	0.239664	-0.0747848	-0.0466204	-0.966848	1.68917	0.579964	10.4119	0.048982	0.0781919	-0.016566	-0.506104	0.102051	-0.982422	0.0599361	-0.0275395	-0.08802	-0.993932	0.628205	1.77061	10.9951	-0.000900096	0.0239181	-0.0133936	-0.511475	-0.165527	-1.00415	0.0974813	-0.0580041	-0.0889042	-0.98956	1.32608	1.84547	10.3352	0.00777994	0.00458753	-0.0153913	-0.583252	-0.200684	-1.00024	-0.185795	0.900521	0.0381934	-0.391259	-6.44656	-3.3557	-5.84398	-0.00101654	0.0117435	0.00162785	0.986816	0.463379	0.436768	0.143274	-0.0482315	0.0557283	-0.986935	0.912418	-1.27655	9.68432	0.00896346	0.0113989	-0.000585883	-0.475586	0.259521	-0.994873	
16	0.30844	0.37769	0.0704197	-0.870205	-7.47216	1.1719	7.50881	0.00209768	-0.00356036	0.00239083	0.5625	0.106934	-0.982422	0.195221	-0.0685579	0.0196487	-0.978163	1.23559	-0.644052	10.036	-0.00258661	0.00356533	-0.0184442	-0.34082	0.212891	-0.905762	0.125501	0.161679	-0.28407	-0.936704	-2.46779	5.94422	8.36673	0.00500272	0.00544635	-0.0038639	-0.162598	-0.536133	-0.998535	-0.530518	0.233762	-0.289343	-0.7617	-6.40413	1.8322	7.04328	-0.00064159	0.0056129	-0.00879341	0.577637	-0.541504	-0.749756	-0.0214008	0.0382704	0.539105	-0.841097	-0.428611	-8.79627	3.96097	0.0134305	-0.00566061	-0.00909238	-0.278076	1.09473	-0.495361	0.833269	0.0368422	0.441404	-0.330859	-8.72767	-2.45022	6.96777	-0.0240631	0.0244747	-0.00138089	0.972656	0.559814	-0.227783	0.239758	-0.073869	-0.0471207	-0.966871	1.72756	0.598369	10.3239	0.0478428	0.046963	-0.016923	-0.499756	0.104248	-0.984619	0.059753	-0.0273926	-0.0881538	-0.993936	0.634956	1.797	10.9427	0.00880534	0.0149519	-0.0159853	-0.518066	-0.167969	-1.00171	0.0974846	-0.0579936	-0.0889587	-0.989555	1.32153	1.80339	10.386	0.0083634	0.00769111	-0.0167232	-0.574219	-0.196045	-1.00024	-0.18589	0.900545	0.0382041	-0.391156	-6.4181	-3.29916	-5.83627	0.0100928	0.0159648	-0.000981497	0.982422	0.456543	0.427734	0.143302	-0.0482255	0.0560566	-0.986913	0.890974	-1.30814	9.64534	-0.0149585	0.0118483	-0.00188853	-0.471191	0.263916	-0.994873	
17	0.308444	0.377733	0.0703715	-0.870188	-7.45379	1.17136	7.48615	0.00294653	-0.00164323	0.00306122	0.5625	0.104736	-0.986572	0.195059	-0.0686708	0.0196483	-0.978187	1.23508	-0.753326	10.045	-0.00718181	0.0123904	-0.0229404	-0.336426	0.210693	-0.9104	0.125528	0.161675	-0.284189	-0.936665	-2.42846	6.19309	8.43641	0.00050467	0.00707841	0.00014335	-0.164551	-0.53833	-0.998535	-0.530703	0.233605	-0.28953	-0.761548	-6.57904	1.91496	7.15622	0.0143506	0.00302412	-0.002216	0.577637	-0.543701	-0.749756	-0.021477	0.0381955	0.539885	-0.840598	-0.385584	-8.91569	4.14607	-0.0369682	0.0178738	-0.023517	-0.280273	1.09692	-0.5	0.833261	0.0369569	0.44136	-0.330925	-8.73016	-2.50128	6.99608	0.0224235	0.0132371	-0.0243028	0.974609	0.563965	-0.228027	0.239797	-0.0728873	-0.0472612	-0.966929	1.71297	0.600959	10.3345	0.0479844	0.0878276	-0.0193944	-0.503662	0.0976562	-0.982422	0.0597337	-0.0273153	-0.0880332	-0.99395	0.595945	1.78225	11.0069	-0.00986145	0.0122964	-0.0151877	-0.509033	-0.174316	-1.00854	0.0975144	-0.0580204	-0.0889769	-0.989549	1.31642	1.82682	10.3716	0.00555522	0.00562441	-0.0139814	-0.583252	-0.205322	-0.997803	-0.185925	0.900553	0.0381139	-0.39113	-6.46078	-3.36475	-5.92411	0.0110016	0.00978856	0.00442643	0.980225	0.456543	0.429932	0.143291	-0.0483386	0.056024	-0.986911	0.841002	-1.20917	9.73914	-0.00769155	0.00202184	-0.00544024	-0.471191	0.263916	-0.98584	
18	0.30859	0.377785	0.0703065	-0.870119	-7.4598	1.07941	7.48443	0.0043572	-0.0030048	0.00508368	0.566895	0.109131	-0.982422	0.195043	-0.0687964	0.0194097	-0.978186	1.24335	-0.636361	10.0511	-0.00217476	0.00958493	-0.0177592	-0.344971	0.208496	-0.9104	0.125513	0.161706	-0.284054	-0.936702	-2.4836	5.97275	8.33438	0.00993952	0.00407446	-0.000290219	-0.164551	-0.53833	-0.993896	-0.530719	0.233605	-0.289534	-0.761535	-6.4045	1.86623	7.09445	0.0116422	0.00837163	-0.00134304	0.570801	-0.541504	-0.756592	-0.0215863	0.0382764	0.539033	-0.841137	-0.470652	-8.77946	4.04753	0.0535855	0.00765066	-0.0126612	-0.282227	1.09473	-0.497803	0.833223	0.0369565	0.441332	-0.331059	-8.72899	-2.54001	6.89695	-0.000278839	0.0127523	-0.0153511	0.970459	0.562012	-0.22583	0.239743	-0.0709	-0.0479555	-0.967056	1.68287	0.630707	10.348	0.0381239	0.0522659	-0.0167259	-0.501221	0.0932617	-0.982178	0.0597265	-0.0273569	-0.0880896	-0.993944	0.632522	1.82886	10.8787	0.00696862	0.0190613	-0.0157097	-0.515869	-0.165527	-1.00635	0.0975011	-0.0580169	-0.0889113	-0.989557	1.3109	1.81651	10.3542	0.00086263	0.00765564	-0.0164077	-0.580811	-0.20752	-0.997803	-0.185907	0.900497	0.038175	-0.391262	-6.41291	-3.2952	-5.83292	-0.000875943	0.00627319	0.00309297	0.980225	0.456543	0.429932	0.143294	-0.0486386	0.05597	-0.986898	0.927595	-1.29581	9.67257	0.0112176	-0.000438703	-0.00621305	-0.470947	0.259521	-0.99707	
19	0.308422	0.377903	0.0700316	-0.87015	-7.45837	1.25234	7.50506	0.0113585	-0.00413574	-0.00327915	0.564697	0.109131	-0.986816	0.195017	-0.0690238	0.0193421	-0.978177	1.29995	-0.643186	10.0125	-0.014869	0.000648941	-0.0166057	-0.340576	0.210693	-0.907959	0.125499	0.161554	-0.284266	-0.936666	-2.39501	6.04614	8.40288	0.00677429	0.00331813	0.00307946	-0.162354	-0.53833	-0.993896	-0.530865	0.233663	-0.289692	-0.761356	-6.48991	1.95555	7.10998	0.00725923	0.00896474	-0.00490759	0.577393	-0.539307	-0.756592	-0.0216412	0.0382678	0.539638	-0.840749	-0.418584	-8.94778	4.08307	-0.0431079	0.00999766	-0.0174661	-0.273682	1.09912	-0.495361	0.833273	0.0369078	0.4413	-0.330979	-8.69535	-2.55425	6.89359	-0.00211656	0.00952259	-0.0100653	0.970459	0.562012	-0.22998	0.239789	-0.0697728	-0.0483997	-0.967104	1.63295	0.626219	10.3905	0.0458418	0.043914	-0.016702	-0.49707	0.095459	-0.984375	0.0597285	-0.0274685	-0.0880874	-0.993941	0.623275	1.76564	11.0055	-0.00623125	0.00263433	-0.0165135	-0.515625	-0.172119	-1.00146	0.0975205	-0.0579621	-0.0889643	-0.989553	1.33928	1.79214	10.3627	0.0123445	0.0100348	-0.013541	-0.578613	-0.200684	-1.00464	-0.185981	0.900495	0.0381216	-0.391238	-6.42316	-3.31029	-5.86126	0.00907204	0.0135509	0.00142402	0.984863	0.45459	0.430176	0.143282	-0.0487468	0.056089	-0.986888	0.892403	-1.25295	9.68735	-0.0116182	0.00728177	-0.00303301	-0.473145	0.259521	-0.999512	
20	0.308437	0.377827	0.0700839	-0.870173	-7.45789	1.19385	7.50218	-0.00351599	-0.00521137	-0.00120814	0.5625	0.104736	-0.984619	0.19505	-0.0689649	0.0192196	-0.978177	1.29849	-0.669511	10.0787	-0.00235237	0.00444746	-0.0169911	-0.342773	0.210693	-0.90332	0.125581	0.161636	-0.284143	-0.936678	-2.42558	6.05224	8.37509	-0.00754028	0.0154954	0.00211746	-0.1604	-0.536377	-0.998535	-0.530879	0.233753	-0.289608	-0.761351	-6.49282	1.90015	7.07955	-0.000186324	0.00697923	-0.00192493	0.575439	-0.541504	-0.756592	-0.0215408	0.0382512	0.539381	-0.840917	-0.402377	-9.0208	3.97626	0.024134	0.00249788	-0.00993896	-0.273926	1.09912	-0.502441	0.83321	0.036774	0.441445	-0.330959	-8.72543	-2.5281	6.94098	-0.00883255	0.012306	-0.0107071	0.968262	0.562012	-0.22583	0.239923	-0.0688983	-0.0488084	-0.967113	1.63139	0.624987	10.3542	0.0450662	0.0473505	-0.0145729	-0.49707	0.095459	-0.990723	0.0596955	-0.027413	-0.0882605	-0.993929	0.630451	1.80488	10.9051	0.00953415	0.0173479	-0.0169801	-0.515625	-0.169922	-1.00391	0.0974993	-0.057917	-0.0889854	-0.989556	1.32549	1.82022	10.4003	0.00326107	0.00677066	-0.0163309	-0.583252	-0.200684	-1.00244	-0.186133	0.900462	0.0381069	-0.391241	-6.46045	-3.31784	-5.87027	0.00802735	0.00830225	-0.000976903	0.980469	0.452148	0.43457	0.143376	-0.048849	0.0561544	-0.986866	0.887183	-1.27971	9.6858	0.000554676	0.00653346	0.00022162	-0.480225	0.261719	-1.00171	
21	0.308478	0.37782	0.0701536	-0.870156	-7.4357	1.13496	7.48271	-0.00170962	-0.00334966	0.000593531	0.5625	0.109131	-0.986816	0.195036	-0.0690151	0.0190217	-0.97818	1.25471	-0.651508	9.97258	-0.00387729	-0.00220142	-0.018653	-0.344971	0.210693	-0.905762	0.125518	0.161647	-0.284234	-0.936657	-2.45974	6.00134	8.34874	0.0184716	-0.00022822	-0.00303579	-0.162598	-0.536133	-1.00098	-0.530959	0.233808	-0.289853	-0.761184	-6.4839	1.89276	7.07923	0.0140634	0.0118513	-0.00397549	0.573242	-0.545898	-0.75415	-0.0214328	0.0382015	0.539239	-0.841013	-0.389729	-8.6643	4.09679	-0.0281142	0.000786631	-0.0179931	-0.275879	1.09473	-0.5	0.833203	0.0367356	0.441518	-0.330885	-8.72185	-2.49661	6.96528	-0.000741955	0.0165849	-0.0135503	0.974609	0.563965	-0.232178	0.240027	-0.0679196	-0.0491081	-0.967141	1.58982	0.649211	10.3985	0.0388225	0.0543376	-0.0149409	-0.499023	0.0910645	-0.988525	0.059721	-0.0274194	-0.0881225	-0.99394	0.635395	1.79726	10.9744	-0.0146993	0.00903233	-0.012587	-0.511475	-0.169922	-1.01099	0.0975019	-0.0578918	-0.0889443	-0.989561	1.33965	1.78116	10.3438	0.00537005	0.00865251	-0.014503	-0.581055	-0.202881	-0.997803	-0.186124	0.900458	0.0381178	-0.391254	-6.45424	-3.33348	-5.85881	0.00179503	0.0125618	0.00300972	0.987061	0.45459	0.43457	0.143467	-0.0489997	0.0561587	-0.986845	0.912244	-1.28157	9.66879	-0.00234366	0.00206288	7.22818e-05	-0.475586	0.261719	-0.994873	
22	0.308478	0.37782	0.0701536	-0.870156	-7.4357	1.13496	7.48271	-0.00170962	-0.00334966	0.000593531	0.5625	0.109131	-0.986816	0.195012	-0.0690454	0.0187775	-0.978187	1.25417	-0.666601	10.2028	0.00858087	0.00923665	-0.0207101	-0.338623	0.212891	-0.908203	0.125524	0.161592	-0.284256	-0.936659	-2.42124	6.04007	8.3813	-0.0111765	0.0103504	-0.000866985	-0.164551	-0.53833	-1.00073	-0.530991	0.233812	-0.289834	-0.761168	-6.52884	1.92185	7.11777	0.00235643	0.00471058	-0.00253111	0.572998	-0.539307	-0.752197	-0.0213	0.0380885	0.539554	-0.84082	-0.351415	-8.91669	4.08335	0.0133464	0.00089683	-0.0126807	-0.277832	1.09253	-0.497803	0.833209	0.0366446	0.441586	-0.330789	-8.71525	-2.61671	6.9449	-0.00824358	0.0171694	-0.0120253	0.968262	0.563965	-0.232178	0.240052	-0.0679232	-0.0493538	-0.967122	1.58066	0.640151	10.4091	0.0369291	0.0106245	-0.0140682	-0.496826	0.0891113	-0.990723	0.0597022	-0.0274182	-0.0879339	-0.993958	0.635245	1.76584	10.945	-0.0104292	0.0150033	-0.0169475	-0.513672	-0.169922	-1.00391	0.0975232	-0.057869	-0.089022	-0.989553	1.31606	1.83154	10.3687	0.0112529	0.00846782	-0.0139429	-0.573975	-0.205078	-1	-0.186049	0.900469	0.0381554	-0.391261	-6.46665	-3.32705	-5.87911	-0.00219857	0.00894629	0.000721756	0.987061	0.452393	0.430176	0.143511	-0.0490721	0.0561201	-0.986837	0.90192	-1.24301	9.71077	0.00228946	0.00354816	-0.000892753	-0.475586	0.261719	-0.992676	
23	0.308347	0.377987	0.0697849	-0.87016	-7.45941	1.18663	7.48584	0.0143169	0.00129095	0.000750312	0.562988	0.0981445	-0.986572	0.195008	-0.068766	0.0190571	-0.978202	1.13159	-0.619219	9.996	-0.0193912	0.0377207	-0.0171897	-0.344971	0.208496	-0.907959	0.125434	0.161634	-0.284543	-0.936577	-2.47348	6.08012	8.3654	0.0324518	0.0024734	-0.00064436	-0.162598	-0.536133	-1.00098	-0.531073	0.233842	-0.289911	-0.761072	-6.47464	1.8294	7.11361	0.008535	0.00963819	-0.00444974	0.575195	-0.539307	-0.756592	-0.0212987	0.0383051	0.539503	-0.840842	-0.504773	-8.81756	4.08861	-0.0231402	0.0106618	-0.00988472	-0.273682	1.09692	-0.497803	0.833211	0.0368198	0.441433	-0.330969	-8.76765	-2.51285	6.96946	0.0170916	0.008292	-0.0179401	0.970459	0.563965	-0.232178	0.240037	-0.0680113	-0.0494845	-0.967113	1.51646	0.698315	10.4803	0.00977563	-0.0205507	-0.0154982	-0.496826	0.0910645	-0.988525	0.0597096	-0.0273666	-0.0884135	-0.993916	0.58832	1.80789	10.9543	0.00844119	0.0187257	-0.0176532	-0.513672	-0.165527	-1.00879	0.0974999	-0.0578404	-0.0890034	-0.989559	1.31008	1.84106	10.4086	-0.000831783	0.00733586	-0.0162666	-0.576416	-0.200684	-1.00244	-0.186158	0.900395	0.0381508	-0.39138	-6.41632	-3.30958	-5.87386	0.0086913	0.00281688	0.00151509	0.978027	0.454346	0.427734	0.14354	-0.0491325	0.0561297	-0.986829	0.881233	-1.28849	9.70054	-0.00139804	0.00517664	-0.00181675	-0.473145	0.257324	-0.990234	
24	0.30839	0.377981	0.0696818	-0.870155	-7.44755	1.22861	7.49134	-0.00518445	-0.00858002	0.00485137	0.564697	0.104736	-0.98877	0.194935	-0.0692839	0.0188972	-0.978183	1.41182	-0.675115	10.041	-0.00576191	-0.00514029	-0.0251283	-0.340576	0.210693	-0.9104	0.125431	0.161452	-0.284469	-0.936631	-2.46462	6.06142	8.43585	-0.00766644	-0.00175642	-0.00174972	-0.164551	-0.540527	-0.996094	-0.531063	0.233884	-0.290018	-0.761026	-6.55057	1.89288	7.11218	0.00376432	0.00687802	0.00299355	0.575439	-0.541504	-0.754395	-0.0210099	0.0383355	0.539719	-0.84071	-0.43431	-8.82675	3.97875	0.00387397	0.00157697	-0.00643248	-0.273926	1.10132	-0.5	0.833156	0.0368417	0.441527	-0.33098	-8.69683	-2.5392	6.90522	0.00247875	0.0235463	-0.0159277	0.972412	0.563965	-0.22998	0.240152	-0.0662893	-0.0497607	-0.96719	1.67273	0.633183	10.3058	0.0531211	0.140759	-0.017058	-0.492432	0.0891113	-0.99707	0.0597204	-0.0274772	-0.0881125	-0.993939	0.651594	1.78317	10.9449	-0.00692576	0.00892134	-0.0128943	-0.515625	-0.172119	-1.00635	0.0975189	-0.057822	-0.0889235	-0.989565	1.29537	1.77769	10.364	-0.00128066	0.00875566	-0.0142611	-0.578613	-0.202881	-1	-0.186155	0.900374	0.038114	-0.391433	-6.44974	-3.33585	-5.86242	0.00474497	0.0109285	0.00289716	0.984863	0.456787	0.43457	0.143588	-0.0491715	0.0559404	-0.986831	0.871457	-1.24457	9.69862	0.00391036	0.002785	0.000235954	-0.473389	0.263916	-0.992676	
25	0.308517	0.377961	0.069863	-0.870105	-7.4429	1.14143	7.49368	-0.00459927	0.00132375	0.00154686	0.5625	0.104736	-0.984619	0.194917	-0.0689808	0.018994	-0.978207	1.21743	-0.658621	10.0373	-0.012458	0.00401943	-0.0170494	-0.338379	0.206299	-0.903076	0.125309	0.161395	-0.284243	-0.936726	-2.37837	6.03828	8.35732	-0.0057887	0.00632711	-0.00596028	-0.164551	-0.53833	-0.996338	-0.531004	0.233935	-0.289922	-0.761088	-6.44335	1.86155	7.07727	-0.00704144	0.00537935	0.00470817	0.566406	-0.539307	-0.756592	-0.0210606	0.0384021	0.539784	-0.840663	-0.404235	-8.88218	4.16622	-0.0149902	0.0174789	-0.0163312	-0.278076	1.09912	-0.495361	0.833096	0.036877	0.441582	-0.331055	-8.76765	-2.6088	6.94217	0.0133026	0.0126568	-0.0194197	0.972656	0.563965	-0.228027	0.240301	-0.0648183	-0.0499886	-0.967241	1.52301	0.678788	10.4063	0.0396771	0.0473828	-0.0161861	-0.490479	0.0913086	-0.994873	0.0596965	-0.0276466	-0.0881781	-0.99393	0.625868	1.77321	10.9378	0.00971419	0.00376336	-0.0155334	-0.513672	-0.165527	-1.00879	0.0973319	-0.0576175	-0.0890469	-0.989584	1.31995	1.80739	10.3616	0.00612759	0.0109129	-0.0156704	-0.576172	-0.205078	-1.00464	-0.186119	0.900331	0.0381754	-0.391544	-6.48467	-3.33437	-5.83594	0.00142648	-0.000426192	-0.000234757	0.982422	0.45874	0.43457	0.143679	-0.0493648	0.0559131	-0.98681	0.946468	-1.31122	9.68199	0.00479024	0.00176925	-0.00358404	-0.473389	0.261719	-0.994873	
26	0.308511	0.378078	0.0697844	-0.870062	-7.49694	1.15671	7.5016	0.00562163	-0.00237108	0.00118286	0.5625	0.104736	-0.986572	0.19488	-0.0690469	0.018839	-0.978212	1.27138	-0.626018	10.0552	-0.00883141	0.0105376	-0.01827	-0.344971	0.212891	-0.90332	0.125394	0.161381	-0.283858	-0.936833	-2.42102	6.02273	8.37852	-0.0147644	0.0124132	-0.000596326	-0.164795	-0.533936	-1.00317	-0.530994	0.233966	-0.289981	-0.761063	-6.49712	1.91602	7.13327	0.00665308	0.0110581	-0.000289034	0.577637	-0.543701	-0.75415	-0.0209733	0.0386325	0.539352	-0.840932	-0.491934	-8.83317	3.97088	0.0300897	0.00492188	-0.00537469	-0.273682	1.09692	-0.497803	0.833155	0.0369713	0.441353	-0.3312	-8.70418	-2.4359	6.91663	0.00393979	0.0093558	-0.0137822	0.966309	0.559814	-0.22998	0.240404	-0.0638546	-0.0502961	-0.967263	1.50545	0.713311	10.4419	0.0319682	0.0404703	-0.0152055	-0.488281	0.0891113	-0.99707	0.059746	-0.0274444	-0.0882205	-0.993929	0.601533	1.79705	10.9819	0.00274066	0.0211431	-0.0134926	-0.51123	-0.172119	-1.00854	0.0973066	-0.0576522	-0.0889688	-0.989592	1.32132	1.78373	10.3865	0.000639416	0.00503612	-0.0151428	-0.581055	-0.202881	-0.997803	-0.186033	0.900271	0.0381736	-0.391722	-6.42253	-3.32535	-5.87423	-0.000268544	0.00518987	0.0037329	0.982422	0.456543	0.429932	0.14362	-0.0493262	0.0558004	-0.986826	0.913753	-1.27409	9.69929	-0.000581975	0.0137923	-0.00514239	-0.475342	0.257324	-0.994873	
27	0.308346	0.378197	0.0696723	-0.870078	-7.47251	1.25137	7.48004	0.00581726	0.000289199	-0.00431501	0.560059	0.109131	-0.984619	0.194979	-0.0690286	0.0188638	-0.978193	1.23871	-0.676169	10.0474	-0.00894386	0.0189034	-0.0136239	-0.344971	0.210693	-0.898682	0.125345	0.161364	-0.28419	-0.936742	-2.44383	6.03376	8.4052	0.0216162	-2.9543e-05	0.000981756	-0.1604	-0.53418	-1.00098	-0.530921	0.234271	-0.289867	-0.761063	-6.47822	1.89222	7.09675	-0.000278399	0.00667801	-0.00629111	0.573242	-0.545898	-0.751953	-0.0208246	0.0385997	0.539285	-0.84098	-0.458323	-8.81762	3.97611	0.005871	-0.000897526	-0.00784888	-0.276367	1.10596	-0.504639	0.833299	0.0369553	0.441373	-0.330813	-8.6705	-2.50416	6.94151	-0.00160264	0.013426	0.00209956	0.966309	0.557617	-0.22998	0.240506	-0.0635122	-0.0505244	-0.967249	1.50829	0.692152	10.3794	0.0286176	0.0231947	-0.0119522	-0.486084	0.0891113	-0.992676	0.0597606	-0.0275637	-0.088075	-0.993937	0.633981	1.77453	10.8723	0.000670112	0.0158499	-0.0153701	-0.509033	-0.174316	-1.00854	0.0972999	-0.0576592	-0.0887923	-0.989608	1.31571	1.83546	10.376	-0.003141	0.00828186	-0.0155891	-0.580811	-0.205078	-1.00464	-0.18578	0.900386	0.03824	-0.391572	-6.4329	-3.30525	-5.8468	-0.00891658	0.0114121	0.00145688	0.980469	0.454346	0.432373	0.143699	-0.0490063	0.0557562	-0.986833	0.925196	-1.24297	9.64145	0.00154243	0.0259126	0.0003746	-0.473145	0.257324	-0.994873	
28	0.308316	0.37809	0.0698973	-0.870117	-7.44646	1.16834	7.48941	-0.0128288	-0.00508967	-0.0056529	0.564941	0.102539	-0.982422	0.195065	-0.069043	0.0191028	-0.978171	1.38042	-0.670277	10.0679	-0.0173568	0.0291521	-0.0129026	-0.340576	0.208496	-0.907959	0.125584	0.161563	-0.283792	-0.936797	-2.43762	6.07614	8.36455	-0.0165107	0.0196421	0.000835541	-0.162354	-0.53833	-0.991699	-0.53095	0.23425	-0.289589	-0.761155	-6.52324	1.87249	7.11077	-0.00554098	-0.00368527	0.00252156	0.572998	-0.541504	-0.752197	-0.0204896	0.0380691	0.540093	-0.840494	-0.345683	-9.00931	4.05948	0.0026687	-0.0144374	-0.00422226	-0.276123	1.10132	-0.5	0.833375	0.0368861	0.441484	-0.33048	-8.75716	-2.56552	6.93446	0.00184456	0.0191	-0.0110411	0.970459	0.563965	-0.22998	0.240519	-0.0636533	-0.0506875	-0.967228	1.53211	0.70636	10.4567	0.0179368	-0.00149288	-0.0148975	-0.483887	0.0869141	-0.992676	0.0596951	-0.027433	-0.0881217	-0.993941	0.634136	1.80707	10.9927	0.00497927	0.0228507	-0.0170073	-0.513428	-0.172119	-1.00635	0.0972753	-0.0576505	-0.088601	-0.989628	1.33291	1.78924	10.3612	-0.00226758	0.00625389	-0.0152477	-0.583252	-0.200684	-1.00024	-0.18588	0.900388	0.0382913	-0.391515	-6.47245	-3.35851	-5.88721	0.00845491	0.00878272	-0.00102746	0.982422	0.45874	0.425293	0.143799	-0.0487563	0.0560004	-0.986817	0.850982	-1.25109	9.70312	-0.0100469	0.0169562	-0.000277313	-0.470947	0.259521	-1.00171	
29	0.308321	0.37806	0.0700189	-0.870118	-7.42686	1.15485	7.49289	-0.00951712	-0.00301458	-0.00361209	0.560303	0.106934	-0.984619	0.195079	-0.0688825	0.0189292	-0.978183	1.24275	-0.698651	10.0027	0.00599659	0.0248684	-0.0173657	-0.344971	0.208496	-0.907959	0.125553	0.161599	-0.283699	-0.936823	-2.49015	5.98822	8.30442	-0.00486282	0.00902266	-0.00496116	-0.166748	-0.53833	-0.998535	-0.530932	0.234326	-0.289429	-0.761205	-6.4799	1.78796	7.04292	-0.0115636	0.00300302	-0.000932841	0.577393	-0.539307	-0.752197	-0.0203182	0.0379915	0.539859	-0.840652	-0.510521	-8.7327	4.10774	0.0216069	-0.00522794	-0.00738	-0.271729	1.09912	-0.5	0.833374	0.0368144	0.441525	-0.330436	-8.74504	-2.53412	6.96762	-0.00445703	0.0158761	-0.014586	0.974854	0.559814	-0.232178	0.240476	-0.0645622	-0.0508716	-0.967169	1.51561	0.737142	10.3884	0.0122839	-0.0225297	-0.0190649	-0.492432	0.0847168	-0.996826	0.0596956	-0.0274957	-0.0882896	-0.993924	0.618798	1.80816	10.9709	0.0177507	0.00871991	-0.0150132	-0.517822	-0.174316	-1.01099	0.0972683	-0.0576912	-0.0885816	-0.989628	1.34311	1.75682	10.3966	0.00296124	0.00408712	-0.015789	-0.576416	-0.200684	-1.00244	-0.18588	0.900388	0.0382913	-0.391515	-6.47245	-3.35851	-5.88721	0.00845491	0.00878272	-0.00102746	0.982422	0.45874	0.425293	0.143776	-0.0487847	0.0560399	-0.986817	0.86278	-1.2697	9.69492	-0.00394044	0.00779915	-0.00627265	-0.473389	0.263916	-0.988037	
30	0.308334	0.378163	0.0699467	-0.870075	-7.48078	1.13953	7.49949	0.00884803	-0.00588924	0.0025885	0.555908	0.104736	-0.986816	0.195027	-0.0688136	0.0189751	-0.978197	1.34888	-0.655088	10.0837	-0.0106916	0.0152904	-0.0195317	-0.336182	0.208496	-0.900879	0.125417	0.161494	-0.283867	-0.936808	-2.46325	6.04626	8.37075	0.00765477	-0.00311522	-0.00579644	-0.162598	-0.529785	-0.998779	-0.531159	0.234319	-0.289627	-0.760974	-6.51251	1.90419	7.10558	0.00789652	0.00658578	-0.00580876	0.577637	-0.541504	-0.754395	-0.0203547	0.0378422	0.540397	-0.840312	-0.395831	-8.92758	4.01397	-0.0185434	0.00907234	-0.0205399	-0.273926	1.10132	-0.5	0.833388	0.0367749	0.441586	-0.330323	-8.70659	-2.52136	7.00265	0.00745316	0.0167854	-0.0141728	0.970215	0.566162	-0.228027	0.240471	-0.0653958	-0.0510905	-0.967102	1.59821	0.710469	10.3294	0.0214876	-0.0102906	-0.0119158	-0.492432	0.0869141	-0.994873	0.0597141	-0.0274096	-0.0881371	-0.993939	0.616049	1.78301	10.9176	0.00691718	0.0227282	-0.0165879	-0.509033	-0.172119	-1.00635	0.0972589	-0.0576881	-0.0886689	-0.989621	1.31598	1.81648	10.3177	0.00846589	0.00778663	-0.015905	-0.578857	-0.198242	-1.00024	-0.185991	0.900418	0.0382346	-0.391398	-6.45187	-3.31263	-5.86283	0.00433404	0.00699646	0.000145716	0.982666	0.454346	0.430176	0.143727	-0.0488251	0.0560379	-0.986822	0.892612	-1.27479	9.65666	-0.000231963	0.00705458	-0.00802865	-0.473389	0.261719	-0.992676	
31	0.308286	0.378198	0.06975	-0.870092	-7.45629	1.17224	7.48671	0.0158341	-0.00557811	0.00274827	0.564697	0.106934	-0.986572	0.195013	-0.0686808	0.0188992	-0.97821	1.26991	-0.686004	10.0611	-0.0101271	0.011865	-0.0168081	-0.340576	0.210693	-0.90332	0.125284	0.161466	-0.283964	-0.936802	-2.3768	6.04902	8.42728	0.011747	9.36918e-05	-0.00899002	-0.162354	-0.542725	-0.996094	-0.531152	0.234231	-0.289566	-0.761029	-6.48362	1.92235	7.13873	0.00160359	-0.00333563	0.00445492	0.572998	-0.539307	-0.760986	-0.0204222	0.0378214	0.540121	-0.840489	-0.398543	-8.81383	4.05368	0.0088474	0.0144532	-0.0285228	-0.275879	1.09692	-0.502441	0.833391	0.036726	0.44162	-0.330275	-8.73437	-2.51231	6.91666	0.00555034	0.014718	-0.0163795	0.970459	0.559814	-0.227783	0.240551	-0.065133	-0.0512348	-0.967092	1.5816	0.675467	10.2941	0.034394	0.0328297	-0.0108575	-0.492432	0.0847168	-0.986328	0.0596601	-0.0275137	-0.0882229	-0.993932	0.606932	1.80443	11.0353	0.00423492	0.00734318	-0.0174201	-0.513672	-0.165771	-1.00171	0.0972931	-0.0576276	-0.0887622	-0.989613	1.3237	1.82865	10.4051	0.00545687	0.00873475	-0.013724	-0.583252	-0.200684	-0.998047	-0.186141	0.90038	0.0382921	-0.39141	-6.4206	-3.34634	-5.84222	0.0121333	0.00859561	-0.00236039	0.982666	0.454346	0.430176	0.143772	-0.0488368	0.056166	-0.986808	0.898426	-1.30513	9.65411	-0.0082905	0.0066659	0.000965343	-0.471191	0.261719	-1.00171	
32	0.308199	0.37832	0.0696627	-0.870077	-7.47491	1.22001	7.47361	0.00113593	-0.000445739	-0.00291757	0.564697	0.106934	-0.986572	0.195063	-0.0683927	0.0189372	-0.97822	1.36851	-0.65437	10.0355	-0.00538118	0.0467613	-0.0164654	-0.342773	0.208496	-0.907959	0.125586	0.161746	-0.282933	-0.937025	-2.51253	5.91435	8.27961	-0.0237438	0.0133515	-0.00363	-0.1604	-0.529785	-0.998779	-0.531025	0.234167	-0.28921	-0.761272	-6.51516	1.83727	7.09005	-0.0086852	0.000341727	0.00397766	0.577637	-0.541504	-0.756592	-0.0203712	0.0378913	0.539947	-0.840599	-0.423147	-8.75418	4.03552	0.000902282	-0.000258378	-0.00665997	-0.273926	1.10352	-0.497803	0.833346	0.03672	0.441796	-0.330154	-8.69884	-2.51045	6.87867	-0.00727475	0.0255594	-0.00862631	0.968506	0.559814	-0.232178	0.240451	-0.0658136	-0.0512964	-0.967068	1.53983	0.71988	10.4774	0.0060795	-0.045812	-0.0174685	-0.490479	0.0891113	-0.99707	0.0596819	-0.0275209	-0.087957	-0.993954	0.638475	1.77418	11.0021	-0.00547682	0.0118856	-0.0162631	-0.515625	-0.172119	-1.00635	0.0973199	-0.0576766	-0.0887076	-0.989613	1.31224	1.81202	10.3598	0.0030477	0.00416049	-0.0150453	-0.576416	-0.200684	-1.00244	-0.186196	0.900353	0.0383046	-0.391443	-6.47363	-3.34651	-5.86853	0.00863077	0.0069241	-0.00104573	0.984619	0.458984	0.429932	0.143853	-0.0490046	0.056375	-0.986776	0.899276	-1.26064	9.71013	-0.0126441	0.00324167	-0.00294155	-0.475586	0.261719	-0.99707	
33	0.308189	0.378264	0.0698689	-0.870089	-7.47627	1.1629	7.49339	-0.00798105	-0.00329778	-0.00257171	0.564697	0.104736	-0.982422	0.19511	-0.0680189	0.0189441	-0.978237	1.23369	-0.673749	10.0539	-0.00939021	0.0315721	-0.0169827	-0.338623	0.215088	-0.903564	0.125515	0.161806	-0.283326	-0.936905	-2.439	6.04578	8.43764	0.014004	0.00755296	0.00366981	-0.158203	-0.53418	-0.998535	-0.531099	0.234028	-0.289454	-0.761171	-6.45471	1.86994	7.13196	0.0170446	0.0073399	0.000794876	0.575439	-0.545898	-0.749756	-0.0201782	0.0377289	0.540652	-0.840158	-0.405937	-9.09221	4.02052	-0.0111864	0.00372703	-0.0132081	-0.280273	1.09692	-0.495361	0.833359	0.0365015	0.44197	-0.329914	-8.78442	-2.53164	6.96162	-0.00748957	0.0119032	-0.0124356	0.9729	0.55542	-0.231934	0.240475	-0.0670161	-0.0515625	-0.966965	1.60506	0.716922	10.3146	0.027987	-0.0135671	-0.0104629	-0.494629	0.0869141	-0.986328	0.0596087	-0.0275946	-0.0882506	-0.99393	0.630384	1.79376	10.8495	0.013726	0.00943118	-0.0187676	-0.513428	-0.172119	-1.00391	0.0973137	-0.0576255	-0.0887175	-0.989615	1.30683	1.80262	10.3424	0.00416706	0.0113672	-0.0163854	-0.580811	-0.205322	-0.995605	-0.18631	0.900347	0.038301	-0.391404	-6.41715	-3.29473	-5.87141	0.0037013	0.00567911	0.000501369	0.980225	0.45874	0.432129	0.143857	-0.0491988	0.0563809	-0.986765	0.885007	-1.30931	9.68702	0.00933395	0.00227146	-0.00245319	-0.470947	0.259521	-0.994873	
34	0.308209	0.378279	0.0699742	-0.870066	-7.43758	1.13942	7.49927	-0.00181758	-0.00137703	0.00013241	0.564697	0.106934	-0.978027	0.195157	-0.067838	0.0187443	-0.978243	1.21831	-0.619817	10.018	-0.00470848	0.0329088	-0.0159035	-0.338379	0.210693	-0.9104	0.125637	0.161907	-0.283026	-0.936962	-2.42326	5.98508	8.38307	-0.00976775	0.0173668	0.000183518	-0.162354	-0.53833	-0.996338	-0.531045	0.233994	-0.28938	-0.761247	-6.43616	1.86088	7.09051	0.00455106	0.00175914	0.00558768	0.575195	-0.537109	-0.754395	-0.0201782	0.0377289	0.540652	-0.840158	-0.405937	-9.09221	4.02052	-0.0111864	0.00372703	-0.0132081	-0.280273	1.09692	-0.495361	0.833351	0.0363466	0.44205	-0.329844	-8.78713	-2.59798	6.91823	-0.00269617	0.0170442	-0.0179738	0.970703	0.557617	-0.227783	0.240575	-0.067364	-0.0521057	-0.966887	1.55657	0.72554	10.4614	0.034287	-0.0125689	-0.0130126	-0.494873	0.0910645	-0.986328	0.0596038	-0.027583	-0.0879405	-0.993958	0.61887	1.75674	10.9835	-0.0177209	0.0137414	-0.0152255	-0.511475	-0.169922	-1.00854	0.0973117	-0.0575519	-0.0887067	-0.989621	1.31901	1.77413	10.3659	0.00545838	0.00991983	-0.0154148	-0.578613	-0.200684	-1.00024	-0.186463	0.90025	0.0383138	-0.391554	-6.43123	-3.31366	-5.85502	0.0123578	0.00233863	-0.000532148	0.982422	0.456543	0.429932	0.144046	-0.0494856	0.0564756	-0.986718	0.910468	-1.32019	9.68422	-0.00721619	-0.00391221	0.00555044	-0.473633	0.268311	-0.994873	
35	0.308149	0.378322	0.0698825	-0.870077	-7.49159	1.1919	7.4848	0.008092	-0.00623339	0.000137655	0.566895	0.104736	-0.982422	0.195144	-0.0677561	0.0188495	-0.97825	1.24507	-0.660044	10.0938	-0.0093964	0.0229436	-0.0195248	-0.340576	0.210693	-0.905762	0.125722	0.161882	-0.282919	-0.936987	-2.44632	5.93697	8.33182	0.00813166	0.00268367	-0.000756742	-0.1604	-0.531982	-0.998779	-0.531153	0.233986	-0.289489	-0.761133	-6.48971	1.9087	7.08117	0.00858968	0.0104883	-0.00749765	0.571045	-0.543701	-0.756348	-0.0205088	0.0376268	0.540421	-0.840302	-0.38557	-8.83055	4.05005	-0.0335499	-0.00769576	-0.0198298	-0.27832	1.10571	-0.495361	0.833385	0.0361833	0.442111	-0.329693	-8.68992	-2.52808	6.88131	-0.0155688	0.0147768	-0.00905995	0.961914	0.559814	-0.22998	0.240703	-0.0677148	-0.0524711	-0.966811	1.62283	0.665246	10.3255	0.0308143	0.017489	-0.0116365	-0.490234	0.0869141	-0.990479	0.0596304	-0.0277236	-0.0883481	-0.993917	0.652542	1.80432	10.9021	0.0207713	0.0131246	-0.0153753	-0.513672	-0.169922	-1.00635	0.0973448	-0.0574842	-0.0889274	-0.989602	1.28867	1.81883	10.4034	0.0128112	0.00865734	-0.01543	-0.583252	-0.205322	-1.00244	-0.186336	0.900278	0.0383303	-0.391547	-6.44095	-3.38675	-5.80055	-0.00107895	0.0128394	0.00201204	0.982422	0.456543	0.432373	0.144075	-0.0496657	0.0564382	-0.986707	0.938196	-1.28625	9.67548	-0.0045032	0.00528962	-0.00517342	-0.477783	0.259521	-0.99707	
36	0.308199	0.378274	0.0697989	-0.870086	-7.43427	1.17583	7.49166	-0.000607757	-0.00587336	0.0029926	0.562256	0.109131	-0.982422	0.194879	-0.0676394	0.0187644	-0.978312	1.27056	-0.677879	9.96409	-0.00138398	0.0119169	-0.0198488	-0.340576	0.210693	-0.9104	0.125676	0.161927	-0.283277	-0.936878	-2.41812	6.01067	8.39996	0.0329242	0.00626139	0.000558422	-0.164551	-0.536133	-0.993896	-0.531281	0.234018	-0.289708	-0.76095	-6.52555	1.93953	7.12233	0.00750828	0.0100741	-0.00299417	0.584229	-0.539307	-0.754395	-0.0203855	0.0376091	0.540467	-0.840277	-0.341123	-8.94176	4.0615	-0.00464854	0.00157692	-0.00939398	-0.282471	1.09912	-0.495361	0.833427	0.0362592	0.441996	-0.329734	-8.7677	-2.49628	6.94372	0.015994	0.0101887	-0.0163523	0.974854	0.557617	-0.227783	0.240774	-0.0676595	-0.0526657	-0.966787	1.63905	0.729119	10.3527	0.0251086	0.0252963	-0.0135223	-0.496826	0.0869141	-0.992676	0.0596409	-0.0275794	-0.0882181	-0.993932	0.662885	1.8044	10.9408	-0.00421405	0.0166473	-0.0156085	-0.520264	-0.165771	-1.00635	0.097322	-0.0575042	-0.0888279	-0.989612	1.34161	1.82166	10.3806	0.00158867	0.00644188	-0.0161369	-0.585693	-0.203125	-0.997803	-0.186411	0.900276	0.0382786	-0.391522	-6.48055	-3.31998	-5.89322	0.00862974	0.00947757	0.00303123	0.986816	0.458984	0.432129	0.144037	-0.049711	0.056381	-0.986713	0.901476	-1.28494	9.70514	0.00491439	0.00847867	-0.00586074	-0.480225	0.263916	-0.999512	
37	0.308225	0.378362	0.0697823	-0.87004	-7.45061	1.17386	7.49211	0.00287967	0.00337181	0.00387706	0.564697	0.106934	-0.98877	0.194903	-0.0678206	0.0185165	-0.9783	1.26169	-0.66467	10.2688	0.00669483	-0.00300238	-0.0173634	-0.340576	0.208496	-0.905518	0.125717	0.16187	-0.283093	-0.936937	-2.41989	6.06003	8.41352	-0.0229114	0.00699587	4.34648e-05	-0.164795	-0.531982	-0.996338	-0.531298	0.23402	-0.289701	-0.760941	-6.44919	1.81744	7.07551	0.00378845	0.00264347	0.00142828	0.568604	-0.539307	-0.756592	-0.0203927	0.0377183	0.540135	-0.840486	-0.437016	-8.78288	4.03579	0.00740061	0.0123935	-0.0155342	-0.273926	1.10376	-0.504639	0.833441	0.0361975	0.441979	-0.329728	-8.70793	-2.47841	6.91064	-0.000783441	0.0115911	-0.0169406	0.972656	0.559814	-0.22998	0.240725	-0.0673792	-0.0528005	-0.966811	1.57034	0.749153	10.4435	0.0167907	0.0303072	-0.0193438	-0.492432	0.0869141	-0.984131	0.0596258	-0.0276354	-0.0880632	-0.993945	0.63113	1.81324	10.9308	-0.00763085	0.0112889	-0.016213	-0.511475	-0.169922	-1.00635	0.0973045	-0.0575217	-0.0888079	-0.989614	1.35279	1.77998	10.3361	0.00295659	0.00625885	-0.0161468	-0.580811	-0.205322	-1.0022	-0.186468	0.900261	0.0382255	-0.391533	-6.47684	-3.31436	-5.8733	0.0104909	0.00982517	0.00347127	0.980225	0.456543	0.43457	0.144075	-0.0497769	0.0563869	-0.986704	0.910764	-1.25723	9.70341	-0.00118299	0.00468164	-0.00114406	-0.471191	0.263916	-0.994873	
38	0.308134	0.378507	0.0697205	-0.870014	-7.49023	1.20114	7.47328	0.00802219	0.00135202	-0.0051573	0.569092	0.106934	-0.990967	0.194929	-0.0676408	0.0187195	-0.978303	1.07865	-0.617682	9.9369	-0.0228908	0.00742938	-0.0123001	-0.338379	0.210693	-0.905762	0.125824	0.161965	-0.28322	-0.936868	-2.45228	6.04943	8.36087	0.0158178	0.0102269	0.00559717	-0.1604	-0.53418	-0.998535	-0.531423	0.234005	-0.28978	-0.760828	-6.53524	1.84671	7.08601	0.0148371	0.00881393	-0.00431698	0.572998	-0.541504	-0.752197	-0.0203669	0.0376075	0.540332	-0.840365	-0.442334	-8.76365	4.09984	-0.00785206	0.00279779	-0.0184647	-0.275879	1.09692	-0.497803	0.833492	0.0362354	0.441951	-0.329633	-8.72894	-2.52489	6.95321	0.000581286	0.0128869	-0.00883691	0.966309	0.559814	-0.223633	0.240628	-0.0680814	-0.0527182	-0.966791	1.73595	0.684493	10.196	0.0214511	0.0279218	-0.0169864	-0.500977	0.0869141	-0.988525	0.0596283	-0.0276212	-0.0884449	-0.993911	0.593028	1.81113	10.9983	0.0224943	0.0170883	-0.0151014	-0.517822	-0.169922	-1.00391	0.0973191	-0.0574566	-0.0889456	-0.989604	1.3089	1.80678	10.3804	0.0146467	0.0101414	-0.0127565	-0.576416	-0.200684	-1.00464	-0.186419	0.900286	0.0382482	-0.391496	-6.41068	-3.36538	-5.8312	-0.000457532	0.012049	0.00339227	0.984619	0.458984	0.429932	0.144109	-0.049787	0.0564134	-0.986697	0.940619	-1.2828	9.67268	-0.0021534	0.00887087	-0.001611	-0.477783	0.261719	-0.990234	
39	0.308194	0.378452	0.0697727	-0.870013	-7.4637	1.15498	7.50814	-0.00713837	-0.00748931	0.00372835	0.567139	0.102539	-0.984375	0.194986	-0.0679058	0.0185664	-0.978276	1.35073	-0.655736	10.1095	0.00224486	0.000853077	-0.0191058	-0.340576	0.208496	-0.9104	0.125756	0.161852	-0.283149	-0.936918	-2.445	6.0528	8.41652	0.000474993	-0.000861006	-0.00559552	-0.1604	-0.531982	-1.00098	-0.531441	0.233986	-0.289844	-0.760796	-6.53025	1.8736	7.11639	0.00876304	0.00747051	-0.000289794	0.575439	-0.543701	-0.749756	-0.0203177	0.0375132	0.5403	-0.840391	-0.425183	-8.86196	4.03183	0.0007064	-0.000330859	-0.015006	-0.276123	1.10132	-0.5	0.833514	0.0362855	0.441941	-0.329585	-8.7055	-2.5645	6.87541	0.00967809	0.0186661	-0.0111709	0.968262	0.562012	-0.22998	0.24073	-0.0665369	-0.0526527	-0.966876	1.67872	0.725786	10.2492	0.0429116	0.137253	-0.0152896	-0.496338	0.0803223	-0.992432	0.0596172	-0.0275931	-0.0883324	-0.993922	0.637124	1.81308	10.9641	-0.00540548	0.0183798	-0.015671	-0.51123	-0.174316	-1.00854	0.0973105	-0.057444	-0.0888958	-0.98961	1.32099	1.83077	10.3925	0.000820165	0.00635696	-0.0153404	-0.583252	-0.202881	-1.00024	-0.186564	0.900235	0.0382461	-0.391545	-6.44813	-3.3288	-5.86797	0.014053	0.00454878	-4.44253e-05	0.984619	0.458984	0.427734	0.14399	-0.0497721	0.0564455	-0.986713	0.901592	-1.2614	9.69501	-0.000920922	0.00595584	-0.00584088	-0.473145	0.257324	-0.992432	
40	0.308176	0.378499	0.0697369	-0.870001	-7.46308	1.15949	7.49662	0.00420985	-0.0010106	-0.000842331	0.566895	0.109131	-0.984619	0.195058	-0.0678084	0.0186682	-0.978267	1.24544	-0.637109	10.0411	-0.016584	0.00930937	-0.0138197	-0.340332	0.204102	-0.903076	0.125858	0.161886	-0.282782	-0.93701	-2.48734	5.99052	8.36286	-0.0174811	0.00983646	0.000118987	-0.162598	-0.531982	-0.994141	-0.531446	0.233977	-0.289683	-0.760857	-6.47529	1.84568	7.08161	0.00263324	0.00158929	-0.00218839	0.575195	-0.539307	-0.752197	-0.0203537	0.0374216	0.540383	-0.84034	-0.417322	-8.84859	4.09436	-0.00514007	0.00457872	-0.0142803	-0.282715	1.10132	-0.497803	0.833562	0.0363746	0.441906	-0.329502	-8.72197	-2.55544	6.94196	0.00631976	0.00867533	-0.0086245	0.970703	0.557617	-0.22998	0.24083	-0.0650424	-0.0525634	-0.966958	1.53479	0.740063	10.4027	0.0246525	0.0446604	-0.0167226	-0.492432	0.0847168	-0.994873	0.0596366	-0.0277222	-0.0882875	-0.993922	0.651685	1.76246	10.9597	0.0258349	0.00642846	-0.0137704	-0.517578	-0.174316	-1.00391	0.0972951	-0.0575448	-0.0887876	-0.989616	1.3335	1.80436	10.375	-0.000519416	0.0043552	-0.0149304	-0.581055	-0.200684	-1.00244	-0.186539	0.900235	0.0383119	-0.39155	-6.43702	-3.3322	-5.81448	-0.00727153	0.0125971	-0.000688006	0.984619	0.458984	0.43457	0.144026	-0.049774	0.0565076	-0.986705	0.957427	-1.2802	9.6864	0.00274274	0.0131835	-0.0011079	-0.473389	0.263916	-0.98584	
41	0.308112	0.378559	0.0697056	-0.870001	-7.48392	1.18441	7.49187	-3.75411e-05	-0.00304142	-0.00128015	0.560303	0.106934	-0.990967	0.195091	-0.06797	0.0185597	-0.978251	1.24763	-0.667701	10.0703	-0.0109301	0.00988784	-0.0166373	-0.340576	0.210693	-0.9104	0.125856	0.161928	-0.28256	-0.93707	-2.43353	5.93911	8.38435	-0.00302068	0.013569	-0.00270639	-0.162598	-0.531982	-0.998779	-0.531523	0.234086	-0.289521	-0.760831	-6.45575	1.8455	7.08335	-0.00450757	0.00304782	-0.00337258	0.575195	-0.537109	-0.756592	-0.0203554	0.0375942	0.540618	-0.840181	-0.39062	-8.94009	3.98846	-0.00845007	0.0209452	-0.0134504	-0.271729	1.10132	-0.495361	0.833657	0.0364682	0.441705	-0.329518	-8.77172	-2.57213	6.92455	0.013041	0.00708724	-0.0154413	0.966064	0.562012	-0.22998	0.240928	-0.064185	-0.052677	-0.966985	1.52952	0.745519	10.3863	0.0321818	0.0454289	-0.0135537	-0.492432	0.0869141	-0.992676	0.0594377	-0.0273665	-0.0883379	-0.993939	0.613974	1.80446	10.9184	0.00481853	0.0208457	-0.0165895	-0.515625	-0.172119	-1.00146	0.0972698	-0.057571	-0.0886982	-0.989625	1.31337	1.81577	10.3356	-0.00240284	0.00605789	-0.016664	-0.583252	-0.205322	-1.00244	-0.186328	0.900282	0.0384656	-0.391527	-6.41166	-3.32629	-5.86459	-0.00176778	0.00943584	0.000651381	0.987061	0.45459	0.427734	0.144037	-0.0495388	0.0565874	-0.98671	0.889128	-1.31425	9.67166	0.00132513	0.021565	-0.00276427	-0.471191	0.266113	-0.988037	
42	0.308104	0.378532	0.0697668	-0.87001	-7.48245	1.17874	7.46964	-0.0048402	-0.00485386	0.00110647	0.560547	0.100342	-0.982422	0.195104	-0.0680289	0.0185371	-0.978245	1.25692	-0.645734	10.0367	-0.00802183	0.0233716	-0.0171668	-0.338379	0.208496	-0.905518	0.125618	0.161823	-0.282732	-0.937068	-2.45544	6.03558	8.40179	0.0148747	-0.00547836	-0.00953432	-0.171143	-0.533936	-0.996338	-0.531576	0.234208	-0.289536	-0.760751	-6.51522	1.84956	7.13278	-0.00140665	0.0125775	-0.00318297	0.57959	-0.539307	-0.754395	-0.0200728	0.0374832	0.540287	-0.840406	-0.441649	-8.67034	4.03167	0.00503764	-0.0146245	-0.00801563	-0.27832	1.10132	-0.490967	0.833714	0.0367664	0.441662	-0.3294	-8.70261	-2.47775	6.90214	0.00430282	0.0233514	-0.00260788	0.970459	0.559814	-0.22998	0.241034	-0.0636634	-0.0527711	-0.966988	1.52804	0.733987	10.3932	0.0250462	0.0294738	-0.0123148	-0.490234	0.0869141	-0.990479	0.0594295	-0.0274876	-0.0882694	-0.993942	0.625934	1.79355	10.9733	0.0167653	0.00936549	-0.0143153	-0.51123	-0.172119	-1.00391	0.0972645	-0.0575417	-0.0884269	-0.989651	1.31921	1.80039	10.3576	-0.0048571	0.00892036	-0.0141176	-0.585938	-0.196289	-0.998047	-0.186273	0.900278	0.0384685	-0.391564	-6.45638	-3.36602	-5.88133	0.00376123	0.00686373	0.0034623	0.980225	0.45874	0.436768	0.144038	-0.0491967	0.0565807	-0.986728	0.865769	-1.27139	9.68259	-0.00548039	0.0232263	-0.00322607	-0.46875	0.259521	-0.99707	
43	0.308013	0.378535	0.0697919	-0.870039	-7.49584	1.16113	7.47375	0.000817522	-0.00514673	-0.00302659	0.569092	0.109131	-0.986572	0.195211	-0.067873	0.0187918	-0.978229	1.27313	-0.672595	10.0213	-0.0118311	0.0420595	-0.0135783	-0.338379	0.210693	-0.907959	0.125728	0.161918	-0.282374	-0.937144	-2.42979	6.08799	8.41335	-0.0241916	0.0155863	0.00060746	-0.164795	-0.533936	-0.998535	-0.531545	0.234117	-0.289379	-0.760861	-6.49351	1.92599	7.11259	-0.0113253	-0.00486358	0.00463981	0.575195	-0.537109	-0.754395	-0.0200288	0.0374061	0.541076	-0.839903	-0.367368	-9.0576	4.08044	-0.0158548	0.00783382	-0.0185063	-0.282715	1.10571	-0.495605	0.833739	0.0366854	0.441813	-0.329141	-8.76626	-2.57995	6.95618	-0.00583444	0.0147717	-0.00992434	0.975098	0.55542	-0.225586	0.240899	-0.0635754	-0.0530472	-0.967012	1.52173	0.731308	10.3851	0.0203082	0.00828374	-0.0142204	-0.483643	0.0825195	-0.994629	0.0593887	-0.0274976	-0.0881952	-0.993951	0.630268	1.77958	10.9693	0.00159268	0.0160072	-0.0184866	-0.513184	-0.176514	-1.00854	0.0972989	-0.0575114	-0.0883499	-0.989656	1.30647	1.79998	10.3702	0.00371379	0.00734124	-0.0155889	-0.581055	-0.198486	-1.00244	-0.186148	0.900256	0.0385947	-0.391662	-6.46366	-3.34673	-5.86028	-0.00278887	0.0047633	-0.000292451	0.980225	0.456543	0.43457	0.144059	-0.0490429	0.0566289	-0.986729	0.886895	-1.29182	9.6826	0.00358182	0.0136841	-0.00322663	-0.473389	0.261719	-0.99707	
44	0.307985	0.378507	0.0698693	-0.870055	-7.46694	1.16746	7.49055	-0.00622062	-0.00399103	-0.00011621	0.560303	0.106934	-0.990967	0.195255	-0.0679482	0.0187026	-0.978217	1.2292	-0.658445	10.0275	-0.003979	0.00765532	-0.0149259	-0.338379	0.208496	-0.9104	0.125843	0.161941	-0.281961	-0.93725	-2.46209	5.93448	8.31458	-0.0323123	0.0137131	0.00111189	-0.1604	-0.531982	-1.00562	-0.531496	0.234132	-0.289387	-0.760887	-6.44777	1.84585	7.08542	0.0135825	0.0114818	0.000452805	0.575439	-0.541504	-0.756592	-0.0200922	0.0375886	0.540574	-0.840216	-0.414221	-8.88787	4.10412	0.0469384	0.0227907	-0.010545	-0.275879	1.09692	-0.497803	0.833775	0.0367037	0.441659	-0.329255	-8.71764	-2.49209	6.87778	0.00828245	0.00930435	-0.0186052	0.9729	0.557617	-0.223389	0.240877	-0.0644913	-0.0532911	-0.966943	1.5813	0.74853	10.331	0.0147421	-0.0221302	-0.0132394	-0.488281	0.0891113	-0.994873	0.0593648	-0.0274588	-0.0881514	-0.993957	0.612719	1.8017	11.0302	0.000943479	0.0175871	-0.0168195	-0.513428	-0.174316	-1.00146	0.0973051	-0.0575179	-0.0883203	-0.989658	1.33488	1.78337	10.3779	0.00252887	0.00667961	-0.0154297	-0.581055	-0.202881	-1.00244	-0.186186	0.90022	0.0386066	-0.391725	-6.4355	-3.37056	-5.8936	0.00851523	0.00439354	0.000857231	0.980225	0.456543	0.429932	0.144045	-0.0490699	0.0565888	-0.986732	0.920327	-1.30078	9.65599	0.00095286	0.00639486	-0.00556288	-0.473389	0.261719	-0.994873	
45	0.307987	0.378495	0.0698097	-0.870065	-7.45529	1.17681	7.49471	0.00590074	-0.00424717	-0.000474071	0.564697	0.109131	-0.984619	0.195274	-0.0678803	0.0186366	-0.978219	1.29825	-0.667039	10.054	-0.00295745	0.0106745	-0.0175818	-0.34082	0.215088	-0.905762	0.125718	0.161905	-0.282212	-0.937197	-2.41776	5.98102	8.42367	0.024334	-0.00160077	-0.00476214	-0.162598	-0.529785	-0.998779	-0.531612	0.234164	-0.289543	-0.760737	-6.49544	1.95969	7.10041	0.0108277	0.00839496	-0.00242642	0.575439	-0.541504	-0.747559	-0.0198975	0.0374921	0.540588	-0.840216	-0.446346	-8.77117	3.91444	-0.014865	-0.00648475	-0.0119557	-0.278076	1.09912	-0.5	0.833772	0.0367109	0.441726	-0.329173	-8.69859	-2.45509	6.92294	-0.000939719	0.0192965	-0.00980376	0.972656	0.559814	-0.22998	0.240974	-0.0644518	-0.0534499	-0.966913	1.55523	0.721231	10.358	0.0299976	0.0222306	-0.0162672	-0.481201	0.0783691	-0.994629	0.0594476	-0.027448	-0.088204	-0.993948	0.624453	1.7605	10.9325	0.00738202	0.0159686	-0.0130221	-0.513672	-0.167725	-1.00635	0.097318	-0.0575215	-0.0883326	-0.989655	1.3231	1.77206	10.3725	0.00753147	0.0073835	-0.0134748	-0.583252	-0.200684	-1.00464	-0.186137	0.900199	0.0386259	-0.391794	-6.45824	-3.32111	-5.81999	0.00101218	0.00966352	0.000579261	0.980469	0.452148	0.427734	0.14407	-0.0490994	0.056608	-0.986726	0.921	-1.27704	9.6576	-0.00194725	0.00756371	-0.00209587	-0.471191	0.263916	-0.997314	
46	0.307987	0.378492	0.0698365	-0.870064	-7.46059	1.21279	7.50047	-0.00135166	-0.00316884	-0.000905559	0.55835	0.102539	-0.986572	0.195363	-0.0678868	0.0185939	-0.978202	1.277	-0.680926	10.0398	-0.0100776	0.0120663	-0.0138813	-0.338135	0.204102	-0.907715	0.125746	0.161992	-0.282305	-0.93715	-2.43024	6.11144	8.50052	-0.0111285	0.0161818	0.000958776	-0.164795	-0.533936	-0.996338	-0.531546	0.234196	-0.289417	-0.760821	-6.51082	1.89506	7.17979	-0.00979334	0.0020201	0.00551315	0.57959	-0.539307	-0.758789	-0.0197225	0.0373608	0.541299	-0.839768	-0.301407	-8.92367	4.19112	-0.0437225	0.00602548	-0.0149399	-0.276367	1.10571	-0.495361	0.833661	0.0366695	0.442013	-0.329074	-8.76775	-2.5726	6.92176	-0.0052905	0.0186202	-0.00687775	0.970459	0.559814	-0.227783	0.24097	-0.0646268	-0.0535208	-0.966898	1.55151	0.735469	10.3988	0.0192413	-0.00142604	-0.015343	-0.48999	0.078125	-0.992432	0.0594434	-0.0274143	-0.0881564	-0.993953	0.651933	1.80603	10.9326	0.00879286	0.0207689	-0.0149996	-0.515625	-0.174316	-1.00146	0.0973032	-0.0575167	-0.0884912	-0.989643	1.31821	1.79144	10.3895	0.0115146	0.00568693	-0.0162624	-0.583252	-0.200684	-0.998047	-0.186169	0.900214	0.0386178	-0.391746	-6.44942	-3.36114	-5.88051	0.00494492	0.0118155	-0.000782616	0.982422	0.45874	0.429932	0.144203	-0.0491081	0.0565913	-0.986707	0.878565	-1.30821	9.70009	0.00160971	0.00816084	0.00108918	-0.473633	0.266113	-0.992676	
47	0.308079	0.378481	0.0700008	-0.870023	-7.48013	1.15826	7.47072	-0.00649576	-0.00211361	0.00153793	0.566895	0.104736	-0.986572	0.195345	-0.067702	0.0184622	-0.978221	1.22432	-0.662046	10.0167	0.00165688	0.0317237	-0.0216719	-0.338379	0.208496	-0.905518	0.125742	0.161986	-0.281912	-0.93727	-2.4833	5.86818	8.28454	0.00365491	0.00191422	-0.00504539	-0.1604	-0.531982	-1.00317	-0.531572	0.234244	-0.289387	-0.7608	-6.40976	1.78698	7.05588	0.0103489	0.0115855	-0.00397288	0.577393	-0.539307	-0.752197	-0.0198385	0.0376687	0.540419	-0.840318	-0.494335	-8.86787	3.94245	0.0638276	0.0147155	-0.00321752	-0.27832	1.10132	-0.502441	0.833663	0.03672	0.441806	-0.329341	-8.73299	-2.44847	6.9387	0.00492155	0.00926511	-0.0200868	0.972656	0.562012	-0.232178	0.241034	-0.0647555	-0.0539499	-0.96685	1.55972	0.745051	10.3583	0.0354305	0.0159034	-0.0146051	-0.48999	0.0803223	-0.992432	0.0594996	-0.0274121	-0.088043	-0.99396	0.650043	1.76247	11.0267	-0.0113885	0.0106687	-0.0158145	-0.513672	-0.167725	-1.01099	0.097322	-0.0576119	-0.0885954	-0.989626	1.30657	1.76151	10.3885	0.0100298	0.00115931	-0.0139055	-0.578613	-0.200684	-1.00024	-0.186169	0.900214	0.0386178	-0.391746	-6.44942	-3.36114	-5.88051	0.00494492	0.0118155	-0.000782616	0.982422	0.45874	0.429932	0.144215	-0.0491733	0.0566537	-0.986699	0.879164	-1.3054	9.70911	-0.00546697	0.00537848	-0.00313909	-0.475586	0.263916	-0.994873	
48	0.308144	0.378415	0.0700191	-0.870027	-7.48489	1.15976	7.48761	-0.00240863	-0.00420108	0.00167862	0.560303	0.106934	-0.98877	0.195344	-0.0678767	0.0182885	-0.978212	1.25848	-0.669441	10.0162	-0.00444218	0.0100138	-0.0177295	-0.343018	0.212891	-0.905762	0.125531	0.16194	-0.282565	-0.93711	-2.43557	6.13843	8.48102	0.0239545	0.00544108	-0.00550101	-0.162598	-0.53418	-0.998535	-0.53168	0.234364	-0.289608	-0.760603	-6.59437	1.88644	7.12536	-0.000268488	0.0102843	-0.00479224	0.57959	-0.537109	-0.75	-0.0197601	0.0374928	0.541185	-0.839835	-0.405928	-8.77169	4.16183	-0.07331	0.000268994	-0.0258629	-0.280273	1.09912	-0.495361	0.833639	0.036731	0.441938	-0.329223	-8.67218	-2.54463	6.91261	0.00116705	0.0214596	-0.0130571	0.966309	0.557617	-0.227783	0.24108	-0.0646481	-0.0540751	-0.966839	1.5674	0.751841	10.3731	0.0296603	0.0209074	-0.0127404	-0.487793	0.0803223	-0.992432	0.0596199	-0.027015	-0.0884119	-0.993931	0.605482	1.80295	10.9081	0.011277	0.0295868	-0.0122683	-0.515625	-0.172119	-1.00391	0.0973407	-0.0576942	-0.088772	-0.989604	1.30268	1.80693	10.3588	0.00808051	0.00603995	-0.0147241	-0.581055	-0.200684	-0.997803	-0.186312	0.900271	0.0383756	-0.39157	-6.4337	-3.32779	-5.851	0.00690137	0.0113802	2.1384e-05	0.982422	0.456543	0.432373	0.14409	-0.0492639	0.0564837	-0.986722	0.887747	-1.21361	9.68542	-0.00347133	0.00440956	-0.00394452	-0.473633	0.266113	-0.990479	
49	0.308214	0.378381	0.0700864	-0.870012	-7.45847	1.1848	7.48934	-0.00273394	-0.00230421	-0.00212876	0.558105	0.104736	-0.986816	0.195334	-0.0679234	0.0181374	-0.978214	1.21928	-0.628945	10.0358	-0.00796351	0.00554777	-0.019021	-0.336182	0.208496	-0.9104	0.125577	0.162022	-0.282092	-0.937232	-2.46084	6.00113	8.38235	-0.0201892	0.00867706	-0.000484628	-0.164551	-0.536133	-0.996338	-0.531706	0.234262	-0.289454	-0.760675	-6.50058	1.87783	7.05943	0.00245765	-0.00250202	0.00251588	0.575439	-0.541504	-0.754395	-0.0198827	0.0375932	0.541132	-0.839862	-0.402106	-9.11744	3.98873	0.00436571	0.0196157	-0.0197729	-0.278076	1.09912	-0.493164	0.833673	0.0367117	0.441875	-0.329223	-8.73661	-2.54634	6.9527	0.0078252	0.0100453	-0.0128036	0.972656	0.559814	-0.227783	0.241129	-0.0648666	-0.0543695	-0.966795	1.51777	0.777281	10.3984	0.0244573	-0.0129169	-0.0151252	-0.488037	0.0847168	-0.992676	0.0595414	-0.0270881	-0.0883495	-0.993939	0.62641	1.77873	10.9102	0.00467657	0.00872113	-0.0194615	-0.51123	-0.176514	-1.00854	0.0973113	-0.0576315	-0.0887946	-0.989608	1.3373	1.77738	10.3783	0.00900718	0.00864508	-0.0174467	-0.578613	-0.202881	-0.997803	-0.186408	0.900284	0.0384238	-0.39149	-6.45204	-3.28214	-5.88344	0.00991159	0.0157901	-0.00599123	0.980225	0.45874	0.429932	0.144314	-0.0493543	0.0564011	-0.98669	0.913043	-1.26245	9.70687	0.0147071	0.00645608	0.00505214	-0.473389	0.263916	-0.994873	
50	0.308266	0.378285	0.0702566	-0.870021	-7.43748	1.1334	7.48067	-0.00999781	-0.00427729	-0.00110651	0.564697	0.104736	-0.984619	0.195381	-0.0678259	0.0180635	-0.978212	1.3031	-0.585913	10.0657	-0.00271255	0.0196602	-0.0169492	-0.340576	0.210693	-0.9104	0.12548	0.162133	-0.282009	-0.937251	-2.44567	5.94075	8.31581	0.0132236	0.0112482	-0.00909803	-0.1604	-0.531982	-0.994141	-0.531712	0.234231	-0.289348	-0.760721	-6.47451	1.86988	7.07003	-0.00385481	0.00582501	0.00169248	0.57959	-0.534912	-0.754395	-0.020479	0.0375671	0.541159	-0.839831	-0.415731	-8.77396	4.00748	-0.000570921	0.010624	-0.019231	-0.271484	1.09692	-0.493164	0.833632	0.0368741	0.441965	-0.329188	-8.75876	-2.46299	6.91894	0.000320979	0.0236417	-0.0125749	0.966309	0.559814	-0.223633	0.24127	-0.0650087	-0.0545508	-0.96674	1.549	0.807478	10.4373	0.0206954	0.0172089	-0.00706377	-0.491943	0.078125	-0.992432	0.0595146	-0.0272519	-0.0884575	-0.993927	0.623671	1.87913	10.9898	-0.00295514	0.0111222	-0.0122515	-0.509277	-0.167725	-1.00635	0.0971617	-0.0574842	-0.0889522	-0.989617	1.33194	1.82296	10.4098	0.00881035	0.00821533	-0.0143839	-0.576416	-0.202881	-0.997803	-0.186754	0.900385	0.038359	-0.391099	-6.44227	-3.34913	-5.86268	0.00971032	0.0145346	-0.00324362	0.97998	0.460938	0.429932	0.144355	-0.0493634	0.0564689	-0.986679	0.86174	-1.26225	9.66632	-0.00534212	0.00960852	-0.000601912	-0.471191	0.261719	-0.992676	
51	0.308084	0.378309	0.0701674	-0.870083	-7.46791	1.18493	7.48768	0.0107933	-0.00488086	-0.00706697	0.566895	0.109131	-0.986816	0.195352	-0.067974	0.0180332	-0.978209	1.19946	-0.719501	10.116	-0.011785	-0.00774964	-0.0181242	-0.344971	0.208496	-0.907959	0.12537	0.161982	-0.282363	-0.937185	-2.42849	6.12644	8.43857	-0.00456483	-0.00377759	0.00379257	-0.162598	-0.531982	-0.998779	-0.531864	0.23416	-0.2896	-0.76054	-6.51227	1.87409	7.15182	0.0194662	0.0071956	-0.0033237	0.573242	-0.545898	-0.75415	-0.0207155	0.0375845	0.540862	-0.840016	-0.403973	-8.87278	4.11371	0.0140854	0.00943048	-0.01546	-0.278076	1.09692	-0.493164	0.833631	0.0369063	0.442035	-0.329094	-8.79783	-2.57478	6.97781	-2.94859e-05	0.0202118	-0.00751659	0.9729	0.557617	-0.225586	0.241342	-0.0652149	-0.054748	-0.966697	1.57163	0.757116	10.3788	0.0275564	0.0081127	-0.0136664	-0.492188	0.0825195	-0.994629	0.059573	-0.0271283	-0.0881474	-0.993954	0.597831	1.7925	10.9501	-0.0125548	0.0189144	-0.0152737	-0.517822	-0.172119	-1.00635	0.0971487	-0.0575749	-0.0886395	-0.989642	1.33062	1.84563	10.3636	-0.00841693	0.0036283	-0.015277	-0.578613	-0.200684	-0.997803	-0.186745	0.900383	0.0383852	-0.391105	-6.47141	-3.32209	-5.84356	0.00337681	0.00941697	0.000584754	0.978271	0.454346	0.432373	0.144313	-0.0494921	0.0566237	-0.98667	0.87104	-1.27158	9.66481	0.00368153	0.000850141	-0.00388477	-0.478271	0.270508	-0.997314	
52	0.307984	0.378313	0.0701575	-0.870117	-7.47771	1.15133	7.50748	-0.00114443	-0.00405533	-0.00415551	0.566895	0.106934	-0.982422	0.195404	-0.0676645	0.0181845	-0.978217	1.14961	-0.62135	9.95594	-0.0146281	0.0534877	-0.0119139	-0.338379	0.206299	-0.910156	0.12546	0.162006	-0.282015	-0.937273	-2.38257	5.94924	8.46172	-0.0264681	0.01254	0.000107489	-0.1604	-0.531982	-0.998779	-0.531823	0.234145	-0.289574	-0.760584	-6.51213	1.92196	7.11421	-0.000125816	0.00400094	0.00466704	0.575195	-0.539307	-0.754395	-0.0208539	0.0376143	0.540771	-0.84007	-0.439381	-8.83771	3.98221	0.00847763	0.0157671	-0.024102	-0.273682	1.09912	-0.495361	0.833426	0.0365176	0.44245	-0.329099	-8.77284	-2.52217	6.93173	-0.013184	0.0207034	-0.013915	0.968506	0.557617	-0.223389	0.241404	-0.0649463	-0.0546598	-0.966705	1.44037	0.758754	10.4919	0.00721561	0.00435966	-0.0143032	-0.492188	0.0803223	-0.990479	0.0594296	-0.0273611	-0.088115	-0.993959	0.615308	1.78402	10.8922	0.000488462	0.00937121	-0.0206075	-0.515625	-0.172119	-1.00854	0.0971106	-0.057532	-0.08838	-0.989671	1.30316	1.76509	10.336	-0.000160037	0.0104649	-0.0167431	-0.581055	-0.202881	-0.997803	-0.186848	0.90035	0.0384147	-0.391129	-6.43854	-3.34667	-5.87287	0.00408019	0.00241053	-0.00113017	0.986816	0.458984	0.427734	0.144444	-0.0497986	0.0566835	-0.986632	0.914683	-1.30791	9.70935	0.000487871	-0.00168802	0.000813055	-0.471191	0.261719	-0.992676	
53	0.307891	0.378304	0.0701594	-0.870153	-7.48595	1.19926	7.4743	0.00303916	-0.00505473	-0.00773227	0.560303	0.104736	-0.984619	0.195449	-0.0681401	0.0182384	-0.978174	1.26605	-0.671756	10.0868	-0.0216551	-0.0216999	-0.0136364	-0.344971	0.210693	-0.90332	0.125508	0.162028	-0.282039	-0.937256	-2.43355	6.03662	8.41454	-0.0103439	0.00500598	0.00337816	-0.1604	-0.531982	-0.998779	-0.531659	0.234092	-0.289628	-0.760694	-6.46719	1.92938	7.12704	-0.00886637	0.00342877	0.00420797	0.575439	-0.541504	-0.752197	-0.0209742	0.0377152	0.540563	-0.840196	-0.398929	-8.82295	4.0705	-0.00832339	0.0125467	-0.0212459	-0.276123	1.10132	-0.497803	0.833422	0.0365153	0.442493	-0.32905	-8.71498	-2.52498	6.83561	4.66327e-05	0.0176179	-0.012192	0.968506	0.557617	-0.223389	0.241411	-0.0638124	-0.0545685	-0.966784	1.64578	0.751074	10.3127	0.0295089	0.118689	-0.0199661	-0.479248	0.0825195	-0.994629	0.0594632	-0.0273792	-0.0880862	-0.993959	0.614435	1.77327	10.9805	0.00298394	0.0133797	-0.0136185	-0.504883	-0.172119	-1.01099	0.0971099	-0.0575116	-0.0883961	-0.989671	1.31259	1.74688	10.3891	0.00616688	0.00874701	-0.0151267	-0.576172	-0.205078	-1.0022	-0.186882	0.900312	0.0384279	-0.3912	-6.42997	-3.38363	-5.83038	0.00664913	0.00375575	-0.000299772	0.984619	0.458984	0.432129	0.144487	-0.0498802	0.0566559	-0.986623	0.931333	-1.31042	9.66361	0.0011643	0.00262168	-0.00120731	-0.475586	0.263916	-0.994873	
54	0.307887	0.378165	0.0702462	-0.870208	-7.43369	1.10901	7.49514	-0.0018815	-0.00794848	-0.00435521	0.558105	0.104736	-0.984619	0.195224	-0.0679912	0.0184076	-0.978226	1.29695	-0.662029	10.048	-0.0109031	0.0152509	-0.0173692	-0.344971	0.212646	-0.9104	0.125752	0.162117	-0.281418	-0.937394	-2.44732	5.91774	8.37484	-0.0210191	0.0209064	0.00396357	-0.164795	-0.527588	-0.998779	-0.531629	0.234132	-0.289496	-0.760753	-6.45709	1.86036	7.12463	-0.00626511	0.0092504	0.00358239	0.577637	-0.543701	-0.756348	-0.0213352	0.0377096	0.540473	-0.840245	-0.338434	-8.97	4.10837	0.00438468	0.0114077	-0.0204224	-0.275879	1.09473	-0.5	0.833457	0.0365526	0.442313	-0.329199	-8.80198	-2.59684	6.93238	0.0245638	0.00621526	-0.0206175	0.974854	0.559814	-0.234375	0.24145	-0.0624217	-0.0544795	-0.96687	1.48874	0.79586	10.4297	0.0285865	0.0397739	-0.0185259	-0.487793	0.0803223	-0.996826	0.059525	-0.0274318	-0.0879957	-0.993962	0.662596	1.81812	10.9675	0.00985996	0.0132274	-0.014387	-0.515381	-0.176514	-1.00391	0.0971282	-0.0574526	-0.088518	-0.989661	1.32775	1.86241	10.4207	0.00968216	0.0084794	-0.0159156	-0.578613	-0.200684	-0.997803	-0.187008	0.900303	0.0383501	-0.391168	-6.46672	-3.3638	-5.81121	0.00374488	0.0115719	0.00237694	0.982666	0.452148	0.432373	0.1445	-0.0499536	0.0568105	-0.986609	0.960305	-1.31557	9.67885	-0.0131174	0.0057218	-0.00264834	-0.475586	0.263916	-0.994873	
55	0.307853	0.378165	0.0702864	-0.870217	-7.48042	1.15312	7.47903	-0.0039784	-0.00342563	-0.0001532	0.569092	0.109131	-0.982422	0.195262	-0.067853	0.0182163	-0.978232	1.25547	-0.679371	10.0876	0.00753564	0.0233307	-0.0149368	-0.336426	0.210693	-0.912842	0.125768	0.162151	-0.281266	-0.937432	-2.45261	5.96009	8.39246	-0.00129681	0.00305703	-0.00317091	-0.164795	-0.529785	-0.998779	-0.531637	0.234324	-0.289622	-0.76064	-6.46215	1.86161	7.05718	-0.00167275	0.0120668	-0.00505575	0.575439	-0.541504	-0.752197	-0.0210924	0.0378314	0.540287	-0.840365	-0.415692	-8.78285	3.86107	-0.0125732	-0.00635115	-0.0132416	-0.280518	1.10132	-0.497803	0.833571	0.0366421	0.441963	-0.329371	-8.66483	-2.39233	6.86882	-0.00310299	0.00803574	-0.0145052	0.968506	0.557617	-0.22998	0.241514	-0.0618631	-0.054558	-0.966885	1.46092	0.77353	10.3819	0.0274895	0.0390844	-0.0160782	-0.481445	0.0847168	-0.994873	0.059524	-0.027411	-0.0880169	-0.993961	0.607774	1.83655	10.9862	-0.00920685	0.0162932	-0.0160811	-0.515625	-0.169922	-1.00635	0.0970839	-0.0575625	-0.0882978	-0.989679	1.30201	1.82616	10.3728	-0.00903746	0.00160904	-0.016374	-0.576416	-0.200684	-0.997803	-0.186778	0.900361	0.0382878	-0.391149	-6.43958	-3.34818	-5.82788	-0.00541731	0.00666749	0.00620527	0.984863	0.456787	0.432373	0.144311	-0.0497873	0.0567592	-0.986648	0.945037	-1.29263	9.65214	-0.00127908	0.0102506	-0.00642831	-0.468994	0.263916	-0.992676	
56	0.307861	0.37819	0.0702891	-0.870203	-7.49009	1.18655	7.51412	-0.000226983	-0.00312843	-0.00189205	0.566895	0.104736	-0.982422	0.195313	-0.0678987	0.0181238	-0.97822	1.20767	-0.60637	10.07	-0.0108237	0.0138746	-0.0192577	-0.340576	0.210693	-0.905762	0.125872	0.162238	-0.28137	-0.937372	-2.48575	6.04896	8.44951	0.00319495	0.00912119	0.00407144	-0.1604	-0.531982	-0.996338	-0.531753	0.234317	-0.28967	-0.760543	-6.53969	1.84005	7.13139	0.0104473	0.00638304	-0.00934046	0.575195	-0.539307	-0.75	-0.0208187	0.0375666	0.54045	-0.840279	-0.441333	-8.82069	3.94656	-0.015416	-0.0218712	-0.0100118	-0.275879	1.09692	-0.497803	0.833719	0.0364877	0.442108	-0.328819	-8.75529	-2.62781	6.94919	-0.00824614	0.0122449	0.00112453	0.972656	0.562012	-0.221436	0.241508	-0.0617997	-0.0546542	-0.966885	1.47251	0.7757	10.3911	0.0270717	0.0175067	-0.0176885	-0.483398	0.0761719	-0.996582	0.0595209	-0.027413	-0.0880674	-0.993957	0.620666	1.73219	10.9407	0.0117619	0.0164376	-0.015395	-0.515625	-0.172119	-1.00635	0.0970471	-0.0575736	-0.0883035	-0.989682	1.30852	1.75302	10.3469	0.0109763	0.00823264	-0.0166357	-0.578613	-0.205078	-1.00464	-0.186651	0.900402	0.0383	-0.391115	-6.41847	-3.27016	-5.83625	-0.0056633	0.0131761	0.00385135	0.97998	0.465332	0.432129	0.144403	-0.0494418	0.0565362	-0.986665	0.885764	-1.25943	9.69749	0.0169638	0.0262296	0.00177868	-0.471191	0.266113	-0.992676	
57	0.308025	0.378129	0.0703591	-0.870166	-7.46975	1.14165	7.49236	-0.00567047	-0.0058162	0.00704149	0.569092	0.106934	-0.982422	0.195323	-0.0679645	0.0181003	-0.978214	1.26524	-0.627111	10.0816	-0.0117085	0.0220394	-0.015647	-0.340576	0.206299	-0.910156	0.125928	0.162328	-0.280935	-0.937479	-2.44411	6.05369	8.42893	-0.0163354	0.00869604	-0.00250709	-0.164795	-0.529785	-1.00342	-0.531723	0.234408	-0.28946	-0.760616	-6.49173	1.81284	7.07832	-0.0100758	0.00513895	0.00514851	0.575439	-0.541504	-0.754395	-0.020879	0.0376995	0.540567	-0.840196	-0.374521	-8.98941	3.95749	0.0366204	0.0107226	-0.0188021	-0.273682	1.09692	-0.493164	0.833752	0.0365281	0.442004	-0.328872	-8.74823	-2.53626	6.92222	0.00604892	0.0128764	-0.0185693	0.974854	0.557617	-0.225586	0.241485	-0.0617003	-0.054858	-0.966886	1.47808	0.798287	10.4046	0.0226481	0.0104456	-0.0167873	-0.48584	0.0825195	-0.996826	0.0595642	-0.0272916	-0.0885382	-0.993916	0.615969	1.84029	10.9555	0.016059	0.0179607	-0.0149592	-0.515625	-0.172119	-1.00635	0.0970047	-0.0575189	-0.0883053	-0.989689	1.30734	1.78312	10.3605	0.00302466	0.00851213	-0.0157172	-0.576416	-0.202881	-1	-0.186513	0.900471	0.0384161	-0.391011	-6.45859	-3.35599	-5.87847	0.00318423	0.00540235	-0.00122573	0.984863	0.456787	0.429932	0.144529	-0.049186	0.0566667	-0.986651	0.844727	-1.29617	9.69808	-0.00233732	0.016685	-0.000214508	-0.46875	0.259521	-0.994873	
58	0.307994	0.378185	0.0702067	-0.870165	-7.47875	1.13882	7.47848	0.0101478	-0.00221288	-5.19962e-05	0.564697	0.106934	-0.984619	0.195221	-0.0675707	0.0181935	-0.97826	1.17755	-0.599031	10.0256	-0.0132241	0.0232196	-0.0229141	-0.336182	0.208496	-0.915039	0.125749	0.162216	-0.281204	-0.937442	-2.46265	5.92636	8.37663	0.0220184	-0.0048046	0.000280758	-0.164795	-0.529785	-0.994141	-0.531833	0.234287	-0.289788	-0.760451	-6.45801	1.87752	7.09065	0.0284371	0.00915361	-0.00464322	0.581787	-0.534912	-0.752197	-0.0207198	0.0377429	0.540643	-0.840149	-0.465147	-8.69444	4.08889	-0.0324201	0.00713372	-0.0155571	-0.280273	1.09692	-0.495361	0.833712	0.0366658	0.441969	-0.329003	-8.69739	-2.48592	6.98052	0.00228864	0.013126	-0.0178565	0.974854	0.557617	-0.227783	0.241503	-0.0626538	-0.0549808	-0.966813	1.46898	0.797877	10.3762	0.0154807	-0.0302911	-0.0132417	-0.494141	0.0759277	-0.992432	0.0595539	-0.0272656	-0.0883685	-0.993932	0.647562	1.80143	10.9423	0.0130323	0.0252049	-0.0140756	-0.515625	-0.172119	-1.00391	0.0970001	-0.057514	-0.0883818	-0.989683	1.30286	1.82112	10.3729	0.0140554	0.0039487	-0.0166741	-0.578857	-0.196045	-1.00244	-0.186554	0.900423	0.0384042	-0.391103	-6.44132	-3.27362	-5.83834	0.00382738	0.0104932	0.00200665	0.986816	0.458984	0.432129	0.144419	-0.0492171	0.0566992	-0.986664	0.91826	-1.26653	9.61526	-0.0045833	0.00594811	-0.00911376	-0.46875	0.259521	-0.99707	
59	0.307906	0.378223	0.0700233	-0.870194	-7.44285	1.24437	7.49663	0.00465821	-0.00536607	0.00149279	0.564941	0.100342	-0.980225	0.19522	-0.0675958	0.0181319	-0.978259	1.38178	-0.708904	10.0474	0.00465121	0.0175504	-0.0159409	-0.335938	0.204102	-0.912598	0.125768	0.162267	-0.281133	-0.937452	-2.40659	6.06643	8.46022	-0.012021	0.0114328	-0.00396206	-0.158203	-0.53418	-0.998535	-0.531912	0.234199	-0.28976	-0.760434	-6.58602	1.90047	7.06218	0.00465888	-0.000420434	0.00168795	0.577637	-0.541504	-0.752197	-0.0208038	0.0377045	0.540984	-0.83993	-0.406836	-8.92105	4.00247	-0.0325062	0.00884481	-0.0248721	-0.280518	1.10132	-0.5	0.833737	0.0364762	0.442064	-0.328832	-8.71566	-2.47248	6.93913	-0.0115396	0.0191987	-0.0097078	0.975098	0.557617	-0.221436	0.24148	-0.0632909	-0.0552288	-0.966763	1.58375	0.810238	10.3627	0.028568	0.00600578	-0.0123188	-0.48999	0.0825195	-0.994629	0.0596241	-0.0270791	-0.0885868	-0.993914	0.638218	1.81968	10.9914	0.00890083	0.0207327	-0.0151294	-0.50708	-0.169922	-1.00171	0.0970579	-0.0575907	-0.0885343	-0.989659	1.33756	1.82571	10.3852	0.00599488	0.00187603	-0.0168201	-0.578613	-0.200684	-0.997803	-0.186459	0.900406	0.038633	-0.391165	-6.47226	-3.29052	-5.87797	0.0015647	0.00394512	-0.00799168	0.982422	0.456543	0.429932	0.144592	-0.0492368	0.0566062	-0.986643	0.908856	-1.21099	9.71454	0.00177931	0.00840553	0.00676504	-0.471191	0.261719	-0.999512	
60	0.307891	0.378151	0.0702787	-0.87021	-7.44739	1.17617	7.49901	-0.012516	-0.000884284	-0.00743903	0.564697	0.106934	-0.984619	0.195286	-0.0673827	0.0181111	-0.978261	1.2221	-0.594789	10.054	-0.00504728	0.0309913	-0.0121208	-0.334229	0.210693	-0.907959	0.125749	0.162321	-0.280933	-0.937505	-2.43924	6.00437	8.44122	-0.0133518	0.0112045	-0.00615819	-0.162842	-0.525391	-1.00562	-0.531884	0.234115	-0.28937	-0.760628	-6.43963	1.83168	7.08896	-0.00798817	-0.00687621	0.00143803	0.575195	-0.537109	-0.756592	-0.0210351	0.0376855	0.540701	-0.840107	-0.381578	-8.81436	4.04959	0.0133324	0.0079868	-0.0156688	-0.278076	1.09692	-0.497803	0.833709	0.0366676	0.442178	-0.328731	-8.73295	-2.55131	6.88397	0.00851773	0.0208301	-0.0091016	0.977051	0.557617	-0.22998	0.241515	-0.0635971	-0.0552983	-0.96673	1.54445	0.766188	10.386	0.0135027	-0.00122455	-0.013375	-0.491943	0.0759277	-0.990234	0.0596609	-0.0270399	-0.0882621	-0.993941	0.619418	1.78127	10.9077	-0.00922927	0.0140687	-0.0154719	-0.513428	-0.172119	-1.00635	0.0970722	-0.057703	-0.0884944	-0.989655	1.3274	1.80688	10.3303	0.00232872	0.00405905	-0.0141445	-0.576172	-0.205078	-0.997803	-0.186716	0.900381	0.0387539	-0.391086	-6.44481	-3.39959	-5.80748	0.0139839	0.017467	-0.00619621	0.982422	0.456543	0.43457	0.144827	-0.0491633	0.0569147	-0.986595	0.947065	-1.31638	9.66615	-0.013889	0.015856	0.00230504	-0.475586	0.261719	-0.994873	
61	0.30778	0.378131	0.0705048	-0.87024	-7.47007	1.13569	7.49029	-0.00437191	-0.00102316	-0.00748583	0.566895	0.106934	-0.982422	0.195312	-0.0675119	0.0183496	-0.978243	1.26886	-0.64917	10.0395	-0.0156288	0.0133558	-0.0180468	-0.340576	0.210693	-0.900879	0.125846	0.16232	-0.280384	-0.937657	-2.47259	5.90463	8.34151	-0.0112052	0.00379756	-0.00168676	-0.162598	-0.529785	-0.996582	-0.532034	0.233947	-0.289486	-0.76053	-6.4864	1.83488	7.10538	0.0206837	0.00520721	-0.00054738	0.577393	-0.539307	-0.756592	-0.0209767	0.0375898	0.541251	-0.839759	-0.426002	-9.00484	3.99723	-0.00859331	-0.000573794	-0.013904	-0.273682	1.09912	-0.495361	0.833733	0.0366331	0.442345	-0.328448	-8.7877	-2.54354	6.90822	0.00023185	0.0171992	-0.00898836	0.974854	0.559814	-0.227783	0.241546	-0.0636666	-0.0553516	-0.966715	1.54251	0.786926	10.3345	0.0256095	0.0248969	-0.014383	-0.48999	0.0803223	-0.990479	0.0597052	-0.0269809	-0.0884342	-0.993925	0.621421	1.77657	10.9889	0.019468	0.0186069	-0.0136597	-0.515625	-0.172119	-1.00391	0.0970773	-0.0576751	-0.0885563	-0.98965	1.33385	1.7853	10.3646	0.00983177	0.00865328	-0.0144267	-0.578613	-0.202881	-0.995605	-0.186751	0.900407	0.0387866	-0.391007	-6.46292	-3.36803	-5.85458	0.00585919	0.0161082	-0.0030925	0.982422	0.460938	0.432129	0.144816	-0.0491438	0.0570405	-0.98659	0.838403	-1.32039	9.69084	-0.00109744	0.00725329	-0.00537573	-0.471191	0.263916	-0.994873	
62	0.307737	0.378141	0.0705615	-0.870246	-7.47416	1.13108	7.52011	-0.00026883	-0.00214671	-0.000759266	0.564697	0.106934	-0.986572	0.19507	-0.067346	0.0184651	-0.9783	1.24518	-0.671432	10.0502	-0.00869355	0.0154864	-0.0183949	-0.334229	0.210693	-0.907959	0.125745	0.162237	-0.280692	-0.937592	-2.47502	6.04326	8.47215	0.00185874	0.00653635	-0.000120958	-0.156006	-0.53418	-0.994141	-0.53204	0.233859	-0.289504	-0.760546	-6.48278	1.87838	7.10664	0.00643028	0.0021515	0.00220373	0.577393	-0.539307	-0.754395	-0.020989	0.0377395	0.541093	-0.839853	-0.428907	-8.8033	4.03088	-0.00477492	0.018866	-0.0180077	-0.278076	1.09912	-0.493164	0.833706	0.0365965	0.442395	-0.328454	-8.71339	-2.4334	6.90531	-0.00422588	0.0216216	-0.016594	0.970215	0.566162	-0.228027	0.241575	-0.063629	-0.0554317	-0.966706	1.52773	0.797457	10.4272	0.0168966	0.00224971	-0.0150363	-0.487793	0.0803223	-0.996826	0.0596568	-0.0271657	-0.0883501	-0.99393	0.629816	1.79112	10.9392	-0.00820646	0.0138182	-0.015581	-0.513428	-0.172119	-1.01099	0.0970663	-0.0576572	-0.0885117	-0.989656	1.31524	1.77145	10.3406	0.00458302	0.00749477	-0.015555	-0.583252	-0.202881	-1.00024	-0.186909	0.900344	0.0388474	-0.391072	-6.45234	-3.3503	-5.86479	0.00773884	0.00676754	-0.00117808	0.982422	0.456543	0.43457	0.144895	-0.0493673	0.0570913	-0.986564	0.873285	-1.30437	9.68662	-0.00523638	-0.00160715	0.00103432	-0.473145	0.259521	-0.990234	
63	0.307742	0.37817	0.0705436	-0.870233	-7.47448	1.13113	7.48391	0.00180772	-0.00167312	0.00131249	0.5625	0.109131	-0.986816	0.195129	-0.0673426	0.0183334	-0.978291	1.24872	-0.614027	10.0082	-0.00618821	0.0093944	-0.0169326	-0.333984	0.206299	-0.907959	0.125722	0.162258	-0.280547	-0.937635	-2.5173	5.93164	8.39165	0.00322382	0.00427116	-0.00348594	-0.1604	-0.531982	-0.998779	-0.532087	0.233819	-0.289549	-0.760509	-6.45047	1.83652	7.08881	0.00933049	0.00451015	-0.00183333	0.575439	-0.545898	-0.751953	-0.0208259	0.0376443	0.540844	-0.840022	-0.428032	-8.80911	4.06109	0.0212712	-0.000709979	-0.00850142	-0.278076	1.09912	-0.495361	0.833676	0.0365462	0.442539	-0.32834	-8.77353	-2.55682	6.885	-0.00847637	0.024446	-0.00958471	0.966309	0.55542	-0.229736	0.241561	-0.0639838	-0.0554238	-0.966686	1.53823	0.78205	10.3393	0.0104805	-0.0128621	-0.0150011	-0.487549	0.0761719	-0.992432	0.0596817	-0.027177	-0.0883295	-0.99393	0.615317	1.77052	10.973	0.00295524	0.0137209	-0.0130663	-0.513428	-0.172119	-1.00854	0.0970675	-0.0576376	-0.0885445	-0.989654	1.32118	1.76311	10.3923	0.00754064	0.00857844	-0.0150822	-0.576416	-0.200684	-0.997803	-0.186901	0.900314	0.0388861	-0.391139	-6.40949	-3.36049	-5.85771	0.003875	0.00353249	-0.000220028	0.982666	0.454346	0.430176	0.144933	-0.0494874	0.0570652	-0.986554	0.884083	-1.33382	9.68381	0.000457043	-9.97407e-05	-0.00132974	-0.475586	0.263916	-0.992676	
64	0.307723	0.378182	0.0704219	-0.870244	-7.46482	1.18502	7.48717	0.00454035	-0.00644316	0.00247526	0.5625	0.106934	-0.984619	0.195072	-0.0675072	0.0182636	-0.978292	1.33363	-0.644873	10.0536	-0.0106221	-0.00243596	-0.0203646	-0.338379	0.210693	-0.915039	0.125695	0.162278	-0.280488	-0.937653	-2.41319	5.98249	8.41761	-0.00527898	0.00814271	-0.00517241	-0.162598	-0.527588	-1.00342	-0.532157	0.233801	-0.289583	-0.760453	-6.50743	1.91222	7.08364	0.00260001	0.00582041	-0.000629586	0.574951	-0.534912	-0.752197	-0.02101	0.0375818	0.54141	-0.839656	-0.448483	-8.98673	4.01701	-0.0310874	0.0143377	-0.028101	-0.280273	1.09912	-0.493164	0.833652	0.0365316	0.442556	-0.328383	-8.76521	-2.52758	6.93105	0.00494322	0.0130907	-0.019975	0.975098	0.553223	-0.225586	0.241629	-0.0638687	-0.0556439	-0.966664	1.58277	0.767345	10.346	0.0341348	0.0278289	-0.0132999	-0.488037	0.0825195	-0.996826	0.0597021	-0.0270567	-0.0885102	-0.993916	0.613721	1.77446	10.9376	0.0137328	0.0123523	-0.0156597	-0.515625	-0.174316	-1.0061	0.0970853	-0.0576707	-0.0885781	-0.989648	1.31562	1.7734	10.3603	0.00462801	0.00531181	-0.0151561	-0.573975	-0.200684	-1.00244	-0.187002	0.900281	0.0388758	-0.391168	-6.44723	-3.35319	-5.85291	0.0137324	0.0080018	-0.000614261	0.982422	0.45874	0.427734	0.144935	-0.0495835	0.05704	-0.98655	0.926588	-1.32192	9.69069	0.000816898	0.00209178	-0.00426076	-0.468994	0.263916	-0.99707	
65	0.307737	0.378182	0.0702647	-0.870252	-7.44659	1.1662	7.51003	0.00848896	-0.00300738	-0.000105429	0.560303	0.106934	-0.984619	0.195118	-0.0673028	0.0180139	-0.978302	1.19062	-0.646515	9.91105	0.00739497	0.00917058	-0.0175258	-0.338379	0.208496	-0.9104	0.125649	0.162252	-0.280442	-0.937677	-2.45481	6.02845	8.39773	-0.000378141	0.00573722	-0.00215688	-0.1604	-0.527588	-0.996582	-0.532214	0.233794	-0.28959	-0.760412	-6.48846	1.89252	7.10281	0.00222771	0.00535006	-0.00308895	0.568604	-0.539307	-0.752197	-0.02069	0.0374593	0.541271	-0.839759	-0.429101	-8.75256	3.96399	0.000996035	-0.0120055	-0.00737256	-0.282715	1.10571	-0.5	0.833685	0.0366102	0.442512	-0.328348	-8.69649	-2.44009	6.87496	0.00526355	0.0182259	-0.00842913	0.96875	0.551025	-0.229736	0.241707	-0.0641529	-0.0557436	-0.96662	1.52031	0.79238	10.3559	0.0140867	-0.0112162	-0.0125873	-0.487793	0.078125	-0.994629	0.0597217	-0.0270893	-0.0885864	-0.993907	0.612669	1.86001	10.8755	0.000348007	0.0129051	-0.0153529	-0.51123	-0.172119	-1.00635	0.0970916	-0.0576041	-0.0887081	-0.989639	1.32752	1.83952	10.3526	0.00990691	0.00991791	-0.0153718	-0.573975	-0.200684	-1	-0.187079	0.900253	0.0388444	-0.3912	-6.44998	-3.35041	-5.81836	0.00676535	0.00856777	0.00119527	0.980225	0.45874	0.432129	0.144978	-0.049595	0.0570877	-0.986541	0.910142	-1.29165	9.6614	0.0010042	0.00723578	4.64266e-05	-0.471191	0.261719	-0.994873	
66	0.307777	0.378248	0.0702988	-0.870207	-7.48741	1.17254	7.50048	-0.00502822	-0.000921154	0.00291782	0.5625	0.104736	-0.984619	0.195178	-0.0674029	0.0178502	-0.978286	1.36387	-0.612726	10.0066	-0.0193453	0.0345937	-0.0159498	-0.338379	0.208496	-0.90332	0.125631	0.162181	-0.280666	-0.937625	-2.52638	5.89878	8.42217	0.0189332	0.0045208	0.00155837	-0.162842	-0.525391	-1.00562	-0.532311	0.233769	-0.289683	-0.760316	-6.45663	1.83578	7.1122	0.0124693	0.00617847	-0.00471438	0.577637	-0.541504	-0.747559	-0.0206562	0.0372497	0.541705	-0.839489	-0.308021	-8.98289	4.08416	-0.0110742	0.0110857	-0.0229284	-0.280273	1.09912	-0.490967	0.833744	0.0364045	0.442659	-0.328022	-8.80363	-2.625	6.9054	-0.00267746	0.012453	-0.0110219	0.968262	0.562012	-0.227783	0.241774	-0.0640195	-0.0558728	-0.966605	1.55194	0.791737	10.4651	0.020996	0.0394546	-0.0134227	-0.487793	0.0803223	-0.988281	0.0597122	-0.0271856	-0.0885827	-0.993906	0.646665	1.82511	10.9425	0.00382956	0.00664649	-0.0152684	-0.513672	-0.169922	-1.00635	0.0970602	-0.0575329	-0.0886857	-0.989648	1.32125	1.79017	10.3549	0.00269875	0.0091722	-0.0172756	-0.583252	-0.202881	-1.00464	-0.186942	0.900283	0.0388626	-0.391193	-6.44633	-3.38425	-5.84302	-0.0028072	0.00733686	0.00376411	0.982422	0.460938	0.427734	0.145107	-0.0496288	0.0569933	-0.986526	0.90852	-1.33424	9.70898	0.00918558	0.00771082	1.14749e-05	-0.473389	0.263916	-0.994873	
67	0.307731	0.37826	0.0704293	-0.870207	-7.45917	1.1735	7.49281	-0.00373729	-0.00127057	-0.00211951	0.564453	0.111328	-0.982422	0.195198	-0.0675853	0.0180507	-0.978266	1.30608	-0.691606	10.0693	-0.0128804	-0.00319708	-0.0189089	-0.336182	0.206299	-0.912598	0.12564	0.162076	-0.28087	-0.937581	-2.41823	6.04037	8.44793	-0.00851135	0.00646861	0.00113844	-0.1604	-0.53418	-0.998535	-0.532504	0.233769	-0.289957	-0.760077	-6.52926	1.89473	7.08594	0.00790728	0.0101809	-0.00430047	0.575439	-0.541504	-0.754395	-0.0206753	0.0374542	0.541165	-0.839827	-0.433081	-8.77034	3.96791	0.0121855	0.0084637	-0.00961832	-0.273438	1.09253	-0.490967	0.833815	0.0364171	0.442416	-0.328168	-8.69435	-2.45889	6.93174	0.00715752	0.00684122	-0.0192379	0.972656	0.559814	-0.227783	0.241796	-0.0652901	-0.0559094	-0.966512	1.64879	0.808238	10.2381	0.0177145	-0.00777538	-0.013585	-0.491943	0.0759277	-0.994629	0.0595077	-0.0269296	-0.0885781	-0.993925	0.645906	1.76905	10.9357	-0.00531718	0.0178169	-0.0139699	-0.513428	-0.172119	-1.00635	0.0970389	-0.0575563	-0.0887344	-0.989645	1.33671	1.78438	10.3734	0.00541346	0.00539403	-0.015915	-0.583252	-0.202881	-1.00024	-0.186996	0.900277	0.0387679	-0.391192	-6.43482	-3.30639	-5.85294	0.0116957	0.0123861	0.00378238	0.986816	0.458984	0.425293	0.145028	-0.0497317	0.0569804	-0.986533	0.882569	-1.27278	9.68259	-0.0015136	0.00661609	-0.00904491	-0.469238	0.268311	-0.994873	
68	0.307778	0.378289	0.070407	-0.87018	-7.48543	1.13236	7.48934	0.00408899	-0.00208604	0.000133472	0.5625	0.104736	-0.982422	0.195202	-0.0676574	0.0179075	-0.978263	1.31655	-0.671248	10.0677	-0.000149712	0.00686703	-0.0182709	-0.342773	0.206299	-0.905518	0.125665	0.162083	-0.2807	-0.937627	-2.46986	5.97077	8.4688	-0.0120681	0.0086185	-0.0013397	-0.1604	-0.527588	-0.998779	-0.532582	0.233628	-0.289873	-0.760097	-6.5025	1.89999	7.07609	0.0118576	-0.00283814	-0.000906787	0.572998	-0.539307	-0.75	-0.0207514	0.0374321	0.541119	-0.839856	-0.382766	-8.85909	3.96341	0.00419823	0.00940791	-0.0226407	-0.282227	1.09473	-0.493164	0.833843	0.036526	0.44241	-0.328092	-8.6943	-2.52882	6.8857	0.000374866	0.0171161	-0.00518391	0.970459	0.562012	-0.22583	0.24189	-0.0644573	-0.0558257	-0.966549	1.67371	0.778695	10.2828	0.0273737	0.08137	-0.0120181	-0.48999	0.078125	-0.990479	0.0595515	-0.0268178	-0.088596	-0.993924	0.593368	1.83165	10.9222	0.0066874	0.0237366	-0.0124214	-0.513428	-0.174316	-1.00854	0.0970594	-0.0575855	-0.0887482	-0.98964	1.33054	1.82612	10.3444	0.00570172	0.00690139	-0.0147078	-0.573975	-0.205078	-1	-0.18706	0.900252	0.0387844	-0.391216	-6.45352	-3.33255	-5.81688	0.00780666	0.0100883	-0.00337944	0.982422	0.460938	0.432129	0.145091	-0.0497757	0.0569868	-0.986521	0.941337	-1.28085	9.66052	-0.00267645	0.00966195	0.000239792	-0.466797	0.263916	-0.988037	
69	0.307739	0.378339	0.0703687	-0.870175	-7.46563	1.18536	7.48364	0.00494346	-0.000652636	-0.00113396	0.560059	0.109131	-0.984619	0.195319	-0.067595	0.0179092	-0.978244	1.20641	-0.636179	10.0089	-0.00753988	0.0142886	-0.0102343	-0.338379	0.206299	-0.907959	0.12569	0.161995	-0.280504	-0.937698	-2.41176	6.05753	8.44783	-0.0170471	0.00917755	0.00159246	-0.162598	-0.527588	-0.996582	-0.532591	0.233734	-0.289494	-0.760203	-6.47525	1.85233	7.07214	-0.0238432	0.000894069	-0.000991997	0.575195	-0.537109	-0.756592	-0.0207426	0.0372391	0.54145	-0.839652	-0.395875	-8.82138	4.08046	-0.0287274	-0.00319563	-0.0187784	-0.27832	1.10352	-0.497803	0.83388	0.036774	0.442364	-0.328033	-8.71786	-2.52421	6.89379	0.0182839	0.0169474	-0.000688591	0.977051	0.559814	-0.227783	0.241866	-0.0627385	-0.0558168	-0.966669	1.58297	0.789023	10.3243	0.0232542	0.0477935	-0.0157632	-0.491699	0.0717773	-0.990234	0.0595057	-0.0269724	-0.0887132	-0.993912	0.642074	1.78744	10.9381	0.00845461	0.00705692	-0.0167172	-0.50708	-0.172119	-1.00635	0.0970483	-0.0575835	-0.0887157	-0.989644	1.32093	1.85272	10.3912	0.00203989	0.00698509	-0.0153739	-0.576172	-0.202881	-0.995605	-0.187053	0.90025	0.0388669	-0.391216	-6.42147	-3.36632	-5.77405	0.00181375	0.00885465	-0.00394819	0.984863	0.456787	0.432373	0.145091	-0.0497757	0.0569868	-0.986521	0.941337	-1.28085	9.66052	-0.00267645	0.00966195	0.000239792	-0.466797	0.263916	-0.988037	
70	0.307587	0.378303	0.0704425	-0.870238	-7.4555	1.20282	7.49813	-0.0104008	-0.00493688	-0.00697075	0.5625	0.106934	-0.984619	0.195413	-0.067937	0.0177734	-0.978204	1.3201	-0.606812	10.0601	-0.00909724	0.0122383	-0.0152871	-0.340576	0.210693	-0.905762	0.125813	0.162039	-0.280345	-0.937721	-2.49412	5.95401	8.41973	0.00948031	0.00583924	0.00242312	-0.169189	-0.529541	-0.998779	-0.532603	0.233631	-0.289561	-0.760201	-6.5525	1.89172	7.14422	0.00759436	0.00467894	0.00281652	0.577393	-0.539307	-0.760986	-0.0204583	0.0370888	0.541611	-0.839562	-0.360792	-8.88222	4.05266	-0.0130134	-0.0025384	-0.00472473	-0.276123	1.10132	-0.497803	0.834048	0.036952	0.442198	-0.32781	-8.74068	-2.44228	6.93852	0.0180965	0.00925939	-0.0100555	0.974854	0.557617	-0.227783	0.241713	-0.0630556	-0.0556891	-0.966694	1.38322	0.866875	10.6147	-0.00357664	-0.0462472	-0.0205708	-0.48584	0.0825195	-0.996826	0.0594788	-0.02697	-0.0883478	-0.993946	0.626159	1.81514	11.0087	-0.0137249	0.0190539	-0.0163076	-0.515869	-0.167725	-1.00635	0.096968	-0.0577515	-0.0882535	-0.989683	1.34831	1.74696	10.3279	-0.00774128	0.00228446	-0.0157692	-0.576416	-0.202881	-1	-0.186872	0.900333	0.0389849	-0.3911	-6.44899	-3.33888	-5.91458	-0.00519444	0.0116957	0.00118317	0.977783	0.460938	0.432129	0.144975	-0.0491641	0.0571656	-0.986558	0.844917	-1.2672	9.70646	0.0070533	0.019851	-0.00529262	-0.473389	0.263916	-0.994873	
71	0.307571	0.378307	0.0705858	-0.870231	-7.46671	1.13212	7.49152	-0.00936121	0.000608383	-0.0052157	0.560303	0.104736	-0.98877	0.195393	-0.0677906	0.0179438	-0.978215	1.22725	-0.648884	10.0921	-0.0169618	0.0305126	-0.0187275	-0.335938	0.204102	-0.910156	0.125902	0.16199	-0.280112	-0.937788	-2.41011	5.99551	8.52198	-0.021966	0.0112316	0.00047387	-0.1604	-0.529785	-1.00098	-0.532513	0.233586	-0.289345	-0.76036	-6.52645	1.94391	7.08999	-0.0128282	-0.00717859	0.00967277	0.570801	-0.537109	-0.754395	-0.0204232	0.0371041	0.541604	-0.839566	-0.427728	-8.87297	3.99731	0.00852646	0.0119289	-0.0241346	-0.280273	1.09912	-0.495361	0.834048	0.036952	0.442198	-0.32781	-8.74068	-2.44228	6.93852	0.0180965	0.00925939	-0.0100555	0.974854	0.557617	-0.227783	0.241475	-0.0655737	-0.055568	-0.966593	1.43163	0.812063	10.5516	-0.0405403	-0.179436	-0.0208882	-0.491943	0.078125	-0.990479	0.059457	-0.026886	-0.0884066	-0.993945	0.570843	1.76474	10.89	0.00310864	0.0108418	-0.0172286	-0.513428	-0.172119	-0.999268	0.0969693	-0.0577511	-0.0882206	-0.989686	1.30255	1.76933	10.3216	0.00211177	0.0070733	-0.0146393	-0.581055	-0.200684	-0.993408	-0.186872	0.900333	0.0389849	-0.3911	-6.44899	-3.33888	-5.91458	-0.00519444	0.0116957	0.00118317	0.977783	0.460938	0.432129	0.145025	-0.0490584	0.0572893	-0.986549	0.89151	-1.27672	9.65564	-0.00847989	0.0193541	0.000934518	-0.473633	0.266113	-0.990479	
72	0.307422	0.378259	0.0705254	-0.870309	-7.49552	1.13581	7.47521	0.00808488	-0.0107333	-0.00695144	0.5625	0.106934	-0.986816	0.195426	-0.0668339	0.0184151	-0.978265	1.17071	-0.65228	9.99017	-0.0239427	0.0712524	-0.0149122	-0.338379	0.206299	-0.905518	0.126039	0.16223	-0.280032	-0.937751	-2.51041	5.9811	8.34127	0.0167396	0.0104025	0.00116031	-0.162598	-0.527588	-1.00806	-0.532333	0.233435	-0.288753	-0.760757	-6.49124	1.78773	7.07697	-0.00816785	-0.00941175	0.0106103	0.575439	-0.543701	-0.751953	-0.0203495	0.036969	0.541541	-0.839615	-0.404015	-8.76985	4.0257	0.00573601	-0.00488675	-0.0168331	-0.278076	1.09912	-0.493164	0.833901	0.0373664	0.44234	-0.327946	-8.76637	-2.47953	6.91568	0.00701205	0.0206941	-0.00948781	0.968506	0.557617	-0.231934	0.241085	-0.071912	-0.0550256	-0.96627	1.64544	0.715377	10.3146	-0.0700391	-0.224735	-0.0108897	-0.50293	0.078125	-0.983887	0.0594422	-0.0270823	-0.0885667	-0.993926	0.616034	1.78259	10.9579	0.0102124	0.011703	-0.0143512	-0.511475	-0.169922	-1.01099	0.0969917	-0.0576009	-0.0882483	-0.98969	1.3004	1.7787	10.4217	0.00941259	0.0125353	-0.0150434	-0.580811	-0.205078	-1.00464	-0.18682	0.90042	0.0391312	-0.39091	-6.4188	-3.35157	-5.8453	-0.00248327	0.0121898	-0.00457425	0.986816	0.461182	0.429932	0.145113	-0.048946	0.0573477	-0.986538	0.861244	-1.31854	9.63396	-0.00287167	0.0190962	0.00395706	-0.471191	0.266113	-0.994873	
73	0.307312	0.37825	0.0704553	-0.870358	-7.45792	1.19119	7.47041	0.00824004	-0.00661222	-0.00665829	0.5625	0.106934	-0.984619	0.195471	-0.0666029	0.0185746	-0.978269	1.25522	-0.688841	10.0566	-0.0149972	0.0138821	-0.0180175	-0.338379	0.206299	-0.903076	0.126075	0.162167	-0.280105	-0.937736	-2.47703	5.93233	8.45442	-0.00269803	0.00438725	0.00316853	-0.166992	-0.525391	-1.00122	-0.532202	0.233257	-0.288761	-0.7609	-6.43228	1.85891	7.12846	0.00604559	-0.000314642	0.0101708	0.575195	-0.539307	-0.754395	-0.0204816	0.0368766	0.541875	-0.8394	-0.404994	-8.87132	4.02914	-0.015866	0.0036118	-0.0153605	-0.282471	1.09912	-0.495361	0.833895	0.0372779	0.442405	-0.327884	-8.80052	-2.44645	6.91674	0.00082026	0.0139366	-0.0165157	0.977295	0.553223	-0.229736	0.240811	-0.0780632	-0.0549046	-0.965868	1.82882	0.759789	10.2985	-0.0416198	-0.217355	-0.00828166	-0.516357	0.0910645	-0.97998	0.0594063	-0.0270147	-0.088095	-0.993972	0.616449	1.80016	11.0348	-0.0200099	0.0179319	-0.0166508	-0.509521	-0.165527	-1.00415	0.0969783	-0.0575776	-0.0882889	-0.989689	1.3226	1.78299	10.4058	0.00643951	0.00800044	-0.0141552	-0.574219	-0.198242	-0.997803	-0.187022	0.900423	0.039187	-0.390801	-6.42771	-3.35809	-5.85436	0.00212864	0.00799508	0.000810395	0.982422	0.460938	0.429932	0.14506	-0.0488229	0.0576072	-0.986537	0.879553	-1.37677	9.67894	-0.00161169	0.00643599	-0.00581734	-0.471191	0.261719	-0.994873	
74	0.307193	0.378111	0.0705339	-0.870454	-7.46101	1.1907	7.48924	-0.00249372	-0.00723214	-0.0050489	0.560059	0.109131	-0.984619	0.1955	-0.0661633	0.0187928	-0.978289	1.21248	-0.686057	10.0691	-0.0133509	0.0218523	-0.014027	-0.336182	0.210693	-0.907959	0.126215	0.162257	-0.280075	-0.93771	-2.42042	5.90539	8.41405	0.0032624	0.0148208	0.00239312	-0.162598	-0.527588	-0.996582	-0.532058	0.233222	-0.288553	-0.76109	-6.44908	1.96354	7.09565	-0.00511081	-0.000812807	0.00637577	0.574951	-0.534912	-0.756592	-0.0206259	0.036783	0.541724	-0.839498	-0.424186	-8.7552	3.97377	-0.00558568	0.0067588	-0.0197544	-0.280273	1.09912	-0.497803	0.833881	0.0373293	0.442424	-0.327887	-8.68621	-2.45878	6.89357	-0.000235968	0.017212	-0.0112642	0.974854	0.557617	-0.22998	0.240663	-0.0830874	-0.0546439	-0.965501	1.87506	0.648902	10.2644	-0.0401414	-0.171283	-0.0057712	-0.5271	0.0910645	-0.973633	0.0594559	-0.0271512	-0.0884523	-0.993934	0.640003	1.78571	10.8919	0.0204027	0.00685479	-0.0151249	-0.513672	-0.169922	-1.00854	0.0970227	-0.057583	-0.0883218	-0.989682	1.34667	1.80054	10.3355	0.00613154	0.00976	-0.0137205	-0.581055	-0.198486	-0.995605	-0.186981	0.900415	0.0392277	-0.390836	-6.42881	-3.34643	-5.79996	0.00321051	0.0107069	-0.00081824	0.980225	0.456543	0.432373	0.145132	-0.048902	0.0577465	-0.986514	0.972674	-1.31687	9.64488	-0.0101214	0.00869236	0.000212091	-0.466797	0.268311	-0.997314	
75	0.307222	0.378032	0.0707385	-0.870461	-7.44991	1.13376	7.50193	-0.00875175	-0.0031719	-0.00305517	0.562256	0.111084	-0.982422	0.195569	-0.065896	0.0189195	-0.978291	1.22915	-0.646562	10.021	-0.0188204	0.0146647	-0.0163801	-0.333984	0.208496	-0.907959	0.12629	0.162445	-0.280375	-0.937578	-2.47359	6.02261	8.41641	0.0131361	0.0131445	0.00390938	-0.164795	-0.529785	-1.00342	-0.532005	0.233141	-0.288264	-0.761262	-6.47836	1.84848	7.16683	-0.00608436	-0.00314126	0.00325998	0.575439	-0.541504	-0.756592	-0.0204441	0.0365928	0.541924	-0.839382	-0.35652	-8.88817	3.98778	-0.019491	-0.0135277	-0.0129793	-0.273926	1.10352	-0.495361	0.833889	0.0374051	0.442527	-0.32772	-8.80804	-2.61963	6.90615	0.0105033	0.0184848	-0.0120702	0.970703	0.557617	-0.223389	0.240537	-0.0875372	-0.0544812	-0.965148	1.99707	0.630186	10.3066	-0.0326387	-0.150887	-0.005749	-0.533691	0.0930176	-0.963135	0.0593426	-0.0271494	-0.0880261	-0.993978	0.623856	1.78554	10.9966	-0.0175867	0.0152645	-0.0214987	-0.515869	-0.169922	-1.01099	0.0970047	-0.0575297	-0.0883185	-0.989687	1.32181	1.80422	10.3395	0.00487854	0.0113553	-0.017673	-0.578857	-0.198242	-1.00024	-0.187053	0.900504	0.0391672	-0.390601	-6.44855	-3.41119	-5.89255	0.00856491	0.0200117	0.00136887	0.97998	0.460938	0.429932	0.145224	-0.0488382	0.0578424	-0.986498	0.868547	-1.33962	9.71766	-0.00030658	0.0108872	-0.00348614	-0.466797	0.266113	-0.997314	
76	0.307266	0.377995	0.0708241	-0.870455	-7.47696	1.09411	7.48607	-0.000509684	-0.00381847	0.00314369	0.562256	0.111328	-0.984619	0.195591	-0.065674	0.0189151	-0.978301	1.21801	-0.673474	10.021	-0.00240611	0.0241106	-0.0144939	-0.338379	0.206299	-0.907959	0.126404	0.162419	-0.280479	-0.937536	-2.439	5.94411	8.46758	0.00676755	0.00728118	0.00467342	-0.162842	-0.525391	-1.00342	-0.531879	0.233007	-0.288366	-0.761352	-6.44774	1.91124	7.13095	0.00467009	0.00266133	0.010612	0.568359	-0.534912	-0.75	-0.0205155	0.0366549	0.541941	-0.839366	-0.500084	-8.90723	3.92221	0.00930692	0.00622091	-0.0124037	-0.282471	1.09912	-0.495361	0.833883	0.0375012	0.442296	-0.328034	-8.74645	-2.36684	6.92141	0.00268026	0.00760725	-0.0210007	0.9729	0.557617	-0.227783	0.24043	-0.0911797	-0.0543541	-0.964845	2.02916	0.686053	10.3092	-0.0191114	-0.120308	-0.00769437	-0.540039	0.0930176	-0.960938	0.0593964	-0.0272109	-0.0885283	-0.993929	0.645264	1.80482	10.9684	0.0255749	0.0143491	-0.0121194	-0.515869	-0.167725	-1.01099	0.096835	-0.0573964	-0.0885751	-0.989688	1.32331	1.76991	10.3881	0.0143155	0.00542582	-0.0160639	-0.576416	-0.200684	-0.997803	-0.187137	0.900508	0.0390236	-0.390568	-6.43942	-3.36314	-5.87399	0.00748243	0.00760078	0.0044448	0.977783	0.463135	0.434326	0.145224	-0.0488382	0.0578424	-0.986498	0.868547	-1.33962	9.71766	-0.00030658	0.0108872	-0.00348614	-0.466797	0.266113	-0.997314	
77	0.307273	0.378066	0.0706467	-0.870436	-7.48871	1.17337	7.48425	0.0047796	-0.00379857	0.00243112	0.56665	0.111328	-0.98877	0.195659	-0.0655307	0.0189601	-0.978296	1.1484	-0.621468	10.02	-0.0127803	0.017449	-0.0155555	-0.336426	0.212891	-0.912842	0.126502	0.162562	-0.28069	-0.937435	-2.50785	5.96687	8.34491	0.0135485	0.00961978	0.00451413	-0.169189	-0.527344	-1.00342	-0.531741	0.232964	-0.28824	-0.761509	-6.45729	1.80641	7.11005	-0.00136809	0.00271364	0.0041504	0.568604	-0.539307	-0.756592	-0.0203575	0.0365538	0.541956	-0.839364	-0.330111	-8.8291	4.07902	-0.00588116	0.0123708	-0.0167074	-0.280518	1.10571	-0.493164	0.833898	0.0375257	0.44226	-0.328043	-8.74591	-2.56088	6.90534	0.00671909	0.0103102	-0.0180759	0.9729	0.55542	-0.223389	0.240353	-0.0953159	-0.0543594	-0.964464	2.07517	0.601075	10.2962	-0.0235578	-0.151732	-0.00519481	-0.551025	0.0974121	-0.956787	0.0594156	-0.0271718	-0.0885301	-0.993929	0.573719	1.78189	10.9895	0.00783667	0.00863366	-0.0150926	-0.51123	-0.172119	-1.00635	0.0968766	-0.0573986	-0.0886295	-0.989679	1.31413	1.81736	10.3174	0.00462168	0.00975371	-0.0151518	-0.585693	-0.203125	-0.997803	-0.186997	0.900563	0.0389947	-0.39051	-6.39299	-3.378	-5.86324	0.0050511	0.0186371	0.00337489	0.980225	0.456543	0.429932	0.14514	-0.0489026	0.0577785	-0.986511	0.88657	-1.31422	9.68305	0.00201756	0.00474526	-0.00100557	-0.471191	0.263916	-0.992676	
78	0.307265	0.378031	0.0705892	-0.870458	-7.47766	1.1838	7.48761	0.00405254	-0.00818098	0.000304784	0.560059	0.108887	-0.980225	0.195669	-0.0655083	0.0189721	-0.978296	1.25355	-0.678742	10.0695	-0.0104348	0.0171196	-0.0171636	-0.334229	0.210693	-0.9104	0.126553	0.162581	-0.280815	-0.937387	-2.47215	6.0012	8.42773	0.0126411	0.00904779	0.00467292	-0.1604	-0.531982	-1.00098	-0.531741	0.232964	-0.28824	-0.761509	-6.45729	1.80641	7.11005	-0.00136809	0.00271364	0.0041504	0.568604	-0.539307	-0.756592	-0.0204167	0.0366569	0.541752	-0.83949	-0.418677	-8.97613	4.04849	0.0188012	0.0172587	-0.015279	-0.282471	1.09912	-0.493164	0.833901	0.0374877	0.442171	-0.328159	-8.76463	-2.47799	6.89281	0.00689261	0.00705525	-0.0239181	0.968506	0.557617	-0.223389	0.240343	-0.0974256	-0.0542815	-0.96426	2.17793	0.608342	10.2569	-0.0278011	-0.147593	-0.00256007	-0.548828	0.0952148	-0.95459	0.0593716	-0.027258	-0.0885708	-0.993925	0.650993	1.74548	10.9333	0.00737019	0.00697634	-0.018171	-0.513184	-0.176514	-1.00854	0.0968557	-0.0573628	-0.0886387	-0.989683	1.30164	1.81517	10.3918	0.00566224	0.0102615	-0.0167396	-0.573975	-0.200439	-1.00464	-0.186997	0.900563	0.0389947	-0.39051	-6.39299	-3.378	-5.86324	0.0050511	0.0186371	0.00337489	0.980225	0.456543	0.429932	0.145197	-0.0489482	0.0577711	-0.986501	0.855339	-1.30077	9.70664	8.39342e-05	0.005813	0.000396592	-0.47583	0.266113	-0.992676	
79	0.307248	0.377955	0.0704951	-0.870505	-7.44462	1.1795	7.50813	0.00471332	-0.00683408	-0.0015753	0.5625	0.106934	-0.984619	0.195812	-0.0651466	0.0188187	-0.978294	1.12831	-0.614436	9.96027	0.00826636	0.0232095	-0.0100276	-0.331787	0.204102	-0.912598	0.1265	0.162759	-0.281112	-0.937274	-2.42725	6.0529	8.40483	0.0190498	0.0105317	-0.00199072	-0.164795	-0.525391	-1.00562	-0.531595	0.232924	-0.288246	-0.761621	-6.46041	1.85569	7.12553	0.000445406	0.00440005	0.0083248	0.572998	-0.539307	-0.752197	-0.0201255	0.0364943	0.541749	-0.839507	-0.378052	-8.7517	3.995	-0.0183257	-0.00825871	-0.00960033	-0.280518	1.10132	-0.5	0.833911	0.0375868	0.442104	-0.328212	-8.7321	-2.47651	6.8997	0.00557883	0.0148904	-0.0104924	0.9729	0.557617	-0.22998	0.240393	-0.101294	-0.0541431	-0.963856	2.21838	0.595056	10.2434	-0.0201357	-0.142218	-0.00161928	-0.559814	0.0993652	-0.950439	0.0594053	-0.0271302	-0.0884097	-0.993941	0.637942	1.82136	10.9426	-0.010516	0.0243667	-0.0131914	-0.51123	-0.174316	-1.00854	0.0968904	-0.0573406	-0.0887657	-0.989669	1.32817	1.76342	10.3477	0.0150526	0.0053492	-0.0138275	-0.576416	-0.202881	-1	-0.187105	0.900591	0.0388977	-0.390402	-6.42603	-3.37084	-5.84806	0.00602066	0.00683554	0.00171757	0.982422	0.460938	0.432129	0.145231	-0.0490476	0.0577878	-0.98649	0.876084	-1.32949	9.67976	-0.0010591	0.00566353	-0.00323595	-0.469238	0.268311	-0.999512	
80	0.307195	0.377895	0.0705925	-0.870542	-7.47231	1.1454	7.47953	-0.00373212	-0.00530092	-0.00452175	0.5625	0.109131	-0.986816	0.195917	-0.0652497	0.0192354	-0.978258	1.28389	-0.676651	10.0208	-0.0555002	0.0288773	-0.0105891	-0.332031	0.215088	-0.903564	0.126682	0.16282	-0.28093	-0.937294	-2.52217	5.86439	8.43168	-0.00218033	0.0113891	0.00333064	-0.1604	-0.529785	-1.00098	-0.531442	0.232832	-0.288115	-0.761806	-6.46235	1.82206	7.10047	-0.00410554	-0.00271874	0.00793504	0.566406	-0.541504	-0.760986	-0.0199144	0.0363198	0.542157	-0.839255	-0.315919	-8.77879	4.05332	-0.0396588	-0.0138378	-0.0111157	-0.280273	1.09912	-0.493164	0.833868	0.0376086	0.442184	-0.328213	-8.72728	-2.51958	6.97398	0.00302768	0.0185578	-0.0181593	0.968506	0.557617	-0.223389	0.240488	-0.104756	-0.0540446	-0.963468	2.40158	0.574809	10.1571	-0.0226603	-0.0857707	-0.0010475	-0.570557	0.0993652	-0.944092	0.0594844	-0.0271808	-0.0887093	-0.993908	0.635766	1.78062	10.9276	0.0128797	0.00929149	-0.0141693	-0.51123	-0.174316	-1.01099	0.0969302	-0.0573108	-0.0889089	-0.989654	1.32891	1.8524	10.3674	0.00559572	0.00899828	-0.0157639	-0.57666	-0.196045	-1.00024	-0.187107	0.900583	0.0388621	-0.390424	-6.41516	-3.35649	-5.83617	0.00596859	0.00881563	0.00431705	0.982178	0.463135	0.432129	0.145249	-0.0491923	0.0580116	-0.986467	0.912626	-1.28045	9.63067	-0.0143669	0.00617487	-0.00198147	-0.471191	0.261719	-0.99707	
81	0.307042	0.377857	0.0705721	-0.870614	-7.43806	1.19211	7.51714	0.00240684	-0.00690061	-0.00505328	0.562256	0.111328	-0.989014	0.196119	-0.0652977	0.0193406	-0.978212	1.2796	-0.682781	9.96634	-0.00588978	-0.0165633	-0.00975585	-0.333984	0.204102	-0.910156	0.126824	0.162804	-0.280925	-0.937279	-2.40462	5.9821	8.37979	-0.012177	0.00514568	0.0050564	-0.164795	-0.533936	-0.998535	-0.531386	0.232577	-0.28807	-0.76194	-6.48594	1.86106	7.10493	0.0134091	-0.000405214	0.00957618	0.56665	-0.543701	-0.75415	-0.0200435	0.0362528	0.541978	-0.839371	-0.367341	-8.71387	4.02771	0.00225928	7.49628e-05	-0.0141741	-0.273682	1.09912	-0.493164	0.833869	0.0376389	0.44212	-0.328292	-8.75779	-2.52486	6.87241	0.00388623	0.0129869	-0.015171	0.9729	0.55542	-0.227783	0.240548	-0.107955	-0.0536229	-0.963124	2.38487	0.558945	10.1837	-0.0220211	-0.111313	-0.00417967	-0.570801	0.10376	-0.939941	0.0594026	-0.0273564	-0.0884159	-0.993934	0.653549	1.7973	10.9288	-0.00546337	0.0120311	-0.0169662	-0.513916	-0.16333	-1.00879	0.0969236	-0.057272	-0.0887131	-0.989675	1.35277	1.7801	10.3693	-2.4687e-05	0.00830328	-0.0155205	-0.580811	-0.205322	-0.991211	-0.187379	0.900601	0.0388438	-0.390253	-6.43148	-3.38338	-5.87157	0.0104624	0.00779308	-0.00150929	0.978027	0.45874	0.43457	0.145271	-0.0491748	0.0580191	-0.986464	0.879269	-1.32005	9.69929	-0.000384696	0.00549236	-0.00107874	-0.471436	0.270508	-0.990479	
82	0.307065	0.377797	0.0706248	-0.870628	-7.47167	1.13115	7.50237	-0.00115567	-0.00308689	-0.000286119	0.557861	0.111084	-0.984619	0.196215	-0.0648713	0.0194583	-0.978219	1.20582	-0.613093	10.115	-0.00233535	0.0427485	-0.015298	-0.332031	0.210693	-0.9104	0.126748	0.162777	-0.281046	-0.937258	-2.45578	5.95258	8.42113	0.0122364	0.00233658	-0.00368379	-0.162598	-0.529785	-0.998779	-0.53114	0.232577	-0.287885	-0.762181	-6.42494	1.90257	7.1507	-0.00474149	-0.000340183	0.00883306	0.56665	-0.543701	-0.756348	-0.020152	0.0362011	0.542312	-0.839155	-0.402493	-8.90482	4.00721	-4.58998e-05	0.00578304	-0.0242303	-0.280518	1.10132	-0.493164	0.833777	0.037939	0.442081	-0.328544	-8.72062	-2.51643	6.88852	0.0199753	0.0178901	-0.0192009	0.964355	0.553223	-0.227539	0.240699	-0.109911	-0.0529028	-0.962904	2.34515	0.526889	10.2742	-0.0253127	-0.0600694	0.00170047	-0.577393	0.110107	-0.942139	0.0594844	-0.0274094	-0.0884301	-0.993927	0.649121	1.787	10.9771	0.00528887	0.0109708	-0.0117941	-0.515625	-0.172119	-1.00635	0.0969837	-0.0572615	-0.0887519	-0.989666	1.3203	1.82626	10.3747	0.0056699	0.00673703	-0.0116552	-0.585693	-0.200684	-0.998047	-0.187439	0.90054	0.0388133	-0.390368	-6.42966	-3.37365	-5.78797	0.00781444	0.00857481	0.00331279	0.982422	0.460938	0.429932	0.145225	-0.0493575	0.0581094	-0.986457	0.959525	-1.33009	9.65682	-0.0058491	0.00392382	-0.00800511	-0.473389	0.263916	-0.994873	
83	0.307036	0.377829	0.0707281	-0.870616	-7.49242	1.14897	7.47468	-0.0022714	-0.000562921	-0.00267819	0.5625	0.104736	-0.986572	0.195991	-0.064935	0.0197303	-0.978254	1.16063	-0.688644	10.0418	-0.0167058	0.00745703	-0.0172585	-0.336426	0.212891	-0.912842	0.126718	0.162883	-0.281168	-0.937207	-2.45041	6.02396	8.43137	0.00409776	0.00518757	0.000760086	-0.15625	-0.531982	-0.998779	-0.531136	0.232396	-0.287781	-0.762278	-6.49736	1.89709	7.14504	0.00476256	-0.00254561	0.00524776	0.566406	-0.541504	-0.756592	-0.0200601	0.0363503	0.542043	-0.839325	-0.398157	-8.84326	3.98479	0.0085913	0.0144191	-0.00901888	-0.278076	1.09912	-0.486328	0.833797	0.03816	0.4419	-0.32871	-8.74535	-2.49088	6.89429	0.0153241	0.0100725	-0.0144817	0.9729	0.55542	-0.223389	0.240777	-0.112917	-0.0525649	-0.962555	2.47339	0.517816	10.2107	-0.018163	-0.0964702	-0.00111816	-0.581787	0.10791	-0.940186	0.0594619	-0.0274476	-0.0883181	-0.993937	0.609396	1.77687	10.9357	0.00611824	0.0137958	-0.0184108	-0.52002	-0.169922	-1.00635	0.096968	-0.0573266	-0.0886587	-0.989672	1.31416	1.76513	10.3904	-0.00272551	0.00535001	-0.0171461	-0.576416	-0.200684	-1.00024	-0.18729	0.900636	0.0388667	-0.390214	-6.41595	-3.3177	-5.87202	-0.00498468	0.0114992	3.85416e-05	0.980225	0.460938	0.43457	0.145221	-0.0492705	0.0579667	-0.98647	0.873871	-1.30109	9.70852	0.0111714	0.0148613	-0.00194502	-0.471191	0.266113	-0.997314	
84	0.307076	0.37777	0.0707596	-0.870624	-7.49902	1.16367	7.48944	-0.0043573	-0.00665931	9.01541e-05	0.562744	0.102539	-0.984619	0.196185	-0.0647355	0.0199137	-0.978225	1.15353	-0.630063	10.0519	-0.0178747	0.0188155	-0.0119285	-0.334229	0.210693	-0.9104	0.126602	0.162932	-0.281091	-0.937237	-2.4827	5.96267	8.38805	-0.00383933	0.0117033	-0.00670264	-0.1604	-0.53418	-0.994141	-0.530986	0.232385	-0.287406	-0.762528	-6.40613	1.81456	7.15738	-0.0115407	-0.00321558	0.00787671	0.575439	-0.543701	-0.758545	-0.0199035	0.0362901	0.542324	-0.839149	-0.38924	-8.91837	3.9883	-0.0143945	0.00174494	-0.0122234	-0.282715	1.10352	-0.493164	0.833809	0.0382351	0.441921	-0.328644	-8.78258	-2.50773	6.88958	0.00164383	0.0164648	-0.0113417	0.968506	0.559814	-0.225586	0.240897	-0.115877	-0.0520892	-0.962199	2.44162	0.488604	10.2488	-0.0281331	-0.112621	0.00107786	-0.583984	0.10791	-0.931641	0.0595358	-0.0274467	-0.0884591	-0.99392	0.614134	1.77684	10.9124	0.00101706	0.0126283	-0.0102219	-0.515625	-0.172119	-1.00391	0.0969698	-0.0573375	-0.0885091	-0.989684	1.30877	1.75746	10.3419	0.00114465	0.00554025	-0.014297	-0.57666	-0.196045	-0.99585	-0.187348	0.900689	0.0389391	-0.390056	-6.40841	-3.39736	-5.88053	0.0028237	0.0111466	-0.00368654	0.982422	0.460938	0.436768	0.145424	-0.0489538	0.0580474	-0.986451	0.853462	-1.35735	9.67946	-0.00278171	0.0225001	0.00534085	-0.473633	0.266113	-0.992676	
