40	Head	00b4120a												Throax	00b411e8												LUpArm	00b411d9												LFoArm	00b41148												RUpArm	00b411db												RFoArm	00b41204												Waist	00b411f7												Lthigh	00b411f4												Lshank	00b4111b												Rthigh	00b411c8												Rshank	00b411ee												
PacketCount	q0	q1	q2	q3	accX	accY	accZ	gyrX	gyrY	gyrZ	magX	magY	magZ	q0	q1	q2	q3	accX	accY	accZ	gyrX	gyrY	gyrZ	magX	magY	magZ	q0	q1	q2	q3	accX	accY	accZ	gyrX	gyrY	gyrZ	magX	magY	magZ	q0	q1	q2	q3	accX	accY	accZ	gyrX	gyrY	gyrZ	magX	magY	magZ	q0	q1	q2	q3	accX	accY	accZ	gyrX	gyrY	gyrZ	magX	magY	magZ	q0	q1	q2	q3	accX	accY	accZ	gyrX	gyrY	gyrZ	magX	magY	magZ	q0	q1	q2	q3	accX	accY	accZ	gyrX	gyrY	gyrZ	magX	magY	magZ	q0	q1	q2	q3	accX	accY	accZ	gyrX	gyrY	gyrZ	magX	magY	magZ	q0	q1	q2	q3	accX	accY	accZ	gyrX	gyrY	gyrZ	magX	magY	magZ	q0	q1	q2	q3	accX	accY	accZ	gyrX	gyrY	gyrZ	magX	magY	magZ	q0	q1	q2	q3	accX	accY	accZ	gyrX	gyrY	gyrZ	magX	magY	magZ	
0	-0.990318	0.00874114	-0.135421	-0.0292357	-2.26365	-0.357208	10.6286	0.059332	0.0696208	0.00482373	0.655273	0.00512695	-0.87085	0.485221	0.0361354	-0.873644	0.00116202	8.16679	0.020256	-4.95222	-0.0353948	0.0297647	-0.0277802	-0.947021	-0.211182	0.314209	0.676292	0.304397	-0.587854	0.323109	9.76729	-0.659803	1.81503	0.0262606	0.0137261	0.0321298	-1.12451	-0.296875	-0.297363	0.662244	0.205702	-0.652433	0.305696	9.51245	-1.16622	0.666597	0.236929	0.0371954	-0.0328665	-1.21118	0.0585938	-0.251953	0.739525	-0.0771381	-0.642667	-0.184749	9.52965	2.25898	1.33576	-0.0736675	0.105992	0.0237656	-0.916992	-0.0195312	-0.549805	0.73619	-0.212455	-0.477734	-0.429717	9.51841	2.21477	4.98673	0.00397601	0.0384002	-0.0624626	-0.888916	-0.16748	-0.6604	0.311077	0.0642074	-0.94813	0.0125792	5.71536	-0.00453006	-7.33517	-0.0310709	0.00914777	-0.0148415	-0.841553	-0.200439	0.693848	-0.0283156	-0.0126899	-0.991988	-0.122459	-0.43218	2.13666	-8.18455	-0.0418525	0.0113603	-0.0193922	-0.375	-0.173096	1.04688	0.132519	0.847656	0.511248	0.0504266	-0.382977	2.28721	-8.87198	-0.0187623	0.0159985	-0.0098642	-0.41626	-0.150391	1.0791	-0.0154977	0.0406011	-0.993758	0.102745	-0.29081	-1.83183	-8.89784	0.00862293	0.0194067	0.00024472	-0.404297	0.186768	1.09058	0.032878	0.0361287	0.995991	0.0749409	-0.569106	1.50356	-9.66369	0.0281525	0.0344591	-0.00210087	-0.425293	-0.142578	1.18018	
1	-0.990201	0.00792224	-0.1363	-0.029367	-2.21077	-0.219674	10.8264	0.0706009	0.0743968	0.0222057	0.652832	0.00732422	-0.873047	0.485524	0.0365906	-0.873456	0.00115873	8.36483	0.211335	-5.05435	0.000462093	0.0375675	-0.0332238	-0.947021	-0.208984	0.30957	0.675104	0.307675	-0.586537	0.324877	9.98057	0.18994	1.74864	0.1544	-0.019399	-0.0298992	-1.11572	-0.305908	-0.29248	0.662131	0.206628	-0.651954	0.306339	9.96927	-1.18512	0.748357	0.100143	0.0123008	-0.0195841	-1.21777	0.0585938	-0.25415	0.739566	-0.0815284	-0.641353	-0.187247	10.1714	0.587396	1.55593	-0.18955	0.0430798	0.0187436	-0.915283	-0.0107422	-0.549805	0.736035	-0.212491	-0.477187	-0.430573	9.97164	1.60831	5.39668	0.0203372	0.0371002	-0.059073	-0.884766	-0.165283	-0.671143	0.31098	0.0641215	-0.948166	0.0126744	5.79287	0.000515934	-7.44027	0.0230354	0.00091719	-0.00847207	-0.841553	-0.198242	0.689453	-0.0283458	-0.0125923	-0.991871	-0.123411	-0.428075	2.17243	-8.18753	-0.0270695	0.015254	-0.0204268	-0.373047	-0.168701	1.04663	0.133194	0.847625	0.511069	0.050992	-0.36078	2.31487	-8.87187	-0.0206787	0.00182606	-0.0120699	-0.41626	-0.152832	1.0791	-0.0154454	0.0405754	-0.993751	0.102829	-0.305103	-1.84095	-8.86944	0.00184167	0.0150987	0.00362874	-0.404297	0.182373	1.08838	0.0328444	0.0362413	0.995952	0.0754216	-0.449548	1.61285	-9.75342	-0.0352705	0.0099093	0.00401875	-0.429688	-0.140381	1.17334	
2	-0.989987	0.00688831	-0.137841	-0.0296314	-2.47213	-0.352963	10.5636	0.0474297	0.0637126	0.0124329	0.657715	-0.00366211	-0.868408	0.485835	0.0368092	-0.873275	0.000492307	8.22424	-0.00272235	-4.95791	-0.041466	0.00136114	-0.0253185	-0.948975	-0.213379	0.30957	0.675122	0.307681	-0.586116	0.325592	9.55334	-0.421121	1.91002	0.0224488	0.0222977	0.0123271	-1.12012	-0.303467	-0.297119	0.662022	0.208542	-0.650583	0.308187	9.40144	-1.12038	0.694741	0.126104	0.0363004	-0.0029903	-1.21094	0.0544434	-0.256348	0.739955	-0.0822209	-0.640695	-0.187659	9.57012	1.54166	1.61339	-0.0396222	0.0231452	-0.0196494	-0.911133	-0.00634766	-0.554199	0.736069	-0.211673	-0.477278	-0.430815	9.51535	1.87243	5.17071	-0.0221775	0.0190346	-0.0313138	-0.886719	-0.169678	-0.670898	0.312729	0.0637196	-0.947616	0.0127825	5.68918	0.0563912	-6.88895	0.0192549	0.0761108	-0.00606044	-0.848145	-0.198242	0.687256	-0.0286301	-0.0124484	-0.991787	-0.124034	-0.434109	2.17792	-8.20833	-0.029207	0.00551595	-0.0229587	-0.375	-0.170898	1.05151	0.133586	0.847519	0.511129	0.0511156	-0.391458	2.30762	-8.91008	-0.0277208	-0.00164548	-0.019784	-0.41626	-0.150635	1.0835	-0.0153691	0.0405108	-0.993765	0.102734	-0.304887	-1.84666	-8.89215	-0.00322199	0.016622	0.00537993	-0.406494	0.184326	1.08594	0.0323804	0.0364668	0.99585	0.0768386	-0.486166	1.39886	-9.57025	-0.0254411	0.0226355	0.00489657	-0.429688	-0.144775	1.18018	
3	-0.98984	0.00588816	-0.139093	-0.0288928	-2.79009	-0.174165	10.7227	0.0370436	0.0470741	-0.0256719	0.657959	-0.00585938	-0.870605	0.485814	0.0369795	-0.87328	0.000190647	8.35747	0.274053	-5.05646	-0.0335924	0.00502511	-0.0443442	-0.955811	-0.211182	0.30957	0.673857	0.307831	-0.586795	0.326848	9.20623	-0.282313	1.96282	0.0419789	-0.0148061	0.0489278	-1.12207	-0.307861	-0.29248	0.662225	0.210288	-0.649329	0.309205	9.2293	-1.24384	0.67143	0.132811	0.0198763	-0.033974	-1.20435	0.0566406	-0.251953	0.740145	-0.0839547	-0.639851	-0.189016	9.72385	0.531397	1.664	-0.0887516	0.0278225	0.0163387	-0.91333	-0.00415039	-0.556641	0.735549	-0.212472	-0.477107	-0.4315	9.44223	1.52993	5.22306	-0.0342089	-0.0179183	-0.0499413	-0.884766	-0.165283	-0.671143	0.313645	0.0636509	-0.947312	0.0132521	5.74612	0.116674	-7.06384	0.0532213	0.047955	-0.0061194	-0.8479	-0.202637	0.683105	-0.0287248	-0.0123813	-0.991722	-0.124532	-0.441151	2.19468	-8.17994	-0.0126094	0.00858831	-0.0193394	-0.378906	-0.183838	1.04224	0.134201	0.847406	0.511118	0.0514861	-0.38515	2.33035	-8.86672	-0.0159891	0.00111868	-0.0158988	-0.416016	-0.155029	1.07007	-0.0152777	0.0404726	-0.993781	0.102601	-0.299017	-1.83476	-8.91187	0.00194115	0.0134737	0.00241529	-0.408936	0.186523	1.08838	0.0322248	0.0365043	0.99584	0.0770146	-0.51116	1.67098	-9.65884	-0.0228367	0.00216134	-0.00819576	-0.436279	-0.144775	1.17554	
4	-0.989953	0.00449004	-0.138485	-0.0281838	-2.788	-0.0277393	10.8912	0.0647073	-0.042143	-0.0225884	0.655518	-0.00146484	-0.870605	0.485314	0.0369556	-0.873558	-0.000331864	8.38806	0.143704	-5.07267	-0.0174056	-0.0268098	-0.0247403	-0.944824	-0.213379	0.30957	0.673031	0.307589	-0.587582	0.32736	9.93089	-0.368453	1.89171	-0.0868061	0.0288959	0.0395868	-1.12231	-0.30127	-0.292725	0.661488	0.211707	-0.649151	0.31019	9.79481	-1.36535	0.738316	0.0706849	-0.0218587	-0.000891492	-1.21094	0.0522461	-0.258545	0.740204	-0.0840458	-0.639385	-0.190317	9.65134	1.56153	1.71561	-0.0408523	0.0219607	-0.0417611	-0.913086	-0.00634766	-0.556641	0.734375	-0.215491	-0.476083	-0.433132	9.46324	1.97699	5.06368	-0.154563	-0.00980235	0.00125708	-0.884521	-0.16748	-0.671143	0.314654	0.0632153	-0.947015	0.0126172	5.75822	-0.0369409	-7.25853	-0.0276795	0.0500716	-0.0111336	-0.8479	-0.200439	0.685303	-0.0289035	-0.0123268	-0.991665	-0.124953	-0.437024	2.19662	-8.18748	-0.0105208	0.00826815	-0.0208406	-0.374756	-0.177246	1.04688	0.134964	0.847227	0.511184	0.0517862	-0.388402	2.34549	-8.87232	-0.0255242	0.00144887	-0.0214517	-0.413818	-0.155029	1.0769	-0.0152421	0.0404802	-0.993795	0.102472	-0.273344	-1.83667	-8.9041	-0.00430887	0.0140131	0.00209182	-0.404297	0.186523	1.08594	0.0321413	0.0364254	0.995831	0.077207	-0.437734	1.52592	-9.55627	0.0040803	0.010955	-0.00876024	-0.427246	-0.146973	1.17334	
5	-0.990219	0.00307641	-0.136746	-0.0275367	-2.76198	0.0920962	10.8958	0.0640353	-0.0821063	-0.0101763	0.65332	-0.00146484	-0.870605	0.484612	0.036577	-0.873964	-0.000563679	8.25467	0.208285	-5.04559	-0.0288479	-0.0212487	0.0009629	-0.947266	-0.206787	0.309326	0.672244	0.308672	-0.587645	0.327845	10.1392	-0.280333	1.50824	0.0490048	-0.0233819	0.00294764	-1.12427	-0.303467	-0.290283	0.660695	0.213113	-0.648816	0.311615	10.0342	-1.19414	0.6458	0.0680352	-0.0118441	0.00517844	-1.21069	0.0478516	-0.251709	0.74028	-0.0849637	-0.638998	-0.190913	9.59564	1.53626	1.33576	0.00755015	0.030288	-0.0134148	-0.91333	-0.00415039	-0.561035	0.732895	-0.218175	-0.475486	-0.434945	9.59063	2.17864	4.99321	-0.137477	-0.0171144	-0.0349312	-0.891357	-0.156738	-0.666992	0.315598	0.0629445	-0.946716	0.0128736	5.73752	0.0422491	-7.30018	0.0285346	0.0840218	-0.00556421	-0.852539	-0.193848	0.682861	-0.0289985	-0.0119881	-0.991589	-0.125566	-0.431122	2.21586	-8.19951	-0.0229156	0.00539297	-0.0218062	-0.368164	-0.179443	1.04932	0.135629	0.847082	0.511221	0.0520589	-0.377021	2.36316	-8.87669	-0.0258211	-0.00640981	-0.0212101	-0.413818	-0.155029	1.0791	-0.0151159	0.0404166	-0.993814	0.102331	-0.292464	-1.82355	-8.89721	-0.00416645	0.0109324	0.0031534	-0.408691	0.184326	1.09277	0.0319486	0.0363775	0.995789	0.077847	-0.500441	1.49996	-9.58646	-0.0335344	0.01816	-0.00688539	-0.427246	-0.146973	1.17114	
6	-0.99071	0.00247182	-0.133075	-0.0279109	-2.40902	-0.0120781	10.6586	0.0167053	-0.162031	0.0338035	0.649414	-0.0102539	-0.872803	0.483885	0.0364985	-0.87437	-0.000876738	8.17184	0.129382	-5.06196	-0.0165928	-0.0277949	-0.0125665	-0.947021	-0.213379	0.31665	0.672334	0.308531	-0.587869	0.327393	9.73611	-0.733916	1.47546	0.0418302	-0.0101762	-0.0203483	-1.12646	-0.299072	-0.288086	0.659718	0.214384	-0.648978	0.312474	9.75621	-1.27049	0.558194	0.076523	-0.0343737	0.00714856	-1.21313	0.0498047	-0.249756	0.740234	-0.0832411	-0.63948	-0.190239	9.767	1.17379	1.48081	0.0229957	0.0351004	-0.028975	-0.908936	-0.00634766	-0.554199	0.732032	-0.21938	-0.475654	-0.435609	9.63102	1.98212	5.27008	-0.0244899	-0.0196814	-0.0457453	-0.887207	-0.156738	-0.665039	0.315206	0.0627694	-0.946864	0.0123972	5.69403	0.0748012	-7.01616	-0.000700744	-0.00803811	-0.0179796	-0.852539	-0.196045	0.683105	-0.0291945	-0.0119028	-0.991516	-0.1261	-0.449348	2.22929	-8.16082	-0.00787084	0.00732948	-0.0185178	-0.368164	-0.181641	1.04224	0.136535	0.846924	0.511203	0.0524456	-0.398076	2.38532	-8.86737	-0.0302853	0.00254045	-0.015628	-0.415771	-0.166504	1.07471	-0.0149043	0.0403042	-0.993841	0.102147	-0.285941	-1.82176	-8.88327	-0.00592523	0.0143832	0.00482981	-0.406494	0.184326	1.08594	0.0318147	0.0365337	0.995746	0.0783758	-0.515879	1.65102	-9.68062	-0.0117838	0.00914438	0.00215314	-0.434082	-0.142578	1.18018	
7	-0.991296	0.00244609	-0.128447	-0.0287766	-1.96551	-0.151341	10.756	-0.0205427	-0.185311	0.033784	0.63623	-0.0102539	-0.879395	0.48343	0.0366814	-0.874614	-0.000815495	8.26493	0.361143	-5.02513	0.00203397	-0.0289818	-0.0291094	-0.949219	-0.211182	0.32373	0.67214	0.308462	-0.588006	0.327609	9.7125	-0.316631	1.67491	0.00841359	-0.00554339	0.0184893	-1.12451	-0.297119	-0.288086	0.659155	0.21604	-0.648443	0.313628	9.58064	-1.10034	0.631308	0.076751	-0.0122324	-0.0105105	-1.21069	0.0498047	-0.249756	0.740068	-0.0825574	-0.639778	-0.190178	9.24854	1.16445	1.69052	0.0432339	-0.0100121	-0.0510639	-0.908691	-0.0107422	-0.552002	0.731608	-0.219634	-0.475987	-0.435828	10.0022	1.85714	5.32451	0.0223691	-0.0150588	-0.0311266	-0.884766	-0.160889	-0.660645	0.314016	0.0626109	-0.94728	0.0115996	5.74897	0.144716	-7.22344	-0.0251423	-0.0505706	-0.0198563	-0.852295	-0.202637	0.681152	-0.0292964	-0.0118611	-0.991495	-0.126247	-0.452083	2.24321	-8.17752	-0.0015756	0.0112684	-0.0186599	-0.370361	-0.179443	1.04468	0.136822	0.846878	0.51119	0.0525597	-0.369252	2.3971	-8.88627	0.0115458	-0.00117964	-0.0207841	-0.416016	-0.157227	1.0813	-0.0148675	0.0402734	-0.993853	0.102047	-0.279574	-1.8035	-8.88973	0.000500073	0.0128516	0.00314827	-0.408936	0.186523	1.08838	0.0320223	0.0366434	0.995678	0.0791039	-0.441224	1.57105	-9.54614	-0.0170962	-0.00426829	-0.00367909	-0.433838	-0.151367	1.17578	
8	-0.991741	0.00221059	-0.125027	-0.0284989	-1.71705	-0.00944416	10.8526	0.0118224	-0.113318	-0.0283366	0.638184	-0.00805664	-0.883545	0.483074	0.0366766	-0.874811	-0.00105181	8.29124	0.261153	-5.14042	-0.0172075	0.00143157	-0.0237045	-0.944824	-0.208984	0.31665	0.671196	0.308252	-0.588737	0.32843	10.2866	0.0125075	1.66977	-0.0077318	-0.0149226	0.0476878	-1.12866	-0.299072	-0.283447	0.65859	0.216621	-0.648271	0.314768	9.61091	-1.05121	0.70819	0.0355379	0.00330548	0.0393649	-1.21558	0.0541992	-0.243164	0.740383	-0.0803069	-0.639759	-0.189977	9.39065	1.49592	1.58662	0.0231351	0.0449265	-0.0635224	-0.910645	-0.0129395	-0.554199	0.730813	-0.221879	-0.475237	-0.436843	9.7004	1.82855	5.24165	-0.0536753	-0.00119637	-0.0144207	-0.887207	-0.154541	-0.660645	0.312376	0.0624437	-0.947836	0.0113315	5.78087	0.103285	-7.27218	0.0330761	-0.0506698	-0.00681412	-0.852295	-0.200439	0.69165	-0.0293974	-0.0118148	-0.991485	-0.126307	-0.444429	2.23224	-8.18237	-0.000404174	0.00681917	-0.0206843	-0.370361	-0.179443	1.04468	0.137112	0.84676	0.511325	0.0523853	-0.394666	2.39998	-8.849	-0.00344036	-0.00416318	-0.0207203	-0.413574	-0.161865	1.0813	-0.0148845	0.0402631	-0.993864	0.101937	-0.282217	-1.8059	-8.89589	-0.00283809	0.0109299	0.00217059	-0.404297	0.182373	1.08618	0.0318852	0.0365728	0.995685	0.0790997	-0.426241	1.55229	-9.54141	0.00176753	0.00878003	-0.00556967	-0.427002	-0.151367	1.17578	
9	-0.991829	0.00218829	-0.124463	-0.0279119	-1.54793	-0.110434	10.7557	0.0108251	-0.0401894	-0.0450007	0.63623	-0.0124512	-0.881592	0.48341	0.0364313	-0.874635	-0.00118838	8.36983	0.342551	-5.09256	-0.0248506	0.0327888	-0.0139676	-0.947021	-0.213379	0.31665	0.670955	0.307728	-0.589215	0.328554	9.72609	-0.923668	1.37909	0.0117765	-0.0399575	0.0391532	-1.13086	-0.299072	-0.288086	0.658628	0.216738	-0.647881	0.315412	9.86653	-1.35645	0.490921	0.052561	0.0356705	0.0200123	-1.21094	0.0541992	-0.249756	0.740118	-0.0799226	-0.639978	-0.190435	9.68521	1.31136	1.6576	0.0121554	0.0173926	-0.0487098	-0.910645	-0.0129395	-0.558838	0.730697	-0.222607	-0.474925	-0.437005	9.51424	2.03582	5.05068	-0.0592999	0.00419713	0.00470052	-0.887451	-0.147949	-0.663086	0.311749	0.0623684	-0.948048	0.0113141	5.78373	0.125456	-7.48713	0.017418	-0.0442334	-0.0108951	-0.848145	-0.198242	0.693604	-0.0294989	-0.0117575	-0.99148	-0.126327	-0.444812	2.22882	-8.1612	0.00651437	0.0094828	-0.0185156	-0.372314	-0.183838	1.04688	0.13685	0.846761	0.511426	0.0520688	-0.388425	2.38693	-8.84428	0.0375733	-0.00617037	-0.024433	-0.413574	-0.159668	1.0791	-0.0149195	0.0402681	-0.993868	0.101895	-0.277792	-1.81897	-8.89342	0.000362816	0.00891508	0.00245523	-0.408936	0.186523	1.09058	0.0317923	0.036564	0.995695	0.0790176	-0.478143	1.6123	-9.61395	0.00970336	0.0139196	-0.00679764	-0.431641	-0.14917	1.17578	
10	-0.991763	0.00209357	-0.125096	-0.0274222	-1.6883	0.0189925	10.6375	0.0179908	0.0561298	-0.0374635	0.638184	-0.00585938	-0.879395	0.48384	0.035935	-0.874417	-0.00142209	8.25025	0.208623	-5.08325	-0.0400489	0.0193758	-0.00628693	-0.94043	-0.213379	0.319092	0.670864	0.306522	-0.589963	0.328526	9.49095	-0.547076	1.79058	-0.0293275	0.00266636	0.0169018	-1.12671	-0.290527	-0.295166	0.658524	0.21709	-0.647343	0.316489	9.45223	-1.25987	0.674486	0.0558191	0.0170636	0.0264511	-1.20874	0.052002	-0.247559	0.739987	-0.0802457	-0.639822	-0.191333	9.64373	1.72665	1.5927	-0.0891289	0.00698815	-0.0338833	-0.910889	-0.0107422	-0.556641	0.730596	-0.224014	-0.473917	-0.43755	9.63641	2.13699	5.12005	-0.134449	0.0241355	0.0108346	-0.887451	-0.147949	-0.669434	0.311284	0.0621421	-0.948214	0.0114149	5.73587	0.0395491	-7.12508	0.0247524	0.0117904	-0.00220079	-0.845947	-0.198242	0.695801	-0.0296037	-0.0117197	-0.991465	-0.126429	-0.456134	2.23562	-8.1799	-0.00312502	0.0127284	-0.0186126	-0.372314	-0.181641	1.05396	0.136597	0.846725	0.511593	0.0516749	-0.409003	2.36512	-8.88567	0.00224794	-0.00388561	-0.0188222	-0.417969	-0.164307	1.0791	-0.0149051	0.0402475	-0.993875	0.101832	-0.280301	-1.82161	-8.89954	0.00161066	0.0119874	0.00249966	-0.406494	0.184326	1.08594	0.031733	0.036589	0.995677	0.0792532	-0.48888	1.52889	-9.62325	-0.0159117	0.0116318	-0.00369071	-0.433838	-0.151367	1.17358	
11	-0.991474	0.00231752	-0.127486	-0.0268433	-2.24938	-0.138215	10.9417	0.0218103	0.0514608	-0.0191477	0.640381	-0.00585938	-0.885742	0.484394	0.0355154	-0.874127	-0.00182514	8.34195	0.218516	-5.13698	-0.0296433	0.0408373	-0.015475	-0.948975	-0.215576	0.304932	0.670174	0.306684	-0.590096	0.329544	9.72776	-0.546361	1.58429	0.0067272	0.00232158	0.0404629	-1.12891	-0.29248	-0.285889	0.658628	0.217384	-0.646854	0.317071	9.6612	-1.38409	0.627947	0.0160545	0.0284799	-0.0111433	-1.21069	0.0498047	-0.249756	0.740016	-0.0799127	-0.639667	-0.191875	9.71352	0.743223	1.6155	0.00447343	0.0277125	-0.00858236	-0.910645	-0.017334	-0.554199	0.730669	-0.224631	-0.473624	-0.437429	9.48815	1.67918	5.23888	-0.0141067	0.00483379	-0.02195	-0.887695	-0.145752	-0.66748	0.310891	0.0620222	-0.948347	0.0117604	5.7025	0.0589701	-7.34499	0.0409247	-0.00271464	-0.0102391	-0.845703	-0.204834	0.69165	-0.0295061	-0.0114714	-0.991479	-0.126365	-0.451476	2.23233	-8.15159	0.0044833	0.0125359	-0.0184274	-0.36792	-0.183838	1.04932	0.137016	0.846724	0.51148	0.0516997	-0.394915	2.38368	-8.81934	-0.00567857	-0.00798102	-0.0164367	-0.418213	-0.161865	1.0813	-0.0149103	0.0402457	-0.993871	0.101878	-0.273627	-1.81422	-8.88929	0.00484462	0.0110166	0.00177111	-0.406494	0.186523	1.08838	0.0315602	0.0366672	0.995648	0.0796502	-0.415502	1.58658	-9.57919	-0.00412957	0.0106908	-0.000706779	-0.433838	-0.14917	1.18018	
12	-0.991428	0.00202099	-0.1279	-0.0265965	-1.89806	-0.0852325	10.8475	0.0253607	0.0285711	0.00863283	0.646973	-0.00805664	-0.879395	0.485107	0.0357157	-0.873724	-0.00162517	8.33978	0.0621316	-5.2308	0.022435	0.0598643	-0.0220602	-0.947021	-0.208984	0.307129	0.669841	0.308092	-0.589125	0.330641	9.90696	-0.458273	1.86011	0.0580047	0.0191425	-0.025389	-1.12671	-0.294922	-0.285889	0.658761	0.21844	-0.64569	0.318438	9.82636	-1.25963	0.771773	0.0797486	0.0376219	-0.00538577	-1.2063	0.0478516	-0.256104	0.739771	-0.0802916	-0.639368	-0.193651	9.69753	1.68859	1.84972	-0.0907425	0.00865388	-0.0943787	-0.910889	-0.00854492	-0.558838	0.730805	-0.225792	-0.472597	-0.437715	9.55436	2.12287	5.18778	-0.0795916	0.038017	0.0441553	-0.887451	-0.147949	-0.663086	0.310892	0.0618775	-0.948363	0.0111866	5.70803	-0.137773	-7.37451	-0.0121455	0.00554851	-0.0224695	-0.841553	-0.202637	0.6875	-0.0297631	-0.0113635	-0.991448	-0.126553	-0.452653	2.23394	-8.18055	-0.00545913	0.00513289	-0.0223978	-0.376465	-0.188232	1.04248	0.137016	0.846724	0.51148	0.0516997	-0.394915	2.38368	-8.81934	-0.00567857	-0.00798102	-0.0164367	-0.418213	-0.161865	1.0813	-0.0149695	0.0402205	-0.99387	0.101881	-0.279044	-1.81759	-8.89517	0.00373421	0.00712396	0.00424783	-0.410889	0.182129	1.08838	0.0314452	0.0366881	0.995633	0.0798699	-0.446676	1.53298	-9.578	-0.0146025	0.0160334	-0.00387748	-0.431641	-0.14917	1.17334	
13	-0.99117	0.00169546	-0.129633	-0.0278247	-1.95836	-0.150094	10.724	0.0125609	0.0857872	0.054143	0.651611	-0.0102539	-0.87915	0.485808	0.0358432	-0.873329	-0.0014012	8.37571	0.0203475	-5.05658	-0.0184871	0.0337164	-0.0185409	-0.951172	-0.213379	0.30957	0.669872	0.308976	-0.588357	0.331121	9.78657	-0.408851	1.72382	0.0755444	0.0153981	-0.031295	-1.1311	-0.290283	-0.283691	0.659047	0.21894	-0.645053	0.318794	9.77698	-1.16611	0.803349	0.0566237	0.0208033	-0.0131419	-1.2041	0.0500488	-0.25415	0.740515	-0.0800283	-0.638867	-0.192569	9.42217	1.58575	1.23236	0.139348	0.0538181	0.00559293	-0.908447	-0.017334	-0.556641	0.730419	-0.225628	-0.472489	-0.438559	9.57463	2.21066	5.04472	0.00643186	0.0282795	-0.0614075	-0.889648	-0.145752	-0.658936	0.311042	0.0624613	-0.948268	0.0118178	5.6642	0.0377711	-7.39767	0.0397334	0.0125395	-0.0234305	-0.843506	-0.204834	0.69165	-0.0298318	-0.0113166	-0.99142	-0.126764	-0.458319	2.22546	-8.16885	-0.00179527	0.0119526	-0.0181999	-0.372314	-0.181641	1.04688	0.137066	0.846462	0.511956	0.0511452	-0.412799	2.37563	-8.83284	0.0142599	0.0085965	-0.0133204	-0.417969	-0.164307	1.0791	-0.0149612	0.0401328	-0.993858	0.102037	-0.281777	-1.8239	-8.90054	0.00813526	0.0100414	0.00312823	-0.408691	0.184326	1.09058	0.031128	0.0368096	0.995615	0.080171	-0.46322	1.55149	-9.64309	-0.0188223	0.0132708	0.000548031	-0.431641	-0.14917	1.17334	
14	-0.990802	0.0013473	-0.132263	-0.0285811	-2.25722	-0.076124	10.8106	0.0186106	0.108071	0.0349538	0.649658	-0.0168457	-0.872803	0.486822	0.0362275	-0.872749	-0.000305162	8.3143	0.25263	-5.01248	0.0309111	0.0735287	-0.00869114	-0.947021	-0.208984	0.307129	0.670197	0.309266	-0.587879	0.331042	9.76208	-0.787343	1.57997	0.0170787	0.035397	-0.0450283	-1.13086	-0.296875	-0.285889	0.659829	0.219413	-0.644184	0.318606	9.65768	-1.28424	0.675454	0.021674	0.0482977	-0.0495955	-1.2063	0.0478516	-0.253906	0.740379	-0.0807819	-0.638492	-0.194012	9.99262	0.586131	1.73021	-0.173546	0.0187026	-0.0109562	-0.910645	-0.0151367	-0.565674	0.730875	-0.22595	-0.471555	-0.43864	9.69284	1.54063	5.3601	-0.0720918	0.0364965	-0.00298827	-0.881104	-0.145752	-0.671631	0.310896	0.0626153	-0.948308	0.0116238	5.6076	-0.0468211	-7.27277	0.0454385	0.00262272	-0.0279768	-0.841553	-0.200439	0.693848	-0.02989	-0.0112775	-0.991403	-0.126886	-0.435793	2.24829	-8.16865	-0.00529233	0.0103119	-0.0205668	-0.368164	-0.181641	1.04688	0.137238	0.846431	0.511949	0.0512663	-0.423661	2.38499	-8.88339	-0.0102387	0.00476576	-0.0181597	-0.416016	-0.159668	1.0791	-0.0150032	0.0401028	-0.993851	0.102116	-0.263597	-1.81164	-8.87816	0.0101047	0.00866674	0.0046398	-0.408936	0.186523	1.08594	0.0309876	0.0368582	0.995601	0.0803678	-0.428953	1.60965	-9.55464	-0.0126294	0.0179795	-0.00150069	-0.436035	-0.151367	1.16895	
15	-0.99057	0.00133014	-0.133701	-0.0299029	-2.18774	0.0624233	10.7798	-0.0132594	0.061711	0.0602427	0.653564	-0.00805664	-0.872803	0.487307	0.0362877	-0.872477	4.48495e-05	8.24449	0.110302	-5.18464	0.0149157	0.0575694	-0.0108615	-0.95166	-0.20459	0.306885	0.669788	0.310909	-0.58694	0.331996	9.68647	-0.503091	1.65222	0.0840012	0.00742226	-0.0215788	-1.13086	-0.30127	-0.283447	0.660847	0.219426	-0.643543	0.317784	9.72588	-1.11952	0.938305	-0.0336904	0.0191244	-0.0343588	-1.2085	0.0478516	-0.256104	0.74088	-0.0805766	-0.638035	-0.193688	9.46755	0.828169	1.31596	0.0204718	0.0580747	0.00484652	-0.914795	-0.0195312	-0.563477	0.730839	-0.225949	-0.471283	-0.438991	9.48158	1.99834	5.17327	-0.0212145	0.0325678	-0.0310433	-0.885498	-0.145752	-0.669678	0.309738	0.0629197	-0.94867	0.0113892	5.71242	0.0997738	-7.28178	-0.0308098	-0.0585227	-0.0300736	-0.845947	-0.198242	0.687256	-0.02989	-0.0112775	-0.991403	-0.126886	-0.435793	2.24829	-8.16865	-0.00529233	0.0103119	-0.0205668	-0.368164	-0.181641	1.04688	0.138531	0.846099	0.512066	0.052088	-0.415139	2.40071	-8.88078	-0.0509544	0.000700057	-0.0183591	-0.416016	-0.159668	1.0813	-0.0148746	0.040002	-0.993848	0.102204	-0.276839	-1.81403	-8.88554	-0.00319121	0.0102588	0.0038855	-0.408936	0.186523	1.09058	0.0305279	0.0367941	0.99555	0.0812094	-0.464467	1.58126	-9.58264	-0.019567	0.00618244	-0.00947157	-0.436035	-0.151367	1.17798	
16	-0.990252	0.00127686	-0.135694	-0.0314075	-2.26506	-0.127742	10.8335	0.00952999	0.0926932	0.0596236	0.654053	-0.0144043	-0.872803	0.487815	0.0364947	-0.872183	0.00109696	8.36094	0.305094	-5.09793	0.029452	0.0556313	-0.0038305	-0.944824	-0.211182	0.304932	0.670551	0.311295	-0.586074	0.331624	9.81127	-0.722796	1.6873	0.0137118	0.0209677	-0.0502398	-1.12451	-0.299072	-0.285889	0.661529	0.21915	-0.643577	0.316482	9.67129	-1.12059	0.838548	-0.0290285	0.0175724	-0.0393494	-1.20605	0.043457	-0.260498	0.74089	-0.0803228	-0.637713	-0.194813	9.87919	1.15633	1.76215	-0.114671	0.0116884	-0.0468795	-0.906494	-0.0107422	-0.558838	0.732103	-0.224849	-0.470307	-0.438497	9.61404	1.93586	5.24656	0.0367574	0.073347	0.0176176	-0.881104	-0.147949	-0.673828	0.308459	0.063015	-0.949091	0.0104206	5.68761	0.0364071	-7.45051	0.0177368	-0.0502078	-0.0340125	-0.839111	-0.206787	0.698242	-0.0297145	-0.0106764	-0.991338	-0.12748	-0.456937	2.25979	-8.15615	-0.00536383	0.00945155	-0.0184526	-0.372314	-0.183838	1.04932	0.138949	0.845991	0.512117	0.0522442	-0.430671	2.45013	-8.84236	-0.0296712	-0.00316024	-0.021305	-0.413574	-0.159668	1.0813	-0.0148751	0.0400059	-0.993855	0.102128	-0.280251	-1.81877	-8.90835	-0.0027255	0.0111651	0.00157545	-0.410889	0.182129	1.08618	0.030537	0.0367323	0.995545	0.0812877	-0.409974	1.60807	-9.54084	-0.00390811	0.00633199	-0.0116918	-0.431641	-0.14917	1.17334	
17	-0.990085	0.00117125	-0.136759	-0.0320503	-2.42045	-0.217197	10.74	0.00834274	0.0924491	0.0538703	0.658447	-0.0166016	-0.870605	0.488795	0.0358786	-0.871659	0.00159189	8.38405	0.290218	-4.98164	-0.00291762	0.063547	0.00214493	-0.949463	-0.20459	0.302246	0.670813	0.312034	-0.585392	0.331602	9.83662	0.147537	1.88112	-0.00766245	0.0316785	-0.0425242	-1.11987	-0.305664	-0.283447	0.661716	0.218359	-0.644184	0.315401	9.72606	-0.981711	0.866282	-0.112171	-0.0165007	-0.010731	-1.2041	0.0478516	-0.260498	0.741799	-0.0804797	-0.636968	-0.193727	9.73528	1.43162	1.64932	0.0509774	0.0449639	0.0427673	-0.906494	-0.0107422	-0.565674	0.733068	-0.222513	-0.470367	-0.438012	9.66592	1.91561	5.23716	0.153506	0.0705712	-0.0346276	-0.885742	-0.141602	-0.676025	0.307278	0.0629831	-0.949482	0.00985933	5.6455	0.196381	-7.30267	-0.020025	-0.0932637	-0.0261645	-0.83252	-0.206787	0.696045	-0.0296703	-0.0103876	-0.991314	-0.127702	-0.455158	2.27182	-8.15909	-0.00693043	0.0105873	-0.0196928	-0.370117	-0.186035	1.04932	0.138832	0.845838	0.512408	0.0521728	-0.426882	2.41732	-8.84525	0.00817747	0.00306202	-0.0193424	-0.413574	-0.161865	1.0769	-0.0147739	0.0399306	-0.993867	0.10206	-0.274188	-1.81551	-8.89726	-0.000972888	0.00985907	0.00373607	-0.410889	0.184326	1.08838	0.0305112	0.0367853	0.995527	0.0815032	-0.481325	1.57789	-9.61958	-0.00864089	0.00968444	-0.00413769	-0.438232	-0.153564	1.17358	
18	-0.989798	0.000942877	-0.138688	-0.0326257	-2.63801	-0.134147	10.6722	0.0104456	0.0807035	0.0250523	0.667236	-0.0166016	-0.864014	0.489269	0.0360351	-0.871386	0.00180359	8.41009	0.225553	-4.98955	0.00457802	0.0342731	-0.0694318	-0.953857	-0.204834	0.300049	0.671333	0.312606	-0.584693	0.331245	9.67395	-0.991989	1.72776	0.0387047	0.00761836	-0.0248166	-1.12427	-0.305664	-0.290283	0.662161	0.21783	-0.64451	0.314164	9.72165	-1.4059	0.660267	-0.022388	0.0200689	-0.0442659	-1.21069	0.0456543	-0.260498	0.741645	-0.0815153	-0.636579	-0.195153	9.85363	0.593151	1.82993	-0.0930262	-0.00131326	-0.0231948	-0.904297	-0.0129395	-0.558838	0.734686	-0.220884	-0.469824	-0.436706	9.56923	1.59334	5.39058	0.0902887	0.0756866	0.0251589	-0.881104	-0.150146	-0.673828	0.305704	0.0628482	-0.950017	0.00794847	5.49681	0.0539432	-7.29899	-0.0303163	-0.0670179	-0.0333684	-0.832764	-0.204834	0.700195	-0.0296957	-0.0103512	-0.991302	-0.127795	-0.443716	2.27496	-8.18849	-0.00290319	0.0130564	-0.0200599	-0.36792	-0.186035	1.04712	0.138957	0.845762	0.512472	0.0524375	-0.432522	2.43491	-8.8622	-0.0161521	0.00929184	-0.0154721	-0.417725	-0.171143	1.07935	-0.0147673	0.0399187	-0.993874	0.10199	-0.285918	-1.81078	-8.89424	8.56483e-05	0.0121879	0.0027783	-0.413086	0.182129	1.08374	0.0306119	0.0367191	0.995506	0.08175	-0.447264	1.63875	-9.5834	-0.010414	-0.00193801	-0.00994642	-0.431396	-0.155762	1.17139	
19	-0.989672	-2.03433e-05	-0.139499	-0.0329899	-2.49734	-0.00932217	10.807	0.0441367	0.0318716	0.0278916	0.665283	-0.0209961	-0.864014	0.489694	0.0357957	-0.871158	0.0017228	8.40899	0.0930262	-4.9795	-0.0111841	0.0221095	-0.0239506	-0.949219	-0.211182	0.30249	0.670905	0.314071	-0.583901	0.332124	9.95387	0.480992	1.94892	0.0314534	0.0203069	-0.0342222	-1.11987	-0.312256	-0.290039	0.662807	0.218388	-0.643667	0.314144	9.82298	-1.0246	0.919345	0.0322314	0.0363848	-0.00705857	-1.20581	0.0412598	-0.262695	0.742206	-0.0807105	-0.636296	-0.194278	9.68919	1.8204	1.97805	0.0160625	0.0233502	-0.0157227	-0.9021	-0.0107422	-0.561035	0.735997	-0.217252	-0.470665	-0.435412	9.63217	2.03647	5.33168	0.0785482	0.0575695	-0.0241809	-0.878662	-0.154541	-0.680176	0.30449	0.0627787	-0.950417	0.00725607	5.62541	0.150028	-7.3981	-0.0102678	-0.0317033	-0.0262442	-0.83252	-0.208984	0.700439	-0.0295656	-0.0100405	-0.991276	-0.128053	-0.449502	2.27388	-8.18118	-0.011571	0.011574	-0.0196551	-0.36792	-0.186035	1.04712	0.139931	0.845657	0.512323	0.0529924	-0.409784	2.44268	-8.85142	-0.0473364	-0.00383047	-0.0138717	-0.413086	-0.170898	1.07935	-0.0147771	0.0399286	-0.993887	0.101867	-0.265065	-1.8085	-8.89895	-0.00161258	0.0102998	0.000928168	-0.406494	0.184326	1.08594	0.0305914	0.0367186	0.995475	0.0821308	-0.407708	1.58439	-9.57452	-0.0111576	0.00384896	-0.00532163	-0.431396	-0.155762	1.17358	
20	-0.989479	-0.000842193	-0.140632	-0.0339509	-2.63224	0.128282	10.6885	0.0219918	0.0533542	0.0507115	0.671631	-0.0166016	-0.866211	0.490247	0.0364773	-0.870817	0.00220397	8.45479	0.257301	-4.91268	-0.0132189	0.0446232	-0.0262562	-0.956055	-0.202637	0.292725	0.67101	0.314253	-0.583755	0.331995	9.50495	-0.572671	1.64459	0.0807812	-0.0290604	-0.00811185	-1.12427	-0.310059	-0.290039	0.662959	0.218975	-0.643275	0.314217	9.61837	-1.10026	0.750837	0.0401614	0.0234332	-0.0229157	-1.21045	0.043457	-0.262695	0.742082	-0.0809736	-0.636284	-0.19468	9.64218	1.11321	1.78402	-0.00182689	0.0113993	-0.0126043	-0.906494	-0.0129395	-0.565674	0.736452	-0.216223	-0.470838	-0.434969	9.48562	1.97305	5.30863	-0.0145921	0.00984166	-0.0172134	-0.878906	-0.150146	-0.673828	0.304985	0.0629062	-0.950249	0.00735392	5.73336	0.132087	-7.49474	0.065848	0.063857	-0.0136858	-0.83667	-0.211182	0.698242	-0.0296241	-0.010019	-0.991265	-0.128128	-0.439207	2.27467	-8.16672	-0.00128329	0.010115	-0.0184298	-0.365723	-0.186035	1.04712	0.140703	0.845459	0.512424	0.05314	-0.414118	2.46117	-8.82663	-0.0267262	-0.00804988	-0.0164033	-0.417969	-0.166504	1.0769	-0.01487	0.0398921	-0.993887	0.101866	-0.280018	-1.79785	-8.89704	0.00516244	0.00775449	0.00351855	-0.408936	0.186523	1.08838	0.0305699	0.036763	0.995454	0.0823777	-0.495968	1.69443	-9.58794	-0.0120278	0.00712993	-0.00469395	-0.431396	-0.155762	1.16895	
21	-0.989351	-0.00114054	-0.14135	-0.0346805	-2.74854	0.0279485	10.7244	0.012234	0.022308	0.0317788	0.669678	-0.0209961	-0.861816	0.490196	0.0368739	-0.870828	0.00272462	8.22616	0.200384	-4.87636	0.0155347	-0.0140654	-0.00735996	-0.949219	-0.208984	0.30249	0.671673	0.313872	-0.583577	0.331328	9.5867	-0.740126	1.64453	-0.0530566	0.0135486	-0.0274821	-1.12402	-0.314453	-0.2854	0.66321	0.218834	-0.642895	0.314564	9.61427	-1.227	0.689008	0.0125605	0.0127487	0.0105779	-1.20825	0.0412598	-0.26709	0.741825	-0.0799565	-0.636857	-0.194205	9.54004	1.25705	1.71507	0.0714107	-0.00537709	-0.0417916	-0.908447	-0.0129395	-0.561035	0.736441	-0.215463	-0.471424	-0.43473	9.39851	1.93018	5.26496	0.0682936	0.00848544	-0.0260115	-0.874023	-0.160889	-0.677734	0.307682	0.0635496	-0.949316	0.00958236	5.54779	0.00850581	-7.0975	0.0758266	0.120553	-0.0163061	-0.836914	-0.208984	0.696045	-0.0295458	-0.00969586	-0.991252	-0.128265	-0.459879	2.28094	-8.17782	0.000803337	0.0156213	-0.0176467	-0.370117	-0.186035	1.04468	0.140908	0.845376	0.512473	0.0534369	-0.423568	2.45941	-8.83512	-0.0159941	0.0141152	-0.0146195	-0.410889	-0.170898	1.08154	-0.0148783	0.0398764	-0.993892	0.101823	-0.277454	-1.80839	-8.90693	0.00180013	0.0114081	0.00234586	-0.413086	0.182129	1.08838	0.03069	0.0367849	0.995428	0.08263	-0.438868	1.62882	-9.57744	-0.0034236	0.00561426	-0.00754858	-0.428955	-0.157959	1.16211	
22	-0.989317	-0.00142508	-0.141336	-0.0356983	-2.66401	0.0107425	10.887	0.00733239	-0.000907773	0.0435448	0.672119	-0.0273438	-0.857422	0.489796	0.0371572	-0.871041	0.00262135	8.43725	0.214401	-5.02085	-0.0144157	0.00192099	-0.0454857	-0.953613	-0.206787	0.302246	0.671216	0.314541	-0.583555	0.331657	9.89912	0.155428	1.91662	0.0132085	0.00200457	-0.0157256	-1.12207	-0.305664	-0.285645	0.663454	0.218945	-0.642653	0.314466	9.77038	-1.25739	0.723672	0.00671295	0.0257641	-0.0214916	-1.20605	0.043457	-0.269287	0.741407	-0.0795223	-0.637438	-0.194074	9.69309	1.1347	1.75131	-0.00413259	-0.0221209	-0.0163331	-0.908447	-0.0151367	-0.558838	0.736228	-0.215735	-0.471516	-0.434857	9.48557	1.8499	5.28991	-0.0339491	-0.000320753	-0.0190184	-0.878418	-0.160889	-0.675537	0.309211	0.0634793	-0.948818	0.0101401	5.78565	0.170964	-7.38593	0.0535193	0.0810264	-0.0146331	-0.841064	-0.208984	0.696045	-0.0295519	-0.00963518	-0.991225	-0.128477	-0.446738	2.28171	-8.16352	0.000158157	0.0138908	-0.0187474	-0.367676	-0.188232	1.04468	0.141461	0.845297	0.512409	0.0538354	-0.416947	2.4796	-8.83722	-0.026569	0.000208181	-0.0146441	-0.410645	-0.175537	1.07715	-0.0149185	0.0398391	-0.993889	0.101862	-0.289129	-1.81223	-8.9022	0.00504234	0.00752969	0.0040957	-0.415283	0.182129	1.09058	0.0307382	0.0367401	0.995445	0.0824248	-0.411147	1.62588	-9.53726	0.00639669	0.0085562	-0.00787004	-0.428955	-0.157959	1.17139	
23	-0.989456	-0.00168384	-0.14019	-0.0363456	-2.45922	-0.138965	10.6039	0.0183636	-0.0465506	0.0232638	0.667725	-0.0251465	-0.86377	0.489802	0.0375254	-0.871022	0.00262521	8.44866	0.243062	-4.94036	0.00437605	0.0132573	-0.045111	-0.953369	-0.213379	0.300293	0.67137	0.314422	-0.583583	0.331409	9.67043	-0.40138	1.68144	-0.0228597	0.00596593	-0.0171461	-1.12207	-0.307861	-0.290283	0.663564	0.218844	-0.642441	0.314738	9.83103	-1.17825	0.835913	-0.00398947	0.0061114	0.00371061	-1.20581	0.0368652	-0.258301	0.741178	-0.080051	-0.637619	-0.194137	9.79655	1.11953	1.63816	-0.0360772	-0.0230434	0.00364474	-0.908447	-0.0129395	-0.561035	0.736109	-0.215589	-0.471834	-0.434784	9.47047	2.05616	5.27906	0.0408311	0.00503931	-0.00584293	-0.876465	-0.156738	-0.673584	0.311655	0.0633349	-0.948026	0.010347	5.57283	0.01947	-7.25876	-0.00721827	0.0932568	-0.014291	-0.841309	-0.204834	0.698242	-0.0296483	-0.00956931	-0.991208	-0.128592	-0.446083	2.29989	-8.14876	0.00146901	0.010965	-0.0203065	-0.369873	-0.188232	1.04932	0.141746	0.845256	0.512391	0.0538992	-0.428283	2.4991	-8.84958	0.00777482	0.00024187	-0.0168318	-0.413086	-0.17334	1.08154	-0.0149601	0.039821	-0.993873	0.102014	-0.276027	-1.82689	-8.89286	0.0103698	0.0120259	0.00311054	-0.406494	0.184326	1.08838	0.0307125	0.0367939	0.995479	0.0820052	-0.452546	1.65843	-9.63027	0.0128647	0.00847484	-0.00322335	-0.424561	-0.155762	1.17358	
24	-0.989557	-0.00228994	-0.139488	-0.0362521	-2.49353	-0.118081	10.6241	0.0319359	-0.0178697	-0.0105884	0.66333	-0.0275879	-0.859619	0.489042	0.0379634	-0.87143	0.00253088	8.22447	0.256189	-4.95807	-0.0160166	-0.0147443	-0.0244552	-0.947021	-0.211182	0.304932	0.671401	0.313395	-0.584516	0.330673	9.65293	-0.369922	1.71278	-0.0322972	-0.00773717	0.00157438	-1.12427	-0.305664	-0.285645	0.663315	0.218694	-0.64265	0.314939	9.72547	-1.17195	0.764583	-0.00692285	-0.00353449	0.0213813	-1.20581	0.0368652	-0.26709	0.740784	-0.0792297	-0.638199	-0.194071	9.86321	0.639606	1.78971	-0.0117399	-0.00788097	-0.00388427	-0.912842	-0.0151367	-0.558838	0.735823	-0.216935	-0.471522	-0.434939	9.55347	1.60376	5.41719	-0.0506545	-0.0166929	-0.00861997	-0.878662	-0.156738	-0.675781	0.314311	0.0633415	-0.947136	0.0114047	5.61938	0.0487991	-7.31944	0.0543431	0.111931	-0.00694429	-0.848145	-0.198242	0.685303	-0.0296119	-0.00953223	-0.991221	-0.1285	-0.462024	2.28937	-8.14411	0.00434651	0.0160603	-0.0182601	-0.37207	-0.19043	1.04712	0.141793	0.845209	0.512434	0.0541126	-0.421687	2.49444	-8.82924	-0.00625585	0.0112013	-0.0148942	-0.410889	-0.168701	1.07715	-0.0150194	0.0398212	-0.993865	0.102081	-0.271772	-1.83001	-8.86329	0.00911383	0.0070943	0.00243672	-0.412842	0.177734	1.09082	0.0308854	0.0367618	0.995492	0.0817916	-0.466128	1.64063	-9.60515	0.0202017	-0.00259647	-0.00987126	-0.429199	-0.155762	1.16895	
25	-0.989604	-0.0029069	-0.139252	-0.0358267	-2.4929	0.0477778	10.7519	0.0566462	-0.0155626	-0.0255957	0.665527	-0.0253906	-0.857422	0.488626	0.0381271	-0.871657	0.00245171	8.37525	0.226289	-5.02025	-0.00829161	-0.0259169	-0.0331157	-0.949463	-0.206787	0.307129	0.671283	0.312535	-0.585146	0.330613	9.82953	-0.329848	1.54008	-0.0632532	-0.0148562	0.0502126	-1.12207	-0.310059	-0.287842	0.663428	0.218383	-0.642629	0.31496	9.76526	-1.14918	0.756292	-0.0128038	0.0199596	0.0138036	-1.20581	0.0412598	-0.264893	0.740788	-0.0788926	-0.638431	-0.19343	9.41193	1.32527	1.65319	0.0536184	-0.0050569	0.00419688	-0.912842	-0.0151367	-0.561035	0.73518	-0.217586	-0.471772	-0.435429	9.38232	2.05339	5.31887	-0.057793	-0.0412374	-0.0441309	-0.887207	-0.156738	-0.671387	0.315762	0.0631987	-0.946659	0.0117298	5.81367	0.162373	-7.0564	0.0316783	0.13258	-0.00221336	-0.849854	-0.207031	0.681152	-0.0296004	-0.00953681	-0.991223	-0.128487	-0.447835	2.3109	-8.15854	0.00624565	0.0154983	-0.0172108	-0.370117	-0.186035	1.04712	0.141814	0.845177	0.512466	0.0542607	-0.414505	2.49251	-8.80816	-0.00146861	0.011964	-0.0137341	-0.410645	-0.175537	1.08374	-0.0149015	0.0397762	-0.993859	0.102176	-0.276956	-1.81915	-8.89779	0.00571929	0.0106345	0.00259009	-0.415283	0.182129	1.08838	0.0310028	0.0367125	0.995497	0.0817154	-0.410912	1.6832	-9.58083	0.00840408	-0.00258914	-0.0112857	-0.436035	-0.153564	1.17114	
26	-0.989775	-0.00385	-0.138172	-0.035193	-2.60412	0.0248586	10.8917	0.0534258	-0.0481105	-0.0252601	0.665771	-0.0317383	-0.861572	0.487896	0.0381969	-0.872063	0.00212756	8.38364	0.0580791	-5.14901	0.00153594	-0.0318471	-0.0281961	-0.947266	-0.206787	0.302246	0.671033	0.312013	-0.585781	0.330489	9.79106	-0.551017	1.71196	-0.0049114	-0.0321611	0.0171271	-1.13306	-0.30127	-0.292725	0.663327	0.21812	-0.642726	0.315157	9.79571	-1.2166	0.773328	-0.00782687	0.00120941	0.00909796	-1.20825	0.0412598	-0.26709	0.740482	-0.0780111	-0.638974	-0.193168	9.6317	1.20743	1.80565	-0.0094751	-0.0237976	-0.019001	-0.906006	-0.0195312	-0.563477	0.735081	-0.217812	-0.472226	-0.434989	9.43882	1.7274	5.24453	-0.0252045	-0.015662	-0.00434358	-0.883057	-0.152344	-0.675781	0.319424	0.0630011	-0.945436	0.0122817	5.82914	-0.0358168	-7.24442	0.0243273	0.173739	-0.00989894	-0.856445	-0.202637	0.674561	-0.0296779	-0.00951848	-0.991216	-0.128525	-0.449263	2.29596	-8.15671	0.00314025	0.011676	-0.0173084	-0.365479	-0.192627	1.04956	0.142328	0.845045	0.512518	0.0544695	-0.434514	2.50562	-8.84623	-0.0259451	-0.00192453	-0.0194345	-0.413086	-0.17334	1.08154	-0.0149665	0.0397881	-0.993862	0.102138	-0.274195	-1.81332	-8.8905	-0.000727674	0.0108431	0.00205729	-0.410889	0.184326	1.08374	0.0311338	0.0366538	0.995519	0.0814145	-0.428256	1.56923	-9.63493	0.0186272	-0.000551723	-0.00806838	-0.433594	-0.155762	1.17358	
27	-0.990118	-0.00432747	-0.135909	-0.0343057	-2.59976	0.152433	10.8142	0.012869	-0.101109	-0.0215169	0.661133	-0.0275879	-0.865967	0.487197	0.0384438	-0.872443	0.00201578	8.41541	0.156133	-4.95994	-0.0264475	-0.0201767	-0.0295614	-0.948975	-0.215576	0.307373	0.67164	0.310256	-0.586812	0.32908	9.79852	-0.111056	1.77265	-0.101004	-0.00724234	0.00493486	-1.12427	-0.305664	-0.287842	0.662784	0.217781	-0.643374	0.315213	9.63293	-1.13272	0.788483	-0.00261645	-0.0338799	0.0353483	-1.20825	0.0456543	-0.262695	0.740551	-0.0763594	-0.639637	-0.191357	9.6863	1.28532	1.63838	0.143804	0.00181303	-0.00336499	-0.912598	-0.0239258	-0.563477	0.734384	-0.218033	-0.472989	-0.435228	9.55534	2.01701	5.29347	0.0225716	-0.0205903	-0.0374598	-0.878418	-0.158691	-0.671387	0.323365	0.0628002	-0.944099	0.0129536	5.82947	0.0919022	-7.35185	0.0345083	0.164604	-0.0099963	-0.863037	-0.200439	0.668213	-0.0297778	-0.00952819	-0.991227	-0.12842	-0.45126	2.27938	-8.15532	0.00819907	0.0112836	-0.0164628	-0.378662	-0.183838	1.04932	0.143887	0.84485	0.512326	0.0552007	-0.419527	2.53273	-8.82591	-0.0811071	-0.00573875	-0.00940838	-0.415283	-0.177734	1.07495	-0.0150972	0.0397476	-0.993869	0.10206	-0.280116	-1.81294	-8.88006	-0.000334198	0.00489956	0.00362094	-0.415527	0.186523	1.08594	0.0312925	0.0367247	0.995482	0.0817787	-0.459014	1.59209	-9.56688	-0.0113983	0.00350067	-0.00383391	-0.431396	-0.153564	1.17114	
28	-0.990309	-0.00460034	-0.134517	-0.0342359	-2.51229	0.244463	10.6947	0.0220119	-0.107896	-0.000461807	0.658936	-0.0275879	-0.865967	0.486275	0.0390062	-0.872932	0.00235197	8.30112	0.160489	-5.05324	0.00439278	-0.0357523	-0.0347496	-0.949219	-0.208984	0.311768	0.671812	0.308964	-0.587964	0.327884	9.76988	-0.360329	1.7586	-0.0743109	-0.0178526	0.013871	-1.13086	-0.294678	-0.292725	0.662582	0.217478	-0.643788	0.315	9.67683	-1.19513	0.822345	-0.00840738	-0.000854234	-0.00156956	-1.20825	0.0412598	-0.260498	0.740137	-0.075287	-0.640566	-0.190277	9.77367	1.08247	1.71618	0.0806548	-0.0487817	-0.0315522	-0.914551	-0.0239258	-0.554199	0.734005	-0.218135	-0.473407	-0.435361	9.60307	1.90396	5.25107	0.0245469	-0.00339922	-0.0214946	-0.883057	-0.154541	-0.665039	0.32594	0.0627598	-0.943213	0.0131747	5.91039	0.0323258	-7.03794	0.018508	0.124582	-0.0152999	-0.865234	-0.200439	0.661865	-0.0297515	-0.0095685	-0.991246	-0.128276	-0.451482	2.2833	-8.16069	0.0150611	0.0170496	-0.0154516	-0.369873	-0.188232	1.04468	0.144431	0.844764	0.512221	0.0560673	-0.424838	2.56943	-8.8335	0.00444978	0.031774	-0.0120601	-0.415283	-0.175537	1.07495	-0.0150557	0.0397329	-0.993874	0.102026	-0.270285	-1.82062	-8.88396	0.00176008	0.0151345	0.00150893	-0.415527	0.186523	1.08838	0.0312932	0.0367517	0.995489	0.0816798	-0.502011	1.64289	-9.55408	0.0105907	0.00600544	-0.00472994	-0.433594	-0.155762	1.17139	
29	-0.990827	-0.00469331	-0.130408	-0.0351355	-2.16562	0.128938	10.8012	0.00826431	-0.103198	0.030419	0.654785	-0.0297852	-0.870361	0.485014	0.0394162	-0.873614	0.00230398	8.37223	0.194685	-5.12084	0.000114702	-0.0362201	-0.0301398	-0.951172	-0.215576	0.319092	0.671784	0.308501	-0.58866	0.327127	9.88023	-0.381363	1.66777	-0.0654363	-0.0306298	0.00736663	-1.12231	-0.303467	-0.29248	0.662352	0.217254	-0.644118	0.314965	9.8107	-1.17952	0.797313	-0.0287022	-0.00575929	0.00486833	-1.2085	0.0478516	-0.258301	0.740218	-0.0741134	-0.640892	-0.189317	9.71327	1.09587	1.56047	0.121258	0.00451865	-0.0186604	-0.910156	-0.026123	-0.561035	0.733682	-0.217672	-0.474188	-0.435288	9.64266	2.1024	5.10239	0.00908799	-0.00325107	-0.025345	-0.880615	-0.158691	-0.669189	0.327608	0.0625814	-0.942647	0.0131789	6.01216	0.0456152	-7.06525	0.00969138	0.0760001	-0.0125931	-0.865479	-0.196045	0.657471	-0.0297226	-0.00956766	-0.991252	-0.128237	-0.429814	2.28902	-8.15918	0.00699975	0.0123702	-0.0193985	-0.370117	-0.183838	1.04004	0.144192	0.844729	0.512302	0.0564694	-0.39601	2.55833	-8.79527	0.0164605	0.0183897	-0.0149643	-0.413086	-0.175537	1.07935	-0.0150715	0.0397504	-0.993877	0.101984	-0.256907	-1.8113	-8.91372	0.00543379	0.011116	0.00197484	-0.415283	0.179932	1.08838	0.0312214	0.0363948	0.995542	0.0812252	-0.380158	1.6243	-9.55801	0.0177582	0.00713935	-0.0134099	-0.431396	-0.153564	1.16431	
30	-0.991028	-0.00475108	-0.128805	-0.0353578	-2.01576	-0.097515	10.7893	0.0109064	-0.043738	0.00809343	0.650391	-0.0319824	-0.872559	0.484219	0.0396888	-0.874044	0.00213189	8.37016	0.174137	-5.12163	-0.0220878	-0.0205877	-0.0338613	-0.942383	-0.215576	0.32373	0.671849	0.307721	-0.589506	0.326205	9.6278	-0.346675	1.61861	-0.0504325	-0.00946442	-0.0124259	-1.12427	-0.30127	-0.285889	0.662083	0.216959	-0.644536	0.314879	9.6024	-1.09856	0.753787	-0.0119773	-0.00927137	0.0168595	-1.2085	0.0500488	-0.256348	0.739635	-0.0723389	-0.642125	-0.188101	9.5496	1.0448	1.47052	0.0517995	-0.021156	0.00630435	-0.912354	-0.026123	-0.561035	0.733026	-0.217644	-0.474983	-0.435541	9.48379	1.87814	5.13837	0.0121488	-0.0262322	-0.0621259	-0.891357	-0.158936	-0.664795	0.328893	0.0627672	-0.942177	0.0138417	5.99383	0.0913034	-7.03279	0.0371514	0.0623518	-0.017571	-0.867676	-0.198242	0.657471	-0.0297622	-0.00951422	-0.991274	-0.128063	-0.439285	2.28726	-8.16619	0.0128216	0.0146297	-0.0184759	-0.372314	-0.186035	1.04712	0.143589	0.844743	0.512485	0.0561256	-0.40473	2.53928	-8.82471	0.0261488	-0.000210009	-0.0186149	-0.410645	-0.175537	1.07935	-0.0150033	0.0396877	-0.993876	0.102027	-0.266889	-1.82219	-8.87858	0.00365119	0.00847675	0.00329463	-0.40625	0.179932	1.08398	0.0311244	0.0364727	0.995529	0.0813865	-0.478067	1.61475	-9.62229	-0.00269525	0.00939893	-0.00204268	-0.431396	-0.153564	1.16895	
31	-0.991172	-0.00497107	-0.127821	-0.0348691	-2.20321	0.115648	10.7203	0.00195698	-0.0348914	-0.0215171	0.647949	-0.0253906	-0.87915	0.484266	0.0399469	-0.874005	0.00233955	8.17308	0.168619	-5.10689	0.0139351	0.0178023	-0.0294242	-0.947021	-0.213379	0.319092	0.671955	0.307103	-0.59004	0.325603	9.94032	-0.531586	1.5697	-0.0791024	-0.0199727	0.00255495	-1.13086	-0.294678	-0.285889	0.662112	0.216449	-0.644892	0.314439	9.58617	-1.24914	0.732371	-0.0105928	-0.00423192	-0.00463333	-1.2063	0.0478516	-0.256104	0.739639	-0.071248	-0.642385	-0.187616	9.72582	2.03608	1.44998	0.0894348	0.00315439	-0.0443394	-0.909912	-0.0327148	-0.552002	0.732739	-0.217962	-0.475273	-0.435547	9.47851	1.811	5.12932	-0.0384089	-0.00737816	-0.00435582	-0.884766	-0.163086	-0.668945	0.329714	0.0627084	-0.941894	0.0138223	5.85141	0.0426586	-7.05368	0.0234264	0.0411887	-0.0122072	-0.867432	-0.202637	0.659668	-0.0296708	-0.00925573	-0.991288	-0.12799	-0.453904	2.27732	-8.17641	0.00524307	0.012173	-0.0185533	-0.37207	-0.186035	1.05176	0.143726	0.844682	0.51254	0.0561987	-0.410169	2.54629	-8.8189	-0.00870638	0.0069529	-0.0139581	-0.408203	-0.177734	1.07495	-0.0150268	0.0396742	-0.993874	0.102052	-0.270359	-1.82046	-8.88561	0.00371446	0.0119023	0.00239718	-0.410889	0.179932	1.08618	0.0310872	0.0365055	0.995503	0.0817025	-0.461759	1.60764	-9.55478	-0.00340275	0.00675186	-0.00586855	-0.433594	-0.157959	1.17139	
32	-0.991292	-0.00570871	-0.126883	-0.0347589	-2.11883	0.239316	10.8378	0.0390096	-0.0371717	0.0065523	0.645996	-0.0319824	-0.87915	0.483928	0.0404565	-0.874169	0.00229132	8.276	0.229603	-5.1516	0.00356367	-0.0089619	-0.0281662	-0.951172	-0.215576	0.312012	0.671527	0.306884	-0.590758	0.325388	9.76057	-0.175189	1.64141	0.0108552	-0.0485242	0.00275427	-1.12866	-0.303467	-0.28125	0.662253	0.215929	-0.64513	0.314011	9.74895	-1.30128	0.737435	-0.0334767	0.0126509	0.00361532	-1.20386	0.0456543	-0.258301	0.739336	-0.0708271	-0.642742	-0.187746	9.90231	0.712654	1.41286	0.0324648	0.0114416	-0.0211852	-0.918457	-0.0349121	-0.547363	0.732544	-0.217999	-0.475388	-0.435732	9.66807	1.92072	5.29271	-0.00774164	-0.000574367	-0.0304502	-0.891357	-0.160889	-0.666992	0.329681	0.0629008	-0.941887	0.0142156	6.00868	0.0534689	-7.10277	0.0313892	-0.00177745	-0.0229453	-0.874023	-0.198242	0.659668	-0.0296401	-0.00928354	-0.991302	-0.127892	-0.45221	2.28558	-8.14315	0.0129501	0.0167783	-0.015443	-0.370117	-0.183838	1.04224	0.143667	0.844664	0.51258	0.0562589	-0.400353	2.53726	-8.81333	0.00807127	0.00993036	-0.0151291	-0.412842	-0.179932	1.07495	-0.0150453	0.0396561	-0.993879	0.102005	-0.261375	-1.8081	-8.89874	0.000312809	0.00975204	0.00407213	-0.415283	0.182129	1.09058	0.0311271	0.036477	0.995504	0.0816879	-0.428258	1.60398	-9.58692	-0.000292769	0.00362953	-0.00838708	-0.429199	-0.153564	1.17358	
33	-0.991371	-0.00598706	-0.126054	-0.0354678	-1.99687	0.128794	10.8135	0.0121947	-0.026312	0.0439764	0.645996	-0.0319824	-0.872559	0.483634	0.0405472	-0.874328	0.0021224	8.33533	0.259551	-5.08496	-0.00879511	-0.00337827	-0.0255868	-0.948975	-0.213379	0.31665	0.672224	0.305518	-0.591091	0.324631	9.66611	-0.626545	1.86363	-0.0485433	0.00957779	-0.0170267	-1.12671	-0.296875	-0.288086	0.662111	0.215712	-0.645466	0.313771	9.92557	-1.28719	0.658166	-0.0317564	0.00200585	-0.00171477	-1.20386	0.0456543	-0.258301	0.739442	-0.0691147	-0.643026	-0.186994	9.6695	1.61972	1.63861	0.0332588	0.00354473	-0.0445242	-0.913818	-0.0415039	-0.547363	0.732664	-0.217005	-0.475927	-0.435437	9.57907	2.07732	5.15893	0.0297473	0.0207003	-0.0119387	-0.882812	-0.156738	-0.665039	0.328485	0.0628795	-0.942311	0.0139253	6.03893	0.0118228	-7.22853	0.00819921	-0.0519585	-0.0210665	-0.867432	-0.198242	0.663818	-0.0296381	-0.00927	-0.99132	-0.127751	-0.440351	2.2902	-8.15625	0.00754094	0.0132538	-0.016181	-0.36792	-0.186035	1.04004	0.143781	0.844595	0.512655	0.0563102	-0.396253	2.55293	-8.82632	0.0011499	0.00186562	-0.018086	-0.415039	-0.180176	1.07495	-0.0150861	0.0396415	-0.993882	0.101982	-0.257	-1.81958	-8.8794	0.0012697	0.0105164	0.00255377	-0.41748	0.182129	1.08374	0.0311205	0.0364564	0.995509	0.0816355	-0.424031	1.56683	-9.61119	0.00673607	0.0071988	-0.00825543	-0.433838	-0.153564	1.17114	
34	-0.991371	-0.00598706	-0.126054	-0.0354678	-1.99687	0.128794	10.8135	0.0121947	-0.026312	0.0439764	0.645996	-0.0319824	-0.872559	0.483993	0.0408554	-0.874114	0.00245162	8.30795	0.219142	-5.20796	0.00952067	0.0328071	-0.0279192	-0.951172	-0.215576	0.316895	0.672126	0.305831	-0.590916	0.324858	9.80499	-0.232741	1.72298	-0.0247811	0.027737	0.00117281	-1.12646	-0.30127	-0.288086	0.662314	0.215703	-0.64531	0.313667	9.68601	-1.1791	0.799069	-0.00154015	0.0220503	-0.0129739	-1.20874	0.0522461	-0.265137	0.739684	-0.0687489	-0.642918	-0.186541	9.63631	1.32451	1.61102	0.0220239	0.0363325	0.00779396	-0.914062	-0.0371094	-0.552002	0.732476	-0.216416	-0.476235	-0.435711	9.52984	1.92251	5.17466	0.0288012	0.00982011	-0.0487108	-0.886719	-0.165283	-0.664795	0.327623	0.0630381	-0.942599	0.0140274	5.97125	0.045141	-6.94675	0.0335132	-0.0632156	-0.024319	-0.863037	-0.200439	0.668213	-0.0297373	-0.00921324	-0.991314	-0.127778	-0.449289	2.28584	-8.14976	0.00607363	0.009786	-0.0205097	-0.372314	-0.183838	1.04932	0.143729	0.844569	0.512724	0.0562098	-0.402849	2.55368	-8.8478	0.0143798	-0.000491597	-0.0217753	-0.415039	-0.182373	1.07959	-0.0151099	0.0396093	-0.993893	0.101876	-0.276776	-1.81339	-8.90047	0.000713002	0.0104314	0.00442292	-0.411133	0.188721	1.08813	0.0311151	0.0364761	0.9955	0.0817424	-0.424509	1.64292	-9.59182	-0.00591401	0.00697471	-0.00470021	-0.429199	-0.153564	1.17358	
35	-0.991275	-0.00572534	-0.126634	-0.0361123	-2.16383	0.159495	10.7235	-0.00228899	0.0368155	0.0123628	0.641602	-0.0297852	-0.876953	0.484421	0.0413807	-0.87385	0.00310178	8.24697	0.242225	-5.09004	0.0198936	0.037535	-0.0191359	-0.947021	-0.213379	0.31665	0.672397	0.306392	-0.590392	0.324719	9.85425	-0.466942	1.3811	0.0244276	0.00747755	-0.0248619	-1.12427	-0.30127	-0.285889	0.662418	0.215693	-0.645222	0.313636	9.83731	-1.23223	0.685035	-0.00852823	0.0225585	-0.00717689	-1.20605	0.0456543	-0.258301	0.739681	-0.0680794	-0.642935	-0.186738	9.84537	1.25961	1.57361	-0.00831475	0.0415658	-0.0415752	-0.909668	-0.0371094	-0.558838	0.732606	-0.215804	-0.476409	-0.435605	9.59025	1.85176	5.1997	0.00324384	0.0146933	-0.0147108	-0.886963	-0.163086	-0.664795	0.326595	0.0632607	-0.942944	0.0138008	5.96411	-0.110121	-7.08493	0.0137485	-0.0305631	-0.0268369	-0.865234	-0.200439	0.668213	-0.0297812	-0.0091949	-0.991321	-0.127713	-0.439222	2.2714	-8.1556	0.00551894	0.0123205	-0.0176887	-0.381104	-0.181641	1.04688	0.143434	0.844431	0.51307	0.0558803	-0.406277	2.53345	-8.8338	0.0208651	0.00344572	-0.0185145	-0.415283	-0.17334	1.07935	-0.01513	0.0395407	-0.993905	0.101784	-0.26859	-1.81748	-8.88792	-0.00121011	0.00994871	0.00435412	-0.415527	0.184326	1.08838	0.0310937	0.0365359	0.995427	0.0826002	-0.431755	1.63655	-9.58404	-0.0141329	0.00616136	-0.00331887	-0.428955	-0.157959	1.16895	
36	-0.991202	-0.00518846	-0.12713	-0.036468	-2.37391	-0.0464308	10.7157	-0.0161676	0.0197187	0.0148073	0.645996	-0.0319824	-0.868164	0.484968	0.0412964	-0.87355	0.00334997	8.26634	0.206105	-5.04325	-0.0150681	0.0377003	-0.00891821	-0.946777	-0.215576	0.316895	0.672763	0.306525	-0.589832	0.324855	9.71424	-0.209085	1.7393	0.0229276	0.0267716	-0.0351573	-1.13086	-0.299072	-0.283447	0.66312	0.215198	-0.644562	0.313849	9.69048	-1.09952	0.817984	0.00357799	0.0487301	0.0165717	-1.2085	0.0478516	-0.262695	0.739945	-0.0677927	-0.642661	-0.186741	9.69765	1.77017	1.68505	0.00981103	0.0311863	-0.0425744	-0.912109	-0.0327148	-0.552002	0.732709	-0.215456	-0.476317	-0.435705	9.60696	2.21539	5.25339	-0.00425335	0.0297713	-0.00259212	-0.886963	-0.163086	-0.666992	0.325578	0.0635044	-0.943271	0.0143795	5.93372	0.0252218	-7.12017	0.0394541	-0.0316046	-0.0191589	-0.863281	-0.198242	0.663818	-0.0297479	-0.00919322	-0.991323	-0.127707	-0.445966	2.29099	-8.17707	0.00556014	0.0168961	-0.0184199	-0.372314	-0.183838	1.04932	0.143117	0.844416	0.513192	0.0557957	-0.401189	2.53488	-8.8313	0.031633	0.0107729	-0.0198068	-0.41748	-0.180176	1.07495	-0.0151572	0.0395386	-0.993905	0.101787	-0.259914	-1.80499	-8.90106	0.00398428	0.00863578	0.00207039	-0.410889	0.182129	1.08838	0.0310167	0.0365294	0.995426	0.0826453	-0.444046	1.65405	-9.55419	-0.000656957	0.0129193	-0.00618252	-0.435791	-0.157959	1.17139	
37	-0.991184	-0.00496301	-0.127294	-0.0364194	-2.26655	0.130582	10.8498	-0.0178061	0.0132793	-0.0092949	0.648193	-0.0319824	-0.870361	0.485215	0.0412569	-0.873413	0.00373663	8.47014	0.313611	-5.04901	-0.0246893	0.0234965	-0.0114537	-0.947021	-0.211182	0.307129	0.672727	0.306219	-0.589768	0.325333	9.77856	-0.439418	1.99235	0.0128456	0.0138535	0.0235728	-1.12231	-0.297119	-0.285889	0.664037	0.214963	-0.643528	0.314194	9.65222	-1.14881	0.928528	0.020639	0.0492373	-0.0169335	-1.20605	0.0456543	-0.269287	0.74015	-0.0678261	-0.642351	-0.186985	9.84203	1.00086	1.48289	0.00995921	0.0172662	-0.0110861	-0.909912	-0.0349121	-0.552002	0.732886	-0.215093	-0.476206	-0.435708	9.64899	1.87238	5.20127	0.01085	0.0216992	-0.0263563	-0.88501	-0.158936	-0.669189	0.324001	0.0636074	-0.9438	0.0147896	6.11032	0.20269	-7.11905	0.0435664	-0.0486572	-0.00932612	-0.86084	-0.202637	0.67041	-0.0295715	-0.00893253	-0.991356	-0.127513	-0.438303	2.27503	-8.15338	0.00523161	0.0166536	-0.0169392	-0.370117	-0.186035	1.04712	0.142707	0.844298	0.513526	0.055559	-0.390169	2.51426	-8.79376	-0.000975565	-0.000766652	-0.0167437	-0.413086	-0.170898	1.07251	-0.0150643	0.0394479	-0.993915	0.101732	-0.262629	-1.80483	-8.8907	0.00474697	0.0089486	0.0037932	-0.410889	0.182129	1.08838	0.0309811	0.0364004	0.99545	0.0824322	-0.461011	1.62782	-9.61244	0.00981296	0.0046962	-0.00856164	-0.431396	-0.157959	1.17578	
38	-0.991156	-0.00498153	-0.127582	-0.036163	-2.36703	0.11396	10.7474	0.0201916	0.0165206	-0.00588019	0.645996	-0.0319824	-0.872559	0.485712	0.0411964	-0.873138	0.00415015	8.29388	0.203733	-5.11398	0.0215807	0.0365861	-0.0111942	-0.949219	-0.211182	0.314209	0.672925	0.306109	-0.589576	0.325377	9.7909	-0.33741	1.53004	-0.0698509	0.0372274	-0.0045234	-1.12427	-0.303467	-0.288086	0.664314	0.214607	-0.643097	0.314732	9.74144	-1.23085	0.752093	0.0150742	0.0431092	0.0183262	-1.2041	0.0478516	-0.267334	0.740403	-0.0673318	-0.642134	-0.186906	9.65359	1.41991	1.75503	-0.0407375	0.0204751	-0.0161967	-0.916504	-0.0349121	-0.558838	0.73309	-0.214897	-0.476099	-0.435577	9.46006	1.89392	5.21759	0.0172389	0.0191902	-0.00435678	-0.886719	-0.165283	-0.662598	0.323844	0.0635473	-0.943859	0.0147043	5.97879	-0.00410299	-7.20023	0.0107767	-0.00474339	-0.0148533	-0.854492	-0.198242	0.668213	-0.0296243	-0.0088989	-0.991349	-0.127553	-0.43329	2.27122	-8.16247	0.00202829	0.0106664	-0.0200687	-0.37207	-0.188232	1.04712	0.142622	0.844276	0.513612	0.0553252	-0.393578	2.52678	-8.81951	0.0219312	-0.00953278	-0.0193353	-0.410645	-0.177734	1.07715	-0.0150983	0.0394221	-0.993915	0.10174	-0.268081	-1.80828	-8.89664	0.00462681	0.00872337	0.00437001	-0.406494	0.186523	1.08594	0.0308132	0.0364907	0.995399	0.0830616	-0.425654	1.5955	-9.58689	-0.0243446	0.0157509	0.00366806	-0.431152	-0.160156	1.17822	
39	-0.991162	-0.0051537	-0.127453	-0.036417	-2.23287	0.191244	10.7935	0.00673371	-0.00253903	0.0152462	0.652588	-0.0341797	-0.868164	0.485825	0.041138	-0.873077	0.00428696	8.19774	0.293512	-4.98751	-0.00320322	0.0230382	-0.0103544	-0.942383	-0.215576	0.314453	0.672992	0.305977	-0.589566	0.325381	9.57062	-0.849924	1.64218	-0.0100754	0.00940563	0.000111307	-1.13086	-0.299072	-0.285889	0.664751	0.21432	-0.6427	0.314818	9.79021	-1.17019	0.835393	-0.00294938	0.0229026	-0.00426446	-1.2085	0.0500488	-0.269531	0.740435	-0.0673389	-0.642115	-0.18684	9.73249	1.00522	1.38998	-7.55114e-05	0.00900509	-0.0105682	-0.909668	-0.0371094	-0.558838	0.733128	-0.214498	-0.47621	-0.43559	9.41657	1.99603	5.23037	0.00767739	0.0112889	-0.017098	-0.888916	-0.16748	-0.662598	0.320679	0.0641263	-0.944887	0.0155397	5.80707	0.0389403	-7.22405	0.0292948	-0.11834	-0.0109665	-0.854736	-0.193848	0.674316	-0.0295784	-0.00861411	-0.991362	-0.127481	-0.448821	2.28725	-8.15883	0.00531206	0.0105396	-0.0199464	-0.370117	-0.186035	1.04468	0.142708	0.844095	0.513945	0.054765	-0.399624	2.51048	-8.79212	0.00673536	-0.00138596	-0.0148347	-0.413086	-0.170898	1.07935	-0.0150204	0.0392843	-0.993926	0.101698	-0.276769	-1.80209	-8.88221	-0.00149625	0.00950135	0.00341823	-0.410889	0.182129	1.08838	0.0307715	0.0366563	0.995364	0.0834303	-0.462206	1.67952	-9.60596	-0.0201368	0.0057473	-0.00053871	-0.437988	-0.160156	1.16919	
40	-0.991138	-0.00497338	-0.127658	-0.0363979	-2.02429	0.161149	10.7802	-0.00358339	0.0212608	0.00528564	0.645996	-0.0319824	-0.872559	0.48632	0.0408579	-0.872813	0.00470663	8.40713	0.199639	-5.16435	-0.00308387	0.0430649	-0.00685575	-0.947021	-0.211182	0.312012	0.672959	0.306821	-0.588639	0.326329	9.79082	-0.316682	1.88834	0.0199314	0.034511	-0.0251065	-1.12451	-0.30127	-0.290283	0.665185	0.214294	-0.641939	0.315469	9.73069	-1.1571	0.924839	0.016111	0.0420393	0.0131097	-1.21069	0.0478516	-0.269531	0.740582	-0.0666028	-0.641994	-0.186938	9.71265	1.19713	1.63021	-0.0205934	0.00560893	-0.0463688	-0.909668	-0.0371094	-0.558838	0.733648	-0.213745	-0.476496	-0.434769	9.5356	2.05213	5.24086	0.0363784	0.0240966	0.0188432	-0.882324	-0.169678	-0.666748	0.317468	0.0640805	-0.94598	0.0151602	5.88867	-0.0146797	-7.24974	0.0256626	-0.106187	-0.0154624	-0.854492	-0.200439	0.689453	-0.0296058	-0.00856733	-0.991368	-0.127433	-0.423201	2.27374	-8.15399	0.00917465	0.0137046	-0.0193119	-0.374512	-0.183838	1.04688	0.142516	0.844067	0.514089	0.054336	-0.423871	2.51572	-8.84203	0.0190981	-0.0126914	-0.020382	-0.410889	-0.170898	1.08154	-0.0150035	0.0392302	-0.993924	0.101736	-0.275858	-1.79946	-8.89475	0.00703073	0.011972	0.0027577	-0.413086	0.179932	1.09082	0.0305833	0.0367826	0.995353	0.0835662	-0.401917	1.66092	-9.57956	0.00529504	0.0140687	0.000965199	-0.435547	-0.162354	1.16919	
41	-0.990993	-0.00455982	-0.128672	-0.0368261	-2.32135	0.113895	10.662	-0.0229269	0.0472765	0.0175026	0.652588	-0.0319824	-0.870361	0.48668	0.0405807	-0.872625	0.00468439	8.31639	0.252502	-5.1654	-0.0236094	0.0448001	-0.00168987	-0.947021	-0.213379	0.312012	0.672856	0.307133	-0.588458	0.326575	9.68154	-0.349581	1.52183	0.0341695	0.00456371	-0.0085272	-1.12866	-0.305664	-0.285645	0.665822	0.213802	-0.641161	0.316042	9.73561	-1.18136	0.964367	0.00714585	0.0416648	0.0120247	-1.2019	0.050293	-0.273926	0.740823	-0.0668694	-0.641817	-0.186496	9.85221	0.786499	1.60092	0.00240524	0.0225911	0.0291756	-0.912109	-0.0349121	-0.558838	0.733648	-0.213745	-0.476496	-0.434769	9.5356	2.05213	5.24086	0.0363784	0.0240966	0.0188432	-0.882324	-0.169678	-0.666748	0.31471	0.0640605	-0.946905	0.0150064	5.71242	0.0573027	-7.09949	0.00474933	-0.10738	-0.0173076	-0.844238	-0.189453	0.682861	-0.0296058	-0.00856733	-0.991368	-0.127433	-0.423201	2.27374	-8.15399	0.00917465	0.0137046	-0.0193119	-0.374512	-0.183838	1.04688	0.14215	0.844073	0.514229	0.0538701	-0.426009	2.5116	-8.80781	0.0509164	-0.0128356	-0.0237744	-0.413086	-0.170898	1.07715	-0.0150611	0.0391915	-0.993925	0.101741	-0.272159	-1.80376	-8.9111	0.00465989	0.00686534	0.00582677	-0.410889	0.179932	1.08838	0.030465	0.0368525	0.995348	0.0836423	-0.423897	1.62484	-9.60863	-0.00270419	0.0154522	0.000314696	-0.435791	-0.160156	1.17139	
42	-0.990926	-0.00432889	-0.12918	-0.0368615	-2.44712	0.0672834	10.6515	-0.0143726	0.0463477	0.00264629	0.657227	-0.0361328	-0.870361	0.4875	0.0404113	-0.872174	0.00484681	8.18386	0.0753676	-4.99771	0.00416871	0.0507278	-0.0143125	-0.944824	-0.208984	0.30957	0.673248	0.306999	-0.587922	0.326858	9.60544	-0.58705	1.58951	0.015604	0.0288503	-0.0201984	-1.12646	-0.305664	-0.294678	0.665924	0.213657	-0.640964	0.316323	9.62623	-1.23378	0.810161	0.013916	0.0291098	0.0162337	-1.2041	0.0524902	-0.280518	0.74099	-0.066462	-0.641753	-0.1862	9.54263	1.63544	1.77703	-0.0137018	0.00906348	-0.0356242	-0.909668	-0.0371094	-0.561035	0.733599	-0.21382	-0.476114	-0.435234	9.41269	2.03528	5.18396	-0.0242397	0.0201043	0.0154562	-0.884766	-0.165283	-0.671143	0.313483	0.0640544	-0.947317	0.0146831	5.62962	0.0143733	-7.25159	-0.00157418	-0.0960483	-0.0211243	-0.8479	-0.200439	0.69165	-0.0294315	-0.00795164	-0.9914	-0.127263	-0.44967	2.28435	-8.16254	0.00543907	0.0123907	-0.0176631	-0.372314	-0.186035	1.04468	0.142091	0.84404	0.514338	0.0535116	-0.425298	2.47907	-8.83388	-0.0153146	-0.00772784	-0.0154299	-0.410645	-0.175537	1.07935	-0.015095	0.0391306	-0.99393	0.101709	-0.273786	-1.80845	-8.88783	0.00222501	0.010245	0.00413144	-0.408691	0.182129	1.08374	0.0304662	0.0369513	0.995327	0.0838459	-0.465465	1.64283	-9.60731	-0.00779239	0.00243188	-0.00436753	-0.431396	-0.153564	1.16431	
43	-0.990877	-0.00403294	-0.129602	-0.0367336	-2.46885	0.176719	10.7659	-0.018117	0.0392179	-0.0121817	0.648682	-0.0407715	-0.86377	0.487953	0.0400527	-0.871937	0.00485284	8.41399	0.247022	-5.07132	-0.0299597	0.0319461	-0.00696049	-0.951416	-0.208984	0.304688	0.673057	0.306842	-0.587832	0.327561	9.75077	-0.302414	1.88543	0.0184874	0.0113094	0.0282805	-1.12231	-0.294922	-0.292725	0.666633	0.213154	-0.640365	0.316383	9.66699	-1.22727	0.940309	0.00191116	0.0505881	-0.00402624	-1.2019	0.0524902	-0.27832	0.741067	-0.0663118	-0.641712	-0.186085	9.72655	1.45061	1.53989	0.0418597	0.0224821	-0.0111906	-0.912109	-0.0349121	-0.558838	0.733822	-0.213794	-0.475961	-0.435039	9.58547	2.12734	5.22634	0.016508	0.0199191	-0.0032706	-0.882568	-0.160889	-0.666992	0.312035	0.0637907	-0.947818	0.014354	5.72266	0.0316387	-7.22294	0.00597407	-0.0375674	-0.00835022	-0.841553	-0.200439	0.695801	-0.0294308	-0.00795394	-0.991386	-0.127378	-0.446518	2.28822	-8.17592	0.00172114	0.0134983	-0.0187145	-0.370361	-0.181641	1.04224	0.143041	0.843984	0.514123	0.0539216	-0.4279	2.51692	-8.82706	-0.024272	-0.00527204	-0.00933949	-0.41748	-0.177979	1.08398	-0.0151289	0.0390668	-0.993929	0.101731	-0.258878	-1.81358	-8.91462	0.00674573	0.0104801	0.00492841	-0.406494	0.184326	1.08838	0.0305286	0.0370302	0.995313	0.0839586	-0.391944	1.68827	-9.55948	0.00145	0.00338863	-0.00396894	-0.43335	-0.164551	1.17139	
44	-0.990842	-0.00382659	-0.129807	-0.036988	-2.45366	0.0864787	10.7825	0.00855388	-0.0101254	0.01243	0.654785	-0.0341797	-0.865967	0.488579	0.0398593	-0.871594	0.00508341	8.41978	0.196072	-5.02665	0.000169206	0.0445515	-0.00938401	-0.953613	-0.211182	0.30249	0.673301	0.306264	-0.58789	0.327494	9.72773	-0.44026	1.55465	-0.0562982	0.0116484	0.00557807	-1.12451	-0.296875	-0.294922	0.666792	0.212315	-0.640481	0.316377	9.73477	-1.23668	0.832354	-0.0185391	0.0125109	0.0199053	-1.2085	0.0478516	-0.27832	0.741017	-0.0661688	-0.64177	-0.186135	9.85994	0.963143	1.44021	-0.036583	0.0116756	0.0011976	-0.907471	-0.0371094	-0.561035	0.733942	-0.214499	-0.475592	-0.434893	9.60039	1.78174	5.244	-0.00625197	0.00615288	-0.00383925	-0.876465	-0.156738	-0.665039	0.310631	0.063514	-0.948309	0.0135548	5.74859	0.0258738	-7.37951	-0.0202051	-0.0449641	-0.0132227	-0.841309	-0.204834	0.696045	-0.029556	-0.00783877	-0.991373	-0.127454	-0.448711	2.27418	-8.17374	0.00342733	0.0102226	-0.0232265	-0.370117	-0.186035	1.04004	0.142668	0.843991	0.514277	0.0533228	-0.451969	2.50395	-8.84278	0.0452347	-0.0091851	-0.025065	-0.417725	-0.175537	1.07715	-0.015199	0.0390365	-0.993926	0.101765	-0.248033	-1.80117	-8.8816	0.00481862	0.00813622	0.00423084	-0.415283	0.182129	1.08374	0.030388	0.0371736	0.99532	0.0838651	-0.424755	1.6882	-9.57584	0.0133915	0.0126308	-0.00108388	-0.44043	-0.153564	1.17114	
45	-0.990873	-0.00380313	-0.129553	-0.0370455	-2.33842	0.0280186	10.7629	-0.000167421	-0.00648149	0.00367409	0.654785	-0.0319824	-0.870361	0.489067	0.0393358	-0.871346	0.00484725	8.35066	0.132175	-5.04173	-0.0199944	0.0249921	-0.00831752	-0.95166	-0.20459	0.304688	0.673209	0.306034	-0.587962	0.327771	9.83777	-0.164845	1.99435	0.00735732	0.00270489	0.00162689	-1.12012	-0.303711	-0.290283	0.667059	0.21186	-0.640368	0.316348	9.66651	-1.18467	1.0961	-0.00755025	0.0123526	0.00699071	-1.20874	0.0544434	-0.276123	0.741132	-0.0659824	-0.641802	-0.185633	9.62611	1.66388	1.82309	-0.0132349	0.00199846	-0.00716053	-0.911865	-0.0393066	-0.556641	0.733924	-0.215322	-0.475009	-0.435154	9.52219	1.99669	5.22412	-0.0314549	0.0188422	0.0101645	-0.887207	-0.156738	-0.671387	0.309611	0.0632924	-0.948665	0.0130351	5.65552	0.0353952	-7.34278	0.00383983	-0.0300631	-0.0160092	-0.84375	-0.200439	0.697998	-0.0296003	-0.00780143	-0.991374	-0.12744	-0.455125	2.28364	-8.16955	0.0067389	0.0110219	-0.0197938	-0.374756	-0.179443	1.04468	0.141948	0.844018	0.514492	0.0527488	-0.451044	2.4806	-8.82747	0.0341126	0.00168713	-0.0174358	-0.415527	-0.170898	1.07495	-0.0152502	0.0390001	-0.993922	0.101808	-0.266007	-1.82316	-8.89701	0.00749581	0.00707033	0.00539912	-0.410889	0.179932	1.08618	0.0304003	0.0372115	0.995341	0.0835859	-0.446075	1.6063	-9.57768	0.0161774	0.00783815	-0.00440452	-0.435547	-0.162354	1.16675	
46	-0.990914	-0.00386151	-0.129248	-0.0370139	-2.32744	0.0452458	10.7273	0.00999934	-0.00778519	-0.0115015	0.65918	-0.0319824	-0.86377	0.489471	0.0390849	-0.87113	0.00480632	8.27437	0.168278	-5.03193	-0.0156904	0.0310855	-0.0146754	-0.951416	-0.208984	0.304688	0.673498	0.305397	-0.588072	0.327574	9.80301	-0.533154	1.71431	-0.0435558	0.0149676	0.013102	-1.12866	-0.296875	-0.290527	0.66717	0.211273	-0.640432	0.316379	9.70843	-1.32649	0.920697	-0.00513916	0.0210042	0.00852421	-1.20654	0.0544434	-0.27832	0.741299	-0.0657255	-0.641772	-0.185161	9.65402	1.35682	1.56375	0.0434316	0.0238578	0.0012894	-0.911865	-0.0371094	-0.554199	0.733914	-0.215813	-0.474789	-0.435166	9.49371	1.86227	5.20198	-0.00913093	0.00641063	-0.0085664	-0.88916	-0.158936	-0.671387	0.308989	0.0632358	-0.948876	0.0127156	5.60353	0.019496	-7.23454	0.0104119	-0.00739395	-0.0167613	-0.837402	-0.198242	0.697998	-0.0294477	-0.00750988	-0.991386	-0.127395	-0.440605	2.27976	-8.15658	0.00182674	0.0119819	-0.0170484	-0.374268	-0.186035	1.04468	0.141898	0.843949	0.514616	0.0527838	-0.448655	2.47695	-8.82255	0.00422782	0.00420212	-0.0119474	-0.417725	-0.175537	1.08154	-0.0151951	0.0389154	-0.9939	0.102071	-0.262586	-1.81607	-8.8986	0.0087364	0.00828723	0.00481175	-0.411133	0.186523	1.09058	0.0303411	0.0373105	0.995358	0.0833642	-0.42082	1.64393	-9.66609	0.00858553	0.0064375	-0.000994993	-0.433838	-0.151367	1.17114	
47	-0.990961	-0.00370956	-0.129003	-0.0366145	-2.20669	0.131667	10.6955	-0.00992998	-0.00479556	-0.00451807	0.661621	-0.0339355	-0.870361	0.489628	0.0389794	-0.871046	0.00482678	8.41734	0.129748	-4.92738	-0.0132424	0.0266477	-0.0116066	-0.949219	-0.213379	0.304932	0.673471	0.305344	-0.588069	0.327685	9.79557	-0.509802	1.85125	0.000913277	0.00545237	0.00269574	-1.12451	-0.294922	-0.295166	0.667327	0.210955	-0.640341	0.316445	9.64686	-1.27188	0.871954	0.0045098	0.0193002	0.00864102	-1.20435	0.0546875	-0.280518	0.741241	-0.0661144	-0.641725	-0.185417	9.60347	1.95053	1.70339	-0.0394343	0.00306643	-0.0109534	-0.911865	-0.0393066	-0.558838	0.734169	-0.216251	-0.474377	-0.434969	9.54422	1.84533	5.20719	-0.021272	0.0163144	0.0167494	-0.889404	-0.156738	-0.666992	0.308381	0.0631298	-0.949084	0.0124834	5.54276	0.0564618	-7.36302	0.00940873	-0.0183583	-0.0107491	-0.830566	-0.202637	0.696045	-0.0294818	-0.00749232	-0.991374	-0.127482	-0.443243	2.2874	-8.16084	-0.00155238	0.0118109	-0.018982	-0.369873	-0.192627	1.04712	0.141734	0.843946	0.514676	0.0526822	-0.448019	2.48825	-8.84282	0.0261936	0.00670952	-0.0167502	-0.408691	-0.168701	1.07935	-0.015233	0.038868	-0.993899	0.102091	-0.25871	-1.81872	-8.89817	0.00333874	0.00937816	0.00348878	-0.413086	0.182129	1.08838	0.0302528	0.0373304	0.995351	0.0834752	-0.414766	1.62403	-9.54204	-0.00291211	0.0134637	-0.00652599	-0.44043	-0.158203	1.17358	
48	-0.990924	-0.00342492	-0.129285	-0.0366612	-2.30276	0.0151646	10.8154	-0.00672804	0.0184718	0.00113988	0.656982	-0.0297852	-0.865967	0.48985	0.0385948	-0.870939	0.00470381	8.43093	0.197821	-4.96821	-0.0277062	0.0112744	-0.00848115	-0.951416	-0.208984	0.300049	0.67351	0.305179	-0.587902	0.328058	9.83943	-0.485458	1.79747	-0.021049	0.0131829	0.0165208	-1.12451	-0.296875	-0.292725	0.667347	0.210762	-0.640347	0.316517	9.73068	-1.21295	0.965699	-0.00160299	0.00583568	0.00659114	-1.19751	0.050293	-0.276123	0.741464	-0.0660437	-0.641555	-0.18514	9.70741	0.838753	1.63666	0.0596789	0.0365424	0.0205823	-0.907471	-0.0371094	-0.556641	0.734218	-0.215606	-0.474694	-0.434861	9.59127	2.18475	5.17125	0.028199	0.0238819	-0.0134591	-0.88501	-0.156738	-0.666992	0.308097	0.0628438	-0.949201	0.0120243	5.66675	0.0687661	-7.32453	-0.00595859	0.0283458	-0.0142913	-0.833008	-0.200439	0.702393	-0.0295432	-0.00743621	-0.991355	-0.127624	-0.441142	2.29193	-8.17398	-0.00278178	0.0119773	-0.0198313	-0.36792	-0.183838	1.04932	0.14121	0.843906	0.514925	0.0523001	-0.444316	2.48277	-8.84227	0.0432593	-0.000107434	-0.0261036	-0.411133	-0.166504	1.08154	-0.0152633	0.0388526	-0.993903	0.102049	-0.271554	-1.81152	-8.88388	0.00069605	0.00858509	0.00377749	-0.410889	0.184326	1.08594	0.0301054	0.0373906	0.995331	0.0837375	-0.374059	1.66767	-9.63047	-0.0128152	0.0117056	-0.00183855	-0.435791	-0.155762	1.16455	
49	-0.990916	-0.00356497	-0.129322	-0.0367348	-2.42405	0.116667	10.8292	0.0106398	-0.0023585	0.0127371	0.656982	-0.0319824	-0.868164	0.490105	0.038734	-0.870786	0.00523055	8.41109	0.156047	-5.02694	0.0128712	0.0320585	-0.0109396	-0.951172	-0.213379	0.30249	0.673599	0.305209	-0.587798	0.328031	9.8003	-0.529046	1.67305	-0.0179978	0.0174618	-0.0104129	-1.12231	-0.30127	-0.290283	0.667313	0.210789	-0.64029	0.316687	9.7356	-1.2686	0.880572	0.00333997	0.00436399	0.00397502	-1.20654	0.0568848	-0.280518	0.74135	-0.0659736	-0.641619	-0.185398	9.84593	1.27141	1.72942	-0.0318358	0.00789669	-0.0438367	-0.909668	-0.0393066	-0.561035	0.734421	-0.215733	-0.474472	-0.434698	9.59766	1.90621	5.26314	-0.00466038	0.0254167	0.0136449	-0.887451	-0.152344	-0.667236	0.307086	0.0629099	-0.949528	0.011735	5.64884	0.0319603	-7.24967	0.0473577	-0.0223679	-0.0176753	-0.839355	-0.202637	0.706543	-0.0297356	-0.00731223	-0.991333	-0.127752	-0.454855	2.29218	-8.15826	-0.00151924	0.00540115	-0.0237897	-0.374512	-0.183838	1.04468	0.140601	0.843908	0.515136	0.0518271	-0.433785	2.45499	-8.85521	0.0680689	-0.00261726	-0.0276424	-0.408691	-0.16626	1.08154	-0.0153491	0.0388111	-0.993911	0.101976	-0.269869	-1.82122	-8.89389	0.00205	0.00712269	0.00509268	-0.408691	0.184326	1.08838	0.0299211	0.0374324	0.995299	0.0841591	-0.403104	1.58437	-9.55704	-0.0306356	0.0219788	-0.000832688	-0.43335	-0.160156	1.16455	
50	-0.990936	-0.00355555	-0.129111	-0.0369253	-2.34211	0.20783	10.6971	-0.00083395	-0.0125649	0.0169243	0.652588	-0.0341797	-0.870361	0.490394	0.0389789	-0.870611	0.00555182	8.35177	0.0692464	-4.9859	0.00810462	0.0216767	-0.0223319	-0.949463	-0.206787	0.302246	0.673765	0.305752	-0.587193	0.32827	9.76653	-0.243647	1.72458	0.0180801	0.0167376	-0.0248097	-1.12451	-0.299072	-0.292725	0.667281	0.210769	-0.640297	0.316753	9.68667	-1.21499	0.981799	0.00682181	0.00443216	0.00529947	-1.20679	0.059082	-0.280518	0.74153	-0.0660904	-0.641597	-0.184715	9.65465	1.59809	1.65542	0.0516365	-0.00154363	-0.00479426	-0.909668	-0.0393066	-0.558838	0.734295	-0.214914	-0.475059	-0.434673	9.56862	2.00796	5.18097	0.0395615	0.00353085	-0.0296576	-0.88501	-0.154541	-0.665039	0.307009	0.0629994	-0.949542	0.0120707	5.59101	0.139995	-7.24542	0.046025	0.00450014	-0.0160502	-0.830811	-0.200439	0.700195	-0.0298751	-0.00726629	-0.991303	-0.12796	-0.447018	2.29829	-8.15641	-0.0115234	0.00363019	-0.0217987	-0.370117	-0.186035	1.04712	0.139489	0.843916	0.515485	0.0512275	-0.443728	2.43202	-8.85986	0.0599165	0.00972111	-0.0231621	-0.408936	-0.161865	1.0769	-0.0154002	0.0387859	-0.993913	0.101961	-0.257831	-1.81293	-8.89427	0.00277095	0.00743372	0.00473174	-0.408691	0.182129	1.08618	0.0295373	0.0376245	0.995281	0.0844286	-0.423071	1.69377	-9.59804	-0.0124977	0.0147838	0.00396872	-0.44043	-0.155762	1.17139	
51	-0.9909	-0.00315884	-0.12927	-0.0373618	-2.22316	0.146371	10.7741	-0.0123817	0.0209713	0.024086	0.656982	-0.0297852	-0.868164	0.490431	0.0395881	-0.870559	0.00613468	8.38851	0.236968	-5.0212	0.0185625	0.0170577	-0.0296982	-0.951416	-0.208984	0.300049	0.673943	0.306214	-0.586665	0.328418	9.74869	-0.391634	1.59636	0.035357	0.0103037	-0.0210594	-1.12646	-0.30127	-0.288086	0.667302	0.21089	-0.640131	0.316964	9.72979	-1.27288	0.907611	0.00916165	0.0129594	-0.000490384	-1.20654	0.0544434	-0.276123	0.741397	-0.0660216	-0.641749	-0.184741	9.72212	1.21671	1.61885	-0.0219134	-0.0125412	-0.00528752	-0.909912	-0.0327148	-0.556641	0.73423	-0.214487	-0.475541	-0.434468	9.57276	2.00098	5.30944	0.0137123	0.000617791	-0.024951	-0.886963	-0.160889	-0.662598	0.306872	0.0630073	-0.949589	0.0118185	5.68616	0.0625848	-7.59392	0.0341979	0.0249023	-0.0188237	-0.832764	-0.204834	0.702393	-0.0299864	-0.00688602	-0.991244	-0.12841	-0.449772	2.32655	-8.15313	-0.0113782	0.00882106	-0.0189114	-0.36792	-0.186035	1.05396	0.140079	0.843777	0.515531	0.0514355	-0.438259	2.43033	-8.80353	-0.0423523	-0.00159107	-0.0103678	-0.404053	-0.16626	1.07935	-0.015425	0.0386804	-0.993909	0.10203	-0.262889	-1.80418	-8.90281	0.00876906	0.00560328	0.00254809	-0.408691	0.182129	1.08838	0.029258	0.0377341	0.995267	0.0846422	-0.416346	1.65312	-9.51723	-0.0119897	0.0212518	1.1213e-05	-0.431396	-0.157959	1.16895	
52	-0.990834	-0.00305403	-0.129629	-0.0378929	-2.28271	0.0809261	10.8476	-0.0103573	0.0338972	0.0438674	0.661377	-0.0297852	-0.865967	0.490905	0.0399636	-0.870274	0.0061922	8.39477	0.112807	-4.99257	-0.00297677	0.0340788	-0.030105	-0.949463	-0.206787	0.300049	0.673849	0.306858	-0.586164	0.328903	9.78544	-0.18378	1.83476	0.0373791	0.0112215	-0.0207948	-1.12231	-0.30127	-0.290283	0.6674	0.210805	-0.640035	0.317008	9.72789	-1.16877	0.973384	-0.00575569	0.00740455	0.006131	-1.19971	0.0524902	-0.282715	0.741474	-0.0662305	-0.641881	-0.1839	9.61403	1.6083	1.5671	0.014132	0.00537767	0.015485	-0.907471	-0.0371094	-0.561035	0.734017	-0.213978	-0.476126	-0.434438	9.48352	2.00325	5.13906	0.036647	0.000477788	-0.0285266	-0.884766	-0.163086	-0.662598	0.308546	0.0633037	-0.949006	0.0133764	5.69728	0.0346296	-7.38098	0.076754	0.119981	-0.0128169	-0.834961	-0.200439	0.697998	-0.0301947	-0.00682934	-0.991175	-0.128893	-0.451223	2.30516	-8.17684	-0.0141644	0.00582227	-0.0190073	-0.370117	-0.186035	1.04712	0.141491	0.843643	0.515293	0.0521419	-0.464717	2.46155	-8.85807	-0.0803281	-0.0120316	-0.0087119	-0.408691	-0.164062	1.07935	-0.0154844	0.0386494	-0.993886	0.102261	-0.269951	-1.81818	-8.90142	0.0145335	0.0089155	0.0033885	-0.415283	0.182129	1.08838	0.029086	0.037808	0.995279	0.0845206	-0.414915	1.63455	-9.5771	0.0128982	0.0196475	0.00045126	-0.442383	-0.1604	1.15991	
53	-0.990747	-0.00339215	-0.130006	-0.0388248	-2.57696	0.0699171	10.7532	0.0133307	-0.00594407	0.0232436	0.654785	-0.0341797	-0.861816	0.490869	0.0403108	-0.870276	0.00642024	8.27419	0.190568	-5.03527	-0.0162493	-0.00600702	-0.0251088	-0.951416	-0.208984	0.30249	0.674197	0.306672	-0.586148	0.328391	9.73856	-0.365971	1.7076	-0.0225144	0.00593743	-0.0173026	-1.12231	-0.292725	-0.292969	0.667421	0.210554	-0.640032	0.317134	9.64338	-1.23251	1.00443	0.0102104	0.00334202	0.00808701	-1.2041	0.0524902	-0.282715	0.741066	-0.066671	-0.642287	-0.183968	9.67522	1.13852	1.5735	-0.00192998	-0.017916	-0.0158783	-0.907715	-0.0327148	-0.558838	0.73408	-0.213927	-0.476361	-0.434098	9.52047	1.84903	5.15853	0.0138146	0.00854375	0.000295984	-0.88501	-0.158691	-0.664795	0.312447	0.0631079	-0.94773	0.0142401	5.59489	-0.000264758	-7.00264	0.0566055	0.211191	-0.00194776	-0.845947	-0.198242	0.689453	-0.030167	-0.00678203	-0.99116	-0.129019	-0.464023	2.33303	-8.18024	0.00602518	0.0197818	-0.0182566	-0.374268	-0.19043	1.04468	0.141338	0.84355	0.515463	0.0523856	-0.472973	2.47955	-8.86127	0.0328352	0.0230861	-0.0185547	-0.408691	-0.168701	1.08374	-0.0154791	0.0386616	-0.993869	0.10242	-0.281757	-1.82515	-8.89624	0.00966388	0.0127761	0.00245542	-0.408936	0.186523	1.09058	0.0289357	0.037738	0.995366	0.0835772	-0.418419	1.66763	-9.51556	0.0301124	0.00320643	-0.0121648	-0.43335	-0.160156	1.16919	
54	-0.990815	-0.00353876	-0.129442	-0.0389635	-2.36023	0.185133	10.8232	0.00244688	-0.0169957	-0.00253101	0.655029	-0.036377	-0.86377	0.4902	0.0405577	-0.870641	0.00658153	8.52652	0.073267	-4.96963	0.0112463	-0.0179612	-0.0295534	-0.949219	-0.213379	0.29541	0.674148	0.306369	-0.586529	0.328095	9.81334	-0.162909	1.82789	-0.048835	-0.01446	0.00539677	-1.12427	-0.307861	-0.290283	0.667635	0.210141	-0.640119	0.316785	9.68756	-1.23699	0.991113	-0.026059	0.011222	-0.00549317	-1.2019	0.0524902	-0.284912	0.740922	-0.0666606	-0.642642	-0.18331	9.65044	1.65818	1.57412	-0.0171117	-0.0159697	0.000235417	-0.909912	-0.0349121	-0.554199	0.734102	-0.213421	-0.476942	-0.433673	9.54527	2.02151	5.13871	0.000563671	-0.00236775	-0.0115153	-0.88501	-0.158691	-0.662842	0.316764	0.0629484	-0.946296	0.0149063	5.89465	0.000513336	-7.35423	0.0141659	0.193391	-0.00990258	-0.852539	-0.196045	0.683105	-0.030062	-0.00677023	-0.991175	-0.12893	-0.448032	2.31888	-8.14166	0.00674708	0.0178635	-0.01745	-0.363525	-0.188232	1.04224	0.141467	0.84349	0.515468	0.0529591	-0.433432	2.4597	-8.84062	-0.0144008	0.0169862	-0.0126196	-0.408447	-0.170898	1.07495	-0.0155144	0.0386827	-0.99386	0.102492	-0.262383	-1.83618	-8.90989	0.00681538	0.00884834	0.00163323	-0.413086	0.184326	1.08594	0.0289483	0.0375006	0.995448	0.0826954	-0.365584	1.65285	-9.58563	0.0364624	0.00238649	-0.0136572	-0.438232	-0.151367	1.17114	
55	-0.990819	-0.00297761	-0.129159	-0.0398247	-2.33457	-0.0175715	10.8234	-0.0305553	-0.000340579	0.0431423	0.663818	-0.0361328	-0.859375	0.489347	0.0412534	-0.871087	0.00676027	8.45586	0.125461	-5.01968	-0.00158205	-0.0254092	-0.0397294	-0.951416	-0.208984	0.304688	0.674377	0.305976	-0.58684	0.327433	9.94287	-0.361095	1.97159	-0.0695759	-0.00949575	-0.0206655	-1.12451	-0.30127	-0.290283	0.667191	0.209862	-0.640848	0.316431	9.65512	-1.30329	0.847813	-0.00641519	-0.0296127	0.0102851	-1.20654	0.0546875	-0.280518	0.740476	-0.0674074	-0.643025	-0.183496	9.80225	1.06332	1.619	-0.0265136	-0.0244051	0.00187425	-0.912109	-0.0305176	-0.556641	0.733692	-0.2142	-0.476972	-0.43395	9.55093	1.76247	5.21363	-0.00127826	-0.00606827	-0.0223561	-0.88916	-0.163086	-0.666992	0.321537	0.0628831	-0.944685	0.0151417	5.91575	0.0363245	-7.13759	-0.00286832	0.193373	-0.0180935	-0.852295	-0.200439	0.676758	-0.0300851	-0.00673821	-0.991167	-0.128984	-0.453501	2.32167	-8.16975	0.00272258	0.0119563	-0.0182712	-0.37207	-0.188232	1.04712	0.141927	0.843373	0.51548	0.0534778	-0.441109	2.47246	-8.81239	-0.0247929	0.00888726	-0.0124284	-0.410645	-0.17334	1.07935	-0.0156492	0.0386816	-0.993845	0.102621	-0.263431	-1.83393	-8.87612	0.00796505	0.00611508	0.00246444	-0.411133	0.186523	1.08838	0.0289922	0.0374832	0.995479	0.0823159	-0.397	1.56884	-9.58605	0.0107015	0.0031815	-0.00525453	-0.442627	-0.158203	1.17139	
56	-0.990811	-0.00317973	-0.128945	-0.0407141	-2.40029	-0.0493694	10.7787	0.00400668	-0.00718471	0.0374903	0.659424	-0.0383301	-0.865967	0.488357	0.0423214	-0.871587	0.00726366	8.31755	0.151163	-5.00293	0.0409546	-0.0294625	-0.0457316	-0.944824	-0.211182	0.304932	0.674588	0.30617	-0.587075	0.326396	9.77951	-0.570547	1.75927	-0.0408768	-0.0199313	-0.0222662	-1.12231	-0.303467	-0.290283	0.667489	0.209665	-0.641047	0.315528	9.71177	-1.28823	0.899005	-0.0314401	-0.00033206	-0.0211908	-1.20654	0.0544434	-0.276123	0.739976	-0.0670258	-0.643813	-0.18289	9.73835	1.40472	1.53469	0.0557763	-0.0117605	-0.0275773	-0.912109	-0.0327148	-0.554199	0.733662	-0.213554	-0.477667	-0.433554	9.55015	2.07522	5.19059	0.0534421	-0.000227283	-0.00604217	-0.884766	-0.160889	-0.658447	0.325826	0.0628735	-0.943213	0.0152537	5.86633	-0.0598697	-7.1732	0.00838866	0.179679	-0.0221558	-0.856689	-0.200439	0.664062	-0.0301604	-0.00669252	-0.991146	-0.129129	-0.458449	2.31067	-8.15887	-0.00270952	0.0114294	-0.0202379	-0.369873	-0.188232	1.04004	0.142068	0.843282	0.515547	0.053881	-0.439953	2.48311	-8.86432	-0.00398172	0.0137138	-0.0185655	-0.408447	-0.170898	1.07715	-0.0156547	0.0386614	-0.993839	0.102688	-0.265061	-1.8298	-8.87183	0.00721945	0.0132598	0.00322334	-0.408447	0.179932	1.08154	0.0289432	0.0373246	0.995491	0.0822648	-0.403586	1.63155	-9.59447	0.00335594	0.00547052	-0.00937429	-0.44043	-0.155762	1.16675	
57	-0.990811	-0.00317973	-0.128945	-0.0407141	-2.40029	-0.0493694	10.7787	0.00400668	-0.00718471	0.0374903	0.659424	-0.0383301	-0.865967	0.488357	0.0423214	-0.871587	0.00726366	8.31755	0.151163	-5.00293	0.0409546	-0.0294625	-0.0457316	-0.944824	-0.211182	0.304932	0.674494	0.30696	-0.586818	0.326308	9.74888	-0.256488	1.67009	0.0443252	-0.011224	-0.0519214	-1.11987	-0.307861	-0.29248	0.667579	0.209793	-0.641318	0.314701	9.72799	-1.17679	0.892831	-0.0309513	-0.00518811	-0.0246561	-1.20679	0.059082	-0.280518	0.739838	-0.0672046	-0.643968	-0.182833	9.74646	1.28936	1.52365	-0.00937545	-0.0130012	-0.00568858	-0.909912	-0.0349121	-0.547363	0.733121	-0.214317	-0.477727	-0.434027	9.67757	1.84861	5.0561	-0.037861	-0.00832386	-0.0237045	-0.893555	-0.158691	-0.660645	0.329982	0.0629382	-0.94176	0.0154288	5.98933	0.0222398	-7.10143	0.0203267	0.179007	-0.0272616	-0.865479	-0.198242	0.657471	-0.0301784	-0.00665624	-0.991135	-0.129213	-0.460513	2.33442	-8.15691	-0.00101617	0.0130556	-0.0193312	-0.367676	-0.188232	1.04712	0.141713	0.843222	0.515727	0.0540384	-0.423912	2.46922	-8.81532	0.0225662	0.0174982	-0.0190455	-0.408447	-0.170898	1.07935	-0.0156773	0.0386589	-0.993838	0.102691	-0.260624	-1.82153	-8.89085	0.00636898	0.00899586	0.00291988	-0.410889	0.179932	1.08838	0.0289132	0.037245	0.9955	0.082202	-0.3897	1.63911	-9.58022	0.0105642	0.00744036	-0.00913545	-0.438232	-0.153564	1.17114	
58	-0.990811	-0.00317973	-0.128945	-0.0407141	-2.40029	-0.0493694	10.7787	0.00400668	-0.00718471	0.0374903	0.659424	-0.0383301	-0.865967	0.487192	0.044192	-0.872144	0.00749145	8.06107	0.233107	-5.16636	0.018435	-0.01646	-0.0714621	-0.94458	-0.215576	0.307373	0.675024	0.306304	-0.587218	0.325109	9.8391	-0.277188	1.7158	-0.0825448	0.0213201	-0.0317314	-1.12427	-0.307861	-0.29248	0.667699	0.20978	-0.641356	0.314377	9.71764	-1.29197	0.926787	-0.0158017	0.00367088	-0.0193243	-1.20654	0.0524902	-0.280518	0.739753	-0.0670207	-0.644187	-0.182476	9.57867	1.49628	1.45269	0.0555136	0.00259587	-0.0236393	-0.909912	-0.0305176	-0.554199	0.73309	-0.214766	-0.47746	-0.434151	9.48355	2.14699	5.12784	-0.0400141	0.0132461	0.00219635	-0.886963	-0.158691	-0.658447	0.331941	0.0630516	-0.941062	0.015537	5.91207	-0.0656536	-6.94863	0.0200251	0.175553	-0.0290004	-0.873779	-0.202637	0.65332	-0.0301779	-0.00659679	-0.991135	-0.129217	-0.441806	2.31816	-8.13448	0.00511902	0.0150563	-0.0213283	-0.372314	-0.183838	1.05176	0.141713	0.843222	0.515727	0.0540384	-0.423912	2.46922	-8.81532	0.0225662	0.0174982	-0.0190455	-0.408447	-0.170898	1.07935	-0.0156773	0.0386589	-0.993838	0.102691	-0.260624	-1.82153	-8.89085	0.00636898	0.00899586	0.00291988	-0.410889	0.179932	1.08838	0.0289132	0.037245	0.9955	0.082202	-0.3897	1.63911	-9.58022	0.0105642	0.00744036	-0.00913545	-0.438232	-0.153564	1.17114	
59	-0.990738	-0.0046355	-0.128874	-0.0425338	-2.25852	0.294049	10.7153	0.0370546	0.0224246	0.0631948	0.657227	-0.0383301	-0.86377	0.486472	0.0454362	-0.872485	0.00703681	8.60252	0.215923	-5.07936	-0.00207146	-0.041266	-0.0327058	-0.942383	-0.215576	0.314453	0.675095	0.306818	-0.587004	0.324863	9.80617	-0.130677	1.51029	0.0439487	-0.000588354	-0.028572	-1.11792	-0.305908	-0.288086	0.667995	0.210066	-0.641229	0.313817	9.72274	-1.19587	0.891606	0.00625057	0.013624	-0.0274288	-1.2085	0.0500488	-0.276123	0.739734	-0.0667761	-0.644419	-0.181819	9.57413	1.07846	1.61984	0.0345105	0.00635874	0.00627589	-0.912109	-0.0305176	-0.547363	0.732764	-0.215582	-0.477159	-0.434627	9.42895	1.94867	5.18177	-0.0184555	0.00186291	-0.0187072	-0.88501	-0.156738	-0.662842	0.335416	0.0630648	-0.939824	0.0158025	6.02839	0.0228504	-6.88239	0.0203508	0.159535	-0.0209242	-0.876221	-0.196045	0.644775	-0.0298931	-0.00612443	-0.991148	-0.129204	-0.452861	2.31656	-8.15914	0.00176333	0.013938	-0.0172314	-0.369873	-0.19043	1.04468	0.142133	0.842997	0.515874	0.0550293	-0.410286	2.49319	-8.82661	-0.0295587	0.0193788	-0.0078513	-0.415283	-0.175537	1.07715	-0.0156071	0.038637	-0.993826	0.102823	-0.258505	-1.83243	-8.8835	0.00202557	0.01376	0.00174988	-0.408691	0.184326	1.08374	0.0287502	0.0369635	0.995551	0.0817618	-0.409902	1.54252	-9.57417	0.00993835	0.00684859	-0.0128883	-0.438232	-0.151367	1.16675	
60	-0.990615	-0.00488747	-0.129398	-0.0437549	-2.52859	0.221397	10.7506	0.00959513	0.0238926	0.0565014	0.661865	-0.0427246	-0.861572	0.486035	0.0472599	-0.872623	0.00803541	8.20863	0.113785	-5.02331	0.0718904	-0.00299106	-0.0806193	-0.948975	-0.213379	0.312012	0.675572	0.306699	-0.586772	0.324402	9.72968	-0.208437	1.71424	-0.0372459	0.028905	-0.0437834	-1.12427	-0.310059	-0.294678	0.668293	0.210384	-0.640935	0.313567	9.87289	-1.27511	0.89112	-0.00223824	0.0106082	-0.0229475	-1.2063	0.0500488	-0.273926	0.739893	-0.0656015	-0.644729	-0.180495	9.6196	1.59667	1.38575	0.0135004	0.0197131	0.00274741	-0.914307	-0.0349121	-0.552002	0.73224	-0.215509	-0.47785	-0.434787	9.52433	2.05069	5.17307	-0.00456603	-0.0175171	-0.0346542	-0.88916	-0.160889	-0.658447	0.338002	0.0632419	-0.938883	0.0159315	6.09741	0.0735027	-6.80354	0.0162357	0.116946	-0.0269039	-0.880615	-0.198242	0.640381	-0.0299675	-0.00610069	-0.99112	-0.129403	-0.451417	2.32738	-8.14511	-0.0103385	0.00871961	-0.0191162	-0.369873	-0.188232	1.04248	0.142528	0.842912	0.515867	0.0553664	-0.403225	2.50771	-8.82057	-0.0346933	0.00952612	-0.0146016	-0.412842	-0.177979	1.08398	-0.0156081	0.0386319	-0.993834	0.102751	-0.257425	-1.8419	-8.89352	-0.00178495	0.0109374	0.00306428	-0.404297	0.18457	1.08374	0.0287502	0.0369635	0.995551	0.0817618	-0.409902	1.54252	-9.57417	0.00993835	0.00684859	-0.0128883	-0.438232	-0.151367	1.16675	
61	-0.990581	-0.00451366	-0.129046	-0.0455629	-2.63149	-0.151067	10.829	-0.0228557	-0.0223494	0.0687811	0.655273	-0.0405273	-0.86377	0.485923	0.0478043	-0.872653	0.00840121	8.27115	0.196302	-5.16983	-0.00251679	0.00808397	-0.0212104	-0.942383	-0.219971	0.312256	0.67588	0.308082	-0.58592	0.323989	9.84408	0.069524	1.84046	0.0458301	-0.0317837	-0.0320672	-1.11572	-0.312256	-0.290039	0.668535	0.211006	-0.64053	0.313462	9.92385	-0.988463	1.02664	0.0118433	0.00942184	-0.0180705	-1.2063	0.050293	-0.27832	0.740035	-0.0655234	-0.644596	-0.180418	9.82823	1.05913	1.50785	0.0262675	0.0284156	-0.00383337	-0.912109	-0.0327148	-0.549805	0.732137	-0.2158	-0.477595	-0.435096	9.57713	1.93578	5.27445	0.00445605	0.0197426	-0.0140441	-0.887207	-0.156738	-0.662842	0.339726	0.0634329	-0.938247	0.0159502	6.11266	-0.110656	-7.01439	0.0264639	0.0560707	-0.0286093	-0.878174	-0.204834	0.634277	-0.0296832	-0.00565311	-0.991151	-0.129253	-0.45127	2.33321	-8.15264	0.00566336	0.0137764	-0.0164798	-0.374268	-0.188232	1.04004	0.14394	0.842654	0.515747	0.0567429	-0.406216	2.54951	-8.82697	-0.060521	0.0149148	0.000685822	-0.419434	-0.184814	1.07495	-0.0155331	0.0385729	-0.993825	0.102875	-0.262478	-1.81976	-8.90499	0.0130432	0.00829674	0.00203226	-0.411133	0.186523	1.08594	0.0289263	0.0368025	0.995583	0.0813838	-0.400634	1.67201	-9.56639	0.0201483	-0.00338245	-0.00542715	-0.433594	-0.155762	1.17139	
62	-0.990731	-0.00518221	-0.12786	-0.0455643	-2.52675	0.0659832	10.7134	0.0402984	-0.0497719	-0.0102855	0.655273	-0.0427246	-0.86377	0.485698	0.0483313	-0.872746	0.00875976	8.3141	0.275653	-4.94383	0.018444	-0.00257566	-0.0339955	-0.944336	-0.224365	0.314697	0.677137	0.306523	-0.586113	0.32249	9.50197	-0.713357	1.71756	-0.0909903	0.0265552	-0.0302593	-1.12207	-0.307861	-0.290283	0.668414	0.210871	-0.640764	0.313334	9.56824	-1.18276	0.890344	0.00297844	-0.0105714	0.00848809	-1.20654	0.0524902	-0.280518	0.740237	-0.0648554	-0.644575	-0.179906	9.62785	1.36547	1.56528	0.0459873	0.012891	-0.0222332	-0.91626	-0.0349121	-0.549805	0.732042	-0.215896	-0.477531	-0.43528	9.50034	2.17292	5.17581	-0.00553291	0.00955732	-0.00653219	-0.88916	-0.158691	-0.658447	0.341357	0.0636857	-0.937625	0.0166906	6.18579	0.0700591	-6.919	0.0471783	0.0813203	-0.0178668	-0.878174	-0.200439	0.638428	-0.0296832	-0.00565311	-0.991151	-0.129253	-0.45127	2.33321	-8.15264	0.00566336	0.0137764	-0.0164798	-0.374268	-0.188232	1.04004	0.145387	0.84264	0.515169	0.0584958	-0.374141	2.58921	-8.75853	-0.0659656	0.0367085	0.00845209	-0.419434	-0.184814	1.07495	-0.0155714	0.038578	-0.993813	0.102981	-0.260514	-1.8328	-8.88516	0.0124433	0.00821142	0.00181394	-0.413086	0.184326	1.08594	0.0291235	0.0365818	0.995689	0.0801025	-0.421422	1.57411	-9.58259	0.064804	-0.00139857	-0.0211037	-0.438477	-0.14917	1.16895	
63	-0.990921	-0.00563404	-0.126563	-0.0449985	-2.45996	0.368046	10.6339	0.00261984	-0.0509539	-0.0094473	0.655518	-0.0471191	-0.86377	0.485722	0.0488413	-0.872702	0.00898545	8.22027	0.311516	-5.0676	0.0254059	0.0162867	-0.0460926	-0.942627	-0.213379	0.31665	0.676696	0.30707	-0.586235	0.322676	9.94923	-0.401524	1.52489	0.0421229	-0.0344397	-0.00849447	-1.12427	-0.310059	-0.290039	0.668432	0.211	-0.640587	0.31357	9.55041	-0.992561	1.07164	0.0214309	-0.00195411	0.0127655	-1.2041	0.050293	-0.282715	0.740276	-0.0643982	-0.644691	-0.17949	9.749	1.36171	1.80113	0.0480718	0.00689569	-0.0142875	-0.913818	-0.0415039	-0.552002	0.731869	-0.215776	-0.477846	-0.435283	9.60254	2.03212	5.17995	0.0215157	0.00104843	-0.0255112	-0.891602	-0.154541	-0.662842	0.342363	0.0636907	-0.937248	0.0172354	6.12924	0.110334	-6.79509	0.0422316	0.05032	-0.00878484	-0.888916	-0.202637	0.629883	-0.0289842	-0.00530303	-0.991196	-0.129079	-0.443433	2.3322	-8.1354	0.00109391	0.0195817	-0.0184876	-0.369873	-0.190186	1.0354	0.145024	0.842632	0.515219	0.0590614	-0.372008	2.60963	-8.81628	0.0138543	0.022206	-0.012743	-0.416992	-0.189209	1.07056	-0.0153544	0.0385899	-0.993805	0.103085	-0.259411	-1.84026	-8.89053	-0.00166627	0.0111661	0.00247636	-0.411133	0.186523	1.08594	0.0292943	0.0362576	0.995774	0.0791318	-0.412156	1.52041	-9.69126	0.0340275	-0.00289587	-0.0187382	-0.440674	-0.14917	1.16895	
64	-0.991054	-0.00522522	-0.125494	-0.0451243	-2.36934	0.182521	10.7229	-0.0242921	-0.0363988	-0.00232952	0.655273	-0.0427246	-0.870361	0.485415	0.049178	-0.872861	0.0082243	8.41345	0.164604	-4.91975	-0.00210193	0.0069324	-0.0226182	-0.946533	-0.222168	0.319336	0.677034	0.306572	-0.586346	0.322238	9.58896	-0.385574	1.65173	-0.0162925	-0.0393472	-0.0138419	-1.11987	-0.314453	-0.294678	0.668044	0.210655	-0.640973	0.31384	9.68226	-1.34873	0.915276	-0.00484733	0.000262542	0.0104442	-1.20654	0.0524902	-0.280518	0.740294	-0.0636354	-0.644948	-0.178767	9.58985	1.3427	1.67818	0.0642687	0.000299557	-0.01456	-0.914062	-0.0393066	-0.556641	0.7317	-0.215831	-0.477897	-0.435485	9.49052	1.85256	5.11178	-0.0118109	0.00366416	-0.0279405	-0.889404	-0.156738	-0.658447	0.342657	0.0638571	-0.937122	0.0176607	6.23503	-0.0415045	-6.88384	0.0269868	0.018134	-0.0100269	-0.882812	-0.196045	0.634033	-0.0289775	-0.00527674	-0.991191	-0.129126	-0.43814	2.33386	-8.15723	0.00224134	0.0148451	-0.0179608	-0.376709	-0.181641	1.04688	0.14476	0.842655	0.515259	0.0590295	-0.365029	2.59378	-8.82467	0.0266105	0.013214	-0.0181454	-0.415039	-0.180176	1.07715	-0.0153663	0.0385833	-0.993815	0.102986	-0.25022	-1.82695	-8.90387	-0.00410885	0.00978028	0.00262625	-0.410889	0.184326	1.08594	0.0294029	0.0362539	0.995732	0.0796161	-0.317315	1.53567	-9.55324	-0.0253899	0.00644191	-0.00174976	-0.436035	-0.153564	1.17358	
65	-0.99122	-0.00475232	-0.124327	-0.0447524	-2.26405	0.041901	10.8257	-0.00894318	-0.0478364	-0.00737316	0.655273	-0.0405273	-0.872314	0.485146	0.0490969	-0.873013	0.00845286	8.35399	0.174303	-5.02726	0.0196574	0.0138774	-0.0192688	-0.950928	-0.219971	0.314697	0.677349	0.305463	-0.586585	0.322193	9.69096	-0.323267	1.73327	-0.0073277	0.0167765	0.00813747	-1.11768	-0.310059	-0.29248	0.667533	0.210679	-0.641234	0.314376	9.91611	-1.25538	0.874047	0.0258316	-0.00813099	0.0218424	-1.2019	0.0524902	-0.27832	0.740206	-0.063877	-0.64485	-0.179397	9.74615	1.16278	1.40409	-0.0310766	0.0152019	-0.03321	-0.911865	-0.0393066	-0.549805	0.731236	-0.21633	-0.477954	-0.435954	9.59416	1.95596	5.14567	-0.0494898	0.00234899	-0.0245589	-0.891357	-0.156738	-0.660645	0.341611	0.0639978	-0.93749	0.0178692	6.14827	-0.0292123	-7.04873	0.0286959	-0.0492148	-0.0207871	-0.880615	-0.196045	0.63623	-0.0290533	-0.00514437	-0.991226	-0.128846	-0.45761	2.32625	-8.15845	0.00910201	0.0128119	-0.0210887	-0.374023	-0.19458	1.04028	0.143255	0.842724	0.515707	0.0578033	-0.369165	2.55824	-8.83486	0.0607154	-0.00409994	-0.0271861	-0.419922	-0.177734	1.07275	-0.0155423	0.0384852	-0.993821	0.102941	-0.267836	-1.8328	-8.87655	0.00534293	0.00720489	0.00545347	-0.413086	0.184326	1.08594	0.0291729	0.0364718	0.995709	0.0798851	-0.449236	1.56223	-9.63033	-0.00559241	0.0139711	0.000569585	-0.436279	-0.146973	1.16431	
66	-0.991291	-0.00460156	-0.123745	-0.0448128	-2.0158	0.154542	10.7336	-0.0127571	-0.0426548	0.00691687	0.65332	-0.0449219	-0.872314	0.485227	0.0491305	-0.872965	0.00857409	8.30257	0.208531	-5.14276	-0.000304442	0.0202001	-0.0173828	-0.94458	-0.219971	0.316895	0.67712	0.305443	-0.586672	0.322536	9.77677	-0.442156	1.57804	-0.0220656	0.0293718	0.0139794	-1.12427	-0.310059	-0.294678	0.667418	0.210706	-0.641274	0.314522	9.72042	-1.25257	0.885963	0.0139928	-0.00143105	0.0097974	-1.2019	0.050293	-0.276123	0.740073	-0.0637495	-0.644886	-0.179861	9.79785	1.42473	1.48172	-0.00472866	0.0101171	-0.0434782	-0.914062	-0.0371094	-0.549805	0.731237	-0.216134	-0.478066	-0.435926	9.61624	2.03341	5.16991	0.0167836	0.011405	-0.0187792	-0.88916	-0.158691	-0.660645	0.340386	0.0640084	-0.937936	0.0177642	6.13451	0.0122928	-7.04595	0.0158276	-0.0954381	-0.0169123	-0.878174	-0.200439	0.640625	-0.029103	-0.00513062	-0.991227	-0.128825	-0.43252	2.324	-8.16034	0.00792347	0.0104965	-0.0192615	-0.371826	-0.194824	1.04492	0.142985	0.842714	0.515832	0.0575064	-0.387815	2.53971	-8.8075	0.0377857	-0.00531321	-0.0227091	-0.417236	-0.182373	1.07715	-0.0155676	0.0384532	-0.993822	0.102943	-0.262767	-1.82751	-8.88295	0.00426991	0.00912359	0.00505723	-0.411133	0.188721	1.08374	0.0291615	0.0364474	0.995712	0.0798735	-0.419349	1.5753	-9.59748	0.00332009	0.00744415	-0.00827422	-0.438477	-0.14917	1.17334	
67	-0.991295	-0.0047069	-0.123797	-0.044567	-1.85432	0.215549	10.8734	0.0208198	0.0199192	-0.00974375	0.648682	-0.0407715	-0.868164	0.485613	0.0492251	-0.87274	0.00905957	8.33586	0.322977	-5.24246	0.0265068	0.0336778	-0.010531	-0.942383	-0.217773	0.312256	0.676589	0.306515	-0.586282	0.323342	10.1085	0.0328424	1.70251	0.0531271	-0.0188027	0.00381046	-1.11768	-0.312256	-0.294678	0.667359	0.211216	-0.640929	0.315008	10.0363	-1.13276	0.966401	0.016667	0.0117197	-0.00591917	-1.2041	0.0524902	-0.27832	0.740137	-0.0643115	-0.644633	-0.180306	9.74547	1.41902	1.43013	-0.0509293	0.00793405	0.00526077	-0.911621	-0.0437012	-0.552002	0.730955	-0.216417	-0.477657	-0.436706	9.5767	1.91636	5.10814	-0.0327384	0.0141247	-0.0242754	-0.88501	-0.158691	-0.660645	0.337887	0.0639431	-0.938853	0.0172922	6.08718	-0.0393854	-6.99089	0.0168474	-0.0904095	-0.0194935	-0.882568	-0.200439	0.640625	-0.029177	-0.00509642	-0.991211	-0.128934	-0.450298	2.33559	-8.16224	0.00237363	0.0142389	-0.0183925	-0.369873	-0.188232	1.04248	0.14252	0.842657	0.5161	0.0570801	-0.402596	2.52778	-8.85415	0.0175842	-6.8232e-05	-0.0190532	-0.41748	-0.177734	1.07495	-0.0156	0.038407	-0.993831	0.102867	-0.253058	-1.83498	-8.88674	0.00327094	0.00835795	0.00448796	-0.410889	0.184326	1.08594	0.0291194	0.0364718	0.99572	0.0797661	-0.39704	1.5864	-9.57637	0.0072522	0.0104146	-0.0045739	-0.436279	-0.14917	1.17334	
68	-0.991185	-0.00417951	-0.124681	-0.0446103	-2.01804	0.0239515	10.7485	-0.0158587	0.0451532	-0.0013887	0.650879	-0.0405273	-0.870361	0.486457	0.048906	-0.872286	0.00922794	8.26846	0.0190934	-5.12698	0.000138546	0.0534528	-0.00953427	-0.942383	-0.217773	0.309814	0.677704	0.306365	-0.585243	0.323031	9.51403	-0.872104	1.55831	-0.000202848	0.0435035	-0.0543513	-1.12427	-0.312012	-0.306152	0.666768	0.211192	-0.641228	0.315665	9.61633	-1.3435	0.798696	0.022707	-0.0101709	0.0304185	-1.2041	0.0500488	-0.273926	0.740602	-0.0642096	-0.644064	-0.180466	9.654	0.869199	1.6102	-0.038674	0.0339429	0.0148699	-0.912109	-0.0349121	-0.554199	0.731073	-0.216678	-0.477151	-0.436933	9.38846	1.545	5.1461	-0.0323936	0.0187975	-0.0239944	-0.887207	-0.156738	-0.662842	0.335038	0.0644909	-0.939827	0.0177517	6.05138	0.00629238	-6.91402	0.0405817	-0.114895	-0.0189167	-0.869629	-0.198242	0.651123	-0.0291397	-0.00508581	-0.991225	-0.128833	-0.434346	2.3342	-8.1706	0.00969592	0.0152031	-0.0174168	-0.372314	-0.186035	1.0376	0.142263	0.842631	0.516219	0.0570265	-0.375372	2.51776	-8.83638	0.0160867	0.00656122	-0.0166963	-0.41333	-0.168701	1.07471	-0.0156233	0.0383735	-0.993837	0.10282	-0.258395	-1.82528	-8.89558	0.00107615	0.00928777	0.00409846	-0.410889	0.184326	1.08594	0.0290826	0.0365252	0.995704	0.0799618	-0.459012	1.54642	-9.65279	-0.00500771	0.00364675	-0.00537846	-0.438477	-0.146973	1.16431	
69	-0.991004	-0.00398347	-0.126299	-0.0440832	-2.12146	0.100305	10.7257	-0.0011943	0.0672828	-0.0205433	0.657227	-0.0383301	-0.865967	0.487271	0.0483128	-0.871861	0.00952328	8.32743	0.271317	-5.1002	-0.008482	0.0402337	0.00474931	-0.944336	-0.222168	0.314697	0.677412	0.307192	-0.58433	0.324505	9.89817	0.150093	2.04516	0.077009	0.0408942	-0.00122316	-1.11768	-0.312256	-0.299316	0.667477	0.211621	-0.640364	0.315634	9.68303	-1.13148	1.05309	0.0319008	0.0330131	-0.029115	-1.19971	0.0524902	-0.280518	0.741064	-0.0646341	-0.643346	-0.180977	9.91444	1.58881	1.83947	-0.008859	0.0339082	-0.0462927	-0.911865	-0.0371094	-0.552002	0.731454	-0.217086	-0.476235	-0.437091	9.70062	2.01178	5.26642	-0.044778	0.0419363	0.0333387	-0.88916	-0.158691	-0.662842	0.332234	0.0645225	-0.940824	0.0175539	5.98938	-0.0331523	-6.98011	0.0240596	-0.113889	-0.0168955	-0.867676	-0.198242	0.655273	-0.0291601	-0.00503179	-0.991218	-0.128882	-0.430097	2.32684	-8.15861	0.0050318	0.012711	-0.0185991	-0.367676	-0.190186	1.03296	0.14267	0.842482	0.516328	0.0572216	-0.389389	2.53452	-8.8264	-0.0112899	0.00253225	-0.0167223	-0.417725	-0.175537	1.07715	-0.0155895	0.0383471	-0.993853	0.102675	-0.240883	-1.82951	-8.89337	-0.00358664	0.0125583	0.00300713	-0.415527	0.186523	1.08594	0.0292209	0.0364744	0.995685	0.0801741	-0.386668	1.55958	-9.59198	-0.00468868	0.00299997	-0.00796633	-0.434082	-0.144775	1.17334	
70	-0.990752	-0.00407989	-0.128344	-0.0438398	-2.3647	0.0809208	10.7524	0.0191729	0.085421	-0.0154033	0.66626	-0.0427246	-0.86377	0.487887	0.0472609	-0.871575	0.00943838	8.61961	0.136543	-5.05382	-0.0467636	0.0209358	0.00962927	-0.947021	-0.211182	0.304932	0.677969	0.307565	-0.583501	0.324483	9.93927	-0.227069	1.56935	-0.0482754	0.0443111	-0.0114069	-1.11768	-0.312256	-0.296875	0.667402	0.211532	-0.640366	0.315848	9.83344	-1.30694	0.909175	-0.016665	0.0154203	0.00500703	-1.19971	0.050293	-0.284912	0.741858	-0.0654662	-0.642474	-0.180525	9.75327	1.52005	1.34448	0.0315676	0.0536304	0.0226924	-0.905762	-0.0305176	-0.554199	0.731676	-0.216523	-0.476048	-0.437202	9.71272	2.07239	5.04815	0.00948763	0.0381562	-0.0203375	-0.889648	-0.150146	-0.665039	0.329311	0.064638	-0.941842	0.0175837	5.92692	0.0114465	-7.41842	0.0195679	-0.145664	-0.0184657	-0.857178	-0.1875	0.661621	-0.0291601	-0.00503179	-0.991218	-0.128882	-0.430097	2.32684	-8.15861	0.0050318	0.012711	-0.0185991	-0.367676	-0.190186	1.03296	0.142866	0.842394	0.516403	0.0573574	-0.367158	2.53238	-8.81824	0.00330842	-0.00116921	-0.0176156	-0.413086	-0.175537	1.07495	-0.0154969	0.0382704	-0.993857	0.102685	-0.253264	-1.82145	-8.894	0.00219535	0.00934483	0.00378191	-0.410889	0.184326	1.08594	0.0292978	0.0365097	0.995687	0.0800955	-0.381681	1.53959	-9.58046	-0.00117368	0.00712469	-0.00450674	-0.440674	-0.146973	1.16895	
71	-0.990509	-0.00408894	-0.130351	-0.0434137	-2.6281	0.0283626	10.7504	0.00700552	0.0804369	-0.013858	0.661621	-0.0383301	-0.859375	0.488568	0.0467977	-0.871217	0.0095962	8.26034	0.253116	-4.97231	-0.0190468	0.0747059	0.0168765	-0.942627	-0.213379	0.307373	0.678261	0.307539	-0.583212	0.324415	9.56578	-0.743923	1.87843	-0.00812031	0.0298799	-0.0241416	-1.11328	-0.318848	-0.296875	0.667599	0.211939	-0.639963	0.315975	9.79451	-1.19652	0.922012	0.0344371	0.0195132	-0.0151662	-1.19946	0.0480957	-0.280518	0.742201	-0.0653477	-0.642159	-0.180275	9.63878	1.71839	1.80494	0.0151198	0.0434309	-0.000289341	-0.907715	-0.0327148	-0.563477	0.732014	-0.216966	-0.475123	-0.437425	9.5577	1.70278	5.18114	-0.0401021	0.0351551	-0.00628151	-0.887451	-0.152344	-0.665039	0.326235	0.0647478	-0.942902	0.0177499	5.93126	0.0306818	-6.86721	0.0412991	-0.0973039	-0.010873	-0.863525	-0.191895	0.665771	-0.0288888	-0.00449255	-0.991246	-0.128747	-0.435224	2.33248	-8.14359	0.00538581	0.0137023	-0.0187053	-0.378418	-0.19043	1.04248	0.142661	0.84237	0.516512	0.0572342	-0.401154	2.56205	-8.86607	0.0258728	0.00366946	-0.0197061	-0.415283	-0.17334	1.07935	-0.0155581	0.0382331	-0.993862	0.102639	-0.280175	-1.82891	-8.91674	0.00259321	0.0090919	0.00382402	-0.408936	0.186523	1.08594	0.0292561	0.036586	0.995692	0.0800155	-0.434043	1.59336	-9.62035	0.00123804	0.00697322	-0.00295665	-0.436279	-0.14917	1.1665	
72	-0.990437	-0.00435762	-0.131026	-0.0429973	-2.59077	0.121625	10.7164	0.0297945	0.0567969	-0.0270213	0.664062	-0.0405273	-0.857178	0.489118	0.0455707	-0.870975	0.00947401	8.15295	0.0879993	-5.00185	-0.0357385	0.0369508	0.029409	-0.948975	-0.215576	0.304932	0.67816	0.308529	-0.582436	0.32508	9.71677	0.154577	1.79089	-0.0195192	0.0387192	-0.00824404	-1.11768	-0.31665	-0.299072	0.667887	0.211985	-0.639693	0.315882	9.65409	-1.18713	0.962955	0.00361706	0.0312495	-0.0192717	-1.2019	0.0524902	-0.27832	0.742685	-0.0663059	-0.641536	-0.180149	9.57272	1.25617	1.40133	0.0147331	0.0460629	0.0105789	-0.907471	-0.0371094	-0.556641	0.732077	-0.216969	-0.474841	-0.437622	9.53361	1.96275	5.13236	-0.016311	0.0336949	-0.0152338	-0.887207	-0.154541	-0.669434	0.324781	0.0647004	-0.943416	0.0172256	5.90537	0.0988236	-6.87858	-0.0162778	-0.116713	-0.0227751	-0.856689	-0.198242	0.663818	-0.0288502	-0.00450814	-0.991254	-0.128696	-0.443483	2.33934	-8.17485	0.0102257	0.0170119	-0.0162914	-0.37207	-0.19043	1.04004	0.14244	0.842263	0.516739	0.0573187	-0.373347	2.51954	-8.81725	0.00895849	0.00969424	-0.0133924	-0.417725	-0.170898	1.07251	-0.0155581	0.0382331	-0.993862	0.102639	-0.280175	-1.82891	-8.91674	0.00259321	0.0090919	0.00382402	-0.408936	0.186523	1.08594	0.0293276	0.0365369	0.995698	0.0799398	-0.408008	1.57549	-9.6149	0.0082356	0.000809553	-0.0108041	-0.438477	-0.146973	1.17114	
73	-0.990124	-0.00454889	-0.133325	-0.0431016	-2.4291	0.0389063	10.6962	0.0110568	0.0847099	0.0154857	0.670654	-0.0405273	-0.857178	0.489312	0.0450493	-0.870901	0.0087352	8.25683	0.399088	-4.84998	-0.0578312	0.0356552	-0.0425794	-0.948975	-0.213379	0.30957	0.677782	0.309602	-0.581798	0.325989	9.64078	-0.0596955	1.74368	0.11661	0.0170599	-0.0211549	-1.11987	-0.318604	-0.305908	0.668163	0.212006	-0.639558	0.315557	9.62654	-1.16261	0.917639	0.000192038	0.00325878	-0.0076331	-1.20605	0.0458984	-0.284912	0.74268	-0.0675033	-0.641123	-0.181196	9.91143	0.845487	1.85253	-0.15979	0.0132324	0.00666762	-0.905762	-0.0283203	-0.554199	0.732234	-0.217842	-0.473625	-0.438244	9.53977	1.81603	5.12752	-0.0278936	0.0158149	-0.0297759	-0.885254	-0.147949	-0.66748	0.318107	0.0639471	-0.945813	0.0124867	5.88018	0.0798555	-7.49469	-0.160392	-0.247852	-0.0358266	-0.8479	-0.204834	0.683105	-0.0286655	-0.00420726	-0.991282	-0.128532	-0.426156	2.33231	-8.16288	0.00731333	0.0134111	-0.0200073	-0.374023	-0.194824	1.04492	0.142571	0.842137	0.51688	0.0575633	-0.363987	2.54233	-8.80991	0.0187167	0.00465684	-0.016962	-0.419678	-0.180176	1.07275	-0.0155084	0.0381526	-0.993864	0.102655	-0.258138	-1.81666	-8.92333	0.00279046	0.00849961	0.00369004	-0.413086	0.179932	1.09082	0.0292466	0.0365901	0.995694	0.079994	-0.384938	1.56884	-9.62932	-0.00108184	0.0112491	-0.00437062	-0.434082	-0.146973	1.16895	
74	-0.989975	-0.0047752	-0.134428	-0.0430671	-2.55363	0.201856	10.7463	0.023829	0.0916975	0.0029089	0.67041	-0.0383301	-0.85498	0.489601	0.0446161	-0.870764	0.00834414	8.36064	0.0695566	-5.0595	-0.0134609	0.0301007	0.00783858	-0.949219	-0.213379	0.297852	0.677874	0.310003	-0.581234	0.326424	9.80963	-0.612775	1.69829	0.0044944	0.0241478	-0.0110158	-1.11328	-0.327637	-0.301025	0.668388	0.21206	-0.639303	0.315562	9.77192	-1.23466	0.906772	0.00491359	0.0143314	-0.00625653	-1.2063	0.0480957	-0.280518	0.74289	-0.0672036	-0.641017	-0.180819	9.568	1.96148	1.96982	0.0408592	0.00776378	-0.0340673	-0.907959	-0.0305176	-0.558838	0.732254	-0.218271	-0.473297	-0.43835	9.5667	2.0854	5.19139	-0.0403403	0.0181217	0.00536575	-0.883057	-0.152344	-0.667236	0.315745	0.0634112	-0.94667	0.00994409	5.84334	-0.0406275	-7.2893	-0.176826	-0.203696	-0.0347456	-0.843506	-0.202637	0.685303	-0.0286967	-0.00418101	-0.991273	-0.128594	-0.431831	2.33683	-8.14597	0.00120258	0.0122896	-0.0201336	-0.376465	-0.186035	1.04468	0.142475	0.842108	0.516964	0.0574751	-0.379217	2.53017	-8.84896	0.0172219	0.00211187	-0.0216382	-0.419922	-0.177979	1.07495	-0.0155279	0.0381261	-0.993866	0.102642	-0.254718	-1.81804	-8.894	0.00346246	0.00963747	0.00496929	-0.413086	0.179932	1.08618	0.0292544	0.0365945	0.995684	0.0801127	-0.422848	1.54938	-9.6287	-0.0072325	0.00624595	-0.00565757	-0.433838	-0.14917	1.16895	
75	-0.989723	-0.00512535	-0.136107	-0.0435653	-2.77385	0.311748	10.7652	0.017477	0.0565338	0.0383168	0.670654	-0.0405273	-0.848633	0.490035	0.0447763	-0.870509	0.00867459	8.24922	0.142488	-5.0565	-0.00732813	0.0281076	-0.0196516	-0.948975	-0.215576	0.297852	0.677769	0.31152	-0.580086	0.327238	9.75474	0.163977	1.66413	0.0411706	0.0268167	-0.0302656	-1.11328	-0.323242	-0.298828	0.668648	0.212513	-0.638836	0.315653	9.75426	-1.09858	0.971457	0.00499398	0.023389	-0.014669	-1.19946	0.0458984	-0.282715	0.742895	-0.0686838	-0.640557	-0.181868	9.37116	1.12002	1.12906	-0.0185219	0.0215256	0.0071066	-0.901367	-0.0283203	-0.558838	0.73202	-0.21904	-0.472791	-0.438903	9.37131	2.05199	5.05132	-0.0568586	0.0148273	-0.024582	-0.883545	-0.141602	-0.66748	0.31343	0.0632599	-0.947467	0.00813617	5.62501	0.125086	-7.22992	-0.0483601	-0.0918755	-0.0312173	-0.845459	-0.211182	0.68335	-0.0286118	-0.00390755	-0.991277	-0.128595	-0.438425	2.32524	-8.15746	0.00256102	0.0118222	-0.01896	-0.374268	-0.19043	1.04712	0.142919	0.841957	0.517067	0.05766	-0.384253	2.52759	-8.81653	-0.0214344	-9.31982e-06	-0.015572	-0.415283	-0.175537	1.07495	-0.0154455	0.038051	-0.993873	0.102619	-0.25371	-1.8218	-8.89068	0.0011695	0.00899657	0.00402679	-0.417969	0.190918	1.08813	0.0293435	0.0365556	0.995665	0.0803395	-0.376752	1.59747	-9.56167	-0.00941193	0.00395028	-0.00655509	-0.433838	-0.14917	1.17114	
76	-0.989638	-0.0045277	-0.136329	-0.0448293	-2.51012	0.0302447	10.7226	-0.0383325	0.00683232	0.0465773	0.672852	-0.0405273	-0.852783	0.490566	0.0446814	-0.870213	0.00886897	8.36963	0.305207	-4.98898	-0.00764952	0.0309617	-0.0107526	-0.949219	-0.213379	0.300293	0.67805	0.311776	-0.579509	0.327434	9.86576	-0.309445	1.75835	0.0788864	0.018468	-0.0303702	-1.11987	-0.320801	-0.299072	0.669016	0.21273	-0.638477	0.315455	9.83272	-1.18721	0.979574	0.0206479	0.0148341	-0.0149603	-1.19946	0.0480957	-0.287109	0.743004	-0.0687226	-0.640193	-0.182686	9.58746	1.07828	1.71688	-0.0541285	0.0236762	-0.0276348	-0.905762	-0.0283203	-0.561035	0.73247	-0.219697	-0.471782	-0.438912	9.46005	1.85959	5.24457	-0.0413071	0.0351706	0.0191661	-0.887695	-0.141602	-0.665527	0.312108	0.0631321	-0.947925	0.00642976	5.63551	0.0708811	-7.22516	-0.0277308	-0.0443618	-0.0356295	-0.843018	-0.215576	0.694092	-0.0286065	-0.0038986	-0.9913	-0.128417	-0.437935	2.3337	-8.15379	0.0160478	0.0151785	-0.0181145	-0.372314	-0.186035	1.04712	0.143118	0.841883	0.517115	0.0578107	-0.369003	2.56361	-8.84301	0.0114158	0.00354825	-0.0166101	-0.415283	-0.175537	1.07935	-0.0154139	0.0379686	-0.993854	0.102836	-0.265817	-1.82253	-8.90406	0.010439	0.00710318	0.00359681	-0.408691	0.184326	1.08374	0.0293804	0.0366965	0.995673	0.0801544	-0.431201	1.56335	-9.63587	0.0091131	0.000599728	-0.000781475	-0.434082	-0.146973	1.16895	
77	-0.98953	-0.00432061	-0.137091	-0.0449118	-2.31184	-0.0122822	10.6218	-0.000510783	0.0509963	-0.0067945	0.675293	-0.0449219	-0.852783	0.491274	0.0445584	-0.869816	0.00915387	8.43613	0.201622	-4.98954	0.000973656	0.0469768	-0.0111514	-0.947021	-0.213379	0.297852	0.67823	0.311931	-0.579	0.327814	9.93169	-0.156719	2.04385	-0.00788094	0.00981843	-0.00331801	-1.11768	-0.31665	-0.299072	0.669602	0.212917	-0.637961	0.315128	9.75091	-1.12037	1.09707	0.0214093	0.0269489	-0.0253188	-1.19727	0.0458984	-0.282715	0.743526	-0.0691413	-0.639621	-0.18241	9.54702	1.42494	1.83369	0.0341245	0.0452435	-0.00119408	-0.905762	-0.026123	-0.561035	0.73235	-0.220553	-0.470846	-0.439686	9.49238	2.01833	5.29855	-0.034162	0.0279824	-0.00694799	-0.887695	-0.141602	-0.674072	0.311092	0.0633743	-0.948247	0.00581442	5.71651	0.169867	-7.27938	-0.0182962	-0.0211684	-0.0258964	-0.836426	-0.215576	0.698486	-0.0285463	-0.00384472	-0.991319	-0.128285	-0.434225	2.31717	-8.17459	0.00828159	0.0170159	-0.0188308	-0.365723	-0.186035	1.04712	0.142998	0.841757	0.517346	0.057877	-0.374982	2.53754	-8.79979	0.00462758	0.00846453	-0.0170042	-0.415283	-0.175537	1.07715	-0.0155121	0.0379506	-0.993851	0.102852	-0.254165	-1.83481	-8.86316	0.00226418	0.00759956	0.00391215	-0.413086	0.184326	1.08594	0.0295245	0.0366582	0.995683	0.0799968	-0.414262	1.56477	-9.5463	0.00677397	0.00207923	-0.00950044	-0.440674	-0.146973	1.16211	
78	-0.989282	-0.00473055	-0.138934	-0.0446895	-2.74903	0.170262	10.7398	0.0269664	0.071681	-0.00448674	0.679443	-0.0405273	-0.848633	0.491571	0.0442201	-0.869663	0.00941828	8.48237	0.196336	-4.98967	-0.0219125	0.0168177	0.00486567	-0.949219	-0.213379	0.300293	0.678433	0.312503	-0.578344	0.328007	9.72335	-0.014937	1.82923	0.0480004	0.0361447	-0.0456859	-1.11548	-0.318848	-0.30127	0.669805	0.213116	-0.637729	0.315031	9.71392	-1.23566	0.893358	-0.00115209	0.0204478	-0.0226405	-1.19922	0.0415039	-0.286865	0.743692	-0.0701369	-0.639137	-0.183049	9.56512	1.09891	1.51628	-0.0978097	0.0204103	0.0182952	-0.906006	-0.0239258	-0.561035	0.732492	-0.220619	-0.470426	-0.439865	9.43711	1.68528	5.12565	-0.0347764	0.0237394	-0.0173773	-0.887695	-0.143555	-0.66748	0.311249	0.0634466	-0.948197	0.004513	5.71967	0.236539	-7.36451	-0.0320317	0.0204625	-0.0404069	-0.838623	-0.217773	0.689941	-0.0285842	-0.00381101	-0.991317	-0.128296	-0.429704	2.32523	-8.15665	0.00655603	0.0129165	-0.0181162	-0.374268	-0.19043	1.04248	0.143275	0.841576	0.517527	0.0582026	-0.378789	2.56084	-8.80926	-0.0118929	0.00743738	-0.0158169	-0.422363	-0.175537	1.07275	-0.0154924	0.0379139	-0.993859	0.102799	-0.271135	-1.83277	-8.90105	0.00159059	0.0102013	0.00386119	-0.413086	0.184326	1.08594	0.0295668	0.0366559	0.995675	0.0800857	-0.384953	1.5773	-9.64979	0.000917832	0.00412193	-0.0054495	-0.440674	-0.14917	1.1665	
79	-0.989107	-0.00532447	-0.140239	-0.0444041	-2.91217	0.260498	10.7099	0.031215	0.0467763	-0.0046746	0.684082	-0.0446777	-0.846191	0.491977	0.0441629	-0.869436	0.00945252	8.4367	0.094581	-4.87219	-0.0109538	0.049835	-0.0150943	-0.947021	-0.211182	0.300049	0.678341	0.312778	-0.578099	0.328367	9.71618	-0.178676	1.90565	0.0182331	0.00590863	-0.00222855	-1.11768	-0.321045	-0.299072	0.669921	0.213134	-0.637755	0.31472	9.77988	-1.16826	0.940317	-0.0106096	-0.000658482	0.00174062	-1.20605	0.0437012	-0.284668	0.743827	-0.0704307	-0.638889	-0.183251	9.73096	1.45603	1.68998	-0.0328974	0.0253351	-0.00877462	-0.908203	-0.0239258	-0.561035	0.732859	-0.220525	-0.469923	-0.43984	9.61901	1.82451	5.27211	0.0234511	0.0374637	0.00357717	-0.883545	-0.141357	-0.665527	0.312075	0.0637342	-0.947909	0.00399145	5.6747	0.100731	-7.44942	0.0293955	0.0909947	-0.0351549	-0.832031	-0.219727	0.685791	-0.0286052	-0.00377976	-0.991315	-0.128304	-0.44636	2.3353	-8.1592	0.00444084	0.014095	-0.0187544	-0.374268	-0.186035	1.04712	0.143567	0.841454	0.517623	0.0583881	-0.383769	2.56235	-8.82067	-0.000470738	0.00183912	-0.0169267	-0.41748	-0.180176	1.07715	-0.0155312	0.0378394	-0.993858	0.102825	-0.247421	-1.83669	-8.89211	0.00617224	0.00961619	0.00513251	-0.413086	0.182129	1.08374	0.029697	0.036727	0.995649	0.0803253	-0.386387	1.57163	-9.58086	-0.00596683	0.000915501	-0.00439405	-0.436035	-0.153564	1.17114	
80	-0.989056	-0.00547195	-0.140702	-0.0440522	-2.81209	0.155742	10.7382	0.00937695	0.0198346	-0.0115501	0.681641	-0.0427246	-0.844238	0.492182	0.0436312	-0.869342	0.00986609	8.50302	0.13007	-4.94965	-0.00559346	0.0122924	-0.0110722	-0.949219	-0.211182	0.29541	0.67876	0.31295	-0.577557	0.328291	9.67741	-0.598003	1.71803	0.0053463	0.0116888	-0.0151713	-1.11328	-0.327637	-0.301025	0.670293	0.213344	-0.637369	0.314567	9.82555	-1.1502	1.00146	-0.00108425	0.0262474	-0.0231702	-1.20605	0.0458984	-0.289307	0.744177	-0.0707387	-0.638299	-0.183767	9.60035	1.17271	1.7213	-0.0343822	0.043079	-0.00771034	-0.903809	-0.0239258	-0.567871	0.732998	-0.220422	-0.469473	-0.440141	9.71888	1.85614	5.30648	0.0192444	0.0322444	-0.0200061	-0.883301	-0.147949	-0.669434	0.311732	0.0635412	-0.948038	0.00320805	5.77601	0.257475	-7.26106	-0.0163586	-0.0139001	-0.015086	-0.836426	-0.217773	0.694092	-0.0286443	-0.00372631	-0.991301	-0.128407	-0.427207	2.32814	-8.16263	-0.00374259	0.0119821	-0.021486	-0.369873	-0.188232	1.04468	0.14385	0.84127	0.517824	0.0585638	-0.37584	2.56081	-8.82263	-0.0103037	0.00275817	-0.0160439	-0.415039	-0.180176	1.07275	-0.0155432	0.0378161	-0.993866	0.102758	-0.255872	-1.83347	-8.89444	-0.00105302	0.00941363	0.0041348	-0.410889	0.182129	1.07935	0.029537	0.0366618	0.995632	0.0806284	-0.396779	1.57119	-9.59308	-0.0106333	0.0101798	-0.00472001	-0.438477	-0.14917	1.16211	
81	-0.989047	-0.00574678	-0.140709	-0.0441945	-2.6918	0.160105	10.6284	0.0216417	0.00299107	0.0177544	0.686279	-0.046875	-0.850586	0.49218	0.0435809	-0.869344	0.0100208	8.36125	0.0131946	-4.86183	-0.000964466	0.0127382	-0.00974483	-0.947021	-0.208984	0.30249	0.678595	0.313826	-0.577128	0.328551	9.74663	0.0895967	1.89362	0.0165982	0.0154709	-0.0390764	-1.11743	-0.325195	-0.301025	0.670228	0.213479	-0.637388	0.314574	9.65563	-1.09078	1.01897	0.0126116	-0.00292449	-0.00484865	-1.20166	0.0458984	-0.289307	0.744387	-0.0704078	-0.638054	-0.183897	9.72907	1.25097	1.84702	0.00377315	0.0184553	-0.0176799	-0.903564	-0.0283203	-0.565674	0.733078	-0.220467	-0.469348	-0.440117	9.48033	1.86893	5.30876	-0.00438726	0.0200847	-0.0015387	-0.887695	-0.141602	-0.671875	0.311798	0.0636265	-0.948011	0.0029609	5.79208	0.337152	-7.20912	0.000708406	0.0138038	-0.0299177	-0.840576	-0.219971	0.692139	-0.0286894	-0.0037025	-0.99128	-0.128559	-0.449924	2.32895	-8.16143	-0.00636119	0.0110297	-0.0186056	-0.369873	-0.188232	1.04468	0.144445	0.84116	0.517803	0.0588718	-0.376398	2.56314	-8.81205	-0.047289	-0.00129571	-0.0140775	-0.415283	-0.175537	1.07495	-0.0155633	0.0377864	-0.993873	0.102698	-0.239751	-1.81822	-8.90144	-0.000581733	0.00927737	0.00493121	-0.413086	0.184326	1.08838	0.0295408	0.0366457	0.995624	0.0807278	-0.418534	1.58443	-9.6124	-0.00557675	0.00626212	-0.00737862	-0.433838	-0.14917	1.17114	
82	-0.988908	-0.00613614	-0.141412	-0.0450199	-2.62318	0.0432875	10.5348	0.0128803	0.0298388	0.0362128	0.686279	-0.046875	-0.846191	0.491607	0.0444032	-0.869635	0.00927346	8.40073	0.225393	-4.88711	-0.013839	-0.0209654	-0.0522904	-0.947021	-0.213379	0.297852	0.67821	0.314428	-0.577289	0.328487	9.56479	-0.139289	1.83445	0.0328775	-0.0361127	-0.00551396	-1.11963	-0.325195	-0.298828	0.670368	0.213968	-0.637242	0.314241	9.53771	-1.1946	0.965396	0.019954	0.010104	-0.0332686	-1.20361	0.0415039	-0.293457	0.74429	-0.0702743	-0.638211	-0.183795	9.77696	1.09145	1.72783	0.0262101	0.00388712	0.000658327	-0.903809	-0.0239258	-0.563477	0.732953	-0.220081	-0.46952	-0.440335	9.56253	1.92834	5.36289	-0.00622824	0.00542179	-0.0336124	-0.883789	-0.137207	-0.671875	0.3138	0.0631742	-0.947384	0.00138714	5.68404	0.132329	-7.68468	-0.0461923	0.0919837	-0.00764037	-0.842529	-0.226318	0.681641	-0.0286894	-0.0037025	-0.99128	-0.128559	-0.449924	2.32895	-8.16143	-0.00636119	0.0110297	-0.0186056	-0.369873	-0.188232	1.04468	0.144445	0.84116	0.517803	0.0588718	-0.376398	2.56314	-8.81205	-0.047289	-0.00129571	-0.0140775	-0.415283	-0.175537	1.07495	-0.0155633	0.0377864	-0.993873	0.102698	-0.239751	-1.81822	-8.90144	-0.000581733	0.00927737	0.00493121	-0.413086	0.184326	1.08838	0.0295408	0.0366457	0.995624	0.0807278	-0.418534	1.58443	-9.6124	-0.00557675	0.00626212	-0.00737862	-0.433838	-0.14917	1.17114	
83	-0.988696	-0.00805403	-0.142829	-0.0448799	-3.02827	-0.119121	10.7846	0.111805	0.0534835	-0.0137143	0.684326	-0.0512695	-0.843994	0.491588	0.0449149	-0.869616	0.00955134	8.50346	0.142929	-5.00664	0.029732	0.01245	-0.0440243	-0.949219	-0.211182	0.30249	0.677804	0.314062	-0.57825	0.327985	9.58215	-0.259934	1.84735	-0.0533271	-0.0287399	0.00799098	-1.11743	-0.327393	-0.301025	0.670371	0.214025	-0.637405	0.313864	9.63173	-1.15262	0.948717	0.00377733	-0.0115073	-0.00527839	-1.20361	0.0415039	-0.286865	0.743844	-0.0701467	-0.638568	-0.184405	9.84847	1.10617	1.71197	-0.0703197	-0.0191055	-0.029131	-0.903564	-0.0283203	-0.561035	0.733063	-0.219869	-0.469775	-0.439986	9.63495	1.90989	5.31864	0.0109667	0.00807016	-0.00234351	-0.885742	-0.139404	-0.669678	0.314536	0.0635132	-0.947112	0.00357191	5.72358	0.253234	-7.41097	0.192838	0.0176525	-0.00249943	-0.842773	-0.219971	0.685791	-0.0284544	-0.00316563	-0.991287	-0.128573	-0.435018	2.32799	-8.15999	0.00124443	0.0128456	-0.0189049	-0.369873	-0.188232	1.04468	0.144748	0.840854	0.518115	0.0597468	-0.355475	2.60131	-8.79518	0.00545855	0.0107984	-0.00908832	-0.419678	-0.180176	1.07495	-0.0153762	0.0376609	-0.993881	0.102693	-0.253307	-1.8263	-8.92014	0.00634758	0.00901078	0.00292023	-0.410889	0.182129	1.08154	0.0293469	0.0363665	0.995682	0.0802148	-0.384503	1.57236	-9.59257	0.0319726	0.012971	-0.00857598	-0.440674	-0.151367	1.16895	
84	-0.988733	-0.0111957	-0.142691	-0.0438291	-2.97756	0.679309	10.7428	0.119373	-0.0287347	-0.0202694	0.686768	-0.0556641	-0.841797	0.490904	0.0447255	-0.870026	0.00824766	8.34358	0.186955	-4.93415	-0.0217496	0.00272646	-0.0262234	-0.942383	-0.217773	0.302734	0.677287	0.314217	-0.578562	0.328353	9.84135	-0.147979	1.64197	0.026235	-0.0349126	0.0274805	-1.11743	-0.325195	-0.298828	0.670469	0.213679	-0.637649	0.313397	9.71151	-1.08825	0.934055	-0.0164781	0.00373108	0.00236949	-1.20361	0.0415039	-0.289062	0.743645	-0.0702544	-0.638816	-0.184309	9.61901	1.43369	1.44448	-0.0247521	0.000566533	-0.00254261	-0.908203	-0.0195312	-0.558838	0.732814	-0.219941	-0.47014	-0.439975	9.56683	1.9681	5.21836	0.00109491	-0.00264149	-0.0176173	-0.87915	-0.143555	-0.673828	0.315096	0.0636224	-0.946906	0.0060088	5.63384	0.456452	-7.19045	0.0788295	0.044276	0.00372217	-0.838623	-0.219971	0.681396	-0.028326	-0.00288971	-0.991301	-0.1285	-0.424795	2.34135	-8.15392	0.00564703	0.0136925	-0.0186182	-0.369873	-0.188232	1.04248	0.144901	0.840814	0.518126	0.0598492	-0.351911	2.58633	-8.83827	-0.00809686	0.00175087	-0.00984457	-0.421875	-0.187012	1.07275	-0.0154209	0.0376758	-0.993871	0.102782	-0.259309	-1.82818	-8.88027	0.0114338	0.00744425	0.00127476	-0.413086	0.182129	1.08618	0.0292755	0.0362865	0.995725	0.0797399	-0.444709	1.5264	-9.60361	0.0121349	0.00519307	-0.01155	-0.438477	-0.14917	1.16211	
