40	Head	00b4120a												Throax	00b411e8												LUpArm	00b411d9												LFoArm	00b41148												RUpArm	00b411db												RFoArm	00b41204												Waist	00b411f7												Lthigh	00b411f4												Lshank	00b4111b												Rthigh	00b411c8												Rshank	00b411ee												
PacketCount	q0	q1	q2	q3	accX	accY	accZ	gyrX	gyrY	gyrZ	magX	magY	magZ	q0	q1	q2	q3	accX	accY	accZ	gyrX	gyrY	gyrZ	magX	magY	magZ	q0	q1	q2	q3	accX	accY	accZ	gyrX	gyrY	gyrZ	magX	magY	magZ	q0	q1	q2	q3	accX	accY	accZ	gyrX	gyrY	gyrZ	magX	magY	magZ	q0	q1	q2	q3	accX	accY	accZ	gyrX	gyrY	gyrZ	magX	magY	magZ	q0	q1	q2	q3	accX	accY	accZ	gyrX	gyrY	gyrZ	magX	magY	magZ	q0	q1	q2	q3	accX	accY	accZ	gyrX	gyrY	gyrZ	magX	magY	magZ	q0	q1	q2	q3	accX	accY	accZ	gyrX	gyrY	gyrZ	magX	magY	magZ	q0	q1	q2	q3	accX	accY	accZ	gyrX	gyrY	gyrZ	magX	magY	magZ	q0	q1	q2	q3	accX	accY	accZ	gyrX	gyrY	gyrZ	magX	magY	magZ	q0	q1	q2	q3	accX	accY	accZ	gyrX	gyrY	gyrZ	magX	magY	magZ	
0	-0.993828	-0.0137635	-0.100284	-0.0453869	-2.41631	0.439193	10.8653	0.0077672	-0.00692252	0.000365422	0.641357	-0.0712891	-0.870117	0.493066	0.050728	-0.868304	0.018981	8.38642	0.108165	-5.01959	-0.0149884	0.0225375	-0.0165722	-0.957764	-0.211182	0.30249	0.671526	0.292054	-0.580212	0.356527	9.98918	0.155441	1.85917	-0.00796893	-0.000859095	0.0189683	-1.125	-0.277344	-0.313721	0.667363	0.20079	-0.648805	0.305552	9.82716	-1.21704	0.876315	-0.00590097	0.0148598	-0.0144057	-1.20923	0.0654297	-0.263184	0.742368	-0.0524628	-0.644315	-0.176058	9.71947	1.58872	1.66018	-0.0795287	0.00836646	0.00992434	-0.90918	-0.050293	-0.554199	0.724899	-0.199988	-0.462371	-0.469829	9.58797	1.91059	5.49239	0.00762414	0.0182474	-0.0358854	-0.868896	-0.128418	-0.689453	0.328587	0.0612168	-0.942433	0.0101869	5.87378	0.10059	-7.19497	-0.00148472	-0.05369	-0.0224631	-0.855713	-0.219971	0.675049	-0.0211336	0.0388368	-0.991795	-0.119951	-0.405334	2.2973	-8.16436	0.00771691	0.0131093	-0.0194316	-0.372314	-0.183838	1.04688	0.142296	0.77411	0.611944	0.0776602	-0.343266	2.80072	-8.72682	0.00761522	-0.00281063	-0.0189942	-0.420898	-0.20752	1.0686	-0.0148824	0.023414	-0.994761	0.0983928	-0.218892	-1.79127	-8.89234	0.00694219	0.00786842	0.00354047	-0.415283	0.179932	1.08618	0.0293293	0.0373233	0.995634	0.0803664	-0.37181	1.52722	-9.60921	0.00486911	0.00578588	-0.00407019	-0.438232	-0.151367	1.16895	
1	-0.993862	-0.0135689	-0.100011	-0.0453041	-2.32661	0.472068	10.7956	-0.0146135	-0.025209	-0.00715483	0.641602	-0.0776367	-0.87207	0.493101	0.0503913	-0.868307	0.0188424	8.36438	0.185863	-4.95492	-0.0230867	0.0161299	-0.00385681	-0.951172	-0.213379	0.30249	0.671735	0.291748	-0.580316	0.356215	9.83821	-0.434172	1.46759	-0.01164	0.00210922	0.00389143	-1.12695	-0.281738	-0.311523	0.66724	0.200535	-0.64901	0.305552	9.72736	-1.29201	0.758938	-0.00663266	-0.00297927	0.00952907	-1.20679	0.0610352	-0.258545	0.742485	-0.0516624	-0.644355	-0.175652	9.75479	1.36019	1.66462	0.0338391	0.0229887	-0.00973746	-0.906982	-0.050293	-0.554199	0.725032	-0.199918	-0.462302	-0.469721	9.5159	1.74795	5.50726	0.0128224	0.0181954	-0.0151388	-0.875244	-0.132812	-0.689209	0.327537	0.0610609	-0.942813	0.0097253	5.84414	0.103798	-7.23459	0.0134311	-0.0296009	-0.0140471	-0.852051	-0.206787	0.67041	-0.0211707	0.0388908	-0.991789	-0.119972	-0.40821	2.29636	-8.15808	0.0056453	0.0154053	-0.0207307	-0.374512	-0.181641	1.04932	0.142223	0.774072	0.612022	0.077552	-0.341908	2.80408	-8.76853	0.0171923	0.000293497	-0.0186653	-0.41626	-0.209717	1.06641	-0.0149257	0.0234023	-0.994765	0.0983447	-0.233581	-1.79004	-8.90382	0.00274682	0.00819846	0.00333963	-0.415039	0.177734	1.08838	0.0293117	0.0373384	0.99564	0.0802915	-0.38657	1.56244	-9.59936	0.00792091	0.00678024	-0.00421544	-0.436279	-0.146973	1.1665	
2	-0.99393	-0.0135315	-0.0994865	-0.044975	-2.17638	0.390165	10.7455	-0.00581151	-0.00710504	-0.00296569	0.643799	-0.0754395	-0.874268	0.493117	0.0499806	-0.868329	0.0185179	8.40453	0.111036	-4.9816	-0.0326318	0.00912903	-0.0147385	-0.951416	-0.211182	0.307129	0.671546	0.291946	-0.580226	0.356556	9.71304	-0.181757	1.48196	0.0402914	0.00555578	-0.0129727	-1.12256	-0.290527	-0.315674	0.667057	0.200631	-0.64913	0.305634	9.70497	-1.25666	0.722095	0.00663987	-0.00606377	0.0106411	-1.20679	0.0610352	-0.267334	0.742272	-0.0523087	-0.644389	-0.176237	9.70387	1.34676	1.66366	-0.00431965	-0.00814734	-0.0398398	-0.904785	-0.050293	-0.561035	0.725022	-0.200274	-0.461996	-0.469886	9.55835	1.96564	5.48075	-0.0121338	0.0194859	0.00543728	-0.877441	-0.130615	-0.689453	0.32661	0.0610393	-0.943136	0.00971295	5.85912	0.226866	-7.18896	0.0131439	-0.025108	-0.0174999	-0.847168	-0.217773	0.683594	-0.0210763	0.0391719	-0.991782	-0.11996	-0.403422	2.28524	-8.15391	0.0033878	0.0125425	-0.0189628	-0.374512	-0.181641	1.04688	0.141974	0.773815	0.612426	0.0773814	-0.357511	2.80035	-8.74223	0.0102036	0.00404654	-0.0181811	-0.416504	-0.200684	1.073	-0.0148451	0.0233169	-0.994768	0.0983444	-0.222943	-1.78398	-8.90642	0.00237976	0.00876565	0.00474196	-0.415039	0.177734	1.08838	0.0292613	0.0372951	0.995632	0.0804379	-0.385713	1.54178	-9.58221	-0.00248477	0.00531929	-0.00407888	-0.433838	-0.151367	1.16675	
3	-0.993964	-0.0139124	-0.0993016	-0.0445121	-2.24276	0.444446	10.7819	0.0235565	-0.0189346	-0.013968	0.636963	-0.0712891	-0.876465	0.493111	0.0499023	-0.868335	0.0185922	8.30333	0.190872	-5.08075	-0.000748199	0.00942662	-0.0181811	-0.951416	-0.211182	0.307129	0.671457	0.291383	-0.580712	0.356392	9.78888	-0.318015	1.85274	-0.0227046	0.00242469	0.0107787	-1.12036	-0.28833	-0.311279	0.667175	0.200398	-0.649157	0.305473	9.69902	-1.28076	0.840262	-0.00294026	0.00656698	-0.00221782	-1.20898	0.0610352	-0.265137	0.742372	-0.0525663	-0.644286	-0.176111	9.60515	1.81805	1.6676	-0.0416107	0.0021021	-0.000552138	-0.909424	-0.0458984	-0.563477	0.724902	-0.200081	-0.462088	-0.470064	9.52976	1.95374	5.40509	-0.000101651	0.0119578	-0.0258337	-0.873291	-0.126221	-0.687256	0.326325	0.0611242	-0.943228	0.00983578	5.75272	0.147957	-7.15477	0.0456652	0.00869416	-0.0157641	-0.849121	-0.222168	0.681396	-0.0211084	0.0391938	-0.991777	-0.11999	-0.409696	2.29549	-8.15184	0.00429492	0.0124464	-0.0188387	-0.372559	-0.177246	1.03979	0.142368	0.773689	0.612468	0.0775853	-0.356642	2.81919	-8.73748	-0.0101764	0.00240241	-0.0155377	-0.418701	-0.205078	1.0708	-0.0148451	0.0233169	-0.994768	0.0983444	-0.222943	-1.78398	-8.90642	0.00237976	0.00876565	0.00474196	-0.415039	0.177734	1.08838	0.0292757	0.0373537	0.995612	0.0806487	-0.407947	1.56951	-9.59895	-0.00611232	0.00437721	-0.00317577	-0.442871	-0.14917	1.17114	
4	-0.994002	-0.0140405	-0.0989059	-0.0445074	-2.17937	0.467898	10.7514	0.00567591	-0.019837	-0.00276528	0.636963	-0.0712891	-0.872314	0.492777	0.049982	-0.868518	0.0186988	8.33708	0.0776181	-5.02475	0.0218826	-0.00106987	-0.023254	-0.948975	-0.215576	0.302734	0.671371	0.29155	-0.580621	0.356565	9.81934	-0.565155	1.57596	0.00930733	-0.00863262	0.0123807	-1.12695	-0.281738	-0.313721	0.66718	0.200492	-0.649089	0.305545	9.77731	-1.42821	0.732572	0.0106482	0.0168313	-0.0136439	-1.20483	0.0654297	-0.263184	0.742256	-0.0523244	-0.644367	-0.176376	9.6354	1.40731	1.62756	-0.0215477	0.00131788	-0.0278458	-0.913574	-0.050293	-0.561035	0.725035	-0.200313	-0.461862	-0.46998	9.49998	1.77791	5.46178	-0.00689773	0.0206383	-0.0052511	-0.875488	-0.128418	-0.685059	0.326254	0.061257	-0.94324	0.0101854	5.76917	0.13929	-7.3077	0.0288341	0.0111628	-0.0168006	-0.847412	-0.213379	0.681396	-0.0208338	0.0396639	-0.991782	-0.119842	-0.405703	2.29099	-8.16041	0.00546081	0.0139688	-0.0176809	-0.370361	-0.181641	1.04224	0.142326	0.773581	0.6126	0.0776934	-0.35712	2.80568	-8.7327	0.00804522	0.0099093	-0.0163084	-0.421143	-0.202881	1.06641	-0.0146414	0.0232002	-0.994781	0.0982745	-0.2341	-1.78654	-8.90841	0.00274499	0.00820082	0.00333881	-0.410889	0.179932	1.08618	0.0293642	0.0373139	0.995621	0.0805214	-0.399708	1.57265	-9.6035	0.0104483	0.00170609	-0.00773226	-0.433838	-0.151367	1.16675	
5	-0.994009	-0.0135876	-0.0986599	-0.0450402	-2.18042	0.33939	10.8508	-0.0265959	-0.0108372	0.0314601	0.643799	-0.0754395	-0.874268	0.492354	0.0508334	-0.8687	0.0190555	8.50624	0.109449	-4.94718	0.019669	0.000348702	-0.0487762	-0.947021	-0.211182	0.304932	0.671321	0.291712	-0.580601	0.356561	9.8118	-0.101371	1.63567	0.00500929	-0.000919758	-0.00533598	-1.12036	-0.290527	-0.304443	0.667115	0.200634	-0.649163	0.305438	9.81328	-1.14978	0.719366	0.00990381	-0.00334264	0.00553864	-1.20728	0.0698242	-0.267578	0.742222	-0.0520266	-0.644527	-0.176026	9.68869	1.53271	1.62426	0.019894	-0.00272208	-0.00986818	-0.913574	-0.0480957	-0.556641	0.724748	-0.199829	-0.462292	-0.470207	9.58458	1.8742	5.45311	0.0141975	0.000744996	-0.0424062	-0.869141	-0.124268	-0.6875	0.328071	0.0615817	-0.94258	0.0109382	5.90789	0.163868	-7.3413	0.0563425	0.126142	-0.0263001	-0.849609	-0.213379	0.674805	-0.020863	0.0396385	-0.991801	-0.119688	-0.406589	2.28937	-8.14733	0.0172949	0.012921	-0.0159964	-0.374268	-0.188232	1.04468	0.142403	0.77352	0.612654	0.0777381	-0.339841	2.79199	-8.74096	0.00290504	-0.000321995	-0.0162949	-0.41626	-0.20752	1.07104	-0.014702	0.0231716	-0.994786	0.0982183	-0.236474	-1.78019	-8.90579	0.000294878	0.00796157	0.0043795	-0.410889	0.179932	1.08838	0.0294277	0.0373455	0.995626	0.080427	-0.369597	1.52589	-9.59805	0.00373097	0.00384641	-0.00256104	-0.438232	-0.153564	1.17114	
6	-0.994	-0.0135146	-0.0985599	-0.0454621	-2.29917	0.341165	10.7493	-0.00883672	-0.011366	0.0337555	0.63916	-0.0754395	-0.87207	0.492399	0.0513669	-0.86864	0.0192241	8.31753	0.0411915	-5.01201	0.0240989	0.0185473	-0.050343	-0.947021	-0.211182	0.30957	0.671607	0.291429	-0.580652	0.356169	9.7319	-0.634355	1.79921	-0.0445924	0.0144591	-0.0181338	-1.12476	-0.281738	-0.313721	0.667051	0.200766	-0.649172	0.305468	9.64557	-1.38927	0.815241	0.0131331	-0.00214676	-0.00454919	-1.21167	0.067627	-0.265381	0.74211	-0.0517234	-0.644687	-0.176001	9.66384	1.71746	1.57468	0.0199885	-0.00418469	-0.0314602	-0.915771	-0.0480957	-0.556641	0.72472	-0.199655	-0.462443	-0.470176	9.49725	2.0017	5.45743	0.0202374	0.00991155	-0.0210855	-0.875244	-0.130615	-0.685059	0.331497	0.0616368	-0.941372	0.0113417	5.87906	0.086598	-6.81721	0.0233	0.205011	-0.0117059	-0.858154	-0.213379	0.670654	-0.020863	0.0396385	-0.991801	-0.119688	-0.406589	2.28937	-8.14733	0.0172949	0.012921	-0.0159964	-0.374268	-0.188232	1.04468	0.142403	0.77352	0.612654	0.0777381	-0.339841	2.79199	-8.74096	0.00290504	-0.000321995	-0.0162949	-0.41626	-0.20752	1.07104	-0.014702	0.0231716	-0.994786	0.0982183	-0.236474	-1.78019	-8.90579	0.000294878	0.00796157	0.0043795	-0.410889	0.179932	1.08838	0.0294075	0.0374017	0.995625	0.0804172	-0.401154	1.54083	-9.59479	0.00297745	0.00692748	-0.000722577	-0.431396	-0.153564	1.15991	
7	-0.994046	-0.0136494	-0.0978684	-0.0459134	-2.29623	0.413864	10.762	0.00551054	-0.0383777	0.0124687	0.63501	-0.0754395	-0.878662	0.492196	0.0519243	-0.868719	0.0193428	8.27113	0.199046	-4.99729	-0.000447143	-0.000108163	-0.0362716	-0.955811	-0.211182	0.30249	0.671121	0.29185	-0.580845	0.356427	9.84977	0.395006	1.6703	-0.018182	-0.0119521	0.00862321	-1.12256	-0.28833	-0.313477	0.667206	0.201016	-0.649064	0.305195	9.78336	-1.10016	0.835982	-0.00302145	0.00555377	-0.010247	-1.21582	0.0632324	-0.260986	0.741952	-0.0519408	-0.64478	-0.176264	9.5571	1.64053	1.49128	-0.0295726	-0.0110291	-0.0169873	-0.911377	-0.0524902	-0.554199	0.724513	-0.199468	-0.462558	-0.470462	9.51613	1.95049	5.39949	-0.00448628	0.0157549	-0.0290362	-0.871094	-0.132812	-0.695801	0.333844	0.0616919	-0.940533	0.0118068	5.80881	0.160218	-6.8906	0.0443998	0.210858	-0.0154069	-0.862549	-0.211182	0.662109	-0.0208179	0.0399314	-0.991798	-0.11962	-0.396404	2.28169	-8.15638	0.00638135	0.0151113	-0.0174416	-0.374268	-0.186035	1.04712	0.142197	0.773349	0.612928	0.0776586	-0.35253	2.80768	-8.76376	0.00898563	0.0108513	-0.0148535	-0.418701	-0.207275	1.06421	-0.0146075	0.0230767	-0.994788	0.0982396	-0.225281	-1.78985	-8.90797	0.00229226	0.0110904	0.00254372	-0.415283	0.177734	1.08154	0.0293793	0.0374045	0.995628	0.0803856	-0.410994	1.54724	-9.58746	0.00572833	0.00560891	-0.00756698	-0.438232	-0.155762	1.16895	
8	-0.994165	-0.0135785	-0.0969173	-0.0453805	-2.10531	0.306902	10.8415	0.00499946	-0.0425161	-0.0352988	0.634766	-0.0732422	-0.883057	0.491949	0.0520176	-0.868859	0.0190954	8.47676	0.218504	-4.9806	-0.0300182	0.00848277	-0.0179407	-0.948975	-0.217773	0.305176	0.671078	0.291306	-0.581358	0.356115	9.74879	-0.528804	1.41377	0.0233642	-0.0144122	0.0153697	-1.12476	-0.290283	-0.313477	0.667133	0.200758	-0.649365	0.304884	9.76713	-1.29385	0.679684	-0.0147459	-0.00283728	-0.00619268	-1.20923	0.0654297	-0.260986	0.741845	-0.0508914	-0.644944	-0.176416	9.70634	1.59402	1.62264	0.0273705	0.00356526	-0.0400429	-0.908936	-0.0546875	-0.558838	0.724809	-0.199637	-0.462281	-0.470205	9.50808	1.72012	5.45961	0.00456763	0.0231944	-0.00350986	-0.877686	-0.126465	-0.685303	0.33869	0.0616691	-0.938795	0.0122808	6.11029	0.156883	-7.01156	0.0197669	0.223246	-0.0125638	-0.871094	-0.213379	0.653564	-0.0208741	0.0399677	-0.9918	-0.119579	-0.392323	2.29121	-8.16113	0.0065094	0.0101559	-0.0194286	-0.383057	-0.186035	1.04004	0.142129	0.773287	0.613014	0.0777263	-0.344252	2.79637	-8.72605	0.00365845	0.00405252	-0.0163098	-0.425781	-0.202881	1.0708	-0.0146537	0.0230896	-0.994787	0.098242	-0.232192	-1.78966	-8.89904	0.00611365	0.0100556	0.00240761	-0.410889	0.179932	1.09082	0.029446	0.0373096	0.99566	0.0800188	-0.373813	1.5521	-9.60154	0.0162324	0.00341494	-0.0106067	-0.436279	-0.14917	1.16895	
9	-0.994243	-0.01371	-0.0965336	-0.044436	-2.10389	0.441813	10.7526	-0.00201211	-0.0147976	-0.0315503	0.634766	-0.0734863	-0.874268	0.492118	0.0515701	-0.8688	0.0186257	8.36837	0.270514	-4.96685	-0.0392472	0.0198949	-0.0139113	-0.953125	-0.219971	0.307617	0.67094	0.290719	-0.581879	0.356004	9.6853	-0.443851	1.63228	-0.0263749	0.00614358	0.00297355	-1.12256	-0.286133	-0.309082	0.666942	0.200439	-0.649788	0.304611	9.65518	-1.28835	0.733119	-0.0119548	-0.0207475	0.0155187	-1.20703	0.0632324	-0.263184	0.741778	-0.0513922	-0.64487	-0.176825	9.71417	1.48923	1.69087	0.0400347	0.0128403	-0.02621	-0.90918	-0.050293	-0.556641	0.724985	-0.200133	-0.461733	-0.470263	9.53718	1.84961	5.48087	-0.00952663	0.0162854	0.0109931	-0.871338	-0.124268	-0.689453	0.342829	0.0615707	-0.937288	0.0130173	6.08434	0.203547	-7.01118	0.0433718	0.18396	-0.00904852	-0.873535	-0.211182	0.651367	-0.0209413	0.040037	-0.991777	-0.119736	-0.413276	2.27887	-8.15207	0.00178198	0.0114874	-0.0218295	-0.372314	-0.181641	1.04688	0.142342	0.773143	0.613131	0.0778396	-0.346264	2.81394	-8.7396	0.000826988	0.000136032	-0.01558	-0.420898	-0.20752	1.0686	-0.0147107	0.0230892	-0.994794	0.0981589	-0.22787	-1.78078	-8.88936	0.00144399	0.00701115	0.00388343	-0.408691	0.182129	1.08838	0.0293486	0.0373707	0.995639	0.0802845	-0.428667	1.53187	-9.59204	-0.0159904	0.0112336	0.000937275	-0.440674	-0.146973	1.17334	
10	-0.994311	-0.0136321	-0.0962808	-0.0434747	-2.25084	0.523608	10.8573	-0.00309572	-0.0195184	-0.0386528	0.634766	-0.0712891	-0.876465	0.492142	0.0515424	-0.868803	0.0179332	8.35491	0.0991856	-4.97791	-0.0291093	0.00600459	-0.0219487	-0.953613	-0.211182	0.307129	0.670727	0.29077	-0.581973	0.35621	9.68949	-0.382244	1.40056	0.0128741	-0.00723133	0.0136656	-1.12476	-0.286133	-0.304443	0.666999	0.20011	-0.649976	0.3043	9.78663	-1.33011	0.778005	-0.0171865	0.0025105	-0.00504269	-1.20923	0.0632324	-0.269775	0.741634	-0.0527044	-0.644731	-0.177547	9.82953	1.15859	1.66083	-0.0733749	-0.00375906	0.000911236	-0.90918	-0.050293	-0.556641	0.724888	-0.200297	-0.461627	-0.470447	9.59457	1.83508	5.56459	0.0266865	0.00957745	-0.0313227	-0.875488	-0.126465	-0.687256	0.346064	0.0614373	-0.936097	0.0136963	6.11383	0.108468	-6.94724	0.0216094	0.134008	-0.00663138	-0.879883	-0.213379	0.643066	-0.0209924	0.0400475	-0.991775	-0.119742	-0.422417	2.28925	-8.16445	0.00633743	0.0112061	-0.0184877	-0.376709	-0.181641	1.04224	0.142369	0.773015	0.613272	0.0779504	-0.356939	2.80077	-8.73323	0.00206838	0.00706247	-0.0173161	-0.421143	-0.205322	1.0708	-0.0147094	0.0230658	-0.994798	0.09813	-0.23361	-1.78019	-8.90979	0.00213222	0.0111907	0.00459775	-0.408691	0.182129	1.08838	0.0293544	0.0374048	0.995622	0.0804741	-0.428036	1.5799	-9.61394	-0.0138456	0.0054383	-0.00227928	-0.440674	-0.14917	1.16895	
11	-0.994383	-0.0134318	-0.0955432	-0.0435075	-2.1874	0.517424	10.8382	-0.00549765	-0.0304133	0.0241198	0.634766	-0.0732422	-0.885254	0.491516	0.0520437	-0.869126	0.0179933	8.39497	0.13984	-4.96838	0.00883366	-0.0185243	-0.0377567	-0.948975	-0.217773	0.305176	0.670563	0.290321	-0.582474	0.356066	9.69472	-0.519189	1.36541	-0.00252772	-0.00495345	-0.00330856	-1.12915	-0.279541	-0.304688	0.66691	0.200127	-0.65002	0.304393	9.72245	-1.34447	0.631244	0.011896	0.011012	-0.000551495	-1.20947	0.0698242	-0.260986	0.741417	-0.0513871	-0.645207	-0.177111	9.82178	1.24504	1.75702	0.0208048	-0.0161165	-0.0327718	-0.90918	-0.0480957	-0.554199	0.724746	-0.200419	-0.461968	-0.470278	9.55971	1.61633	5.51648	0.00816155	-0.00238041	-0.0193567	-0.877441	-0.130615	-0.687256	0.348285	0.0614153	-0.935269	0.014029	6.19932	0.0470347	-7.02019	0.0271427	0.0976896	-0.0158533	-0.881836	-0.217773	0.634521	-0.0208947	0.0403025	-0.991782	-0.119618	-0.396109	2.28805	-8.14906	0.0070577	0.0134004	-0.0176606	-0.376709	-0.183838	1.04468	0.142434	0.772957	0.613309	0.0781153	-0.350004	2.81079	-8.76182	-0.00116085	0.00620395	-0.0141278	-0.418457	-0.209717	1.06421	-0.0147036	0.0230248	-0.994799	0.0981303	-0.222109	-1.77961	-8.90246	0.00412529	0.0046843	0.00224088	-0.415039	0.17334	1.08862	0.0294141	0.0373067	0.995655	0.0800872	-0.372688	1.5653	-9.5746	0.0209183	0.00360082	-0.00664006	-0.436279	-0.146973	1.16431	
12	-0.994402	-0.013242	-0.0950802	-0.0441522	-2.20385	0.506708	10.8567	-0.0208703	-0.0389902	0.0506988	0.636963	-0.0732422	-0.883057	0.491331	0.0523973	-0.869208	0.0180339	8.4611	0.105657	-4.99842	0.00883224	-0.00359987	-0.0415561	-0.951172	-0.217773	0.307373	0.670416	0.29028	-0.582653	0.356084	9.88369	-0.362128	1.75061	-0.00509331	-0.00989357	0.00713825	-1.12061	-0.279541	-0.311523	0.666949	0.200217	-0.650034	0.304218	9.72467	-1.2262	0.757716	0.0158259	-0.00356493	-0.000459873	-1.20898	0.0610352	-0.267334	0.741376	-0.0517071	-0.645235	-0.177087	9.66481	1.29321	1.49673	-0.0185472	-0.00176809	0.00194417	-0.911377	-0.050293	-0.552002	0.724472	-0.199827	-0.462543	-0.470387	9.51656	2.09326	5.41958	0.0403331	0.0114705	-0.0217511	-0.877686	-0.124268	-0.689453	0.349828	0.0612528	-0.934706	0.0139164	6.19851	0.118722	-6.88954	-0.0132073	0.0617544	-0.017709	-0.875488	-0.213379	0.638672	-0.0209426	0.040329	-0.991774	-0.119666	-0.409852	2.28082	-8.17382	0.00324106	0.010911	-0.0192564	-0.374512	-0.183838	1.04932	0.142342	0.772894	0.61342	0.0780417	-0.35866	2.80461	-8.75224	0.0172861	0.00254971	-0.0186189	-0.416504	-0.202881	1.07544	-0.0147422	0.023007	-0.994798	0.0981368	-0.223872	-1.78721	-8.89592	0.00635425	0.00891493	0.00428948	-0.4104	0.17334	1.08643	0.0293848	0.0372847	0.995667	0.0799582	-0.41264	1.51206	-9.63215	0.0118622	0.00781337	-0.00724752	-0.436279	-0.146973	1.17114	
13	-0.994444	-0.0133325	-0.0937432	-0.046006	-2.088	0.185233	10.7306	0.013309	-0.0335429	0.0347953	0.632812	-0.0756836	-0.878662	0.490532	0.0532977	-0.869597	0.018403	8.35762	0.244067	-5.02143	0.00173746	-0.017025	-0.0291465	-0.951172	-0.217773	0.307373	0.670595	0.289914	-0.583018	0.355447	9.83625	-0.41832	1.61291	-0.0579361	-0.00402088	-0.00642239	-1.12256	-0.283936	-0.306885	0.666925	0.200299	-0.650078	0.304121	9.69819	-1.29605	0.66745	0.0214001	0.00440112	-0.00873296	-1.21118	0.0588379	-0.262939	0.741081	-0.050836	-0.645705	-0.176861	9.61963	1.36948	1.53343	-0.0617541	0.000366675	0.00932131	-0.911133	-0.0546875	-0.554199	0.724114	-0.199767	-0.463015	-0.470499	9.46359	1.80881	5.42001	-0.00684741	-0.0107995	-0.0493644	-0.871094	-0.128418	-0.69165	0.350804	0.0612648	-0.934335	0.0141916	6.2176	0.185628	-6.83613	0.0370967	0.0544919	-0.0117793	-0.884277	-0.211182	0.632324	-0.021023	0.0403928	-0.991778	-0.119597	-0.406067	2.28526	-8.16575	0.0104237	0.0151338	-0.0192076	-0.372314	-0.181641	1.04688	0.141928	0.772894	0.613536	0.0778776	-0.337171	2.80099	-8.75533	0.0222805	0.0105337	-0.0142227	-0.416504	-0.205078	1.06421	-0.0148171	0.0230075	-0.994797	0.098133	-0.238097	-1.77666	-8.89781	0.00503771	0.00742175	0.0033514	-0.40625	0.175537	1.09082	0.0293422	0.0372723	0.995683	0.0797833	-0.423794	1.55759	-9.58381	0.00994621	0.00443899	-0.00513591	-0.436035	-0.153564	1.16675	
14	-0.994457	-0.0136713	-0.0934818	-0.0461563	-2.0758	0.374639	10.7581	0.0255342	-0.0261358	0.0152189	0.632568	-0.0734863	-0.878662	0.490138	0.0534787	-0.86981	0.0183318	8.31383	0.236249	-5.1813	0.000281187	1.08026e-05	-0.0281394	-0.947021	-0.213379	0.312012	0.670479	0.289289	-0.583632	0.355167	9.79472	-0.565882	1.56779	-0.0637564	0.00101955	0.00862504	-1.12476	-0.281738	-0.309082	0.666759	0.200032	-0.650341	0.3041	9.77451	-1.34775	0.727673	-0.00417766	-0.00305397	0.0144217	-1.20923	0.0654297	-0.263184	0.740835	-0.049965	-0.646112	-0.176655	9.83306	1.51562	1.63947	0.0539908	0.00297362	-0.0429964	-0.913574	-0.050293	-0.554199	0.724277	-0.199677	-0.46301	-0.470292	9.59282	1.79346	5.44954	0.0131144	0.0161847	0.00239239	-0.873047	-0.132812	-0.685059	0.351288	0.0611452	-0.93416	0.0142235	6.21502	0.127493	-6.80728	0.0171463	0.0185445	-0.0104096	-0.886719	-0.207031	0.625732	-0.0210366	0.0403933	-0.991777	-0.119598	-0.414791	2.28135	-8.17494	0.00662044	0.0140668	-0.0173234	-0.374512	-0.181641	1.04224	0.141865	0.772885	0.613559	0.0779035	-0.351008	2.8005	-8.73149	0.00950799	0.00896394	-0.0166281	-0.421387	-0.198242	1.06641	-0.0148506	0.0230175	-0.994796	0.098133	-0.225868	-1.77973	-8.90628	0.00519101	0.0084477	0.00229446	-0.410645	0.177734	1.08838	0.0293821	0.0372503	0.995698	0.0795866	-0.391943	1.52643	-9.60301	0.0178197	0.0021804	-0.00771632	-0.436279	-0.14917	1.16211	
15	-0.994528	-0.0139442	-0.0929093	-0.0456873	-2.06235	0.32053	10.8152	0.0120143	-0.0259033	-0.0170663	0.632812	-0.0776367	-0.880859	0.490096	0.0532061	-0.869857	0.0179859	8.35029	0.231711	-5.07483	-0.042984	0.00738127	-0.0144825	-0.948975	-0.215576	0.307373	0.67012	0.289718	-0.58353	0.355663	9.7164	-0.589584	1.50067	0.0557505	-0.00770113	0.0110798	-1.1228	-0.277588	-0.304688	0.666712	0.200035	-0.65038	0.304118	9.66847	-1.32104	0.72865	0.00465256	0.000319407	0.00215121	-1.20679	0.0610352	-0.260742	0.740825	-0.0506925	-0.645976	-0.176984	9.70525	1.41765	1.67673	-0.0630166	0.00534332	0.00314634	-0.91333	-0.0546875	-0.554199	0.724042	-0.19994	-0.463008	-0.470543	9.4596	1.67936	5.47565	-0.0268646	-0.000755794	-0.0269403	-0.875732	-0.124268	-0.685303	0.35154	0.0611468	-0.93406	0.0145813	6.32143	0.108451	-6.9096	0.0443968	0.0320909	-0.00860234	-0.884521	-0.207031	0.636475	-0.0210366	0.0403933	-0.991777	-0.119598	-0.414791	2.28135	-8.17494	0.00662044	0.0140668	-0.0173234	-0.374512	-0.181641	1.04224	0.142049	0.772652	0.613801	0.0779646	-0.34497	2.80069	-8.74847	-0.00456407	0.000133499	-0.0178005	-0.414307	-0.200439	1.0686	-0.0147469	0.0229423	-0.994805	0.0980803	-0.226112	-1.78151	-8.90979	0.000248675	0.00976913	0.00414127	-0.415283	0.179932	1.08154	0.029346	0.0371768	0.995697	0.0796448	-0.392679	1.53837	-9.6141	-0.00141286	0.00456318	-0.00538581	-0.436279	-0.146973	1.1665	
16	-0.994558	-0.0147598	-0.0925448	-0.0455165	-2.08923	0.599185	10.9195	0.0218853	-0.0206455	-0.00383633	0.628174	-0.0756836	-0.878662	0.489668	0.0530721	-0.870107	0.0179427	8.43729	0.0621253	-5.05587	-0.00243683	0.0075893	-0.0146195	-0.948975	-0.213379	0.312012	0.670064	0.289195	-0.584008	0.355409	9.91901	-0.305263	1.51452	-0.060377	-0.00609333	-0.00387132	-1.12061	-0.279541	-0.309082	0.666583	0.199595	-0.650655	0.304101	9.85732	-1.28747	0.77006	-0.0139434	-0.000665227	0.0236388	-1.21143	0.0654297	-0.256592	0.740697	-0.0499337	-0.64626	-0.176697	9.71244	1.68568	1.62172	0.0861	-0.00809661	-0.0528573	-0.908936	-0.0546875	-0.558838	0.724327	-0.199727	-0.463121	-0.470084	9.53745	1.92638	5.45949	0.0271004	0.0238358	0.0212953	-0.875732	-0.124268	-0.685303	0.352004	0.0610966	-0.933885	0.0148253	6.3715	0.00930567	-6.86849	0.00811745	0.0483289	-0.0134018	-0.886475	-0.211182	0.634277	-0.0208755	0.0408954	-0.991776	-0.11947	-0.404135	2.29347	-8.16444	0.00672806	0.0115911	-0.0187866	-0.374756	-0.177246	1.03979	0.142074	0.772585	0.613891	0.0778798	-0.353938	2.81094	-8.73715	0.00618992	-0.000335464	-0.0196559	-0.425781	-0.205322	1.0686	-0.0147744	0.0229336	-0.994811	0.0980147	-0.23406	-1.77151	-8.89515	0.0012613	0.0068154	0.00445001	-0.412842	0.177734	1.08618	0.0293501	0.0371431	0.995668	0.0800298	-0.390365	1.54819	-9.60592	-0.0147069	0.00335954	-0.00351519	-0.433838	-0.151367	1.16431	
17	-0.994635	-0.0146906	-0.0917367	-0.0454968	-2.07457	0.617498	10.773	-0.0184666	-0.0403801	0.0114671	0.628662	-0.0820312	-0.88501	0.48951	0.0529953	-0.870199	0.0179973	8.25009	0.0801727	-5.04956	-0.00284216	-0.00342771	-0.0228844	-0.948975	-0.213379	0.312012	0.670007	0.289149	-0.584091	0.355417	9.65001	-0.172328	1.37133	0.0199563	-0.00799106	-0.00624938	-1.12476	-0.279541	-0.304688	0.66647	0.199535	-0.650784	0.304112	9.68075	-1.23163	0.66372	0.00647925	0.00301096	0.00364416	-1.21143	0.0632324	-0.260986	0.740629	-0.0509644	-0.646164	-0.17704	9.63014	1.36826	1.52589	-0.0765793	-0.0036011	0.0139476	-0.911133	-0.0546875	-0.556641	0.724071	-0.199972	-0.463059	-0.470435	9.49537	1.8615	5.36379	-0.000352638	0.00627521	-0.037105	-0.877441	-0.130615	-0.687256	0.352192	0.0614428	-0.933781	0.0154547	6.19698	0.10901	-6.91351	0.0374561	0.0147678	-0.0130537	-0.88208	-0.213379	0.630127	-0.0208086	0.0411884	-0.991771	-0.119418	-0.405769	2.2974	-8.15659	0.00484137	0.0115825	-0.0202987	-0.374756	-0.179443	1.04224	0.142094	0.772492	0.614001	0.0778915	-0.369769	2.80885	-8.75747	0.0111183	0.00818072	-0.0155941	-0.42334	-0.20752	1.0708	-0.0146284	0.0228852	-0.994818	0.0979748	-0.242882	-1.77813	-8.90277	0.000675951	0.0112508	0.00296744	-0.412842	0.177734	1.08838	0.0292489	0.0371029	0.995684	0.0798888	-0.421961	1.51683	-9.61372	0.0141221	0.00942977	-0.00677847	-0.433838	-0.14917	1.17114	
18	-0.994636	-0.0145718	-0.0910582	-0.0468545	-1.9383	0.248659	10.7475	0.00953562	-0.025385	0.0688296	0.623779	-0.0756836	-0.885254	0.489025	0.0537677	-0.870417	0.0183892	8.34678	0.14716	-5.01431	0.0278636	-0.0119052	-0.0365444	-0.946777	-0.217773	0.309814	0.670243	0.289174	-0.58387	0.355315	9.63061	-0.878369	1.50224	0.0484243	0.0121059	-0.0204825	-1.12256	-0.281738	-0.302246	0.666504	0.200044	-0.65052	0.304267	9.64599	-1.37363	0.682805	0.0391035	0.00797167	-0.0196113	-1.20923	0.0654297	-0.260986	0.740525	-0.0487868	-0.646685	-0.176187	9.71717	1.45376	1.67415	0.0799724	0.0019644	-0.0428454	-0.911133	-0.0546875	-0.547363	0.724141	-0.199513	-0.463489	-0.470099	9.48906	1.74042	5.47809	0.0295389	0.00545752	-0.0188196	-0.877441	-0.132812	-0.678467	0.352378	0.0614476	-0.933716	0.0151048	6.27831	0.0593299	-6.91956	0.00378882	0.0133598	-0.0214078	-0.884033	-0.215576	0.630127	-0.0208329	0.0411818	-0.991775	-0.119387	-0.398157	2.28802	-8.16626	0.0116629	0.0141983	-0.0181861	-0.372559	-0.179443	1.04932	0.14206	0.772429	0.614067	0.0780643	-0.341702	2.80954	-8.72797	0.0041715	0.00856872	-0.0127304	-0.414062	-0.202881	1.073	-0.0147028	0.0228911	-0.994821	0.0979362	-0.231184	-1.77853	-8.88887	0.00428379	0.00713858	0.00366872	-0.408447	0.177734	1.08838	0.0293749	0.0370363	0.995695	0.0797358	-0.400788	1.50387	-9.61025	0.00520359	-0.00273885	-0.00745062	-0.433838	-0.153564	1.16675	
19	-0.994587	-0.0147408	-0.0909584	-0.0480287	-1.95434	0.341134	10.9042	-0.00574478	-0.0035637	0.0348934	0.62207	-0.0822754	-0.883057	0.488816	0.0543945	-0.87049	0.0186193	8.40381	0.22063	-5.10323	0.00824754	0.00573822	-0.0373456	-0.946777	-0.215576	0.314453	0.670356	0.289087	-0.583916	0.355097	9.95158	-0.185957	1.84827	-0.0670282	0.0161214	-0.0121376	-1.1311	-0.285889	-0.304443	0.666644	0.200315	-0.650256	0.304347	9.7892	-1.26193	0.85897	-0.00259172	0.00334871	0.00328541	-1.20703	0.0632324	-0.260986	0.740422	-0.0486974	-0.646833	-0.176098	9.75662	1.73686	1.47912	0.0273026	0.00445352	-0.0263791	-0.915527	-0.0568848	-0.552002	0.723944	-0.199262	-0.463714	-0.470287	9.5506	1.84678	5.4259	0.0148204	0.00674412	-0.0443441	-0.875244	-0.132812	-0.689209	0.352445	0.0613482	-0.933705	0.0146253	6.32716	0.15801	-6.86866	0.00122539	0.00976551	-0.0201908	-0.888672	-0.209229	0.62793	-0.0208932	0.0411787	-0.991791	-0.119245	-0.40529	2.28047	-8.17655	0.00980903	0.0129464	-0.0199509	-0.372314	-0.181641	1.04468	0.141955	0.772427	0.614113	0.0779084	-0.335304	2.79898	-8.74384	0.0188149	-0.00110382	-0.0186131	-0.418945	-0.200684	1.073	-0.0147482	0.0228499	-0.994822	0.0979234	-0.240733	-1.77188	-8.90666	0.00407365	0.00888588	0.00475319	-0.413086	0.179932	1.08398	0.0294309	0.0371021	0.995703	0.0795812	-0.374744	1.53967	-9.56921	0.0110648	0.00411645	-0.00315659	-0.438721	-0.144775	1.17114	
20	-0.994564	-0.0153997	-0.0910377	-0.0481306	-2.08182	0.315395	10.751	0.0262788	0.000251729	0.00644894	0.626221	-0.079834	-0.887207	0.488899	0.0543974	-0.870446	0.0185261	8.31732	0.360897	-4.9998	-0.0150107	0.0202281	-0.0241553	-0.946777	-0.217773	0.316895	0.670404	0.289477	-0.583611	0.35519	9.63051	-0.716092	1.36484	0.0303731	0.0146066	-0.0247875	-1.125	-0.273193	-0.304688	0.666699	0.200445	-0.650126	0.304419	9.71143	-1.24634	0.718354	0.00196642	0.0201245	-0.0122023	-1.20923	0.0654297	-0.263184	0.740442	-0.0479759	-0.646944	-0.175805	9.6453	1.54969	1.64477	0.0581595	0.0103941	-0.035164	-0.908691	-0.0612793	-0.552002	0.723862	-0.198653	-0.463955	-0.470432	9.5191	1.82331	5.41785	0.0169696	0.0104292	-0.0331836	-0.873047	-0.13501	-0.687012	0.352312	0.0614034	-0.933751	0.014679	6.19353	0.0905891	-6.85865	0.0285855	-0.000900458	-0.0161799	-0.888672	-0.211182	0.632324	-0.0209172	0.0411866	-0.991808	-0.119097	-0.408746	2.28707	-8.16122	0.0140745	0.0147883	-0.0176643	-0.372559	-0.175049	1.04688	0.141546	0.772294	0.614411	0.0776242	-0.360498	2.80291	-8.7486	0.022981	0.00434175	-0.0175806	-0.418701	-0.205078	1.0686	-0.0148348	0.0228529	-0.994821	0.0979212	-0.230785	-1.7849	-8.89537	0.00373312	0.00623293	0.00389786	-0.412842	0.177734	1.08838	0.0294452	0.0371114	0.995719	0.0793688	-0.43678	1.52168	-9.62899	0.00660487	0.00336637	-0.00697293	-0.431641	-0.14917	1.1665	
21	-0.994563	-0.0156638	-0.0911719	-0.0478267	-2.03395	0.566494	10.8096	0.0247288	0.00564129	-0.0218342	0.626465	-0.0820312	-0.883057	0.489129	0.0542205	-0.870329	0.0184371	8.30575	0.131843	-5.054	-0.00954635	0.0231065	-0.0164177	-0.946533	-0.222168	0.314697	0.670151	0.289482	-0.583704	0.355511	9.83895	-0.0774905	1.73007	-0.0197607	0.00930282	0.00554033	-1.12695	-0.281738	-0.306885	0.666684	0.200297	-0.650203	0.304383	9.7493	-1.20897	0.815559	-0.00762669	0.00270352	0.00689071	-1.20923	0.0654297	-0.263184	0.740413	-0.0485256	-0.646879	-0.176016	9.66864	1.71589	1.50694	0.00245891	-6.94697e-05	-0.0175163	-0.913086	-0.059082	-0.554199	0.723925	-0.198722	-0.463811	-0.470448	9.5695	2.0429	5.37996	-0.00784998	0.0216878	-0.00730746	-0.87085	-0.137207	-0.687012	0.352169	0.0612772	-0.933813	0.0146748	6.28505	0.13396	-6.96877	0.0209021	0.000825476	-0.0126809	-0.886475	-0.211182	0.632324	-0.0209011	0.0411787	-0.991815	-0.119041	-0.404648	2.27819	-8.18512	0.0105581	0.0165753	-0.0166161	-0.374756	-0.179443	1.04224	0.141619	0.772249	0.614429	0.0777971	-0.357984	2.78454	-8.75661	-0.0063867	0.0107369	-0.0149767	-0.418701	-0.202881	1.06421	-0.0148465	0.0228369	-0.994822	0.0979182	-0.222958	-1.78345	-8.88809	0.00462185	0.00979527	0.00452147	-0.408447	0.177734	1.08838	0.0294893	0.0370844	0.99572	0.0793475	-0.380634	1.52103	-9.59761	0.0033112	0.00271327	-0.00759111	-0.436279	-0.14917	1.16431	
22	-0.994561	-0.0161275	-0.0913169	-0.0474291	-2.0254	0.533517	10.8292	0.0205276	0.00266851	-0.0140207	0.626465	-0.0842285	-0.880859	0.489106	0.0538578	-0.870368	0.01829	8.40391	0.14246	-5.02739	-0.0244507	0.00872004	-0.00794031	-0.94458	-0.219971	0.314697	0.670084	0.289484	-0.58356	0.355871	9.75175	-0.430241	1.61186	0.0281409	0.0173357	0.0132519	-1.13135	-0.277344	-0.309326	0.666592	0.200066	-0.650396	0.304325	9.69485	-1.26611	0.741737	-0.0206493	0.000353048	0.00108538	-1.20728	0.067627	-0.260986	0.740388	-0.0486298	-0.646845	-0.176217	9.71291	1.52652	1.55243	-0.0508258	0.00115407	-0.00878386	-0.913086	-0.059082	-0.549561	0.723956	-0.198878	-0.463651	-0.470492	9.58384	1.85269	5.43166	-0.0123456	0.0206567	-0.0201204	-0.871094	-0.132812	-0.687256	0.351198	0.0613247	-0.934174	0.0147576	6.24014	0.0690766	-6.95084	0.0114661	-0.0440176	-0.0192767	-0.884033	-0.213379	0.634521	-0.020947	0.0411911	-0.991802	-0.11914	-0.396619	2.27997	-8.17014	0.00234778	0.0122224	-0.0166118	-0.372314	-0.181641	1.04932	0.142015	0.77212	0.614467	0.0780516	-0.335771	2.80464	-8.75116	-0.0109544	-0.000559638	-0.0165357	-0.418701	-0.205078	1.0708	-0.0148678	0.0228053	-0.994833	0.0978076	-0.23069	-1.779	-8.89277	-0.00146568	0.00967677	0.00410809	-0.410645	0.177734	1.08838	0.0295055	0.037074	0.995701	0.0795899	-0.393507	1.51863	-9.60503	-0.0121852	0.00687732	-0.00579108	-0.436035	-0.151367	1.16895	
23	-0.994454	-0.0158641	-0.0922429	-0.0479646	-1.89953	0.438777	10.8161	-0.00582848	0.0313691	0.0159695	0.628418	-0.0778809	-0.880859	0.489205	0.0537601	-0.870315	0.0184327	8.37842	0.11423	-5.03329	-0.00466311	0.0232518	-0.0136837	-0.946777	-0.217773	0.314453	0.670148	0.289577	-0.583343	0.35603	9.83021	-0.505663	1.6481	-0.00368621	0.0189532	-0.00779514	-1.12915	-0.277344	-0.30249	0.666501	0.200292	-0.65029	0.304602	9.70136	-1.30199	0.746878	0.0168951	0.00341856	-0.0024015	-1.21143	0.0654297	-0.263184	0.740474	-0.0485011	-0.646744	-0.17626	9.67542	1.63091	1.5588	-0.0205474	0.0104986	-0.0272363	-0.913086	-0.059082	-0.552002	0.723943	-0.199044	-0.463535	-0.470557	9.5028	1.83964	5.38132	-0.0147433	0.0114279	-0.0122337	-0.877441	-0.13501	-0.682861	0.348908	0.0616057	-0.935021	0.0142902	6.24182	0.0956427	-6.99023	0.00124376	-0.0938515	-0.0222417	-0.873291	-0.213379	0.636475	-0.0210116	0.0412278	-0.991794	-0.119177	-0.397716	2.28691	-8.19029	0.00486199	0.0128142	-0.0190146	-0.372314	-0.181641	1.04468	0.142211	0.771989	0.614595	0.0779836	-0.34259	2.80099	-8.76323	0.011227	-0.0018123	-0.020808	-0.420898	-0.20752	1.0686	-0.0149166	0.0227718	-0.994843	0.0977044	-0.233892	-1.76778	-8.90389	0.00352111	0.00798163	0.00498214	-0.41748	0.177734	1.08398	0.0294999	0.0370964	0.995677	0.0798803	-0.409187	1.54348	-9.59343	-0.00937464	0.00617125	-0.00259272	-0.436035	-0.153564	1.16895	
24	-0.994386	-0.0157687	-0.0928462	-0.0482377	-1.97985	0.360805	10.7944	-0.00599194	0.0452064	0.0213427	0.628662	-0.0820312	-0.880859	0.489679	0.0538333	-0.870042	0.0185329	8.32292	0.161929	-5.14053	0.000436062	0.0372361	-0.0266798	-0.948975	-0.215576	0.309814	0.669992	0.290573	-0.582602	0.356727	9.83631	-0.212178	1.4551	0.0563603	0.0137396	-0.0183583	-1.12695	-0.277344	-0.311523	0.666551	0.200401	-0.650194	0.304626	9.78192	-1.25524	0.72963	0.0125691	0.0100389	-0.00754857	-1.21143	0.0610352	-0.256348	0.740619	-0.0483824	-0.646619	-0.176141	9.65187	1.64561	1.59716	0.0209113	0.0190926	-0.0175264	-0.908936	-0.059082	-0.549561	0.723942	-0.198682	-0.463649	-0.470598	9.52733	1.91236	5.44707	0.0141764	0.0203586	-0.021147	-0.871094	-0.130615	-0.687256	0.34764	0.0616565	-0.935493	0.0140437	6.16581	0.176349	-6.86378	0.00722161	-0.0992509	-0.0231864	-0.875488	-0.211182	0.64502	-0.0210326	0.0412464	-0.991803	-0.119094	-0.403443	2.28777	-8.14801	0.0109603	0.0144887	-0.0174478	-0.372314	-0.183838	1.04468	0.142035	0.771839	0.614846	0.0778159	-0.351473	2.8046	-8.75457	0.0130674	0.00230899	-0.0178722	-0.41626	-0.20752	1.0686	-0.0149996	0.0227448	-0.994845	0.0976765	-0.241222	-1.78062	-8.89123	0.00312747	0.00810024	0.00415437	-0.415039	0.175537	1.08398	0.029524	0.0371465	0.99567	0.079935	-0.391299	1.55992	-9.59422	0.00221208	0.00550423	-0.00423683	-0.44043	-0.153564	1.16895	
25	-0.994245	-0.0163991	-0.0939682	-0.0487684	-2.14527	0.546322	10.7596	0.0325851	0.0346626	0.0278012	0.635254	-0.0820312	-0.876465	0.490009	0.0539333	-0.869843	0.0188414	8.30025	0.283047	-5.01651	-0.00868156	0.0289423	-0.0128716	-0.946777	-0.217773	0.314453	0.670306	0.290897	-0.582028	0.356809	9.68003	-0.376851	1.5453	0.0284652	0.0222876	-0.019222	-1.12036	-0.286133	-0.304443	0.666657	0.200554	-0.649956	0.3048	9.67556	-1.27118	0.718991	0.00954965	0.0135705	-0.00155496	-1.21143	0.0654297	-0.265381	0.740789	-0.0488173	-0.646349	-0.176299	9.65011	1.64788	1.53488	-0.0230631	0.0180022	-0.000526526	-0.91333	-0.0568848	-0.549561	0.723847	-0.198623	-0.463486	-0.470931	9.51404	1.83661	5.43695	-0.00447064	0.0211843	-0.0256083	-0.873291	-0.128418	-0.682861	0.345132	0.0617421	-0.936428	0.0132501	6.1372	0.0578186	-6.9321	0.012133	-0.0968026	-0.0265901	-0.879883	-0.213379	0.64502	-0.0210161	0.041238	-0.991817	-0.118979	-0.397083	2.27638	-8.17269	0.00944772	0.0150475	-0.0170725	-0.378906	-0.183838	1.04004	0.142048	0.771812	0.614879	0.077795	-0.351482	2.81156	-8.75642	0.00710037	0.00248906	-0.018682	-0.418701	-0.20752	1.06641	-0.0149911	0.0227335	-0.994844	0.0976962	-0.233053	-1.77932	-8.88393	0.00649193	0.0110759	0.00423026	-0.415039	0.175537	1.08862	0.0295328	0.037127	0.995679	0.0798329	-0.423918	1.56795	-9.5989	0.0102641	0.00453145	-0.00726016	-0.434082	-0.146973	1.16895	
26	-0.994174	-0.0159382	-0.0948936	-0.0485707	-2.19932	0.457238	10.7724	-0.0231914	0.0335905	-0.0235593	0.631104	-0.0864258	-0.876465	0.49062	0.0537238	-0.869508	0.0190412	8.31412	0.16008	-5.13035	-0.0221558	0.0464589	-0.000654933	-0.946777	-0.215576	0.304932	0.670482	0.291089	-0.58155	0.3571	9.72774	-0.442048	1.61869	0.0399008	0.0268157	-0.0100813	-1.12256	-0.286133	-0.304443	0.666727	0.200614	-0.649861	0.30481	9.74488	-1.28801	0.766124	0.00903362	0.0118345	-0.00621275	-1.20923	0.0632324	-0.258789	0.741034	-0.048898	-0.646016	-0.176467	9.74415	1.33648	1.59025	-0.0156862	0.0227073	-0.0118249	-0.908936	-0.059082	-0.554199	0.724074	-0.198903	-0.462915	-0.471025	9.53693	1.76376	5.46798	-0.0178544	0.0306787	-0.00314675	-0.868896	-0.132812	-0.685059	0.342869	0.0617861	-0.937261	0.0128625	6.1833	0.168503	-6.9721	0.0143843	-0.0856167	-0.0222757	-0.871094	-0.215576	0.647217	-0.0208303	0.0414829	-0.991831	-0.118815	-0.407359	2.27874	-8.18056	0.00969066	0.015956	-0.0174466	-0.376709	-0.179443	1.04468	0.142077	0.771631	0.615077	0.0779764	-0.351009	2.81	-8.75694	0.000945167	0.0062148	-0.0151847	-0.418945	-0.200684	1.0686	-0.014911	0.0226703	-0.994844	0.0977171	-0.222846	-1.76331	-8.89353	0.00232117	0.0105905	0.00449355	-0.415283	0.177734	1.08154	0.0295814	0.0370644	0.995682	0.079798	-0.403773	1.54541	-9.61032	0.0013783	0.00138841	-0.00546968	-0.440674	-0.146973	1.1665	
27	-0.994098	-0.0155892	-0.0958507	-0.0483574	-2.21398	0.492663	10.9154	-0.0119932	0.0337362	0.00144733	0.637451	-0.0820312	-0.878662	0.490601	0.0536119	-0.869519	0.0193228	8.51442	0.12812	-4.99326	0.00443362	0.0200687	-0.0135591	-0.948975	-0.213379	0.307373	0.670349	0.29125	-0.58147	0.357349	9.75423	-0.150078	1.61701	0.0235968	0.00427201	0.00460168	-1.12036	-0.28833	-0.311279	0.666972	0.200523	-0.649683	0.304713	9.81827	-1.29874	0.774527	-0.00507182	0.00484756	0.00377905	-1.20923	0.0654297	-0.258789	0.741323	-0.0495579	-0.645613	-0.176543	9.70651	1.71646	1.57216	-0.00986703	0.0233184	-0.0033197	-0.906982	-0.0524902	-0.552002	0.724129	-0.198796	-0.462653	-0.471243	9.60511	2.03737	5.45668	0.0311624	0.0280116	-0.0115539	-0.868896	-0.132812	-0.682861	0.340318	0.0617946	-0.938199	0.0121619	6.2015	0.132081	-7.07831	-0.00590943	-0.0855946	-0.023502	-0.866699	-0.215576	0.653564	-0.0208302	0.0414807	-0.991836	-0.118771	-0.396743	2.27195	-8.16762	0.0102136	0.01477	-0.0167506	-0.370117	-0.181641	1.04468	0.142249	0.771504	0.615186	0.0780601	-0.339515	2.81365	-8.74614	-0.00227356	-0.000562025	-0.0176745	-0.418701	-0.205078	1.0708	-0.0149417	0.0226605	-0.994852	0.0976373	-0.229481	-1.78516	-8.89063	0.00273228	0.00822106	0.00332511	-0.408447	0.177734	1.08398	0.029646	0.0370956	0.995657	0.0800783	-0.357136	1.52754	-9.57298	-0.0136097	0.00711262	-0.00565041	-0.436279	-0.14917	1.16431	
28	-0.994027	-0.0155451	-0.0964086	-0.0487198	-2.24383	0.570295	10.7951	-0.00166061	0.0130849	0.022457	0.63501	-0.079834	-0.876465	0.491142	0.0534541	-0.869215	0.0196721	8.32142	0.20768	-5.00597	0.00318086	0.0352945	-0.00999606	-0.953369	-0.215576	0.307373	0.670776	0.291901	-0.580646	0.357357	9.73601	-0.261619	1.52261	0.0558365	0.00764121	-0.0247952	-1.12476	-0.281738	-0.313721	0.667007	0.200795	-0.649538	0.304769	9.68672	-1.27199	0.733289	0.0158988	0.00814487	-0.0134826	-1.20459	0.0610352	-0.25415	0.741396	-0.0496866	-0.645458	-0.176769	9.86735	0.949093	1.69244	-0.0509011	0.0139557	0.00490534	-0.911133	-0.0546875	-0.556641	0.724274	-0.198806	-0.462423	-0.47124	9.57251	1.53847	5.49934	0.0129405	0.0167127	-0.0319668	-0.873047	-0.132812	-0.689209	0.336731	0.0618117	-0.9395	0.0114756	6.00737	0.207031	-6.87424	-0.00446624	-0.129951	-0.0196316	-0.864746	-0.211182	0.659912	-0.0208562	0.0417534	-0.99182	-0.118803	-0.394263	2.27819	-8.15906	0.00166026	0.0110562	-0.0193669	-0.376709	-0.183838	1.04224	0.142612	0.771316	0.615319	0.0782035	-0.362966	2.8352	-8.75549	-0.00884693	0.00252844	-0.0173814	-0.420898	-0.20752	1.07324	-0.0149657	0.0226484	-0.994857	0.0975882	-0.220923	-1.79644	-8.87962	0.000827727	0.00889435	0.00412568	-0.410645	0.175537	1.08618	0.0294442	0.0371168	0.995634	0.0804291	-0.458196	1.56855	-9.58977	-0.00904812	0.0107644	-0.0034974	-0.438232	-0.151367	1.16895	
29	-0.993955	-0.0149645	-0.0969691	-0.0492633	-2.18252	0.353624	10.7068	-0.014113	0.0289824	0.0148877	0.639404	-0.0776367	-0.876465	0.49123	0.0535029	-0.869164	0.0196414	8.31642	0.0776563	-4.95981	-0.00877583	0.0207859	-0.0246396	-0.946777	-0.217773	0.312256	0.670812	0.292067	-0.580461	0.357453	9.6998	-0.0476529	1.61761	0.0173036	0.0132477	-0.0115992	-1.12036	-0.28833	-0.309082	0.667125	0.200943	-0.649391	0.304725	9.73508	-1.3594	0.739878	0.013977	0.0131875	-0.00962813	-1.20703	0.0654297	-0.260986	0.741512	-0.0496747	-0.645395	-0.176517	9.59133	1.57466	1.65171	0.0118392	0.0154784	0.00123963	-0.906738	-0.0546875	-0.549561	0.724009	-0.198667	-0.462656	-0.471478	9.49726	1.7913	5.45165	0.0186629	0.0107948	-0.0187206	-0.875244	-0.132812	-0.685059	0.333353	0.0615951	-0.940737	0.00976389	5.93863	0.178655	-7.05326	-0.0640953	-0.148073	-0.0347448	-0.862305	-0.217773	0.670654	-0.0208406	0.041741	-0.991816	-0.118842	-0.403106	2.27528	-8.168	0.00400464	0.0155695	-0.0158493	-0.378906	-0.181641	1.0376	0.142608	0.771231	0.615392	0.0784749	-0.352514	2.80981	-8.74678	0.0049845	0.0119237	-0.0120946	-0.418701	-0.202881	1.0686	-0.0148777	0.0225451	-0.994871	0.0974784	-0.239891	-1.78252	-8.90272	0.00200155	0.0071133	0.00412631	-0.412842	0.177734	1.08398	0.0295865	0.0370839	0.995637	0.08035	-0.403024	1.55609	-9.57356	0.00188149	-0.00155306	-0.00867208	-0.438232	-0.153564	1.17578	
30	-0.993905	-0.0148876	-0.0973088	-0.0496259	-2.25425	0.507218	10.8292	-0.00629089	0.0239479	0.0290246	0.635254	-0.0820312	-0.874268	0.49118	0.0538423	-0.869165	0.0199149	8.38596	0.300974	-4.97598	0.00223139	0.0127902	-0.0215033	-0.94458	-0.215576	0.309814	0.670918	0.292443	-0.580158	0.357438	9.76466	-0.43105	1.66689	0.04367	0.00790647	-0.0159096	-1.12476	-0.28833	-0.306641	0.66724	0.20123	-0.64922	0.304649	9.73632	-1.15712	0.788352	0.0105311	0.009905	-0.00607453	-1.20923	0.0632324	-0.263184	0.741462	-0.0488857	-0.645577	-0.176281	9.73392	1.3617	1.50418	0.0163569	0.00783399	-0.0158932	-0.91333	-0.0546875	-0.561035	0.723914	-0.198366	-0.462825	-0.471584	9.51361	1.86446	5.49659	0.0199481	0.0138948	-0.0371211	-0.873291	-0.128418	-0.689453	0.329844	0.0609451	-0.94204	0.00696589	5.91642	0.226202	-7.12589	-0.0854971	-0.147369	-0.0240748	-0.851074	-0.226318	0.670898	-0.0208261	0.0417061	-0.991828	-0.118758	-0.398703	2.27139	-8.16929	0.00972752	0.0154421	-0.0154415	-0.370117	-0.181641	1.04688	0.142623	0.771203	0.615407	0.0785999	-0.335208	2.83076	-8.72867	-0.000866251	0.00969442	-0.0120893	-0.420898	-0.20752	1.0686	-0.014895	0.0225222	-0.994873	0.0974583	-0.222024	-1.76946	-8.90789	0.00311271	0.00923246	0.00514936	-0.417236	0.175537	1.08398	0.0296588	0.037078	0.995639	0.0802976	-0.367238	1.56701	-9.58648	0.00585343	-0.000104559	-0.00637136	-0.431641	-0.151367	1.16431	
31	-0.993847	-0.0146413	-0.0975779	-0.0503173	-2.19236	0.413187	10.8478	-0.0118171	0.00564237	0.024631	0.637207	-0.079834	-0.87207	0.491532	0.0536515	-0.868982	0.0197238	8.39888	0.209353	-5.05195	-0.0184256	0.0363015	-0.0158585	-0.948975	-0.215576	0.307373	0.670811	0.292811	-0.580002	0.357593	9.74103	0.140831	1.61819	0.0319114	0.00138605	-0.012788	-1.12036	-0.28833	-0.311279	0.66719	0.201039	-0.649386	0.30453	9.73603	-1.24471	0.780058	-0.015735	-0.00382267	0.00699276	-1.20654	0.0544434	-0.258545	0.741521	-0.0490281	-0.645446	-0.176475	9.62986	1.63309	1.62006	-0.0216012	-0.0016718	-0.0254747	-0.910889	-0.0612793	-0.554199	0.723817	-0.198326	-0.462805	-0.471771	9.53438	1.9029	5.41723	-0.00668915	0.0216769	-0.00959249	-0.873047	-0.132812	-0.685059	0.328005	0.0605902	-0.942716	0.00533244	5.89085	0.266857	-7.09515	-0.104224	-0.154573	-0.0291592	-0.851074	-0.226318	0.683838	-0.0209333	0.041742	-0.991834	-0.118682	-0.396638	2.27663	-8.16101	0.00898615	0.0103699	-0.0202704	-0.381104	-0.181641	1.04468	0.142634	0.771133	0.615508	0.0784806	-0.339812	2.81082	-8.73687	0.0173428	-0.000778937	-0.0193013	-0.420898	-0.20752	1.0686	-0.0149458	0.0225059	-0.994875	0.0974359	-0.22877	-1.78259	-8.8952	0.0021595	0.00957075	0.0055479	-0.412842	0.175537	1.08618	0.029646	0.0371194	0.995647	0.0801887	-0.423544	1.5408	-9.62541	0.00900902	0.00400238	-0.00345661	-0.436035	-0.151367	1.16895	
32	-0.993818	-0.0147487	-0.0981075	-0.0498407	-2.1259	0.35679	10.7199	0.0198048	0.0221368	-0.0267855	0.639893	-0.088623	-0.874268	0.492021	0.0532764	-0.868729	0.0196741	8.36368	0.0898477	-4.97687	-0.0218899	0.0336111	-0.00978707	-0.948975	-0.217773	0.302734	0.670839	0.293317	-0.579482	0.357967	9.72186	0.151485	1.66157	0.0430602	0.00395305	0.00356391	-1.12036	-0.286133	-0.311279	0.667367	0.20122	-0.649178	0.304466	9.69502	-1.10716	0.812189	-0.00169059	0.0143949	-0.00894203	-1.20898	0.0588379	-0.265137	0.741745	-0.0492854	-0.645197	-0.17637	9.51136	1.88519	1.58615	-0.0370819	0.0150938	0.000964053	-0.915771	-0.050293	-0.552002	0.723735	-0.198481	-0.462616	-0.472016	9.50469	1.92229	5.40818	-0.0357011	0.0133547	-0.0196434	-0.871338	-0.126221	-0.687256	0.324423	0.0599339	-0.944008	0.0024184	5.8828	0.277029	-7.28019	-0.0829944	-0.1441	-0.0239176	-0.842529	-0.226318	0.687988	-0.0209309	0.0417921	-0.991836	-0.118645	-0.397303	2.28176	-8.18171	0.0068391	0.0140709	-0.0171502	-0.374512	-0.181641	1.04004	0.14246	0.77103	0.615688	0.0783922	-0.348697	2.82523	-8.73904	0.000764721	0.00742265	-0.01669	-0.418945	-0.200439	1.06421	-0.0150267	0.0224758	-0.994881	0.0973744	-0.238755	-1.77505	-8.91324	0.00198951	0.00824314	0.00512137	-0.40625	0.175537	1.08398	0.0296701	0.0371461	0.995629	0.0803914	-0.430297	1.52647	-9.61249	-0.00845926	0.0041452	-0.00549847	-0.435791	-0.155762	1.16675	
33	-0.993798	-0.0147436	-0.098754	-0.0489378	-2.3893	0.495528	10.8574	0.000966915	0.0141015	-0.0522522	0.639404	-0.079834	-0.86792	0.492379	0.0527873	-0.868561	0.0194226	8.36994	0.276707	-4.9856	-0.0312187	0.0276361	-0.00927284	-0.947021	-0.213379	0.304932	0.671034	0.293121	-0.579382	0.357925	9.7895	-0.540331	1.58503	0.00833866	0.0173079	-0.00366188	-1.12061	-0.283936	-0.313721	0.66732	0.201075	-0.649237	0.304539	9.71916	-1.32715	0.764843	0.000415529	0.00246691	0.00484674	-1.20679	0.0588379	-0.265137	0.741652	-0.0492685	-0.645252	-0.176566	9.73029	1.40085	1.65957	-0.008922	0.000470181	-0.0293009	-0.91748	-0.059082	-0.561035	0.72393	-0.198309	-0.462599	-0.471806	9.49313	1.62494	5.49913	0.0135597	0.00875014	-0.0213017	-0.87085	-0.13501	-0.689209	0.321643	0.0594228	-0.944995	0.000124117	5.67156	0.352865	-7.19786	-0.0666185	-0.140098	-0.0256591	-0.844238	-0.235107	0.692383	-0.0209496	0.0417856	-0.99183	-0.118693	-0.384317	2.26448	-8.15705	0.00494913	0.0128063	-0.0179546	-0.376709	-0.181641	1.04688	0.142912	0.770881	0.615708	0.0788818	-0.348937	2.83564	-8.74583	-0.0186896	0.00607684	-0.0140709	-0.416504	-0.205078	1.0708	-0.0150389	0.0224681	-0.994893	0.097251	-0.239849	-1.75771	-8.90139	-0.00074088	0.0108005	0.00329076	-0.412842	0.17334	1.08618	0.0298136	0.0371599	0.995618	0.0804641	-0.410738	1.57155	-9.59888	-0.00140639	-0.00200798	-0.00457707	-0.433838	-0.151367	1.16675	
34	-0.993905	-0.0142183	-0.0986005	-0.0472114	-2.3232	0.511473	10.823	-0.0213947	-0.0159935	-0.0639717	0.636963	-0.0734863	-0.874268	0.492716	0.0525073	-0.868394	0.0191393	8.34436	0.10114	-5.02565	-0.0213146	0.0286858	-0.0153515	-0.951172	-0.217773	0.300293	0.671156	0.292713	-0.579495	0.357847	9.83902	-0.27985	1.72499	-0.0472617	0.0167119	-0.00210139	-1.12476	-0.286133	-0.313477	0.667451	0.200741	-0.649294	0.304351	9.76486	-1.33812	0.787014	-0.00990777	0.00660246	0.00761895	-1.21143	0.0654297	-0.260986	0.742085	-0.0492786	-0.644871	-0.176133	9.79577	1.54153	1.7693	0.0459194	0.0165116	-0.0141848	-0.911133	-0.0568848	-0.561035	0.723831	-0.198204	-0.462533	-0.472067	9.54771	2.0313	5.57623	-0.00303704	0.0179811	-0.0068164	-0.868896	-0.132812	-0.689209	0.319995	0.0592571	-0.945564	-0.00104761	5.79338	0.430266	-7.32906	-0.0655683	-0.134771	-0.0324036	-0.837646	-0.237305	0.69043	-0.0209484	0.0417848	-0.991839	-0.118621	-0.401324	2.26958	-8.17924	0.0103513	0.0147842	-0.0176356	-0.376709	-0.179443	1.04468	0.143017	0.77079	0.615793	0.0789224	-0.340091	2.83639	-8.747	0.00858935	0.00158259	-0.0189844	-0.418701	-0.205078	1.06641	-0.015086	0.0224579	-0.9949	0.0971678	-0.229372	-1.76888	-8.89044	0.00330054	0.00831004	0.00357959	-0.412842	0.175537	1.08398	0.0299245	0.0371557	0.995618	0.0804248	-0.396668	1.57505	-9.59131	0.00424102	0.00316596	-0.00514985	-0.431641	-0.146973	1.16211	
35	-0.994046	-0.0136346	-0.0979303	-0.0457902	-2.09629	0.337493	10.7605	-0.0037979	-0.0313258	-0.0469577	0.63916	-0.0710449	-0.878662	0.492772	0.0523647	-0.868373	0.0190025	8.41401	0.174109	-4.9271	-0.0237096	0.0169792	-0.0148356	-0.948975	-0.215576	0.297852	0.670908	0.292806	-0.579643	0.357997	9.87835	0.0870925	1.52812	-0.0103169	-0.0139316	0.0105607	-1.12476	-0.283936	-0.313721	0.667596	0.200636	-0.649269	0.304156	9.79685	-1.21767	0.758024	-0.013017	0.0113218	-0.0074415	-1.21118	0.0588379	-0.260742	0.742467	-0.0516439	-0.644116	-0.176606	9.7013	1.14922	1.5791	-0.128747	0.0186316	0.0587064	-0.911377	-0.050293	-0.556641	0.722852	-0.198212	-0.462957	-0.473147	9.53702	1.84072	5.47271	-0.00932866	-0.0153096	-0.0907566	-0.873047	-0.132812	-0.693604	0.317324	0.0594319	-0.94645	-0.00255128	5.68647	0.31732	-7.31011	0.0107172	-0.045347	-0.0256541	-0.829102	-0.237305	0.701172	-0.0209833	0.041802	-0.991847	-0.118541	-0.403813	2.26712	-8.17352	0.010112	0.0119194	-0.0177782	-0.378906	-0.181641	1.04468	0.142803	0.77072	0.615949	0.0787713	-0.329169	2.82116	-8.73308	0.0212066	0.00395896	-0.0177295	-0.41626	-0.20752	1.07544	-0.0151345	0.0224255	-0.994909	0.0970754	-0.226468	-1.77966	-8.8999	0.000864707	0.00725432	0.00509333	-0.413086	0.182129	1.09302	0.0300595	0.037227	0.995613	0.0804109	-0.383487	1.56757	-9.57521	0.00254372	0.00148876	-0.00226935	-0.427002	-0.151367	1.17114	
36	-0.994042	-0.0135057	-0.0976851	-0.0464237	-2.18723	0.343892	10.6807	-0.00531605	-0.00634692	0.0420817	0.641602	-0.0754395	-0.87207	0.492684	0.0528963	-0.868394	0.018866	8.31517	0.0353863	-5.07359	-0.00599466	0.00236034	-0.0287638	-0.953369	-0.215576	0.309814	0.671102	0.293001	-0.579428	0.35782	9.69784	-0.571108	1.43299	0.0571151	0.00115708	-0.0258991	-1.12061	-0.281738	-0.311523	0.667462	0.200719	-0.649328	0.304268	9.71086	-1.35799	0.679684	0.00962219	0.00553047	-0.000614358	-1.21143	0.0632324	-0.263184	0.742773	-0.0501071	-0.644192	-0.175482	9.50506	1.86981	1.58871	0.0945713	0.013446	-0.0396635	-0.911621	-0.0458984	-0.561035	0.722548	-0.197908	-0.463402	-0.473303	9.46418	2.01525	5.42773	0.000327061	0.0114769	-0.0129354	-0.868896	-0.130615	-0.680664	0.316563	0.0596063	-0.946693	-0.00270607	5.65965	0.371757	-7.41944	0.00805769	-0.00958797	-0.0228106	-0.833252	-0.239258	0.694824	-0.0210066	0.0418251	-0.991854	-0.118469	-0.391803	2.26683	-8.16562	0.0128644	0.012909	-0.0185817	-0.376709	-0.183838	1.04468	0.14275	0.770673	0.616033	0.0786667	-0.346276	2.82396	-8.71824	0.0150087	0.000567776	-0.0205979	-0.420898	-0.209717	1.07104	-0.0151635	0.0224175	-0.99491	0.0970689	-0.240051	-1.77379	-8.87557	0.00387107	0.00839511	0.00383583	-0.415039	0.175537	1.08398	0.030158	0.0372036	0.995625	0.080233	-0.423489	1.57241	-9.61609	0.00910085	0.000132558	-0.00696731	-0.433838	-0.151367	1.16675	
37	-0.994026	-0.0134935	-0.0974157	-0.0473324	-2.1957	0.505414	10.8665	-0.0152794	-0.0248936	0.031341	0.63501	-0.079834	-0.876465	0.492684	0.0528963	-0.868394	0.018866	8.31517	0.0353863	-5.07359	-0.00599466	0.00236034	-0.0287638	-0.953369	-0.215576	0.309814	0.671221	0.292672	-0.579535	0.357693	9.78079	-0.140621	1.58435	-0.0302661	0.0106039	0.00363195	-1.12256	-0.286133	-0.311279	0.667545	0.201029	-0.649198	0.304159	9.67758	-1.22147	0.782606	0.0194694	0.00350327	-0.0074087	-1.20923	0.0632324	-0.267578	0.74262	-0.0506733	-0.644183	-0.175998	9.68598	1.44614	1.64521	-0.0617564	-0.0066941	-0.0191151	-0.90918	-0.050293	-0.556641	0.722619	-0.197347	-0.463648	-0.473188	9.54831	2.00932	5.46625	0.0345082	0.0154677	-0.0229614	-0.87085	-0.137207	-0.687012	0.316557	0.0600112	-0.946671	-0.00202921	5.65304	0.376268	-7.42868	0.0847127	0.039207	-0.0198675	-0.829102	-0.239258	0.696777	-0.0206954	0.0422948	-0.991872	-0.118207	-0.393964	2.25679	-8.16187	0.00880119	0.0148609	-0.0171176	-0.372559	-0.179443	1.04468	0.142799	0.77045	0.616279	0.0788388	-0.327553	2.83258	-8.72754	0.00104293	0.00959743	-0.0144838	-0.418701	-0.205078	1.06641	-0.0150703	0.0223421	-0.994911	0.0970887	-0.242256	-1.7621	-8.89961	0.00309785	0.00893561	0.00366201	-0.415039	0.17334	1.08179	0.0302005	0.037188	0.995628	0.0801814	-0.413974	1.52424	-9.60593	0.00649145	0.00252501	-0.00529684	-0.431641	-0.151367	1.16895	
38	-0.99404	-0.0132487	-0.0972149	-0.0475198	-1.99947	0.312866	10.8497	-0.0211811	-0.0185825	0.0132457	0.639404	-0.0754395	-0.876465	0.492265	0.0536065	-0.868585	0.019013	8.55097	0.0920508	-4.957	0.00802506	-0.0157785	-0.0279363	-0.94873	-0.219971	0.312256	0.671158	0.292984	-0.579334	0.357882	9.84511	-0.1493	1.63633	0.0121036	0.00632713	-0.00592015	-1.12256	-0.28833	-0.304443	0.667564	0.200905	-0.649306	0.303969	9.7766	-1.23082	0.7683	-0.0154224	-0.00046653	-0.00294043	-1.20898	0.0588379	-0.258545	0.742654	-0.0494211	-0.644356	-0.175576	9.73318	1.76783	1.65804	0.0932387	0.0138701	-0.0438414	-0.904785	-0.0524902	-0.556641	0.722777	-0.197152	-0.463676	-0.473	9.55742	1.99835	5.43557	0.02337	0.0222647	-0.00437848	-0.870605	-0.139404	-0.687012	0.316452	0.0600919	-0.946702	-0.00161275	5.8511	0.359882	-7.38853	0.0532007	0.0033869	-0.0121239	-0.829102	-0.237305	0.696777	-0.0207289	0.0422899	-0.991876	-0.118173	-0.396598	2.27582	-8.15767	0.00967063	0.0125834	-0.0174449	-0.376709	-0.181641	1.04688	0.142853	0.770419	0.616304	0.078851	-0.331885	2.81831	-8.74406	0.00240606	0.00136676	-0.0158671	-0.420898	-0.20752	1.0686	-0.0150962	0.0223369	-0.994913	0.0970644	-0.227588	-1.77133	-8.88132	0.00311776	0.00811228	0.00414868	-0.419434	0.175537	1.08618	0.0302005	0.037188	0.995628	0.0801814	-0.413974	1.52424	-9.60593	0.00649145	0.00252501	-0.00529684	-0.431641	-0.151367	1.16895	
39	-0.994003	-0.0129932	-0.0977413	-0.0472822	-2.13698	0.456256	10.8437	-0.0102164	0.0216207	-0.0214418	0.637207	-0.079834	-0.87207	0.492249	0.0540163	-0.868561	0.0193811	8.43716	0.284971	-5.00143	-0.00850642	0.0193607	-0.0228811	-0.951416	-0.211182	0.307129	0.671042	0.293316	-0.579253	0.357959	9.72496	-0.357777	1.69014	0.0514648	-0.000431251	-0.0152434	-1.12476	-0.283936	-0.311279	0.667549	0.201111	-0.6493	0.303878	9.69413	-1.21403	0.765652	0.0185185	0.00399445	-0.00741661	-1.20898	0.0588379	-0.265137	0.742601	-0.0500413	-0.644288	-0.175877	9.78341	1.22744	1.64299	-0.0282072	0.0112388	0.0105479	-0.906738	-0.0568848	-0.556396	0.722624	-0.197236	-0.463644	-0.47323	9.54488	1.89442	5.49231	-0.0159424	0.00245089	-0.0355996	-0.873047	-0.137207	-0.684814	0.31788	0.0610013	-0.946165	0.00175505	5.7954	0.302441	-7.72464	0.202389	0.0598718	-0.00492715	-0.831543	-0.230713	0.692383	-0.0207289	0.0422899	-0.991876	-0.118173	-0.396598	2.27582	-8.15767	0.00967063	0.0125834	-0.0174449	-0.376709	-0.181641	1.04688	0.1428	0.770217	0.616602	0.0785895	-0.347635	2.83409	-8.74549	0.0113064	-0.00322429	-0.0213087	-0.418457	-0.209717	1.06201	-0.0149836	0.0222437	-0.994916	0.0970707	-0.231858	-1.7663	-8.897	0.00261891	0.0098227	0.00509948	-0.417236	0.175537	1.08618	0.0301186	0.0371412	0.995629	0.0802269	-0.421871	1.54714	-9.5997	-0.00603321	0.00928716	-0.0048738	-0.431641	-0.14917	1.1665	
40	-0.994064	-0.0118431	-0.0978848	-0.0459972	-2.26532	0.247124	10.6541	-0.0420104	-0.00424415	-0.0656161	0.636963	-0.0732422	-0.876465	0.492199	0.0545065	-0.868555	0.0195477	8.20174	0.0294321	-4.93994	0.0167003	0.00212067	-0.0325439	-0.94458	-0.215576	0.302734	0.671833	0.293019	-0.578978	0.357161	9.67929	-0.240532	1.631	-0.0703456	0.0294129	-0.0464583	-1.11816	-0.290527	-0.318115	0.66703	0.20139	-0.649514	0.304375	9.66873	-1.23982	0.751943	0.0245007	-0.0160202	0.0242434	-1.20898	0.0610352	-0.269775	0.742774	-0.0496633	-0.644187	-0.175623	9.5828	1.34099	1.54785	0.0179874	0.0197912	-0.0249322	-0.906738	-0.0546875	-0.554199	0.722349	-0.197108	-0.463989	-0.473366	9.45022	1.91683	5.46043	0.0345617	0.00478358	-0.0278332	-0.870605	-0.139404	-0.682617	0.324131	0.0624512	-0.943916	0.00783116	5.61997	0.19899	-6.81356	0.217529	0.33966	-0.00532008	-0.842529	-0.224121	0.681641	-0.020605	0.0428718	-0.991854	-0.118165	-0.396548	2.26442	-8.17532	0.00203345	0.00998106	-0.0205216	-0.376709	-0.179443	1.03979	0.143065	0.770129	0.616607	0.0789198	-0.364419	2.83134	-8.74458	-0.012304	0.00943872	-0.0156573	-0.418701	-0.205078	1.0708	-0.0149518	0.0222594	-0.994928	0.096949	-0.232926	-1.77425	-8.90897	-0.000763198	0.0116337	0.00279361	-0.412842	0.177734	1.08398	0.0300249	0.0370955	0.995609	0.0805295	-0.444592	1.5537	-9.62319	-0.00796655	0.00775169	-0.00747506	-0.438477	-0.14917	1.1665	
41	-0.994085	-0.0118671	-0.098078	-0.0451076	-2.14715	0.501509	10.8873	0.00802017	0.00754822	-0.0134719	0.634766	-0.0732422	-0.880859	0.491919	0.0551161	-0.868664	0.0200084	8.48237	0.356562	-5.03906	0.0092909	0.00790015	-0.0320411	-0.94458	-0.215576	0.304932	0.671883	0.293022	-0.578966	0.357085	9.79369	-0.493321	1.58233	0.0244708	-0.00198669	0.0106042	-1.12061	-0.283936	-0.318115	0.667221	0.201399	-0.649425	0.304141	9.73068	-1.28807	0.763742	-0.00557627	0.0195272	-0.0281056	-1.21338	0.0588379	-0.262939	0.742758	-0.0487057	-0.64447	-0.174917	9.71439	1.88105	1.66233	0.0130118	-0.00340628	-0.0233022	-0.90918	-0.050293	-0.556641	0.722155	-0.197032	-0.464172	-0.473513	9.60935	2.00889	5.45926	-0.00511611	0.00942952	-0.0185579	-0.87085	-0.13501	-0.689209	0.331149	0.0627207	-0.941438	0.0100732	5.97928	0.253212	-7.13147	0.0640301	0.315976	-0.0065725	-0.851562	-0.217773	0.670654	-0.0205096	0.0430837	-0.991861	-0.118046	-0.394238	2.26112	-8.16249	0.0106004	0.013752	-0.0175082	-0.368164	-0.181641	1.0376	0.143063	0.770059	0.616675	0.0790861	-0.335107	2.83353	-8.75841	0.0089456	0.00716275	-0.01607	-0.418457	-0.209717	1.0686	-0.0149733	0.0222446	-0.994928	0.0969497	-0.223587	-1.76997	-8.915	0.0053712	0.00896958	0.00320683	-0.4104	0.17334	1.08862	0.0301463	0.0370729	0.99563	0.0802373	-0.39587	1.60599	-9.54711	0.0187589	-0.00183673	-0.00646941	-0.440674	-0.146973	1.16895	
42	-0.994043	-0.0120076	-0.0982597	-0.0456087	-2.27064	0.38538	10.8122	0.0124352	0.000987879	0.0239634	0.636719	-0.0690918	-0.874512	0.492041	0.0555323	-0.868571	0.0198978	8.39381	0.226052	-5.00988	-0.000430676	0.0231981	-0.0343077	-0.94873	-0.219971	0.307617	0.671744	0.293413	-0.57887	0.357182	9.7665	0.000660564	1.58244	-0.0160175	0.00692889	-0.0127952	-1.12256	-0.28833	-0.308838	0.667237	0.201339	-0.649538	0.303906	9.7475	-1.15778	0.779999	-0.0149484	-0.0019407	0.00672195	-1.21362	0.0610352	-0.260742	0.742696	-0.0491112	-0.644418	-0.175259	9.69081	1.24036	1.59536	-0.00533448	0.0101688	-0.00669985	-0.911133	-0.0568848	-0.556641	0.722074	-0.196714	-0.464562	-0.473387	9.46969	1.72947	5.40951	0.0393286	0.00214363	-0.0305368	-0.870605	-0.139404	-0.687012	0.334846	0.0627358	-0.940122	0.0106748	5.98371	0.39693	-7.05939	0.0466253	0.326118	-0.0114677	-0.862305	-0.219971	0.660156	-0.0205714	0.0431085	-0.991867	-0.117974	-0.392129	2.26638	-8.15426	0.0100362	0.0129797	-0.0177531	-0.378906	-0.179443	1.04004	0.142654	0.770076	0.616777	0.0788621	-0.350898	2.83049	-8.74552	0.0216071	0.00905598	-0.0144789	-0.418701	-0.20752	1.06641	-0.0150623	0.0222438	-0.994923	0.0969882	-0.220543	-1.77261	-8.91455	0.00711501	0.00726911	0.00347017	-0.412842	0.17334	1.08179	0.0301534	0.0370284	0.995677	0.0796717	-0.450688	1.53561	-9.5975	0.0200557	0.00568097	-0.00782365	-0.436035	-0.153564	1.16675	
43	-0.993999	-0.0122123	-0.0984036	-0.0461873	-2.43693	0.333431	10.7573	0.00589005	-0.00218008	0.0245763	0.641113	-0.0688477	-0.876465	0.491745	0.0556586	-0.868736	0.019658	8.29884	0.216899	-4.89006	-0.0217811	-0.0107809	-0.0264516	-0.946777	-0.219971	0.307617	0.671575	0.29332	-0.579104	0.357198	9.79568	-0.270389	1.73117	0.0186737	-0.00564102	0.00167491	-1.12256	-0.290527	-0.315674	0.667155	0.201465	-0.649637	0.303788	9.74998	-1.21917	0.787314	0.023774	-0.00463004	-0.00721897	-1.20703	0.0632324	-0.265381	0.742536	-0.0480829	-0.644805	-0.1748	9.79227	1.48844	1.92455	0.0506281	-0.00979196	-0.0368514	-0.906738	-0.0546875	-0.558838	0.721965	-0.197427	-0.464474	-0.473342	9.54507	1.97184	5.55371	-0.0175607	-0.00210815	0.0103803	-0.868652	-0.13501	-0.682861	0.344021	0.0627026	-0.936795	0.0115191	6.04519	0.198963	-6.79583	0.0252394	0.241518	0.00126866	-0.875244	-0.219971	0.649414	-0.0205768	0.043097	-0.991872	-0.117939	-0.387075	2.26593	-8.16884	0.00808601	0.0141868	-0.0180533	-0.372314	-0.183838	1.04468	0.142627	0.770022	0.616812	0.0791537	-0.338057	2.82638	-8.74842	-0.00460391	0.0122371	-0.0125996	-0.418457	-0.209717	1.06641	-0.0150627	0.0222414	-0.994922	0.096999	-0.243151	-1.77681	-8.89091	0.00267245	0.0110124	0.00333638	-0.415283	0.179932	1.08618	0.0301426	0.0370431	0.995674	0.0797067	-0.411955	1.54465	-9.6108	-0.00146465	0.00638031	-0.00395578	-0.431885	-0.144775	1.1665	
44	-0.994052	-0.0126948	-0.097733	-0.0463358	-2.30998	0.402201	10.767	0.0136251	-0.0386256	0.00721697	0.637207	-0.0776367	-0.874268	0.491042	0.0557833	-0.869135	0.0192582	8.3817	0.158764	-4.96375	-0.0185274	-0.0218965	-0.0315874	-0.946777	-0.217773	0.309814	0.671286	0.293035	-0.579571	0.357216	9.76669	-0.317505	1.70587	-0.0268736	-0.0154016	0.0178676	-1.12256	-0.290527	-0.311279	0.666868	0.2013	-0.650012	0.303725	9.743	-1.22344	0.742833	0.000903813	-0.00833445	0.0137099	-1.20435	0.0566406	-0.25415	0.742177	-0.0489175	-0.645045	-0.175206	9.7505	1.47035	1.34294	0.0184903	-0.0277248	-0.0200292	-0.911133	-0.0568848	-0.554199	0.721473	-0.197743	-0.464998	-0.473446	9.65874	2.10775	5.40903	-0.00643353	-0.00965736	-0.0190575	-0.875244	-0.13501	-0.684814	0.347398	0.0626313	-0.935544	0.0122026	6.17916	0.186715	-7.00568	0.0448665	0.13677	-0.0106484	-0.879883	-0.213379	0.643066	-0.0206486	0.0431126	-0.991862	-0.117999	-0.378727	2.27114	-8.16718	0.00382101	0.012296	-0.0193845	-0.372314	-0.181641	1.04224	0.142663	0.769974	0.616849	0.0792704	-0.329476	2.83195	-8.71456	0.00453171	0.00227842	-0.0167276	-0.418457	-0.209717	1.06641	-0.0150985	0.02225	-0.994928	0.0969314	-0.230244	-1.763	-8.91662	0.00422797	0.00880487	0.00268982	-0.415039	0.177734	1.08618	0.0301546	0.0370313	0.995677	0.0796658	-0.382304	1.54193	-9.58698	0.0055601	0.00637923	-0.00712338	-0.436279	-0.144775	1.16895	
45	-0.994142	-0.0128713	-0.0968904	-0.046124	-2.17783	0.420483	10.8066	0.00323038	-0.0398369	-0.0220166	0.632812	-0.0756836	-0.878662	0.490679	0.0557284	-0.869349	0.0189716	8.40675	0.196971	-4.94891	-0.0292378	-0.0215564	-0.0257803	-0.94873	-0.222168	0.310059	0.671105	0.292995	-0.579742	0.357312	9.76015	-0.368259	1.62648	0.000520656	-0.00974528	0.0130767	-1.12061	-0.283936	-0.311279	0.666565	0.201466	-0.650107	0.304079	9.71257	-1.27601	0.750114	0.0281111	-0.00908051	0.00855245	-1.20703	0.0632324	-0.258789	0.74212	-0.0477779	-0.645337	-0.174685	9.61094	1.80153	1.819	0.0968876	0.00060071	-0.0445897	-0.908936	-0.0568848	-0.554199	0.720992	-0.198986	-0.46476	-0.473892	9.50031	1.85521	5.47509	-0.0514041	-0.0151957	-0.00380902	-0.875244	-0.13501	-0.684814	0.349453	0.0624333	-0.934785	0.0126676	6.1769	0.154136	-6.91857	0.0326826	0.0830022	-0.00571947	-0.881836	-0.215576	0.638672	-0.0207123	0.0431369	-0.991856	-0.118036	-0.403683	2.25759	-8.18751	0.00421196	0.0102004	-0.0202418	-0.376709	-0.179443	1.04224	0.142636	0.769892	0.616985	0.079067	-0.33934	2.83401	-8.75514	0.0126051	5.23643e-06	-0.0169592	-0.418701	-0.202881	1.06421	-0.0151621	0.0222288	-0.994923	0.0969729	-0.23102	-1.77434	-8.89666	0.00652873	0.00831797	0.00420721	-0.417236	0.175537	1.08398	0.0299202	0.0370202	0.995696	0.0795189	-0.410888	1.54176	-9.59996	0.00807883	0.0146386	-0.00344834	-0.436279	-0.144775	1.16431	
46	-0.994219	-0.0126656	-0.0964517	-0.0454434	-2.00099	0.328683	10.7545	-0.00542555	-0.0095233	-0.0191463	0.630371	-0.0712891	-0.878662	0.489712	0.0557758	-0.869903	0.0184516	8.41238	0.162709	-5.07878	-0.0149437	-0.033768	-0.0375812	-0.946533	-0.222168	0.316895	0.670717	0.292506	-0.580471	0.357257	9.86471	-0.156791	1.63096	-0.034922	-0.0111846	0.0209018	-1.12476	-0.290527	-0.311279	0.666229	0.201323	-0.650364	0.304359	9.69489	-1.34754	0.628153	0.0128452	0.00099198	0.0135904	-1.20923	0.0632324	-0.254395	0.741647	-0.0492003	-0.645495	-0.175716	9.73857	1.13528	1.51505	-0.0134494	-0.00992094	-0.00289565	-0.911133	-0.0568848	-0.556641	0.720541	-0.199192	-0.465122	-0.474137	9.59899	1.96815	5.41675	-0.0126905	-0.0280136	-0.0430386	-0.877441	-0.13501	-0.682861	0.351008	0.0623601	-0.934202	0.0130844	6.27288	0.166341	-6.94496	0.0194718	0.0779275	-0.0114916	-0.879883	-0.211182	0.636475	-0.0208005	0.0432041	-0.991838	-0.118148	-0.391191	2.25858	-8.17925	0.00463819	0.0120235	-0.0200236	-0.370361	-0.181641	1.04224	0.142492	0.7699	0.617022	0.0789569	-0.337641	2.82234	-8.73864	0.0208717	0.00349731	-0.0151252	-0.423096	-0.209717	1.06421	-0.015177	0.0222065	-0.994927	0.0969415	-0.224787	-1.7797	-8.9122	0.00234563	0.00896672	0.0054508	-0.415283	0.177734	1.08398	0.0298571	0.0370789	0.995691	0.0795842	-0.423634	1.52323	-9.64704	-0.00359805	0.0103356	-0.000158997	-0.431396	-0.153564	1.16675	
47	-0.994219	-0.0126656	-0.0964517	-0.0454434	-2.00099	0.328683	10.7545	-0.00542555	-0.0095233	-0.0191463	0.630371	-0.0712891	-0.878662	0.488743	0.0562225	-0.870424	0.0182078	8.34481	0.228584	-5.00946	-0.0154957	-0.0357484	-0.0331944	-0.946533	-0.222168	0.314697	0.670267	0.292503	-0.580864	0.357465	9.79459	-0.385891	1.67981	0.0254956	-0.0134977	0.0143344	-1.12695	-0.283936	-0.315918	0.66624	0.20139	-0.650318	0.30439	9.71908	-1.20751	0.799252	0.0094045	0.00747851	-0.00329586	-1.21606	0.0651855	-0.258789	0.741199	-0.0485673	-0.646102	-0.175548	9.81868	1.55009	1.5288	-0.0448848	-0.0197838	-0.0192997	-0.908936	-0.059082	-0.554199	0.720194	-0.199692	-0.465461	-0.47412	9.60765	1.90509	5.42003	-0.00467205	-0.00240926	-0.0152296	-0.871094	-0.130615	-0.680664	0.351617	0.0622954	-0.933976	0.0131393	6.21004	0.156035	-6.87944	0.0170322	0.0623457	-0.0119702	-0.888428	-0.215576	0.634521	-0.0209022	0.0432776	-0.991803	-0.118391	-0.40816	2.26446	-8.15808	-0.00254193	0.0101728	-0.0206138	-0.378906	-0.179443	1.04468	0.142331	0.769892	0.617105	0.0786808	-0.341299	2.81655	-8.75053	0.00986239	-0.000556573	-0.0155238	-0.421143	-0.205078	1.0686	-0.0152211	0.0221993	-0.994923	0.0969723	-0.23768	-1.77186	-8.90111	0.00783147	0.00951184	0.00366345	-0.424072	0.17749	1.08154	0.029623	0.0370153	0.995677	0.0798711	-0.374326	1.54161	-9.59963	-0.00945725	0.018627	-0.00612061	-0.436035	-0.153564	1.16675	
48	-0.994199	-0.0133447	-0.0960082	-0.0466139	-2.20512	0.445984	10.7479	0.00423936	-0.0245185	0.0459239	0.634766	-0.0756836	-0.874268	0.488338	0.0567093	-0.87062	0.0182035	8.22729	0.228689	-5.02115	-0.00364867	-0.000190168	-0.0299652	-0.94873	-0.222168	0.314697	0.670276	0.291938	-0.581313	0.35718	9.76163	-0.515728	1.60417	-0.0478015	0.00833477	0.00944307	-1.12476	-0.286133	-0.313477	0.666183	0.201174	-0.650418	0.304443	9.68331	-1.30952	0.714726	0.000294992	0.0116231	0.00647368	-1.20679	0.0588379	-0.258545	0.741027	-0.0488296	-0.64626	-0.175621	9.75965	1.35657	1.49459	0.024448	0.00543892	-0.00838051	-0.911133	-0.0546875	-0.552002	0.719916	-0.199594	-0.465922	-0.474132	9.59549	1.87701	5.42085	0.0347601	-0.0019139	-0.0290315	-0.879395	-0.13501	-0.680664	0.352643	0.0623103	-0.933583	0.0135443	6.22309	0.0886229	-6.78479	0.0499579	0.0516621	-0.0123115	-0.88623	-0.215576	0.630127	-0.0210101	0.0434036	-0.991738	-0.118868	-0.407517	2.26459	-8.14386	-0.0117183	0.00808329	-0.0230391	-0.374512	-0.183838	1.04224	0.142497	0.769826	0.617133	0.0788033	-0.334307	2.81823	-8.7615	-0.00832577	0.00253143	-0.0138711	-0.425537	-0.20752	1.0686	-0.015241	0.0222045	-0.994916	0.0970383	-0.22371	-1.76393	-8.91292	0.00764817	0.00931318	0.00423328	-0.413086	0.179932	1.08398	0.0293623	0.0369865	0.995703	0.0796536	-0.427882	1.54436	-9.63669	0.0161967	0.00959356	-0.0064494	-0.429199	-0.153564	1.16895	
49	-0.994249	-0.013417	-0.0954	-0.0467708	-2.0088	0.241407	10.9244	0.00491073	-0.0244762	-0.00262907	0.636963	-0.0732422	-0.878662	0.487896	0.0569395	-0.870849	0.0183895	8.45731	0.218114	-5.11619	-0.00661319	0.0109936	-0.0171486	-0.946289	-0.226562	0.3125	0.670014	0.29214	-0.581389	0.357382	9.82843	0.0583246	1.58631	-0.00840752	-0.0064337	0.00943865	-1.12256	-0.286133	-0.304443	0.666297	0.201079	-0.650355	0.304392	9.76385	-1.19434	0.758337	-0.00565443	0.00909721	-0.00377335	-1.20898	0.0610352	-0.258545	0.740828	-0.0480475	-0.64666	-0.175202	9.96724	1.3489	1.73472	0.0319292	-0.00420568	-0.0258736	-0.911377	-0.0524902	-0.549561	0.720083	-0.199765	-0.465831	-0.473895	9.6749	1.84106	5.51831	-0.00119151	0.0108175	0.00331675	-0.879639	-0.132812	-0.680664	0.353534	0.0619868	-0.933269	0.0134501	6.43686	0.143571	-6.79226	-0.00388933	0.0422858	-0.00978853	-0.884033	-0.217773	0.625977	-0.0210715	0.0434759	-0.991678	-0.119336	-0.405878	2.27216	-8.15605	-0.0304605	0.00886672	-0.0230353	-0.378662	-0.183838	1.04712	0.14262	0.769777	0.617143	0.078979	-0.3478	2.83187	-8.73225	-0.00961482	0.0066662	-0.0120281	-0.418701	-0.20752	1.0686	-0.0152311	0.0222127	-0.994909	0.0971094	-0.227207	-1.78148	-8.91592	0.0100685	0.0111916	0.00223458	-0.41748	0.177734	1.08154	0.0292464	0.0369365	0.995731	0.0793725	-0.362822	1.5215	-9.593	0.0123931	0.00736061	-0.00510384	-0.436035	-0.151367	1.15991	
50	-0.994274	-0.0136438	-0.0951736	-0.046642	-2.05109	0.417352	10.8502	0.0192737	-0.0234141	-0.00752595	0.630615	-0.0778809	-0.880859	0.487855	0.0570001	-0.870866	0.0184495	8.26213	0.18076	-5.05073	-0.00407374	0.00491004	-0.0195311	-0.944336	-0.226318	0.317139	0.670252	0.29192	-0.581389	0.357115	9.63486	-0.341389	1.40709	-0.00444364	0.00928414	-0.0173457	-1.12476	-0.283936	-0.315918	0.666035	0.200738	-0.650627	0.304607	9.66093	-1.28361	0.651485	0.00806787	-0.00120225	0.0222524	-1.21362	0.0654297	-0.260986	0.740875	-0.0486648	-0.646653	-0.174859	9.67166	1.55963	1.47259	0.0158413	0.00370745	0.00333697	-0.911133	-0.059082	-0.549561	0.720001	-0.199586	-0.465955	-0.473971	9.54326	1.99777	5.37794	0.0194168	0.0173517	-0.013204	-0.877441	-0.132812	-0.676514	0.354095	0.0620522	-0.933044	0.0140001	6.23904	0.160624	-6.89707	0.0371578	0.0313644	-0.0111027	-0.886475	-0.211182	0.632324	-0.0207894	0.0443352	-0.99147	-0.120789	-0.40612	2.30229	-8.17207	-0.0375602	0.013139	-0.0265845	-0.376709	-0.183838	1.04468	0.143175	0.769622	0.617186	0.0791468	-0.3429	2.84286	-8.74012	0.00342564	-0.00517172	-0.0146355	-0.418701	-0.205078	1.0686	-0.0151665	0.0221375	-0.994889	0.0973447	-0.236886	-1.7811	-8.89068	0.0105102	0.00860681	0.00452708	-0.412842	0.175537	1.08618	0.0290754	0.0370542	0.995727	0.0794285	-0.421545	1.5089	-9.60513	-0.00677968	0.0129875	0.00285534	-0.440674	-0.146973	1.1665	
51	-0.994273	-0.01463	-0.0949387	-0.0468343	-2.18653	0.627157	10.7913	0.0216854	-0.00838693	0.0198297	0.630615	-0.0778809	-0.874268	0.487691	0.0571656	-0.870947	0.0184741	8.26435	0.192289	-5.04321	3.55656e-05	-0.00160206	-0.0288467	-0.94458	-0.219971	0.319336	0.670209	0.291762	-0.58149	0.357161	9.76835	-0.61125	1.53209	-0.00779622	0.00186117	0.0102836	-1.12695	-0.285889	-0.318115	0.666199	0.200779	-0.650399	0.30471	9.75808	-1.1922	0.805174	0.0183439	0.0133238	-0.0025632	-1.21143	0.0632324	-0.265381	0.740749	-0.0481851	-0.646921	-0.174536	9.55908	1.56418	1.74277	0.0468223	-0.0100488	-0.0231243	-0.91333	-0.0568848	-0.554199	0.720041	-0.199417	-0.466224	-0.473718	9.60092	1.84345	5.39299	0.0332555	0.00150761	-0.0212972	-0.877197	-0.139404	-0.682617	0.354206	0.0618955	-0.933013	0.0139252	6.24308	0.141889	-6.87299	0.0140195	0.00137276	-0.013849	-0.888184	-0.219971	0.630371	-0.0208125	0.044449	-0.991385	-0.121437	-0.41689	2.32966	-8.15644	-0.013029	0.0129627	-0.0190121	-0.376709	-0.183838	1.04224	0.143739	0.769536	0.617117	0.0794969	-0.35239	2.85361	-8.72409	-0.0306709	-0.000167073	-0.0108572	-0.41626	-0.209717	1.06641	-0.0151855	0.0221199	-0.994886	0.097374	-0.216742	-1.77076	-8.89529	0.00630358	0.0097742	0.00379516	-0.413086	0.182129	1.08838	0.0289937	0.0371295	0.995724	0.0794684	-0.399644	1.59356	-9.59817	0.00116375	0.00398425	-0.00562773	-0.436279	-0.14917	1.17114	
52	-0.994289	-0.0143377	-0.0946992	-0.04707	-2.00506	0.396641	10.8301	-0.0145196	-0.0124285	0.00843402	0.632812	-0.079834	-0.878662	0.487442	0.0573787	-0.871069	0.0185966	8.35293	0.139336	-5.05323	0.000435919	0.000873645	-0.0258345	-0.94873	-0.224365	0.317139	0.670223	0.291601	-0.581476	0.357289	9.69803	-0.0447768	1.61681	-0.0349824	0.0156773	0.00291202	-1.12476	-0.286133	-0.311279	0.666227	0.200408	-0.650412	0.304864	9.7188	-1.29185	0.747456	-0.00412846	0.00824763	0.0134852	-1.20923	0.0632324	-0.258789	0.740673	-0.0484087	-0.646962	-0.174643	9.49836	1.658	1.40444	0.00517077	0.00265455	-0.0203918	-0.91333	-0.0546875	-0.549561	0.720262	-0.199612	-0.465972	-0.473549	9.5775	1.97423	5.43868	0.00290292	0.0217099	0.0140561	-0.879639	-0.130615	-0.678711	0.353496	0.0618238	-0.933291	0.0136631	6.30304	0.101321	-6.94102	0.0132639	-0.0401198	-0.0167635	-0.884033	-0.215576	0.630127	-0.0208554	0.0444476	-0.991364	-0.121598	-0.415533	2.31811	-8.1524	-0.00630915	0.0105304	-0.0172157	-0.378906	-0.183838	1.04224	0.143426	0.769543	0.61723	0.0791148	-0.35873	2.84816	-8.74688	0.0356761	-0.000696151	-0.0207369	-0.420898	-0.209717	1.07324	-0.0151812	0.0221239	-0.99488	0.0974361	-0.23655	-1.77834	-8.88757	0.00931351	0.010912	0.00254346	-0.415283	0.182129	1.09058	0.0289047	0.0371725	0.995742	0.079249	-0.354531	1.53487	-9.58341	0.0147585	0.0100439	-0.00158181	-0.433838	-0.14917	1.16895	
53	-0.994272	-0.0143888	-0.0948188	-0.0471826	-1.8722	0.335343	10.7713	0.00430173	0.00557443	0.00959959	0.633057	-0.0842285	-0.876465	0.487538	0.0573027	-0.871014	0.0189237	8.41409	0.191174	-5.03977	-0.00287327	0.0318515	-0.00595542	-0.946289	-0.226318	0.31958	0.670111	0.29192	-0.58117	0.357736	9.72594	-0.267696	1.49063	0.0711312	0.00263137	-0.000448891	-1.12256	-0.283936	-0.309082	0.666212	0.20042	-0.650416	0.304881	9.68962	-1.22275	0.740669	0.00547805	0.00399348	0.000591139	-1.20947	0.067627	-0.256592	0.740615	-0.0480735	-0.647078	-0.174554	9.87657	1.33332	1.62159	-0.0392251	0.00996955	0.0031165	-0.911133	-0.0568848	-0.552002	0.720109	-0.199663	-0.466008	-0.473724	9.58306	1.73935	5.4441	-0.00745053	0.00731182	-0.0281133	-0.881348	-0.139404	-0.678467	0.351438	0.0617847	-0.934075	0.0133117	6.24508	0.119874	-6.85447	0.00411173	-0.091855	-0.0183028	-0.88623	-0.215576	0.634521	-0.0209213	0.0445046	-0.99133	-0.121845	-0.397905	2.33372	-8.15384	-0.0132241	0.00865989	-0.0216536	-0.372314	-0.186035	1.04004	0.143321	0.769529	0.617309	0.0788268	-0.339357	2.8442	-8.74	0.0279029	-0.00935933	-0.0192422	-0.411865	-0.205078	1.0708	-0.0152547	0.0221129	-0.994863	0.0975963	-0.223191	-1.79512	-8.90466	0.0112412	0.00971948	0.00372318	-0.410889	0.179932	1.08838	0.0287929	0.037207	0.995741	0.0792921	-0.380174	1.52286	-9.62322	-0.00124084	0.0148459	-0.00138277	-0.436035	-0.151367	1.16895	
54	-0.994031	-0.0144529	-0.0970535	-0.047697	-2.17201	0.381996	10.8111	-0.00817797	0.0656092	0.00913085	0.632812	-0.0778809	-0.874268	0.488119	0.0573243	-0.870676	0.0193893	8.33829	0.184962	-5.11112	0.00792514	0.0505185	-0.0136819	-0.94873	-0.224365	0.314697	0.670359	0.292023	-0.580682	0.35798	9.65851	-0.761187	1.59827	0.027676	0.0214044	-0.0177333	-1.12476	-0.286133	-0.306641	0.666268	0.200491	-0.650164	0.305249	9.72304	-1.26154	0.747071	0.0150144	0.0203195	-0.00838939	-1.20923	0.0654297	-0.258789	0.740641	-0.0475812	-0.647081	-0.174564	9.80184	1.52094	1.54801	0.0645329	0.0126914	-0.0523774	-0.910889	-0.0634766	-0.549561	0.720327	-0.199585	-0.466058	-0.473377	9.5744	1.95601	5.41832	0.0136134	0.0186285	0.0166327	-0.875244	-0.132812	-0.678467	0.349526	0.0616913	-0.934805	0.0128317	6.14927	0.12784	-6.80634	0.000150286	-0.0633456	-0.0191393	-0.88623	-0.213379	0.636475	-0.0209519	0.0448923	-0.991266	-0.122219	-0.407589	2.34519	-8.15186	-0.00181028	0.0110097	-0.0212094	-0.376221	-0.19043	1.04468	0.143136	0.769501	0.617465	0.0782141	-0.345618	2.82788	-8.73487	0.0269414	-0.00845486	-0.0211918	-0.418701	-0.20752	1.06641	-0.0152823	0.0220976	-0.994863	0.0976002	-0.227448	-1.776	-8.90597	0.00499705	0.00858586	0.00433515	-0.410889	0.179932	1.08398	0.0286957	0.0373228	0.995715	0.0795917	-0.377532	1.56085	-9.61311	-0.0176669	0.00764282	0.000181202	-0.433838	-0.151367	1.16211	
55	-0.993981	-0.0142779	-0.0976277	-0.0476038	-2.27898	0.354314	10.8723	-0.00996921	0.0428972	-0.0088897	0.639404	-0.079834	-0.876465	0.489102	0.0569659	-0.870147	0.0194331	8.24054	0.133665	-5.11056	-0.0166911	0.0501781	-0.0080549	-0.94458	-0.219971	0.316895	0.670391	0.292332	-0.580145	0.358538	9.81263	0.056562	1.77094	-0.00891415	0.0300735	-0.00505005	-1.12476	-0.28833	-0.313477	0.666246	0.200389	-0.650218	0.305251	9.72577	-1.20121	0.849367	-0.00266597	0.00358347	0.00649525	-1.21143	0.0654297	-0.263184	0.741035	-0.049504	-0.646365	-0.175009	9.6669	1.64195	1.39402	-0.0839953	0.0204796	0.0358136	-0.917725	-0.0524902	-0.558838	0.720127	-0.199429	-0.465844	-0.473957	9.57502	2.07707	5.36635	-0.00512155	0.0300275	-0.0391707	-0.875244	-0.13501	-0.67627	0.34842	0.0616759	-0.935222	0.0125955	6.09076	0.0971793	-6.90496	0.0059981	-0.0863863	-0.0200869	-0.884277	-0.211182	0.638672	-0.0210908	0.0449417	-0.991237	-0.122408	-0.417797	2.35278	-8.15097	0.00109112	0.00993282	-0.0190189	-0.374268	-0.188232	1.04468	0.143463	0.769443	0.617486	0.0780169	-0.373238	2.82981	-8.74115	0.00100649	-0.00982574	-0.0171575	-0.416504	-0.205078	1.0686	-0.0151894	0.0219654	-0.994861	0.0976673	-0.225886	-1.78807	-8.88589	0.00456135	0.0117929	0.00499887	-0.410889	0.182129	1.08374	0.0286295	0.0373804	0.995708	0.0796767	-0.402341	1.61383	-9.6117	0.0112125	0.00499747	-0.00479393	-0.438477	-0.14917	1.1665	
56	-0.99396	-0.0141563	-0.0979792	-0.0473563	-2.24493	0.227535	10.7632	-0.00567362	0.0242565	-0.0204889	0.639404	-0.0754395	-0.878662	0.489848	0.0565468	-0.86975	0.0196464	8.36678	0.187659	-5.04664	-0.0130637	0.0499476	0.000755003	-0.94873	-0.219971	0.314697	0.670773	0.292175	-0.579923	0.358311	9.67816	-0.676242	1.44791	-0.0219851	0.0330762	-0.0238709	-1.12695	-0.283936	-0.315918	0.666422	0.200363	-0.650071	0.305194	9.74214	-1.43127	0.674756	0.00511018	0.0255624	-0.0207199	-1.20947	0.0698242	-0.258789	0.7413	-0.0489221	-0.646043	-0.17524	9.91135	1.00858	1.60232	-0.0429771	0.0267778	-0.0116283	-0.908936	-0.0568848	-0.554199	0.720678	-0.199815	-0.464984	-0.473801	9.5894	1.60884	5.49126	-0.00671177	0.0397008	0.00181078	-0.879395	-0.13501	-0.682861	0.347489	0.0617493	-0.935565	0.0124781	6.19461	0.125195	-6.95938	0.0160363	-0.0706599	-0.0238567	-0.875244	-0.217773	0.643066	-0.0210706	0.0449359	-0.991231	-0.12247	-0.410972	2.34685	-8.14499	0.00170292	0.0160576	-0.0161448	-0.374268	-0.19043	1.03784	0.143449	0.769428	0.617514	0.0779669	-0.370079	2.81369	-8.75953	0.00985219	0.000819265	-0.0156903	-0.418701	-0.205322	1.073	-0.0151985	0.0219688	-0.994859	0.0976797	-0.237504	-1.80068	-8.92304	0.00534402	0.00981112	0.00270231	-0.415527	0.184326	1.08594	0.0285697	0.0373678	0.995709	0.0796973	-0.395426	1.53765	-9.61551	0.000280248	0.0105165	-0.00563585	-0.438477	-0.14917	1.1665	
57	-0.993915	-0.0144062	-0.0987187	-0.046681	-2.10934	0.428566	10.8025	0.0146006	0.0268213	-0.0258366	0.641602	-0.0754395	-0.87207	0.490563	0.0563552	-0.869355	0.0198368	8.40051	0.122887	-5.07665	0.00578168	0.0440615	-0.0121537	-0.948975	-0.217773	0.314453	0.671034	0.292688	-0.579155	0.358645	9.80566	-0.226919	1.61829	0.0197575	0.0168565	-0.0115542	-1.12036	-0.290527	-0.318115	0.666538	0.200477	-0.649912	0.305206	9.7477	-1.2735	0.722188	0.0122287	0.0100525	0.00059541	-1.20728	0.067627	-0.258789	0.741677	-0.0493681	-0.645603	-0.175139	9.62814	1.74423	1.65568	0.0196018	0.0177428	-0.0233188	-0.911133	-0.059082	-0.561035	0.720841	-0.199546	-0.464581	-0.474061	9.51637	2.07491	5.34584	0.00196072	0.0388407	-0.00247344	-0.875244	-0.132812	-0.685059	0.345183	0.062158	-0.936392	0.0124239	6.20428	0.131144	-6.98254	0.0183937	-0.0930921	-0.0212209	-0.875488	-0.213379	0.638672	-0.0210706	0.0449359	-0.991231	-0.12247	-0.410972	2.34685	-8.14499	0.00170292	0.0160576	-0.0161448	-0.374268	-0.19043	1.03784	0.143789	0.76924	0.61764	0.078205	-0.357289	2.83487	-8.74696	-0.0137632	0.0012087	-0.0134668	-0.418701	-0.207275	1.06421	-0.0150851	0.0219125	-0.994857	0.0977313	-0.236439	-1.78604	-8.91084	0.00341792	0.0113174	0.00299798	-0.410889	0.179932	1.08838	0.0285221	0.0372645	0.995684	0.080073	-0.333455	1.50565	-9.61666	-0.0229668	0.00909305	-0.00428716	-0.440674	-0.151367	1.16211	
58	-0.993728	-0.0144637	-0.100488	-0.0468748	-2.4509	0.503957	10.6991	-0.00274719	0.033531	0.0098241	0.641602	-0.079834	-0.869873	0.491024	0.0560949	-0.869111	0.0198532	8.33281	0.159126	-4.86662	-0.0256011	0.0309327	-0.00978781	-0.948975	-0.217773	0.309814	0.671062	0.293372	-0.578544	0.359019	9.64863	-0.165731	1.47285	0.078354	0.0063278	-0.0170048	-1.12036	-0.286133	-0.313477	0.666712	0.200816	-0.649655	0.305151	9.66295	-1.21259	0.691215	0.0231923	0.0152296	-0.0144479	-1.20923	0.0654297	-0.258789	0.742058	-0.0504867	-0.644997	-0.17544	9.51902	1.58806	1.50994	-0.0691356	0.0214702	0.0200535	-0.911377	-0.050293	-0.556641	0.720601	-0.199631	-0.464276	-0.474689	9.4941	1.99702	5.32281	-0.0198851	0.0240629	-0.041442	-0.875	-0.137207	-0.684814	0.341895	0.0626319	-0.937572	0.0119624	6.05827	0.117984	-6.98349	0.019762	-0.0993747	-0.0221771	-0.871338	-0.211182	0.653564	-0.0206201	0.0456752	-0.991163	-0.122821	-0.408189	2.36418	-8.14135	-0.00303426	0.0158527	-0.0191245	-0.369873	-0.192383	1.04248	0.144431	0.769037	0.617709	0.0784667	-0.362196	2.85201	-8.74583	-0.00759397	0.00161403	-0.0141057	-0.420654	-0.211914	1.06885	-0.01515	0.0218853	-0.994865	0.0976527	-0.231448	-1.78035	-8.88783	-0.000901033	0.00868084	0.00330826	-0.41748	0.177734	1.08398	0.0285346	0.0372184	0.99565	0.0805147	-0.373028	1.57184	-9.58318	-0.0174617	0.0041829	-0.00623004	-0.436279	-0.14917	1.16431	
59	-0.993666	-0.0143731	-0.101007	-0.0471052	-2.43077	0.502004	10.7937	-0.00458503	0.012472	0.00966251	0.639404	-0.079834	-0.87207	0.491474	0.0558538	-0.868867	0.0200848	8.3971	0.313193	-5.03699	-0.0263972	0.0340355	-0.00121232	-0.94873	-0.224365	0.310059	0.671516	0.292724	-0.578666	0.358502	9.68899	-0.612918	1.59771	-0.0235919	0.0166313	-0.00975265	-1.12036	-0.28833	-0.315918	0.666831	0.200787	-0.649614	0.304995	9.6444	-1.33043	0.720157	0.00896922	0.0047103	-0.00184708	-1.20483	0.0632324	-0.263184	0.742091	-0.0493493	-0.645034	-0.175489	9.71531	1.46379	1.71222	0.0322696	0.0111788	-0.038172	-0.911377	-0.0524902	-0.554199	0.720982	-0.199428	-0.463991	-0.474474	9.5851	1.66842	5.50195	0.0177812	0.0263435	-0.009214	-0.871094	-0.130615	-0.687256	0.339225	0.0627	-0.938542	0.0115903	6.16405	0.151362	-7.03153	0.0282395	-0.092941	-0.0207393	-0.862305	-0.219971	0.656006	-0.0206284	0.0456858	-0.991126	-0.123112	-0.397791	2.36406	-8.14811	-0.000894234	0.0136163	-0.0187621	-0.37207	-0.188232	1.0376	0.144839	0.768977	0.617654	0.0787379	-0.358462	2.85418	-8.71384	-0.0107548	0.0013903	-0.00990691	-0.413818	-0.211914	1.06421	-0.0151637	0.0218762	-0.994865	0.0976474	-0.217242	-1.79364	-8.90561	0.00669884	0.00853545	0.00362767	-0.412842	0.175537	1.08618	0.0284085	0.0372138	0.995648	0.0805785	-0.37475	1.58495	-9.60358	-0.000306088	0.0128281	-0.00426377	-0.442627	-0.153809	1.16895	
60	-0.993656	-0.0141436	-0.10118	-0.0470137	-2.32577	0.38733	10.9199	-0.00856551	-0.0010518	-0.000530797	0.650391	-0.0776367	-0.869873	0.491358	0.0555968	-0.868952	0.0199768	8.44172	0.24584	-5.00923	-0.0261715	0.00187641	-0.00439577	-0.946777	-0.217773	0.309814	0.671268	0.293207	-0.578458	0.358908	9.78223	-0.24108	1.59874	0.0549768	-0.000360803	-0.00146303	-1.12036	-0.28833	-0.315918	0.66688	0.200885	-0.649548	0.304964	9.76224	-1.24193	0.81249	-0.00101137	0.00939722	-0.00163437	-1.20898	0.0588379	-0.260742	0.74218	-0.0501468	-0.644831	-0.175633	9.69555	1.4045	1.54335	-0.0585558	0.0129548	0.019506	-0.911377	-0.050293	-0.554199	0.720885	-0.199348	-0.463835	-0.474808	9.46306	2.14887	5.39465	-0.00767057	0.0261365	-0.00507981	-0.875	-0.137207	-0.687012	0.336857	0.0624729	-0.93942	0.0107503	6.10307	0.223319	-7.08475	-0.0246555	-0.0735792	-0.0242815	-0.862305	-0.219971	0.660156	-0.0206738	0.0456966	-0.991109	-0.123241	-0.406729	2.36189	-8.15694	-0.00365632	0.0111621	-0.0195005	-0.374023	-0.192627	1.04248	0.145012	0.768959	0.617636	0.0787385	-0.365083	2.85855	-8.74358	-0.0041644	-0.00464475	-0.017006	-0.41626	-0.20752	1.0686	-0.0151892	0.0218715	-0.994866	0.0976316	-0.241608	-1.78611	-8.87292	0.0038527	0.00842394	0.0038145	-0.415283	0.177734	1.08154	0.0283511	0.0372962	0.995622	0.0808847	-0.384698	1.52827	-9.60361	-0.00465567	0.00881166	-0.00155833	-0.440674	-0.14917	1.16431	
61	-0.993656	-0.0141436	-0.10118	-0.0470137	-2.32577	0.38733	10.9199	-0.00856551	-0.0010518	-0.000530797	0.650391	-0.0776367	-0.869873	0.491386	0.0556194	-0.868931	0.0201407	8.47713	0.127516	-5.0562	0.00365247	0.016809	-0.0148893	-0.946777	-0.215576	0.307373	0.67139	0.292891	-0.578661	0.35861	9.84498	0.0730002	1.68999	-0.0407199	0.00105297	-0.00333399	-1.11816	-0.294922	-0.313477	0.666951	0.200933	-0.649402	0.305089	9.67887	-1.24933	0.729175	0.00318706	0.0156468	-0.00288596	-1.20679	0.0588379	-0.260742	0.742162	-0.0492836	-0.645067	-0.175089	9.88473	1.34809	1.69208	0.0197615	0.003436	-0.0182874	-0.906494	-0.0612793	-0.554199	0.721013	-0.199441	-0.463678	-0.474727	9.56597	1.81706	5.53869	-0.00599936	0.0224677	0.00140403	-0.873047	-0.13501	-0.684814	0.333468	0.0623725	-0.940642	0.0100404	6.03309	0.189394	-7.23999	0.00133662	-0.131237	-0.0109177	-0.858154	-0.217773	0.666504	-0.0206738	0.0456966	-0.991109	-0.123241	-0.406729	2.36189	-8.15694	-0.00365632	0.0111621	-0.0195005	-0.374023	-0.192627	1.04248	0.145012	0.768959	0.617636	0.0787385	-0.365083	2.85855	-8.74358	-0.0041644	-0.00464475	-0.017006	-0.41626	-0.20752	1.0686	-0.0151892	0.0218715	-0.994866	0.0976316	-0.241608	-1.78611	-8.87292	0.0038527	0.00842394	0.0038145	-0.415283	0.177734	1.08154	0.0282645	0.0373137	0.995614	0.0810096	-0.388342	1.59985	-9.58358	-0.00822564	0.0125789	-0.00295864	-0.44043	-0.153564	1.16675	
62	-0.993703	-0.0142008	-0.100722	-0.0469873	-2.2585	0.489763	10.8003	0.00189871	-0.0208321	-0.00024542	0.641602	-0.079834	-0.87207	0.492232	0.0550046	-0.868505	0.0195315	8.30353	0.118772	-4.97994	-0.0234603	0.0357378	-0.0162529	-0.951172	-0.213379	0.307373	0.671398	0.293339	-0.57838	0.358683	9.74471	-0.399342	1.54362	0.0164971	0.00441406	-0.0130736	-1.12256	-0.290527	-0.318115	0.66701	0.200811	-0.649417	0.30501	9.75938	-1.21288	0.850433	-0.00823759	0.00900329	0.0012228	-1.20703	0.0654297	-0.263184	0.742234	-0.0503723	-0.644898	-0.175092	9.62082	1.55097	1.64903	0.00261868	-0.00547794	-0.00372473	-0.906738	-0.0546875	-0.556641	0.720943	-0.199566	-0.463375	-0.475077	9.50723	2.04853	5.44647	-0.00319629	0.025465	-0.00701466	-0.875	-0.137207	-0.689209	0.333468	0.0623725	-0.940642	0.0100404	6.03309	0.189394	-7.23999	0.00133662	-0.131237	-0.0109177	-0.858154	-0.217773	0.666504	-0.0206738	0.0456966	-0.991109	-0.123241	-0.406729	2.36189	-8.15694	-0.00365632	0.0111621	-0.0195005	-0.374023	-0.192627	1.04248	0.144972	0.768677	0.618062	0.0782209	-0.379624	2.86273	-8.7254	0.0112669	-0.00690315	-0.019325	-0.420898	-0.209717	1.07544	-0.0151892	0.0218715	-0.994866	0.0976316	-0.241608	-1.78611	-8.87292	0.0038527	0.00842394	0.0038145	-0.415283	0.177734	1.08154	0.0282071	0.037373	0.995593	0.0812599	-0.402068	1.58309	-9.56619	-0.0178796	0.0104387	0.000611451	-0.442871	-0.153809	1.17114	
63	-0.993671	-0.0142379	-0.101053	-0.0469321	-2.16368	0.475015	10.7338	0.0116476	0.021763	0.00113842	0.643799	-0.079834	-0.869873	0.492529	0.0546948	-0.868357	0.0194648	8.38629	0.172772	-4.97379	-0.0162747	0.0260907	-0.0127962	-0.94873	-0.219971	0.305176	0.671762	0.293409	-0.577991	0.358572	9.69118	-0.325916	1.5304	0.0395144	0.0120461	-0.0105396	-1.11816	-0.290527	-0.313477	0.667065	0.20088	-0.649181	0.305345	9.69855	-1.292	0.717859	0.0156834	0.0235012	-0.00285815	-1.20483	0.0632324	-0.258789	0.742291	-0.0503345	-0.644849	-0.175041	9.69742	1.11303	1.62448	-0.0546461	-0.00118984	0.00787558	-0.911377	-0.0524902	-0.558838	0.721113	-0.199838	-0.463072	-0.475	9.47851	1.67723	5.42854	-0.0200233	0.01867	-0.0165106	-0.873291	-0.130615	-0.687256	0.330053	0.0622563	-0.941867	0.00872242	5.88921	0.201913	-7.10128	-0.0386309	-0.101355	-0.0141731	-0.849121	-0.222168	0.681396	-0.0202817	0.0467777	-0.99105	-0.123369	-0.407258	2.37282	-8.14074	0.000938017	0.0134753	-0.0184631	-0.374023	-0.192627	1.04248	0.144929	0.768533	0.618238	0.0783287	-0.383598	2.85993	-8.75057	-0.0192564	0.00430522	-0.0130326	-0.413818	-0.211914	1.06885	-0.0147642	0.0216061	-0.994855	0.0978705	-0.220246	-1.8041	-8.88992	0.00589294	0.0110381	0.00394749	-0.41748	0.179932	1.08374	0.028137	0.0372859	0.995628	0.0808924	-0.375032	1.5287	-9.60392	0.0133883	0.00127314	-0.00795488	-0.44043	-0.153564	1.16431	
64	-0.993588	-0.0141893	-0.101712	-0.0472954	-2.2327	0.478747	10.7966	-0.0017983	0.0248296	0.0141845	0.645996	-0.079834	-0.869873	0.493177	0.054591	-0.867997	0.019403	8.45278	0.232526	-4.88434	-0.0160603	0.0480749	-0.0180172	-0.948975	-0.215576	0.304932	0.671933	0.293121	-0.577968	0.358523	9.73137	-0.316568	1.65711	-0.0102757	0.019323	-0.0103621	-1.12036	-0.28833	-0.315918	0.667157	0.200682	-0.649177	0.305282	9.71891	-1.23762	0.741981	0.000557712	0.00165402	0.0100888	-1.20703	0.0632324	-0.258789	0.742377	-0.0502979	-0.644828	-0.174768	9.6908	1.78142	1.53736	0.0314169	0.0014036	-0.027933	-0.915771	-0.0480957	-0.558838	0.721278	-0.199742	-0.462932	-0.474926	9.5682	2.01863	5.34681	0.0118169	0.0268374	0.0079501	-0.87085	-0.132812	-0.685059	0.328112	0.0618777	-0.942581	0.00743892	5.94442	0.204561	-7.23526	-0.0338517	-0.0593078	-0.0190468	-0.849121	-0.226318	0.677246	-0.0203651	0.046788	-0.991037	-0.123459	-0.403206	2.36156	-8.151	0.00322832	0.0126769	-0.0184935	-0.376221	-0.19458	1.04028	0.144965	0.768492	0.618291	0.078239	-0.380156	2.84417	-8.71511	0.0125667	-0.000612232	-0.0179855	-0.413818	-0.209717	1.06641	-0.0148541	0.0216005	-0.99485	0.0979059	-0.224314	-1.79255	-8.91406	0.00714664	0.00450769	0.00345739	-0.410645	0.175537	1.08398	0.0280757	0.037295	0.995639	0.0807747	-0.354097	1.57743	-9.60329	0.00579001	0.00501469	-0.00223265	-0.440674	-0.146973	1.16431	
65	-0.993496	-0.0144959	-0.102447	-0.0475439	-2.39006	0.377138	10.7662	0.0177768	0.0217408	0.0152053	0.639648	-0.0820312	-0.87207	0.49385	0.0542039	-0.86764	0.0193821	8.4021	0.267339	-4.91034	-0.0246858	0.0361827	-0.00981345	-0.953369	-0.217773	0.298096	0.671923	0.293367	-0.577575	0.358975	9.71544	-0.123472	1.80652	0.0124563	0.0191091	0.00799531	-1.12256	-0.28833	-0.318115	0.667245	0.200565	-0.648991	0.305562	9.65579	-1.1867	0.825508	0.00281909	0.0157409	0.00525665	-1.20923	0.0654297	-0.267578	0.742405	-0.0516765	-0.644651	-0.174898	9.64916	1.53966	1.66188	-0.103401	-0.00676886	0.0323579	-0.911377	-0.0480957	-0.558838	0.721102	-0.20028	-0.462475	-0.475412	9.59098	1.91712	5.47944	-0.0385669	0.0121082	-0.031825	-0.877686	-0.126221	-0.680908	0.326688	0.0615076	-0.943106	0.00654989	5.87629	0.198081	-7.13491	-0.00176587	-0.0443038	-0.00869814	-0.847168	-0.219971	0.681396	-0.0204319	0.0468588	-0.991047	-0.123342	-0.420175	2.37561	-8.13496	0.00613467	0.0137055	-0.0211699	-0.367676	-0.19043	1.04248	0.14421	0.768428	0.618589	0.0779135	-0.372461	2.84989	-8.74435	0.0405906	0.0206881	-0.026542	-0.423096	-0.209717	1.0686	-0.0148966	0.0215758	-0.994851	0.0978992	-0.242796	-1.79109	-8.89678	0.00117199	0.00934132	0.00293264	-0.415283	0.177734	1.08154	0.0281274	0.0373165	0.995638	0.0807529	-0.379198	1.58143	-9.60033	0.00440561	0.00401959	-0.00681692	-0.438232	-0.151367	1.17114	
66	-0.993386	-0.0157436	-0.102824	-0.0486093	-2.5843	0.295618	10.8013	0.0686541	-9.63341e-05	0.0491963	0.648682	-0.0864258	-0.869873	0.494303	0.0536909	-0.867421	0.0190371	8.37724	0.208524	-4.91788	-0.0323959	0.0258184	-0.0076281	-0.94458	-0.217773	0.298096	0.671791	0.293501	-0.577435	0.359339	9.81726	-0.42373	1.63936	0.00594116	0.00717448	0.011892	-1.12476	-0.290527	-0.311279	0.667165	0.200392	-0.648942	0.305956	9.75086	-1.31702	0.791394	0.00228458	0.0152655	0.0118524	-1.20923	0.0654297	-0.263184	0.742271	-0.0510457	-0.644983	-0.174428	9.71765	1.31723	1.74498	0.0322854	0.000481343	-0.0201107	-0.909424	-0.0437012	-0.552002	0.721262	-0.200923	-0.462111	-0.475252	9.45563	1.6099	5.43075	-0.0258761	0.0135947	0.00435374	-0.873291	-0.128418	-0.685059	0.325387	0.0612008	-0.94358	0.00581574	5.79532	0.232975	-7.18279	-0.0214521	-0.0606795	-0.0126	-0.840332	-0.226318	0.681641	-0.0203486	0.0471378	-0.99104	-0.123306	-0.408326	2.37774	-8.14796	0.0042537	0.0126058	-0.019778	-0.374268	-0.19043	1.04004	0.144314	0.768151	0.618861	0.0782886	-0.385683	2.83887	-8.72485	-0.024149	0.00960794	-0.0226231	-0.411621	-0.209473	1.06201	-0.0149203	0.0215515	-0.99485	0.0979142	-0.221485	-1.78253	-8.88823	0.00707685	0.00874053	0.0059355	-0.412842	0.177734	1.08154	0.028149	0.0373206	0.995655	0.0805411	-0.396289	1.54156	-9.55931	0.00801049	0.00519132	-0.0029761	-0.436279	-0.14917	1.16211	
67	-0.99344	-0.0168586	-0.102069	-0.0487354	-2.2421	0.637925	10.7539	0.0168739	-0.0397604	-0.00458537	0.64209	-0.088623	-0.867676	0.494365	0.0532258	-0.867425	0.0185503	8.43409	0.0986259	-4.97608	-0.0362785	0.0136948	-0.0144948	-0.953369	-0.217773	0.295654	0.671571	0.293291	-0.577656	0.359564	9.82305	-0.101646	1.68339	-0.0216402	0.000906265	0.00711013	-1.11816	-0.28833	-0.318115	0.667124	0.200013	-0.649054	0.306055	9.76161	-1.22953	0.799432	-0.00193481	0.00328854	0.0192377	-1.21167	0.067627	-0.265381	0.742162	-0.051585	-0.645027	-0.174572	9.62302	1.58323	1.62171	0.0409787	0.0012999	-0.0341048	-0.908936	-0.0546875	-0.561035	0.721331	-0.201016	-0.462008	-0.475209	9.50274	2.10543	5.47609	0.0122939	0.0209233	0.00653832	-0.873291	-0.126221	-0.687256	0.323823	0.0608623	-0.944146	0.00478349	5.81516	0.263428	-7.36625	-0.0300815	-0.0596949	-0.0178005	-0.842529	-0.224121	0.685791	-0.0204367	0.0471167	-0.991025	-0.123418	-0.418548	2.38079	-8.15586	0.0027198	0.0108485	-0.0167773	-0.376465	-0.19043	1.04004	0.145592	0.767965	0.618657	0.079348	-0.362848	2.8893	-8.71907	-0.0692531	-0.000844739	-0.0082412	-0.416016	-0.211914	1.06665	-0.0149624	0.0215538	-0.994844	0.0979657	-0.219543	-1.79229	-8.9106	0.00781472	0.00953678	0.00365179	-0.408447	0.175537	1.08398	0.0281423	0.0374336	0.995658	0.0804486	-0.360358	1.57632	-9.61786	0.000169674	0.00353134	0.000152236	-0.436035	-0.151367	1.17114	
68	-0.993493	-0.0169874	-0.101737	-0.0482889	-2.23686	0.67676	10.7856	0.00059048	-0.0142782	-0.0241519	0.641846	-0.0820312	-0.869873	0.494323	0.05298	-0.867468	0.0183584	8.44126	0.131431	-4.95826	-0.0310583	0.00742718	-0.00990592	-0.948975	-0.215576	0.300293	0.67166	0.293069	-0.577689	0.359528	9.76933	-0.511707	1.64109	-0.0185303	0.0120339	0.00335129	-1.12061	-0.283936	-0.315918	0.667023	0.199789	-0.649186	0.306141	9.72815	-1.33707	0.737487	0.00591952	0.00824277	0.00411921	-1.20947	0.067627	-0.265381	0.742123	-0.0514644	-0.645077	-0.174589	9.76552	1.34274	1.75173	0.00410935	0.00266031	-0.0226085	-0.909424	-0.0458984	-0.554199	0.721235	-0.201228	-0.461987	-0.475285	9.58989	1.81896	5.35535	-0.021618	0.00964618	-0.0260799	-0.877441	-0.132812	-0.687256	0.323192	0.0607398	-0.944372	0.00439898	5.83972	0.133529	-7.33685	-0.0108491	-0.0454755	-0.0162036	-0.842529	-0.226318	0.685791	-0.0204632	0.0471731	-0.991022	-0.123419	-0.404798	2.36723	-8.14436	0.00627317	0.0126642	-0.0201374	-0.380615	-0.192627	1.04492	0.145151	0.767864	0.618926	0.0790286	-0.369062	2.88713	-8.7194	0.0249949	0.00443552	-0.017955	-0.413818	-0.209717	1.06641	-0.0150102	0.0215347	-0.994838	0.0980195	-0.223885	-1.80322	-8.86137	0.00419906	0.00996789	0.00365348	-0.41748	0.179932	1.08154	0.0280751	0.0374861	0.995659	0.0804372	-0.324292	1.56874	-9.56553	0.000737063	0.0118687	-0.00411479	-0.442871	-0.151611	1.16431	
69	-0.993568	-0.0164065	-0.101128	-0.0482278	-2.24524	0.50342	10.7504	-0.0234806	-0.0252969	-0.00425046	0.641846	-0.0820312	-0.865723	0.494342	0.0527048	-0.867476	0.0182623	8.35729	0.0920111	-4.95376	-0.0168642	0.0117527	-0.0126659	-0.948975	-0.217773	0.300293	0.671422	0.292984	-0.577893	0.359712	9.81951	-0.0337617	1.79475	-0.0210772	0.00345408	0.00866593	-1.12256	-0.28833	-0.313477	0.666868	0.199699	-0.649315	0.306264	9.68144	-1.39832	0.675824	0.0109181	-0.00212492	0.00975919	-1.21143	0.0632324	-0.263184	0.741954	-0.0520265	-0.645125	-0.17496	9.61822	1.54883	1.55923	0.027031	-0.00620996	-0.0307152	-0.907227	-0.0480957	-0.556641	0.721406	-0.201172	-0.46195	-0.475084	9.50335	2.02697	5.42466	0.0116428	0.0210647	0.00236017	-0.875488	-0.128418	-0.689453	0.322418	0.0611551	-0.944609	0.00453562	5.74784	0.195386	-7.22812	0.0145299	-0.0181027	-0.0144917	-0.840576	-0.224121	0.685791	-0.0205256	0.0472575	-0.991017	-0.123415	-0.420765	2.37822	-8.15033	0.00732446	0.00992283	-0.0232123	-0.378418	-0.194824	1.04248	0.144549	0.767848	0.619149	0.0785473	-0.368302	2.87686	-8.74419	0.0683479	0.00621865	-0.0304244	-0.418701	-0.207275	1.06201	-0.0150178	0.0215262	-0.994841	0.0979951	-0.229912	-1.79998	-8.89533	0.00269138	0.00940203	0.00427555	-0.415039	0.175537	1.08398	0.0279781	0.037521	0.995648	0.0805852	-0.368576	1.45272	-9.61894	-0.00961649	0.013231	-0.00162326	-0.436035	-0.151367	1.16675	
70	-0.993584	-0.0162362	-0.100925	-0.0483902	-2.10154	0.43995	10.6697	-0.0146973	-0.0195936	0.0122311	0.641846	-0.0820312	-0.867676	0.494371	0.0525784	-0.867469	0.0181985	8.40852	0.121378	-4.83305	-0.0103319	0.012638	-0.0201053	-0.950928	-0.219971	0.300537	0.671378	0.292983	-0.577921	0.359749	9.80024	-0.316468	1.62079	0.00710047	-0.00219291	0.00555596	-1.12036	-0.28833	-0.311279	0.666939	0.199708	-0.649243	0.306256	9.73005	-1.24036	0.829027	0.00452512	0.0122265	-0.0036322	-1.21387	0.0673828	-0.256592	0.741989	-0.0517561	-0.645151	-0.174797	9.7316	1.43138	1.52377	-0.0351711	0.00826291	0.00632049	-0.913574	-0.0480957	-0.558838	0.721461	-0.200845	-0.462127	-0.474968	9.5856	1.87982	5.46214	0.0212449	0.0149825	-0.0325206	-0.877686	-0.126465	-0.693848	0.322242	0.0613076	-0.944657	0.00500141	5.76259	0.249898	-7.45429	0.0313929	0.0225458	-0.0193857	-0.84668	-0.228516	0.690186	-0.0205737	0.0473455	-0.99101	-0.123428	-0.405589	2.3786	-8.11325	0.00914391	0.0126548	-0.0198899	-0.369873	-0.19043	1.04248	0.14414	0.767805	0.619351	0.0781262	-0.352992	2.84661	-8.70402	0.0178252	-0.00268937	-0.0179355	-0.41626	-0.20752	1.0686	-0.015063	0.021482	-0.994849	0.09791	-0.226285	-1.80108	-8.8952	-0.000707553	0.00838419	0.00468883	-0.415283	0.179932	1.09082	0.0278766	0.0376402	0.995609	0.0810429	-0.392518	1.57141	-9.5932	-0.0264759	0.00937694	0.000191624	-0.436035	-0.151367	1.16675	
71	-0.993585	-0.0161137	-0.100881	-0.0485027	-2.17519	0.408226	10.7624	-0.00985124	-0.00699256	0.00849672	0.644287	-0.0864258	-0.87207	0.494138	0.0529755	-0.867567	0.0186738	8.54209	0.22666	-4.92026	0.0219893	-0.00548876	-0.0266258	-0.948975	-0.217773	0.302734	0.671388	0.292904	-0.57795	0.359749	9.7967	-0.22172	1.73011	-0.00521954	0.0010369	-0.00378993	-1.11816	-0.28833	-0.315918	0.666851	0.199652	-0.649396	0.306161	9.72074	-1.24795	0.799522	-0.00363698	-0.00815487	0.00444327	-1.20947	0.067627	-0.267578	0.741872	-0.0510207	-0.645405	-0.174571	9.90839	1.31523	1.77222	0.0167576	0.00720541	-0.0273181	-0.906982	-0.050293	-0.554199	0.721469	-0.200651	-0.462081	-0.475082	9.53259	1.88715	5.46195	0.00342189	0.0127401	-0.0134733	-0.871094	-0.128418	-0.685059	0.323164	0.0617204	-0.944307	0.00634819	5.8862	0.162662	-7.49313	0.109241	0.108885	-0.0175494	-0.838135	-0.226318	0.692383	-0.0206691	0.0473906	-0.990994	-0.12352	-0.422446	2.37457	-8.14515	0.000286262	0.0122969	-0.0202265	-0.380615	-0.192627	1.04004	0.143883	0.767795	0.619463	0.0778124	-0.384426	2.83945	-8.75548	0.0192122	0.002525	-0.0178717	-0.411621	-0.207275	1.06641	-0.0150743	0.0214515	-0.994858	0.0978225	-0.222698	-1.7879	-8.89925	0.00384243	0.00874976	0.00528561	-0.413086	0.182129	1.08374	0.0279137	0.0376825	0.995602	0.0811046	-0.365398	1.61761	-9.59087	-0.003372	0.00299471	-0.00186326	-0.438232	-0.151367	1.16211	
72	-0.993576	-0.0158062	-0.100882	-0.0487754	-2.36628	0.422088	10.7809	0.00140116	0.00054581	-0.000103007	0.644043	-0.0842285	-0.869873	0.494054	0.0535901	-0.867571	0.018969	8.38386	0.145684	-4.9702	0.0101984	0.0163563	-0.0309813	-0.948975	-0.217773	0.300293	0.671375	0.293018	-0.578025	0.35956	9.77687	-0.430955	1.72636	0.00220284	-0.00490593	-0.013378	-1.11621	-0.286133	-0.320557	0.666789	0.199723	-0.649427	0.30618	9.67178	-1.35839	0.786077	0.00712667	0.00453312	-0.00444277	-1.20898	0.0610352	-0.260742	0.741736	-0.0513939	-0.645536	-0.174555	9.61802	1.54324	1.5462	0.0514437	-0.00632686	-0.0196399	-0.911377	-0.050293	-0.556641	0.721232	-0.200554	-0.462095	-0.475468	9.52218	2.00226	5.39056	2.71583e-05	0.0172349	-0.0180897	-0.873047	-0.132812	-0.689209	0.324245	0.0622593	-0.943888	0.0080308	5.88025	0.174929	-7.64829	0.154501	0.111233	-0.0161285	-0.847412	-0.215576	0.685547	-0.0205983	0.0476901	-0.990992	-0.123439	-0.413569	2.36975	-8.1315	0.00632506	0.0114288	-0.0198859	-0.369873	-0.192383	1.04248	0.143887	0.767743	0.619535	0.0777414	-0.370903	2.84406	-8.73359	0.0110916	-0.00123313	-0.0188552	-0.418701	-0.202881	1.06641	-0.0150842	0.0214493	-0.994863	0.0977738	-0.236129	-1.79947	-8.90742	0.00210226	0.0104579	0.00500227	-0.410645	0.177734	1.08618	0.0277011	0.0376186	0.995611	0.0810921	-0.355193	1.53711	-9.60226	0.0100761	0.0116769	-0.00614796	-0.438232	-0.153564	1.16895	
73	-0.993635	-0.01583	-0.10024	-0.0488873	-2.42947	0.475084	10.7377	-0.000449491	-0.0278032	0.00503635	0.641846	-0.0842285	-0.865479	0.49402	0.0537536	-0.867581	0.0189337	8.27348	0.218931	-4.98337	-0.00433811	0.00985144	-0.0320764	-0.951172	-0.217773	0.302734	0.671151	0.293244	-0.578111	0.359655	9.75928	-0.0203702	1.60717	-0.0211564	-0.00877755	0.00354323	-1.12476	-0.290283	-0.313477	0.666706	0.199761	-0.64958	0.306014	9.71693	-1.14969	0.78769	-0.0120231	-0.0012597	-0.00087289	-1.21143	0.0632324	-0.258789	0.741574	-0.0521977	-0.64553	-0.175028	9.64099	1.30438	1.48165	-0.111226	-0.00265221	0.00617003	-0.90918	-0.0480957	-0.549561	0.720841	-0.200544	-0.462373	-0.475795	9.52977	1.84349	5.41323	0.0162523	0.00237347	-0.0487034	-0.871094	-0.128418	-0.69165	0.329132	0.062775	-0.942132	0.0108923	5.70795	0.288274	-6.79023	0.120857	0.236104	-0.0126683	-0.853516	-0.219971	0.675049	-0.0206077	0.0477078	-0.990989	-0.12345	-0.409877	2.38307	-8.1279	0.0059143	0.0147596	-0.0192239	-0.37207	-0.188232	1.0376	0.143348	0.767735	0.619692	0.0775601	-0.370407	2.83382	-8.73694	0.0309863	0.0160093	-0.0156585	-0.418457	-0.211914	1.05981	-0.0150918	0.0214412	-0.99486	0.0978069	-0.22367	-1.78946	-8.91958	0.00761033	0.0101668	0.00373112	-0.413086	0.179932	1.08154	0.0276628	0.0376514	0.995623	0.0809396	-0.402702	1.56643	-9.61368	0.00715838	0.00290964	-0.00480377	-0.443115	-0.146973	1.16895	
74	-0.993743	-0.0157959	-0.0991457	-0.0489387	-2.33703	0.572776	10.861	-0.00432128	-0.053723	-0.00653345	0.637451	-0.0842285	-0.876465	0.493387	0.0547919	-0.867883	0.0186163	8.47752	0.305391	-4.91001	-0.00611249	-0.00811491	-0.030732	-0.951172	-0.215576	0.307373	0.671059	0.292804	-0.578639	0.359336	9.85949	-0.471773	1.63477	-0.0115892	-0.0117533	0.00879974	-1.12695	-0.286133	-0.313477	0.666713	0.199699	-0.649616	0.305962	9.76175	-1.33537	0.791388	0.00433264	0.00780937	-0.00579327	-1.20703	0.0654297	-0.269775	0.741246	-0.0501532	-0.6463	-0.174167	9.80808	1.5934	1.84821	0.0880547	-0.00996467	-0.0447721	-0.915771	-0.050293	-0.549561	0.721002	-0.200636	-0.462314	-0.47557	9.53109	1.73542	5.53985	-0.0110492	0.00988203	0.00209013	-0.877441	-0.13501	-0.689209	0.334599	0.0626524	-0.940208	0.0112795	5.98959	0.109954	-7.13032	0.00892924	0.23594	-0.00995267	-0.855713	-0.224121	0.664551	-0.0203309	0.0481829	-0.991005	-0.123182	-0.416763	2.37778	-8.15221	0.00865174	0.0142737	-0.0178979	-0.378418	-0.192627	1.04248	0.143218	0.767607	0.619867	0.077678	-0.381013	2.83316	-8.75641	0.00457759	0.0100585	-0.0160356	-0.41626	-0.209717	1.07324	-0.0149063	0.0213692	-0.994875	0.0977012	-0.221351	-1.79598	-8.91342	-0.000741754	0.0100376	0.00369984	-0.408691	0.182129	1.08838	0.0276954	0.0375461	0.995639	0.0807835	-0.325355	1.56604	-9.58586	-0.000148425	0.00690165	-0.00778114	-0.438232	-0.153564	1.16895	
75	-0.99387	-0.0156878	-0.0979542	-0.0487995	-2.17249	0.495647	10.7339	-0.00401522	-0.0458769	-0.00138271	0.63501	-0.0776367	-0.874268	0.49324	0.0546953	-0.86798	0.0182594	8.36626	0.267664	-5.01928	-0.0185129	0.00927214	-0.0242244	-0.946777	-0.217773	0.307373	0.670651	0.292998	-0.578832	0.359629	9.76925	-0.0450474	1.72596	0.0258806	-0.0231349	0.0195358	-1.12036	-0.28833	-0.311279	0.666505	0.1993	-0.650028	0.305799	9.75105	-1.14769	0.836304	-0.0234649	-0.0158691	0.0278204	-1.20728	0.067627	-0.263184	0.740913	-0.0510922	-0.646488	-0.174616	9.6739	1.41428	1.51183	0.0376147	-0.0123145	-0.0209419	-0.90918	-0.050293	-0.556641	0.720796	-0.200643	-0.462619	-0.475584	9.49778	2.01748	5.45271	0.00752619	0.00331179	-0.00881858	-0.871338	-0.126465	-0.693848	0.339981	0.0627252	-0.938254	0.0125441	6.02039	0.170581	-7.07032	0.0530672	0.232949	-0.0115096	-0.873291	-0.215576	0.651611	-0.0204169	0.0482201	-0.991005	-0.123157	-0.410172	2.36125	-8.14964	0.00630332	0.0101882	-0.0186853	-0.369873	-0.19043	1.04004	0.143322	0.767573	0.619869	0.0778046	-0.357457	2.80236	-8.73004	-0.00616631	0.00587468	-0.0142372	-0.423096	-0.209717	1.07324	-0.014978	0.0213486	-0.994877	0.0976686	-0.234749	-1.79702	-8.91225	0.00405705	0.00699089	0.00421795	-0.413086	0.179932	1.08618	0.0276801	0.0376136	0.995633	0.0808305	-0.381687	1.58765	-9.62393	-0.000320369	0.00400742	-0.00198873	-0.442871	-0.14917	1.16431	
76	-0.993975	-0.0157598	-0.0971372	-0.0482765	-2.29194	0.480228	10.8238	0.0101583	-0.0391849	-0.0247235	0.637207	-0.079834	-0.869873	0.49301	0.0546471	-0.868116	0.0181588	8.30659	0.255451	-4.92287	-0.0167226	-0.00815065	-0.0194246	-0.946777	-0.217773	0.302734	0.670874	0.291904	-0.579609	0.358851	9.7479	-0.277257	1.61172	-0.0623791	-0.00671001	0.00880974	-1.1228	-0.277344	-0.311523	0.666333	0.198677	-0.650424	0.30574	9.71929	-1.31028	0.714205	-0.0105389	0.0033211	0.00744416	-1.20728	0.067627	-0.256592	0.740852	-0.0508183	-0.646645	-0.174375	9.70276	1.63222	1.7011	0.0289875	-0.00364883	-0.0164601	-0.911133	-0.0546875	-0.556641	0.720664	-0.200943	-0.462742	-0.475536	9.46974	1.83684	5.44966	-0.00457382	-0.00287723	-0.014271	-0.873291	-0.128418	-0.682861	0.344094	0.0623178	-0.936774	0.0130385	6.06876	0.143067	-6.92167	0.0107948	0.171918	-5.54416e-05	-0.871094	-0.215576	0.649414	-0.0204529	0.0481716	-0.990996	-0.123242	-0.401774	2.35419	-8.14402	0.00655227	0.0134524	-0.0150308	-0.374023	-0.192627	1.04248	0.144304	0.76729	0.619876	0.078719	-0.377908	2.87882	-8.74978	-0.011099	0.0121867	-0.0112229	-0.41626	-0.207275	1.06641	-0.0150374	0.0213385	-0.994874	0.0976976	-0.230939	-1.78943	-8.90239	0.00556469	0.00755774	0.00359673	-0.410889	0.179932	1.08154	0.0278377	0.0375997	0.99565	0.0805721	-0.34559	1.54813	-9.5741	0.0127844	0.000905579	-0.00840197	-0.440918	-0.144775	1.1665	
77	-0.994128	-0.0156613	-0.0955822	-0.0482425	-2.16568	0.503436	10.8218	-0.0124886	-0.0749948	0.00745436	0.633057	-0.0822754	-0.869873	0.492425	0.054775	-0.868445	0.0179071	8.47572	0.191266	-4.96977	-0.0117154	-0.0112051	-0.031501	-0.953125	-0.224365	0.300537	0.670412	0.291283	-0.580404	0.358934	9.83659	-0.0334642	1.68318	-0.0532415	-0.00873953	0.0263351	-1.12256	-0.286133	-0.315918	0.666279	0.198381	-0.65062	0.305634	9.77216	-1.23923	0.812887	-0.0220308	-0.00217092	0.0141126	-1.20923	0.0654297	-0.256592	0.740434	-0.050825	-0.647109	-0.174428	9.7339	1.41655	1.52186	0.0367249	-0.0149128	-0.0287132	-0.915771	-0.0524902	-0.552002	0.720589	-0.2009	-0.463211	-0.475211	9.52656	1.91058	5.465	0.0132522	-0.00443009	-0.00645683	-0.879639	-0.132812	-0.678467	0.347033	0.0623683	-0.935672	0.0139857	6.13744	0.0992534	-6.96778	0.0568625	0.13714	-0.0120229	-0.877441	-0.219971	0.647461	-0.0205649	0.0482271	-0.990999	-0.123178	-0.414113	2.36314	-8.12178	0.00778893	0.0107119	-0.0199952	-0.374268	-0.188232	1.03784	0.144031	0.76719	0.620096	0.0784569	-0.365822	2.86487	-8.73556	0.0279833	-0.000293595	-0.0257795	-0.416504	-0.202881	1.0708	-0.0150836	0.0213269	-0.994877	0.097655	-0.2236	-1.79235	-8.93118	0.00366841	0.00742093	0.0048655	-0.417236	0.175537	1.08398	0.0278166	0.0376233	0.995673	0.0802885	-0.368719	1.55824	-9.62455	0.00805357	0.0056201	-0.00175268	-0.440674	-0.146973	1.16211	
78	-0.994229	-0.0155551	-0.0941282	-0.0490623	-2.1018	0.466846	10.7915	-0.0142461	-0.0565744	0.0393002	0.630859	-0.0842285	-0.878662	0.491836	0.0552498	-0.86875	0.0178308	8.39606	0.184726	-5.00275	-0.00245669	-0.0173303	-0.0360723	-0.951172	-0.217773	0.302734	0.670295	0.290825	-0.580978	0.358595	9.78056	-0.541117	1.54287	-0.0242205	-0.0134373	0.0131787	-1.12476	-0.283936	-0.311279	0.666042	0.198078	-0.650875	0.305801	9.70399	-1.30057	0.746245	-0.00715123	0.00233205	0.000885653	-1.20947	0.067627	-0.258789	0.740028	-0.0505149	-0.647605	-0.174396	9.72037	1.42194	1.55355	-0.028853	-0.0150963	-0.0193127	-0.911377	-0.050293	-0.549561	0.720438	-0.200895	-0.463472	-0.475189	9.54185	1.81222	5.3959	0.00898592	-0.00628044	-0.0229728	-0.877686	-0.128418	-0.687256	0.349158	0.0622659	-0.934881	0.0144445	6.17894	0.163638	-6.95816	0.0256959	0.0889569	-0.0108642	-0.875488	-0.213379	0.636475	-0.0206021	0.048261	-0.991009	-0.123072	-0.420458	2.36507	-8.15806	0.0151143	0.0126687	-0.0212256	-0.369629	-0.19458	1.03784	0.14383	0.767167	0.620197	0.0782498	-0.370049	2.84057	-8.74495	0.0287392	0.000510628	-0.0190415	-0.414062	-0.205078	1.06641	-0.0151364	0.021314	-0.994879	0.0976317	-0.231366	-1.79725	-8.8959	0.00331516	0.00588681	0.00501886	-0.415283	0.179932	1.08618	0.0278343	0.0376534	0.995667	0.0803463	-0.387853	1.56673	-9.60552	-0.00321755	0.00405106	-0.0029371	-0.440674	-0.146973	1.16431	
79	-0.994278	-0.015442	-0.0934459	-0.0494007	-2.11329	0.370288	10.8331	-0.0136462	-0.0578418	0.0270147	0.628906	-0.0864258	-0.882812	0.491156	0.0557672	-0.869101	0.0178815	8.35703	0.129823	-5.04753	0.0134273	-0.0150354	-0.0379619	-0.948975	-0.217773	0.309814	0.669971	0.290764	-0.581414	0.358542	9.76204	-0.184332	1.6307	-0.022498	-0.0107915	-0.000247718	-1.12061	-0.277588	-0.309326	0.665951	0.198063	-0.650942	0.305868	9.71541	-1.2958	0.741509	0.00619369	-0.00172285	0.00776712	-1.21191	0.0720215	-0.256592	0.739617	-0.0496317	-0.648241	-0.174031	9.58386	1.72736	1.60447	0.0405705	-0.0201246	-0.0470177	-0.919922	-0.0571289	-0.545166	0.720336	-0.200828	-0.463917	-0.474937	9.47339	1.91637	5.37654	0.0280239	-0.000615502	-0.00871031	-0.873291	-0.126221	-0.683105	0.349956	0.0622097	-0.934586	0.0144631	6.16732	0.0754071	-6.89736	0.0148202	0.077848	-0.0142943	-0.879639	-0.219971	0.638916	-0.0206243	0.0482358	-0.991044	-0.122801	-0.414631	2.35844	-8.13122	0.0171668	0.0147584	-0.0153507	-0.369873	-0.19043	1.04468	0.143653	0.767166	0.620231	0.0783216	-0.374909	2.83459	-8.72441	-0.00026443	0.012787	-0.0128777	-0.41626	-0.20752	1.0686	-0.0151944	0.0212813	-0.994872	0.0977064	-0.222623	-1.79787	-8.8881	0.00683772	0.0107139	0.0035479	-0.419678	0.179932	1.08838	0.0279596	0.03768	0.995689	0.0800114	-0.383021	1.54678	-9.56934	0.0192143	-0.00106981	-0.00665484	-0.438232	-0.153564	1.16211	
80	-0.994366	-0.0156647	-0.0921051	-0.050074	-1.94465	0.386752	10.8152	0.00896307	-0.0539338	0.0291122	0.628906	-0.088623	-0.882812	0.490313	0.0561659	-0.869547	0.018044	8.47985	0.240355	-4.93766	-0.00518232	-0.0311402	-0.0213143	-0.94458	-0.219971	0.309814	0.669549	0.290643	-0.581979	0.358512	9.73983	-0.415149	1.48698	0.00983809	-0.0249619	0.0181468	-1.125	-0.275146	-0.304688	0.665964	0.197881	-0.651033	0.305763	9.68732	-1.32051	0.707788	-0.0169736	0.00812547	-0.000417142	-1.20728	0.0698242	-0.254395	0.739252	-0.0489124	-0.648861	-0.173475	9.73781	1.53562	1.50312	0.0531382	-0.0082543	-0.00689173	-0.913574	-0.0524902	-0.545166	0.720073	-0.200948	-0.464381	-0.474831	9.57432	1.90777	5.42316	0.00447624	-0.00754576	-0.0229643	-0.875488	-0.126221	-0.680908	0.351246	0.0621257	-0.934098	0.0150767	6.28555	0.0974443	-6.96203	0.0456038	0.065923	-0.00412038	-0.88208	-0.209229	0.636475	-0.0206465	0.0482236	-0.991069	-0.122599	-0.410821	2.36508	-8.13702	0.0149856	0.0141058	-0.0177785	-0.376221	-0.19043	1.04468	0.143579	0.767138	0.62024	0.0786531	-0.370199	2.83554	-8.7243	0.013453	0.0146737	-0.0149311	-0.418457	-0.209717	1.07104	-0.0150994	0.0212386	-0.994867	0.0977755	-0.225495	-1.79706	-8.89034	0.00506412	0.00896837	0.00305012	-0.412842	0.177734	1.08838	0.0279703	0.0376266	0.995741	0.0793889	-0.364928	1.55153	-9.63607	0.026631	0.00395998	-0.00948894	-0.436035	-0.151367	1.16895	
81	-0.994385	-0.0161374	-0.0914757	-0.0506991	-2.00388	0.389696	10.7473	0.0185633	-0.0186361	0.0347539	0.628906	-0.088623	-0.88501	0.489693	0.0565297	-0.869873	0.0180759	8.37163	0.157324	-4.87944	0.00779101	-0.0053176	-0.0332834	-0.948486	-0.226562	0.307861	0.669395	0.290234	-0.582514	0.358263	9.66035	-0.569312	1.48999	-0.0298082	-0.00413731	0.00293397	-1.11841	-0.273193	-0.309326	0.665761	0.197603	-0.65131	0.305796	9.62641	-1.38654	0.685714	0.00291049	-0.00834093	0.0176846	-1.20728	0.067627	-0.258789	0.738795	-0.0489605	-0.64934	-0.173614	9.70842	1.47347	1.47706	-0.00202282	-0.0182308	-0.0289573	-0.919922	-0.0549316	-0.542725	0.71985	-0.201463	-0.464575	-0.474761	9.54028	1.90765	5.38369	-0.0144397	-0.006169	-0.00298494	-0.877686	-0.128418	-0.682861	0.352336	0.0621052	-0.933677	0.0158131	6.27938	0.161848	-6.80004	0.0424164	0.0500186	-0.008593	-0.880127	-0.208984	0.634277	-0.0206983	0.0482786	-0.991087	-0.122424	-0.414412	2.36066	-8.132	0.0145899	0.0147599	-0.0184165	-0.367676	-0.192383	1.0354	0.143287	0.76707	0.62041	0.0785102	-0.3622	2.83401	-8.74658	0.0160372	0.00880354	-0.0194207	-0.418701	-0.207275	1.06421	-0.015127	0.0212118	-0.994872	0.0977278	-0.238244	-1.7913	-8.89766	0.00136021	0.00904947	0.00431374	-0.408691	0.182129	1.08374	0.0280525	0.0375981	0.995756	0.0791769	-0.420362	1.53892	-9.62986	0.00202085	0.00132079	-0.00623417	-0.438477	-0.14917	1.16895	
82	-0.99434	-0.0170091	-0.0915862	-0.0510864	-1.8681	0.371667	10.9075	0.0479629	0.0158758	0.0126923	0.624512	-0.0864258	-0.882812	0.488692	0.0568576	-0.870412	0.0181696	8.50582	0.100077	-5.10329	-0.000106615	-0.0246469	-0.0289983	-0.950928	-0.224365	0.314697	0.668877	0.290714	-0.582576	0.358741	9.64805	-0.495393	1.58436	0.056852	-0.0256193	0.0158971	-1.12036	-0.283936	-0.306885	0.665715	0.197577	-0.651365	0.305795	9.80608	-1.3042	0.805855	-0.00641004	0.00239073	0.00192607	-1.20728	0.067627	-0.263184	0.73853	-0.0483355	-0.649775	-0.173294	9.81813	1.55025	1.56956	0.0520629	-0.00808681	-0.0260113	-0.91333	-0.0546875	-0.545166	0.719734	-0.201497	-0.465009	-0.474497	9.60236	1.88575	5.44388	0.0140478	-0.00671299	-0.0143226	-0.879639	-0.128418	-0.680908	0.353018	0.0619795	-0.93342	0.0162177	6.44626	0.0255965	-6.82189	0.021928	0.0416988	-0.00685908	-0.890869	-0.209229	0.634277	-0.020705	0.0482228	-0.991122	-0.122157	-0.402061	2.35504	-8.1546	0.0168218	0.0129387	-0.0155298	-0.374268	-0.188232	1.04712	0.143289	0.767037	0.620433	0.0786461	-0.35033	2.84043	-8.74526	-0.000545917	0.0116016	-0.0157512	-0.418701	-0.205078	1.0708	-0.0151264	0.0211944	-0.994878	0.0976748	-0.225416	-1.79363	-8.906	0.000190279	0.0108438	0.00428576	-0.419678	0.177734	1.08618	0.0281588	0.0376248	0.995736	0.0793784	-0.303973	1.53788	-9.55988	-0.00648889	0.00358482	-0.00297494	-0.438477	-0.14917	1.1665	
83	-0.994232	-0.018183	-0.0918282	-0.0523434	-2.1034	0.871809	10.8802	0.0204343	-0.0023997	0.0578163	0.626953	-0.0908203	-0.882812	0.488148	0.057529	-0.870665	0.0185572	8.25983	0.125653	-5.15352	0.0208797	-0.01761	-0.033723	-0.946777	-0.219971	0.309814	0.668561	0.290952	-0.582649	0.359017	9.73687	-0.71637	1.48071	0.00850888	0.00205007	-0.0086943	-1.12061	-0.275391	-0.297852	0.665482	0.197294	-0.651694	0.305784	9.69186	-1.43188	0.678611	-2.10605e-05	-0.00282036	0.00739369	-1.20972	0.0742188	-0.256592	0.738192	-0.0483598	-0.650175	-0.173225	9.8389	1.15623	1.37432	0.0338043	-0.0127782	-0.0142465	-0.915283	-0.059082	-0.552002	0.719555	-0.201309	-0.465588	-0.474282	9.5811	1.86864	5.4612	0.0309738	-0.00236396	-0.0213367	-0.871094	-0.130615	-0.676514	0.353768	0.0620028	-0.933129	0.0165449	6.21469	0.0970795	-6.98164	0.0369471	0.0267094	-0.0173524	-0.888672	-0.209229	0.634277	-0.020889	0.0482162	-0.991158	-0.121838	-0.424526	2.33085	-8.13511	0.0194068	0.00823702	-0.0194693	-0.37207	-0.19043	1.04468	0.143481	0.766773	0.620737	0.0784789	-0.385836	2.84895	-8.75815	0.0100798	-0.00644671	-0.0233357	-0.420654	-0.211914	1.06641	-0.0150705	0.0211036	-0.994881	0.097665	-0.24726	-1.80653	-8.89247	0.00119875	0.00720644	0.00586804	-0.41748	0.179932	1.08838	0.0281059	0.0376458	0.995741	0.0793288	-0.413208	1.51953	-9.60032	0.00953195	0.00516604	-0.0066228	-0.440674	-0.14917	1.16211	
84	-0.994176	-0.0179635	-0.0915323	-0.0539729	-2.00203	0.612235	10.7599	-0.0204998	-0.0168748	0.0826438	0.626953	-0.0908203	-0.882812	0.487832	0.0579267	-0.870812	0.0187275	8.22611	0.130791	-5.0971	0.0208308	-0.0152549	-0.0402683	-0.94873	-0.224365	0.314697	0.668453	0.291198	-0.582547	0.359185	9.86857	-0.405693	1.52083	0.0236542	0.00285823	-0.0054218	-1.13135	-0.277344	-0.306885	0.665475	0.197646	-0.651608	0.305756	9.64756	-1.29085	0.659393	0.0164	0.0020783	-0.0100205	-1.20532	0.0742188	-0.260986	0.738189	-0.0479258	-0.6503	-0.172887	9.56319	1.77106	1.46031	0.0428275	0.00289478	-0.0180477	-0.917725	-0.0546875	-0.547363	0.719467	-0.201121	-0.465943	-0.474146	9.49858	1.90457	5.35125	0.0360254	0.00702956	-0.0100773	-0.881836	-0.132812	-0.680664	0.354253	0.061932	-0.932956	0.0161815	6.24654	0.03514	-6.88984	-0.00136601	0.0172935	-0.0247997	-0.88623	-0.213379	0.630127	-0.020909	0.0482168	-0.991171	-0.12173	-0.425836	2.33936	-8.16915	0.0157809	0.0138494	-0.0174237	-0.376709	-0.183838	1.04004	0.143448	0.766725	0.620798	0.0785144	-0.388488	2.82511	-8.7572	0.00719531	0.00759203	-0.0198368	-0.418701	-0.20752	1.06641	-0.0150853	0.0211067	-0.994884	0.097637	-0.234764	-1.78582	-8.89529	0.00250099	0.00890594	0.00335438	-0.412842	0.175537	1.08179	0.0281973	0.0375798	0.995747	0.0792467	-0.395567	1.53469	-9.64174	0.00420552	-0.000163608	-0.00879931	-0.440674	-0.14917	1.16895	
