40	Head	00b4120a												Throax	00b411e8												LUpArm	00b411d9												LFoArm	00b41148												RUpArm	00b411db												RFoArm	00b41204												Waist	00b411f7												Lthigh	00b411f4												Lshank	00b4111b												Rthigh	00b411c8												Rshank	00b411ee												
PacketCount	q0	q1	q2	q3	accX	accY	accZ	gyrX	gyrY	gyrZ	magX	magY	magZ	q0	q1	q2	q3	accX	accY	accZ	gyrX	gyrY	gyrZ	magX	magY	magZ	q0	q1	q2	q3	accX	accY	accZ	gyrX	gyrY	gyrZ	magX	magY	magZ	q0	q1	q2	q3	accX	accY	accZ	gyrX	gyrY	gyrZ	magX	magY	magZ	q0	q1	q2	q3	accX	accY	accZ	gyrX	gyrY	gyrZ	magX	magY	magZ	q0	q1	q2	q3	accX	accY	accZ	gyrX	gyrY	gyrZ	magX	magY	magZ	q0	q1	q2	q3	accX	accY	accZ	gyrX	gyrY	gyrZ	magX	magY	magZ	q0	q1	q2	q3	accX	accY	accZ	gyrX	gyrY	gyrZ	magX	magY	magZ	q0	q1	q2	q3	accX	accY	accZ	gyrX	gyrY	gyrZ	magX	magY	magZ	q0	q1	q2	q3	accX	accY	accZ	gyrX	gyrY	gyrZ	magX	magY	magZ	q0	q1	q2	q3	accX	accY	accZ	gyrX	gyrY	gyrZ	magX	magY	magZ	
0	0.370806	0.428016	0.0963155	-0.818553	-8.16715	1.75707	6.49047	-0.00513218	0.00668176	-0.0156234	0.775391	0.083252	-0.948242	0.186419	0.089675	0.00280319	-0.978365	-1.81192	0.253291	9.91726	-0.0554593	-0.00549642	-0.0110726	-0.0258789	0.00146484	-1.00488	0.260384	0.957327	0.122462	-0.0269658	-0.774035	4.41574	-7.8333	0.00337652	0.00336503	-0.00469565	0.383057	-0.268066	1.01025	-0.328066	0.608314	0.716916	-0.0914249	3.57053	-5.19729	-7.47752	0.0207819	0.0173107	-0.00864531	-0.430664	1.04712	0.494873	-0.191551	0.965837	0.17368	0.0173721	1.00115	-3.52118	-8.98498	0.0419051	0.0116125	-0.0259304	0.178467	0.692383	1.104	0.810109	0.528669	-0.198517	-0.157553	1.74135	9.738	3.80926	0.00135713	0.0151945	-0.028641	0.263916	-1.15063	-0.467773	0.158066	-0.128757	-0.0283392	-0.978588	2.79856	0.0999381	10.2189	-0.00564393	0.0240645	-0.00220957	-0.638916	-0.00708008	-0.888428	0.166221	-0.221375	0.310209	-0.909469	3.1758	-6.89815	7.53191	0.00360741	0.014907	-0.0189204	-0.758301	0.782227	-0.480469	0.252691	-0.966959	-0.0330136	-0.00686433	0.37331	-4.51683	-8.00292	0.00909764	0.00397981	-0.0156035	0.422852	0.555908	1.06567	-0.212556	-0.177741	-0.315752	-0.907485	1.91964	6.74201	7.56215	0.00404029	0.00954312	0.00338159	-0.578857	-0.871338	-0.515625	-0.173421	-0.971273	-0.162621	-0.0104098	-0.00824128	3.51126	-9.08248	0.00105217	0.00423731	-0.00524448	0.473389	-0.399902	0.886963	
1	0.370881	0.427772	0.0967545	-0.818595	-8.1186	1.56371	6.49793	-0.0156462	-0.00653532	-0.00431418	0.777588	0.0810547	-0.952637	0.186376	0.0902454	0.00289911	-0.978321	-1.7913	0.272806	9.85639	-0.00995479	0.0387571	-0.0191638	-0.0324707	0.00341797	-1.00977	0.260012	0.957396	0.122691	-0.0270759	-0.787403	4.32385	-7.74451	0.031301	0.00142627	-0.0117401	0.385254	-0.274658	1.00586	-0.328553	0.608012	0.716954	-0.0913812	3.57476	-5.21302	-7.42611	0.0119563	0.0177389	-0.0153571	-0.430664	1.04468	0.49707	-0.191982	0.965725	0.173847	0.0171748	1.03021	-3.61102	-8.99481	0.0148016	0.000562623	-0.0213664	0.180664	0.690186	1.09497	0.81003	0.528823	-0.198048	-0.158035	1.72597	9.72309	3.83053	0.00520008	0.02253	-0.0428601	0.268066	-1.14844	-0.467773	0.158015	-0.128133	-0.0277111	-0.978696	2.69696	0.0517975	10.0927	0.00496043	0.0307826	-0.016786	-0.637207	0.00146484	-0.87793	0.166229	-0.221425	0.310069	-0.909503	3.21185	-6.92478	7.59457	0.021312	0.00989345	-0.0203784	-0.755859	0.777832	-0.482666	0.252643	-0.96697	-0.0330636	-0.00684121	0.375502	-4.52353	-8.05388	0.00579792	0.00280096	-0.01781	0.425049	0.555908	1.05884	-0.212509	-0.177814	-0.315827	-0.907456	1.92983	6.77366	7.60376	0.00697347	0.00880025	0.00669495	-0.581543	-0.862549	-0.513428	-0.173727	-0.971223	-0.162587	-0.0104805	-0.00655831	3.5345	-9.10658	-0.012381	0.00765999	-0.00434656	0.47998	-0.399902	0.88916	
2	0.371024	0.427674	0.096535	-0.818607	-8.10268	1.63047	6.49435	0.00357635	-0.00891016	0.00775128	0.775391	0.083252	-0.957031	0.186386	0.0906787	0.00256803	-0.97828	-1.80778	0.295988	9.92418	0.000421391	0.0345764	-0.0177822	-0.0283203	0.00366211	-1.00269	0.259758	0.957461	0.122718	-0.0271102	-0.736671	4.42079	-7.81121	0.0116602	0.00578715	-0.00831838	0.383057	-0.268066	1.00562	-0.328658	0.60783	0.717087	-0.0911738	3.63793	-5.24336	-7.48788	0.00396922	0.00635209	-0.00574016	-0.430664	1.04932	0.494873	-0.191864	0.965768	0.173745	0.0171402	0.978869	-3.55533	-9.07729	-0.019172	0.00702061	-0.00677701	0.185059	0.690186	1.104	0.810063	0.528818	-0.197734	-0.158274	1.70518	9.77971	3.8486	0.000513838	0.0172247	-0.0222976	0.266113	-1.15063	-0.467773	0.157859	-0.127744	-0.0265874	-0.978803	2.66286	0.152916	10.1524	-0.0362324	0.0431047	-0.0180851	-0.643555	-0.000732422	-0.88208	0.166314	-0.221638	0.309858	-0.909508	3.21722	-6.8146	7.46047	0.0133117	0.000790606	-0.0199643	-0.753906	0.780029	-0.482666	0.252378	-0.96704	-0.0330746	-0.00673737	0.334649	-4.49775	-8.00782	-0.00940183	0.00275561	-0.0180119	0.425049	0.555908	1.06323	-0.212605	-0.178109	-0.315475	-0.907498	1.94169	6.69177	7.59371	-0.0133374	-0.00755057	0.00842315	-0.574463	-0.869141	-0.508789	-0.17349	-0.971268	-0.162575	-0.0104058	0.00177826	3.52233	-9.10021	0.0174048	-0.000253104	-0.00690968	0.473389	-0.399902	0.88916	
3	0.370994	0.427736	0.0963801	-0.818607	-8.09363	1.72582	6.52707	0.00736239	-0.00464472	-0.000636759	0.772949	0.0852051	-0.946289	0.186281	0.0907208	0.00247209	-0.978296	-1.76338	0.361959	9.95392	0.00591834	0.0278278	-0.022521	-0.0324707	0.00146484	-1.00488	0.259706	0.957493	0.122568	-0.0271626	-0.802439	4.24701	-7.69467	-0.00206854	2.12699e-05	0.00999194	0.38501	-0.266113	1.00317	-0.328424	0.60804	0.716943	-0.091745	3.54872	-5.19328	-7.38033	0.0172697	-0.0202207	0.0227317	-0.432861	1.04688	0.499268	-0.190783	0.965941	0.17394	0.0174362	0.999505	-3.53553	-8.96924	-0.0449333	0.0058716	-0.0177242	0.180664	0.687988	1.10181	0.810283	0.528408	-0.197994	-0.158188	1.72061	9.69093	3.85724	-0.0137981	0.00756545	0.00418874	0.268066	-1.15063	-0.471924	0.157597	-0.127596	-0.0261125	-0.978877	2.72543	0.0816387	10.0745	-0.0034935	0.0287769	-0.0228456	-0.641602	0.00366211	-0.882324	0.166438	-0.221826	0.309875	-0.909434	3.23008	-6.85844	7.56069	0.00459177	0.00743416	-0.0143855	-0.755859	0.775635	-0.478027	0.252133	-0.967105	-0.0330599	-0.00665401	0.358457	-4.50085	-8.07029	0.00592072	-0.00186075	-0.0116031	0.425049	0.555908	1.06787	-0.212744	-0.178228	-0.314916	-0.907636	1.96758	6.70317	7.55317	-0.0193812	0.00259048	0.00534906	-0.574707	-0.866943	-0.510986	-0.173213	-0.971318	-0.162583	-0.0103087	-0.020096	3.51081	-9.10282	0.0117882	0.00576398	-0.00603067	0.477539	-0.395508	0.88916	
4	0.371071	0.427707	0.0965167	-0.81857	-8.12813	1.56557	6.4922	-0.0030418	-0.00141652	0.0010377	0.777832	0.0766602	-0.950439	0.186262	0.0908188	0.00252734	-0.97829	-1.78218	0.279608	9.89539	-0.0136409	0.0241297	-0.0193781	-0.034668	0.0012207	-1.00732	0.259758	0.957497	0.122425	-0.0271483	-0.760065	4.39796	-7.70796	-0.00158626	0.000948665	0.00888594	0.387207	-0.268311	1.01025	-0.328234	0.608409	0.716728	-0.0916643	3.52752	-5.20507	-7.53812	-0.00237892	0.00811592	0.0103424	-0.430664	1.04688	0.499268	-0.190725	0.965952	0.173936	0.017502	0.985797	-3.48657	-8.95915	-0.00563843	0.0111968	-0.0168834	0.180664	0.692383	1.09253	0.810386	0.528236	-0.198168	-0.158022	1.72955	9.69753	3.83931	-0.00773852	0.0105423	0.00688376	0.268066	-1.14844	-0.472168	0.157324	-0.127863	-0.0255436	-0.978901	2.68814	0.0616233	10.1893	-0.0140131	0.0131677	-0.0215669	-0.641602	0.00366211	-0.884277	0.166475	-0.221871	0.309843	-0.909426	3.24664	-6.9798	7.5372	0.00833421	0.0108209	-0.0155565	-0.758057	0.775635	-0.482666	0.252208	-0.967086	-0.0330361	-0.00659186	0.351797	-4.50613	-8.03369	0.0136096	0.000463245	-0.013248	0.429688	0.558105	1.06567	-0.212779	-0.178284	-0.314778	-0.907665	1.96509	6.70358	7.57198	-0.00798062	0.00398566	0.00612185	-0.579102	-0.864746	-0.508789	-0.173313	-0.971299	-0.162579	-0.0104341	-0.0116474	3.5051	-9.08794	-0.00874974	0.00981683	-0.00464408	0.478027	-0.404297	0.88916	
5	0.371077	0.427727	0.0963905	-0.818572	-8.11143	1.6796	6.49886	0.00894271	-0.00618561	0.00419849	0.775391	0.0810547	-0.948242	0.186183	0.0914465	0.00239283	-0.978247	-1.83426	0.345722	9.9171	0.0025013	0.034813	-0.0185553	-0.0280762	-0.000732422	-1.00244	0.259279	0.957622	0.122442	-0.0272627	-0.80243	4.50564	-7.8182	0.0186303	0.00154272	-0.00569254	0.383057	-0.268066	1.00342	-0.328367	0.608293	0.716749	-0.0917929	3.56429	-5.21319	-7.49157	0.019623	0.00499755	-0.00518892	-0.424072	1.04932	0.492676	-0.190875	0.965902	0.174078	0.0172135	1.03942	-3.48924	-9.09322	0.000315341	-0.00606506	-0.0190102	0.178711	0.687988	1.10181	0.810486	0.528064	-0.198088	-0.158182	1.74758	9.73763	3.85652	-0.00196276	0.0166816	-0.0286445	0.265869	-1.14844	-0.471924	0.157244	-0.128149	-0.0254367	-0.978879	2.65176	0.0571848	10.1823	0.0052795	-0.00653312	-0.0184859	-0.63501	0.00146484	-0.884277	0.166445	-0.22187	0.309763	-0.90946	3.16299	-6.85647	7.47603	0.00720202	0.0171201	-0.0177419	-0.755859	0.777832	-0.478027	0.252278	-0.96706	-0.0332464	-0.0067231	0.347272	-4.50774	-8.00979	0.00634998	0.00549775	-0.0178801	0.42749	0.555908	1.06567	-0.212756	-0.178268	-0.314881	-0.907637	1.90463	6.6536	7.57233	0.0115904	0.0145774	0.00376414	-0.576904	-0.864746	-0.508789	-0.173506	-0.971267	-0.162562	-0.0104529	-0.00886836	3.5006	-9.05859	-0.0127502	0.00472851	-0.00671914	0.471191	-0.402344	0.884766	
6	0.371072	0.427758	0.0965731	-0.818536	-8.06885	1.71545	6.48658	-0.0118724	0.00384385	-0.00369586	0.775635	0.0766602	-0.952637	0.186168	0.0915771	0.0023218	-0.978238	-1.74389	0.344132	9.95919	0.0011155	0.0249428	-0.0193046	-0.0280762	0.00146484	-1.00488	0.258869	0.957715	0.12258	-0.0272578	-0.809941	4.31655	-7.73587	0.0203721	0.0120587	-0.00447469	0.383057	-0.268066	1.00562	-0.3288	0.608017	0.716704	-0.0924173	3.57928	-5.18674	-7.44205	0.0462055	-0.00385501	-0.00221441	-0.433105	1.04907	0.494873	-0.190099	0.966007	0.174313	0.0175312	0.999457	-3.5119	-8.98483	-0.0316146	0.0118874	-0.030462	0.174316	0.687988	1.10181	0.810621	0.52786	-0.197712	-0.158642	1.72453	9.7214	3.84947	-0.020328	0.0159163	-0.0376307	0.270264	-1.14844	-0.469971	0.157015	-0.12846	-0.0245485	-0.978898	2.73944	0.0935196	10.224	-0.0304217	-0.00224599	-0.0182387	-0.643799	0.00585938	-0.882324	0.166439	-0.221846	0.30982	-0.909447	3.24526	-6.83148	7.54834	0.00557133	0.0176002	-0.0158681	-0.753662	0.777832	-0.484863	0.252008	-0.967131	-0.0332419	-0.00671604	0.373321	-4.4912	-8.04168	-0.000596505	0.00272021	-0.0127839	0.422852	0.555908	1.06787	-0.212711	-0.178117	-0.31521	-0.907563	1.94535	6.70132	7.56901	0.0142433	0.0203475	0.000313156	-0.576904	-0.866943	-0.506592	-0.173728	-0.971234	-0.16252	-0.0105303	-0.0313658	3.51253	-9.07725	-0.00394662	0.00935498	-0.00404252	0.473389	-0.4021	0.891602	
7	0.37109	0.427767	0.0967788	-0.8185	-8.08199	1.59272	6.49255	0.00139507	-0.00366859	-0.00331818	0.775635	0.0788574	-0.950439	0.186145	0.0916897	0.00238023	-0.978232	-1.77249	0.348392	9.96149	-0.000747619	0.024075	-0.0195716	-0.0283203	0.00341797	-1.00732	0.258967	0.957715	0.122403	-0.0271022	-0.811638	4.34536	-7.76978	0.00275273	0.00459454	0.00349062	0.383057	-0.268066	1.00781	-0.328923	0.608041	0.716642	-0.0922995	3.57893	-5.23329	-7.40002	0.00083644	0.00972483	0.000303128	-0.433105	1.04907	0.49707	-0.189801	0.966047	0.174386	0.0178363	0.971254	-3.52963	-9.03651	-0.010171	0.0176762	-0.0181903	0.180908	0.685791	1.104	0.810808	0.527572	-0.197713	-0.158646	1.72597	9.7355	3.87858	-0.0043245	0.0144159	-0.00495618	0.265869	-1.14624	-0.469971	0.156808	-0.1286	-0.0238066	-0.978931	2.75038	0.0859368	10.1216	-0.0234834	0.0118361	-0.0183437	-0.641846	0.00805664	-0.888672	0.166407	-0.221875	0.309977	-0.909392	3.28058	-6.92024	7.54811	-0.00242689	0.013342	-0.0188782	-0.756348	0.786621	-0.480469	0.252105	-0.967106	-0.0332255	-0.00663435	0.350282	-4.51929	-8.0833	0.0160092	0.00267005	-0.0159413	0.422607	0.558105	1.07007	-0.212618	-0.177868	-0.315679	-0.907471	1.93362	6.72474	7.57898	0.0195306	0.0224089	0.000279833	-0.579102	-0.864746	-0.513428	-0.173948	-0.971194	-0.162515	-0.0106172	-0.0029281	3.52057	-9.05286	-0.00592887	0.00653821	-0.00522689	0.471191	-0.406738	0.88916	
8	0.370941	0.4279	0.0967737	-0.818498	-8.14089	1.63175	6.49651	0.00423589	0.00352602	-0.0131699	0.773193	0.083252	-0.952637	0.186034	0.0915601	0.00231448	-0.978265	-1.84856	0.346655	9.99972	-0.0120524	0.00844534	-0.0222887	-0.0283203	0.00561523	-1.00732	0.258838	0.957756	0.122354	-0.0271099	-0.777578	4.34364	-7.7731	-0.00297952	-0.00162965	0.000579849	0.387207	-0.266113	1.00562	-0.32878	0.608222	0.716547	-0.0923648	3.59486	-5.2255	-7.44358	-0.000254879	-0.00305504	0.0155958	-0.433105	1.04907	0.494873	-0.189275	0.966155	0.174341	0.0180277	0.999904	-3.48804	-8.97867	-0.0238178	0.016997	-0.017682	0.182861	0.687988	1.1062	0.810777	0.527575	-0.197957	-0.158487	1.72178	9.73544	3.86419	0.00686941	0.00788305	-0.000192703	0.257324	-1.15063	-0.469727	0.156495	-0.128562	-0.022975	-0.979006	2.72039	-0.00812836	10.0846	-0.0158861	0.0218983	-0.0238616	-0.639648	0.00585938	-0.888672	0.166498	-0.22179	0.310354	-0.909268	3.22824	-6.83637	7.53969	-0.00546598	0.0202246	-0.00836742	-0.753906	0.780029	-0.480225	0.25213	-0.967094	-0.0333767	-0.00678824	0.340292	-4.49502	-8.02028	0.00769429	0.00848061	-0.0256488	0.420654	0.553467	1.07007	-0.21253	-0.177829	-0.31584	-0.907443	1.90809	6.71097	7.55906	0.0069485	0.0121522	0.00494163	-0.570068	-0.866943	-0.510986	-0.174089	-0.971175	-0.162478	-0.0106733	-0.0144763	3.51772	-9.08616	-0.00895414	0.00732195	-0.00392807	0.477783	-0.399902	0.884521	
9	0.370868	0.427761	0.0970889	-0.818566	-8.09345	1.67732	6.50606	-0.0184708	-0.00429242	0.0051893	0.773193	0.083252	-0.950439	0.185939	0.0914958	0.00193938	-0.97829	-1.84306	0.283737	9.93689	3.13649e-05	0.0119101	-0.020282	-0.0280762	0.00146484	-1.00488	0.258827	0.957764	0.122299	-0.0272113	-0.750458	4.44083	-7.76894	0.0196066	-0.00119061	-0.0118399	0.387207	-0.268311	1.00781	-0.328705	0.608301	0.716501	-0.0924647	3.51425	-5.22062	-7.50953	-0.0087979	-0.00222325	0.0066288	-0.426025	1.04492	0.499268	-0.188309	0.966374	0.174146	0.0183026	0.975489	-3.52671	-9.02212	-0.0419972	0.0111606	-0.00321218	0.180908	0.683594	1.10181	0.810598	0.527847	-0.198311	-0.158055	1.76525	9.73186	3.85519	0.0290279	0.0130675	-0.00298672	0.266113	-1.15063	-0.467773	0.156156	-0.128853	-0.0221992	-0.97904	2.69832	0.0538211	10.1832	-0.00501407	0.00414885	-0.0241794	-0.644043	0.0078125	-0.878174	0.166878	-0.221696	0.311115	-0.908961	3.24535	-6.89237	7.57067	-0.0280606	0.015477	0.0153397	-0.753906	0.782227	-0.480469	0.252286	-0.967041	-0.0336797	-0.007061	0.344637	-4.52165	-8.05306	0.0116302	0.0136099	-0.0325548	0.420654	0.553467	1.05884	-0.212283	-0.177779	-0.316048	-0.907438	1.93515	6.67202	7.57978	0.0101424	0.011923	0.00928243	-0.570312	-0.864746	-0.51123	-0.174032	-0.971176	-0.162537	-0.0105398	-0.0198751	3.54504	-9.08268	0.00495862	-0.0031848	-0.00860195	0.473145	-0.397705	0.884521	
10	0.371184	0.427896	0.0967322	-0.818395	-8.09673	1.56668	6.53622	0.0249789	-0.00330182	0.0254662	0.773193	0.0810547	-0.954834	0.185654	0.0911618	0.000749433	-0.978377	-1.84532	0.296252	9.84813	0.0330273	-0.015767	-0.0221602	-0.0302734	-0.000732422	-1.00708	0.258482	0.957788	0.122736	-0.0276589	-0.788655	4.19778	-7.75814	0.00234602	-0.00295461	-0.0171863	0.378662	-0.265869	1.00562	-0.328656	0.608203	0.716545	-0.092935	3.59529	-5.2359	-7.40082	0.0139181	-0.00759957	0.00174606	-0.430664	1.04712	0.492676	-0.187672	0.966494	0.174193	0.018054	0.981099	-3.53238	-9.08743	-0.0171085	-0.014442	-0.0205345	0.183105	0.685791	1.10864	0.810357	0.528192	-0.198432	-0.157985	1.71846	9.72531	3.85639	0.0130042	0.0129599	-0.0086866	0.265869	-1.14624	-0.467773	0.155515	-0.128763	-0.0218277	-0.979162	2.65724	-0.0565354	10.1634	-0.00358948	0.00665239	-0.0399693	-0.641846	0.00805664	-0.886719	0.167704	-0.221488	0.312304	-0.908452	3.19476	-6.87925	7.48965	-0.0319417	0.0183961	0.0298678	-0.756104	0.784424	-0.482666	0.25271	-0.966907	-0.0342215	-0.00750639	0.382694	-4.51215	-8.01475	0.0297178	0.016284	-0.0408993	0.42041	0.555908	1.06567	-0.212139	-0.177743	-0.316296	-0.907393	1.94205	6.72044	7.56638	0.0116893	0.0174265	0.00506172	-0.574707	-0.866943	-0.513428	-0.173902	-0.971187	-0.162619	-0.0104457	-0.0211134	3.54202	-9.08385	0.0127847	0.00464693	-0.00786651	0.477783	-0.399902	0.884521	
11	0.371411	0.428159	0.096216	-0.818215	-8.12118	1.66933	6.45607	0.0121537	-0.00184013	0.0169843	0.775635	0.0766602	-0.952637	0.185437	0.091003	-0.000258614	-0.978433	-1.7897	0.297071	9.71819	0.0226067	0.00455697	-0.019685	-0.0322266	-0.00292969	-1.00708	0.258588	0.957759	0.122737	-0.0276704	-0.710291	4.25551	-7.66855	-0.00630833	0.00056221	-0.00316564	0.38501	-0.266113	1.01245	-0.327941	0.608833	0.716314	-0.0931191	3.5678	-5.23401	-7.45317	-0.0203635	-0.0150205	0.0271848	-0.424316	1.05151	0.494873	-0.186713	0.966684	0.174142	0.0183154	1.0385	-3.39263	-9.08245	-0.0692354	0.0168962	-0.0157959	0.178955	0.679199	1.11084	0.810346	0.528151	-0.199385	-0.156978	1.75805	9.73351	3.82453	0.0227304	0.00572754	0.0503335	0.263916	-1.15503	-0.469727	0.154799	-0.129458	-0.0207813	-0.979207	2.71956	-0.0658785	10.1655	-0.0602357	0.0257946	-0.0357348	-0.639648	0.00805664	-0.882324	0.168146	-0.221112	0.313154	-0.908169	3.08829	-6.8786	7.45482	-0.0267336	0.0275943	0.00699129	-0.749756	0.784424	-0.47583	0.25319	-0.966773	-0.0344634	-0.00756195	0.418122	-4.49295	-7.9485	0.0204781	-3.93089e-05	-0.0192954	0.418213	0.55127	1.06567	-0.212156	-0.177501	-0.316658	-0.90731	1.9556	6.67594	7.59525	0.0156885	0.0230632	-0.00516959	-0.574463	-0.871338	-0.506348	-0.173703	-0.971225	-0.162598	-0.0105386	-0.0189645	3.51734	-9.09741	0.00125	0.0119618	-0.00521952	0.475342	-0.393311	0.882324	
12	0.371705	0.428311	0.0955203	-0.818083	-8.16036	1.69885	6.4926	0.0179273	-0.00890429	0.0294938	0.775635	0.0788574	-0.950439	0.18549	0.0909546	-0.000699774	-0.978427	-1.83521	0.488382	10.0631	0.022682	0.00518571	-0.0102136	-0.0302734	-0.000732422	-1.00488	0.259268	0.9576	0.122539	-0.0276928	-0.819781	4.3679	-7.77699	-0.0262508	-0.00526943	0.00650765	0.383057	-0.268066	1.00342	-0.326992	0.609471	0.716142	-0.093603	3.48622	-5.17993	-7.55085	0.000437673	-0.0324271	0.032329	-0.424072	1.04932	0.49707	-0.185589	0.966896	0.174154	0.0184359	1.00234	-3.46389	-9.11633	-0.0915569	-0.000214537	-0.0178319	0.181152	0.677002	1.11304	0.810343	0.528159	-0.199784	-0.156456	1.7924	9.72168	3.83037	0.0165029	0.0108587	0.034973	0.261719	-1.15063	-0.467773	0.154579	-0.12962	-0.020092	-0.979235	2.8336	-0.0476866	9.94237	-0.00736435	0.109875	-0.0165608	-0.639648	0.0100098	-0.882324	0.168099	-0.2209	0.313384	-0.90815	3.09163	-7.03231	7.40472	-0.00906738	0.0348132	-0.0108018	-0.749512	0.780029	-0.478027	0.252901	-0.966853	-0.0343763	-0.00742518	0.386612	-4.50878	-7.93015	-0.0157769	-0.00540742	-0.00702846	0.422852	0.555908	1.06567	-0.212215	-0.177442	-0.31695	-0.907206	1.85928	6.69729	7.57876	0.023998	0.0174791	-0.00671708	-0.574463	-0.869141	-0.506348	-0.174001	-0.97117	-0.162605	-0.0106166	-0.0182352	3.52512	-9.08841	-0.022275	0.0071558	-0.00427555	0.475586	-0.4021	0.886963	
13	0.372236	0.428211	0.0951333	-0.817939	-8.0705	1.79825	6.46924	-0.0109889	-0.00788249	0.0248173	0.775879	0.0744629	-0.948242	0.185633	0.0904795	-0.00120158	-0.978444	-1.77441	0.361478	10.0143	0.0149392	-0.00973784	-0.0132055	-0.0256348	-0.00732422	-1.00708	0.260014	0.957377	0.122643	-0.0279369	-0.777124	4.26948	-7.72019	-0.0313732	-0.000354205	-0.00826976	0.389404	-0.270508	1.00122	-0.32682	0.609452	0.716162	-0.0941732	3.51406	-5.21216	-7.39264	-0.00118369	-0.00121808	-0.00240137	-0.424316	1.05151	0.499268	-0.184964	0.966963	0.174474	0.0181788	1.05449	-3.41023	-8.96127	-0.0225628	-0.0133056	-0.0187201	0.183594	0.67041	1.1062	0.810598	0.527871	-0.19984	-0.156036	1.77389	9.70901	3.83825	-0.0230531	0.0246269	-0.00712382	0.25708	-1.14624	-0.472168	0.154337	-0.129463	-0.0194159	-0.979307	2.70472	0.00291043	10.3673	-0.0103326	0.00508813	-0.0195666	-0.639648	0.0102539	-0.886719	0.167955	-0.220751	0.313087	-0.908315	3.14676	-6.94974	7.58692	0.0242295	0.0142296	-0.0240812	-0.751953	0.784424	-0.480469	0.251091	-0.967317	-0.0345959	-0.00738323	0.398837	-4.49419	-8.03481	-0.0357788	-0.00763153	-0.0102644	0.420654	0.55127	1.06787	-0.212378	-0.177586	-0.317342	-0.907002	1.8903	6.75258	7.55168	0.00686297	0.00177815	0.00325409	-0.574707	-0.866943	-0.510986	-0.175457	-0.970919	-0.162512	-0.0109847	-0.0185807	3.55325	-9.05744	-0.0251913	0.00961043	-0.00344842	0.475586	-0.4021	0.884766	
14	0.372486	0.428119	0.0951448	-0.817873	-8.15707	1.67285	6.49754	-0.0121272	-0.00886101	0.0167824	0.780273	0.0722656	-0.948242	0.18576	0.0904913	-0.00171367	-0.978418	-1.82602	0.509326	10.008	-0.000492666	0.00076656	-0.0118864	-0.0300293	-0.00292969	-1	0.260331	0.957281	0.122725	-0.0279141	-0.698807	4.39608	-7.86289	0.00332321	0.00643472	-0.00461765	0.38501	-0.268066	1.00098	-0.326815	0.609517	0.716087	-0.094342	3.62941	-5.24082	-7.58087	0.0109647	-0.00112627	0.0118318	-0.421875	1.04712	0.499268	-0.185095	0.966851	0.174948	0.0182263	1.02106	-3.39685	-9.06886	0.00596396	0.00294916	-0.0276344	0.18335	0.677002	1.10864	0.810822	0.527548	-0.199831	-0.155975	1.80994	9.76728	3.85679	-0.0261411	0.0195322	-0.00353488	0.259521	-1.15283	-0.471924	0.154255	-0.129865	-0.0189194	-0.979277	2.69212	0.064696	10.2847	-0.0268869	-0.0113951	-0.0145512	-0.639648	0.0102539	-0.884521	0.167936	-0.22098	0.312581	-0.908437	3.18968	-6.89011	7.49703	0.022426	0.00259441	-0.0249291	-0.749512	0.782227	-0.478027	0.250656	-0.967433	-0.0345408	-0.00723994	0.358627	-4.49882	-8.04045	-0.0281477	-0.00679798	-0.00923257	0.423096	0.549072	1.06787	-0.21248	-0.177716	-0.317279	-0.906975	1.9208	6.69125	7.55766	-0.00064094	-0.0029432	0.000643265	-0.569824	-0.873535	-0.508545	-0.175512	-0.97091	-0.162506	-0.0110499	-0.00464785	3.56251	-9.05872	-0.00248538	0.00951587	-0.00438988	0.477783	-0.399902	0.882324	
15	0.372583	0.428256	0.0947479	-0.817803	-8.08318	1.81079	6.51164	0.0202652	-0.00309158	0.00846544	0.776123	0.0700684	-0.952393	0.185797	0.0900889	-0.00205401	-0.978447	-1.7274	0.539112	9.97858	-0.000592393	-0.00350774	-0.0163032	-0.0344238	-0.00512695	-1.00464	0.260839	0.957161	0.122605	-0.0278059	-0.79138	4.4639	-7.68553	-0.0138567	0.00294149	0.00231602	0.387207	-0.270264	0.998779	-0.326831	0.60956	0.71599	-0.0947424	3.49837	-5.25717	-7.41945	-0.00637004	-0.00104444	0.0133145	-0.421875	1.04932	0.494873	-0.184791	0.966899	0.175002	0.0182341	0.911139	-3.38695	-8.99459	-0.00958988	0.00755309	-0.00859016	0.183594	0.672607	1.11548	0.811211	0.526936	-0.19998	-0.155833	1.79458	9.70762	3.88241	-0.0106753	0.0127533	0.00293851	0.261963	-1.15503	-0.471924	0.154082	-0.130354	-0.0183648	-0.979249	2.73895	0.0469917	10.1251	-0.00680264	-0.0115391	-0.0160527	-0.64209	0.0166016	-0.882568	0.168085	-0.221227	0.311951	-0.908566	3.22887	-6.9424	7.55594	0.0358298	-0.000958878	-0.018389	-0.749756	0.784424	-0.478027	0.250245	-0.967539	-0.0345437	-0.00718718	0.363009	-4.48035	-8.0468	-0.026237	-0.000863188	-0.0160349	0.420654	0.548828	1.07227	-0.212704	-0.17787	-0.316963	-0.907003	1.91758	6.773	7.55935	-0.0123177	-0.000624441	0.000990358	-0.574463	-0.869141	-0.510986	-0.175393	-0.970931	-0.162515	-0.0109283	-0.034585	3.55789	-9.06184	0.0119235	0.000305949	-0.007572	0.475586	-0.4021	0.88916	
16	0.372485	0.428174	0.0949984	-0.817862	-8.10399	1.75504	6.53454	-0.0112029	-0.00248552	-0.0125795	0.773438	0.0766602	-0.948242	0.185569	0.0898973	-0.00180496	-0.978509	-1.70883	0.478233	9.95043	-0.015668	0.00185024	-0.0191596	-0.0322266	-0.00732422	-1	0.260647	0.95723	0.122472	-0.0278404	-0.883607	4.44964	-7.66332	-0.0104886	0.00303127	0.0091604	0.385254	-0.272461	1.00586	-0.326696	0.609703	0.715943	-0.0946398	3.43715	-5.24056	-7.44214	0.00235632	0.000997696	0.00101151	-0.424072	1.04932	0.501465	-0.184351	0.966997	0.1749	0.018466	0.964394	-3.37347	-9.03514	-0.0121749	0.00742251	-0.0204099	0.181396	0.67041	1.11304	0.811207	0.526909	-0.200119	-0.155761	1.79736	9.69227	3.85839	0.00760266	0.0124738	-0.0195113	0.255127	-1.14844	-0.476318	0.153968	-0.130529	-0.0181387	-0.979248	2.80255	-0.0843348	10.1864	0.018266	0.0100881	-0.0143531	-0.641846	0.0100098	-0.884521	0.168277	-0.221639	0.311296	-0.908655	3.23043	-6.80689	7.52229	0.0182159	0.000255301	-0.0192006	-0.747314	0.782227	-0.480469	0.24986	-0.967629	-0.0348005	-0.00731048	0.359238	-4.47528	-8.0815	0.0231131	0.00708888	-0.0200031	0.420654	0.55127	1.06128	-0.212766	-0.178023	-0.316608	-0.907082	1.93099	6.75232	7.52212	-0.00619904	0.00511884	0.00973255	-0.57666	-0.873535	-0.513184	-0.175145	-0.970977	-0.16251	-0.0109167	-0.0201609	3.55272	-9.07478	0.0104125	0.00592172	-0.00617542	0.475586	-0.399902	0.886963	
17	0.37213	0.428109	0.0954772	-0.818001	-8.11686	1.74872	6.51758	-0.0108472	0.00339678	-0.0283068	0.777588	0.0810547	-0.957031	0.18555	0.0897139	-0.00154833	-0.97853	-1.79077	0.439264	10.0184	-0.0139313	0.00747106	-0.0226268	-0.0344238	-0.00512695	-1.00464	0.26014	0.957375	0.122431	-0.0277741	-0.858609	4.55724	-7.85337	0.0531052	0.0138072	-0.00873197	0.387451	-0.270508	1.01025	-0.326856	0.609651	0.716021	-0.0938368	3.53083	-5.22827	-7.48904	-0.0220496	0.0388976	-0.0210799	-0.426025	1.04492	0.49707	-0.185211	0.966871	0.174698	0.0183734	1.01533	-3.3821	-9.02651	0.0362177	0.020065	-0.0083804	0.178955	0.679199	1.10864	0.810808	0.527504	-0.19992	-0.156081	1.79168	9.74839	3.84541	0.0264462	0.0150903	-0.036655	0.253174	-1.15283	-0.471924	0.153961	-0.131639	-0.0178208	-0.979107	2.69849	-0.106518	10.5023	0.00997701	-0.061944	-0.0121548	-0.648438	0.0100098	-0.878174	0.168296	-0.221808	0.311593	-0.908508	3.18231	-6.86675	7.44482	-0.0142256	0.0148116	-0.0114228	-0.751953	0.786621	-0.480469	0.250301	-0.967514	-0.0348096	-0.00730549	0.373756	-4.45532	-8.01886	0.0429618	0.00602331	-0.0169598	0.423096	0.548828	1.07007	-0.212664	-0.177912	-0.316453	-0.907182	1.8975	6.70832	7.53378	-0.00152143	0.0167381	0.00852914	-0.574463	-0.871338	-0.513184	-0.175141	-0.970976	-0.162518	-0.0109573	-0.019045	3.55126	-9.07536	0.00249831	0.00825084	-0.00490206	0.475586	-0.399902	0.88916	
18	0.371601	0.428098	0.0959985	-0.818186	-8.10983	1.75545	6.51525	-0.00627962	0.00254469	-0.0272188	0.770996	0.083252	-0.954834	0.185655	0.0891943	-0.000613857	-0.978558	-1.7718	0.408039	9.99158	-0.0563408	0.00970787	-0.0166873	-0.034668	-0.000732422	-1.00244	0.259876	0.957431	0.122559	-0.0277587	-0.770284	4.33534	-7.6608	0.0109454	0.0093832	-0.00466668	0.380859	-0.268066	1.01025	-0.327265	0.609284	0.716233	-0.0931701	3.50908	-5.21283	-7.42909	0.00159743	0.0273821	-0.0241628	-0.421875	1.05151	0.49707	-0.186026	0.966723	0.174685	0.0180523	1.0369	-3.42817	-9.00114	0.0518305	-0.00891469	-0.00742377	0.178955	0.677002	1.11304	0.810247	0.528343	-0.199716	-0.156419	1.77231	9.69429	3.84371	0.0424755	0.0171394	-0.0443967	0.263916	-1.15283	-0.469727	0.154227	-0.134097	-0.0189353	-0.97871	2.80599	-0.065881	10.2182	0.0493705	-0.0919845	-0.000522298	-0.650879	0.0187988	-0.878418	0.168435	-0.221563	0.311986	-0.908408	3.18204	-6.90227	7.5054	-0.00278641	0.0260626	-0.00466918	-0.751709	0.784424	-0.47583	0.251332	-0.967231	-0.0352039	-0.00756729	0.38849	-4.48546	-8.0094	0.0207679	0.00948346	-0.0251805	0.425293	0.549072	1.06348	-0.212636	-0.177669	-0.316733	-0.907138	1.97077	6.68166	7.59489	0.0179525	0.0248624	-0.00185174	-0.572266	-0.869141	-0.508789	-0.174737	-0.971034	-0.162602	-0.0109881	-0.0125737	3.54615	-9.0758	0.0172374	0.0067772	-0.00484283	0.482178	-0.399902	0.884521	
19	0.371323	0.42783	0.0966866	-0.818372	-8.13123	1.68148	6.50523	-0.0208897	-0.0088109	-0.0233227	0.777588	0.083252	-0.952637	0.185729	0.0890297	0.000144704	-0.978559	-1.767	0.310445	9.98847	-0.038656	0.0203723	-0.0189929	-0.0324707	0.00146484	-1.00244	0.259338	0.957557	0.122718	-0.0277269	-0.776754	4.32328	-7.72342	0.0453969	0.013178	-0.0132388	0.385254	-0.268311	1.00781	-0.327964	0.608777	0.716455	-0.09232	3.55645	-5.21076	-7.51723	0.00738949	0.0379466	-0.0387532	-0.428467	1.04932	0.494873	-0.186916	0.96656	0.174659	0.0178308	1.00518	-3.42793	-8.95184	0.0746581	0.00241311	-0.0121994	0.178955	0.679199	1.104	0.809737	0.529166	-0.199244	-0.156875	1.7702	9.75111	3.81792	0.0243528	0.0227379	-0.0518149	0.261719	-1.15283	-0.471924	0.154609	-0.135884	-0.0203372	-0.978375	2.86131	-0.166875	10.1895	0.0759284	-0.0556878	-0.00534208	-0.650391	0.0100098	-0.875977	0.168433	-0.221457	0.312215	-0.908355	3.15409	-6.86434	7.55813	-0.0103999	0.0254426	-0.00974476	-0.758545	0.786621	-0.485107	0.251369	-0.967223	-0.0351777	-0.00750601	0.371316	-4.48046	-8.02435	0.00452931	0.000599274	-0.0121141	0.417969	0.558105	1.05884	-0.212607	-0.177344	-0.31713	-0.90707	1.86514	6.77653	7.57952	0.0111216	0.0231252	-0.000494585	-0.574463	-0.871338	-0.510986	-0.174696	-0.971036	-0.162634	-0.0110071	-0.0281698	3.54046	-9.06869	0.000191927	0.00841773	-0.00381606	0.473389	-0.399902	0.891357	
20	0.371349	0.427575	0.097168	-0.818436	-8.11787	1.63793	6.46851	-0.0197161	-0.00078667	-0.00545	0.775391	0.083252	-0.952637	0.185829	0.0890696	0.000491378	-0.978537	-1.79083	0.330277	9.98564	-0.037717	0.0236236	-0.0123159	-0.0324707	-0.000732422	-1.00244	0.259178	0.957568	0.122956	-0.027787	-0.722547	4.28316	-7.73702	-0.0111685	0.00232134	-0.00813815	0.389404	-0.270508	1.00562	-0.328374	0.608344	0.716671	-0.0920361	3.62441	-5.22173	-7.48757	0.0133683	0.0157231	-0.0178997	-0.430664	1.04907	0.499268	-0.18821	0.966224	0.17516	0.017515	1.03178	-3.48562	-9.09753	0.0550187	-0.00326449	-0.0264407	0.183105	0.685791	1.10864	0.80955	0.529482	-0.19875	-0.157406	1.73941	9.73641	3.82107	0.00180615	0.0187366	-0.0408579	0.265869	-1.14844	-0.461426	0.155011	-0.136526	-0.0213406	-0.978201	2.83021	-0.0269953	10.1855	0.0544108	-0.013762	-0.00539346	-0.650635	0.012207	-0.875977	0.168169	-0.221286	0.312198	-0.908451	3.16203	-6.96212	7.49708	0.00354893	0.017826	-0.0165492	-0.753906	0.784424	-0.480469	0.251139	-0.96728	-0.0352402	-0.00750824	0.383279	-4.48021	-8.01745	-0.00621136	0.00491652	-0.0204221	0.423096	0.55127	1.06787	-0.212642	-0.177339	-0.317142	-0.907059	1.89926	6.70416	7.56078	0.00203839	0.00710075	0.00399582	-0.579102	-0.869141	-0.506592	-0.174586	-0.971054	-0.162639	-0.0110229	-0.0137884	3.54455	-9.072	0.0101258	0.00644329	-0.00453155	0.473633	-0.406738	0.880127	
21	0.371335	0.427676	0.0969616	-0.818414	-8.05614	1.59748	6.51089	0.0177977	-0.00200065	0.00855132	0.775391	0.0810547	-0.948242	0.185973	0.0889513	0.00047768	-0.97852	-1.76799	0.354512	9.97902	0.00217023	0.00845911	-0.0108385	-0.0324707	0.00366211	-1.00024	0.259253	0.957536	0.123089	-0.0276147	-0.803822	4.31931	-7.71302	-0.0133295	0.00393388	-0.00192746	0.391602	-0.270508	1.00806	-0.328307	0.608263	0.716783	-0.0919391	3.60066	-5.23349	-7.46718	-0.00918198	-0.00149931	0.00133914	-0.430908	1.05151	0.492676	-0.188319	0.966188	0.175247	0.0174734	0.976302	-3.52334	-9.10136	-0.0152167	0.00147794	-0.0149769	0.185303	0.683594	1.09937	0.8098	0.529093	-0.198745	-0.157433	1.74086	9.75016	3.83516	-0.0129123	0.0135886	-0.000865886	0.266113	-1.15283	-0.467529	0.155348	-0.136476	-0.0232061	-0.978112	2.90023	0.00729038	10.0042	0.0991989	0.0305325	-0.0112504	-0.652588	0.0078125	-0.871826	0.167998	-0.221293	0.312163	-0.908494	3.19864	-6.89748	7.49418	-0.00853483	0.00959753	-0.0168452	-0.758301	0.784424	-0.478027	0.250935	-0.967335	-0.0352289	-0.00738853	0.363164	-4.49085	-8.03563	0.000394207	0.000383091	-0.0147719	0.418457	0.551025	1.07227	-0.212655	-0.17741	-0.317189	-0.907025	1.95648	6.72823	7.56621	0.00548292	0.0098317	0.00363763	-0.565674	-0.869141	-0.513184	-0.174547	-0.971073	-0.162574	-0.010997	-0.0167966	3.54051	-9.09669	0.00254288	0.00577949	-0.00554302	0.475586	-0.4021	0.88916	
22	0.371372	0.427884	0.0967229	-0.818317	-8.09829	1.69131	6.51534	0.0202639	0.00603077	0.0148029	0.777588	0.0810547	-0.952637	0.185986	0.0889056	0.000234527	-0.978522	-1.6973	0.30251	9.91009	0.0079545	0.00801566	-0.0154151	-0.0368652	0.00341797	-1.00488	0.259609	0.957454	0.122977	-0.0275953	-0.74934	4.32493	-7.68426	-0.0264364	-0.00069872	0.00591156	0.387207	-0.268311	1.00562	-0.328059	0.608397	0.716758	-0.092138	3.57763	-5.2117	-7.42863	-0.00190615	-0.0175532	0.0158177	-0.433105	1.04907	0.499268	-0.188143	0.966236	0.175169	0.0174896	0.961067	-3.4594	-9.0283	-0.0150735	0.00760215	-0.00991837	0.183105	0.685791	1.104	0.809838	0.529016	-0.198916	-0.157283	1.72851	9.69919	3.82711	0.000544507	0.00971078	0.00312988	0.261963	-1.15503	-0.465332	0.155508	-0.136622	-0.0246795	-0.97803	2.85704	-0.0197183	10.114	0.0741434	-0.0122023	-0.0160967	-0.654297	-0.000732422	-0.869385	0.167966	-0.221376	0.312227	-0.908457	3.24413	-6.9829	7.51102	-0.00109099	0.0105122	-0.0193187	-0.749756	0.788574	-0.478271	0.250851	-0.967355	-0.0352545	-0.00738098	0.376149	-4.49616	-8.07404	-0.000392183	0.00392765	-0.0181455	0.425293	0.55127	1.06567	-0.212662	-0.17738	-0.317219	-0.907019	1.93464	6.69751	7.55116	0.00432201	0.0125693	0.00330581	-0.574463	-0.869141	-0.508789	-0.174524	-0.97108	-0.162554	-0.011012	-0.00937441	3.52997	-9.08966	0.00442488	0.00639036	-0.00416945	0.477539	-0.395508	0.886719	
23	0.371488	0.428042	0.0960793	-0.818258	-8.10172	1.68768	6.49384	0.0228962	-0.00704681	0.0193514	0.777588	0.0810547	-0.952637	0.186029	0.088758	-0.000464213	-0.978527	-1.77777	0.446798	9.98706	0.00659957	0.0275195	-0.016071	-0.0322266	-0.00292969	-1.00464	0.260224	0.957307	0.122831	-0.027545	-0.811482	4.39552	-7.78047	-0.021479	-0.000795649	0.00310521	0.389404	-0.268311	1.00781	-0.327306	0.608793	0.716772	-0.0920872	3.53913	-5.20608	-7.50132	-0.0157746	-0.0189469	0.0131678	-0.42627	1.04932	0.494873	-0.187658	0.966334	0.175169	0.0172727	0.989458	-3.47259	-8.98413	-0.00722854	-0.0174325	-0.012806	0.185791	0.674805	1.10181	0.80987	0.528975	-0.199288	-0.156778	1.75866	9.73303	3.8329	0.0145618	0.0148319	0.00696076	0.263916	-1.15063	-0.463379	0.155508	-0.136622	-0.0246795	-0.97803	2.85704	-0.0197183	10.114	0.0741434	-0.0122023	-0.0160967	-0.654297	-0.000732422	-0.869385	0.168075	-0.22118	0.312197	-0.908495	3.1625	-6.8434	7.49461	0.00812926	0.0223042	-0.00974159	-0.749756	0.784424	-0.480469	0.250932	-0.967333	-0.0352912	-0.00738341	0.370238	-4.46632	-8.01839	0.014243	0.00478112	-0.0167084	0.423096	0.55127	1.06348	-0.21268	-0.177349	-0.317371	-0.906968	1.91255	6.72871	7.55234	0.00694104	0.0112944	0.00100685	-0.57666	-0.869141	-0.510986	-0.174644	-0.971053	-0.162582	-0.0110506	-0.0094644	3.54088	-9.07344	-0.00383004	0.00386539	-0.00561386	0.475586	-0.4021	0.886963	
24	0.371556	0.42804	0.0958833	-0.818251	-8.13861	1.74323	6.50508	-0.00251728	-0.00995071	0.000179471	0.773682	0.0744629	-0.954834	0.186079	0.0884244	-0.000531939	-0.978548	-1.73405	0.398864	9.96865	-0.0356974	-0.0220761	-0.0136673	-0.034668	-0.000732422	-0.997803	0.260947	0.957112	0.12284	-0.0274557	-0.857679	4.35018	-7.86563	-0.0294004	0.000899371	-0.00507335	0.383057	-0.274658	1.00342	-0.326716	0.609179	0.716739	-0.0918796	3.55531	-5.20274	-7.55272	-0.0224447	-0.00109211	0.00939802	-0.428467	1.04907	0.501465	-0.187276	0.966435	0.175009	0.0173873	0.993679	-3.42056	-9.04096	-0.0263229	0.0175744	-0.0159779	0.185547	0.679199	1.1062	0.809889	0.528936	-0.199709	-0.156279	1.77247	9.75983	3.8203	0.000656345	0.0103154	0.00947786	0.263916	-1.15283	-0.463379	0.155534	-0.135216	-0.0273584	-0.97815	2.94616	0.0841482	10.1232	0.0732991	0.059663	-0.00864545	-0.656494	-0.000732422	-0.87793	0.168251	-0.22123	0.31214	-0.90847	3.22876	-6.9995	7.51937	0.00965341	0.0104009	-0.0130053	-0.751709	0.784424	-0.478027	0.250632	-0.967409	-0.0353303	-0.00735697	0.373619	-4.49806	-8.08609	-0.00976774	0.00325265	-0.0184822	0.423096	0.546631	1.06348	-0.212736	-0.177296	-0.317304	-0.906988	1.92337	6.73112	7.56101	-0.00533907	0.00979342	0.00261522	-0.567871	-0.866943	-0.508789	-0.174486	-0.971088	-0.162545	-0.0110705	-0.002662	3.53582	-9.0954	0.0123708	0.00875102	-0.00498082	0.475586	-0.4021	0.886963	
25	0.371733	0.427914	0.0959372	-0.81823	-8.08834	1.68521	6.523	-0.00984441	-0.00494047	0.00218109	0.775635	0.0766602	-0.948242	0.186149	0.0887339	-0.000656488	-0.978506	-1.74199	0.383825	9.97049	-0.0153952	0.0222287	-0.0139897	-0.0324707	0.00146484	-1.00488	0.261594	0.956939	0.122789	-0.0275488	-0.738021	4.46559	-7.66179	-0.0202816	-0.00192532	-0.00318951	0.387207	-0.268311	1.00098	-0.326488	0.609214	0.716809	-0.0919161	3.53908	-5.1788	-7.40529	-0.0151316	0.00914694	-0.00222514	-0.42627	1.04907	0.503662	-0.187593	0.966389	0.174955	0.0171061	0.961326	-3.42781	-9.03597	0.0164562	0.004424	-0.00738766	0.183105	0.683594	1.1062	0.809844	0.528997	-0.199852	-0.156121	1.78493	9.6706	3.83632	0.0122826	0.0106963	-0.00115413	0.261719	-1.15283	-0.467529	0.155983	-0.133823	-0.0290915	-0.97822	2.84297	0.169219	10.1021	0.087768	0.0528716	-0.00950597	-0.6521	-0.00292969	-0.87793	0.168232	-0.22121	0.312284	-0.908429	3.16119	-6.90794	7.51382	-0.000662097	0.0158613	-0.0164291	-0.753906	0.784424	-0.478027	0.250773	-0.967373	-0.0353329	-0.00736139	0.374795	-4.48644	-8.06565	0.0197491	0.00337817	-0.0147379	0.423096	0.55127	1.07227	-0.212744	-0.177251	-0.317359	-0.906976	1.92227	6.75088	7.58746	0.00559107	0.0105394	0.00382918	-0.574463	-0.873535	-0.513184	-0.174685	-0.97106	-0.162485	-0.0111876	-0.015209	3.52711	-9.0799	-0.010955	0.00640788	-0.00479688	0.478271	-0.410889	0.891602	
26	0.371486	0.428007	0.0956892	-0.818322	-8.11252	1.74718	6.46575	0.0247094	-0.00257441	-0.00475614	0.775391	0.0810547	-0.948242	0.186202	0.0886944	-0.000688754	-0.9785	-1.77574	0.476361	9.92588	-0.0157792	0.0149628	-0.0149699	-0.0344238	-0.00292969	-1	0.261713	0.956931	0.122636	-0.0273864	-0.829247	4.50709	-7.83449	-0.0108507	0.00527569	0.00634788	0.389404	-0.268311	1.00781	-0.326511	0.609212	0.716823	-0.0917438	3.56974	-5.21311	-7.52428	0.0163947	-0.00295088	0.00066078	-0.42627	1.04712	0.49707	-0.187726	0.966348	0.175032	0.0171672	1.0388	-3.45801	-9.07239	0.00556496	-0.00104478	-0.0180402	0.178955	0.677002	1.1062	0.809753	0.529175	-0.199668	-0.15623	1.77765	9.77169	3.81498	-0.0113194	0.0107265	-0.0239115	0.261719	-1.15283	-0.461182	0.156312	-0.132569	-0.0304159	-0.978298	2.7576	0.152826	10.1622	0.0937878	0.0448875	-0.0110776	-0.647705	-0.00512695	-0.873535	0.16828	-0.221265	0.312057	-0.908485	3.17654	-6.88739	7.49585	0.0171526	0.00962552	-0.0170493	-0.756104	0.781982	-0.473389	0.250499	-0.967443	-0.0353574	-0.00737191	0.361821	-4.47835	-8.04612	-0.0152354	0.00592908	-0.0196667	0.427734	0.55127	1.06787	-0.212816	-0.177478	-0.317094	-0.907007	1.82014	6.73467	7.55481	-0.0117535	-0.00503058	0.00828267	-0.574463	-0.869141	-0.510986	-0.174667	-0.971073	-0.162429	-0.0112218	-0.0044977	3.53185	-9.06895	0.013023	0.00400793	-0.00533821	0.473389	-0.4021	0.882324	
27	0.371401	0.427981	0.0957961	-0.818362	-8.13244	1.84094	6.50594	-0.00385373	-0.00280577	-0.0107061	0.775635	0.0766602	-0.952637	0.186257	0.0885327	-0.000241747	-0.978504	-1.6731	0.396765	9.97951	-0.021155	0.0299357	-0.0196236	-0.0368652	0.0012207	-1.00488	0.26166	0.956957	0.122564	-0.0272926	-0.773989	4.34051	-7.71449	0.0310106	0.00893238	-0.000553819	0.389404	-0.270508	1.01025	-0.326671	0.609178	0.716799	-0.0915809	3.52706	-5.16982	-7.48062	-0.000571105	0.0220204	-0.00815784	-0.424316	1.05151	0.49707	-0.187578	0.9664	0.174865	0.0175289	0.961042	-3.44046	-8.99949	-0.0024647	0.0195622	-0.0157581	0.185303	0.683594	1.10181	0.809871	0.528951	-0.199701	-0.156331	1.77536	9.72267	3.81872	-0.00970162	0.0111939	-0.0149697	0.263916	-1.15283	-0.463379	0.156676	-0.131576	-0.031726	-0.978332	2.86165	0.217435	10.1454	0.0665318	0.0406832	-0.0105968	-0.649902	-0.00292969	-0.879883	0.168323	-0.221515	0.312086	-0.908406	3.17497	-6.90275	7.51719	-0.00347003	0.000572676	-0.0209045	-0.751709	0.782227	-0.478027	0.250357	-0.967479	-0.035399	-0.00732978	0.383747	-4.48136	-8.04923	0.00820786	-0.000850274	-0.014915	0.42749	0.553711	1.06567	-0.212893	-0.177757	-0.316237	-0.907234	1.95545	6.80653	7.54602	-0.0348053	-0.00528036	0.0152239	-0.572266	-0.869141	-0.513184	-0.174205	-0.971151	-0.162471	-0.0110296	-0.0187621	3.52371	-9.09834	0.0246933	0.00360609	-0.00769485	0.473389	-0.399902	0.891357	
28	0.371067	0.427606	0.0963601	-0.818643	-8.14535	1.62245	6.50366	-0.0132841	-0.00708236	-0.0162402	0.773438	0.0788574	-0.954834	0.186258	0.0885466	-1.50852e-05	-0.978503	-1.73191	0.401218	9.91942	-0.0280379	0.0199288	-0.0193654	-0.0366211	-0.00292969	-1.00244	0.26172	0.95695	0.12251	-0.0271962	-0.851298	4.44234	-7.69467	-0.00344832	0.00819889	0.00492384	0.389648	-0.276855	1.00586	-0.327352	0.608798	0.716869	-0.0911274	3.53087	-5.16948	-7.48175	0.0136898	0.0398659	-0.0280573	-0.428467	1.04688	0.501465	-0.188026	0.966323	0.174819	0.0174278	1.01929	-3.45645	-9.03246	0.0366185	0.0068524	-0.0115123	0.178711	0.683594	1.1062	0.809866	0.528956	-0.199234	-0.156932	1.77258	9.70809	3.81967	-0.00172309	0.0200802	-0.0548111	0.266113	-1.15503	-0.463379	0.157028	-0.130581	-0.032533	-0.978383	2.75004	0.250598	10.0799	0.0442819	0.0489142	-0.00461365	-0.647461	-0.00952148	-0.879883	0.168208	-0.221717	0.312266	-0.908316	3.18847	-6.91183	7.48334	-0.0068589	0.0162852	-0.0191425	-0.75415	0.786621	-0.478027	0.250595	-0.967419	-0.0353511	-0.00724155	0.362711	-4.4811	-8.02144	0.0188614	0.00413623	-0.0162093	0.416016	0.553467	1.06323	-0.212913	-0.177898	-0.315683	-0.907394	1.95239	6.61166	7.55	-0.0106071	0.00655634	0.0101194	-0.568115	-0.864746	-0.513428	-0.173661	-0.971248	-0.162477	-0.0110139	0.000709924	3.51354	-9.09004	0.0178495	0.00824314	-0.00427916	0.473389	-0.4021	0.88916	
29	0.370436	0.427551	0.0966872	-0.81892	-8.0406	1.86442	6.52957	-0.00426568	0.00238305	-0.0354443	0.773682	0.0744629	-0.948242	0.186329	0.0887009	0.000301442	-0.978475	-1.78073	0.382357	9.93434	-0.0179557	0.0172193	-0.0150829	-0.0344238	-0.00512695	-1.00244	0.261422	0.957037	0.122524	-0.0269611	-0.826149	4.52534	-7.80821	0.0200762	0.0189097	-0.00102712	0.38501	-0.266113	1.00317	-0.32809	0.608251	0.71709	-0.0903843	3.57785	-5.19656	-7.55173	0.00295605	0.0345278	-0.0257926	-0.433105	1.04907	0.499268	-0.189008	0.966124	0.174862	0.0174201	0.99536	-3.47425	-9.00011	0.0317863	0.0149402	-0.0220492	0.181152	0.681396	1.09717	0.809878	0.528959	-0.198941	-0.157234	1.75865	9.7625	3.82339	-0.00693912	0.0194234	-0.0478538	0.265869	-1.14844	-0.469971	0.157415	-0.130355	-0.033307	-0.978324	2.78496	0.152747	10.1611	0.0494733	0.0144062	9.62085e-05	-0.645264	-0.00952148	-0.875488	0.168148	-0.221621	0.312375	-0.908313	3.17402	-6.86693	7.45753	-0.00160457	0.0253101	-0.0169813	-0.749756	0.784424	-0.473389	0.250485	-0.967447	-0.035368	-0.00727169	0.372798	-4.45679	-8.02707	-0.00206718	0.00640369	-0.0169478	0.42041	0.555908	1.06323	-0.212933	-0.177856	-0.315725	-0.907383	1.95707	6.65398	7.5548	0.00498577	0.0133897	0.00159278	-0.57251	-0.866943	-0.508789	-0.173623	-0.971259	-0.162451	-0.011026	-0.00837895	3.51803	-9.08546	0.00578816	0.00626306	-0.00399733	0.470947	-0.399902	0.886963	
30	0.370328	0.427423	0.0972439	-0.818969	-8.11396	1.68762	6.50987	-0.0361397	0.00379164	-0.0292832	0.775391	0.0810547	-0.946045	0.186563	0.0883635	0.00115393	-0.97846	-1.70803	0.343061	10.0071	-0.0394819	0.0131738	-0.0132098	-0.0368652	0.00366211	-1.00024	0.261042	0.957117	0.122764	-0.0266995	-0.826111	4.37499	-7.67736	1.15984e-05	0.021721	-0.00741539	0.38501	-0.268311	1.00562	-0.328494	0.607862	0.717225	-0.0904591	3.55413	-5.17378	-7.45471	0.0357385	0.0180982	-0.0299309	-0.433105	1.05127	0.503662	-0.189216	0.966062	0.174944	0.0177711	0.977126	-3.46623	-8.96692	0.00835361	0.0237923	-0.0229448	0.176514	0.685791	1.104	0.809759	0.529138	-0.198331	-0.158012	1.73945	9.68846	3.82777	0.00582065	0.0175953	-0.0647629	0.263672	-1.14844	-0.469971	0.15764	-0.130051	-0.0333564	-0.978327	2.81352	0.232915	10.0448	0.0280152	0.0387098	0.00171484	-0.645264	-0.00952148	-0.877686	0.167774	-0.22126	0.313278	-0.908159	3.19792	-6.89388	7.51395	-0.0428844	0.0401361	-0.0155103	-0.749756	0.786621	-0.47583	0.250356	-0.967481	-0.0353439	-0.00725843	0.380519	-4.46969	-8.04636	-0.00384885	0.00403814	-0.0133585	0.418457	0.548828	1.06787	-0.212915	-0.177612	-0.31602	-0.907333	1.96401	6.72467	7.5717	0.0149038	0.0233724	-0.000218116	-0.574707	-0.866943	-0.510986	-0.173694	-0.971251	-0.162417	-0.0110955	-0.0141235	3.51349	-9.09632	-0.00376034	0.00799158	-0.00546913	0.473389	-0.4021	0.891602	
31	0.369996	0.427145	0.0978457	-0.819193	-8.10986	1.66033	6.49131	-0.0145423	-0.00989115	-0.0229661	0.772949	0.0852051	-0.944092	0.186669	0.0883342	0.00157051	-0.978442	-1.79479	0.312695	9.96603	-0.0242825	0.0259198	-0.0144512	-0.0324707	0.00146484	-1.00024	0.260717	0.95717	0.123049	-0.0266872	-0.753826	4.34921	-7.73476	0.0179446	0.0060806	-0.0112637	0.383057	-0.270264	1.00342	-0.329055	0.607327	0.717501	-0.089825	3.62798	-5.18557	-7.46377	-0.00700668	0.0345196	-0.0302464	-0.4375	1.04907	0.499268	-0.190499	0.965785	0.175095	0.0176291	1.0584	-3.52667	-9.02994	0.05965	0.0101834	-0.0163853	0.178711	0.685791	1.09937	0.809448	0.529636	-0.197716	-0.158709	1.70729	9.74445	3.84592	0.0149479	0.0222604	-0.05554	0.268066	-1.15063	-0.461182	0.157851	-0.129611	-0.033034	-0.978362	2.72826	0.262869	9.88366	-0.00419537	0.0402134	-0.00844387	-0.647461	-0.00952148	-0.877686	0.167514	-0.221104	0.314081	-0.907968	3.13418	-6.95148	7.48968	-0.0208095	0.025217	-0.0176002	-0.751953	0.788574	-0.473389	0.250805	-0.967362	-0.0354092	-0.00730719	0.382728	-4.46364	-8.0228	0.0214377	0.00169715	-0.0127304	0.423096	0.548828	1.07007	-0.212767	-0.177317	-0.316307	-0.907325	1.87528	6.76564	7.57653	0.00804886	0.0225494	0.00508209	-0.57251	-0.866943	-0.508789	-0.173976	-0.971202	-0.162393	-0.0112592	-0.0119259	3.52291	-9.08671	-0.00686879	0.00986149	-0.00359936	0.477783	-0.397705	0.88916	
32	0.369901	0.42696	0.0982245	-0.819286	-8.12964	1.43213	6.49939	-0.00230968	-0.00624902	-0.0075265	0.777588	0.083252	-0.948242	0.186627	0.0885391	0.00155889	-0.978432	-1.79401	0.355411	9.93084	-0.00412349	0.0131581	-0.0190157	-0.034668	0.0012207	-1.00732	0.260758	0.957145	0.123151	-0.026714	-0.761506	4.41977	-7.74091	-0.0177812	-0.00121337	-0.00267811	0.387207	-0.266113	1.01025	-0.329266	0.607105	0.717615	-0.089646	3.64881	-5.18565	-7.51324	0.0076343	0.0211338	-0.0244552	-0.437012	1.04248	0.499268	-0.190746	0.965719	0.175193	0.0176223	0.966346	-3.62482	-9.10059	-0.00660308	0.00175673	-0.01733	0.17627	0.690186	1.1062	0.809285	0.529904	-0.197252	-0.159219	1.70235	9.74905	3.82496	0.0114381	0.0191278	-0.0404761	0.279053	-1.15283	-0.467529	0.157685	-0.129504	-0.0324061	-0.978424	2.69971	0.13091	10.1346	0.0217891	0.0140741	-0.0208926	-0.645264	-0.0114746	-0.879639	0.167513	-0.221196	0.314087	-0.907943	3.18962	-7.0133	7.48295	0.017743	0.0096312	-0.0179029	-0.75415	0.790771	-0.47583	0.250724	-0.967385	-0.0353724	-0.00724188	0.364926	-4.45957	-7.96081	0.00124361	-0.000357795	-0.0132263	0.418457	0.548828	1.07007	-0.212765	-0.177276	-0.316082	-0.907412	1.87553	6.63884	7.58797	-0.00872139	0.00744955	0.00536868	-0.574219	-0.875732	-0.513184	-0.173928	-0.971213	-0.162379	-0.011324	-0.0273582	3.52119	-9.09963	0.00571289	0.0106628	-0.00301789	0.473389	-0.4021	0.895996	
33	0.369979	0.427093	0.0979599	-0.819214	-8.11888	1.55985	6.54486	0.00516029	0.000427923	0.00926882	0.775146	0.0876465	-0.952637	0.186693	0.0884222	0.00131017	-0.97843	-1.72735	0.270135	9.89404	-0.000587213	0.00775528	-0.0160384	-0.0283203	0.00366211	-0.998047	0.260668	0.957166	0.123142	-0.0268497	-0.757368	4.3414	-7.72827	0.00804616	-0.00536867	-0.00276426	0.387451	-0.274658	1.01025	-0.329274	0.607046	0.717631	-0.0898815	3.6559	-5.20957	-7.46555	0.00675639	-0.00922762	0.0121336	-0.430664	1.04468	0.49707	-0.190352	0.965852	0.1749	0.0174756	0.915925	-3.52342	-9.03686	-0.0312549	-0.0020217	-0.00227328	0.180908	0.685791	1.104	0.80919	0.530039	-0.197212	-0.159302	1.67716	9.74939	3.82142	0.00863907	0.0120948	-0.0150838	0.272217	-1.14404	-0.46582	0.157651	-0.129276	-0.0321974	-0.978467	2.76825	0.166344	10.1075	0.0128461	0.0199758	-0.0152677	-0.647461	-0.00732422	-0.875488	0.167611	-0.221224	0.31409	-0.907917	3.23691	-6.82489	7.50213	0.00012417	0.0141742	-0.00906262	-0.751709	0.784424	-0.47583	0.24995	-0.967575	-0.0356427	-0.00733521	0.389124	-4.46935	-8.05267	-0.00153423	0.00728414	-0.0207221	0.420654	0.548828	1.07471	-0.212853	-0.177293	-0.316151	-0.907364	2.00555	6.68807	7.58596	0.010061	0.0119299	0.000136545	-0.574707	-0.866943	-0.508789	-0.173382	-0.971306	-0.162414	-0.0111794	-0.0127284	3.50995	-9.11481	0.00282659	-0.00066124	-0.00407416	0.475342	-0.395508	0.88916	
34	0.369989	0.427291	0.0973667	-0.819177	-8.07657	1.75698	6.50461	0.0160751	-0.00378329	0.0127562	0.772949	0.0854492	-0.952637	0.186758	0.08818	0.00110008	-0.97844	-1.79518	0.276651	9.82883	-0.00296702	0.000125973	-0.0111552	-0.0324707	0.00366211	-0.998047	0.261159	0.957076	0.122793	-0.0268769	-0.758219	4.38413	-7.77546	-0.00198604	-0.00610881	0.00983181	0.383057	-0.270264	1.00806	-0.328413	0.607738	0.717446	-0.0898397	3.61661	-5.18307	-7.42121	-0.0435846	-0.00767354	0.0303985	-0.43042	1.04028	0.501709	-0.190217	0.965891	0.174858	0.0172164	0.979316	-3.57402	-8.97529	-0.00726545	-0.0144713	-0.00898656	0.185303	0.683594	1.09937	0.809142	0.530071	-0.197884	-0.158604	1.70807	9.73258	3.82122	0.0208004	0.00834633	0.0311447	0.270264	-1.15063	-0.463379	0.15761	-0.128466	-0.0318477	-0.978592	2.67529	0.177818	10.1491	-0.00831719	0.0394369	-0.0152988	-0.641113	-0.00927734	-0.884033	0.167605	-0.221044	0.314325	-0.907881	3.16939	-6.98032	7.49566	-0.00084142	0.0232762	-0.0118882	-0.751709	0.78418	-0.471191	0.250219	-0.967506	-0.0356346	-0.00728578	0.385115	-4.46492	-8.05386	0.0231672	0.00231081	-0.014703	0.423096	0.55127	1.06567	-0.212891	-0.177266	-0.316291	-0.907312	1.96144	6.75846	7.57434	0.0126369	0.0136601	-0.00171245	-0.576904	-0.869141	-0.515625	-0.173548	-0.971275	-0.162409	-0.0113446	-0.0141049	3.5088	-9.10128	-0.00571958	0.0110839	-0.00203031	0.47998	-0.395508	0.891357	
35	0.3702	0.427362	0.0971565	-0.819069	-8.15242	1.56995	6.49916	0.0101714	-0.00329493	0.0138649	0.775391	0.083252	-0.948242	0.186566	0.0885272	0.000699963	-0.978445	-1.84972	0.339369	9.85856	-0.0010408	0.0257566	-0.0231653	-0.0280762	0.00146484	-1.00732	0.260992	0.9571	0.122929	-0.0270262	-0.753463	4.40413	-7.80937	0.00367388	-0.000336993	-0.0111342	0.387207	-0.268311	1.00342	-0.328088	0.608077	0.717296	-0.0899254	3.56127	-5.1264	-7.54916	0.0139836	-0.00250993	0.00828362	-0.430908	1.05127	0.49707	-0.189836	0.965964	0.174887	0.0170685	1.05245	-3.50115	-9.11213	-0.0136156	-0.00774545	-0.0173187	0.185059	0.690186	1.09937	0.80915	0.530015	-0.198272	-0.158268	1.73961	9.72525	3.79193	-0.00279379	0.0117917	-0.0115427	0.268066	-1.14624	-0.461426	0.157346	-0.128465	-0.0314631	-0.978646	2.57585	0.19121	10.3478	-0.0152019	-0.00822237	-0.0227793	-0.636475	-0.0114746	-0.877686	0.167729	-0.221029	0.314016	-0.907968	3.08502	-6.87696	7.44406	0.0218085	0.0142286	-0.0146972	-0.749756	0.786621	-0.480469	0.25026	-0.967492	-0.0357103	-0.00730934	0.389173	-4.45145	-7.97931	-0.00166354	0.00319072	-0.0195979	0.416016	0.55127	1.06787	-0.212832	-0.177088	-0.316493	-0.907289	1.83703	6.71479	7.58346	0.00449543	0.011497	0.000210574	-0.572266	-0.869141	-0.508789	-0.173679	-0.971255	-0.162381	-0.0114561	-0.00998664	3.50939	-9.064	-0.00116061	0.0079961	-0.00429932	0.47998	-0.399902	0.886963	
36	0.370325	0.427598	0.0968031	-0.818931	-8.11929	1.84422	6.5343	-0.00208747	0.00295998	0.0104428	0.777588	0.083252	-0.948242	0.186692	0.0884603	0.00081573	-0.978427	-1.68096	0.280125	9.92326	0.0050271	0.0225942	-0.0139991	-0.0324707	0.00366211	-1.00269	0.260892	0.957104	0.123114	-0.0270186	-0.789206	4.41525	-7.72825	-0.00721199	-0.00575573	-0.013417	0.389404	-0.268311	1.00342	-0.328536	0.607758	0.717278	-0.0905854	3.5932	-5.19557	-7.45604	0.0382019	0.00220449	0.000659305	-0.428467	1.04688	0.499268	-0.189749	0.965965	0.174993	0.0168875	0.991411	-3.46471	-8.94927	-0.000586147	0.00793422	-0.0216114	0.180664	0.690186	1.09717	0.809455	0.529553	-0.197913	-0.158702	1.707	9.73578	3.82743	-0.0248705	0.0158757	-0.0336499	0.263672	-1.14844	-0.467773	0.15739	-0.128123	-0.030865	-0.978703	2.77441	0.195996	9.97419	-0.00347279	0.0657037	-0.00923517	-0.645508	-0.00512695	-0.88623	0.167705	-0.221122	0.313724	-0.908051	3.19493	-6.93279	7.4987	0.0183218	0.00922112	-0.0210695	-0.751709	0.782227	-0.473389	0.249539	-0.967681	-0.035675	-0.00711602	0.333577	-4.47452	-8.07738	-0.0230408	-0.00218104	-0.0142964	0.427734	0.548828	1.07471	-0.212931	-0.177211	-0.316592	-0.907208	1.95525	6.7434	7.60553	0.0105314	0.00712651	0.000460477	-0.574707	-0.864746	-0.51123	-0.173857	-0.971229	-0.162347	-0.0114977	-0.0148092	3.52145	-9.10755	-0.0116814	0.0069976	-0.00462355	0.47998	-0.399902	0.891357	
37	0.37052	0.427406	0.0968715	-0.818935	-8.06766	1.52124	6.48926	0.000851649	-0.00614686	0.00569372	0.777588	0.0810547	-0.952637	0.186674	0.0885062	0.000771974	-0.978427	-1.69702	0.379816	9.94962	-0.00623285	0.0180692	-0.019089	-0.0302734	0.00146484	-1.00488	0.260892	0.957104	0.123114	-0.0270186	-0.789206	4.41525	-7.72825	-0.00721199	-0.00575573	-0.013417	0.389404	-0.268311	1.00342	-0.328706	0.607654	0.717271	-0.090724	3.59655	-5.19454	-7.45121	-0.0059349	0.00998649	-0.00267387	-0.437256	1.04688	0.494873	-0.189706	0.965955	0.175092	0.0168705	0.937265	-3.48327	-9.01586	-0.00352973	0.00373905	-0.023102	0.185303	0.683594	1.10181	0.80953	0.529475	-0.19765	-0.15891	1.71023	9.73649	3.82948	-0.000164631	0.0223914	-0.0204267	0.268066	-1.14844	-0.461426	0.157341	-0.128048	-0.0304975	-0.978733	2.71967	0.202644	10.1824	-0.000225662	0.00780328	-0.0119059	-0.63916	-0.000732422	-0.884277	0.167706	-0.22131	0.313514	-0.908078	3.22562	-6.98774	7.52392	0.019518	-0.000466209	-0.0253968	-0.753906	0.782227	-0.475586	0.249539	-0.967681	-0.035675	-0.00711602	0.333577	-4.47452	-8.07738	-0.0230408	-0.00218104	-0.0142964	0.427734	0.548828	1.07471	-0.212939	-0.177283	-0.316645	-0.907173	1.89606	6.75348	7.54442	0.0083635	0.00573353	0.00416964	-0.570068	-0.866943	-0.510986	-0.174253	-0.971164	-0.162302	-0.0116196	-0.0108814	3.52148	-9.07644	-0.00706137	0.00736102	-0.00288966	0.471191	-0.402344	0.882324	
38	0.370518	0.427653	0.0965561	-0.818844	-8.11445	1.63477	6.48038	0.0179216	-0.000544172	0.00588299	0.777588	0.0810547	-0.950439	0.186739	0.0887506	0.000833853	-0.978392	-1.76141	0.311478	9.91128	-0.0207319	0.0145831	-0.0178835	-0.0324707	0.00366211	-1.00269	0.260691	0.957148	0.123225	-0.0269083	-0.730621	4.43944	-7.81155	0.017566	0.00586511	-0.00327962	0.387207	-0.270508	1.00342	-0.328953	0.60758	0.717183	-0.0910218	3.62004	-5.2246	-7.40556	0.0164466	0.00563152	0.00338071	-0.432861	1.04688	0.49707	-0.19009	0.965863	0.175193	0.0167758	0.99203	-3.50283	-9.05559	0.0250224	0.00636306	-0.0199265	0.183105	0.683594	1.1062	0.80957	0.52942	-0.197554	-0.159006	1.7139	9.76722	3.80133	-0.00595135	0.0157855	-0.0249371	0.270264	-1.15063	-0.467773	0.157176	-0.128017	-0.0297508	-0.978786	2.66309	0.205872	10.2329	-0.00566313	-0.00746541	-0.0228942	-0.638916	-0.00708008	-0.88623	0.167778	-0.221481	0.31301	-0.908197	3.18544	-6.84177	7.4738	0.0209006	0.00854651	-0.0188893	-0.75415	0.786621	-0.48291	0.2493	-0.967723	-0.0361517	-0.00738081	0.371976	-4.45128	-8.08433	-0.00442914	0.00518652	-0.0195071	0.42334	0.544434	1.06348	-0.21304	-0.177625	-0.316408	-0.907166	1.9225	6.71355	7.55685	-0.00900443	-0.0064882	0.00679558	-0.569824	-0.873535	-0.508545	-0.174073	-0.971199	-0.16229	-0.0115476	-0.00297583	3.52965	-9.09526	0.0144238	0.00335044	-0.00543149	0.482422	-0.4021	0.891602	
39	0.370518	0.427653	0.0965561	-0.818844	-8.11445	1.63477	6.48038	0.0179216	-0.000544172	0.00588299	0.777588	0.0810547	-0.950439	0.186602	0.0889825	0.000890357	-0.978397	-1.73805	0.39526	9.97636	-0.0049596	0.0315662	-0.0234912	-0.0324707	0.00146484	-1.00024	0.260272	0.957255	0.123274	-0.0269253	-0.779653	4.43744	-7.71857	0.0236287	0.00142551	-0.00306042	0.383057	-0.270264	1.00562	-0.328953	0.60758	0.717183	-0.0910218	3.62004	-5.2246	-7.40556	0.0164466	0.00563152	0.00338071	-0.432861	1.04688	0.49707	-0.189631	0.965956	0.175175	0.0168196	0.966994	-3.44776	-9.05213	-0.036907	0.00390383	-0.0154918	0.1875	0.685791	1.11084	0.809628	0.529286	-0.197676	-0.159005	1.70668	9.72831	3.83741	0.00923071	0.010791	-0.00552345	0.272461	-1.15063	-0.465576	0.157086	-0.12825	-0.0297657	-0.97877	2.75348	0.213942	10.1448	0.0151057	-0.0044226	-0.0206606	-0.643311	-0.00512695	-0.879883	0.167884	-0.221576	0.312986	-0.908162	3.20186	-6.87721	7.51959	0.00300605	0.0112238	-0.0123923	-0.751709	0.784424	-0.478027	0.24944	-0.967689	-0.0361088	-0.00734114	0.377833	-4.45112	-8.08006	0.0190674	0.00185114	-0.0139537	0.425537	0.546631	1.07007	-0.213157	-0.177738	-0.315894	-0.907295	1.91614	6.70578	7.58974	-0.0192825	0.00460339	0.00709463	-0.574463	-0.869141	-0.506348	-0.174073	-0.971199	-0.16229	-0.0115476	-0.00297583	3.52965	-9.09526	0.0144238	0.00335044	-0.00543149	0.482422	-0.4021	0.891602	
40	0.370257	0.427864	0.0963288	-0.818879	-8.14758	1.63866	6.48803	0.0147406	-0.00774293	-0.00906831	0.779785	0.0810547	-0.956787	0.186562	0.0891904	0.00138459	-0.978385	-1.74695	0.393486	10.0127	-0.0231786	0.0348417	-0.0191534	-0.0280762	-0.000732422	-1.00708	0.259854	0.95739	0.123109	-0.0269227	-0.787041	4.42316	-7.75041	0.0196552	0.000168227	0.00594913	0.380859	-0.268066	1.00562	-0.329062	0.607698	0.717032	-0.091026	3.6271	-5.21069	-7.45654	0.00528935	0.00997859	0.00122895	-0.430664	1.04492	0.494873	-0.189341	0.965999	0.17525	0.0168365	1.04955	-3.4125	-8.95234	-0.00189606	0.000652038	-0.0155646	0.185059	0.690186	1.10181	0.80967	0.529207	-0.197705	-0.159017	1.69986	9.75309	3.84212	-0.00313768	0.0142011	-0.0200401	0.27002	-1.14404	-0.469971	0.156971	-0.127885	-0.0290163	-0.978858	2.74573	0.151011	10.098	-0.0262276	0.0267791	-0.0135516	-0.641357	-0.00292969	-0.88623	0.168001	-0.221633	0.313102	-0.908087	3.18017	-6.91957	7.4948	0.000924883	0.0142171	-0.0125916	-0.75415	0.788574	-0.478271	0.249897	-0.967573	-0.0360691	-0.00726492	0.370675	-4.45092	-8.04948	0.0257789	0.00324386	-0.0154246	0.423096	0.548828	1.07471	-0.213147	-0.177851	-0.315492	-0.907415	1.90004	6.74344	7.5709	-0.0107447	0.00588777	0.00990959	-0.574463	-0.869141	-0.508789	-0.173677	-0.971255	-0.162383	-0.0114633	0.00119834	3.52312	-9.11177	0.0115516	0.00855043	-0.00452538	0.475342	-0.397705	0.886963	
41	0.369984	0.427786	0.0964719	-0.819027	-8.12715	1.69366	6.50189	-0.0132714	-0.00239237	-0.0123678	0.775391	0.083252	-0.950439	0.186578	0.0893747	0.00165113	-0.978365	-1.80571	0.301251	9.83918	-0.0292269	0.0333511	-0.0181025	-0.0283203	0.00585938	-1.00049	0.259298	0.957556	0.122993	-0.0268963	-0.798965	4.3822	-7.80542	0.0437701	0.0110674	-0.00661627	0.383057	-0.268066	1.00781	-0.32944	0.607639	0.71694	-0.0907756	3.55058	-5.18188	-7.51364	0.0121947	0.0286011	-0.0137813	-0.430664	1.04907	0.503662	-0.189248	0.966051	0.175043	0.0170567	0.977552	-3.47894	-9.16221	-0.00298295	0.0104244	-0.00739171	0.180664	0.690186	1.10181	0.809792	0.528983	-0.197478	-0.159424	1.72047	9.74455	3.84583	-0.00981819	0.015838	-0.0421928	0.270264	-1.14624	-0.461426	0.156835	-0.1282	-0.0282178	-0.978862	2.66453	0.06676	10.1534	-0.0187302	0.00938153	-0.0151116	-0.641602	0.00146484	-0.880127	0.168007	-0.221705	0.313055	-0.908084	3.16446	-6.90907	7.43551	0.00959687	0.0123643	-0.018774	-0.756348	0.786621	-0.480469	0.250067	-0.96753	-0.0360532	-0.00719829	0.361829	-4.45002	-8.0085	0.0207581	0.000653168	-0.0143255	0.425537	0.546631	1.07007	-0.213152	-0.177897	-0.315485	-0.907407	1.91745	6.64772	7.56036	0.00848398	0.00977329	0.00259466	-0.572266	-0.869141	-0.508789	-0.173623	-0.971267	-0.162374	-0.0114474	0.000862073	3.50621	-9.0792	0.00727108	0.00450545	-0.00468281	0.473145	-0.397705	0.891357	
42	0.369774	0.427777	0.096522	-0.81912	-8.1008	1.76202	6.51956	0.00433139	-0.00333127	-0.00843061	0.773193	0.083252	-0.950439	0.186465	0.0895269	0.00233228	-0.978371	-1.7768	0.238119	9.88771	-0.0430057	0.00698437	-0.0152867	-0.0390625	0.00585938	-0.998047	0.258761	0.957679	0.123141	-0.0270209	-0.855433	4.24635	-7.80287	0.0156991	-0.00311522	-0.0105338	0.380859	-0.265869	1.00562	-0.329964	0.607192	0.717034	-0.0911284	3.63086	-5.21742	-7.39012	0.0231901	0.00509791	-0.0101756	-0.433105	1.04932	0.492676	-0.188868	0.966131	0.175035	0.016814	0.971176	-3.55118	-8.90968	-0.0082663	-0.00645459	-0.013372	0.178711	0.685791	1.104	0.80967	0.529202	-0.196917	-0.160008	1.65642	9.73828	3.82369	0.00563245	0.0177383	-0.0411255	0.274414	-1.14624	-0.469971	0.156778	-0.128547	-0.0271151	-0.978857	2.70206	0.0573383	10.0309	-0.0410275	0.0125272	-0.0095852	-0.639404	0.00146484	-0.886475	0.168034	-0.221565	0.31325	-0.908046	3.22196	-6.87242	7.49505	-0.00502057	0.0230176	-0.0115362	-0.75415	0.786377	-0.47583	0.249772	-0.967598	-0.0362685	-0.00724467	0.370423	-4.4458	-8.05096	0.000912156	-1.82818e-05	-0.0148008	0.425293	0.55127	1.07227	-0.213202	-0.177695	-0.315891	-0.907294	1.98112	6.66934	7.56766	0.0192573	0.0228373	-0.0058102	-0.574707	-0.866943	-0.513428	-0.17356	-0.971264	-0.162465	-0.0113324	-0.0174185	3.52158	-9.11866	0.00571362	0.00543981	-0.00375187	0.479736	-0.393311	0.884521	
43	0.369969	0.427581	0.0968344	-0.819097	-8.09746	1.58012	6.49032	-0.0152537	-0.00663355	0.00146953	0.777588	0.083252	-0.954834	0.186392	0.0895955	0.00261796	-0.978378	-1.73438	0.314291	9.9471	-0.0210967	0.0186664	-0.0230153	-0.0305176	0.00585938	-0.998047	0.25818	0.9578	0.12336	-0.027286	-0.774355	4.35073	-7.71558	0.0294342	-0.00457053	-0.0134726	0.383057	-0.265869	1.00562	-0.330061	0.607193	0.717001	-0.0910261	3.6274	-5.22029	-7.44516	0.00289791	0.00832286	0.00593963	-0.432617	1.04028	0.495117	-0.189081	0.966072	0.175143	0.0166852	0.909727	-3.50389	-8.95746	0.0191546	-0.00198114	-0.022899	0.178711	0.685791	1.104	0.809444	0.529538	-0.197089	-0.159834	1.67588	9.74148	3.82062	0.0227069	0.0112538	-0.00267746	0.272461	-1.15283	-0.469727	0.156575	-0.128775	-0.0260238	-0.978889	2.75449	0.113296	10.1796	-0.0274732	0.015151	-0.0197559	-0.639404	0.00366211	-0.880127	0.168115	-0.221434	0.313653	-0.907924	3.15469	-6.89632	7.52992	-0.0109912	0.0201206	-0.00768034	-0.751953	0.786621	-0.478027	0.249916	-0.96756	-0.0362939	-0.00727028	0.371826	-4.45792	-8.05872	0.0150368	0.00748361	-0.019273	0.420898	0.544434	1.07251	-0.213153	-0.177333	-0.316498	-0.907165	1.93914	6.79039	7.59195	0.0206347	0.0303808	-0.00291703	-0.579102	-0.864746	-0.51123	-0.173901	-0.9712	-0.162475	-0.0114357	-0.00904704	3.51444	-9.11027	-0.0189156	0.0092286	-0.00330718	0.470947	-0.395508	0.886719	
44	0.370112	0.427501	0.096509	-0.819113	-8.13073	1.58558	6.48244	0.00737178	-0.00992687	0.00961768	0.775635	0.0766602	-0.950439	0.186262	0.089783	0.00235241	-0.978386	-1.84699	0.296718	10.011	0.0129055	0.0226092	-0.0218288	-0.0324707	0.00341797	-1.00488	0.258207	0.957788	0.123368	-0.0274103	-0.813816	4.27345	-7.73612	0.00119056	-0.00654542	-0.00631733	0.389404	-0.266113	1.00781	-0.329883	0.607382	0.716924	-0.0910214	3.62164	-5.21203	-7.45613	-0.00512004	-0.000772621	0.00789544	-0.439453	1.04688	0.49707	-0.18904	0.966026	0.175451	0.0165828	0.977622	-3.49007	-9.05667	-0.000341495	-0.00328907	-0.0194833	0.187744	0.679199	1.09937	0.809227	0.52995	-0.197034	-0.159629	1.6883	9.7558	3.81793	0.0206495	0.0148361	-0.00687785	0.267822	-1.14404	-0.459229	0.1562	-0.128903	-0.0247921	-0.978964	2.66092	0.0137689	10.2599	-0.0297482	0.0158974	-0.0241951	-0.637207	0.00146484	-0.88208	0.16811	-0.221388	0.314026	-0.907807	3.17514	-6.9445	7.4239	-0.0080774	0.0165135	-0.0122952	-0.747559	0.784424	-0.47583	0.250088	-0.96751	-0.0364284	-0.00729031	0.356704	-4.46058	-8.04477	0.0104497	0.00209531	-0.0140189	0.42334	0.544434	1.07031	-0.213121	-0.177139	-0.316608	-0.907172	1.87509	6.71378	7.57937	0.00321769	0.0157298	0.00541581	-0.570068	-0.871338	-0.508789	-0.17412	-0.971147	-0.162548	-0.0116004	-0.01579	3.51886	-9.07465	-0.00861108	0.00766735	-0.00406103	0.47998	-0.399902	0.88916	
45	0.37027	0.427666	0.096016	-0.819013	-8.10111	1.68307	6.49071	0.0169615	-0.00366531	0.0145305	0.777832	0.0788574	-0.952637	0.186257	0.089695	0.00214579	-0.978396	-1.81962	0.28878	10.0121	0.0041556	0.0053458	-0.0168667	-0.0280762	0.00146484	-1.00269	0.258007	0.957841	0.12332	-0.027657	-0.813867	4.36964	-7.81617	0.00459466	-0.0071586	-0.00182347	0.382812	-0.261719	1.00317	-0.329674	0.607546	0.716816	-0.0915306	3.63545	-5.2059	-7.47207	0.00918836	-0.0139373	0.0150494	-0.430664	1.04712	0.492676	-0.188308	0.966145	0.175577	0.016623	1.03985	-3.52558	-9.12769	-0.0292373	-0.000839184	-0.0132519	0.180908	0.685791	1.10181	0.809576	0.52938	-0.197218	-0.159528	1.68166	9.75467	3.8454	-0.0294463	0.00907241	-0.0023095	0.27002	-1.14624	-0.467773	0.155812	-0.128981	-0.0237291	-0.979042	2.7206	0.0636501	10.1378	-0.0146471	0.0336496	-0.0262817	-0.641602	0.00366211	-0.884277	0.168219	-0.221422	0.31386	-0.907836	3.19467	-6.90345	7.47779	0.0202902	0.0116541	-0.0169256	-0.749756	0.786377	-0.46875	0.250206	-0.967478	-0.0364743	-0.00728374	0.375291	-4.46587	-8.06076	0.0175053	0.00301615	-0.0196589	0.423096	0.55127	1.07007	-0.213054	-0.177256	-0.316671	-0.907142	1.89124	6.72725	7.56761	0.0058499	0.00563586	0.0101852	-0.574463	-0.871338	-0.506348	-0.174046	-0.971162	-0.162547	-0.0114832	-0.0249243	3.5261	-9.06905	0.00984076	-0.000855612	-0.00784194	0.477783	-0.399902	0.886963	
46	0.370265	0.427738	0.0958549	-0.818997	-8.06939	1.69222	6.5144	0.013195	-0.00305222	0.00579899	0.777832	0.0766602	-0.948242	0.186173	0.0896119	0.00150921	-0.978421	-1.75254	0.365273	9.8413	0.00666074	0.00610409	-0.0202847	-0.0302734	0.00366211	-1.00024	0.258243	0.957791	0.12324	-0.0275382	-0.745651	4.27703	-7.81298	-0.0179802	0.00792222	0.00605082	0.380859	-0.268066	1.00562	-0.329457	0.607829	0.716645	-0.0917672	3.60751	-5.24575	-7.39213	-0.000676285	-0.0123822	0.0322588	-0.430664	1.04932	0.492676	-0.187753	0.966269	0.17548	0.0167289	0.938253	-3.447	-9.05761	-0.0468095	0.00860683	-0.00889457	0.180908	0.683594	1.1062	0.809788	0.52899	-0.19751	-0.159384	1.69507	9.74844	3.84704	-0.0253447	0.00110561	0.0151513	0.27002	-1.14404	-0.469971	0.155532	-0.129028	-0.0230694	-0.979096	2.71961	0.103542	10.1883	-0.0373466	0.0192436	-0.029531	-0.639648	0.00585938	-0.888672	0.168284	-0.221463	0.31375	-0.907852	3.14359	-6.87089	7.45857	0.0153529	0.00999549	-0.0156371	-0.75415	0.786621	-0.478027	0.250261	-0.967463	-0.0364823	-0.00729267	0.367839	-4.44129	-8.02123	0.0111706	0.00511069	-0.0187004	0.423096	0.55127	1.06128	-0.213016	-0.17731	-0.316602	-0.907165	1.97394	6.75071	7.57877	-0.0021778	0.00752461	0.010498	-0.568115	-0.864746	-0.51123	-0.174046	-0.971162	-0.162547	-0.0114832	-0.0249243	3.5261	-9.06905	0.00984076	-0.000855612	-0.00784194	0.477783	-0.399902	0.886963	
47	0.37024	0.427848	0.0955736	-0.818983	-8.1057	1.77949	6.51537	0.0115103	-0.00732742	0.00112644	0.775635	0.0788574	-0.956787	0.186098	0.0898146	0.00104031	-0.978417	-1.78652	0.286362	9.70156	-0.0108719	0.0221694	-0.0158916	-0.0324707	0.00146484	-1.00024	0.25825	0.957822	0.122985	-0.0275288	-0.861514	4.41793	-7.74537	-0.00461457	-0.00214178	0.00561145	0.389404	-0.266113	1.01001	-0.328987	0.608223	0.716493	-0.0920325	3.5357	-5.21798	-7.4409	-0.00129326	-0.0130206	0.0140373	-0.430664	1.04712	0.494873	-0.187753	0.966269	0.17548	0.0167289	0.938253	-3.447	-9.05761	-0.0468095	0.00860683	-0.00889457	0.180908	0.683594	1.1062	0.809966	0.528648	-0.198006	-0.158996	1.7285	9.70331	3.85392	0.00326223	0.00741961	0.0047538	0.265869	-1.15063	-0.469727	0.155141	-0.129232	-0.0219331	-0.979157	2.67303	-0.00708864	10.0686	-0.0462207	0.0393127	-0.0220542	-0.641846	0.00805664	-0.884521	0.168289	-0.221427	0.313538	-0.907933	3.14937	-6.92267	7.4818	0.0147459	0.0175676	-0.0161154	-0.751953	0.788574	-0.478271	0.250261	-0.967463	-0.0364823	-0.00729267	0.367839	-4.44129	-8.02123	0.0111706	0.00511069	-0.0187004	0.423096	0.55127	1.06128	-0.213008	-0.177382	-0.31662	-0.907147	1.91797	6.6707	7.56718	0.00536141	0.00916838	0.00350287	-0.574707	-0.866943	-0.508789	-0.174046	-0.971162	-0.162547	-0.0114832	-0.0249243	3.5261	-9.06905	0.00984076	-0.000855612	-0.00784194	0.477783	-0.399902	0.886963	
48	0.370374	0.427713	0.0958752	-0.818958	-8.11811	1.67415	6.53937	-0.0196539	-0.00363022	0.000477595	0.773438	0.0788574	-0.948242	0.186162	0.0894961	0.00081204	-0.978434	-1.70516	0.373395	9.85774	-0.00772605	-0.00187343	-0.0132123	-0.0302734	0.00146484	-1.00244	0.258437	0.957763	0.123041	-0.0275844	-0.842086	4.28964	-7.75946	-0.0130505	-0.00519612	-0.00841665	0.38501	-0.266113	1.00781	-0.328844	0.608311	0.716452	-0.0922816	3.54637	-5.1957	-7.50929	0.0224803	-0.0125988	0.00512905	-0.428467	1.04712	0.49707	-0.185881	0.966566	0.175755	0.0175643	0.980686	-3.41694	-8.96233	-0.0121706	-0.00737031	-0.019393	0.183594	0.674805	1.1062	0.809824	0.528854	-0.198042	-0.15899	1.71295	9.73008	3.83291	0.0150532	0.0175729	-0.0255722	0.265869	-1.14624	-0.472168	0.154929	-0.129688	-0.0205237	-0.979161	2.82349	-0.0115801	9.92087	-0.0303759	0.0823621	-0.0126773	-0.637695	0.0102539	-0.886719	0.168382	-0.221371	0.313457	-0.907957	3.23655	-6.88219	7.52937	0.00548303	0.0194128	-0.0122798	-0.753906	0.784424	-0.47583	0.250193	-0.967468	-0.036806	-0.00743331	0.38812	-4.47176	-8.05688	-0.0106824	0.00437187	-0.017811	0.425293	0.549072	1.07007	-0.213116	-0.177294	-0.316759	-0.90709	1.96318	6.72351	7.57133	0.00736691	0.0149804	-0.00345835	-0.57251	-0.864746	-0.506592	-0.174079	-0.971129	-0.16269	-0.0116726	-0.00902402	3.52701	-9.11658	-0.000656194	0.0101203	-0.00305146	0.473389	-0.399902	0.884521	
49	0.37055	0.427561	0.0958082	-0.818966	-8.08849	1.71881	6.50011	0.00267841	-0.00835325	0.00841228	0.77124	0.0766602	-0.944092	0.186239	0.0893992	0.000717341	-0.978428	-1.79124	0.353871	9.9486	-0.00631001	0.0205148	-0.0174421	-0.0305176	0.00561523	-1.00732	0.258497	0.95772	0.123189	-0.0278438	-0.783465	4.36591	-7.7752	0.0241779	-0.00685689	-0.0120405	0.387207	-0.266113	1.00781	-0.328759	0.608314	0.716502	-0.0921759	3.57994	-5.22133	-7.44913	-0.0157101	0.0145475	0.00112589	-0.428223	1.04492	0.492676	-0.186574	0.966415	0.17591	0.0169758	0.991914	-3.4736	-9.02205	0.0419726	-0.00983171	-0.0170967	0.181152	0.679199	1.10864	0.809656	0.529137	-0.197933	-0.15904	1.70679	9.73438	3.84936	0.0151171	0.018198	-0.0192521	0.272217	-1.14404	-0.46582	0.154826	-0.129897	-0.0192295	-0.979176	2.7383	-0.00847804	10.3111	-0.0349379	0.000664827	-0.0143752	-0.639893	0.012207	-0.882568	0.168375	-0.221356	0.31361	-0.90791	3.15407	-6.93292	7.48048	0.00383045	0.0122821	-0.0155514	-0.752197	0.790771	-0.478271	0.25028	-0.967452	-0.0366127	-0.00743218	0.352233	-4.46293	-8.02922	0.0144059	0.00535566	-0.0161972	0.42749	0.553467	1.06787	-0.213156	-0.177184	-0.317	-0.907018	1.91799	6.80175	7.58716	0.00985332	0.0173047	0.00088471	-0.572266	-0.869141	-0.513184	-0.174558	-0.971042	-0.162686	-0.0118603	-0.0216155	3.52407	-9.09891	-0.0198974	0.0104923	-0.00561498	0.473389	-0.399902	0.88916	
50	0.370667	0.427531	0.0957337	-0.818937	-8.1302	1.68697	6.47037	0.00389037	-0.00354567	0.00359344	0.77124	0.0788574	-0.952637	0.186208	0.0891702	0.000617508	-0.978455	-1.83082	0.426725	10.0351	-0.0174941	0.00794962	-0.0167617	-0.0324707	0.00146484	-1.00244	0.258495	0.957708	0.123285	-0.0278882	-0.804012	4.288	-7.84521	-0.0036548	0.00670218	-0.0034872	0.385254	-0.268311	1.00781	-0.328804	0.608312	0.716471	-0.0922687	3.60321	-5.21557	-7.45237	0.011082	-0.00094336	0.00314535	-0.430664	1.04932	0.490479	-0.186578	0.966361	0.176211	0.0169002	0.992722	-3.42651	-9.10386	0.00136828	-0.00174374	-0.0196774	0.181152	0.679199	1.11084	0.809618	0.529208	-0.19785	-0.1591	1.70266	9.76922	3.8308	0.00143287	0.0152424	-0.0149726	0.266113	-1.15063	-0.465576	0.154593	-0.130131	-0.0181548	-0.979202	2.6859	-0.0674658	10.2146	-0.0206231	0.0172995	-0.0170586	-0.639893	0.0144043	-0.880371	0.168368	-0.2216	0.313571	-0.907865	3.15875	-6.92397	7.51067	0.00554844	0.00457088	-0.0201869	-0.756348	0.788574	-0.478271	0.250173	-0.967487	-0.0364254	-0.00738813	0.364354	-4.48374	-8.06268	-0.00216226	0.00330858	-0.0116146	0.418457	0.548828	1.07227	-0.213293	-0.17735	-0.316553	-0.907109	1.84184	6.71423	7.55759	-0.0207029	-0.00412825	0.00700477	-0.574463	-0.871338	-0.510986	-0.174623	-0.971032	-0.162671	-0.0119344	-0.00744444	3.53149	-9.0638	-0.00346473	0.00953932	-0.0031676	0.47583	-0.404297	0.880127	
51	0.370561	0.427642	0.095583	-0.818945	-8.08179	1.72064	6.53201	0.00727858	0.000181086	-0.00193318	0.773193	0.083252	-0.954834	0.186263	0.088938	0.000667888	-0.978466	-1.72609	0.437054	9.98684	-0.0242603	-0.00122051	-0.0165623	-0.0327148	0.00561523	-1.00513	0.25839	0.957748	0.123195	-0.0278759	-0.806793	4.46657	-7.79531	0.0113643	0.00321703	0.00420726	0.387207	-0.268311	1.00781	-0.328703	0.608484	0.716354	-0.0923998	3.56244	-5.2157	-7.51571	0.0039988	0.00391583	0.0132679	-0.426514	1.05151	0.494873	-0.186437	0.966398	0.176144	0.0169927	0.978053	-3.46902	-9.05149	-0.0124723	0.0127696	-0.0123683	0.187744	0.677002	1.10181	0.809941	0.528671	-0.197989	-0.159066	1.72824	9.71876	3.83287	-0.0260389	0.00941647	-0.00946164	0.263672	-1.14624	-0.467773	0.15452	-0.13078	-0.0175608	-0.979138	2.76844	0.00507218	10.2503	-0.00789174	-0.00537421	-0.0132047	-0.642334	0.0187988	-0.882568	0.168414	-0.221807	0.313368	-0.907876	3.20981	-6.91423	7.46412	0.0146992	0.00612393	-0.0207912	-0.75415	0.786621	-0.478027	0.250208	-0.967481	-0.0363642	-0.00738926	0.346491	-4.48069	-8.06629	0.0111197	0.00410886	-0.0183828	0.425293	0.548828	1.07227	-0.213299	-0.177668	-0.315929	-0.907263	1.92126	6.75859	7.54997	-0.0148793	-0.00522586	0.0161229	-0.574463	-0.869141	-0.515625	-0.174191	-0.971099	-0.162746	-0.0117789	-0.0251518	3.52832	-9.10844	0.010674	-0.00117039	-0.00856372	0.482422	-0.4021	0.886963	
52	0.370397	0.427741	0.0953844	-0.818991	-8.06248	1.69425	6.51339	0.0161652	-0.00317652	-0.00363598	0.775635	0.0766602	-0.950439	0.186195	0.0890725	0.000716614	-0.978467	-1.72113	0.405298	9.91152	-0.00915257	0.0195358	-0.018328	-0.0283203	0.00366211	-1.00024	0.258086	0.957861	0.12299	-0.0276875	-0.780649	4.44588	-7.75597	0.0208868	0.00365257	0.000455933	0.391602	-0.263916	1.00562	-0.328934	0.608395	0.716339	-0.0922878	3.5619	-5.24323	-7.43596	-0.00758889	0.0232223	-0.0104192	-0.426025	1.04492	0.490479	-0.186081	0.96649	0.17602	0.0169891	0.953239	-3.35033	-9.08452	-0.0291409	0.00416346	-0.00613087	0.185547	0.679199	1.10864	0.810162	0.52829	-0.197794	-0.159451	1.69971	9.75013	3.8607	-0.00993914	0.0162494	-0.0288365	0.27002	-1.14624	-0.467773	0.154405	-0.131074	-0.0166745	-0.979133	2.71265	-0.0629438	10.1146	-0.023793	0.00369079	-0.0124835	-0.642334	0.0209961	-0.884766	0.16819	-0.221742	0.313104	-0.908024	3.19461	-6.88112	7.48632	0.0128951	0.0123757	-0.019064	-0.75415	0.786621	-0.48291	0.250208	-0.967481	-0.0363642	-0.00738926	0.346491	-4.48069	-8.06629	0.0111197	0.00410886	-0.0183828	0.425293	0.548828	1.07227	-0.213228	-0.177856	-0.315551	-0.907375	1.92932	6.68175	7.55186	-0.00959943	0.00442566	0.011966	-0.574463	-0.869141	-0.513184	-0.173904	-0.971139	-0.162818	-0.0117226	-0.0169299	3.51498	-9.09088	0.0132336	0.00338371	-0.00667644	0.477539	-0.393311	0.891357	
53	0.370267	0.427807	0.0955032	-0.819001	-8.08888	1.83213	6.51941	-0.000896107	0.00496675	-0.0127274	0.775391	0.0810547	-0.946045	0.186179	0.0887465	0.0011923	-0.978499	-1.74322	0.301396	9.82554	-0.019686	0.00505495	-0.0214211	-0.034668	0.00366211	-1.00024	0.257564	0.958001	0.123006	-0.0276441	-0.840441	4.29661	-7.83512	0.0446128	0.0127617	-0.00263069	0.380859	-0.263672	1.01001	-0.329381	0.608197	0.716296	-0.0923248	3.5198	-5.23625	-7.37264	0.0177659	0.0186662	-0.0106549	-0.433105	1.05127	0.494873	-0.186371	0.966365	0.176369	0.0172765	0.939604	-3.43116	-9.02197	0.00517895	0.00712932	-0.0123072	0.181152	0.679199	1.11304	0.81021	0.528157	-0.197528	-0.159975	1.70293	9.69895	3.86046	-0.00375785	0.0115784	-0.0411731	0.272217	-1.14844	-0.480713	0.154441	-0.132157	-0.0163309	-0.978987	2.715	-0.164382	10.0664	0.0113122	-0.0211173	-0.00827209	-0.644531	0.0187988	-0.880371	0.168241	-0.221599	0.313211	-0.908013	3.17539	-6.90531	7.48414	0.00292366	0.0207722	-0.00986298	-0.758301	0.784424	-0.480469	0.25118	-0.967203	-0.0369813	-0.0077106	0.36431	-4.47459	-8.04006	0.0217437	0.004764	-0.0184698	0.427734	0.549072	1.06348	-0.213244	-0.177782	-0.315692	-0.907336	1.94807	6.62256	7.53968	0.0141504	0.0185198	-0.00141801	-0.579102	-0.864746	-0.513428	-0.173622	-0.971175	-0.162903	-0.0117095	-0.00936366	3.5189	-9.09281	0.0125804	0.00420958	-0.0049373	0.477783	-0.399902	0.88916	
54	0.369987	0.427588	0.095875	-0.819198	-8.09039	1.72141	6.52608	-0.00949452	-0.00587471	-0.0194006	0.777588	0.0810547	-0.954834	0.18628	0.0884085	0.00152974	-0.97851	-1.68441	0.305602	9.9301	-0.0426576	-0.00610662	-0.0125569	-0.0349121	0.00561523	-1.00513	0.257386	0.958034	0.12311	-0.0276927	-0.931284	4.39795	-7.73364	0.0275287	0.00101194	-0.0128238	0.387207	-0.261719	1.01221	-0.329433	0.607959	0.716572	-0.0915652	3.54101	-5.19729	-7.49947	-0.00800543	0.0152667	-0.024014	-0.428467	1.04712	0.494873	-0.186712	0.966313	0.17631	0.017113	0.955019	-3.43109	-8.98928	0.0297801	-0.000197614	-0.00999074	0.181152	0.681396	1.1062	0.810002	0.528472	-0.197531	-0.159983	1.6907	9.73651	3.84679	0.0331767	0.0181186	-0.0225225	0.272705	-1.15503	-0.463379	0.154704	-0.134151	-0.0171763	-0.97866	2.82993	-0.173591	10.3176	0.0491915	-0.0766874	-0.0058767	-0.648438	0.012207	-0.880371	0.168274	-0.221523	0.313455	-0.907941	3.18018	-6.86972	7.48636	-0.0119231	0.0219581	-0.00681898	-0.749512	0.780029	-0.473389	0.251089	-0.967227	-0.0369537	-0.00773586	0.368916	-4.47658	-8.04933	-0.000563806	0.00439126	-0.0203024	0.420654	0.55127	1.06567	-0.213268	-0.177576	-0.31597	-0.907274	1.99519	6.70948	7.56603	0.0204532	0.0289584	-0.00784074	-0.574463	-0.869141	-0.513184	-0.173622	-0.971175	-0.162903	-0.0117095	-0.00936366	3.5189	-9.09281	0.0125804	0.00420958	-0.0049373	0.477783	-0.399902	0.88916	
55	0.369998	0.427249	0.0964632	-0.819301	-8.08369	1.57906	6.51701	-0.0197831	-0.00708126	-0.0095374	0.770996	0.0810547	-0.959229	0.186423	0.0882136	0.00188468	-0.978499	-1.73641	0.229611	10.0105	-0.0163922	0.0142229	-0.0161512	-0.034668	0.00366211	-1.00024	0.257154	0.95804	0.123477	-0.0280153	-0.78081	4.36013	-7.72788	-0.00479819	-0.00353516	-0.0220378	0.391357	-0.261719	1.00781	-0.329546	0.607691	0.716784	-0.0912828	3.59451	-5.20729	-7.43372	-0.00248926	0.0176683	-0.0342796	-0.428223	1.04492	0.492676	-0.187519	0.966133	0.17649	0.0165943	0.974755	-3.4359	-8.99001	0.0457978	-0.0150066	-0.0242148	0.183105	0.681396	1.104	0.809147	0.529877	-0.197149	-0.160137	1.68587	9.72971	3.84073	0.0676588	0.0285033	-0.0542644	0.272217	-1.14624	-0.465576	0.154828	-0.135376	-0.0181666	-0.978454	2.88589	-0.152431	10.4118	0.0817522	-0.0956999	-0.00962855	-0.648926	0.0209961	-0.876221	0.168396	-0.221099	0.313739	-0.907924	3.20146	-6.91974	7.50309	0.00160279	0.0321493	-0.00392073	-0.747559	0.784424	-0.485107	0.25113	-0.967222	-0.0368037	-0.00777161	0.374236	-4.47405	-8.0614	0.0152425	0.00541902	-0.0159605	0.418457	0.548828	1.07007	-0.213336	-0.177083	-0.316554	-0.907151	1.92685	6.72323	7.58565	0.0199022	0.0322229	-0.00767944	-0.574707	-0.864746	-0.513428	-0.173846	-0.971135	-0.162886	-0.0119572	-0.00139922	3.51336	-9.1079	-0.0185129	0.0110416	-0.00156065	0.470947	-0.395508	0.88916	
56	0.37015	0.427134	0.0966834	-0.819267	-8.14101	1.64643	6.4528	-0.0147596	-0.00289596	0.00245151	0.775391	0.083252	-0.954834	0.186478	0.0883607	0.00211975	-0.978475	-1.8201	0.289094	10.0477	-0.0106782	0.0285393	-0.0176181	-0.0324707	0.00366211	-1.00269	0.257	0.958043	0.123767	-0.0280534	-0.725641	4.31742	-7.84887	0.00530271	0.00852856	-0.010702	0.382812	-0.261719	1.00317	-0.329834	0.607294	0.717015	-0.0910678	3.69566	-5.20048	-7.44592	0.0169312	0.00952118	-0.0170803	-0.433105	1.05347	0.494873	-0.187827	0.966015	0.176811	0.0165734	1.01508	-3.58355	-9.17457	0.0151162	0.00944056	-0.0291235	0.18335	0.679199	1.10181	0.808753	0.530539	-0.196897	-0.160245	1.67289	9.79506	3.79633	0.0120898	0.0185198	-0.0219755	0.278809	-1.15063	-0.467773	0.155044	-0.136882	-0.0196281	-0.978182	2.82483	-0.031825	10.3317	0.0611377	-0.0455809	-0.0118315	-0.650391	0.0100098	-0.869629	0.168401	-0.221099	0.313944	-0.907852	3.11546	-6.92499	7.48851	-0.00333521	0.0110292	-0.0180212	-0.749756	0.786621	-0.47583	0.25113	-0.967222	-0.0368037	-0.00777161	0.374236	-4.47405	-8.0614	0.0152425	0.00541902	-0.0159605	0.418457	0.548828	1.07007	-0.213297	-0.176889	-0.31681	-0.907109	1.81999	6.76929	7.57248	0.00510925	0.0154219	0.00357793	-0.572266	-0.871338	-0.510986	-0.174196	-0.971074	-0.162856	-0.0121708	-0.0153129	3.52265	-9.0736	-0.00488858	0.0102065	-0.00306799	0.482178	-0.397705	0.88916	
57	0.37019	0.427295	0.0966109	-0.819173	-8.07772	1.64098	6.48453	0.010814	0.00379999	0.00574203	0.775391	0.0810547	-0.954834	0.186531	0.0883648	0.00201281	-0.978465	-1.79351	0.345309	10.0459	-0.0032483	0.0120815	-0.0143551	-0.0388184	-0.000732422	-1.00488	0.257318	0.957979	0.123687	-0.0276774	-0.751963	4.28618	-7.77219	-0.0109712	0.018397	0.0103119	0.391602	-0.266113	1.00562	-0.329806	0.60734	0.716983	-0.0911122	3.62573	-5.17318	-7.50658	0.0107885	-0.00476949	0.00924236	-0.433105	1.05371	0.48584	-0.18722	0.966128	0.176793	0.0170382	1.01654	-3.47304	-9.13449	-0.0389981	0.0253172	-0.0219855	0.181152	0.679199	1.1062	0.809317	0.529633	-0.197	-0.160271	1.69276	9.75172	3.8225	-0.0510683	0.00747239	-0.00228038	0.276611	-1.14624	-0.467773	0.155206	-0.137448	-0.0208977	-0.97805	2.87001	-0.0131716	10.1097	0.0623065	-0.00749618	-0.0116485	-0.656982	0.012207	-0.878174	0.168286	-0.221434	0.314012	-0.907768	3.15677	-6.97256	7.48076	0.00841715	0.00431713	-0.0247887	-0.747314	0.782227	-0.47583	0.251322	-0.967162	-0.0370325	-0.00796295	0.356151	-4.48913	-8.02893	-0.00587079	0.0046276	-0.0237222	0.425293	0.55127	1.06787	-0.213229	-0.177067	-0.316666	-0.90714	1.91755	6.68977	7.56838	-0.000494726	0.00281488	0.0124396	-0.57666	-0.873535	-0.510986	-0.174248	-0.971068	-0.162838	-0.0121464	-0.0131286	3.54268	-9.099	-0.00306437	0.00268978	-0.00612844	0.475586	-0.4021	0.88916	
58	0.370196	0.427729	0.0964565	-0.818962	-8.09039	1.65172	6.52403	0.011755	0.0121057	0.00524295	0.777344	0.0854492	-0.950439	0.186451	0.0883593	0.00114204	-0.978482	-1.68957	0.342414	9.97365	0.0334617	0.00683662	-0.0193091	-0.0368652	0.0012207	-1.00488	0.2578	0.957871	0.12362	-0.0272111	-0.920308	4.34651	-7.74286	-0.0193553	0.0167894	0.00551561	0.38501	-0.263916	1.00317	-0.329989	0.607231	0.716947	-0.0914552	3.57392	-5.21354	-7.42321	0.016632	-0.000732543	0.00141263	-0.434814	1.04028	0.492676	-0.186623	0.966243	0.176739	0.0175747	0.971345	-3.35931	-8.97564	-0.0307976	0.0165108	-0.0144254	0.18335	0.679199	1.10864	0.810026	0.528482	-0.196865	-0.160654	1.68271	9.72024	3.85874	-0.0452241	0.0105468	-0.0170402	0.272461	-1.15063	-0.471924	0.155336	-0.137874	-0.0228151	-0.977927	2.90158	-0.0500728	10.0993	0.0985545	-0.0315551	-0.0190195	-0.652588	0.0078125	-0.875977	0.168213	-0.221661	0.313898	-0.907766	3.2203	-6.88001	7.52605	0.00494323	0.00727114	-0.0205408	-0.747803	0.791016	-0.480469	0.251184	-0.967202	-0.036938	-0.00793539	0.372341	-4.48881	-8.0812	0.0139001	-0.000662885	-0.0170939	0.423096	0.549072	1.06567	-0.213111	-0.177323	-0.316485	-0.907181	1.94478	6.7024	7.5707	-0.00226975	0.00172746	0.013384	-0.57251	-0.864746	-0.51123	-0.174319	-0.971056	-0.16284	-0.0120899	-0.00954489	3.52537	-9.08651	0.000440325	0.00459427	-0.0058638	0.470947	-0.397705	0.882324	
59	0.369982	0.427955	0.096272	-0.818962	-8.06323	1.86256	6.53981	0.00864709	0.0012395	-0.00947442	0.777588	0.083252	-0.948242	0.18656	0.08856	0.00133617	-0.978443	-1.74899	0.468246	9.89524	-0.0215922	0.0125971	-0.0154765	-0.0368652	0.00341797	-1.00488	0.25794	0.957853	0.123493	-0.0270712	-0.805641	4.30429	-7.77216	-0.00996305	0.0101911	0.00952831	0.387207	-0.261719	1.00317	-0.329927	0.607126	0.7171	-0.0911747	3.60976	-5.23663	-7.40758	-0.0119038	0.0148346	-0.0119021	-0.430664	1.04492	0.492676	-0.186233	0.966333	0.176629	0.0178785	0.919598	-3.39263	-8.98741	-0.00217548	0.0195168	-0.00788363	0.178955	0.679199	1.09717	0.810147	0.528285	-0.196777	-0.160794	1.66704	9.77202	3.88494	0.0022195	0.0116952	-0.0122192	0.270264	-1.15283	-0.471924	0.155698	-0.137784	-0.0246155	-0.977838	2.83886	0.108738	10.2151	0.0690756	-0.0448696	-0.00437739	-0.658936	0.00561523	-0.871582	0.168301	-0.221743	0.313981	-0.907701	3.19944	-6.87437	7.4594	-0.000840243	0.0117541	-0.0132526	-0.753906	0.784424	-0.480469	0.251477	-0.96713	-0.0368153	-0.00797369	0.364216	-4.48545	-8.02271	0.0169336	0.00603472	-0.0178879	0.418213	0.55127	1.06567	-0.213078	-0.17739	-0.316312	-0.907236	1.93125	6.65782	7.57258	-0.00342056	0.00868302	0.00600699	-0.57251	-0.862549	-0.508789	-0.174097	-0.971101	-0.16281	-0.012072	-0.0198289	3.5159	-9.08536	0.0192445	0.00571736	-0.00466069	0.475586	-0.399902	0.886963	
60	0.369989	0.427587	0.0967941	-0.81909	-8.11293	1.56874	6.5208	-0.0220036	-0.0122711	-0.0129782	0.775391	0.0810547	-0.957031	0.186601	0.0883804	0.00158314	-0.978451	-1.70007	0.333931	9.77413	-0.0329304	0.00507673	-0.0164202	-0.0305176	0.00341797	-1.00488	0.258036	0.957809	0.123649	-0.027025	-0.842459	4.2892	-7.76796	-0.000331082	-0.00538998	-0.0144487	0.38501	-0.266113	1.00562	-0.329789	0.607168	0.717148	-0.0910267	3.60818	-5.17474	-7.3782	0.00322195	0.000224433	-0.00376008	-0.432861	1.04688	0.49707	-0.186184	0.966358	0.176552	0.0178435	0.927573	-3.40021	-8.98582	-0.00447541	0.00508949	-0.00876248	0.183105	0.681396	1.104	0.809716	0.52892	-0.196941	-0.160678	1.65492	9.68992	3.84703	0.0395528	0.0167267	-0.0208869	0.274658	-1.15063	-0.469727	0.156359	-0.135793	-0.0264163	-0.977964	2.85378	0.0596426	9.98317	0.125356	0.0666583	-0.00102023	-0.652344	0.00146484	-0.871582	0.168315	-0.22178	0.314215	-0.907608	3.254	-6.88736	7.5015	-0.0137764	0.0136133	-0.0110728	-0.756348	0.788574	-0.46875	0.251996	-0.966993	-0.0367985	-0.00825072	0.366012	-4.50099	-8.10575	0.0373503	0.0174491	-0.0258844	0.422852	0.553467	1.06567	-0.213078	-0.17739	-0.316312	-0.907236	1.93125	6.65782	7.57258	-0.00342056	0.00868302	0.00600699	-0.57251	-0.862549	-0.508789	-0.173995	-0.971123	-0.162797	-0.0119623	-0.00586296	3.51138	-9.09788	0.00175148	-0.0010505	-0.00588406	0.475342	-0.397705	0.886963	
61	0.369948	0.427229	0.0969896	-0.819272	-8.09923	1.62884	6.45282	-0.00583589	-0.0137957	-0.00529719	0.775391	0.0810547	-0.950439	0.186625	0.0884396	0.00211927	-0.97844	-1.75292	0.260024	9.9267	-0.0341915	0.0231596	-0.0199605	-0.0327148	0.00561523	-1.00513	0.258159	0.957764	0.123692	-0.027225	-0.718675	4.29888	-7.73847	0.00382088	-0.0073136	-0.0105006	0.383057	-0.265869	1.00562	-0.330042	0.607266	0.717066	-0.0900923	3.63659	-5.19854	-7.5052	-0.0213301	0.0431289	-0.0117873	-0.433105	1.04907	0.494873	-0.187718	0.966067	0.176599	0.0170316	0.95767	-3.51293	-8.92146	0.100487	-0.00727684	-0.0151488	0.1875	0.681396	1.1062	0.809544	0.529174	-0.197192	-0.160399	1.69495	9.78375	3.83989	0.00892968	0.0103601	-7.59568e-05	0.274414	-1.14404	-0.467773	0.156803	-0.133863	-0.0282909	-0.978107	2.78315	0.0210512	10.2026	0.0628413	0.0929551	-0.0143366	-0.649902	-0.000732422	-0.87793	0.168451	-0.221638	0.314773	-0.907424	3.19955	-6.87951	7.51328	-0.0147225	0.0221553	-0.00213951	-0.751953	0.788574	-0.471191	0.252566	-0.966843	-0.036805	-0.00843443	0.375088	-4.5041	-8.04826	0.0536077	0.0181278	-0.0260018	0.42041	0.555908	1.06567	-0.212963	-0.177258	-0.316382	-0.907265	1.87043	6.76338	7.56913	0.00284264	0.00695273	0.00841758	-0.574707	-0.862549	-0.508789	-0.173972	-0.971124	-0.162824	-0.0118436	-0.0174432	3.51763	-9.09269	0.00580035	-0.00294531	-0.00899659	0.477539	-0.395508	0.882324	
62	0.370049	0.427114	0.0970907	-0.819274	-8.14098	1.7289	6.45981	-0.0130606	-0.00890738	0.00184749	0.775391	0.0854492	-0.954834	0.186437	0.0886669	0.00229492	-0.978455	-1.83683	0.280563	10.0392	-0.0188491	0.0294613	-0.0238582	-0.0324707	-0.000732422	-1.00488	0.257417	0.957921	0.123984	-0.0274236	-0.779574	4.39874	-7.86828	0.0203395	-0.0010192	-0.0161331	0.387207	-0.261719	1.00781	-0.330198	0.607192	0.717067	-0.0900102	3.64619	-5.18201	-7.57694	0.0073845	0.0174345	-0.00794349	-0.435303	1.05347	0.499268	-0.188836	0.965786	0.176962	0.0168528	1.06451	-3.46779	-9.15134	0.0468802	0.00223672	-0.0223764	0.1875	0.683594	1.104	0.809606	0.529072	-0.197223	-0.160388	1.71387	9.78478	3.83564	-0.00590356	0.012744	-0.0109824	0.274414	-1.14624	-0.472168	0.156886	-0.133219	-0.0289396	-0.978163	2.7951	0.105182	10.318	0.0774408	0.0575559	-0.0171576	-0.654297	-0.000732422	-0.87793	0.168355	-0.221637	0.314949	-0.907381	3.10262	-6.93911	7.47876	-0.00464818	0.00986586	-0.0101064	-0.749756	0.784424	-0.478027	0.253752	-0.966522	-0.0370195	-0.00868844	0.381631	-4.49891	-8.004	0.0523332	0.0106463	-0.0217864	0.422607	0.562744	1.06323	-0.212894	-0.177611	-0.315536	-0.907506	1.88583	6.78163	7.56504	-0.041002	-0.011706	0.0205909	-0.576904	-0.866943	-0.508789	-0.173065	-0.971268	-0.162955	-0.0115394	-0.0193341	3.50732	-9.07816	0.039474	-0.00208243	-0.00841143	0.475342	-0.395508	0.88916	
63	0.370107	0.427025	0.0972092	-0.819281	-8.07314	1.57921	6.48745	0.00337362	-0.000545241	0.00300531	0.772949	0.0874023	-0.948486	0.186255	0.0888108	0.00212996	-0.978477	-1.78349	0.286805	10.0418	0.00845484	0.0193063	-0.0214518	-0.0305176	0.0078125	-1.00513	0.257401	0.957918	0.124089	-0.0272167	-0.738407	4.3023	-7.75483	0.000567577	0.0105897	-0.00304493	0.38501	-0.268066	1.00342	-0.330566	0.607073	0.716948	-0.0904154	3.68022	-5.20846	-7.38988	0.0104281	0.0127959	0.00274983	-0.435059	1.04492	0.490479	-0.188692	0.9658	0.177014	0.0170902	0.989063	-3.51987	-9.0847	-0.0158487	0.0251151	-0.015829	0.185303	0.683594	1.1062	0.810151	0.528148	-0.19724	-0.160662	1.66873	9.74178	3.84273	-0.0515195	0.00704324	-0.00301676	0.272461	-1.14844	-0.469971	0.157001	-0.131896	-0.0299899	-0.978292	2.80911	0.076111	10.1214	0.0691524	0.0573652	-0.017246	-0.645508	-0.00512695	-0.877686	0.16846	-0.222072	0.314754	-0.907323	3.15692	-7.02416	7.45471	0.0127672	-0.00392197	-0.020705	-0.752197	0.790771	-0.471191	0.254263	-0.966391	-0.0369226	-0.00862949	0.387014	-4.53322	-7.98256	0.0185695	0.000260864	-0.0147306	0.427246	0.558105	1.06323	-0.21286	-0.177999	-0.314491	-0.907801	1.98487	6.56676	7.57813	-0.0254484	-0.00978682	0.0190653	-0.577148	-0.862549	-0.51123	-0.171982	-0.971455	-0.163003	-0.0113068	-0.03202	3.49553	-9.1295	0.0370848	0.00428123	-0.00644326	0.477539	-0.391113	0.891357	
64	0.369954	0.427433	0.0970099	-0.81916	-8.07364	1.65737	6.51574	0.0175091	0.0101914	-0.00130999	0.775391	0.083252	-0.948242	0.186368	0.0891225	0.00166958	-0.978428	-1.76629	0.36004	9.89867	0.0170888	0.0212659	-0.00752925	-0.0280762	0.00146484	-1.00488	0.25776	0.957877	0.123743	-0.026809	-0.860877	4.36827	-7.70017	-0.0253791	0.00883859	0.0143744	0.387207	-0.268311	1.00342	-0.331327	0.606724	0.71678	-0.091297	3.52416	-5.22119	-7.45943	0.0136496	-0.0127199	0.00985235	-0.433105	1.04932	0.490479	-0.187495	0.966071	0.176727	0.0178972	0.95088	-3.47275	-9.09352	-0.0597082	0.0322512	-0.013406	0.181152	0.681396	1.11304	0.810861	0.527024	-0.197303	-0.160691	1.69821	9.7262	3.89478	-0.0356099	0.00866296	-0.00439236	0.276611	-1.14624	-0.472168	0.157233	-0.130538	-0.0306743	-0.978415	2.73387	0.131638	9.96615	0.0517113	0.0595771	-0.0098751	-0.647461	-0.00732422	-0.88208	0.168311	-0.222261	0.314498	-0.907393	3.18413	-6.94181	7.45554	0.0149088	0.0102209	-0.0285019	-0.751953	0.786377	-0.47583	0.253776	-0.966523	-0.0368359	-0.00864817	0.375739	-4.52718	-7.98108	-0.0232161	0.00361597	-0.018684	0.422607	0.558105	1.06323	-0.21288	-0.178215	-0.314463	-0.907764	1.96601	6.61688	7.56389	0.0116834	0.00649584	0.00197317	-0.579102	-0.866943	-0.517822	-0.172156	-0.971425	-0.162996	-0.0113504	-0.00933447	3.4761	-9.10548	-0.0173763	0.00685566	-0.00434926	0.475586	-0.399902	0.88916	
65	0.369683	0.427636	0.0968773	-0.819193	-8.08954	1.7316	6.53256	0.00888872	-0.00497761	-0.0130332	0.779785	0.083252	-0.952637	0.186592	0.0891975	0.00118057	-0.978379	-1.72775	0.269167	9.81202	0.00859313	0.0156473	-0.0102326	-0.0302734	0.00146484	-1.00244	0.257859	0.957858	0.123706	-0.0267294	-0.824346	4.35353	-7.74039	0.00316255	0.000961732	-0.00919379	0.380859	-0.268066	0.998779	-0.331138	0.606645	0.716905	-0.0915272	3.6136	-5.23818	-7.41222	0.00996546	-0.00440207	-0.00772643	-0.432861	1.04712	0.490479	-0.186831	0.966185	0.176777	0.0181822	0.955172	-3.42256	-8.95579	-0.0282391	0.00929169	-0.0122522	0.176758	0.677002	1.104	0.810811	0.52714	-0.197037	-0.16089	1.68284	9.73204	3.89252	0.0142341	0.0200838	-0.0328337	0.272217	-1.14624	-0.467773	0.157463	-0.129646	-0.0314703	-0.978472	2.73672	0.169026	9.91634	0.0421677	0.0369381	-0.0120965	-0.636719	-0.00708008	-0.875488	0.168202	-0.222276	0.314343	-0.907464	3.22952	-6.8352	7.48158	0.00625377	0.0158949	-0.0195191	-0.749756	0.788574	-0.47583	0.253261	-0.96666	-0.0367642	-0.00864311	0.374626	-4.50834	-7.99484	-0.0356795	0.00176528	-0.0159195	0.422852	0.555908	1.06567	-0.212962	-0.178116	-0.314878	-0.90762	1.95481	6.69982	7.55417	0.0177482	0.0185531	-0.00435326	-0.574707	-0.864746	-0.515625	-0.172737	-0.971333	-0.162909	-0.0115698	-0.0282305	3.48696	-9.09374	-0.0185589	0.0115585	-0.00131108	0.46875	-0.397949	0.884521	
66	0.369846	0.427388	0.0970723	-0.819226	-8.13715	1.6035	6.51366	-0.0157318	-0.00957053	0.0062076	0.775635	0.0788574	-0.952637	0.186625	0.089507	0.00104849	-0.978345	-1.79278	0.405176	9.89582	-0.0130639	0.0304949	-0.0161718	-0.0344238	-0.00292969	-1.00708	0.258205	0.957763	0.123682	-0.026899	-0.688472	4.16955	-7.76427	0.00267708	-0.00460591	-0.00348729	0.38501	-0.266113	1.00562	-0.330876	0.606702	0.716976	-0.0915393	3.66763	-5.21441	-7.40667	-0.00607532	0.000130941	0.00611752	-0.433105	1.05127	0.492676	-0.186609	0.966218	0.176841	0.0180815	0.943773	-3.52717	-9.05236	0.0140368	-0.00749335	-0.0137621	0.181152	0.679199	1.10864	0.810572	0.527562	-0.19701	-0.160746	1.67879	9.74022	3.87193	0.0248257	0.0173179	-0.0100097	0.276611	-1.14624	-0.467773	0.157545	-0.128501	-0.0313456	-0.978614	2.68322	0.325294	9.847	-0.00681139	0.070253	-0.013207	-0.643311	-0.00512695	-0.879883	0.168156	-0.222128	0.314655	-0.9074	3.19806	-6.92298	7.478	-0.0117359	0.0236421	-0.0110243	-0.747559	0.786621	-0.47583	0.252813	-0.96678	-0.0366873	-0.0087035	0.371439	-4.50493	-8.0591	0.0166203	0.00435765	-0.0144807	0.427246	0.558105	1.06787	-0.212942	-0.17775	-0.315391	-0.907518	1.91123	6.74581	7.56494	0.0204914	0.0290146	-0.00314219	-0.57251	-0.864746	-0.51123	-0.172953	-0.971307	-0.16283	-0.011699	-0.0196448	3.51331	-9.0937	-0.00198447	0.00776437	-0.00388239	0.473145	-0.395508	0.886719	
67	0.36991	0.427203	0.0968414	-0.81932	-8.07677	1.58128	6.4677	0.0161896	-0.0129823	0.00344206	0.773438	0.0788574	-0.952637	0.186493	0.0898757	0.00103712	-0.978336	-1.80702	0.386279	9.94415	-0.00380152	0.0441875	-0.0275705	-0.0302734	0.00146484	-1.00244	0.257896	0.957843	0.123673	-0.0270539	-0.801798	4.45455	-7.82196	0.0292087	-0.00547245	-0.00553258	0.38501	-0.263916	1.00562	-0.330506	0.60728	0.716657	-0.0915358	3.67632	-5.24004	-7.42642	-0.0180785	-0.00174815	0.0342681	-0.4375	1.04907	0.490479	-0.186977	0.966163	0.176774	0.0178567	0.94542	-3.46721	-9.00935	0.0324891	-0.00394917	-0.00830305	0.18335	0.681396	1.10864	0.810564	0.527489	-0.19773	-0.160139	1.70027	9.7729	3.87286	0.0133184	0.000599754	0.0297265	0.272217	-1.14624	-0.472168	0.157248	-0.12795	-0.0300009	-0.978776	2.69954	0.214578	10.1278	-0.0294586	0.030142	-0.0223242	-0.638916	-0.00708008	-0.888428	0.168194	-0.222043	0.314763	-0.907376	3.17663	-6.93269	7.4736	-0.00072963	0.0214736	-0.0100736	-0.749756	0.786377	-0.473389	0.253104	-0.966708	-0.0365475	-0.00882543	0.390084	-4.51137	-8.01128	0.0185637	0.00742613	-0.0210405	0.425293	0.553467	1.06348	-0.212935	-0.177541	-0.31548	-0.90753	1.9493	6.71029	7.58192	0.000169648	0.0154961	0.00412161	-0.574707	-0.866943	-0.513428	-0.172625	-0.971366	-0.16283	-0.0116268	-0.03497	3.5064	-9.10868	0.0184612	0.00358349	-0.00455304	0.470703	-0.393311	0.88916	
68	0.369769	0.427454	0.096413	-0.819304	-8.08107	1.82199	6.49325	0.0136722	-0.00284308	0.00182557	0.775146	0.0876465	-0.950439	0.186064	0.0908653	0.00109343	-0.978326	-1.7815	0.275506	10.0279	0.00429244	0.0413999	-0.0188743	-0.026123	0.00561523	-1.00732	0.257896	0.957887	0.123277	-0.0272981	-0.801814	4.34588	-7.75655	0.0151569	-0.00654677	0.0153117	0.387207	-0.266113	1.00562	-0.330405	0.60777	0.71626	-0.0917626	3.4947	-5.19308	-7.45738	0.00543241	-0.00183553	0.0220334	-0.430664	1.04492	0.492676	-0.186484	0.966273	0.176705	0.0177554	0.998926	-3.43674	-9.15427	-0.0191764	-0.00330375	-0.00452502	0.181152	0.679199	1.104	0.810637	0.527273	-0.198326	-0.159742	1.73621	9.68064	3.89781	0.00750271	0.00558925	-0.00467364	0.263428	-1.14185	-0.468018	0.156961	-0.127904	-0.0287383	-0.978866	2.76898	0.11177	10.1758	-0.0248875	0.0234302	-0.0193258	-0.643799	0.00366211	-0.882324	0.168101	-0.221866	0.314815	-0.907419	3.18076	-6.95037	7.45407	0.00453	0.0170919	-0.0131444	-0.756348	0.786377	-0.478027	0.253341	-0.966653	-0.0363676	-0.00882894	0.370412	-4.50914	-7.99596	0.0188332	0.00405092	-0.0185747	0.425049	0.558105	1.05664	-0.212952	-0.177471	-0.315572	-0.907508	1.96217	6.62807	7.59193	0.0105653	0.0138984	0.00164621	-0.574707	-0.864746	-0.51123	-0.172321	-0.971422	-0.16282	-0.0115818	-0.0175795	3.48743	-9.10159	0.00937054	0.00655862	-0.00458911	0.475342	-0.395508	0.895996	
69	0.369721	0.42747	0.0965335	-0.819303	-8.07756	1.71797	6.49318	-0.00483546	0.0015067	-0.00701257	0.775635	0.0766602	-0.954834	0.186017	0.091064	0.000766139	-0.978317	-1.78624	0.385365	10.0456	0.018656	0.0256959	-0.0193618	-0.0302734	0.00146484	-1.00244	0.25762	0.957988	0.123102	-0.0271453	-0.853209	4.42054	-7.84074	0.0229181	0.0157959	0.000633945	0.387207	-0.263916	1.00562	-0.3305	0.607741	0.716241	-0.0917528	3.5908	-5.19561	-7.48239	0.00779641	0.0111886	-0.00170438	-0.435303	1.05127	0.49707	-0.185538	0.9665	0.176408	0.0182376	1.05168	-3.3431	-9.03078	-0.0634605	0.0294278	-0.0134635	0.18335	0.679199	1.11304	0.810609	0.527301	-0.19825	-0.159887	1.72633	9.75006	3.86191	0.00219539	0.0138221	-0.0292139	0.27002	-1.14624	-0.472168	0.156829	-0.127966	-0.0283008	-0.978891	2.73001	0.107754	10.148	-0.018206	0.0156878	-0.0213763	-0.63916	-0.00292969	-0.884277	0.168073	-0.221926	0.314926	-0.907371	3.19732	-6.98023	7.48758	-0.00471942	0.0122413	-0.0174386	-0.753906	0.78418	-0.473389	0.253438	-0.96663	-0.0362791	-0.00886662	0.377836	-4.54018	-8.03842	0.015708	0.00685734	-0.0175215	0.425293	0.55127	1.06128	-0.212914	-0.177446	-0.315734	-0.907465	1.96859	6.69506	7.59621	0.0152948	0.015839	0.00361663	-0.574707	-0.864746	-0.508789	-0.172426	-0.971401	-0.162836	-0.0115781	-0.020868	3.48582	-9.12526	-0.00647755	0.00435196	-0.00655046	0.47998	-0.399902	0.886963	
70	0.369655	0.427701	0.0967701	-0.819184	-8.10614	1.74071	6.48652	-0.0108934	0.0116742	-0.000388899	0.777832	0.0788574	-0.950439	0.18608	0.0912994	0.000627829	-0.978283	-1.79775	0.329335	10.0277	-0.00393687	0.0218809	-0.0167338	-0.0300293	-0.00292969	-1	0.256993	0.958145	0.123221	-0.027021	-0.70602	4.36406	-7.68343	0.0260791	0.0175085	-0.00933775	0.382812	-0.259521	1.00757	-0.331167	0.607264	0.716286	-0.0921573	3.56226	-5.17287	-7.40313	0.0497586	0.0157869	-0.0118603	-0.428467	1.04932	0.490479	-0.185405	0.966521	0.176409	0.0184776	0.973774	-3.39716	-9.02296	0.0251043	0.0165099	-0.0153866	0.178955	0.679199	1.1062	0.810634	0.527239	-0.197697	-0.160646	1.69832	9.70838	3.8838	-0.0124739	0.0149943	-0.0595577	0.27417	-1.14185	-0.474365	0.156539	-0.128735	-0.0270243	-0.978873	2.67544	0.113508	10.2248	-0.0184843	0.0152554	-0.0226429	-0.643555	0.00146484	-0.886475	0.167982	-0.222064	0.314859	-0.907377	3.16814	-6.93733	7.40835	0.0111191	0.00917386	-0.0245012	-0.753662	0.780029	-0.473389	0.253779	-0.96655	-0.0360514	-0.00883802	0.368854	-4.51204	-7.99327	0.0211811	0.00148136	-0.0143927	0.42041	0.555908	1.05884	-0.212863	-0.177517	-0.315834	-0.907428	1.85469	6.724	7.57709	0.00240703	0.00751004	0.00591339	-0.576904	-0.864746	-0.513428	-0.172817	-0.971323	-0.162873	-0.0117741	-0.0234431	3.49981	-9.10107	-0.0158936	0.00908632	-0.00463887	0.477539	-0.395508	0.884521	
71	0.369928	0.427917	0.0968599	-0.818938	-8.08916	1.47648	6.47882	0.0089521	0.00929063	0.0175985	0.773438	0.0766602	-0.952637	0.185938	0.0917557	0.00136027	-0.978267	-1.88195	0.390033	10.1215	-0.0288859	0.0316974	-0.0236647	-0.0258789	0.00146484	-1.00488	0.255933	0.958404	0.123473	-0.0267406	-0.758409	4.25592	-7.86619	0.0378571	0.0254275	-0.00157428	0.391357	-0.263916	1.00098	-0.332047	0.606668	0.716347	-0.0924429	3.70377	-5.24319	-7.4692	0.0375808	0.0137082	-0.0089838	-0.433105	1.05151	0.490479	-0.184781	0.966617	0.1765	0.0188669	1.11271	-3.53046	-9.11775	-0.0401139	0.0235572	-0.0266599	0.181152	0.677002	1.11304	0.811122	0.526516	-0.197033	-0.161367	1.67557	9.7969	3.8779	-0.0599262	0.0197744	-0.0322781	0.274414	-1.14404	-0.474365	0.156351	-0.129329	-0.0265918	-0.978837	2.68326	0.0691157	10.253	-0.0251726	-0.0271965	-0.0230347	-0.639404	0.00366211	-0.884277	0.16814	-0.222086	0.314409	-0.907499	3.1693	-6.78348	7.43713	0.0272438	0.0103463	-0.01501	-0.751709	0.782227	-0.473389	0.2537	-0.96657	-0.0360079	-0.00902972	0.383866	-4.51952	-7.97056	-0.00178086	0.00967166	-0.0234007	0.417969	0.558105	1.06543	-0.212902	-0.177764	-0.315723	-0.907409	1.92391	6.67956	7.57105	0.000493817	-0.00105212	0.00557483	-0.570312	-0.864746	-0.513428	-0.172791	-0.97134	-0.162813	-0.0115796	-0.0244865	3.50128	-9.09353	0.0101587	-0.0039678	-0.00593294	0.47998	-0.399902	0.891357	
72	0.370427	0.42852	0.0964015	-0.818451	-8.0419	1.63045	6.49383	0.0130579	0.0193498	0.0335581	0.777588	0.083252	-0.948242	0.18558	0.0916678	0.00024371	-0.978344	-1.81708	0.135888	10.1006	0.0531568	0.0170011	-0.0373685	-0.0234375	-0.00512695	-1.00464	0.256913	0.958168	0.123339	-0.0264179	-0.768259	4.17458	-7.65234	-0.0411479	0.0144326	0.00637679	0.387207	-0.259521	1.01001	-0.332218	0.606741	0.716026	-0.0938299	3.66193	-5.27772	-7.31915	0.0395441	-0.0259197	0.0385757	-0.430908	1.05151	0.488281	-0.184161	0.966711	0.176556	0.0195588	1.01992	-3.38197	-9.05269	-0.0419446	0.0332736	-0.0310629	0.181641	0.668213	1.1062	0.812216	0.524755	-0.196649	-0.16207	1.65514	9.73936	3.93558	-0.0813806	0.0108972	-0.016445	0.271973	-1.14185	-0.480713	0.155609	-0.12799	-0.0256594	-0.979156	2.7963	-0.0326703	10.0052	0.0162409	0.075619	-0.0543818	-0.637207	0.00366211	-0.884277	0.167903	-0.22202	0.314077	-0.907674	3.24024	-6.9009	7.55593	0.0155735	0.0123811	-0.0202431	-0.751953	0.788574	-0.473389	0.253822	-0.966547	-0.0357963	-0.00890416	0.394333	-4.52544	-8.05641	0.0226664	-0.00289898	-0.00881642	0.420166	0.560303	1.06323	-0.212935	-0.177892	-0.315763	-0.907363	1.95565	6.66458	7.59802	0.0111508	0.00678581	0.00632511	-0.581299	-0.866943	-0.508789	-0.172761	-0.971358	-0.162742	-0.0114644	-0.0198572	3.49501	-9.11581	-0.00232272	0.00344411	-0.0062887	0.475342	-0.395508	0.884521	
73	0.370787	0.42977	0.0953548	-0.817754	-8.14868	1.77389	6.50762	0.0516127	0.0338694	0.0420101	0.780273	0.0744629	-0.946045	0.185265	0.0919987	-0.0018167	-0.978371	-1.85845	0.351477	9.90117	0.0790149	0.000795537	-0.0169304	-0.027832	-0.00732422	-1.00464	0.258379	0.957865	0.122777	-0.0257108	-0.830785	4.36274	-7.90031	-0.0652399	0.0158654	0.0281934	0.380859	-0.272461	1.0127	-0.330755	0.607812	0.715704	-0.0945167	3.61078	-5.28371	-7.43482	-0.0399452	-0.0503041	0.059703	-0.426514	1.05371	0.492676	-0.181566	0.967198	0.176414	0.02098	0.944576	-3.53506	-9.25273	-0.0964279	0.0353446	-0.00751996	0.172852	0.668213	1.11084	0.813271	0.523137	-0.197033	-0.161545	1.68378	9.77061	3.96292	-0.0606472	0.0102818	0.0374464	0.27832	-1.13989	-0.487305	0.154528	-0.128012	-0.0246564	-0.97935	2.7117	-0.00168219	10.2655	-0.0409411	0.00627642	-0.0490489	-0.637207	-0.000732422	-0.886475	0.167872	-0.222269	0.313763	-0.907727	3.16099	-6.99561	7.47435	0.0152486	0.0055598	-0.0243924	-0.760498	0.786377	-0.473389	0.254574	-0.966361	-0.0354957	-0.00885819	0.364183	-4.53715	-7.98863	0.038081	0.00495814	-0.0110187	0.42041	0.555908	1.05884	-0.212811	-0.17821	-0.315849	-0.907299	1.95807	6.77395	7.59543	0.00524786	-0.000827757	0.0134747	-0.579346	-0.862549	-0.51123	-0.173211	-0.971276	-0.162755	-0.0115049	-0.032499	3.49965	-9.10329	-0.0191908	0.00843042	-0.0059422	0.477539	-0.395508	0.884521	
74	0.371019	0.430868	0.0940989	-0.817217	-8.21077	1.85449	6.44449	0.050204	0.016218	0.040201	0.780273	0.0722656	-0.946045	0.185188	0.0921895	-0.00357684	-0.978363	-1.83328	0.551718	9.70596	0.0362064	0.00594489	-0.0113566	-0.0253906	-0.0117188	-0.997314	0.259951	0.957528	0.122149	-0.0254118	-0.749306	4.33876	-7.76566	-0.0565966	-0.00326139	0.0218659	0.383057	-0.274658	1.00586	-0.328921	0.608878	0.715545	-0.0952581	3.57741	-5.25827	-7.39821	-0.0384774	-0.0585117	0.0534701	-0.419678	1.05151	0.49707	-0.179095	0.967708	0.176076	0.0215272	1.0493	-3.22878	-8.91504	-0.111899	0.00932446	-0.00603182	0.182129	0.657227	1.11768	0.814246	0.521627	-0.19776	-0.160622	1.72449	9.73306	3.98219	-0.0517316	0.00797206	0.056343	0.271973	-1.1377	-0.487305	0.154047	-0.128319	-0.02408	-0.9794	2.60778	0.0358088	10.2614	-0.0362345	-0.00297598	-0.0458697	-0.639404	0.00146484	-0.88208	0.167828	-0.222748	0.313328	-0.907768	3.10378	-6.97869	7.43849	0.0214299	-0.00524881	-0.0292232	-0.756104	0.78418	-0.473389	0.254424	-0.966407	-0.0353241	-0.00881173	0.392877	-4.53328	-7.95439	-0.0162813	-0.00120079	-0.01578	0.425049	0.558105	1.06104	-0.212744	-0.178494	-0.315318	-0.907444	1.93443	6.69798	7.59568	-0.0189469	-0.00127233	0.01475	-0.574707	-0.862549	-0.508789	-0.173628	-0.971198	-0.162766	-0.0116399	-0.0359655	3.51695	-9.10784	-0.0141278	0.0107983	-0.00655008	0.475586	-0.399902	0.891357	
75	0.371467	0.430665	0.0935225	-0.817187	-8.17275	1.76359	6.50509	0.00273097	-0.0320951	0.0186465	0.780518	0.0681152	-0.948242	0.185188	0.0921895	-0.00357684	-0.978363	-1.83328	0.551718	9.70596	0.0362064	0.00594489	-0.0113566	-0.0253906	-0.0117188	-0.997314	0.260486	0.957412	0.121915	-0.0254162	-0.781067	4.30186	-7.64684	-0.0403061	-0.0070306	0.0140565	0.380859	-0.272461	1.00342	-0.327952	0.609687	0.715277	-0.0954389	3.41106	-5.21961	-7.40396	-0.0157109	-0.00651354	0.0241595	-0.419922	1.05371	0.494873	-0.179095	0.967708	0.176076	0.0215272	1.0493	-3.22878	-8.91504	-0.111899	0.00932446	-0.00603182	0.182129	0.657227	1.11768	0.814914	0.520655	-0.198249	-0.159781	1.74726	9.65291	4.03646	-0.0296005	0.0158785	0.0225878	0.265381	-1.1377	-0.487305	0.153166	-0.12835	-0.02263	-0.979568	2.69933	0.0982309	9.8945	-0.0187459	0.0209302	-0.0229274	-0.639404	0.00366211	-0.884277	0.167628	-0.222938	0.312422	-0.90807	3.21067	-6.94473	7.43084	0.0367053	-2.64965e-05	-0.0281078	-0.755859	0.780029	-0.480225	0.252913	-0.966813	-0.0351233	-0.00865026	0.35888	-4.53153	-8.02456	-0.0632698	-0.00443977	-0.0148749	0.425049	0.555908	1.07007	-0.212848	-0.178801	-0.315022	-0.907462	1.90185	6.65395	7.54673	-0.00289769	-0.003453	0.00366838	-0.581299	-0.866943	-0.513428	-0.173577	-0.971207	-0.162771	-0.0115315	-0.0163193	3.51311	-9.06591	0.0116713	0.000348995	-0.00613053	0.475342	-0.395508	0.886719	
76	0.371652	0.42966	0.0932872	-0.817658	-8.05032	2.00436	6.54637	-0.0222363	-0.0499285	-0.00838125	0.776123	0.0681152	-0.952393	0.184968	0.0922383	-0.00433489	-0.978397	-1.7352	0.652351	9.78026	-0.00220651	0.0156106	-0.0166595	-0.0275879	-0.013916	-1.00439	0.260358	0.957444	0.12183	-0.0259154	-0.81018	4.48672	-7.7084	0.0176582	-0.0256698	-0.0082051	0.381104	-0.276855	1.00806	-0.328092	0.609836	0.715103	-0.0953124	3.42067	-5.27382	-7.4361	-0.000177402	0.0124206	0.00618446	-0.417725	1.05371	0.49707	-0.1787	0.967793	0.176107	0.0207225	0.989284	-3.14461	-8.98626	0.0492898	-0.0269174	-0.0216206	0.179932	0.657227	1.11328	0.81506	0.520447	-0.198313	-0.159636	1.76845	9.68009	4.03566	-0.01414	0.0154671	0.00162788	0.27002	-1.14404	-0.487305	0.153122	-0.12888	-0.0221852	-0.979516	2.7534	0.118375	10.1357	0.000801406	-0.0128979	-0.0098736	-0.639404	0.00146484	-0.884277	0.167635	-0.222906	0.312197	-0.908155	3.28156	-6.80809	7.48541	0.0247991	0.0157484	-0.0204223	-0.756348	0.786377	-0.47583	0.251333	-0.967228	-0.0350401	-0.00862634	0.386453	-4.50803	-8.07585	-0.0474161	0.000235279	-0.0196546	0.422852	0.553467	1.07007	-0.213154	-0.178723	-0.315063	-0.907391	2.01338	6.65234	7.54194	0.00264841	0.0156675	-0.0119495	-0.576904	-0.864746	-0.506592	-0.173262	-0.971257	-0.162819	-0.0114281	-0.028491	3.51296	-9.09624	0.0141781	0.00146519	-0.00436515	0.477783	-0.397705	0.891357	
77	0.371629	0.42872	0.093951	-0.818085	-8.02354	1.83542	6.50872	-0.0342615	-0.021483	-0.0246588	0.773682	0.0744629	-0.950439	0.185093	0.0918752	-0.00432572	-0.978407	-1.76421	0.553663	10.1539	-0.00512447	0.00389902	-0.0123827	-0.0275879	-0.013916	-1.00684	0.259497	0.957619	0.12211	-0.0267734	-0.889619	4.53861	-7.83798	0.0537912	-0.022144	-0.0262919	0.38501	-0.266113	1.00781	-0.328181	0.609633	0.715259	-0.0951311	3.48478	-5.24631	-7.47521	0.000487985	0.00673409	-0.0125087	-0.417236	1.04712	0.490479	-0.179197	0.967702	0.17615	0.0202979	0.95532	-3.2018	-9.09369	0.0458056	-0.0188383	-0.0141751	0.17749	0.659424	1.11548	0.813774	0.522669	-0.197789	-0.159589	1.74335	9.74984	3.99116	0.0811834	0.0225213	-0.0487338	0.263672	-1.14624	-0.484863	0.15309	-0.12906	-0.0207645	-0.979528	2.77712	0.0681217	10.1898	-0.055189	0.022875	-0.00663633	-0.639648	0.00585938	-0.880127	0.167677	-0.222749	0.31224	-0.90817	3.28699	-6.79567	7.52332	0.00624297	0.0267045	-0.00954589	-0.753906	0.782227	-0.478027	0.251333	-0.967228	-0.0350401	-0.00862634	0.386453	-4.50803	-8.07585	-0.0474161	0.000235279	-0.0196546	0.422852	0.553467	1.07007	-0.213295	-0.178118	-0.315653	-0.907272	2.01528	6.73418	7.56303	0.0230216	0.0406576	-0.013461	-0.579102	-0.864746	-0.513428	-0.173335	-0.971241	-0.162827	-0.011576	-0.0214976	3.5075	-9.11822	-0.00299642	0.00861916	-0.00219611	0.477783	-0.397705	0.886963	
78	0.371578	0.428472	0.0944714	-0.818179	-8.05581	1.69705	6.4521	-0.0384579	-0.00686954	-0.0259991	0.773682	0.0744629	-0.950439	0.185204	0.0910902	-0.00386488	-0.978462	-1.78956	0.422054	10.1489	-0.028719	-0.00434542	-0.0182306	-0.0297852	-0.013916	-1.00903	0.259332	0.957627	0.122317	-0.0271451	-0.749595	4.38786	-7.79219	0.00605011	-0.00280603	-0.0120536	0.387451	-0.274658	1.00586	-0.328231	0.609483	0.715378	-0.0950185	3.54996	-5.27707	-7.39269	0.0015664	0.00902372	-0.0180636	-0.419678	1.05151	0.494873	-0.179871	0.967496	0.176667	0.0196792	0.963579	-3.32278	-9.14506	0.0123555	0.00940688	-0.0245894	0.186035	0.663818	1.11548	0.81317	0.52363	-0.197774	-0.159539	1.71992	9.71078	3.9739	0.0910979	0.0212062	-0.0359916	0.27002	-1.14209	-0.480713	0.152992	-0.129585	-0.0198645	-0.979493	2.79321	0.0249169	10.398	-0.0599906	-0.0158013	-0.010736	-0.637451	0.00585938	-0.882324	0.167529	-0.222155	0.312658	-0.908199	3.31274	-6.82999	7.55906	-0.00916095	0.0341402	-0.00288382	-0.753906	0.782227	-0.475586	0.252105	-0.967013	-0.0353588	-0.00891016	0.362273	-4.50359	-8.09512	0.023961	0.00641949	-0.0177091	0.422852	0.553467	1.06787	-0.213247	-0.177784	-0.316002	-0.907227	1.9164	6.74807	7.59933	0.0239807	0.0415623	-0.00647064	-0.572266	-0.869141	-0.510986	-0.173573	-0.971202	-0.16279	-0.0117288	-0.0247413	3.5093	-9.09367	-0.0191976	0.0151911	-0.00157511	0.479736	-0.393311	0.891357	
79	0.371219	0.428615	0.0951053	-0.818194	-8.14588	1.61553	6.44113	-0.0121921	0.0135616	-0.022412	0.775879	0.0744629	-0.950439	0.185238	0.0906115	-0.00343796	-0.978501	-1.8649	0.479933	10.0336	-0.0365741	-0.00597028	-0.0175666	-0.0319824	-0.00952148	-1.0022	0.259124	0.957719	0.12211	-0.0268134	-0.671476	4.39329	-7.87914	-0.00483481	0.0154548	0.0166576	0.380859	-0.268066	1.00562	-0.32838	0.609486	0.715371	-0.0945395	3.57687	-5.21171	-7.56756	0.00933423	0.0176462	-0.00642719	-0.419922	1.05371	0.49707	-0.179584	0.967536	0.176687	0.0201358	1.0954	-3.38578	-9.19311	-0.0175206	0.026547	-0.018704	0.184082	0.659424	1.11768	0.81284	0.524124	-0.197823	-0.159536	1.73924	9.77199	3.92991	-0.00885146	0.00779071	-0.0227354	0.265625	-1.14404	-0.48291	0.152853	-0.130367	-0.0185315	-0.979437	2.72134	-0.00864958	10.3387	-0.0287	-0.0128036	-0.0118397	-0.641846	0.0100098	-0.886719	0.167306	-0.221646	0.313493	-0.908077	3.08335	-6.90991	7.45397	-0.0104898	0.0214069	-0.0135063	-0.756104	0.782227	-0.475586	0.253564	-0.966633	-0.0352497	-0.00915922	0.370321	-4.51288	-7.97005	0.0645857	0.0130747	-0.0214988	0.422607	0.558105	1.06104	-0.213022	-0.177578	-0.31632	-0.90721	1.85025	6.75397	7.59033	0.00695321	0.0152263	0.0110193	-0.574707	-0.864746	-0.513428	-0.173895	-0.97114	-0.162807	-0.0119044	-0.00222147	3.51863	-9.07772	-0.00508292	0.00837795	-0.00622286	0.475342	-0.397705	0.886963	
80	0.370779	0.428985	0.0954065	-0.818164	-8.12776	1.80299	6.45041	-0.000922258	0.0179848	-0.0163133	0.780029	0.0788574	-0.948242	0.185221	0.0906181	-0.00276367	-0.978506	-1.78804	0.468235	9.94658	-0.0439805	0.0130692	-0.0176446	-0.0297852	-0.0117188	-1.0022	0.258704	0.957876	0.121917	-0.0261026	-0.795508	4.41173	-7.77087	0.0216085	0.0322544	0.0140364	0.380859	-0.268066	1.00562	-0.329285	0.609135	0.715229	-0.0947271	3.53423	-5.23714	-7.48327	0.0381721	0.0318583	-0.0109539	-0.422119	1.05371	0.490479	-0.179604	0.967526	0.176692	0.0203985	1.03559	-3.32263	-9.15224	-0.00167468	0.0281913	-0.021366	0.179932	0.657227	1.11548	0.813467	0.523064	-0.197508	-0.160207	1.71416	9.73494	3.96545	-0.0599992	0.0118931	-0.0312182	0.267822	-1.14624	-0.480713	0.152795	-0.131616	-0.0178754	-0.979291	2.72464	-0.135511	10.2208	0.00696916	-0.0235537	-0.0092223	-0.644287	0.0166016	-0.880371	0.167252	-0.221968	0.313453	-0.908022	3.15123	-6.9003	7.4461	0.0112261	-0.00125184	-0.0255571	-0.753906	0.782227	-0.480469	0.254133	-0.966484	-0.0351961	-0.00925236	0.38825	-4.53448	-7.96902	0.0172831	0.0052087	-0.0198161	0.42041	0.555908	1.06567	-0.212773	-0.177907	-0.316038	-0.907302	1.85799	6.74836	7.57496	-0.00574951	-0.00229266	0.0220208	-0.58374	-0.86499	-0.513428	-0.173678	-0.971176	-0.162843	-0.011616	-0.0219692	3.51891	-9.08403	0.018555	-0.0042449	-0.0094794	0.47998	-0.399902	0.880127	
81	0.370557	0.429078	0.0961065	-0.818134	-8.07993	1.62564	6.48911	-0.0169722	0.00877048	-0.0174027	0.780029	0.0766602	-0.948242	0.185238	0.090373	-0.00227787	-0.978527	-1.69125	0.453469	9.8455	-0.0321533	0.021299	-0.0212678	-0.027832	-0.00512695	-1.00708	0.258597	0.957923	0.121916	-0.0254628	-0.894156	4.32266	-7.71024	-0.0142043	0.0305583	0.00415719	0.382812	-0.263916	1.00562	-0.331284	0.608162	0.71509	-0.0950571	3.52252	-5.24715	-7.42106	0.0727287	0.049765	-0.0278445	-0.426514	1.05151	0.490479	-0.180391	0.967284	0.177111	0.0212655	0.930696	-3.22674	-8.95167	0.0634208	0.0263746	-0.0363067	0.179688	0.663574	1.12231	0.814485	0.521445	-0.19643	-0.161633	1.69841	9.68696	4.02474	-0.0991705	0.01671	-0.074291	0.269775	-1.14209	-0.493652	0.152886	-0.132616	-0.0181163	-0.979138	2.82353	-0.139772	10.1944	0.0326951	-0.0455028	-0.0133248	-0.644043	0.012207	-0.878174	0.16731	-0.222337	0.31322	-0.908002	3.2265	-6.89833	7.49177	0.0163928	0.000733079	-0.0195997	-0.756104	0.782227	-0.475586	0.254118	-0.96649	-0.0351449	-0.00924729	0.37377	-4.52468	-7.99211	0.00740439	0.00163104	-0.0193242	0.422607	0.560303	1.06323	-0.21273	-0.17827	-0.315626	-0.907384	1.99056	6.54727	7.59351	-0.00740095	-0.00227833	0.0108402	-0.57666	-0.869141	-0.510986	-0.173093	-0.971294	-0.162777	-0.0114544	-0.00864079	3.50835	-9.09884	0.0240493	0.00480938	-0.00426326	0.477783	-0.399902	0.886963	
82	0.370313	0.429285	0.0964497	-0.818095	-8.09517	1.64753	6.51049	-0.000815923	0.0107767	-0.0128909	0.780029	0.0766602	-0.950439	0.18555	0.090406	-0.00111604	-0.978466	-1.74073	0.407089	10.0154	-0.0720543	0.0281529	-0.00612705	-0.0344238	-0.00292969	-1.00464	0.257978	0.95809	0.122033	-0.0248711	-0.775197	4.36472	-7.77332	0.0175948	0.0342104	0.0038079	0.378662	-0.265869	1.00562	-0.332922	0.607177	0.715238	-0.0945198	3.57174	-5.27028	-7.41173	0.036408	0.0565381	-0.0517898	-0.428711	1.05151	0.483887	-0.181612	0.967037	0.177194	0.0214282	1.0356	-3.34282	-9.16486	0.0368779	0.0232507	-0.0172771	0.173096	0.661621	1.11304	0.814949	0.520777	-0.195497	-0.162575	1.68804	9.74953	4.03873	-0.0358142	0.0263082	-0.0513567	0.27832	-1.13989	-0.49585	0.153264	-0.134921	-0.0190961	-0.978745	2.8754	-0.0474265	10.1569	0.0456079	-0.0606038	0.00350452	-0.650635	0.012207	-0.875977	0.167342	-0.222313	0.313229	-0.907999	3.24044	-6.89076	7.46841	0.00348106	0.0219187	-0.0145214	-0.751953	0.788574	-0.478271	0.253694	-0.966601	-0.0351684	-0.00924826	0.383062	-4.53088	-7.99601	-0.00752903	0.000575726	-0.0131215	0.422852	0.555908	1.06323	-0.212829	-0.178252	-0.315884	-0.907275	1.97774	6.67554	7.58602	0.0151071	0.0161055	-0.0072665	-0.574707	-0.864746	-0.515625	-0.173257	-0.971277	-0.162706	-0.0114171	-0.0196405	3.5	-9.09726	-0.0111813	0.00574619	-0.00384216	0.475342	-0.397705	0.880127	
83	0.369719	0.430067	0.0968478	-0.817906	-8.04557	1.7754	6.47659	0.0169146	0.0419089	-0.0259211	0.782471	0.0744629	-0.943848	0.186157	0.0902018	0.00101291	-0.97837	-1.81864	0.241143	9.99791	-0.0927858	0.0100799	-0.00021862	-0.0324707	0.00146484	-0.997803	0.25802	0.958104	0.121944	-0.0243421	-0.825451	4.37029	-7.87643	-0.00567862	0.0413629	0.0150222	0.38501	-0.268311	1.00562	-0.333443	0.606688	0.715448	-0.0942304	3.60367	-5.31624	-7.36704	0.0228806	0.0396105	-0.049902	-0.430664	1.04932	0.481689	-0.182074	0.966954	0.177142	0.0216867	0.977984	-3.43145	-9.16045	0.0335939	0.0344763	-0.0166637	0.177246	0.666016	1.11084	0.815225	0.520342	-0.194974	-0.163211	1.65902	9.8003	4.05658	-0.027034	0.0164207	-0.0322581	0.273926	-1.1377	-0.491699	0.15394	-0.137721	-0.020059	-0.97823	2.92424	0.0149093	10.1997	-0.0309536	-0.0807027	0.0156554	-0.652588	0.0100098	-0.873779	0.167431	-0.222151	0.313246	-0.908016	3.23363	-6.89873	7.54577	0.0102315	0.0203126	-0.00870157	-0.751953	0.786621	-0.478027	0.253425	-0.966675	-0.0350183	-0.00942083	0.378775	-4.54509	-8.09532	0.0053688	0.0120482	-0.0240933	0.418213	0.55127	1.06128	-0.212906	-0.178216	-0.316193	-0.907156	2.0812	6.82121	7.58128	0.0142764	0.0159209	0.000653328	-0.57666	-0.869141	-0.510986	-0.173529	-0.971234	-0.162679	-0.0113294	-0.03536	3.51633	-9.1424	-0.0109012	0.00384348	-0.0055262	0.473389	-0.404297	0.880127	
84	0.369209	0.43117	0.0976423	-0.817461	-8.15538	1.49415	6.43587	0.00315054	0.054752	-0.0208721	0.780029	0.0788574	-0.943848	0.186243	0.0904356	0.00142029	-0.978332	-1.78183	0.322482	10.0492	-0.0395967	0.0401709	-0.0134889	-0.0280762	-0.000732422	-1.00244	0.25835	0.95808	0.121709	-0.0229189	-0.731948	4.28679	-7.77126	-0.0175827	0.0571158	0.0197052	0.380859	-0.268066	1.00781	-0.336253	0.604876	0.715739	-0.0936819	3.67533	-5.31738	-7.43737	0.0240177	0.0473861	-0.0438357	-0.439697	1.05151	0.477295	-0.183231	0.966711	0.17709	0.0231407	1.00711	-3.31641	-9.15907	0.0163792	0.0830927	-0.0282078	0.174805	0.672607	1.11304	0.815698	0.519533	-0.194887	-0.16353	1.66909	9.79026	4.07851	-0.0331097	0.00539952	-0.0196124	0.273926	-1.1377	-0.493896	0.154072	-0.14092	-0.0212263	-0.977728	2.9009	0.0341047	10.4176	0.0455043	-0.120535	-0.0102143	-0.65918	0.0100098	-0.865479	0.167472	-0.222172	0.31338	-0.907957	3.24964	-6.80011	7.55984	-0.00478299	0.0135737	-0.0115997	-0.749756	0.786621	-0.47583	0.254789	-0.966323	-0.0348214	-0.0095015	0.394073	-4.53374	-7.99706	0.0764976	0.00595795	-0.0103419	0.420654	0.553467	1.06348	-0.212792	-0.178136	-0.316451	-0.907108	1.89783	6.74201	7.60608	0.0118767	0.0147956	0.00812961	-0.576904	-0.864746	-0.51123	-0.174256	-0.97111	-0.162615	-0.0116542	-0.0213871	3.52396	-9.09925	-0.0347115	0.014641	-0.0054102	0.480469	-0.408691	0.893799	
85	0.368837	0.431762	0.097631	-0.817318	-8.25818	1.59513	6.39808	0.0303023	0.0429926	-0.0153669	0.784424	0.0788574	-0.94165	0.186356	0.0908859	0.00225536	-0.978267	-1.88071	0.422135	9.62853	-0.0456631	0.0323958	-0.0153825	-0.026123	0.00366211	-1.00024	0.258329	0.958164	0.121303	-0.0217471	-0.57033	4.30343	-7.6383	-0.0133669	0.0305856	0.0280432	0.372314	-0.274414	1.00806	-0.337307	0.604343	0.715598	-0.0944111	3.72029	-5.31147	-7.33264	0.110804	0.0297446	-0.0117888	-0.435303	1.05371	0.474854	-0.183493	0.966704	0.176702	0.0243113	0.999419	-3.42434	-9.18328	0.00601357	0.0488112	0.00290939	0.168457	0.667969	1.11768	0.815698	0.519533	-0.194887	-0.16353	1.66909	9.79026	4.07851	-0.0331097	0.00539952	-0.0196124	0.273926	-1.1377	-0.493896	0.154291	-0.141643	-0.0219098	-0.977574	2.8125	0.051553	10.2846	0.0651216	-0.0517717	-0.00142581	-0.661377	0.0100098	-0.865479	0.167259	-0.222381	0.313597	-0.90787	3.17864	-7.06538	7.40621	0.00398718	0.0101314	-0.0272655	-0.756104	0.784424	-0.478027	0.255489	-0.966142	-0.0346941	-0.00952802	0.361353	-4.55221	-7.98136	0.0665448	0.00769886	-0.0145535	0.42041	0.558105	1.06323	-0.212738	-0.178313	-0.316363	-0.907117	1.7343	6.77589	7.58676	-0.000334727	-0.00211237	0.0141496	-0.576904	-0.866943	-0.510986	-0.174256	-0.97111	-0.162615	-0.0116542	-0.0213871	3.52396	-9.09925	-0.0347115	0.014641	-0.0054102	0.480469	-0.408691	0.893799	
