40	Head	00b4120a												Throax	00b411e8												LUpArm	00b411d9												LFoArm	00b41148												RUpArm	00b411db												RFoArm	00b41204												Waist	00b411f7												Lthigh	00b411f4												Lshank	00b4111b												Rthigh	00b411c8												Rshank	00b411ee												
PacketCount	q0	q1	q2	q3	accX	accY	accZ	gyrX	gyrY	gyrZ	magX	magY	magZ	q0	q1	q2	q3	accX	accY	accZ	gyrX	gyrY	gyrZ	magX	magY	magZ	q0	q1	q2	q3	accX	accY	accZ	gyrX	gyrY	gyrZ	magX	magY	magZ	q0	q1	q2	q3	accX	accY	accZ	gyrX	gyrY	gyrZ	magX	magY	magZ	q0	q1	q2	q3	accX	accY	accZ	gyrX	gyrY	gyrZ	magX	magY	magZ	q0	q1	q2	q3	accX	accY	accZ	gyrX	gyrY	gyrZ	magX	magY	magZ	q0	q1	q2	q3	accX	accY	accZ	gyrX	gyrY	gyrZ	magX	magY	magZ	q0	q1	q2	q3	accX	accY	accZ	gyrX	gyrY	gyrZ	magX	magY	magZ	q0	q1	q2	q3	accX	accY	accZ	gyrX	gyrY	gyrZ	magX	magY	magZ	q0	q1	q2	q3	accX	accY	accZ	gyrX	gyrY	gyrZ	magX	magY	magZ	q0	q1	q2	q3	accX	accY	accZ	gyrX	gyrY	gyrZ	magX	magY	magZ	
0	0.0916036	0.679179	0.114797	-0.719129	-9.7451	-0.502408	0.582364	-0.00477291	-0.0314585	-0.00252955	1.0625	0.15625	-0.330566	0.0711504	-0.22505	-0.0258844	-0.971401	4.72412	0.165113	8.9955	-0.0333819	-0.0288647	-0.0139629	-0.675049	-0.076416	-0.609619	0.402239	-0.437305	-0.417749	-0.687353	9.39269	2.24135	2.63332	-0.00104139	-0.00250672	0.00186403	-1.12109	0.138184	-0.156006	0.369217	-0.586703	-0.28958	-0.660001	9.69928	-0.482831	1.4691	-0.0242009	-0.00205854	0.0174251	-0.979736	0.476807	0.128174	-0.442676	-0.457967	0.416265	-0.648866	9.53003	-1.28958	2.32834	0.0016842	0.00409806	-0.0215775	-1.021	-0.238037	-0.126953	-0.276374	-0.48937	0.132724	-0.816406	9.67642	0.707195	5.53852	0.0457881	0.013613	-0.0387158	-1.00537	-0.372314	-0.0683594	0.0247261	-0.387711	-0.0361148	-0.920741	7.52888	0.436746	6.90831	0.0691477	0.0175601	-0.0083922	-0.990234	-0.0424805	-0.357666	0.0599034	-0.770999	0.0281309	-0.633388	9.39712	-1.26785	-1.72852	0.0176955	0.0159809	-0.0192688	-0.903564	0.185791	0.792236	-0.0228314	-0.976196	-0.213591	0.0299857	-0.662008	0.814602	-9.11443	0.010233	0.00168953	-0.0225934	0.624512	-0.0605469	1.13159	-0.164121	-0.778171	-0.0974927	-0.598338	8.80037	3.4849	-2.17059	0.00981159	0.00456209	-0.000944639	-0.718018	-0.436035	0.7146	-0.112053	0.976289	0.181059	-0.0389988	-0.920957	-1.59871	-9.58229	0.012927	0.00143769	-0.00421319	0.463135	0.114502	0.940186	
1	0.0914172	0.67891	0.114707	-0.719421	-9.66067	-0.419107	0.572999	0.00836879	-0.0161216	-0.00575295	1.0625	0.158447	-0.330566	0.0712876	-0.225033	-0.0262319	-0.971386	4.60358	0.242414	9.02002	0.0196694	0.0163145	-0.0136656	-0.679199	-0.0786133	-0.60498	0.402328	-0.437525	-0.417635	-0.68723	9.40287	2.09063	2.63497	0.0144552	0.00584193	0.0119289	-1.11694	0.138184	-0.156006	0.369092	-0.587153	-0.289074	-0.659893	9.70539	-0.548051	1.34903	-0.0106522	-0.00573099	0.0127324	-0.979492	0.472412	0.13501	-0.442806	-0.458283	0.41627	-0.648551	9.51425	-1.11194	2.29926	-0.0103398	-0.00478061	-0.0349571	-1.01685	-0.23584	-0.131592	-0.276535	-0.489622	0.132211	-0.816284	9.65999	0.773849	5.27281	0.0221279	0.00920122	-0.0283967	-1.01001	-0.365967	-0.0708008	0.0248804	-0.387588	-0.0363709	-0.920779	7.39007	0.469336	7.18198	0.0329453	0.0174825	-0.0147221	-0.983887	-0.0380859	-0.359863	0.0596915	-0.771207	0.0282796	-0.633149	9.34074	-1.29486	-1.71014	-0.0145479	-0.00866476	-0.0178456	-0.90332	0.181641	0.790039	-0.0229229	-0.976178	-0.213654	0.0300362	-0.668999	0.831089	-9.12399	0.00998915	0.00514953	-0.0216033	0.622314	-0.0605469	1.13599	-0.164563	-0.778131	-0.0972181	-0.598314	8.69307	3.53106	-2.19661	-0.0201107	0.0101429	-0.00249031	-0.719971	-0.438477	0.709961	-0.111935	0.976286	0.181139	-0.0390634	-0.908864	-1.5859	-9.58316	-0.00110895	0.00104687	-0.0055854	0.45874	0.112305	0.937988	
2	0.0913349	0.678919	0.114629	-0.719435	-9.68822	-0.442861	0.686569	0.00567714	-0.00292412	-3.43967e-05	1.06006	0.160645	-0.334961	0.0710395	-0.225548	-0.026371	-0.971281	4.65705	0.222413	8.97303	-0.00216178	-0.00848655	-0.0126959	-0.677002	-0.0808105	-0.609619	0.402448	-0.43773	-0.41749	-0.687118	9.36957	2.20476	2.69407	0.00276372	0.00517196	0.00727286	-1.12329	0.133789	-0.158203	0.369154	-0.587339	-0.288947	-0.659748	9.68946	-0.484108	1.48842	0.00344023	0.00240531	0.00890958	-0.984375	0.479004	0.136963	-0.44273	-0.458656	0.416298	-0.648322	9.49932	-1.21453	2.32989	-0.0114479	-0.00695386	-0.0211871	-1.01904	-0.23584	-0.129395	-0.276963	-0.489791	0.132516	-0.815987	9.66497	0.622993	5.47271	-0.0159587	0.00240222	-0.0270739	-1.00342	-0.368164	-0.0708008	0.0249657	-0.387477	-0.0364999	-0.920818	7.5032	0.405497	7.18224	0.0210688	0.0214489	-0.0131976	-0.983643	-0.0424805	-0.357666	0.0596656	-0.771412	0.0282732	-0.632902	9.3785	-1.21837	-1.75771	-0.00125773	0.00921701	-0.0185707	-0.900879	0.177246	0.780762	-0.0230496	-0.976167	-0.213694	0.0300234	-0.661121	0.825167	-9.12914	0.00114665	0.00439502	-0.0219653	0.626709	-0.0559082	1.13818	-0.164389	-0.778262	-0.0973673	-0.598167	8.73987	3.50727	-2.19981	0.0243259	-0.00280264	0.000402511	-0.717773	-0.438232	0.712402	-0.111892	0.976286	0.181169	-0.0390356	-0.927269	-1.58474	-9.57946	0.00128305	0.00536682	-0.00371856	0.463135	0.116699	0.940186	
3	0.0909105	0.67917	0.114132	-0.719331	-9.59569	-0.439303	0.571571	0.0371545	0.0201023	-0.00065585	1.06909	0.158447	-0.332764	0.0709669	-0.225399	-0.0263865	-0.97132	4.63194	0.246246	8.97953	-0.00481403	0.0144823	-0.012147	-0.672852	-0.076416	-0.609619	0.402395	-0.437807	-0.417366	-0.687175	9.39243	2.11235	2.5693	-0.013393	0.00380466	-0.00454031	-1.1189	0.131592	-0.153564	0.369116	-0.587457	-0.288839	-0.659711	9.71891	-0.376236	1.33962	-0.00521757	0.00343461	0.00338943	-0.980225	0.483398	0.134766	-0.442789	-0.458739	0.416804	-0.647897	9.51955	-1.17997	2.37266	-0.0186917	-0.0125287	-0.0200144	-1.021	-0.240234	-0.124756	-0.277194	-0.489812	0.13243	-0.815911	9.65112	0.738726	5.51558	0.00158887	0.0150786	-0.0229982	-1.00757	-0.370117	-0.0705566	0.0250823	-0.3874	-0.0365906	-0.920844	7.39171	0.437922	7.26023	0.0204866	0.014036	-0.0120078	-0.981445	-0.0446777	-0.359863	0.0598606	-0.771457	0.028015	-0.63284	9.33126	-1.25579	-1.72	0.0257685	0.00285353	-0.0224564	-0.901123	0.181641	0.787842	-0.0230831	-0.97611	-0.21396	0.0299623	-0.665141	0.829837	-9.13234	0.00342049	0.00506307	-0.0204675	0.620117	-0.0627441	1.13379	-0.164337	-0.778247	-0.0972626	-0.598218	8.72223	3.45944	-2.16176	0.00350848	0.0112155	0.00272965	-0.722168	-0.442871	0.717041	-0.111829	0.976284	0.18127	-0.0387911	-0.90609	-1.58214	-9.61407	0.00610389	0.00944896	-0.00746959	0.463135	0.116699	0.935547	
4	0.0901745	0.679916	0.113859	-0.718763	-9.67747	-0.444517	0.582833	0.0360026	0.041767	-0.00698527	1.05811	0.156006	-0.328613	0.0711459	-0.225502	-0.0261679	-0.971289	4.61171	0.233585	9.00273	-0.02676	0.0107876	-0.00883014	-0.679443	-0.0742188	-0.607422	0.402425	-0.437751	-0.417512	-0.687104	9.39926	2.12899	2.64108	0.0168858	0.00318535	-0.00453603	-1.12329	0.131836	-0.155762	0.369127	-0.587462	-0.288979	-0.65964	9.69499	-0.49906	1.41539	-0.000222814	0.00113903	0.000727616	-0.975342	0.476807	0.132568	-0.442936	-0.45875	0.416977	-0.647678	9.54612	-1.31852	2.32034	-0.0211153	-0.00295978	-0.0235448	-1.021	-0.238037	-0.126953	-0.277374	-0.489801	0.132454	-0.815852	9.72227	0.593343	5.3128	-0.00467119	0.0137038	-0.0186439	-1.00537	-0.374512	-0.0727539	0.0253331	-0.38725	-0.0367372	-0.920894	7.40409	0.466674	7.1571	0.0245998	0.0257274	-0.00868593	-0.988037	-0.0402832	-0.351318	0.0598122	-0.771497	0.0279029	-0.6328	9.38172	-1.22462	-1.74348	-0.00224514	0.0109739	-0.0219428	-0.903076	0.179443	0.79248	-0.0229892	-0.976024	-0.214372	0.0298778	-0.674222	0.81651	-9.11716	0.0119041	0.00573066	-0.024249	0.624512	-0.0605469	1.13599	-0.164175	-0.778213	-0.0975356	-0.598262	8.70629	3.61523	-2.17914	0.0120074	0.0091294	-0.00169615	-0.722168	-0.440674	0.7146	-0.111829	0.976284	0.18127	-0.0387911	-0.90609	-1.58214	-9.61407	0.00610389	0.00944896	-0.00746959	0.463135	0.116699	0.935547	
5	0.0897366	0.681607	0.112715	-0.717395	-9.67761	-0.387281	0.457282	0.0456097	0.0927514	0.0388445	1.07153	0.151855	-0.322021	0.0711887	-0.225447	-0.0261766	-0.971299	4.61925	0.189942	9.04116	-0.00795555	0.0219424	-0.0153328	-0.674805	-0.0808105	-0.600098	0.402368	-0.437809	-0.417556	-0.687074	9.35041	2.05406	2.62842	-0.00228517	0.000791637	-0.00345365	-1.1189	0.135986	-0.162842	0.369174	-0.587407	-0.289089	-0.659614	9.64885	-0.599153	1.35472	0.0130787	0.00482369	-0.00311855	-0.979736	0.476807	0.134766	-0.443048	-0.458772	0.417224	-0.647426	9.59382	-1.19327	2.27936	-0.0368993	0.0105571	-0.0201824	-1.0188	-0.240234	-0.126953	-0.27718	-0.48992	0.132383	-0.815858	9.726	0.757196	5.39431	0.0241952	0.0095948	-0.0131767	-1.00342	-0.368164	-0.0727539	0.0253333	-0.387116	-0.0367524	-0.92095	7.41089	0.467043	7.19091	0.0208827	0.0218877	-0.0196	-0.981689	-0.0424805	-0.353516	0.059783	-0.771431	0.0279018	-0.632884	9.33775	-1.18403	-1.70174	0.00489841	0.021863	-0.019337	-0.903076	0.177246	0.7854	-0.023045	-0.976016	-0.214407	0.0298453	-0.642645	0.81082	-9.12765	0.00636223	0.00719532	-0.021988	0.622314	-0.0627441	1.13159	-0.164325	-0.778241	-0.0974214	-0.598204	8.70099	3.54739	-2.17133	-0.0103275	0.00185183	0.00166751	-0.715332	-0.442627	0.708008	-0.111985	0.976242	0.18145	-0.0385562	-0.924074	-1.60183	-9.5936	0.00480865	0.00946599	-0.00771572	0.465088	0.118896	0.942383	
6	0.0896539	0.682657	0.112013	-0.716516	-9.65198	-0.337901	0.478814	0.0457202	0.10144	0.0479831	1.06689	0.154053	-0.324219	0.0712209	-0.225575	-0.0264304	-0.971259	4.56868	0.231393	9.08663	0.00921359	0.0165565	-0.0173645	-0.679199	-0.0786133	-0.612061	0.402545	-0.437544	-0.417967	-0.686889	9.43683	2.26533	2.69522	0.022057	0.00611159	-0.00774983	-1.1189	0.135986	-0.1604	0.369565	-0.587063	-0.289687	-0.659439	9.72964	-0.448724	1.43013	0.0334748	0.00337613	-0.0049739	-0.986572	0.479004	0.134766	-0.443056	-0.459035	0.416859	-0.64747	9.56553	-1.12162	2.3863	0.0104131	0.0176321	-0.0309538	-1.01904	-0.233643	-0.124756	-0.277095	-0.489907	0.132358	-0.815899	9.71207	0.766363	5.52891	0.00756148	0.0155575	-0.00896839	-1.00757	-0.370117	-0.0705566	0.0252874	-0.387061	-0.0367787	-0.920973	7.36732	0.391787	7.18375	0.0192174	0.0192032	-0.0193664	-0.988281	-0.0361328	-0.35791	0.0600105	-0.771387	0.0277267	-0.632923	9.33633	-1.23193	-1.73915	0.0222217	0.0161367	-0.0169093	-0.901123	0.181641	0.794678	-0.0231565	-0.975992	-0.214517	0.0297588	-0.661767	0.817871	-9.14977	0.00742182	0.00871816	-0.023822	0.615234	-0.0583496	1.14038	-0.164517	-0.778363	-0.0972197	-0.598025	8.74973	3.45243	-2.18819	0.000561583	0.00535359	0.00177421	-0.715576	-0.44043	0.712402	-0.112057	0.976218	0.181531	-0.0385773	-0.919988	-1.57453	-9.61656	0.00595432	0.00409357	-0.00661574	0.458496	0.116699	0.940186	
7	0.0892137	0.685681	0.110864	-0.713857	-9.874	-0.456259	0.378404	0.0480906	0.0868896	0.0295793	1.06934	0.149658	-0.319824	0.0713266	-0.226125	-0.0263483	-0.971126	4.54703	0.301326	9.02154	-0.00943162	-0.00676556	-0.0111319	-0.677002	-0.076416	-0.60498	0.402454	-0.437654	-0.41792	-0.686901	9.40378	2.22194	2.65564	0.0004996	0.00391787	-0.000481609	-1.11914	0.138184	-0.165039	0.369406	-0.587601	-0.289712	-0.659038	9.67179	-0.411044	1.37837	-0.0110836	-0.0291111	0.0148989	-0.97998	0.481201	0.136963	-0.443387	-0.45929	0.415969	-0.647634	9.47398	-1.28771	2.33979	0.0519771	0.0167469	-0.0412225	-1.0166	-0.242432	-0.124756	-0.277127	-0.48978	0.132725	-0.815905	9.65531	0.578701	5.32285	0.00644404	0.017997	-0.008658	-1.00366	-0.36377	-0.0708008	0.0252709	-0.386711	-0.0365371	-0.92113	7.35819	0.508135	7.06824	0.00711202	0.0295249	-0.0139785	-0.983887	-0.0402832	-0.359863	0.0597972	-0.771349	0.0280666	-0.632975	9.35722	-1.2215	-1.6999	-0.0136196	0.0165053	-0.012105	-0.898926	0.179443	0.782959	-0.0230967	-0.975968	-0.214636	0.0297569	-0.651047	0.821391	-9.14582	0.0151946	0.00772932	-0.0235533	0.619873	-0.0583496	1.13379	-0.16449	-0.778332	-0.0972634	-0.598066	8.69486	3.60077	-2.1113	-0.00204544	0.00836622	0.0032502	-0.715332	-0.442627	0.708008	-0.112428	0.976141	0.181695	-0.0386813	-0.920817	-1.59316	-9.58983	0.0184223	0.0024743	-0.00965827	0.45874	0.114502	0.947021	
8	0.0891792	0.68631	0.110214	-0.713358	-9.81071	-0.277205	0.492154	0.0391853	0.057479	0.0419358	1.06958	0.145264	-0.311035	0.071355	-0.227056	-0.0260874	-0.970914	4.61007	0.172694	8.88896	0.00822613	-0.0113945	-0.0158801	-0.677246	-0.0742188	-0.602783	0.40234	-0.437992	-0.4174	-0.687068	9.32546	2.25866	2.68848	-0.0476165	-0.00140368	0.00996441	-1.12109	0.138184	-0.158203	0.369078	-0.588319	-0.289555	-0.65865	9.67074	-0.510236	1.42544	-0.0328024	-0.0535508	0.0181757	-0.977783	0.483398	0.136963	-0.442955	-0.46015	0.415026	-0.647924	9.49879	-1.28416	2.26551	0.0512659	-0.00304882	-0.0212188	-1.021	-0.240234	-0.124756	-0.277158	-0.489854	0.132818	-0.815834	9.66974	0.540185	5.43962	0.0181901	0.0117059	-0.0156119	-1.00562	-0.370117	-0.0749512	0.0252409	-0.386706	-0.0362193	-0.921146	7.37502	0.464369	7.26826	-0.00566979	0.0155798	-0.00761164	-0.983887	-0.0402832	-0.357666	0.0599709	-0.77135	0.0281243	-0.632955	9.34411	-1.25904	-1.68884	0.0247671	0.0158857	-0.0105005	-0.905273	0.179443	0.7854	-0.0231554	-0.975947	-0.214722	0.0297616	-0.669787	0.823709	-9.14436	0.0110444	0.00520548	-0.0245527	0.624512	-0.0583496	1.13818	-0.16465	-0.778226	-0.0971968	-0.59817	8.70379	3.49074	-2.11882	-0.0109959	0.019021	-0.000397817	-0.719971	-0.440674	0.712402	-0.112463	0.976127	0.181731	-0.0387474	-0.911687	-1.60051	-9.57823	0.00124807	0.0092251	-0.00524143	0.455811	0.125488	0.939941	
9	0.0891271	0.686983	0.109669	-0.712799	-9.8536	-0.341247	0.376529	0.0213915	0.0203399	0.00732279	1.06714	0.149658	-0.309082	0.0710296	-0.226817	-0.0252689	-0.971015	4.57988	0.170763	9.02101	-0.0390385	0.020784	-0.0148792	-0.675049	-0.076416	-0.607422	0.402462	-0.438101	-0.417113	-0.687101	9.45976	2.39584	2.74293	0.00486808	0.00860219	0.00858169	-1.1189	0.135986	-0.162842	0.369026	-0.588821	-0.28966	-0.658184	9.84962	-0.333879	1.57099	0.00359413	-0.00858158	0.00699193	-0.977783	0.481201	0.13916	-0.443212	-0.4599	0.415399	-0.647688	9.54359	-1.44717	2.35429	-0.0408198	0.00616141	-0.0163183	-1.021	-0.240234	-0.124756	-0.277588	-0.489623	0.133658	-0.815689	9.68469	0.625922	5.39562	-0.0614013	0.00868285	-0.0123858	-1.00562	-0.370117	-0.0749512	0.02538	-0.387102	-0.03613	-0.920979	7.29724	0.385922	7.42637	0.0178406	-0.0144048	-0.00748634	-0.988037	-0.0424805	-0.355469	0.0598684	-0.771604	0.0281697	-0.632653	9.30879	-1.17346	-1.71202	-0.00254871	-0.00494933	-0.0170706	-0.898926	0.181641	0.790039	-0.0230326	-0.97592	-0.214858	0.0297596	-0.657739	0.822317	-9.11689	0.00961884	0.00627828	-0.0235658	0.622314	-0.0605469	1.13818	-0.164237	-0.778643	-0.0974016	-0.597707	8.71067	3.4935	-2.15544	0.0254173	-0.00375947	0.00263363	-0.70874	-0.44043	0.7146	-0.112446	0.97612	0.181782	-0.0387381	-0.908939	-1.60082	-9.61487	0.00382948	0.00898424	-0.00914671	0.458496	0.118896	0.939941	
10	0.0892442	0.687322	0.109679	-0.712457	-9.84423	-0.413514	0.333777	-0.00732137	0.0173949	-0.00271765	1.07178	0.147461	-0.308838	0.0708488	-0.22683	-0.0247325	-0.971039	4.62763	0.123605	9.02657	-0.00998165	0.0421378	-0.023534	-0.679199	-0.076416	-0.602539	0.402499	-0.438049	-0.417138	-0.687098	9.37155	2.26783	2.73031	0.00751327	0.00845749	-0.00247932	-1.11914	0.140381	-0.160645	0.368837	-0.589293	-0.289107	-0.658112	9.72129	-0.478149	1.29687	-0.0295688	-0.00376852	0.0170893	-0.978027	0.483398	0.143555	-0.442885	-0.460157	0.414966	-0.648006	9.55739	-1.15285	2.227	0.0220524	0.0140627	-0.00948219	-1.0166	-0.240234	-0.122559	-0.277671	-0.489702	0.133216	-0.815686	9.65349	0.777879	5.30604	-0.00310437	0.0159861	-0.0297121	-1.00537	-0.374512	-0.0705566	0.0253977	-0.387164	-0.0361225	-0.920953	7.38998	0.443401	7.0943	0.00508176	0.019262	-0.01722	-0.988037	-0.0402832	-0.355713	0.0601284	-0.771867	0.0280215	-0.632314	9.32235	-1.23932	-1.76114	0.0293145	-0.0044056	-0.0168643	-0.90332	0.181641	0.794678	-0.0233036	-0.975901	-0.214928	0.029665	-0.661291	0.819612	-9.12502	-0.00045421	0.0065994	-0.0223637	0.624512	-0.0605469	1.12939	-0.1641	-0.778694	-0.0975252	-0.597659	8.71412	3.45787	-2.19178	0.0155908	0.00325371	0.00372226	-0.717529	-0.447021	0.714844	-0.112525	0.976086	0.181898	-0.0388146	-0.918629	-1.60477	-9.57547	0.00858763	0.00646872	-0.00764733	0.467529	0.118896	0.939941	
11	0.0888754	0.687475	0.109866	-0.712326	-9.75129	-0.42352	0.310545	0.0135438	0.00932409	-0.0111403	1.07153	0.151855	-0.309082	0.0707545	-0.227139	-0.0243865	-0.970982	4.60105	0.165195	9.00007	-0.0403491	-0.00585602	-0.0180748	-0.677246	-0.0742188	-0.609863	0.402407	-0.438561	-0.41665	-0.687121	9.44044	2.25189	2.72302	0.0119817	-0.00198979	0.0191926	-1.11475	0.138184	-0.156006	0.368968	-0.589527	-0.289144	-0.657811	9.78563	-0.454316	1.46648	0.0173079	-0.00709609	0.00603983	-0.980225	0.485596	0.147949	-0.443546	-0.460097	0.415099	-0.647511	9.60377	-1.17488	2.39831	-0.0329589	0.00851186	-0.0405861	-1.0166	-0.238037	-0.126953	-0.277845	-0.489764	0.133352	-0.815567	9.73462	0.670927	5.50497	0.00415619	0.0113625	-0.0128173	-1.00317	-0.372314	-0.0683594	0.0253665	-0.387616	-0.0360351	-0.920767	7.37255	0.479489	7.31736	0.00900854	-0.00717541	-0.0121285	-0.983887	-0.0402832	-0.355713	0.0599815	-0.772129	0.0282883	-0.631996	9.33311	-1.24014	-1.70027	-0.00937331	-0.00136337	-0.0101911	-0.90332	0.181641	0.790039	-0.0231276	-0.975833	-0.215258	0.0296404	-0.649716	0.829214	-9.14059	0.011877	0.005509	-0.0231969	0.620117	-0.0629883	1.13818	-0.164563	-0.778873	-0.0971782	-0.597355	8.71553	3.51249	-2.13802	-0.0182162	-0.0126658	0.00112183	-0.719971	-0.440674	0.7146	-0.112525	0.976086	0.181898	-0.0388146	-0.918629	-1.60477	-9.57547	0.00858763	0.00646872	-0.00764733	0.467529	0.118896	0.939941	
12	0.0882679	0.687959	0.109765	-0.71195	-9.71464	-0.373602	0.279007	0.0209634	0.0281541	-0.0147095	1.07153	0.151855	-0.313232	0.0702739	-0.227058	-0.0232136	-0.971065	4.55748	0.165723	9.08235	-0.0414981	0.0173571	-0.0189736	-0.681396	-0.076416	-0.60498	0.402426	-0.438685	-0.416447	-0.687154	9.40037	2.35359	2.76941	-0.0118202	0.00746881	0.0091698	-1.12329	0.135986	-0.162842	0.36873	-0.589989	-0.288635	-0.657755	9.7178	-0.485405	1.36617	-0.0368094	-0.00988302	0.0153067	-0.984619	0.483398	0.143555	-0.443666	-0.460119	0.41505	-0.647445	9.50674	-1.46603	2.27181	-0.00329822	0.00876176	-0.0259351	-1.01636	-0.242432	-0.120117	-0.278287	-0.489841	0.133474	-0.815351	9.71066	0.598033	5.45314	0.0172047	0.0125351	-0.0332587	-1.00562	-0.370117	-0.0749512	0.0252199	-0.387952	-0.0356311	-0.920645	7.36795	0.434882	7.25725	-0.00530223	-0.00119519	-0.013946	-0.986084	-0.0402832	-0.353516	0.0602372	-0.772294	0.0282398	-0.631772	9.3538	-1.25715	-1.73366	0.0258264	0.00763523	-0.0136466	-0.898926	0.179443	0.797119	-0.0233566	-0.975808	-0.215346	0.0296472	-0.669023	0.823623	-9.132	-0.000651859	0.00411795	-0.0213396	0.622314	-0.0627441	1.13379	-0.16439	-0.779208	-0.0972943	-0.596946	8.74755	3.46689	-2.16432	0.0159406	-0.00452623	0.00065171	-0.713135	-0.44043	0.719238	-0.112909	0.976005	0.182092	-0.0388371	-0.913379	-1.60079	-9.58479	0.0186906	0.00432571	-0.00988911	0.463135	0.116699	0.942383	
13	0.087583	0.688471	0.109685	-0.711552	-9.8341	-0.37255	0.321149	0.024786	0.0248695	-0.0100636	1.07373	0.149658	-0.308838	0.0702739	-0.227058	-0.0232136	-0.971065	4.55748	0.165723	9.08235	-0.0414981	0.0173571	-0.0189736	-0.681396	-0.076416	-0.60498	0.402206	-0.439321	-0.415829	-0.687251	9.42576	2.07906	2.63407	-0.0317797	-0.00890587	0.0157015	-1.12109	0.140381	-0.158203	0.368701	-0.590322	-0.288619	-0.657479	9.69276	-0.582148	1.42331	0.00889935	-0.00840621	0.00465452	-0.975586	0.481201	0.145752	-0.444002	-0.460411	0.414668	-0.647251	9.5393	-1.24502	2.33188	0.00570607	0.00481777	-0.0311893	-1.0144	-0.240234	-0.11792	-0.278616	-0.489809	0.13366	-0.815227	9.67386	0.733429	5.38804	-0.0245185	0.00987528	-0.0311954	-1.00537	-0.374512	-0.0769043	0.0251093	-0.388626	-0.0353534	-0.920375	7.36782	0.422496	7.34861	0.00695747	-0.021324	-0.0128053	-0.984131	-0.0361328	-0.353516	0.0603405	-0.772357	0.0281679	-0.631689	9.31797	-1.27044	-1.76584	0.0158323	0.00465941	-0.0164898	-0.898926	0.181641	0.79248	-0.0234771	-0.975791	-0.21541	0.0296423	-0.668571	0.823119	-9.13208	0.00173712	0.00393663	-0.0240488	0.617432	-0.0583496	1.13818	-0.164484	-0.779308	-0.0972515	-0.596797	8.69219	3.58203	-2.13982	-0.00170187	-0.0052472	-0.000476339	-0.713135	-0.442627	0.714844	-0.11297	0.975979	0.182174	-0.03894	-0.913522	-1.6123	-9.59979	0.00558752	0.00579624	-0.00707985	0.462646	0.123291	0.935303	
14	0.0871782	0.688713	0.109459	-0.711402	-9.77126	-0.407869	0.34341	0.0216422	0.00928511	0.00077063	1.07178	0.147461	-0.308838	0.0696376	-0.227079	-0.0222904	-0.971128	4.67268	0.142637	9.00492	-0.0335867	-0.000345372	-0.0266014	-0.681641	-0.0742188	-0.612061	0.402503	-0.439628	-0.415728	-0.686942	9.34172	2.30973	2.72679	-0.000962977	-0.00223855	0.0185721	-1.12329	0.142578	-0.160645	0.368473	-0.590949	-0.288196	-0.657229	9.74192	-0.524382	1.4592	-0.0357559	-0.0168421	0.0171302	-0.977783	0.481201	0.145752	-0.444635	-0.460527	0.414672	-0.646731	9.53229	-1.2922	2.31866	-0.0194755	0.00979506	-0.0259381	-1.01855	-0.244629	-0.126953	-0.279395	-0.490066	0.13371	-0.814798	9.67859	0.882	5.55045	-0.0198406	0.00425855	-0.0351748	-1.00122	-0.372314	-0.0749512	0.024942	-0.389201	-0.035178	-0.920143	7.44977	0.449477	7.15213	0.00587954	-0.0089006	-0.0199203	-0.990234	-0.0402832	-0.349121	0.0603708	-0.772851	0.0283265	-0.631074	9.34818	-1.26902	-1.78978	0.0081514	-0.000839542	-0.0106992	-0.896729	0.181641	0.79248	-0.0237558	-0.975743	-0.215587	0.0297135	-0.65209	0.824089	-9.1328	-0.00114811	-0.000465442	-0.0219333	0.62207	-0.0583496	1.14038	-0.164537	-0.779726	-0.0972468	-0.596237	8.72095	3.55262	-2.20619	0.00787616	-0.0145603	-0.00158187	-0.710938	-0.44043	0.7146	-0.112827	0.975997	0.182142	-0.0390354	-0.901571	-1.60971	-9.57883	-0.00490372	-0.00016917	-0.0019279	0.467529	0.118896	0.935547	
15	0.087145	0.688945	0.108922	-0.711264	-9.75623	-0.411648	0.368139	0.0332611	0.0155533	0.0296811	1.07178	0.147461	-0.308838	0.0696376	-0.227079	-0.0222904	-0.971128	4.67268	0.142637	9.00492	-0.0335867	-0.000345372	-0.0266014	-0.681641	-0.0742188	-0.612061	0.402435	-0.440217	-0.415272	-0.68688	9.39748	2.12255	2.65954	0.00112293	-0.000570129	0.0148895	-1.11475	0.142334	-0.158447	0.368472	-0.591143	-0.288062	-0.657114	9.70406	-0.574467	1.33887	-0.00709783	-0.00618523	0.0144522	-0.97998	0.481201	0.143555	-0.444817	-0.460545	0.414613	-0.646631	9.55256	-1.17513	2.31484	-0.00615152	0.0100678	-0.030235	-1.01855	-0.242432	-0.122559	-0.279765	-0.490095	0.133722	-0.814651	9.69377	0.644738	5.29471	-0.0137193	0.00925117	-0.0416406	-1.00537	-0.374512	-0.0727539	0.0247809	-0.389511	-0.0350334	-0.920021	7.45068	0.395337	7.24422	0.00269211	-0.0119496	-0.0212695	-0.988281	-0.0383301	-0.347168	0.060504	-0.772991	0.0282623	-0.630893	9.33084	-1.2864	-1.76493	0.0163714	-0.00560412	-0.0142967	-0.892578	0.183838	0.792236	-0.0238656	-0.975733	-0.215621	0.029726	-0.658055	0.839202	-9.15484	0.0028973	0.00266113	-0.0216268	0.620117	-0.0629883	1.13599	-0.164672	-0.779899	-0.0971574	-0.595988	8.73489	3.5113	-2.21772	-0.00455765	-0.0162167	-0.000318675	-0.710938	-0.44043	0.7146	-0.1131	0.975946	0.182214	-0.0391956	-0.932693	-1.60288	-9.59939	0.0145574	-4.61409e-05	-0.00621989	0.460449	0.123291	0.935303	
16	0.0869542	0.689312	0.108509	-0.710995	-9.73282	-0.352657	0.358763	0.00994475	0.0174636	-0.00521694	1.07397	0.143066	-0.311035	0.0689061	-0.227162	-0.0217855	-0.971172	4.68437	0.1608	9.03293	-0.0197696	0.0155324	-0.0280881	-0.675049	-0.0720215	-0.598145	0.402212	-0.440967	-0.414723	-0.686861	9.42349	2.05207	2.60417	-0.0372643	-0.012352	0.011063	-1.12109	0.135986	-0.153564	0.368016	-0.591949	-0.287628	-0.656834	9.71248	-0.604373	1.25271	-0.0320397	-0.0241575	0.0136655	-0.977783	0.481201	0.143555	-0.445413	-0.460514	0.414516	-0.646305	9.52196	-1.12253	2.30762	-0.0290305	0.0118989	-0.0358281	-1.01196	-0.246826	-0.129395	-0.280055	-0.490253	0.13349	-0.814494	9.71869	0.687224	5.33202	-0.0147641	0.00581271	-0.0289729	-1.00537	-0.374512	-0.0727539	0.0244962	-0.390296	-0.034673	-0.91971	7.4789	0.447613	7.21197	-0.000698997	-0.0197104	-0.0189766	-0.986084	-0.0361328	-0.349365	0.0604474	-0.773342	0.0283667	-0.630463	9.35408	-1.23853	-1.78478	-0.00245417	-0.00408838	-0.0140918	-0.89502	0.188232	0.790039	-0.0238846	-0.9757	-0.215759	0.0297834	-0.656398	0.831559	-9.13159	0.0102874	0.00407691	-0.0241436	0.619873	-0.0583496	1.13599	-0.164632	-0.780094	-0.0972506	-0.595728	8.70723	3.55137	-2.23145	0.0072522	-0.00346212	-0.000210131	-0.710938	-0.44043	0.721436	-0.113032	0.975941	0.182243	-0.0393612	-0.918437	-1.60994	-9.56448	-0.00197827	0.00285881	-0.00294903	0.462646	0.123291	0.937744	
17	0.0865235	0.68963	0.108222	-0.710783	-9.70377	-0.338198	0.388447	0.0215234	0.01166	-0.00105446	1.07153	0.147461	-0.304688	0.0683472	-0.227291	-0.021423	-0.971189	4.68267	0.165712	8.98204	-0.0244786	0.00429924	-0.0274006	-0.679443	-0.0742188	-0.607422	0.40228	-0.441355	-0.41462	-0.686635	9.40049	2.21866	2.68786	0.0128878	-0.00233637	0.0126157	-1.11914	0.142578	-0.153809	0.367924	-0.592309	-0.287536	-0.656601	9.70725	-0.535764	1.42205	-0.00356244	-0.0103082	0.0100938	-0.975586	0.479004	0.150146	-0.445626	-0.460679	0.414376	-0.64613	9.52863	-1.02426	2.40205	-0.00997444	0.0111981	-0.0276899	-1.01636	-0.246826	-0.122559	-0.280406	-0.490396	0.133181	-0.814338	9.65666	0.796883	5.48306	-0.00291968	0.0119849	-0.0301158	-1.00537	-0.374512	-0.0705566	0.0242238	-0.390806	-0.0345466	-0.919506	7.45434	0.384355	7.08695	0.0181883	-0.00525636	-0.0225966	-0.986084	-0.0383301	-0.344971	0.0606547	-0.773533	0.0283135	-0.630211	9.29841	-1.25305	-1.74505	0.0175838	-0.00289774	-0.0143895	-0.894775	0.183594	0.801758	-0.0238398	-0.97563	-0.216088	0.0297234	-0.656802	0.832248	-9.13746	0.00645638	0.00570142	-0.0227964	0.622314	-0.0605469	1.13599	-0.165074	-0.780283	-0.0968784	-0.595419	8.70271	3.50371	-2.22733	-0.00859321	-0.0102012	0.00251885	-0.710938	-0.44043	0.723877	-0.11296	0.975951	0.182233	-0.0393903	-0.926228	-1.6166	-9.5726	-0.000310737	0.00561784	-0.00442631	0.465088	0.118896	0.939941	
18	0.0861952	0.690027	0.107816	-0.710499	-9.66767	-0.297567	0.316938	0.0245673	0.0192618	0.00828535	1.07617	0.145264	-0.298096	0.0679124	-0.227397	-0.0214209	-0.971195	4.68493	0.155124	8.99368	-0.00940112	0.00397597	-0.0257443	-0.679443	-0.0698242	-0.605225	0.401907	-0.44192	-0.41406	-0.686827	9.38279	1.98976	2.61679	-0.0298329	-0.0020511	-0.000464025	-1.11914	0.144531	-0.153809	0.367614	-0.592768	-0.28716	-0.656525	9.6756	-0.598934	1.3199	-0.0141876	-0.00670133	0.00774737	-0.975586	0.483398	0.150146	-0.445834	-0.460683	0.414168	-0.646118	9.57431	-1.23168	2.24772	0.0334878	0.00872511	-0.0195125	-1.01855	-0.246826	-0.129395	-0.280843	-0.490363	0.133231	-0.8142	9.73339	0.696819	5.41384	-0.00308667	0.015579	-0.0322333	-1.00757	-0.374512	-0.0683594	0.0240499	-0.391306	-0.0344791	-0.9193	7.51847	0.433859	7.05789	0.0197747	-0.00479827	-0.0199504	-0.988037	-0.0446777	-0.344971	0.0605993	-0.773785	0.0284342	-0.629902	9.33907	-1.26444	-1.8531	0.000456204	0.00153141	-0.0164142	-0.901123	0.181641	0.794678	-0.0242087	-0.975596	-0.216194	0.0297658	-0.659554	0.839818	-9.13039	-0.00315565	0.00170627	-0.0235263	0.622559	-0.0651855	1.13379	-0.165204	-0.78034	-0.096922	-0.595301	8.73063	3.49195	-2.22965	0.00868116	0.0112553	-0.00368652	-0.710938	-0.44043	0.723877	-0.113064	0.975909	0.182391	-0.0393973	-0.925819	-1.60373	-9.58716	0.00446605	0.00278241	-0.00645492	0.458252	0.121094	0.935547	
19	0.0859171	0.690608	0.107787	-0.709972	-9.78088	-0.279707	0.398141	0.00657028	0.0277285	-0.011447	1.07812	0.147461	-0.300293	0.0676288	-0.227585	-0.0212131	-0.971175	4.66134	0.223144	9.25532	0.00836231	0.0494405	-0.0291179	-0.677002	-0.076416	-0.60498	0.401734	-0.442269	-0.413868	-0.68682	9.42014	1.95244	2.58807	-0.00837777	-0.00554987	0.000327799	-1.11694	0.144531	-0.14917	0.367253	-0.593191	-0.286953	-0.656435	9.69054	-0.583011	1.29276	-0.0176495	-0.00691704	0.00160627	-0.97583	0.485596	0.154541	-0.446493	-0.460176	0.414561	-0.645772	9.49897	-1.17858	2.31125	-0.0509797	0.0249623	-0.0259825	-1.01855	-0.246826	-0.124756	-0.281074	-0.490315	0.133153	-0.814162	9.66945	0.686744	5.38201	0.00153158	0.0167411	-0.0198837	-1.00708	-0.383301	-0.0703125	0.0239245	-0.392039	-0.0344943	-0.91899	7.55225	0.361273	7.36142	0.0353925	-0.0272947	-0.0188473	-0.990234	-0.0424805	-0.344971	0.0605234	-0.773798	0.0285738	-0.629886	9.35507	-1.25181	-1.78855	-0.00577685	0.0119592	-0.0126424	-0.898926	0.183838	0.792236	-0.0241784	-0.975569	-0.216308	0.0298436	-0.65952	0.835279	-9.13081	0.0162465	0.00415145	-0.0240575	0.624756	-0.0673828	1.13403	-0.164915	-0.780619	-0.0971647	-0.594975	8.72825	3.55094	-2.21787	0.0194767	-0.0101655	0.00195069	-0.713135	-0.44043	0.726074	-0.112947	0.975913	0.18244	-0.0394135	-0.946717	-1.64236	-9.59628	-0.00898434	0.00841699	-0.00506098	0.458252	0.121094	0.933105	
20	0.0858766	0.69101	0.107727	-0.709595	-9.75059	-0.339988	0.360784	0.00590165	0.01567	0.00767714	1.07422	0.140869	-0.306641	0.0674517	-0.22767	-0.0209281	-0.971174	4.8342	0.111553	8.80136	-0.0361056	0.0113335	-0.0262024	-0.675293	-0.0698242	-0.602783	0.401627	-0.442283	-0.413919	-0.686843	9.38609	2.1191	2.59654	0.00155783	0.00100387	-0.00991638	-1.11475	0.144531	-0.156006	0.367188	-0.59328	-0.286931	-0.656401	9.73103	-0.590016	1.36371	-0.00388619	0.0104446	-0.00178217	-0.975586	0.479004	0.154541	-0.446363	-0.460201	0.414512	-0.645875	9.55865	-1.1008	2.34388	0.0117549	0.00693159	-0.00673974	-1.01367	-0.255615	-0.122559	-0.281287	-0.490112	0.133359	-0.814177	9.68931	0.626741	5.28408	-0.00843445	0.0205483	-0.0136429	-1.00317	-0.374512	-0.074707	0.0238041	-0.392283	-0.0347183	-0.918881	7.46522	0.433454	7.09961	0.0165748	0.00401603	-0.0232124	-0.985596	-0.046875	-0.351074	0.0604146	-0.773895	0.0283365	-0.629789	9.29807	-1.27183	-1.84113	-0.011162	-0.00262285	-0.0202327	-0.894775	0.183594	0.799316	-0.0243612	-0.975503	-0.216609	0.0296787	-0.666727	0.833392	-9.12458	-0.00323779	0.00785517	-0.0216291	0.617676	-0.0605469	1.13599	-0.165424	-0.780567	-0.096771	-0.594966	8.67875	3.47375	-2.24216	-0.0242686	0.0144524	0.000946911	-0.711182	-0.438232	0.717041	-0.112523	0.975965	0.182422	-0.039407	-0.914357	-1.59656	-9.56834	0.000522615	0.0070004	-0.00516817	0.465332	0.116699	0.935547	
21	0.0857243	0.691058	0.107223	-0.709643	-9.76925	-0.294449	0.394732	0.0223333	-0.00802808	0.00437965	1.07642	0.140869	-0.302246	0.0672374	-0.227544	-0.0208653	-0.97122	4.69448	0.112577	8.87711	-0.0117978	0.0253103	-0.0261078	-0.683594	-0.0786133	-0.5979	0.401378	-0.442409	-0.413631	-0.68708	9.36028	2.06141	2.61446	-0.0106738	0.0138457	-0.00900606	-1.11279	0.146729	-0.153809	0.367386	-0.592847	-0.287098	-0.656608	9.68759	-0.509617	1.20512	0.0254188	0.0217213	-0.00928498	-0.973145	0.479004	0.150146	-0.446393	-0.460026	0.414592	-0.645928	9.50213	-0.986519	2.39748	-0.00284404	0.0129996	-0.0121588	-1.01855	-0.244629	-0.129395	-0.281087	-0.489995	0.133188	-0.814344	9.59472	1.01649	5.44698	0.0206356	0.0292335	-0.00332816	-1.00537	-0.374512	-0.0705566	0.0237016	-0.392201	-0.0348518	-0.918913	7.47876	0.414424	7.28094	0.017606	0.0215863	-0.0207031	-0.986084	-0.0383301	-0.349365	0.0603644	-0.773947	0.0284571	-0.629724	9.31694	-1.29493	-1.77772	-0.00379667	0.00755287	-0.0125556	-0.90332	0.183594	0.799316	-0.0244539	-0.975493	-0.216653	0.029611	-0.666062	0.845448	-9.13736	0.00290977	0.00918423	-0.0217651	0.619873	-0.0605469	1.13818	-0.165409	-0.78046	-0.0968085	-0.595105	8.69118	3.54713	-2.28461	0.00359259	0.0238411	0.00169284	-0.70874	-0.442627	0.714844	-0.112571	0.975953	0.182453	-0.0394283	-0.938069	-1.60911	-9.58957	0.00896165	0.00746881	-0.00852317	0.460693	0.121094	0.94458	
22	0.0857281	0.69087	0.107391	-0.7098	-9.70221	-0.364237	0.24095	-0.00973473	-0.00754167	-0.0119911	1.07397	0.145264	-0.30249	0.0671259	-0.227611	-0.02079	-0.971213	4.68315	0.130874	8.96215	-0.0187491	0.012839	-0.0247661	-0.677246	-0.0742188	-0.600342	0.401245	-0.442127	-0.413698	-0.6873	9.43146	2.07046	2.59454	-0.00242624	0.00794048	-0.0149357	-1.12329	0.144775	-0.151611	0.367406	-0.592594	-0.287327	-0.656725	9.79391	-0.724154	1.3479	0.0254805	0.0127309	-0.012239	-0.978027	0.485596	0.150146	-0.446702	-0.459613	0.414832	-0.645854	9.52828	-1.18716	2.35093	-0.0278377	0.0218592	-0.0173156	-1.02075	-0.246826	-0.129395	-0.281435	-0.489533	0.134058	-0.814359	9.7033	0.553067	5.47215	-0.0110284	0.0272222	-0.00433694	-1.00537	-0.376709	-0.0725098	0.0235316	-0.391587	-0.0350303	-0.919173	7.48217	0.430162	7.22369	0.0134885	0.0332246	-0.0178261	-0.988037	-0.0402832	-0.351318	0.0605842	-0.773885	0.0282914	-0.629787	9.35584	-1.21481	-1.80778	0.0146213	0.0124429	-0.0179669	-0.892334	0.181641	0.797119	-0.0243329	-0.975474	-0.216761	0.0295512	-0.661307	0.833523	-9.15093	0.0122232	0.00901342	-0.0233715	0.622314	-0.0605469	1.13379	-0.165133	-0.780569	-0.0968871	-0.595026	8.75698	3.53195	-2.15024	0.0154245	0.00082485	0.00897189	-0.706787	-0.436035	0.719238	-0.112982	0.975872	0.182636	-0.0394015	-0.923824	-1.61793	-9.5964	0.0202012	0.0100633	-0.0128033	0.462891	0.121094	0.937744	
23	0.0855984	0.690978	0.107465	-0.7097	-9.73673	-0.305111	0.245456	0.00357486	0.0113128	-0.0107121	1.07373	0.147461	-0.295898	0.0668562	-0.226744	-0.0209656	-0.971431	4.6223	0.138816	9.0657	0.00281868	0.0324245	-0.0184579	-0.675049	-0.076416	-0.607422	0.401385	-0.441741	-0.414009	-0.687278	9.51326	2.20734	2.6885	0.0226731	0.0146396	-0.0124768	-1.11694	0.144531	-0.158447	0.367496	-0.592317	-0.287529	-0.656837	9.85857	-0.494513	1.42251	0.0236936	0.0215734	-0.0145473	-0.973633	0.485596	0.143555	-0.446714	-0.459187	0.414968	-0.646062	9.5669	-1.37713	2.37264	0.0069676	-0.00269744	0.000253972	-1.02734	-0.244629	-0.133789	-0.28159	-0.489161	0.134608	-0.814438	9.73592	0.541957	5.31093	-0.0309797	0.01487	-0.00958775	-1.00317	-0.374512	-0.0727539	0.0236392	-0.391336	-0.0351963	-0.91927	7.46006	0.428773	7.32523	0.0344988	0.0353959	-0.0133746	-0.985596	-0.046875	-0.349121	0.0607597	-0.773721	0.0282328	-0.629974	9.3201	-1.30896	-1.80073	0.00923191	0.0245353	-0.0161711	-0.896973	0.187988	0.801514	-0.0242746	-0.975449	-0.216887	0.029502	-0.665721	0.829825	-9.14697	0.00281172	0.00684325	-0.0247267	0.624512	-0.0583496	1.13818	-0.165267	-0.780456	-0.0967277	-0.595163	8.68616	3.54205	-2.27515	-0.00446227	0.0134899	0.00238122	-0.713135	-0.444824	0.72168	-0.113034	0.975863	0.182647	-0.0394363	-0.92759	-1.62358	-9.55171	0.00914486	0.00629867	-0.00659365	0.460693	0.118896	0.939941	
24	0.0860246	0.691057	0.107513	-0.709564	-9.95072	-0.259058	0.295856	-0.0167889	-0.00575508	0.0151284	1.07373	0.147461	-0.300293	0.0670775	-0.226406	-0.0214131	-0.971485	4.59578	0.136787	9.04637	0.00275589	0.0247328	-0.0126861	-0.681396	-0.076416	-0.607422	0.401341	-0.441391	-0.414226	-0.687399	9.42309	2.11965	2.55404	0.0175008	0.00968832	-0.0136071	-1.12329	0.140381	-0.158203	0.367692	-0.591937	-0.287746	-0.656974	9.74937	-0.508588	1.26091	0.0212585	0.0167243	-0.00737426	-0.975586	0.483398	0.145752	-0.44653	-0.459088	0.415006	-0.646234	9.56865	-1.06715	2.39683	-0.0310741	0.0158961	-0.00968537	-1.0144	-0.242432	-0.131592	-0.281194	-0.489277	0.133919	-0.814618	9.79669	0.672568	5.47521	0.0672463	0.0244296	-0.0128436	-1.00732	-0.381104	-0.0766602	0.0238959	-0.39113	-0.035669	-0.919333	7.43906	0.424162	7.27979	0.0402218	0.0243671	-0.0125187	-0.98584	-0.0424805	-0.351318	0.0605758	-0.773629	0.0283052	-0.630101	9.35976	-1.22641	-1.82846	-0.00809789	0.0213926	-0.0201997	-0.898926	0.183838	0.794678	-0.024391	-0.975431	-0.21696	0.0294642	-0.658324	0.844929	-9.15373	0.0135754	0.00754682	-0.0222937	0.62207	-0.0583496	1.13379	-0.165077	-0.780525	-0.0969769	-0.595084	8.76092	3.50406	-2.28748	0.0336785	0.0035181	-0.000497153	-0.706543	-0.442627	0.72168	-0.112942	0.975866	0.182698	-0.0393826	-0.936128	-1.62428	-9.58591	-0.00108266	0.0108414	-0.00899628	0.463135	0.116699	0.935547	
25	0.0865899	0.690417	0.107823	-0.710071	-9.92132	-0.350149	0.210787	-0.0223671	-0.0446649	-0.00473768	1.07178	0.143066	-0.306641	0.067388	-0.226069	-0.0218845	-0.971531	4.51834	0.192061	9.08937	0.00905832	0.0271132	-0.00920956	-0.677002	-0.0786133	-0.602539	0.401574	-0.440964	-0.414819	-0.687179	9.46071	2.23955	2.70359	0.0279733	0.0104037	-0.00753063	-1.11694	0.140381	-0.158203	0.367885	-0.59156	-0.287984	-0.657102	9.7698	-0.57487	1.43427	0.0150314	0.0153881	-0.00657063	-0.977783	0.481201	0.145752	-0.446478	-0.459252	0.415013	-0.64615	9.5094	-1.10064	2.3938	-0.0130114	0.00411204	-0.0248768	-1.02075	-0.242432	-0.133789	-0.281121	-0.489199	0.133581	-0.814746	9.65837	0.715561	5.53247	0.0168374	0.0161038	-0.0139705	-1.00757	-0.374512	-0.0769043	0.0241501	-0.39098	-0.0359881	-0.919378	7.37165	0.402733	7.2283	0.0333176	0.0229566	-0.00913657	-0.988037	-0.0446777	-0.349121	0.0605814	-0.773431	0.0281751	-0.63035	9.28663	-1.30716	-1.79019	0.0122066	0.0288573	-0.0206982	-0.892578	0.183838	0.797119	-0.0243439	-0.975401	-0.217102	0.0294538	-0.65018	0.822569	-9.13245	0.0124232	0.00466731	-0.0261623	0.624512	-0.0583496	1.13599	-0.16522	-0.780355	-0.0968979	-0.595281	8.66389	3.55307	-2.15585	-0.0103331	0.0195924	-0.000480148	-0.710938	-0.44043	0.723877	-0.112876	0.975862	0.182782	-0.0392822	-0.921532	-1.60406	-9.62534	0.00374408	0.00958396	-0.0101716	0.460449	0.123291	0.937744	
26	0.0869774	0.689602	0.108027	-0.710784	-9.65823	-0.392989	0.13939	-0.00827368	-0.0372223	0.00223092	1.07178	0.143066	-0.306641	0.0678305	-0.226065	-0.0222569	-0.971493	4.55156	0.206739	9.06309	0.0162842	0.0137067	-0.00534246	-0.679443	-0.0742188	-0.60498	0.401858	-0.440683	-0.415156	-0.686989	9.41021	2.21493	2.64158	0.0210819	0.00703045	0.000826552	-1.12354	0.146973	-0.15625	0.368139	-0.591386	-0.288169	-0.657035	9.745	-0.447576	1.35293	0.00957469	0.00554881	0.00330934	-0.978027	0.487793	0.150146	-0.446512	-0.459385	0.414921	-0.64609	9.61001	-1.35561	2.30023	0.0381492	-0.00676625	-0.0151649	-1.02075	-0.246826	-0.129395	-0.281171	-0.489316	0.133488	-0.814674	9.74824	0.683175	5.38366	0.01361	0.00844046	-0.0250646	-1.00122	-0.370117	-0.0727539	0.0245628	-0.390818	-0.0363897	-0.91942	7.38844	0.560797	7.24101	0.0384986	0.0243093	-0.0083763	-0.98584	-0.0424805	-0.340576	0.0605705	-0.773269	0.0281224	-0.630552	9.35019	-1.19893	-1.77512	0.000198318	0.0240789	-0.0180274	-0.896973	0.183838	0.794678	-0.0245104	-0.975364	-0.21724	0.0295078	-0.654545	0.831635	-9.13115	0.00647908	0.00213894	-0.0246273	0.617676	-0.0629883	1.13599	-0.165122	-0.780445	-0.097088	-0.595158	8.67937	3.53973	-2.27184	0.0215807	0.00565852	-0.00215502	-0.710938	-0.44043	0.717041	-0.112947	0.975846	0.182806	-0.0393516	-0.901837	-1.6149	-9.60157	0.0108429	0.00344515	-0.00707583	0.458252	0.121094	0.930908	
27	0.0872595	0.689323	0.108143	-0.711002	-9.70722	-0.355129	0.212894	-0.0108884	-0.0156522	0.00231515	1.07153	0.147461	-0.30249	0.0680598	-0.226554	-0.0226525	-0.971354	4.59374	0.263115	9.16893	-0.00688166	-0.00337003	-0.0110375	-0.670654	-0.0742188	-0.607422	0.402199	-0.440516	-0.415537	-0.686666	9.4225	2.27276	2.68138	0.0313115	0.00560031	0.00414777	-1.12134	0.140381	-0.160645	0.368335	-0.591237	-0.288312	-0.656996	9.7673	-0.38997	1.54679	0.00504328	0.0102247	-0.00303666	-0.978027	0.485596	0.143555	-0.446481	-0.459742	0.414912	-0.645864	9.5287	-1.2019	2.36212	0.00762118	-0.00574906	-0.025015	-1.01855	-0.244629	-0.129395	-0.280846	-0.489881	0.132588	-0.814593	9.65333	0.895713	5.37928	0.0441055	0.000583167	-0.0240277	-1.00732	-0.378906	-0.0769043	0.0247231	-0.390598	-0.0365663	-0.919503	7.44146	0.444444	7.17107	0.0365058	0.0258998	-0.0134943	-0.983643	-0.0424805	-0.344971	0.0604641	-0.773294	0.0282637	-0.630524	9.36131	-1.3162	-1.79222	0.00257398	0.0106794	-0.0161697	-0.894531	0.177246	0.797119	-0.0244163	-0.975339	-0.217349	0.0296219	-0.654815	0.841557	-9.14601	0.0191618	0.00223365	-0.0240282	0.622314	-0.0605469	1.13818	-0.164886	-0.78045	-0.0972865	-0.595185	8.71518	3.55546	-2.15792	0.00474357	0.01229	0.00139403	-0.706299	-0.444824	0.719482	-0.112992	0.975829	0.182846	-0.0394721	-0.915619	-1.61579	-9.57493	-0.00439027	0.00348414	-0.00237663	0.465088	0.121094	0.937744	
28	0.0877141	0.688913	0.108268	-0.711325	-9.8686	-0.437383	0.210604	-0.0241751	-0.0313518	0.00313205	1.06958	0.143066	-0.311035	0.068303	-0.227309	-0.0231779	-0.971148	4.43938	0.383154	9.22626	-0.0408009	-0.0262581	-0.00952748	-0.681641	-0.0742188	-0.60498	0.402221	-0.440529	-0.415675	-0.686561	9.45522	2.11665	2.66606	0.00138858	0.00238273	0.000640625	-1.11914	0.142578	-0.160645	0.368188	-0.591641	-0.287707	-0.65698	9.71544	-0.75403	1.24763	-0.0280118	-0.00382043	0.019161	-0.977783	0.479004	0.147949	-0.446739	-0.45998	0.415079	-0.645409	9.51889	-1.1871	2.36299	-0.0180715	0.00266087	-0.0305747	-1.01416	-0.244629	-0.126953	-0.280982	-0.490245	0.132415	-0.814356	9.6712	0.69084	5.4948	0.0188132	0.00555698	-0.0251607	-0.998779	-0.374512	-0.0727539	0.0250122	-0.390401	-0.0367811	-0.91957	7.36637	0.481823	7.29255	0.0212291	0.027483	-0.00736467	-0.988037	-0.0402832	-0.351318	0.0606653	-0.773328	0.0281166	-0.63047	9.3052	-1.24144	-1.74578	0.00705677	0.000806326	-0.0166442	-0.892334	0.177246	0.790039	-0.0243867	-0.975317	-0.21744	0.0296964	-0.674648	0.824642	-9.13056	0.0118692	0.00115246	-0.0235644	0.62207	-0.0583496	1.13159	-0.164994	-0.780643	-0.0971657	-0.594922	8.65597	3.5415	-2.2376	0.00433198	-0.00998339	0.00473223	-0.706543	-0.442627	0.719238	-0.11301	0.975825	0.182841	-0.0395529	-0.917955	-1.62149	-9.59068	0.00689165	0.00222936	-0.00512047	0.464844	0.125488	0.937744	
29	0.0877944	0.688352	0.108013	-0.711897	-9.55054	-0.382854	0.307619	0.00309189	-0.0353362	0.00685159	1.06738	0.143066	-0.308838	0.0685938	-0.227028	-0.0239272	-0.971175	4.659	0.125918	8.95574	0.0551639	0.0358995	-0.00981869	-0.678955	-0.0830078	-0.607178	0.402514	-0.44056	-0.415719	-0.686343	9.53031	2.02005	2.65255	0.0220264	0.00414069	0.0203312	-1.12109	0.140381	-0.153809	0.368611	-0.591694	-0.287837	-0.656639	9.73927	-0.465253	1.47072	0.0378081	0.00352712	0.012191	-0.978271	0.48999	0.150146	-0.446901	-0.460024	0.415169	-0.645207	9.5442	-1.3396	2.41077	-0.0157737	-0.000844032	-0.028412	-1.02075	-0.244629	-0.122559	-0.281127	-0.490774	0.132097	-0.814039	9.81922	0.581508	5.45879	0.0227788	-0.00565935	-0.0330169	-1.00293	-0.381104	-0.0681152	0.025442	-0.389993	-0.0371579	-0.919716	7.62906	0.521202	6.5843	0.043545	0.065926	-0.00616838	-0.986084	-0.0383301	-0.349365	0.0605131	-0.773549	0.028192	-0.630211	9.30385	-1.2637	-1.78822	-0.0083145	-0.0133202	-0.0197021	-0.894775	0.183594	0.799316	-0.0244871	-0.975241	-0.217761	0.0297495	-0.661442	0.833174	-9.14839	0.00178985	5.35664e-05	-0.022555	0.619873	-0.0605469	1.14038	-0.164781	-0.780878	-0.0972881	-0.594653	8.73	3.48476	-2.2359	0.0283883	-0.0146473	0.0033765	-0.713135	-0.44043	0.719238	-0.113347	0.975763	0.182932	-0.0396871	-0.915979	-1.64138	-9.59187	-0.00436401	0.00321823	-0.0039861	0.460693	0.116699	0.937744	
30	0.0878175	0.688349	0.107781	-0.711932	-9.33526	-0.39253	0.202629	0.0128098	-0.00582879	0.0127604	1.06519	0.145264	-0.311035	0.0690885	-0.228976	-0.0247427	-0.970662	4.75518	0.366339	9.0043	0.0522821	-0.0306317	-0.00452168	-0.683838	-0.0720215	-0.602783	0.403084	-0.440138	-0.416232	-0.685969	9.39205	2.38879	2.63446	0.0240379	0.012148	-0.00352404	-1.11914	0.140381	-0.156006	0.368719	-0.5919	-0.28755	-0.656518	9.77414	-0.308188	1.47291	-0.0096281	0.000163558	0.0273164	-0.973633	0.485596	0.145752	-0.447073	-0.459977	0.415772	-0.644733	9.55335	-1.12738	2.33047	-0.0251139	-0.00645819	-0.00570888	-1.01392	-0.249023	-0.124756	-0.280854	-0.491092	0.13141	-0.814052	9.70243	0.770239	5.41312	0.0651125	0.00610422	-0.0262728	-0.998779	-0.374512	-0.0727539	0.0257008	-0.389338	-0.0373682	-0.919978	7.47681	0.540801	7.00046	0.0428252	0.0711869	-0.00545779	-0.985596	-0.046875	-0.355469	0.0602098	-0.773848	0.0280879	-0.629877	9.29999	-1.26748	-1.79279	0.0126749	-0.00337039	-0.0309185	-0.896729	0.179443	0.799316	-0.0246592	-0.975223	-0.217814	0.0298077	-0.670393	0.822507	-9.12291	-0.00108169	-0.00204959	-0.0230252	0.619873	-0.0605469	1.13599	-0.165024	-0.781057	-0.0972242	-0.594361	8.69484	3.5272	-2.23108	-0.0249445	-0.00343447	-0.00507228	-0.704102	-0.442627	0.72168	-0.113075	0.975792	0.18295	-0.0396736	-0.92414	-1.62343	-9.57153	-0.0170567	0.00510436	-0.00525024	0.458252	0.121094	0.937744	
31	0.0876732	0.689636	0.106813	-0.71085	-9.70957	-0.282307	0.387687	0.031835	0.0773686	0.0249974	1.06763	0.140869	-0.30249	0.0695763	-0.23063	-0.0236842	-0.970262	4.65765	0.187913	8.86362	-0.0436117	-0.0269984	0.0167177	-0.683838	-0.0720215	-0.595703	0.402995	-0.44041	-0.415842	-0.686083	9.42545	2.02487	2.59853	-0.0290256	0.00403609	0.00516939	-1.12549	0.142578	-0.153809	0.368851	-0.592409	-0.286054	-0.656638	9.65734	-0.67653	1.30242	-0.0202955	0.0161832	0.0254844	-0.978027	0.487793	0.145752	-0.447418	-0.459722	0.41679	-0.644018	9.57625	-1.09018	2.30896	-0.0585315	-0.00999279	-0.0170012	-1.01831	-0.249023	-0.124756	-0.281086	-0.491382	0.131926	-0.813714	9.66549	0.902416	5.47028	-0.0197773	-0.00827921	-0.0153684	-0.998779	-0.374512	-0.0683594	0.0271125	-0.389607	-0.0379844	-0.919798	7.39162	0.581209	7.25526	0.050524	-0.000859449	0.013177	-0.986084	-0.0402832	-0.351318	0.0603276	-0.773891	0.0276763	-0.629831	9.31942	-1.22825	-1.84232	0.0258838	0.0102656	-0.0264529	-0.896973	0.183594	0.797119	-0.0251923	-0.975186	-0.217934	0.0297192	-0.66208	0.85237	-9.13226	-0.00515953	0.0066744	-0.0228501	0.619873	-0.0583496	1.13379	-0.165075	-0.78111	-0.0975018	-0.594232	8.67438	3.54154	-2.23665	0.0280231	0.000694886	-0.00640887	-0.704102	-0.444824	0.719482	-0.113143	0.975751	0.183082	-0.039868	-0.935478	-1.62226	-9.60581	0.0192244	-0.0028637	-0.0109312	0.465332	0.114502	0.940186	
32	0.0871194	0.690406	0.1067	-0.710186	-10.0601	-0.361119	0.408192	0.0239174	0.0224301	-0.0100414	1.07202	0.138672	-0.300293	0.0698914	-0.231301	-0.0226537	-0.970104	4.68278	0.126443	8.90221	-0.0353438	0.0113245	-0.00269214	-0.681641	-0.0720215	-0.600342	0.403253	-0.440234	-0.415663	-0.686152	9.32457	2.10807	2.64267	0.0048662	0.0202688	0.00671	-1.11914	0.144775	-0.156006	0.368859	-0.59252	-0.285563	-0.656748	9.62887	-0.57602	1.33638	-0.0283802	0.0194292	0.0231228	-0.978027	0.485596	0.147949	-0.448248	-0.459099	0.417547	-0.643395	9.44169	-1.13956	2.1508	-0.0462781	0.00680109	-0.028477	-1.01196	-0.249023	-0.129395	-0.281188	-0.491514	0.132431	-0.813517	9.57472	0.859555	5.27749	-0.000103104	0.00496549	-0.00798823	-1.00073	-0.381104	-0.0703125	0.0273959	-0.389571	-0.0380362	-0.919803	7.39935	0.545091	7.29843	0.0313759	0.0178863	0.00404941	-0.98584	-0.0424805	-0.351318	0.0600748	-0.774088	0.0278634	-0.629606	9.35176	-1.24201	-1.80345	-0.00655377	0.00448152	-0.0168588	-0.892334	0.179443	0.801758	-0.0248054	-0.975171	-0.218032	0.0298192	-0.661781	0.82951	-9.14265	0.0327914	0.0061919	-0.0228771	0.620117	-0.0629883	1.13599	-0.164971	-0.781527	-0.0974586	-0.593719	8.64959	3.61808	-2.25983	-0.00904165	-0.0155887	0.00724363	-0.701904	-0.442627	0.723877	-0.113634	0.975661	0.183214	-0.0400777	-0.938268	-1.61714	-9.5543	0.0271061	0.00541269	-0.0100832	0.462646	0.125488	0.928467	
33	0.0870074	0.690182	0.106612	-0.710431	-9.9753	-0.102745	0.345608	-0.0138532	-0.0278693	0.00353414	1.07422	0.138672	-0.302246	0.0700461	-0.231547	-0.0226228	-0.970035	4.6889	0.0389966	8.92768	-0.0112689	0.0139623	-0.0098791	-0.686035	-0.067627	-0.595947	0.40358	-0.440124	-0.415514	-0.686121	9.45792	1.99349	2.60853	0.0275015	0.0118084	0.011205	-1.11475	0.142334	-0.156006	0.369108	-0.592608	-0.285315	-0.656636	9.72345	-0.71566	1.23802	0.0247968	0.00202355	0.00827101	-0.978027	0.487793	0.147949	-0.448564	-0.459413	0.417568	-0.642936	9.70136	-1.1418	2.31035	0.0178541	-0.000598427	-0.0343113	-1.01636	-0.246826	-0.126953	-0.281445	-0.491809	0.132765	-0.813195	9.85902	0.645466	5.50719	-0.0269655	-0.00754584	-0.0217406	-0.996582	-0.378906	-0.0725098	0.0276409	-0.389279	-0.0382103	-0.919912	7.42426	0.352456	7.26025	0.0429665	0.0150738	-0.00795423	-0.990234	-0.0402832	-0.351318	0.0606647	-0.773997	0.0276993	-0.629667	9.28186	-1.29279	-1.81697	0.0395376	0.0202765	-0.00693537	-0.894775	0.183838	0.797119	-0.0242704	-0.97517	-0.218077	0.0299559	-0.68094	0.820243	-9.14234	0.0303036	0.00548078	-0.022	0.622314	-0.0605469	1.13599	-0.16477	-0.781768	-0.0974359	-0.593462	8.69204	3.52331	-2.25165	0.0180223	0.00995493	0.00700741	-0.708984	-0.436035	0.719238	-0.114828	0.975483	0.183384	-0.040226	-0.920407	-1.65797	-9.57664	0.0499337	0.00589613	-0.0118765	0.467041	0.129883	0.9375	
34	0.0879466	0.689591	0.106571	-0.710895	-9.80441	-0.33637	0.287144	-0.0169443	-0.0322065	0.0222546	1.06982	0.140869	-0.306641	0.0703222	-0.232229	-0.0226087	-0.969852	4.77211	-0.00848986	8.99316	-0.0189483	-0.0229809	-0.00456247	-0.683838	-0.0698242	-0.598145	0.404027	-0.439875	-0.415859	-0.685808	9.45338	2.14246	2.65	0.0186772	0.00846811	-0.000729548	-1.1189	0.138184	-0.156006	0.369554	-0.592412	-0.285776	-0.656361	9.79678	-0.5094	1.35943	0.0205443	0.0035922	0.00221189	-0.97583	0.487793	0.147949	-0.448612	-0.459734	0.417644	-0.642624	9.51779	-1.26838	2.24597	0.0258459	-0.0124288	-0.0264766	-1.01587	-0.255615	-0.122559	-0.281204	-0.492232	0.132211	-0.813112	9.6618	0.693966	5.25519	0.0321762	0.00084964	-0.0239284	-1.00513	-0.378906	-0.0661621	0.0279929	-0.389058	-0.0385385	-0.919981	7.49634	0.31894	7.11521	0.033486	0.0235938	-0.00842993	-0.983643	-0.0446777	-0.355469	0.0608182	-0.773974	0.0277385	-0.629679	9.32207	-1.29156	-1.86703	0.00275284	0.0164092	-0.0146785	-0.894775	0.183838	0.797119	-0.0242407	-0.975143	-0.218185	0.0300693	-0.666561	0.822476	-9.13073	0.0142872	0.00119598	-0.0243035	0.615234	-0.0605469	1.13599	-0.164853	-0.781739	-0.0973523	-0.59349	8.72448	3.48541	-2.2899	-0.00323501	0.00535806	0.00185403	-0.706543	-0.438232	0.721436	-0.115006	0.975459	0.183374	-0.0403504	-0.934989	-1.66589	-9.59146	0.019749	0.00102533	-0.0056151	0.462646	0.127686	0.939941	
35	0.0886797	0.688964	0.107221	-0.711315	-9.77295	-0.385942	0.388099	-0.0451294	-0.0357726	-0.00904294	1.06738	0.143066	-0.308838	0.0708518	-0.232501	-0.022552	-0.96975	4.76312	0.149432	8.8344	-0.0202614	-0.00347277	0.0060032	-0.683838	-0.0698242	-0.593506	0.40419	-0.439606	-0.41621	-0.685672	9.39858	2.05327	2.72054	0.0279973	0.00851729	-0.00187006	-1.11475	0.142334	-0.162842	0.369769	-0.592271	-0.286079	-0.656235	9.67773	-0.709802	1.31593	0.0212402	0.000762812	-0.00488675	-0.978271	0.48999	0.143555	-0.448467	-0.460144	0.417291	-0.642661	9.57855	-0.987202	2.24265	0.0182412	0.0134454	-0.0185357	-1.01416	-0.246826	-0.124756	-0.280758	-0.492777	0.131172	-0.813105	9.68192	0.940949	5.3633	0.0464578	0.00775247	-0.0194587	-1.00293	-0.381104	-0.0681152	0.0284391	-0.38926	-0.0388779	-0.919867	7.44199	0.448999	7.18458	0.0449748	0.00572364	-0.00225926	-0.988281	-0.0383301	-0.351318	0.0604942	-0.773926	0.0278634	-0.629764	9.33821	-1.31171	-1.81667	-0.00198102	0.0155756	-0.0242696	-0.892578	0.183838	0.794678	-0.0240427	-0.975059	-0.218573	0.0301148	-0.676966	0.82893	-9.13745	0.0133632	0.00289942	-0.0252157	0.622314	-0.0629883	1.13843	-0.164616	-0.781774	-0.0977777	-0.59344	8.7091	3.56189	-2.32124	0.0343566	0.00593691	-0.00646464	-0.70874	-0.438232	0.726074	-0.114896	0.97545	0.18349	-0.0403419	-0.936447	-1.66169	-9.58076	-0.00801932	0.00864003	-0.0080997	0.465088	0.123291	0.935303	
36	0.0891278	0.688159	0.107525	-0.711992	-9.67905	-0.542152	0.343761	-0.00292106	-0.0446862	-9.19705e-05	1.06738	0.143066	-0.311035	0.071188	-0.232785	-0.0224653	-0.969659	4.74104	0.0759328	8.79864	-0.00794624	-0.00570053	-0.00749169	-0.686035	-0.0720215	-0.598145	0.40419	-0.439606	-0.41621	-0.685672	9.39858	2.05327	2.72054	0.0279973	0.00851729	-0.00187006	-1.11475	0.142334	-0.162842	0.369863	-0.592202	-0.286237	-0.656176	9.64174	-0.616756	1.47982	0.00444682	0.00472801	0.00059347	-0.973633	0.487793	0.147949	-0.448658	-0.460364	0.417335	-0.642341	9.50807	-1.14037	2.22377	-0.00569997	-0.000452397	-0.0358323	-1.01416	-0.246826	-0.126953	-0.280542	-0.49299	0.13088	-0.813097	9.62755	0.812436	5.31706	0.0524049	0.0153155	-0.0123681	-1.00073	-0.383301	-0.0617676	0.0287236	-0.389314	-0.0390435	-0.919829	7.41177	0.54042	7.11447	0.00996711	0.0179003	-0.00945158	-0.983887	-0.0402832	-0.344971	0.0605314	-0.773673	0.0276277	-0.630081	9.32678	-1.20265	-1.79875	0.0137082	0.0386257	-0.0216899	-0.892578	0.186035	0.790039	-0.024325	-0.97503	-0.218676	0.0301051	-0.661634	0.815558	-9.14764	-0.00860461	0.00474314	-0.0221956	0.622314	-0.0605469	1.12939	-0.164826	-0.781792	-0.0978625	-0.593343	8.65213	3.56944	-2.21527	-0.00330255	0.00870029	-0.00603131	-0.70459	-0.436035	0.721436	-0.114325	0.975518	0.18351	-0.0402413	-0.906624	-1.6424	-9.56124	-0.0173833	0.00911772	-0.00443852	0.464844	0.125488	0.930908	
37	0.0891495	0.687787	0.107502	-0.712351	-9.556	-0.43794	0.339529	0.000982964	-0.0429983	-0.00405104	1.06982	0.140869	-0.311035	0.0711961	-0.232861	-0.0225404	-0.969639	4.72011	0.210011	9.00224	-0.00459425	0.00996717	-0.0183572	-0.683838	-0.067627	-0.593506	0.404355	-0.439553	-0.416169	-0.685634	9.30916	2.14861	2.69772	0.0214894	0.0112476	-0.000418717	-1.11694	0.140381	-0.160645	0.37001	-0.592057	-0.286472	-0.656121	9.62132	-0.571245	1.39357	0.0281335	0.0070602	-0.00499305	-0.978027	0.485596	0.143555	-0.448369	-0.46065	0.417004	-0.642553	9.48392	-1.27395	2.20209	0.0450398	0.0018239	-0.0140086	-1.01855	-0.246826	-0.124756	-0.280661	-0.49302	0.130965	-0.813025	9.65552	0.708539	5.42047	-0.00799135	0.00848391	-0.0202203	-0.998779	-0.376709	-0.0617676	0.0287083	-0.389168	-0.0390297	-0.919892	7.40676	0.511869	7.11292	0.0172982	0.0276294	-0.0162541	-0.981689	-0.0424805	-0.342773	0.0604404	-0.773677	0.0276975	-0.630082	9.30924	-1.14449	-1.71035	-0.00381286	0.013483	-0.0180826	-0.892578	0.183594	0.799316	-0.0244169	-0.975024	-0.218697	0.0300651	-0.659727	0.829797	-9.13827	0.00358082	0.00712276	-0.0204064	0.626953	-0.0627441	1.13379	-0.164852	-0.781737	-0.0978766	-0.593406	8.67527	3.57146	-2.27468	0.00103369	0.0162646	0.000614428	-0.699951	-0.440186	0.72168	-0.114302	0.975522	0.183499	-0.0402374	-0.932024	-1.64825	-9.5961	0.00190112	0.00819437	-0.00487624	0.464844	0.125488	0.939941	
38	0.0892053	0.687563	0.107353	-0.712583	-9.55567	-0.406792	0.252382	0.00276626	-0.00469688	0.00243593	1.07422	0.138672	-0.306641	0.0710209	-0.232929	-0.023086	-0.969622	4.76799	0.154189	9.09326	0.0497437	0.030311	-0.0357644	-0.686035	-0.0720215	-0.591064	0.403926	-0.439839	-0.41574	-0.685963	9.35073	2.05838	2.68537	-0.034349	0.00139673	-0.00976943	-1.11914	0.140381	-0.158203	0.369699	-0.592116	-0.28623	-0.656349	9.64093	-0.587371	1.40894	-0.011902	0.00750521	-0.00461478	-0.978027	0.487793	0.150146	-0.448278	-0.460629	0.417137	-0.642545	9.54241	-1.11181	2.19316	-0.00449764	-0.000249547	-0.00475592	-1.01392	-0.251221	-0.122559	-0.280672	-0.492725	0.130894	-0.813211	9.68538	0.859364	5.37665	0.00390878	0.032113	-0.0079798	-0.998779	-0.376709	-0.0683594	0.028406	-0.388826	-0.0388808	-0.920052	7.41881	0.459838	7.02201	0.00865872	0.03841	-0.0283262	-0.983643	-0.0424805	-0.353516	0.060405	-0.773762	0.0279922	-0.629968	9.30211	-1.2526	-1.81826	0.00871105	0.0120699	-0.00643268	-0.887939	0.179443	0.801758	-0.024412	-0.975003	-0.218782	0.0301126	-0.661492	0.832379	-9.14991	0.0134162	0.00333299	-0.0242912	0.62207	-0.0583496	1.13599	-0.164898	-0.781612	-0.0977727	-0.593576	8.66168	3.52944	-2.28981	0.00569957	0.0097709	0.00534983	-0.710938	-0.442627	0.719238	-0.114532	0.975489	0.183499	-0.0403936	-0.93077	-1.64041	-9.56934	0.0185027	0.00252689	-0.00554032	0.464844	0.127686	0.937744	
39	0.0888427	0.687875	0.106919	-0.712392	-9.6912	-0.325342	0.425211	0.0297281	0.0185311	0.00169447	1.07397	0.143066	-0.308838	0.0706103	-0.23302	-0.0229855	-0.969633	4.7742	0.26565	9.12398	0.0350953	0.0629484	-0.0356566	-0.686035	-0.067627	-0.591064	0.403675	-0.439981	-0.415665	-0.686065	9.40013	2.05505	2.74263	-0.0126579	-0.00188742	-0.00714584	-1.12134	0.142578	-0.158447	0.369331	-0.592228	-0.286078	-0.65652	9.71766	-0.615708	1.44523	-0.0205762	0.00719108	-0.00905644	-0.971191	0.483398	0.145752	-0.448616	-0.460157	0.417072	-0.64269	9.57287	-1.18914	2.21373	-0.0261727	0.00985987	-0.0187119	-1.01196	-0.246826	-0.124756	-0.281045	-0.492389	0.131167	-0.813242	9.76711	0.644267	5.40056	-0.00354757	0.0260703	-0.0166004	-1.00073	-0.383301	-0.0637207	0.0279253	-0.389229	-0.038422	-0.919916	7.52246	0.436375	7.37	0.00911716	-0.0223558	-0.0236726	-0.981689	-0.0380859	-0.351318	0.0604139	-0.773834	0.0282119	-0.629869	9.36417	-1.27182	-1.82312	-0.0107576	0.00654463	-0.0123744	-0.898926	0.183594	0.799316	-0.0241234	-0.97494	-0.219094	0.0301201	-0.664668	0.813264	-9.14561	0.0166204	0.00520673	-0.0225813	0.62207	-0.0583496	1.13599	-0.16467	-0.78175	-0.0977968	-0.593453	8.75699	3.46762	-2.19808	-1.18943e-05	0.0109604	0.00594619	-0.701904	-0.442627	0.719238	-0.114903	0.97543	0.183591	-0.0403525	-0.921568	-1.67441	-9.58152	0.0163058	0.00782785	-0.00779799	0.465088	0.123291	0.937744	
40	0.08824	0.68828	0.106966	-0.712069	-9.76633	-0.377371	0.342972	0.0176757	0.0174526	-0.0227408	1.07178	0.143066	-0.306641	0.0701228	-0.232714	-0.0224077	-0.969755	4.66092	0.0893921	8.97284	0.00315204	0.047253	-0.0340425	-0.688232	-0.0720215	-0.588623	0.402867	-0.440451	-0.414878	-0.686715	9.39072	2.01509	2.56672	-0.0595608	0.00227479	-0.0111091	-1.11914	0.142578	-0.158447	0.36899	-0.592307	-0.285611	-0.656845	9.67426	-0.63941	1.27381	-0.0353769	0.020539	-0.00217388	-0.978271	0.48999	0.141357	-0.448629	-0.459679	0.416989	-0.643076	9.52919	-1.15196	2.19005	0.00641336	0.0250918	-0.00560268	-1.01855	-0.246826	-0.131592	-0.281422	-0.491851	0.131648	-0.813359	9.67264	0.755424	5.18428	-0.0643681	0.023921	-0.0146789	-1.00732	-0.381104	-0.0725098	0.0276964	-0.389427	-0.0383948	-0.91984	7.35248	0.394258	7.10662	0.00795161	0.00838356	-0.023225	-0.988281	-0.0383301	-0.351318	0.0603405	-0.773856	0.0282094	-0.629849	9.27085	-1.26715	-1.77725	0.0137175	0.00584202	-0.0180096	-0.888184	0.183838	0.796875	-0.0244749	-0.974925	-0.219141	0.030007	-0.668852	0.820104	-9.10656	-0.0110301	0.00754358	-0.0191887	0.624268	-0.0537109	1.13818	-0.164984	-0.781619	-0.0976745	-0.593558	8.6349	3.49192	-2.34613	0.00426467	0.0199993	-0.00322039	-0.713135	-0.444824	0.72168	-0.114681	0.975444	0.183669	-0.0402949	-0.936122	-1.64873	-9.56616	-0.00638967	0.0099023	-0.00852594	0.460449	0.127686	0.935303	
41	0.0876731	0.688499	0.106143	-0.712051	-9.8475	-0.224577	0.39582	0.0419388	-0.00414138	0.0114013	1.06519	0.143066	-0.306641	0.0695195	-0.232135	-0.0222726	-0.96994	4.73251	0.0941581	8.97066	-0.0144235	0.0328649	-0.0321676	-0.683594	-0.0742188	-0.593262	0.402626	-0.440575	-0.414707	-0.68688	9.41544	2.0997	2.6947	0.00413945	0.00867992	-0.00646714	-1.11694	0.144531	-0.156006	0.369086	-0.591929	-0.286028	-0.656951	9.71008	-0.639437	1.39514	0.0305177	0.00967174	-0.0142821	-0.973877	0.48999	0.147949	-0.448585	-0.45954	0.416864	-0.643288	9.54454	-1.20868	2.2527	0.0243625	0.0165638	-0.00787778	-1.01636	-0.246826	-0.124756	-0.281548	-0.491435	0.131802	-0.813542	9.66849	0.836561	5.42151	-0.00997423	0.0276272	-0.0129955	-0.998779	-0.374512	-0.064209	0.0271782	-0.389575	-0.0379058	-0.919813	7.47811	0.433569	7.2888	-0.0139577	0.00911919	-0.0281637	-0.990234	-0.0424805	-0.349121	0.0603312	-0.774144	0.0281628	-0.629499	9.36289	-1.24041	-1.8505	-0.00200453	-0.00809273	-0.0207451	-0.892334	0.181396	0.801758	-0.0248887	-0.974897	-0.219241	0.0298154	-0.661717	0.843598	-9.13676	-0.000292625	0.0102552	-0.0222261	0.61792	-0.0651855	1.12939	-0.164854	-0.781736	-0.0978057	-0.593419	8.7501	3.52266	-2.23223	0.0109472	-0.001892	0.00412989	-0.702148	-0.44043	0.717041	-0.114307	0.975492	0.183684	-0.0401099	-0.917807	-1.66347	-9.6118	-0.0147994	0.0126733	-0.00573406	0.453613	0.125488	0.928467	
42	0.087252	0.688274	0.105302	-0.712445	-9.84603	-0.313031	0.217235	0.0473657	-0.0267558	0.0150866	1.06982	0.140869	-0.313232	0.0691654	-0.231283	-0.0225934	-0.970162	4.58578	0.23462	9.07236	0.00226481	0.0417837	-0.0371655	-0.681641	-0.0698242	-0.598145	0.40272	-0.440281	-0.414976	-0.68685	9.46727	2.22242	2.68054	0.0245733	0.012335	-0.00989759	-1.11914	0.146729	-0.153809	0.369368	-0.591652	-0.286662	-0.656765	9.78077	-0.58114	1.47427	0.0516091	0.000294476	-0.0072689	-0.978271	0.48999	0.145752	-0.448713	-0.45929	0.416622	-0.643533	9.54455	-1.43414	2.39576	0.0207393	0.0240329	-0.0148475	-1.01831	-0.253418	-0.131592	-0.281847	-0.491005	0.131908	-0.813681	9.70366	0.686249	5.4011	0.0140847	0.0326789	-0.0207838	-1.00317	-0.374512	-0.0705566	0.0263168	-0.389936	-0.0367179	-0.919733	7.33402	0.538626	7.22445	-0.0534175	-0.00246882	-0.0257645	-0.981689	-0.0402832	-0.347168	0.0605891	-0.774452	0.0278147	-0.62911	9.28139	-1.24747	-1.78197	0.0263643	-0.0105294	-0.0214303	-0.896729	0.181641	0.797119	-0.0249971	-0.97483	-0.219555	0.0296182	-0.662768	0.828599	-9.15031	-0.00057395	0.00971602	-0.0217381	0.619873	-0.0605469	1.13379	-0.164993	-0.781709	-0.0976623	-0.593439	8.60615	3.54358	-2.22473	0.000769737	0.0197071	5.89669e-05	-0.708984	-0.438232	0.719238	-0.114439	0.975454	0.183846	-0.039915	-0.91443	-1.64551	-9.56658	0.00553066	0.0116125	-0.00947091	0.460693	0.121094	0.942383	
43	0.0869647	0.688333	0.104771	-0.712501	-9.65387	-0.201963	0.190302	0.0141544	0.0133491	-0.000573568	1.07178	0.143066	-0.308838	0.0689088	-0.230539	-0.0231913	-0.970343	4.65499	0.276002	9.1321	0.000831331	0.0341011	-0.0311396	-0.681641	-0.0742188	-0.595703	0.402772	-0.439948	-0.415281	-0.68685	9.47575	2.3095	2.59318	0.00821199	0.00598593	-0.0117914	-1.12329	0.142578	-0.160645	0.369383	-0.591621	-0.287012	-0.656632	9.80908	-0.480415	1.34031	0.0150825	-0.00115294	-0.00413588	-0.978271	0.492188	0.147705	-0.448546	-0.459722	0.416018	-0.643732	9.64591	-1.22214	2.32765	0.0200505	0.00168116	-0.0198752	-1.01392	-0.253418	-0.129395	-0.281973	-0.491064	0.13161	-0.81365	9.81758	0.620209	5.33986	-0.00121285	0.0100761	-0.0277106	-0.998779	-0.378906	-0.0661621	0.025494	-0.390725	-0.0356927	-0.919462	7.44606	0.439027	7.16063	-0.0116965	-0.0270101	-0.0254235	-0.988281	-0.0383301	-0.355713	0.0605064	-0.774629	0.0279557	-0.628894	9.32531	-1.2387	-1.82009	-0.0026489	0.0113742	-0.0140308	-0.892578	0.183594	0.801758	-0.025466	-0.974805	-0.219619	0.0295558	-0.657632	0.847156	-9.16081	-0.00980552	0.0019132	-0.0201389	0.624756	-0.0651855	1.13159	-0.165446	-0.781655	-0.0974124	-0.593426	8.69233	3.49944	-2.30205	-0.0207219	-0.0030075	-0.000237553	-0.701904	-0.442627	0.723877	-0.114041	0.975518	0.183767	-0.0398613	-0.923271	-1.65698	-9.5873	-0.0177309	0.00806108	0.000584148	0.460449	0.125488	0.939941	
44	0.0871171	0.688846	0.104765	-0.711988	-10.0418	-0.260843	0.325831	-0.00580417	0.0160648	0.00328563	1.07422	0.138916	-0.313232	0.068492	-0.230173	-0.0235291	-0.970451	4.6236	0.238074	9.02553	0.00520882	0.0224196	-0.0289501	-0.683594	-0.076416	-0.600342	0.402654	-0.440054	-0.41523	-0.686882	9.47389	2.22003	2.57096	-0.00790404	-0.00142432	-0.00417965	-1.12109	0.140381	-0.156006	0.36919	-0.591929	-0.286923	-0.656501	9.7256	-0.598982	1.27172	-0.0057962	-0.00835544	0.00252186	-0.97583	0.487793	0.143555	-0.448046	-0.460441	0.415512	-0.643893	9.54508	-1.03762	2.41576	0.0559701	-0.0109783	-0.0211714	-1.02075	-0.246826	-0.120117	-0.281947	-0.491557	0.130939	-0.81347	9.64236	0.993569	5.61944	0.0141988	-0.00135197	-0.035291	-1.00293	-0.383301	-0.0703125	0.0251017	-0.392028	-0.0353064	-0.918933	7.42329	0.453729	7.33648	0.00181224	-0.0508117	-0.0203962	-0.98584	-0.0424805	-0.346924	0.0605163	-0.77475	0.0279108	-0.628745	9.31721	-1.26124	-1.85484	0.0142523	0.00428622	-0.0206029	-0.894531	0.179443	0.801758	-0.0256179	-0.974787	-0.219679	0.0295829	-0.672428	0.854153	-9.15127	0.0101406	0.00565814	-0.0215767	0.622314	-0.0627441	1.13379	-0.165368	-0.782125	-0.0974925	-0.592815	8.71131	3.51578	-2.22575	0.00927704	-0.0122718	-0.00163308	-0.702148	-0.438232	0.723877	-0.113353	0.975621	0.183668	-0.0397521	-0.925246	-1.62476	-9.58961	-0.0188319	0.00667175	-0.00212495	0.465088	0.123291	0.939941	
45	0.0872467	0.688253	0.104811	-0.712538	-9.90681	-0.187464	0.412017	-0.00965635	-0.0465666	-0.00212957	1.06543	0.138672	-0.313232	0.0685653	-0.230306	-0.0232314	-0.970422	4.58202	0.262538	8.87562	-0.0176822	0.00748926	-0.00927111	-0.685791	-0.0742188	-0.5979	0.402814	-0.44043	-0.415017	-0.686676	9.38358	2.16072	2.63112	-0.00632742	0.00706517	0.0151627	-1.11914	0.144775	-0.158447	0.369378	-0.592203	-0.286807	-0.656199	9.71011	-0.604023	1.34814	0.00482564	-0.00110815	0.0186834	-0.97583	0.485596	0.145752	-0.448158	-0.460814	0.415219	-0.643738	9.50303	-1.25276	2.36935	0.0335732	0.0010163	-0.0289523	-1.01196	-0.246826	-0.122559	-0.282209	-0.491899	0.130794	-0.813195	9.67712	0.715636	5.36242	0.0186249	0.00292579	-0.0310329	-1.00488	-0.383301	-0.0703125	0.0251439	-0.393388	-0.0352926	-0.918351	7.39443	0.497214	7.08373	0.0344627	-0.033533	-0.00829603	-0.994629	-0.0383301	-0.338623	0.0603975	-0.774897	0.0281232	-0.628566	9.28353	-1.2737	-1.84995	-0.0119744	-0.00148965	-0.0127964	-0.888184	0.183838	0.796875	-0.0257587	-0.97475	-0.219813	0.0296697	-0.657453	0.827907	-9.11055	0.00348964	1.13135e-06	-0.0246637	0.622559	-0.0651855	1.13159	-0.165594	-0.781911	-0.0975679	-0.593021	8.64613	3.50805	-2.27109	0.000869559	0.0273498	-0.00517232	-0.701904	-0.442627	0.719238	-0.113276	0.975629	0.183666	-0.0397923	-0.911929	-1.6101	-9.56638	-0.00111086	0.00397179	-0.00534021	0.462891	0.121094	0.942383	
46	0.0873853	0.687744	0.104903	-0.712999	-9.72152	-0.281435	0.350593	-0.0123533	-0.0564978	-0.00552287	1.07202	0.140869	-0.313232	0.0686221	-0.230369	-0.0230138	-0.970408	4.67679	0.265022	8.99602	-0.0260759	0.0134116	-0.00946216	-0.681641	-0.0720215	-0.598145	0.402986	-0.440606	-0.414737	-0.686631	9.4394	2.21678	2.61484	-0.00996265	0.00905285	0.0243738	-1.11914	0.142578	-0.151611	0.369585	-0.592458	-0.286589	-0.655947	9.77375	-0.492058	1.37746	0.0013787	-0.00203007	0.0130702	-0.978027	0.487793	0.143555	-0.448098	-0.461144	0.41501	-0.643678	9.52052	-1.00446	2.31472	0.0227712	-0.00673813	-0.0324497	-1.01831	-0.251221	-0.129395	-0.282341	-0.492062	0.130805	-0.813049	9.6263	0.857091	5.40324	-0.00120027	-0.00178905	-0.0274795	-0.992188	-0.381104	-0.0639648	0.0253956	-0.394232	-0.0353436	-0.91798	7.50421	0.46772	7.14026	0.0227339	-0.014337	-0.0041523	-0.983887	-0.0402832	-0.34082	0.0603929	-0.774978	0.0282201	-0.628463	9.3235	-1.28975	-1.81505	-0.000147382	0.00329866	-0.0116544	-0.890137	0.179443	0.801758	-0.0258166	-0.974736	-0.219868	0.0297035	-0.646262	0.842294	-9.14579	0.00749992	0.00198089	-0.0235459	0.622314	-0.0605469	1.13599	-0.165617	-0.781944	-0.0976605	-0.592957	8.64272	3.51443	-2.21861	0.00805617	0.00539006	-0.0048947	-0.706543	-0.438232	0.723877	-0.113622	0.975561	0.183785	-0.0399145	-0.922906	-1.63801	-9.56741	0.0168852	0.00118006	-0.00801063	0.460449	0.123291	0.935303	
47	0.0874722	0.687239	0.105011	-0.713459	-9.58807	-0.221998	0.346167	-0.00781154	-0.017935	-0.00873348	1.06958	0.143066	-0.31543	0.0686915	-0.230641	-0.022661	-0.970347	4.70807	0.222964	8.90652	-0.0372093	-0.00328549	-0.0054585	-0.683838	-0.0720215	-0.598145	0.403198	-0.440738	-0.41441	-0.686619	9.40208	2.17135	2.61879	0.0184674	0.0132312	0.00982129	-1.11914	0.144775	-0.158447	0.369868	-0.592469	-0.28642	-0.655852	9.64303	-0.581304	1.34257	0.0036086	0.00690906	0.0132052	-0.973877	0.48999	0.150146	-0.44789	-0.461714	0.414809	-0.643543	9.54856	-1.20719	2.30134	0.0411656	-0.0242447	-0.0168124	-1.01392	-0.251221	-0.120117	-0.282359	-0.492562	0.130647	-0.812765	9.71771	0.734435	5.38641	0.011865	-0.00891393	-0.0256443	-1.00049	-0.385254	-0.0637207	0.0254983	-0.394923	-0.0352884	-0.917682	7.54263	0.473268	7.09256	0.00696811	-0.0172796	-0.0103778	-0.990479	-0.0383301	-0.336426	0.0607115	-0.774997	0.0282922	-0.628406	9.32575	-1.20261	-1.84137	0.0139772	0.00917215	-0.00459337	-0.885986	0.183594	0.801758	-0.0256079	-0.974717	-0.219961	0.0297987	-0.671305	0.853863	-9.14323	0.0249693	0.00383298	-0.0233035	0.624512	-0.0605469	1.13159	-0.165399	-0.78236	-0.097789	-0.592447	8.69752	3.55978	-2.29602	0.0216392	-0.0117399	0.00354658	-0.702148	-0.44043	0.723877	-0.113478	0.975573	0.183775	-0.0400888	-0.926618	-1.62306	-9.57852	0.00111096	0.00119008	-0.0031082	0.467041	0.127686	0.937744	
48	0.0878516	0.687186	0.105399	-0.713406	-9.73199	-0.402577	0.360629	-0.0228039	0.00194336	0.0108694	1.06738	0.143066	-0.313232	0.068738	-0.230801	-0.0223276	-0.970313	4.65213	0.325974	9.20953	0.0130365	0.0513096	-0.0133876	-0.686035	-0.0720215	-0.600342	0.403304	-0.440977	-0.413909	-0.686706	9.3822	2.0312	2.6878	-0.0214734	0.0107418	0.0150143	-1.11694	0.144531	-0.156006	0.369892	-0.592646	-0.286156	-0.655793	9.68041	-0.707747	1.38396	-0.0130834	0.00205397	0.0195139	-0.976074	0.48999	0.150146	-0.447775	-0.462127	0.414583	-0.643472	9.55876	-1.13767	2.30128	0.0241573	0.00942878	-0.0190578	-1.01611	-0.249023	-0.124756	-0.282165	-0.493052	0.130072	-0.812628	9.67821	1.00367	5.42252	0.0297531	0.00252494	-0.027753	-0.998291	-0.387451	-0.0637207	0.0257188	-0.395103	-0.0356411	-0.917585	7.52174	0.386073	7.10896	0.0514438	-0.0016837	-0.00934589	-0.996582	-0.0427246	-0.338623	0.0609046	-0.775203	0.028449	-0.628126	9.30326	-1.28725	-1.8515	-0.000460493	-0.00777505	-0.00992651	-0.888184	0.185791	0.799316	-0.0253906	-0.974711	-0.220007	0.0298486	-0.675143	0.843691	-9.12796	0.0291763	0.00559746	-0.0235267	0.622559	-0.0651855	1.13159	-0.165567	-0.78272	-0.0975242	-0.591968	8.69878	3.45147	-2.37044	0.00268606	-0.0267232	0.00539873	-0.704102	-0.442627	0.723877	-0.113616	0.975555	0.183763	-0.0401984	-0.914572	-1.6221	-9.59365	0.0165473	0.00180537	-0.00534069	0.460693	0.121094	0.937744	
49	0.0879143	0.687041	0.105211	-0.713566	-9.81975	-0.243064	0.436085	0.00156037	-0.0164299	-0.0002106	1.07202	0.138916	-0.313232	0.0689222	-0.231075	-0.0215825	-0.970252	4.65754	0.19391	9.20309	-0.016503	0.0278073	-0.00540059	-0.688477	-0.0654297	-0.595947	0.403631	-0.440894	-0.413672	-0.68671	9.37467	2.01037	2.65413	0.0234951	0.0170764	0.00788723	-1.11694	0.146729	-0.160645	0.370209	-0.592778	-0.285928	-0.655595	9.67663	-0.620538	1.41065	0.00736904	0.00745319	0.0169485	-0.971436	0.48999	0.150146	-0.44793	-0.462365	0.414581	-0.643195	9.54864	-1.43281	2.15387	0.0150598	-0.0113132	-0.025656	-1.01831	-0.253418	-0.133789	-0.28239	-0.493273	0.130263	-0.812385	9.6785	0.72084	5.40229	0.0233728	0.00341035	-0.0208063	-0.996338	-0.381104	-0.0639648	0.0261657	-0.395836	-0.0360815	-0.917239	7.51844	0.426844	7.12098	0.0687665	-0.0178222	-0.00638547	-0.988037	-0.0405273	-0.334229	0.0611802	-0.775612	0.0282826	-0.627602	9.32577	-1.22411	-1.84816	0.0213694	-0.0130941	-0.014022	-0.885986	0.181641	0.799316	-0.0249311	-0.974643	-0.220364	0.0298136	-0.653593	0.812095	-9.12815	0.0135806	0.00748548	-0.0222222	0.624756	-0.0651855	1.13623	-0.164828	-0.783133	-0.0980053	-0.591548	8.72375	3.61942	-2.21415	0.0434577	-0.00295579	0.00304723	-0.702148	-0.438232	0.730713	-0.114548	0.975398	0.183998	-0.0402737	-0.919482	-1.66962	-9.60377	0.00790069	0.00606336	-0.00711101	0.460449	0.123291	0.935303	
50	0.0880652	0.686758	0.105547	-0.71377	-9.66647	-0.329079	0.327644	-0.0152295	-0.00990603	-0.00126601	1.06738	0.143066	-0.31543	0.0691511	-0.231189	-0.0211326	-0.970218	4.6229	0.111973	9.01792	-0.0251618	0.0076535	-0.00333569	-0.683838	-0.0720215	-0.593262	0.403888	-0.440879	-0.413519	-0.68666	9.44336	2.08978	2.67288	-0.00928022	0.00653157	0.0116999	-1.11694	0.146729	-0.160645	0.370554	-0.592805	-0.285676	-0.655485	9.73765	-0.582958	1.36156	0.00628242	0.00950556	0.0145312	-0.97583	0.487793	0.147949	-0.447734	-0.462603	0.414507	-0.643208	9.55909	-1.15526	2.19896	0.0117801	0.000980472	-0.0138852	-1.01392	-0.251221	-0.124756	-0.282658	-0.493435	0.130017	-0.812233	9.71049	0.640122	5.21482	0.00486833	0.00275981	-0.0233643	-0.998535	-0.383301	-0.0637207	0.0264323	-0.396292	-0.0365356	-0.917017	7.47735	0.376248	7.17436	0.0359254	-0.0145536	-0.00998267	-0.992432	-0.0383301	-0.336426	0.0610768	-0.776152	0.0283085	-0.626941	9.24908	-1.29122	-1.92136	-0.0112782	-0.0297588	-0.0173058	-0.890381	0.185791	0.808594	-0.025046	-0.974629	-0.220424	0.0297517	-0.686733	0.82219	-9.11741	0.00516021	0.00513946	-0.0225786	0.622314	-0.0627441	1.13379	-0.165215	-0.783353	-0.0977556	-0.59119	8.65445	3.49054	-2.36512	-0.000417804	-0.00379729	-0.0034978	-0.704346	-0.44043	0.721436	-0.114482	0.975399	0.184024	-0.0403233	-0.909952	-1.66376	-9.55918	5.18211e-05	0.00306233	-0.00638962	0.465088	0.118896	0.930908	
51	0.0884343	0.686798	0.105729	-0.713659	-9.72902	-0.423058	0.364683	-0.0173758	0.00285177	-0.000120653	1.06543	0.140869	-0.317627	0.0692825	-0.23147	-0.0209524	-0.970146	4.72856	0.0844689	9.10483	-0.0263503	0.000740626	-0.0117358	-0.683838	-0.0698242	-0.600586	0.404151	-0.440861	-0.413448	-0.68656	9.4171	2.13458	2.75981	0.0154143	0.00998094	0.00838915	-1.11719	0.151123	-0.158691	0.370939	-0.592764	-0.285897	-0.655208	9.70489	-0.667835	1.37474	0.0305594	-0.000604573	0.00885319	-0.973633	0.487793	0.152344	-0.447809	-0.462962	0.414291	-0.643037	9.67087	-1.02049	2.28712	-0.021118	0.0105996	-0.0352777	-1.00952	-0.251221	-0.124756	-0.282847	-0.493729	0.129964	-0.811996	9.76428	0.871317	5.3714	-0.0298354	-0.00393748	-0.0238996	-0.996094	-0.387451	-0.065918	0.026436	-0.396676	-0.0364779	-0.916853	7.55638	0.4068	7.12877	0.0049462	-0.00369431	-0.0154559	-0.990479	-0.0361328	-0.33667	0.0616971	-0.77623	0.0280154	-0.626798	9.29991	-1.19442	-1.84401	0.0282209	0.0101412	-0.00982345	-0.88623	0.185791	0.806396	-0.0252114	-0.974598	-0.220541	0.0297479	-0.648778	0.848987	-9.12484	0.00491114	0.00300473	-0.0241763	0.62207	-0.0583496	1.13599	-0.165227	-0.783521	-0.0978183	-0.590953	8.69325	3.53242	-2.31617	0.00716793	-0.00439453	0.00214836	-0.70166	-0.446777	0.733154	-0.114566	0.975374	0.184093	-0.0403609	-0.923733	-1.65818	-9.58284	0.0101953	0.00452974	-0.00758116	0.458252	0.125488	0.937744	
52	0.088532	0.68688	0.105649	-0.71358	-9.71843	-0.460284	0.34318	-0.000701803	0.00598229	0.0105085	1.06787	0.136475	-0.311035	0.0692811	-0.2313	-0.020907	-0.970187	4.69681	0.114382	8.95716	-0.00919081	0.0215147	-0.0202118	-0.681641	-0.0720215	-0.598145	0.404301	-0.440974	-0.41324	-0.686525	9.48374	2.07741	2.71027	-0.00568945	0.00489755	0.00513287	-1.11914	0.144775	-0.16748	0.37102	-0.592897	-0.285779	-0.655094	9.77958	-0.597287	1.39615	-4.80737e-05	0.00159714	0.00766618	-0.976074	0.48999	0.147949	-0.448194	-0.463118	0.413996	-0.642846	9.58246	-1.18026	2.26587	0.0115712	0.00206074	-0.0349596	-1.01147	-0.255615	-0.11792	-0.28301	-0.493968	0.129794	-0.811822	9.73193	0.627269	5.29974	-0.01257	0.0017274	-0.0279974	-1.00513	-0.381104	-0.0595703	0.0261467	-0.397377	-0.0361808	-0.916569	7.50647	0.465392	7.10171	-0.00250236	-0.0142275	-0.0195998	-0.992676	-0.0361328	-0.334473	0.0616487	-0.776389	0.0282032	-0.626598	9.27796	-1.26347	-1.87347	-0.00548629	0.000876074	-0.0139744	-0.884033	0.185791	0.801514	-0.0254725	-0.974578	-0.220597	0.0297561	-0.662167	0.835789	-9.13745	0.000503764	0.00170395	-0.0206766	0.622314	-0.0605469	1.12939	-0.165598	-0.783795	-0.0975414	-0.590532	8.63306	3.51013	-2.30015	-0.00833991	-0.0134494	-0.00097381	-0.702148	-0.438232	0.728271	-0.114725	0.975341	0.184164	-0.0403885	-0.92397	-1.65781	-9.59549	0.0175302	0.00745526	-0.0110107	0.467041	0.127686	0.937744	
53	0.0884216	0.687526	0.105723	-0.71296	-9.79737	-0.322454	0.44612	0.00150443	0.021652	-0.0015943	1.06763	0.140869	-0.31543	0.069232	-0.231342	-0.0208331	-0.970182	4.71426	0.108296	8.98753	-0.0111404	0.0191309	-0.0209292	-0.692383	-0.0742188	-0.5979	0.404306	-0.441185	-0.413097	-0.686472	9.40663	2.08511	2.69477	-0.0151919	-0.00100149	0.000908153	-1.1106	0.146729	-0.160645	0.37089	-0.593134	-0.285575	-0.655041	9.73143	-0.598403	1.38277	-0.00896123	0.00105405	0.00502568	-0.973877	0.492188	0.147705	-0.448085	-0.463399	0.413644	-0.642947	9.51308	-1.04552	2.21737	0.024412	0.011241	-0.0181992	-1.01147	-0.257812	-0.120117	-0.282957	-0.494213	0.129023	-0.811814	9.64604	0.830684	5.23632	0.0421147	0.0173147	-0.0301428	-1.00073	-0.381104	-0.057373	0.0258326	-0.398121	-0.0358756	-0.916267	7.57234	0.422693	7.08147	0.00707583	-0.00729081	-0.0220278	-0.992432	-0.0427246	-0.327881	0.0615768	-0.776351	0.0284381	-0.626641	9.3102	-1.27766	-1.86727	-0.00324445	0.0194201	-0.0123497	-0.885986	0.183594	0.811035	-0.0256365	-0.974554	-0.220674	0.0298422	-0.663915	0.821874	-9.1106	0.00552097	0.000719829	-0.0207783	0.622314	-0.0605469	1.13599	-0.165652	-0.783762	-0.0975836	-0.590554	8.69122	3.56773	-2.27181	0.00120031	0.0176426	0.00292507	-0.704346	-0.44043	0.728516	-0.114566	0.975349	0.184205	-0.0404622	-0.923459	-1.65612	-9.57198	-0.00307302	0.0032105	-0.00517472	0.460693	0.118896	0.933105	
54	0.0885033	0.687708	0.105723	-0.712774	-9.75266	-0.463247	0.457899	0.00243328	0.000505983	0.00687758	1.07202	0.140869	-0.311035	0.0691316	-0.231448	-0.0205872	-0.97017	4.72839	0.109302	8.8984	-0.0319606	0.0102474	-0.0207084	-0.683838	-0.0698242	-0.595703	0.404219	-0.441249	-0.412994	-0.686544	9.36714	2.00592	2.67907	-0.0102079	0.00478618	-0.0034362	-1.11499	0.146729	-0.15625	0.370735	-0.593295	-0.285418	-0.655052	9.63851	-0.638197	1.36768	-0.00482055	0.00249135	0.0014438	-0.976074	0.492188	0.149902	-0.448092	-0.463468	0.413582	-0.642931	9.58363	-0.956948	2.27845	0.0049726	0.00514393	-0.0196734	-1.01587	-0.26001	-0.11792	-0.283182	-0.494259	0.128873	-0.811731	9.75582	0.781287	5.31008	0.00359969	0.0184504	-0.0200662	-1.00049	-0.385254	-0.0615234	0.0256024	-0.398547	-0.0357962	-0.916091	7.56861	0.439379	7.00937	0.0190349	0.00401487	-0.0209564	-0.988037	-0.0405273	-0.330078	0.0613945	-0.776378	0.0286605	-0.626615	9.29048	-1.27601	-1.86836	-0.0110333	0.0115087	-0.0171402	-0.888428	0.187988	0.806152	-0.0257416	-0.974534	-0.220747	0.0298749	-0.663423	0.847938	-9.15222	0.00369806	0.0011724	-0.0248583	0.62207	-0.0583496	1.13159	-0.165384	-0.783916	-0.0978363	-0.590383	8.66659	3.54429	-2.30552	0.0206261	0.00239911	-0.000398625	-0.699951	-0.440186	0.730713	-0.114275	0.975385	0.184194	-0.0404621	-0.947472	-1.67499	-9.56013	-0.0084913	0.00666525	-0.00297578	0.467285	0.125488	0.942139	
55	0.0884726	0.6878	0.105387	-0.712739	-9.72116	-0.389409	0.410839	0.0221364	0.00297641	0.0169876	1.07227	0.136719	-0.313232	0.068901	-0.231419	-0.0203772	-0.970197	4.70324	0.116219	8.92398	-0.0287516	0.0138825	-0.0273887	-0.686035	-0.0698242	-0.598145	0.404076	-0.441388	-0.412865	-0.686615	9.39179	2.03779	2.6804	-0.0159616	-0.000111849	-0.00216486	-1.12134	0.146973	-0.160645	0.370627	-0.593373	-0.285364	-0.655067	9.67363	-0.627637	1.25508	-0.00738225	0.00135161	-0.00156767	-0.978271	0.48999	0.152344	-0.448432	-0.463365	0.413497	-0.642823	9.56145	-1.11223	2.21514	-0.0164668	0.0200401	-0.0228651	-1.01587	-0.257812	-0.124756	-0.283296	-0.494155	0.129033	-0.81173	9.66304	0.932711	5.30785	-0.0148897	0.018025	-0.0145217	-0.996338	-0.385254	-0.0595703	0.0253927	-0.398675	-0.0355292	-0.916052	7.55429	0.453625	7.06004	-0.00771304	0.00366205	-0.0212599	-0.990234	-0.0427246	-0.332031	0.061279	-0.776353	0.02875	-0.626653	9.30435	-1.25491	-1.9115	-0.00595404	0.0176841	-0.018122	-0.888184	0.185791	0.811035	-0.0257395	-0.97446	-0.221073	0.0298552	-0.661628	0.835276	-9.12144	0.00518638	0.00378963	-0.0227225	0.619873	-0.0583496	1.13379	-0.165416	-0.783885	-0.0978563	-0.590412	8.67068	3.51087	-2.33167	0.00189656	0.0133198	-0.000118878	-0.701904	-0.444824	0.733154	-0.11414	0.975404	0.184171	-0.0404957	-0.918014	-1.64295	-9.57043	-0.00527891	0.00416191	-0.0037316	0.458008	0.127686	0.9375	
56	0.0882935	0.687934	0.105204	-0.71266	-9.7588	-0.474087	0.405329	0.0119812	0.000756214	-0.00901697	1.06982	0.138672	-0.311035	0.0685411	-0.231397	-0.0201764	-0.970232	4.73279	0.13488	8.93987	-0.0335314	0.0122202	-0.02932	-0.686035	-0.0698242	-0.593506	0.403811	-0.44164	-0.412788	-0.686656	9.45639	2.04926	2.67971	-0.0076177	-0.00299422	-0.00736752	-1.11914	0.148926	-0.15625	0.370433	-0.593422	-0.285523	-0.655063	9.76787	-0.659973	1.42938	0.00510006	0.00100187	-0.00972891	-0.973633	0.487793	0.147949	-0.448555	-0.463166	0.413481	-0.642891	9.54484	-0.985712	2.21358	-0.0205097	0.0141453	-0.0134358	-1.01587	-0.255615	-0.122559	-0.283513	-0.493854	0.129231	-0.811805	9.69781	0.744619	5.28817	-0.0168883	0.0256647	-0.0120323	-0.996338	-0.385254	-0.0637207	0.0249759	-0.398673	-0.035058	-0.916082	7.59	0.421705	7.04567	0.0075794	0.01982	-0.0210852	-0.994873	-0.0361328	-0.328125	0.0612819	-0.776338	0.0288656	-0.626667	9.30227	-1.28265	-1.89286	5.4384e-06	0.0129213	-0.0145472	-0.890625	0.187988	0.806152	-0.0257713	-0.974431	-0.221195	0.029872	-0.672604	0.820758	-9.15433	0.00739837	0.00396297	-0.0230957	0.62207	-0.0583496	1.12939	-0.165537	-0.783818	-0.0978018	-0.590475	8.69717	3.55782	-2.32326	-0.00998969	0.00478295	0.00224821	-0.701904	-0.442627	0.735352	-0.114106	0.9754	0.184204	-0.040531	-0.923503	-1.65061	-9.57865	0.00376878	0.00600591	-0.0071043	0.460449	0.125488	0.933105	
57	0.0876566	0.687882	0.104837	-0.712842	-9.7888	-0.210164	0.419571	0.0214599	-0.0113284	-0.00920152	1.06958	0.143066	-0.306641	0.0682757	-0.231487	-0.0201663	-0.97023	4.7453	0.138265	8.99782	-0.0247177	0.00586981	-0.0297642	-0.686035	-0.0698242	-0.605225	0.403457	-0.441747	-0.412641	-0.686885	9.34052	2.04762	2.6556	-0.022638	0.00168796	-0.0111685	-1.11694	0.144531	-0.158447	0.370301	-0.593134	-0.285612	-0.655359	9.69441	-0.619971	1.35371	0.00150245	0.0144639	-0.0130584	-0.976074	0.492188	0.147705	-0.448694	-0.462737	0.413557	-0.643054	9.5689	-1.20115	2.29489	0.0164414	0.0212201	0.00379571	-1.01587	-0.257812	-0.122559	-0.283657	-0.493471	0.129459	-0.811952	9.72834	0.7946	5.39189	-0.012589	0.0251126	-0.017329	-1.00049	-0.385254	-0.0615234	0.024748	-0.398372	-0.0349432	-0.916224	7.58643	0.482752	7.02794	0.0156798	0.032091	-0.025266	-0.994385	-0.0446777	-0.330078	0.0612219	-0.776274	0.0289648	-0.626747	9.2952	-1.28026	-1.96319	-0.00438734	0.0144238	-0.0173724	-0.88623	0.187988	0.803955	-0.0258005	-0.974356	-0.221533	0.0297971	-0.672173	0.836758	-9.12076	0.00347384	0.00568885	-0.0231031	0.622314	-0.0627441	1.13599	-0.165354	-0.783774	-0.0979605	-0.59056	8.67276	3.48214	-2.39448	0.010664	0.0105835	0.000990848	-0.706543	-0.44043	0.728271	-0.114052	0.975399	0.184276	-0.04038	-0.91728	-1.65022	-9.58276	-0.00111234	0.00930232	-0.00591666	0.458252	0.125488	0.933105	
58	0.0875959	0.687541	0.104701	-0.713198	-9.82016	-0.311132	0.297455	0.00685065	-0.025933	0.00684629	1.07227	0.136719	-0.311035	0.0678719	-0.231438	-0.0204311	-0.970264	4.63746	0.243465	9.306	-0.0100738	0.0444529	-0.0352615	-0.681641	-0.0742188	-0.595703	0.403206	-0.441836	-0.41275	-0.686908	9.46804	2.05374	2.66205	0.00802538	0.000532215	-0.0111032	-1.11914	0.148926	-0.15625	0.37007	-0.592986	-0.285846	-0.655521	9.78142	-0.625929	1.35436	0.00603568	0.00878557	-0.0167899	-0.978027	0.487793	0.147949	-0.449035	-0.462166	0.413869	-0.643026	9.55124	-0.983867	2.30928	-0.0494955	0.0256537	-0.0138263	-1.01172	-0.253418	-0.124756	-0.283756	-0.492987	0.129649	-0.81218	9.66485	0.829272	5.31537	-0.0340337	0.0319555	-0.00394233	-0.996338	-0.381104	-0.0681152	0.0244698	-0.397764	-0.0349364	-0.916496	7.60669	0.355983	7.1339	0.0293525	0.0333675	-0.0258557	-0.992432	-0.0405273	-0.332275	0.0613836	-0.77633	0.0287394	-0.626672	9.27277	-1.25468	-1.82902	0.0256681	0.0141249	-0.0203984	-0.885986	0.185791	0.808594	-0.0257001	-0.974336	-0.221646	0.0297055	-0.663567	0.832439	-9.12568	0.014324	0.00953122	-0.0253162	0.624756	-0.0673828	1.13159	-0.165314	-0.78357	-0.0979208	-0.590847	8.65018	3.54662	-2.23658	-0.0134888	0.0223607	0.00444484	-0.702148	-0.438232	0.730713	-0.114186	0.975369	0.184353	-0.0403834	-0.927299	-1.654	-9.57654	0.0109098	0.00678317	-0.00770659	0.464844	0.125488	0.942139	
59	0.087403	0.687146	0.104655	-0.71361	-9.80581	-0.282386	0.386997	0.00915221	-0.0224146	-0.013616	1.06982	0.138672	-0.311035	0.0676863	-0.23124	-0.0205046	-0.970323	4.68806	0.201962	9.2632	-0.0254428	0.0203603	-0.0258111	-0.683838	-0.0720215	-0.60498	0.402965	-0.441801	-0.412952	-0.686951	9.43734	2.1003	2.68002	0.00868779	0.000173862	-0.0127792	-1.11499	0.151123	-0.158691	0.369789	-0.592947	-0.285907	-0.655688	9.73554	-0.668188	1.3945	-0.00663421	0.00610442	-0.0096404	-0.976074	0.48999	0.145752	-0.449096	-0.461755	0.414056	-0.643159	9.59098	-1.1159	2.33755	-0.0078154	0.0188695	-0.00843798	-1.02051	-0.249023	-0.131592	-0.28383	-0.492621	0.129786	-0.812355	9.7888	0.617623	5.46232	0.00347778	0.0321391	-0.0108349	-0.998535	-0.383301	-0.0637207	0.0247556	-0.397626	-0.0357004	-0.916519	7.58466	0.421436	7.18397	0.084691	0.0142644	-0.0176094	-0.994629	-0.0383301	-0.336426	0.0614937	-0.776046	0.0287805	-0.627011	9.31433	-1.27172	-1.90684	0.00624489	0.0354105	-0.0128348	-0.892578	0.183594	0.803955	-0.0257565	-0.974267	-0.22195	0.0296428	-0.66552	0.845297	-9.14444	0.00267317	0.00498103	-0.0221026	0.624756	-0.0627441	1.13599	-0.165314	-0.78357	-0.0979208	-0.590847	8.65018	3.54662	-2.23658	-0.0134888	0.0223607	0.00444484	-0.702148	-0.438232	0.730713	-0.114128	0.975374	0.184377	-0.0403122	-0.918817	-1.65384	-9.58427	-0.000311056	0.00650335	-0.00424888	0.460693	0.118896	0.937744	
60	0.0873268	0.68683	0.104669	-0.713921	-9.77435	-0.289458	0.367816	0.000449147	-0.0188308	-0.00695095	1.06519	0.143066	-0.311035	0.0675707	-0.230988	-0.0206263	-0.970388	4.63446	0.121244	8.97068	-0.027083	-0.0030149	-0.0224363	-0.681885	-0.067627	-0.598145	0.402425	-0.441954	-0.412807	-0.687256	9.43559	2.00525	2.57756	-0.00750574	-0.000353768	-0.0127195	-1.11279	0.151123	-0.154053	0.369463	-0.592911	-0.285747	-0.655975	9.70564	-0.661664	1.20263	0.000495091	0.0119503	-0.0110053	-0.973633	0.487793	0.143555	-0.448871	-0.461593	0.414122	-0.643389	9.53725	-0.911525	2.28311	0.01379	0.00355041	-0.00730123	-1.01172	-0.253418	-0.129395	-0.283693	-0.492417	0.129484	-0.812575	9.65006	1.02772	5.23707	0.00705909	0.0229805	-0.011808	-0.998291	-0.387451	-0.0678711	0.024976	-0.396949	-0.0361531	-0.916788	7.5153	0.445445	7.0897	0.0392779	0.0383763	-0.0136672	-0.990234	-0.0427246	-0.332031	0.061297	-0.77581	0.0288792	-0.627318	9.27909	-1.27057	-1.88722	-0.00453142	0.0273735	-0.021856	-0.883789	0.183594	0.808594	-0.0258206	-0.974246	-0.222035	0.0296443	-0.671246	0.837004	-9.13292	0.0140954	0.00645901	-0.0241643	0.620117	-0.0651855	1.13379	-0.165212	-0.783262	-0.0979806	-0.591274	8.65325	3.48022	-2.26771	-0.0071719	0.0337934	0.00205134	-0.699707	-0.442383	0.723877	-0.113933	0.975391	0.184412	-0.0402924	-0.922977	-1.64104	-9.58747	-0.0103446	0.00688205	-0.00713344	0.462646	0.127686	0.939941	
61	0.0873511	0.686505	0.104515	-0.714253	-9.7634	-0.229561	0.391259	0.00324962	-0.0269695	0.00174041	1.06763	0.140869	-0.313232	0.0676313	-0.230541	-0.0209564	-0.970483	4.63712	0.169165	9.02018	0.0194325	0.0515476	-0.0209092	-0.685791	-0.076416	-0.5979	0.402427	-0.441944	-0.413053	-0.687114	9.45936	2.09731	2.6353	0.0222766	-0.00651972	-0.00697906	-1.11914	0.146729	-0.15625	0.369376	-0.592668	-0.286076	-0.6561	9.74725	-0.61441	1.4088	0.0124148	0.00770478	-0.0128353	-0.978271	0.48999	0.147949	-0.449157	-0.461357	0.414391	-0.643185	9.56109	-1.08216	2.3609	-0.0395934	0.0107938	-0.018719	-1.01855	-0.246826	-0.129395	-0.283705	-0.492156	0.129793	-0.812679	9.7139	0.747477	5.55545	-0.000138604	0.0220496	-0.00848918	-1.00049	-0.387451	-0.0637207	0.0251953	-0.396276	-0.0365563	-0.917057	7.52589	0.486621	7.06708	0.0391183	0.0455835	-0.0156511	-0.990234	-0.0405273	-0.332275	0.061314	-0.775638	0.0288307	-0.627531	9.29063	-1.22456	-1.82523	0.0109118	0.0355691	-0.0204819	-0.890381	0.185791	0.806396	-0.0258104	-0.974165	-0.222399	0.0295739	-0.664618	0.843134	-9.13271	0.00511938	0.00584507	-0.0242734	0.619873	-0.0583496	1.13379	-0.165331	-0.783247	-0.0978549	-0.591282	8.68266	3.47527	-2.37048	0.0156367	0.0045992	0.00484655	-0.704102	-0.442627	0.73291	-0.114016	0.97536	0.184549	-0.0401745	-0.928548	-1.65477	-9.57515	0.0130854	0.00787933	-0.00702388	0.460449	0.123291	0.928467	
62	0.0874283	0.686192	0.104708	-0.714516	-9.76584	-0.266123	0.327668	-0.0141103	-0.0338165	-0.0113341	1.06763	0.138672	-0.31543	0.0676745	-0.230409	-0.0210224	-0.97051	4.63787	0.169065	9.04646	0.0106267	0.0389209	-0.0186285	-0.686035	-0.0698242	-0.593506	0.4025	-0.441743	-0.413306	-0.687048	9.41736	2.17242	2.70827	0.0142854	0.00432376	-0.00575247	-1.11914	0.142578	-0.156006	0.369365	-0.592585	-0.286159	-0.656145	9.70721	-0.589499	1.45807	0.00836871	0.00920092	-0.00765099	-0.976074	0.48999	0.147949	-0.449179	-0.461176	0.414313	-0.64335	9.50189	-1.31201	2.33353	0.00358128	0.00896264	-0.00499434	-1.01831	-0.253418	-0.129395	-0.283835	-0.492051	0.129827	-0.812692	9.654	0.719684	5.48363	-0.00731262	0.0219447	-0.0198566	-0.998291	-0.389648	-0.0678711	0.0252383	-0.395906	-0.0366407	-0.917213	7.49942	0.473703	7.21809	0.0265281	0.0467458	-0.0160026	-0.992432	-0.0405273	-0.338623	0.061088	-0.775584	0.0289171	-0.627615	9.31904	-1.29217	-1.91662	0.00180059	0.0201246	-0.0200805	-0.890381	0.183594	0.801758	-0.0258443	-0.97416	-0.222422	0.0295591	-0.668073	0.845002	-9.12436	0.00861094	0.00603453	-0.0204608	0.620117	-0.0629883	1.13599	-0.16511	-0.783257	-0.0979448	-0.591315	8.68444	3.57231	-2.27131	0.0218877	0.0147751	0.00774698	-0.702148	-0.44043	0.728516	-0.114123	0.975337	0.184599	-0.0401997	-0.930401	-1.65036	-9.60098	0.0133712	0.00768366	-0.0093894	0.460693	0.121094	0.937744	
63	0.0875391	0.685725	0.104672	-0.714956	-9.7555	-0.271041	0.29078	0.00121635	-0.0249471	0.00724736	1.07202	0.143066	-0.317383	0.0678862	-0.229983	-0.0213432	-0.970589	4.56597	0.191397	8.98714	0.00649683	0.0329473	-0.011486	-0.679443	-0.0742188	-0.60498	0.402505	-0.441553	-0.413593	-0.686994	9.3976	2.11571	2.61267	0.0291722	0.00201778	-0.00708272	-1.11694	0.142334	-0.158447	0.369352	-0.592539	-0.286229	-0.656163	9.72537	-0.543536	1.32087	0.000497037	0.00887586	-0.00075994	-0.975586	0.483398	0.145752	-0.449255	-0.460993	0.414314	-0.643427	9.5654	-1.14694	2.35193	-0.0100349	0.0142035	-0.0143935	-1.01587	-0.255615	-0.131592	-0.283833	-0.492042	0.129505	-0.812749	9.65382	0.980447	5.3859	0.00869163	0.0145495	-0.0180463	-1.00049	-0.385254	-0.0722656	0.0254803	-0.395214	-0.0367952	-0.917498	7.43115	0.480128	7.1428	0.0267033	0.0308988	-0.0122842	-0.990234	-0.0405273	-0.338623	0.0613804	-0.775455	0.0286237	-0.62776	9.27912	-1.28293	-1.82457	0.0297219	0.0168032	-0.0187463	-0.892334	0.179199	0.806396	-0.0257212	-0.9741	-0.222708	0.0294818	-0.665469	0.838679	-9.13113	0.00955506	0.00705797	-0.0212148	0.624756	-0.0673828	1.13843	-0.165137	-0.783251	-0.0979148	-0.59132	8.66701	3.57166	-2.266	0.000707195	0.013046	0.00289524	-0.706543	-0.44043	0.726074	-0.11411	0.975325	0.184665	-0.0402257	-0.921789	-1.68565	-9.56651	-0.00524043	0.00566098	-0.00484844	0.458252	0.125488	0.933105	
64	0.0880033	0.68517	0.104579	-0.715445	-9.92332	-0.320135	0.41818	-0.0114942	-0.0421401	0.0118633	1.07007	0.134521	-0.31958	0.0680476	-0.229723	-0.0214235	-0.970638	4.58831	0.18746	9.01346	-0.0176351	0.0219165	-0.0127537	-0.681641	-0.0742188	-0.593262	0.40274	-0.441484	-0.413961	-0.686679	9.42663	2.27945	2.71147	0.0173922	0.00223669	0.00349804	-1.11914	0.146729	-0.153809	0.369436	-0.592468	-0.286329	-0.656136	9.75686	-0.612384	1.45123	0.0120048	0.0042422	0.00043121	-0.976074	0.48999	0.147949	-0.449505	-0.461029	0.41417	-0.64332	9.5764	-1.1862	2.37318	-0.00190688	0.00700006	-0.0187244	-1.01611	-0.249023	-0.129395	-0.283854	-0.492156	0.129288	-0.812708	9.71113	0.769317	5.4528	0.0116256	0.0115016	-0.0232139	-0.993896	-0.387451	-0.065918	0.0256583	-0.394985	-0.0369795	-0.917584	7.43129	0.487265	7.19057	0.0380557	0.0340209	-0.00870068	-0.988037	-0.0424805	-0.340576	0.0609506	-0.775594	0.0288064	-0.627622	9.2941	-1.26149	-1.87511	-0.0173837	0.0102085	-0.0211013	-0.892578	0.185791	0.808594	-0.0257199	-0.974078	-0.222796	0.0295394	-0.667961	0.840866	-9.13685	0.0066773	0.00280917	-0.0226902	0.626953	-0.0627441	1.13379	-0.165261	-0.78319	-0.0979125	-0.591368	8.65907	3.56381	-2.24887	0.00428917	0.0143935	-0.00157162	-0.701904	-0.442627	0.728516	-0.11411	0.975325	0.184665	-0.0402257	-0.921789	-1.68565	-9.56651	-0.00524043	0.00566098	-0.00484844	0.458252	0.125488	0.933105	
65	0.0886346	0.684273	0.104739	-0.716202	-9.85106	-0.319562	0.399663	-0.0277034	-0.0514763	0.00530778	1.06323	0.140869	-0.328369	0.067902	-0.229465	-0.0212847	-0.970712	4.63681	0.182584	9.04617	-0.0111564	0.0196805	-0.0137766	-0.677246	-0.0698242	-0.600586	0.402612	-0.441776	-0.413678	-0.686737	9.46069	2.1382	2.66262	-0.00994653	7.57347e-05	0.00681235	-1.11255	0.142334	-0.158447	0.369291	-0.592754	-0.285919	-0.656138	9.73378	-0.614439	1.26826	-0.0183412	0.000195433	0.00974151	-0.97583	0.487793	0.145752	-0.449886	-0.460787	0.414584	-0.642961	9.56149	-1.17698	2.24758	-0.0466537	0.00969694	-0.0217473	-1.02026	-0.255615	-0.129395	-0.284069	-0.492167	0.129284	-0.812627	9.71768	0.822997	5.27024	-0.011347	0.0110449	-0.0212694	-1.00073	-0.383301	-0.0617676	0.0259636	-0.394584	-0.0372681	-0.917736	7.47461	0.508931	7.12842	0.0291404	0.0289627	-0.00893434	-0.988281	-0.0383301	-0.342773	0.0609961	-0.775575	0.0287098	-0.627646	9.31414	-1.26909	-1.86911	0.00537451	0.0102855	-0.0206646	-0.892334	0.181396	0.801758	-0.0259739	-0.974055	-0.222866	0.0295443	-0.659537	0.849397	-9.1325	0.00491279	0.00439817	-0.0230224	0.622314	-0.0605469	1.13599	-0.165388	-0.783228	-0.0978849	-0.591286	8.67067	3.58129	-2.34717	-0.00620888	0.00187671	0.00181378	-0.701904	-0.442627	0.73291	-0.114154	0.975296	0.184783	-0.0402836	-0.923817	-1.64506	-9.57437	0.000906507	0.00262923	-0.0034705	0.465088	0.123291	0.937744	
66	0.0892033	0.683607	0.104196	-0.716846	-9.72807	-0.44311	0.381048	0.0141725	-0.0318575	0.0277325	1.06567	0.136719	-0.326172	0.067895	-0.229481	-0.021004	-0.970715	4.61234	0.228139	9.10065	-0.0317089	0.0168461	-0.0135585	-0.675049	-0.0742188	-0.60498	0.40253	-0.442374	-0.413472	-0.686524	9.45922	2.15305	2.66851	-0.0113268	-0.0156204	0.00976202	-1.11499	0.146729	-0.15625	0.369008	-0.593238	-0.285622	-0.65599	9.79166	-0.553205	1.40357	-0.0225772	-0.00853866	0.00620852	-0.976074	0.48999	0.150146	-0.450239	-0.460598	0.415061	-0.64254	9.61581	-1.05793	2.31806	-0.0318955	-0.00551092	-0.0195997	-1.01611	-0.251221	-0.124756	-0.284362	-0.492249	0.129619	-0.812421	9.72893	0.967808	5.44311	-0.0211925	0.000723082	-0.0185451	-1.00269	-0.385254	-0.0637207	0.0262785	-0.394561	-0.0374018	-0.917732	7.43866	0.491038	7.15	0.0250325	0.012092	-0.0068067	-0.992432	-0.0424805	-0.340576	0.0612297	-0.775657	0.0284489	-0.627534	9.30746	-1.27032	-1.86972	0.0202366	0.00203986	-0.0196711	-0.890381	0.183594	0.801758	-0.0254852	-0.973989	-0.223204	0.029611	-0.668366	0.836035	-9.14331	0.0249637	0.00477418	-0.0239543	0.624756	-0.0651855	1.13623	-0.165316	-0.783324	-0.0979002	-0.591177	8.66244	3.56331	-2.32375	0.0141366	0.00741009	0.00383632	-0.701904	-0.442627	0.726074	-0.113986	0.975322	0.184716	-0.0404381	-0.919692	-1.64897	-9.59792	0.0013288	0.00152606	-0.00225693	0.460449	0.123291	0.933105	
67	0.0889688	0.683551	0.103474	-0.717033	-9.63168	-0.352699	0.451196	0.0318412	-0.00806996	0.0122544	1.06543	0.138916	-0.326172	0.0674307	-0.230202	-0.0202128	-0.970593	4.66465	0.154379	9.07256	-0.0335094	-0.017322	-0.0200295	-0.681641	-0.0742188	-0.593262	0.40225	-0.443069	-0.413084	-0.686474	9.39934	2.10054	2.68532	-0.034482	-0.0143006	0.0123887	-1.11694	0.146729	-0.153809	0.368576	-0.593833	-0.285112	-0.655916	9.68943	-0.622145	1.39364	-0.0375318	-0.00858052	0.0101934	-0.973633	0.487793	0.150146	-0.450593	-0.460565	0.415155	-0.642256	9.57571	-1.14102	2.34615	0.0138818	0.00715515	-0.0247555	-1.02026	-0.257812	-0.122559	-0.284534	-0.492485	0.129454	-0.812244	9.66272	0.896557	5.46278	0.0200835	0.00775395	-0.0293943	-1.00049	-0.385254	-0.0722656	0.0263339	-0.394368	-0.0374725	-0.91781	7.46396	0.462482	7.04812	0.0260168	0.0189512	-0.0146308	-0.988037	-0.0405273	-0.342773	0.0612355	-0.775803	0.0285537	-0.627347	9.28263	-1.2588	-1.83599	-0.00760788	0.00681034	-0.0135233	-0.885986	0.183594	0.806396	-0.0253745	-0.973977	-0.223258	0.0296862	-0.667438	0.824763	-9.12638	0.0119808	0.00250692	-0.0222947	0.62207	-0.0559082	1.13159	-0.165508	-0.783316	-0.097736	-0.591161	8.65855	3.51273	-2.32459	-0.000820427	0.00946484	0.00186243	-0.704102	-0.442627	0.72168	-0.114127	0.975291	0.184765	-0.0405595	-0.936556	-1.65617	-9.57444	0.0180208	0.000767451	-0.00874954	0.47168	0.123291	0.928711	
68	0.0882757	0.683475	0.103462	-0.717192	-9.69536	-0.142847	0.453228	0.00954812	-0.00693083	-0.0356807	1.06104	0.138672	-0.31958	0.0673112	-0.231031	-0.020068	-0.970408	4.66359	-0.0791189	8.73624	-0.0278922	-0.0499047	-0.0221287	-0.679443	-0.0720215	-0.602783	0.402163	-0.443374	-0.412883	-0.686449	9.37981	2.0154	2.69006	-0.0195682	-0.00840749	0.0112529	-1.12134	0.151123	-0.154053	0.36816	-0.594376	-0.2846	-0.65588	9.65923	-0.689393	1.35319	-0.0242998	-0.00573375	0.00752483	-0.969238	0.487793	0.147949	-0.450962	-0.460418	0.415306	-0.642005	9.50967	-1.13756	2.20739	-0.0348546	0.0123848	-0.0317328	-1.01587	-0.257812	-0.133789	-0.284748	-0.49275	0.129187	-0.812051	9.64915	0.76425	5.30848	0.0226626	0.00740635	-0.0302998	-0.996094	-0.387451	-0.0722656	0.0261641	-0.394381	-0.0372935	-0.917817	7.51107	0.365904	7.04639	0.0127339	0.024765	-0.0222551	-0.98999	-0.0446777	-0.338379	0.0612523	-0.775727	0.0286245	-0.627437	9.29676	-1.30988	-1.86693	0.00408616	0.0234459	-0.0126878	-0.890137	0.177246	0.806396	-0.0254331	-0.973962	-0.223305	0.0297699	-0.6782	0.830595	-9.13333	0.0100763	0.0016469	-0.0215925	0.624512	-0.0605469	1.13159	-0.165319	-0.783361	-0.0978397	-0.591137	8.68889	3.49111	-2.30514	0.0218338	0.00870815	0.00480684	-0.704346	-0.438232	0.721436	-0.11426	0.975265	0.184791	-0.040689	-0.919443	-1.6558	-9.56031	0.00861355	0.000442427	-0.00454904	0.462646	0.125488	0.935303	
69	0.0884115	0.683145	0.10382	-0.717438	-9.77153	-0.391012	0.563782	-0.0144566	-0.0242757	0.000479826	1.06348	0.136475	-0.323975	0.0672345	-0.23149	-0.0202423	-0.9703	4.73578	-0.0221862	8.66922	-0.0485522	-0.0464126	-0.0166414	-0.677246	-0.0698242	-0.598145	0.402078	-0.443572	-0.412892	-0.686365	9.4199	2.13825	2.62564	0.00657487	-0.00132554	0.000914453	-1.11279	0.146729	-0.15625	0.367912	-0.59479	-0.284309	-0.65577	9.59639	-0.54218	1.43595	-0.0318507	-0.00454019	0.00715729	-0.974121	0.496582	0.147705	-0.451021	-0.460691	0.415339	-0.641745	9.52162	-1.21699	2.30466	-0.0144547	-0.0113603	-0.0164605	-1.01807	-0.257812	-0.133789	-0.284902	-0.492936	0.128565	-0.811983	9.7549	0.941836	5.58529	0.0409599	0.0180265	-0.0326242	-0.996338	-0.383057	-0.0617676	0.0261281	-0.394842	-0.0376227	-0.917607	7.58177	0.464993	7.0618	0.0450808	-0.00120489	-0.0206387	-0.992188	-0.0446777	-0.334229	0.0611619	-0.775828	0.0287493	-0.627315	9.25986	-1.27303	-1.79822	-0.0103816	-0.00330491	-0.0178648	-0.890381	0.185791	0.801514	-0.0256638	-0.973951	-0.223325	0.0297649	-0.649835	0.820342	-9.10364	-0.00227348	0.00284871	-0.0199649	0.624512	-0.0605469	1.12939	-0.165285	-0.783701	-0.0978346	-0.590696	8.73631	3.45413	-2.30157	-0.00786361	-0.00896276	-0.00213295	-0.701904	-0.444824	0.723877	-0.114241	0.975248	0.18488	-0.0407364	-0.935059	-1.67091	-9.58899	-0.000144832	0.000957228	-0.00778885	0.462646	0.127686	0.933105	
70	0.0883355	0.683002	0.103906	-0.717572	-9.70884	-0.435541	0.54132	0.000158728	-0.0164824	-0.012176	1.06348	0.136475	-0.323975	0.066909	-0.231302	-0.0203077	-0.970366	4.74399	0.110357	8.95499	-0.00492184	0.015562	-0.022617	-0.686035	-0.0720215	-0.591064	0.40202	-0.443578	-0.413141	-0.686246	9.40166	2.14406	2.62968	-0.00430712	-0.00140247	-0.0124542	-1.11475	0.144531	-0.153809	0.367751	-0.594973	-0.283985	-0.655835	9.73227	-0.544198	1.43261	-0.0285682	0.00433187	0.00870711	-0.971436	0.487793	0.152344	-0.451186	-0.460468	0.415344	-0.641786	9.5577	-1.05406	2.31138	-0.0016668	0.0153336	-0.0076023	-1.01367	-0.255615	-0.126953	-0.285153	-0.492892	0.12849	-0.811933	9.72739	0.871381	5.26644	-0.00446133	0.0192931	-0.0348113	-1.00049	-0.387451	-0.0678711	0.0259718	-0.394647	-0.0376428	-0.917694	7.47704	0.490436	7.11964	0.0184552	0.0243517	-0.0214725	-0.988037	-0.0405273	-0.334229	0.0611994	-0.775964	0.0285434	-0.627152	9.27864	-1.33416	-1.87994	0.0238452	0.00870572	-0.0283867	-0.888184	0.181641	0.801758	-0.0258832	-0.973937	-0.223369	0.0297197	-0.670971	0.843566	-9.11655	-0.00645761	0.00525283	-0.0222966	0.62207	-0.0583496	1.13379	-0.165468	-0.783699	-0.0977383	-0.590664	8.67457	3.50227	-2.36803	-0.0111525	0.00510704	-0.000600022	-0.701904	-0.442627	0.730713	-0.114061	0.975257	0.184942	-0.0407477	-0.941736	-1.65829	-9.55551	-0.00926181	0.00477761	-0.00968781	0.455811	0.125488	0.937744	
71	0.0882825	0.682765	0.103758	-0.717825	-9.76345	-0.32288	0.543309	0.010574	-0.0165654	0.00327293	1.06763	0.143066	-0.321777	0.0669162	-0.231718	-0.0205473	-0.970261	4.74941	0.1881	8.94002	-0.00416605	0.0120191	-0.0182919	-0.685791	-0.0742188	-0.595703	0.401988	-0.443593	-0.41328	-0.686171	9.49892	1.97452	2.65855	0.0186179	-0.00113921	0.00549022	-1.11694	0.148926	-0.151611	0.367704	-0.594951	-0.283933	-0.655903	9.75583	-0.790258	1.07132	0.00941092	0.00101818	-0.00095809	-0.978271	0.492188	0.147705	-0.451335	-0.460539	0.415184	-0.641734	9.51113	-0.99423	2.23075	-0.0209258	0.0155374	-0.0209779	-1.01831	-0.251221	-0.126953	-0.285428	-0.492862	0.128549	-0.811846	9.62709	0.876477	5.25682	-0.0542364	0.00433962	-0.0213535	-1.00049	-0.389648	-0.0656738	0.0259472	-0.394673	-0.0376967	-0.917681	7.50427	0.568349	7.14838	0.0218551	0.012374	-0.0185474	-0.988281	-0.0383301	-0.34082	0.0612358	-0.776129	0.0284452	-0.626949	9.25285	-1.2385	-1.91609	0.0121007	-0.00822699	-0.021207	-0.885986	0.183594	0.811035	-0.026211	-0.973904	-0.223484	0.0296424	-0.672722	0.851802	-9.12779	-0.00071241	0.00662385	-0.0235776	0.622314	-0.0627441	1.13379	-0.165531	-0.783696	-0.0978687	-0.590629	8.6616	3.59122	-2.29358	-0.00405224	0.012524	-0.00249137	-0.702148	-0.44043	0.730713	-0.113636	0.975305	0.184948	-0.0407578	-0.918624	-1.64291	-9.56405	-0.00975173	0.00636071	-0.00346802	0.460449	0.123291	0.930908	
72	0.0878654	0.682651	0.103919	-0.717961	-9.70512	-0.369534	0.50005	0.0133779	-0.00053934	-0.0153414	1.06543	0.141113	-0.328369	0.0669162	-0.231718	-0.0205473	-0.970261	4.74941	0.1881	8.94002	-0.00416605	0.0120191	-0.0182919	-0.685791	-0.0742188	-0.595703	0.40213	-0.44383	-0.413209	-0.685977	9.47394	2.09011	2.63499	0.00173655	-0.00360216	0.0111117	-1.11914	0.146729	-0.149414	0.367532	-0.595156	-0.284083	-0.655749	9.74077	-0.55452	1.44413	0.00983989	-0.00965881	-0.00529315	-0.980225	0.485596	0.150146	-0.451878	-0.460335	0.41532	-0.641411	9.5551	-1.16951	2.34715	-0.0225681	0.00929766	-0.0213441	-1.01831	-0.251221	-0.129395	-0.285718	-0.492643	0.128858	-0.811828	9.65714	0.969278	5.50196	-0.0152182	0.0209041	-0.0182296	-1.00073	-0.383301	-0.065918	0.0257056	-0.394571	-0.0374983	-0.91774	7.50509	0.480786	7.09157	0.00561105	0.0218789	-0.0220947	-0.988037	-0.0405273	-0.34082	0.0610229	-0.77631	0.0283824	-0.626749	9.29365	-1.25013	-1.89018	0.00482237	0.017149	-0.0148643	-0.888184	0.181396	0.806396	-0.0261809	-0.973893	-0.223536	0.0296361	-0.676521	0.832214	-9.12135	0.0137178	0.00661032	-0.0233804	0.622314	-0.0605469	1.13159	-0.165668	-0.783757	-0.0977276	-0.590532	8.69102	3.47153	-2.37193	-0.0100579	-0.00200995	0.00395571	-0.704102	-0.442627	0.728516	-0.113625	0.975302	0.184963	-0.0407877	-0.928572	-1.655	-9.58805	0.00477939	0.00623917	-0.00591997	0.462646	0.125488	0.937744	
73	0.0874665	0.682814	0.103816	-0.717869	-9.73664	-0.260089	0.477925	0.0136531	0.00885843	-0.0126843	1.06763	0.138916	-0.323975	0.0659183	-0.231522	-0.0198139	-0.970391	4.69519	0.127261	8.99052	-0.0207221	0.0201204	-0.0280014	-0.686035	-0.0720215	-0.598145	0.401705	-0.444056	-0.412919	-0.686255	9.36149	2.17143	2.65107	-0.0294453	0.00417301	-0.0148728	-1.11499	0.148926	-0.147217	0.367244	-0.595349	-0.283797	-0.655858	9.68507	-0.517611	1.40651	-0.039943	0.00559343	0.00464847	-0.971436	0.48999	0.150146	-0.451982	-0.46033	0.415293	-0.641358	9.57894	-0.956679	2.30998	-0.0103951	-0.000394236	-0.0257454	-1.02026	-0.257812	-0.129395	-0.285797	-0.492658	0.128658	-0.811822	9.69558	0.857739	5.38153	0.0174505	0.0182583	-0.0171265	-1.00024	-0.394043	-0.0678711	0.0255771	-0.394521	-0.0374045	-0.917769	7.47368	0.49264	7.08779	0.00776687	0.018635	-0.0218509	-0.988037	-0.0446777	-0.334229	0.0610368	-0.776392	0.028498	-0.62664	9.26975	-1.29521	-1.89694	-0.000809555	-0.00249416	-0.0152677	-0.890137	0.179199	0.806396	-0.0259	-0.973784	-0.224061	0.0295208	-0.663786	0.835539	-9.11909	0.00997988	0.00679084	-0.020745	0.619873	-0.0605469	1.13599	-0.165308	-0.783751	-0.0978004	-0.590629	8.66656	3.49793	-2.28194	0.00303835	0.0253165	0.00322814	-0.69751	-0.442383	0.730713	-0.114006	0.975236	0.185102	-0.040676	-0.92764	-1.6516	-9.57983	0.0111956	0.0072585	-0.00657541	0.464844	0.125488	0.933105	
74	0.0873048	0.683165	0.103783	-0.71756	-9.72954	-0.260353	0.443241	-0.000298259	0.0233795	-0.000324519	1.06763	0.140869	-0.323975	0.0657997	-0.231562	-0.0197429	-0.970391	4.68646	0.161512	8.98505	-0.0178867	0.0139857	-0.0258712	-0.688232	-0.0698242	-0.598145	0.401376	-0.444211	-0.41255	-0.686568	9.45045	2.06216	2.63782	-0.0163589	0.00708814	0.00119681	-1.11279	0.144531	-0.153809	0.366486	-0.595825	-0.283076	-0.656163	9.72296	-0.742909	1.24008	-0.048253	0.00484314	-0.00605961	-0.97583	0.487793	0.150146	-0.452214	-0.460227	0.415409	-0.641193	9.49488	-1.17366	2.34779	0.00979372	0.00803371	-0.0170279	-1.01587	-0.255615	-0.131592	-0.286033	-0.492596	0.128893	-0.811739	9.67822	0.581741	5.36647	-0.00983068	0.0125108	-0.0225185	-0.99585	-0.394043	-0.0612793	0.0252457	-0.394461	-0.0374395	-0.917803	7.46585	0.437396	7.11197	0.0130594	0.0148536	-0.0165928	-0.988037	-0.0405273	-0.338623	0.0610794	-0.776379	0.0284449	-0.626655	9.27155	-1.24789	-1.87178	0.00703829	0.0171745	-0.0181492	-0.884033	0.185791	0.801514	-0.0258605	-0.973772	-0.224119	0.0295098	-0.662891	0.841994	-9.14536	0.0143852	0.00709569	-0.023643	0.61792	-0.0651855	1.13599	-0.165641	-0.783673	-0.0976316	-0.590668	8.67764	3.55063	-2.33016	-0.0117407	0.0110388	0.000624219	-0.701904	-0.442627	0.73291	-0.113944	0.975241	0.185101	-0.0407284	-0.937537	-1.65976	-9.56145	0.00119355	0.0042047	-0.00533184	0.460693	0.121094	0.935547	
75	0.0871254	0.683383	0.104103	-0.717328	-9.77929	-0.235805	0.45862	-0.00553249	0.0109601	-0.0162503	1.06543	0.141113	-0.328369	0.0652798	-0.231629	-0.0194845	-0.970416	4.68107	0.0960086	8.96286	-0.0132848	0.00428501	-0.017926	-0.685791	-0.0742188	-0.5979	0.401134	-0.444531	-0.411737	-0.686991	9.42994	2.01422	2.57959	-0.0154256	0.0169321	0.00115769	-1.11694	0.148926	-0.15625	0.365819	-0.59636	-0.282513	-0.656291	9.74195	-0.619212	1.34123	-0.029071	-0.00819166	0.00336333	-0.971436	0.485596	0.158936	-0.452359	-0.460296	0.415109	-0.641235	9.5167	-1.17302	2.30587	0.0070996	0.0100757	-0.0169543	-1.01147	-0.257812	-0.13623	-0.285938	-0.492616	0.128529	-0.811818	9.61953	0.879508	5.47776	0.0307866	0.0233966	-0.0205021	-0.993896	-0.387451	-0.065918	0.0252218	-0.394317	-0.0374076	-0.917866	7.41742	0.414423	6.99975	0.0126653	0.0220956	-0.0150544	-0.988037	-0.0405273	-0.34082	0.0611029	-0.776424	0.0285396	-0.626592	9.26535	-1.29922	-1.94384	0.00014233	0.00364167	-0.0142919	-0.888184	0.183594	0.808594	-0.0258722	-0.973687	-0.224481	0.0295263	-0.670337	0.827305	-9.11428	0.0015203	0.00243229	-0.0223532	0.62207	-0.0583496	1.13379	-0.165536	-0.783791	-0.0977343	-0.590523	8.65529	3.53039	-2.3434	0.0206134	0.00252223	0.000824632	-0.701904	-0.444824	0.728516	-0.113818	0.975246	0.185156	-0.0407214	-0.93914	-1.64932	-9.60102	-0.00227318	0.00486075	-0.00434945	0.462646	0.123291	0.928467	
76	0.0872884	0.683444	0.104508	-0.717191	-9.75996	-0.358635	0.495786	-0.0137504	0.00294742	-0.00228012	1.06738	0.145264	-0.328369	0.0653342	-0.232081	-0.0191959	-0.97031	4.72437	0.138506	8.97894	-0.024221	0.00895939	-0.0136836	-0.69043	-0.0720215	-0.595703	0.401144	-0.444466	-0.411605	-0.687106	9.41117	2.10889	2.64532	-0.000770629	0.00922877	-0.0048758	-1.11914	0.148926	-0.149414	0.365868	-0.596429	-0.282638	-0.656147	9.71225	-0.573431	1.37671	0.0159382	-0.00685816	0.00219015	-0.978027	0.487549	0.158936	-0.452182	-0.460616	0.4149	-0.641266	9.55542	-0.981985	2.36007	0.00618675	0.00119802	-0.0176301	-1.01587	-0.257812	-0.131592	-0.286298	-0.492676	0.128096	-0.811723	9.65408	1.09751	5.493	0.0110196	0.0133731	-0.0227721	-0.998291	-0.389648	-0.0656738	0.0251242	-0.394422	-0.0372101	-0.917832	7.49701	0.535119	7.19284	0.0111402	0.0019331	-0.0151584	-0.988037	-0.0405273	-0.338623	0.0610659	-0.77649	0.0286231	-0.62651	9.31501	-1.27945	-1.86689	0.00241168	0.0147082	-0.0156117	-0.884033	0.185791	0.806152	-0.0260351	-0.973661	-0.224574	0.0295558	-0.671071	0.827084	-9.13832	0.00962143	0.00210822	-0.0234468	0.619873	-0.0605469	1.13159	-0.165579	-0.783845	-0.097839	-0.590422	8.64679	3.54044	-2.34323	0.00596291	0.00784114	-0.00353241	-0.699463	-0.446777	0.730957	-0.113508	0.975283	0.185146	-0.0407354	-0.926057	-1.65332	-9.58317	-0.010547	0.00646895	-0.0038265	0.467285	0.121094	0.935547	
77	0.0871268	0.683677	0.104513	-0.716988	-9.76967	-0.433206	0.480785	0.00826384	0.0158393	-0.009532	1.05884	0.140869	-0.323975	0.065327	-0.23219	-0.019102	-0.970286	4.72536	0.138964	8.91761	-0.0181747	0.00734528	-0.0163439	-0.692627	-0.0698242	-0.593506	0.401151	-0.444374	-0.411488	-0.687231	9.50822	2.00431	2.59235	-0.0065265	0.0127073	-0.00208883	-1.12134	0.146973	-0.153809	0.366005	-0.596535	-0.282691	-0.655951	9.7606	-0.744997	1.12144	0.0142601	-0.00389382	0.00729402	-0.969238	0.485596	0.158936	-0.452296	-0.460641	0.414732	-0.641277	9.52264	-1.04101	2.31441	0.012162	0.0140598	-0.0230193	-1.01782	-0.26001	-0.126953	-0.286445	-0.492785	0.128101	-0.811605	9.62705	1.09736	5.40907	0.0213977	0.0107249	-0.0195959	-0.996094	-0.389648	-0.0615234	0.0250334	-0.394612	-0.0370143	-0.917761	7.48339	0.516783	7.14707	0.00128287	-0.00158794	-0.0150159	-0.992432	-0.0427246	-0.332031	0.0611356	-0.776475	0.0286222	-0.626521	9.2955	-1.26911	-1.9325	0.00569714	0.0122282	-0.0158296	-0.888184	0.183594	0.801758	-0.0262562	-0.973632	-0.22467	0.0295604	-0.67036	0.838392	-9.12939	0.00292507	0.00403419	-0.0230009	0.624756	-0.0627441	1.13599	-0.165832	-0.783871	-0.0977232	-0.590336	8.65193	3.55504	-2.30438	-0.0157096	0.00019542	-0.003079	-0.699707	-0.442383	0.730713	-0.113508	0.975283	0.185146	-0.0407354	-0.926057	-1.65332	-9.58317	-0.010547	0.00646895	-0.0038265	0.467285	0.121094	0.935547	
78	0.0871268	0.683677	0.104513	-0.716988	-9.76967	-0.433206	0.480785	0.00826384	0.0158393	-0.009532	1.05884	0.140869	-0.323975	0.065327	-0.23219	-0.019102	-0.970286	4.72536	0.138964	8.91761	-0.0181747	0.00734528	-0.0163439	-0.692627	-0.0698242	-0.593506	0.401389	-0.44423	-0.411587	-0.687127	9.41751	1.96242	2.62552	0.0257508	0.0145228	0.00645127	-1.11694	0.148926	-0.15625	0.366249	-0.596441	-0.283059	-0.655742	9.70994	-0.703397	1.25476	0.0417374	-0.00468383	-0.000529143	-0.971191	0.483398	0.154541	-0.452363	-0.460708	0.414806	-0.641133	9.52024	-1.08611	2.31822	-0.00834373	-0.00227741	-0.0224192	-1.00708	-0.26001	-0.124756	-0.286628	-0.492748	0.12832	-0.811528	9.663	0.900758	5.37498	-0.0210203	0.0103297	-0.0191665	-0.996094	-0.391846	-0.0678711	0.0249815	-0.39453	-0.0370005	-0.917798	7.50347	0.495969	7.05789	0.0164467	0.017898	-0.0113869	-0.988037	-0.0405273	-0.34082	0.06107	-0.776548	0.0287033	-0.626434	9.27881	-1.25129	-1.89316	-0.00279913	0.00445662	-0.0156113	-0.883789	0.179443	0.806396	-0.0262159	-0.973622	-0.224718	0.0295684	-0.678567	0.84184	-9.14875	0.0148121	0.00571997	-0.0235633	0.62207	-0.0583496	1.13159	-0.16569	-0.783972	-0.0978253	-0.590225	8.66287	3.49214	-2.32892	0.0099398	0.000448541	0.00103412	-0.704102	-0.447021	0.726318	-0.113508	0.975283	0.185146	-0.0407354	-0.926057	-1.65332	-9.58317	-0.010547	0.00646895	-0.0038265	0.467285	0.121094	0.935547	
79	0.0864777	0.683886	0.103893	-0.716958	-9.89969	-0.276724	0.503363	0.00716977	-0.0111496	0.00288904	1.06323	0.140869	-0.323975	0.0645812	-0.232007	-0.0180408	-0.9704	4.71721	0.126317	8.93958	-0.0264154	0.00912752	-0.0142187	-0.683838	-0.0720215	-0.593262	0.401806	-0.443815	-0.411798	-0.687024	9.46596	2.37388	2.7743	0.0184004	0.0183403	-0.00260797	-1.12134	0.142578	-0.156006	0.366596	-0.596184	-0.283084	-0.655771	9.79167	-0.594737	1.46326	-0.0203324	0.0203047	0.00187687	-0.971436	0.485596	0.152344	-0.452298	-0.460752	0.414585	-0.64129	9.57618	-1.19837	2.31527	0.0145974	0.0119301	-0.00460034	-1.01367	-0.26001	-0.129395	-0.286701	-0.492728	0.128412	-0.8115	9.68655	0.956501	5.46635	-0.00901635	0.0127695	-0.0185516	-0.998047	-0.391846	-0.0700684	0.0249149	-0.395275	-0.0367234	-0.91749	7.54957	0.446899	7.33692	0.0258676	-0.0317804	-0.0111275	-0.992432	-0.0427246	-0.332031	0.0612141	-0.776571	0.0286823	-0.626393	9.28956	-1.27033	-1.89519	0.0145965	0.0149441	-0.0149631	-0.88623	0.185791	0.806396	-0.0262491	-0.973552	-0.225023	0.0295431	-0.655559	0.837632	-9.12224	0.00384474	0.00368717	-0.021921	0.619873	-0.0605469	1.1272	-0.16528	-0.784088	-0.0981127	-0.590138	8.64574	3.57804	-2.34806	0.0232623	0.00292796	0.00171453	-0.704346	-0.44043	0.730713	-0.113937	0.975188	0.185434	-0.0405018	-0.929702	-1.65559	-9.56974	0.00717072	0.00622584	-0.00679926	0.467285	0.123291	0.937744	
80	0.0866944	0.683576	0.104261	-0.717173	-9.71434	-0.36145	0.48979	-0.0241136	-0.0103163	-0.000379268	1.06982	0.143066	-0.321777	0.0645061	-0.231275	-0.018018	-0.97058	4.86707	0.0858442	8.76918	-0.0460379	0.00988388	-0.0199974	-0.681641	-0.0720215	-0.595703	0.401591	-0.443669	-0.411716	-0.687293	9.43038	2.092	2.63355	0.000574052	0.0133881	-0.0166833	-1.12134	0.148926	-0.154053	0.366626	-0.596214	-0.282965	-0.655779	9.71148	-0.718279	1.13644	-0.00322799	0.00809476	0.00798094	-0.971436	0.485596	0.156738	-0.452198	-0.460972	0.414363	-0.641346	9.59341	-0.783095	2.32666	0.0164947	0.00845619	-0.0159273	-1.01367	-0.257812	-0.124756	-0.286623	-0.492889	0.127967	-0.8115	9.67469	1.05194	5.45362	0.00485127	0.0138998	-0.0194792	-0.996094	-0.389648	-0.0656738	0.0249547	-0.395377	-0.0368598	-0.91744	7.56444	0.513827	6.7357	0.0298841	0.00580495	-0.0159238	-0.988037	-0.0424805	-0.340576	0.0612365	-0.776632	0.0287547	-0.626311	9.30464	-1.2626	-1.87865	-0.00246119	0.00718644	-0.016896	-0.885986	0.183594	0.803955	-0.0262781	-0.973541	-0.225058	0.029587	-0.666259	0.839132	-9.13363	0.0101127	0.0016289	-0.021557	0.622314	-0.0627441	1.12939	-0.165273	-0.784134	-0.0980964	-0.590082	8.70401	3.49269	-2.33577	0.015009	0.0108697	0.00313697	-0.69751	-0.442383	0.723877	-0.114068	0.975159	0.185488	-0.0405913	-0.925291	-1.66963	-9.56671	0.00832507	0.00860674	-0.00913303	0.455811	0.125488	0.933105	
81	0.086687	0.683542	0.10458	-0.71716	-9.63471	-0.430684	0.413542	0.00238053	0.00355195	-0.0136841	1.06982	0.141113	-0.323975	0.0645061	-0.231275	-0.018018	-0.97058	4.86707	0.0858442	8.76918	-0.0460379	0.00988388	-0.0199974	-0.681641	-0.0720215	-0.595703	0.401494	-0.444011	-0.411259	-0.687403	9.42072	1.99255	2.62455	-0.00853948	0.00884851	0.00800775	-1.11719	0.151123	-0.15625	0.366738	-0.5962	-0.283099	-0.655671	9.74132	-0.617302	1.31248	0.0301218	0.00257108	-0.00263151	-0.97583	0.485352	0.158936	-0.452382	-0.460853	0.414618	-0.641136	9.54247	-1.13171	2.32142	0.00795222	-0.00755965	-0.0239538	-1.01367	-0.26001	-0.129395	-0.286596	-0.492903	0.128084	-0.811482	9.66301	0.880868	5.37108	0.00980231	0.0099085	-0.0134895	-0.996094	-0.389648	-0.0637207	0.0247976	-0.395827	-0.0363262	-0.917271	7.50169	0.484503	7.15928	-0.00900353	-0.00613474	-0.0122901	-0.990234	-0.0405273	-0.338623	0.0611934	-0.77676	0.028819	-0.626154	9.28995	-1.36046	-1.89962	0.00271737	0.00512077	-0.017406	-0.883789	0.183594	0.808594	-0.0262781	-0.973541	-0.225058	0.029587	-0.666259	0.839132	-9.13363	0.0101127	0.0016289	-0.021557	0.622314	-0.0627441	1.12939	-0.165537	-0.784033	-0.0978746	-0.590179	8.61421	3.55105	-2.36293	-0.0120195	0.00797896	0.00210255	-0.69751	-0.440186	0.728516	-0.114068	0.975159	0.185488	-0.0405913	-0.925291	-1.66963	-9.56671	0.00832507	0.00860674	-0.00913303	0.455811	0.125488	0.933105	
82	0.0864642	0.683741	0.104742	-0.716974	-9.68923	-0.311732	0.458117	0.00223851	0.00978422	-0.0013175	1.06543	0.138916	-0.326172	0.0638236	-0.230084	-0.0174489	-0.970919	4.70268	0.0923112	8.98099	-0.014193	0.0373513	-0.018421	-0.681885	-0.067627	-0.593506	0.401495	-0.44396	-0.411176	-0.687485	9.38003	2.11293	2.73225	-0.00354054	0.0128474	-0.0046518	-1.12134	0.142578	-0.151367	0.366847	-0.596075	-0.283215	-0.655673	9.77663	-0.549857	1.42717	0.0179729	0.0113444	-0.00216395	-0.97583	0.487549	0.156738	-0.452406	-0.460858	0.414344	-0.641294	9.56963	-1.20956	2.27772	0.034545	0.0208264	-0.00814581	-1.01587	-0.26001	-0.124756	-0.286585	-0.492818	0.128142	-0.811529	9.6991	0.883852	5.40535	0.0203826	0.0211469	-0.0136256	-1.00244	-0.391846	-0.0656738	0.0244794	-0.396278	-0.0357731	-0.917107	7.53779	0.429632	7.12311	-0.000171782	0.000464566	-0.0174285	-0.994385	-0.0427246	-0.336426	0.0612927	-0.776906	0.0287889	-0.625965	9.30773	-1.25544	-1.9631	0.00539652	0.00859332	-0.01477	-0.883789	0.183594	0.811035	-0.0260948	-0.973345	-0.225947	0.0294486	-0.664985	0.819459	-9.1315	-0.00282744	0.00288205	-0.0197921	0.619873	-0.0583496	1.13599	-0.165313	-0.78428	-0.0979515	-0.5899	8.69051	3.5491	-2.34729	0.0296255	0.00545218	0.00632509	-0.704346	-0.44043	0.728516	-0.11435	0.975093	0.185666	-0.0405762	-0.925852	-1.67523	-9.57148	0.0152415	0.0022044	-0.00679664	0.462646	0.125488	0.937744	
83	0.0867811	0.684138	0.104792	-0.71655	-9.80786	-0.323448	0.454298	-0.0134888	0.0171991	0.00683116	1.07007	0.136719	-0.31958	0.0638018	-0.229833	-0.0174783	-0.970979	4.66347	0.0235086	8.97341	-0.00715041	0.036206	-0.0207227	-0.681641	-0.0742188	-0.593262	0.401396	-0.443925	-0.41085	-0.68776	9.45205	2.04474	2.65536	-0.0127847	0.0105648	-0.000490847	-1.11694	0.148926	-0.15625	0.367052	-0.595791	-0.283124	-0.655855	9.69125	-0.646035	1.3471	0.00406585	0.0121041	0.00123498	-0.969482	0.492188	0.152344	-0.452398	-0.460957	0.414146	-0.641356	9.57583	-1.16214	2.27644	0.02267	0.00446558	-0.0199621	-1.01807	-0.255615	-0.133789	-0.286504	-0.492935	0.127876	-0.811528	9.73088	0.735516	5.26058	0.042986	0.0131237	-0.0186121	-0.998291	-0.387451	-0.0637207	0.0241411	-0.396864	-0.0354055	-0.916876	7.50134	0.428794	7.17937	-0.00818476	-0.00933769	-0.0214933	-0.990479	-0.0383301	-0.338623	0.0613947	-0.776722	0.0288711	-0.626179	9.28075	-1.31547	-1.88576	0.00549407	0.0241176	-0.00990125	-0.888428	0.187988	0.811035	-0.0265286	-0.973323	-0.226	0.0293881	-0.670225	0.864658	-9.13545	-0.00148183	0.00359233	-0.0222535	0.622314	-0.0605469	1.13159	-0.165277	-0.784234	-0.0979823	-0.589967	8.6413	3.5309	-2.34684	0.00766382	0.013172	0.00329413	-0.701904	-0.446777	0.730713	-0.114214	0.975103	0.185717	-0.0404853	-0.921677	-1.66907	-9.56231	-0.00299013	0.0070703	-0.00507146	0.462646	0.123291	0.933105	
84	0.0872647	0.684332	0.104799	-0.716304	-9.80211	-0.27706	0.470363	-0.0212371	0.0065192	0.00961119	1.06299	0.143066	-0.319824	0.0632471	-0.228926	-0.017169	-0.971235	4.68146	0.10639	8.98573	-0.0133902	0.0305894	-0.0192667	-0.683838	-0.0698242	-0.598145	0.401488	-0.443546	-0.411203	-0.68774	9.44663	2.16448	2.72086	0.0212442	0.0109376	-0.0120965	-1.11694	0.146729	-0.15625	0.367188	-0.595409	-0.283415	-0.656001	9.75873	-0.599645	1.29858	0.0108053	0.0127658	-0.00932138	-0.980469	0.489746	0.158936	-0.452263	-0.461282	0.413602	-0.641569	9.5196	-1.29353	2.38713	0.032094	0.00854549	-0.0207368	-1.01587	-0.26001	-0.126953	-0.286578	-0.493044	0.127727	-0.81146	9.65761	0.730815	5.41823	-0.0102762	0.00760633	-0.0254936	-1.00244	-0.391846	-0.0634766	0.023883	-0.397198	-0.0350312	-0.916753	7.52419	0.429383	7.06657	-0.0119291	0.00370353	-0.0173475	-0.990234	-0.0405273	-0.336426	0.061554	-0.776739	0.0287907	-0.626146	9.30009	-1.27853	-1.88755	0.0130699	0.01639	-0.0161669	-0.890381	0.185791	0.801514	-0.0263205	-0.97324	-0.226377	0.0293939	-0.667581	0.835184	-9.1321	0.0134724	0.00473393	-0.0252779	0.624512	-0.0583496	1.13379	-0.165098	-0.784278	-0.0981155	-0.589936	8.67486	3.50714	-2.34214	0.0120884	0.00484365	0.00109465	-0.701904	-0.447021	0.723877	-0.114214	0.975103	0.185717	-0.0404853	-0.921677	-1.66907	-9.56231	-0.00299013	0.0070703	-0.00507146	0.462646	0.123291	0.933105	
