40	Head	00b4120a												Throax	00b411e8												LUpArm	00b411d9												LFoArm	00b41148												RUpArm	00b411db												RFoArm	00b41204												Waist	00b411f7												Lthigh	00b411f4												Lshank	00b4111b												Rthigh	00b411c8												Rshank	00b411ee												
PacketCount	q0	q1	q2	q3	accX	accY	accZ	gyrX	gyrY	gyrZ	magX	magY	magZ	q0	q1	q2	q3	accX	accY	accZ	gyrX	gyrY	gyrZ	magX	magY	magZ	q0	q1	q2	q3	accX	accY	accZ	gyrX	gyrY	gyrZ	magX	magY	magZ	q0	q1	q2	q3	accX	accY	accZ	gyrX	gyrY	gyrZ	magX	magY	magZ	q0	q1	q2	q3	accX	accY	accZ	gyrX	gyrY	gyrZ	magX	magY	magZ	q0	q1	q2	q3	accX	accY	accZ	gyrX	gyrY	gyrZ	magX	magY	magZ	q0	q1	q2	q3	accX	accY	accZ	gyrX	gyrY	gyrZ	magX	magY	magZ	q0	q1	q2	q3	accX	accY	accZ	gyrX	gyrY	gyrZ	magX	magY	magZ	q0	q1	q2	q3	accX	accY	accZ	gyrX	gyrY	gyrZ	magX	magY	magZ	q0	q1	q2	q3	accX	accY	accZ	gyrX	gyrY	gyrZ	magX	magY	magZ	q0	q1	q2	q3	accX	accY	accZ	gyrX	gyrY	gyrZ	magX	magY	magZ	
0	-0.554788	0.00862883	-0.831947	0.000327801	-8.6238	-0.0821845	-3.45456	0.00178076	0.000741234	-0.000687555	0.812012	-0.150391	0.778809	-0.392907	0.0406072	-0.914955	-0.0826619	-6.63887	1.32682	-6.69048	-0.0017762	0.0108025	-0.00989564	0.558105	-0.360107	1.06958	0.0648475	-0.0159406	-0.996078	-0.058046	1.20923	0.901644	-8.70555	-0.00381422	0.01933	0.00530841	-0.510498	-0.155273	0.968506	-0.00800137	0.230511	-0.886597	0.400932	1.70697	-7.07954	-6.60259	-0.00854835	-0.0012116	-0.00496161	-0.500732	0.685059	0.692871	0.0800028	0.212133	-0.973952	0.00415267	1.62656	0.177146	-9.6261	-0.0188398	0.00402	-0.0213321	-0.537354	-0.256592	0.953613	-0.11095	-0.144166	-0.585275	-0.790164	1.07448	9.73333	2.77235	-0.00403561	0.010053	-0.0135217	-0.571045	-1.02319	0.0983887	-0.235735	0.0473611	-0.970408	0.0222505	-3.95442	-0.422479	-8.17977	0.0134779	0.0498108	-0.0258072	0.0930176	-0.0217285	1.08838	0.836487	-0.0852336	-0.51115	-0.178186	9.2741	0.371178	4.85752	0.0272513	0.0241918	-0.0208328	-0.845459	0.0307617	-0.709717	-0.0412248	-0.0320198	-0.987649	-0.147729	-0.636385	2.65963	-8.78655	0.00698348	0.00485982	-0.0223097	-0.299805	-0.276367	1.0481	0.825823	0.149436	-0.524976	0.141721	9.19873	1.01315	4.11002	0.00444607	0.00956216	0.00262694	-0.79248	-0.317139	-0.683838	0.102544	-0.0279343	0.991081	0.0803934	-1.89595	1.38303	-9.43697	0.00283769	-0.00138237	-0.00419409	-0.265869	-0.183105	1.11963	
1	-0.554929	0.00851387	-0.831854	0.000413175	-8.59724	-0.0888074	-3.37861	0.00539425	-0.00810237	-0.000104621	0.80957	-0.148438	0.787354	-0.392699	0.0409265	-0.915044	-0.0825068	-6.67088	1.41962	-6.73299	-0.0135005	0.0172401	-0.0148294	0.558105	-0.35791	1.06494	0.0647736	-0.0160645	-0.996065	-0.0583211	1.19693	1.03794	-8.71506	-0.0220844	0.0039306	-0.000234808	-0.510498	-0.157471	0.966309	-0.00805764	0.230645	-0.886488	0.401095	1.60478	-6.8805	-6.63468	0.0198302	0.00276065	-0.0036153	-0.500732	0.687256	0.684082	0.0800873	0.212338	-0.9739	0.00426703	1.43024	0.38957	-9.72824	-0.00494413	0.00815186	-0.0225947	-0.539551	-0.252197	0.942139	-0.110789	-0.144308	-0.585014	-0.790354	0.941927	10.0695	2.81154	-0.020391	0.00872355	-0.000287973	-0.564453	-1.02759	0.0939941	-0.235434	0.0475443	-0.970475	0.0220985	-3.94942	-0.393752	-8.17224	0.00282814	0.0339558	-0.0275362	0.095459	-0.0283203	1.08228	0.836416	-0.0853799	-0.511249	-0.178167	9.32279	0.380803	4.81857	-0.0079481	0.00187056	-0.0147738	-0.847412	0.0285645	-0.704834	-0.0413202	-0.0321218	-0.987635	-0.147773	-0.64909	2.68182	-8.75461	0.00932364	0.00132979	-0.0143624	-0.302002	-0.278809	1.04565	0.82581	0.149363	-0.52503	0.141676	9.22474	1.02018	4.11928	-0.00727303	0.00829016	0.00254043	-0.785645	-0.319336	-0.679199	0.10256	-0.0279577	0.991088	0.0802757	-1.90687	1.37257	-9.47159	0.0027354	0.00582417	-0.00510843	-0.270264	-0.180908	1.12622	
2	-0.554798	0.00835337	-0.831943	0.000614946	-8.65332	-0.033885	-3.46781	0.0124845	0.00550811	-0.00151866	0.807617	-0.150635	0.785156	-0.392926	0.0408186	-0.914924	-0.082811	-6.69637	1.43167	-6.77445	-0.0141878	0.000226444	-0.0106992	0.560547	-0.364502	1.0603	0.0649519	-0.0161267	-0.99606	-0.0581875	1.13964	0.983657	-8.74663	0.0170194	0.00530057	-0.00263824	-0.510498	-0.159668	0.96167	-0.00799678	0.230526	-0.886595	0.400927	1.63595	-6.99261	-6.60532	-0.0019222	0.00904745	0.00426806	-0.498047	0.678467	0.690674	0.0802438	0.21232	-0.973894	0.00333894	1.61421	-0.00322735	-9.60957	-0.0265591	0.0121374	-0.0127715	-0.539307	-0.260986	0.946777	-0.110819	-0.144375	-0.585037	-0.790321	1.05581	9.63086	2.66437	0.0149207	0.0188475	-0.0153972	-0.568604	-1.02759	0.0983887	-0.234171	0.0482379	-0.970748	0.0220192	-3.89741	-0.46378	-8.17808	0.00982194	0.043539	-0.0294449	0.0913086	-0.0324707	1.08447	0.83644	-0.0852623	-0.511268	-0.178056	9.30615	0.407963	4.85727	0.0154448	0.0111772	-0.0163846	-0.850098	0.0373535	-0.70752	-0.0412792	-0.032164	-0.987676	-0.147504	-0.637444	2.66163	-8.80464	0.017559	0.00845148	-0.019808	-0.304199	-0.278809	1.04346	0.825766	0.149418	-0.525058	0.141775	9.23017	0.970148	4.14219	0.0078504	0.00820747	0.00685119	-0.785645	-0.319336	-0.683838	0.102613	-0.027955	0.991085	0.0802438	-1.89236	1.39298	-9.40775	0.0045434	0.00127852	-0.00594051	-0.270264	-0.183105	1.12866	
3	-0.55491	0.00851185	-0.831866	0.000568505	-8.58082	-0.0996696	-3.38971	-0.00700897	-0.0075817	-0.00573976	0.812012	-0.150635	0.782959	-0.392996	0.0408182	-0.914897	-0.0827749	-6.5975	1.3225	-6.67342	-0.004527	0.00907346	-0.0231494	0.562744	-0.366699	1.06055	0.0648462	-0.0162782	-0.996092	-0.0577112	1.21477	0.926075	-8.80569	0.0432239	-0.00410047	-0.00102516	-0.506348	-0.15332	0.963867	-0.00794249	0.230544	-0.886644	0.400811	1.76178	-7.00437	-6.64657	-0.00757899	0.00744274	-0.00205125	-0.50293	0.682861	0.690674	0.0801217	0.212327	-0.973899	0.00426753	1.5314	0.444055	-9.60643	0.0246271	0.00678502	-0.0164957	-0.543945	-0.256592	0.951416	-0.110826	-0.144328	-0.585033	-0.790331	1.06784	9.75754	2.81881	0.0139139	0.0125405	-0.018297	-0.568604	-1.02759	0.0961914	-0.233715	0.0483845	-0.970851	0.0220244	-3.88694	-0.392758	-8.24387	0.0158606	0.0475048	-0.0285868	0.0910645	-0.026123	1.09058	0.836567	-0.0848781	-0.511262	-0.177659	9.18301	0.395499	4.9333	0.0275775	0.0231269	-0.0097322	-0.851807	0.0285645	-0.702637	-0.0412769	-0.0322496	-0.987697	-0.147349	-0.645273	2.65652	-8.76754	0.011115	0.00185173	-0.0190073	-0.302002	-0.27417	1.04126	0.825658	0.149459	-0.525223	0.141746	9.16491	1.01722	4.12018	0.00409376	0.000611822	0.00152259	-0.790527	-0.312744	-0.679443	0.102479	-0.02801	0.991081	0.0804483	-1.88488	1.37983	-9.45182	-0.00534216	0.00206457	-0.00536268	-0.268066	-0.183105	1.11963	
4	-0.555092	0.00847059	-0.831746	0.000618609	-8.60945	0.00134722	-3.38974	0.000869516	-0.0115985	-0.00295774	0.816162	-0.148193	0.781006	-0.392984	0.0407008	-0.914933	-0.0824932	-6.79008	1.45647	-6.78552	0.0121622	0.00987104	-0.0205827	0.564697	-0.362305	1.0603	0.0649364	-0.0160936	-0.996144	-0.0567521	1.17681	1.10442	-8.6569	0.023311	0.00988782	-0.00166721	-0.508301	-0.159668	0.968506	-0.00776363	0.230534	-0.88654	0.401048	1.64483	-6.96848	-6.58205	0.0113424	0.011675	0.00255738	-0.49585	0.67627	0.688721	0.08019	0.212379	-0.973882	0.0042768	1.59618	0.173999	-9.72193	0.0239582	0.0118154	-0.014102	-0.539551	-0.256592	0.948975	-0.110767	-0.144298	-0.585077	-0.790313	1.01605	9.84216	2.69169	-0.00300058	0.0168705	-0.014505	-0.568604	-1.02759	0.0961914	-0.232782	0.0489761	-0.971042	0.0221514	-3.81763	-0.415777	-8.34912	0.0103579	0.0235807	-0.0268609	0.0866699	-0.026123	1.08643	0.836424	-0.0852156	-0.511391	-0.177799	9.27756	0.436229	4.8435	-0.0237253	-0.00360286	-0.0158606	-0.849854	0.0307617	-0.705078	-0.0414255	-0.032319	-0.98771	-0.147204	-0.646757	2.67554	-8.79927	0.0158112	0.00159631	-0.0181204	-0.304443	-0.276611	1.04565	0.825621	0.149481	-0.525244	0.141857	9.2321	0.97457	4.08156	0.00427859	0.0119438	0.00653177	-0.787842	-0.319336	-0.683838	0.102492	-0.0280417	0.991098	0.0802155	-1.88832	1.36795	-9.45495	0.0117811	0.00234204	-0.00740806	-0.272705	-0.176514	1.12402	
5	-0.555093	0.00865201	-0.831743	0.000583013	-8.61069	-0.173566	-3.41179	0.000965464	0.00239079	-0.00439551	0.816406	-0.152588	0.783203	-0.392964	0.0408366	-0.914939	-0.0824489	-6.75572	1.47116	-6.72709	-0.00976546	0.0161684	-0.0312664	0.558105	-0.362305	1.05811	0.0650163	-0.016132	-0.996127	-0.0569502	1.14454	0.863373	-8.8781	-0.0127556	0.0109766	-0.00109027	-0.51709	-0.150879	0.963867	-0.00751931	0.230583	-0.886449	0.401228	1.64479	-7.02871	-6.68444	0.0150261	0.0152942	-0.0107565	-0.500732	0.687256	0.688477	0.0801952	0.212425	-0.97387	0.00469863	1.52595	0.236104	-9.73386	0.0321077	0.0144834	-0.0147283	-0.541748	-0.256592	0.953613	-0.110653	-0.144364	-0.585077	-0.790316	0.963621	9.8673	2.7503	-0.0134332	0.0111988	-0.00319786	-0.571045	-1.02319	0.0939941	-0.232031	0.0493187	-0.971207	0.0220688	-3.80526	-0.449017	-8.31876	-0.00420843	0.047931	-0.0317793	0.0825195	-0.0283203	1.07568	0.836552	-0.0846401	-0.511341	-0.177618	9.29308	0.438232	4.91576	0.0326278	0.0137232	-0.0123708	-0.851807	0.0263672	-0.704834	-0.0414109	-0.0323294	-0.987701	-0.147267	-0.652286	2.6606	-8.79788	0.00225174	0.00661061	-0.0199459	-0.299561	-0.278809	1.05029	0.825584	0.149392	-0.525315	0.141905	9.27677	1.01683	4.06385	-0.00318244	0.00500158	0.0049879	-0.792725	-0.314941	-0.681641	0.102516	-0.0279788	0.991088	0.0803216	-1.90501	1.36293	-9.43959	1.69434e-05	0.00842545	-0.00257428	-0.270264	-0.180908	1.12622	
6	-0.555149	0.00844314	-0.831708	0.000773463	-8.61203	-0.015135	-3.42146	0.00736869	-0.00668909	0.000804431	0.812012	-0.150635	0.782959	-0.393323	0.0408319	-0.914777	-0.0825425	-6.62625	1.41905	-6.70249	-0.00820276	-0.00396574	-0.0180923	0.5625	-0.360107	1.0603	0.0648839	-0.015892	-0.996215	-0.0556088	1.21857	0.985647	-8.57512	0.0574563	-0.00337864	-0.00928609	-0.510742	-0.151123	0.968262	-0.00744159	0.230694	-0.886459	0.401141	1.68734	-6.97281	-6.57662	-0.0152816	0.00409237	-0.00147159	-0.500732	0.685059	0.684082	0.0800743	0.212289	-0.973912	0.00418073	1.54588	0.262199	-9.5727	-0.0299952	-0.0027594	-0.0167741	-0.543945	-0.254395	0.94458	-0.110647	-0.144415	-0.584863	-0.790467	1.0187	9.75484	2.7544	-0.0169423	0.0118364	-0.00877561	-0.564209	-1.02979	0.0983887	-0.231157	0.0496887	-0.971397	0.0220177	-3.91325	-0.417145	-8.13738	0.00998065	0.0345147	-0.0273028	0.0847168	-0.0283203	1.08008	0.83646	-0.0847746	-0.511468	-0.177619	9.26494	0.423149	4.85386	-0.00453908	0.000381255	-0.0141088	-0.847656	0.032959	-0.700439	-0.0413135	-0.032107	-0.987706	-0.147308	-0.648705	2.66721	-8.76657	0.00178947	0.00816755	-0.0183366	-0.306641	-0.276611	1.05029	0.825546	0.149423	-0.525341	0.141997	9.26324	1.05077	4.07987	0.00754848	0.00802124	0.00775832	-0.790283	-0.319336	-0.683838	0.102368	-0.0280079	0.991123	0.0800685	-1.86836	1.35744	-9.42997	0.0123122	0.0119279	-0.00707378	-0.270508	-0.178711	1.12183	
7	-0.555255	0.0084866	-0.831636	0.000758802	-8.6099	-0.0476014	-3.44387	-0.00278384	-0.0114093	-0.00393165	0.813965	-0.148438	0.782959	-0.393258	0.0408815	-0.914807	-0.0824921	-6.64798	1.38147	-6.72421	-0.0033112	0.022627	-0.0218574	0.560303	-0.360107	1.0603	0.0649588	-0.0160009	-0.99618	-0.0561275	1.22523	0.935464	-8.70193	-0.0336857	0.00341187	0.00456897	-0.512695	-0.150879	0.968262	-0.00733195	0.23063	-0.886599	0.400872	1.6848	-6.97009	-6.6636	-0.0232827	0.0104422	0.00315504	-0.505127	0.685059	0.692871	0.0802675	0.212164	-0.973923	0.00421042	1.6645	0.114292	-9.61664	0.0107083	0.0175194	-0.00375257	-0.543945	-0.254395	0.948975	-0.11058	-0.14427	-0.584842	-0.790517	1.08943	9.79827	2.68845	-0.00337367	0.0201767	-0.0127865	-0.568359	-1.03418	0.092041	-0.231157	0.0496887	-0.971397	0.0220177	-3.91325	-0.417145	-8.13738	0.00998065	0.0345147	-0.0273028	0.0847168	-0.0283203	1.08008	0.836492	-0.084767	-0.511439	-0.177557	9.25064	0.426094	4.83016	0.0161828	0.0252847	-0.0148725	-0.849854	0.0351562	-0.705078	-0.0413444	-0.0321729	-0.987732	-0.147106	-0.660015	2.65511	-8.76092	0.0125354	0.0023543	-0.0195951	-0.309082	-0.274414	1.05005	0.825426	0.149382	-0.525472	0.142254	9.10468	0.968142	4.21555	-0.00386539	0.00947576	0.0113722	-0.792725	-0.314941	-0.681641	0.102284	-0.0280072	0.991143	0.0799296	-1.87919	1.3667	-9.4427	0.0127482	0.012554	-0.00611937	-0.268311	-0.178711	1.12402	
8	-0.555422	0.00847896	-0.831525	0.000864457	-8.58714	-0.0765001	-3.40554	0.00761644	-0.00832681	-0.00184659	0.812012	-0.150635	0.782959	-0.393288	0.0409434	-0.914773	-0.082694	-6.74878	1.38377	-6.73906	-0.0155141	0.00533953	-0.0176524	0.562256	-0.355713	1.0625	0.0648977	-0.0159098	-0.996227	-0.0553799	1.16083	0.993291	-8.75931	0.0416179	0.00646614	-0.00498283	-0.508545	-0.151123	0.966064	-0.00718494	0.230665	-0.88657	0.40092	1.62918	-6.98945	-6.60586	-0.00462728	0.0124448	-0.00340954	-0.505127	0.682861	0.692871	0.0803057	0.212083	-0.973937	0.00435201	1.46193	0.381192	-9.79535	-0.016988	0.0057343	-0.0134814	-0.543945	-0.256592	0.951416	-0.110442	-0.144301	-0.584944	-0.790455	1.00859	9.98891	2.82406	0.0100072	0.0120493	-0.0110607	-0.56665	-1.02319	0.100342	-0.230732	0.0501329	-0.971483	0.0216963	-3.85881	-0.450742	-8.30316	0.000359975	0.0355855	-0.0207753	0.0825195	-0.0305176	1.08643	0.836387	-0.0850249	-0.511551	-0.177604	9.33119	0.313221	4.86063	-0.00170796	-0.000458683	-0.0169764	-0.852051	0.032959	-0.702637	-0.0414075	-0.0322564	-0.987729	-0.147092	-0.648193	2.66065	-8.80367	0.00420869	0.00353902	-0.0185146	-0.297607	-0.271729	1.04126	0.825371	0.149282	-0.525601	0.142197	9.28541	1.00098	4.04399	0.000827346	0.0053735	0.00183234	-0.790283	-0.314941	-0.684082	0.102543	-0.0279662	0.991112	0.0799955	-1.90399	1.37738	-9.47348	-0.00745184	-0.0107528	-0.00361828	-0.272461	-0.183105	1.12622	
9	-0.555466	0.00847903	-0.831496	0.000950953	-8.59861	-0.0822542	-3.37622	0.000774416	-0.000279597	-0.00444572	0.814453	-0.154785	0.781006	-0.393291	0.0410099	-0.91476	-0.0827959	-6.6567	1.34287	-6.67443	-0.0111106	0.0123905	-0.0222943	0.564697	-0.360107	1.0625	0.065114	-0.0158756	-0.996222	-0.055228	1.20687	0.899052	-8.64152	0.0128253	0.00577577	-0.00262746	-0.512939	-0.148682	0.963623	-0.00691179	0.230505	-0.886604	0.40094	1.65917	-6.96825	-6.62788	-0.0068229	0.0161777	0.00242792	-0.502441	0.67627	0.690918	0.0804194	0.212029	-0.973941	0.00386393	1.62267	0.0725947	-9.50217	-0.00446518	0.0148657	-0.0105415	-0.545898	-0.256592	0.948975	-0.110414	-0.144354	-0.58489	-0.79049	0.938302	9.72724	2.73534	-0.00212583	0.0111839	-0.0102427	-0.568604	-1.02759	0.0961914	-0.230471	0.0502934	-0.97154	0.0215573	-3.85553	-0.410478	-8.22524	0.0119001	0.0123551	-0.0198072	0.0805664	-0.034668	1.08228	0.836282	-0.0849466	-0.511754	-0.177554	9.28877	0.443093	4.83987	0.00407437	0.0184823	-0.0205108	-0.856201	0.0285645	-0.697998	-0.0413511	-0.0322785	-0.987666	-0.147528	-0.652167	2.65473	-8.77204	-0.0111193	0.00864066	-0.0174865	-0.302002	-0.278809	1.04565	0.825324	0.149285	-0.525653	0.14228	9.26551	0.986888	4.07483	-0.0117419	0.0123407	0.00647131	-0.790283	-0.314941	-0.686279	0.10252	-0.0279415	0.991111	0.080051	-1.90759	1.36868	-9.4308	0.00134713	0.0142129	-0.00549957	-0.265869	-0.178711	1.11938	
10	-0.555544	0.00846981	-0.831443	0.00120242	-8.65729	-0.0762092	-3.44559	0.0130716	-0.00707374	-0.00689441	0.812256	-0.156982	0.7854	-0.393248	0.0410468	-0.914772	-0.0828482	-6.62836	1.38009	-6.72825	-0.0104437	0.0151068	-0.0221603	0.560303	-0.35791	1.0603	0.0651222	-0.0159162	-0.996237	-0.0549272	1.23054	0.942755	-8.77998	0.0248113	0.00417724	-0.00330874	-0.510498	-0.153076	0.963867	-0.00679399	0.230511	-0.886539	0.401083	1.69355	-7.03353	-6.6936	0.0127344	0.0142387	1.62664e-05	-0.505127	0.682861	0.681885	0.0803963	0.211837	-0.973982	0.00452078	1.51798	0.479202	-9.7042	0.0266016	0.00545579	-0.00496961	-0.543945	-0.256592	0.94458	-0.110311	-0.143877	-0.58477	-0.79068	1.03835	9.90782	2.70485	-0.0204635	0.0157121	-0.0100878	-0.570801	-1.02759	0.092041	-0.23035	0.0503357	-0.971568	0.0214606	-3.83762	-0.432682	-8.21895	0.0204663	0.0143003	-0.0144523	0.0803223	-0.0283203	1.08423	0.836119	-0.0851784	-0.51195	-0.177645	9.24586	0.403201	4.87796	-0.00450043	-0.00346466	-0.0157092	-0.850098	0.0393066	-0.705078	-0.0413562	-0.0323649	-0.987631	-0.147738	-0.641696	2.67491	-8.76833	-0.00177248	0.00363037	-0.0180108	-0.297119	-0.281006	1.0481	0.825244	0.149168	-0.525835	0.142192	9.14952	1.00459	4.10557	0.00839776	-0.00105293	0.00148088	-0.790283	-0.317139	-0.681641	0.102401	-0.0279688	0.991115	0.0801428	-1.87208	1.3692	-9.46536	-0.00444657	0.00365311	-0.00526587	-0.270508	-0.176514	1.11938	
11	-0.555622	0.00837377	-0.831392	0.00129323	-8.61071	-0.144466	-3.40969	0.0115057	-0.0088333	0.000248652	0.814209	-0.150391	0.778809	-0.39301	0.0411313	-0.914859	-0.0829776	-6.70795	1.43864	-6.69856	-0.0168814	0.0214196	-0.0169328	0.560303	-0.362305	1.05566	0.0652381	-0.0159333	-0.996252	-0.0545163	1.14539	0.87737	-8.67626	0.0177192	0.00676361	-0.00483585	-0.51709	-0.148682	0.968262	-0.00668148	0.230468	-0.886483	0.401233	1.62829	-6.9726	-6.609	0.000632609	0.00823264	-0.00418731	-0.505127	0.685059	0.688477	0.0805925	0.211734	-0.973994	0.00309024	1.58236	-0.0525327	-9.53528	-0.0534802	0.0082332	-0.011815	-0.539551	-0.256592	0.94458	-0.110357	-0.144082	-0.584526	-0.790817	0.995397	9.56346	2.72079	0.00128197	0.0134972	-0.0129372	-0.568604	-1.03198	0.092041	-0.230122	0.0504561	-0.971616	0.021479	-3.86777	-0.345126	-8.30704	0.0196622	0.0191448	-0.0233377	0.0803223	-0.026123	1.08423	0.835933	-0.0854813	-0.512193	-0.177672	9.31872	0.323376	4.83744	-0.00372798	0.00164642	-0.0168314	-0.856445	0.0349121	-0.700439	-0.0414638	-0.0323995	-0.987646	-0.147604	-0.643626	2.67228	-8.80601	0.0150358	0.00183759	-0.0199679	-0.299316	-0.283203	1.0459	0.825221	0.149172	-0.525842	0.142299	9.2633	0.970201	4.06242	0.00914577	0.00914871	0.00787481	-0.792725	-0.314941	-0.686279	0.102537	-0.0278825	0.991094	0.080263	-1.90822	1.37845	-9.4482	0.000106428	0.00444122	-0.00383152	-0.267822	-0.1875	1.12183	
12	-0.555726	0.00844761	-0.831321	0.00152214	-8.61959	-0.124894	-3.42367	-0.000893659	-0.0020031	-0.00672944	0.812012	-0.150391	0.778809	-0.392829	0.0411326	-0.914905	-0.0833208	-6.68766	1.35724	-6.73715	-0.0201622	0.0208824	-0.0130872	0.560303	-0.360107	1.0603	0.0652824	-0.0161043	-0.996252	-0.0544095	1.22794	1.00033	-8.63115	0.0100324	0.00617615	0.0106588	-0.514893	-0.150879	0.966064	-0.00671646	0.230531	-0.886539	0.401072	1.70475	-7.12974	-6.65316	0.00316011	0.00554804	-0.00335449	-0.505127	0.682861	0.692871	0.0806257	0.211771	-0.973981	0.00358919	1.55651	0.22352	-9.6676	0.0375613	0.0178115	-0.0139381	-0.546143	-0.252197	0.948975	-0.110248	-0.144033	-0.584335	-0.790982	1.03228	9.91743	2.83971	-0.0082537	0.0137801	-0.0113509	-0.575195	-1.02759	0.0942383	-0.230177	0.0506717	-0.971594	0.0213438	-3.8657	-0.40601	-8.27151	0.0144082	0.00164886	-0.0229365	0.0827637	-0.0327148	1.08862	0.835994	-0.0852045	-0.512231	-0.177409	9.29699	0.432297	4.87249	0.00729881	0.0145738	-0.0149497	-0.845459	0.0307617	-0.705078	-0.0414213	-0.0324306	-0.987672	-0.147433	-0.648495	2.65692	-8.77717	0.0141739	0.00816753	-0.0182829	-0.304443	-0.27417	1.04346	0.825113	0.149212	-0.525946	0.142497	9.22448	0.942635	4.08488	0.00970302	0.0088674	0.0108075	-0.786133	-0.30835	-0.679688	0.10241	-0.02796	0.991119	0.0800895	-1.90702	1.37818	-9.45796	0.00352356	0.00975921	-0.00732443	-0.2771	-0.180908	1.12402	
13	-0.555785	0.00833674	-0.831282	0.0016504	-8.61687	-0.0672103	-3.40608	0.00981878	-0.00523222	-0.00136868	0.813965	-0.14624	0.782959	-0.392917	0.0411943	-0.914867	-0.0832964	-6.65282	1.40601	-6.69416	-0.00237129	0.00427679	-0.0234882	0.5625	-0.362305	1.0603	0.0652623	-0.0162432	-0.996231	-0.054778	1.20363	0.957176	-8.73732	0.000237761	0.00676797	-0.00457632	-0.510498	-0.153076	0.966064	-0.00662946	0.230467	-0.886495	0.401207	1.6831	-6.98596	-6.65596	0.0106098	0.0167822	0.00133805	-0.50293	0.682861	0.688477	0.0806788	0.211726	-0.973987	0.00339238	1.55656	0.196622	-9.64863	-0.0286574	0.00157179	-0.0140046	-0.541748	-0.254395	0.942139	-0.11024	-0.143987	-0.58429	-0.791025	1.03939	9.65376	2.74034	0.00411536	0.0171663	-0.0149493	-0.570801	-1.02759	0.100586	-0.229847	0.0508087	-0.971664	0.0214072	-3.80107	-0.435991	-8.29073	0.0232642	0.0401533	-0.0221823	0.078125	-0.0283203	1.08643	0.836059	-0.0851838	-0.512186	-0.177238	9.26528	0.314127	4.89735	0.00546719	0.0109253	-0.0112098	-0.854248	0.0371094	-0.702637	-0.0414039	-0.0325162	-0.987686	-0.147323	-0.651449	2.66751	-8.77827	0.0125063	0.00388812	-0.0163385	-0.299805	-0.276367	1.04565	0.82503	0.149345	-0.526009	0.142603	9.20396	0.953739	4.08059	0.015734	0.00499326	0.0031054	-0.790283	-0.314941	-0.686279	0.102442	-0.0279736	0.991109	0.0801595	-1.88745	1.36829	-9.42333	0.000871083	0.00174325	-0.00546021	-0.270508	-0.178711	1.12183	
14	-0.555838	0.00836219	-0.831247	0.00171354	-8.61124	-0.0410159	-3.41284	0.00324193	-0.0061559	-0.0057279	0.816162	-0.148193	0.778809	-0.392905	0.0411557	-0.914878	-0.0832502	-6.59746	1.3698	-6.62041	-0.00302312	0.0136464	-0.0186444	0.564697	-0.362305	1.0603	0.065297	-0.0161311	-0.996286	-0.053756	1.23806	0.914706	-8.65734	0.0531326	0.00519473	-0.00657397	-0.510742	-0.150879	0.966064	-0.00662946	0.230467	-0.886495	0.401207	1.6831	-6.98596	-6.65596	0.0106098	0.0167822	0.00133805	-0.50293	0.682861	0.688477	0.0806752	0.211674	-0.973999	0.00346617	1.56504	0.33524	-9.56646	0.0103149	0.00973198	-0.0116601	-0.539551	-0.256592	0.946777	-0.110216	-0.143996	-0.584263	-0.791047	1.05116	9.81632	2.82969	-0.000545897	0.0129249	-0.0133705	-0.575195	-1.02759	0.0983887	-0.229847	0.0508087	-0.971664	0.0214072	-3.80107	-0.435991	-8.29073	0.0232642	0.0401533	-0.0221823	0.078125	-0.0283203	1.08643	0.835962	-0.0851124	-0.512404	-0.177103	9.26182	0.396541	4.86704	0.0175362	-0.00381745	-0.0146782	-0.852051	0.032959	-0.702637	-0.0414039	-0.0325162	-0.987686	-0.147323	-0.651449	2.66751	-8.77827	0.0125063	0.00388812	-0.0163385	-0.299805	-0.276367	1.04565	0.824981	0.149398	-0.526057	0.142657	9.19896	1.03182	4.13147	0.00728647	0.0045673	0.00483977	-0.794922	-0.314941	-0.681641	0.102442	-0.0279736	0.991109	0.0801595	-1.88745	1.36829	-9.42333	0.000871083	0.00174325	-0.00546021	-0.270508	-0.178711	1.12183	
15	-0.555989	0.00863947	-0.831143	0.00175509	-8.60185	-0.101198	-3.41677	-0.00433601	-0.010103	-0.0122909	0.816162	-0.144043	0.780762	-0.393055	0.0409793	-0.914822	-0.0832391	-6.6434	1.41647	-6.75403	0.000299255	-0.000851395	-0.0145901	0.560303	-0.35791	1.0603	0.0651663	-0.0163483	-0.996257	-0.0543809	1.18314	0.881972	-8.63399	-0.0421415	-0.00575899	0.0110189	-0.515137	-0.146484	0.963623	-0.00665569	0.230397	-0.886499	0.40124	1.63117	-7.01311	-6.61819	-0.00381803	-0.00350518	0.00154193	-0.50293	0.685059	0.688477	0.0806583	0.211619	-0.974013	0.00310035	1.53234	0.197006	-9.60044	-0.0148062	0.00275414	-0.0152706	-0.546143	-0.254395	0.948975	-0.11018	-0.143949	-0.58406	-0.79121	1.03819	9.66235	2.73591	0.00184015	0.0229805	-0.0151251	-0.568604	-1.02979	0.0964355	-0.229629	0.0506556	-0.971699	0.0224832	-3.84711	-0.360482	-8.23662	0.0411198	-0.00843183	-0.00319478	0.0803223	-0.0283203	1.08008	0.835969	-0.0852084	-0.512309	-0.1773	9.27312	0.386948	4.838	0.00516736	0.0337558	-0.0225196	-0.854248	0.0349121	-0.702637	-0.0414644	-0.0322822	-0.9877	-0.147264	-0.653899	2.64947	-8.76472	0.00594913	0.00341995	-0.0213561	-0.302002	-0.276611	1.05029	0.825029	0.149166	-0.526075	0.142555	9.22466	0.980936	4.04835	-0.0141536	0.00889268	0.00202307	-0.797363	-0.30835	-0.681885	0.102452	-0.0279915	0.991114	0.080085	-1.90795	1.37493	-9.44612	0.00648794	0.00732566	-0.00381182	-0.263428	-0.183105	1.11963	
16	-0.555992	0.00878985	-0.831139	0.00176452	-8.63136	-0.130401	-3.384	-0.00550255	0.00211489	-0.00465652	0.818604	-0.150391	0.776611	-0.393384	0.0408971	-0.914711	-0.0829444	-6.90879	1.43012	-6.8031	0.0113267	-0.00739146	-0.0236036	0.56665	-0.355713	1.06006	0.0651725	-0.0165739	-0.996198	-0.055383	1.139	0.876469	-8.77624	-0.0352064	0.00209055	0.00147329	-0.512695	-0.153076	0.963867	-0.00671279	0.230339	-0.886559	0.401138	1.67563	-6.98958	-6.58005	-0.00544464	0.00184019	0.00669207	-0.502686	0.682861	0.684082	0.0804886	0.211629	-0.974024	0.00332231	1.52098	0.262099	-9.62427	-0.000344704	0.000189406	-0.0125481	-0.537354	-0.252197	0.946777	-0.110332	-0.143869	-0.584064	-0.7912	0.970438	9.69718	2.78086	0.00137731	0.0109765	-0.02309	-0.566406	-1.02979	0.0942383	-0.229808	0.050285	-0.971673	0.0226268	-3.79961	-0.414365	-8.3984	0.0226218	0.00817228	-0.00742826	0.0761719	-0.0327148	1.07812	0.835934	-0.0852522	-0.512381	-0.177236	9.32704	0.442432	4.86327	-0.00790292	-0.00192722	-0.0145417	-0.854248	0.0371094	-0.700439	-0.0415098	-0.0323242	-0.987699	-0.147247	-0.640802	2.66257	-8.7777	0.00839859	0.00162174	-0.0181704	-0.302002	-0.27417	1.04785	0.82497	0.149303	-0.526084	0.142718	9.26348	1.0114	4.06357	0.0140294	0.0124611	0.00426684	-0.790283	-0.314941	-0.681641	0.102471	-0.0280019	0.991122	0.0799597	-1.90443	1.36238	-9.41757	0.00850357	0.00631878	-0.00633378	-0.265625	-0.185303	1.11719	
17	-0.555877	0.00884362	-0.831216	0.00171513	-8.64456	-0.100845	-3.44719	-0.0057095	0.00276084	-0.00248271	0.807129	-0.144043	0.778564	-0.393876	0.0406958	-0.914525	-0.082768	-6.41815	1.3223	-6.61004	-0.0024268	0.00996335	-0.0164249	0.564697	-0.360107	1.05566	0.0648763	-0.0167672	-0.996186	-0.0558904	1.18647	1.01225	-8.63402	-0.0257448	-0.0036275	-2.41448e-05	-0.512695	-0.148682	0.970459	-0.00687375	0.230168	-0.886624	0.401091	1.65979	-7.01674	-6.67322	0.000122799	-0.00486369	0.00066095	-0.50293	0.682861	0.692871	0.0804022	0.211691	-0.974017	0.00368129	1.62636	0.325257	-9.67734	0.0349171	0.00581099	-0.0130051	-0.545898	-0.256592	0.948975	-0.110343	-0.143767	-0.584261	-0.791072	1.10554	9.91497	2.8075	-0.00908743	0.0125904	-0.015688	-0.572998	-1.02979	0.0876465	-0.230178	0.0501816	-0.971587	0.022779	-3.91929	-0.433476	-8.03504	0.0353428	-0.0324648	-0.0133825	0.0825195	-0.026123	1.08423	0.835997	-0.0852666	-0.512258	-0.177287	9.28683	0.33122	4.89291	0.0146654	0.0206346	-0.019087	-0.8479	0.0371094	-0.702637	-0.0414343	-0.0322323	-0.987669	-0.147496	-0.641143	2.65657	-8.80707	-0.0095913	0.00900961	-0.0161178	-0.302002	-0.278809	1.04346	0.82502	0.149254	-0.526015	0.142734	9.18903	0.952987	4.09882	0.00542202	0.0157849	0.00434143	-0.794678	-0.319336	-0.683838	0.102322	-0.0280255	0.991142	0.0798937	-1.89716	1.36089	-9.47667	0.00336388	0.0114159	-0.00603506	-0.268311	-0.178711	1.11938	
18	-0.556063	0.00903965	-0.83109	0.00155272	-8.59196	-0.0866108	-3.35436	-0.00950061	-0.00835099	-0.00639583	0.807617	-0.150635	0.781006	-0.393812	0.0409047	-0.914575	-0.0824069	-6.87956	1.44263	-6.72406	3.39558e-05	0.00350366	-0.0331903	0.560059	-0.355957	1.05542	0.0647199	-0.0169451	-0.996181	-0.0561088	1.28115	1.01122	-8.60097	-0.0166276	-0.00897873	0.009124	-0.512695	-0.150879	0.961426	-0.00713105	0.230027	-0.886752	0.400884	1.6333	-6.94304	-6.58101	-0.01786	-0.00228965	0.00817741	-0.498535	0.685059	0.690674	0.0804255	0.211764	-0.974001	0.00312517	1.54377	0.168885	-9.58147	-0.0216396	0.00722439	-0.0223391	-0.541748	-0.256592	0.948975	-0.110485	-0.143603	-0.584364	-0.791006	1.00707	9.62897	2.74326	0.0139231	0.0161851	-0.024681	-0.566162	-1.03418	0.0942383	-0.231128	0.0497853	-0.97138	0.0228644	-3.79947	-0.439895	-8.34047	0.0192124	-0.00792401	-0.000626747	0.0825195	-0.0283203	1.07788	0.836043	-0.0854428	-0.512167	-0.177244	9.19968	0.379432	4.92059	0.00119936	0.0210216	-0.0126775	-0.851807	0.0263672	-0.709473	-0.0414432	-0.0322673	-0.987645	-0.14764	-0.644971	2.65428	-8.74678	-0.00413961	0.00468435	-0.0174273	-0.309082	-0.276611	1.05249	0.825099	0.149339	-0.525843	0.142828	9.17927	0.952298	4.12211	0.00401223	0.0170034	0.000910082	-0.788086	-0.314941	-0.684082	0.102456	-0.0280292	0.991146	0.0796685	-1.88774	1.37001	-9.41563	0.0129308	-0.00204313	-0.00802129	-0.267822	-0.185303	1.12183	
19	-0.555965	0.00924282	-0.831153	0.00137086	-8.59681	-0.137985	-3.40177	-0.0108323	0.00621017	-0.00393521	0.814209	-0.150635	0.783203	-0.39408	0.0406928	-0.914464	-0.0824657	-6.66024	1.37247	-6.69342	-0.00741576	0.00735605	-0.0121489	0.564697	-0.360107	1.05566	0.064598	-0.0172805	-0.996088	-0.0577631	1.11231	0.968031	-8.75818	-0.0203707	-0.00248555	0.0071873	-0.512695	-0.155273	0.966064	-0.0072097	0.230096	-0.886867	0.400589	1.69224	-7.04451	-6.63744	-0.0205349	-0.0067221	-0.000507731	-0.504883	0.680664	0.688477	0.0803891	0.21199	-0.973952	0.00381428	1.47268	0.316176	-9.68759	0.016758	0.010409	-0.0218299	-0.541504	-0.258789	0.948975	-0.110539	-0.143457	-0.584587	-0.79086	0.933625	9.88932	2.7788	0.00589473	0.0137017	-0.0218811	-0.568604	-1.02759	0.0939941	-0.231687	0.0495883	-0.971257	0.0228278	-3.91256	-0.468541	-8.22263	0.0271229	-0.0285199	-0.00683397	0.0866699	-0.026123	1.07788	0.836135	-0.0855116	-0.512023	-0.177197	9.38288	0.421335	4.74834	0.00190249	0.0228524	-0.0140061	-0.849854	0.0351562	-0.702637	-0.0414981	-0.0320993	-0.987621	-0.147823	-0.664017	2.66775	-8.78567	-0.0162095	0.00724736	-0.0175688	-0.306641	-0.278809	1.04346	0.825161	0.149255	-0.52574	0.142934	9.30955	1.0613	4.07872	-0.00278109	0.014058	0.00836488	-0.797363	-0.306152	-0.684082	0.102335	-0.0281191	0.991185	0.0793029	-1.91004	1.37593	-9.44767	0.0248944	0.0160797	-0.0128767	-0.272705	-0.178711	1.12183	
20	-0.555825	0.00919818	-0.831247	0.00131248	-8.62029	-0.105696	-3.40937	0.00335958	0.00645488	0.00099137	0.814209	-0.152588	0.778809	-0.394157	0.0407242	-0.914436	-0.0823966	-6.69974	1.33326	-6.74105	-0.0036341	0.00658117	-0.0253692	0.571289	-0.362305	1.05786	0.0645659	-0.0173145	-0.996083	-0.0578844	1.19902	1.06057	-8.7287	-0.00746918	0.00124942	-0.00152317	-0.512695	-0.155273	0.968506	-0.00738708	0.229944	-0.886939	0.400513	1.61856	-6.99567	-6.66089	0.00447895	0.00621725	0.00871038	-0.498291	0.682861	0.688477	0.0803975	0.212062	-0.973936	0.00378955	1.54962	0.143595	-9.64124	-0.00235313	0.00705317	-0.0195974	-0.546143	-0.252197	0.94458	-0.110591	-0.143313	-0.584597	-0.790871	1.02964	9.81496	2.7604	0.0105313	0.0177918	-0.0225179	-0.568604	-1.02979	0.0964355	-0.232901	0.0493511	-0.970983	0.02266	-3.9076	-0.380601	-8.20675	0.0138285	-0.0439362	-0.00499679	0.0847168	-0.0283203	1.08008	0.836309	-0.0854089	-0.511814	-0.177028	9.24825	0.356981	4.92606	0.0119922	0.0259271	-0.0124333	-0.8479	0.0393066	-0.702881	-0.0413293	-0.0322346	-0.987579	-0.148122	-0.638803	2.68716	-8.77107	0.00360673	0.0125089	-0.0132012	-0.304199	-0.278809	1.04565	0.825176	0.149192	-0.525713	0.143012	9.15027	0.956221	4.12003	0.00550194	0.0134803	0.00438996	-0.78833	-0.312744	-0.686279	0.101942	-0.0282608	0.991248	0.0789725	-1.8853	1.3416	-9.44598	0.00546126	0.0207845	-0.00938602	-0.263916	-0.174316	1.12158	
21	-0.55572	0.00916145	-0.831318	0.0012848	-8.62109	-0.0753804	-3.43972	-0.00307509	0.00287058	-0.00149393	0.809814	-0.150635	0.778809	-0.394196	0.0407917	-0.914431	-0.0822264	-6.74815	1.48566	-6.77359	-0.00283708	0.012874	-0.0222221	0.564453	-0.35791	1.05786	0.0645567	-0.0172572	-0.996077	-0.0580023	1.18603	1.10975	-8.71019	-0.00676914	0.00357324	-0.00857867	-0.514893	-0.153076	0.9729	-0.0075805	0.229996	-0.886893	0.400582	1.72795	-7.04997	-6.57791	0.0161072	-0.00316433	-0.00303091	-0.50293	0.682861	0.692871	0.0803136	0.212229	-0.973907	0.00362808	1.61275	0.419275	-9.65579	-0.0177988	-0.00201258	-0.0257478	-0.548096	-0.260986	0.942139	-0.110898	-0.143516	-0.584081	-0.791173	1.0688	9.71982	2.791	-0.0314656	-0.00315356	-0.0146748	-0.564209	-1.02979	0.0898438	-0.234032	0.0490148	-0.970726	0.0227326	-3.85915	-0.403202	-8.23763	0.0362486	-0.0256386	-0.00349651	0.0866699	-0.0239258	1.07983	0.836191	-0.0856231	-0.511987	-0.176984	9.2207	0.348038	4.93021	-0.00757471	-0.00320999	-0.013183	-0.852295	0.0393066	-0.700439	-0.0413047	-0.0323125	-0.987568	-0.148186	-0.637565	2.68595	-8.80853	0.00246582	0.00469992	-0.0185989	-0.304199	-0.278809	1.03906	0.825188	0.149204	-0.525683	0.143039	9.18421	0.971231	4.14647	-0.00216641	0.0127257	0.00346344	-0.788086	-0.314941	-0.688477	0.101923	-0.0281927	0.991248	0.0790266	-1.87846	1.36991	-9.46753	0.00574001	0.00194316	-0.0014046	-0.272705	-0.176514	1.11719	
22	-0.55582	0.0092134	-0.831251	0.00131461	-8.56959	-0.118951	-3.38845	0.000277056	-0.00695147	-0.00332424	0.812012	-0.150391	0.778809	-0.394085	0.0407918	-0.914471	-0.0823148	-6.6618	1.3082	-6.72896	-0.00893735	0.0155936	-0.015417	0.569092	-0.362305	1.05786	0.0643948	-0.0172318	-0.996088	-0.058001	1.24101	1.04816	-8.63336	0.0213393	-0.00284639	-0.00332097	-0.508301	-0.157471	0.96167	-0.00771554	0.229861	-0.886845	0.400762	1.64877	-6.91287	-6.61224	0.00994711	0.00193033	0.0063552	-0.498291	0.680664	0.686279	0.0804342	0.21225	-0.973894	0.00328896	1.60931	0.101564	-9.57598	0.0101152	0.0116149	-0.0133506	-0.546143	-0.254395	0.948975	-0.110822	-0.143314	-0.584389	-0.790993	1.07316	9.80764	2.83515	0.0301985	0.031244	-0.0244371	-0.566406	-1.02979	0.0942383	-0.235272	0.048719	-0.970444	0.0226157	-3.93302	-0.425644	-8.29766	0.021752	-0.0468555	-0.00307656	0.0910645	-0.026123	1.08203	0.836142	-0.0856481	-0.512073	-0.176952	9.2454	0.421734	4.82568	0.00558587	0.00638544	-0.0160189	-0.852051	0.0327148	-0.697998	-0.0413681	-0.032337	-0.987552	-0.14827	-0.64232	2.68792	-8.7563	0.000532243	0.000142771	-0.0194157	-0.295166	-0.27417	1.04346	0.825202	0.149185	-0.525658	0.143074	9.21072	0.969668	4.06315	0.00179066	0.0124503	0.00507879	-0.790527	-0.312744	-0.684082	0.102026	-0.028189	0.99125	0.0788696	-1.90026	1.34473	-9.42516	0.0084473	0.00399194	-0.00628929	-0.268311	-0.176514	1.12158	
23	-0.555847	0.00923513	-0.831232	0.00132963	-8.59897	-0.0643556	-3.37338	-0.000791167	-0.00366528	-0.0043821	0.813965	-0.148193	0.778809	-0.394005	0.040731	-0.914507	-0.0823315	-6.74557	1.43005	-6.74116	-0.00539238	0.00998289	-0.0211253	0.5625	-0.360107	1.06494	0.0643542	-0.0173547	-0.996075	-0.0582391	1.19746	0.937126	-8.74918	-0.0291544	-0.00391755	0.00413624	-0.506348	-0.155518	0.966064	-0.00780163	0.229928	-0.886838	0.400739	1.65737	-7.05572	-6.67564	0.00296561	-0.00282207	-0.00235232	-0.505127	0.682861	0.690674	0.0803697	0.21233	-0.97388	0.00371176	1.49093	0.330254	-9.71293	0.0331275	0.00845291	-0.0175369	-0.541504	-0.258789	0.946777	-0.110895	-0.143309	-0.583847	-0.791384	1.01253	9.91447	2.75084	-0.0347634	0.00702798	-0.0105492	-0.568604	-1.02759	0.0898438	-0.23594	0.0485571	-0.97029	0.0226441	-3.93599	-0.42257	-8.24628	0.0278831	-0.0443358	-0.00369005	0.0932617	-0.026123	1.08203	0.836101	-0.0858686	-0.512074	-0.177038	9.33973	0.314195	4.87101	-0.0115361	0.010247	-0.0196765	-0.849854	0.0351562	-0.705078	-0.0414047	-0.0321683	-0.987584	-0.148082	-0.644374	2.67205	-8.7929	0.0106694	0.00243736	-0.0173705	-0.301758	-0.283447	1.0481	0.825236	0.14918	-0.52559	0.143131	9.21856	0.959861	4.08011	0.00552796	0.00716673	0.003061	-0.786133	-0.312744	-0.684082	0.102056	-0.0282086	0.991255	0.0787552	-1.89095	1.33531	-9.46679	0.0109	0.00361255	-0.00785256	-0.275146	-0.176514	1.11475	
24	-0.555915	0.00934045	-0.831186	0.00129573	-8.61644	-0.154913	-3.42973	-0.00432239	-0.00846501	-0.00522635	0.818359	-0.148193	0.778809	-0.394063	0.0406526	-0.914485	-0.0823325	-6.71999	1.36124	-6.79192	4.4499e-05	0.00587046	-0.0141431	0.564453	-0.35791	1.05786	0.0641461	-0.0172518	-0.996109	-0.0579226	1.20472	1.09425	-8.74444	0.0265725	-0.00269495	-0.00428772	-0.510498	-0.164062	0.966309	-0.00791114	0.229898	-0.886722	0.40101	1.64318	-6.95955	-6.71528	0.0133637	0.00619452	0.00223485	-0.498535	0.687256	0.688477	0.0803833	0.2125	-0.973844	0.00326204	1.5724	0.115014	-9.64659	0.017279	0.00621723	-0.0134339	-0.541504	-0.260986	0.946777	-0.111013	-0.143174	-0.583961	-0.791307	1.03058	9.7907	2.77905	0.00992666	0.0113441	-0.0218439	-0.570557	-1.03198	0.092041	-0.237143	0.0483133	-0.970009	0.022597	-3.92469	-0.433816	-8.23309	0.0211164	-0.0285109	-0.00730485	0.0976562	-0.0283203	1.08423	0.836107	-0.0856962	-0.51213	-0.176929	9.24335	0.381756	4.87448	0.0145044	0.0109497	-0.0178205	-0.851807	0.0307617	-0.700195	-0.0414244	-0.0322283	-0.987554	-0.148266	-0.635729	2.68417	-8.76838	-0.00290045	0.00440507	-0.0176102	-0.304199	-0.281006	1.0481	0.825249	0.149062	-0.525617	0.14308	9.22348	0.982996	4.06877	-0.0111101	0.0157559	0.00208143	-0.792969	-0.30835	-0.688721	0.102182	-0.0281946	0.991244	0.0787294	-1.88498	1.34748	-9.44995	0.00155127	0.00123663	-0.00384405	-0.272705	-0.176514	1.12158	
25	-0.55602	0.00922033	-0.831116	0.00134166	-8.58548	-0.0600798	-3.3834	0.00383749	-0.00383958	0.00237195	0.81665	-0.154785	0.778809	-0.394062	0.040647	-0.914497	-0.0822067	-6.66978	1.39099	-6.65884	-0.00597823	0.0154274	-0.0218809	0.56665	-0.35791	1.05542	0.0641078	-0.0172894	-0.996114	-0.0578656	1.14894	0.944004	-8.68458	0.0213957	-0.00410828	-0.000412623	-0.510498	-0.157471	0.968506	-0.00814178	0.23003	-0.88653	0.401354	1.62329	-7.03977	-6.54855	0.0210117	-0.000617672	-0.00678611	-0.500732	0.687256	0.690674	0.0803684	0.21241	-0.973864	0.00333806	1.54816	0.258525	-9.57098	-0.00924813	0.00789071	-0.0103643	-0.541504	-0.260986	0.942139	-0.110997	-0.142957	-0.583934	-0.791369	1.03918	9.68626	2.80078	0.0121641	0.0279716	-0.022731	-0.568604	-1.02759	0.0939941	-0.237505	0.0481956	-0.969926	0.0226072	-3.97066	-0.391154	-8.19266	0.0245405	-0.0191658	-0.00728825	0.0952148	-0.0239258	1.07788	0.83615	-0.0856642	-0.512121	-0.176768	9.2959	0.351242	4.8313	0.0130357	0.017911	-0.00944469	-0.854248	0.0371094	-0.697998	-0.0415458	-0.0322608	-0.987554	-0.148221	-0.655086	2.68421	-8.79248	0.0118564	0.000377803	-0.0208761	-0.308838	-0.278809	1.05029	0.825168	0.149192	-0.525659	0.143253	9.24319	0.940607	4.09264	0.0211512	0.00494815	0.00495867	-0.792725	-0.312744	-0.684082	0.102329	-0.0281619	0.991239	0.078624	-1.88522	1.34443	-9.45034	0.00541766	-0.000893896	-0.00559773	-0.268311	-0.176514	1.11938	
26	-0.55598	0.00937681	-0.831142	0.00118921	-8.63592	-0.113198	-3.41386	-0.00928733	0.00096013	-0.00440148	0.816406	-0.150391	0.778809	-0.39399	0.0408396	-0.914528	-0.0821148	-6.79904	1.35732	-6.74462	-0.00365536	0.0103385	-0.0183456	0.564453	-0.355713	1.05786	0.0640873	-0.0173067	-0.996099	-0.0581353	1.14059	1.03873	-8.76448	-0.0308824	0.00223545	0.00261851	-0.510498	-0.157471	0.970703	-0.00825011	0.229994	-0.886613	0.401187	1.6044	-7.0161	-6.65257	-0.00291852	0.000388776	0.00401932	-0.500488	0.678467	0.690674	0.0803619	0.212434	-0.973859	0.00353192	1.49569	0.296083	-9.6956	0.00136523	0.00292548	-0.0140905	-0.543945	-0.254395	0.948975	-0.111011	-0.143078	-0.583978	-0.791312	0.957802	9.77072	2.73079	-0.00733868	0.0047252	-0.0114864	-0.568604	-1.02759	0.0939941	-0.238771	0.0481457	-0.969613	0.0228368	-3.97993	-0.466023	-8.38647	0.0252767	-0.0117696	-0.0156797	0.0974121	-0.026123	1.08203	0.83595	-0.0862445	-0.51228	-0.176969	9.34381	0.387111	4.82342	-0.0247542	-0.000608068	-0.0144273	-0.8479	0.0371094	-0.702637	-0.0415986	-0.0323355	-0.987527	-0.148376	-0.6525	2.68239	-8.77996	-8.3872e-05	0.00478799	-0.0170185	-0.304199	-0.278809	1.04346	0.825281	0.149012	-0.525525	0.143282	9.25721	0.94212	4.11308	-0.00135293	0.0141899	0.00620624	-0.792725	-0.312744	-0.690918	0.102361	-0.0281485	0.991251	0.0784331	-1.90274	1.34465	-9.46522	0.0116881	0.00255673	-0.00590313	-0.268311	-0.174316	1.12622	
27	-0.55587	0.00926281	-0.831217	0.0012402	-8.60635	-0.104145	-3.42044	0.00639343	0.00457714	0.00296081	0.814209	-0.150391	0.778809	-0.394117	0.0408105	-0.914472	-0.0821416	-6.70239	1.41807	-6.68572	-0.0160836	-0.00058541	-0.0161459	0.562744	-0.364502	1.05566	0.0641755	-0.0172849	-0.996118	-0.0577242	1.19687	1.09909	-8.68296	0.0464142	0.00309392	-0.00467306	-0.510498	-0.153076	0.966064	-0.00832387	0.230155	-0.886547	0.401239	1.60353	-7.0454	-6.66306	0.0104446	-0.00356595	-0.0101936	-0.50293	0.682861	0.690674	0.0804531	0.212512	-0.973834	0.0037187	1.49773	0.24634	-9.65218	0.011534	0.0127717	-0.0121853	-0.541748	-0.254395	0.948975	-0.110851	-0.143072	-0.584158	-0.791203	0.976123	9.87819	2.78997	0.0124509	0.0237204	-0.00993278	-0.575195	-1.02539	0.0939941	-0.238822	0.0482616	-0.969599	0.0226423	-3.9589	-0.445451	-8.09143	0.0080034	0.0234461	-0.0197798	0.0996094	-0.0239258	1.07983	0.836244	-0.0858235	-0.511992	-0.176619	9.30159	0.427018	4.8302	0.0240694	0.0315315	-0.0113158	-0.849854	0.0307617	-0.705078	-0.0415042	-0.0324199	-0.987535	-0.148326	-0.642145	2.69317	-8.80675	0.00768205	0.00958638	-0.0192493	-0.302002	-0.278809	1.04565	0.825274	0.149269	-0.525387	0.143562	9.22237	0.991177	4.08954	0.0138171	0.014689	0.00581504	-0.794922	-0.314941	-0.688477	0.102323	-0.0281445	0.991254	0.0784447	-1.89798	1.34622	-9.44228	0.000750079	0.00858317	-0.00459125	-0.263672	-0.178711	1.12622	
28	-0.555815	0.00927558	-0.831253	0.00121589	-8.60443	-0.0742916	-3.41319	-0.0017712	0.00195768	-0.00619068	0.812012	-0.150635	0.781006	-0.394056	0.0405996	-0.914526	-0.0819367	-6.75302	1.38176	-6.79118	0.0112442	0.0163796	-0.020137	0.5625	-0.35791	1.06494	0.0640527	-0.0172251	-0.996142	-0.0574649	1.20635	1.00484	-8.6752	0.0230015	-0.00616051	-0.00704646	-0.512695	-0.157471	0.966309	-0.00825603	0.230232	-0.886485	0.401334	1.67956	-6.98499	-6.60608	0.00327907	0.00129005	-0.00311412	-0.50293	0.687256	0.690674	0.0804683	0.212537	-0.973828	0.00343412	1.62502	0.253925	-9.54088	-0.0125781	0.00570964	-0.0170065	-0.539307	-0.263184	0.946777	-0.110869	-0.143189	-0.584004	-0.791293	1.05864	9.69993	2.74524	0.0105278	0.00627664	-0.0161988	-0.566406	-1.02759	0.0961914	-0.239019	0.04841	-0.969543	0.022624	-4.05724	-0.442329	-8.30187	0.019468	0.000406982	-0.0206367	0.0993652	-0.0195312	1.08398	0.836255	-0.0862818	-0.511878	-0.176676	9.23672	0.338919	4.90149	-0.017416	0.00778652	-0.0122371	-0.8479	0.0393066	-0.697998	-0.0414502	-0.0322706	-0.987582	-0.148059	-0.648584	2.67738	-8.77986	0.0142092	0.00556889	-0.0165123	-0.304199	-0.281006	1.05029	0.825366	0.149317	-0.52519	0.143704	9.15936	0.968796	4.15066	0.0036944	0.0239478	0.00461666	-0.792725	-0.312744	-0.686279	0.101834	-0.0283973	0.991316	0.0782028	-1.88833	1.34056	-9.44273	0.00617742	0.0157806	-0.00787087	-0.266357	-0.172119	1.12622	
29	-0.555814	0.00930493	-0.831254	0.00126668	-8.57848	-0.142984	-3.40852	0.0023834	0.000123996	-0.00344131	0.811768	-0.148438	0.787354	-0.394425	0.0405498	-0.914408	-0.0815031	-6.7162	1.36638	-6.71801	0.0109943	-0.0105693	-0.0240878	0.564697	-0.360107	1.06494	0.0641123	-0.0171947	-0.996162	-0.0570518	1.19597	1.01268	-8.73836	0.021568	0.0101224	0.00168437	-0.510742	-0.150879	0.966064	-0.00809037	0.230375	-0.886548	0.401116	1.66178	-6.98492	-6.60793	-0.00367017	0.00974296	-0.0081501	-0.500488	0.682861	0.684082	0.0802991	0.212637	-0.973818	0.00414671	1.51587	0.329327	-9.73287	0.0445473	0.00567395	-0.0135351	-0.541748	-0.256592	0.951416	-0.110807	-0.143214	-0.584343	-0.791046	0.933875	9.92603	2.74969	0.00154724	0.00884237	-0.0138987	-0.560059	-1.02979	0.0898438	-0.23802	0.048584	-0.969785	0.0224459	-4.01908	-0.441596	-8.24008	0.0078878	0.0631131	-0.0253294	0.0932617	-0.026123	1.08643	0.836323	-0.0861247	-0.51189	-0.176395	9.33689	0.356251	4.81878	0.0155634	0.0165603	-0.0125836	-0.845459	0.032959	-0.707275	-0.0414636	-0.0322795	-0.987585	-0.148039	-0.641425	2.68888	-8.78058	0.00889793	0.0043733	-0.0205376	-0.299561	-0.281006	1.0437	0.825345	0.149248	-0.525241	0.143711	9.29158	0.960111	4.02942	0.00097171	0.00246313	0.00500369	-0.78833	-0.312744	-0.686279	0.101781	-0.0283902	0.991334	0.0780439	-1.91119	1.33869	-9.47073	0.0127948	0.00767894	-0.00749654	-0.270508	-0.178711	1.12622	
30	-0.555792	0.00918855	-0.831269	0.00147138	-8.6121	-0.0707095	-3.40426	0.00829591	-0.00127631	-0.00468758	0.811768	-0.148438	0.776611	-0.394535	0.0404092	-0.914368	-0.0814883	-6.6489	1.44778	-6.73532	-0.0102048	0.0118172	-0.0198346	0.562256	-0.355713	1.05786	0.06423	-0.0172445	-0.996171	-0.056744	1.19404	1.06124	-8.58288	0.0264373	0.0124474	0.00307636	-0.506348	-0.15332	0.966064	-0.00781663	0.23006	-0.886676	0.401021	1.68594	-6.95572	-6.67264	0.00717868	0.0209664	0.00868966	-0.505127	0.687256	0.686279	0.080285	0.212542	-0.973841	0.00369144	1.6348	0.183533	-9.59762	-0.019972	0.00104616	-0.0134996	-0.541748	-0.254395	0.948975	-0.11095	-0.143336	-0.584273	-0.791056	1.04682	9.79339	2.7333	-0.00214581	0.00704101	-0.0177028	-0.566162	-1.03418	0.0900879	-0.237957	0.0486394	-0.9698	0.0223186	-3.91008	-0.38684	-8.30379	0.0098219	0.0031965	-0.0161249	0.0998535	-0.0283203	1.08862	0.836447	-0.0859247	-0.511628	-0.176664	9.25074	0.37906	4.92192	0.00143508	0.0204167	-0.0201812	-0.850342	0.0415039	-0.70752	-0.0412695	-0.031871	-0.98758	-0.148212	-0.644661	2.69078	-8.77468	-0.00236685	0.00875656	-0.0165266	-0.304443	-0.276367	1.04346	0.825258	0.149279	-0.525344	0.143801	9.15152	0.983819	4.18833	0.00382575	0.00527132	0.00535207	-0.790527	-0.310547	-0.684082	0.10165	-0.0283682	0.991355	0.0779607	-1.87496	1.33451	-9.46063	0.00625774	0.00986976	-0.00466458	-0.272705	-0.176514	1.12158	
31	-0.555822	0.00919601	-0.831249	0.00158797	-8.63532	-0.102794	-3.44146	0.00604588	-0.0036795	-0.0080027	0.811768	-0.14624	0.780762	-0.394622	0.0404494	-0.91433	-0.0814725	-6.74251	1.3684	-6.77467	-0.0077658	0.00492098	-0.0241722	0.56665	-0.35376	1.05298	0.0640598	-0.0171333	-0.996188	-0.0566701	1.27406	0.865863	-8.71572	-0.00651799	0.00311633	-0.00540625	-0.510498	-0.155273	0.963867	-0.00776845	0.229981	-0.886654	0.401114	1.70173	-7.0044	-6.67864	0.0088885	0.0125757	0.00296122	-0.500732	0.685059	0.692871	0.0802404	0.212493	-0.973855	0.00374089	1.59036	0.265329	-9.62813	0.00296424	0.00394489	-0.00927275	-0.543945	-0.256592	0.946777	-0.110916	-0.143334	-0.584155	-0.791148	1.07916	9.72059	2.80753	-0.00813491	0.0155349	-0.0104992	-0.568604	-1.02759	0.0961914	-0.237633	0.0486699	-0.969878	0.0223018	-3.91206	-0.457476	-8.26342	0.0167085	0.0366724	-0.018768	0.0996094	-0.026123	1.08203	0.8364	-0.0858798	-0.511735	-0.176601	9.19205	0.309301	4.8841	0.0116052	0.00509182	-0.0171958	-0.847656	0.0351562	-0.702637	-0.0412814	-0.0318821	-0.98756	-0.148336	-0.630785	2.68493	-8.78357	-0.00304394	0.0046598	-0.0201672	-0.306396	-0.28125	1.05029	0.825159	0.149205	-0.525542	0.143723	9.13701	0.975913	4.15129	-0.00690565	-0.0070539	0.00373742	-0.792725	-0.310547	-0.688721	0.101678	-0.0283369	0.99135	0.0780035	-1.86533	1.33738	-9.45057	-0.00113168	0.00273242	-0.00294831	-0.270508	-0.178711	1.12183	
32	-0.556052	0.00915099	-0.831095	0.00188058	-8.60478	-0.050282	-3.37078	0.00723796	-0.00993958	-0.00837279	0.811768	-0.144043	0.776611	-0.394592	0.0402724	-0.914354	-0.0814386	-6.786	1.39542	-6.76434	-0.00467634	0.00968385	-0.0136252	0.564453	-0.355713	1.05542	0.0641096	-0.0170757	-0.996209	-0.0562637	1.22334	0.861298	-8.67237	0.018394	0.00455255	0.00306917	-0.508545	-0.153076	0.959229	-0.00750803	0.229943	-0.886875	0.400653	1.72076	-7.0206	-6.67151	0.00147038	0.00917074	-0.00606073	-0.496094	0.680664	0.692871	0.0803825	0.212367	-0.973873	0.00333855	1.53222	0.286617	-9.65958	-0.0238858	0.00883188	-0.0134877	-0.545898	-0.260986	0.94458	-0.110792	-0.143485	-0.583912	-0.791318	1.02168	9.79635	2.76621	-0.00298742	0.00987671	-0.00691575	-0.566406	-1.02759	0.0939941	-0.237208	0.0487696	-0.969981	0.0221408	-3.96165	-0.407634	-8.33721	0.0116509	0.0261111	-0.0193501	0.0976562	-0.0302734	1.08008	0.836436	-0.085512	-0.511806	-0.176399	9.33328	0.386478	4.84272	0.0156962	0.0203221	-0.0180297	-0.852051	0.0327148	-0.700195	-0.0414486	-0.0318735	-0.987552	-0.148346	-0.650647	2.69012	-8.77853	0.00791004	-0.00177079	-0.0213133	-0.301758	-0.281006	1.04346	0.825115	0.148961	-0.525694	0.143675	9.25029	0.978493	4.0775	-0.0022524	0.00734644	0.00760122	-0.794922	-0.312744	-0.684082	0.101976	-0.0282251	0.991327	0.0779488	-1.89083	1.34035	-9.45142	0.0111392	-0.00912374	-0.0023942	-0.270508	-0.178711	1.12183	
33	-0.556119	0.00918314	-0.83105	0.00195901	-8.58125	-0.127935	-3.36886	0.0038521	-0.00313752	-0.00296062	0.816406	-0.150391	0.776611	-0.394766	0.0403904	-0.914277	-0.081403	-6.70339	1.31514	-6.6491	-0.00759667	0.00244367	-0.0236804	0.564453	-0.35791	1.05786	0.0642649	-0.017113	-0.996175	-0.056674	1.12351	1.02388	-8.78896	-0.025673	0.00636048	-0.00793468	-0.510742	-0.148926	0.968262	-0.00756739	0.230125	-0.886702	0.40093	1.60137	-7.00954	-6.75233	0.0200819	0.00515568	-0.00948733	-0.502686	0.678467	0.684082	0.0804279	0.212426	-0.973855	0.00354807	1.56954	0.139038	-9.59016	0.0145336	0.00713748	-0.013501	-0.541748	-0.254395	0.951416	-0.110739	-0.143504	-0.583881	-0.791345	0.980417	9.80836	2.74452	0.00319623	0.0192695	-0.0160593	-0.570801	-1.02979	0.0964355	-0.236163	0.049239	-0.970206	0.0224035	-3.99829	-0.455678	-8.21801	0.0135023	0.0478757	-0.0295489	0.095459	-0.026123	1.08203	0.836344	-0.0854245	-0.512039	-0.176202	9.31111	0.36189	4.84695	0.00777571	0.000288127	-0.0135548	-0.854248	0.0349121	-0.702637	-0.0414603	-0.031913	-0.98755	-0.148348	-0.647529	2.69322	-8.774	0.0102907	0.00663746	-0.01849	-0.299316	-0.285645	1.0459	0.825015	0.148951	-0.525838	0.143733	9.25659	0.941442	4.04379	0.000266037	0.00985619	0.00652628	-0.790771	-0.30835	-0.686523	0.101998	-0.0282419	0.991337	0.0777799	-1.88895	1.32323	-9.45891	0.00687153	0.0106057	-0.00699433	-0.272705	-0.176514	1.12158	
34	-0.556085	0.00909706	-0.831073	0.00190076	-8.62591	-0.0933647	-3.42718	-0.00350123	-0.000169027	0.00266309	0.813721	-0.144043	0.780762	-0.39492	0.0405894	-0.914221	-0.0811862	-6.73445	1.35964	-6.75459	-0.00514902	0.00969975	-0.0316815	0.568848	-0.355713	1.06006	0.064466	-0.0167499	-0.996197	-0.0561679	1.2643	0.89071	-8.67098	0.0304906	0.0191619	-0.0162773	-0.514893	-0.153076	0.963867	-0.00765631	0.230335	-0.886533	0.401181	1.7248	-6.92748	-6.57019	0.0210668	-0.001207	-0.00901496	-0.502686	0.680664	0.692871	0.0801609	0.212428	-0.973875	0.00391971	1.57445	0.359091	-9.63593	0.0203212	0.00313206	-0.018608	-0.545898	-0.256592	0.948975	-0.110744	-0.143367	-0.584011	-0.791273	1.05184	9.7392	2.77193	0.0208155	0.010055	-0.0218101	-0.56665	-1.02539	0.0939941	-0.235506	0.0495147	-0.970351	0.0224307	-3.93031	-0.472999	-8.17592	0.0175376	0.0417014	-0.0268336	0.0888672	-0.0239258	1.07788	0.836317	-0.0851205	-0.512206	-0.175995	9.26801	0.312259	4.84877	0.0209483	0.0124538	-0.0193625	-0.850098	0.0371094	-0.700439	-0.0414625	-0.0319197	-0.987602	-0.147998	-0.647545	2.69033	-8.78434	0.020966	0.00446579	-0.0200948	-0.299805	-0.276367	1.03906	0.824956	0.148988	-0.525906	0.143783	9.19716	1.00891	4.11721	0.00342107	0.00641897	0.00232747	-0.792969	-0.30835	-0.688721	0.102047	-0.028175	0.991321	0.0779402	-1.88131	1.30675	-9.45797	-0.00977991	-0.00123583	0.00105011	-0.268066	-0.180908	1.12402	
35	-0.556156	0.00908042	-0.831026	0.00196265	-8.55605	-0.113062	-3.37983	0.00830402	-0.00327397	-0.00314199	0.814209	-0.150391	0.781006	-0.395142	0.0405156	-0.914121	-0.0812645	-6.76126	1.43088	-6.729	-0.00841515	-0.00327913	-0.00921654	0.568848	-0.353516	1.06226	0.0644616	-0.0167204	-0.996238	-0.0554576	1.1656	0.974108	-8.59278	0.0184675	9.5371e-05	0.00419573	-0.510742	-0.150879	0.966064	-0.00765767	0.230399	-0.886407	0.401424	1.63873	-6.98984	-6.61394	-0.00104106	0.00819216	0.000937209	-0.507324	0.685059	0.688477	0.0802712	0.212378	-0.973876	0.00425566	1.51602	0.363815	-9.68014	0.0128422	0.0103673	-0.0119183	-0.546143	-0.254395	0.946777	-0.110682	-0.143156	-0.584254	-0.79114	1.01923	9.76583	2.82272	0.0115118	0.0154166	-0.0126041	-0.570801	-1.02979	0.0942383	-0.233903	0.0500156	-0.970709	0.0226276	-3.92205	-0.409488	-8.30705	0.0156359	0.094295	-0.0409401	0.0888672	-0.0239258	1.08643	0.836289	-0.0848474	-0.512351	-0.175835	9.26588	0.466061	4.82725	0.0110845	0.00551363	-0.0165753	-0.8479	0.0393066	-0.705078	-0.0415736	-0.0319183	-0.987595	-0.148014	-0.649435	2.68498	-8.78584	0.00367891	8.98751e-05	-0.021639	-0.303955	-0.285645	1.0481	0.82509	0.148757	-0.525784	0.143697	9.25223	0.899583	4.10762	-0.00561014	0.0180555	0.00216595	-0.792725	-0.310547	-0.681885	0.102088	-0.0281108	0.991304	0.0781292	-1.89399	1.34686	-9.46884	0.00290547	0.00700224	-0.00677602	-0.272949	-0.172119	1.12378	
36	-0.556121	0.00889064	-0.831051	0.00222627	-8.64631	-0.0623201	-3.41818	0.011161	-0.00148852	-0.00258089	0.813965	-0.14624	0.778809	-0.395163	0.0404439	-0.914098	-0.0814542	-6.65969	1.42142	-6.67543	-0.0195411	0.00906975	-0.00884008	0.56665	-0.353516	1.0647	0.0644327	-0.0168542	-0.996238	-0.0554394	1.17206	0.985529	-8.74792	0.00312276	0.00098004	0.00706254	-0.512695	-0.153076	0.966064	-0.00775707	0.230376	-0.886466	0.401304	1.63543	-6.98007	-6.62122	-0.00286059	-0.00173999	0.00280734	-0.498535	0.685059	0.690674	0.0802747	0.21232	-0.973889	0.00397173	1.50763	0.298745	-9.70418	-0.0236352	0.00150595	-0.0110338	-0.543945	-0.254395	0.946777	-0.11053	-0.143349	-0.58407	-0.791263	1.00896	9.78477	2.71785	-0.00287212	0.0114403	-0.00297648	-0.568604	-1.02759	0.0939941	-0.233264	0.0502479	-0.970857	0.0223613	-3.93191	-0.477931	-8.2731	0.00583683	0.0189274	-0.01808	0.0866699	-0.0239258	1.07983	0.836225	-0.0849168	-0.512433	-0.175865	9.32195	0.393653	4.81595	-0.000361457	0.00495714	-0.018812	-0.854248	0.0351562	-0.705078	-0.0416134	-0.0319645	-0.987631	-0.147753	-0.642054	2.69147	-8.77682	0.0200177	0.00605798	-0.0201173	-0.302002	-0.278809	1.0481	0.825031	0.148836	-0.525865	0.143655	9.24253	0.951234	4.11431	0.00532067	0.00130585	-0.00209487	-0.796875	-0.317139	-0.686279	0.102162	-0.0281441	0.991307	0.0779792	-1.89156	1.33372	-9.44013	0.00388095	0.00284876	-0.00592266	-0.270508	-0.178711	1.12622	
37	-0.556144	0.00890442	-0.831035	0.00231508	-8.58224	-0.0724882	-3.38688	0.00471996	-0.00307765	-0.00661254	0.812012	-0.150391	0.778809	-0.39505	0.0404779	-0.914104	-0.0819225	-6.84601	1.36834	-6.75775	-0.0128883	0.00658304	-0.013371	0.571289	-0.360107	1.0603	0.0645351	-0.0169015	-0.996183	-0.0563021	1.26592	0.826183	-8.78276	-0.0378177	0.00771543	-0.00646647	-0.508301	-0.155273	0.966064	-0.00769133	0.230347	-0.886432	0.401397	1.7026	-7.03604	-6.70663	0.00931656	0.0136708	-0.00107096	-0.500488	0.680664	0.686279	0.0803579	0.212185	-0.973914	0.00327818	1.47862	0.208021	-9.55834	-0.0353773	0.00315785	-0.00846838	-0.543701	-0.258789	0.942139	-0.110498	-0.143468	-0.583895	-0.791374	1.02207	9.70312	2.74044	-0.00166642	0.00857952	-0.011163	-0.570801	-1.02539	0.0917969	-0.232237	0.0504964	-0.971094	0.0221741	-3.93579	-0.424748	-8.19182	0.0105733	0.0646703	-0.0229959	0.0847168	-0.0283203	1.08228	0.836151	-0.0849473	-0.512529	-0.175923	9.26876	0.448081	4.85254	0.00374545	0.00551802	-0.0175845	-0.849854	0.0307617	-0.705078	-0.0416368	-0.0320195	-0.987644	-0.147651	-0.651465	2.67655	-8.76078	0.0129193	0.00389211	-0.0183259	-0.299561	-0.278809	1.0481	0.825071	0.148692	-0.525886	0.143501	9.19914	0.907374	4.09122	-0.00616802	-0.00120553	6.54918e-05	-0.785889	-0.314941	-0.684082	0.102138	-0.0280918	0.991302	0.078097	-1.90508	1.33381	-9.44639	-0.0042719	0.00503441	-0.00319808	-0.266113	-0.174316	1.12158	
38	-0.556034	0.00863362	-0.831111	0.0025466	-8.60094	-0.167978	-3.40945	0.0132509	0.0048925	0.00262731	0.818359	-0.148193	0.783203	-0.39526	0.0404209	-0.914012	-0.0819593	-6.70634	1.39249	-6.71287	-0.0049329	0.00253422	-0.0197041	0.566895	-0.360107	1.05786	0.0645459	-0.0169218	-0.996219	-0.0556369	1.17935	1.0182	-8.67878	0.0411015	0.00113607	-0.00694597	-0.512695	-0.150879	0.9729	-0.00769133	0.230347	-0.886432	0.401397	1.7026	-7.03604	-6.70663	0.00931656	0.0136708	-0.00107096	-0.500488	0.680664	0.686279	0.0803264	0.212121	-0.97393	0.00350225	1.55225	0.167091	-9.59889	0.0148515	0.00977824	-0.011445	-0.543945	-0.252197	0.946777	-0.110531	-0.143525	-0.584045	-0.791249	1.03799	9.74274	2.74886	0.0182564	0.00926235	-0.0177345	-0.568848	-1.02319	0.0939941	-0.232237	0.0504964	-0.971094	0.0221741	-3.93579	-0.424748	-8.19182	0.0105733	0.0646703	-0.0229959	0.0847168	-0.0283203	1.08228	0.836103	-0.0849596	-0.512609	-0.175913	9.291	0.367109	4.84589	0.00390083	0.00645113	-0.0177167	-0.849854	0.0307617	-0.697998	-0.0416368	-0.0320195	-0.987644	-0.147651	-0.651465	2.67655	-8.76078	0.0129193	0.00389211	-0.0183259	-0.299561	-0.278809	1.0481	0.825078	0.148713	-0.525903	0.143377	9.22633	0.939393	4.0986	-0.00276116	0.00717688	-0.00629127	-0.790527	-0.310547	-0.686279	0.102157	-0.028053	0.991279	0.0783772	-1.88062	1.33252	-9.44508	-0.020187	0.00319837	5.50252e-05	-0.268311	-0.174316	1.12622	
39	-0.556097	0.00839545	-0.831071	0.00255189	-8.65088	-0.0240824	-3.42536	-0.00217353	-0.00708931	0.00262912	0.80957	-0.148438	0.774414	-0.39534	0.0405194	-0.913979	-0.0818994	-6.65067	1.32147	-6.69409	-0.00592039	0.0122778	-0.0256984	0.568848	-0.35791	1.05322	0.0644734	-0.0170472	-0.996215	-0.0557577	1.22973	0.876187	-8.77638	0.00718033	0.000228434	0.00140322	-0.510742	-0.144531	0.968262	-0.00747886	0.230494	-0.886424	0.401334	1.69206	-7.00137	-6.69066	-0.00686449	0.00602101	-0.00605855	-0.50708	0.678467	0.686279	0.0802736	0.212051	-0.973949	0.00378688	1.58304	0.306608	-9.73669	0.00234414	0.00606362	-0.00995509	-0.535156	-0.254395	0.94458	-0.110596	-0.143695	-0.583949	-0.79128	1.06383	9.88026	2.82805	-4.04791e-05	0.010985	-0.0113403	-0.564453	-1.02539	0.0917969	-0.230864	0.0508902	-0.971395	0.0224403	-3.86006	-0.449842	-8.2545	0.0159892	0.0289314	-0.02405	0.0803223	-0.0283203	1.07788	0.836067	-0.084846	-0.512676	-0.175945	9.27564	0.344446	4.84499	0.00271562	0.00774245	-0.022951	-0.849854	0.0351562	-0.705078	-0.0416115	-0.0318769	-0.987621	-0.147842	-0.65173	2.67459	-8.79829	-0.0126702	0.00552025	-0.0177495	-0.297119	-0.283203	1.0437	0.825048	0.148905	-0.525866	0.143487	9.20894	0.992423	4.12305	0.0105672	0.00839419	0.00420037	-0.795166	-0.30835	-0.684082	0.102095	-0.0279641	0.991257	0.0787676	-1.89355	1.34081	-9.4503	-0.00583716	0.00701017	-0.00153507	-0.275146	-0.176514	1.12402	
40	-0.556366	0.00842176	-0.830892	0.00235809	-8.55945	-0.14625	-3.38311	-0.0034779	-0.0141184	0.00160222	0.816162	-0.144043	0.778809	-0.395054	0.0405693	-0.914101	-0.0818865	-6.81724	1.44102	-6.75524	-0.0110261	0.0221026	-0.0154407	0.560059	-0.355713	1.05786	0.0645086	-0.0169191	-0.996244	-0.0552368	1.18959	0.946818	-8.6189	0.0222419	-0.000616381	-0.0116909	-0.51709	-0.148682	0.961426	-0.00740958	0.230614	-0.886365	0.401396	1.60531	-6.90606	-6.60949	0.0145389	0.0052812	-0.00798102	-0.500732	0.685059	0.684082	0.080215	0.211972	-0.973973	0.00306785	1.57709	0.246604	-9.57122	-0.0308722	-0.00353993	-0.0144795	-0.546143	-0.254395	0.948975	-0.110586	-0.143772	-0.583636	-0.791498	1.04332	9.68737	2.78567	-0.0201479	0.0118379	-0.0112509	-0.564209	-1.02979	0.0898438	-0.23049	0.0511313	-0.971476	0.0222343	-3.8674	-0.361717	-8.37062	0.000647287	0.0205763	-0.0238026	0.0803223	-0.0283203	1.08423	0.836062	-0.0849018	-0.512654	-0.176003	9.24888	0.372667	4.90389	-0.00788757	0.0108111	-0.0156011	-0.852051	0.0351562	-0.705078	-0.0416115	-0.0318769	-0.987621	-0.147842	-0.65173	2.67459	-8.79829	-0.0126702	0.00552025	-0.0177495	-0.297119	-0.283203	1.0437	0.824994	0.148718	-0.526038	0.14336	9.21501	0.931404	4.08936	0.000690727	0.00532594	0.00341734	-0.794922	-0.310547	-0.686279	0.102139	-0.0279543	0.991256	0.078732	-1.88553	1.35325	-9.46961	0.00481392	0.00157643	-0.00544206	-0.268311	-0.178711	1.11938	
41	-0.556332	0.00825921	-0.830915	0.00242437	-8.6154	-0.0767952	-3.43602	0.00437281	0.00185034	0.000764654	0.812012	-0.150635	0.781006	-0.395083	0.0406937	-0.914053	-0.0822188	-6.66454	1.34814	-6.64236	-0.023064	0.00803255	-0.0178215	0.568848	-0.358154	1.05078	0.0646167	-0.0170367	-0.9962	-0.055856	1.24831	0.99364	-8.73646	-0.0495824	0.0121446	0.00563552	-0.51709	-0.153076	0.970703	-0.00739805	0.230763	-0.886515	0.40098	1.68983	-7.13037	-6.65864	-0.0231661	0.00201104	-0.00821621	-0.50293	0.682861	0.686279	0.0802998	0.211886	-0.973984	0.0034995	1.50507	0.277538	-9.65909	0.0261162	0.0118631	-0.00906376	-0.539551	-0.254395	0.946777	-0.110544	-0.143805	-0.583658	-0.791482	1.02179	9.95163	2.86832	0.00366082	0.0126179	-0.0143813	-0.570801	-1.02979	0.0856934	-0.229885	0.0514596	-0.971611	0.021832	-3.89275	-0.39097	-8.23658	0.00014033	0.0260866	-0.0282556	0.0825195	-0.0305176	1.08228	0.836156	-0.0843511	-0.512735	-0.17559	9.36288	0.458509	4.80506	0.0421701	0.0265178	-0.013436	-0.854248	0.0371094	-0.695801	-0.041665	-0.0313299	-0.987662	-0.147668	-0.654463	2.66878	-8.79985	0.00162219	0.0046305	-0.0198434	-0.299805	-0.276367	1.0481	0.824966	0.148638	-0.526089	0.143418	9.30527	0.974194	4.07202	-0.00940932	0.00536512	0.00570919	-0.794922	-0.310547	-0.684082	0.102323	-0.0279725	0.991238	0.0787128	-1.90241	1.35882	-9.46026	0.00351589	0.00276382	-0.0049232	-0.265869	-0.178711	1.12183	
42	-0.556297	0.00811893	-0.83094	0.00245106	-8.58296	-0.127803	-3.38458	0.00487961	0.00452108	0.00274076	0.813721	-0.141846	0.782959	-0.394888	0.0409353	-0.914119	-0.0823009	-6.72781	1.36336	-6.66025	-0.0150298	0.0216655	-0.0303565	0.566895	-0.360107	1.05786	0.064653	-0.0170818	-0.996208	-0.0556522	1.15015	0.990012	-8.76631	0.027676	0.00179259	-0.00226418	-0.510742	-0.150879	0.966064	-0.00735751	0.230769	-0.886476	0.401063	1.64793	-6.97235	-6.64536	0.00451547	0.00478374	-0.00148563	-0.502686	0.678467	0.692871	0.0801802	0.212103	-0.973945	0.00380411	1.56593	0.112561	-9.56068	0.0204612	0.0105394	-0.0234921	-0.543945	-0.252197	0.948975	-0.110775	-0.143796	-0.583813	-0.791336	1.00466	9.72935	2.74662	0.0324266	0.012861	-0.0257702	-0.564209	-1.02979	0.0983887	-0.229912	0.0516737	-0.9716	0.02153	-3.84448	-0.415772	-8.27694	0.00600267	0.00993317	-0.023555	0.078125	-0.0283203	1.08643	0.835988	-0.084632	-0.512895	-0.175787	9.25076	0.374486	4.87499	-0.0321789	-0.00711874	-0.024268	-0.849854	0.032959	-0.702637	-0.041564	-0.0314746	-0.987642	-0.147799	-0.63511	2.68227	-8.76313	0.00503805	0.00882398	-0.0152823	-0.301758	-0.283447	1.0481	0.824879	0.148617	-0.52621	0.143494	9.20637	0.938035	4.0934	0.0133189	0.00582455	0.00873713	-0.78833	-0.30835	-0.684082	0.102196	-0.0280008	0.991255	0.07865	-1.89008	1.34299	-9.43652	-0.000212732	0.0127226	-0.00544612	-0.265869	-0.178711	1.11938	
43	-0.556279	0.00818468	-0.830951	0.00247775	-8.63806	-0.103354	-3.44531	-0.00498296	-0.00285289	-0.00509574	0.807373	-0.14624	0.782959	-0.394796	0.0410813	-0.914158	-0.0822469	-6.6743	1.36806	-6.69426	-0.00828118	0.0150589	-0.0247256	0.573242	-0.360107	1.05542	0.0647327	-0.016917	-0.996256	-0.0547426	1.25425	0.943096	-8.74596	0.052692	0.00975445	-0.00398061	-0.508545	-0.146729	0.968262	-0.00732987	0.230938	-0.886325	0.4013	1.69912	-6.99322	-6.67371	0.00896587	0.00599883	-0.0068904	-0.502686	0.680664	0.684082	0.0799573	0.212167	-0.973946	0.00467045	1.55868	0.319237	-9.79823	0.0199704	0.000983692	-0.0167722	-0.541748	-0.256592	0.951416	-0.110897	-0.143669	-0.583936	-0.791252	1.04418	9.82969	2.73482	0.0148233	0.014379	-0.0210043	-0.559814	-1.03418	0.0964355	-0.229725	0.0517447	-0.971642	0.0214548	-3.79997	-0.41727	-8.25641	0.0139805	0.0311409	-0.0180148	0.0783691	-0.0305176	1.07593	0.83591	-0.0845531	-0.513076	-0.175665	9.2613	0.373065	4.85586	0.0294516	0.0183216	-0.0164528	-0.856201	0.0305176	-0.700195	-0.0415079	-0.0314958	-0.987658	-0.147706	-0.633637	2.67933	-8.80105	0.0156045	0.00501477	-0.0214587	-0.301758	-0.283447	1.0481	0.824963	0.148339	-0.526207	0.143313	9.22929	0.994449	4.1301	-0.022484	0.00842782	-0.000388144	-0.797363	-0.310547	-0.681885	0.102072	-0.0279893	0.991242	0.0789774	-1.89143	1.35454	-9.45358	-0.0150225	0.0127901	-0.00162133	-0.268311	-0.176514	1.12622	
44	-0.556426	0.00810546	-0.830853	0.00278082	-8.59332	-0.0946868	-3.40148	0.0203671	-0.00638093	-0.00453291	0.811768	-0.14624	0.776611	-0.394591	0.0411251	-0.914232	-0.0823829	-6.70923	1.46602	-6.72138	-0.0191778	0.0210773	-0.0183539	0.564697	-0.360107	1.0603	0.0647661	-0.0168382	-0.99629	-0.0541134	1.19221	1.02121	-8.58425	0.0527101	0.00623111	-0.00631364	-0.512939	-0.146729	0.972656	-0.00732849	0.230843	-0.886251	0.401519	1.69672	-7.00348	-6.55625	0.0103654	0.00905824	0.00725409	-0.502686	0.680664	0.692871	0.0799678	0.212037	-0.973973	0.00471779	1.59529	0.295979	-9.65999	-0.00660014	0.00898993	-0.00979451	-0.546143	-0.254395	0.946777	-0.110922	-0.143836	-0.583813	-0.791309	1.03646	9.79588	2.75355	-0.00785998	0.00674308	-0.00894426	-0.568604	-1.02759	0.0983887	-0.229698	0.0518575	-0.971646	0.0212896	-3.83541	-0.418971	-8.29705	0.011636	0.00145715	-0.0153343	0.0825195	-0.0305176	1.08228	0.835863	-0.0846434	-0.513117	-0.175727	9.28732	0.39023	4.82402	-0.0294851	-0.000294469	-0.0179432	-0.849854	0.0307617	-0.700195	-0.0415368	-0.0312525	-0.987708	-0.147416	-0.649664	2.68073	-8.77241	0.0151164	0.00280645	-0.0205322	-0.302002	-0.27417	1.04565	0.825003	0.148084	-0.526259	0.143153	9.16256	1.04499	4.09496	-0.0224998	0.0101094	0.00266701	-0.792725	-0.310547	-0.681885	0.102066	-0.0279062	0.99124	0.0790344	-1.8852	1.36929	-9.46011	0.0077441	0.000607859	-0.00209666	-0.272705	-0.180908	1.12622	
45	-0.556548	0.00819743	-0.83077	0.00306115	-8.60514	-0.087744	-3.39735	0.000363077	-0.00624038	-0.0111574	0.811768	-0.14624	0.780762	-0.394333	0.0411405	-0.914284	-0.083031	-6.71394	1.39165	-6.71862	-0.028643	0.0225362	-0.00634657	0.570801	-0.351562	1.05518	0.0648753	-0.0170368	-0.996266	-0.054356	1.19997	0.947428	-8.67733	-0.00909188	0.00616123	0.00561677	-0.51709	-0.155273	0.9729	-0.00718954	0.230696	-0.886422	0.401227	1.68178	-7.01883	-6.76244	-0.0101882	0.0107276	0.00462642	-0.50708	0.680664	0.688477	0.0801838	0.211852	-0.973999	0.00389368	1.55517	0.173603	-9.69374	-0.0239911	0.0052597	-0.00917158	-0.541748	-0.252197	0.94458	-0.110723	-0.143979	-0.5836	-0.791468	1.03429	9.81035	2.80755	-0.0086106	0.0150866	-0.00250593	-0.564453	-1.02759	0.0898438	-0.229759	0.0520707	-0.971623	0.0211757	-3.86026	-0.401803	-8.2881	0.0134785	-0.000614125	-0.0233723	0.0786133	-0.034668	1.08228	0.835757	-0.0845942	-0.513358	-0.175551	9.29858	0.408899	4.81164	0.0245748	0.00670255	-0.0155629	-0.849854	0.0327148	-0.695557	-0.0415684	-0.031334	-0.987725	-0.147276	-0.639843	2.68054	-8.76804	0.0107081	0.00357334	-0.0195788	-0.297119	-0.281006	1.0481	0.824969	0.147922	-0.526287	0.143416	9.23807	0.907719	4.0728	-0.00982444	0.0082003	0.00573054	-0.790527	-0.310547	-0.686279	0.102102	-0.0279089	0.991249	0.0788774	-1.88398	1.36466	-9.46102	0.00644478	0.00335229	-0.00732829	-0.268311	-0.174316	1.12158	
46	-0.556637	0.00818464	-0.830709	0.00329365	-8.6181	-0.152178	-3.40784	0.0110134	-0.00745048	-0.00486781	0.813965	-0.14624	0.781006	-0.39428	0.0412279	-0.914301	-0.0830487	-6.74008	1.34098	-6.72749	-0.0127771	0.0179401	-0.0254649	0.566895	-0.362305	1.05322	0.0648204	-0.0170896	-0.996265	-0.0544339	1.16308	0.814717	-8.82279	0.0215441	0.000615369	-0.00226469	-0.514893	-0.153076	0.961426	-0.00722171	0.230716	-0.88621	0.401685	1.67891	-7.01333	-6.67215	0.0214701	0.0052888	-0.00234356	-0.505127	0.682861	0.690674	0.0802193	0.211781	-0.974011	0.00395479	1.55613	0.196716	-9.48265	0.00250781	0.0101962	-0.00820363	-0.543945	-0.252197	0.946777	-0.110805	-0.143976	-0.583477	-0.791548	0.965706	9.7198	2.75025	0.00553798	0.0132234	-0.022792	-0.570557	-1.03198	0.0878906	-0.229504	0.0521624	-0.97168	0.0211049	-3.89746	-0.407675	-8.20888	0.0108803	0.0224692	-0.0227823	0.0761719	-0.0283203	1.08423	0.835797	-0.0844364	-0.513385	-0.175352	9.29734	0.37699	4.85049	0.0237134	0.0153702	-0.0104023	-0.850098	0.0371094	-0.702637	-0.0416017	-0.0313674	-0.987737	-0.147177	-0.645067	2.67457	-8.78271	0.0133727	0.00363684	-0.0197606	-0.304199	-0.281006	1.05029	0.824908	0.148079	-0.526286	0.143607	9.25064	0.968186	4.02734	0.0206068	0.0078135	0.00900977	-0.795166	-0.306152	-0.684082	0.102092	-0.0279048	0.991259	0.0787673	-1.87925	1.35692	-9.45358	0.00616893	0.00899337	-0.00479922	-0.272949	-0.172119	1.12378	
47	-0.556699	0.00831155	-0.830666	0.0032548	-8.63918	-0.0817893	-3.42109	-0.0112798	-0.00280063	-0.00703714	0.813965	-0.14624	0.778809	-0.394049	0.0412691	-0.9144	-0.0830384	-6.65306	1.38786	-6.6798	-0.00537458	0.0244209	-0.0177558	0.566895	-0.362305	1.06494	0.0648806	-0.0168904	-0.996304	-0.0537067	1.21214	0.975645	-8.6853	0.0311823	0.00396013	-0.00817795	-0.508545	-0.148926	0.963623	-0.00742248	0.23073	-0.886097	0.40192	1.68138	-7.09935	-6.61968	0.00421774	-0.00386186	-0.000784144	-0.498291	0.680664	0.684082	0.0801055	0.211757	-0.974024	0.00431217	1.57398	0.265313	-9.68672	0.0287869	0.00396665	-0.0138266	-0.543945	-0.254395	0.94458	-0.110799	-0.143923	-0.583634	-0.791442	1.07437	9.88747	2.81876	0.00911159	0.018471	-0.0156097	-0.566406	-1.03198	0.092041	-0.229574	0.0523501	-0.971654	0.0210676	-3.8244	-0.397639	-8.20979	0.0231205	0.0136996	-0.0229918	0.0805664	-0.0327148	1.08008	0.8357	-0.0848234	-0.51347	-0.175386	9.25209	0.389544	4.8236	-0.0211995	-0.000760877	-0.0125975	-0.854004	0.0285645	-0.697998	-0.0416039	-0.0314007	-0.987745	-0.147115	-0.640713	2.68423	-8.7858	0.0124177	0.00480092	-0.0186065	-0.299561	-0.278809	1.05029	0.82494	0.147691	-0.526342	0.143617	9.19937	0.932844	4.09574	-0.0197427	0.0139662	0.0108079	-0.790771	-0.30835	-0.688721	0.10204	-0.0278445	0.991272	0.0786857	-1.88641	1.35496	-9.47351	0.00834727	0.00278096	-0.00460641	-0.263672	-0.178711	1.12622	
48	-0.556742	0.00840593	-0.830637	0.00322815	-8.59332	-0.135163	-3.38843	-0.00651177	-0.00524043	-0.0070479	0.811523	-0.144043	0.780762	-0.394144	0.0415078	-0.914347	-0.0830451	-6.80098	1.43447	-6.7172	-0.00720968	0.00441808	-0.0318785	0.5625	-0.35791	1.05786	0.0647464	-0.016833	-0.996323	-0.0535308	1.19331	0.944206	-8.74961	0.0193356	-0.00309387	-0.00474325	-0.51709	-0.148682	0.966064	-0.00742489	0.230747	-0.886107	0.401889	1.67502	-6.97488	-6.52964	0.000307267	0.00472933	-0.00119583	-0.50293	0.682861	0.688477	0.0802085	0.211738	-0.974019	0.00442346	1.57294	0.312914	-9.63116	-0.0180335	0.0100022	-0.0158158	-0.543945	-0.252197	0.948975	-0.11077	-0.143944	-0.583606	-0.791463	1.03486	9.75673	2.76024	0.000510701	0.0133898	-0.0116182	-0.566406	-1.02979	0.0964355	-0.229313	0.052358	-0.971716	0.0210491	-3.84013	-0.401053	-8.32458	0.017113	0.031464	-0.0170366	0.078125	-0.0283203	1.08423	0.835702	-0.0847005	-0.513624	-0.174983	9.30472	0.36613	4.78988	0.0284176	0.0200041	-0.00601103	-0.849609	0.0285645	-0.700195	-0.0416435	-0.0314662	-0.987774	-0.146898	-0.646351	2.66396	-8.78584	0.0141313	0.00344836	-0.0178806	-0.299805	-0.276611	1.05029	0.824869	0.147802	-0.52635	0.143879	9.23193	0.913328	4.08976	0.0159755	0.00917915	0.00758938	-0.792725	-0.310547	-0.679443	0.102123	-0.027857	0.991269	0.0786113	-1.89581	1.35205	-9.44791	0.00800405	-0.000393821	-0.00699105	-0.261475	-0.178711	1.11938	
49	-0.55667	0.00834925	-0.830685	0.00327462	-8.5901	-0.141745	-3.3811	0.00433059	0.00284719	0.00123516	0.813965	-0.14624	0.778809	-0.394174	0.0416597	-0.914319	-0.0831404	-6.7442	1.34464	-6.66492	-0.00814354	0.00166478	-0.0248225	0.564697	-0.360107	1.0625	0.0649525	-0.0169613	-0.99627	-0.0542105	1.22012	0.918374	-8.64745	-0.0522105	0.0111117	-4.75163e-06	-0.512695	-0.150879	0.963867	-0.00738007	0.230777	-0.886086	0.40192	1.64347	-6.91148	-6.5456	0.0049767	0.00857151	-0.00419346	-0.50293	0.682861	0.686279	0.0802854	0.211976	-0.97396	0.00464109	1.51804	0.132399	-9.62287	0.00797576	0.0082405	-0.0160112	-0.541504	-0.260986	0.948975	-0.110621	-0.143889	-0.583936	-0.791251	0.978829	9.734	2.75481	0.0234546	0.0205233	-0.0171678	-0.564453	-1.02759	0.0983887	-0.228919	0.0526522	-0.971795	0.0209248	-3.81144	-0.373453	-8.40389	0.00732524	0.041183	-0.0301794	0.0783691	-0.0305176	1.08228	0.835884	-0.0845206	-0.513428	-0.174776	9.30498	0.428148	4.80669	0.0162991	0.0172552	-0.01063	-0.849854	0.0307617	-0.702637	-0.0416242	-0.0315277	-0.987774	-0.146887	-0.646352	2.66511	-8.79495	0.00454744	0.00753229	-0.0170255	-0.299561	-0.278809	1.0459	0.82491	0.147753	-0.52626	0.144026	9.24868	0.982833	4.08854	0.0119101	0.0141596	0.00813395	-0.797363	-0.30835	-0.677246	0.10202	-0.0279211	0.991292	0.0784346	-1.89773	1.34645	-9.43627	0.00535688	0.0129083	-0.00712992	-0.263672	-0.180908	1.12402	
50	-0.556623	0.00830862	-0.830717	0.00331462	-8.65294	-0.0872657	-3.43036	0.0038688	0.00350257	-0.00102095	0.812012	-0.150391	0.778809	-0.39389	0.0418638	-0.914431	-0.0831508	-6.60047	1.40778	-6.74738	-0.0124244	0.0334388	-0.023994	0.566895	-0.362305	1.0603	0.0647559	-0.0169714	-0.996305	-0.0538118	1.30092	0.943539	-8.71133	0.0576011	-0.00377984	-0.00359708	-0.512939	-0.146729	0.970459	-0.00732903	0.230837	-0.88617	0.401699	1.68019	-7.04031	-6.71182	-0.00823475	0.00163776	-0.00225902	-0.500732	0.685059	0.686279	0.0802798	0.211968	-0.973962	0.00485702	1.66919	0.256673	-9.57254	-0.0125391	0.0138649	-0.0142183	-0.541504	-0.260986	0.946777	-0.110636	-0.14388	-0.584078	-0.791145	1.11036	9.71343	2.70516	0.00755789	0.00785098	-0.0203026	-0.564209	-1.02979	0.0942383	-0.228865	0.0528361	-0.971798	0.0209213	-3.8068	-0.4261	-8.12244	0.0158209	0.0139708	-0.030612	0.0825195	-0.0305176	1.08643	0.835665	-0.0849633	-0.513696	-0.174822	9.22765	0.341595	4.8188	4.53801e-05	0.00042003	-0.0116407	-0.856201	0.0305176	-0.697998	-0.0415814	-0.0315639	-0.987782	-0.146839	-0.632549	2.66618	-8.79287	0.011447	0.00854473	-0.0172043	-0.306885	-0.271973	1.04126	0.824865	0.147487	-0.526387	0.144091	9.158	0.954315	4.0903	-0.0147606	0.0112077	0.0105717	-0.792969	-0.30835	-0.684082	0.101961	-0.0279189	0.991291	0.0785248	-1.87744	1.35054	-9.45228	-0.00492964	0.010364	-0.00343982	-0.268311	-0.176514	1.11938	
51	-0.556943	0.00843347	-0.830501	0.00343732	-8.55221	-0.143757	-3.35346	0.00667382	-0.00828869	-0.00766545	0.811523	-0.141846	0.776611	-0.393753	0.0418681	-0.914486	-0.0831949	-6.84778	1.46696	-6.78489	-0.0108333	0.0240634	-0.017997	0.564453	-0.35791	1.05542	0.0646709	-0.0168489	-0.996305	-0.0539459	1.21722	0.864113	-8.8067	-0.0132824	-0.00765379	-0.0109628	-0.512695	-0.153076	0.963867	-0.00736233	0.230812	-0.886152	0.401754	1.70719	-7.07512	-6.61151	0.0169622	-0.00585409	0.00301313	-0.504883	0.680664	0.688477	0.0803041	0.211962	-0.973961	0.00483335	1.54383	0.366987	-9.65225	-0.010859	0.000719486	-0.0153715	-0.541992	-0.25	0.942139	-0.110594	-0.143981	-0.584262	-0.790997	0.974821	9.88788	2.71726	0.00604946	0.00759204	-0.0122227	-0.570801	-1.02539	0.0939941	-0.228801	0.053158	-0.971794	0.0210024	-3.78206	-0.420315	-8.32616	0.0180892	0.0359783	-0.0176049	0.0695801	-0.0305176	1.07593	0.835701	-0.0849348	-0.513704	-0.174637	9.34083	0.362233	4.85473	0.00385514	0.0162088	-0.0111112	-0.854004	0.0285645	-0.697998	-0.0416077	-0.031371	-0.987831	-0.146542	-0.652566	2.66445	-8.77341	0.0150804	0.00238912	-0.0193181	-0.299805	-0.276367	1.0481	0.824841	0.147496	-0.526368	0.144291	9.27046	0.912803	4.12511	0.0102926	0.00745674	0.00591787	-0.792969	-0.30835	-0.681885	0.102177	-0.027917	0.991272	0.0784922	-1.89233	1.3493	-9.4585	0.00252019	-0.0129571	-0.00394791	-0.268311	-0.174316	1.12158	
52	-0.556984	0.00853521	-0.830471	0.00364712	-8.63271	-0.156447	-3.42572	0.00223741	-0.00515054	-0.0110615	0.811768	-0.144043	0.776611	-0.393794	0.0423784	-0.914421	-0.0834538	-6.67299	1.34013	-6.71822	-0.0134871	0.0269318	-0.017663	0.562256	-0.355957	1.05078	0.0646	-0.0169899	-0.996316	-0.0537912	1.27318	0.985812	-8.63836	0.013429	0.00423491	0.00129247	-0.510742	-0.150879	0.963867	-0.00730775	0.230632	-0.886307	0.401517	1.70019	-6.88863	-6.65649	-0.00115935	0.00941343	0.00810125	-0.502441	0.67627	0.690918	0.0803309	0.211832	-0.973986	0.00497277	1.5719	0.0446869	-9.586	0.0212184	0.0115447	-0.00854252	-0.539551	-0.252197	0.946777	-0.110712	-0.144037	-0.584353	-0.790903	1.02779	9.7323	2.80217	0.0184873	0.0156909	-0.0221736	-0.572998	-1.02759	0.0942383	-0.228795	0.0532359	-0.971791	0.020988	-3.84526	-0.402968	-8.32343	0.0154136	0.00219207	-0.020015	0.0761719	-0.0305176	1.08423	0.835618	-0.0848454	-0.513916	-0.174453	9.27686	0.414696	4.84488	-0.00235152	-0.00594473	-0.017646	-0.856201	0.0307617	-0.702637	-0.0415778	-0.0311114	-0.987778	-0.146963	-0.655505	2.6707	-8.77368	-0.0180138	0.00628548	-0.0203658	-0.306641	-0.27417	1.04785	0.824796	0.146992	-0.526605	0.144194	9.2669	0.977621	4.04916	-0.0287607	0.005496	0.0145469	-0.79541	-0.299561	-0.686523	0.102211	-0.0278789	0.99126	0.0786044	-1.90321	1.34899	-9.43225	-0.00689824	0.00221038	-0.00175145	-0.263916	-0.176514	1.12158	
53	-0.557114	0.00838277	-0.830385	0.0039261	-8.61698	-0.092512	-3.36819	0.0155815	-0.00491146	-0.00252112	0.815918	-0.141846	0.776611	-0.393619	0.0424239	-0.91449	-0.0835011	-6.75631	1.41727	-6.6669	-0.0131869	0.0275795	-0.0206741	0.569092	-0.360107	1.0603	0.0644779	-0.0170053	-0.996321	-0.0538403	1.22572	0.875864	-8.79318	-0.00128819	-0.00590769	-0.00330384	-0.512695	-0.150879	0.968262	-0.00751759	0.230734	-0.886251	0.401577	1.60578	-7.04748	-6.58418	-0.0128619	-0.00281143	-0.00151886	-0.500732	0.685059	0.690674	0.0802918	0.211887	-0.973974	0.00557214	1.57894	0.310164	-9.70371	0.0466634	0.0140378	-0.014529	-0.541748	-0.254395	0.951416	-0.110713	-0.144062	-0.584153	-0.791046	1.02016	9.84592	2.79835	-0.0164305	0.00532888	-0.0124045	-0.572998	-1.02759	0.0898438	-0.228766	0.0533024	-0.971798	0.0208345	-3.80922	-0.397077	-8.30641	0.0181779	0.0179871	-0.0170323	0.0761719	-0.0283203	1.07568	0.835361	-0.0852463	-0.514256	-0.174488	9.32869	0.374052	4.72477	-0.00332667	-0.00456499	-0.0109199	-0.854004	0.0305176	-0.695557	-0.0416978	-0.0311276	-0.987763	-0.147025	-0.652574	2.68482	-8.77534	0.0165368	-0.00108664	-0.0236479	-0.299805	-0.276611	1.05249	0.824667	0.146902	-0.52677	0.144419	9.15563	0.9012	4.08052	0.00979023	0.00964187	0.0106971	-0.795166	-0.30835	-0.681885	0.101895	-0.0279637	0.991301	0.0784768	-1.8843	1.34866	-9.44966	0.00543137	0.0160447	-0.00538812	-0.268311	-0.176514	1.12842	
54	-0.5571	0.00845535	-0.830393	0.00403682	-8.5973	-0.107341	-3.3723	0.00347822	0.000552246	-0.0113185	0.813965	-0.144043	0.776611	-0.393634	0.0425803	-0.914474	-0.083525	-6.74575	1.40999	-6.67906	-0.0139717	0.00565212	-0.0247732	0.564697	-0.360107	1.05566	0.0645589	-0.0170764	-0.996311	-0.0538993	1.19095	0.926037	-8.62279	0.0117349	0.00373133	0.0021176	-0.506348	-0.146729	0.963623	-0.00744977	0.23072	-0.886301	0.401477	1.64474	-6.87629	-6.57422	-0.0070145	0.00966543	-0.000575969	-0.500732	0.685059	0.684082	0.0803891	0.211843	-0.97398	0.00484163	1.57235	0.190421	-9.55347	-0.0450248	0.00730043	-0.0152671	-0.541748	-0.252197	0.94458	-0.110813	-0.144204	-0.584184	-0.790983	1.04395	9.68979	2.75448	0.00839875	0.00128375	-0.0159111	-0.56665	-1.02539	0.0939941	-0.228431	0.0534152	-0.971868	0.0209416	-3.793	-0.452057	-8.30394	0.0241357	0.03749	-0.0271602	0.078125	-0.0283203	1.07788	0.835514	-0.0850025	-0.514138	-0.174222	9.38043	0.354602	4.76857	0.0303739	0.0304036	-0.00666824	-0.845703	0.0371094	-0.700439	-0.0417269	-0.0311525	-0.987789	-0.14684	-0.65397	2.67417	-8.769	0.0218166	0.00297594	-0.0199647	-0.297363	-0.276367	1.0481	0.82464	0.146759	-0.526844	0.144452	9.22951	0.949664	4.10357	-0.00709322	0.00647504	0.0117587	-0.788574	-0.303955	-0.684326	0.1019	-0.0280495	0.991307	0.0783598	-1.88189	1.35587	-9.46231	0.00518104	0.00309615	-0.00661855	-0.274902	-0.180908	1.12183	
55	-0.557193	0.00862598	-0.830328	0.00410791	-8.61475	-0.179257	-3.42508	-0.00222953	-0.00803242	-0.00728485	0.809326	-0.144043	0.778564	-0.393728	0.042734	-0.914405	-0.0837539	-6.51493	1.3888	-6.68068	-0.0159304	0.0145831	-0.0245174	0.564697	-0.362305	1.05786	0.0642705	-0.0172396	-0.996308	-0.054236	1.22255	0.842975	-8.71292	-0.0117986	-0.0116278	-0.00195104	-0.508545	-0.146729	0.96582	-0.00748937	0.230721	-0.886187	0.401727	1.69303	-7.07727	-6.71233	0.0245098	0.00727378	-0.00160487	-0.500732	0.687256	0.686279	0.0802883	0.211927	-0.973966	0.00551465	1.57491	0.32767	-9.58594	0.0363248	0.00681802	-0.0156382	-0.541748	-0.252197	0.951416	-0.110777	-0.144097	-0.584225	-0.790978	1.06118	9.85562	2.75638	-0.00384509	0.0199852	-0.0188939	-0.564453	-1.02539	0.0917969	-0.228548	0.0534092	-0.971828	0.0215189	-3.78799	-0.370457	-8.15154	0.0426156	-0.010421	-0.0149657	0.0783691	-0.0327148	1.08008	0.835462	-0.085168	-0.514253	-0.174052	9.24548	0.430842	4.82262	-0.00447678	-0.00593508	-0.00899252	-0.847656	0.0327148	-0.697998	-0.0416624	-0.0309545	-0.98784	-0.146555	-0.662665	2.67527	-8.79024	0.0148051	0.00641363	-0.0182077	-0.299805	-0.27417	1.05029	0.824587	0.146552	-0.526949	0.144584	9.25051	0.90528	4.0538	-0.00282715	0.00551844	0.0109636	-0.799805	-0.303955	-0.686523	0.101741	-0.0281263	0.991328	0.0782708	-1.89236	1.349	-9.46073	0.00424308	0.00922225	-0.00571429	-0.266357	-0.169922	1.11694	
56	-0.557287	0.00874104	-0.830264	0.00408711	-8.62662	-0.120013	-3.38618	-0.00936716	-0.00271952	-0.00740321	0.811768	-0.148193	0.774414	-0.394001	0.0430717	-0.914277	-0.0837046	-6.84241	1.34676	-6.722	-0.00339801	-0.00648707	-0.0360127	0.560303	-0.35791	1.05542	0.0640589	-0.0172772	-0.996281	-0.0549766	1.21883	0.785971	-8.73664	-0.0473785	-0.00308105	-0.000751243	-0.514893	-0.155273	0.968506	-0.00772049	0.230594	-0.886091	0.402007	1.72505	-7.03764	-6.65704	0.0138649	0.00489521	-0.000109196	-0.502686	0.680664	0.692871	0.0800945	0.212139	-0.973937	0.0053089	1.55025	0.115173	-9.63187	-0.00621384	-0.00553181	-0.0258067	-0.539551	-0.252197	0.946777	-0.110945	-0.143894	-0.584391	-0.790868	0.978641	9.76558	2.75886	0.0143329	0.0163217	-0.02632	-0.564209	-1.03198	0.0964355	-0.228983	0.0532154	-0.971732	0.0217237	-3.8186	-0.432566	-8.29588	0.0319273	0.00767671	-0.0135127	0.0739746	-0.0327148	1.07593	0.835342	-0.0853652	-0.514436	-0.173989	9.27626	0.3411	4.84946	-0.00511291	-0.0064125	-0.00825753	-0.854492	0.0393066	-0.697998	-0.0417039	-0.0310381	-0.987873	-0.146301	-0.650021	2.66006	-8.79723	0.0164638	0.00241227	-0.0184038	-0.299805	-0.276367	1.04565	0.824509	0.146487	-0.526983	0.144965	9.19767	0.91007	4.09159	0.0113523	0.0086585	0.0171594	-0.792969	-0.306152	-0.684082	0.101751	-0.0281628	0.991343	0.0780548	-1.89135	1.34906	-9.42999	0.01381	0.00353704	-0.00660376	-0.270508	-0.176514	1.11938	
57	-0.557403	0.00899436	-0.830184	0.00404084	-8.5967	-0.191338	-3.39538	-0.00532749	-0.00748849	-0.0105279	0.816162	-0.14624	0.781006	-0.394163	0.0432684	-0.914244	-0.0831958	-6.70735	1.39426	-6.67576	0.0133552	0.00823472	-0.0346613	0.5625	-0.362305	1.06274	0.063822	-0.0173075	-0.996338	-0.0542	1.15338	1.02967	-8.70403	0.0479142	-0.00782437	-0.00529998	-0.510742	-0.148926	0.961426	-0.00779316	0.230491	-0.886034	0.402191	1.60317	-6.93145	-6.60867	0.0198439	0.0094594	0.00628266	-0.498535	0.687256	0.688477	0.0799031	0.212273	-0.973919	0.0061323	1.48028	0.224088	-9.67558	0.0174765	0.00659891	-0.014239	-0.541992	-0.25	0.953613	-0.111147	-0.143799	-0.584776	-0.790573	0.984622	9.83613	2.74585	0.0134385	0.00908914	-0.0302043	-0.564453	-1.02539	0.0939941	-0.229394	0.0529766	-0.971643	0.0219502	-3.82836	-0.4622	-8.26192	0.0276493	-0.00425754	-0.00921948	0.0822754	-0.0217285	1.07764	0.835346	-0.0855574	-0.514428	-0.173901	9.347	0.37026	4.76199	-0.018042	0.0103531	-0.00545936	-0.858643	0.0371094	-0.695801	-0.0417276	-0.0310633	-0.987884	-0.146217	-0.663663	2.65929	-8.80869	0.0139563	0.00331288	-0.0192225	-0.302002	-0.27417	1.04785	0.824672	0.146011	-0.526861	0.144964	9.23735	0.906572	4.08817	-0.00580623	0.0181999	0.0099672	-0.79541	-0.303955	-0.688721	0.101756	-0.0281142	0.991341	0.0780896	-1.87619	1.32439	-9.46989	-0.000390561	0.00454832	-0.001378	-0.272705	-0.178711	1.12183	
58	-0.557371	0.0090403	-0.830204	0.00419596	-8.59595	-0.100161	-3.37762	0.00577646	0.00429537	-0.0067374	0.813721	-0.141846	0.776611	-0.394151	0.0435105	-0.914262	-0.0829262	-6.71627	1.35489	-6.694	-0.00351821	0.0139326	-0.0355281	0.564697	-0.362305	1.05322	0.0637557	-0.0174925	-0.996297	-0.0549757	1.12335	0.935019	-8.76445	-0.0360047	-0.00038906	0.00192366	-0.512939	-0.148682	0.966064	-0.00802148	0.230389	-0.886021	0.402273	1.66117	-7.08118	-6.57616	-0.0023523	-0.000429512	0.00767165	-0.509521	0.682861	0.684082	0.0796685	0.212372	-0.973915	0.00639483	1.50543	0.334449	-9.60653	-0.00365931	-0.00432103	-0.01682	-0.543945	-0.252197	0.946777	-0.111321	-0.143759	-0.584976	-0.790407	0.99224	9.87067	2.75641	0.0106156	0.00991761	-0.0247675	-0.566406	-1.03198	0.0986328	-0.229927	0.0527713	-0.971522	0.0222338	-3.87533	-0.425063	-8.20759	0.047309	-0.0316937	-0.00480011	0.0825195	-0.0305176	1.08008	0.835192	-0.0858438	-0.514697	-0.173701	9.2879	0.344096	4.86988	0.0104811	0.00242371	-0.00261952	-0.86084	0.0371094	-0.693359	-0.0416753	-0.0309048	-0.987912	-0.146074	-0.641954	2.65247	-8.81055	0.0140869	0.00645965	-0.0187924	-0.302002	-0.27417	1.05249	0.824706	0.145849	-0.526804	0.145138	9.25628	0.850206	4.06001	0.00867712	0.0142672	0.0101337	-0.792969	-0.306152	-0.684082	0.101591	-0.0281859	0.991352	0.0781409	-1.8739	1.35913	-9.46355	-0.00503112	0.00925724	-0.00735203	-0.270508	-0.176514	1.12402	
59	-0.557289	0.00945414	-0.830254	0.00421958	-8.62997	-0.164195	-3.36843	-0.0162681	0.00365669	-0.0170745	0.815918	-0.141846	0.778809	-0.394455	0.0435732	-0.914162	-0.0825496	-6.76918	1.36281	-6.70867	-0.00261323	0.00883248	-0.0275379	0.569336	-0.366699	1.05811	0.0634052	-0.017783	-0.996323	-0.0548151	1.2249	1.00587	-8.72246	0.0144523	-0.000370756	0.0127829	-0.514893	-0.150879	0.963867	-0.00835867	0.230435	-0.885969	0.402354	1.65644	-6.86869	-6.58534	-0.00114676	-0.00505254	0.0026503	-0.50293	0.687256	0.688477	0.0795409	0.212297	-0.973943	0.00612309	1.52742	0.0571178	-9.60826	0.0157353	0.00718322	-0.014089	-0.541748	-0.252197	0.94458	-0.111539	-0.143862	-0.58473	-0.79054	0.981905	9.85161	2.78619	0.0143377	0.013397	-0.0169492	-0.566406	-1.02759	0.0898438	-0.231114	0.0524101	-0.971245	0.0228682	-3.93099	-0.441668	-8.28172	0.0414664	-0.0139527	-0.00545923	0.0805664	-0.0305176	1.08008	0.835211	-0.0861289	-0.514691	-0.173486	9.3119	0.343298	4.73836	0.00283498	0.0129761	-0.00398969	-0.856445	0.0371094	-0.695801	-0.0417177	-0.0309467	-0.987943	-0.145841	-0.660235	2.66255	-8.74954	0.020686	0.003792	-0.0195688	-0.299805	-0.27417	1.04785	0.82474	0.1459	-0.526629	0.145533	9.22267	0.912872	4.1247	0.017978	0.0163127	0.0158822	-0.799805	-0.302002	-0.686523	0.10155	-0.0282221	0.99139	0.0776958	-1.88098	1.34458	-9.45425	0.0261615	0.0101428	-0.00764201	-0.270508	-0.176514	1.12402	
60	-0.557085	0.00937911	-0.830391	0.00440459	-8.60001	-0.189426	-3.43778	0.0167916	0.00643219	0.00120296	0.815918	-0.139648	0.780762	-0.394729	0.0435886	-0.914072	-0.082225	-6.57926	1.30897	-6.66894	0.00292274	0.00220061	-0.0294707	0.564453	-0.35791	1.05542	0.0633516	-0.0178946	-0.996296	-0.0553272	1.17475	0.817898	-8.73448	0.00261194	-0.001774	-0.00814606	-0.508545	-0.148926	0.956787	-0.00833396	0.230399	-0.885974	0.402363	1.6295	-7.07428	-6.64661	0.00142957	0.00433951	0.000726049	-0.496094	0.682861	0.690674	0.0793956	0.212581	-0.973888	0.00692419	1.55181	0.235228	-9.56081	0.0268337	0.0117913	-0.0245695	-0.539551	-0.252197	0.946777	-0.111616	-0.143917	-0.584729	-0.79052	1.00424	9.69823	2.83776	0.00402527	0.00821016	-0.0172804	-0.566406	-1.03198	0.100586	-0.231469	0.0520787	-0.97117	0.0231919	-3.90518	-0.451543	-8.2066	0.0430335	-0.0181302	-0.00716155	0.0822754	-0.0239258	1.08643	0.835171	-0.0866801	-0.514668	-0.173473	9.35726	0.322628	4.83946	-0.00656816	0.013513	-0.006186	-0.858887	0.0415039	-0.697998	-0.0416358	-0.0310565	-0.98798	-0.145595	-0.651194	2.63895	-8.77615	0.0144933	0.00990358	-0.0156217	-0.299805	-0.276367	1.0481	0.824946	0.145589	-0.526344	0.145706	9.26824	0.889385	4.07106	-0.00514384	0.024111	0.0102002	-0.786377	-0.301758	-0.686523	0.101343	-0.0282792	0.991441	0.0772991	-1.88325	1.33811	-9.45218	0.0143629	0.018052	-0.0104891	-0.275391	-0.169922	1.12378	
61	-0.557196	0.00963559	-0.830313	0.00439826	-8.65694	-0.111973	-3.38057	-0.0155406	-0.0102718	-0.0142849	0.813721	-0.144043	0.780762	-0.394662	0.0436265	-0.914118	-0.0820182	-6.577	1.34468	-6.71243	0.00647678	0.0195507	-0.0288999	0.568848	-0.35791	1.05542	0.0631173	-0.0180344	-0.9963	-0.0554799	1.21371	0.996524	-8.71194	-0.0108518	-0.0155979	0.00553421	-0.506104	-0.157471	0.966309	-0.00868652	0.230417	-0.885979	0.402336	1.69419	-6.89611	-6.46844	0.00108645	-0.00583164	0.00651014	-0.50293	0.687256	0.690674	0.0793981	0.212569	-0.97389	0.00696611	1.62654	0.076074	-9.63771	0.00256032	0.00758972	-0.012733	-0.544189	-0.247803	0.953613	-0.111811	-0.143519	-0.585197	-0.790218	1.02165	9.81532	2.68456	0.000144112	0.0073375	-0.0237516	-0.562256	-1.02759	0.0939941	-0.232473	0.051793	-0.970942	0.0233534	-3.8613	-0.428488	-8.26004	0.0276267	-0.0292341	-0.00229526	0.0847168	-0.0283203	1.08228	0.83524	-0.0867493	-0.514579	-0.173368	9.24886	0.340205	4.76991	0.00368255	0.0216741	-0.00642296	-0.856445	0.0371094	-0.695801	-0.0416332	-0.0311287	-0.987997	-0.145464	-0.645793	2.651	-8.75136	0.0162949	0.00185028	-0.0185641	-0.306641	-0.274414	1.05249	0.824989	0.145539	-0.526215	0.145974	9.15137	0.892772	4.09917	0.00805613	0.0130552	0.0104028	-0.797607	-0.299561	-0.686523	0.101176	-0.0283511	0.991478	0.0770085	-1.86666	1.31495	-9.46588	0.0101593	0.00916451	-0.00657516	-0.272949	-0.172119	1.12378	
62	-0.557228	0.00979308	-0.83029	0.00437712	-8.5835	-0.234429	-3.39523	-0.00880475	-0.00465567	-0.0114467	0.818115	-0.141846	0.778809	-0.394637	0.0436954	-0.914154	-0.081703	-6.81747	1.33521	-6.75247	-0.0026117	0.010185	-0.0270136	0.56665	-0.353516	1.05762	0.0629805	-0.0181958	-0.996293	-0.0557021	1.12974	0.963249	-8.73381	0.00287475	-0.000235521	-0.000265917	-0.508545	-0.15332	0.970703	-0.0086433	0.230355	-0.886023	0.402274	1.61074	-7.0319	-6.64344	-0.00178436	0.00483688	0.00178167	-0.494141	0.687256	0.688477	0.0792691	0.212687	-0.973872	0.00737866	1.50771	0.26693	-9.65068	0.0245315	0.00688535	-0.021817	-0.541992	-0.25	0.946777	-0.111876	-0.143571	-0.585455	-0.790009	1.01533	9.72383	2.80444	0.0288305	0.00810543	-0.0213433	-0.566406	-1.03198	0.100586	-0.233109	0.0516341	-0.97079	0.0236953	-3.88425	-0.494926	-8.29922	0.0262506	-0.0203444	-0.00500767	0.0866699	-0.026123	1.07568	0.835548	-0.0865939	-0.514221	-0.173027	9.28199	0.331582	4.85828	0.0210408	0.0274344	-0.00670307	-0.852295	0.0393066	-0.697998	-0.0416332	-0.0311287	-0.987997	-0.145464	-0.645793	2.651	-8.75136	0.0162949	0.00185028	-0.0185641	-0.306641	-0.274414	1.05249	0.825073	0.145485	-0.526079	0.146045	9.20831	0.908819	4.16005	0.00249665	0.0245766	0.00652175	-0.790771	-0.303955	-0.686523	0.101252	-0.0283052	0.991472	0.07701	-1.87355	1.31716	-9.46167	0.00204897	-0.00101398	-0.00250247	-0.274902	-0.178711	1.12183	
63	-0.557213	0.00978498	-0.8303	0.00444127	-8.6005	-0.207158	-3.37977	0.0047837	0.000585567	-0.00360358	0.811768	-0.14624	0.776611	-0.39488	0.0436801	-0.914062	-0.0815651	-6.67743	1.32555	-6.69196	-0.00362289	0.000530184	-0.0227339	0.568848	-0.355713	1.05542	0.0628003	-0.0182431	-0.996297	-0.055813	1.17157	0.998156	-8.77709	-0.00348787	-0.00765257	-0.00109988	-0.506348	-0.146729	0.968262	-0.00876245	0.230142	-0.886079	0.40227	1.64524	-6.95678	-6.64624	0.00620482	0.0111318	0.00926435	-0.498535	0.685059	0.686279	0.079286	0.212741	-0.973859	0.00733223	1.53583	0.11091	-9.6286	0.00202165	0.00586963	-0.0159577	-0.541992	-0.247803	0.942139	-0.11189	-0.14354	-0.585473	-0.789999	0.941619	9.85698	2.69744	7.06093e-05	0.0164194	-0.0179509	-0.562012	-1.02979	0.102783	-0.234357	0.0513406	-0.970505	0.0236655	-3.84755	-0.449969	-8.23193	0.019853	-0.0480054	-0.00369804	0.0888672	-0.0239258	1.07568	0.835403	-0.0869874	-0.514384	-0.173044	9.35739	0.400253	4.75569	-0.0152877	0.00634186	-0.0126295	-0.858643	0.0371094	-0.695801	-0.0416207	-0.0309508	-0.988008	-0.145431	-0.659903	2.65421	-8.80788	-0.00257442	0.00866422	-0.0173872	-0.297852	-0.267334	1.04565	0.825113	0.14528	-0.526035	0.146179	9.2828	0.869945	4.10849	0.000402486	0.0124666	0.0117292	-0.790771	-0.303955	-0.681885	0.101167	-0.028337	0.991501	0.0767358	-1.88689	1.32049	-9.45349	0.0209732	0.0146501	-0.00933994	-0.263916	-0.174316	1.11719	
64	-0.557158	0.00980964	-0.830336	0.00468133	-8.62503	-0.16355	-3.41218	0.00281003	-0.00545268	-0.00801692	0.820557	-0.143799	0.778809	-0.394916	0.0436262	-0.914058	-0.0814639	-6.63637	1.3457	-6.65296	-0.00636543	0.0154941	-0.0189791	0.569092	-0.360107	1.05542	0.0626797	-0.0182247	-0.996309	-0.0557479	1.20169	0.810791	-8.64346	0.0113377	0.00416569	-0.00619622	-0.510742	-0.148926	0.970459	-0.00881335	0.230158	-0.886035	0.402358	1.69859	-6.88915	-6.58802	0.0114551	0.00331391	-0.000703419	-0.498779	0.689453	0.688477	0.0791763	0.212739	-0.973866	0.00757509	1.59247	0.20945	-9.61092	0.0132122	0.00710944	-0.0130309	-0.541748	-0.252197	0.948975	-0.112007	-0.143361	-0.585368	-0.790093	1.02067	9.75736	2.78213	-0.0106587	0.0141664	-0.0224996	-0.562256	-1.02539	0.0961914	-0.234357	0.0513406	-0.970505	0.0236655	-3.84755	-0.449969	-8.23193	0.019853	-0.0480054	-0.00369804	0.0888672	-0.0239258	1.07568	0.835509	-0.0870909	-0.51421	-0.172996	9.26298	0.238285	4.76876	0.00851721	0.0322369	-0.0141701	-0.856689	0.0415039	-0.697998	-0.0416028	-0.0309743	-0.987995	-0.145517	-0.642043	2.64112	-8.80556	-0.00035961	0.00726015	-0.0187103	-0.302246	-0.269775	1.05005	0.825071	0.145313	-0.526038	0.146375	9.13754	0.929606	4.16977	0.00103589	0.0118728	0.00607259	-0.792969	-0.303955	-0.686523	0.101017	-0.0283958	0.991525	0.076598	-1.86044	1.31451	-9.46254	0.00389089	0.00911724	-0.00472806	-0.272949	-0.172119	1.12158	
65	-0.557246	0.00984025	-0.830276	0.00469478	-8.62249	-0.166197	-3.37346	-0.00110729	-0.00436174	-0.000976782	0.815918	-0.141846	0.780762	-0.394961	0.0435791	-0.914062	-0.0812205	-6.78693	1.32425	-6.7126	-0.00138673	0.00614859	-0.0210644	0.571289	-0.362305	1.0603	0.0628484	-0.0183631	-0.996262	-0.0563495	1.11775	1.0174	-8.6628	-0.0417197	0.00736483	0.00121701	-0.506348	-0.15332	0.968262	-0.00905154	0.230165	-0.886126	0.402147	1.58776	-7.18085	-6.58268	0.00653111	-0.00166429	0.00740465	-0.500732	0.685059	0.690674	0.079241	0.212786	-0.973854	0.00713981	1.51554	0.0928381	-9.67465	-0.0139938	0.0026519	-0.0150229	-0.546387	-0.247803	0.942139	-0.112096	-0.143275	-0.585346	-0.790112	0.969163	9.80014	2.75184	-0.0121303	0.0142955	-0.0173288	-0.562012	-1.02979	0.100586	-0.235587	0.0509517	-0.970219	0.0240549	-3.97137	-0.462634	-8.22376	0.0259679	-0.0263994	-0.00255106	0.0910645	-0.026123	1.08203	0.835466	-0.0869441	-0.514356	-0.172844	9.28997	0.403848	4.82196	-0.00549599	-0.0100116	-0.017073	-0.856445	0.0393066	-0.691162	-0.0416268	-0.0306898	-0.988029	-0.145338	-0.646929	2.65689	-8.77323	0.0100431	0.00341411	-0.0225118	-0.299805	-0.271973	1.04565	0.824996	0.145277	-0.526137	0.146478	9.24537	0.809249	4.08875	0.00747611	-0.002998	0.00822515	-0.790771	-0.306152	-0.688721	0.10109	-0.0283588	0.991531	0.0764369	-1.88527	1.31864	-9.47308	0.00843167	0.00309512	-0.00639412	-0.275391	-0.169922	1.11694	
66	-0.557304	0.0100405	-0.830235	0.00457982	-8.60047	-0.167998	-3.39494	-0.0111822	-0.00479529	-0.00799068	0.813721	-0.141846	0.780762	-0.394889	0.0435051	-0.914084	-0.0813713	-6.76111	1.32266	-6.75074	-0.0161024	0.0172718	-0.0123005	0.569092	-0.362305	1.05322	0.0627411	-0.0184617	-0.996238	-0.0568527	1.14201	0.822345	-8.87589	-0.0383192	-0.00399163	0.000842033	-0.506348	-0.155518	0.963867	-0.0092189	0.2302	-0.886209	0.401942	1.59733	-7.02913	-6.64273	0.00990663	-0.00945061	-0.00117032	-0.50293	0.685059	0.692871	0.0792745	0.212918	-0.973818	0.00770058	1.49621	0.185456	-9.64228	0.014466	0.0179546	-0.0145947	-0.539551	-0.254395	0.948975	-0.112115	-0.143217	-0.585628	-0.789911	0.99019	9.82434	2.78062	0.0177921	0.0166641	-0.0197274	-0.566406	-1.03198	0.0964355	-0.236654	0.0507478	-0.969972	0.023948	-3.98732	-0.438123	-8.2695	0.0172526	-0.0297869	-0.0068793	0.0952148	-0.0239258	1.07983	0.835192	-0.0875076	-0.514656	-0.172992	9.32168	0.268058	4.75847	-0.00422689	0.0078917	-0.0153682	-0.856689	0.0393066	-0.693359	-0.0416881	-0.0305174	-0.988036	-0.145313	-0.644714	2.65526	-8.80225	0.0045315	0.0031477	-0.0198477	-0.299805	-0.276611	1.05029	0.825041	0.145407	-0.525992	0.146615	9.26003	0.93818	4.06196	0.00239536	0.0158527	0.00459845	-0.790771	-0.303955	-0.684326	0.100853	-0.0284019	0.991559	0.0763711	-1.87461	1.30754	-9.45773	0.00676092	0.0188505	-0.00633031	-0.279785	-0.172119	1.12378	
67	-0.557247	0.0097824	-0.830276	0.00465533	-8.63699	-0.196755	-3.41284	0.0103576	0.00142667	0.00942041	0.813721	-0.139648	0.774414	-0.394919	0.0433941	-0.914069	-0.0814505	-6.6549	1.30243	-6.67753	-0.00744222	0.0174938	-0.0178764	0.573242	-0.360107	1.05322	0.0627321	-0.01835	-0.996241	-0.0568468	1.10722	0.886126	-8.67146	-0.00937879	0.00168077	-0.00930236	-0.510498	-0.155273	0.96167	-0.00936522	0.230199	-0.886206	0.401945	1.5921	-6.91148	-6.65913	0.00622269	-0.00457192	0.0046746	-0.500732	0.685059	0.692871	0.0791706	0.212996	-0.973813	0.00723011	1.586	0.116352	-9.68604	-0.0115667	-0.00743891	-0.0179126	-0.537354	-0.254395	0.942139	-0.112055	-0.143025	-0.585498	-0.790051	1.00141	9.80484	2.66963	-0.00264281	0.0227311	-0.0179863	-0.568604	-1.02979	0.0964355	-0.237378	0.0505308	-0.969815	0.0236149	-4.04075	-0.445201	-8.18972	0.00883469	-0.0287546	-0.00659975	0.0952148	-0.0239258	1.07983	0.835514	-0.08713	-0.514235	-0.172879	9.28709	0.293539	4.78971	0.0062336	0.0374769	-0.0198414	-0.852295	0.0393066	-0.697998	-0.0417681	-0.0306242	-0.98807	-0.145039	-0.655249	2.64617	-8.79377	0.0231551	0.00272796	-0.0181128	-0.302246	-0.271973	1.04346	0.824963	0.145604	-0.526019	0.146762	9.17254	0.85182	4.13725	0.0231311	0.00293234	0.00289576	-0.788574	-0.306152	-0.686523	0.100708	-0.0284208	0.991592	0.0761265	-1.84906	1.30547	-9.4304	0.0121102	0.00550511	-0.00721349	-0.268555	-0.169922	1.11475	
68	-0.557262	0.00961775	-0.830269	0.00449941	-8.59905	-0.178613	-3.39215	-0.0051823	-0.0013118	0.00952404	0.815918	-0.139648	0.780762	-0.39498	0.0431496	-0.914048	-0.0815243	-6.7667	1.38624	-6.70875	-0.00842899	0.0102488	-0.00778741	0.566895	-0.360107	1.05542	0.0627089	-0.0184244	-0.996218	-0.0572599	1.21051	0.856255	-8.77812	-0.0306911	0.00195936	-0.00024696	-0.508545	-0.153076	0.961426	-0.00964545	0.230525	-0.886256	0.401642	1.64248	-7.00447	-6.58284	-0.007235	-0.0113801	-0.00889715	-0.505127	0.687256	0.688477	0.0791649	0.212999	-0.973812	0.00744756	1.52928	0.191185	-9.66171	0.0169691	0.00987291	-0.0132354	-0.541992	-0.247803	0.953613	-0.112105	-0.143114	-0.585316	-0.790162	1.01478	9.73647	2.81806	-0.00700112	0.00842696	-0.0106794	-0.560059	-1.02979	0.0942383	-0.237804	0.0504161	-0.969721	0.0234235	-4.04457	-0.41605	-8.18283	0.0132735	-0.00604704	-0.0114418	0.0974121	-0.026123	1.08203	0.83569	-0.0871168	-0.513907	-0.173013	9.31528	0.375164	4.81817	0.00644928	0.0320508	-0.0185228	-0.854492	0.0437012	-0.693604	-0.0418742	-0.0306787	-0.988081	-0.144919	-0.648669	2.62881	-8.79093	0.00562106	0.00171866	-0.0184286	-0.302002	-0.278809	1.04565	0.824985	0.145861	-0.525911	0.146767	9.27575	0.863434	4.10748	0.017593	0.013499	-0.00485295	-0.791016	-0.299561	-0.686523	0.100764	-0.0283642	0.991581	0.0762229	-1.86738	1.31697	-9.47477	-0.00323274	0.00460448	-0.00260534	-0.272949	-0.174316	1.11475	
69	-0.557095	0.00934336	-0.830385	0.00445297	-8.61128	-0.110249	-3.41848	0.00762445	0.00760131	0.00958614	0.818115	-0.141846	0.780762	-0.394892	0.043061	-0.914072	-0.0817161	-6.75404	1.29938	-6.75201	-0.0185675	0.0182717	-0.00720831	0.56665	-0.355713	1.06006	0.0627422	-0.0186218	-0.99619	-0.0576399	1.18987	1.01962	-8.65304	-0.0110922	0.000717837	0.00341887	-0.510498	-0.157471	0.973145	-0.00973982	0.230573	-0.886283	0.401552	1.58254	-6.94765	-6.55114	-0.00275641	-0.0050915	-0.000221866	-0.498291	0.682861	0.684082	0.0793026	0.213081	-0.973785	0.00710994	1.56028	0.0587842	-9.62446	-0.0158322	0.0081126	-0.0196235	-0.543945	-0.252197	0.94458	-0.11199	-0.14305	-0.585442	-0.790097	0.963816	9.87047	2.72848	0.0146972	0.0239476	-0.012476	-0.566406	-1.02979	0.0942383	-0.238391	0.0504148	-0.969583	0.0231493	-4.00452	-0.50255	-8.19609	0.00659682	-0.0168621	-0.014775	0.0993652	-0.0217285	1.07983	0.83571	-0.0872024	-0.513832	-0.17309	9.32025	0.32174	4.83489	-0.00471335	0.0200298	-0.0185737	-0.856689	0.0415039	-0.691162	-0.0418928	-0.0307407	-0.988064	-0.145013	-0.657956	2.63139	-8.78852	0.000253185	0.0033042	-0.0154711	-0.297607	-0.269531	1.05005	0.825025	0.145888	-0.525869	0.146671	9.28263	0.837756	4.10698	0.000285017	0.0131146	-0.00615575	-0.788818	-0.301758	-0.684326	0.100495	-0.0284022	0.991598	0.0763344	-1.86908	1.30507	-9.45665	-0.00683342	0.020354	-0.00722795	-0.275146	-0.172119	1.11938	
70	-0.556842	0.0091341	-0.830557	0.00422117	-8.59372	-0.18095	-3.42	-0.00302496	0.0104101	0.0103923	0.816162	-0.145996	0.778809	-0.395042	0.0427069	-0.914035	-0.0816002	-6.9117	1.3809	-6.78303	0.0113844	-0.000878743	-0.00999214	0.568848	-0.355713	1.06006	0.0627852	-0.0185714	-0.996148	-0.0583329	1.15431	0.994804	-8.77336	-0.00100036	0.00846832	-0.00857944	-0.508301	-0.161865	0.966309	-0.00978073	0.230805	-0.886325	0.401325	1.63032	-7.07909	-6.629	0.0226104	-0.00170214	-0.0121283	-0.496094	0.682861	0.692871	0.0793149	0.213084	-0.973786	0.00678239	1.5007	0.266891	-9.77933	-0.0326985	0.00379867	-0.0133182	-0.539551	-0.254395	0.946777	-0.111909	-0.143102	-0.585152	-0.790313	0.969238	9.957	2.73883	-0.0100325	0.0160426	-0.00638241	-0.564209	-1.02979	0.092041	-0.237777	0.0505021	-0.969737	0.0228462	-4.04972	-0.44153	-8.28736	0.00712512	0.0362895	-0.0199774	0.0976562	-0.0280762	1.08228	0.835699	-0.0869902	-0.513865	-0.173156	9.31355	0.346274	4.75111	0.0157464	0.0146858	-0.0235787	-0.858887	0.0393066	-0.702637	-0.0418508	-0.0308256	-0.988044	-0.145149	-0.661917	2.64077	-8.78078	0.00304654	0.00756306	-0.0181941	-0.302002	-0.278809	1.0481	0.825036	0.145992	-0.52583	0.146644	9.23797	0.912796	4.07471	0.00817056	0.011662	-0.00436649	-0.797607	-0.303955	-0.686523	0.100311	-0.0284071	0.991612	0.0763953	-1.85283	1.31105	-9.50456	-0.00333419	0.019809	-0.00438647	-0.277344	-0.174316	1.11938	
71	-0.556743	0.00890231	-0.830627	0.00414732	-8.59159	-0.148348	-3.41396	0.00522538	0.00876945	0.0168254	0.811768	-0.14624	0.778809	-0.395415	0.0424823	-0.913876	-0.0816928	-6.68535	1.39399	-6.69851	-0.0142964	-0.00677739	-0.0131618	0.570801	-0.351318	1.06226	0.0628676	-0.0184621	-0.996171	-0.0578803	1.25051	1.00997	-8.61246	0.0337503	0.000442278	-0.00803532	-0.506104	-0.159668	0.973145	-0.00979759	0.230881	-0.886378	0.401162	1.65664	-6.99432	-6.58562	-0.00982196	-0.000232326	-0.00386809	-0.500488	0.680664	0.686279	0.0794152	0.213061	-0.973789	0.0058325	1.5699	0.100575	-9.58578	-0.0268881	0.00421751	-0.0150263	-0.535156	-0.256592	0.94458	-0.11168	-0.143161	-0.584708	-0.790664	1.01503	9.77841	2.71854	-0.0199491	0.016621	-0.00261819	-0.562012	-1.03418	0.0942383	-0.237777	0.0505021	-0.969737	0.0228462	-4.04972	-0.44153	-8.28736	0.00712512	0.0362895	-0.0199774	0.0976562	-0.0280762	1.08228	0.836054	-0.0863406	-0.513404	-0.173133	9.24997	0.354352	4.83886	0.0118906	0.0335358	-0.0298815	-0.854248	0.0371094	-0.695801	-0.041768	-0.0309208	-0.988036	-0.145205	-0.655876	2.64524	-8.81299	0.000858536	0.00658208	-0.0176981	-0.299805	-0.276611	1.05029	0.825001	0.146367	-0.525822	0.146496	9.18399	0.829042	4.15758	0.00656467	0.00331131	-0.00959314	-0.790771	-0.303955	-0.686523	0.100077	-0.0284018	0.991627	0.0765092	-1.8546	1.30225	-9.45039	-0.007191	0.0156411	-0.00385188	-0.2771	-0.178711	1.11719	
72	-0.556862	0.00847274	-0.830552	0.00399883	-8.66142	-0.0986748	-3.47989	0.00129378	-0.0146374	0.0145044	0.813965	-0.144043	0.776611	-0.39543	0.0421938	-0.913863	-0.0819101	-6.6355	1.27266	-6.74736	-0.00512687	0.0158194	-0.00803175	0.5625	-0.35791	1.0603	0.0628842	-0.0184577	-0.996141	-0.0583747	1.20522	1.08737	-8.6756	-0.0366471	0.00661038	-0.0065006	-0.506348	-0.151123	0.961426	-0.00987021	0.230851	-0.886445	0.40103	1.74291	-6.96936	-6.62221	0.00183738	0.00599029	0.00617523	-0.496338	0.685059	0.688477	0.0794432	0.212994	-0.973803	0.00548377	1.63795	0.299304	-9.61963	-0.00583876	0.00337117	-0.0161913	-0.548584	-0.25	0.948975	-0.111385	-0.143099	-0.584547	-0.790836	1.07328	9.78089	2.72495	0.00839218	0.025701	-0.00781504	-0.566406	-1.02979	0.092041	-0.236888	0.0509389	-0.969937	0.0226041	-3.95715	-0.475688	-8.3201	0.0100324	0.0137697	-0.0250373	0.0957031	-0.034668	1.08447	0.835676	-0.0866673	-0.513837	-0.17351	9.22293	0.255678	4.8417	0.00677039	-0.00165129	-0.0281883	-0.858887	0.0415039	-0.702881	-0.0417712	-0.0307242	-0.988034	-0.145259	-0.649703	2.63968	-8.78587	0.00120279	0.00394059	-0.0179734	-0.302002	-0.27417	1.03906	0.824814	0.146825	-0.526035	0.146325	9.12237	0.927145	4.18106	0.0172252	-0.00490855	-0.0108482	-0.792969	-0.306152	-0.684082	0.100161	-0.0283778	0.991586	0.076933	-1.82566	1.31589	-9.45503	-0.0163258	-0.00702862	-0.000977761	-0.277344	-0.174316	1.12402	
73	-0.557224	0.00808591	-0.830314	0.00375767	-8.58104	-0.127755	-3.3675	-0.000994369	-0.0167425	0.0170016	0.820557	-0.145996	0.778809	-0.395579	0.0420371	-0.913804	-0.0819253	-6.72734	1.40996	-6.69516	-0.0123231	0.000328591	-0.0115981	0.568848	-0.35791	1.05786	0.0630316	-0.018287	-0.996138	-0.0583245	1.11859	0.941709	-8.73968	0.00305371	0.00741967	-0.014786	-0.508301	-0.157471	0.96167	-0.00986124	0.231082	-0.886584	0.40059	1.60896	-6.98083	-6.58841	-0.00214926	-0.00645649	-0.013262	-0.500732	0.687256	0.690674	0.0794815	0.212863	-0.973832	0.00487735	1.53734	0.121138	-9.72154	-0.0189415	0.0058386	-0.00528778	-0.541748	-0.254395	0.946777	-0.111215	-0.143141	-0.584108	-0.791176	0.971222	9.88642	2.76914	-0.0182332	0.0202633	-0.00477539	-0.56665	-1.02759	0.0854492	-0.235864	0.0511417	-0.970187	0.0221271	-3.99383	-0.37349	-8.20673	-0.00727857	0.0592341	-0.0186291	0.0888672	-0.026123	1.08423	0.835822	-0.0859188	-0.513717	-0.173532	9.26922	0.384672	4.89115	0.032768	0.0351891	-0.0351722	-0.8479	0.0371094	-0.700439	-0.0419022	-0.0307081	-0.988006	-0.145414	-0.644646	2.65886	-8.78921	-0.00554218	-0.0046412	-0.0230713	-0.302002	-0.276611	1.04785	0.824605	0.147186	-0.526313	0.146144	9.24535	0.976738	4.07258	0.00147368	-0.00794672	-0.00871693	-0.792969	-0.306152	-0.679688	0.100635	-0.0282672	0.991519	0.0772256	-1.85988	1.32457	-9.44166	-0.00840616	-0.0164463	-0.00169366	-0.277344	-0.176514	1.12402	
74	-0.557489	0.00785853	-0.83014	0.00347143	-8.61745	-0.138307	-3.39758	-0.00118705	-0.0123914	0.0102515	0.813965	-0.144043	0.778809	-0.39573	0.0417594	-0.913724	-0.0822371	-6.78302	1.38166	-6.65401	-0.0133908	0.00353796	-0.00757053	0.569092	-0.362305	1.05322	0.0630927	-0.018161	-0.996133	-0.0583877	1.13545	1.1751	-8.71309	-0.019386	0.00558247	-0.00104971	-0.510498	-0.159668	0.968506	-0.00970486	0.230995	-0.886822	0.400117	1.56921	-6.98271	-6.64814	-0.0130514	0.00869399	0.00762484	-0.498535	0.685059	0.695068	0.0794851	0.212778	-0.973851	0.00468081	1.46433	0.331922	-9.61141	-0.0167211	0.00326982	-0.00843211	-0.541504	-0.258789	0.946777	-0.111059	-0.143126	-0.583476	-0.791667	1.01383	9.72674	2.82743	-0.0239056	0.0207701	-0.00179598	-0.568604	-1.03198	0.0878906	-0.235037	0.0513582	-0.970387	0.0216574	-3.95401	-0.468303	-8.23803	0.00313625	0.0433277	-0.0203375	0.0913086	-0.0324707	1.08447	0.835697	-0.0858075	-0.513783	-0.173995	9.36448	0.333504	4.81687	-0.0100268	0.00738269	-0.0378285	-0.850098	0.0415039	-0.698242	-0.0422263	-0.030479	-0.987923	-0.145933	-0.656585	2.66207	-8.80052	-0.017617	0.0039034	-0.0165146	-0.302002	-0.276367	1.04565	0.824453	0.147296	-0.526601	0.145849	9.29992	0.857113	4.02734	0.00136819	0.00206352	-0.00916009	-0.795166	-0.30835	-0.688721	0.101025	-0.0281249	0.991458	0.0775452	-1.85442	1.34116	-9.47186	-0.0147793	-0.00591485	0.000756624	-0.275146	-0.174316	1.12842	
75	-0.557563	0.00755	-0.830093	0.00339865	-8.62659	-0.131823	-3.41471	0.00473496	-0.00282996	0.0111281	0.813721	-0.141846	0.776611	-0.395898	0.0414559	-0.913642	-0.0824893	-6.6995	1.35077	-6.6188	-0.0141121	0.0141104	-0.0013912	0.56665	-0.35791	1.05786	0.0630758	-0.018048	-0.996163	-0.057914	1.18353	0.832489	-8.76015	0.0606793	0.00697237	-0.0049998	-0.506348	-0.15332	0.970703	-0.00962526	0.230992	-0.886891	0.399967	1.66471	-7.02129	-6.69907	0.000365465	0.00351279	-0.00303049	-0.493896	0.682861	0.688477	0.0795039	0.212763	-0.973856	0.00384568	1.52012	0.338262	-9.63011	-0.00601402	0.00111767	-0.010667	-0.543701	-0.258789	0.94458	-0.110792	-0.14308	-0.583197	-0.791918	1.02048	9.712	2.78042	-0.0268392	0.0150445	0.00018233	-0.566406	-1.03198	0.0898438	-0.234462	0.0516212	-0.970522	0.0212275	-3.97767	-0.387591	-8.14977	-0.00312814	0.0252345	-0.0198551	0.0910645	-0.026123	1.08203	0.835702	-0.0854428	-0.513788	-0.174136	9.26848	0.365669	4.83846	0.0270377	0.0339123	-0.0260871	-0.860596	0.0327148	-0.695557	-0.0422378	-0.0305284	-0.987872	-0.146266	-0.643881	2.67479	-8.76761	0.00101879	0.00457427	-0.0177355	-0.297363	-0.276367	1.0481	0.824267	0.147786	-0.526811	0.145646	9.21885	0.979635	4.06138	0.00681154	-0.0067953	-0.0131023	-0.790771	-0.306152	-0.681885	0.101125	-0.028072	0.991419	0.077936	-1.86005	1.35506	-9.44267	-0.0116495	0.00446245	-0.00216199	-0.272705	-0.176514	1.12158	
76	-0.557587	0.00729582	-0.83008	0.00324034	-8.56405	-0.117469	-3.35629	-0.00560922	-0.000313572	0.0105667	0.816406	-0.150391	0.781006	-0.396027	0.0410935	-0.913588	-0.0826476	-6.71385	1.3275	-6.65562	-0.0120698	0.00182607	-0.00705673	0.566895	-0.360107	1.0603	0.0630656	-0.0179042	-0.996207	-0.0572125	1.15994	1.05931	-8.63874	-0.0102752	0.00416688	-0.00793513	-0.510498	-0.155273	0.9729	-0.00963185	0.231036	-0.886834	0.400069	1.59177	-6.85448	-6.47303	-0.00244387	0.00809708	-0.000879331	-0.49585	0.678467	0.692871	0.0795367	0.212789	-0.973849	0.00366058	1.42415	0.266305	-9.59672	0.0121487	0.00379794	-0.0194505	-0.543945	-0.252197	0.946777	-0.1106	-0.143144	-0.582867	-0.792177	0.951905	9.78208	2.78952	-0.00993076	0.0171377	-0.00739337	-0.568848	-1.02319	0.0895996	-0.233356	0.0517899	-0.970787	0.0208637	-3.94511	-0.393119	-8.17661	-0.0022818	0.0537783	-0.0222451	0.0869141	-0.0305176	1.08447	0.835778	-0.0850944	-0.513663	-0.174309	9.33561	0.361215	4.82478	0.0104503	0.0264284	-0.0292493	-0.852051	0.0371094	-0.693359	-0.0422847	-0.0306018	-0.987864	-0.146289	-0.653301	2.67059	-8.79452	0.00885258	0.00389058	-0.0172558	-0.299805	-0.276367	1.04565	0.824221	0.147985	-0.526925	0.145291	9.24544	0.898067	4.06406	0.0031003	0.00392849	-0.0114591	-0.78833	-0.30835	-0.681885	0.101066	-0.0280294	0.991415	0.0780793	-1.87595	1.33055	-9.47284	-0.00100314	0.00677698	-0.0050021	-0.274902	-0.178711	1.12183	
77	-0.557405	0.00691758	-0.830206	0.00307438	-8.65399	-0.106877	-3.43133	0.00588239	0.0061592	0.0156047	0.816162	-0.148193	0.776611	-0.396027	0.0410935	-0.913588	-0.0826476	-6.71385	1.3275	-6.65562	-0.0120698	0.00182607	-0.00705673	0.566895	-0.360107	1.0603	0.0632634	-0.0179996	-0.996152	-0.0579148	1.10009	0.879733	-8.71863	-0.0540472	0.020511	0.00166089	-0.503906	-0.159912	0.970703	-0.0095416	0.231159	-0.88704	0.399543	1.6428	-7.08486	-6.72871	0.00488734	-0.00346941	-0.00597623	-0.491211	0.674072	0.690918	0.0795769	0.212824	-0.973839	0.0031751	1.58271	0.362024	-9.66673	-0.0396078	0.00110129	-0.0201237	-0.539551	-0.254395	0.951416	-0.110379	-0.143233	-0.582496	-0.792464	1.04645	9.94522	2.85818	-0.0066425	0.0244929	-0.0027469	-0.566406	-1.03198	0.0898438	-0.232937	0.0520411	-0.970881	0.0205251	-3.86177	-0.4055	-8.31595	-0.000342718	0.0294381	-0.0213039	0.0910645	-0.0283203	1.08423	0.835938	-0.0846255	-0.513495	-0.174265	9.29899	0.430695	4.83129	0.00206972	0.0220323	-0.024968	-0.856201	0.0327148	-0.697998	-0.0422067	-0.0307018	-0.987861	-0.146313	-0.656862	2.66565	-8.80892	0.00296504	0.00953778	-0.0161665	-0.299805	-0.271729	1.04126	0.824234	0.148275	-0.526869	0.145125	9.2128	0.899145	4.08561	0.0158156	0.00500337	-0.0108213	-0.795166	-0.306152	-0.681885	0.100859	-0.0279865	0.99141	0.0784297	-1.86537	1.34261	-9.47114	-0.0117021	0.0121742	-0.00116524	-0.270508	-0.178711	1.12183	
78	-0.557294	0.00665977	-0.830284	0.00276469	-8.63293	-0.0816399	-3.37721	-0.0107035	0.00575113	0.0141841	0.811768	-0.148193	0.774414	-0.395842	0.0411698	-0.913611	-0.0832363	-6.80169	1.3987	-6.71489	-0.0271422	0.00764598	-0.00361436	0.569092	-0.362305	1.05566	0.0631925	-0.0181524	-0.996152	-0.0579592	1.16769	1.08702	-8.75508	-0.000141095	-0.00177863	0.0031806	-0.510498	-0.159668	0.966309	-0.00960689	0.231412	-0.886995	0.399494	1.59587	-6.88241	-6.68151	0.0125037	-0.0024556	-0.00862876	-0.502686	0.680664	0.688477	0.0796932	0.212829	-0.973831	0.00231848	1.59155	0.239399	-9.53557	-0.0359017	0.00697891	-0.0149643	-0.539307	-0.258789	0.94458	-0.110229	-0.143196	-0.582284	-0.792648	1.07027	9.77607	2.88384	0.0029109	0.0180502	-0.0096088	-0.568604	-1.02979	0.0856934	-0.232383	0.0524741	-0.971004	0.0199153	-3.87246	-0.396309	-8.29778	-0.0093265	0.0263634	-0.0282197	0.0847168	-0.0305176	1.07788	0.83595	-0.0846319	-0.513396	-0.174496	9.27157	0.330885	4.81536	0.00454514	0.0240938	-0.0260337	-0.858643	0.0349121	-0.705078	-0.0421588	-0.030795	-0.987851	-0.14637	-0.664616	2.68968	-8.76461	0.0118118	0.00593972	-0.019425	-0.297363	-0.276367	1.05029	0.824249	0.148634	-0.526765	0.145053	9.20594	0.961884	4.10186	0.010654	0.00943202	-0.00600375	-0.799561	-0.306152	-0.677246	0.100726	-0.0279765	0.991383	0.0789445	-1.85722	1.3368	-9.43304	-0.0240497	0.0135881	-0.000961786	-0.272705	-0.176514	1.12402	
79	-0.557256	0.00636954	-0.830313	0.00247591	-8.61463	-0.0999035	-3.41705	0.0020448	-0.000641837	0.0143972	0.814209	-0.150391	0.781006	-0.395944	0.0409488	-0.913541	-0.0836255	-6.67069	1.35509	-6.70159	-0.0147157	0.00364572	-0.0119926	0.571045	-0.35791	1.05786	0.0632137	-0.0179048	-0.996167	-0.0577512	1.22799	1.06741	-8.7765	-0.00466083	0.0127342	-0.0041825	-0.508545	-0.15332	0.968262	-0.00957943	0.231702	-0.887014	0.399285	1.66831	-6.96704	-6.5824	0.0131449	-0.00205319	-0.0111552	-0.498291	0.682861	0.695068	0.0798129	0.212887	-0.973809	0.0020517	1.52338	0.378998	-9.75459	-0.0121631	0.00352588	-0.0149273	-0.535156	-0.256592	0.94458	-0.110105	-0.143199	-0.582102	-0.792797	1.05478	9.99313	2.84167	-0.0140406	0.0199205	-0.00363439	-0.568604	-1.02979	0.0876465	-0.23187	0.0528158	-0.971116	0.0195001	-3.88305	-0.356359	-8.2413	-0.00150954	0.0332854	-0.025569	0.0852051	-0.0390625	1.08667	0.836082	-0.0841856	-0.51332	-0.174303	9.31423	0.382205	4.81051	0.0419028	0.029792	-0.0207811	-0.851807	0.0307617	-0.704834	-0.042144	-0.0308017	-0.987879	-0.146187	-0.668674	2.67362	-8.8001	0.0218304	0.00665962	-0.0206184	-0.299805	-0.27417	1.05029	0.824146	0.148794	-0.526899	0.144984	9.22768	0.961335	4.06867	0.00941029	-0.00467447	-0.0063968	-0.794922	-0.312744	-0.684082	0.100726	-0.0279765	0.991383	0.0789445	-1.85722	1.3368	-9.43304	-0.0240497	0.0135881	-0.000961786	-0.272705	-0.176514	1.12402	
80	-0.557294	0.00621997	-0.830288	0.00241104	-8.59826	-0.0396001	-3.41993	0.00250552	-0.00491746	0.0111186	0.814209	-0.150635	0.783203	-0.395856	0.0410126	-0.91354	-0.0840263	-6.68187	1.45542	-6.69674	-0.0302276	0.0190737	-0.00926138	0.566895	-0.362305	1.05322	0.0632374	-0.0179791	-0.996133	-0.0582854	1.20363	1.01513	-8.63452	-0.00292846	-0.00226658	0.000954089	-0.506348	-0.157471	0.96167	-0.00957516	0.23181	-0.88704	0.399165	1.6696	-6.91742	-6.62557	-0.0066932	0.000538449	-0.00765259	-0.498291	0.680664	0.697266	0.0799259	0.212887	-0.973802	0.00107606	1.5553	0.156325	-9.61106	-0.0364806	0.0043216	-0.0177003	-0.543945	-0.256592	0.946777	-0.109921	-0.143212	-0.581831	-0.79302	1.04962	9.73503	2.80098	0.000276907	0.0205963	-0.0100348	-0.56665	-1.02319	0.083252	-0.231843	0.0529013	-0.971122	0.0192834	-3.85802	-0.345472	-8.17447	0.00181386	0.011038	-0.0193331	0.09375	-0.0368652	1.08032	0.835907	-0.0842198	-0.513542	-0.174474	9.24008	0.435066	4.89756	-0.0267495	-0.0154436	-0.0247579	-0.858398	0.0305176	-0.700195	-0.0421546	-0.0309014	-0.98788	-0.146154	-0.660335	2.67467	-8.74683	0.00729577	0.00319317	-0.0180274	-0.299561	-0.278809	1.05469	0.824021	0.149044	-0.527048	0.144898	9.21577	0.936271	4.11101	0.00205146	0.00204244	-0.00320297	-0.790771	-0.30835	-0.684082	0.100684	-0.0279771	0.991379	0.0790477	-1.86155	1.35913	-9.44343	-0.00998869	0.0050151	-0.000105132	-0.274902	-0.180908	1.11938	
81	-0.557421	0.00598942	-0.830205	0.00230342	-8.59604	-0.0795299	-3.38629	0.00139523	-0.00627069	0.00656068	0.816162	-0.14624	0.781006	-0.396008	0.0408193	-0.913464	-0.0842298	-6.75756	1.35126	-6.66467	-0.0149179	0.00606513	-0.0181737	0.568848	-0.358154	1.05078	0.0633167	-0.0180112	-0.99609	-0.0589104	1.21427	0.993272	-8.85002	-0.0336742	0.00757406	-0.00459234	-0.508301	-0.157471	0.968506	-0.00957425	0.231784	-0.887195	0.398835	1.66429	-7.06862	-6.80345	-0.00752247	0.00562107	-0.000882594	-0.500488	0.680664	0.690674	0.0799061	0.212878	-0.973805	0.0010125	1.58026	0.292324	-9.65855	-0.0169052	0.0071145	-0.0179856	-0.539062	-0.265381	0.951416	-0.109913	-0.14325	-0.581734	-0.793085	1.04891	9.74033	2.80758	0.0091178	0.0143545	-0.0152705	-0.56665	-1.02319	0.083252	-0.231595	0.0530653	-0.971179	0.0189644	-3.90503	-0.378652	-8.26388	0.0175339	0.0385561	-0.0195835	0.0871582	-0.034668	1.08862	0.835882	-0.0839431	-0.513586	-0.174597	9.31663	0.347209	4.78174	0.0256363	0.0264896	-0.0290892	-0.854248	0.0349121	-0.700439	-0.0422633	-0.0309473	-0.987837	-0.146401	-0.652932	2.67112	-8.78616	-0.00737129	0.000583487	-0.0197712	-0.299561	-0.278809	1.05249	0.82386	0.149169	-0.527325	0.144676	9.21469	0.990962	4.09771	0.00163537	-0.000565839	-0.0029177	-0.792725	-0.310547	-0.686279	0.100789	-0.0279006	0.991346	0.0793493	-1.84564	1.37977	-9.45143	-0.0104598	0.000637095	-0.000827285	-0.268311	-0.174316	1.11938	
82	-0.557548	0.00571337	-0.830122	0.00237493	-8.62162	-0.0897785	-3.39452	0.00946948	-0.00989538	0.00759288	0.814209	-0.150391	0.778809	-0.396193	0.0406902	-0.913382	-0.0843131	-6.73362	1.50743	-6.67158	-0.012045	6.45499e-06	-0.0142798	0.568848	-0.35791	1.05542	0.0632545	-0.0178802	-0.996143	-0.0581302	1.15561	1.04366	-8.59935	0.0399551	0.00387617	-0.00919599	-0.506348	-0.15332	0.966064	-0.00953995	0.231814	-0.887142	0.398936	1.59546	-6.85354	-6.59106	-0.00205159	0.00734367	0.00170366	-0.502441	0.674072	0.701904	0.0799141	0.212747	-0.973834	0.000834314	1.55656	0.338624	-9.67023	-0.0170758	0.00622017	-0.00907158	-0.541504	-0.258789	0.948975	-0.10982	-0.143294	-0.581527	-0.793242	1.05103	9.85066	2.81696	-0.00286735	0.0166906	-0.00868126	-0.566406	-1.02979	0.0856934	-0.231252	0.0533423	-0.971253	0.0185659	-3.82636	-0.290206	-8.33428	0.00667881	0.0208281	-0.0220619	0.0849609	-0.0368652	1.08228	0.835982	-0.0834026	-0.513449	-0.17478	9.29107	0.471027	4.84644	0.0160205	0.0182285	-0.024933	-0.849609	0.0263672	-0.702637	-0.0423873	-0.0309555	-0.987806	-0.146576	-0.660122	2.67012	-8.76232	0.00636938	0.00259268	-0.019486	-0.294922	-0.278809	1.0481	0.82372	0.149273	-0.527551	0.144541	9.24233	0.934891	4.01469	-0.000633944	-0.00143619	-0.00435933	-0.792725	-0.310547	-0.677246	0.100906	-0.027793	0.991324	0.0795183	-1.869	1.36205	-9.45313	-0.00885138	0.000648697	-0.000714471	-0.268066	-0.183105	1.12183	
83	-0.557816	0.00576953	-0.829942	0.00209623	-8.60408	-0.0779145	-3.39065	-0.0104231	-0.0147241	0.00114919	0.81665	-0.154785	0.783203	-0.396143	0.0407377	-0.913371	-0.0846417	-6.65682	1.37501	-6.66675	-0.022662	0.018578	-0.0148313	0.571045	-0.355713	1.05298	0.0633513	-0.0178426	-0.99612	-0.0584165	1.20645	1.03351	-8.68778	-0.0317463	0.0114708	0.000652591	-0.508545	-0.15332	0.968262	-0.00952992	0.231817	-0.887177	0.398857	1.65087	-6.91103	-6.5832	-0.00301377	0.00526533	0.000653735	-0.500488	0.680664	0.697266	0.0798869	0.212586	-0.973871	0.000286056	1.57915	0.273802	-9.53786	-0.00899176	0.00910172	-0.00959141	-0.537109	-0.258789	0.951416	-0.109688	-0.143179	-0.581216	-0.793509	1.06117	9.65446	2.8316	0.00180829	0.0261665	-0.0137847	-0.570557	-1.03198	0.0834961	-0.231303	0.0534621	-0.971239	0.0183138	-3.91559	-0.353899	-8.30674	0.00562642	-0.00740944	-0.0187148	0.0871582	-0.034668	1.08667	0.835776	-0.0834386	-0.513723	-0.174942	9.25445	0.347412	4.78045	0.0160577	0.00939013	-0.0255042	-0.854004	0.0305176	-0.697998	-0.0423958	-0.0310256	-0.987821	-0.14646	-0.651707	2.67279	-8.78211	0.00525603	0.00379254	-0.0203071	-0.297363	-0.278809	1.0481	0.823589	0.149367	-0.527772	0.144385	9.1791	0.990434	4.09203	-0.00805192	0.00128444	-0.00249654	-0.797363	-0.310547	-0.681885	0.101139	-0.0277195	0.991281	0.0797735	-1.86205	1.36894	-9.44191	-0.0112461	-0.00812791	8.57228e-06	-0.272461	-0.183105	1.11938	
84	-0.558033	0.00576524	-0.829796	0.00190974	-8.61714	-0.149396	-3.39524	-0.000925082	-0.00868642	0.00575302	0.818359	-0.148193	0.781006	-0.39619	0.0409317	-0.913314	-0.0849504	-6.72528	1.40224	-6.63516	-0.0213624	0.00720356	-0.0239653	0.569092	-0.360107	1.05078	0.0634853	-0.0179144	-0.996063	-0.0592269	1.14761	1.00171	-8.82937	-0.0340477	0.00816647	9.37212e-05	-0.510498	-0.159668	0.963867	-0.00952336	0.231668	-0.887544	0.398128	1.6265	-6.99405	-6.70553	-0.0201258	-0.000741079	0.00585066	-0.500488	0.678467	0.695312	0.0798576	0.212678	-0.973853	0.000495872	1.53706	0.365653	-9.68619	0.00870694	0.00591725	-0.0196734	-0.537109	-0.258789	0.94458	-0.109609	-0.143222	-0.581265	-0.793476	1.03586	9.92455	2.91419	-0.000977285	0.0134989	-0.00865671	-0.568604	-1.03198	0.0834961	-0.230836	0.0538339	-0.97133	0.0183029	-3.88386	-0.341469	-8.25352	0.00491617	0.0237829	-0.0226001	0.0783691	-0.0305176	1.07788	0.835918	-0.0828295	-0.513638	-0.174803	9.29842	0.504432	4.80922	0.0221294	0.0184022	-0.0215542	-0.849854	0.0307617	-0.697998	-0.0424765	-0.0310131	-0.987765	-0.146815	-0.670534	2.67523	-8.80534	-0.00868238	0.00378675	-0.0205422	-0.302002	-0.278809	1.05029	0.823493	0.149263	-0.527996	0.14422	9.2549	0.994469	4.03981	-0.00278191	0.000491026	0.00179474	-0.799561	-0.30835	-0.681885	0.101484	-0.0276379	0.991249	0.0797627	-1.88472	1.39825	-9.45465	0.0114873	-0.011489	-0.00702516	-0.270508	-0.178711	1.12402	
