40	Head	00b4120a												Throax	00b411e8												LUpArm	00b411d9												LFoArm	00b41148												RUpArm	00b411db												RFoArm	00b41204												Waist	00b411f7												Lthigh	00b411f4												Lshank	00b4111b												Rthigh	00b411c8												Rshank	00b411ee												
PacketCount	q0	q1	q2	q3	accX	accY	accZ	gyrX	gyrY	gyrZ	magX	magY	magZ	q0	q1	q2	q3	accX	accY	accZ	gyrX	gyrY	gyrZ	magX	magY	magZ	q0	q1	q2	q3	accX	accY	accZ	gyrX	gyrY	gyrZ	magX	magY	magZ	q0	q1	q2	q3	accX	accY	accZ	gyrX	gyrY	gyrZ	magX	magY	magZ	q0	q1	q2	q3	accX	accY	accZ	gyrX	gyrY	gyrZ	magX	magY	magZ	q0	q1	q2	q3	accX	accY	accZ	gyrX	gyrY	gyrZ	magX	magY	magZ	q0	q1	q2	q3	accX	accY	accZ	gyrX	gyrY	gyrZ	magX	magY	magZ	q0	q1	q2	q3	accX	accY	accZ	gyrX	gyrY	gyrZ	magX	magY	magZ	q0	q1	q2	q3	accX	accY	accZ	gyrX	gyrY	gyrZ	magX	magY	magZ	q0	q1	q2	q3	accX	accY	accZ	gyrX	gyrY	gyrZ	magX	magY	magZ	q0	q1	q2	q3	accX	accY	accZ	gyrX	gyrY	gyrZ	magX	magY	magZ	
0	-0.83511	-0.00326263	0.549612	0.0225228	9.34199	0.210282	4.18125	-0.00305038	0.0251921	0.0040899	-0.754395	-0.0268555	-0.681885	0.663981	-0.0739695	-0.744078	-0.00238552	9.68166	-0.931758	-1.21912	0.021228	-0.00656681	-0.0313713	-0.904053	0.0129395	-0.181396	0.772734	0.018465	-0.61338	0.162193	9.54408	-1.70999	2.42073	0.00693433	-0.0027189	-0.00621945	-0.989502	0.0244141	-0.54126	0.838211	0.0884207	-0.522153	-0.130159	8.41321	2.82142	4.29877	0.0151255	0.0119365	0.00397062	-0.662354	-0.1521	-0.783447	0.777172	0.0097642	-0.617806	-0.11927	9.47451	1.60617	2.20585	0.0210395	-0.00162318	-0.00728109	-0.845703	-0.111084	-0.643311	0.874554	-0.238125	-0.391313	-0.159142	8.77681	-3.30911	6.75605	0.0129368	0.012553	-0.0153092	-0.772949	0.306885	-0.790527	0.643236	0.0184034	-0.763899	0.0486532	9.57965	-0.531236	-1.69924	0.0354471	0.0406664	-0.019747	-1.04272	-0.0195312	-0.147461	0.937797	-0.0759232	-0.323826	-0.0995402	6.81292	-0.919932	8.43573	0.0162933	0.0187342	-0.0158361	-0.465332	0.117188	-0.983643	-0.025794	0.373956	-0.926186	-0.0408795	-0.843205	3.28583	-8.60347	-0.0109128	0.00241113	-0.0224565	-0.27124	-0.401123	1.00317	0.960789	0.0351487	-0.268324	0.0604208	5.4227	0.489133	8.8618	0.00880433	0.0138942	0.00128682	-0.197998	-0.140625	-1.0791	0.0353381	-0.030911	0.998427	0.0306525	-0.670172	1.17278	-9.67849	0.000593787	0.00479663	-0.00751022	-0.400146	-0.0959473	1.08154	
1	-0.835168	-0.00292773	0.549534	0.0223286	9.34159	0.215012	4.12639	-0.00770331	-0.0100255	0.0123012	-0.756836	-0.0246582	-0.679932	0.663891	-0.0737811	-0.744178	-0.00219132	9.73781	-0.869192	-1.17681	-0.000327887	0.00763038	-0.0189584	-0.904053	0.0107422	-0.181152	0.772696	0.0186741	-0.613388	0.162321	9.58816	-1.62767	2.43876	0.0219976	-0.000206831	-0.00350019	-0.99585	0.0266113	-0.54126	0.838341	0.0884623	-0.521971	-0.130021	8.35864	2.89046	4.41276	0.00196407	0.0163902	0.00352617	-0.664062	-0.158691	-0.783203	0.777272	0.00963147	-0.617665	-0.119356	9.58842	1.60202	2.35291	-0.0195972	0.0118037	-0.0114553	-0.843506	-0.113281	-0.645508	0.874602	-0.238214	-0.391099	-0.159272	8.75394	-3.2741	6.60131	-0.0078445	0.0216092	-0.0202688	-0.768799	0.311035	-0.78418	0.644199	0.0188681	-0.763062	0.0488614	9.53883	-0.493228	-1.64696	0.0342381	0.0625233	-0.0277703	-1.04932	-0.0151367	-0.143311	0.93785	-0.0756862	-0.32375	-0.0994703	6.75118	-0.664504	8.52395	0.00361908	0.0181209	-0.0176059	-0.467529	0.119385	-0.983643	-0.0257482	0.373947	-0.926185	-0.0410184	-0.826079	3.30173	-8.56986	0.0153217	0.0068488	-0.02057	-0.271484	-0.398926	1.00317	0.960752	0.0352104	-0.268431	0.0605048	5.52516	0.493199	8.84558	0.00692718	0.00820193	0.00502796	-0.198242	-0.138428	-1.07007	0.0354136	-0.0309805	0.998422	0.0306604	-0.679176	1.14095	-9.66824	0.00405085	0.00244845	-0.0086194	-0.400146	-0.09375	1.08154	
2	-0.835224	-0.00234309	0.549438	0.0226536	9.49681	0.326263	4.1543	-0.0384027	0.0163456	-0.0011298	-0.752197	-0.0246582	-0.681885	0.663818	-0.0736972	-0.744251	-0.00229572	9.64597	-0.87526	-1.23277	-0.0101452	0.00568833	-0.0293105	-0.899658	0.0107422	-0.183594	0.772892	0.0187908	-0.613168	0.162202	9.52095	-1.61026	2.50376	0.00353673	0.0132505	-0.00884828	-0.99585	0.0222168	-0.545654	0.838398	0.0886418	-0.521829	-0.130101	8.37864	2.83176	4.2618	0.0146379	0.00947917	-0.0063137	-0.66626	-0.158691	-0.7854	0.777264	0.00933715	-0.617643	-0.119542	9.49348	1.64281	2.41761	-0.0286952	0.00433597	-0.0116846	-0.841309	-0.111084	-0.643311	0.874569	-0.238278	-0.391126	-0.159291	8.74224	-3.27623	6.73495	-9.91264e-05	0.0114297	-0.0136611	-0.773193	0.311035	-0.792725	0.64424	0.0186819	-0.763041	0.0487268	9.5357	-0.523863	-1.75037	0.00913084	0.00553444	-0.0133202	-1.04712	-0.017334	-0.143311	0.937819	-0.0758221	-0.323794	-0.0995239	6.79233	-0.822579	8.4647	-0.00679538	0.0102676	-0.0182526	-0.467529	0.119385	-0.976562	-0.0257854	0.373878	-0.92621	-0.0410408	-0.837822	3.29904	-8.5849	0.00492541	0.00379518	-0.0201475	-0.266846	-0.398926	1.00317	0.960772	0.0351771	-0.268375	0.0604436	5.50817	0.424283	8.85349	-0.000460826	0.0158152	-0.000881025	-0.202393	-0.140625	-1.07227	0.0354266	-0.0310067	0.998422	0.030624	-0.680123	1.14681	-9.66471	0.00291381	0.00431439	-0.00772606	-0.400146	-0.0959473	1.08618	
3	-0.835606	-0.00149142	0.548832	0.0233163	9.36011	0.161934	4.15599	-0.0390492	0.020505	-0.00694566	-0.756836	-0.0227051	-0.681885	0.663529	-0.0736458	-0.744513	-0.00242291	9.68372	-0.842493	-1.23804	-0.026682	0.010166	-0.0140166	-0.904053	0.0107422	-0.181152	0.77282	0.0189381	-0.61322	0.162331	9.5056	-1.63315	2.4059	-0.000607083	-0.0117066	-0.000514057	-0.991455	0.0222168	-0.543457	0.838319	0.0889914	-0.521916	-0.130019	8.37614	2.79434	4.31284	0.0296593	-0.000719971	-0.0038643	-0.668701	-0.156494	-0.781006	0.777218	0.00971588	-0.617705	-0.11949	9.50388	1.70105	2.3697	0.0164297	0.0127968	-0.0231221	-0.843262	-0.117676	-0.638672	0.874545	-0.238466	-0.39106	-0.159302	8.71024	-3.2376	6.77214	-0.0122039	0.0156122	-0.00927721	-0.7771	0.30249	-0.79248	0.644113	0.0188336	-0.763114	0.0491893	9.51867	-0.619779	-1.57015	0.036566	0.000288384	-0.00136611	-1.04932	-0.017334	-0.143311	0.937831	-0.0758216	-0.323766	-0.099495	6.86064	-0.844551	8.48027	0.00876948	0.0211578	-0.0164406	-0.465332	0.117188	-0.98584	-0.0257609	0.37385	-0.926223	-0.0410388	-0.828693	3.30113	-8.6072	0.00957295	0.00799958	-0.019715	-0.273926	-0.39209	1.00513	0.960827	0.0352516	-0.26818	0.0604036	5.42435	0.449789	8.8479	0.0116502	0.0160655	0.000731349	-0.199951	-0.147217	-1.07446	0.0354513	-0.0310335	0.99842	0.0306075	-0.675505	1.16586	-9.65725	0.00455826	0.00390351	-0.00878629	-0.397949	-0.0959473	1.08374	
4	-0.83572	-0.00109391	0.548653	0.0234699	9.40163	0.220233	4.20041	-0.0337791	0.0132298	0.00621086	-0.754639	-0.0202637	-0.681885	0.663188	-0.0738576	-0.744794	-0.00276776	9.78032	-0.940244	-1.11718	-0.0207385	0.00102138	-0.0259653	-0.904053	0.0129395	-0.178955	0.772507	0.0184827	-0.613652	0.162244	9.50779	-1.70323	2.55097	-0.00224702	-0.00814589	0.0116732	-0.989258	0.0200195	-0.543457	0.838313	0.0887435	-0.521917	-0.130225	8.28079	2.86661	4.39148	-0.0213813	0.00132131	-0.00310011	-0.662109	-0.156494	-0.783203	0.77715	0.00985614	-0.61776	-0.119642	9.51926	1.67351	2.37015	0.000239169	0.000634587	-0.0156292	-0.843506	-0.113281	-0.636475	0.874443	-0.239001	-0.390904	-0.159442	8.81275	-3.33487	6.6642	-0.0365182	0.0145409	-0.00851985	-0.772949	0.308838	-0.790527	0.642851	0.0184141	-0.764149	0.049802	9.66008	-0.367382	-1.79773	-0.00755331	-0.0541789	0.00526505	-1.04712	-0.0195312	-0.138916	0.937915	-0.0755061	-0.323626	-0.0994044	6.75238	-0.851339	8.47197	0.0191279	0.0197283	-0.0191433	-0.467285	0.112793	-0.981201	-0.0256965	0.373841	-0.926225	-0.0411126	-0.82865	3.29945	-8.60784	0.00204403	0.00826239	-0.0216417	-0.271729	-0.394287	1.00977	0.960879	0.0350865	-0.268038	0.060293	5.53043	0.451751	8.91826	-0.0117877	0.0162105	-0.000443711	-0.198242	-0.138428	-1.08154	0.0354414	-0.031075	0.998423	0.0304794	-0.679684	1.15024	-9.66158	0.0061519	0.00637006	-0.00656141	-0.402344	-0.0981445	1.08374	
5	-0.835742	-0.000174358	0.548608	0.0237622	9.32398	0.136006	4.16594	-0.0365939	-0.0101571	0.000297147	-0.756836	-0.0224609	-0.684082	0.663362	-0.0736639	-0.744657	-0.00329083	9.80419	-0.969061	-1.25383	-0.0194846	0.0307816	-0.0400008	-0.901855	0.0107422	-0.183594	0.772361	0.0179342	-0.613836	0.162306	9.68004	-1.56106	2.42345	-0.0352081	-0.000433149	0.0157549	-0.998047	0.0244141	-0.538818	0.83813	0.0890041	-0.52208	-0.130575	8.40612	3.01382	4.37541	-0.00510531	0.00221672	-0.00965892	-0.670654	-0.163086	-0.781006	0.776974	0.0102327	-0.618036	-0.119322	9.55845	1.64271	2.26268	0.0477667	-0.00886966	-0.0117795	-0.843262	-0.117676	-0.638672	0.874401	-0.238895	-0.390957	-0.159703	8.83163	-3.36917	6.83505	0.0018579	0.0198459	-0.0251248	-0.775146	0.308838	-0.796875	0.642654	0.0187423	-0.764282	0.0501773	9.62865	-0.627994	-1.64023	0.0372	0.00514573	-0.0264413	-1.05151	-0.017334	-0.141113	0.9379	-0.0754537	-0.323673	-0.0994327	6.79329	-0.726062	8.49032	-0.000511425	0.0133959	-0.0178952	-0.469727	0.119385	-0.98584	-0.0255547	0.374003	-0.926159	-0.0412032	-0.829173	3.32072	-8.57278	0.0231376	0.0103385	-0.0208496	-0.269531	-0.389648	1.00513	0.960898	0.0348831	-0.26799	0.0603369	5.41675	0.507667	8.94819	-0.00203508	0.00944338	0.00743465	-0.200195	-0.140625	-1.07227	0.035347	-0.0311295	0.998426	0.03044	-0.670696	1.1634	-9.66736	0.00839552	0.00778877	-0.00950077	-0.393311	-0.0981445	1.09058	
6	-0.835489	-6.08441e-05	0.548962	0.0244867	9.53968	0.111743	4.13137	-0.00777524	-0.0163533	-0.0251023	-0.752441	-0.0224609	-0.684082	0.663505	-0.0735654	-0.744538	-0.00367151	9.74431	-0.930506	-1.24056	-0.0123914	0.0149742	-0.0219011	-0.901855	0.00854492	-0.178711	0.77234	0.0178456	-0.613975	0.161888	9.57727	-1.57644	2.384	-0.00574789	-0.00450113	-0.0184835	-0.991455	0.0244141	-0.536621	0.8381	0.0890481	-0.522116	-0.130588	8.36604	2.88239	4.36201	0.00634744	0.00238884	-0.00202007	-0.664062	-0.163086	-0.783203	0.777126	0.00998972	-0.6178	-0.119578	9.51888	1.58921	2.40088	-0.0544295	0.0122347	-0.00581748	-0.843262	-0.115479	-0.640869	0.874403	-0.238995	-0.39074	-0.160074	8.71405	-3.28843	6.72093	-0.0079944	0.0241439	-0.0295892	-0.775146	0.308838	-0.794922	0.64265	0.0185918	-0.764333	0.0495047	9.64305	-0.563384	-1.76751	-0.0299016	0.00930791	-0.0428114	-1.04712	-0.017334	-0.13916	0.937814	-0.0756613	-0.323919	-0.0992797	6.77674	-0.794475	8.50813	5.23365e-05	-0.000919558	-0.0108015	-0.463379	0.123779	-0.981445	-0.0257413	0.374291	-0.926064	-0.0406037	-0.82588	3.29901	-8.60129	0.0291108	0.00546635	-0.0242069	-0.276367	-0.39209	1.00757	0.960808	0.0346903	-0.26831	0.0604561	5.45735	0.445405	8.87224	-0.00536548	-0.00700327	0.00890139	-0.197998	-0.140625	-1.07227	0.035447	-0.0312246	0.998431	0.030075	-0.667728	1.15167	-9.6595	0.0161072	0.00201124	-0.0101919	-0.395508	-0.0959473	1.08154	
7	-0.835688	-0.000383864	0.548664	0.0243552	9.36487	0.156559	4.09946	0.0205623	0.0130177	0.0007569	-0.759033	-0.0205078	-0.682129	0.663175	-0.0736697	-0.744821	-0.00370046	9.69264	-0.964846	-1.18609	-0.000515741	-0.00628181	-0.0204424	-0.908447	0.0107422	-0.181152	0.772417	0.0182036	-0.613863	0.161906	9.51305	-1.73939	2.40273	0.0200563	0.00708644	-0.00800512	-0.99585	0.0244141	-0.531982	0.838102	0.0891167	-0.522142	-0.130423	8.39903	2.71568	4.19137	0.00610521	0.00406794	0.00436028	-0.666504	-0.154297	-0.781006	0.777073	0.010001	-0.617829	-0.119771	9.44717	1.48034	2.41224	0.0346064	0.000224672	-0.0246296	-0.841064	-0.117676	-0.643311	0.87439	-0.239045	-0.390783	-0.159967	8.7067	-3.33663	6.64546	0.00661234	0.00310379	0.00076381	-0.775146	0.306885	-0.790527	0.643279	0.018266	-0.763856	0.0488065	9.50581	-0.546732	-1.82336	0.00175823	0.0646376	-0.0223282	-1.04688	-0.0217285	-0.138916	0.937723	-0.0757952	-0.324139	-0.0993217	6.89477	-0.857721	8.4143	0.00333019	0.0104535	-0.0207309	-0.463135	0.117188	-0.981201	-0.0258333	0.374512	-0.925978	-0.040474	-0.838239	3.28564	-8.59001	0.0105431	0.00157118	-0.0212007	-0.271729	-0.389648	1.00293	0.960747	0.0346602	-0.268529	0.0604613	5.48091	0.363936	8.84291	0.00946458	0.00639512	-0.00188363	-0.200684	-0.134033	-1.07935	0.0354754	-0.0312879	0.998426	0.0301384	-0.679803	1.15787	-9.66464	-0.00229698	0.00571168	-0.00986445	-0.393311	-0.0959473	1.0769	
8	-0.835809	-0.00121539	0.548509	0.0236542	9.34016	0.245117	4.11007	0.0465703	0.00352059	0.00685407	-0.754639	-0.0224609	-0.679932	0.663092	-0.0735801	-0.744905	-0.00345396	9.66298	-0.87551	-1.17282	-5.38148e-05	0.012693	-0.0104174	-0.908203	0.00854492	-0.181152	0.77239	0.0180021	-0.613871	0.162028	9.57236	-1.5741	2.36209	-0.0193547	0.00541354	0.00810603	-0.99585	0.0222168	-0.541016	0.838144	0.0889516	-0.522171	-0.13015	8.35877	2.8176	4.36634	0.00867023	0.0101074	0.0165892	-0.66626	-0.160889	-0.778809	0.776991	0.011155	-0.618149	-0.118547	9.46568	1.68647	2.33625	0.0563914	0.00794358	-0.00437496	-0.843506	-0.113281	-0.643311	0.874162	-0.239793	-0.390906	-0.159789	8.71065	-3.39716	6.69175	-0.024062	0.0021891	-0.0028066	-0.772949	0.308838	-0.790527	0.643752	0.0183802	-0.763447	0.0489361	9.48731	-0.578701	-1.58798	0.0269536	0.0132805	-0.0181345	-1.04468	-0.0217285	-0.143311	0.937796	-0.0754364	-0.324001	-0.0993553	6.73497	-0.846275	8.48288	0.0222863	0.0218471	-0.0246529	-0.461182	0.121582	-0.981201	-0.0257027	0.374453	-0.925989	-0.040837	-0.818279	3.2876	-8.58895	-0.0110954	0.0038724	-0.0203939	-0.269287	-0.39209	1.00537	0.960735	0.0349376	-0.268546	0.0604178	5.48537	0.435989	8.89169	0.0111459	0.0115724	0.00172905	-0.197998	-0.140625	-1.0769	0.0354773	-0.0313143	0.998423	0.0302113	-0.663704	1.14555	-9.65103	-0.00244556	0.0058477	-0.00848897	-0.393311	-0.0959473	1.08838	
9	-0.835864	-0.00167988	0.548459	0.0228296	9.37545	0.304589	4.14652	0.0284361	-0.00184025	0.0184943	-0.756836	-0.0202637	-0.686279	0.66308	-0.0731806	-0.744957	-0.00295955	9.80543	-0.919764	-1.16412	0.0134132	0.0125628	-0.0219354	-0.901855	0.0129395	-0.174316	0.772475	0.0183127	-0.613674	0.162333	9.5226	-1.75996	2.46901	0.0364563	0.0153657	0.00244334	-0.993652	0.0266113	-0.539062	0.838259	0.0889846	-0.522066	-0.129813	8.37923	2.89956	4.23149	0.00769337	0.013575	0.00325093	-0.666748	-0.1521	-0.785645	0.777048	0.0114431	-0.618133	-0.118225	9.54144	1.60968	2.2134	0.00252614	0.000664389	-0.011509	-0.843506	-0.111084	-0.640869	0.874161	-0.239778	-0.391063	-0.159431	8.80966	-3.28563	6.68573	0.0037958	0.00734686	-0.00729598	-0.779785	0.313232	-0.797119	0.643425	0.0182844	-0.763712	0.0491344	9.58344	-0.507531	-1.81383	0.0417625	-0.00321371	-0.0016416	-1.05127	-0.0217285	-0.143311	0.937824	-0.0753045	-0.323927	-0.0994327	6.83986	-0.6949	8.46684	0.000210446	0.0191043	-0.017874	-0.465332	0.119385	-0.981201	-0.0257027	0.374453	-0.925989	-0.040837	-0.818279	3.2876	-8.58895	-0.0110954	0.0038724	-0.0203939	-0.269287	-0.39209	1.00537	0.960783	0.0351225	-0.268362	0.0603642	5.50575	0.492779	8.84142	0.0139259	0.0202912	-0.000750447	-0.195801	-0.142822	-1.0769	0.0354723	-0.0313986	0.998415	0.0303973	-0.675239	1.15433	-9.65118	-0.00589339	0.00329732	-0.00639685	-0.397949	-0.0959473	1.07935	
10	-0.835882	-0.0016673	0.548442	0.022574	9.43612	0.217921	4.16139	0.00280815	0.00133143	-0.00119408	-0.763428	-0.0205078	-0.684326	0.663047	-0.0730944	-0.744995	-0.00289386	9.76838	-0.88009	-1.20748	0.00111703	0.00918677	-0.02072	-0.904053	0.0129395	-0.178955	0.772424	0.0188016	-0.613672	0.162526	9.5132	-1.57572	2.39259	0.0428691	-0.00343221	-0.0131188	-1	0.0202637	-0.541016	0.838247	0.0893299	-0.522111	-0.129471	8.38602	2.82121	4.45171	0.0223193	0.00619625	0.00787864	-0.668701	-0.154297	-0.787842	0.77696	0.0115799	-0.61827	-0.118074	9.54417	1.68935	2.28815	0.0170244	-0.00487523	-0.0130083	-0.845459	-0.115479	-0.638672	0.874131	-0.239937	-0.391021	-0.159464	8.77664	-3.27923	6.73588	0.0108466	0.0156768	-0.0174608	-0.775391	0.313232	-0.790527	0.643563	0.0183723	-0.763582	0.049307	9.61654	-0.499668	-1.65749	0.0106243	0.0191314	-0.0229739	-1.04907	-0.0195312	-0.145508	0.937861	-0.0753539	-0.32382	-0.0993957	6.8018	-0.87457	8.44103	0.00142228	0.0233449	-0.0122088	-0.465332	0.11499	-0.981201	-0.025496	0.374883	-0.92581	-0.0410911	-0.822815	3.31103	-8.58073	-0.00260616	0.00436423	-0.0228734	-0.273926	-0.394287	1.00757	0.960844	0.0351913	-0.26814	0.0603494	5.43456	0.515522	8.85506	0.00213903	0.0178692	0.0019196	-0.202637	-0.138672	-1.0769	0.0353329	-0.0315428	0.998415	0.0304109	-0.680537	1.15376	-9.65561	0.00753458	0.00781425	-0.00811517	-0.397949	-0.0915527	1.08154	
11	-0.835897	-0.00163007	0.548414	0.0227134	9.40176	0.225243	4.15062	-0.00854817	-0.000188042	-0.00899834	-0.752441	-0.0202637	-0.681885	0.662947	-0.0732871	-0.745064	-0.00299664	9.8058	-0.876036	-1.20587	-0.0169797	0.00824883	-0.0173653	-0.901855	0.0107422	-0.181152	0.772304	0.0185349	-0.613897	0.162275	9.62768	-1.69643	2.62157	-0.0211964	0.00630509	0.00073189	-0.998047	0.0244141	-0.538818	0.838208	0.0892934	-0.522143	-0.129617	8.36834	2.84173	4.3188	-0.00021869	-0.000252765	-0.00812046	-0.668457	-0.161133	-0.778809	0.776967	0.0111572	-0.618211	-0.118376	9.59924	1.72942	2.3227	-0.0418771	0.00827889	-0.0124291	-0.852051	-0.115723	-0.636475	0.874117	-0.240062	-0.390888	-0.159673	8.81597	-3.25808	6.81666	-0.0146109	0.0254332	-0.0234404	-0.770996	0.313232	-0.792725	0.643522	0.0185232	-0.763598	0.0495431	9.60143	-0.521724	-1.72974	0.0397685	0.012073	-0.00957312	-1.04688	-0.0217285	-0.141113	0.937941	-0.0751112	-0.323632	-0.0994302	6.77088	-0.778264	8.47722	0.0101913	0.0166891	-0.0122768	-0.463379	0.119629	-0.990723	-0.025496	0.374883	-0.92581	-0.0410911	-0.822815	3.31103	-8.58073	-0.00260616	0.00436423	-0.0228734	-0.273926	-0.394287	1.00757	0.960851	0.0351329	-0.268106	0.0604115	5.43799	0.471117	8.92	0.000191361	0.0146184	0.00921907	-0.200195	-0.142822	-1.0769	0.0353638	-0.0315793	0.998414	0.0303602	-0.662396	1.16173	-9.66539	0.00694294	0.00361517	-0.00985648	-0.397949	-0.0959473	1.07935	
12	-0.835735	-0.00170816	0.54865	0.0229625	9.34176	0.167542	4.09451	0.00330318	-0.0214969	-0.0112642	-0.759033	-0.0249023	-0.679932	0.663215	-0.0734983	-0.744804	-0.00333622	9.77251	-0.886995	-1.16887	-0.0278637	0.0347184	-0.0175703	-0.904053	0.0129395	-0.183594	0.772385	0.0187135	-0.613764	0.16237	9.58134	-1.5317	2.37154	0.0103117	0.0113788	-0.000731824	-0.993652	0.0222168	-0.541016	0.83814	0.0889579	-0.522256	-0.129835	8.35122	2.80856	4.2757	-0.00584691	-0.00183351	0.00276798	-0.668701	-0.158691	-0.7854	0.777079	0.0107209	-0.618059	-0.118477	9.49391	1.52889	2.35657	-0.0098685	0.0148483	-0.00424137	-0.8479	-0.113281	-0.643311	0.874214	-0.239583	-0.390933	-0.159753	8.73488	-3.37309	6.70004	0.0367173	0.0148506	-0.0251983	-0.772949	0.308838	-0.792725	0.643588	0.0185112	-0.763517	0.0499281	9.50784	-0.57881	-1.68216	0.0236933	0.0189417	-0.00828865	-1.04712	-0.017334	-0.151855	0.937918	-0.075336	-0.323667	-0.0993693	6.79349	-0.8477	8.44545	-0.00455228	0.0121738	-0.0137659	-0.465332	0.117432	-0.990479	-0.025496	0.374883	-0.92581	-0.0410911	-0.822815	3.31103	-8.58073	-0.00260616	0.00436423	-0.0228734	-0.273926	-0.394287	1.00757	0.960855	0.0351489	-0.26807	0.0605041	5.51489	0.400636	8.87295	0.0049553	0.0142679	0.0056081	-0.204834	-0.138672	-1.0769	0.0353471	-0.0316285	0.998415	0.030303	-0.692227	1.16122	-9.67012	0.00387232	0.00842943	-0.00959886	-0.397705	-0.0981445	1.08374	
13	-0.835594	-0.00195033	0.548865	0.0229349	9.46379	0.2564	4.14739	0.00940548	-0.00730862	-0.00378116	-0.754639	-0.0246582	-0.679688	0.663599	-0.0736081	-0.74445	-0.00347745	9.74922	-0.983764	-1.13773	-0.00499017	0.0363727	-0.0179419	-0.901855	0.0129395	-0.178955	0.77243	0.0183273	-0.613803	0.162054	9.50867	-1.83842	2.34183	-0.00823219	0.0109185	0.000553463	-0.989258	0.0200195	-0.541016	0.838142	0.088763	-0.522264	-0.12992	8.42249	2.72998	4.25269	-0.012872	0.00217522	0.00300739	-0.664307	-0.156494	-0.7854	0.777079	0.0105949	-0.618064	-0.118465	9.49229	1.69636	2.34869	-0.00809519	0.004741	-0.0133315	-0.84375	-0.108887	-0.640869	0.874227	-0.239463	-0.390974	-0.159763	8.7517	-3.24867	6.67947	0.00142036	0.0122485	-0.0150257	-0.772949	0.308838	-0.792725	0.643588	0.0185112	-0.763517	0.0499281	9.50784	-0.57881	-1.68216	0.0236933	0.0189417	-0.00828865	-1.04712	-0.017334	-0.151855	0.937918	-0.0754306	-0.323662	-0.0993115	6.81477	-0.782865	8.45807	0.00428828	0.0165814	-0.0138114	-0.459229	0.123779	-0.983643	-0.0255572	0.375604	-0.925536	-0.0406424	-0.827313	3.29848	-8.58513	0.00531469	0.00590843	-0.0197055	-0.273926	-0.39209	1.00293	0.96089	0.035148	-0.267939	0.0605271	5.45491	0.468511	8.87711	0.00304915	0.016244	0.00139972	-0.195801	-0.138428	-1.0769	0.0352767	-0.0316684	0.998417	0.0302824	-0.664223	1.14969	-9.65723	0.00672496	0.00732655	-0.00639219	-0.399902	-0.100342	1.08154	
14	-0.835626	-0.00212267	0.54882	0.0228207	9.43539	0.262235	4.15122	0.00654754	-0.00342037	-0.00124418	-0.759277	-0.0161133	-0.677734	0.6641	-0.0738092	-0.743984	-0.00341598	9.74438	-0.894908	-1.2531	-0.0137216	0.0424324	-0.00696264	-0.908447	0.0129395	-0.178955	0.772356	0.0189005	-0.61378	0.162431	9.61238	-1.52357	2.43803	0.0235474	0.000781522	-0.00342955	-0.99585	0.0222168	-0.543457	0.838201	0.0888353	-0.522217	-0.129677	8.38498	2.8702	4.36593	0.000446321	0.0108692	0.00759381	-0.668701	-0.154297	-0.783447	0.776996	0.0104216	-0.61818	-0.118415	9.52065	1.61823	2.4034	0.00870088	0.00254227	-0.00831461	-0.845703	-0.111084	-0.638672	0.874142	-0.239642	-0.391029	-0.159824	8.74498	-3.44357	6.76074	0.00492705	0.0116137	-0.0150046	-0.775391	0.313232	-0.788574	0.643556	0.0188858	-0.763451	0.0512083	9.59018	-0.577585	-1.72332	0.0380386	-0.00912116	-0.00279274	-1.04907	-0.0195312	-0.138916	0.937944	-0.0754294	-0.323586	-0.0993142	6.78774	-0.842976	8.45721	0.00404763	0.0176194	-0.0156153	-0.463135	0.117432	-0.988281	-0.0255487	0.37557	-0.925551	-0.0406247	-0.8385	3.2965	-8.59993	0.00569583	0.00514374	-0.0214378	-0.273926	-0.39209	1.00757	0.960902	0.0351647	-0.26789	0.0605401	5.43896	0.434608	8.88826	0.00691848	0.0119078	0.00351723	-0.200195	-0.14502	-1.07446	0.0352785	-0.0317316	0.998414	0.0302921	-0.66333	1.15095	-9.66661	0.0017734	0.00756788	-0.00923218	-0.397949	-0.0959473	1.08374	
15	-0.835684	-0.00212353	0.548741	0.0226059	9.37342	0.240875	4.15042	0.00489109	0.00263602	0.00880309	-0.756836	-0.0249023	-0.675537	0.664388	-0.0736774	-0.74374	-0.00318568	9.77516	-0.859994	-1.12694	-0.000801816	0.0303882	-0.0117881	-0.897705	0.0151367	-0.183838	0.772438	0.0191329	-0.613652	0.162498	9.53982	-1.65378	2.49161	0.0109092	0.00273566	-0.00909678	-0.989258	0.0222168	-0.536621	0.838252	0.088589	-0.522202	-0.129582	8.40844	2.76533	4.33798	-0.00436689	0.00562586	0.00820911	-0.666504	-0.158691	-0.781006	0.777046	0.0104488	-0.618169	-0.118139	9.53091	1.53407	2.35699	0.00639265	0.00269691	-0.00419072	-0.845703	-0.111084	-0.643311	0.874165	-0.239544	-0.391108	-0.159653	8.75799	-3.28306	6.76122	0.0166625	0.00731095	-0.00732836	-0.770996	0.308838	-0.796875	0.643505	0.0188567	-0.763453	0.0518155	9.58213	-0.53498	-1.77177	0.0451769	0.018439	-0.00018387	-1.04932	-0.017334	-0.143311	0.937956	-0.075293	-0.323601	-0.0992604	6.80608	-0.803588	8.44474	0.00957622	0.0147445	-0.0162609	-0.467529	0.117188	-0.983643	-0.0254667	0.375804	-0.925455	-0.0406873	-0.830683	3.30678	-8.60092	0.000718857	0.00521843	-0.0212571	-0.26709	-0.394287	1.00537	0.960881	0.0352396	-0.267955	0.0605459	5.52451	0.460121	8.88513	0.00460525	0.00917268	0.00526458	-0.197998	-0.140625	-1.07471	0.0352722	-0.0317556	0.998413	0.0303188	-0.672629	1.15098	-9.67544	0.0011668	0.00643377	-0.00854585	-0.397705	-0.0981445	1.08374	
16	-0.835697	-0.00205613	0.548734	0.0223005	9.37479	0.219236	4.18857	0.00333111	-0.00340597	0.0106486	-0.752441	-0.0224609	-0.679688	0.664366	-0.0737698	-0.743751	-0.00311465	9.85836	-0.941271	-1.10611	-0.00952269	0.0173338	-0.0122445	-0.901855	0.0129395	-0.181396	0.772366	0.0190245	-0.613748	0.162487	9.54253	-1.69656	2.45503	0.0138408	0.00129504	0.00121318	-0.989258	0.0200195	-0.536621	0.838184	0.0886001	-0.522334	-0.129483	8.35431	2.88219	4.36681	0.0144835	-0.00365031	0.00446158	-0.664551	-0.1521	-0.785645	0.776995	0.0109483	-0.618289	-0.117805	9.56339	1.72827	2.33621	0.0157238	0.000341079	-0.0199231	-0.845703	-0.113281	-0.638672	0.874152	-0.239094	-0.391446	-0.159571	8.7649	-3.18929	6.71456	0.0113368	0.00316045	-0.0121902	-0.772949	0.306885	-0.79248	0.643392	0.0185679	-0.763539	0.0520554	9.57762	-0.610799	-1.67219	0.0226416	-0.000673974	-0.000870872	-1.04932	-0.017334	-0.145508	0.937973	-0.0752474	-0.323579	-0.0992009	6.76657	-0.755278	8.47593	0.00596481	0.0167316	-0.0149937	-0.465576	0.121582	-0.981201	-0.0254046	0.37576	-0.925466	-0.0408946	-0.826701	3.2968	-8.56724	0.0047262	0.00657066	-0.0199071	-0.276123	-0.396729	1.00757	0.960885	0.0352008	-0.267951	0.0605262	5.4699	0.489803	8.84609	0.00297669	0.0108661	0.00165759	-0.200439	-0.138428	-1.07251	0.0352722	-0.0318509	0.998413	0.030207	-0.693867	1.15878	-9.66761	0.010574	0.00282233	-0.00751379	-0.395508	-0.0959473	1.08374	
17	-0.835631	-0.00207776	0.548837	0.0222455	9.38127	0.188365	4.1602	0.00405238	-0.012758	0.00144311	-0.76123	-0.0205078	-0.682129	0.664777	-0.0739123	-0.74337	-0.00309521	9.73812	-0.900888	-1.19536	-0.0154589	0.038511	-0.011827	-0.899658	0.0129395	-0.183594	0.77232	0.0189159	-0.613862	0.162287	9.65526	-1.49617	2.45109	-0.0362822	0.00479936	-0.00701171	-0.993652	0.0222168	-0.541016	0.838109	0.0883465	-0.522453	-0.129662	8.43031	2.8642	4.39067	-0.00613854	-0.00344562	0.000670579	-0.668701	-0.156494	-0.781006	0.776953	0.010523	-0.618286	-0.118134	9.5474	1.60718	2.32887	-0.0311754	0.00307629	-0.0131664	-0.843506	-0.113281	-0.640869	0.874122	-0.23896	-0.391535	-0.159718	8.78783	-3.38525	6.77537	0.00999896	0.0177177	-0.0237661	-0.770996	0.309082	-0.790527	0.643392	0.0185679	-0.763539	0.0520554	9.57762	-0.610799	-1.67219	0.0226416	-0.000673974	-0.000870872	-1.04932	-0.017334	-0.145508	0.937915	-0.0754475	-0.323716	-0.0991553	6.79284	-0.787953	8.48504	-0.00452927	0.00347526	-0.0150966	-0.467529	0.117188	-0.981201	-0.0254046	0.37576	-0.925466	-0.0408946	-0.826701	3.2968	-8.56724	0.0047262	0.00657066	-0.0199071	-0.276123	-0.396729	1.00757	0.960846	0.035016	-0.268101	0.0605844	5.41629	0.448242	8.91172	-0.0036917	-0.000776078	0.00600232	-0.200439	-0.134033	-1.07031	0.0352864	-0.0319149	0.998415	0.0300613	-0.662686	1.15977	-9.66015	0.0104498	0.00522697	-0.0105827	-0.397949	-0.0959473	1.07935	
18	-0.835474	-0.00205075	0.549069	0.0223859	9.47593	0.207912	4.14715	-0.00512761	0.0051274	-0.00190133	-0.761475	-0.0161133	-0.679932	0.664905	-0.0739785	-0.743249	-0.00305627	9.66079	-0.920036	-1.17935	-0.00668017	0.0125583	-0.0158185	-0.899658	0.0129395	-0.188477	0.772404	0.0188732	-0.613804	0.162112	9.48727	-1.68306	2.4547	0.0126132	0.00669983	-0.00807031	-0.99585	0.0266113	-0.543457	0.837964	0.087989	-0.522708	-0.129811	8.38333	2.70341	4.22134	-0.00747979	-0.0120253	0.00440829	-0.670898	-0.156738	-0.778809	0.776944	0.0106081	-0.618343	-0.117886	9.51502	1.66329	2.43266	0.0105574	0.00508238	-0.0100946	-0.841309	-0.113281	-0.645508	0.874047	-0.238948	-0.391644	-0.159876	8.76833	-3.36951	6.60977	0.00536528	0.00445137	-0.0214358	-0.779541	0.308838	-0.78833	0.642849	0.0187721	-0.763997	0.0519777	9.55214	-0.57337	-1.84396	0.0149842	0.00488351	-0.0111872	-1.04736	-0.0129395	-0.136963	0.937812	-0.0755682	-0.323997	-0.0991126	6.84217	-0.822779	8.45572	0.00417362	0.00292492	-0.0168791	-0.465576	0.119385	-0.98584	-0.0254046	0.37576	-0.925466	-0.0408946	-0.826701	3.2968	-8.56724	0.0047262	0.00657066	-0.0199071	-0.276123	-0.396729	1.00757	0.960778	0.0348842	-0.268363	0.0605879	5.50443	0.365685	8.90948	-0.00742594	-0.00952683	0.00775784	-0.200439	-0.13623	-1.07715	0.0353686	-0.0319362	0.998413	0.0300154	-0.690419	1.15149	-9.64706	0.00364263	0.000485915	-0.00811464	-0.397949	-0.09375	1.08154	
19	-0.835597	-0.00183171	0.548883	0.0224128	9.26624	0.181015	4.1526	-0.00927578	-0.000221582	0.00220747	-0.754883	-0.0183105	-0.682129	0.664894	-0.0739608	-0.743261	-0.00309707	9.69176	-0.912904	-1.20957	-0.00956299	0.0117115	-0.0219126	-0.901855	0.0107422	-0.183594	0.772376	0.0186479	-0.613824	0.162197	9.46853	-1.66714	2.40975	-0.00682099	0.00506779	0.0149773	-0.993652	0.0222168	-0.541016	0.837756	0.0877061	-0.523021	-0.130085	8.42864	2.79708	4.30498	-0.00374284	-0.00666932	-0.0025292	-0.664551	-0.1521	-0.783447	0.776969	0.0103831	-0.618293	-0.118005	9.49111	1.62471	2.36538	-0.0212944	0.00814691	-0.0107549	-0.841553	-0.108887	-0.638672	0.87399	-0.238675	-0.391979	-0.159773	8.77836	-3.28747	6.72244	0.0019425	0.00404606	-0.0184102	-0.775146	0.308838	-0.790527	0.642372	0.0184822	-0.764392	0.0521642	9.53536	-0.621328	-1.74818	0.0258579	-0.0194495	0.00186528	-1.05127	-0.0195312	-0.136963	0.937789	-0.0755559	-0.324074	-0.0990967	6.84204	-0.805171	8.45915	0.00629538	0.0084619	-0.0171807	-0.463379	0.121582	-0.983643	-0.0254046	0.37576	-0.925466	-0.0408946	-0.826701	3.2968	-8.56724	0.0047262	0.00657066	-0.0199071	-0.276123	-0.396729	1.00757	0.960708	0.0348622	-0.268611	0.060612	5.48457	0.430652	8.88167	0.00288563	0.00493161	0.00493692	-0.204834	-0.140869	-1.07471	0.0353649	-0.0320658	0.998412	0.0299158	-0.67735	1.14111	-9.66883	0.0054227	0.00335704	-0.00872136	-0.393311	-0.09375	1.0791	
20	-0.83548	-0.00184166	0.549058	0.0224532	9.30296	0.11557	4.14844	-0.00019598	-0.0199427	-0.00460717	-0.75708	-0.0161133	-0.682129	0.665091	-0.07395	-0.743085	-0.00311364	9.74288	-0.902075	-1.17001	-0.00947656	0.0304435	-0.0156881	-0.901855	0.0129395	-0.178955	0.772353	0.0182679	-0.613916	0.162004	9.57996	-1.58887	2.36114	-0.0129211	0.00437947	-0.00280275	-0.993652	0.0244141	-0.538818	0.837724	0.0877861	-0.523093	-0.129947	8.37492	2.86063	4.26585	0.0159293	0.000510333	0.00638522	-0.666992	-0.147705	-0.78125	0.776947	0.0108331	-0.618418	-0.117454	9.50196	1.73644	2.31455	0.0341975	0.013179	-0.00883376	-0.849854	-0.117676	-0.640869	0.874002	-0.238531	-0.392089	-0.159655	8.77677	-3.34921	6.66108	0.0177819	0.00632556	-0.0134812	-0.777588	0.313232	-0.790527	0.642233	0.0183884	-0.764495	0.0524012	9.54312	-0.595273	-1.7552	0.0278241	-0.000132574	0.00168976	-1.04517	-0.0151367	-0.13916	0.937789	-0.0754443	-0.324109	-0.0990632	6.80085	-0.81376	8.45806	0.0109736	0.0155271	-0.0168878	-0.463379	0.119385	-0.98584	-0.0254046	0.37576	-0.925466	-0.0408946	-0.826701	3.2968	-8.56724	0.0047262	0.00657066	-0.0199071	-0.276123	-0.396729	1.00757	0.960693	0.0348673	-0.268663	0.0606109	5.47497	0.470756	8.86422	0.00294435	0.00714968	0.00316345	-0.202637	-0.140625	-1.08374	0.0353611	-0.0320999	0.998412	0.0298664	-0.659658	1.15166	-9.66133	0.00714686	0.00673645	-0.00966736	-0.397949	-0.09375	1.08374	
21	-0.835121	-0.00217523	0.549609	0.0223136	9.43955	0.183565	4.10172	0.0193887	-0.0245665	-0.00390516	-0.756836	-0.0205078	-0.679932	0.665572	-0.0740991	-0.74264	-0.00314672	9.64564	-0.959359	-1.20497	-0.00917874	0.0328876	-0.0152285	-0.895264	0.0107422	-0.186035	0.772373	0.0185992	-0.613799	0.162309	9.533	-1.71734	2.46146	0.0360955	0.0108312	0.00233979	-0.998047	0.0224609	-0.543457	0.837775	0.0875602	-0.523049	-0.129942	8.38533	2.78483	4.28198	0.00077324	0.0105566	0.000157845	-0.664307	-0.154297	-0.785645	0.77691	0.00997315	-0.618364	-0.118054	9.49838	1.67751	2.25646	-0.0716341	0.00491486	-0.0141696	-0.843506	-0.108887	-0.636475	0.873938	-0.238819	-0.392034	-0.159711	8.76333	-3.36306	6.60048	-0.0174938	0.016658	-0.0137334	-0.775146	0.309082	-0.786133	0.641855	0.0179077	-0.764828	0.052338	9.49286	-0.534435	-1.78881	0.000914174	-0.00327002	-0.0034782	-1.04956	-0.0129395	-0.132812	0.937808	-0.0754707	-0.324068	-0.0989956	6.8081	-0.730297	8.46996	0.000262757	0.0151856	-0.0140677	-0.461182	0.121582	-0.986084	-0.0254865	0.377788	-0.924686	-0.0397726	-0.834486	3.30321	-8.58627	0.00983277	0.00424301	-0.0221002	-0.269287	-0.394287	1.00073	0.960707	0.0348543	-0.268606	0.0606551	5.50342	0.450074	8.85387	0.00537359	0.0165239	0.00635902	-0.195801	-0.142822	-1.0769	0.0353269	-0.0321538	0.998415	0.0297676	-0.676472	1.14666	-9.64859	0.00914994	0.00792415	-0.00951751	-0.397949	-0.09375	1.0791	
22	-0.835017	-0.00242605	0.549776	0.022072	9.42017	0.226689	4.07426	0.010077	-0.00853235	0.00317498	-0.759033	-0.0205078	-0.682129	0.66573	-0.0743138	-0.742476	-0.00317589	9.77118	-0.918898	-1.12069	-0.0157637	0.0224017	-0.0115823	-0.897705	0.0129395	-0.190674	0.772259	0.0188209	-0.613942	0.162289	9.5353	-1.60043	2.49286	-0.00622331	-0.0123153	-0.00501055	-0.991699	0.0266113	-0.543457	0.837761	0.0876754	-0.523074	-0.129859	8.33371	2.82053	4.2382	0.01518	0.00422059	0.00117073	-0.66626	-0.160889	-0.7854	0.776683	0.00976084	-0.61861	-0.11828	9.52346	1.58023	2.39848	0.00500073	-0.00347147	-0.0214594	-0.847656	-0.117676	-0.640869	0.873888	-0.239117	-0.391905	-0.159854	8.72555	-3.29274	6.79522	-0.0113937	0.0159335	-0.0157764	-0.777344	0.311035	-0.790527	0.641388	0.017686	-0.765218	0.0524387	9.5988	-0.603994	-1.77869	0.0148031	-0.0170876	-0.0135462	-1.04517	-0.0107422	-0.13916	0.937851	-0.0756841	-0.323934	-0.0988597	6.80224	-0.833226	8.43881	-0.00104289	0.0221577	-0.00590989	-0.463379	0.121582	-0.988281	-0.0255124	0.377736	-0.924717	-0.0395348	-0.824069	3.299	-8.57163	0.0175293	0.00920396	-0.0223609	-0.269043	-0.401123	1.01196	0.960772	0.0348092	-0.26837	0.0606918	5.48388	0.456494	8.86357	0.00334785	0.0228246	0.00197674	-0.198242	-0.134033	-1.07715	0.0352517	-0.0321839	0.998423	0.0295624	-0.675681	1.1487	-9.66737	0.0139871	0.00940369	-0.00854881	-0.395752	-0.09375	1.08594	
23	-0.834954	-0.00255921	0.549872	0.0220475	9.45653	0.235023	4.11385	0.00205232	-0.00408983	-0.00281901	-0.754639	-0.0227051	-0.677734	0.665806	-0.0744495	-0.742394	-0.00318462	9.75893	-0.961682	-1.16647	-0.00384002	0.0159424	-0.0187848	-0.897705	0.017334	-0.186279	0.77218	0.0186229	-0.614129	0.161976	9.64402	-1.63129	2.47463	-0.0127035	0.00418413	-0.0122472	-0.993652	0.0222168	-0.538818	0.837675	0.0876826	-0.523176	-0.130001	8.43165	2.77317	4.37325	-0.00168656	-0.00118255	0.00398563	-0.671143	-0.154297	-0.785645	0.776697	0.00973382	-0.618574	-0.118378	9.5775	1.54521	2.41409	0.00274912	0.0142449	-0.0186522	-0.852295	-0.111328	-0.629395	0.873843	-0.238955	-0.392119	-0.159818	8.75662	-3.36569	6.70937	0.0264073	0.00473149	-0.019216	-0.772705	0.30249	-0.79248	0.641144	0.0174703	-0.765437	0.0522983	9.61459	-0.639399	-1.80964	0.00733525	0.00292163	-0.0145109	-1.04736	-0.0129395	-0.13501	0.937855	-0.0757598	-0.323943	-0.0987367	6.78392	-0.807528	8.48554	0.00297603	0.0111136	-0.0157612	-0.465332	0.11499	-0.981201	-0.025537	0.377716	-0.924729	-0.0394205	-0.817633	3.28921	-8.6028	0.0152074	0.00679526	-0.022455	-0.269287	-0.39209	1.00537	0.960792	0.034801	-0.268279	0.0607833	5.45634	0.422859	8.89255	0.00424196	0.0107804	0.0039532	-0.20459	-0.143066	-1.0791	0.0351862	-0.0321969	0.998427	0.029488	-0.683535	1.14941	-9.66406	0.00252291	0.00629449	-0.00686126	-0.397949	-0.0915527	1.0769	
24	-0.834923	-0.00255317	0.549925	0.0218755	9.42926	0.20928	4.09816	0.00511558	-0.00636747	0.00633505	-0.763428	-0.0249023	-0.675537	0.665895	-0.074393	-0.742321	-0.00315986	9.78852	-0.915259	-1.10899	-0.00241013	0.0221415	-0.0205801	-0.899658	0.0129395	-0.186035	0.772291	0.0186193	-0.613973	0.162038	9.50612	-1.77062	2.41966	0.00713589	0.020199	0.00083985	-0.993652	0.0222168	-0.538818	0.8376	0.0875091	-0.523299	-0.130098	8.35871	2.76665	4.22944	0.00490868	-0.00307383	0.00147305	-0.668945	-0.152344	-0.779053	0.776687	0.0101546	-0.618654	-0.117993	9.48872	1.69158	2.32348	0.0278075	0.00337369	-0.0132253	-0.845703	-0.113281	-0.638672	0.873749	-0.238782	-0.392471	-0.159726	8.75306	-3.3631	6.60102	-0.00298671	-0.00117264	-0.0160931	-0.779541	0.308838	-0.790527	0.641124	0.01726	-0.765459	0.0522935	9.48048	-0.61041	-1.72321	0.0138108	-0.000155327	-0.00844549	-1.04932	-0.017334	-0.141113	0.937857	-0.0757472	-0.323948	-0.0987094	6.82189	-0.840531	8.44429	0.00559175	0.0146759	-0.0158087	-0.460938	0.117188	-0.98584	-0.0255306	0.377688	-0.924738	-0.039486	-0.842765	3.29859	-8.58166	0.00164928	0.00434418	-0.0213424	-0.271729	-0.39209	1.00757	0.960785	0.034791	-0.268297	0.0608119	5.51538	0.395797	8.87478	0.0023108	0.0101476	0.00549651	-0.206787	-0.143066	-1.07471	0.0351293	-0.0322384	0.998424	0.0296096	-0.67751	1.14074	-9.66821	-0.00341416	0.00755473	-0.00900156	-0.397949	-0.09375	1.08594	
25	-0.835019	-0.00240306	0.549779	0.0219212	9.45345	0.203823	4.12533	-0.0116457	0.0110337	-0.00265973	-0.754639	-0.0202637	-0.681885	0.66604	-0.074113	-0.742217	-0.00335516	9.76863	-0.948297	-1.1196	-0.000105089	0.0109517	-0.0250448	-0.904053	0.0107422	-0.188232	0.772207	0.0185537	-0.614127	0.161862	9.54029	-1.7053	2.45312	-0.0209083	0.00146943	-0.00298393	-0.99585	0.0200195	-0.53418	0.837483	0.0873863	-0.523477	-0.130219	8.40412	2.71505	4.33932	0.000460091	-0.00274112	-0.00276124	-0.668945	-0.150146	-0.776855	0.776543	0.0101888	-0.618847	-0.117922	9.50701	1.64647	2.2784	-0.00859651	-0.00709829	-0.0119622	-0.841309	-0.111084	-0.636475	0.873683	-0.238714	-0.392667	-0.159707	8.7275	-3.20107	6.73405	-0.0160901	0.00835104	-0.020307	-0.779541	0.306885	-0.790527	0.640632	0.0170175	-0.765872	0.0523477	9.58485	-0.629913	-1.84711	0.0204429	-0.00873435	-0.0043832	-1.04736	-0.0107422	-0.13916	0.937936	-0.0754986	-0.323725	-0.0988809	6.79605	-0.824078	8.47966	0.00671511	0.0147815	-0.0165919	-0.463135	0.117188	-0.98584	-0.0254919	0.377899	-0.924649	-0.039589	-0.830131	3.297	-8.59345	-7.88436e-05	0.00300532	-0.0202724	-0.271729	-0.389648	1.00073	0.96082	0.035079	-0.268125	0.0608528	5.44991	0.503727	8.89657	0.0128934	0.0112927	0.00124855	-0.198242	-0.13623	-1.07471	0.0351517	-0.0322545	0.998418	0.0297432	-0.663283	1.1378	-9.65056	0.000414075	0.00612269	-0.00769072	-0.390869	-0.0981445	1.07935	
26	-0.835129	-0.0023911	0.549605	0.0220773	9.35521	0.191851	4.09334	-0.00753636	0.0130578	-0.0109699	-0.752441	-0.0224609	-0.686279	0.666002	-0.0741757	-0.742246	-0.00331107	9.75321	-0.929142	-1.16315	-0.00879767	0.00909237	-0.0124846	-0.901855	0.0129395	-0.188477	0.772207	0.0185537	-0.614127	0.161862	9.54029	-1.7053	2.45312	-0.0209083	0.00146943	-0.00298393	-0.99585	0.0200195	-0.53418	0.83734	0.0871327	-0.523712	-0.130366	8.36442	2.74979	4.25379	-0.0103489	-0.0112644	0.00228585	-0.673096	-0.156738	-0.778809	0.77648	0.0100871	-0.618932	-0.117897	9.5588	1.62687	2.38076	-0.00485746	-0.00269814	-0.00869239	-0.843262	-0.115479	-0.638672	0.873643	-0.238713	-0.392718	-0.159805	8.79155	-3.43267	6.67048	-0.000977096	0.011282	-0.0234669	-0.775146	0.306885	-0.783936	0.640632	0.0170175	-0.765872	0.0523477	9.58485	-0.629913	-1.84711	0.0204429	-0.00873435	-0.0043832	-1.04736	-0.0107422	-0.13916	0.93793	-0.0754296	-0.323757	-0.0988917	6.79042	-0.813642	8.45041	0.00922922	0.0127729	-0.0204145	-0.465332	0.117188	-0.981201	-0.0254919	0.377899	-0.924649	-0.039589	-0.830131	3.297	-8.59345	-7.88436e-05	0.00300532	-0.0202724	-0.271729	-0.389648	1.00073	0.960809	0.0351142	-0.268171	0.0608059	5.48294	0.429908	8.8884	0.00497272	0.00700322	-0.000695838	-0.193604	-0.142822	-1.0791	0.0351517	-0.0322545	0.998418	0.0297432	-0.663283	1.1378	-9.65056	0.000414075	0.00612269	-0.00769072	-0.390869	-0.0981445	1.07935	
27	-0.835194	-0.00220666	0.549499	0.022274	9.42389	0.192606	4.14843	-0.00369371	0.00931907	-0.000190773	-0.759277	-0.0183105	-0.679932	0.666048	-0.0739604	-0.742225	-0.00336427	9.66751	-0.949534	-1.14955	0.00446425	0.0091973	-0.0333929	-0.899414	0.00634766	-0.188232	0.772261	0.0185765	-0.614076	0.161799	9.57084	-1.6276	2.45935	0.000499108	0.00544054	-0.00358831	-0.993652	0.0222168	-0.536621	0.83719	0.0868929	-0.523921	-0.130654	8.37996	2.69015	4.24916	-0.0114851	-0.000849389	-0.00711164	-0.668945	-0.152344	-0.774658	0.776547	0.0101358	-0.618851	-0.117882	9.52749	1.64887	2.34279	0.000237033	0.00636904	-0.0122089	-0.843506	-0.111084	-0.643311	0.873681	-0.238359	-0.392868	-0.159754	8.73574	-3.2528	6.61185	-0.000345063	0.00950688	-0.0218853	-0.772949	0.304688	-0.79248	0.640267	0.0172512	-0.76618	0.0522309	9.49443	-0.583914	-1.80366	0.0239765	-0.0164914	-0.00595963	-1.04907	-0.0195312	-0.130371	0.937943	-0.0753383	-0.323729	-0.0989228	6.8346	-0.78341	8.48773	0.00681885	0.0182127	-0.0199031	-0.465332	0.11499	-0.983398	-0.0255023	0.378094	-0.92457	-0.039551	-0.827379	3.29374	-8.59212	0.00854713	0.00517234	-0.0204022	-0.273926	-0.39209	1.00513	0.960775	0.0352136	-0.26827	0.0608436	5.49986	0.501035	8.87527	0.00549976	0.00754357	0.00474896	-0.204834	-0.136475	-1.07031	0.0351956	-0.0324004	0.99841	0.0298099	-0.667123	1.15257	-9.6648	-0.00120889	0.00345839	-0.00905844	-0.397949	-0.0915527	1.0791	
28	-0.835301	-0.00216223	0.549334	0.0223504	9.35143	0.226484	4.15924	-0.00604844	0.0128679	-0.00438927	-0.756836	-0.0224609	-0.686279	0.665507	-0.0740808	-0.742699	-0.00341253	9.73916	-0.962885	-1.14972	-0.0116754	-0.0320261	-0.0179994	-0.897461	0.00854492	-0.185791	0.772201	0.0181771	-0.614314	0.161224	9.48499	-1.64745	2.42473	-0.0325913	-0.0154902	-0.010569	-0.99585	0.0222168	-0.545654	0.837114	0.0869456	-0.524013	-0.130732	8.36729	2.82575	4.22959	0.00540327	-0.00383607	-0.00724604	-0.671143	-0.152344	-0.779053	0.77649	0.0101694	-0.618897	-0.11801	9.41935	1.64164	2.2664	0.00170964	0.000310318	-0.0240431	-0.843506	-0.113281	-0.636475	0.873572	-0.238213	-0.393181	-0.159798	8.76006	-3.26841	6.68221	-0.000527255	0.00378525	-0.0191644	-0.772949	0.304688	-0.790283	0.639908	0.0170357	-0.766496	0.0520746	9.48701	-0.55737	-1.79492	-0.00342738	-0.0245172	-0.00951872	-1.04517	-0.0107422	-0.13501	0.937955	-0.0753508	-0.323691	-0.0989299	6.82314	-0.813901	8.43327	0.00397056	0.0181994	-0.0169162	-0.465576	0.119385	-0.988281	-0.0254357	0.378289	-0.924495	-0.0394838	-0.829272	3.30223	-8.58938	0.00579397	0.00650152	-0.0196589	-0.271484	-0.396729	1.00757	0.960809	0.0351465	-0.268175	0.060767	5.45513	0.40858	8.86086	0.000552111	0.0161653	0.00169618	-0.195801	-0.142822	-1.07227	0.0351538	-0.0324205	0.998413	0.0297527	-0.685874	1.15264	-9.66085	0.00508084	0.00913055	-0.00773757	-0.400146	-0.09375	1.0769	
29	-0.835047	-0.00200775	0.549714	0.0225236	9.38544	0.186306	4.135	-0.00813196	-0.0361347	-0.00370751	-0.759033	-0.0205078	-0.682129	0.665417	-0.0740319	-0.742784	-0.00342555	9.83983	-0.91669	-1.12689	-0.0108749	0.0249323	-0.023469	-0.901855	0.0126953	-0.190674	0.772131	0.0184222	-0.614348	0.161404	9.6267	-1.58538	2.40011	0.0159065	-0.00234273	-0.00506056	-0.99585	0.0202637	-0.541016	0.837036	0.0869635	-0.524081	-0.130951	8.4379	2.81025	4.38639	0.00283851	0.00632926	-0.00506766	-0.666748	-0.1521	-0.779053	0.776481	0.0104282	-0.618925	-0.117903	9.64172	1.62797	2.336	0.020792	0.00705991	-0.0208686	-0.849854	-0.115479	-0.640869	0.873566	-0.237976	-0.393292	-0.159909	8.82008	-3.31266	6.81567	0.0205804	0.0171815	-0.0252817	-0.779297	0.304688	-0.790283	0.638986	0.0169333	-0.767292	0.0517102	9.7587	-0.629384	-1.91759	-0.00180538	-0.0278488	-0.0274252	-1.05151	-0.0129395	-0.128418	0.937986	-0.075292	-0.32364	-0.0988477	6.74693	-0.824342	8.44303	0.00722466	0.0140963	-0.0156353	-0.465576	0.121582	-0.99292	-0.0254357	0.378289	-0.924495	-0.0394838	-0.829272	3.30223	-8.58938	0.00579397	0.00650152	-0.0196589	-0.271484	-0.396729	1.00757	0.960807	0.0352114	-0.268174	0.0607675	5.44645	0.447017	8.90579	0.00756371	0.00905767	0.00213223	-0.200439	-0.138428	-1.07471	0.0351407	-0.0325416	0.998412	0.0296467	-0.676828	1.14351	-9.66524	0.00575301	0.00358297	-0.00846655	-0.402344	-0.09375	1.08594	
30	-0.83477	-0.00202773	0.55013	0.0226227	9.5355	0.226294	4.06479	-3.10983e-06	-0.0101972	-0.00418617	-0.754395	-0.0268555	-0.679688	0.665407	-0.0736665	-0.74283	-0.00327472	9.6199	-0.906546	-1.19724	0.0114056	0.00405805	-0.0274369	-0.899902	0.0170898	-0.190918	0.772219	0.0185325	-0.614286	0.161205	9.51738	-1.70681	2.41512	0.0146965	0.00664086	-0.0111332	-0.99585	0.0200195	-0.53418	0.837085	0.0869925	-0.524018	-0.130867	8.41968	2.84269	4.2901	0.0108823	0.00732272	0.00473648	-0.67334	-0.154541	-0.778809	0.776558	0.0103253	-0.618748	-0.118329	9.50852	1.53358	2.36924	0.00135517	0.0114466	-0.0146529	-0.845703	-0.113281	-0.638672	0.873599	-0.237665	-0.393338	-0.160077	8.7594	-3.28138	6.67414	0.0227723	0.0140339	-0.0285075	-0.781494	0.306885	-0.78833	0.639071	0.0170316	-0.767228	0.0515704	9.54049	-0.607058	-1.92265	0.0258918	0.0182153	-0.0207629	-1.04736	-0.0129395	-0.128418	0.937939	-0.0751703	-0.323806	-0.0988414	6.81965	-0.785881	8.46847	0.00797252	0.00825299	-0.0193296	-0.463135	0.117188	-0.98584	-0.0254357	0.378289	-0.924495	-0.0394838	-0.829272	3.30223	-8.58938	0.00579397	0.00650152	-0.0196589	-0.271484	-0.396729	1.00757	0.960708	0.0351827	-0.268525	0.0608059	5.51591	0.417541	8.84623	-0.0013274	-0.00457655	0.00619956	-0.200439	-0.138428	-1.07251	0.0352564	-0.0325774	0.998405	0.0297094	-0.672906	1.14801	-9.65279	0.00206045	0.00176962	-0.00911444	-0.395508	-0.0959473	1.08154	
31	-0.834914	-0.00216146	0.549913	0.0225806	9.406	0.199953	4.10679	0.00766324	0.00919479	-0.00480717	-0.759033	-0.0227051	-0.679932	0.665259	-0.0734537	-0.742984	-0.00321736	9.65524	-0.894102	-1.14101	0.00633346	-0.00465523	-0.0296526	-0.9021	0.0151367	-0.183838	0.772183	0.0187073	-0.61435	0.161115	9.48151	-1.54952	2.34584	-0.011364	0.00276902	-0.00697075	-0.991699	0.0266113	-0.539062	0.837086	0.0870275	-0.523999	-0.130914	8.30618	2.77301	4.23439	0.00395308	0.00689419	-0.00423976	-0.67334	-0.154541	-0.776611	0.776565	0.01089	-0.618773	-0.118099	9.48964	1.68147	2.33253	0.0178938	0.0128896	-0.018198	-0.847656	-0.115479	-0.643311	0.873599	-0.237326	-0.393602	-0.159934	8.71969	-3.24217	6.64296	0.0168805	0.00452936	-0.0163848	-0.772949	0.304688	-0.79248	0.639234	0.0170566	-0.767099	0.0514549	9.43994	-0.601911	-1.79797	0.0134542	0.0291697	-0.0257212	-1.05371	-0.0151367	-0.132812	0.937888	-0.075303	-0.323909	-0.0988875	6.79741	-0.846833	8.46453	-0.00402922	0.0118412	-0.0185434	-0.467529	0.117188	-0.98584	-0.0254357	0.378289	-0.924495	-0.0394838	-0.829272	3.30223	-8.58938	0.00579397	0.00650152	-0.0196589	-0.271484	-0.396729	1.00757	0.960638	0.0352044	-0.268775	0.0607973	5.45344	0.464162	8.85153	0.00443582	0.00196687	0.00332718	-0.195801	-0.140625	-1.0769	0.035318	-0.0326436	0.998402	0.0296735	-0.673185	1.1508	-9.64027	0.00777257	0.00324142	-0.00952609	-0.397705	-0.0981445	1.07935	
32	-0.835072	-0.00245364	0.549671	0.0225885	9.31184	0.258359	4.16196	0.00869737	0.00288483	-0.00897271	-0.756836	-0.0205078	-0.679932	0.665216	-0.073129	-0.743052	-0.00356512	9.78636	-0.926107	-1.24148	-0.0122797	0.0155988	-0.0216639	-0.901855	0.0129395	-0.183594	0.772109	0.0186776	-0.614449	0.161096	9.59091	-1.69429	2.37879	0.0162504	-0.00257685	-0.0065335	-0.998047	0.0224609	-0.538818	0.837089	0.0876361	-0.52393	-0.130766	8.42671	2.79975	4.26055	0.0222141	0.0118949	-0.00321568	-0.671143	-0.150146	-0.78125	0.77658	0.0112201	-0.618735	-0.118174	9.55423	1.7468	2.30905	0.00210419	0.00976665	-0.0299455	-0.843262	-0.117676	-0.63623	0.873575	-0.237439	-0.393595	-0.159913	8.79037	-3.26313	6.62418	-0.0170289	0.0161856	-0.0104214	-0.779541	0.308838	-0.792725	0.639159	0.0172897	-0.767176	0.0511637	9.57363	-0.590975	-1.82573	0.00969696	0.00393718	-0.0194004	-1.04761	-0.0065918	-0.128662	0.937879	-0.0752709	-0.323949	-0.0988653	6.82523	-0.845881	8.41673	0.00694956	0.0157131	-0.0154069	-0.465332	0.119385	-0.976562	-0.0254357	0.378289	-0.924495	-0.0394838	-0.829272	3.30223	-8.58938	0.00579397	0.00650152	-0.0196589	-0.271484	-0.396729	1.00757	0.96063	0.0351258	-0.268809	0.0608048	5.53399	0.4439	8.83636	0.0007196	0.00995514	0.00558271	-0.200195	-0.140625	-1.07227	0.0354031	-0.0326581	0.998401	0.0296016	-0.69541	1.15149	-9.66716	0.00512701	0.00467701	-0.00776719	-0.397949	-0.0915527	1.0791	
33	-0.83474	-0.00280117	0.550177	0.022529	9.43851	0.241599	4.12844	0.0163574	-0.0295508	-0.00926615	-0.75708	-0.0183105	-0.679932	0.665496	-0.0732123	-0.742793	-0.00373499	9.69335	-0.903181	-1.22105	-0.0100664	0.0275552	-0.0220875	-0.904053	0.0129395	-0.188477	0.772113	0.0191064	-0.614345	0.161419	9.59963	-1.55957	2.43699	0.0158874	0.0106342	-0.00200508	-1.00024	0.0246582	-0.538818	0.837237	0.0879418	-0.523707	-0.130502	8.37707	2.84586	4.31704	0.0248411	0.0193117	0.00298507	-0.670898	-0.156738	-0.776611	0.776598	0.0111251	-0.618732	-0.118079	9.46989	1.66501	2.30662	0.0112702	0.00566962	-0.00814387	-0.845459	-0.115479	-0.638672	0.873631	-0.237521	-0.393404	-0.159959	8.7626	-3.29839	6.75317	-0.00700403	0.0240408	-0.0111922	-0.777588	0.313232	-0.790527	0.639323	0.0172111	-0.76704	0.0511827	9.50253	-0.606144	-1.8783	0.0179818	0.0281724	-0.0150568	-1.04956	-0.00878906	-0.130859	0.937895	-0.0751638	-0.323932	-0.0988545	6.77401	-0.81836	8.45111	0.00892162	0.0149508	-0.0181344	-0.465576	0.119385	-0.988281	-0.0254357	0.378289	-0.924495	-0.0394838	-0.829272	3.30223	-8.58938	0.00579397	0.00650152	-0.0196589	-0.271484	-0.396729	1.00757	0.960631	0.0351309	-0.268824	0.0607297	5.48931	0.391114	8.88645	0.0020107	0.0108192	0.000896957	-0.200439	-0.138428	-1.07935	0.0354389	-0.0326676	0.998398	0.0296303	-0.669417	1.14003	-9.65398	-0.00146649	0.00391235	-0.00716936	-0.395508	-0.0959473	1.08618	
34	-0.834551	-0.00309874	0.550471	0.0222931	9.39331	0.284229	4.05853	0.0137319	-0.0134411	0.00536221	-0.759033	-0.0249023	-0.679932	0.665514	-0.0732029	-0.742778	-0.00367606	9.73631	-0.921602	-1.10098	-0.0123589	0.0131154	-0.0142165	-0.899658	0.0107422	-0.181152	0.772126	0.0193756	-0.614315	0.16144	9.56324	-1.55734	2.43493	0.0210128	0.00418543	-0.0137866	-0.993652	0.0200195	-0.53418	0.837306	0.0880807	-0.523614	-0.130338	8.37333	2.86562	4.28366	0.00922989	0.00940457	-0.0026583	-0.666504	-0.154297	-0.778809	0.776627	0.0111912	-0.618723	-0.117929	9.50668	1.62544	2.39115	0.0105542	0.00941026	-0.00831268	-0.843262	-0.115479	-0.636475	0.873645	-0.237695	-0.393285	-0.159914	8.78847	-3.27119	6.67036	0.00370982	0.0153214	-0.00866559	-0.781494	0.30249	-0.788086	0.639355	0.0172245	-0.767011	0.0512124	9.50132	-0.591808	-1.81701	0.0222322	0.0160975	-0.0174725	-1.04077	-0.0151367	-0.134766	0.937936	-0.075137	-0.323839	-0.0987899	6.81106	-0.771269	8.46898	0.00194968	0.0201972	-0.0134839	-0.463135	0.117188	-0.983643	-0.0254357	0.378289	-0.924495	-0.0394838	-0.829272	3.30223	-8.58938	0.00579397	0.00650152	-0.0196589	-0.271484	-0.396729	1.00757	0.960682	0.0352908	-0.268611	0.0607635	5.51763	0.46905	8.86228	0.010637	0.0243393	0.000195352	-0.206787	-0.143066	-1.07227	0.0354389	-0.0326676	0.998398	0.0296303	-0.669417	1.14003	-9.65398	-0.00146649	0.00391235	-0.00716936	-0.395508	-0.0959473	1.08618	
35	-0.834483	-0.00300435	0.550583	0.0220888	9.45084	0.309395	4.10615	-0.00621079	-0.00416595	0.00585615	-0.756836	-0.0249023	-0.677734	0.665503	-0.0733006	-0.742778	-0.00372008	9.74601	-0.894796	-1.13147	-0.015062	0.0131697	-0.0152463	-0.904053	0.0129395	-0.181396	0.772075	0.0193401	-0.614379	0.161442	9.53554	-1.61667	2.41736	-0.00943554	0.00286696	0.00336723	-0.99585	0.0200195	-0.538818	0.837331	0.088345	-0.523548	-0.13027	8.39779	2.83801	4.3053	0.0205243	0.0107162	0.000778067	-0.659912	-0.154297	-0.774414	0.776594	0.0110543	-0.618729	-0.118128	9.53152	1.59028	2.35284	-0.00157378	0.00159226	-0.0205478	-0.843506	-0.113281	-0.640869	0.873538	-0.238143	-0.393232	-0.15996	8.79941	-3.29759	6.75348	-0.0186	0.00929954	-0.00915922	-0.781494	0.306885	-0.794678	0.639624	0.0174197	-0.766797	0.0509879	9.53288	-0.575343	-1.7956	0.0174331	0.00616181	-0.0150372	-1.04956	-0.0109863	-0.130615	0.937956	-0.075211	-0.323776	-0.0987507	6.76611	-0.81953	8.44937	-0.000612876	0.0192606	-0.0120629	-0.465332	0.117188	-0.981201	-0.0253031	0.381229	-0.923354	-0.0379766	-0.836758	3.29529	-8.61085	0.0117401	0.0057154	-0.0229411	-0.269043	-0.398926	1.00537	0.960729	0.0352844	-0.268438	0.0607881	5.47568	0.495234	8.84258	0.00334773	0.026134	0.00436957	-0.204834	-0.136475	-1.07251	0.0353043	-0.0328702	0.998397	0.0296091	-0.678178	1.15103	-9.65484	0.00145658	0.00583542	-0.0076558	-0.400146	-0.0959473	1.09058	
36	-0.834514	-0.00280775	0.550534	0.0221544	9.48272	0.213024	4.11785	-0.0162282	0.00121151	0.00312372	-0.759033	-0.0227051	-0.679932	0.665535	-0.0732469	-0.742754	-0.00380628	9.80252	-0.891523	-1.11518	-0.0125663	0.016642	-0.0214821	-0.901855	0.0129395	-0.188477	0.772012	0.0195262	-0.614385	0.161701	9.58216	-1.68093	2.39179	0.0213065	0.00647607	0.00692618	-0.993652	0.0244141	-0.538818	0.837408	0.0887386	-0.523419	-0.130023	8.33268	2.86523	4.30894	0.0219557	0.0122955	0.00363089	-0.668701	-0.158936	-0.778809	0.776568	0.0115725	-0.618794	-0.117908	9.57003	1.75062	2.38242	0.0124364	0.0146378	-0.0252957	-0.841064	-0.115479	-0.640869	0.873561	-0.238121	-0.393221	-0.159896	8.79352	-3.38973	6.70823	0.00585641	0.0145885	-0.0110626	-0.777344	0.308838	-0.786133	0.639473	0.0173216	-0.766915	0.0511375	9.59626	-0.579751	-1.84645	0.0168439	0.00908698	-0.0133562	-1.04761	-0.00878906	-0.128662	0.937968	-0.0752065	-0.323739	-0.0987532	6.7935	-0.857205	8.43672	0.00447458	0.0181798	-0.0172898	-0.465332	0.117432	-0.990479	-0.0252791	0.381214	-0.923354	-0.0381419	-0.821976	3.31091	-8.60552	-0.00252349	0.00272202	-0.0215822	-0.271729	-0.394287	1.00977	0.96079	0.0352001	-0.268231	0.0607923	5.49925	0.401511	8.88519	-0.00118931	0.0182415	0.00433156	-0.202637	-0.138428	-1.07251	0.035168	-0.0329786	0.998401	0.0295252	-0.67547	1.15512	-9.67757	0.00480913	0.00865956	-0.00782823	-0.397949	-0.09375	1.08594	
37	-0.834553	-0.00274738	0.550467	0.0223469	9.4358	0.173598	4.08461	-0.00173682	-0.00349199	-0.00629088	-0.759033	-0.0205078	-0.679932	0.665602	-0.0730697	-0.742712	-0.00375673	9.7172	-0.913142	-1.22985	0.0118534	0.0121994	-0.0280799	-0.899658	0.0107422	-0.183594	0.771894	0.0197969	-0.614488	0.161838	9.6104	-1.53087	2.52114	0.0108026	0.00472778	-0.00106271	-0.993652	0.0200195	-0.536621	0.837382	0.0887802	-0.523467	-0.129968	8.42195	2.8881	4.34766	0.00950156	0.00194939	0.00267179	-0.666504	-0.158691	-0.778809	0.776536	0.0111905	-0.618809	-0.118077	9.52562	1.58071	2.27225	-0.0096227	0.00367032	-0.0136364	-0.845459	-0.117676	-0.640869	0.873563	-0.238115	-0.393234	-0.159862	8.80827	-3.35938	6.71605	0.0119355	0.0157414	-0.0144894	-0.775146	0.304688	-0.790283	0.639473	0.0173216	-0.766915	0.0511375	9.59626	-0.579751	-1.84645	0.0168439	0.00908698	-0.0133562	-1.04761	-0.00878906	-0.128662	0.938025	-0.0749928	-0.323618	-0.0987756	6.76935	-0.734258	8.49831	0.00653398	0.0131775	-0.0105223	-0.46582	0.125977	-0.981445	-0.0252384	0.381202	-0.923354	-0.0382801	-0.851216	3.31223	-8.58225	-0.00164301	0.0045425	-0.0217579	-0.273926	-0.394287	1.00757	0.960786	0.0353161	-0.268208	0.0608878	5.44778	0.457835	8.90426	0.00877758	0.0104665	0.00469196	-0.193359	-0.147217	-1.0835	0.0352255	-0.0330177	0.998395	0.0296001	-0.675664	1.14843	-9.66888	0.00257948	0.00253535	-0.00808878	-0.397705	-0.0981445	1.08838	
38	-0.834662	-0.00286316	0.550309	0.0221662	9.44527	0.200541	4.08694	0.0114729	0.0110909	0.00350549	-0.752197	-0.0268555	-0.675537	0.665627	-0.0729158	-0.742704	-0.00370369	9.73767	-0.882677	-1.13664	-0.00404344	0.0151565	-0.0191132	-0.897461	0.0129395	-0.188477	0.771948	0.0197919	-0.614453	0.161717	9.56866	-1.62718	2.45201	0.00134557	0.0140191	-0.00886169	-0.993652	0.0178223	-0.538818	0.837454	0.0887484	-0.523342	-0.130025	8.34408	2.76182	4.20586	0.00578398	0.00955066	2.36174e-05	-0.668701	-0.154297	-0.783447	0.776533	0.011165	-0.61882	-0.118042	9.49899	1.67107	2.39765	-0.0160816	0.0130316	-0.0130479	-0.843262	-0.120117	-0.634033	0.873547	-0.238059	-0.393303	-0.159866	8.74247	-3.28393	6.63128	0.0187186	0.00788307	-0.0208388	-0.779297	0.304688	-0.786133	0.639846	0.0175925	-0.766603	0.0510546	9.51819	-0.594636	-1.76699	0.00904471	0.0209576	-0.0166985	-1.05566	-0.017334	-0.132568	0.937934	-0.0752302	-0.323841	-0.0987275	6.80948	-0.81616	8.46097	-0.00202212	0.00283358	-0.0138483	-0.469971	0.121582	-0.981201	-0.0253457	0.381691	-0.923166	-0.0378831	-0.821977	3.30033	-8.59364	0.0135867	0.00363732	-0.022036	-0.269287	-0.396484	1.00537	0.960762	0.0352586	-0.268294	0.0609267	5.50792	0.469563	8.85245	-0.00114426	0.0100447	0.00506225	-0.202393	-0.142822	-1.0769	0.0352632	-0.0331174	0.998393	0.0295137	-0.681994	1.15175	-9.66065	0.00526916	0.0017844	-0.00769785	-0.395752	-0.09375	1.0769	
39	-0.83488	-0.00314592	0.549974	0.0222175	9.40783	0.239534	4.10035	0.00628325	0.0124705	-0.0125278	-0.759033	-0.0227051	-0.677734	0.665714	-0.0726309	-0.742655	-0.00366753	9.68454	-0.954497	-1.1058	0.0117452	0.0107112	-0.0296882	-0.901611	0.00634766	-0.188232	0.771876	0.0201489	-0.614428	0.162109	9.54937	-1.62468	2.39593	0.0174771	-0.00198609	0.00678665	-0.993652	0.0222168	-0.536621	0.837431	0.088813	-0.523389	-0.129947	8.41779	2.86488	4.32475	0.00997817	0.00568349	-0.00239581	-0.670654	-0.161133	-0.776611	0.776485	0.0113713	-0.618891	-0.117965	9.52782	1.65651	2.27061	0.0191537	0.000528486	-0.0177895	-0.845703	-0.113281	-0.640869	0.873486	-0.238141	-0.393421	-0.159783	8.72542	-3.29602	6.65097	-0.00645812	0.00746451	-0.00999214	-0.774902	0.30249	-0.790283	0.639706	0.0177535	-0.76671	0.0511607	9.46507	-0.591463	-1.79178	0.016589	-0.000883876	-0.0104258	-1.04761	-0.00878906	-0.130859	0.937907	-0.0753955	-0.323896	-0.0986753	6.81216	-0.822427	8.44384	-0.00189126	0.0124364	-0.0113665	-0.460938	0.112793	-0.974121	-0.0253907	0.381661	-0.923183	-0.0377296	-0.82812	3.28453	-8.58229	0.0228664	0.00727165	-0.0206944	-0.27417	-0.389893	1.00293	0.960767	0.0352183	-0.268258	0.0610229	5.4824	0.377532	8.86017	0.00695225	0.0122145	0.00541637	-0.200195	-0.14502	-1.07446	0.0352563	-0.0331416	0.998393	0.0295041	-0.677242	1.15316	-9.66554	0.00419338	0.0065889	-0.00912022	-0.402344	-0.09375	1.0769	
40	-0.835243	-0.00331785	0.549422	0.0222413	9.35708	0.258341	4.16028	0.00539653	0.023537	-0.00397958	-0.759033	-0.0227051	-0.684082	0.665474	-0.0729131	-0.742841	-0.00377644	9.72225	-0.925386	-1.23366	-0.0212568	-0.0143582	-0.0141348	-0.9021	0.0170898	-0.190918	0.771791	0.0197024	-0.614613	0.161868	9.53782	-1.75941	2.40413	-0.0124371	-0.000520836	0.00543786	-0.991455	0.0222168	-0.54126	0.837432	0.0891338	-0.523371	-0.129787	8.41746	2.8678	4.24331	0.0213385	0.00577973	0.000911528	-0.661865	-0.160889	-0.7854	0.776354	0.011459	-0.619086	-0.117796	9.46433	1.70513	2.28455	0.00330719	-0.0101681	-0.0163487	-0.843262	-0.117676	-0.638672	0.873463	-0.238277	-0.393438	-0.159666	8.78338	-3.18452	6.74012	-0.0109586	0.0126191	-0.0100851	-0.777344	0.308838	-0.786133	0.639075	0.017666	-0.76722	0.0514278	9.60476	-0.630986	-1.91276	0.0172	-0.0116108	-0.00837264	-1.04712	-0.0151367	-0.132812	0.937887	-0.075478	-0.323966	-0.0985714	6.83714	-0.818908	8.44795	0.00484892	0.0117578	-0.0133876	-0.465332	0.119385	-0.983643	-0.0253907	0.381661	-0.923183	-0.0377296	-0.82812	3.28453	-8.58229	0.0228664	0.00727165	-0.0206944	-0.27417	-0.389893	1.00293	0.960763	0.035258	-0.268262	0.0610524	5.44349	0.473919	8.85715	0.00603628	0.0106813	0.00442057	-0.200195	-0.142822	-1.0791	0.0351629	-0.0332931	0.998395	0.0293673	-0.664141	1.15215	-9.66653	0.00708106	0.00707648	-0.0091551	-0.402344	-0.0959473	1.08154	
41	-0.835219	-0.00334937	0.549464	0.0220848	9.32182	0.251047	4.14295	0.00382622	-0.0176682	0.00617647	-0.76123	-0.0227051	-0.677734	0.665147	-0.0729076	-0.743135	-0.00374251	9.83458	-0.921635	-1.17765	-0.00866044	0.00352718	-0.0220953	-0.899658	0.0107422	-0.186035	0.771612	0.0202876	-0.61468	0.162394	9.64601	-1.42878	2.40638	0.0222968	-0.00961424	-0.00531186	-0.99585	0.0222168	-0.536621	0.837438	0.0893617	-0.523353	-0.129667	8.40992	2.8586	4.38433	0.0136649	0.00779196	0.00204341	-0.673096	-0.158936	-0.783203	0.776296	0.0115667	-0.619155	-0.1178	9.56976	1.60491	2.33722	0.00137027	0.000625171	-0.0176491	-0.841309	-0.113281	-0.636475	0.873451	-0.238284	-0.393388	-0.159845	8.85659	-3.29539	6.67629	-0.00211663	0.0102436	-0.0133187	-0.779297	0.30249	-0.786133	0.6392	0.0178945	-0.767114	0.0513833	9.62857	-0.611609	-1.85214	0.0141064	0.0122494	-0.0171611	-1.05371	-0.0131836	-0.126465	0.937903	-0.0755358	-0.323948	-0.0984422	6.77658	-0.792568	8.4676	0.00177081	0.0124679	-0.0132374	-0.460938	0.117188	-0.98584	-0.0254148	0.382393	-0.922902	-0.0371697	-0.833712	3.29777	-8.60157	0.0112837	0.00534937	-0.0207274	-0.271729	-0.394287	1.00537	0.96081	0.0351494	-0.268068	0.061223	5.46046	0.453725	8.88984	0.00444767	0.0136444	0.00600454	-0.197754	-0.147217	-1.0791	0.0350997	-0.0333392	0.998397	0.0293135	-0.672887	1.15396	-9.66309	0.00376196	0.00857138	-0.00824973	-0.400146	-0.0915527	1.08154	
42	-0.834751	-0.0032469	0.550182	0.0219344	9.47	0.184344	4.0636	0.0016375	-0.0378935	0.00247425	-0.76123	-0.0249023	-0.677734	0.665008	-0.0726105	-0.743289	-0.0035386	9.70032	-0.900034	-1.17857	0.0110655	0.00213099	-0.0225715	-0.903809	0.00634766	-0.185791	0.771694	0.0198489	-0.614688	0.162028	9.63664	-1.57805	2.36182	-0.0424233	0.013561	-0.00366109	-0.99585	0.0266113	-0.536621	0.837571	0.0892375	-0.523175	-0.12961	8.33586	2.73596	4.26676	-0.00146389	0.0159529	0.00606757	-0.666748	-0.1521	-0.78125	0.776381	0.0119386	-0.619083	-0.117585	9.52554	1.57987	2.30681	0.0107621	0.0194101	-0.0119259	-0.845703	-0.113281	-0.636475	0.873477	-0.23815	-0.393398	-0.159874	8.7259	-3.32297	6.65607	0.00899275	0.0163172	-0.021863	-0.777344	0.306885	-0.78833	0.639587	0.0180153	-0.766781	0.0514862	9.50179	-0.607314	-1.8402	0.0377061	0.0253761	-0.0141948	-1.05396	-0.0109863	-0.137207	0.937843	-0.0755961	-0.324118	-0.0984047	6.80136	-0.831567	8.44249	0.00366883	0.00605327	-0.016371	-0.463379	0.121582	-0.974365	-0.0254969	0.382617	-0.92282	-0.036854	-0.829551	3.28734	-8.58677	0.0175079	0.00492775	-0.0215051	-0.271729	-0.394287	1.00757	0.960744	0.0349975	-0.268312	0.0612765	5.48826	0.375959	8.89073	-0.00286942	0.000222444	0.00998213	-0.204834	-0.138672	-1.07471	0.0351889	-0.0333522	0.998396	0.029244	-0.680316	1.14919	-9.64154	0.00602425	2.58697e-05	-0.00831522	-0.400146	-0.0915527	1.0791	
43	-0.834751	-0.0032469	0.550182	0.0219344	9.47	0.184344	4.0636	0.0016375	-0.0378935	0.00247425	-0.76123	-0.0249023	-0.677734	0.664864	-0.072536	-0.743426	-0.00343622	9.68106	-0.863021	-1.1616	0.00127682	-0.00330625	-0.018122	-0.899414	0.00634766	-0.18335	0.771763	0.0203642	-0.614532	0.162228	9.48794	-1.64158	2.42568	0.0537625	0.0057031	-0.0112643	-0.993652	0.0158691	-0.543213	0.837598	0.0893303	-0.523155	-0.129452	8.38292	2.78909	4.19102	0.0166675	0.00980736	0.00701184	-0.666748	-0.1521	-0.78125	0.776367	0.0118046	-0.6191	-0.117598	9.44552	1.73999	2.30408	-0.00923736	0.00386745	-0.00914127	-0.841064	-0.115479	-0.63623	0.873523	-0.238044	-0.39339	-0.159802	8.78767	-3.36545	6.65715	0.0127579	0.0160601	-0.0128067	-0.781494	0.306885	-0.790527	0.639867	0.018057	-0.766551	0.0514164	9.54179	-0.611879	-1.81797	0.0181095	0.0408178	-0.0255156	-1.04272	-0.0195312	-0.128418	0.937831	-0.0755699	-0.32416	-0.0984021	6.84291	-0.799112	8.47516	0.00741731	0.0117512	-0.0178282	-0.463135	0.117188	-0.983643	-0.0254969	0.382617	-0.92282	-0.036854	-0.829551	3.28734	-8.58677	0.0175079	0.00492775	-0.0215051	-0.271729	-0.394287	1.00757	0.960714	0.0349986	-0.268423	0.0612569	5.49233	0.402114	8.88052	0.00231211	0.00233498	0.00222603	-0.207275	-0.136475	-1.07251	0.0352247	-0.0333828	0.998393	0.0292613	-0.680289	1.14675	-9.66347	0.00197671	0.0027805	-0.00979975	-0.399902	-0.0981445	1.08374	
44	-0.834766	-0.00345455	0.550168	0.0216631	9.44072	0.239614	4.08558	0.00789912	0.012879	0.00174605	-0.754395	-0.0268555	-0.677734	0.664501	-0.0726164	-0.743743	-0.00340897	9.73584	-0.926826	-1.19968	-0.00662298	-0.00886994	-0.0167922	-0.904053	0.0107422	-0.181152	0.771742	0.0199706	-0.614591	0.162155	9.5942	-1.57179	2.42187	-0.024358	0.0045073	-2.78216e-05	-0.998047	0.0224609	-0.538818	0.83758	0.0893916	-0.523182	-0.129416	8.37706	2.83269	4.31549	-0.00279238	0.00474035	0.000831345	-0.67334	-0.154541	-0.778809	0.776374	0.011668	-0.619091	-0.117615	9.53563	1.54842	2.25508	0.00203567	0.00280918	-0.00939643	-0.849854	-0.115479	-0.638672	0.873509	-0.238292	-0.393276	-0.159789	8.81956	-3.21548	6.66261	-0.00891187	0.0145259	-0.0143324	-0.775146	0.308838	-0.792725	0.640061	0.0179955	-0.766412	0.0510918	9.52398	-0.585233	-1.85957	0.00734851	0.0128742	-0.0224884	-1.04736	-0.0129395	-0.130615	0.937836	-0.0755643	-0.324163	-0.0983433	6.79832	-0.798042	8.48543	0.00605779	0.0152709	-0.0174711	-0.471924	0.119385	-0.981201	-0.0254504	0.382811	-0.922748	-0.0366693	-0.83608	3.28101	-8.60775	0.00820101	0.00714938	-0.0205024	-0.271973	-0.385254	1.00952	0.960676	0.0349308	-0.268565	0.0612768	5.51114	0.49201	8.87716	-0.0024889	0.011067	0.00601121	-0.195801	-0.140625	-1.07471	0.0351575	-0.0334544	0.998395	0.0292091	-0.685144	1.13739	-9.6548	0.00670395	0.00924616	-0.00914378	-0.397705	-0.0981445	1.09058	
45	-0.834785	-0.00356661	0.550141	0.0216155	9.36681	0.238873	4.08923	0.00557058	-0.0108536	-0.00390189	-0.756836	-0.0205078	-0.679932	0.664374	-0.072791	-0.743839	-0.00345207	9.77178	-0.848761	-1.15042	-0.0225137	0.0127759	-0.0123668	-0.897461	0.0129395	-0.188477	0.771782	0.0197487	-0.614558	0.162115	9.57617	-1.62843	2.42256	0.00215065	0.00569567	0.00151758	-0.998047	0.0224609	-0.541016	0.837575	0.0894798	-0.523181	-0.129398	8.34363	2.80573	4.2917	0.00678366	0.00415002	-0.00112207	-0.671143	-0.152344	-0.779053	0.776463	0.011781	-0.618971	-0.11765	9.58829	1.66781	2.32747	-0.019675	0.0171702	-0.014882	-0.841064	-0.117676	-0.640869	0.87358	-0.238315	-0.393129	-0.15973	8.77951	-3.28771	6.75146	0.0097107	0.0199702	-0.0122618	-0.775146	0.306885	-0.786133	0.640687	0.0179237	-0.7659	0.05095	9.57921	-0.582995	-1.80195	0.0144308	0.0502347	-0.0238209	-1.04932	-0.0151367	-0.132812	0.937857	-0.0755209	-0.324112	-0.0983447	6.79594	-0.780936	8.44146	0.00466566	0.0180881	-0.0157813	-0.463379	0.121582	-0.983643	-0.0254293	0.382769	-0.922767	-0.0366332	-0.825808	3.28016	-8.61734	0.0128342	0.00707606	-0.0209265	-0.264893	-0.387451	1.00977	0.96068	0.034849	-0.268579	0.0611903	5.46194	0.376859	8.86003	0.00202423	0.00931591	0.000615195	-0.200439	-0.13623	-1.07935	0.0351847	-0.0334639	0.998396	0.0291296	-0.679135	1.15246	-9.66972	0.00531564	0.00385359	-0.00794751	-0.393555	-0.0915527	1.08374	
46	-0.834767	-0.00360183	0.550164	0.0217221	9.49533	0.274891	4.08901	-0.00327825	0.0019072	-0.00468616	-0.754639	-0.0246582	-0.679688	0.664512	-0.072888	-0.743706	-0.00360867	9.67714	-0.980908	-1.17089	-0.00971779	0.0175462	-0.0215541	-0.904053	0.0107422	-0.186035	0.771951	0.0199198	-0.614281	0.162338	9.53732	-1.66154	2.39767	0.0122965	0.0174983	-0.000373131	-0.997803	0.0180664	-0.541016	0.837597	0.0893034	-0.523187	-0.129352	8.40612	2.85745	4.31238	-0.000286077	0.00879905	0.00411376	-0.666504	-0.156494	-0.778809	0.776578	0.0114547	-0.618841	-0.117602	9.45378	1.65609	2.27951	0.00536691	0.0143052	-0.00761554	-0.843262	-0.119873	-0.645508	0.873644	-0.238237	-0.392984	-0.159851	8.74989	-3.29432	6.60951	0.00918524	0.0200049	-0.0205443	-0.781738	0.311035	-0.790527	0.641015	0.0177916	-0.765643	0.0507389	9.47746	-0.558377	-1.75388	0.016481	0.021529	-0.0137296	-1.03882	-0.0129395	-0.13916	0.937872	-0.0754341	-0.324093	-0.0983382	6.81168	-0.792952	8.442	0.01053	0.0156553	-0.0172232	-0.458984	0.119385	-0.983643	-0.0253811	0.383006	-0.922673	-0.0365536	-0.828638	3.28131	-8.60106	0.00636331	0.00635697	-0.0213252	-0.27417	-0.387695	1.01196	0.960689	0.0348838	-0.268535	0.0612271	5.48488	0.463575	8.88676	0.00246408	0.0132371	0.00259242	-0.200439	-0.138428	-1.0769	0.0350746	-0.033589	0.998394	0.029176	-0.671379	1.13541	-9.66676	-0.000504223	0.00767429	-0.00846515	-0.395508	-0.0959473	1.09058	
47	-0.835027	-0.003385	0.549773	0.0216308	9.46173	0.187048	4.10082	-0.00131069	0.0184607	0.00615144	-0.754639	-0.0246582	-0.679688	0.66448	-0.0729817	-0.743724	-0.00368526	9.75847	-0.87861	-1.17376	-0.0147295	0.00718851	-0.0175886	-0.901855	0.0107422	-0.183594	0.771934	0.0199511	-0.614341	0.162186	9.52024	-1.66688	2.37107	-0.00245078	0.00492058	0.00276124	-0.993652	0.0178223	-0.543213	0.83761	0.0894742	-0.523141	-0.129337	8.41362	2.81703	4.32699	0.00967431	0.00984999	-0.00627485	-0.668701	-0.158691	-0.781006	0.776508	0.0110869	-0.618887	-0.117859	9.55342	1.58559	2.39937	-0.0141807	-0.00445416	-0.0145152	-0.843506	-0.113281	-0.647705	0.873666	-0.238441	-0.39276	-0.159978	8.78591	-3.28089	6.71482	-0.00500241	0.0180426	-0.0141333	-0.773193	0.311035	-0.790527	0.641241	0.0178436	-0.765463	0.050576	9.56761	-0.619983	-1.816	0.00296594	0.032673	-0.0262429	-1.04736	-0.0129395	-0.136963	0.937917	-0.0755105	-0.323974	-0.0982363	6.78407	-0.81519	8.45716	0.00236059	0.0200659	-0.0104958	-0.467529	0.117188	-0.981201	-0.0253969	0.382989	-0.922677	-0.0366382	-0.828727	3.30164	-8.60601	0.00871979	0.00166848	-0.0222662	-0.276367	-0.39209	1.00073	0.960745	0.0349527	-0.268318	0.0612604	5.47611	0.458159	8.88024	-0.000131373	0.0191564	0.00394524	-0.20459	-0.145264	-1.07446	0.0350667	-0.0336174	0.998394	0.0291648	-0.678136	1.13625	-9.64328	0.00587611	0.00480844	-0.00777803	-0.402588	-0.0893555	1.08594	
48	-0.835341	-0.00318684	0.549306	0.0213982	9.35818	0.217464	4.14753	-0.004433	0.0145165	0.0123013	-0.756836	-0.0249023	-0.677734	0.664462	-0.072986	-0.74374	-0.00373735	9.74763	-0.940564	-1.17082	-0.00855585	0.0144619	-0.0203655	-0.901855	0.00854492	-0.181152	0.772002	0.0202804	-0.614235	0.162224	9.56629	-1.65931	2.44384	0.022586	0.012125	-0.0107059	-0.991455	0.0200195	-0.543457	0.837729	0.0895998	-0.522935	-0.129308	8.40959	2.82709	4.31604	0.0052184	0.0128126	-0.00152991	-0.670898	-0.158691	-0.7854	0.776625	0.0115926	-0.618761	-0.117702	9.53609	1.59209	2.38085	0.0199965	0.0110073	-0.0209437	-0.841309	-0.111084	-0.640869	0.873671	-0.238271	-0.392854	-0.159972	8.7676	-3.3598	6.67371	0.00756784	0.00967392	-0.021149	-0.777344	0.308838	-0.790527	0.641557	0.0177698	-0.765224	0.0502087	9.58086	-0.536415	-1.78977	0.00965551	0.0334513	-0.0278742	-1.04712	-0.017334	-0.132568	0.937929	-0.0755287	-0.323952	-0.0981785	6.82001	-0.797272	8.47044	0.00542961	0.0147812	-0.0147214	-0.469727	0.117188	-0.97876	-0.0253192	0.383208	-0.922587	-0.036663	-0.81911	3.28228	-8.60072	0.00229102	0.00537357	-0.0208482	-0.276367	-0.39209	1.00293	0.960798	0.0349657	-0.268113	0.0613244	5.46666	0.415208	8.86496	0.00428668	0.017959	0.0057919	-0.202637	-0.138672	-1.08154	0.0351275	-0.0336403	0.998393	0.0290803	-0.667436	1.13592	-9.64401	0.00615378	0.00365599	-0.00847301	-0.397949	-0.0959473	1.08618	
49	-0.835422	-0.00315182	0.549183	0.0213908	9.42838	0.181625	4.14188	0.000737719	0.00417359	-0.000819075	-0.754883	-0.0183105	-0.677734	0.664478	-0.0727592	-0.743749	-0.00367549	9.61307	-0.890507	-1.26814	0.0108387	0.0098201	-0.0263331	-0.899658	0.0107422	-0.181152	0.771978	0.0204618	-0.614258	0.162227	9.54262	-1.53261	2.46428	0.00744472	-0.000200029	-0.0100754	-0.99585	0.0202637	-0.541016	0.837775	0.089889	-0.522847	-0.12917	8.32912	2.84741	4.32039	0.0129471	0.010906	0.00171176	-0.66626	-0.160889	-0.783203	0.776713	0.0117026	-0.618651	-0.117691	9.50148	1.67436	2.28464	-0.000106442	0.0142329	-0.0190185	-0.845703	-0.113281	-0.640869	0.873717	-0.238123	-0.392872	-0.1599	8.74064	-3.28841	6.64221	0.00208698	0.0160459	-0.0136187	-0.7771	0.30249	-0.788086	0.641892	0.0178775	-0.76496	0.0499172	9.56023	-0.580315	-1.78195	0.0105928	0.0347431	-0.0290674	-1.04956	-0.0107422	-0.13916	0.93797	-0.0754964	-0.323865	-0.0981052	6.80185	-0.841699	8.45405	0.00687635	0.0175913	-0.0159895	-0.463135	0.11499	-0.97876	-0.025296	0.383435	-0.9225	-0.0364993	-0.824756	3.28007	-8.60159	0.0100436	0.00625765	-0.0213016	-0.271973	-0.387451	1.00293	0.960822	0.0351218	-0.268003	0.06134	5.45491	0.404183	8.87856	0.0139059	0.0153259	0.00239062	-0.200195	-0.14502	-1.0791	0.0351015	-0.0336759	0.998391	0.0291433	-0.692192	1.15176	-9.65422	-0.00199746	0.00827823	-0.00939493	-0.397949	-0.09375	1.08374	
50	-0.835538	-0.00322503	0.549015	0.0211778	9.37197	0.194773	4.14282	0.0092958	0.00272544	0.00263585	-0.759033	-0.0227051	-0.679932	0.664227	-0.0725713	-0.743992	-0.00358357	9.74891	-0.8635	-1.21152	-0.00584771	-0.00117045	-0.0210435	-0.899658	0.0129395	-0.183594	0.771998	0.0205296	-0.614235	0.162212	9.56613	-1.5779	2.49755	-0.00128543	0.00936003	-0.00329397	-0.99585	0.0200195	-0.538818	0.837783	0.0900258	-0.522833	-0.129076	8.36901	2.7588	4.29966	0.0118217	0.00385834	0.003214	-0.66626	-0.158691	-0.783203	0.776672	0.0115832	-0.618706	-0.11768	9.51499	1.66505	2.33042	0.00875875	0.00769753	-0.0118278	-0.843262	-0.117676	-0.63623	0.873721	-0.238248	-0.392777	-0.159926	8.84564	-3.3024	6.69302	0.00148141	0.0173608	-0.00992767	-0.779541	0.306885	-0.790527	0.642462	0.0179838	-0.764485	0.0498136	9.57103	-0.563465	-1.7775	0.0186804	0.0480464	-0.0238173	-1.05396	-0.00878906	-0.137207	0.937994	-0.0754054	-0.323821	-0.0980853	6.80309	-0.785492	8.47046	0.00635428	0.0189077	-0.0182638	-0.465576	0.121582	-0.983643	-0.025275	0.383425	-0.922498	-0.0366694	-0.821275	3.28921	-8.58257	0.00301511	0.00382207	-0.0219388	-0.273926	-0.394287	1.00537	0.960827	0.0352353	-0.267958	0.0613814	5.49579	0.463259	8.88102	0.012185	0.0142538	0.00355981	-0.200439	-0.138428	-1.07935	0.0350924	-0.0336754	0.998387	0.0292814	-0.701455	1.15631	-9.67209	-0.0016636	0.0052368	-0.00734864	-0.390869	-0.0981445	1.09058	
51	-0.835514	-0.00337191	0.549052	0.0211445	9.39191	0.262875	4.15375	0.00185418	-0.00362477	-0.00587202	-0.752441	-0.0224609	-0.679688	0.664123	-0.0726304	-0.744078	-0.00361583	9.76612	-0.853754	-1.19518	-0.0130894	0.00242346	-0.017753	-0.899414	0.00634766	-0.181152	0.771966	0.0204263	-0.614292	0.162162	9.5863	-1.63793	2.3922	-0.00690656	0.00113385	0.000968886	-0.991455	0.0222168	-0.54126	0.837804	0.0897615	-0.522803	-0.129245	8.39899	2.78254	4.29547	-0.00690618	0.00606643	-0.00140943	-0.664307	-0.154297	-0.776611	0.776689	0.0118464	-0.618714	-0.117501	9.50678	1.68098	2.33397	0.024301	0.00979545	-0.0161915	-0.841309	-0.111084	-0.643311	0.873731	-0.23837	-0.392661	-0.159971	8.75772	-3.29689	6.73413	-0.00973326	0.0195193	-0.0155894	-0.779541	0.306885	-0.790527	0.642823	0.0178268	-0.764198	0.0496202	9.54804	-0.585409	-1.74369	0.0122989	0.0211226	-0.0183031	-1.04712	-0.017334	-0.13916	0.938	-0.0753544	-0.3238	-0.0981372	6.79229	-0.814098	8.46566	0.00723095	0.0174025	-0.0222201	-0.462891	0.112793	-0.981201	-0.0252616	0.383376	-0.922516	-0.0367299	-0.829972	3.30395	-8.61	0.00477318	0.0044431	-0.0183582	-0.276367	-0.394287	1.00073	0.96087	0.0352815	-0.267807	0.0613487	5.48794	0.460594	8.87008	0.00335858	0.0117193	-0.000385239	-0.197754	-0.14502	-1.0769	0.0351426	-0.0336656	0.998383	0.0293912	-0.667727	1.15407	-9.66768	-0.0022178	0.00428354	-0.00751797	-0.404785	-0.09375	1.08374	
52	-0.835491	-0.00338187	0.549085	0.0211909	9.37385	0.264553	4.14105	-0.00106201	-0.00638387	-0.0048609	-0.76123	-0.0249023	-0.681885	0.663891	-0.0727279	-0.744275	-0.00363303	9.73629	-0.933051	-1.23194	-0.0315216	0.0114335	-0.0065628	-0.903809	0.00854492	-0.181152	0.772077	0.0204407	-0.614117	0.162295	9.51638	-1.52946	2.37643	0.0146795	0.0068014	-0.00771135	-0.993652	0.0178223	-0.536377	0.837808	0.0897628	-0.522819	-0.129153	8.35413	2.84554	4.26	0.00822504	0.00515655	0.00662901	-0.66626	-0.158691	-0.783203	0.776726	0.0115166	-0.618652	-0.117617	9.5059	1.61775	2.30914	-0.0109916	0.0118042	-0.012241	-0.843262	-0.115479	-0.645508	0.873738	-0.238487	-0.39256	-0.160009	8.75627	-3.36252	6.67471	-0.00822281	0.0206837	-0.0120633	-0.775391	0.311035	-0.790527	0.64296	0.0179362	-0.764073	0.049732	9.55599	-0.527548	-1.76616	0.0317086	0.0273393	-0.0190943	-1.04736	-0.0107422	-0.13916	0.93801	-0.0752179	-0.323788	-0.0981922	6.7894	-0.832848	8.43627	0.0100298	0.0183125	-0.0221335	-0.465332	0.11499	-0.981201	-0.0252444	0.383365	-0.922517	-0.0368291	-0.830952	3.29612	-8.58958	0.00166615	0.00343508	-0.0216458	-0.273926	-0.39209	1.00293	0.96085	0.0353846	-0.267874	0.0613089	5.481	0.397665	8.87661	0.00667347	0.00451242	0.00061634	-0.200195	-0.140625	-1.07471	0.0351481	-0.0336948	0.998378	0.0294981	-0.682399	1.14116	-9.64931	-0.00504637	0.00466488	-0.00954675	-0.397705	-0.0981445	1.08838	
53	-0.835503	-0.0030894	0.549069	0.0211674	9.40845	0.29892	4.1772	-0.0152333	0.000538864	0.0102172	-0.754639	-0.0227051	-0.677734	0.663182	-0.0729649	-0.744884	-0.00366036	9.68049	-0.938507	-1.2198	-0.0106954	-0.0315505	-0.0166341	-0.903809	0.00854492	-0.176514	0.772058	0.0202301	-0.614168	0.162219	9.50746	-1.65727	2.44789	-0.0075191	0.00181493	0.00230343	-0.99585	0.0222168	-0.538818	0.837774	0.0898343	-0.522843	-0.129225	8.31624	2.76168	4.30365	0.0253665	0.00233858	-0.00514213	-0.666504	-0.158691	-0.781006	0.776662	0.0113282	-0.618732	-0.117638	9.57876	1.70631	2.32409	-0.00643846	-0.000165662	-0.0125419	-0.845703	-0.113281	-0.638672	0.873715	-0.238828	-0.392345	-0.160153	8.84004	-3.24969	6.67033	-0.0246692	0.0203302	-0.0138871	-0.775391	0.313232	-0.786377	0.643258	0.0180913	-0.763834	0.0494921	9.58047	-0.566352	-1.71582	0.0200647	0.0249421	-0.028576	-1.04712	-0.017334	-0.147461	0.938038	-0.0751474	-0.323747	-0.0981078	6.79419	-0.74398	8.46985	0.0040065	0.0159311	-0.0147279	-0.465332	0.119385	-0.979004	-0.0251534	0.383863	-0.922316	-0.0367359	-0.831623	3.28853	-8.60426	0.00389101	0.00534656	-0.0217676	-0.269287	-0.396484	1.00537	0.960852	0.0354579	-0.26786	0.0612952	5.54198	0.498059	8.86695	0.00315503	0.013718	0.0036629	-0.200439	-0.138428	-1.07471	0.0351443	-0.0338054	0.998374	0.0295279	-0.682631	1.15933	-9.65265	0.000613055	0.00331086	-0.00806803	-0.395508	-0.0981445	1.08374	
54	-0.83541	-0.00241092	0.549206	0.0213697	9.32864	0.174537	4.1442	-0.0292888	-0.0188153	0.000375477	-0.754639	-0.0246582	-0.679688	0.6625	-0.0728608	-0.745501	-0.00367023	9.85978	-0.848229	-1.24318	-0.0162315	-0.0120453	-0.0219535	-0.9104	0.00854492	-0.176514	0.771872	0.0199689	-0.614462	0.162025	9.64369	-1.49608	2.38423	-0.0387112	-0.00374396	0.00377966	-0.99585	0.0222168	-0.538818	0.837698	0.0901331	-0.522911	-0.129241	8.41865	2.82968	4.35443	0.00532371	0.00317475	-0.00390198	-0.664307	-0.156494	-0.778809	0.776499	0.0116194	-0.61895	-0.117539	9.55327	1.59153	2.33663	0.0225973	-0.00115517	-0.0164116	-0.845703	-0.113281	-0.636475	0.873655	-0.238934	-0.392334	-0.160346	8.7774	-3.26112	6.80314	0.00218363	0.0161813	-0.0217144	-0.7771	0.304688	-0.790283	0.644177	0.0180102	-0.763106	0.0488038	9.57753	-0.534478	-1.72378	-0.00563889	0.0769692	-0.0402482	-1.04907	-0.0195312	-0.143311	0.938025	-0.0752457	-0.323772	-0.0980805	6.77647	-0.824225	8.48834	0.00341786	0.0122299	-0.0153907	-0.467773	0.121582	-0.983643	-0.0251652	0.383802	-0.922342	-0.0367213	-0.808211	3.30293	-8.57358	0.0112664	0.00423314	-0.0202212	-0.27417	-0.387451	1.00293	0.960833	0.0353759	-0.26795	0.0612533	5.41377	0.452479	8.86561	-0.000117499	0.00410179	0.00473692	-0.204834	-0.138672	-1.0769	0.0351946	-0.0338184	0.998373	0.0294789	-0.674878	1.15422	-9.65509	0.00599709	0.00449317	-0.00829487	-0.391113	-0.09375	1.08594	
55	-0.835075	-0.00222621	0.549695	0.0219319	9.51539	0.102007	4.09381	-0.0117009	-0.0216424	-0.0169235	-0.756836	-0.0227051	-0.677734	0.662107	-0.0729701	-0.745839	-0.00373935	9.6976	-0.893215	-1.2513	-0.00835903	-0.010212	-0.0198826	-0.908447	0.0129395	-0.174316	0.77189	0.0196587	-0.614498	0.161838	9.54691	-1.72831	2.43741	0.0127667	0.00865599	-0.00208091	-0.99585	0.0222168	-0.536621	0.837697	0.0901478	-0.522901	-0.129276	8.37387	2.84235	4.32712	0.00865175	0.00618386	-0.0018782	-0.668457	-0.163086	-0.781006	0.776691	0.0118279	-0.618711	-0.117506	9.51818	1.6771	2.32842	0.00584596	0.0166006	-0.0107185	-0.843506	-0.111084	-0.643311	0.873747	-0.238633	-0.392277	-0.160436	8.74163	-3.36675	6.64375	0.0111206	0.021553	-0.021538	-0.777344	0.306885	-0.79248	0.644335	0.018303	-0.762968	0.0487657	9.57218	-0.536119	-1.68998	0.0109	0.0172793	-0.0262469	-1.04932	-0.0195312	-0.147461	0.937945	-0.075277	-0.324008	-0.0980418	6.80087	-0.795202	8.48337	0.0053155	0.00312986	-0.0165298	-0.465576	0.123779	-0.979004	-0.0252007	0.384021	-0.922259	-0.0364918	-0.828367	3.29556	-8.61531	0.0129962	0.00513793	-0.0207639	-0.27417	-0.387451	1.00513	0.960704	0.0352488	-0.268421	0.0612785	5.50484	0.429347	8.84008	-0.000252496	-0.010337	0.0068987	-0.196045	-0.13623	-1.07715	0.035298	-0.0338498	0.998368	0.0294735	-0.689088	1.16537	-9.64757	0.00272498	0.0022141	-0.00861108	-0.400146	-0.0959473	1.09058	
56	-0.835147	-0.00249008	0.549587	0.0218428	9.441	0.194116	4.0999	0.0142458	0.00951648	0.00119902	-0.756836	-0.0227051	-0.681885	0.66174	-0.0730441	-0.746156	-0.00384502	9.65476	-0.911074	-1.22543	-0.00988115	-0.00948163	-0.0231242	-0.901611	0.00415039	-0.171631	0.771926	0.0198156	-0.614406	0.161996	9.49188	-1.6029	2.35117	-0.00591433	0.00558499	0.00493889	-1.0022	0.0202637	-0.538818	0.837686	0.0899559	-0.522915	-0.129424	8.38092	2.80546	4.2701	0.000157967	0.0040351	-0.00260483	-0.67041	-0.165527	-0.778809	0.77671	0.0112487	-0.618629	-0.117868	9.49378	1.59229	2.34238	-0.0180021	0.00439941	-0.0173454	-0.845703	-0.113281	-0.643311	0.873783	-0.238463	-0.392271	-0.160506	8.76871	-3.20374	6.63981	0.00697478	0.0136747	-0.0172169	-0.777344	0.308838	-0.790527	0.644695	0.0182959	-0.762678	0.0485361	9.52867	-0.523283	-1.73028	0.00877842	0.0306954	-0.0217308	-1.04932	-0.017334	-0.145508	0.937875	-0.0754525	-0.324175	-0.0980215	6.81504	-0.833672	8.45261	-0.000831411	0.00947801	-0.0145265	-0.463379	0.121582	-0.986084	-0.0252388	0.383992	-0.922275	-0.0363729	-0.825779	3.27919	-8.60486	0.014117	0.00669223	-0.0215203	-0.269287	-0.39209	1.00293	0.960667	0.0351417	-0.26857	0.0612701	5.53193	0.483787	8.84209	-0.00254496	0.00774796	0.0035286	-0.204834	-0.138672	-1.07471	0.0353265	-0.0338686	0.998366	0.0295095	-0.687735	1.16418	-9.64781	0.00405704	0.00673542	-0.00775237	-0.395508	-0.0981445	1.08838	
57	-0.835303	-0.00295301	0.549352	0.0217164	9.29467	0.257798	4.15679	0.0149504	0.00224831	-0.0130628	-0.752441	-0.0227051	-0.67334	0.661548	-0.072958	-0.746335	-0.00390166	9.72327	-0.867729	-1.24429	-0.00788904	-0.00709155	-0.0274003	-0.901855	0.00854492	-0.171875	0.77183	0.0196609	-0.614519	0.162044	9.54077	-1.70454	2.3737	0.0148775	-0.00022606	0.00521551	-0.99585	0.0202637	-0.543457	0.837822	0.0899955	-0.522662	-0.129535	8.42852	2.83708	4.30562	-0.00735253	0.0217761	-0.00334584	-0.66626	-0.163086	-0.778809	0.776702	0.0117793	-0.61869	-0.117546	9.47899	1.79658	2.314	0.0206864	0.0122517	-0.0222686	-0.841064	-0.117676	-0.643311	0.873695	-0.238707	-0.392292	-0.160568	8.75799	-3.34307	6.71415	-0.013138	0.0127319	-0.0100336	-0.777344	0.306885	-0.78833	0.644812	0.0182915	-0.762574	0.0486161	9.54582	-0.563452	-1.62411	0.0290799	0.0083656	-0.017219	-1.04468	-0.0239258	-0.149658	0.937888	-0.0754749	-0.32415	-0.0979666	6.8032	-0.833641	8.45394	0.00452969	0.0162778	-0.0140944	-0.465332	0.119385	-0.983643	-0.0252021	0.384201	-0.922196	-0.0361839	-0.829544	3.27934	-8.60279	0.0106536	0.0073448	-0.0201294	-0.27417	-0.387451	1.00513	0.960676	0.0350311	-0.268554	0.0612643	5.45167	0.385022	8.87389	0.00244914	0.0113523	0.00628313	-0.207275	-0.136475	-1.07935	0.0352942	-0.0339109	0.998367	0.0294467	-0.663199	1.15883	-9.65267	0.00350632	0.00647235	-0.00912259	-0.397949	-0.0915527	1.08374	
58	-0.83504	-0.00316688	0.549747	0.0218142	9.37499	0.252906	4.10756	0.00448267	-0.0311585	-0.0064905	-0.759033	-0.0205078	-0.682129	0.661311	-0.0727923	-0.746561	-0.00410156	9.71812	-0.948127	-1.26262	0.00199599	-0.00267115	-0.0211789	-0.906006	0.00854492	-0.171631	0.771797	0.0196708	-0.614537	0.162133	9.59576	-1.5655	2.45065	0.00709889	0.00182716	0.00398501	-0.99585	0.0266113	-0.539062	0.837935	0.0896056	-0.522476	-0.129824	8.33923	2.87006	4.24863	-0.0311837	0.0035697	0.000101857	-0.668701	-0.154297	-0.781006	0.776747	0.0112263	-0.618586	-0.11785	9.53846	1.54039	2.29154	-0.0144184	0.00624437	-0.00949067	-0.839111	-0.113281	-0.63623	0.873692	-0.238766	-0.392258	-0.160581	8.80559	-3.27513	6.67551	0.00320106	0.0156659	-0.0175476	-0.777344	0.311035	-0.78418	0.644415	0.0183559	-0.76291	0.0485971	9.53501	-0.517818	-1.6544	0.0192571	-0.0184396	-0.0144673	-1.04712	-0.0195312	-0.145508	0.937908	-0.0755592	-0.324103	-0.0978631	6.81051	-0.787756	8.47121	0.000558507	0.015844	-0.0113862	-0.469727	0.117188	-0.97876	-0.0251712	0.384185	-0.9222	-0.0362754	-0.830456	3.29844	-8.62212	6.27555e-05	0.00547049	-0.0203509	-0.278564	-0.39209	1.01196	0.960706	0.0350157	-0.268429	0.06135	5.50483	0.475107	8.86278	0.00373472	0.0201771	0.00577026	-0.200195	-0.142822	-1.0769	0.0351823	-0.0339954	0.998372	0.0293382	-0.66272	1.13666	-9.63902	0.0102268	0.011589	-0.0110686	-0.400146	-0.0915527	1.08154	
59	-0.834808	-0.00319475	0.550112	0.0214868	9.45219	0.202175	4.10232	0.0134388	-0.0143841	0.00896986	-0.754639	-0.0227051	-0.677734	0.661298	-0.0725979	-0.746591	-0.00408146	9.80736	-0.918415	-1.19604	0.00394991	0.0110098	-0.0293629	-0.908447	0.0107422	-0.176514	0.771782	0.0198427	-0.614554	0.162116	9.51476	-1.63575	2.39958	0.00586139	0.000213367	-0.00831181	-1	0.0224609	-0.538818	0.837833	0.0900606	-0.522641	-0.129506	8.47417	2.80961	4.28596	0.0220276	0.00789983	0.00440469	-0.662109	-0.156494	-0.781006	0.776646	0.0114739	-0.618732	-0.117731	9.53537	1.68001	2.34883	0.022114	-0.00506985	-0.0203505	-0.845459	-0.115723	-0.634033	0.873663	-0.23879	-0.392316	-0.160565	8.78114	-3.27376	6.7507	0.00844711	0.00956718	-0.0141567	-0.772949	0.308838	-0.790527	0.644021	0.0184636	-0.763192	0.0493375	9.66218	-0.533575	-1.76386	0.0373189	0.0106062	-0.00203486	-1.04468	-0.0217285	-0.145264	0.937908	-0.0756283	-0.324093	-0.0978387	6.78143	-0.814232	8.43825	-0.000254457	0.0154678	-0.0134911	-0.465576	0.123779	-0.983643	-0.0251363	0.384165	-0.922205	-0.0363846	-0.822034	3.28217	-8.58136	-9.92977e-05	0.00411703	-0.0204343	-0.273926	-0.394287	1.00537	0.960734	0.034962	-0.268335	0.0613536	5.51265	0.426439	8.86443	-0.00106555	0.0192806	0.00412072	-0.200439	-0.13623	-1.07471	0.0351543	-0.0339944	0.998374	0.0292953	-0.69214	1.16263	-9.67629	0.00678285	0.00806411	-0.00760728	-0.399902	-0.0981445	1.08374	
60	-0.83473	-0.00327611	0.550234	0.0213847	9.39196	0.275933	4.1181	0.0103288	-0.0146043	0.00183254	-0.759033	-0.0227051	-0.67334	0.661464	-0.0726074	-0.746442	-0.00413893	9.7846	-0.893202	-1.2528	-0.0122607	0.0243635	-0.0163357	-0.908447	0.0107422	-0.166992	0.771703	0.0202664	-0.614592	0.162299	9.53946	-1.69129	2.48781	0.0304934	-0.00991166	-0.00750068	-0.997803	0.0180664	-0.541016	0.837893	0.0901968	-0.522548	-0.129394	8.35709	2.87025	4.36587	0.0163804	0.0159796	0.0021416	-0.664062	-0.163086	-0.781006	0.776645	0.0116767	-0.618738	-0.117687	9.51111	1.70998	2.30146	-0.00838825	0.0132557	-0.0219535	-0.847656	-0.117676	-0.645508	0.873675	-0.238719	-0.392332	-0.160561	8.76106	-3.27123	6.79975	0.00768009	0.0139923	-0.0176013	-0.774902	0.30249	-0.79248	0.644028	0.0185995	-0.763169	0.0495407	9.57995	-0.622051	-1.64857	0.038192	0.0138923	-0.0150362	-1.04077	-0.0151367	-0.147705	0.937989	-0.0755435	-0.323914	-0.0977244	6.80221	-0.834866	8.44148	0.0112566	0.0244963	-0.0122506	-0.458984	0.117188	-0.983643	-0.0250696	0.384134	-0.922219	-0.0363916	-0.821215	3.28569	-8.58955	0.0102442	0.00777816	-0.0216015	-0.273926	-0.394287	1.00293	0.960764	0.0348968	-0.268219	0.061425	5.44265	0.45876	8.87466	0.00334714	0.0145412	0.00848461	-0.197998	-0.140625	-1.0769	0.0350817	-0.0340981	0.998375	0.0292162	-0.661937	1.1548	-9.66752	0.00495431	0.00603086	-0.00793797	-0.397705	-0.0981445	1.08154	
61	-0.834426	-0.00305473	0.550695	0.0214259	9.4191	0.165399	4.05937	-0.00946561	-0.031171	0.00110862	-0.758789	-0.0270996	-0.677734	0.661984	-0.0727519	-0.745966	-0.00424825	9.78006	-0.891704	-1.20859	-0.0141742	0.0500466	-0.0131454	-0.901855	0.00854492	-0.176514	0.771764	0.0205815	-0.614509	0.162283	9.55167	-1.54953	2.4567	-0.00691894	0.0133124	-0.00961128	-1.0022	0.0224609	-0.538818	0.837983	0.0900385	-0.52241	-0.129482	8.39889	2.80296	4.33405	-0.00738474	0.00882177	0.0013162	-0.668701	-0.156494	-0.783203	0.776736	0.0116749	-0.618606	-0.117778	9.51412	1.5484	2.35389	0.0138292	0.0139538	-0.0150323	-0.847656	-0.117676	-0.640869	0.873678	-0.238542	-0.392466	-0.160485	8.7808	-3.35219	6.67232	0.0250909	0.0090525	-0.0173279	-0.770752	0.304688	-0.790283	0.64379	0.0186706	-0.763354	0.0497586	9.57492	-0.481501	-1.64168	0.0182651	-0.00834466	-0.0106914	-1.04712	-0.0151367	-0.143311	0.938036	-0.0754726	-0.323817	-0.0976465	6.76815	-0.776162	8.48913	0.00203752	0.017374	-0.016688	-0.467773	0.121582	-0.98584	-0.0250718	0.384127	-0.922224	-0.0363423	-0.832191	3.28255	-8.6047	0.0103337	0.00250686	-0.0213944	-0.269287	-0.394287	1.00757	0.960799	0.0349672	-0.268082	0.0614456	5.49946	0.392728	8.88814	0.00702894	0.0166134	0.00180408	-0.197998	-0.142822	-1.07471	0.0350415	-0.0341291	0.998376	0.0291893	-0.665046	1.15279	-9.67233	0.00606948	0.00932135	-0.0100034	-0.393311	-0.0959473	1.09058	
62	-0.834304	-0.00326838	0.550877	0.0214615	9.57219	0.204539	4.10054	0.0103361	0.000147484	-0.00798561	-0.758789	-0.0268555	-0.679688	0.662559	-0.072827	-0.745448	-0.00440458	9.71102	-0.9175	-1.23038	-0.0116406	0.0442991	-0.0210023	-0.906006	0.00854492	-0.174072	0.771728	0.0205888	-0.614551	0.162293	9.61187	-1.71276	2.44979	0.0337704	0.00661307	-0.00123912	-0.99585	0.0200195	-0.536621	0.837952	0.0899878	-0.522461	-0.129508	8.41329	2.82844	4.27403	0.00289436	-6.08229e-05	0.00161011	-0.66626	-0.16333	-0.774414	0.776683	0.0117006	-0.618671	-0.117778	9.52833	1.73407	2.38493	-0.0111639	0.00990313	-0.0144953	-0.843262	-0.115479	-0.638672	0.873676	-0.238435	-0.392555	-0.160439	8.7763	-3.31679	6.65751	0.00742897	0.0125176	-0.0154609	-0.7771	0.30249	-0.786133	0.643419	0.0187216	-0.763622	0.0504269	9.60124	-0.593466	-1.74599	0.0483819	-0.00146428	-0.00210916	-1.04492	-0.0195312	-0.143311	0.938017	-0.0755235	-0.32384	-0.0977134	6.81432	-0.833051	8.42709	-0.000716486	0.0128681	-0.0211812	-0.463135	0.117188	-0.981201	-0.0250392	0.384105	-0.922228	-0.0364899	-0.819779	3.29675	-8.61384	-0.000853245	0.00429224	-0.021778	-0.271729	-0.394287	1.00757	0.960828	0.0351305	-0.267967	0.0613887	5.43883	0.448524	8.86768	0.00913724	0.0132975	-0.00349425	-0.197998	-0.140625	-1.07471	0.0349846	-0.0342076	0.998373	0.0292891	-0.671408	1.1547	-9.63799	-0.00181515	0.00141792	-0.00633625	-0.397705	-0.100342	1.08398	
63	-0.834485	-0.00346811	0.550604	0.021403	9.32567	0.249957	4.08702	0.0060067	0.00504667	-0.00583992	-0.754639	-0.0202637	-0.681885	0.663004	-0.0732036	-0.745014	-0.0046058	9.77633	-0.887784	-1.20619	-0.0248359	0.0423094	-0.0110803	-0.910645	0.0129395	-0.178955	0.771594	0.0205564	-0.614722	0.162289	9.60784	-1.52002	2.4669	-0.033416	-0.00326487	0.00295682	-0.997803	0.0202637	-0.53418	0.837841	0.0898187	-0.522655	-0.129564	8.36126	2.80329	4.39829	-0.0044621	-0.00484127	0.00257242	-0.670654	-0.163086	-0.781006	0.776646	0.0111088	-0.618648	-0.118202	9.57776	1.60795	2.32566	-0.0262488	0.00877129	-0.0145158	-0.845459	-0.115479	-0.643311	0.873631	-0.238538	-0.392511	-0.160632	8.76548	-3.35911	6.6269	-0.00996037	0.0144611	-0.020865	-0.775146	0.306885	-0.786133	0.642983	0.0188182	-0.76396	0.05084	9.61905	-0.551082	-1.71733	0.0233281	-0.00881545	-0.0115197	-1.04272	-0.017334	-0.141113	0.938095	-0.075054	-0.323669	-0.0978967	6.75552	-0.797219	8.4938	0.0127555	0.015497	-0.0230348	-0.461182	0.119385	-0.98584	-0.0250014	0.384105	-0.922222	-0.0366633	-0.831591	3.28612	-8.58512	-0.00499241	0.00288781	-0.0214722	-0.273926	-0.39209	1.00513	0.960797	0.0352965	-0.268069	0.0613336	5.49238	0.419679	8.87277	0.00741073	0.00703036	-0.00103758	-0.202637	-0.138428	-1.07251	0.0350631	-0.0342119	0.998368	0.0293454	-0.672237	1.15585	-9.66892	0.000517139	0.00560463	-0.00738076	-0.400146	-0.0959473	1.08374	
64	-0.834398	-0.00341674	0.550726	0.0216384	9.43713	0.240146	4.09622	-0.0083878	-0.00963601	-0.00760813	-0.76123	-0.0249023	-0.679932	0.663487	-0.0732901	-0.744575	-0.00471407	9.67238	-0.881215	-1.16649	-0.0224048	0.0483547	-0.0138048	-0.904053	0.0107422	-0.181152	0.771723	0.0203264	-0.614591	0.162198	9.49883	-1.71545	2.36379	0.0157005	0.0100529	-0.00214148	-0.993652	0.0178223	-0.538818	0.837737	0.0892995	-0.522823	-0.129917	8.38298	2.85963	4.27343	-0.0143681	-0.00598662	-0.00195284	-0.670898	-0.158936	-0.781006	0.776632	0.0110615	-0.618678	-0.118142	9.48455	1.65074	2.3037	-0.00219335	0.00421411	-0.0161532	-0.841309	-0.113281	-0.643311	0.873668	-0.238225	-0.39266	-0.160536	8.71974	-3.21033	6.73006	0.0144568	0.00873786	-0.0155498	-0.779541	0.311035	-0.78833	0.643005	0.0186606	-0.763946	0.050815	9.51016	-0.514359	-1.78621	0.00945312	0.0153136	-0.00925972	-1.04712	-0.0195312	-0.147461	0.938069	-0.0750719	-0.323711	-0.0979905	6.83294	-0.788244	8.45637	-0.00108367	0.0124002	-0.0169714	-0.463135	0.117188	-0.983643	-0.0249875	0.38456	-0.92204	-0.0364869	-0.825768	3.29089	-8.60034	0.00662151	0.00422986	-0.020433	-0.271729	-0.39209	1.01416	0.960776	0.03551	-0.268127	0.0612891	5.48504	0.461815	8.82384	0.0103299	0.00951353	0.000349389	-0.200439	-0.13623	-1.07471	0.0350482	-0.0342137	0.998361	0.0295955	-0.674127	1.17127	-9.65223	-0.00608507	0.00549052	-0.00800507	-0.397705	-0.0981445	1.08154	
65	-0.834628	-0.00324673	0.550377	0.0217031	9.35508	0.274696	4.1483	-0.00818589	0.0175727	0.00680642	-0.75708	-0.0205078	-0.67334	0.66339	-0.073698	-0.744619	-0.00490905	9.73241	-0.91306	-1.20469	-0.026376	0.00462961	-0.012222	-0.910645	0.0129395	-0.178955	0.771469	0.020528	-0.614893	0.162238	9.49933	-1.63861	2.4111	-0.00654169	-0.0222667	-0.00291507	-0.993652	0.0222168	-0.541016	0.837583	0.0895474	-0.523014	-0.129972	8.41341	2.81559	4.31873	0.0171701	-0.00209854	-0.00732152	-0.670654	-0.163086	-0.781006	0.77653	0.0110061	-0.618761	-0.118388	9.52861	1.72893	2.30553	-0.0030378	-0.00660434	-0.0273701	-0.843506	-0.113281	-0.645508	0.873594	-0.238315	-0.392756	-0.160568	8.84306	-3.19267	6.7128	-0.00992249	0.0111085	-0.0131623	-0.7771	0.304688	-0.794678	0.64211	0.0187683	-0.76467	0.0512127	9.60143	-0.599383	-1.74485	0.0113271	-0.0424031	-0.00669545	-1.05151	-0.0129395	-0.13916	0.938101	-0.0749877	-0.323657	-0.0979227	6.81023	-0.794605	8.46397	0.0114768	0.0178774	-0.0141792	-0.467529	0.117188	-0.97876	-0.0249339	0.38455	-0.922044	-0.0365237	-0.839455	3.30058	-8.59451	0.00589344	0.00568592	-0.0229825	-0.269531	-0.389648	1.00757	0.960791	0.0354626	-0.268092	0.0612347	5.51875	0.477049	8.90754	0.000541338	0.0148158	0.00226981	-0.200439	-0.138428	-1.0769	0.0349878	-0.0343291	0.998364	0.029448	-0.673306	1.15734	-9.66265	0.00768507	0.00573787	-0.0085652	-0.397949	-0.0959473	1.08838	
66	-0.834302	-0.00300229	0.550872	0.0217156	9.34299	0.176265	4.08024	-0.00350991	-0.0437755	-0.00284953	-0.759277	-0.0183105	-0.677734	0.66342	-0.0735947	-0.744603	-0.00489524	9.87471	-0.943724	-1.19006	-0.000869443	0.0159744	-0.0241782	-0.906006	0.00854492	-0.178711	0.771325	0.0204391	-0.615121	0.162069	9.62185	-1.63328	2.44484	-0.0136583	-0.0159176	-0.0054979	-0.993652	0.0244141	-0.54126	0.837495	0.0899054	-0.523099	-0.129946	8.46225	2.95028	4.40319	0.00962763	0.00398335	-0.00386479	-0.668457	-0.160889	-0.781006	0.776429	0.0110939	-0.618848	-0.118586	9.6567	1.64535	2.38286	-0.00419315	-0.0036659	-0.0322815	-0.841064	-0.115479	-0.643311	0.873524	-0.238422	-0.392803	-0.160674	8.8064	-3.34385	6.72215	-0.00997656	0.0091605	-0.021352	-0.772949	0.306885	-0.790527	0.642021	0.0185483	-0.764761	0.0510386	9.54093	-0.532227	-1.68091	0.00784196	0.0196443	-0.0116207	-1.04712	-0.0151367	-0.143311	0.938105	-0.0750033	-0.323652	-0.09789	6.76165	-0.763234	8.4748	0.00418995	0.0155084	-0.014225	-0.463379	0.119385	-0.979004	-0.0249614	0.384823	-0.921932	-0.0364576	-0.823999	3.30415	-8.59328	0.00663989	0.00308084	-0.0226195	-0.269287	-0.394287	1.00757	0.960778	0.0353807	-0.268152	0.0612177	5.39111	0.44698	8.92856	-0.000214829	0.00543139	0.0040063	-0.202393	-0.142822	-1.0769	0.0349926	-0.0343449	0.998368	0.0292771	-0.666394	1.15538	-9.65728	0.010299	0.00576336	-0.00867657	-0.397949	-0.09375	1.08374	
67	-0.833907	-0.00311783	0.551464	0.0218275	9.52766	0.174133	4.03229	0.00610215	-0.0163871	-0.00508058	-0.756836	-0.0227051	-0.677734	0.663911	-0.0733512	-0.744189	-0.00493639	9.66348	-0.906888	-1.23073	0.00183603	0.0350532	-0.0252493	-0.903809	0.00854492	-0.176514	0.771434	0.0203208	-0.615038	0.161881	9.62175	-1.64704	2.40807	0.0107477	0.0101299	-0.0112055	-1	0.0224609	-0.536621	0.837568	0.0897679	-0.522998	-0.129977	8.39319	2.9144	4.21445	0.00166559	0.00641917	0.00407097	-0.670654	-0.163086	-0.781006	0.776459	0.0116204	-0.61887	-0.118226	9.51949	1.74381	2.35029	0.0207697	0.0142124	-0.0164383	-0.845459	-0.117676	-0.640869	0.873629	-0.237467	-0.393075	-0.160852	8.73529	-3.27391	6.55877	0.0171372	0.00652061	-0.0210532	-0.781494	0.30249	-0.788086	0.641346	0.0186678	-0.765298	0.0514391	9.5998	-0.619602	-1.88325	0.0180738	-0.00308497	-0.0133359	-1.05347	-0.0195312	-0.138916	0.938043	-0.0750092	-0.323839	-0.0978677	6.79022	-0.795501	8.46357	0.00533729	0.00274347	-0.0174982	-0.465332	0.11499	-0.983398	-0.0249614	0.384823	-0.921932	-0.0364576	-0.823999	3.30415	-8.59328	0.00663989	0.00308084	-0.0226195	-0.269287	-0.394287	1.00757	0.960634	0.0353414	-0.268651	0.0613151	5.55633	0.41899	8.81092	0.00362633	-0.00930251	0.00880123	-0.202637	-0.138672	-1.07935	0.035067	-0.034377	0.998362	0.0293441	-0.687845	1.15848	-9.66248	-0.00174157	0.00297851	-0.00960191	-0.400146	-0.0959473	1.08374	
68	-0.833882	-0.00326408	0.551507	0.0216883	9.40947	0.214595	4.00821	0.016186	-0.00699827	0.00152081	-0.756836	-0.0227051	-0.679932	0.663977	-0.0731898	-0.744148	-0.00473756	9.7513	-0.864917	-1.14871	-0.000358982	0.0163177	-0.0148506	-0.903809	0.00854492	-0.178711	0.771507	0.0209048	-0.614952	0.161784	9.43518	-1.56454	2.40172	-0.00958866	0.00268341	-0.0120062	-0.993652	0.0178223	-0.538818	0.837518	0.0897874	-0.523074	-0.129984	8.34402	2.73852	4.20942	0.00573768	-0.0015262	-0.000673186	-0.668701	-0.158691	-0.781006	0.776516	0.011501	-0.618771	-0.11838	9.42892	1.61884	2.23952	-0.0056235	0.00293619	-0.0151908	-0.845459	-0.117676	-0.638672	0.873625	-0.237166	-0.393298	-0.160776	8.79147	-3.25556	6.56671	0.0285458	0.00109336	-0.0232478	-0.781494	0.30249	-0.790283	0.641314	0.018573	-0.76533	0.0513972	9.55438	-0.571095	-1.82064	0.0111828	0.00927703	-0.0132818	-1.04956	-0.0129395	-0.132812	0.937985	-0.0750618	-0.324029	-0.097754	6.82391	-0.806383	8.48671	0.00385341	0.0111311	-0.0120754	-0.465332	0.119385	-0.979004	-0.025026	0.385344	-0.921729	-0.0360457	-0.826082	3.29574	-8.60839	0.0132171	0.00487815	-0.0224138	-0.269531	-0.389648	1.00293	0.960611	0.035365	-0.268733	0.0613062	5.55951	0.50738	8.87546	0.00449405	0.00433048	0.00251068	-0.20459	-0.143066	-1.07471	0.0350947	-0.0344062	0.99836	0.029341	-0.690314	1.1665	-9.65876	0.00414688	0.00366347	-0.0101706	-0.402344	-0.09375	1.08154	
69	-0.833872	-0.00340614	0.551529	0.0214928	9.44347	0.239589	4.01144	0.0184151	-0.00508747	0.00550064	-0.760986	-0.0270996	-0.675537	0.664274	-0.0731968	-0.743881	-0.00484747	9.75393	-0.83264	-1.19006	-0.0121369	0.0367775	-0.0228648	-0.901611	0.00634766	-0.178711	0.771426	0.0207139	-0.615098	0.161642	9.61742	-1.6783	2.40262	0.0124638	0.00870205	-1.9325e-05	-0.99585	0.0200195	-0.538818	0.837471	0.0899437	-0.523133	-0.129937	8.40306	2.89421	4.36668	0.011695	0.00627518	-0.00146542	-0.670654	-0.161133	-0.776611	0.776362	0.0120121	-0.618989	-0.118199	9.52187	1.74076	2.32209	0.0159181	0.00461302	-0.0187843	-0.847656	-0.115479	-0.643311	0.87354	-0.237173	-0.393507	-0.160714	8.76252	-3.27481	6.71139	0.00336244	0.00795568	-0.0167966	-0.7771	0.304688	-0.78833	0.640899	0.0181473	-0.765682	0.0514841	9.48393	-0.55349	-1.68983	0.0111607	-0.0209165	0.00270574	-1.04932	-0.0151367	-0.13916	0.937973	-0.0750973	-0.324046	-0.0977819	6.78613	-0.844963	8.4715	0.00256889	0.0134062	-0.0191203	-0.467773	0.123779	-0.981201	-0.0250312	0.385301	-0.921746	-0.0360629	-0.825185	3.28428	-8.60933	0.00605581	0.00434482	-0.0197577	-0.267334	-0.387451	1.00513	0.960594	0.0352547	-0.268822	0.0612498	5.44796	0.403114	8.82813	-0.0010322	0.00943122	0.00365399	-0.204346	-0.147461	-1.07446	0.0351053	-0.034418	0.998364	0.0291788	-0.670428	1.1398	-9.67103	0.0100811	0.00710332	-0.00884547	-0.402588	-0.0915527	1.08374	
70	-0.833878	-0.00388314	0.551508	0.0217257	9.43308	0.265601	4.03691	0.00207892	-0.0120287	-0.0211195	-0.761475	-0.0205078	-0.677734	0.66483	-0.0734827	-0.743355	-0.00503674	9.67397	-0.92419	-1.26386	-0.022348	0.0380663	-0.0126717	-0.904053	0.0107422	-0.183594	0.771497	0.0209755	-0.614983	0.161707	9.58923	-1.53965	2.40972	0.00844454	0.00764344	-0.00629625	-0.997803	0.0202637	-0.536621	0.837436	0.0897237	-0.523192	-0.130082	8.35628	2.86542	4.24553	-0.00506322	-0.00226886	0.00155613	-0.668457	-0.160889	-0.783203	0.77646	0.0115238	-0.618826	-0.118459	9.52279	1.60809	2.23021	-0.0231122	0.0133981	-0.00991418	-0.843262	-0.119873	-0.643311	0.87359	-0.237074	-0.393477	-0.160664	8.74977	-3.32496	6.67138	3.60535e-05	0.018059	-0.0108034	-0.7771	0.300293	-0.788086	0.640223	0.017903	-0.766237	0.0517153	9.61022	-0.557265	-1.83977	0.00978588	-0.00767685	-0.00737845	-1.04932	-0.0151367	-0.136963	0.937955	-0.0751772	-0.324076	-0.0977924	6.81585	-0.77613	8.43571	0.00251674	0.0153452	-0.0164138	-0.465332	0.117188	-0.983643	-0.0250483	0.385284	-0.921756	-0.0359738	-0.842857	3.29122	-8.60287	0.0183648	0.00780636	-0.0209875	-0.27417	-0.389893	1.00293	0.960558	0.035485	-0.268902	0.0613224	5.5207	0.453415	8.88573	0.0146256	0.00759363	0.00426508	-0.202393	-0.142822	-1.0769	0.0350653	-0.0344597	0.998362	0.029276	-0.669005	1.14301	-9.65864	-0.00162537	0.00729305	-0.0109742	-0.400146	-0.0915527	1.08594	
71	-0.834053	-0.00398284	0.55124	0.0217697	9.45469	0.274924	4.08545	0.000582646	0.0189733	0.00373725	-0.758789	-0.0270996	-0.677734	0.664926	-0.0736546	-0.743251	-0.00519538	9.70963	-0.913044	-1.17204	-0.0152058	0.016243	-0.0204717	-0.908691	0.017334	-0.176758	0.771473	0.0208067	-0.615124	0.161303	9.50775	-1.64554	2.35415	-0.0271147	-0.0061443	-0.01045	-1	0.0202637	-0.536621	0.837326	0.0895496	-0.523358	-0.130239	8.42608	2.74595	4.31516	-0.000881896	-0.000350406	-0.00263674	-0.670654	-0.160889	-0.783203	0.776353	0.0113149	-0.61897	-0.118427	9.51934	1.72409	2.32656	-0.00526072	-0.00910608	-0.0136713	-0.8479	-0.108887	-0.638672	0.873582	-0.236926	-0.393533	-0.160783	8.90248	-3.19918	6.67354	0.0141883	0.0127078	-0.0231358	-0.779053	0.300293	-0.79248	0.639961	0.0175065	-0.766459	0.0518111	9.56145	-0.551452	-1.82671	0.00785331	-0.0126682	-0.00144929	-1.05371	-0.0129395	-0.132812	0.937964	-0.0752712	-0.324059	-0.0976891	6.80944	-0.825251	8.43221	0.00299343	0.0136744	-0.0117935	-0.467529	0.11499	-0.981201	-0.025059	0.385285	-0.921757	-0.0359409	-0.820924	3.29612	-8.60595	0.0113318	0.00546507	-0.0220399	-0.27417	-0.387451	1.00732	0.960608	0.0354581	-0.268724	0.0613357	5.53486	0.510047	8.8761	-0.00158596	0.0216693	0.00502671	-0.202637	-0.138672	-1.0769	0.035023	-0.0344644	0.998363	0.0292661	-0.683597	1.16238	-9.66925	0.00574539	0.00496849	-0.00640269	-0.400146	-0.0959473	1.08154	
72	-0.834158	-0.00392756	0.551088	0.0215917	9.34837	0.253472	4.07612	0.00027918	-0.00442943	0.00417787	-0.756836	-0.0246582	-0.681885	0.665171	-0.0737655	-0.74302	-0.00528936	9.78592	-0.896775	-1.14515	-0.0089832	0.0344771	-0.0197117	-0.895264	0.0107422	-0.186035	0.771456	0.0210374	-0.615149	0.161259	9.55846	-1.51004	2.42512	0.0312307	-0.000391767	-0.0144196	-0.997803	0.0158691	-0.54541	0.837256	0.0896168	-0.523457	-0.130247	8.38406	2.91521	4.35656	-0.000647881	-0.000702288	0.000453726	-0.666504	-0.154297	-0.787842	0.776325	0.0115113	-0.618982	-0.118526	9.51938	1.54534	2.42092	-0.00679366	0.00824408	-0.0155647	-0.845703	-0.113281	-0.638672	0.873526	-0.236856	-0.393669	-0.160859	8.69759	-3.34446	6.75229	0.0121839	0.00777389	-0.0240227	-0.779297	0.304688	-0.78833	0.639654	0.0172773	-0.766728	0.0516944	9.54884	-0.660343	-1.79213	0.0100624	0.00345255	-0.0170607	-1.04932	-0.0151367	-0.132812	0.937997	-0.0752923	-0.323989	-0.0975892	6.76018	-0.827973	8.45157	0.00465191	0.0187878	-0.0112044	-0.467529	0.119385	-0.983643	-0.0250458	0.385567	-0.921642	-0.0358792	-0.81542	3.27505	-8.5806	0.0139743	0.00603183	-0.0231783	-0.269287	-0.39209	1.00757	0.960647	0.0353745	-0.268591	0.0613516	5.41921	0.399431	8.84419	0.00314933	0.0171969	0.00700878	-0.197998	-0.142822	-1.07471	0.0350896	-0.034406	0.998367	0.0291119	-0.658142	1.14886	-9.65603	0.00946606	0.00458863	-0.00574912	-0.397705	-0.0981445	1.08374	
73	-0.834078	-0.00372483	0.551208	0.0216685	9.45492	0.188068	4.09986	-0.00782088	-0.00458105	-0.00153845	-0.756836	-0.0249023	-0.675537	0.665631	-0.073798	-0.742604	-0.00534253	9.65247	-0.909008	-1.19756	-0.00686265	0.0320398	-0.0161804	-0.901611	0.00634766	-0.181152	0.771592	0.0209302	-0.615161	0.160576	9.55058	-1.65408	2.40649	-0.0234066	0.0122958	-0.0222629	-1	0.0180664	-0.536377	0.837269	0.0894809	-0.523439	-0.130326	8.35287	2.81304	4.34436	-0.00835307	0.00450903	0.000681917	-0.666504	-0.158691	-0.778809	0.776418	0.0115626	-0.618861	-0.118543	9.48852	1.66956	2.28169	0.00447634	0.00972422	-0.0147697	-0.845459	-0.119873	-0.643311	0.8736	-0.236259	-0.393907	-0.160755	8.7555	-3.30812	6.60461	0.0189144	0.0084104	-0.019253	-0.783447	0.30249	-0.790283	0.639197	0.0171161	-0.767116	0.0516426	9.4804	-0.595982	-1.84285	0.0144457	-0.0186951	-0.0121977	-1.05151	-0.0151367	-0.132812	0.937991	-0.0753197	-0.324025	-0.097507	6.83286	-0.76228	8.47567	0.00471957	0.0132067	-0.0149544	-0.465332	0.117188	-0.983643	-0.0250465	0.385818	-0.921543	-0.0357054	-0.822861	3.28638	-8.58874	0.0103972	0.00570446	-0.0217182	-0.269287	-0.396484	1.00537	0.960658	0.0355541	-0.26851	0.0614384	5.48216	0.412217	8.8792	0.0143177	0.0128975	0.0013982	-0.197998	-0.140625	-1.07471	0.0350286	-0.03447	0.998366	0.0291741	-0.685494	1.14508	-9.65224	-0.00101634	0.00704921	-0.0092661	-0.400146	-0.0959473	1.09058	
74	-0.834201	-0.00377572	0.551025	0.0215649	9.3951	0.172436	4.11397	0.0069424	0.00668431	0.00147557	-0.759033	-0.0249023	-0.67334	0.66577	-0.0734393	-0.742516	-0.00519128	9.76768	-0.909279	-1.12794	0.00390618	0.0159851	-0.0261071	-0.906006	0.00854492	-0.188232	0.771528	0.0214836	-0.615185	0.16072	9.62133	-1.59536	2.40689	0.0175771	0.00364044	-0.0099439	-0.993652	0.0178223	-0.536377	0.837279	0.0895461	-0.523418	-0.130302	8.449	2.71503	4.34547	-0.00643585	0.0111129	-0.00201897	-0.668701	-0.158936	-0.776611	0.776376	0.0118893	-0.61896	-0.118265	9.52298	1.82662	2.31321	0.0327901	0.00784996	-0.020728	-0.841064	-0.117676	-0.63623	0.873639	-0.235961	-0.394068	-0.160584	8.89347	-3.20103	6.69042	0.0159701	0.00917218	-0.0116074	-0.78125	0.300293	-0.790283	0.638869	0.0170335	-0.767389	0.0516789	9.55382	-0.613263	-1.89261	0.0161566	-0.0212188	-0.00856506	-1.04956	-0.00878906	-0.13501	0.938003	-0.0753165	-0.324004	-0.0974673	6.81257	-0.887143	8.4758	0.00809772	0.0148761	-0.0165606	-0.467529	0.117188	-0.97876	-0.025031	0.385819	-0.921539	-0.0358145	-0.824879	3.29366	-8.63932	-0.00291729	0.00311471	-0.021784	-0.27417	-0.389893	1.00977	0.96067	0.0357031	-0.268447	0.0614327	5.50431	0.502272	8.90621	0.0053447	0.0108861	0.00122492	-0.204834	-0.138672	-1.07471	0.0350431	-0.0344463	0.998363	0.0292572	-0.696571	1.15209	-9.67927	0.00280783	0.00496898	-0.00672242	-0.397949	-0.09375	1.08374	
75	-0.834075	-0.00418573	0.551216	0.0214859	9.41681	0.238229	4.07919	0.015921	-0.019205	-0.0104915	-0.756836	-0.0205078	-0.675537	0.66584	-0.0734361	-0.742454	-0.00512118	9.78769	-0.884384	-1.16498	-0.00315746	0.0201863	-0.0145753	-0.899658	0.00854492	-0.183594	0.771553	0.0212797	-0.615207	0.160541	9.59966	-1.52002	2.43562	-0.0190316	0.00691846	-0.00290261	-0.99585	0.0244141	-0.543457	0.837262	0.0892827	-0.523473	-0.130371	8.35717	2.82895	4.32245	-0.0200842	-0.00115448	0.00220882	-0.673096	-0.156738	-0.778809	0.776322	0.0117023	-0.618997	-0.118445	9.51478	1.69205	2.37055	-0.0210604	-0.000348225	-0.0169516	-0.845703	-0.113281	-0.640869	0.87359	-0.236048	-0.394112	-0.160616	8.72369	-3.17497	6.6961	-0.00530299	0.00904141	-0.0160631	-0.779297	0.30249	-0.790283	0.638732	0.0167399	-0.767508	0.0516979	9.51979	-0.607136	-1.8216	0.00386098	0.00435076	-0.00873061	-1.04932	-0.017334	-0.128418	0.93802	-0.0751858	-0.323981	-0.0974807	6.80413	-0.796073	8.46911	0.0137667	0.0184626	-0.0213497	-0.465088	0.112793	-0.983398	-0.025031	0.385819	-0.921539	-0.0358145	-0.824879	3.29366	-8.63932	-0.00291729	0.00311471	-0.021784	-0.27417	-0.389893	1.00977	0.96067	0.035651	-0.268467	0.0613845	5.45433	0.469747	8.85696	-0.00186652	0.0101077	0.000849767	-0.195801	-0.138428	-1.0769	0.0350935	-0.034438	0.998363	0.0292358	-0.677726	1.15905	-9.65797	0.00565203	0.00203218	-0.00743654	-0.399902	-0.0981445	1.07935	
76	-0.834058	-0.0044509	0.551241	0.0214482	9.40904	0.31392	4.09219	0.006684	0.000933703	1.54098e-05	-0.76123	-0.0249023	-0.677734	0.666016	-0.0732737	-0.742313	-0.00509195	9.67108	-0.919411	-1.18387	0.00438837	0.0149204	-0.0246283	-0.901855	0.0129395	-0.186035	0.77159	0.021315	-0.615124	0.160679	9.58505	-1.49696	2.39772	0.00798854	0.00731529	-0.00100211	-0.995605	0.0180664	-0.536377	0.837185	0.0892945	-0.523585	-0.130412	8.37261	2.82054	4.23086	0.00155749	0.00101507	-0.00277939	-0.668457	-0.16333	-0.776611	0.776368	0.0116835	-0.618943	-0.118427	9.49063	1.71033	2.3195	0.0096927	0.0141656	-0.0136995	-0.845459	-0.115479	-0.638672	0.873661	-0.235841	-0.394159	-0.160419	8.75404	-3.28726	6.67287	0.018176	0.0143489	-0.00922708	-0.783691	0.306885	-0.79248	0.638337	0.0165553	-0.767837	0.0517459	9.5522	-0.599716	-1.90391	0.0183545	-0.0158264	-0.0123205	-1.04712	-0.0151367	-0.128418	0.938035	-0.0750524	-0.323955	-0.0975241	6.80031	-0.779245	8.48817	0.00451557	0.0151983	-0.0204216	-0.463379	0.119385	-0.983643	-0.0249149	0.386016	-0.921456	-0.0359033	-0.832907	3.29428	-8.59795	0.0026942	0.00484018	-0.021002	-0.271484	-0.396729	1.00757	0.960667	0.035681	-0.268476	0.0613648	5.47103	0.37389	8.86502	0.00515534	0.00983952	0.00133695	-0.20459	-0.145264	-1.0813	0.0351591	-0.0344757	0.998352	0.0294807	-0.67759	1.16453	-9.64524	-0.00272387	0.00468576	-0.0101154	-0.397949	-0.09375	1.08374	
77	-0.834107	-0.00434748	0.55117	0.021415	9.39472	0.301439	4.13231	-0.00541973	0.00373449	0.00545277	-0.759033	-0.0227051	-0.675537	0.66563	-0.0735556	-0.74263	-0.00520663	9.76038	-0.890776	-1.1443	-0.0201237	-0.0214264	-0.0186226	-0.908447	0.0148926	-0.193115	0.771458	0.0210291	-0.615373	0.160397	9.47953	-1.68462	2.36017	-0.0162604	-0.0195838	-0.00491596	-0.995605	0.0158691	-0.531738	0.837143	0.0892877	-0.523633	-0.130489	8.35107	2.80921	4.27424	0.000561999	-9.42144e-05	-0.0042795	-0.666504	-0.158691	-0.778809	0.776212	0.0115157	-0.619142	-0.118431	9.48382	1.68144	2.2975	0.00632047	-0.0053736	-0.021759	-0.841064	-0.115479	-0.640869	0.873675	-0.235808	-0.394161	-0.160386	8.81906	-3.20079	6.65713	0.00313722	0.0138395	-0.01622	-0.779053	0.300293	-0.785889	0.638218	0.0162964	-0.767948	0.0516615	9.52298	-0.567423	-1.89437	-0.000102533	0.000648234	-0.00485051	-1.05396	-0.0065918	-0.128662	0.938056	-0.0750375	-0.323916	-0.0974581	6.79441	-0.798655	8.48918	0.00548868	0.0198496	-0.0137648	-0.468018	0.128174	-0.981445	-0.0248577	0.386263	-0.921353	-0.0359315	-0.832436	3.29626	-8.58816	0.00229497	0.00464879	-0.0215533	-0.278564	-0.396729	1.00537	0.960717	0.0359955	-0.268252	0.0613874	5.50643	0.549439	8.88541	0.00290844	0.0161925	0.00118993	-0.199707	-0.151611	-1.07666	0.0351591	-0.0344757	0.998352	0.0294807	-0.67759	1.16453	-9.64524	-0.00272387	0.00468576	-0.0101154	-0.397949	-0.09375	1.08374	
78	-0.833693	-0.00412164	0.551799	0.0213794	9.41374	0.198697	4.07918	-0.000809669	-0.0483969	0.002965	-0.76123	-0.0227051	-0.675537	0.665647	-0.0735355	-0.742616	-0.00523453	9.87394	-0.887122	-1.10959	-0.0131458	0.0288835	-0.0178458	-0.908447	0.0129395	-0.178955	0.771447	0.0211225	-0.615358	0.160491	9.62602	-1.65977	2.48393	0.0129173	0.0046668	-0.000113825	-1	0.0158691	-0.541016	0.837013	0.089485	-0.523776	-0.130617	8.43156	2.86342	4.41019	0.00914669	-0.00179069	-0.00770099	-0.675293	-0.161133	-0.7854	0.776097	0.0118271	-0.619307	-0.118288	9.55796	1.72928	2.35713	-0.000859467	0.000992804	-0.019084	-0.849854	-0.115479	-0.640869	0.873615	-0.235801	-0.39424	-0.160531	8.84219	-3.30981	6.81558	0.00332362	0.0120987	-0.022913	-0.779053	0.300293	-0.785889	0.637544	0.0159136	-0.768525	0.0515062	9.7033	-0.617903	-1.83286	-0.00961011	-0.0230305	-0.0152304	-1.05176	-0.00878906	-0.128662	0.938068	-0.0750857	-0.323888	-0.0974003	6.75906	-0.849813	8.4639	0.0035231	0.0156692	-0.0128089	-0.469727	0.119385	-0.983643	-0.0248431	0.386236	-0.921365	-0.035936	-0.843796	3.29083	-8.58553	0.00843762	0.00308898	-0.0220933	-0.271484	-0.398926	1.01196	0.960725	0.0358909	-0.268236	0.061399	5.43926	0.44237	8.88143	-1.62536e-05	0.00830939	0.00604813	-0.202637	-0.140625	-1.0769	0.034974	-0.0345815	0.998359	0.0293174	-0.684329	1.16409	-9.66395	0.00653322	0.00992609	-0.00812502	-0.393311	-0.09375	1.08594	
79	-0.833345	-0.00418776	0.552327	0.021278	9.50227	0.216374	4.0045	0.00633678	-0.0164212	0.00110377	-0.763184	-0.0270996	-0.67334	0.66568	-0.0733702	-0.742604	-0.00507877	9.69439	-0.881671	-1.14408	0.0108142	0.00771471	-0.0202635	-0.897217	0.00634766	-0.185791	0.771537	0.0208176	-0.615368	0.160062	9.52246	-1.72749	2.4277	0.000873734	0.0182359	-0.00139328	-0.993652	0.0222168	-0.53418	0.837063	0.0890786	-0.523715	-0.130817	8.40994	2.85043	4.26921	-0.0200602	0.00920528	-0.00153741	-0.672852	-0.165527	-0.776611	0.776199	0.0116764	-0.619148	-0.118463	9.49525	1.52319	2.36889	-0.00321602	0.00767298	-0.00870728	-0.843262	-0.119873	-0.63623	0.873648	-0.235502	-0.394325	-0.160577	8.73685	-3.27859	6.66799	0.0198495	0.0139207	-0.0225712	-0.7771	0.300293	-0.785889	0.63722	0.0158712	-0.768802	0.051402	9.55361	-0.628556	-2.00183	0.0214946	-0.00776761	-0.0154753	-1.05396	-0.0109863	-0.126465	0.937983	-0.0750361	-0.324151	-0.0973829	6.82523	-0.72442	8.48075	0.00561579	0.00136994	-0.0166604	-0.469971	0.121582	-0.983643	-0.0249164	0.386525	-0.921247	-0.0357946	-0.819352	3.29442	-8.59575	0.0105802	0.00250964	-0.0237029	-0.271729	-0.394287	1.01196	0.960614	0.0358111	-0.268635	0.0614389	5.48504	0.398533	8.86591	-4.88095e-05	-0.00556908	0.00528218	-0.195801	-0.138428	-1.07471	0.0351875	-0.0345576	0.998353	0.0293192	-0.678377	1.14622	-9.65003	0.0044523	-0.0035067	-0.00760121	-0.404785	-0.09375	1.08154	
80	-0.833492	-0.00436928	0.552114	0.0210324	9.45536	0.276202	4.05802	0.0101403	0.0164424	0.00428186	-0.763184	-0.0292969	-0.671143	0.665419	-0.0730954	-0.742867	-0.00489081	9.65387	-0.865284	-1.15014	0.00289172	-0.00571326	-0.0224638	-0.908203	0.00415039	-0.18335	0.771456	0.0211479	-0.61542	0.160204	9.47049	-1.50944	2.33683	0.00628481	-0.00442387	-0.000612104	-0.99585	0.0200195	-0.53418	0.83699	0.0891627	-0.523827	-0.130778	8.39397	2.85523	4.28813	0.00251052	0.000144813	-0.000275819	-0.666504	-0.158691	-0.781006	0.776158	0.0118782	-0.619233	-0.118272	9.47273	1.68808	2.31743	0.0216153	0.00140122	-0.0129131	-0.8479	-0.113281	-0.638672	0.873614	-0.235246	-0.394654	-0.160332	8.75484	-3.15107	6.61924	0.0178672	-0.00136891	-0.00926138	-0.779297	0.30249	-0.79248	0.637155	0.015743	-0.768879	0.0510952	9.41741	-0.576151	-1.91328	0.0026918	-0.00156814	-0.0213104	-1.0498	-0.0065918	-0.122314	0.937942	-0.0750848	-0.324266	-0.097357	6.81698	-0.877578	8.43431	0.00666956	0.0127043	-0.0166161	-0.469727	0.119385	-0.983643	-0.0249367	0.386523	-0.921251	-0.0356954	-0.834597	3.29318	-8.58955	0.0169081	0.00698479	-0.0218042	-0.273926	-0.39209	1.00757	0.960539	0.0358659	-0.268892	0.0614486	5.49988	0.479457	8.83386	0.0083231	0.00351858	0.00221357	-0.209229	-0.138672	-1.07471	0.0352308	-0.0345965	0.99835	0.0293159	-0.67492	1.1627	-9.66469	0.00361052	0.00666034	-0.00999706	-0.397461	-0.102539	1.08398	
81	-0.833688	-0.00443235	0.551819	0.0209803	9.31529	0.245838	4.07955	0.00288837	0.00316663	-0.00479707	-0.76123	-0.0249023	-0.675537	0.665218	-0.0730103	-0.743055	-0.00483805	9.79324	-0.846051	-1.20197	-0.00460292	0.00256146	-0.0207435	-0.903809	0.00634766	-0.185791	0.771374	0.020789	-0.615563	0.160102	9.59339	-1.65185	2.3712	0.0114574	0.00107361	-0.000380143	-0.997803	0.0202637	-0.536621	0.836984	0.0894089	-0.523845	-0.130579	8.38486	2.88159	4.31295	0.0174905	0.00688534	0.0061881	-0.673096	-0.158936	-0.776611	0.776099	0.0123279	-0.619267	-0.118433	9.5443	1.70668	2.24866	-0.010718	0.00303398	-0.0221056	-0.845459	-0.115479	-0.638672	0.873522	-0.23553	-0.394732	-0.160222	8.81462	-3.28362	6.63066	-0.0226327	0.00862908	-0.00728756	-0.78125	0.300293	-0.788086	0.637048	0.015629	-0.768967	0.0511318	9.56245	-0.5927	-1.84839	0.0216616	0.0133533	-0.0079359	-1.04761	-0.00878906	-0.126465	0.937956	-0.0749212	-0.324275	-0.0973161	6.80755	-0.742654	8.48943	0.0122824	0.017912	-0.0196994	-0.465332	0.117188	-0.976562	-0.0248506	0.387021	-0.921049	-0.0355735	-0.821485	3.29693	-8.60831	0.00451253	0.00547071	-0.0216505	-0.276367	-0.39209	1.00513	0.960517	0.0357114	-0.268994	0.0614392	5.50037	0.454805	8.88545	-0.004535	0.00880128	0.00620297	-0.20459	-0.145264	-1.0769	0.0352066	-0.0346267	0.998351	0.0292865	-0.689003	1.14984	-9.65591	0.00727137	0.006105	-0.00847914	-0.402344	-0.0959473	1.08618	
82	-0.833579	-0.00451062	0.551982	0.021018	9.34171	0.253256	4.06925	0.00397205	-0.0185263	-0.00747815	-0.760986	-0.0270996	-0.675537	0.665243	-0.0731971	-0.743014	-0.00489351	9.77889	-0.841785	-1.15136	-0.0211133	0.0170595	-0.00999454	-0.901855	0.0107422	-0.183594	0.771366	0.0209933	-0.615483	0.16042	9.61416	-1.51105	2.38047	0.032197	0.00729808	0.00792635	-0.997803	0.0202637	-0.538818	0.837	0.0892911	-0.523837	-0.130587	8.36659	2.87873	4.26838	0.00100448	0.00499606	9.35036e-05	-0.666504	-0.158691	-0.778809	0.776123	0.0123701	-0.619261	-0.118305	9.54155	1.59421	2.24209	0.0082854	0.00876675	-0.0086935	-0.847412	-0.12207	-0.640869	0.873563	-0.235512	-0.394677	-0.160161	8.81502	-3.27088	6.65949	0.00572702	0.0184294	-0.00985379	-0.779297	0.304688	-0.790283	0.636901	0.0154565	-0.769105	0.050948	9.51423	-0.610429	-1.95994	0.00963761	0.00245695	-0.0171435	-1.04956	-0.00878906	-0.124268	0.937942	-0.0749706	-0.324302	-0.097322	6.78542	-0.771107	8.47923	0.000788333	0.0124214	-0.0166229	-0.463379	0.119385	-0.981201	-0.0248617	0.387004	-0.921058	-0.0355249	-0.826078	3.2961	-8.62095	0.0128558	0.00578282	-0.0209366	-0.276367	-0.394531	1.01416	0.960508	0.0356713	-0.269027	0.0614497	5.47921	0.400176	8.83204	-0.000536288	0.00887074	0.00483262	-0.198242	-0.138428	-1.07935	0.0352414	-0.0346317	0.99835	0.029249	-0.68041	1.15482	-9.66534	0.00711626	0.00298284	-0.00865083	-0.399902	-0.100342	1.09082	
83	-0.833333	-0.00458564	0.552352	0.0210039	9.47851	0.340494	4.04504	0.00163301	-0.0203599	0.00296091	-0.76123	-0.0249023	-0.675537	0.665286	-0.0733552	-0.74296	-0.00490662	9.72263	-0.854384	-1.21807	-0.0164944	0.0188042	-0.00977944	-0.908447	0.0107422	-0.181152	0.77136	0.0209553	-0.615503	0.160377	9.48664	-1.6069	2.38779	0.000693677	-0.00388321	-0.00274682	-0.997803	0.0180664	-0.529541	0.836978	0.0893075	-0.523879	-0.130549	8.38469	2.78243	4.25963	0.00704631	0.00189864	0.00238305	-0.675293	-0.161133	-0.776611	0.77611	0.0120227	-0.619275	-0.11835	9.51599	1.70806	2.32669	-0.0372956	0.0059576	-0.00934053	-0.841064	-0.117676	-0.63623	0.873592	-0.235798	-0.394443	-0.160158	8.79861	-3.22781	6.6311	-0.00610282	0.0215158	-0.00928587	-0.78125	0.300293	-0.790283	0.636901	0.0154565	-0.769105	0.050948	9.51423	-0.610429	-1.95994	0.00963761	0.00245695	-0.0171435	-1.04956	-0.00878906	-0.124268	0.937937	-0.0750808	-0.324311	-0.0972577	6.81472	-0.798864	8.42849	0.00208262	0.0148268	-0.0121943	-0.465332	0.119385	-0.983643	-0.0248651	0.386984	-0.921068	-0.0354678	-0.834576	3.29294	-8.59484	0.0109261	0.00658	-0.0211093	-0.273926	-0.394287	1.00757	0.960533	0.035738	-0.268913	0.0615168	5.50736	0.458403	8.85308	0.00752471	0.0178606	0.00512754	-0.204834	-0.140869	-1.07471	0.0352323	-0.0346612	0.998347	0.0293422	-0.683134	1.16685	-9.64908	0.000269926	0.00812955	-0.00911399	-0.400146	-0.0959473	1.08154	
84	-0.833403	-0.00410665	0.55225	0.0210502	9.42196	0.260452	4.04333	-0.0225204	0.0065994	0.00548318	-0.76123	-0.0249023	-0.666992	0.66542	-0.0735982	-0.742813	-0.00534306	9.72637	-0.91357	-1.15354	-0.0174906	0.0104438	-0.0155246	-0.901855	0.0107422	-0.186035	0.771308	0.0205583	-0.615604	0.160289	9.58464	-1.61288	2.36081	-0.0112248	0.00727633	0.00311581	-1.00024	0.0246582	-0.538818	0.836961	0.0892338	-0.5239	-0.130624	8.40671	2.86519	4.30842	0.00495556	0.00410131	-0.00135479	-0.671143	-0.154541	-0.781006	0.775998	0.0118349	-0.619408	-0.11841	9.50233	1.69788	2.35486	0.00625964	0.00186999	-0.0152088	-0.849854	-0.115479	-0.638672	0.873523	-0.236292	-0.39427	-0.160234	8.79419	-3.20807	6.71327	-0.0174239	0.0146696	-0.00927291	-0.783691	0.306885	-0.78833	0.637167	0.0156138	-0.768876	0.0510259	9.47264	-0.582198	-1.86269	0.0159466	0.0118695	-0.0149067	-1.04956	-0.00878906	-0.132812	0.937952	-0.075214	-0.324253	-0.0972006	6.787	-0.830053	8.48349	0.000669548	0.0169892	-0.0125504	-0.463379	0.123779	-0.988281	-0.0248548	0.386969	-0.921074	-0.035501	-0.824011	3.2929	-8.59044	0.00665086	0.00466966	-0.0219368	-0.27417	-0.389893	1.00977	0.960609	0.03565	-0.268655	0.0615217	5.49792	0.472362	8.85765	-0.00282884	0.0235728	0.00481172	-0.195801	-0.138428	-1.07007	0.0352103	-0.0346718	0.998349	0.0292758	-0.672619	1.14366	-9.64818	0.00721489	0.00592477	-0.0076196	-0.400146	-0.0915527	1.08154	
