40	Head	00b4120a												Throax	00b411e8												LUpArm	00b411d9												LFoArm	00b41148												RUpArm	00b411db												RFoArm	00b41204												Waist	00b411f7												Lthigh	00b411f4												Lshank	00b4111b												Rthigh	00b411c8												Rshank	00b411ee												
PacketCount	q0	q1	q2	q3	accX	accY	accZ	gyrX	gyrY	gyrZ	magX	magY	magZ	q0	q1	q2	q3	accX	accY	accZ	gyrX	gyrY	gyrZ	magX	magY	magZ	q0	q1	q2	q3	accX	accY	accZ	gyrX	gyrY	gyrZ	magX	magY	magZ	q0	q1	q2	q3	accX	accY	accZ	gyrX	gyrY	gyrZ	magX	magY	magZ	q0	q1	q2	q3	accX	accY	accZ	gyrX	gyrY	gyrZ	magX	magY	magZ	q0	q1	q2	q3	accX	accY	accZ	gyrX	gyrY	gyrZ	magX	magY	magZ	q0	q1	q2	q3	accX	accY	accZ	gyrX	gyrY	gyrZ	magX	magY	magZ	q0	q1	q2	q3	accX	accY	accZ	gyrX	gyrY	gyrZ	magX	magY	magZ	q0	q1	q2	q3	accX	accY	accZ	gyrX	gyrY	gyrZ	magX	magY	magZ	q0	q1	q2	q3	accX	accY	accZ	gyrX	gyrY	gyrZ	magX	magY	magZ	q0	q1	q2	q3	accX	accY	accZ	gyrX	gyrY	gyrZ	magX	magY	magZ	
0	-0.880807	-0.0257404	0.472768	-0.002792	8.77276	0.409718	5.76038	-0.000974442	0.0184376	-0.00542114	-0.628662	-0.059082	-0.816406	0.653526	-0.0659157	-0.754028	-0.00107743	9.72582	-0.871526	-1.45969	-0.00393848	0.0290578	-0.0219398	-0.911865	-0.0109863	-0.156982	0.766659	0.0322445	-0.620872	0.160348	9.66448	-1.5606	2.19391	0.0123754	0.0237598	-0.0042116	-1.0083	0.00292969	-0.524658	0.832081	0.0898824	-0.53085	-0.13327	8.59465	2.91676	4.17042	0.000475027	0.015556	0.00686903	-0.679199	-0.169922	-0.765381	0.770699	0.02985	-0.627471	-0.106829	9.52844	1.90292	2.10333	0.020344	0.025276	-0.016264	-0.853027	-0.144287	-0.622559	0.873864	-0.216855	-0.410913	-0.143126	8.921	-3.04016	6.59157	0.0357386	0.0152638	-0.0162551	-0.803711	0.267822	-0.782715	0.622487	0.0162507	-0.780496	0.0554333	9.41221	-0.628815	-2.14338	0.0214466	0.0384847	-0.0173246	-1.05396	-0.0065918	-0.0947266	0.939591	-0.0736597	-0.325258	-0.0771324	6.82147	-0.901112	8.45898	0.00744729	0.0167359	-0.0166452	-0.459473	0.132568	-0.983887	-0.00600842	0.632078	-0.769508	0.0911035	-0.778882	3.24366	-8.62695	0.00900914	0.00591598	-0.0209798	-0.274414	-0.382812	1.00073	0.96177	0.0350248	-0.26331	0.0666284	5.36247	0.336118	8.95916	0.00387576	0.0189121	0.00454581	-0.191406	-0.138428	-1.08618	0.0262268	-0.0607948	0.997569	0.0217323	-0.578767	1.12114	-9.68229	0.00016251	0.00681653	-0.00832109	-0.411377	-0.0939941	1.0791	
1	-0.881297	-0.0258096	0.471849	-0.00279565	8.73423	0.413883	5.8014	0.00457312	0.0487046	-0.00276488	-0.619629	-0.0612793	-0.810059	0.653606	-0.0657149	-0.753976	-0.00101586	9.65525	-0.806149	-1.51218	0.0126123	0.0089341	-0.0291007	-0.909668	-0.0109863	-0.1521	0.766643	0.0328686	-0.620802	0.160575	9.57196	-1.3721	2.30432	0.0241724	-0.000796436	-0.0161439	-1.0061	-0.00146484	-0.515381	0.83228	0.0902167	-0.530522	-0.133109	8.3843	2.88126	4.13639	0.0165022	0.0226062	-0.00418089	-0.677002	-0.167725	-0.769775	0.770732	0.0295455	-0.627406	-0.107058	9.54541	1.69054	2.03471	-0.00349301	-0.0033428	-0.00633663	-0.85498	-0.150879	-0.620361	0.873909	-0.21681	-0.410813	-0.14321	8.93306	-3.07749	6.56546	-0.00330664	0.0211205	-0.0235202	-0.801758	0.272217	-0.782959	0.622438	0.0164146	-0.780532	0.0554161	9.43486	-0.608482	-2.09445	0.0262161	0.00696596	-0.0282578	-1.0498	-0.00439453	-0.0925293	0.93961	-0.0735957	-0.325251	-0.076992	6.76176	-0.898853	8.44648	0.00974123	0.013859	-0.011891	-0.466064	0.132568	-0.979248	-0.00596402	0.632429	-0.769194	0.0913183	-0.790689	3.25073	-8.63303	0.00812771	0.00519671	-0.0223581	-0.276611	-0.385254	1.00293	0.961777	0.0350904	-0.263262	0.0666865	5.40124	0.43659	8.97185	0.00237639	0.0136925	0.00553172	-0.187256	-0.134033	-1.08154	0.0262332	-0.0607767	0.997569	0.0217805	-0.583382	1.11492	-9.69329	0.00433944	0.00628287	-0.00962962	-0.411621	-0.0915527	1.08374	
2	-0.881596	-0.0259798	0.471279	-0.00302547	8.6476	0.397152	5.81395	0.0096417	0.0105142	0.00157683	-0.624268	-0.059082	-0.814209	0.653908	-0.0654806	-0.753734	-0.00102676	9.78074	-0.779245	-1.46519	-0.012824	0.0375466	-0.0207218	-0.914062	-0.00878906	-0.161621	0.76682	0.0330716	-0.620554	0.160641	9.61215	-1.53424	2.28055	0.0102815	0.0135202	-0.00550702	-1.0105	0.000732422	-0.517822	0.832382	0.0902536	-0.530374	-0.133034	8.4721	2.89451	4.17684	0.000158773	0.0170042	-9.46034e-05	-0.674805	-0.169922	-0.769775	0.770735	0.0296654	-0.627384	-0.107131	9.58118	1.75708	2.20406	-0.00801405	0.0132626	-0.0213623	-0.850586	-0.150879	-0.625	0.873888	-0.216931	-0.410752	-0.143328	8.8729	-3.06053	6.56503	0.00842234	0.0131625	-0.0172037	-0.799316	0.265625	-0.780518	0.623463	0.0167177	-0.779716	0.0552919	9.36693	-0.637373	-2.01827	0.00442842	0.0638186	-0.0249435	-1.04761	-0.00439453	-0.101074	0.939589	-0.0737222	-0.325281	-0.0770003	6.76851	-0.955955	8.45805	-0.0020338	0.014166	-0.0147313	-0.459717	0.138916	-0.981689	-0.00594558	0.632506	-0.769123	0.0913833	-0.782932	3.24393	-8.62726	0.0168008	0.00502679	-0.0219477	-0.276367	-0.39209	1.00757	0.961783	0.0350233	-0.26325	0.0666732	5.32801	0.403723	8.91185	-3.71289e-06	0.0118335	0.00288409	-0.185059	-0.134033	-1.07715	0.0261718	-0.0608616	0.997568	0.0216736	-0.570785	1.1393	-9.66458	0.00619688	0.00602417	-0.00865538	-0.411377	-0.0961914	1.07935	
3	-0.881749	-0.0263601	0.470974	-0.00284172	8.73262	0.456354	5.80778	0.00607016	0.0144345	-0.0167258	-0.619629	-0.0634766	-0.812012	0.654231	-0.0651897	-0.753479	-0.000904218	9.59858	-0.928359	-1.46962	0.0190942	0.0114353	-0.0290192	-0.911865	-0.0131836	-0.161621	0.766988	0.0336116	-0.620258	0.160875	9.63942	-1.41455	2.31373	0.0224815	0.0200486	-0.00727664	-1.00391	-0.00146484	-0.52002	0.832574	0.0902633	-0.530081	-0.132992	8.47124	2.87698	4.14007	-0.00661936	0.0189571	0.00399087	-0.681641	-0.167725	-0.769775	0.770948	0.0294204	-0.627105	-0.107303	9.49621	1.86986	2.10843	-0.0229209	0.0183977	-0.015886	-0.85498	-0.148682	-0.622559	0.874021	-0.216646	-0.41062	-0.143325	8.87563	-3.0932	6.46236	-0.00807162	0.0235286	-0.0136069	-0.799316	0.265625	-0.782715	0.623178	0.0167645	-0.779932	0.0554543	9.48461	-0.649745	-2.25859	0.0356988	0.000181551	-0.015304	-1.0542	-0.00439453	-0.0947266	0.939563	-0.0737138	-0.32536	-0.0769977	6.82771	-0.913114	8.46242	0.00773414	0.0108101	-0.0168468	-0.457275	0.130371	-0.979248	-0.00593655	0.632434	-0.769191	0.091311	-0.785841	3.2439	-8.6374	0.00665657	0.00223725	-0.0216343	-0.276611	-0.385254	1.00513	0.961755	0.0350054	-0.263353	0.0666953	5.39069	0.327784	8.97632	0.00269795	0.00338398	0.004894	-0.18457	-0.140625	-1.07471	0.0262356	-0.0608234	0.997567	0.0217459	-0.565049	1.12317	-9.69195	-0.00129124	0.00208897	-0.00922357	-0.411621	-0.0915527	1.0791	
4	-0.882044	-0.0267161	0.470401	-0.00286678	8.70222	0.42752	5.85564	0.0181324	0.0258264	-0.00811132	-0.619629	-0.0612793	-0.816406	0.654012	-0.0654166	-0.75365	-0.00109815	9.64671	-0.850563	-1.4477	-0.0267445	-0.0138196	-0.0176038	-0.911865	-0.0131836	-0.149658	0.767058	0.033518	-0.620197	0.160791	9.54308	-1.61205	2.2102	-0.00683166	0.0133331	-0.00359804	-1.00391	0.00292969	-0.522461	0.832722	0.090504	-0.529824	-0.132925	8.32914	2.8316	4.06215	0.0221841	0.0179172	-0.00293704	-0.679199	-0.172119	-0.767578	0.770917	0.0296819	-0.627139	-0.107254	9.49968	1.7858	2.09096	0.0091083	0.00267584	-0.0123879	-0.855225	-0.146484	-0.622559	0.874048	-0.216631	-0.410574	-0.14332	8.90798	-2.97676	6.58074	0.010452	0.0152829	-0.0127304	-0.803467	0.265625	-0.778564	0.623704	0.016767	-0.779508	0.055494	9.32058	-0.58848	-2.11822	0.00877121	0.042236	-0.0192278	-1.05615	-0.0065918	-0.103027	0.939588	-0.0737505	-0.32529	-0.0769601	6.79302	-0.923432	8.43864	0.0015985	0.0201058	-0.0146891	-0.46167	0.132568	-0.983887	-0.00588279	0.632483	-0.769133	0.0914568	-0.785176	3.24661	-8.62684	0.0091252	0.00907685	-0.0199203	-0.271729	-0.389893	1.00732	0.961782	0.0350876	-0.263241	0.0666983	5.36272	0.444835	8.95392	0.00639393	0.0178829	0.00168099	-0.185059	-0.134033	-1.07715	0.0262055	-0.0607882	0.997569	0.0217705	-0.569507	1.12255	-9.65256	0.00492623	0.00830244	-0.00851639	-0.406738	-0.0959473	1.07471	
5	-0.882193	-0.0269265	0.470107	-0.00306412	8.61049	0.474791	5.85277	0.00926369	2.05099e-05	0.00347764	-0.619873	-0.059082	-0.812256	0.653953	-0.065284	-0.753712	-0.000928924	9.85214	-0.818686	-1.39416	0.00114878	0.0196926	-0.0189954	-0.909668	-0.0109863	-0.149902	0.766897	0.0340065	-0.620344	0.160889	9.68246	-1.50278	2.28009	-0.0130963	-0.00175853	-0.00136699	-1.0083	-0.00146484	-0.52002	0.832788	0.0908472	-0.52967	-0.132892	8.55589	2.77415	4.31986	0.0138736	0.0150384	-0.00943543	-0.679199	-0.172119	-0.769775	0.770932	0.0299606	-0.627095	-0.107319	9.60757	1.82334	2.13899	-0.00667762	0.0165096	-0.0250646	-0.857178	-0.148682	-0.622559	0.874043	-0.216679	-0.410569	-0.143291	8.98909	-3.0993	6.6815	0.00975012	0.0162004	-0.0146117	-0.799316	0.267822	-0.784912	0.62369	0.016841	-0.779529	0.055326	9.64957	-0.687064	-2.19221	0.0158275	0.0138078	-0.0329651	-1.0498	-0.00219727	-0.098877	0.939614	-0.0737524	-0.325227	-0.0768971	6.74901	-0.846587	8.46188	0.00602804	0.0156665	-0.0155894	-0.461914	0.136963	-0.983887	-0.0057915	0.632314	-0.769279	0.0914067	-0.778268	3.24962	-8.62757	0.0118687	0.00652924	-0.0205317	-0.276611	-0.383057	1.00732	0.961803	0.0349576	-0.263185	0.0666895	5.31456	0.368836	8.96939	-0.00199033	0.0112524	0.00314865	-0.182617	-0.135986	-1.07935	0.0262043	-0.0607685	0.997572	0.0216901	-0.566368	1.12196	-9.67246	0.00822744	0.00556117	-0.0100312	-0.411377	-0.0961914	1.08154	
6	-0.882026	-0.0269534	0.470418	-0.00322257	8.77731	0.444481	5.79892	0.000621623	-0.0160485	0.00626504	-0.622314	-0.0546875	-0.818604	0.654159	-0.0652055	-0.75354	-0.000869775	9.79521	-0.876919	-1.48745	0.00056213	0.0348315	-0.0192053	-0.909668	-0.0131836	-0.1521	0.767022	0.033655	-0.62028	0.160614	9.74124	-1.53493	2.30299	-0.0322205	0.019113	-0.00330141	-1.0083	-0.00341797	-0.524414	0.832942	0.090585	-0.529447	-0.132991	8.47486	2.90553	4.14586	-0.0101862	0.0105017	0.00538742	-0.676758	-0.174316	-0.769775	0.770986	0.0299001	-0.627012	-0.107435	9.56652	1.74154	2.09107	-0.0108897	0.0138298	-0.0183693	-0.853027	-0.146484	-0.618164	0.874079	-0.216558	-0.410504	-0.14344	8.9356	-3.19347	6.55004	0.00817048	0.0179177	-0.0212178	-0.799316	0.265625	-0.778564	0.624489	0.0167931	-0.778924	0.0548537	9.45621	-0.583406	-2.1471	0.0079985	0.0288842	-0.0255041	-1.05225	-0.000244141	-0.0969238	0.93956	-0.0736921	-0.325381	-0.0769678	6.81484	-0.934306	8.45547	0.0109041	0.00593087	-0.0213139	-0.46167	0.132568	-0.983887	-0.00585257	0.632183	-0.769388	0.0913909	-0.786612	3.24971	-8.62636	0.0105608	0.00178969	-0.0233141	-0.276611	-0.383057	1.00513	0.961723	0.0349815	-0.263474	0.066687	5.34027	0.331194	8.95728	0.00528621	-0.0050746	0.00150163	-0.184814	-0.138428	-1.08154	0.0262997	-0.0607194	0.997571	0.0217711	-0.572168	1.11788	-9.70278	0.000200869	0.00218314	-0.00870215	-0.40918	-0.0915527	1.08154	
7	-0.88207	-0.027047	0.470329	-0.00323078	8.77514	0.416854	5.78964	0.00834436	0.00505093	-0.00393683	-0.619873	-0.059082	-0.812256	0.654328	-0.0648291	-0.753426	-0.000911949	9.64547	-0.806078	-1.43886	0.00478944	0.0150035	-0.0212969	-0.911865	-0.0109863	-0.15918	0.767207	0.034487	-0.619871	0.161134	9.5804	-1.46067	2.2659	0.0381244	0.0105901	-0.00331759	-1.0061	-0.00146484	-0.526855	0.833009	0.0907031	-0.529336	-0.132936	8.44649	2.88281	4.09983	0.0117127	0.017177	-0.00107718	-0.672363	-0.172119	-0.77417	0.77103	0.0300267	-0.626988	-0.107221	9.51245	1.91236	2.15179	0.0146882	0.00851257	-0.0159727	-0.852783	-0.153076	-0.629395	0.874102	-0.216545	-0.410469	-0.143419	8.91388	-3.02348	6.63254	0.00396701	0.0171457	-0.0138169	-0.80127	0.263428	-0.77832	0.624916	0.0168984	-0.778588	0.0547258	9.51012	-0.672512	-2.20394	0.0181641	0.0556321	-0.0335287	-1.052	-0.00439453	-0.103271	0.939527	-0.073627	-0.325489	-0.076978	6.80326	-0.909617	8.45588	0.0101394	0.00625052	-0.0196569	-0.46167	0.134766	-0.981445	-0.005782	0.632119	-0.76946	0.0912294	-0.793183	3.2387	-8.61828	-0.00232406	0.0015256	-0.022393	-0.28125	-0.383057	1.00293	0.961669	0.0350346	-0.263667	0.0666751	5.44038	0.340064	8.96446	0.00593515	-0.00504785	0.00236229	-0.187256	-0.134033	-1.08154	0.0263771	-0.0607101	0.997566	0.0219221	-0.572234	1.11391	-9.67378	-0.00721984	-0.000301632	-0.00961841	-0.404541	-0.0959473	1.07471	
8	-0.882318	-0.0272964	0.469851	-0.00322576	8.67097	0.461821	5.78977	0.00843123	0.0194074	-0.00481385	-0.621826	-0.0634766	-0.810059	0.654099	-0.0650087	-0.753609	-0.000929967	9.67744	-0.8053	-1.42279	-0.0202114	0.0040225	-0.0120644	-0.912109	-0.0065918	-0.154785	0.767272	0.0339632	-0.619932	0.160704	9.54195	-1.63147	2.30832	-0.0228375	0.00814656	0.00453902	-1.00806	-0.00366211	-0.519775	0.833059	0.090464	-0.529264	-0.133073	8.4321	2.89777	4.20929	-0.0173114	0.00332212	-0.00221747	-0.674805	-0.169922	-0.769775	0.771156	0.0299452	-0.626844	-0.107184	9.45187	1.86393	2.01155	-8.4322e-05	0.010065	-0.0201162	-0.850586	-0.148682	-0.620361	0.874205	-0.216252	-0.410463	-0.143251	8.92253	-2.95777	6.55596	0.0177538	0.0188994	-0.0121446	-0.801514	0.265625	-0.780518	0.625924	0.0168921	-0.777811	0.0542573	9.36352	-0.596985	-2.01211	-0.00441364	0.0537432	-0.032119	-1.052	-0.00439453	-0.103271	0.939543	-0.0734969	-0.325465	-0.0770117	6.74414	-0.914217	8.46843	0.00883824	0.0177478	-0.0177276	-0.46167	0.130371	-0.983887	-0.00570105	0.631967	-0.7696	0.0911153	-0.774245	3.24315	-8.62122	0.00340345	0.00347135	-0.022715	-0.276611	-0.387451	1.00732	0.961638	0.0351612	-0.263769	0.0666413	5.33495	0.484817	8.94375	0.0045141	0.00874222	0.000523442	-0.182617	-0.133789	-1.07715	0.0264199	-0.0607002	0.997564	0.0219959	-0.578147	1.11826	-9.65338	0.0076265	0.00668151	-0.00949541	-0.406738	-0.0959473	1.08374	
9	-0.882484	-0.0273605	0.469535	-0.00319749	8.65655	0.526501	5.81145	-0.00319695	0.00966902	-0.00180056	-0.615234	-0.0632324	-0.814209	0.654131	-0.0652504	-0.753561	-0.00098754	9.69765	-0.778331	-1.42818	-0.0189377	0.0158231	-0.012697	-0.90332	-0.00878906	-0.154541	0.767378	0.0341892	-0.619737	0.160895	9.59793	-1.42307	2.28245	0.0218717	0.0134878	-0.00384608	-1.0061	-0.00146484	-0.52002	0.83304	0.0904649	-0.529282	-0.133119	8.41038	2.8979	4.10215	0.00360863	0.00149055	0.000289211	-0.674805	-0.169922	-0.771973	0.771217	0.0297236	-0.626744	-0.107392	9.60939	1.8263	2.12187	-0.0218858	0.0140489	-0.0119086	-0.85498	-0.148682	-0.622559	0.874215	-0.21663	-0.410148	-0.143521	8.92024	-3.17661	6.53687	-0.0217941	0.02648	-0.0183062	-0.794922	0.263428	-0.77832	0.62656	0.016753	-0.777328	0.0538835	9.48577	-0.572823	-2.13581	0.0125259	0.0510088	-0.0246616	-1.0498	-0.0065918	-0.107422	0.939536	-0.0734243	-0.325489	-0.0770626	6.80999	-0.82941	8.45884	0.00640507	0.0147513	-0.0185225	-0.459473	0.132568	-0.983887	-0.00563223	0.631897	-0.769671	0.0909962	-0.779899	3.24577	-8.60892	0.000753217	0.00368125	-0.0220987	-0.276855	-0.380615	1.00513	0.961635	0.0350018	-0.263813	0.066596	5.38006	0.336316	8.91146	-0.000511408	0.0113135	0.00334866	-0.189453	-0.134033	-1.07471	0.0263751	-0.0607626	0.997564	0.0218586	-0.572797	1.12336	-9.6822	0.00769532	0.00563087	-0.00770803	-0.40918	-0.09375	1.0791	
10	-0.882592	-0.027221	0.469344	-0.00274891	8.67411	0.49999	5.83533	-0.015664	0.00134005	-0.0163156	-0.617432	-0.0632324	-0.816406	0.654191	-0.0655444	-0.753483	-0.00128926	9.65121	-0.871295	-1.46142	-0.014476	0.0132436	-0.0210615	-0.909668	-0.0131836	-0.156738	0.767405	0.0335921	-0.619854	0.160442	9.6472	-1.49195	2.25303	-0.0379423	0.000412076	-0.00465972	-1.0105	0.000732422	-0.522217	0.833007	0.0903185	-0.529312	-0.133308	8.4543	2.85331	4.19847	-0.00778163	0.00516358	-0.000482466	-0.675049	-0.165527	-0.77002	0.771334	0.0291761	-0.62658	-0.107655	9.54197	1.78428	2.12974	-0.024735	0.0109172	-0.00646243	-0.85498	-0.148682	-0.625	0.874362	-0.216626	-0.409803	-0.14362	8.86847	-3.00316	6.51251	-0.0259638	0.0270817	-0.014972	-0.799072	0.263428	-0.780518	0.627184	0.0168035	-0.776836	0.0537059	9.41209	-0.578839	-1.91729	0.0241825	0.0325433	-0.0168569	-1.04956	-0.00878906	-0.10083	0.939558	-0.0734736	-0.325427	-0.0770086	6.76776	-0.928446	8.46985	0.00489889	0.0158089	-0.0131709	-0.461426	0.125977	-0.981445	-0.00561088	0.631955	-0.769612	0.0910956	-0.790476	3.24794	-8.61713	0.00527956	0.00405048	-0.0217365	-0.274414	-0.385254	1.00513	0.961648	0.0350939	-0.263763	0.066567	5.36698	0.403352	8.94682	0.00455755	0.0157964	0.00207158	-0.189209	-0.138428	-1.0769	0.0263125	-0.0608578	0.997561	0.021837	-0.57738	1.12061	-9.68266	0.00294432	0.00589988	-0.00901711	-0.40918	-0.09375	1.0791	
11	-0.882707	-0.0271161	0.469134	-0.00253056	8.65181	0.435183	5.81338	-0.00177359	0.00693682	-0.00603881	-0.61499	-0.0654297	-0.816406	0.654216	-0.0657244	-0.753445	-0.00149854	9.76186	-0.863838	-1.34312	-0.022128	0.0211552	-0.0152697	-0.912109	-0.0065918	-0.152344	0.767504	0.0336907	-0.619731	0.160425	9.59884	-1.49787	2.27826	0.00980107	0.0136931	-0.00349972	-1.0061	0.000732422	-0.524658	0.832992	0.0902582	-0.529349	-0.133297	8.4372	2.88193	4.13949	-0.00513083	0.00147452	0.00257351	-0.681641	-0.167725	-0.765381	0.771337	0.0292404	-0.626597	-0.107522	9.49713	1.85489	2.22889	0.0104903	0.00572865	-0.0169506	-0.857178	-0.148682	-0.625	0.874489	-0.216447	-0.409617	-0.143641	8.89916	-3.02188	6.66017	0.0146349	0.02185	-0.0128647	-0.801514	0.265625	-0.782715	0.627011	0.0167884	-0.776962	0.0538947	9.50662	-0.635229	-2.07706	0.024976	0.0135731	-0.0111534	-1.052	-0.00439453	-0.105225	0.939629	-0.0733586	-0.325206	-0.0771759	6.78852	-0.886685	8.46254	0.00382566	0.0175322	-0.0152163	-0.463867	0.130371	-0.983887	-0.0055586	0.632089	-0.769492	0.0911854	-0.79317	3.25449	-8.62523	0.00789409	0.00593282	-0.0221884	-0.278809	-0.387451	1.00073	0.961724	0.0351392	-0.263464	0.0666301	5.37708	0.390666	8.93434	0.00456357	0.0180649	0.00306037	-0.184814	-0.13623	-1.08154	0.0262922	-0.0608076	0.997563	0.0218872	-0.563749	1.11907	-9.66322	0.00493971	0.00831389	-0.00852431	-0.408936	-0.0983887	1.08154	
12	-0.88286	-0.027128	0.468844	-0.00287664	8.73752	0.492352	5.89084	0.00669037	0.0157009	0.0138079	-0.615234	-0.0610352	-0.818604	0.654369	-0.0656777	-0.753317	-0.00142058	9.73202	-0.828129	-1.36633	-0.00316386	0.0183028	-0.0174781	-0.909668	-0.0109863	-0.154541	0.767549	0.0336071	-0.619686	0.160401	9.63817	-1.5572	2.24371	-0.0074632	0.00986335	0.00253743	-1.0083	0.000732422	-0.526855	0.83303	0.0901728	-0.529295	-0.133329	8.524	2.88239	4.16494	0.00601749	0.0117181	0.000539472	-0.679199	-0.169922	-0.769775	0.771472	0.029181	-0.626442	-0.107473	9.54323	1.75055	2.06813	-0.00525829	0.00841891	-0.0116838	-0.857178	-0.148682	-0.620361	0.87448	-0.216391	-0.40969	-0.143572	8.9275	-3.08027	6.64668	0.0130375	0.00942711	-0.0178702	-0.799072	0.26123	-0.784668	0.626844	0.0166892	-0.777091	0.0540232	9.47231	-0.595019	-2.05593	0.0247395	-0.00946532	-0.00776579	-1.0498	-0.0065918	-0.109619	0.939658	-0.0734088	-0.325121	-0.0771422	6.81036	-0.908931	8.47183	0.00388346	0.0157395	-0.0141324	-0.459473	0.132568	-0.986084	-0.00554819	0.632215	-0.769369	0.0913463	-0.789488	3.24596	-8.63956	0.0113163	0.00641025	-0.0222359	-0.278809	-0.387695	1.00732	0.961787	0.0351299	-0.26323	0.0666513	5.33403	0.387855	8.95878	0.00373506	0.0203023	0.00469844	-0.185059	-0.134033	-1.07715	0.0262677	-0.0607596	0.997565	0.0219425	-0.567523	1.112	-9.67437	0.00241027	0.0067169	-0.00733554	-0.413574	-0.0939941	1.0769	
13	-0.883046	-0.0271046	0.468493	-0.00311034	8.60366	0.473367	5.89414	0.00249266	0.00640594	0.00380974	-0.617188	-0.0654297	-0.818604	0.65452	-0.0654703	-0.753204	-0.00131984	9.73718	-0.803371	-1.48383	0.0122097	0.0165327	-0.0250702	-0.907471	-0.0109863	-0.15918	0.767571	0.0338877	-0.619621	0.160484	9.61175	-1.51885	2.28158	0.0305824	0.00874854	-0.00701495	-1.01025	-0.00341797	-0.524414	0.833123	0.0900996	-0.529203	-0.133162	8.45659	2.91134	4.16051	0.00611094	0.00897365	0.00867022	-0.677002	-0.169922	-0.771973	0.77143	0.0293876	-0.626519	-0.107261	9.60083	1.78752	2.18868	0.00348442	0.00433661	-0.00984321	-0.850586	-0.148682	-0.620361	0.874438	-0.216367	-0.409858	-0.143387	8.89455	-3.01965	6.59345	0.0136385	0.00466127	-0.0127971	-0.797119	0.265625	-0.780518	0.626671	0.016653	-0.777201	0.0544496	9.52845	-0.55346	-2.04718	0.0440791	-0.00327995	0.00676893	-1.052	-0.00439453	-0.105225	0.939676	-0.0734085	-0.325079	-0.0770952	6.78628	-0.938966	8.44923	0.00860309	0.0158805	-0.0138862	-0.46167	0.134766	-0.983887	-0.00541592	0.632058	-0.769525	0.0911272	-0.788952	3.24553	-8.62982	0.00223787	0.00372281	-0.0216969	-0.276367	-0.389893	1.01196	0.96182	0.035264	-0.263089	0.0666582	5.3397	0.43999	8.93732	0.0101401	0.0155175	0.00185262	-0.189453	-0.134033	-1.08154	0.026272	-0.0607175	0.997565	0.0220832	-0.571844	1.13239	-9.67123	0.000795789	0.00621333	-0.00930288	-0.411377	-0.0961914	1.07935	
14	-0.882941	-0.0270503	0.468693	-0.00322132	8.64698	0.414916	5.8841	0.00212466	-0.0121144	0.00266835	-0.615479	-0.059082	-0.816406	0.654564	-0.0653123	-0.753179	-0.00126778	9.7746	-0.844393	-1.37805	0.00330494	0.0168034	-0.025152	-0.909668	-0.0109863	-0.156982	0.767542	0.0341492	-0.619612	0.160605	9.56358	-1.40093	2.37745	0.0244973	0.00130239	-0.00724634	-1.00171	-0.00366211	-0.522217	0.833034	0.0900497	-0.52937	-0.133091	8.42676	2.80619	4.20106	0.0048962	-0.00413237	0.00170434	-0.676758	-0.174316	-0.771973	0.771455	0.0293227	-0.6265	-0.107217	9.54733	1.80414	2.07565	-0.0028357	0.00863604	-0.0083179	-0.859619	-0.144287	-0.622559	0.874479	-0.21607	-0.409959	-0.143295	8.861	-2.97913	6.51318	0.0105345	0.0119177	-0.0157031	-0.803711	0.267822	-0.780762	0.626584	0.0169834	-0.777188	0.0555246	9.52083	-0.610241	-2.08434	0.0379643	0.00968964	0.00239805	-1.05396	-0.0109863	-0.107178	0.939682	-0.0733936	-0.325077	-0.0770483	6.74334	-0.860482	8.48452	0.00776036	0.0149565	-0.0130216	-0.461914	0.134766	-0.986084	-0.00537772	0.631974	-0.769603	0.0910548	-0.79173	3.24711	-8.63936	0.00572674	0.00459995	-0.0211908	-0.276611	-0.385254	1.00293	0.961812	0.0352698	-0.263119	0.0666576	5.30907	0.435971	8.95451	0.00381236	0.00922473	0.00371984	-0.178223	-0.133789	-1.08398	0.0263191	-0.0606557	0.997567	0.0220795	-0.569975	1.11959	-9.69309	0.00511013	0.00409011	-0.00745415	-0.40918	-0.0959473	1.0769	
15	-0.882875	-0.027058	0.468816	-0.00323898	8.67088	0.465752	5.8977	0.00191244	-0.0140072	0.000148048	-0.613281	-0.0588379	-0.814209	0.654779	-0.0654242	-0.752983	-0.00126266	9.69771	-0.712331	-1.30466	-0.015549	0.0251143	-0.0150027	-0.907471	-0.00878906	-0.156982	0.767579	0.0336542	-0.61966	0.160348	9.64674	-1.58779	2.33084	-0.00597693	0.0133758	0.00781578	-1.00391	-0.00366211	-0.524414	0.83288	0.0898691	-0.5296	-0.133263	8.38984	2.86059	4.17364	-0.00190578	-0.00893924	-8.82929e-05	-0.677002	-0.169922	-0.767578	0.771522	0.0290648	-0.626419	-0.107278	9.53516	1.72916	2.06913	-0.0218147	0.00622761	-0.00498678	-0.853027	-0.144287	-0.629395	0.874457	-0.216022	-0.410026	-0.143313	8.88961	-3.04126	6.50919	0.0056267	0.00985095	-0.0199605	-0.801514	0.265625	-0.784912	0.626387	0.0168527	-0.777316	0.0559915	9.38499	-0.611805	-2.07799	0.0386099	0.0085711	0.00504854	-1.0498	-0.00219727	-0.105469	0.939649	-0.0735332	-0.32514	-0.0770516	6.81929	-0.946839	8.44399	-0.00103873	0.0122627	-0.0147235	-0.463867	0.134766	-0.988525	-0.00546387	0.631816	-0.769722	0.0911383	-0.804842	3.23705	-8.62989	0.0196556	0.00625883	-0.0218994	-0.278809	-0.387695	1.00952	0.961792	0.035223	-0.263183	0.0667034	5.39685	0.40616	8.90819	0.00187901	0.011423	0.00828796	-0.182617	-0.135986	-1.07471	0.0263224	-0.0606264	0.997569	0.0220729	-0.582713	1.12882	-9.67186	0.00555303	0.00620314	-0.00820746	-0.406738	-0.0959473	1.0769	
16	-0.882863	-0.0270638	0.468841	-0.00314284	8.65165	0.474001	5.87842	-0.00177955	-0.00515814	-0.00568153	-0.619873	-0.059082	-0.818604	0.654748	-0.0654998	-0.753003	-0.00132998	9.62187	-0.789552	-1.44464	-0.0308425	0.0209753	-0.0092563	-0.907227	-0.0197754	-0.156494	0.767493	0.0333462	-0.619791	0.160318	9.58673	-1.40222	2.2999	-0.0327027	0.00295303	0.00962396	-1.00391	-0.00146484	-0.522217	0.832803	0.0897189	-0.529719	-0.133373	8.46106	2.80164	4.13664	-0.00938299	-0.00815894	-0.00062538	-0.676758	-0.174316	-0.769775	0.771426	0.0289142	-0.626537	-0.107323	9.56185	1.74778	2.1523	-0.00909263	0.00295756	-0.0079707	-0.859619	-0.144287	-0.625	0.874439	-0.216098	-0.409949	-0.143526	8.89224	-3.02191	6.577	-0.00556316	0.0108264	-0.0134716	-0.803467	0.265625	-0.782715	0.626152	0.0168376	-0.777476	0.0563974	9.48235	-0.660476	-2.05843	0.0438645	-0.00950741	0.00457364	-1.04956	-0.00878906	-0.103027	0.939651	-0.0735527	-0.325137	-0.0770204	6.77455	-0.887383	8.45166	0.00514057	0.0161655	-0.0158869	-0.45752	0.134766	-0.986328	-0.00541064	0.631949	-0.769604	0.0912148	-0.78733	3.24826	-8.62525	0.0077317	0.00568169	-0.0224968	-0.276855	-0.380615	1.00293	0.961801	0.0351588	-0.263167	0.066668	5.36406	0.377381	8.92021	0.000767626	0.0113739	0.0050461	-0.184814	-0.138428	-1.07935	0.0263363	-0.0605885	0.997572	0.0220173	-0.573184	1.11691	-9.66387	0.00721206	0.00559027	-0.00960455	-0.411377	-0.0961914	1.07935	
17	-0.882884	-0.026925	0.46881	-0.00285436	8.6496	0.490214	5.93348	-0.0124651	-0.00358966	-0.00879581	-0.615234	-0.0632324	-0.818604	0.654174	-0.0658383	-0.753472	-0.00152355	9.807	-0.857466	-1.39103	-0.0174514	-0.0113084	-0.0150235	-0.905029	-0.0153809	-0.1521	0.767253	0.0330398	-0.620105	0.160313	9.63074	-1.60049	2.25953	0.0212497	-0.0109411	0.00442724	-1.00806	-0.00366211	-0.519775	0.832618	0.0896415	-0.529997	-0.133473	8.50037	2.93249	4.24176	-0.000643723	-0.0081448	-0.00290781	-0.677002	-0.167725	-0.767578	0.771273	0.0287655	-0.626707	-0.10746	9.63539	1.86257	2.20784	-0.0182493	-0.00193222	-0.0182261	-0.857178	-0.148682	-0.627197	0.874405	-0.216188	-0.410014	-0.143414	8.95949	-3.07059	6.58974	0.0047338	0.00766518	-0.0130241	-0.795166	0.27002	-0.778564	0.626152	0.0168376	-0.777476	0.0563974	9.48235	-0.660476	-2.05843	0.0438645	-0.00950741	0.00457364	-1.04956	-0.00878906	-0.103027	0.939658	-0.0735618	-0.325124	-0.0769857	6.77832	-0.938996	8.48056	0.00738619	0.0143736	-0.0142864	-0.463867	0.134766	-0.981445	-0.00539991	0.632064	-0.769499	0.0913034	-0.786471	3.23544	-8.6351	0.00896074	0.00481858	-0.0215301	-0.28125	-0.385254	1.00293	0.961809	0.0350175	-0.263162	0.0666514	5.3735	0.393667	8.96165	-0.00439291	0.0124285	0.0040919	-0.184814	-0.13623	-1.08154	0.0263066	-0.0605266	0.997579	0.0219385	-0.576793	1.12277	-9.68273	0.0073509	0.0070047	-0.00902171	-0.408936	-0.0983887	1.07935	
18	-0.882719	-0.0267984	0.469129	-0.0027087	8.58456	0.424817	5.89631	-0.0143362	-0.0320925	-0.00616584	-0.619873	-0.059082	-0.812256	0.654257	-0.0657988	-0.753403	-0.00145182	9.74683	-0.900771	-1.44922	0.00218041	0.0219166	-0.0187708	-0.911865	-0.00878906	-0.156982	0.767159	0.0328817	-0.620265	0.160181	9.62053	-1.47644	2.22879	-0.0207755	0.00429955	-0.00367015	-0.999512	-0.00146484	-0.524414	0.832381	0.0889372	-0.530364	-0.133966	8.4584	2.84657	4.15283	-0.0301478	-0.0185002	0.0047396	-0.679443	-0.167725	-0.767578	0.771141	0.0289569	-0.626897	-0.107253	9.53174	1.75536	2.22104	0.0242592	0.00316743	-0.0153225	-0.853027	-0.144287	-0.627197	0.874355	-0.216109	-0.410169	-0.143394	8.84493	-3.11171	6.63494	0.0308685	0.0103597	-0.0188119	-0.797119	0.265625	-0.778564	0.625421	0.0172175	-0.778024	0.0568358	9.49705	-0.658882	-2.05994	0.0159568	-0.0153153	-0.00372546	-1.052	-0.00219727	-0.107422	0.939594	-0.073641	-0.325279	-0.0770336	6.75403	-0.943109	8.5014	0.00159587	0.00725781	-0.0189835	-0.46167	0.132568	-0.979248	-0.00550912	0.632191	-0.769369	0.0915188	-0.781385	3.24151	-8.61923	0.0162509	0.00423314	-0.0224145	-0.27417	-0.387451	1.00293	0.961762	0.0349742	-0.263331	0.0666914	5.31158	0.348522	8.9667	0.00196431	-0.00066727	0.006115	-0.184814	-0.13623	-1.08154	0.0262674	-0.0606106	0.997576	0.0218893	-0.561215	1.13341	-9.67604	0.00438128	0.0050489	-0.00857736	-0.40918	-0.0915527	1.0769	
19	-0.882079	-0.0271201	0.470311	-0.00301199	8.75723	0.443165	5.78188	0.025727	-0.0178913	0.014725	-0.617432	-0.0612793	-0.812012	0.654169	-0.0653646	-0.753518	-0.00109058	9.54636	-0.83067	-1.43487	0.0133299	-0.000349927	-0.0216704	-0.914307	-0.0065918	-0.156982	0.767222	0.0329497	-0.620142	0.160342	9.56255	-1.5719	2.24995	0.0155946	0.0119951	8.97344e-05	-1.0083	-0.00146484	-0.522217	0.832362	0.0884265	-0.530443	-0.134109	8.47333	2.82426	4.02637	-0.00170516	0.00356235	0.00346974	-0.677002	-0.169922	-0.767578	0.771168	0.0290779	-0.626884	-0.107103	9.52428	1.84066	2.13963	0.00388705	0.0118542	-0.0160129	-0.85083	-0.146484	-0.625	0.874288	-0.215912	-0.410495	-0.143168	8.89273	-3.0517	6.51027	0.00876059	-0.00443288	-0.0121494	-0.803467	0.265625	-0.780518	0.624924	0.0171255	-0.77841	0.057045	9.46257	-0.670534	-2.18548	0.0205038	-0.00417804	-0.0114371	-1.05176	-0.0065918	-0.098877	0.939487	-0.0736126	-0.325582	-0.0770817	6.83868	-0.872741	8.44718	0.00499653	6.96683e-05	-0.0204636	-0.46167	0.134521	-0.974609	-0.00553147	0.632052	-0.769499	0.0913817	-0.80902	3.23723	-8.62081	0.00401854	0.00167981	-0.0221909	-0.279053	-0.380859	1.00952	0.96165	0.0349244	-0.263739	0.0667136	5.44211	0.359854	8.91818	9.56935e-05	-0.00426301	0.00816787	-0.189209	-0.138428	-1.08618	0.026376	-0.0605767	0.997574	0.0219157	-0.580672	1.12328	-9.67276	0.00590399	0.0017681	-0.00948662	-0.404541	-0.0959473	1.07251	
20	-0.881971	-0.0274201	0.470492	-0.00355607	8.64797	0.480466	5.79757	0.0158897	-0.0121783	0.0100877	-0.617432	-0.0612793	-0.814209	0.65366	-0.0650626	-0.753986	-0.000801841	9.68684	-0.802169	-1.4628	0.004251	-0.0135657	-0.0220654	-0.91626	-0.00878906	-0.156982	0.766979	0.0332266	-0.620401	0.160442	9.57712	-1.44294	2.28689	-0.00469346	-0.0102519	-0.00235823	-1.0061	-0.00146484	-0.515381	0.832265	0.0884113	-0.530605	-0.134077	8.43843	2.84622	4.13051	-0.00580586	-0.00413254	-0.000899956	-0.683838	-0.167725	-0.765381	0.770971	0.0298308	-0.627168	-0.106652	9.50362	1.81419	2.03458	0.0613085	-0.0021662	-0.024464	-0.852783	-0.150879	-0.622559	0.874211	-0.215529	-0.411027	-0.142687	8.8838	-2.88762	6.57481	0.0123927	-0.00725193	-0.00749153	-0.801514	0.267822	-0.780762	0.624522	0.0168864	-0.778729	0.0571725	9.43698	-0.681193	-2.1112	0.0167557	-0.0110419	-0.00762309	-1.0498	-0.00219727	-0.098877	0.939478	-0.0736698	-0.325606	-0.077031	6.77882	-0.929449	8.44073	0.00400429	0.0163177	-0.0134659	-0.46167	0.130371	-0.981445	-0.00548865	0.631969	-0.769578	0.0912937	-0.780878	3.24729	-8.61347	0.00460649	0.00430367	-0.0221873	-0.274414	-0.383057	1.00952	0.96162	0.0348137	-0.263873	0.066675	5.39385	0.410432	8.94965	-0.00282522	0.0102218	0.00255353	-0.185059	-0.134033	-1.07715	0.0264199	-0.0605578	0.99758	0.0216385	-0.579047	1.11681	-9.6736	0.0194481	0.00597941	-0.0100958	-0.413818	-0.0895996	1.0791	
21	-0.881714	-0.0275619	0.470966	-0.00342569	8.61376	0.452488	5.80418	0.000800522	-0.0322755	-0.0147322	-0.619629	-0.0612793	-0.807861	0.653254	-0.0650568	-0.754338	-0.000648351	9.73212	-0.822554	-1.50632	-0.0103031	-0.00477668	-0.0104131	-0.907715	-0.00439453	-0.152344	0.766884	0.0331144	-0.620547	0.160356	9.67929	-1.5334	2.32506	0.00961043	0.000964863	-0.001109	-1.0061	-0.00146484	-0.517578	0.83219	0.0885177	-0.530739	-0.133939	8.48559	2.85254	4.18675	0.00446326	-0.00175448	0.00543758	-0.68335	-0.174316	-0.769775	0.770835	0.0301654	-0.627344	-0.106504	9.61474	1.82447	2.16673	-0.00927193	0.00869421	-0.0153827	-0.853027	-0.146484	-0.618164	0.874054	-0.215818	-0.411283	-0.142469	8.91959	-3.13297	6.52684	0.0145314	0.00203681	-0.0050651	-0.801514	0.27002	-0.778564	0.624015	0.0166761	-0.77914	0.0571786	9.51463	-0.648588	-2.16466	0.015206	-0.0150223	-0.0028531	-1.05005	-0.000244141	-0.0991211	0.939473	-0.0736525	-0.325637	-0.0769777	6.79115	-0.911292	8.45765	0.00621648	0.01369	-0.0159393	-0.459717	0.134766	-0.983887	-0.00546129	0.632071	-0.769482	0.0914055	-0.776181	3.23259	-8.62454	0.00952999	0.00615662	-0.0210802	-0.276611	-0.385254	1.00952	0.961614	0.0347508	-0.263909	0.0666505	5.41285	0.296441	8.9144	-0.00109178	0.0100369	0.00191689	-0.187012	-0.13623	-1.07935	0.0265735	-0.0604933	0.997587	0.0213153	-0.578527	1.09633	-9.69622	0.0124585	0.00106127	-0.00791645	-0.411621	-0.0915527	1.08154	
22	-0.881303	-0.0278134	0.471722	-0.00306425	8.78822	0.472982	5.77899	0.00392767	-0.0332466	-0.0166452	-0.621826	-0.0612793	-0.810059	0.653038	-0.065188	-0.754514	-0.000715121	9.64783	-0.803535	-1.5376	-0.0195547	-0.00862193	-0.0155313	-0.912109	-0.0065918	-0.154785	0.766867	0.0331273	-0.620556	0.160396	9.63333	-1.39901	2.36266	0.00496008	0.00382447	-4.65277e-07	-1.0061	0.00512695	-0.522461	0.832115	0.0883463	-0.530871	-0.133998	8.45794	2.8961	4.20855	-0.00915412	-0.00889744	0.00381614	-0.683838	-0.167725	-0.771973	0.770785	0.0303412	-0.62743	-0.106311	9.51702	1.7378	2.00828	0.021098	0.00102879	-0.0117223	-0.859375	-0.148682	-0.622559	0.873965	-0.216032	-0.411457	-0.142192	8.87736	-3.06839	6.4773	-0.0111243	0.00369525	-0.00570848	-0.805664	0.265625	-0.780518	0.624055	0.0165085	-0.77909	0.057461	9.40974	-0.720993	-2.10226	0.033498	0.0234877	-0.00383449	-1.05176	-0.0065918	-0.103027	0.939473	-0.0736614	-0.325634	-0.0769914	6.83846	-0.899505	8.44277	0.00426362	0.0148006	-0.0170738	-0.459717	0.134766	-0.983887	-0.00535439	0.632095	-0.769469	0.0913515	-0.785783	3.23942	-8.62637	-0.000561529	0.00548119	-0.0198642	-0.274414	-0.385254	0.998535	0.961628	0.0348403	-0.263845	0.0666614	5.40507	0.415706	8.92806	0.00475673	0.0150557	0.00405454	-0.187012	-0.138428	-1.07471	0.0266412	-0.0604377	0.997589	0.0212848	-0.59136	1.11662	-9.67318	0.00648733	0.00429106	-0.00880802	-0.41333	-0.100586	1.0769	
23	-0.881211	-0.0278668	0.471891	-0.00308638	8.75749	0.515699	5.76466	0.00518819	-0.0181134	-0.00123347	-0.62207	-0.059082	-0.805664	0.652543	-0.0655448	-0.754911	-0.000755303	9.66805	-0.857218	-1.45266	-0.0268344	-0.0110553	-0.00342164	-0.909668	-0.0109863	-0.1521	0.766786	0.0323464	-0.620808	0.15997	9.54682	-1.51622	2.25906	-0.0286329	-0.0100681	0.00140529	-1.0083	0.00512695	-0.524658	0.831995	0.087895	-0.53105	-0.134332	8.44878	2.8207	4.10692	-0.0188787	-0.00938144	-0.00138776	-0.679443	-0.167725	-0.765381	0.770746	0.0302611	-0.627486	-0.106283	9.56905	1.83035	2.0463	-0.0193565	-0.00330123	-0.0125495	-0.85498	-0.148682	-0.625	0.874014	-0.215807	-0.411518	-0.142053	8.96279	-3.04192	6.53637	0.0241442	0.0117975	-0.0138697	-0.80127	0.263428	-0.776367	0.624055	0.0165085	-0.77909	0.057461	9.40974	-0.720993	-2.10226	0.033498	0.0234877	-0.00383449	-1.05176	-0.0065918	-0.103027	0.93949	-0.0737432	-0.325568	-0.0769824	6.74795	-0.915202	8.48166	0.00138484	0.017508	-0.0163437	-0.46582	0.130371	-0.979004	-0.00532833	0.631993	-0.769562	0.0912718	-0.777295	3.25567	-8.6129	0.00656537	0.00438746	-0.0208383	-0.279053	-0.380859	1.01392	0.96166	0.0348489	-0.263725	0.0666623	5.37345	0.391058	8.91543	0.00408646	0.0213255	0.00284089	-0.187256	-0.134033	-1.08398	0.026653	-0.0604299	0.997589	0.0213164	-0.576749	1.1016	-9.67548	0.00321645	0.00489456	-0.00981044	-0.40918	-0.0959473	1.07935	
24	-0.881117	-0.027576	0.472084	-0.00302756	8.74352	0.570193	5.79428	-0.0185936	-0.00852548	0.00360048	-0.619629	-0.0634766	-0.816406	0.651827	-0.0659222	-0.755497	-0.000749056	9.70755	-0.89711	-1.48384	-0.0142257	-0.0222617	-0.017339	-0.918701	-0.00439453	-0.147705	0.766572	0.0322043	-0.621095	0.15991	9.6055	-1.50672	2.32427	0.00414972	-0.0117861	-0.000893355	-1.00391	0.00512695	-0.517822	0.831795	0.0876895	-0.531353	-0.134503	8.43904	2.89904	4.18191	-0.0135823	-0.012131	-0.00301878	-0.681641	-0.165527	-0.765625	0.770627	0.0299466	-0.627609	-0.10651	9.52313	1.70473	2.19986	-0.0226613	-0.00539074	-0.0104809	-0.85498	-0.153076	-0.622559	0.873935	-0.216121	-0.411491	-0.142143	8.78869	-3.09389	6.55373	-0.0190869	0.0110623	-0.0166715	-0.801514	0.267822	-0.780762	0.62407	0.0164267	-0.779088	0.0573389	9.49746	-0.715135	-2.20847	0.01853	0.0229854	-0.0133693	-1.05444	0.00195312	-0.0991211	0.939524	-0.0737194	-0.325485	-0.0769443	6.78932	-0.942938	8.44068	0.00640402	0.0193018	-0.0126778	-0.463867	0.132568	-0.976807	-0.00534434	0.631909	-0.769629	0.091287	-0.78699	3.23568	-8.62767	0.0144665	0.00617564	-0.0227193	-0.278809	-0.387695	1.00952	0.961688	0.034873	-0.263636	0.0666086	5.37659	0.360603	8.9159	0.00410586	0.0150304	0.00318604	-0.189453	-0.134033	-1.08154	0.0266592	-0.0603253	0.997593	0.0214116	-0.588168	1.10056	-9.6758	0.000508321	0.00550999	-0.00798397	-0.40918	-0.0915527	1.0791	
25	-0.881066	-0.0267059	0.472231	-0.00271834	8.73745	0.402545	5.78303	-0.0384759	-0.00847849	0.00451787	-0.624268	-0.059082	-0.814209	0.651237	-0.0659979	-0.755999	-0.000819141	9.65208	-0.843739	-1.53405	-0.00781873	-0.0192079	-0.0247394	-0.911865	-0.00878906	-0.147461	0.766453	0.0314332	-0.621381	0.159524	9.51701	-1.6981	2.22926	-0.036769	-0.00164621	0.014481	-1.0061	0.000732422	-0.515381	0.831584	0.0873976	-0.531629	-0.134907	8.47823	2.7986	4.06642	-0.0155573	-0.00576601	-0.0095978	-0.679443	-0.16333	-0.767822	0.770524	0.0302414	-0.627745	-0.10637	9.61176	1.87263	2.15103	0.0351799	0.0089465	-0.0161281	-0.855225	-0.146484	-0.620361	0.873842	-0.2158	-0.411934	-0.141919	8.92901	-3.03423	6.62918	0.0217819	-0.00497242	-0.0134682	-0.803467	0.265625	-0.782715	0.62419	0.0162516	-0.779002	0.057255	9.41253	-0.687008	-2.13897	0.00973189	0.00678196	-0.0137183	-1.0498	-0.00219727	-0.098877	0.939531	-0.0736192	-0.325477	-0.0769787	6.79666	-0.900276	8.45172	0.00815306	0.0158887	-0.0203838	-0.466064	0.134766	-0.986084	-0.00522592	0.63202	-0.769551	0.0911893	-0.786897	3.25164	-8.6179	0.0011357	0.00368926	-0.0217129	-0.271729	-0.389893	1.00732	0.961714	0.0349624	-0.263542	0.0665509	5.40486	0.325967	8.95782	0.00949335	0.0187532	-0.0029934	-0.187256	-0.131836	-1.08179	0.0266522	-0.0602772	0.997594	0.0214877	-0.579938	1.10884	-9.68443	-0.00115066	0.00662446	-0.00701887	-0.409424	-0.0893555	1.0769	
26	-0.881028	-0.026241	0.472328	-0.00247731	8.6472	0.293506	5.811	-0.0123394	-0.0104829	-0.000271735	-0.619873	-0.059082	-0.810059	0.650711	-0.0655727	-0.756489	-0.000667506	9.62919	-0.894767	-1.48045	0.000910304	-0.0105943	-0.0218924	-0.914062	-0.0065918	-0.147705	0.766334	0.031488	-0.621462	0.159767	9.63723	-1.47651	2.19154	0.00794752	0.000936337	0.00219889	-1.0061	0.00292969	-0.522217	0.831365	0.0873801	-0.531923	-0.135112	8.50847	2.93081	4.14599	0.00821771	-0.0100004	-0.00524466	-0.683838	-0.167725	-0.771973	0.770397	0.0303286	-0.627881	-0.10646	9.49287	1.84163	2.09098	-0.0140738	0.00522271	-0.0261333	-0.857422	-0.146484	-0.620361	0.873708	-0.215482	-0.412448	-0.141736	8.88795	-3.11291	6.49022	0.0220799	-0.00504229	-0.0206188	-0.809814	0.263428	-0.77832	0.624003	0.0162338	-0.779141	0.0574101	9.43082	-0.650602	-2.11757	0.0204655	0.000879618	-0.0162353	-1.0481	0.00415039	-0.0991211	0.93957	-0.0734412	-0.325408	-0.0769745	6.78919	-0.924819	8.46789	0.0141636	0.0173329	-0.017789	-0.457275	0.132568	-0.983887	-0.0050518	0.632043	-0.769553	0.0910214	-0.790699	3.25608	-8.62155	0.000202224	0.00522564	-0.0218664	-0.279053	-0.383057	1.00952	0.96175	0.0352845	-0.263366	0.0665623	5.39424	0.431043	8.9425	0.0071663	0.0108595	-0.000555641	-0.19165	-0.13623	-1.0769	0.0266879	-0.0603056	0.997587	0.0217048	-0.564153	1.11083	-9.68426	0.00321133	0.00188576	-0.00723555	-0.40918	-0.0915527	1.08154	
27	-0.880877	-0.0266717	0.472586	-0.00275263	8.66627	0.40086	5.84111	0.0258815	-0.0156318	0.00588048	-0.624023	-0.0612793	-0.812256	0.650641	-0.065494	-0.756556	-0.000475755	9.62768	-0.728401	-1.59686	-0.00186483	0.0132098	-0.022065	-0.905273	-0.00878906	-0.145264	0.766268	0.0313159	-0.621554	0.159761	9.59323	-1.48762	2.23484	-0.00928556	-0.00198803	0.00719644	-1.0061	0.00292969	-0.517822	0.831305	0.0872775	-0.531985	-0.135303	8.43058	2.86445	4.05551	0.0082101	0.00316785	-0.00358708	-0.677246	-0.165527	-0.765625	0.770309	0.0305878	-0.62796	-0.106561	9.53774	1.77324	1.9956	0.0150911	0.00488795	-0.0263634	-0.857178	-0.150879	-0.620361	0.873518	-0.215828	-0.41265	-0.141791	8.88616	-3.03845	6.45932	-0.0307128	0.00348251	-0.0145695	-0.80542	0.259033	-0.780518	0.622801	0.016053	-0.780125	0.0571455	9.43555	-0.643285	-2.1097	0.00564855	-0.0674605	-0.0157492	-1.05859	-0.000244141	-0.0969238	0.939584	-0.0734054	-0.325374	-0.0769781	6.78601	-0.858162	8.46474	0.00210091	0.0163273	-0.0167708	-0.459473	0.132568	-0.986084	-0.00502146	0.631848	-0.769723	0.0909354	-0.787143	3.249	-8.63529	0.0132378	0.0051586	-0.0200284	-0.271729	-0.389648	1.00293	0.961729	0.035311	-0.263443	0.0665496	5.37893	0.424981	8.92781	0.00443833	0.00925651	0.00456323	-0.187012	-0.13623	-1.07935	0.0267633	-0.0602411	0.997587	0.0217828	-0.577061	1.10782	-9.6749	0.00037956	0.00359688	-0.00813873	-0.411621	-0.0915527	1.0769	
28	-0.880453	-0.0270726	0.47335	-0.00301234	8.65687	0.47697	5.79959	0.0151172	-0.0465098	-0.00391484	-0.630615	-0.0634766	-0.810059	0.650337	-0.0655144	-0.756815	-0.000501125	9.57228	-0.825971	-1.50354	-0.011368	-0.0108819	-0.016064	-0.918213	-0.0131836	-0.142578	0.765887	0.0317193	-0.62198	0.159852	9.56667	-1.54601	2.25223	-0.00092125	-0.0254538	-0.00223174	-1.0083	-0.00146484	-0.52002	0.831129	0.0878563	-0.532202	-0.135154	8.44028	2.82158	4.12941	0.0315448	-0.00209289	-0.00755944	-0.683838	-0.167725	-0.769775	0.770162	0.0310935	-0.628138	-0.106423	9.5262	1.77105	2.15742	0.00914747	0.00522697	-0.0231536	-0.857178	-0.153076	-0.620361	0.873415	-0.215704	-0.412988	-0.141627	8.87308	-3.04524	6.54752	0.0212849	-0.00253002	-0.0165963	-0.803467	0.263428	-0.77832	0.622298	0.015922	-0.780546	0.0569122	9.44603	-0.635018	-2.34334	0.00686137	0.00261459	-0.023271	-1.05615	-0.0065918	-0.0925293	0.939586	-0.0734241	-0.325366	-0.0769609	6.79197	-0.926525	8.45103	0.00496502	0.0178082	-0.0136717	-0.459473	0.130371	-0.986084	-0.0049241	0.631938	-0.76965	0.0909281	-0.784863	3.24842	-8.62063	0.00449972	0.00564354	-0.0207783	-0.278809	-0.389893	1.01196	0.961749	0.035299	-0.263394	0.0664608	5.38168	0.357545	8.92268	0.00284657	0.0164882	-0.000210726	-0.19165	-0.13623	-1.08374	0.0267578	-0.0601719	0.997592	0.021769	-0.581886	1.11232	-9.67425	0.00540873	0.00844169	-0.00759073	-0.40918	-0.09375	1.0791	
29	-0.879899	-0.0271234	0.474379	-0.00273443	8.72743	0.45622	5.75193	-0.00972895	-0.0577828	-0.0103052	-0.626221	-0.0634766	-0.810059	0.649619	-0.0655863	-0.757426	-0.000436924	9.81844	-0.876138	-1.51874	-0.0153117	-0.0176512	-0.0154948	-0.914062	-0.0065918	-0.147705	0.765578	0.0317991	-0.622348	0.159881	9.66042	-1.62859	2.27723	0.0116543	-0.0108427	0.00388165	-1.0083	-0.00146484	-0.52002	0.830951	0.0880665	-0.532388	-0.135378	8.53273	2.84991	4.19729	0.00491963	-0.0061956	-0.0134747	-0.683838	-0.165527	-0.765625	0.770077	0.0313904	-0.628239	-0.106356	9.52777	1.78343	2.04266	0.0218421	-0.00124091	-0.0257601	-0.852783	-0.150879	-0.618164	0.873265	-0.215588	-0.413376	-0.1416	9.00621	-3.02529	6.63152	0.00870465	0.00157195	-0.0220587	-0.80127	0.265625	-0.771973	0.621629	0.0159573	-0.781104	0.0565606	9.6692	-0.727795	-2.13888	0.0126548	-0.0370852	-0.0275311	-1.052	-0.00439453	-0.090332	0.939617	-0.0733559	-0.325311	-0.0768842	6.75683	-0.876758	8.50027	0.0083409	0.0158624	-0.0144869	-0.459717	0.134766	-0.983887	-0.00486955	0.631756	-0.769805	0.0908824	-0.783734	3.25072	-8.64666	0.014247	0.00648623	-0.0222091	-0.276611	-0.387451	1.00073	0.961732	0.0353762	-0.263431	0.0665126	5.35432	0.440382	8.98806	0.00463773	0.00397429	0.00461281	-0.187012	-0.140625	-1.0769	0.0267911	-0.0601274	0.997592	0.0218503	-0.572238	1.11914	-9.68312	0.00309635	0.00248423	-0.00953742	-0.40918	-0.0915527	1.0791	
30	-0.879148	-0.0272474	0.475762	-0.00268891	8.90504	0.473116	5.67258	0.00714452	-0.0599226	-0.000481066	-0.628662	-0.059082	-0.807861	0.649414	-0.065474	-0.757611	-0.000455533	9.60932	-0.817213	-1.57819	-0.00374854	0.00106911	-0.0249633	-0.916016	-0.0131836	-0.142578	0.765466	0.0318354	-0.622547	0.159636	9.58675	-1.5308	2.21054	-0.00369646	0.00466342	-0.00613445	-1.01465	0.000976562	-0.515381	0.830778	0.0879542	-0.532624	-0.135584	8.47976	2.98409	4.17981	-0.00995398	-0.00874759	-0.00328801	-0.681641	-0.165527	-0.765625	0.769886	0.0320247	-0.628412	-0.106534	9.45984	1.89421	2.12537	0.0193746	0.00434589	-0.0273152	-0.859375	-0.148682	-0.620361	0.873174	-0.215223	-0.413712	-0.141736	8.9056	-3.11189	6.54195	0.0327835	0.00255706	-0.0278257	-0.805664	0.263428	-0.77832	0.621968	0.0159447	-0.780878	0.0559617	9.3216	-0.630419	-2.16804	0.0141583	0.0192853	-0.0301226	-1.05225	0.00415039	-0.0991211	0.939538	-0.0733612	-0.325516	-0.0769813	6.76114	-0.921448	8.47798	0.0055798	0.00306682	-0.0229485	-0.461426	0.125977	-0.979004	-0.00495344	0.631592	-0.769948	0.0908121	-0.797324	3.25379	-8.63318	0.0116728	0.00118411	-0.0226468	-0.274414	-0.385254	1.00952	0.961649	0.0354083	-0.26374	0.0664776	5.35471	0.329771	8.97069	0.00274728	-0.00341749	0.00118157	-0.189209	-0.138428	-1.08838	0.0268914	-0.0600578	0.997593	0.0218886	-0.571695	1.11403	-9.6641	0.00278669	0.00178433	-0.00819783	-0.40918	-0.0915527	1.08374	
31	-0.87901	-0.0272305	0.476017	-0.00273658	8.89082	0.465425	5.66284	0.00157246	-0.0260634	0.00351628	-0.626465	-0.0612793	-0.805664	0.649116	-0.0653555	-0.757876	-0.000501726	9.47881	-0.809969	-1.56396	-0.00680128	-0.0182565	-0.0292261	-0.918457	-0.0109863	-0.142822	0.765413	0.0318547	-0.622621	0.159598	9.5289	-1.63698	2.1871	0.000662884	-0.00209718	-0.00443796	-1.01025	-0.00341797	-0.515381	0.830616	0.0882506	-0.532801	-0.135693	8.45457	2.80307	3.97157	0.0271034	-0.0042783	-0.00681738	-0.686035	-0.167969	-0.763184	0.769863	0.0319792	-0.628396	-0.1068	9.50267	1.87379	2.09789	-0.0161456	0.00552507	-0.0290332	-0.859131	-0.155273	-0.615723	0.873163	-0.21508	-0.413838	-0.141651	8.84291	-3.00865	6.54073	0.0164046	0.00498167	-0.0167777	-0.807861	0.263428	-0.77417	0.621949	0.0159998	-0.78091	0.0557005	9.38302	-0.684641	-2.22051	0.00661561	0.0086519	-0.0347234	-1.052	-0.00244141	-0.0883789	0.939477	-0.0733461	-0.32568	-0.0770409	6.81942	-0.892	8.48208	0.00459971	0.00153414	-0.0227686	-0.457275	0.132568	-0.983887	-0.00495344	0.631592	-0.769948	0.0908121	-0.797324	3.25379	-8.63318	0.0116728	0.00118411	-0.0226468	-0.274414	-0.385254	1.00952	0.961581	0.0354575	-0.263984	0.0664583	5.40953	0.301618	8.95837	0.00539772	-0.00910716	0.00213901	-0.184814	-0.13623	-1.0769	0.0269661	-0.0600294	0.99759	0.0219847	-0.571553	1.10476	-9.69521	-0.00240902	0.000162998	-0.00897296	-0.406982	-0.09375	1.0769	
32	-0.879091	-0.0273598	0.47586	-0.0026818	8.71388	0.466997	5.66004	0.00287226	0.00560234	-0.006715	-0.626465	-0.059082	-0.812256	0.648796	-0.0652596	-0.758159	-0.000526066	9.60646	-0.830614	-1.56087	-0.00655117	-0.0207086	-0.0269872	-0.911865	-0.0109863	-0.140381	0.765193	0.0318002	-0.622886	0.15963	9.58661	-1.55736	2.13391	-0.00298903	-0.00401889	0.00937401	-1.0083	0.000732422	-0.515381	0.830564	0.0884459	-0.532857	-0.135661	8.50924	2.93974	4.0872	0.0189465	0.00207855	-0.00607627	-0.69043	-0.167969	-0.763184	0.769607	0.0324329	-0.628699	-0.106731	9.44666	2.01803	1.99965	0.0224668	-0.0115997	-0.0338409	-0.852295	-0.161865	-0.613525	0.87303	-0.215085	-0.414153	-0.141542	8.94237	-2.97044	6.4545	-0.00167126	0.000272577	-0.0108336	-0.80542	0.26123	-0.771973	0.622143	0.0164029	-0.780774	0.0553382	9.38983	-0.653605	-2.18669	0.00860909	0.0148117	-0.0309979	-1.05396	-0.0065918	-0.090332	0.939481	-0.0731105	-0.325702	-0.0771301	6.80558	-0.948807	8.46153	0.0168072	0.0183794	-0.0226408	-0.463867	0.132568	-0.983887	-0.00493284	0.631637	-0.769919	0.0907507	-0.785622	3.23126	-8.63304	0.000878297	0.0041942	-0.0225976	-0.279053	-0.385254	1.00513	0.961523	0.0355921	-0.264194	0.0663939	5.39382	0.466896	8.95725	0.00437517	0.00395166	0.00071906	-0.187012	-0.138428	-1.08154	0.027018	-0.0599608	0.997589	0.0221579	-0.591342	1.12298	-9.67278	-0.000347911	0.0048036	-0.00948123	-0.406982	-0.09375	1.0769	
33	-0.878923	-0.0276662	0.476152	-0.00294426	8.71816	0.513727	5.69559	0.0213541	-0.0242519	0.0079164	-0.628174	-0.0678711	-0.797119	0.648608	-0.0648783	-0.758352	-0.000866104	9.71323	-0.76797	-1.67606	-0.00974997	0.0119992	-0.025212	-0.911865	-0.0109863	-0.138184	0.764963	0.0323384	-0.623095	0.159808	9.60284	-1.47807	2.17306	0.0302923	-0.00333131	-0.00705793	-1.0105	0.00512695	-0.52002	0.830539	0.0890639	-0.532855	-0.135418	8.51523	2.97638	4.17005	0.0250768	0.0100149	-0.00499917	-0.681641	-0.167725	-0.760986	0.769475	0.032729	-0.62883	-0.106815	9.59743	1.79165	2.07252	0.00660962	0.0088309	-0.0213093	-0.854736	-0.157471	-0.618164	0.87293	-0.215264	-0.414255	-0.141589	8.94946	-3.1564	6.60624	0.00817084	0.0102767	-0.0222182	-0.807861	0.265625	-0.77417	0.622021	0.016769	-0.780878	0.0551318	9.45544	-0.649732	-2.21268	0.0121064	-0.000896894	-0.0249604	-1.0498	-0.00219727	-0.0947266	0.939507	-0.0728479	-0.325676	-0.0771712	6.76584	-0.848115	8.46787	0.0137497	0.0181848	-0.0202137	-0.459229	0.128174	-0.983643	-0.00482084	0.631553	-0.770003	0.0906231	-0.786162	3.24405	-8.62917	-0.000943736	0.00673805	-0.0225194	-0.271729	-0.389893	1.00977	0.961495	0.0356267	-0.264309	0.0663256	5.36303	0.400758	8.94647	0.00309159	0.00843861	0.000952317	-0.184814	-0.13623	-1.08154	0.0270999	-0.0598555	0.997592	0.0222093	-0.576208	1.12315	-9.68258	0.00304501	0.00361124	-0.0061753	-0.40918	-0.0959473	1.07935	
34	-0.8786	-0.0276907	0.476742	-0.0034533	8.84734	0.479463	5.66277	0.00821725	-0.0204445	0.0132287	-0.632812	-0.0637207	-0.805664	0.648656	-0.06454	-0.75834	-0.000912027	9.68691	-0.85949	-1.64164	0.0114937	0.0144474	-0.0315199	-0.91626	-0.0109863	-0.135742	0.765036	0.0326781	-0.623023	0.15967	9.58812	-1.52489	2.15657	0.00761739	0.012225	-0.020959	-1.0061	0.00292969	-0.515381	0.830695	0.089357	-0.532571	-0.135385	8.45669	2.85082	3.94951	0.019968	0.0152991	-0.00355696	-0.679199	-0.169922	-0.763184	0.769509	0.0328285	-0.62877	-0.106894	9.51192	1.74508	1.98523	0.0127296	0.00856072	-0.0152752	-0.856934	-0.155273	-0.620361	0.872939	-0.215002	-0.414389	-0.141539	8.84331	-2.95946	6.37738	0.00451832	0.00816289	-0.020359	-0.809814	0.26123	-0.773926	0.622808	0.016785	-0.78028	0.0546894	9.34707	-0.605408	-2.21069	0.00484139	0.0572314	-0.0284523	-1.05859	-0.000244141	-0.0991211	0.939503	-0.0728435	-0.325688	-0.077174	6.85267	-0.927575	8.46069	0.00581618	0.0149295	-0.0163448	-0.459473	0.132568	-0.988525	-0.00475881	0.631874	-0.769721	0.0907872	-0.795581	3.25273	-8.62146	0.00741228	0.00523084	-0.0217216	-0.279053	-0.385254	1.00732	0.961504	0.0357644	-0.264259	0.0663235	5.38718	0.456344	8.88337	0.0111274	0.0165614	0.000851403	-0.189209	-0.138428	-1.07935	0.0270999	-0.0598555	0.997592	0.0222093	-0.576208	1.12315	-9.68258	0.00304501	0.00361124	-0.0061753	-0.40918	-0.0959473	1.07935	
35	-0.878489	-0.0276825	0.476946	-0.0036203	8.80473	0.44172	5.62027	0.00279489	-0.00949559	0.00319732	-0.623779	-0.0678711	-0.803467	0.648605	-0.0642641	-0.758407	-0.000947457	9.68373	-0.763303	-1.5607	-0.0143303	0.0160366	-0.0272717	-0.918213	-0.0153809	-0.142578	0.764873	0.033006	-0.623193	0.159721	9.65744	-1.37782	2.19946	-0.00638442	-0.0137162	-0.0101519	-1.00806	-0.00366211	-0.512939	0.830764	0.089984	-0.532408	-0.135185	8.45115	2.88302	4.16262	0.0334155	0.0200582	-0.00584217	-0.68335	-0.174316	-0.763184	0.769393	0.0333233	-0.628909	-0.106756	9.56152	2.07717	2.09644	-0.00444827	0.00593841	-0.0242325	-0.859375	-0.150879	-0.615723	0.872941	-0.214963	-0.414387	-0.141594	8.93352	-3.02257	6.49818	0.00352041	0.0176408	-0.0159259	-0.807373	0.254883	-0.771729	0.623186	0.0169819	-0.779983	0.0545598	9.44132	-0.584205	-2.1864	0.0074611	0.0437834	-0.0308167	-1.05225	-0.000244141	-0.0991211	0.939567	-0.0727411	-0.325547	-0.077082	6.75401	-0.882928	8.44728	0.0103819	0.0213949	-0.0132949	-0.463867	0.132568	-0.983887	-0.00469227	0.631787	-0.769804	0.0906928	-0.779773	3.2415	-8.62169	0.00334676	0.00560198	-0.0219681	-0.276611	-0.387695	1.00952	0.961556	0.0357876	-0.26405	0.066381	5.3883	0.381023	8.91135	0.00548074	0.0208998	0.0058443	-0.184814	-0.138428	-1.0769	0.0269187	-0.060025	0.997583	0.0223737	-0.571408	1.12013	-9.66358	-0.0014344	0.00944738	-0.00869723	-0.40918	-0.0959473	1.08618	
36	-0.878565	-0.0278012	0.476799	-0.00356134	8.84427	0.47482	5.67567	0.00343579	0.00753	-0.00710349	-0.633057	-0.0593262	-0.803711	0.648828	-0.0641122	-0.758229	-0.00114908	9.66291	-0.797035	-1.54767	-0.00925363	0.0279041	-0.0281342	-0.911865	-0.0109863	-0.14502	0.764948	0.0334771	-0.623012	0.159968	9.61883	-1.57993	2.22067	0.0528806	0.0135051	-0.00689782	-1.01245	0.000976562	-0.515381	0.830937	0.0902639	-0.532098	-0.13516	8.47437	2.91361	4.10839	0.00928008	0.0234606	-0.00592233	-0.681152	-0.174316	-0.763184	0.769504	0.0331713	-0.628718	-0.107136	9.51135	1.90785	2.01475	-0.00566357	0.0173066	-0.0272802	-0.852539	-0.155273	-0.618164	0.872976	-0.214945	-0.414299	-0.141658	8.92599	-3.00917	6.54122	-0.00394205	0.0217819	-0.0158691	-0.805664	0.265625	-0.778564	0.623467	0.0170147	-0.779773	0.0543412	9.49364	-0.599197	-2.13485	0.0191253	0.0169549	-0.0217981	-1.05176	-0.0109863	-0.0944824	0.939595	-0.0727491	-0.325471	-0.077055	6.72931	-0.855126	8.45854	0.0050964	0.0210812	-0.0133817	-0.463623	0.130371	-0.979004	-0.00457675	0.631831	-0.769773	0.0906586	-0.780542	3.25226	-8.65007	0.0111499	0.00356777	-0.0212496	-0.27417	-0.387451	1.00952	0.961608	0.0357572	-0.263865	0.0663821	5.35855	0.442544	8.94782	-0.000465598	0.0188919	0.00190824	-0.184814	-0.13623	-1.08618	0.0268609	-0.0599165	0.997592	0.0223497	-0.588022	1.11589	-9.69418	0.00838242	0.00816612	-0.0061061	-0.406982	-0.09375	1.0791	
37	-0.878783	-0.0280251	0.476385	-0.00341903	8.74455	0.496472	5.69728	0.0076644	0.0144936	-0.01321	-0.628662	-0.0593262	-0.803467	0.649112	-0.0640372	-0.757992	-0.00134563	9.69503	-0.766254	-1.64907	-0.00910153	0.0278387	-0.0272784	-0.913818	-0.017334	-0.137939	0.764966	0.0337283	-0.622954	0.160057	9.6375	-1.38318	2.22157	0.0230685	0.00657969	-0.00961127	-1.0105	0.000732422	-0.515381	0.831093	0.0906793	-0.531812	-0.135043	8.54396	3.00822	4.1617	0.010204	0.0190482	-0.00330475	-0.679199	-0.172119	-0.765381	0.769529	0.0331386	-0.628668	-0.107258	9.5511	1.87736	2.06434	-0.00633905	0.0100845	-0.0164656	-0.859131	-0.153076	-0.618164	0.872991	-0.215244	-0.414057	-0.141822	8.97061	-3.10118	6.51638	-0.0113586	0.023218	-0.0130432	-0.807861	0.263428	-0.77832	0.623753	0.0170043	-0.779561	0.0541089	9.41555	-0.641747	-2.15732	0.0151619	0.0299993	-0.023751	-1.0498	-0.00439453	-0.0947266	0.939678	-0.0726291	-0.325224	-0.0771968	6.80307	-0.923292	8.45109	0.0075834	0.0215618	-0.0135804	-0.459473	0.130371	-0.979004	-0.00447866	0.631649	-0.769938	0.0905225	-0.789331	3.2391	-8.62138	0.00301176	0.0063793	-0.0218218	-0.276611	-0.383057	1.00073	0.961643	0.0358213	-0.263717	0.0664326	5.37503	0.367035	8.95966	0.00946035	0.0157625	0.00567309	-0.187012	-0.13623	-1.07471	0.0268471	-0.0598557	0.997593	0.0224776	-0.571241	1.12511	-9.673	-0.00137911	0.0058121	-0.00991611	-0.40918	-0.09375	1.08374	
38	-0.878853	-0.0280956	0.476253	-0.00336041	8.76508	0.479063	5.70818	-0.000876821	0.000753685	-0.00250718	-0.630615	-0.0637207	-0.80127	0.649167	-0.0638241	-0.757963	-0.00142187	9.67433	-0.84554	-1.57849	-0.00178701	0.0188333	-0.0349774	-0.913818	-0.0153809	-0.142578	0.76492	0.0333598	-0.62305	0.159977	9.62397	-1.71687	2.24527	-0.00585113	0.00856124	0.00908841	-1.01465	-0.00341797	-0.515381	0.831301	0.0909752	-0.531453	-0.134982	8.3683	2.8801	4.12583	0.0186877	0.0208705	-0.00245039	-0.677246	-0.165527	-0.765625	0.769518	0.0329465	-0.628666	-0.107406	9.52046	1.91601	2.02353	-0.019385	0.00435476	-0.0141721	-0.861328	-0.153076	-0.620361	0.873018	-0.215555	-0.413714	-0.142186	8.90799	-3.04466	6.4928	-0.0205976	0.0256578	-0.0236864	-0.813965	0.256836	-0.773926	0.624019	0.0170481	-0.779358	0.0539521	9.53901	-0.605826	-2.1774	0.0156933	0.0363474	-0.0200194	-1.0542	-0.00244141	-0.0947266	0.939689	-0.0726063	-0.325206	-0.0771556	6.77419	-0.90466	8.51709	0.00788222	0.0163108	-0.0136301	-0.459473	0.130371	-0.981445	-0.00447866	0.631649	-0.769938	0.0905225	-0.789331	3.2391	-8.62138	0.00301176	0.0063793	-0.0218218	-0.276611	-0.383057	1.00073	0.961644	0.0358295	-0.263716	0.0664066	5.33059	0.475623	8.94584	0.00342592	0.0114804	0.00152122	-0.19165	-0.13623	-1.08374	0.026856	-0.0597906	0.997596	0.0225161	-0.561946	1.11529	-9.66469	0.00337578	0.00532558	-0.00837871	-0.413574	-0.0939941	1.0791	
39	-0.878879	-0.0282829	0.476195	-0.00316674	8.76059	0.506956	5.688	0.00360885	-0.00051377	-0.0107388	-0.626221	-0.0612793	-0.812256	0.649381	-0.0637849	-0.757782	-0.00153899	9.6882	-0.786052	-1.5223	-0.014799	0.0300788	-0.0227369	-0.911865	-0.0131836	-0.14502	0.765003	0.0336574	-0.62286	0.160256	9.69858	-1.44351	2.19776	0.0102803	0.018041	0.00396377	-1.00806	-0.00585938	-0.508301	0.831466	0.0909731	-0.531188	-0.13501	8.45646	2.89658	4.03804	0.00160643	0.0190487	-0.00162089	-0.679199	-0.172119	-0.763184	0.769564	0.0326721	-0.628604	-0.107525	9.55704	1.90039	2.1164	-0.00330837	0.0128326	-0.0144558	-0.854736	-0.157471	-0.625	0.873039	-0.21563	-0.41361	-0.142243	8.9404	-3.07451	6.56379	-0.00639378	0.0229561	-0.0150267	-0.810059	0.267822	-0.77417	0.624701	0.0173638	-0.77881	0.05387	9.42256	-0.606566	-2.10254	0.015978	0.0406427	-0.0228231	-1.0542	-0.00439453	-0.098877	0.939675	-0.0725607	-0.325246	-0.077204	6.80097	-0.875707	8.45728	0.00397212	0.0134758	-0.0184985	-0.459473	0.132568	-0.983887	-0.00439302	0.631693	-0.769905	0.0905041	-0.79115	3.26048	-8.61523	0.0083392	0.00477467	-0.0213974	-0.27417	-0.387451	1.00293	0.961652	0.035789	-0.263716	0.0663245	5.40814	0.348931	8.99063	0.00362579	0.0107413	0.00353622	-0.189209	-0.138428	-1.0769	0.0268457	-0.0597597	0.997596	0.0226059	-0.588256	1.11797	-9.68429	-0.00199269	0.00642005	-0.00895652	-0.40918	-0.09375	1.08374	
40	-0.878904	-0.0283061	0.476148	-0.0031249	8.74534	0.53558	5.68386	0.000740144	0.000728584	-0.00492109	-0.628418	-0.0634766	-0.803467	0.649641	-0.0636777	-0.757568	-0.00166285	9.65142	-0.822274	-1.60141	-0.0329462	0.0406536	-0.0185635	-0.913818	-0.0153809	-0.147217	0.76508	0.0335964	-0.62282	0.16006	9.50317	-1.55546	2.16663	0.00403702	0.000566316	-0.00653723	-1.01245	-0.0012207	-0.513184	0.831482	0.0911313	-0.53117	-0.134875	8.37575	2.83736	4.01621	0.0194818	0.0100906	0.00250174	-0.678955	-0.176514	-0.769775	0.769739	0.0325212	-0.628409	-0.107455	9.47603	1.9033	2.00912	-0.000751306	0.013468	-0.00774364	-0.861328	-0.153076	-0.618164	0.873093	-0.215677	-0.413382	-0.142502	8.90555	-2.98269	6.46278	-0.0100356	0.024694	-0.0246962	-0.805908	0.267822	-0.776367	0.624696	0.0173966	-0.778816	0.0538413	9.43305	-0.57657	-2.14086	0.0196592	0.0119627	-0.0215135	-1.052	-0.00439453	-0.101074	0.939689	-0.0725748	-0.325216	-0.0771503	6.78205	-0.937782	8.46709	0.00798094	0.0183678	-0.014101	-0.46582	0.130371	-0.979004	-0.00430709	0.631513	-0.770066	0.0903939	-0.783348	3.24769	-8.61072	0.00627179	0.00574212	-0.0211356	-0.271973	-0.385254	1.00513	0.961647	0.0357911	-0.263742	0.0662932	5.3778	0.435397	8.95498	6.14113e-05	0.0131179	0.00178699	-0.18457	-0.140625	-1.07471	0.0268676	-0.0596801	0.9976	0.0225956	-0.57912	1.12309	-9.6835	0.00813729	0.00584848	-0.00770036	-0.411133	-0.100586	1.0769	
41	-0.879193	-0.0280616	0.475628	-0.00310982	8.74429	0.525784	5.76587	-0.0155778	0.0281594	0.00127606	-0.621826	-0.0634766	-0.80127	0.649422	-0.0639328	-0.757733	-0.00185989	9.78124	-0.783888	-1.49135	-0.0167737	0.00377966	-0.0171915	-0.916016	-0.0153809	-0.147217	0.764983	0.0336237	-0.622919	0.160132	9.65668	-1.55442	2.26592	0.00540674	0.00259104	-0.00036884	-1.01245	0.000976562	-0.515381	0.831638	0.0911731	-0.530901	-0.134943	8.43286	3.05513	4.12584	-0.0316752	0.0217619	-0.000244232	-0.681396	-0.169922	-0.765381	0.76968	0.0324489	-0.628444	-0.107692	9.5849	1.74983	2.11097	0.00748793	0.00513602	-0.0170311	-0.852783	-0.153076	-0.618164	0.873088	-0.215916	-0.413216	-0.142656	8.90265	-2.9616	6.48942	-0.0210293	0.0254016	-0.0158369	-0.805664	0.267822	-0.77417	0.624798	0.0173453	-0.778745	0.0536883	9.4277	-0.565709	-2.18931	0.00795959	0.0224059	-0.0230674	-1.05176	-0.0065918	-0.103027	0.93971	-0.0726062	-0.325144	-0.0771678	6.79273	-0.883608	8.47582	-0.000231547	0.0171713	-0.0172091	-0.463623	0.128174	-0.988525	-0.00423446	0.631367	-0.770194	0.0903337	-0.801593	3.24795	-8.628	0.00696131	0.00603488	-0.0211147	-0.273926	-0.39209	1.01196	0.961697	0.0357451	-0.263569	0.0662835	5.37752	0.418237	8.91748	0.00329183	0.0200536	0.00286466	-0.187256	-0.134033	-1.07471	0.0268401	-0.0596195	0.997605	0.0225876	-0.576206	1.13189	-9.67229	0.00604352	0.00685322	-0.00770046	-0.406982	-0.09375	1.08154	
42	-0.87916	-0.0278618	0.475703	-0.00275961	8.76984	0.479278	5.72501	-0.0101544	-0.0198269	-0.0114635	-0.626221	-0.0634766	-0.807861	0.649614	-0.0639616	-0.757566	-0.00183804	9.80869	-0.801996	-1.54734	-0.0108496	0.0316758	-0.0138577	-0.909424	-0.017334	-0.135498	0.764889	0.0333547	-0.623033	0.160195	9.71278	-1.44378	2.1342	-0.0275133	0.00360643	0.00943083	-1.00806	-0.00561523	-0.517578	0.831684	0.091397	-0.530796	-0.134923	8.51064	2.90929	4.22571	0.005905	0.0129933	0.000523895	-0.678955	-0.176514	-0.767578	0.769734	0.0324056	-0.628377	-0.107707	9.6087	1.78587	2.07253	-0.00357527	0.00812819	-0.010423	-0.852539	-0.155273	-0.613525	0.873144	-0.216203	-0.412783	-0.143129	8.93846	-3.02356	6.60888	-0.00358734	0.0232247	-0.018949	-0.805908	0.27002	-0.776367	0.625633	0.0175588	-0.778087	0.0534362	9.46938	-0.608549	-2.11404	0.0107351	0.0630828	-0.0290017	-1.05396	-0.0109863	-0.103027	0.939731	-0.0725308	-0.325106	-0.0771391	6.76752	-0.934992	8.45327	0.0100954	0.015132	-0.0172342	-0.459717	0.134766	-0.983887	-0.00417242	0.631291	-0.77027	0.0902131	-0.793557	3.25091	-8.61862	0.0015279	0.00372433	-0.0213298	-0.278809	-0.389893	1.00952	0.961688	0.0356568	-0.263628	0.0662204	5.27775	0.388384	8.95705	0.000960815	0.00408228	0.00264217	-0.187012	-0.138428	-1.0769	0.0268217	-0.0595592	0.997609	0.0225692	-0.56614	1.12068	-9.66418	0.00802765	0.00594668	-0.00957471	-0.413574	-0.0939941	1.08154	
43	-0.879157	-0.0276279	0.475723	-0.00272857	8.82908	0.430023	5.67309	-0.00453321	0.00777426	0.0027845	-0.630859	-0.0612793	-0.807861	0.649844	-0.0639589	-0.75737	-0.0017694	9.65428	-0.818553	-1.52801	-0.0027782	0.0199192	-0.0167852	-0.914062	-0.0109863	-0.147461	0.765105	0.0335779	-0.622748	0.160225	9.60672	-1.55199	2.23275	0.0295474	0.0253191	-0.00642155	-1.00806	-0.00366211	-0.510742	0.831833	0.0912834	-0.530584	-0.134913	8.44889	2.85394	4.02052	-0.000542288	0.0118958	0.0014367	-0.681396	-0.172119	-0.763184	0.769874	0.032411	-0.628198	-0.107751	9.5166	2.00093	2.16214	-0.0262896	0.0128692	-0.0203414	-0.852539	-0.157471	-0.620361	0.873266	-0.216144	-0.412538	-0.143177	8.87778	-3.03989	6.43418	0.00452025	0.0253003	-0.0138195	-0.805664	0.265625	-0.782715	0.626064	0.0176453	-0.777741	0.0534055	9.44746	-0.564854	-2.07068	0.00776237	0.0413024	-0.0221692	-1.05615	-0.0065918	-0.101074	0.939655	-0.0724882	-0.325327	-0.0771773	6.81267	-0.833357	8.47586	0.0029417	0.00339082	-0.0192687	-0.461914	0.134766	-0.986084	-0.00413601	0.631452	-0.770136	0.0902315	-0.78841	3.25576	-8.61865	0.00626968	0.00351016	-0.0232409	-0.274414	-0.385254	1.00513	0.961597	0.0355919	-0.26397	0.0662194	5.40181	0.414702	8.91296	0.00115721	-0.00473671	0.00196698	-0.189453	-0.134033	-1.08154	0.0268609	-0.0595278	0.997608	0.0226339	-0.578952	1.10886	-9.6859	0.000289982	0.00269206	-0.00916434	-0.408936	-0.0981445	1.08374	
44	-0.879403	-0.0276373	0.475267	-0.00278587	8.72892	0.478609	5.70355	0.00140404	0.0193522	0.000721012	-0.624023	-0.0656738	-0.803467	0.64982	-0.0640324	-0.757384	-0.00174729	9.67572	-0.802266	-1.52645	-0.0167939	0.0149896	-0.016305	-0.914062	-0.00878906	-0.138184	0.765144	0.0336998	-0.622698	0.160206	9.59628	-1.45043	2.19459	-0.00722194	0.0081695	-0.00814253	-1.0061	-0.00146484	-0.515381	0.831917	0.0913376	-0.530462	-0.134842	8.43724	2.85268	4.06408	0.00207246	0.0107524	0.00393721	-0.677002	-0.169922	-0.763184	0.769893	0.0325716	-0.628205	-0.10753	9.50839	1.99211	2.10497	0.0391905	0.0128581	-0.0254223	-0.852539	-0.157471	-0.622559	0.873308	-0.216216	-0.412429	-0.143133	8.9496	-2.94297	6.55959	0.00397149	0.0197122	-0.00682374	-0.805664	0.265625	-0.776367	0.626616	0.0177426	-0.777293	0.0534109	9.41864	-0.560979	-2.10804	0.0211278	0.0497694	-0.0246893	-1.04956	-0.0109863	-0.10083	0.939631	-0.0725343	-0.325385	-0.0771809	6.81306	-0.92755	8.46614	0.00716052	0.0151164	-0.0161724	-0.457275	0.132568	-0.981445	-0.00415097	0.631491	-0.770097	0.0902917	-0.791725	3.26043	-8.61767	0.00462771	0.00411792	-0.0213971	-0.278809	-0.389893	1.00952	0.961547	0.0355134	-0.264171	0.0661735	5.36485	0.408807	8.95647	-0.000530846	0.0050383	0.00362721	-0.18457	-0.140625	-1.0769	0.0269093	-0.0595603	0.997605	0.0226434	-0.57082	1.12527	-9.67338	0.00221075	0.00391357	-0.00853483	-0.406982	-0.09375	1.0791	
45	-0.879577	-0.0277485	0.474938	-0.00276446	8.70264	0.490826	5.73787	0.00215642	0.00680273	-0.00686839	-0.628418	-0.0634766	-0.805664	0.649929	-0.0643072	-0.757267	-0.00181843	9.73475	-0.830437	-1.608	-0.0259276	0.0268441	-0.0118306	-0.911865	-0.00878906	-0.142822	0.765108	0.0336446	-0.622711	0.160342	9.59263	-1.46555	2.24566	0.0119988	0.00430855	-0.000412848	-1.01025	-0.00341797	-0.519775	0.831989	0.091472	-0.530357	-0.134717	8.40355	2.99435	4.21806	0.00456422	0.0129604	-0.00169727	-0.676758	-0.174316	-0.767578	0.769934	0.0324177	-0.628149	-0.10761	9.51218	1.90967	2.05584	-0.0154651	0.011878	-0.0121133	-0.859375	-0.150879	-0.618164	0.873282	-0.216441	-0.412359	-0.14315	8.93729	-3.10873	6.51818	-0.00353852	0.0163952	-0.00932247	-0.807861	0.267822	-0.780762	0.627062	0.0176259	-0.776947	0.0532456	9.48661	-0.552133	-2.00329	0.0205043	0.0256345	-0.0174534	-1.052	-0.0065918	-0.107422	0.939644	-0.072513	-0.325351	-0.0771831	6.7487	-0.913547	8.47116	0.00393234	0.0157606	-0.0155893	-0.46582	0.128174	-0.976807	-0.00410419	0.631366	-0.770206	0.0902342	-0.794841	3.24572	-8.63222	0.0084391	0.00297719	-0.0217744	-0.27417	-0.387451	1.00732	0.961545	0.0353584	-0.264197	0.0661867	5.38277	0.384805	8.9486	-0.0035087	0.0112245	0.00281175	-0.187256	-0.131836	-1.08398	0.026927	-0.0594838	0.997611	0.0225589	-0.568617	1.12332	-9.68356	0.00964338	0.00747841	-0.00846648	-0.411377	-0.0939941	1.08154	
46	-0.879657	-0.0278909	0.474782	-0.00279186	8.76268	0.48167	5.73577	0.00790014	0.00958459	-0.00151543	-0.624023	-0.0612793	-0.807861	0.650036	-0.0644669	-0.757161	-0.00187379	9.62629	-0.794764	-1.53879	-0.0188421	0.0255151	-0.0115723	-0.909912	-0.00439453	-0.143066	0.765228	0.0336475	-0.622544	0.160417	9.69356	-1.4597	2.24312	0.00785445	0.0211747	0.000512247	-1.01025	-0.00146484	-0.515381	0.832055	0.0913523	-0.530279	-0.134696	8.46956	2.97692	4.03532	-0.00341898	0.00658449	0.00436813	-0.674561	-0.174316	-0.763184	0.769968	0.0322745	-0.628081	-0.107805	9.58872	1.84665	2.01585	-0.0193326	0.0111989	-0.0193773	-0.85498	-0.148682	-0.622559	0.873294	-0.216692	-0.412184	-0.143201	8.88683	-3.08582	6.51926	-0.00420576	0.0170728	-0.0159069	-0.805664	0.265625	-0.778564	0.627434	0.0175951	-0.776647	0.0532586	9.43257	-0.637285	-2.08251	0.0229651	0.0313853	-0.0165906	-1.0498	-0.0065918	-0.107422	0.939626	-0.0725207	-0.325406	-0.0771665	6.7738	-0.89108	8.50326	0.00503441	0.0106217	-0.0152404	-0.46167	0.132568	-0.993164	-0.00412235	0.631514	-0.770069	0.0903724	-0.793302	3.25097	-8.61591	0.0110437	0.00491469	-0.0222408	-0.276611	-0.387451	1.00293	0.961557	0.0353342	-0.264151	0.0662174	5.38203	0.419524	8.91602	0.00523618	0.0138386	0.00583384	-0.189453	-0.134033	-1.08154	0.0269535	-0.0594076	0.997612	0.0226645	-0.580427	1.11824	-9.66474	0.000549284	0.00552413	-0.00800726	-0.406982	-0.09375	1.0791	
47	-0.879756	-0.0279068	0.474596	-0.00292786	8.75657	0.505241	5.74218	0.00661694	0.0140813	0.00742568	-0.626465	-0.0612793	-0.803467	0.650175	-0.0644353	-0.757045	-0.00181897	9.68851	-0.792401	-1.5088	-0.0134433	0.0175725	-0.0182943	-0.911621	-0.0175781	-0.14502	0.765322	0.0337265	-0.62242	0.160431	9.4949	-1.55207	2.17976	0.00498966	0.00300804	-0.00659758	-1.00586	-0.00585938	-0.517578	0.83207	0.0913333	-0.53026	-0.134693	8.39054	2.87617	4.04229	0.00173287	0.00701964	0.0012358	-0.672119	-0.176514	-0.771973	0.76993	0.0323668	-0.628185	-0.107444	9.48334	2.00999	2.10542	0.0143188	0.0097292	-0.0162924	-0.854736	-0.155273	-0.618164	0.873314	-0.216726	-0.41214	-0.143153	8.90966	-2.96929	6.54176	0.00134798	0.016624	-0.0102371	-0.809814	0.26123	-0.77832	0.627434	0.0175951	-0.776647	0.0532586	9.43257	-0.637285	-2.08251	0.0229651	0.0313853	-0.0165906	-1.0498	-0.0065918	-0.107422	0.939624	-0.0726732	-0.325392	-0.0771122	6.80253	-0.949963	8.47253	0.00159654	0.0152932	-0.00948733	-0.468262	0.132568	-0.988525	-0.00410486	0.631444	-0.770127	0.0903599	-0.797237	3.25092	-8.63113	0.009689	0.00590768	-0.0217648	-0.27417	-0.387695	1.01855	0.961589	0.0353481	-0.264036	0.066192	5.388	0.408349	8.94511	0.00456693	0.020851	0.00105307	-0.184814	-0.13623	-1.07471	0.0269535	-0.0594076	0.997612	0.0226645	-0.580427	1.11824	-9.66474	0.000549284	0.00552413	-0.00800726	-0.406982	-0.09375	1.0791	
48	-0.879989	-0.0280516	0.474154	-0.0031154	8.71212	0.511632	5.76875	0.0069258	0.0182072	0.00114982	-0.628662	-0.0612793	-0.807861	0.650254	-0.0645959	-0.756964	-0.00177844	9.68909	-0.832204	-1.55029	-0.00627817	0.017531	-0.0156129	-0.911621	-0.0153809	-0.140381	0.765219	0.0336258	-0.622546	0.160455	9.67081	-1.51285	2.29911	0.00312126	0.00894272	0.000840828	-1.00391	0.00292969	-0.522461	0.832099	0.0916054	-0.530216	-0.134499	8.44631	2.86373	4.17078	0.0288943	0.0132898	0.00177963	-0.676514	-0.178711	-0.765381	0.769915	0.0319956	-0.628192	-0.107625	9.49843	1.75695	2.03535	-0.00975325	0.00035951	-0.00665901	-0.852539	-0.155273	-0.620361	0.87325	-0.217065	-0.412082	-0.143197	8.91528	-3.08257	6.56875	-0.0113007	0.0134696	-0.0136972	-0.80542	0.26123	-0.780518	0.628005	0.0178087	-0.776193	0.0530783	9.40428	-0.621796	-1.9748	0.00847645	0.015249	-0.0202069	-1.05176	-0.00878906	-0.109375	0.939656	-0.0726324	-0.325323	-0.0770522	6.75216	-0.816162	8.47659	0.00665202	0.0189187	-0.0155688	-0.46167	0.132568	-0.979248	-0.0040319	0.63132	-0.770236	0.0903007	-0.796371	3.25727	-8.61954	0.00969918	0.00591376	-0.0217705	-0.279053	-0.383057	1.00952	0.961643	0.0353069	-0.263835	0.0662411	5.33391	0.3723	8.92953	0.0028714	0.0210693	0.00707062	-0.187012	-0.138428	-1.0769	0.0268658	-0.0594587	0.997614	0.0225871	-0.562586	1.12967	-9.67283	0.0038421	0.00745462	-0.00915196	-0.411621	-0.0893555	1.0813	
49	-0.88017	-0.0279937	0.473821	-0.00322699	8.75442	0.488613	5.78699	0.00122795	0.014124	0.00170469	-0.624268	-0.059082	-0.805664	0.650322	-0.0648266	-0.756886	-0.00171698	9.61265	-0.766225	-1.59012	-0.0184282	0.0121128	-0.00490709	-0.914062	-0.00878906	-0.140381	0.765239	0.0337729	-0.622429	0.160782	9.59727	-1.47209	2.20977	0.0178394	0.00632372	0.00606095	-1.01245	0.000976562	-0.515381	0.832196	0.0916224	-0.530093	-0.134374	8.40879	2.88001	4.06989	0.0127571	0.00845203	-0.000424202	-0.678955	-0.174316	-0.765381	0.769925	0.0321146	-0.628173	-0.107625	9.59516	1.75155	2.10644	-0.00863683	0.0111597	-0.00757214	-0.861328	-0.153076	-0.613525	0.873099	-0.217765	-0.412007	-0.14327	8.87425	-3.13803	6.51122	-0.0282795	0.0107366	-0.00838929	-0.808105	0.27002	-0.77417	0.628108	0.0177379	-0.776129	0.0528178	9.51571	-0.578363	-2.09472	0.00543632	0.0210677	-0.0203697	-1.0542	-0.00439453	-0.107422	0.939664	-0.0726859	-0.325303	-0.0769851	6.79554	-0.980919	8.46219	0.00748557	0.0134278	-0.0125033	-0.459473	0.132568	-0.979248	-0.0040405	0.631262	-0.770283	0.0903108	-0.796851	3.24127	-8.62442	0.0117884	0.00496356	-0.0220383	-0.276367	-0.389893	1.00513	0.961682	0.0354566	-0.263679	0.0662075	5.37372	0.384286	8.93186	0.0139082	0.0189178	-0.00240487	-0.187256	-0.134033	-1.08154	0.0268601	-0.05938	0.997618	0.0226188	-0.566643	1.11916	-9.66472	0.00414456	0.00564354	-0.0083399	-0.40918	-0.09375	1.0769	
50	-0.880327	-0.0277878	0.47354	-0.00340395	8.63942	0.507216	5.78347	-0.00923645	0.00585745	0.0144062	-0.624023	-0.0634766	-0.812012	0.649754	-0.0646425	-0.75739	-0.00140721	9.76712	-0.878372	-1.53046	0.00373308	-0.0177661	-0.0200026	-0.916016	-0.0131836	-0.140381	0.765082	0.033228	-0.622687	0.160642	9.63907	-1.60891	2.2973	-0.0273494	0.00478889	0.0096853	-1.00806	-0.00366211	-0.506104	0.832171	0.0915011	-0.530169	-0.13431	8.46747	2.84649	4.21957	-0.0116358	0.00100404	0.00345704	-0.678955	-0.176514	-0.769775	0.769865	0.032118	-0.628279	-0.107431	9.5244	1.99864	2.05718	0.0054706	-0.00304438	-0.0157253	-0.856934	-0.155273	-0.620361	0.873077	-0.218155	-0.411859	-0.143239	8.97403	-2.91516	6.45823	-0.0378131	0.0173597	-0.00226785	-0.803711	0.267822	-0.776367	0.628767	0.0176858	-0.775621	0.0524514	9.51595	-0.599612	-2.10796	0.0100399	0.0630249	-0.0278668	-1.04956	-0.00878906	-0.111572	0.9397	-0.0724534	-0.325272	-0.0768867	6.7721	-0.836944	8.46966	0.0129224	0.0161911	-0.0161643	-0.46167	0.130371	-0.976807	-0.00375358	0.631409	-0.7702	0.0900039	-0.800315	3.26668	-8.61674	-0.00542803	0.00232205	-0.0251721	-0.283691	-0.383057	1.00293	0.961734	0.0355038	-0.263519	0.0660733	5.40949	0.408168	8.94356	-0.00157134	0.0153122	-0.00213804	-0.187256	-0.134033	-1.08154	0.0268436	-0.0592906	0.997624	0.0225929	-0.577808	1.11607	-9.66536	0.00755819	0.00848966	-0.00847239	-0.411377	-0.0939941	1.0769	
51	-0.880119	-0.0273699	0.473951	-0.0034677	8.73469	0.469375	5.76325	-0.0145919	-0.0291563	0.00557323	-0.62207	-0.0568848	-0.810059	0.649518	-0.0646927	-0.757588	-0.00134199	9.65756	-0.70177	-1.65088	-0.0149541	0.00271456	-0.0168366	-0.913818	-0.0153809	-0.142578	0.765156	0.0329427	-0.622538	0.160927	9.52913	-1.46952	2.08018	0.0165459	0.00497009	0.0166509	-1.0061	-0.00146484	-0.517578	0.832118	0.0913785	-0.530271	-0.134323	8.42097	3.0076	4.07877	0.0126543	-0.00242056	0.00558248	-0.683594	-0.169922	-0.769775	0.769736	0.0320529	-0.628412	-0.107601	9.53177	1.86798	2.07581	-0.00264396	-0.001571	-0.0195661	-0.859131	-0.153076	-0.613525	0.873067	-0.218589	-0.411637	-0.143275	8.87243	-3.06846	6.6114	0.00353714	0.0225407	-0.0107215	-0.803711	0.27002	-0.782959	0.63011	0.017704	-0.774536	0.0523647	9.41296	-0.540331	-1.93849	0.0132434	0.0716827	-0.028654	-1.05176	-0.0109863	-0.120117	0.939712	-0.072324	-0.325258	-0.0769227	6.80978	-0.879052	8.51062	0.0102736	0.0160857	-0.01986	-0.46167	0.132568	-0.988525	-0.0036114	0.631326	-0.7703	0.0897379	-0.787786	3.26491	-8.60992	-0.00110063	0.00254216	-0.0238825	-0.276367	-0.389893	1.00977	0.961799	0.0353637	-0.263322	0.06598	5.32322	0.434103	8.94869	-0.0041618	0.0142143	-0.000642665	-0.187012	-0.13623	-1.07471	0.0267847	-0.0593299	0.997627	0.0224193	-0.572374	1.12979	-9.66322	0.00943542	0.00592999	-0.00765765	-0.413818	-0.0917969	1.08154	
52	-0.879981	-0.0270158	0.47423	-0.00318672	8.77813	0.452774	5.74711	-0.0150232	-0.0112813	-0.00650964	-0.62207	-0.059082	-0.814209	0.649131	-0.0649159	-0.7579	-0.00125001	9.60085	-0.820508	-1.64655	-0.0220818	0.00312306	0.00234579	-0.918457	-0.00878906	-0.138184	0.765088	0.0326921	-0.622678	0.160757	9.58028	-1.37048	2.18211	-0.0301182	-0.00992319	-0.0105699	-1.00391	-0.00366211	-0.519775	0.832167	0.0914439	-0.530208	-0.134224	8.40066	2.88543	4.14791	0.0223467	0.0115382	0.00328152	-0.677002	-0.167725	-0.769775	0.769669	0.0315623	-0.628494	-0.107745	9.52009	1.86934	2.11491	-0.0230288	0.00782743	-0.00363645	-0.859131	-0.153076	-0.622559	0.873076	-0.219147	-0.411276	-0.143403	8.88912	-3.25094	6.4279	-0.0129048	0.0237561	-0.00473485	-0.805908	0.27002	-0.776367	0.630755	0.0177744	-0.774014	0.0523013	9.5226	-0.547716	-2.00421	0.0315722	0.0620878	-0.0198695	-1.05176	-0.0109863	-0.115723	0.939713	-0.0723739	-0.32526	-0.0768618	6.75886	-0.914397	8.44774	0.00197629	0.0135366	-0.0111678	-0.463623	0.125977	-0.986084	-0.00356815	0.631214	-0.770397	0.0896917	-0.787495	3.25884	-8.60186	0.00961889	0.00514895	-0.022892	-0.276855	-0.378418	1.00269	0.961798	0.0353229	-0.263334	0.0659738	5.42794	0.290083	8.94953	0.00759309	0.0144214	0.00253447	-0.187012	-0.13623	-1.08374	0.0267965	-0.0592469	0.997631	0.0224442	-0.579441	1.10564	-9.69666	0.000259354	0.00683392	-0.00839968	-0.413818	-0.0917969	1.08154	
53	-0.879954	-0.0266515	0.4743	-0.00323828	8.7575	0.469988	5.76005	-0.00993159	-0.00663534	0.0160575	-0.628662	-0.0612793	-0.810059	0.648327	-0.0651422	-0.758569	-0.00110927	9.70265	-0.811571	-1.52891	-0.00216733	-0.026377	-0.020317	-0.916504	-0.00219727	-0.138428	0.764892	0.0328674	-0.622815	0.161126	9.55032	-1.6646	2.27771	0.0149089	-0.00738926	0.00746422	-1.0083	0.00292969	-0.517822	0.832194	0.0914832	-0.530145	-0.134276	8.46128	2.75825	4.14916	-0.00449148	0.00869148	-0.00719959	-0.674805	-0.169922	-0.767578	0.769483	0.0315895	-0.628762	-0.107505	9.64012	1.86327	2.10595	0.0196031	-0.010475	-0.00921319	-0.859131	-0.155273	-0.618164	0.873056	-0.219559	-0.41115	-0.143257	8.9459	-3.00972	6.58914	-0.0236971	0.0132684	-0.00600354	-0.80835	0.276367	-0.778809	0.630938	0.0178846	-0.773893	0.051832	9.60589	-0.590342	-1.93657	0.0200354	0.00472804	-0.032725	-1.05151	-0.0131836	-0.113525	0.939735	-0.0724222	-0.325204	-0.0767775	6.78438	-0.912214	8.49026	0.00539781	0.0170087	-0.0126914	-0.46167	0.130371	-0.986084	-0.00344755	0.631125	-0.770487	0.0895519	-0.788266	3.27069	-8.62988	-0.00149506	0.00513893	-0.0233933	-0.281006	-0.39209	1.00513	0.961832	0.0353988	-0.263209	0.0659384	5.32719	0.531914	8.99643	0.00244521	0.0154849	0.00153142	-0.182617	-0.133789	-1.08154	0.026727	-0.0591843	0.997634	0.0225518	-0.555464	1.12456	-9.68387	0.00483907	0.009596	-0.0070877	-0.411133	-0.0983887	1.07935	
54	-0.879879	-0.0264413	0.474448	-0.00355807	8.71736	0.439599	5.76826	0.000425886	-0.0102148	0.0105171	-0.626465	-0.0612793	-0.807861	0.648164	-0.0650044	-0.75872	-0.00108397	9.73787	-0.847623	-1.51702	0.000514634	-0.00449125	-0.0270785	-0.918457	-0.00878906	-0.138184	0.764854	0.0325176	-0.622872	0.161155	9.72687	-1.38149	2.10485	-0.0179259	0.0040312	0.017701	-1.0105	0.000732422	-0.52002	0.832248	0.0914643	-0.530085	-0.134192	8.49185	3.08856	4.17586	0.00421304	0.0120791	0.00764012	-0.674561	-0.176514	-0.765381	0.769312	0.03191	-0.628995	-0.107267	9.53431	1.847	2.18188	0.0332008	-0.0128737	-0.0168122	-0.859131	-0.155273	-0.615723	0.872997	-0.219685	-0.411235	-0.143178	8.83853	-3.09444	6.48362	0.00484186	0.00712874	-0.0105792	-0.803955	0.27417	-0.778809	0.631443	0.0185466	-0.773483	0.0515789	9.42769	-0.57332	-1.9846	0.0186453	0.0402469	-0.0479117	-1.05371	-0.0151367	-0.12207	0.939716	-0.0723274	-0.325262	-0.0768565	6.77081	-0.853546	8.46825	0.00847264	0.0104899	-0.0204833	-0.459717	0.134766	-0.981445	-0.00343181	0.631024	-0.770572	0.0895318	-0.781393	3.27151	-8.62127	0.0119589	0.00579242	-0.0233621	-0.269775	-0.385254	1.00073	0.961821	0.0350934	-0.263301	0.0658905	5.36155	0.275656	8.97045	-0.0101871	0.00544451	0.00480741	-0.184814	-0.13623	-1.0769	0.0267497	-0.0591022	0.997639	0.0225275	-0.587341	1.11116	-9.66655	0.00521484	0.00565431	-0.00877602	-0.406738	-0.0959473	1.07935	
55	-0.879604	-0.0266569	0.474941	-0.00413688	8.76329	0.431996	5.71567	0.0267173	-0.0303209	0.0221163	-0.624268	-0.059082	-0.805664	0.647908	-0.064703	-0.758966	-0.000449933	9.70826	-0.90251	-1.63869	0.0253121	-0.00676673	-0.0102255	-0.911621	-0.0131836	-0.140381	0.765028	0.0325755	-0.622577	0.161459	9.58553	-1.51851	2.11718	0.0406469	0.00550095	-0.0117666	-1.0105	0.00512695	-0.517822	0.832475	0.0914474	-0.529805	-0.133901	8.49261	2.97868	4.12024	0.00801731	0.0172374	0.0137507	-0.683594	-0.169922	-0.767578	0.769244	0.0323386	-0.629117	-0.106914	9.49435	1.80499	2.14008	0.0445587	0.000523667	-0.0145202	-0.856934	-0.157471	-0.622559	0.872898	-0.219664	-0.411485	-0.143095	8.91237	-3.1943	6.49111	0.00224534	0.00320159	-0.0142816	-0.801514	0.27002	-0.776367	0.631362	0.0189796	-0.773561	0.0512427	9.52325	-0.526615	-1.88959	0.0270445	0.00644678	-0.0367736	-1.05347	-0.017334	-0.12207	0.93969	-0.0723791	-0.325328	-0.0768536	6.83194	-0.876923	8.4783	0.0021548	0.00868308	-0.0150824	-0.463867	0.130371	-0.981445	-0.00342579	0.630932	-0.770651	0.0894968	-0.787828	3.25669	-8.61447	0.0098123	0.00414107	-0.0221501	-0.28125	-0.385254	1.00732	0.961757	0.0348791	-0.263531	0.0660174	5.40195	0.367975	8.96729	-0.00417395	0.0044385	0.0105609	-0.187256	-0.131836	-1.08179	0.0267587	-0.0590899	0.997639	0.022557	-0.572543	1.12376	-9.66451	0.00331315	0.0059377	-0.0107041	-0.411377	-0.09375	1.08594	
56	-0.879472	-0.0267778	0.475173	-0.0047711	8.81674	0.435332	5.70574	0.0331448	-0.0229897	0.0394084	-0.624023	-0.0634766	-0.805664	0.647676	-0.0645295	-0.759179	0.00020991	9.67214	-0.804399	-1.55788	0.0120381	-0.000863754	-0.00681861	-0.918701	-0.00439453	-0.138184	0.765121	0.0329663	-0.62244	0.161465	9.54899	-1.54575	2.23103	-0.0104803	0.00262909	-0.0170235	-1.0105	0.000732422	-0.522217	0.832581	0.0914862	-0.529704	-0.133617	8.44611	2.79198	4.17167	0.0169091	0.0196404	0.0179034	-0.679199	-0.172119	-0.769775	0.768828	0.0345562	-0.629771	-0.105345	9.55604	2.07963	2.06171	0.0609697	0.00192729	-0.0127468	-0.858887	-0.161865	-0.618164	0.872913	-0.219509	-0.411607	-0.142896	8.9559	-3.01651	6.44977	0.0212829	0.00426465	-0.00882148	-0.801758	0.272217	-0.778564	0.6315	0.0191244	-0.773455	0.0510826	9.51051	-0.464644	-1.94319	0.017014	0.0253849	-0.0352693	-1.05371	-0.0153809	-0.11792	0.939671	-0.0724415	-0.32539	-0.0767532	6.77347	-0.936256	8.47154	0.00463029	0.0127531	-0.0115594	-0.463867	0.132568	-0.983887	-0.00341749	0.630896	-0.77068	0.0894996	-0.79092	3.27002	-8.62067	0.00993956	0.00491775	-0.0234513	-0.27417	-0.387451	1.00952	0.961734	0.0348554	-0.263619	0.066012	5.359	0.431935	8.95486	0.00131889	0.00435874	0.00433772	-0.184814	-0.13623	-1.08154	0.0267247	-0.0591844	0.997635	0.0225142	-0.57422	1.11481	-9.68569	0.00420325	0.00483745	-0.00981459	-0.40918	-0.0915527	1.08374	
57	-0.879357	-0.0269816	0.475364	-0.00571047	8.72812	0.488699	5.70629	0.0159005	-0.0107794	0.0206711	-0.628418	-0.0634766	-0.812256	0.647538	-0.0644554	-0.759302	0.000670364	9.64683	-0.776061	-1.62538	-0.000335762	0.00626814	-0.0109507	-0.914062	-0.0109863	-0.133301	0.765208	0.033729	-0.622172	0.161926	9.59282	-1.4268	2.38766	0.0521011	0.01325	-0.00801356	-1.01025	-0.0012207	-0.52002	0.832734	0.0916432	-0.529546	-0.133177	8.37098	2.90833	4.13833	0.017869	0.00786894	0.0121905	-0.674561	-0.174316	-0.765381	0.769016	0.0344645	-0.629551	-0.105318	9.58686	1.84915	1.97594	-0.0015577	0.0327073	-0.0083653	-0.861328	-0.155273	-0.611084	0.87288	-0.219646	-0.411672	-0.142693	8.89196	-3.11133	6.49951	-0.00840901	0.00852119	-0.00737438	-0.805908	0.272217	-0.780762	0.631965	0.0193761	-0.773073	0.0510319	9.46918	-0.523531	-1.93053	0.0209249	0.0427796	-0.0273723	-1.05347	-0.017334	-0.115723	0.939667	-0.0723667	-0.32544	-0.0766684	6.77055	-0.871356	8.46665	0.0104013	0.0134202	-0.0135733	-0.459229	0.128174	-0.981445	-0.00341749	0.630896	-0.77068	0.0894996	-0.79092	3.27002	-8.62067	0.00993956	0.00491775	-0.0234513	-0.27417	-0.387451	1.00952	0.961696	0.0347173	-0.263761	0.0660799	5.39171	0.349556	8.91927	-0.000553211	0.00783861	0.00787454	-0.187256	-0.134033	-1.07471	0.0267577	-0.0591155	0.997639	0.0224876	-0.582418	1.11828	-9.66553	0.00627764	0.00566455	-0.00920884	-0.40918	-0.0915527	1.08154	
58	-0.879182	-0.0269149	0.475694	-0.00553203	8.79943	0.436916	5.68353	-0.0105167	-0.0171236	-0.0143375	-0.626221	-0.0656738	-0.803467	0.64764	-0.0645903	-0.759203	0.000497201	9.68809	-0.736415	-1.59095	-0.0125789	0.0128827	-0.00940623	-0.918457	-0.0109863	-0.137939	0.765273	0.0330872	-0.622176	0.16174	9.58167	-1.53337	2.25352	-0.0423389	0.0143857	0.0145176	-1.0083	0.000732422	-0.52002	0.832706	0.0911614	-0.529642	-0.133306	8.43726	2.96083	4.2119	-0.016196	-0.00178465	0.0022372	-0.677002	-0.167725	-0.767578	0.769174	0.0342738	-0.629422	-0.104999	9.46388	2.04333	1.93149	-0.0168051	0.0144195	0.00109646	-0.856934	-0.155273	-0.620361	0.873005	-0.219589	-0.411499	-0.142518	8.91887	-3.1092	6.49881	0.00199584	0.0257124	-0.00501641	-0.805908	0.27002	-0.776367	0.632154	0.0193278	-0.77292	0.0510085	9.47611	-0.498684	-1.83883	0.0240223	0.0122691	-0.00901177	-1.04492	-0.0195312	-0.119873	0.939669	-0.0724937	-0.3254	-0.0766941	6.76254	-0.934734	8.45508	-0.00141102	0.0172345	-0.0148676	-0.46167	0.134766	-0.981445	-0.00346827	0.631434	-0.770175	0.0900547	-0.791851	3.26129	-8.61345	0.0126854	0.00632582	-0.0212787	-0.271973	-0.385254	1.01172	0.961693	0.0347693	-0.263763	0.0660886	5.41127	0.333018	8.98058	0.00783068	0.0116498	0.00215682	-0.184814	-0.13623	-1.08374	0.0267696	-0.0590466	0.997641	0.0225747	-0.579524	1.10704	-9.69694	0.000575697	0.00552749	-0.00802452	-0.408936	-0.0983887	1.08154	
59	-0.879327	-0.0267202	0.47544	-0.00509589	8.76593	0.46499	5.71526	-0.0190504	0.0183397	-0.00762054	-0.624268	-0.059082	-0.810059	0.647468	-0.0650839	-0.759308	0.000261663	9.68416	-0.810941	-1.54839	-0.0334272	0.00310621	-0.00845265	-0.913818	-0.0153809	-0.137939	0.765244	0.032837	-0.622189	0.161874	9.56712	-1.6081	2.26247	0.0145768	0.00564558	0.0150751	-1.0061	-0.00146484	-0.517578	0.83256	0.0908722	-0.529901	-0.13338	8.47005	2.82564	4.0604	-0.00522775	-0.0079893	0.00292476	-0.67041	-0.169922	-0.765381	0.769022	0.0333697	-0.62961	-0.10528	9.5772	1.62014	1.992	-0.0230689	-0.00723263	0.0036749	-0.857178	-0.153076	-0.620361	0.873037	-0.220254	-0.411032	-0.142641	8.8557	-3.06422	6.57997	-0.0301347	0.0261587	-0.0127303	-0.803955	0.27417	-0.778809	0.63158	0.0192807	-0.773357	0.0515178	9.57599	-0.581785	-2.01168	0.0316134	-0.0167864	-0.00557811	-1.05591	-0.0153809	-0.11792	0.939667	-0.0725473	-0.325379	-0.0767559	6.81013	-0.880161	8.4576	0.00253114	0.0195884	-0.0173646	-0.459473	0.130371	-0.974365	-0.00346307	0.631309	-0.770277	0.0900542	-0.797211	3.26641	-8.60162	0.0113407	0.00686548	-0.020296	-0.28125	-0.387695	1.00732	0.96173	0.0348534	-0.263616	0.0660843	5.37915	0.447248	8.92891	0.00486727	0.0196257	0.00437506	-0.182617	-0.138184	-1.0769	0.0267779	-0.0589482	0.997642	0.0227711	-0.571073	1.12228	-9.65519	-0.00035666	0.00694002	-0.0070172	-0.40918	-0.0915527	1.08374	
60	-0.879525	-0.0262319	0.475104	-0.00493405	8.71542	0.482326	5.73404	-0.0238105	0.00815697	0.00479391	-0.630859	-0.0571289	-0.810059	0.647342	-0.0655315	-0.759377	7.71411e-05	9.74741	-0.924666	-1.55882	-0.0161772	0.0120576	-0.00930666	-0.911865	-0.00878906	-0.133545	0.765152	0.0320227	-0.622381	0.161735	9.63685	-1.56452	2.20793	-0.0319537	0.00441462	0.00859334	-1.0105	0.00512695	-0.524658	0.832393	0.0905254	-0.530186	-0.133529	8.44629	2.92586	4.18508	-0.010695	-0.00834132	0.00218964	-0.676758	-0.174316	-0.769775	0.768937	0.0331731	-0.629762	-0.105047	9.56939	1.81551	2.15728	-0.0172785	-0.00383739	-0.00587518	-0.859131	-0.153076	-0.618164	0.873049	-0.220589	-0.41082	-0.142662	8.89144	-3.02642	6.49238	-0.0101729	0.0154049	-0.0107096	-0.801514	0.27002	-0.774414	0.631733	0.0189806	-0.773217	0.0518554	9.48262	-0.507219	-1.86222	0.020405	0.0239581	0.00209365	-1.05151	-0.017334	-0.126221	0.939702	-0.072586	-0.32526	-0.0767898	6.77749	-0.928367	8.4811	0.00460727	0.0164344	-0.0151391	-0.461426	0.128174	-0.983643	-0.00336155	0.631185	-0.77039	0.0899639	-0.770655	3.2512	-8.61213	0.000272533	0.00498051	-0.0211398	-0.281006	-0.389893	1.00952	0.961776	0.0347993	-0.263468	0.0660361	5.34917	0.405991	8.91635	0.00449467	0.0193517	0.00266708	-0.185059	-0.134033	-1.07935	0.0266949	-0.0589863	0.997642	0.0227549	-0.579006	1.12085	-9.67538	0.00302334	0.00676275	-0.0076085	-0.413574	-0.0939941	1.08154	
61	-0.879514	-0.0254172	0.47517	-0.00481437	8.70076	0.387972	5.74255	-0.0306502	-0.0114983	0.0111099	-0.631104	-0.0571289	-0.805664	0.647689	-0.0659542	-0.759044	-1.99288e-05	9.74001	-0.866175	-1.57914	-0.0229692	0.0383374	-0.00336186	-0.914062	-0.0065918	-0.142822	0.765169	0.031995	-0.622331	0.161856	9.57269	-1.58515	2.0702	0.0105787	0.0032435	-0.000555385	-1.0083	0.00732422	-0.513428	0.832344	0.0902245	-0.530312	-0.133541	8.48891	2.92901	4.08525	0.000128619	0.000470738	0.00697732	-0.677002	-0.172119	-0.769775	0.769005	0.0331152	-0.629692	-0.104989	9.58338	1.97596	2.07267	0.00332103	0.0138046	-0.0128673	-0.856934	-0.155273	-0.615723	0.873109	-0.220491	-0.410799	-0.142507	8.91818	-3.10686	6.48401	0.0155037	0.017336	-0.00857672	-0.799316	0.27002	-0.774414	0.63114	0.0192147	-0.773634	0.0527656	9.54912	-0.550813	-1.84716	0.0514446	-0.0200223	-0.00150377	-1.04712	-0.0151367	-0.119873	0.939733	-0.0725789	-0.325184	-0.0767402	6.80621	-0.889101	8.48549	0.00647546	0.0186863	-0.0142473	-0.459473	0.130371	-0.981445	-0.00329889	0.631081	-0.770473	0.0899858	-0.802793	3.26423	-8.62268	0.0147694	0.00833738	-0.0225789	-0.278809	-0.389893	1.00513	0.961807	0.034742	-0.263336	0.0661363	5.3459	0.386456	8.94319	0.00429295	0.0140645	0.0057741	-0.182861	-0.131592	-1.07471	0.0267144	-0.0588901	0.997645	0.0228494	-0.558858	1.12833	-9.66429	0.00330685	0.00342893	-0.00854789	-0.40918	-0.0915527	1.0791	
62	-0.879461	-0.0249245	0.475293	-0.00478116	8.78539	0.300459	5.72681	-0.0121428	-0.00283741	0.00585118	-0.626709	-0.0549316	-0.810059	0.647961	-0.0660591	-0.758804	-4.71222e-05	9.74276	-0.859951	-1.51378	-0.0137663	0.0419964	-0.0124706	-0.911865	-0.0109863	-0.135742	0.765091	0.0321263	-0.622407	0.161903	9.55472	-1.5341	2.17988	0.0124213	-0.00482468	-0.00472226	-1.0127	0.00512695	-0.515625	0.832362	0.0903991	-0.530338	-0.133204	8.4541	2.90197	4.2199	0.0162856	0.00719688	0.00862512	-0.679199	-0.169922	-0.769775	0.769	0.0327636	-0.629713	-0.105005	9.53998	1.76687	2.04404	-0.0228978	0.00205146	0.00225657	-0.857178	-0.153076	-0.618164	0.873062	-0.220626	-0.410823	-0.142519	8.96651	-3.19368	6.58352	0.00243162	0.0122107	-0.0130378	-0.805908	0.272217	-0.774414	0.630405	0.0191914	-0.774148	0.0539973	9.55763	-0.575169	-1.96548	0.0647264	-0.02992	0.0166823	-1.04956	-0.0109863	-0.111572	0.939744	-0.0725944	-0.325164	-0.0766752	6.75482	-0.916644	8.4754	0.00553318	0.016152	-0.0108673	-0.463623	0.128174	-0.979004	-0.00320649	0.631015	-0.770542	0.0898605	-0.7888	3.25877	-8.61742	0.00421275	0.00333453	-0.0235395	-0.271973	-0.387451	1.00293	0.961823	0.0347231	-0.263275	0.0661637	5.35918	0.340221	8.99401	0.00134407	0.0139554	0.00532525	-0.182617	-0.135986	-1.0769	0.0266921	-0.0587926	0.997651	0.0228809	-0.569771	1.11362	-9.67664	0.0020812	0.00715717	-0.00879249	-0.411377	-0.0961914	1.08374	
63	-0.879532	-0.0251258	0.47515	-0.0049364	8.72567	0.355903	5.72381	0.0173829	0.000706629	-0.00112146	-0.628906	-0.0549316	-0.807861	0.648478	-0.0661015	-0.758358	1.05653e-05	9.69684	-0.828751	-1.54409	-0.00515775	0.0382299	-0.0128773	-0.920654	-0.0065918	-0.142822	0.765055	0.0322477	-0.622435	0.161943	9.64577	-1.5583	2.30382	-0.00653046	0.00951952	-0.00148864	-1.0105	0.00292969	-0.517822	0.832303	0.0901698	-0.530468	-0.133209	8.45695	2.83197	4.14929	-0.00278287	-0.00471518	0.00487104	-0.674805	-0.169922	-0.765381	0.768841	0.0326743	-0.629887	-0.105153	9.57723	1.90092	2.11603	0.00235042	9.62649e-06	-0.0159256	-0.852783	-0.153076	-0.618164	0.873109	-0.220305	-0.411024	-0.142149	8.88216	-3.05118	6.48645	0.0213579	0.00325885	-0.0137325	-0.797607	0.276367	-0.778809	0.629886	0.019117	-0.774499	0.0550522	9.48691	-0.606757	-1.95415	0.0510023	-0.00862649	0.0149135	-1.04736	-0.00878906	-0.109375	0.93977	-0.0725172	-0.325085	-0.0767627	6.77503	-0.879158	8.4805	0.00401751	0.0113536	-0.0121603	-0.46167	0.130371	-0.981445	-0.00322263	0.630979	-0.770569	0.0898809	-0.787832	3.25393	-8.60897	0.0122124	0.00481926	-0.0226502	-0.278809	-0.389893	1.00293	0.961811	0.0347284	-0.263314	0.0661758	5.37717	0.376284	8.94386	0.0036228	0.00797968	0.0046389	-0.187256	-0.131836	-1.08179	0.0266921	-0.0587926	0.997651	0.0228809	-0.569771	1.11362	-9.67664	0.0020812	0.00715717	-0.00879249	-0.411377	-0.0961914	1.08374	
64	-0.879543	-0.0253109	0.475119	-0.00508953	8.75127	0.400835	5.74375	0.0193378	-6.21593e-05	0.0025332	-0.628662	-0.059082	-0.807861	0.648938	-0.0661461	-0.75796	6.9903e-05	9.7	-0.85517	-1.55024	-0.0204586	0.0451739	-0.00852429	-0.911865	-0.00878906	-0.140381	0.765	0.032025	-0.622499	0.162	9.55666	-1.5751	2.23658	0.00570627	0.00453407	0.00906281	-1.01025	0.000732422	-0.513184	0.83227	0.0900697	-0.530544	-0.13318	8.42755	2.85585	4.15719	-0.000881973	-0.00210821	0.00666523	-0.679199	-0.169922	-0.767578	0.769056	0.0320257	-0.629611	-0.105439	9.50283	1.7836	1.97603	-0.0277193	-0.000262997	-0.0132295	-0.859619	-0.146484	-0.627197	0.8731	-0.220172	-0.411122	-0.142126	8.90376	-3.04006	6.48609	0.0136567	0.00755123	-0.0203377	-0.806152	0.27417	-0.778809	0.629436	0.018999	-0.774839	0.0554365	9.4531	-0.552512	-1.89899	0.0366257	-0.0308304	0.0112919	-1.05396	-0.0109863	-0.120117	0.939762	-0.0725169	-0.325124	-0.0767047	6.76557	-0.897002	8.48059	0.00771235	0.0124819	-0.0160177	-0.459473	0.132568	-0.986084	-0.00314934	0.630913	-0.77063	0.0898231	-0.798208	3.25783	-8.61664	0.00318174	0.00380534	-0.0234187	-0.278809	-0.389893	1.00732	0.961816	0.0346082	-0.263292	0.0662587	5.31676	0.459099	8.93954	-0.0046312	0.0132471	0.00728313	-0.187256	-0.129639	-1.08179	0.0265365	-0.0590006	0.997647	0.0227081	-0.569455	1.12224	-9.67542	0.00609546	0.00671818	-0.00961354	-0.413574	-0.0961914	1.08154	
65	-0.879784	-0.0250266	0.474693	-0.00462284	8.63703	0.395429	5.75057	-0.0254213	-0.0128692	-0.00966276	-0.628906	-0.0549316	-0.805664	0.649107	-0.0666101	-0.757775	-0.000445767	9.75171	-0.918208	-1.58988	-0.0122851	0.025861	-0.018909	-0.916504	-0.00219727	-0.140625	0.764576	0.0315358	-0.623047	0.16199	9.66653	-1.58524	2.17478	-0.03461	-0.0111502	0.00852022	-1.0105	0.00512695	-0.513184	0.831891	0.0901903	-0.531092	-0.133284	8.52521	2.86222	4.20037	0.00893618	-0.0113165	-0.0024632	-0.679199	-0.172119	-0.765381	0.768713	0.0318646	-0.630065	-0.105277	9.64844	1.72253	2.04117	-0.0252013	-0.00449789	-0.0047525	-0.859619	-0.146484	-0.611328	0.872882	-0.220439	-0.411374	-0.142316	8.94072	-3.06267	6.53878	-0.0033851	0.00919093	-0.0257031	-0.799561	0.27417	-0.776611	0.62749	0.0188956	-0.776355	0.0563231	9.48914	-0.641551	-2.04249	0.0103717	-0.0205003	-0.00547048	-1.05396	-0.0065918	-0.107422	0.93967	-0.0727784	-0.325346	-0.0766371	6.75319	-0.951797	8.48669	0.00573901	0.0086092	-0.0143959	-0.46167	0.130371	-0.983887	-0.00322024	0.630795	-0.770711	0.0899543	-0.80066	3.24919	-8.61967	0.018716	0.00676167	-0.0225907	-0.276611	-0.385254	1.00293	0.961774	0.034371	-0.263461	0.0663212	5.36823	0.374239	8.98072	0.000833389	0.00285768	0.0090076	-0.182617	-0.135986	-1.08374	0.0265653	-0.058874	0.997656	0.0225771	-0.567315	1.11034	-9.69704	0.00651168	0.00496767	-0.0111395	-0.40918	-0.0915527	1.08154	
66	-0.879441	-0.0246955	0.475346	-0.00434358	8.79953	0.356733	5.73104	-0.012275	-0.0292064	-0.00104198	-0.630859	-0.0593262	-0.807861	0.64935	-0.0667839	-0.757551	-0.000537866	9.58517	-0.889314	-1.58492	-0.0143035	0.0212646	-0.0139572	-0.911865	-0.0109863	-0.138184	0.764612	0.0314223	-0.623019	0.161953	9.622	-1.55246	2.22116	0.00666105	0.0129345	-0.00154664	-1.0083	0.00512695	-0.522461	0.831758	0.0896688	-0.531304	-0.133616	8.43457	2.90753	4.10908	-0.02707	-0.00557494	-0.00116091	-0.679199	-0.169922	-0.763184	0.768659	0.032172	-0.630113	-0.105287	9.45298	2.04015	2.13051	-0.0094036	0.0096246	-0.0263728	-0.861572	-0.150879	-0.615723	0.872921	-0.220365	-0.411293	-0.142431	8.89685	-3.08706	6.47616	0.00181206	0.0118205	-0.0121575	-0.801758	0.272217	-0.774414	0.626269	0.0187037	-0.777334	0.0564734	9.40623	-0.672642	-2.09444	0.00785077	-0.0450748	-0.00605998	-1.0498	-0.00219727	-0.105469	0.939594	-0.0727967	-0.325554	-0.0766666	6.77667	-0.919311	8.46961	0.00184794	0.00760094	-0.0184109	-0.457275	0.130371	-0.981445	-0.00330058	0.63097	-0.770541	0.0901829	-0.789524	3.25903	-8.62515	0.0146978	0.00471583	-0.0225603	-0.276611	-0.385254	1.01172	0.961661	0.0342633	-0.263885	0.0663241	5.38605	0.300776	8.96777	-0.000773672	-0.00731443	0.0052536	-0.187256	-0.134033	-1.08154	0.0266782	-0.0587727	0.99766	0.0225432	-0.580561	1.1034	-9.67842	0.00585705	0.00305543	-0.00801503	-0.411621	-0.0893555	1.0813	
67	-0.879359	-0.0246681	0.475499	-0.00445416	8.70507	0.415942	5.71661	0.00477907	-0.00997065	0.00310767	-0.626221	-0.0612793	-0.810059	0.649251	-0.0671348	-0.757605	-0.000453766	9.66874	-0.841752	-1.56099	-0.0238229	0.00950557	-0.00660592	-0.918701	-0.00439453	-0.145264	0.764476	0.0311598	-0.623241	0.161791	9.57283	-1.51688	2.14448	-0.0288448	-0.00917433	0.00542702	-1.0105	0.00732422	-0.517822	0.831569	0.0892915	-0.531631	-0.133748	8.50922	2.89393	4.0991	-0.00741224	-0.0106978	0.00484216	-0.679199	-0.169922	-0.767578	0.768596	0.0317986	-0.630208	-0.105294	9.57287	1.67033	1.91687	0.0312017	0.00251542	-0.00327476	-0.859131	-0.153076	-0.613525	0.872776	-0.22058	-0.411454	-0.142517	8.91456	-3.27416	6.5037	0.00130619	0.0062248	-0.0175832	-0.806152	0.276367	-0.778809	0.625418	0.0184131	-0.777992	0.0569433	9.47122	-0.656016	-2.12782	0.0289937	-0.0291784	0.00585552	-1.052	-0.00439453	-0.105225	0.939571	-0.0727267	-0.325622	-0.0767344	6.79705	-0.990769	8.44716	0.0101523	0.0144237	-0.0173574	-0.466064	0.132568	-0.983887	-0.00331829	0.631326	-0.77022	0.0904351	-0.792568	3.25099	-8.60873	0.00958218	0.00436327	-0.0213743	-0.28125	-0.387695	1.00513	0.961615	0.0343811	-0.264049	0.0662832	5.38816	0.361321	8.97881	0.00684969	0.00679053	-0.00234169	-0.185059	-0.131836	-1.07935	0.0267326	-0.0586705	0.997662	0.0226664	-0.572428	1.11066	-9.68715	0.000596358	0.00553118	-0.00803821	-0.406982	-0.09375	1.0791	
68	-0.879228	-0.0246048	0.475743	-0.0045426	8.70009	0.446487	5.71281	-0.00170437	-0.0251836	0.0076771	-0.624268	-0.059082	-0.803467	0.649713	-0.0674248	-0.757184	-0.000556451	9.66129	-0.887933	-1.70636	-0.0156019	0.0461367	-0.0109672	-0.914551	0	-0.147949	0.764448	0.0307623	-0.623343	0.161604	9.57122	-1.66242	2.22996	0.0115561	0.0107673	-0.000554371	-1.01465	0.000976562	-0.515381	0.831412	0.0890381	-0.531907	-0.133798	8.43995	2.87175	4.06814	-0.00293881	-0.0110234	0.00467916	-0.686035	-0.165527	-0.765625	0.768573	0.0318012	-0.630359	-0.104555	9.71609	1.75129	2.0258	-0.00933219	0.013074	0.0162741	-0.857178	-0.150879	-0.608887	0.872655	-0.22088	-0.411508	-0.142644	8.86322	-3.04733	6.5215	-0.0219726	0.00668728	-0.0231649	-0.799805	0.276367	-0.778809	0.624762	0.0180061	-0.778519	0.0570619	9.40285	-0.609744	-2.02608	0.0167372	-0.0165018	0.00163619	-1.05396	-0.0065918	-0.098877	0.939588	-0.0724764	-0.325607	-0.0768183	6.73776	-0.872819	8.44222	0.00957961	0.0175201	-0.0227962	-0.46167	0.134766	-0.983887	-0.00311412	0.631464	-0.770124	0.0902938	-0.798523	3.25185	-8.61641	-0.00390426	0.00421593	-0.0209074	-0.276611	-0.385254	1.00513	0.961608	0.0346116	-0.264066	0.0661947	5.36711	0.461048	8.88318	0.0127763	0.0113139	0.00114369	-0.193848	-0.134033	-1.08154	0.026782	-0.0585648	0.997662	0.0228636	-0.564269	1.1137	-9.6571	-0.00163718	0.00409566	-0.00775786	-0.40918	-0.09375	1.08374	
69	-0.878824	-0.0241601	0.476516	-0.00414148	8.84843	0.405182	5.69843	-0.022569	-0.00641916	-0.00872493	-0.626709	-0.0549316	-0.807861	0.649806	-0.0676593	-0.757082	-0.000722704	9.55953	-0.795887	-1.5954	-0.0294999	0.0247437	-0.0128829	-0.909912	-0.00219727	-0.147705	0.764415	0.0310058	-0.623294	0.161902	9.55867	-1.43876	2.19308	0.0321198	0.00421977	0.00451084	-1.0083	0.00292969	-0.517822	0.831283	0.0886845	-0.532116	-0.134005	8.4635	2.90119	4.08043	-0.00864567	-0.00811372	-0.00107225	-0.681396	-0.169922	-0.767578	0.768616	0.0317125	-0.630426	-0.103857	9.51971	1.73509	1.93456	0.0297401	0.00595426	0.0334046	-0.865723	-0.153076	-0.615723	0.872621	-0.220917	-0.411511	-0.142783	8.86772	-2.91135	6.36835	-0.015547	0.0115385	-0.0114059	-0.80835	0.276367	-0.776611	0.623481	0.0175949	-0.779556	0.0570489	9.46011	-0.60034	-2.23872	0.00502591	-0.0428097	-0.00481901	-1.05176	-0.00878906	-0.0944824	0.939569	-0.0724013	-0.325665	-0.0768783	6.8311	-0.891945	8.46475	0.00880384	0.0114787	-0.0171891	-0.45752	0.136963	-0.983887	-0.00296938	0.631375	-0.770228	0.0900331	-0.791138	3.27065	-8.62856	-0.000133055	0.00362995	-0.022864	-0.276611	-0.385254	1.00513	0.961599	0.0345664	-0.264122	0.0661207	5.40746	0.384478	8.91394	-0.00038498	0.0078146	0.000941099	-0.185059	-0.134033	-1.07251	0.0268	-0.0584643	0.997667	0.0228969	-0.569197	1.12063	-9.66609	0.00737877	0.0062024	-0.0100816	-0.40918	-0.0959473	1.08154	
70	-0.878808	-0.0238379	0.476563	-0.00396572	8.69404	0.343304	5.67713	-0.00936374	-0.0123525	0.00078274	-0.628662	-0.0571289	-0.805664	0.649765	-0.0679478	-0.757092	-0.000873038	9.72886	-0.874403	-1.49475	-0.013727	0.00975344	-0.0123908	-0.912109	-0.00439453	-0.145264	0.764418	0.0304093	-0.623465	0.161346	9.55388	-1.75094	2.19493	-0.0426985	-0.00344678	-0.00226515	-1.0105	0.00512695	-0.517822	0.831079	0.0885093	-0.532374	-0.134354	8.44559	2.81068	4.11453	-0.0141378	-0.00833967	-0.00684303	-0.679443	-0.167725	-0.767578	0.768493	0.0313656	-0.630544	-0.10416	9.5463	1.68392	2.03904	-0.0615192	-0.0144586	-0.016233	-0.86377	-0.150879	-0.613525	0.872475	-0.2212	-0.4116	-0.14298	8.86124	-3.04576	6.46974	-0.025402	0.00354528	-0.0234137	-0.803711	0.272217	-0.772217	0.622615	0.0172318	-0.780277	0.0567568	9.44348	-0.637816	-2.09613	-0.00802625	-0.0348248	-0.0159406	-1.0498	-0.0065918	-0.0966797	0.939591	-0.0724216	-0.325608	-0.0768274	6.82937	-0.843951	8.43143	0.0054876	0.0188157	-0.0112706	-0.463623	0.128174	-0.981445	-0.00296938	0.631375	-0.770228	0.0900331	-0.791138	3.27065	-8.62856	-0.000133055	0.00362995	-0.022864	-0.276611	-0.385254	1.00513	0.961628	0.0345348	-0.264007	0.0661804	5.40181	0.425058	8.86035	0.0026072	0.0210911	0.0084884	-0.187256	-0.129639	-1.07715	0.0267594	-0.0584382	0.99767	0.0228593	-0.567385	1.12	-9.67609	0.00868815	0.0100583	-0.0102255	-0.416016	-0.0939941	1.08374	
71	-0.878708	-0.0238184	0.476747	-0.00407536	8.80033	0.351579	5.70552	0.00259609	-0.0195303	0.00747185	-0.631104	-0.0571289	-0.801514	0.649971	-0.0680845	-0.756903	-0.00091482	9.72318	-0.894136	-1.55877	-0.00598502	0.0260575	-0.0159668	-0.914307	-0.00219727	-0.147705	0.764337	0.0303401	-0.623578	0.161303	9.59973	-1.52244	2.12941	-0.00226056	0.00742008	-0.000426493	-1.0105	0.00732422	-0.515625	0.831013	0.0885305	-0.532467	-0.134383	8.47529	2.88414	4.12414	0.00531194	-0.00399169	-0.0025697	-0.686035	-0.167725	-0.765381	0.768257	0.0308826	-0.630765	-0.104702	9.6154	1.62563	2.01782	-0.01895	-0.0205853	-0.0148053	-0.857178	-0.153076	-0.613525	0.872245	-0.221555	-0.411721	-0.143485	8.81347	-3.01283	6.5477	-0.0386777	0.0099653	-0.0353063	-0.806152	0.276367	-0.770264	0.621538	0.0169992	-0.781138	0.056779	9.45745	-0.65658	-2.18494	0.0214901	-0.0473067	-0.00562601	-1.0542	-0.00244141	-0.0925293	0.939626	-0.0724245	-0.325518	-0.0767847	6.73213	-0.879302	8.48472	0.00601051	0.0143	-0.0178865	-0.455078	0.128174	-0.976807	-0.00296938	0.631375	-0.770228	0.0900331	-0.791138	3.27065	-8.62856	-0.000133055	0.00362995	-0.022864	-0.276611	-0.385254	1.00513	0.961674	0.0344084	-0.263845	0.0662251	5.26172	0.355541	8.87486	0.00262778	0.0165384	0.00656611	-0.185059	-0.129639	-1.07935	0.0267193	-0.0583569	0.997679	0.022725	-0.563898	1.11028	-9.64797	0.0110856	0.00625246	-0.00852819	-0.413574	-0.0939941	1.0791	
72	-0.878664	-0.0237282	0.47683	-0.00438412	8.72622	0.365241	5.7052	0.00206893	-0.00340779	0.00720683	-0.631104	-0.0549316	-0.803711	0.650157	-0.0677859	-0.75677	-0.000938923	9.70491	-0.887	-1.52	0.00210807	0.0234333	-0.0271783	-0.909912	-0.0065918	-0.147705	0.764278	0.030551	-0.623663	0.161218	9.57635	-1.52008	2.16707	0.00595613	-0.00831923	-0.0172975	-1.0105	0.00732422	-0.517822	0.831031	0.0886838	-0.532439	-0.134284	8.4364	2.91085	4.08536	0.0186015	0.0100435	0.00105358	-0.679443	-0.165527	-0.763428	0.768256	0.0301778	-0.630722	-0.10518	9.59513	1.94096	2.19575	-0.0614611	0.0164855	-0.0218684	-0.868164	-0.148682	-0.613525	0.872061	-0.221505	-0.412083	-0.14364	8.9707	-3.07649	6.52673	0.0263694	0.00234522	-0.0158936	-0.808105	0.272217	-0.77002	0.621139	0.0168717	-0.781452	0.0568778	9.49133	-0.59708	-2.34385	0.0185815	-0.0272654	-0.00270332	-1.05225	0.00195312	-0.0927734	0.939585	-0.072462	-0.325626	-0.0767892	6.80651	-0.894465	8.4343	0.00222089	0.00941286	-0.0163792	-0.46167	0.132568	-0.976807	-0.00289353	0.631936	-0.769717	0.0904597	-0.812577	3.26112	-8.6178	0.00632297	0.00429459	-0.0211154	-0.276611	-0.387451	1.00732	0.961675	0.0345276	-0.263824	0.0662241	5.41844	0.276381	9.00945	0.0135815	0.00881569	0.00097435	-0.187256	-0.129639	-1.07495	0.0267053	-0.0582902	0.997684	0.0227253	-0.576026	1.1108	-9.66784	0.00580379	0.00721151	-0.00725398	-0.411377	-0.0939941	1.0769	
73	-0.878398	-0.0240221	0.477306	-0.00437587	8.75466	0.295585	5.64536	0.0148348	-0.0323695	-0.00875883	-0.631104	-0.0527344	-0.805908	0.650212	-0.0672435	-0.756771	-0.000731293	9.69813	-0.876748	-1.56395	0.00499349	0.0134509	-0.0306753	-0.916504	-0.00439453	-0.147705	0.76419	0.030698	-0.623748	0.161276	9.65224	-1.58684	2.21036	0.00202158	-0.00811519	-0.00164983	-1.0127	0.00512695	-0.513184	0.831014	0.0887297	-0.532462	-0.134265	8.55278	2.8992	4.05726	0.00805321	0.00370189	-0.000443481	-0.681396	-0.169922	-0.760986	0.76818	0.0310638	-0.630955	-0.104066	9.51787	1.90355	2.01369	0.112314	0.0199978	-0.00603078	-0.865723	-0.153076	-0.611328	0.871921	-0.221049	-0.412659	-0.143539	9.01264	-3.16304	6.46295	0.0424452	-0.00479759	-0.0241351	-0.803711	0.272217	-0.774414	0.620815	0.0165833	-0.781701	0.0570778	9.40967	-0.687039	-2.16398	0.0193018	-0.000602288	-0.00286471	-1.04761	-0.00439453	-0.0861816	0.939604	-0.0723337	-0.325609	-0.0767493	6.73709	-0.902983	8.46634	0.011484	0.0173337	-0.0175442	-0.455078	0.130371	-0.976807	-0.00277376	0.631832	-0.769809	0.0904109	-0.788236	3.26272	-8.63336	0.00533743	0.00736536	-0.0219628	-0.276611	-0.387451	1.00293	0.961717	0.0347447	-0.263618	0.0663251	5.35759	0.452145	8.92981	0.01178	0.0136885	0.00315875	-0.18042	-0.135986	-1.08154	0.0266538	-0.0583312	0.997679	0.0228658	-0.565804	1.12015	-9.68626	0.00528697	0.00719713	-0.0100969	-0.406982	-0.09375	1.0791	
74	-0.878204	-0.0248419	0.477619	-0.00460039	8.86334	0.456324	5.6697	0.0362251	-0.00311312	-0.00374576	-0.633301	-0.0571289	-0.803711	0.650255	-0.0671689	-0.756741	-0.000617264	9.62997	-0.740833	-1.56224	-0.004602	0.015933	-0.0227844	-0.914062	-0.0109863	-0.147461	0.764271	0.0306676	-0.623615	0.161411	9.58209	-1.64394	2.23158	0.0172724	0.0123463	0.00518831	-1.01489	0.00732422	-0.513184	0.83098	0.088484	-0.532539	-0.134335	8.44607	2.93157	4.0834	-0.00886037	-0.00497929	-0.00104782	-0.686035	-0.165527	-0.765625	0.768152	0.031174	-0.630997	-0.103987	9.50384	1.80819	1.88554	-0.0330748	0.0105652	-0.013541	-0.86377	-0.150879	-0.613525	0.871877	-0.220936	-0.412917	-0.143241	8.88707	-3.15241	6.45057	-0.0129708	0.00405899	-0.00690184	-0.806152	0.276367	-0.770264	0.620285	0.016238	-0.782138	0.0569448	9.4374	-0.702354	-2.25905	0.00648996	-0.0217638	-0.012333	-1.052	-0.00244141	-0.0905762	0.9396	-0.0722287	-0.325625	-0.0768283	6.78528	-0.887008	8.4402	0.00533143	0.0157703	-0.020816	-0.459473	0.130371	-0.979004	-0.00275178	0.631978	-0.769671	0.0905685	-0.800085	3.26006	-8.60092	0.0101319	0.00635464	-0.0216375	-0.276367	-0.389893	1.00513	0.961696	0.034822	-0.263693	0.0662925	5.37684	0.377585	8.93265	0.00931252	0.00718524	0.00584116	-0.182617	-0.133789	-1.08154	0.0266823	-0.0582019	0.997683	0.0230099	-0.584617	1.10904	-9.66856	-0.0010747	0.00663171	-0.00709368	-0.413574	-0.0939941	1.08374	
75	-0.878323	-0.0252347	0.477377	-0.00490949	8.72986	0.477006	5.68815	0.0139189	0.00571268	0.000254676	-0.633301	-0.0571289	-0.803711	0.650118	-0.0671018	-0.756865	-0.000477243	9.58705	-0.840381	-1.58224	-0.00856648	0.000102174	-0.00824626	-0.909912	-0.0065918	-0.147705	0.764226	0.0302789	-0.623785	0.161042	9.52815	-1.58448	2.1581	-0.0447347	0.00235908	0.00323447	-1.0083	0.00732422	-0.510986	0.830806	0.0881499	-0.532824	-0.134498	8.47307	2.78477	4.0485	-0.00122945	-0.0101663	7.67492e-05	-0.685791	-0.170166	-0.760986	0.767927	0.0308801	-0.631242	-0.104251	9.55867	1.61268	1.92434	0.0110329	-0.0254018	-0.0113675	-0.86377	-0.150879	-0.611328	0.871821	-0.221018	-0.41301	-0.143188	8.89096	-3.0564	6.4407	-0.00443489	0.00741547	-0.0177032	-0.803955	0.27417	-0.77002	0.619476	0.0158858	-0.782781	0.0570231	9.37337	-0.632086	-2.16804	0.00685129	-0.0407956	-0.00236195	-1.04785	0.00195312	-0.0883789	0.939604	-0.0722126	-0.325612	-0.0768471	6.76805	-0.895347	8.45413	0.00517168	0.0133612	-0.0170341	-0.459229	0.128174	-0.983643	-0.00261677	0.63186	-0.769788	0.0904028	-0.791203	3.25346	-8.60525	-0.00191438	0.00564504	-0.0200502	-0.276611	-0.385254	1.00293	0.961681	0.0348371	-0.26376	0.0662279	5.38604	0.40931	8.95728	0.00294451	0.00539623	-0.00116646	-0.187012	-0.138428	-1.08154	0.0266797	-0.058059	0.99769	0.023073	-0.568656	1.12337	-9.67619	0.00517685	0.00782223	-0.00629638	-0.406982	-0.0915527	1.0769	
76	-0.878323	-0.0250262	0.477388	-0.00474918	8.74681	0.457586	5.72845	-0.0212794	-0.011699	-0.000421498	-0.631104	-0.0549316	-0.801514	0.649747	-0.0671759	-0.757176	-0.000466205	9.83234	-0.915417	-1.50813	-0.0113361	0.0128291	-0.0172102	-0.914062	-0.0109863	-0.147461	0.76412	0.0302513	-0.623918	0.161034	9.64664	-1.58243	2.18286	0.0305953	0.00349	-0.00640516	-1.0105	0.00952148	-0.510986	0.830619	0.0882029	-0.533081	-0.134597	8.49537	2.93641	4.15667	-0.000720992	-0.00690922	-0.00286746	-0.679443	-0.165527	-0.765625	0.767982	0.030856	-0.631278	-0.103637	9.73354	1.79291	1.97593	0.0120083	0.0217557	0.0120205	-0.870361	-0.146729	-0.608887	0.871772	-0.220807	-0.41323	-0.143175	9.01888	-3.10298	6.59018	0.0170688	0.00672973	-0.021603	-0.808105	0.27002	-0.772217	0.618888	0.0156408	-0.783259	0.0569083	9.41408	-0.673236	-2.21761	-0.000915588	-0.0471903	-0.00507704	-1.05225	-0.000244141	-0.0842285	0.939626	-0.0722575	-0.325546	-0.0768181	6.7607	-0.870503	8.43654	0.00408528	0.0172915	-0.0122791	-0.463867	0.130371	-0.983887	-0.00260749	0.631767	-0.769858	0.0904564	-0.808016	3.26399	-8.6096	0.0167196	0.0064963	-0.0231139	-0.279053	-0.383057	1.00732	0.961728	0.0348524	-0.263584	0.0662495	5.34952	0.37978	8.99389	0.00531415	0.00880741	0.00520109	-0.185059	-0.134033	-1.07715	0.0267006	-0.0579505	0.997695	0.0231127	-0.57232	1.11665	-9.69712	0.00187623	0.00382589	-0.00953218	-0.413818	-0.0917969	1.08594	
77	-0.878051	-0.0246228	0.477913	-0.00441477	8.90247	0.383179	5.64172	-0.0176432	-0.0211463	-0.00366479	-0.633301	-0.0571289	-0.801514	0.649944	-0.0672132	-0.757004	-0.000506672	9.70763	-0.847602	-1.51106	-0.0120979	0.0341127	-0.0171164	-0.909912	-0.00439453	-0.143066	0.764088	0.030259	-0.623947	0.161071	9.63753	-1.48344	2.13956	0.00472029	0.00190077	0.000158828	-1.0127	0.00512695	-0.517822	0.830603	0.0880554	-0.533126	-0.134619	8.44343	2.87018	4.12419	0.00303938	0.00374676	0.00966248	-0.679443	-0.16333	-0.763428	0.76816	0.030827	-0.63112	-0.10328	9.61317	1.80018	2.07126	0.0144496	0.0268343	0.00980288	-0.86377	-0.146484	-0.615723	0.871598	-0.22072	-0.413524	-0.143518	8.90498	-3.17964	6.44529	0.00164427	0.00332498	-0.0380647	-0.807861	0.267822	-0.77002	0.618036	0.0157377	-0.78395	0.0566236	9.35732	-0.627685	-2.38106	0.0133899	0.0121867	-0.0228313	-1.052	-0.00244141	-0.0820312	0.939605	-0.0722745	-0.325599	-0.0768335	6.70876	-0.947189	8.47465	0.00362703	0.0104376	-0.0174455	-0.459473	0.130371	-0.979004	-0.002637	0.631714	-0.769896	0.0905001	-0.779583	3.26026	-8.60684	0.0142716	0.00506256	-0.0213475	-0.276611	-0.385254	1.00073	0.961697	0.0349382	-0.263683	0.06625	5.37215	0.40445	8.95775	0.0095483	0.00262653	0.00242405	-0.187256	-0.131836	-1.08179	0.0267701	-0.0578453	0.997697	0.0231892	-0.557867	1.1094	-9.65851	0.00154166	0.00261634	-0.00775067	-0.411377	-0.0961914	1.08154	
78	-0.878225	-0.024541	0.477598	-0.00442704	8.78311	0.325021	5.64707	0.00451624	0.0184242	-0.00203549	-0.633301	-0.0549316	-0.799316	0.650001	-0.0669668	-0.756977	-0.000377758	9.52131	-0.864997	-1.58576	0.000920814	0.0091465	-0.0248757	-0.914307	-0.00219727	-0.143066	0.764303	0.0301952	-0.623759	0.16079	9.59463	-1.56789	2.19803	-0.00691458	0.0136305	-0.00960828	-1.0105	0.00732422	-0.520264	0.830555	0.0879339	-0.533206	-0.134675	8.44631	2.72401	3.90365	0.00193742	0.00400442	-0.003835	-0.688232	-0.165771	-0.763428	0.768204	0.0305265	-0.631098	-0.103181	9.4428	1.90797	2.05355	0.00617622	0.00607346	-0.00861569	-0.865967	-0.148682	-0.615723	0.871717	-0.220229	-0.413638	-0.143223	8.88995	-2.95662	6.35314	0.0271898	0.0124631	-0.00461086	-0.810303	0.276367	-0.768066	0.617984	0.0156977	-0.783998	0.0565372	9.3477	-0.6847	-2.31981	0.0167742	0.00698038	-0.0194577	-1.05615	-0.00463867	-0.079834	0.93953	-0.0721634	-0.325817	-0.0769355	6.82211	-0.813686	8.50398	0.00611528	0.00754659	-0.0232587	-0.46167	0.132568	-0.981445	-0.00265623	0.631696	-0.769913	0.0904778	-0.796157	3.2584	-8.61459	0.0101613	0.00240978	-0.0250185	-0.279053	-0.383057	1.00952	0.961615	0.0349194	-0.263986	0.066246	5.41007	0.300559	8.99118	0.00387003	-0.00463025	0.00396883	-0.187256	-0.134033	-1.08398	0.0268421	-0.0578206	0.997696	0.0232347	-0.564499	1.11834	-9.67702	0.00270127	0.000495171	-0.0106783	-0.411377	-0.0961914	1.07935	
79	-0.878391	-0.0246968	0.477284	-0.00448988	8.71769	0.426956	5.6722	0.0133569	0.0258927	-0.00345927	-0.631104	-0.0527344	-0.810059	0.649675	-0.0669752	-0.757256	-0.000246535	9.66028	-0.814373	-1.55412	-0.0122184	-0.00691305	-0.0145392	-0.914307	-0.00439453	-0.145264	0.764119	0.0302371	-0.623938	0.160962	9.65095	-1.36528	2.09796	-0.00303213	-0.0148166	0.00204656	-1.0127	0.0117188	-0.513428	0.830504	0.0881324	-0.533293	-0.134516	8.49912	2.94638	4.12654	0.0251655	0.000994262	0.002445	-0.685791	-0.169922	-0.765381	0.768188	0.0306544	-0.63118	-0.102758	9.4713	1.68459	1.87215	-0.00986814	0.00393487	0.0145696	-0.857422	-0.146484	-0.618164	0.871614	-0.220399	-0.413735	-0.143305	8.84603	-3.03837	6.42554	-0.0125466	0.00383996	-0.0188861	-0.808105	0.27002	-0.77417	0.617999	0.0156369	-0.78399	0.0565083	9.38175	-0.66365	-2.2998	0.0142788	0.0143769	-0.0150036	-1.052	-0.00244141	-0.079834	0.939537	-0.0720938	-0.325801	-0.0769838	6.79562	-0.977494	8.42683	0.0121615	0.0202999	-0.0194899	-0.46167	0.132568	-0.983887	-0.00258904	0.63202	-0.769622	0.0906971	-0.80126	3.25769	-8.62122	0.00751622	0.00570284	-0.0206282	-0.271973	-0.387451	1.00293	0.961573	0.035016	-0.264125	0.0662472	5.36889	0.496856	8.89195	0.00372193	0.0110357	0.00667739	-0.185059	-0.129639	-1.07715	0.0268115	-0.0578931	0.99769	0.0233116	-0.564097	1.12326	-9.66644	-0.000233343	0.00430885	-0.0091128	-0.411377	-0.09375	1.08374	
80	-0.878465	-0.0248581	0.477138	-0.00455972	8.74779	0.441802	5.72067	0.00454469	-0.00501007	-0.000298273	-0.628662	-0.0593262	-0.803467	0.649608	-0.0671823	-0.757295	-0.000345842	9.75921	-0.827816	-1.5954	-0.0161038	0.0136529	-0.016677	-0.914307	-0.00219727	-0.143066	0.764172	0.0299667	-0.623898	0.16092	9.59764	-1.62774	2.15666	0.0163921	0.00736513	-0.00689112	-1.0061	0.00732422	-0.513428	0.830579	0.0880058	-0.533197	-0.134517	8.50543	2.95776	4.09129	0.00164562	0.00636748	0.0018204	-0.683838	-0.165771	-0.76123	0.768218	0.0308225	-0.631162	-0.102597	9.52662	2.02766	1.91663	0.0180427	0.0105149	-0.0129148	-0.859619	-0.144287	-0.613525	0.87165	-0.220777	-0.413486	-0.14322	8.88223	-2.9454	6.44505	-0.0151201	0.0245965	0.00352157	-0.810303	0.272217	-0.772217	0.6185	0.0154447	-0.78361	0.0563469	9.49741	-0.611038	-2.28185	0.0248491	0.0373937	-0.0106908	-1.0542	-0.000244141	-0.0842285	0.939557	-0.0720009	-0.325755	-0.0770208	6.76922	-0.816238	8.44644	0.000253312	0.017032	-0.0175883	-0.457275	0.130371	-0.979248	-0.0024815	0.631967	-0.769684	0.0905464	-0.792812	3.27177	-8.61273	-0.00408732	0.00443361	-0.0216396	-0.279053	-0.385254	1.00293	0.961559	0.0349314	-0.264208	0.0661631	5.39082	0.36722	8.89664	0.00288063	0.00568157	0.00354836	-0.189697	-0.129639	-1.07715	0.0268164	-0.0577644	0.997697	0.0233457	-0.581859	1.12197	-9.67692	0.0013512	0.00484361	-0.00713263	-0.411621	-0.0915527	1.0791	
81	-0.878303	-0.0249976	0.477429	-0.00453985	8.81265	0.468278	5.69033	0.00245236	-0.0152703	-0.00568886	-0.630859	-0.0615234	-0.801514	0.649748	-0.0673715	-0.757158	-0.000453505	9.64788	-0.864981	-1.55125	-0.0163894	0.0167303	-0.0165624	-0.914062	-0.0065918	-0.145264	0.764277	0.0301648	-0.623709	0.161115	9.58538	-1.52306	2.15615	-0.00592957	0.00437417	-0.00160733	-1.0105	0.00732422	-0.508789	0.830622	0.0880146	-0.533153	-0.134419	8.48125	2.83532	4.12521	0.00771779	0.0110698	0.00658308	-0.686035	-0.167969	-0.760986	0.768577	0.0303553	-0.630678	-0.103024	9.44909	1.90968	1.97566	0.018844	0.034242	-0.00713841	-0.85498	-0.148682	-0.618164	0.871763	-0.220503	-0.413393	-0.143226	8.98664	-3.03229	6.50315	0.0236085	0.0243946	-0.0166006	-0.803955	0.27417	-0.772217	0.61887	0.0153738	-0.783331	0.0561705	9.31209	-0.645071	-2.25909	0.00580276	0.0496626	-0.0240633	-1.05225	-0.000244141	-0.079834	0.939533	-0.0721309	-0.325797	-0.0770155	6.78485	-0.903943	8.4282	0.000469534	0.012099	-0.014187	-0.45752	0.134766	-0.976807	-0.00250282	0.632051	-0.769592	0.0907368	-0.794508	3.26413	-8.61547	0.00835645	0.0057567	-0.0214728	-0.28125	-0.387695	1.00513	0.961593	0.0348014	-0.26411	0.0661391	5.35698	0.326903	8.96332	-0.00348523	0.0145508	0.00407456	-0.184814	-0.13623	-1.0769	0.0268387	-0.0576172	0.997705	0.0233529	-0.565906	1.11998	-9.67705	0.00644128	0.00561854	-0.00734938	-0.40918	-0.0915527	1.0769	
82	-0.878389	-0.0248437	0.477278	-0.00457433	8.79192	0.401248	5.6655	-0.00344101	0.0101993	0.00189438	-0.626465	-0.0593262	-0.801514	0.649808	-0.0673145	-0.757112	-0.000404466	9.65656	-0.943976	-1.54774	-0.00207992	0.018977	-0.019153	-0.914307	-0.00219727	-0.143066	0.764327	0.030358	-0.623629	0.161149	9.53217	-1.65049	2.13346	0.0256635	0.00631755	-0.000175887	-1.01685	0.00732422	-0.510986	0.830707	0.0883374	-0.533035	-0.13415	8.46993	2.78725	4.05336	0.0249545	0.0148527	0.002108	-0.681641	-0.165527	-0.763428	0.768427	0.029444	-0.630755	-0.103927	9.51264	1.52275	1.96185	-0.064514	-0.0131834	-0.0136626	-0.861572	-0.146484	-0.613525	0.871831	-0.220636	-0.413165	-0.143269	8.93516	-3.21639	6.51924	-0.00244746	0.0216633	-0.0155437	-0.806152	0.276367	-0.770264	0.619256	0.015444	-0.783027	0.0561486	9.43029	-0.660628	-2.21125	0.0320141	0.027409	-0.020409	-1.05615	-0.00463867	-0.0861816	0.939549	-0.0722846	-0.325737	-0.076927	6.78282	-0.926584	8.45391	0.00188196	0.0161008	-0.0116421	-0.455322	0.134766	-0.979248	-0.0025785	0.631923	-0.769675	0.0909201	-0.791936	3.25542	-8.63994	0.0197463	0.00755131	-0.0211765	-0.279053	-0.385254	1.00293	0.96163	0.0347945	-0.263948	0.066242	5.35961	0.440458	8.93263	0.00338121	0.0221512	0.00897359	-0.189453	-0.134033	-1.08398	0.0268056	-0.0575364	0.99771	0.0233459	-0.576619	1.09975	-9.66059	0.0046751	0.00781457	-0.00914845	-0.411377	-0.0961914	1.08154	
83	-0.878618	-0.0248277	0.476857	-0.00471921	8.72445	0.406345	5.71239	0.0029121	0.0140787	0.00752218	-0.633301	-0.0549316	-0.807861	0.650133	-0.0673909	-0.756826	-0.000761132	9.7001	-0.869778	-1.51472	0.00338806	0.0210256	-0.0188731	-0.91626	-0.00878906	-0.149902	0.764285	0.0306035	-0.623617	0.161349	9.58388	-1.49566	2.18721	-0.00761635	0.00523578	-0.0089136	-1.0127	0.00952148	-0.508789	0.830747	0.0884985	-0.533006	-0.133911	8.4928	2.83152	4.08273	0.0100976	0.00874693	0.00522218	-0.679443	-0.165527	-0.758789	0.768428	0.0301955	-0.630817	-0.103326	9.55669	1.69447	2.11904	0.0373602	0.00314105	0.000257605	-0.86377	-0.150879	-0.613525	0.871854	-0.220787	-0.413097	-0.143087	8.87037	-2.97781	6.47691	-0.00197889	0.0115875	-0.00935633	-0.810059	0.267822	-0.77002	0.619597	0.0152699	-0.782784	0.0558192	9.43689	-0.696267	-2.2453	0.00631252	0.038593	-0.0198271	-1.05225	-0.000244141	-0.0861816	0.939568	-0.0723505	-0.32569	-0.0768297	6.80436	-0.84014	8.46682	0.0049661	0.0162991	-0.0140378	-0.461914	0.136963	-0.981689	-0.00246049	0.631826	-0.769773	0.0907661	-0.804213	3.27191	-8.61278	0.00537464	0.00610489	-0.0203307	-0.283447	-0.387695	1.00293	0.96169	0.0346907	-0.263737	0.0662622	5.34633	0.371974	8.88224	0.00233138	0.022091	0.0057245	-0.187012	-0.13623	-1.08154	0.0267638	-0.0574146	0.99772	0.023302	-0.566856	1.11655	-9.65807	0.00552256	0.00854204	-0.00765456	-0.40918	-0.0915527	1.0769	
84	-0.878732	-0.0248464	0.476641	-0.00501325	8.77913	0.451267	5.74358	0.0053414	0.0102286	0.00881686	-0.633301	-0.0571289	-0.803711	0.650319	-0.0674272	-0.756662	-0.000710203	9.66887	-0.912547	-1.62038	-0.00652251	0.02084	-0.0145007	-0.912109	-0.00439453	-0.140625	0.764231	0.0306691	-0.623617	0.161592	9.64991	-1.50336	2.22623	0.0228597	-0.00290682	-0.00494799	-1.0105	0.00952148	-0.513428	0.830864	0.0886337	-0.532854	-0.133702	8.49989	2.94057	4.18909	0.0128224	0.0145417	0.00792168	-0.681152	-0.174316	-0.760986	0.768498	0.0302936	-0.630724	-0.103341	9.61801	1.85214	2.02824	-0.00906156	0.0156513	-0.0181422	-0.86377	-0.150879	-0.611328	0.871832	-0.221027	-0.413063	-0.142949	8.89824	-3.10181	6.38642	-0.00717191	0.012465	-0.00172811	-0.80835	0.276367	-0.776611	0.619801	0.0153044	-0.782616	0.0559054	9.42956	-0.602145	-2.18104	0.0102682	0.0118645	-0.0190857	-1.05396	-0.0065918	-0.0925293	0.939585	-0.0724351	-0.325637	-0.076773	6.7747	-0.938065	8.47281	0.00567036	0.0143663	-0.013155	-0.46167	0.132568	-0.979248	-0.00247982	0.631752	-0.769823	0.0908588	-0.787026	3.25613	-8.64169	0.0176495	0.00847965	-0.0209299	-0.279053	-0.385254	1.00732	0.961713	0.0346739	-0.26365	0.066289	5.36636	0.313632	8.96154	0.00212668	0.00968444	0.002041	-0.18042	-0.133789	-1.08154	0.0267577	-0.0573719	0.997722	0.0232982	-0.571797	1.10948	-9.66914	0.00605361	0.00702422	-0.00962299	-0.406738	-0.0959473	1.08618	
